trialInstr,x_fixStart,y_fixStart,x_corrSteps,y_corrSteps,x_nrSteps,y_nrSteps,alienID,trialLength,version,trialTrain,praclen,testlen,trial_label,break_on_off,beforeExpLoop.thisRepN,beforeExpLoop.thisTrialN,beforeExpLoop.thisN,beforeExpLoop.thisIndex,mini_instr_trials.thisRepN,mini_instr_trials.thisTrialN,mini_instr_trials.thisN,mini_instr_trials.thisIndex,instrLoop.thisRepN,instrLoop.thisTrialN,instrLoop.thisN,instrLoop.thisIndex,repeat_prac.thisRepN,repeat_prac.thisTrialN,repeat_prac.thisN,repeat_prac.thisIndex,trainLoop.thisRepN,trainLoop.thisTrialN,trainLoop.thisN,trainLoop.thisIndex,moveLoop_train.thisRepN,moveLoop_train.thisTrialN,moveLoop_train.thisN,moveLoop_train.thisIndex,experiment.thisRepN,experiment.thisTrialN,experiment.thisN,experiment.thisIndex,moveLoop_test.thisRepN,moveLoop_test.thisTrialN,moveLoop_test.thisN,moveLoop_test.thisIndex,mini_instr2_trials.thisRepN,mini_instr2_trials.thisTrialN,mini_instr2_trials.thisN,mini_instr2_trials.thisIndex,start_all_time,url,slideStim,audioStim,slides.started,sounds.started,nextButton.numClicks,nextButton.timesOn,nextButton.timesOff,prev_but.numClicks,prev_but.timesOn,prev_but.timesOff,alienStim,instrFile,alienStim_instr,gridImage_instr.started,startPos_3.started,key_instr.started,alienImage_3.started,sounds_1.started,key_instr.keys,key_instr.rt,all_x,all_y,FBy_corrSteps,FBy_fixStart,FBx_corrSteps,FBx_fixStart,FBy_pathSize_check,FBx_pathSize_check,gridImage_9.started,alienImageFB_3.started,startPosFB_3.started,keyFB_3.started,pathLine_ydir_2.started,pathLine_xdir_2.started,alienFace_3.started,sounds_2.started,RTFB_instr,keyFB_3.keys,keyFB_3.rt,draw_alienStim,draw_alienID,test_x,nrepcount,perfthres,percthres,earlierperf,earlystop,nextPrac,fileidx,praclen,saveACC_train,pracFile,nextPrac_train,addNrep,fileidx_endr,repExp,showearly,gridImage_4.started,startPos.started,movePos.started,key_resp.started,alienImage.started,buttonPress_train,RTchoice_train,cumAcctrain,aCorr,saveACC_choice,corrAns,x_movePos_end,y_movePos_end,key_resp.keys,key_resp.rt,wLy_dir,wLx_dir,x_movePos,y_movePos,text_2.started,text_2.stopped,aft_x_corrPos,aft_y_corrPos,y_pathSize_check,x_pathSize_check,y_pathdirY,x_pathdirY,x_pathdirX,x_corrPos,y_corrPos,gridImage_6.started,alienImageFB_2.started,startPosFB_2.started,movePosFB_2.started,keyFB_2.started,pathLine_xdir.started,pathLine_ydir.started,alienFace.started,sounds_4.started,RT_FBtrain,keyFB_2.keys,keyFB_2.rt,saveACC_pre,ACC,within_saveACC_train,earlystop_wloop,cumAcctrain_check,gridImage_3.started,alienImage_test.started,startPos_test.started,movePos_test.started,key_resp_test.started,wLy_dir_test,wLx_dir_test,buttonPress_test,RTchoice_test,cumAcctest,corrAns_test,key_resp_test.keys,key_resp_test.rt,fixation_text.started,fixation_text.stopped,total_time,end_all_time,key_resp_3.keys,slides_2.started,sounds_3.started,nextButton_2.numClicks,nextButton_2.timesOn,nextButton_2.timesOff,prev_but_2.numClicks,prev_but_2.timesOn,prev_but_2.timesOff,bye.started,participant,train_first,00_coordinate,starting corner,date,expName,psychopyVersion,frameRate,
,,,,,,,,,,,,,,,0,0,0,0,0,0,0,0,,,,,,,,,,,,,,,,,,,,,,,,,,,,,start_all_time,testround,conditions/schedules/train_x_first/blue_star_00/bottom_right/instructions/Slide1.png,conditions/schedules/train_x_first/blue_star_00/bottom_right/instructions/Audio1.wav,228.6816964999307,228.62466135248542,1,[9.092126300092787],[9.092132499907166],0,,,,,,,,,,,,,,,,,,,,,,,,,,,,,,,,,,,,,,,,,,,,,,,,,,,,,,,,,,,,,,,,,,,,,,,,,,,,,,,,,,,,,,,,,,,,,,,,,,,,,,,,,,,,,,,,,,,,,,,,,,,,010UVG,train_x,blue_star,bottom_right,2024-12-06_13h38.53.416,HideSeek_v1,2022.2.5,59.92092835471535,
,,,,,,,,,,,,,,,0,0,0,0,1,0,1,0,,,,,,,,,,,,,,,,,,,,,,,,,,,,,,,conditions/schedules/train_x_first/blue_star_00/bottom_right/instructions/Slide2.png,conditions/schedules/train_x_first/blue_star_00/bottom_right/instructions/Audio2.wav,237.79455200000666,237.79683544998989,2,"[9.092126300092787, 19.350472300080582]","[0.014378299936652184, 19.3504796999041]",0,,,,,,,,,,,,,,,,,,,,,,,,,,,,,,,,,,,,,,,,,,,,,,,,,,,,,,,,,,,,,,,,,,,,,,,,,,,,,,,,,,,,,,,,,,,,,,,,,,,,,,,,,,,,,,,,,,,,,,,,,,,,010UVG,train_x,blue_star,bottom_right,2024-12-06_13h38.53.416,HideSeek_v1,2022.2.5,59.92092835471535,
,,,,,,,,,,,,,,,0,0,0,0,2,0,2,0,,,,,,,,,,,,,,,,,,,,,,,,,,,,,,,conditions/schedules/train_x_first/blue_star_00/bottom_right/instructions/Slide3.png,conditions/schedules/train_x_first/blue_star_00/bottom_right/instructions/Audio3.wav,257.2222041001078,257.21312645007856,3,"[9.092126300092787, 19.350472300080582, 16.852465600008145]","[0.014378299936652184, 0.013910399982705712, 16.852472099941224]",0,,,,,,,,,,,,,,,,,,,,,,,,,,,,,,,,,,,,,,,,,,,,,,,,,,,,,,,,,,,,,,,,,,,,,,,,,,,,,,,,,,,,,,,,,,,,,,,,,,,,,,,,,,,,,,,,,,,,,,,,,,,,010UVG,train_x,blue_star,bottom_right,2024-12-06_13h38.53.416,HideSeek_v1,2022.2.5,59.92092835471535,
,,,,,,,,,,,,,,,0,0,0,0,3,0,3,0,,,,,,,,,,,,,,,,,,,,,,,,,,,,,,,conditions/schedules/train_x_first/blue_star_00/bottom_right/instructions/Slide4.png,conditions/schedules/train_x_first/blue_star_00/bottom_right/instructions/Audio4.wav,274.1523072998971,274.143972849939,4,"[9.092126300092787, 19.350472300080582, 16.852465600008145, 20.07295519998297]","[0.014378299936652184, 0.013910399982705712, 0.00021749990992248058, 20.07296309992671]",0,,,,,,,,,,,,,,,,,,,,,,,,,,,,,,,,,,,,,,,,,,,,,,,,,,,,,,,,,,,,,,,,,,,,,,,,,,,,,,,,,,,,,,,,,,,,,,,,,,,,,,,,,,,,,,,,,,,,,,,,,,,,010UVG,train_x,blue_star,bottom_right,2024-12-06_13h38.53.416,HideSeek_v1,2022.2.5,59.92092835471535,
,,,,,,,,,,,,,,,0,0,0,0,4,0,4,0,,,,,,,,,,,,,,,,,,,,,,,,,,,,,,,conditions/schedules/train_x_first/blue_star_00/bottom_right/instructions/Slide5.png,conditions/schedules/train_x_first/blue_star_00/bottom_right/instructions/Audio5.wav,294.2885096000973,294.2772066200152,5,"[9.092126300092787, 19.350472300080582, 16.852465600008145, 20.07295519998297, 5.507731100078672]","[0.014378299936652184, 0.013910399982705712, 0.00021749990992248058, 0.036411400185897946, 5.507737300125882]",0,,,,,,,,,,,,,,,,,,,,,,,,,,,,,,,,,,,,,,,,,,,,,,,,,,,,,,,,,,,,,,,,,,,,,,,,,,,,,,,,,,,,,,,,,,,,,,,,,,,,,,,,,,,,,,,,,,,,,,,,,,,,010UVG,train_x,blue_star,bottom_right,2024-12-06_13h38.53.416,HideSeek_v1,2022.2.5,59.92092835471535,
,,,,,,,,,,,,,,,0,0,0,0,5,0,5,0,,,,,,,,,,,,,,,,,,,,,,,,,,,,,,,conditions/schedules/train_x_first/blue_star_00/bottom_right/instructions/Slide6.png,conditions/schedules/train_x_first/blue_star_00/bottom_right/instructions/Audio6.wav,299.8485032999888,299.84873231993987,6,"[9.092126300092787, 19.350472300080582, 16.852465600008145, 20.07295519998297, 5.507731100078672, 4.9516592000145465]","[0.014378299936652184, 0.013910399982705712, 0.00021749990992248058, 0.036411400185897946, 0.0313404998742044, 4.951665600063279]",0,,,,,,,,,,,,,,,,,,,,,,,,,,,,,,,,,,,,,,,,,,,,,,,,,,,,,,,,,,,,,,,,,,,,,,,,,,,,,,,,,,,,,,,,,,,,,,,,,,,,,,,,,,,,,,,,,,,,,,,,,,,,010UVG,train_x,blue_star,bottom_right,2024-12-06_13h38.53.416,HideSeek_v1,2022.2.5,59.92092835471535,
,,,,,,,,,,,,,,,0,0,0,0,6,0,6,0,,,,,,,,,,,,,,,,,,,,,,,,,,,,,,,conditions/schedules/train_x_first/blue_star_00/bottom_right/instructions/Slide7.png,conditions/schedules/train_x_first/blue_star_00/bottom_right/instructions/Audio7.wav,304.85079129994847,304.8525464199949,7,"[9.092126300092787, 19.350472300080582, 16.852465600008145, 20.07295519998297, 5.507731100078672, 4.9516592000145465, 5.470737700117752]","[0.014378299936652184, 0.013910399982705712, 0.00021749990992248058, 0.036411400185897946, 0.0313404998742044, 0.014211799949407578, 5.470744600053877]",0,,,,,,,,,,,,,,,,,,,,,,,,,,,,,,,,,,,,,,,,,,,,,,,,,,,,,,,,,,,,,,,,,,,,,,,,,,,,,,,,,,,,,,,,,,,,,,,,,,,,,,,,,,,,,,,,,,,,,,,,,,,,010UVG,train_x,blue_star,bottom_right,2024-12-06_13h38.53.416,HideSeek_v1,2022.2.5,59.92092835471535,
,,,,,,,,,,,,,,,0,0,0,0,7,0,7,0,,,,,,,,,,,,,,,,,,,,,,,,,,,,,,,conditions/schedules/train_x_first/blue_star_00/bottom_right/instructions/Slide8.png,conditions/schedules/train_x_first/blue_star_00/bottom_right/instructions/Audio8.wav,310.3742670000065,310.3738911201246,8,"[9.092126300092787, 19.350472300080582, 16.852465600008145, 20.07295519998297, 5.507731100078672, 4.9516592000145465, 5.470737700117752, 11.924032799899578]","[0.014378299936652184, 0.013910399982705712, 0.00021749990992248058, 0.036411400185897946, 0.0313404998742044, 0.014211799949407578, 0.04694280005060136, 11.924040299840271]",0,,,,,,,,,,,,,,,,,,,,,,,,,,,,,,,,,,,,,,,,,,,,,,,,,,,,,,,,,,,,,,,,,,,,,,,,,,,,,,,,,,,,,,,,,,,,,,,,,,,,,,,,,,,,,,,,,,,,,,,,,,,,010UVG,train_x,blue_star,bottom_right,2024-12-06_13h38.53.416,HideSeek_v1,2022.2.5,59.92092835471535,
,,,,,,,,,,,,,,,0,0,0,0,8,0,8,0,,,,,,,,,,,,,,,,,,,,,,,,,,,,,,,conditions/schedules/train_x_first/blue_star_00/bottom_right/instructions/Slide9.png,conditions/schedules/train_x_first/blue_star_00/bottom_right/instructions/Audio9.wav,322.36554790008813,322.3673657500185,9,"[9.092126300092787, 19.350472300080582, 16.852465600008145, 20.07295519998297, 5.507731100078672, 4.9516592000145465, 5.470737700117752, 11.924032799899578, 6.2709964998066425]","[0.014378299936652184, 0.013910399982705712, 0.00021749990992248058, 0.036411400185897946, 0.0313404998742044, 0.014211799949407578, 0.04694280005060136, 0.032777899876236916, 6.271003499859944]",0,,,,,,,,,,,,,,,,,,,,,,,,,,,,,,,,,,,,,,,,,,,,,,,,,,,,,,,,,,,,,,,,,,,,,,,,,,,,,,,,,,,,,,,,,,,,,,,,,,,,,,,,,,,,,,,,,,,,,,,,,,,,010UVG,train_x,blue_star,bottom_right,2024-12-06_13h38.53.416,HideSeek_v1,2022.2.5,59.92092835471535,
,,,,,,,,,,,,,,,0,0,0,0,9,0,9,0,,,,,,,,,,,,,,,,,,,,,,,,,,,,,,,conditions/schedules/train_x_first/blue_star_00/bottom_right/instructions/Slide10.png,conditions/schedules/train_x_first/blue_star_00/bottom_right/instructions/Audio10.wav,328.6861163000576,328.67253779000606,10,"[9.092126300092787, 19.350472300080582, 16.852465600008145, 20.07295519998297, 5.507731100078672, 4.9516592000145465, 5.470737700117752, 11.924032799899578, 6.2709964998066425, 7.323352999985218]","[0.014378299936652184, 0.013910399982705712, 0.00021749990992248058, 0.036411400185897946, 0.0313404998742044, 0.014211799949407578, 0.04694280005060136, 0.032777899876236916, 0.05041719996370375, 7.323362699942663]",0,,,,,,,,,,,,,,,,,,,,,,,,,,,,,,,,,,,,,,,,,,,,,,,,,,,,,,,,,,,,,,,,,,,,,,,,,,,,,,,,,,,,,,,,,,,,,,,,,,,,,,,,,,,,,,,,,,,,,,,,,,,,010UVG,train_x,blue_star,bottom_right,2024-12-06_13h38.53.416,HideSeek_v1,2022.2.5,59.92092835471535,
,,,,,,,,,,,,,,,0,0,0,0,10,0,10,0,,,,,,,,,,,,,,,,,,,,,,,,,,,,,,,conditions/schedules/train_x_first/blue_star_00/bottom_right/instructions/Slide11.png,conditions/schedules/train_x_first/blue_star_00/bottom_right/instructions/Audio11.wav,336.06442889990285,336.0619587200228,11,"[9.092126300092787, 19.350472300080582, 16.852465600008145, 20.07295519998297, 5.507731100078672, 4.9516592000145465, 5.470737700117752, 11.924032799899578, 6.2709964998066425, 7.323352999985218, 10.104874999960884]","[0.014378299936652184, 0.013910399982705712, 0.00021749990992248058, 0.036411400185897946, 0.0313404998742044, 0.014211799949407578, 0.04694280005060136, 0.032777899876236916, 0.05041719996370375, 0.04819360002875328, 10.104881400009617]",0,,,,,,,,,,,,,,,,,,,,,,,,,,,,,,,,,,,,,,,,,,,,,,,,,,,,,,,,,,,,,,,,,,,,,,,,,,,,,,,,,,,,,,,,,,,,,,,,,,,,,,,,,,,,,,,,,,,,,,,,,,,,010UVG,train_x,blue_star,bottom_right,2024-12-06_13h38.53.416,HideSeek_v1,2022.2.5,59.92092835471535,
,,,,,,,,,,,,,,,0,0,0,0,11,0,11,0,,,,,,,,,,,,,,,,,,,,,,,,,,,,,,,conditions/schedules/train_x_first/blue_star_00/bottom_right/instructions/Slide12.png,conditions/schedules/train_x_first/blue_star_00/bottom_right/instructions/Audio12.wav,346.23575589992106,346.23835254996084,12,"[9.092126300092787, 19.350472300080582, 16.852465600008145, 20.07295519998297, 5.507731100078672, 4.9516592000145465, 5.470737700117752, 11.924032799899578, 6.2709964998066425, 7.323352999985218, 10.104874999960884, 13.210068800020963]","[0.014378299936652184, 0.013910399982705712, 0.00021749990992248058, 0.036411400185897946, 0.0313404998742044, 0.014211799949407578, 0.04694280005060136, 0.032777899876236916, 0.05041719996370375, 0.04819360002875328, 0.04897859995253384, 13.210075299954042]",0,,,,,,,,,,,,,,,,,,,,,,,,,,,,,,,,,,,,,,,,,,,,,,,,,,,,,,,,,,,,,,,,,,,,,,,,,,,,,,,,,,,,,,,,,,,,,,,,,,,,,,,,,,,,,,,,,,,,,,,,,,,,010UVG,train_x,blue_star,bottom_right,2024-12-06_13h38.53.416,HideSeek_v1,2022.2.5,59.92092835471535,
1,9,0,4,0,-5,0,11,2,instr_dim1_1,,,,,,0,0,0,0,,,,,0,0,0,0,,,,,,,,,,,,,,,,,,,,,,,,,,,,,,,,,,,,,stimuli/alien_stimuli/11.png,conditions/schedules/train_x_first/blue_star_00/bottom_right/inputInstr_1.xlsx,stimuli/alien_stimuli/11.png,359.5491291000508,359.5491291000508,359.5491291000508,359.5491291000508,359.5482021101285,return,9.57009070017375,"[-0.16, -0.08, 0, 0.08, 0.16, 0.24, 0.32, 0.4, 0.48, 0.56]","[-0.4, -0.32, -0.24, -0.16, -0.08, 0, 0.08, 0.16, 0.24, 0.32]",0,0,4,9,0.0,0.4,369.273659999948,369.273659999948,369.273659999948,369.273659999948,369.273659999948,369.273659999948,369.273659999948,369.2729125700891,6.756238799775019,return,6.600400500232354,stimuli/alien_stimuli/11.png,11,9,1,,,,,,,,,,,,,,,,,,,,,,,,,,,,,,,,,,,,,,,,,,,,,,,,,,,,,,,,,,,,,,,,,,,,,,,,,,,,,,,,,,,,,,,,,010UVG,train_x,blue_star,bottom_right,2024-12-06_13h38.53.416,HideSeek_v1,2022.2.5,59.92092835471535,
,,,,,,,,,,,30,,,,0,0,0,0,,,,,,,,,,,,,,,,,,,,,,,,,,,,,,,,,,,,,,,,,,,,,,,,,,,,,,,,,,,,,,,,,,,,,,,,,,,,,,21,0.7,0,0,99,1,30,0,conditions/schedules/train_x_first/blue_star_00/bottom_right/inputTrain_1.1.xlsx,99,1,1,1,0,,,,,,,,,,,,,,,,,,,,,,,,,,,,,,,,,,,,,,,,,,,,,,,,,,,,,,,,,,,,,,,,,,,,,,,,,,,010UVG,train_x,blue_star,bottom_right,2024-12-06_13h38.53.416,HideSeek_v1,2022.2.5,59.92092835471535,
,,,,,,,,,,,,,,,1,0,1,0,0,0,0,0,,,,,,,,,,,,,,,,,,,,,,,,,,,,,,,conditions/schedules/train_x_first/blue_star_00/bottom_right/instructions/Slide13.png,conditions/schedules/train_x_first/blue_star_00/bottom_right/instructions/Audio13.wav,376.0246298999991,376.01181894014593,13,"[9.092126300092787, 19.350472300080582, 16.852465600008145, 20.07295519998297, 5.507731100078672, 4.9516592000145465, 5.470737700117752, 11.924032799899578, 6.2709964998066425, 7.323352999985218, 10.104874999960884, 13.210068800020963, 17.715797499986365]","[0.014378299936652184, 0.013910399982705712, 0.00021749990992248058, 0.036411400185897946, 0.0313404998742044, 0.014211799949407578, 0.04694280005060136, 0.032777899876236916, 0.05041719996370375, 0.04819360002875328, 0.04897859995253384, 13.210075299954042, 17.715803400147706]",0,,,,,,,,,,,,,,,,,,,,,,,,,,,,,,,,,,,,,,,,,,,,,,,,,,,,,,,,,,,,,,,,,,,,,,,,,,,,,,,,,,,,,,,,,,,,,,,,,,,,,,,,,,,,,,,,,,,,,,,,,,,,010UVG,train_x,blue_star,bottom_right,2024-12-06_13h38.53.416,HideSeek_v1,2022.2.5,59.92092835471535,
,,,,,,,,,,,,,,,1,0,1,0,1,0,1,0,,,,,,,,,,,,,,,,,,,,,,,,,,,,,,,conditions/schedules/train_x_first/blue_star_00/bottom_right/instructions/Slide14.png,conditions/schedules/train_x_first/blue_star_00/bottom_right/instructions/Audio14.wav,393.8091633000877,393.81035734992474,14,"[9.092126300092787, 19.350472300080582, 16.852465600008145, 20.07295519998297, 5.507731100078672, 4.9516592000145465, 5.470737700117752, 11.924032799899578, 6.2709964998066425, 7.323352999985218, 10.104874999960884, 13.210068800020963, 17.715797499986365, 12.741995200049132]","[0.014378299936652184, 0.013910399982705712, 0.00021749990992248058, 0.036411400185897946, 0.0313404998742044, 0.014211799949407578, 0.04694280005060136, 0.032777899876236916, 0.05041719996370375, 0.04819360002875328, 0.04897859995253384, 13.210075299954042, 0.031332300044596195, 12.742002400103956]",0,,,,,,,,,,,,,,,,,,,,,,,,,,,,,,,,,,,,,,,,,,,,,,,,,,,,,,,,,,,,,,,,,,,,,,,,,,,,,,,,,,,,,,,,,,,,,,,,,,,,,,,,,,,,,,,,,,,,,,,,,,,,010UVG,train_x,blue_star,bottom_right,2024-12-06_13h38.53.416,HideSeek_v1,2022.2.5,59.92092835471535,
2,8,2,8,2,0,0,61,2,instr_dim1_1,,,,,,1,0,1,0,,,,,0,0,0,0,,,,,,,,,,,,,,,,,,,,,,,,,,,,,,,,,,,,,stimuli/alien_stimuli/61.png,conditions/schedules/train_x_first/blue_star_00/bottom_right/inputInstr_1.xlsx,stimuli/alien_stimuli/61.png,406.65093460003845,406.65093460003845,406.65093460003845,406.65093460003845,406.6371281800792,return,6.358467300189659,"[-0.16, -0.08, 0, 0.08, 0.16, 0.24, 0.32, 0.4, 0.48, 0.56]","[-0.4, -0.32, -0.24, -0.16, -0.08, 0, 0.08, 0.16, 0.24, 0.32]",2,2,8,8,0.0,0.0,413.1607667999342,413.1607667999342,413.1607667999342,413.1607667999342,413.1607667999342,413.1607667999342,413.1607667999342,413.1426041399595,6.939776099985465,return,6.78070929995738,stimuli/alien_stimuli/61.png,61,8,2,,,,,,,,,,,,,,,,,,,,,,,,,,,,,,,,,,,,,,,,,,,,,,,,,,,,,,,,,,,,,,,,,,,,,,,,,,,,,,,,,,,,,,,,,010UVG,train_x,blue_star,bottom_right,2024-12-06_13h38.53.416,HideSeek_v1,2022.2.5,59.92092835471535,
,,,,,,,,,,,30,,,,1,0,1,0,,,,,,,,,,,,,,,,,,,,,,,,,,,,,,,,,,,,,,,,,,,,,,,,,,,,,,,,,,,,,,,,,,,,,,,,,,,,,,21,0.7,0,0,99,1,30,0,conditions/schedules/train_x_first/blue_star_00/bottom_right/inputTrain_1.1.xlsx,99,1,1,1,0,,,,,,,,,,,,,,,,,,,,,,,,,,,,,,,,,,,,,,,,,,,,,,,,,,,,,,,,,,,,,,,,,,,,,,,,,,,010UVG,train_x,blue_star,bottom_right,2024-12-06_13h38.53.416,HideSeek_v1,2022.2.5,59.92092835471535,
,,,,,,,,,,,,,,,2,0,2,0,0,0,0,0,,,,,,,,,,,,,,,,,,,,,,,,,,,,,,,conditions/schedules/train_x_first/blue_star_00/bottom_right/instructions/Slide15.png,conditions/schedules/train_x_first/blue_star_00/bottom_right/instructions/Audio15.wav,420.1022022999823,420.098379170103,15,"[9.092126300092787, 19.350472300080582, 16.852465600008145, 20.07295519998297, 5.507731100078672, 4.9516592000145465, 5.470737700117752, 11.924032799899578, 6.2709964998066425, 7.323352999985218, 10.104874999960884, 13.210068800020963, 17.715797499986365, 12.741995200049132, 30.935765199828893]","[0.014378299936652184, 0.013910399982705712, 0.00021749990992248058, 0.036411400185897946, 0.0313404998742044, 0.014211799949407578, 0.04694280005060136, 0.032777899876236916, 0.05041719996370375, 0.04819360002875328, 0.04897859995253384, 13.210075299954042, 0.031332300044596195, 12.742002400103956, 30.935771599877626]",0,,,,,,,,,,,,,,,,,,,,,,,,,,,,,,,,,,,,,,,,,,,,,,,,,,,,,,,,,,,,,,,,,,,,,,,,,,,,,,,,,,,,,,,,,,,,,,,,,,,,,,,,,,,,,,,,,,,,,,,,,,,,010UVG,train_x,blue_star,bottom_right,2024-12-06_13h38.53.416,HideSeek_v1,2022.2.5,59.92092835471535,
,,,,,,,,,,,,,,,2,0,2,0,1,0,1,0,,,,,,,,,,,,,,,,,,,,,,,,,,,,,,,conditions/schedules/train_x_first/blue_star_00/bottom_right/instructions/Slide16.png,conditions/schedules/train_x_first/blue_star_00/bottom_right/instructions/Audio16.wav,451.10938600008376,451.10755815007724,16,"[9.092126300092787, 19.350472300080582, 16.852465600008145, 20.07295519998297, 5.507731100078672, 4.9516592000145465, 5.470737700117752, 11.924032799899578, 6.2709964998066425, 7.323352999985218, 10.104874999960884, 13.210068800020963, 17.715797499986365, 12.741995200049132, 30.935765199828893, 21.862866299925372]","[0.014378299936652184, 0.013910399982705712, 0.00021749990992248058, 0.036411400185897946, 0.0313404998742044, 0.014211799949407578, 0.04694280005060136, 0.032777899876236916, 0.05041719996370375, 0.04819360002875328, 0.04897859995253384, 13.210075299954042, 0.031332300044596195, 12.742002400103956, 0.013947299914434552, 21.862872499972582]",0,,,,,,,,,,,,,,,,,,,,,,,,,,,,,,,,,,,,,,,,,,,,,,,,,,,,,,,,,,,,,,,,,,,,,,,,,,,,,,,,,,,,,,,,,,,,,,,,,,,,,,,,,,,,,,,,,,,,,,,,,,,,010UVG,train_x,blue_star,bottom_right,2024-12-06_13h38.53.416,HideSeek_v1,2022.2.5,59.92092835471535,
,7,1,4,1,-3,0,31,,train_dim1_1,1,30,,,,2,0,2,0,,,,,,,,,0,0,0,0,0,0,0,0,0,0,0,0,,,,,,,,,,,,,,,,,,,,,,,,,stimuli/alien_stimuli/31.png,,,,,,,,,,,,,,,,,,,,,,,,,,,,,,,,,,,,,,,30,,,,,,,,473.0680068999063,473.0680068999063,473.0680068999063,473.0680068999063,473.0680068999063,up,3.447130399988964,0,0,0,99,0.4,-0.24,up,3.3539067001547664,,,,,,,,,,,,,,,,,,,,,,,,,,,,,,,,,,,,,,,,,,,,,,,,,,,,,,,,,,,,010UVG,train_x,blue_star,bottom_right,2024-12-06_13h38.53.416,HideSeek_v1,2022.2.5,59.92092835471535,
,7,1,4,1,-3,0,31,,train_dim1_1,1,30,,,,2,0,2,0,,,,,,,,,0,0,0,0,0,0,0,0,1,0,1,0,,,,,,,,,,,,,,,,,,,,,,,,,,,,,,,,,,,,,,,,,,,,,,,,,,,,,,,,,,,,,,,,30,,,,,,,,476.5089622999076,476.5089622999076,476.5089622999076,476.5089622999076,476.5089622999076,up,0.8765632000286132,0,0,0,99,0.4,-0.15999999999999998,up,0.8031813001725823,,,,,,,,,,,,,,,,,,,,,,,,,,,,,,,,,,,,,,,,,,,,,,,,,,,,,,,,,,,,010UVG,train_x,blue_star,bottom_right,2024-12-06_13h38.53.416,HideSeek_v1,2022.2.5,59.92092835471535,
,7,1,4,1,-3,0,31,,train_dim1_1,1,30,,,,2,0,2,0,,,,,,,,,0,0,0,0,0,0,0,0,2,0,2,0,,,,,,,,,,,,,,,,,,,,,,,,,,,,,,,,,,,,,,,,,,,,,,,,,,,,,,,,,,,,,,,,30,,,,,,,,477.3927412999328,477.3927412999328,477.3927412999328,477.3927412999328,477.3927412999328,up,0.859815799864009,0,0,0,99,0.4,-0.07999999999999997,up,0.7779199001379311,,,,,,,,,,,,,,,,,,,,,,,,,,,,,,,,,,,,,,,,,,,,,,,,,,,,,,,,,,,,010UVG,train_x,blue_star,bottom_right,2024-12-06_13h38.53.416,HideSeek_v1,2022.2.5,59.92092835471535,
,7,1,4,1,-3,0,31,,train_dim1_1,1,30,,,,2,0,2,0,,,,,,,,,0,0,0,0,0,0,0,0,3,0,3,0,,,,,,,,,,,,,,,,,,,,,,,,,,,,,,,,,,,,,,,,,,,,,,,,,,,,,,,,,,,,,,,,30,,,,,,,,478.26005090004764,478.26005090004764,478.26005090004764,478.26005090004764,478.26005090004764,left,4.496362099889666,0,0,0,99,0.32,-0.07999999999999997,left,4.420875099953264,,,,,,,,,,,,,,,,,,,,,,,,,,,,,,,,,,,,,,,,,,,,,,,,,,,,,,,,,,,,010UVG,train_x,blue_star,bottom_right,2024-12-06_13h38.53.416,HideSeek_v1,2022.2.5,59.92092835471535,
,7,1,4,1,-3,0,31,,train_dim1_1,1,30,,,,2,0,2,0,,,,,,,,,0,0,0,0,0,0,0,0,4,0,4,0,,,,,,,,,,,,,,,,,,,,,,,,,,,,,,,,,,,,,,,,,,,,,,,,,,,,,,,,,,,,,,,,30,,,,,,,,482.76594619988464,482.76594619988464,482.76594619988464,482.76594619988464,482.76594619988464,left,0.658884400036186,0,0,0,99,0.24,-0.07999999999999997,left,0.5791698002722114,,,,,,,,,,,,,,,,,,,,,,,,,,,,,,,,,,,,,,,,,,,,,,,,,,,,,,,,,,,,010UVG,train_x,blue_star,bottom_right,2024-12-06_13h38.53.416,HideSeek_v1,2022.2.5,59.92092835471535,
,7,1,4,1,-3,0,31,,train_dim1_1,1,30,,,,2,0,2,0,,,,,,,,,0,0,0,0,0,0,0,0,5,0,5,0,,,,,,,,,,,,,,,,,,,,,,,,,,,,,,,,,,,,,,,,,,,,,,,,,,,,,,,,,,,,,,,,30,,,,,,,,483.43079519993626,483.43079519993626,483.43079519993626,483.43079519993626,483.43079519993626,left,1.62741840002127,0,0,0,99,0.15999999999999998,-0.07999999999999997,left,1.5509220999665558,,,,,,,,,,,,,,,,,,,,,,,,,,,,,,,,,,,,,,,,,,,,,,,,,,,,,,,,,,,,010UVG,train_x,blue_star,bottom_right,2024-12-06_13h38.53.416,HideSeek_v1,2022.2.5,59.92092835471535,
,7,1,4,1,-3,0,31,,train_dim1_1,1,30,,,,2,0,2,0,,,,,,,,,0,0,0,0,0,0,0,0,6,0,6,0,,,,,,,,,,,,,,,,,,,,,,,,,,,,,,,,,,,,,,,,,,,,,,,,,,,,,,,,,,,,,,,,30,,,,,,,,485.0686335999053,485.0686335999053,485.0686335999053,485.0686335999053,485.0686335999053,down,1.7086132001131773,0,0,0,99,0.15999999999999998,-0.15999999999999998,down,1.6252784999087453,,,,,,,,,,,,,,,,,,,,,,,,,,,,,,,,,,,,,,,,,,,,,,,,,,,,,,,,,,,,010UVG,train_x,blue_star,bottom_right,2024-12-06_13h38.53.416,HideSeek_v1,2022.2.5,59.92092835471535,
,7,1,4,1,-3,0,31,,train_dim1_1,1,30,,,,2,0,2,0,,,,,,,,,0,0,0,0,0,0,0,0,7,0,7,0,,,,,,,,,,,,,,,,,,,,,,,,,,,,,,,,,,,,,,,,,,,,,,,,,,,,,,,,,,,,,,,,30,,,,,,,,486.78424210008234,486.78424210008234,486.78424210008234,486.78424210008234,486.78424210008234,right,1.5438370001502335,0,0,0,99,0.24,-0.15999999999999998,right,1.4668314000591636,,,,,,,,,,,,,,,,,,,,,,,,,,,,,,,,,,,,,,,,,,,,,,,,,,,,,,,,,,,,010UVG,train_x,blue_star,bottom_right,2024-12-06_13h38.53.416,HideSeek_v1,2022.2.5,59.92092835471535,
,7,1,4,1,-3,0,31,,train_dim1_1,1,30,,,,2,0,2,0,,,,,,,,,0,0,0,0,0,0,0,0,8,0,8,0,,,,,,,,,,,,,,,,,,,,,,,,,,,,,,,,,,,,,,,,,,,,,,,,,,,,,,,,,,,,,,,,30,,,,,,,,488.33708629989997,488.33708629989997,488.33708629989997,488.33708629989997,488.33708629989997,return,2.7769359999801964,0,0,0,0,0.24,-0.15999999999999998,return,2.6894656002987176,2,-2,0.24,-0.15999999999999998,,,,,,,,,,,,,,,,,,,,,,,,,,,,,,,,,,,,,,,,,,,,,,,,,,,,,,,,010UVG,train_x,blue_star,bottom_right,2024-12-06_13h38.53.416,HideSeek_v1,2022.2.5,59.92092835471535,
,7,4,2,4,-5,0,11,,train_dim1_1,2,30,,,,2,0,2,0,,,,,,,,,0,0,0,0,0,1,1,1,0,0,0,0,,,,,,,,,,,,,,,,,,,,,,,,,stimuli/alien_stimuli/11.png,,,,,,,,,,,,,,,,,,,,,,,,,,,,,stimuli/alien_stimuli/31.png,31,7,3,,,,,,,30,,,,,,,,510.66525349998847,510.66525349998847,510.66525349998847,510.66525349998847,510.66525349998847,right,4.308188899885863,0,0,0,99,0.48000000000000004,-0.08,right,4.208844400011003,,,,,509.08902759989724,510.66525349998847,0.16,-0.32,0.0,0.24,-0.32,0.16,0.28,0.16,-0.32,492.6881971999537,492.6881971999537,492.6881971999537,492.6881971999537,492.6881971999537,492.6881971999537,492.6881971999537,492.6881971999537,492.67539620995524,16.515942699974403,return,16.37091840011999,,,,,,,,,,,,,,,,,,,,,,,,,,,,,,,,,010UVG,train_x,blue_star,bottom_right,2024-12-06_13h38.53.416,HideSeek_v1,2022.2.5,59.92092835471535,
,7,4,2,4,-5,0,11,,train_dim1_1,2,30,,,,2,0,2,0,,,,,,,,,0,0,0,0,0,1,1,1,1,0,1,0,,,,,,,,,,,,,,,,,,,,,,,,,,,,,,,,,,,,,,,,,,,,,,,,,,,,,,,,,,,,,,,,30,,,,,,,,514.962566500064,514.962566500064,514.962566500064,514.962566500064,514.962566500064,left,0.909167299978435,0,0,0,99,0.4,-0.08,left,0.8205836000852287,,,,,,,,,,,,,,,,,,,,,,,,,,,,,,,,,,,,,,,,,,,,,,,,,,,,,,,,,,,,010UVG,train_x,blue_star,bottom_right,2024-12-06_13h38.53.416,HideSeek_v1,2022.2.5,59.92092835471535,
,7,4,2,4,-5,0,11,,train_dim1_1,2,30,,,,2,0,2,0,,,,,,,,,0,0,0,0,0,1,1,1,2,0,2,0,,,,,,,,,,,,,,,,,,,,,,,,,,,,,,,,,,,,,,,,,,,,,,,,,,,,,,,,,,,,,,,,30,,,,,,,,515.8807286999654,515.8807286999654,515.8807286999654,515.8807286999654,515.8807286999654,left,0.5751587999984622,0,0,0,99,0.32,-0.08,left,0.4846425000578165,,,,,,,,,,,,,,,,,,,,,,,,,,,,,,,,,,,,,,,,,,,,,,,,,,,,,,,,,,,,010UVG,train_x,blue_star,bottom_right,2024-12-06_13h38.53.416,HideSeek_v1,2022.2.5,59.92092835471535,
,7,4,2,4,-5,0,11,,train_dim1_1,2,30,,,,2,0,2,0,,,,,,,,,0,0,0,0,0,1,1,1,3,0,3,0,,,,,,,,,,,,,,,,,,,,,,,,,,,,,,,,,,,,,,,,,,,,,,,,,,,,,,,,,,,,,,,,30,,,,,,,,516.4622223000042,516.4622223000042,516.4622223000042,516.4622223000042,516.4622223000042,left,0.6101484999526292,0,0,0,99,0.24,-0.08,left,0.524407200049609,,,,,,,,,,,,,,,,,,,,,,,,,,,,,,,,,,,,,,,,,,,,,,,,,,,,,,,,,,,,010UVG,train_x,blue_star,bottom_right,2024-12-06_13h38.53.416,HideSeek_v1,2022.2.5,59.92092835471535,
,7,4,2,4,-5,0,11,,train_dim1_1,2,30,,,,2,0,2,0,,,,,,,,,0,0,0,0,0,1,1,1,4,0,4,0,,,,,,,,,,,,,,,,,,,,,,,,,,,,,,,,,,,,,,,,,,,,,,,,,,,,,,,,,,,,,,,,30,,,,,,,,517.079702799907,517.079702799907,517.079702799907,517.079702799907,517.079702799907,down,1.594040400115773,0,0,0,99,0.24,-0.16,down,1.5158463001716882,,,,,,,,,,,,,,,,,,,,,,,,,,,,,,,,,,,,,,,,,,,,,,,,,,,,,,,,,,,,010UVG,train_x,blue_star,bottom_right,2024-12-06_13h38.53.416,HideSeek_v1,2022.2.5,59.92092835471535,
,7,4,2,4,-5,0,11,,train_dim1_1,2,30,,,,2,0,2,0,,,,,,,,,0,0,0,0,0,1,1,1,5,0,5,0,,,,,,,,,,,,,,,,,,,,,,,,,,,,,,,,,,,,,,,,,,,,,,,,,,,,,,,,,,,,,,,,30,,,,,,,,518.6836949000135,518.6836949000135,518.6836949000135,518.6836949000135,518.6836949000135,down,2.176758299814537,0,0,0,99,0.24,-0.24,down,2.0910532001871616,,,,,,,,,,,,,,,,,,,,,,,,,,,,,,,,,,,,,,,,,,,,,,,,,,,,,,,,,,,,010UVG,train_x,blue_star,bottom_right,2024-12-06_13h38.53.416,HideSeek_v1,2022.2.5,59.92092835471535,
,7,4,2,4,-5,0,11,,train_dim1_1,2,30,,,,2,0,2,0,,,,,,,,,0,0,0,0,0,1,1,1,6,0,6,0,,,,,,,,,,,,,,,,,,,,,,,,,,,,,,,,,,,,,,,,,,,,,,,,,,,,,,,,,,,,,,,,30,,,,,,,,520.8676952999085,520.8676952999085,520.8676952999085,520.8676952999085,520.8676952999085,right,0.7255657000932842,0,0,0,99,0.32,-0.24,right,0.6415185001678765,,,,,,,,,,,,,,,,,,,,,,,,,,,,,,,,,,,,,,,,,,,,,,,,,,,,,,,,,,,,010UVG,train_x,blue_star,bottom_right,2024-12-06_13h38.53.416,HideSeek_v1,2022.2.5,59.92092835471535,
,7,4,2,4,-5,0,11,,train_dim1_1,2,30,,,,2,0,2,0,,,,,,,,,0,0,0,0,0,1,1,1,7,0,7,0,,,,,,,,,,,,,,,,,,,,,,,,,,,,,,,,,,,,,,,,,,,,,,,,,,,,,,,,,,,,,,,,30,,,,,,,,521.5987760999706,521.5987760999706,521.5987760999706,521.5987760999706,521.5987760999706,right,0.5102605998981744,0,0,0,99,0.4,-0.24,right,0.4285373000893742,,,,,,,,,,,,,,,,,,,,,,,,,,,,,,,,,,,,,,,,,,,,,,,,,,,,,,,,,,,,010UVG,train_x,blue_star,bottom_right,2024-12-06_13h38.53.416,HideSeek_v1,2022.2.5,59.92092835471535,
,7,4,2,4,-5,0,11,,train_dim1_1,2,30,,,,2,0,2,0,,,,,,,,,0,0,0,0,0,1,1,1,8,0,8,0,,,,,,,,,,,,,,,,,,,,,,,,,,,,,,,,,,,,,,,,,,,,,,,,,,,,,,,,,,,,,,,,30,,,,,,,,522.1168293999508,522.1168293999508,522.1168293999508,522.1168293999508,522.1168293999508,down,0.9604244998190552,0,0,0,99,0.4,-0.32,down,0.8771877000108361,,,,,,,,,,,,,,,,,,,,,,,,,,,,,,,,,,,,,,,,,,,,,,,,,,,,,,,,,,,,010UVG,train_x,blue_star,bottom_right,2024-12-06_13h38.53.416,HideSeek_v1,2022.2.5,59.92092835471535,
,7,4,2,4,-5,0,11,,train_dim1_1,2,30,,,,2,0,2,0,,,,,,,,,0,0,0,0,0,1,1,1,9,0,9,0,,,,,,,,,,,,,,,,,,,,,,,,,,,,,,,,,,,,,,,,,,,,,,,,,,,,,,,,,,,,,,,,30,,,,,,,,523.0843312998768,523.0843312998768,523.0843312998768,523.0843312998768,523.0843312998768,return,0.8604856999590993,0,0,0,0,0.4,-0.32,return,0.7768038001377136,-1,-2,0.4,-0.32,,,,,,,,,,,,,,,,,,,,,,,,,,,,,,,,,,,,,,,,,,,,,,,,,,,,,,,,010UVG,train_x,blue_star,bottom_right,2024-12-06_13h38.53.416,HideSeek_v1,2022.2.5,59.92092835471535,
,9,4,5,4,-4,0,21,,train_dim1_1,3,30,,,,2,0,2,0,,,,,,,,,0,0,0,0,0,2,2,2,0,0,0,0,,,,,,,,,,,,,,,,,,,,,,,,,stimuli/alien_stimuli/21.png,,,,,,,,,,,,,,,,,,,,,,,,,,,,,stimuli/alien_stimuli/11.png,11,7,4,,,,,,,30,,,,,,,,530.8776253999677,530.8776253999677,530.8776253999677,530.8776253999677,530.8776253999677,left,3.4166149001102895,0,0,0,99,0.48000000000000004,-0.08,left,3.3169782001059502,,,,,529.3057168999221,530.8776253999677,0,-0.08,0.0,0.4,-0.08,0,0.2,0,-0.08,525.5361566001084,525.5361566001084,525.5361566001084,525.5361566001084,525.5361566001084,525.5361566001084,525.5361566001084,525.5361566001084,525.5193376400042,3.9054550998844206,return,3.7506429001223296,,,,,,,,,,,,,,,,,,,,,,,,,,,,,,,,,010UVG,train_x,blue_star,bottom_right,2024-12-06_13h38.53.416,HideSeek_v1,2022.2.5,59.92092835471535,
,9,4,5,4,-4,0,21,,train_dim1_1,3,30,,,,2,0,2,0,,,,,,,,,0,0,0,0,0,2,2,2,1,0,1,0,,,,,,,,,,,,,,,,,,,,,,,,,,,,,,,,,,,,,,,,,,,,,,,,,,,,,,,,,,,,,,,,30,,,,,,,,534.2935430998914,534.2935430998914,534.2935430998914,534.2935430998914,534.2935430998914,left,0.45936079998500645,0,0,0,99,0.4,-0.08,left,0.383250700077042,,,,,,,,,,,,,,,,,,,,,,,,,,,,,,,,,,,,,,,,,,,,,,,,,,,,,,,,,,,,010UVG,train_x,blue_star,bottom_right,2024-12-06_13h38.53.416,HideSeek_v1,2022.2.5,59.92092835471535,
,9,4,5,4,-4,0,21,,train_dim1_1,3,30,,,,2,0,2,0,,,,,,,,,0,0,0,0,0,2,2,2,2,0,2,0,,,,,,,,,,,,,,,,,,,,,,,,,,,,,,,,,,,,,,,,,,,,,,,,,,,,,,,,,,,,,,,,30,,,,,,,,534.7627576000523,534.7627576000523,534.7627576000523,534.7627576000523,534.7627576000523,left,0.3751687998883426,0,0,0,99,0.32,-0.08,left,0.28369770012795925,,,,,,,,,,,,,,,,,,,,,,,,,,,,,,,,,,,,,,,,,,,,,,,,,,,,,,,,,,,,010UVG,train_x,blue_star,bottom_right,2024-12-06_13h38.53.416,HideSeek_v1,2022.2.5,59.92092835471535,
,9,4,5,4,-4,0,21,,train_dim1_1,3,30,,,,2,0,2,0,,,,,,,,,0,0,0,0,0,2,2,2,3,0,3,0,,,,,,,,,,,,,,,,,,,,,,,,,,,,,,,,,,,,,,,,,,,,,,,,,,,,,,,,,,,,,,,,30,,,,,,,,535.1438331000973,535.1438331000973,535.1438331000973,535.1438331000973,535.1438331000973,left,0.4098371001891792,0,0,0,99,0.24,-0.08,left,0.3231900001410395,,,,,,,,,,,,,,,,,,,,,,,,,,,,,,,,,,,,,,,,,,,,,,,,,,,,,,,,,,,,010UVG,train_x,blue_star,bottom_right,2024-12-06_13h38.53.416,HideSeek_v1,2022.2.5,59.92092835471535,
,9,4,5,4,-4,0,21,,train_dim1_1,3,30,,,,2,0,2,0,,,,,,,,,0,0,0,0,0,2,2,2,4,0,4,0,,,,,,,,,,,,,,,,,,,,,,,,,,,,,,,,,,,,,,,,,,,,,,,,,,,,,,,,,,,,,,,,30,,,,,,,,535.5614259000868,535.5614259000868,535.5614259000868,535.5614259000868,535.5614259000868,left,0.4600378000177443,0,0,0,99,0.15999999999999998,-0.08,left,0.3713652000296861,,,,,,,,,,,,,,,,,,,,,,,,,,,,,,,,,,,,,,,,,,,,,,,,,,,,,,,,,,,,010UVG,train_x,blue_star,bottom_right,2024-12-06_13h38.53.416,HideSeek_v1,2022.2.5,59.92092835471535,
,9,4,5,4,-4,0,21,,train_dim1_1,3,30,,,,2,0,2,0,,,,,,,,,0,0,0,0,0,2,2,2,5,0,5,0,,,,,,,,,,,,,,,,,,,,,,,,,,,,,,,,,,,,,,,,,,,,,,,,,,,,,,,,,,,,,,,,30,,,,,,,,536.0300143000204,536.0300143000204,536.0300143000204,536.0300143000204,536.0300143000204,up,3.4277838999405503,0,0,0,99,0.15999999999999998,0.0,up,3.3516645000781864,,,,,,,,,,,,,,,,,,,,,,,,,,,,,,,,,,,,,,,,,,,,,,,,,,,,,,,,,,,,010UVG,train_x,blue_star,bottom_right,2024-12-06_13h38.53.416,HideSeek_v1,2022.2.5,59.92092835471535,
,9,4,5,4,-4,0,21,,train_dim1_1,3,30,,,,2,0,2,0,,,,,,,,,0,0,0,0,0,2,2,2,6,0,6,0,,,,,,,,,,,,,,,,,,,,,,,,,,,,,,,,,,,,,,,,,,,,,,,,,,,,,,,,,,,,,,,,30,,,,,,,,539.4661646999884,539.4661646999884,539.4661646999884,539.4661646999884,539.4661646999884,return,1.3430566999595612,0,0,0,0,0.15999999999999998,0.0,return,1.2561449001077563,0,-7,0.15999999999999998,0.0,,,,,,,,,,,,,,,,,,,,,,,,,,,,,,,,,,,,,,,,,,,,,,,,,,,,,,,,010UVG,train_x,blue_star,bottom_right,2024-12-06_13h38.53.416,HideSeek_v1,2022.2.5,59.92092835471535,
,7,3,6,3,-1,0,51,,train_dim1_1,4,30,,,,2,0,2,0,,,,,,,,,0,0,0,0,0,3,3,3,0,0,0,0,,,,,,,,,,,,,,,,,,,,,,,,,stimuli/alien_stimuli/51.png,,,,,,,,,,,,,,,,,,,,,,,,,,,,,stimuli/alien_stimuli/21.png,21,9,5,,,,,,,30,,,,,,,,548.1009859999176,548.1009859999176,548.1009859999176,548.1009859999176,548.1009859999176,down,4.222064400091767,0,0,0,99,0.4,-0.24,down,4.130830300273374,,,,,546.536597300088,548.1009859999176,0.24,-0.08,0.0,0.32,-0.08,0.24,0.4,0.24,-0.08,542.4025979000144,542.4025979000144,542.4025979000144,542.4025979000144,542.4025979000144,542.4025979000144,542.4025979000144,542.4025979000144,542.3834142399486,4.272090000100434,return,4.1143175000324845,,,,,,,,,,,,,,,,,,,,,,,,,,,,,,,,,010UVG,train_x,blue_star,bottom_right,2024-12-06_13h38.53.416,HideSeek_v1,2022.2.5,59.92092835471535,
,7,3,6,3,-1,0,51,,train_dim1_1,4,30,,,,2,0,2,0,,,,,,,,,0,0,0,0,0,3,3,3,1,0,1,0,,,,,,,,,,,,,,,,,,,,,,,,,,,,,,,,,,,,,,,,,,,,,,,,,,,,,,,,,,,,,,,,30,,,,,,,,552.3292060000822,552.3292060000822,552.3292060000822,552.3292060000822,552.3292060000822,down,1.5746398998890072,0,0,0,99,0.4,-0.32,down,1.4850564000662416,,,,,,,,,,,,,,,,,,,,,,,,,,,,,,,,,,,,,,,,,,,,,,,,,,,,,,,,,,,,010UVG,train_x,blue_star,bottom_right,2024-12-06_13h38.53.416,HideSeek_v1,2022.2.5,59.92092835471535,
,7,3,6,3,-1,0,51,,train_dim1_1,4,30,,,,2,0,2,0,,,,,,,,,0,0,0,0,0,3,3,3,2,0,2,0,,,,,,,,,,,,,,,,,,,,,,,,,,,,,,,,,,,,,,,,,,,,,,,,,,,,,,,,,,,,,,,,30,,,,,,,,553.9103600000963,553.9103600000963,553.9103600000963,553.9103600000963,553.9103600000963,left,1.409516700077802,0,0,0,99,0.32,-0.32,left,1.3315112001728266,,,,,,,,,,,,,,,,,,,,,,,,,,,,,,,,,,,,,,,,,,,,,,,,,,,,,,,,,,,,010UVG,train_x,blue_star,bottom_right,2024-12-06_13h38.53.416,HideSeek_v1,2022.2.5,59.92092835471535,
,7,3,6,3,-1,0,51,,train_dim1_1,4,30,,,,2,0,2,0,,,,,,,,,0,0,0,0,0,3,3,3,3,0,3,0,,,,,,,,,,,,,,,,,,,,,,,,,,,,,,,,,,,,,,,,,,,,,,,,,,,,,,,,,,,,,,,,30,,,,,,,,555.3278381999116,555.3278381999116,555.3278381999116,555.3278381999116,555.3278381999116,left,0.8918687000405043,0,0,0,99,0.24,-0.32,left,0.8081463002599776,,,,,,,,,,,,,,,,,,,,,,,,,,,,,,,,,,,,,,,,,,,,,,,,,,,,,,,,,,,,010UVG,train_x,blue_star,bottom_right,2024-12-06_13h38.53.416,HideSeek_v1,2022.2.5,59.92092835471535,
,7,3,6,3,-1,0,51,,train_dim1_1,4,30,,,,2,0,2,0,,,,,,,,,0,0,0,0,0,3,3,3,4,0,4,0,,,,,,,,,,,,,,,,,,,,,,,,,,,,,,,,,,,,,,,,,,,,,,,,,,,,,,,,,,,,,,,,30,,,,,,,,556.2274007999804,556.2274007999804,556.2274007999804,556.2274007999804,556.2274007999804,right,2.211362399859354,0,0,0,99,0.32,-0.32,right,2.128922800067812,,,,,,,,,,,,,,,,,,,,,,,,,,,,,,,,,,,,,,,,,,,,,,,,,,,,,,,,,,,,010UVG,train_x,blue_star,bottom_right,2024-12-06_13h38.53.416,HideSeek_v1,2022.2.5,59.92092835471535,
,7,3,6,3,-1,0,51,,train_dim1_1,4,30,,,,2,0,2,0,,,,,,,,,0,0,0,0,0,3,3,3,5,0,5,0,,,,,,,,,,,,,,,,,,,,,,,,,,,,,,,,,,,,,,,,,,,,,,,,,,,,,,,,,,,,,,,,30,,,,,,,,558.4475668000523,558.4475668000523,558.4475668000523,558.4475668000523,558.4475668000523,up,1.826537200016901,0,0,0,99,0.32,-0.24,up,1.735631899908185,,,,,,,,,,,,,,,,,,,,,,,,,,,,,,,,,,,,,,,,,,,,,,,,,,,,,,,,,,,,010UVG,train_x,blue_star,bottom_right,2024-12-06_13h38.53.416,HideSeek_v1,2022.2.5,59.92092835471535,
,7,3,6,3,-1,0,51,,train_dim1_1,4,30,,,,2,0,2,0,,,,,,,,,0,0,0,0,0,3,3,3,6,0,6,0,,,,,,,,,,,,,,,,,,,,,,,,,,,,,,,,,,,,,,,,,,,,,,,,,,,,,,,,,,,,,,,,30,,,,,,,,560.2823532999028,560.2823532999028,560.2823532999028,560.2823532999028,560.2823532999028,return,1.8768074000254273,0,1,0,0,0.32,-0.24,return,1.7930453002918512,-1,-8,0.32,-0.24,,,,,,,,,,,,,,,,,,,,,,,,,,,,,,,,,,,,,,,,,,,,,,,,,,,,,,,,010UVG,train_x,blue_star,bottom_right,2024-12-06_13h38.53.416,HideSeek_v1,2022.2.5,59.92092835471535,
,5,2,5,2,0,0,61,,train_dim1_1,5,30,,,,2,0,2,0,,,,,,,,,0,0,0,0,0,4,4,4,0,0,0,0,,,,,,,,,,,,,,,,,,,,,,,,,stimuli/alien_stimuli/61.png,,,,,,,,,,,,,,,,,,,,,,,,,,,,,stimuli/alien_stimuli/51.png,51,7,6,,,,,,,30,,,,,,,,586.9233599998988,586.9233599998988,586.9233599998988,586.9233599998988,586.9233599998988,right,2.7904113999102265,0,1,0,99,0.32,-0.24,right,2.688734100200236,,,,,585.3522884999402,586.9233599998988,0.32,-0.16,0.0,0.08,-0.16,0.32,0.36,0.32,-0.16,563.7440627999604,563.7440627999604,563.7440627999604,563.7440627999604,563.7440627999604,563.7440627999604,563.7440627999604,563.7440627999604,563.7342609400861,21.736814699834213,return,21.58155980007723,,,,,,,,,,,,,,,,,,,,,,,,,,,,,,,,,010UVG,train_x,blue_star,bottom_right,2024-12-06_13h38.53.416,HideSeek_v1,2022.2.5,59.92092835471535,
,5,2,5,2,0,0,61,,train_dim1_1,5,30,,,,2,0,2,0,,,,,,,,,0,0,0,0,0,4,4,4,1,0,1,0,,,,,,,,,,,,,,,,,,,,,,,,,,,,,,,,,,,,,,,,,,,,,,,,,,,,,,,,,,,,,,,,30,,,,,,,,589.7041903000791,589.7041903000791,589.7041903000791,589.7041903000791,589.7041903000791,right,0.20939960004761815,0,1,0,99,0.4,-0.24,right,0.1250298002269119,,,,,,,,,,,,,,,,,,,,,,,,,,,,,,,,,,,,,,,,,,,,,,,,,,,,,,,,,,,,010UVG,train_x,blue_star,bottom_right,2024-12-06_13h38.53.416,HideSeek_v1,2022.2.5,59.92092835471535,
,5,2,5,2,0,0,61,,train_dim1_1,5,30,,,,2,0,2,0,,,,,,,,,0,0,0,0,0,4,4,4,2,0,2,0,,,,,,,,,,,,,,,,,,,,,,,,,,,,,,,,,,,,,,,,,,,,,,,,,,,,,,,,,,,,,,,,30,,,,,,,,589.9193784000818,589.9193784000818,589.9193784000818,589.9193784000818,589.9193784000818,right,0.22682179999537766,0,1,0,99,0.48000000000000004,-0.24,right,0.15024260012432933,,,,,,,,,,,,,,,,,,,,,,,,,,,,,,,,,,,,,,,,,,,,,,,,,,,,,,,,,,,,010UVG,train_x,blue_star,bottom_right,2024-12-06_13h38.53.416,HideSeek_v1,2022.2.5,59.92092835471535,
,5,2,5,2,0,0,61,,train_dim1_1,5,30,,,,2,0,2,0,,,,,,,,,0,0,0,0,0,4,4,4,3,0,3,0,,,,,,,,,,,,,,,,,,,,,,,,,,,,,,,,,,,,,,,,,,,,,,,,,,,,,,,,,,,,,,,,30,,,,,,,,590.153011099901,590.153011099901,590.153011099901,590.153011099901,590.153011099901,up,1.3104246999137104,0,1,0,99,0.48000000000000004,-0.15999999999999998,up,1.237031200202182,,,,,,,,,,,,,,,,,,,,,,,,,,,,,,,,,,,,,,,,,,,,,,,,,,,,,,,,,,,,010UVG,train_x,blue_star,bottom_right,2024-12-06_13h38.53.416,HideSeek_v1,2022.2.5,59.92092835471535,
,5,2,5,2,0,0,61,,train_dim1_1,5,30,,,,2,0,2,0,,,,,,,,,0,0,0,0,0,4,4,4,4,0,4,0,,,,,,,,,,,,,,,,,,,,,,,,,,,,,,,,,,,,,,,,,,,,,,,,,,,,,,,,,,,,,,,,30,,,,,,,,591.4707935999613,591.4707935999613,591.4707935999613,591.4707935999613,591.4707935999613,up,0.2098453000653535,0,1,0,99,0.48000000000000004,-0.07999999999999997,up,0.1300184002611786,,,,,,,,,,,,,,,,,,,,,,,,,,,,,,,,,,,,,,,,,,,,,,,,,,,,,,,,,,,,010UVG,train_x,blue_star,bottom_right,2024-12-06_13h38.53.416,HideSeek_v1,2022.2.5,59.92092835471535,
,5,2,5,2,0,0,61,,train_dim1_1,5,30,,,,2,0,2,0,,,,,,,,,0,0,0,0,0,4,4,4,5,0,5,0,,,,,,,,,,,,,,,,,,,,,,,,,,,,,,,,,,,,,,,,,,,,,,,,,,,,,,,,,,,,,,,,30,,,,,,,,591.6864599999972,591.6864599999972,591.6864599999972,591.6864599999972,591.6864599999972,left,0.59391999989748,0,1,0,99,0.4,-0.07999999999999997,left,0.5097958999685943,,,,,,,,,,,,,,,,,,,,,,,,,,,,,,,,,,,,,,,,,,,,,,,,,,,,,,,,,,,,010UVG,train_x,blue_star,bottom_right,2024-12-06_13h38.53.416,HideSeek_v1,2022.2.5,59.92092835471535,
,5,2,5,2,0,0,61,,train_dim1_1,5,30,,,,2,0,2,0,,,,,,,,,0,0,0,0,0,4,4,4,6,0,6,0,,,,,,,,,,,,,,,,,,,,,,,,,,,,,,,,,,,,,,,,,,,,,,,,,,,,,,,,,,,,,,,,30,,,,,,,,592.288108299952,592.288108299952,592.288108299952,592.288108299952,592.288108299952,left,0.20968850003555417,0,1,0,99,0.32,-0.07999999999999997,left,0.12366770021617413,,,,,,,,,,,,,,,,,,,,,,,,,,,,,,,,,,,,,,,,,,,,,,,,,,,,,,,,,,,,010UVG,train_x,blue_star,bottom_right,2024-12-06_13h38.53.416,HideSeek_v1,2022.2.5,59.92092835471535,
,5,2,5,2,0,0,61,,train_dim1_1,5,30,,,,2,0,2,0,,,,,,,,,0,0,0,0,0,4,4,4,7,0,7,0,,,,,,,,,,,,,,,,,,,,,,,,,,,,,,,,,,,,,,,,,,,,,,,,,,,,,,,,,,,,,,,,30,,,,,,,,592.5049594999291,592.5049594999291,592.5049594999291,592.5049594999291,592.5049594999291,left,1.9945929001551121,0,1,0,99,0.24,-0.07999999999999997,left,1.9153607001062483,,,,,,,,,,,,,,,,,,,,,,,,,,,,,,,,,,,,,,,,,,,,,,,,,,,,,,,,,,,,010UVG,train_x,blue_star,bottom_right,2024-12-06_13h38.53.416,HideSeek_v1,2022.2.5,59.92092835471535,
,5,2,5,2,0,0,61,,train_dim1_1,5,30,,,,2,0,2,0,,,,,,,,,0,0,0,0,0,4,4,4,8,0,8,0,,,,,,,,,,,,,,,,,,,,,,,,,,,,,,,,,,,,,,,,,,,,,,,,,,,,,,,,,,,,,,,,30,,,,,,,,594.5101207999978,594.5101207999978,594.5101207999978,594.5101207999978,594.5101207999978,right,1.0407194001600146,0,1,0,99,0.32,-0.07999999999999997,right,0.9589968002401292,,,,,,,,,,,,,,,,,,,,,,,,,,,,,,,,,,,,,,,,,,,,,,,,,,,,,,,,,,,,010UVG,train_x,blue_star,bottom_right,2024-12-06_13h38.53.416,HideSeek_v1,2022.2.5,59.92092835471535,
,5,2,5,2,0,0,61,,train_dim1_1,5,30,,,,2,0,2,0,,,,,,,,,0,0,0,0,0,4,4,4,9,0,9,0,,,,,,,,,,,,,,,,,,,,,,,,,,,,,,,,,,,,,,,,,,,,,,,,,,,,,,,,,,,,,,,,30,,,,,,,,595.5583734000102,595.5583734000102,595.5583734000102,595.5583734000102,595.5583734000102,down,2.260919700143859,0,1,0,99,0.32,-0.15999999999999998,down,2.177729100221768,,,,,,,,,,,,,,,,,,,,,,,,,,,,,,,,,,,,,,,,,,,,,,,,,,,,,,,,,,,,010UVG,train_x,blue_star,bottom_right,2024-12-06_13h38.53.416,HideSeek_v1,2022.2.5,59.92092835471535,
,5,2,5,2,0,0,61,,train_dim1_1,5,30,,,,2,0,2,0,,,,,,,,,0,0,0,0,0,4,4,4,10,0,10,0,,,,,,,,,,,,,,,,,,,,,,,,,,,,,,,,,,,,,,,,,,,,,,,,,,,,,,,,,,,,,,,,30,,,,,,,,597.8260290999897,597.8260290999897,597.8260290999897,597.8260290999897,597.8260290999897,return,0.7602124998811632,0,0,0,0,0.32,-0.15999999999999998,return,0.6883512001950294,0,-7,0.32,-0.15999999999999998,,,,,,,,,,,,,,,,,,,,,,,,,,,,,,,,,,,,,,,,,,,,,,,,,,,,,,,,010UVG,train_x,blue_star,bottom_right,2024-12-06_13h38.53.416,HideSeek_v1,2022.2.5,59.92092835471535,
,5,0,1,0,-4,0,21,,train_dim1_1,6,30,,,,2,0,2,0,,,,,,,,,0,0,0,0,0,5,5,5,0,0,0,0,,,,,,,,,,,,,,,,,,,,,,,,,stimuli/alien_stimuli/21.png,,,,,,,,,,,,,,,,,,,,,,,,,,,,,stimuli/alien_stimuli/61.png,61,5,7,,,,,,,30,,,,,,,,605.7991782999597,605.7991782999597,605.7991782999597,605.7991782999597,605.7991782999597,up,3.3393170998897403,0,0,0,99,0.24,-0.32,up,3.2565973000600934,,,,,604.2347373000812,605.7991782999597,0.24,-0.24,0.0,0.0,-0.24,0.24,0.24,0.24,-0.24,600.1709400000982,600.1709400000982,600.1709400000982,600.1709400000982,600.1709400000982,600.1709400000982,600.1709400000982,600.1709400000982,600.1480225100181,4.188888699980453,return,4.046260500093922,,,,,,,,,,,,,,,,,,,,,,,,,,,,,,,,,010UVG,train_x,blue_star,bottom_right,2024-12-06_13h38.53.416,HideSeek_v1,2022.2.5,59.92092835471535,
,5,0,1,0,-4,0,21,,train_dim1_1,6,30,,,,2,0,2,0,,,,,,,,,0,0,0,0,0,5,5,5,1,0,1,0,,,,,,,,,,,,,,,,,,,,,,,,,,,,,,,,,,,,,,,,,,,,,,,,,,,,,,,,,,,,,,,,30,,,,,,,,609.1392560999375,609.1392560999375,609.1392560999375,609.1392560999375,609.1392560999375,up,0.5763849001377821,0,0,0,99,0.24,-0.24,up,0.48997940006665885,,,,,,,,,,,,,,,,,,,,,,,,,,,,,,,,,,,,,,,,,,,,,,,,,,,,,,,,,,,,010UVG,train_x,blue_star,bottom_right,2024-12-06_13h38.53.416,HideSeek_v1,2022.2.5,59.92092835471535,
,5,0,1,0,-4,0,21,,train_dim1_1,6,30,,,,2,0,2,0,,,,,,,,,0,0,0,0,0,5,5,5,2,0,2,0,,,,,,,,,,,,,,,,,,,,,,,,,,,,,,,,,,,,,,,,,,,,,,,,,,,,,,,,,,,,,,,,30,,,,,,,,609.7224185999949,609.7224185999949,609.7224185999949,609.7224185999949,609.7224185999949,up,0.4433437997940928,0,0,0,99,0.24,-0.15999999999999998,up,0.36519960034638643,,,,,,,,,,,,,,,,,,,,,,,,,,,,,,,,,,,,,,,,,,,,,,,,,,,,,,,,,,,,010UVG,train_x,blue_star,bottom_right,2024-12-06_13h38.53.416,HideSeek_v1,2022.2.5,59.92092835471535,
,5,0,1,0,-4,0,21,,train_dim1_1,6,30,,,,2,0,2,0,,,,,,,,,0,0,0,0,0,5,5,5,3,0,3,0,,,,,,,,,,,,,,,,,,,,,,,,,,,,,,,,,,,,,,,,,,,,,,,,,,,,,,,,,,,,,,,,30,,,,,,,,610.1730343999807,610.1730343999807,610.1730343999807,610.1730343999807,610.1730343999807,right,1.244338999968022,0,0,0,99,0.32,-0.15999999999999998,right,1.1520163000095636,,,,,,,,,,,,,,,,,,,,,,,,,,,,,,,,,,,,,,,,,,,,,,,,,,,,,,,,,,,,010UVG,train_x,blue_star,bottom_right,2024-12-06_13h38.53.416,HideSeek_v1,2022.2.5,59.92092835471535,
,5,0,1,0,-4,0,21,,train_dim1_1,6,30,,,,2,0,2,0,,,,,,,,,0,0,0,0,0,5,5,5,4,0,4,0,,,,,,,,,,,,,,,,,,,,,,,,,,,,,,,,,,,,,,,,,,,,,,,,,,,,,,,,,,,,,,,,30,,,,,,,,611.4271327999886,611.4271327999886,611.4271327999886,611.4271327999886,611.4271327999886,down,1.6764656999148428,0,0,0,99,0.32,-0.24,down,1.5834900001063943,,,,,,,,,,,,,,,,,,,,,,,,,,,,,,,,,,,,,,,,,,,,,,,,,,,,,,,,,,,,010UVG,train_x,blue_star,bottom_right,2024-12-06_13h38.53.416,HideSeek_v1,2022.2.5,59.92092835471535,
,5,0,1,0,-4,0,21,,train_dim1_1,6,30,,,,2,0,2,0,,,,,,,,,0,0,0,0,0,5,5,5,5,0,5,0,,,,,,,,,,,,,,,,,,,,,,,,,,,,,,,,,,,,,,,,,,,,,,,,,,,,,,,,,,,,,,,,30,,,,,,,,613.1104671999346,613.1104671999346,613.1104671999346,613.1104671999346,613.1104671999346,return,1.7763755999039859,0,0,0,0,0.32,-0.24,return,1.694299900205806,2,-6,0.32,-0.24,,,,,,,,,,,,,,,,,,,,,,,,,,,,,,,,,,,,,,,,,,,,,,,,,,,,,,,,010UVG,train_x,blue_star,bottom_right,2024-12-06_13h38.53.416,HideSeek_v1,2022.2.5,59.92092835471535,
,8,0,8,0,0,0,61,,train_dim1_1,7,30,,,,2,0,2,0,,,,,,,,,0,0,0,0,0,6,6,6,0,0,0,0,,,,,,,,,,,,,,,,,,,,,,,,,stimuli/alien_stimuli/61.png,,,,,,,,,,,,,,,,,,,,,,,,,,,,,stimuli/alien_stimuli/21.png,21,5,8,,,,,,,30,,,,,,,,620.7906382998917,620.7906382998917,620.7906382998917,620.7906382998917,620.7906382998917,right,2.4725680998526514,0,0,0,99,0.5599999999999999,-0.4,right,2.3880797000601888,,,,,619.2302931998856,620.7906382998917,-0.08,-0.4,0.0,0.32,-0.4,-0.08,0.07999999999999999,-0.08,-0.4,616.4755690998863,616.4755690998863,616.4755690998863,616.4755690998863,616.4755690998863,616.4755690998863,616.4755690998863,616.4755690998863,616.4617685399484,2.8877853001467884,return,2.7381941000930965,,,,,,,,,,,,,,,,,,,,,,,,,,,,,,,,,010UVG,train_x,blue_star,bottom_right,2024-12-06_13h38.53.416,HideSeek_v1,2022.2.5,59.92092835471535,
,8,0,8,0,0,0,61,,train_dim1_1,7,30,,,,2,0,2,0,,,,,,,,,0,0,0,0,0,6,6,6,1,0,1,0,,,,,,,,,,,,,,,,,,,,,,,,,,,,,,,,,,,,,,,,,,,,,,,,,,,,,,,,,,,,,,,,30,,,,,,,,623.2654202000704,623.2654202000704,623.2654202000704,623.2654202000704,623.2654202000704,left,0.6748549998737872,0,0,0,99,0.4799999999999999,-0.4,left,0.5935684002470225,,,,,,,,,,,,,,,,,,,,,,,,,,,,,,,,,,,,,,,,,,,,,,,,,,,,,,,,,,,,010UVG,train_x,blue_star,bottom_right,2024-12-06_13h38.53.416,HideSeek_v1,2022.2.5,59.92092835471535,
,8,0,8,0,0,0,61,,train_dim1_1,7,30,,,,2,0,2,0,,,,,,,,,0,0,0,0,0,6,6,6,2,0,2,0,,,,,,,,,,,,,,,,,,,,,,,,,,,,,,,,,,,,,,,,,,,,,,,,,,,,,,,,,,,,,,,,30,,,,,,,,623.9466134998947,623.9466134998947,623.9466134998947,623.9466134998947,623.9466134998947,left,0.7105068999808282,0,0,0,99,0.3999999999999999,-0.4,left,0.6229371000081301,,,,,,,,,,,,,,,,,,,,,,,,,,,,,,,,,,,,,,,,,,,,,,,,,,,,,,,,,,,,010UVG,train_x,blue_star,bottom_right,2024-12-06_13h38.53.416,HideSeek_v1,2022.2.5,59.92092835471535,
,8,0,8,0,0,0,61,,train_dim1_1,7,30,,,,2,0,2,0,,,,,,,,,0,0,0,0,0,6,6,6,3,0,3,0,,,,,,,,,,,,,,,,,,,,,,,,,,,,,,,,,,,,,,,,,,,,,,,,,,,,,,,,,,,,,,,,30,,,,,,,,624.6668283001054,624.6668283001054,624.6668283001054,624.6668283001054,624.6668283001054,right,1.3920988000463694,0,0,0,99,0.4799999999999999,-0.4,right,1.3063236000016332,,,,,,,,,,,,,,,,,,,,,,,,,,,,,,,,,,,,,,,,,,,,,,,,,,,,,,,,,,,,010UVG,train_x,blue_star,bottom_right,2024-12-06_13h38.53.416,HideSeek_v1,2022.2.5,59.92092835471535,
,8,0,8,0,0,0,61,,train_dim1_1,7,30,,,,2,0,2,0,,,,,,,,,0,0,0,0,0,6,6,6,4,0,4,0,,,,,,,,,,,,,,,,,,,,,,,,,,,,,,,,,,,,,,,,,,,,,,,,,,,,,,,,,,,,,,,,30,,,,,,,,626.0654430000577,626.0654430000577,626.0654430000577,626.0654430000577,626.0654430000577,return,0.6937098999042064,1,0,0,1,0.4799999999999999,-0.4,return,0.6100433999672532,2,-6,0.4799999999999999,-0.4,,,,,,,,,,,,,,,,,,,,,,,,,,,,,,,,,,,,,,,,,,,,,,,,,,,,,,,,010UVG,train_x,blue_star,bottom_right,2024-12-06_13h38.53.416,HideSeek_v1,2022.2.5,59.92092835471535,
,5,4,2,4,-3,0,31,,train_dim1_1,8,30,,,,2,0,2,0,,,,,,,,,0,0,0,0,0,7,7,7,0,0,0,0,,,,,,,,,,,,,,,,,,,,,,,,,stimuli/alien_stimuli/31.png,,,,,,,,,,,,,,,,,,,,,,,,,,,,,stimuli/alien_stimuli/61.png,61,8,9,,,,,,,30,,,,,,,,637.0418930999003,637.0418930999003,637.0418930999003,637.0418930999003,637.0418930999003,left,3.6201523998752236,1,0,0,99,0.15999999999999998,-0.08,left,3.5326245999895036,,,,,635.4771598998923,637.0418930999003,0.48,-0.4,0.0,0.0,-0.4,0.48,0.48,0.48,-0.4,628.3453442999162,628.3453442999162,628.3453442999162,628.3453442999162,628.3453442999162,628.3453442999162,628.3453442999162,628.3453442999162,628.3378014400135,7.258195200003684,return,7.108787500066683,,,,,,,,,,,,,,,,,,,,,,,,,,,,,,,,,010UVG,train_x,blue_star,bottom_right,2024-12-06_13h38.53.416,HideSeek_v1,2022.2.5,59.92092835471535,
,5,4,2,4,-3,0,31,,train_dim1_1,8,30,,,,2,0,2,0,,,,,,,,,0,0,0,0,0,7,7,7,1,0,1,0,,,,,,,,,,,,,,,,,,,,,,,,,,,,,,,,,,,,,,,,,,,,,,,,,,,,,,,,,,,,,,,,30,,,,,,,,640.6633196999319,640.6633196999319,640.6633196999319,640.6633196999319,640.6633196999319,left,0.7249346000608057,1,0,0,99,0.07999999999999997,-0.08,left,0.6484423000365496,,,,,,,,,,,,,,,,,,,,,,,,,,,,,,,,,,,,,,,,,,,,,,,,,,,,,,,,,,,,010UVG,train_x,blue_star,bottom_right,2024-12-06_13h38.53.416,HideSeek_v1,2022.2.5,59.92092835471535,
,5,4,2,4,-3,0,31,,train_dim1_1,8,30,,,,2,0,2,0,,,,,,,,,0,0,0,0,0,7,7,7,2,0,2,0,,,,,,,,,,,,,,,,,,,,,,,,,,,,,,,,,,,,,,,,,,,,,,,,,,,,,,,,,,,,,,,,30,,,,,,,,641.3958425999153,641.3958425999153,641.3958425999153,641.3958425999153,641.3958425999153,return,0.9602032999973744,1,1,0,0,0.07999999999999997,-0.08,return,0.8753593002911657,2,-8,0.07999999999999997,-0.08,,,,,,,,,,,,,,,,,,,,,,,,,,,,,,,,,,,,,,,,,,,,,,,,,,,,,,,,010UVG,train_x,blue_star,bottom_right,2024-12-06_13h38.53.416,HideSeek_v1,2022.2.5,59.92092835471535,
,6,0,5,0,-1,0,51,,train_dim1_1,9,30,,,,2,0,2,0,,,,,,,,,0,0,0,0,0,8,8,8,0,0,0,0,,,,,,,,,,,,,,,,,,,,,,,,,stimuli/alien_stimuli/51.png,,,,,,,,,,,,,,,,,,,,,,,,,,,,,stimuli/alien_stimuli/31.png,31,5,10,,,,,,,30,,,,,,,,654.7058059999254,654.7058059999254,654.7058059999254,654.7058059999254,654.7058059999254,up,2.817405399866402,1,1,0,99,0.32,-0.32,up,2.7126331001054496,,,,,653.1257589000743,654.7058059999254,0,-0.08,0.0,0.24,-0.08,0,0.12,0,-0.08,643.9361465999391,643.9361465999391,643.9361465999391,643.9361465999391,643.9361465999391,643.9361465999391,643.9361465999391,643.9361465999391,643.9174677100032,9.310417900094762,return,9.1632906999439,,,,,,,,,,,,,,,,,,,,,,,,,,,,,,,,,010UVG,train_x,blue_star,bottom_right,2024-12-06_13h38.53.416,HideSeek_v1,2022.2.5,59.92092835471535,
,6,0,5,0,-1,0,51,,train_dim1_1,9,30,,,,2,0,2,0,,,,,,,,,0,0,0,0,0,8,8,8,1,0,1,0,,,,,,,,,,,,,,,,,,,,,,,,,,,,,,,,,,,,,,,,,,,,,,,,,,,,,,,,,,,,,,,,30,,,,,,,,657.5126855000854,657.5126855000854,657.5126855000854,657.5126855000854,657.5126855000854,right,2.4438281999900937,1,1,0,99,0.4,-0.32,right,2.354420500108972,,,,,,,,,,,,,,,,,,,,,,,,,,,,,,,,,,,,,,,,,,,,,,,,,,,,,,,,,,,,010UVG,train_x,blue_star,bottom_right,2024-12-06_13h38.53.416,HideSeek_v1,2022.2.5,59.92092835471535,
,6,0,5,0,-1,0,51,,train_dim1_1,9,30,,,,2,0,2,0,,,,,,,,,0,0,0,0,0,8,8,8,2,0,2,0,,,,,,,,,,,,,,,,,,,,,,,,,,,,,,,,,,,,,,,,,,,,,,,,,,,,,,,,,,,,,,,,30,,,,,,,,659.9636746000033,659.9636746000033,659.9636746000033,659.9636746000033,659.9636746000033,left,1.6268330998718739,1,1,0,99,0.32,-0.32,left,1.53897300013341,,,,,,,,,,,,,,,,,,,,,,,,,,,,,,,,,,,,,,,,,,,,,,,,,,,,,,,,,,,,010UVG,train_x,blue_star,bottom_right,2024-12-06_13h38.53.416,HideSeek_v1,2022.2.5,59.92092835471535,
,6,0,5,0,-1,0,51,,train_dim1_1,9,30,,,,2,0,2,0,,,,,,,,,0,0,0,0,0,8,8,8,3,0,3,0,,,,,,,,,,,,,,,,,,,,,,,,,,,,,,,,,,,,,,,,,,,,,,,,,,,,,,,,,,,,,,,,30,,,,,,,,661.5979386998806,661.5979386998806,661.5979386998806,661.5979386998806,661.5979386998806,return,3.996591999894008,1,0,0,0,0.32,-0.32,return,3.916862800018862,3,-8,0.32,-0.32,,,,,,,,,,,,,,,,,,,,,,,,,,,,,,,,,,,,,,,,,,,,,,,,,,,,,,,,010UVG,train_x,blue_star,bottom_right,2024-12-06_13h38.53.416,HideSeek_v1,2022.2.5,59.92092835471535,
,5,3,0,3,-5,0,11,,train_dim1_1,10,30,,,,2,0,2,0,,,,,,,,,0,0,0,0,0,9,9,9,0,0,0,0,,,,,,,,,,,,,,,,,,,,,,,,,stimuli/alien_stimuli/11.png,,,,,,,,,,,,,,,,,,,,,,,,,,,,,stimuli/alien_stimuli/51.png,51,6,11,,,,,,,30,,,,,,,,671.3692872999236,671.3692872999236,671.3692872999236,671.3692872999236,671.3692872999236,left,2.0733665998559445,1,0,0,99,0.15999999999999998,-0.16,left,1.9845894002355635,,,,,669.8055426999927,671.3692872999236,0.24,-0.4,0.0,0.08,-0.4,0.24,0.28,0.24,-0.4,667.1712833000347,667.1712833000347,667.1712833000347,667.1712833000347,667.1712833000347,667.1712833000347,667.1712833000347,667.1712833000347,667.1536732100881,2.754644500091672,return,2.6107111999299377,,,,,,,,,,,,,,,,,,,,,,,,,,,,,,,,,010UVG,train_x,blue_star,bottom_right,2024-12-06_13h38.53.416,HideSeek_v1,2022.2.5,59.92092835471535,
,5,3,0,3,-5,0,11,,train_dim1_1,10,30,,,,2,0,2,0,,,,,,,,,0,0,0,0,0,9,9,9,1,0,1,0,,,,,,,,,,,,,,,,,,,,,,,,,,,,,,,,,,,,,,,,,,,,,,,,,,,,,,,,,,,,,,,,30,,,,,,,,673.4451844000723,673.4451844000723,673.4451844000723,673.4451844000723,673.4451844000723,left,0.39184590009972453,1,0,0,99,0.07999999999999997,-0.16,left,0.30062120012007654,,,,,,,,,,,,,,,,,,,,,,,,,,,,,,,,,,,,,,,,,,,,,,,,,,,,,,,,,,,,010UVG,train_x,blue_star,bottom_right,2024-12-06_13h38.53.416,HideSeek_v1,2022.2.5,59.92092835471535,
,5,3,0,3,-5,0,11,,train_dim1_1,10,30,,,,2,0,2,0,,,,,,,,,0,0,0,0,0,9,9,9,2,0,2,0,,,,,,,,,,,,,,,,,,,,,,,,,,,,,,,,,,,,,,,,,,,,,,,,,,,,,,,,,,,,,,,,30,,,,,,,,673.842004599981,673.842004599981,673.842004599981,673.842004599981,673.842004599981,left,0.6604634001851082,1,0,0,99,-2.7755575615628914e-17,-0.16,left,0.5731681000906974,,,,,,,,,,,,,,,,,,,,,,,,,,,,,,,,,,,,,,,,,,,,,,,,,,,,,,,,,,,,010UVG,train_x,blue_star,bottom_right,2024-12-06_13h38.53.416,HideSeek_v1,2022.2.5,59.92092835471535,
,5,3,0,3,-5,0,11,,train_dim1_1,10,30,,,,2,0,2,0,,,,,,,,,0,0,0,0,0,9,9,9,3,0,3,0,,,,,,,,,,,,,,,,,,,,,,,,,,,,,,,,,,,,,,,,,,,,,,,,,,,,,,,,,,,,,,,,30,,,,,,,,674.5094854999334,674.5094854999334,674.5094854999334,674.5094854999334,674.5094854999334,left,0.4598739000502974,1,0,0,99,-0.08000000000000003,-0.16,left,0.3733583001885563,,,,,,,,,,,,,,,,,,,,,,,,,,,,,,,,,,,,,,,,,,,,,,,,,,,,,,,,,,,,010UVG,train_x,blue_star,bottom_right,2024-12-06_13h38.53.416,HideSeek_v1,2022.2.5,59.92092835471535,
,5,3,0,3,-5,0,11,,train_dim1_1,10,30,,,,2,0,2,0,,,,,,,,,0,0,0,0,0,9,9,9,4,0,4,0,,,,,,,,,,,,,,,,,,,,,,,,,,,,,,,,,,,,,,,,,,,,,,,,,,,,,,,,,,,,,,,,30,,,,,,,,674.9764743999112,674.9764743999112,674.9764743999112,674.9764743999112,674.9764743999112,return,1.24401029990986,1,1,0,0,-0.08000000000000003,-0.16,return,1.1530713001266122,3,-12,-0.08000000000000003,-0.16,,,,,,,,,,,,,,,,,,,,,,,,,,,,,,,,,,,,,,,,,,,,,,,,,,,,,,,,010UVG,train_x,blue_star,bottom_right,2024-12-06_13h38.53.416,HideSeek_v1,2022.2.5,59.92092835471535,
,7,2,4,2,-3,0,31,,train_dim1_1,11,30,,,,2,0,2,0,,,,,,,,,0,0,0,0,0,10,10,10,0,0,0,0,,,,,,,,,,,,,,,,,,,,,,,,,stimuli/alien_stimuli/31.png,,,,,,,,,,,,,,,,,,,,,,,,,,,,,stimuli/alien_stimuli/11.png,11,5,12,,,,,,,30,,,,,,,,684.9989543000702,684.9989543000702,684.9989543000702,684.9989543000702,684.9989543000702,left,2.5353906000964344,1,1,0,99,0.32,-0.24,left,2.4497775002382696,,,,,683.4338010998908,684.9989543000702,-0.16,-0.16,0.0,0.4,-0.16,-0.16,0.039999999999999994,-0.16,-0.16,677.8063678001054,677.8063678001054,677.8063678001054,677.8063678001054,677.8063678001054,677.8063678001054,677.8063678001054,677.8063678001054,677.7957046400755,5.757154199993238,return,5.600759100168943,,,,,,,,,,,,,,,,,,,,,,,,,,,,,,,,,010UVG,train_x,blue_star,bottom_right,2024-12-06_13h38.53.416,HideSeek_v1,2022.2.5,59.92092835471535,
,7,2,4,2,-3,0,31,,train_dim1_1,11,30,,,,2,0,2,0,,,,,,,,,0,0,0,0,0,10,10,10,1,0,1,0,,,,,,,,,,,,,,,,,,,,,,,,,,,,,,,,,,,,,,,,,,,,,,,,,,,,,,,,,,,,,,,,30,,,,,,,,687.5343947999645,687.5343947999645,687.5343947999645,687.5343947999645,687.5343947999645,left,0.5090620000846684,1,1,0,99,0.24,-0.24,left,0.4258835001382977,,,,,,,,,,,,,,,,,,,,,,,,,,,,,,,,,,,,,,,,,,,,,,,,,,,,,,,,,,,,010UVG,train_x,blue_star,bottom_right,2024-12-06_13h38.53.416,HideSeek_v1,2022.2.5,59.92092835471535,
,7,2,4,2,-3,0,31,,train_dim1_1,11,30,,,,2,0,2,0,,,,,,,,,0,0,0,0,0,10,10,10,2,0,2,0,,,,,,,,,,,,,,,,,,,,,,,,,,,,,,,,,,,,,,,,,,,,,,,,,,,,,,,,,,,,,,,,30,,,,,,,,688.0506825000048,688.0506825000048,688.0506825000048,688.0506825000048,688.0506825000048,left,0.41027729981578887,1,1,0,99,0.15999999999999998,-0.24,left,0.3278669002465904,,,,,,,,,,,,,,,,,,,,,,,,,,,,,,,,,,,,,,,,,,,,,,,,,,,,,,,,,,,,010UVG,train_x,blue_star,bottom_right,2024-12-06_13h38.53.416,HideSeek_v1,2022.2.5,59.92092835471535,
,7,2,4,2,-3,0,31,,train_dim1_1,11,30,,,,2,0,2,0,,,,,,,,,0,0,0,0,0,10,10,10,3,0,3,0,,,,,,,,,,,,,,,,,,,,,,,,,,,,,,,,,,,,,,,,,,,,,,,,,,,,,,,,,,,,,,,,30,,,,,,,,688.4737780001014,688.4737780001014,688.4737780001014,688.4737780001014,688.4737780001014,left,1.1066785999573767,1,1,0,99,0.07999999999999997,-0.24,left,1.0293818002101034,,,,,,,,,,,,,,,,,,,,,,,,,,,,,,,,,,,,,,,,,,,,,,,,,,,,,,,,,,,,010UVG,train_x,blue_star,bottom_right,2024-12-06_13h38.53.416,HideSeek_v1,2022.2.5,59.92092835471535,
,7,2,4,2,-3,0,31,,train_dim1_1,11,30,,,,2,0,2,0,,,,,,,,,0,0,0,0,0,10,10,10,4,0,4,0,,,,,,,,,,,,,,,,,,,,,,,,,,,,,,,,,,,,,,,,,,,,,,,,,,,,,,,,,,,,,,,,30,,,,,,,,689.585169200087,689.585169200087,689.585169200087,689.585169200087,689.585169200087,return,1.310391000006348,1,1,0,0,0.07999999999999997,-0.24,return,1.2282102000899613,3,-16,0.07999999999999997,-0.24,,,,,,,,,,,,,,,,,,,,,,,,,,,,,,,,,,,,,,,,,,,,,,,,,,,,,,,,010UVG,train_x,blue_star,bottom_right,2024-12-06_13h38.53.416,HideSeek_v1,2022.2.5,59.92092835471535,
,5,0,1,0,-4,0,21,,train_dim1_1,12,30,,,,2,0,2,0,,,,,,,,,0,0,0,0,0,11,11,11,0,0,0,0,,,,,,,,,,,,,,,,,,,,,,,,,stimuli/alien_stimuli/21.png,,,,,,,,,,,,,,,,,,,,,,,,,,,,,stimuli/alien_stimuli/31.png,31,7,13,,,,,,,30,,,,,,,,695.6936766998842,695.6936766998842,695.6936766998842,695.6936766998842,695.6936766998842,left,1.7063041999936104,1,1,0,99,0.15999999999999998,-0.4,left,1.5968463001772761,,,,,694.109119300032,695.6936766998842,0.16,-0.24,0.0,0.24,-0.24,0.16,0.28,0.16,-0.24,692.4726782999933,692.4726782999933,692.4726782999933,692.4726782999933,692.4726782999933,692.4726782999933,692.4726782999933,692.4726782999933,692.4580543100833,1.7533559000585228,return,1.6048997999168932,,,,,,,,,,,,,,,,,,,,,,,,,,,,,,,,,010UVG,train_x,blue_star,bottom_right,2024-12-06_13h38.53.416,HideSeek_v1,2022.2.5,59.92092835471535,
,5,0,1,0,-4,0,21,,train_dim1_1,12,30,,,,2,0,2,0,,,,,,,,,0,0,0,0,0,11,11,11,1,0,1,0,,,,,,,,,,,,,,,,,,,,,,,,,,,,,,,,,,,,,,,,,,,,,,,,,,,,,,,,,,,,,,,,30,,,,,,,,697.379438099917,697.379438099917,697.379438099917,697.379438099917,697.379438099917,left,0.5933960000984371,1,1,0,99,0.07999999999999997,-0.4,left,0.5112521999981254,,,,,,,,,,,,,,,,,,,,,,,,,,,,,,,,,,,,,,,,,,,,,,,,,,,,,,,,,,,,010UVG,train_x,blue_star,bottom_right,2024-12-06_13h38.53.416,HideSeek_v1,2022.2.5,59.92092835471535,
,5,0,1,0,-4,0,21,,train_dim1_1,12,30,,,,2,0,2,0,,,,,,,,,0,0,0,0,0,11,11,11,2,0,2,0,,,,,,,,,,,,,,,,,,,,,,,,,,,,,,,,,,,,,,,,,,,,,,,,,,,,,,,,,,,,,,,,30,,,,,,,,697.9803530001082,697.9803530001082,697.9803530001082,697.9803530001082,697.9803530001082,left,0.6599123999476433,1,1,0,99,-2.7755575615628914e-17,-0.4,left,0.5676616001874208,,,,,,,,,,,,,,,,,,,,,,,,,,,,,,,,,,,,,,,,,,,,,,,,,,,,,,,,,,,,010UVG,train_x,blue_star,bottom_right,2024-12-06_13h38.53.416,HideSeek_v1,2022.2.5,59.92092835471535,
,5,0,1,0,-4,0,21,,train_dim1_1,12,30,,,,2,0,2,0,,,,,,,,,0,0,0,0,0,11,11,11,3,0,3,0,,,,,,,,,,,,,,,,,,,,,,,,,,,,,,,,,,,,,,,,,,,,,,,,,,,,,,,,,,,,,,,,30,,,,,,,,698.6464933999814,698.6464933999814,698.6464933999814,698.6464933999814,698.6464933999814,left,1.9117618000600487,1,1,0,99,-0.08000000000000003,-0.4,left,1.8288557000923902,,,,,,,,,,,,,,,,,,,,,,,,,,,,,,,,,,,,,,,,,,,,,,,,,,,,,,,,,,,,010UVG,train_x,blue_star,bottom_right,2024-12-06_13h38.53.416,HideSeek_v1,2022.2.5,59.92092835471535,
,5,0,1,0,-4,0,21,,train_dim1_1,12,30,,,,2,0,2,0,,,,,,,,,0,0,0,0,0,11,11,11,4,0,4,0,,,,,,,,,,,,,,,,,,,,,,,,,,,,,,,,,,,,,,,,,,,,,,,,,,,,,,,,,,,,,,,,30,,,,,,,,700.5695660999045,700.5695660999045,700.5695660999045,700.5695660999045,700.5695660999045,return,0.4927966999821365,2,0,0,1,-0.08000000000000003,-0.4,return,0.40747780026867986,3,-20,-0.08000000000000003,-0.4,,,,,,,,,,,,,,,,,,,,,,,,,,,,,,,,,,,,,,,,,,,,,,,,,,,,,,,,010UVG,train_x,blue_star,bottom_right,2024-12-06_13h38.53.416,HideSeek_v1,2022.2.5,59.92092835471535,
,5,4,4,4,-1,0,51,,train_dim1_1,13,30,,,,2,0,2,0,,,,,,,,,0,0,0,0,0,12,12,12,0,0,0,0,,,,,,,,,,,,,,,,,,,,,,,,,stimuli/alien_stimuli/51.png,,,,,,,,,,,,,,,,,,,,,,,,,,,,,stimuli/alien_stimuli/21.png,21,5,14,,,,,,,30,,,,,,,,707.469039299991,707.469039299991,707.469039299991,707.469039299991,707.469039299991,left,2.2521263000089675,2,0,0,99,0.15999999999999998,-0.08,left,2.1671438000630587,,,,,705.9023190999869,707.469039299991,-0.08,-0.4,0.0,0.32,-0.4,-0.08,0.07999999999999999,-0.08,-0.4,702.6252858999651,702.6252858999651,702.6252858999651,702.6252858999651,702.6252858999651,702.6252858999651,702.6252858999651,702.6252858999651,702.6165102099999,3.3880324999336153,return,3.2585886002052575,,,,,,,,,,,,,,,,,,,,,,,,,,,,,,,,,010UVG,train_x,blue_star,bottom_right,2024-12-06_13h38.53.416,HideSeek_v1,2022.2.5,59.92092835471535,
,5,4,4,4,-1,0,51,,train_dim1_1,13,30,,,,2,0,2,0,,,,,,,,,0,0,0,0,0,12,12,12,1,0,1,0,,,,,,,,,,,,,,,,,,,,,,,,,,,,,,,,,,,,,,,,,,,,,,,,,,,,,,,,,,,,,,,,30,,,,,,,,709.7228383000474,709.7228383000474,709.7228383000474,709.7228383000474,709.7228383000474,right,0.9416803999338299,2,0,0,99,0.24,-0.08,right,0.8623545002192259,,,,,,,,,,,,,,,,,,,,,,,,,,,,,,,,,,,,,,,,,,,,,,,,,,,,,,,,,,,,010UVG,train_x,blue_star,bottom_right,2024-12-06_13h38.53.416,HideSeek_v1,2022.2.5,59.92092835471535,
,5,4,4,4,-1,0,51,,train_dim1_1,13,30,,,,2,0,2,0,,,,,,,,,0,0,0,0,0,12,12,12,2,0,2,0,,,,,,,,,,,,,,,,,,,,,,,,,,,,,,,,,,,,,,,,,,,,,,,,,,,,,,,,,,,,,,,,30,,,,,,,,710.6722442000173,710.6722442000173,710.6722442000173,710.6722442000173,710.6722442000173,return,0.7269656001590192,2,1,0,0,0.24,-0.08,return,0.648730100132525,3,-20,0.24,-0.08,,,,,,,,,,,,,,,,,,,,,,,,,,,,,,,,,,,,,,,,,,,,,,,,,,,,,,,,010UVG,train_x,blue_star,bottom_right,2024-12-06_13h38.53.416,HideSeek_v1,2022.2.5,59.92092835471535,
,9,3,4,3,-5,0,11,,train_dim1_1,14,30,,,,2,0,2,0,,,,,,,,,0,0,0,0,0,13,13,13,0,0,0,0,,,,,,,,,,,,,,,,,,,,,,,,,stimuli/alien_stimuli/11.png,,,,,,,,,,,,,,,,,,,,,,,,,,,,,stimuli/alien_stimuli/51.png,51,5,15,,,,,,,30,,,,,,,,717.6585287000053,717.6585287000053,717.6585287000053,717.6585287000053,717.6585287000053,left,1.45494329999201,2,1,0,99,0.48000000000000004,-0.16,left,1.367378700291738,,,,,716.0940457999241,717.6585287000053,0.16,-0.08,0.0,0.08,-0.08,0.16,0.2,0.16,-0.08,712.981714699883,712.981714699883,712.981714699883,712.981714699883,712.981714699883,712.981714699883,712.981714699883,712.981714699883,712.9750166401267,3.238211000105366,return,3.0908207001630217,,,,,,,,,,,,,,,,,,,,,,,,,,,,,,,,,010UVG,train_x,blue_star,bottom_right,2024-12-06_13h38.53.416,HideSeek_v1,2022.2.5,59.92092835471535,
,9,3,4,3,-5,0,11,,train_dim1_1,14,30,,,,2,0,2,0,,,,,,,,,0,0,0,0,0,13,13,13,1,0,1,0,,,,,,,,,,,,,,,,,,,,,,,,,,,,,,,,,,,,,,,,,,,,,,,,,,,,,,,,,,,,,,,,30,,,,,,,,719.1137621998787,719.1137621998787,719.1137621998787,719.1137621998787,719.1137621998787,left,0.309455799870193,2,1,0,99,0.4,-0.16,left,0.22877730033360422,,,,,,,,,,,,,,,,,,,,,,,,,,,,,,,,,,,,,,,,,,,,,,,,,,,,,,,,,,,,010UVG,train_x,blue_star,bottom_right,2024-12-06_13h38.53.416,HideSeek_v1,2022.2.5,59.92092835471535,
,9,3,4,3,-5,0,11,,train_dim1_1,14,30,,,,2,0,2,0,,,,,,,,,0,0,0,0,0,13,13,13,2,0,2,0,,,,,,,,,,,,,,,,,,,,,,,,,,,,,,,,,,,,,,,,,,,,,,,,,,,,,,,,,,,,,,,,30,,,,,,,,719.4307764999103,719.4307764999103,719.4307764999103,719.4307764999103,719.4307764999103,left,0.27681559999473393,2,1,0,99,0.32,-0.16,left,0.18970980029553175,,,,,,,,,,,,,,,,,,,,,,,,,,,,,,,,,,,,,,,,,,,,,,,,,,,,,,,,,,,,010UVG,train_x,blue_star,bottom_right,2024-12-06_13h38.53.416,HideSeek_v1,2022.2.5,59.92092835471535,
,9,3,4,3,-5,0,11,,train_dim1_1,14,30,,,,2,0,2,0,,,,,,,,,0,0,0,0,0,13,13,13,3,0,3,0,,,,,,,,,,,,,,,,,,,,,,,,,,,,,,,,,,,,,,,,,,,,,,,,,,,,,,,,,,,,,,,,30,,,,,,,,719.7146499999799,719.7146499999799,719.7146499999799,719.7146499999799,719.7146499999799,left,0.27598489983938634,2,1,0,99,0.24,-0.16,left,0.1915207002311945,,,,,,,,,,,,,,,,,,,,,,,,,,,,,,,,,,,,,,,,,,,,,,,,,,,,,,,,,,,,010UVG,train_x,blue_star,bottom_right,2024-12-06_13h38.53.416,HideSeek_v1,2022.2.5,59.92092835471535,
,9,3,4,3,-5,0,11,,train_dim1_1,14,30,,,,2,0,2,0,,,,,,,,,0,0,0,0,0,13,13,13,4,0,4,0,,,,,,,,,,,,,,,,,,,,,,,,,,,,,,,,,,,,,,,,,,,,,,,,,,,,,,,,,,,,,,,,30,,,,,,,,719.9974144999869,719.9974144999869,719.9974144999869,719.9974144999869,719.9974144999869,left,0.3600602999795228,2,1,0,99,0.15999999999999998,-0.16,left,0.2751397001557052,,,,,,,,,,,,,,,,,,,,,,,,,,,,,,,,,,,,,,,,,,,,,,,,,,,,,,,,,,,,010UVG,train_x,blue_star,bottom_right,2024-12-06_13h38.53.416,HideSeek_v1,2022.2.5,59.92092835471535,
,9,3,4,3,-5,0,11,,train_dim1_1,14,30,,,,2,0,2,0,,,,,,,,,0,0,0,0,0,13,13,13,5,0,5,0,,,,,,,,,,,,,,,,,,,,,,,,,,,,,,,,,,,,,,,,,,,,,,,,,,,,,,,,,,,,,,,,30,,,,,,,,720.3645071999636,720.3645071999636,720.3645071999636,720.3645071999636,720.3645071999636,left,0.7765961000695825,2,1,0,99,0.07999999999999997,-0.16,left,0.6855051999446005,,,,,,,,,,,,,,,,,,,,,,,,,,,,,,,,,,,,,,,,,,,,,,,,,,,,,,,,,,,,010UVG,train_x,blue_star,bottom_right,2024-12-06_13h38.53.416,HideSeek_v1,2022.2.5,59.92092835471535,
,9,3,4,3,-5,0,11,,train_dim1_1,14,30,,,,2,0,2,0,,,,,,,,,0,0,0,0,0,13,13,13,6,0,6,0,,,,,,,,,,,,,,,,,,,,,,,,,,,,,,,,,,,,,,,,,,,,,,,,,,,,,,,,,,,,,,,,30,,,,,,,,721.1507468000054,721.1507468000054,721.1507468000054,721.1507468000054,721.1507468000054,return,1.4426502001006156,2,1,0,0,0.07999999999999997,-0.16,return,1.3502763002179563,3,-26,0.07999999999999997,-0.16,,,,,,,,,,,,,,,,,,,,,,,,,,,,,,,,,,,,,,,,,,,,,,,,,,,,,,,,010UVG,train_x,blue_star,bottom_right,2024-12-06_13h38.53.416,HideSeek_v1,2022.2.5,59.92092835471535,
,9,2,9,2,0,0,61,,train_dim1_1,15,30,,,,2,0,2,0,,,,,,,,,0,0,0,0,0,14,14,14,0,0,0,0,,,,,,,,,,,,,,,,,,,,,,,,,stimuli/alien_stimuli/61.png,,,,,,,,,,,,,,,,,,,,,,,,,,,,,stimuli/alien_stimuli/11.png,11,9,16,,,,,,,30,,,,,,,,727.4672314999625,727.4672314999625,727.4672314999625,727.4672314999625,727.4672314999625,right,1.4020832998212427,2,1,0,99,0.64,-0.24,right,1.295676900073886,,,,,725.8737439999823,724.1758334001061,0.16,-0.16,0.0,0.4,-0.16,0.16,0.36000000000000004,0.16,-0.16,724.1758334001061,724.1758334001061,724.1758334001061,724.1758334001061,724.1758334001061,724.1758334001061,724.1758334001061,724.1758334001061,724.1677505400497,1.826351699884981,return,1.669609600212425,,,,,,,,,,,,,,,,,,,,,,,,,,,,,,,,,010UVG,train_x,blue_star,bottom_right,2024-12-06_13h38.53.416,HideSeek_v1,2022.2.5,59.92092835471535,
,9,2,9,2,0,0,61,,train_dim1_1,15,30,,,,2,0,2,0,,,,,,,,,0,0,0,0,0,14,14,14,1,0,1,0,,,,,,,,,,,,,,,,,,,,,,,,,,,,,,,,,,,,,,,,,,,,,,,,,,,,,,,,,,,,,,,,30,,,,,,,,728.8527687999886,728.8527687999886,728.8527687999886,728.8527687999886,728.8527687999886,left,0.9264790997840464,2,1,0,99,0.56,-0.24,left,0.845745800063014,,,,,,,,,,,,,,,,,,,,,,,,,,,,,,,,,,,,,,,,,,,,,,,,,,,,,,,,,,,,010UVG,train_x,blue_star,bottom_right,2024-12-06_13h38.53.416,HideSeek_v1,2022.2.5,59.92092835471535,
,9,2,9,2,0,0,61,,train_dim1_1,15,30,,,,2,0,2,0,,,,,,,,,0,0,0,0,0,14,14,14,2,0,2,0,,,,,,,,,,,,,,,,,,,,,,,,,,,,,,,,,,,,,,,,,,,,,,,,,,,,,,,,,,,,,,,,30,,,,,,,,729.7859517000616,729.7859517000616,729.7859517000616,729.7859517000616,729.7859517000616,return,0.9602059999015182,3,0,0,1,0.56,-0.24,return,0.8748316001147032,3,-26,0.56,-0.24,,,,,,,,,,,,,,,,,,,,,,,,,,,,,,,,,,,,,,,,,,,,,,,,,,,,,,,,010UVG,train_x,blue_star,bottom_right,2024-12-06_13h38.53.416,HideSeek_v1,2022.2.5,59.92092835471535,
,8,3,7,3,-1,0,51,,train_dim1_1,16,30,,,,2,0,2,0,,,,,,,,,0,0,0,0,0,15,15,15,0,0,0,0,,,,,,,,,,,,,,,,,,,,,,,,,stimuli/alien_stimuli/51.png,,,,,,,,,,,,,,,,,,,,,,,,,,,,,stimuli/alien_stimuli/61.png,61,9,17,,,,,,,30,,,,,,,,735.6787974000908,735.6787974000908,735.6787974000908,735.6787974000908,735.6787974000908,left,1.4496545000001788,3,0,0,99,0.39999999999999997,-0.16,left,1.340026400052011,,,,,734.0923307000194,735.6787974000908,0.56,-0.24,0.0,0.0,-0.24,0.56,0.56,0.56,-0.24,732.3174217001069,732.3174217001069,732.3174217001069,732.3174217001069,732.3174217001069,732.3174217001069,732.3174217001069,732.3174217001069,732.3076727100647,1.8870375999249518,return,1.7540259999223053,,,,,,,,,,,,,,,,,,,,,,,,,,,,,,,,,010UVG,train_x,blue_star,bottom_right,2024-12-06_13h38.53.416,HideSeek_v1,2022.2.5,59.92092835471535,
,8,3,7,3,-1,0,51,,train_dim1_1,16,30,,,,2,0,2,0,,,,,,,,,0,0,0,0,0,15,15,15,1,0,1,0,,,,,,,,,,,,,,,,,,,,,,,,,,,,,,,,,,,,,,,,,,,,,,,,,,,,,,,,,,,,,,,,30,,,,,,,,737.110878800042,737.110878800042,737.110878800042,737.110878800042,737.110878800042,return,1.9110290000680834,4,0,0,1,0.39999999999999997,-0.16,return,1.829331000102684,3,-27,0.39999999999999997,-0.16,,,,,,,,,,,,,,,,,,,,,,,,,,,,,,,,,,,,,,,,,,,,,,,,,,,,,,,,010UVG,train_x,blue_star,bottom_right,2024-12-06_13h38.53.416,HideSeek_v1,2022.2.5,59.92092835471535,
,7,4,3,4,-4,0,21,,train_dim1_1,17,30,,,,2,0,2,0,,,,,,,,,0,0,0,0,0,16,16,16,0,0,0,0,,,,,,,,,,,,,,,,,,,,,,,,,stimuli/alien_stimuli/21.png,,,,,,,,,,,,,,,,,,,,,,,,,,,,,stimuli/alien_stimuli/51.png,51,8,18,,,,,,,30,,,,,,,,743.5124923998956,743.5124923998956,743.5124923998956,743.5124923998956,743.5124923998956,left,1.854748300043866,4,0,0,99,0.32,-0.08,left,1.7682223001029342,,,,,741.9488707000855,743.5124923998956,0.4,-0.16,0.0,0.08,-0.16,0.4,0.44,0.4,-0.16,740.5928287999704,740.5928287999704,740.5928287999704,740.5928287999704,740.5928287999704,740.5928287999704,740.5928287999704,740.5928287999704,740.5812154099344,1.469853000016883,return,1.330019900109619,,,,,,,,,,,,,,,,,,,,,,,,,,,,,,,,,010UVG,train_x,blue_star,bottom_right,2024-12-06_13h38.53.416,HideSeek_v1,2022.2.5,59.92092835471535,
,7,4,3,4,-4,0,21,,train_dim1_1,17,30,,,,2,0,2,0,,,,,,,,,0,0,0,0,0,16,16,16,1,0,1,0,,,,,,,,,,,,,,,,,,,,,,,,,,,,,,,,,,,,,,,,,,,,,,,,,,,,,,,,,,,,,,,,30,,,,,,,,745.369356600102,745.369356600102,745.369356600102,745.369356600102,745.369356600102,left,0.676433099899441,4,0,0,99,0.24,-0.08,left,0.5922136001754552,,,,,,,,,,,,,,,,,,,,,,,,,,,,,,,,,,,,,,,,,,,,,,,,,,,,,,,,,,,,010UVG,train_x,blue_star,bottom_right,2024-12-06_13h38.53.416,HideSeek_v1,2022.2.5,59.92092835471535,
,7,4,3,4,-4,0,21,,train_dim1_1,17,30,,,,2,0,2,0,,,,,,,,,0,0,0,0,0,16,16,16,2,0,2,0,,,,,,,,,,,,,,,,,,,,,,,,,,,,,,,,,,,,,,,,,,,,,,,,,,,,,,,,,,,,,,,,30,,,,,,,,746.0524488000665,746.0524488000665,746.0524488000665,746.0524488000665,746.0524488000665,left,0.6428720999974757,4,0,0,99,0.15999999999999998,-0.08,left,0.5561174000613391,,,,,,,,,,,,,,,,,,,,,,,,,,,,,,,,,,,,,,,,,,,,,,,,,,,,,,,,,,,,010UVG,train_x,blue_star,bottom_right,2024-12-06_13h38.53.416,HideSeek_v1,2022.2.5,59.92092835471535,
,7,4,3,4,-4,0,21,,train_dim1_1,17,30,,,,2,0,2,0,,,,,,,,,0,0,0,0,0,16,16,16,3,0,3,0,,,,,,,,,,,,,,,,,,,,,,,,,,,,,,,,,,,,,,,,,,,,,,,,,,,,,,,,,,,,,,,,30,,,,,,,,746.7020958999638,746.7020958999638,746.7020958999638,746.7020958999638,746.7020958999638,left,1.3109172000549734,4,0,0,99,0.07999999999999997,-0.08,left,1.2268434001598507,,,,,,,,,,,,,,,,,,,,,,,,,,,,,,,,,,,,,,,,,,,,,,,,,,,,,,,,,,,,010UVG,train_x,blue_star,bottom_right,2024-12-06_13h38.53.416,HideSeek_v1,2022.2.5,59.92092835471535,
,7,4,3,4,-4,0,21,,train_dim1_1,17,30,,,,2,0,2,0,,,,,,,,,0,0,0,0,0,16,16,16,4,0,4,0,,,,,,,,,,,,,,,,,,,,,,,,,,,,,,,,,,,,,,,,,,,,,,,,,,,,,,,,,,,,,,,,30,,,,,,,,748.0213808999397,748.0213808999397,748.0213808999397,748.0213808999397,748.0213808999397,return,0.576328500173986,5,0,0,1,0.07999999999999997,-0.08,return,0.49010930000804365,3,-31,0.07999999999999997,-0.08,,,,,,,,,,,,,,,,,,,,,,,,,,,,,,,,,,,,,,,,,,,,,,,,,,,,,,,,010UVG,train_x,blue_star,bottom_right,2024-12-06_13h38.53.416,HideSeek_v1,2022.2.5,59.92092835471535,
,7,1,7,1,0,0,61,,train_dim1_1,18,30,,,,2,0,2,0,,,,,,,,,0,0,0,0,0,17,17,17,0,0,0,0,,,,,,,,,,,,,,,,,,,,,,,,,stimuli/alien_stimuli/61.png,,,,,,,,,,,,,,,,,,,,,,,,,,,,,stimuli/alien_stimuli/21.png,21,7,19,,,,,,,30,,,,,,,,752.9200450999197,752.9200450999197,752.9200450999197,752.9200450999197,752.9200450999197,down,4.355483700055629,5,0,0,99,0.4,-0.4,down,4.258329600095749,,,,,751.3400346999988,752.9200450999197,0.08,-0.08,0.0,0.32,-0.08,0.08,0.24000000000000002,0.08,-0.08,750.1652613000479,750.1652613000479,750.1652613000479,750.1652613000479,750.1652613000479,750.1652613000479,750.1652613000479,750.1652613000479,750.1558875100686,1.2870497999247164,return,1.15687600011006,,,,,,,,,,,,,,,,,,,,,,,,,,,,,,,,,010UVG,train_x,blue_star,bottom_right,2024-12-06_13h38.53.416,HideSeek_v1,2022.2.5,59.92092835471535,
,7,1,7,1,0,0,61,,train_dim1_1,18,30,,,,2,0,2,0,,,,,,,,,0,0,0,0,0,17,17,17,1,0,1,0,,,,,,,,,,,,,,,,,,,,,,,,,,,,,,,,,,,,,,,,,,,,,,,,,,,,,,,,,,,,,,,,30,,,,,,,,757.2860828000121,757.2860828000121,757.2860828000121,757.2860828000121,757.2860828000121,return,0.9828110998496413,5,1,0,0,0.4,-0.4,return,0.8866285001859069,2,-31,0.4,-0.4,,,,,,,,,,,,,,,,,,,,,,,,,,,,,,,,,,,,,,,,,,,,,,,,,,,,,,,,010UVG,train_x,blue_star,bottom_right,2024-12-06_13h38.53.416,HideSeek_v1,2022.2.5,59.92092835471535,
,5,3,2,3,-3,0,31,,train_dim1_1,19,30,,,,2,0,2,0,,,,,,,,,0,0,0,0,0,18,18,18,0,0,0,0,,,,,,,,,,,,,,,,,,,,,,,,,stimuli/alien_stimuli/31.png,,,,,,,,,,,,,,,,,,,,,,,,,,,,,stimuli/alien_stimuli/61.png,61,7,20,,,,,,,30,,,,,,,,763.9629295999184,763.9629295999184,763.9629295999184,763.9629295999184,763.9629295999184,left,2.3023000999819487,5,1,0,99,0.15999999999999998,-0.16,left,2.2166979000903666,,,,,762.3860265999101,759.8353782999329,0.4,-0.32,0.0,0.0,-0.32,0.4,0.4,0.4,-0.32,759.8353782999329,759.8353782999329,759.8353782999329,759.8353782999329,759.8353782999329,759.8353782999329,759.8353782999329,759.8353782999329,759.8142078101168,2.6751023000106215,return,2.5291619999334216,,,,,,,,,,,,,,,,,,,,,,,,,,,,,,,,,010UVG,train_x,blue_star,bottom_right,2024-12-06_13h38.53.416,HideSeek_v1,2022.2.5,59.92092835471535,
,5,3,2,3,-3,0,31,,train_dim1_1,19,30,,,,2,0,2,0,,,,,,,,,0,0,0,0,0,18,18,18,1,0,1,0,,,,,,,,,,,,,,,,,,,,,,,,,,,,,,,,,,,,,,,,,,,,,,,,,,,,,,,,,,,,,,,,30,,,,,,,,766.2658871000167,766.2658871000167,766.2658871000167,766.2658871000167,766.2658871000167,left,0.6256699999794364,5,1,0,99,0.07999999999999997,-0.16,left,0.5412060001399368,,,,,,,,,,,,,,,,,,,,,,,,,,,,,,,,,,,,,,,,,,,,,,,,,,,,,,,,,,,,010UVG,train_x,blue_star,bottom_right,2024-12-06_13h38.53.416,HideSeek_v1,2022.2.5,59.92092835471535,
,5,3,2,3,-3,0,31,,train_dim1_1,19,30,,,,2,0,2,0,,,,,,,,,0,0,0,0,0,18,18,18,2,0,2,0,,,,,,,,,,,,,,,,,,,,,,,,,,,,,,,,,,,,,,,,,,,,,,,,,,,,,,,,,,,,,,,,30,,,,,,,,766.9061110999901,766.9061110999901,766.9061110999901,766.9061110999901,766.9061110999901,left,1.5780760999768972,5,1,0,99,-2.7755575615628914e-17,-0.16,left,1.4941099002026021,,,,,,,,,,,,,,,,,,,,,,,,,,,,,,,,,,,,,,,,,,,,,,,,,,,,,,,,,,,,010UVG,train_x,blue_star,bottom_right,2024-12-06_13h38.53.416,HideSeek_v1,2022.2.5,59.92092835471535,
,5,3,2,3,-3,0,31,,train_dim1_1,19,30,,,,2,0,2,0,,,,,,,,,0,0,0,0,0,18,18,18,3,0,3,0,,,,,,,,,,,,,,,,,,,,,,,,,,,,,,,,,,,,,,,,,,,,,,,,,,,,,,,,,,,,,,,,30,,,,,,,,768.4917274999898,768.4917274999898,768.4917274999898,768.4917274999898,768.4917274999898,return,0.9090815000236034,6,0,0,1,-2.7755575615628914e-17,-0.16,return,0.8306157002225518,2,-34,-2.7755575615628914e-17,-0.16,,,,,,,,,,,,,,,,,,,,,,,,,,,,,,,,,,,,,,,,,,,,,,,,,,,,,,,,010UVG,train_x,blue_star,bottom_right,2024-12-06_13h38.53.416,HideSeek_v1,2022.2.5,59.92092835471535,
,5,1,0,1,-5,0,11,,train_dim1_1,20,30,,,,2,0,2,0,,,,,,,,,0,0,0,0,0,19,19,19,0,0,0,0,,,,,,,,,,,,,,,,,,,,,,,,,stimuli/alien_stimuli/11.png,,,,,,,,,,,,,,,,,,,,,,,,,,,,,stimuli/alien_stimuli/31.png,31,5,21,,,,,,,30,,,,,,,,773.9888601999264,773.9888601999264,773.9888601999264,773.9888601999264,773.9888601999264,left,3.5928425998426974,6,0,0,99,0.15999999999999998,-0.32,left,3.4889317001216114,,,,,772.4070572000928,773.9888601999264,0,-0.16,0.0,0.24,-0.16,0,0.12,0,-0.16,770.9867650999222,770.9867650999222,770.9867650999222,770.9867650999222,770.9867650999222,770.9867650999222,770.9867650999222,770.9867650999222,770.9737344401423,1.5517164000775665,return,1.3953038002364337,,,,,,,,,,,,,,,,,,,,,,,,,,,,,,,,,010UVG,train_x,blue_star,bottom_right,2024-12-06_13h38.53.416,HideSeek_v1,2022.2.5,59.92092835471535,
,5,1,0,1,-5,0,11,,train_dim1_1,20,30,,,,2,0,2,0,,,,,,,,,0,0,0,0,0,19,19,19,1,0,1,0,,,,,,,,,,,,,,,,,,,,,,,,,,,,,,,,,,,,,,,,,,,,,,,,,,,,,,,,,,,,,,,,30,,,,,,,,777.5934093999676,777.5934093999676,777.5934093999676,777.5934093999676,777.5934093999676,left,0.3315079000312835,6,0,0,99,0.07999999999999997,-0.32,left,0.2327380001079291,,,,,,,,,,,,,,,,,,,,,,,,,,,,,,,,,,,,,,,,,,,,,,,,,,,,,,,,,,,,010UVG,train_x,blue_star,bottom_right,2024-12-06_13h38.53.416,HideSeek_v1,2022.2.5,59.92092835471535,
,5,1,0,1,-5,0,11,,train_dim1_1,20,30,,,,2,0,2,0,,,,,,,,,0,0,0,0,0,19,19,19,2,0,2,0,,,,,,,,,,,,,,,,,,,,,,,,,,,,,,,,,,,,,,,,,,,,,,,,,,,,,,,,,,,,,,,,30,,,,,,,,777.9207621999085,777.9207621999085,777.9207621999085,777.9207621999085,777.9207621999085,left,0.3721423000097275,6,0,0,99,-2.7755575615628914e-17,-0.32,left,0.2924426000099629,,,,,,,,,,,,,,,,,,,,,,,,,,,,,,,,,,,,,,,,,,,,,,,,,,,,,,,,,,,,010UVG,train_x,blue_star,bottom_right,2024-12-06_13h38.53.416,HideSeek_v1,2022.2.5,59.92092835471535,
,5,1,0,1,-5,0,11,,train_dim1_1,20,30,,,,2,0,2,0,,,,,,,,,0,0,0,0,0,19,19,19,3,0,3,0,,,,,,,,,,,,,,,,,,,,,,,,,,,,,,,,,,,,,,,,,,,,,,,,,,,,,,,,,,,,,,,,30,,,,,,,,778.3071594999637,778.3071594999637,778.3071594999637,778.3071594999637,778.3071594999637,left,0.6043859999626875,6,0,0,99,-0.08000000000000003,-0.32,left,0.5150613002479076,,,,,,,,,,,,,,,,,,,,,,,,,,,,,,,,,,,,,,,,,,,,,,,,,,,,,,,,,,,,010UVG,train_x,blue_star,bottom_right,2024-12-06_13h38.53.416,HideSeek_v1,2022.2.5,59.92092835471535,
,5,1,0,1,-5,0,11,,train_dim1_1,20,30,,,,2,0,2,0,,,,,,,,,0,0,0,0,0,19,19,19,4,0,4,0,,,,,,,,,,,,,,,,,,,,,,,,,,,,,,,,,,,,,,,,,,,,,,,,,,,,,,,,,,,,,,,,30,,,,,,,,778.956611600006,778.956611600006,778.956611600006,778.956611600006,778.956611600006,return,1.2268546998966485,6,1,0,0,-0.08000000000000003,-0.32,return,1.12866079993546,2,-38,-0.08000000000000003,-0.32,,,,,,,,,,,,,,,,,,,,,,,,,,,,,,,,,,,,,,,,,,,,,,,,,,,,,,,,010UVG,train_x,blue_star,bottom_right,2024-12-06_13h38.53.416,HideSeek_v1,2022.2.5,59.92092835471535,
,9,2,6,2,-3,0,31,,train_dim1_1,21,30,,,,2,0,2,0,,,,,,,,,0,0,0,0,0,20,20,20,0,0,0,0,,,,,,,,,,,,,,,,,,,,,,,,,stimuli/alien_stimuli/31.png,,,,,,,,,,,,,,,,,,,,,,,,,,,,,stimuli/alien_stimuli/11.png,11,5,22,,,,,,,30,,,,,,,,785.7075644000433,785.7075644000433,785.7075644000433,785.7075644000433,785.7075644000433,left,1.940869800047949,6,1,0,99,0.48000000000000004,-0.24,left,1.8389554000459611,,,,,784.1349587000441,785.7075644000433,-0.16,-0.32,0.0,0.4,-0.32,-0.16,0.039999999999999994,-0.16,-0.32,781.7726741998922,781.7726741998922,781.7726741998922,781.7726741998922,781.7726741998922,781.7726741998922,781.7726741998922,781.7726741998922,781.7488776399754,2.50652310019359,return,2.344367700163275,,,,,,,,,,,,,,,,,,,,,,,,,,,,,,,,,010UVG,train_x,blue_star,bottom_right,2024-12-06_13h38.53.416,HideSeek_v1,2022.2.5,59.92092835471535,
,9,2,6,2,-3,0,31,,train_dim1_1,21,30,,,,2,0,2,0,,,,,,,,,0,0,0,0,0,20,20,20,1,0,1,0,,,,,,,,,,,,,,,,,,,,,,,,,,,,,,,,,,,,,,,,,,,,,,,,,,,,,,,,,,,,,,,,30,,,,,,,,787.6655421999749,787.6655421999749,787.6655421999749,787.6655421999749,787.6655421999749,left,0.22264369996264577,6,1,0,99,0.4,-0.24,left,0.11823760019615293,,,,,,,,,,,,,,,,,,,,,,,,,,,,,,,,,,,,,,,,,,,,,,,,,,,,,,,,,,,,010UVG,train_x,blue_star,bottom_right,2024-12-06_13h38.53.416,HideSeek_v1,2022.2.5,59.92092835471535,
,9,2,6,2,-3,0,31,,train_dim1_1,21,30,,,,2,0,2,0,,,,,,,,,0,0,0,0,0,20,20,20,2,0,2,0,,,,,,,,,,,,,,,,,,,,,,,,,,,,,,,,,,,,,,,,,,,,,,,,,,,,,,,,,,,,,,,,30,,,,,,,,787.9053881000727,787.9053881000727,787.9053881000727,787.9053881000727,787.9053881000727,left,0.18184969993308187,6,1,0,99,0.32,-0.24,left,0.09912290005013347,,,,,,,,,,,,,,,,,,,,,,,,,,,,,,,,,,,,,,,,,,,,,,,,,,,,,,,,,,,,010UVG,train_x,blue_star,bottom_right,2024-12-06_13h38.53.416,HideSeek_v1,2022.2.5,59.92092835471535,
,9,2,6,2,-3,0,31,,train_dim1_1,21,30,,,,2,0,2,0,,,,,,,,,0,0,0,0,0,20,20,20,3,0,3,0,,,,,,,,,,,,,,,,,,,,,,,,,,,,,,,,,,,,,,,,,,,,,,,,,,,,,,,,,,,,,,,,30,,,,,,,,788.0968986998778,788.0968986998778,788.0968986998778,788.0968986998778,788.0968986998778,left,0.208794399863109,6,1,0,99,0.24,-0.24,left,0.12606220017187297,,,,,,,,,,,,,,,,,,,,,,,,,,,,,,,,,,,,,,,,,,,,,,,,,,,,,,,,,,,,010UVG,train_x,blue_star,bottom_right,2024-12-06_13h38.53.416,HideSeek_v1,2022.2.5,59.92092835471535,
,9,2,6,2,-3,0,31,,train_dim1_1,21,30,,,,2,0,2,0,,,,,,,,,0,0,0,0,0,20,20,20,4,0,4,0,,,,,,,,,,,,,,,,,,,,,,,,,,,,,,,,,,,,,,,,,,,,,,,,,,,,,,,,,,,,,,,,30,,,,,,,,788.3063240000047,788.3063240000047,788.3063240000047,788.3063240000047,788.3063240000047,return,0.8756744000129402,6,1,0,0,0.24,-0.24,return,0.7913971000816673,2,-42,0.24,-0.24,,,,,,,,,,,,,,,,,,,,,,,,,,,,,,,,,,,,,,,,,,,,,,,,,,,,,,,,010UVG,train_x,blue_star,bottom_right,2024-12-06_13h38.53.416,HideSeek_v1,2022.2.5,59.92092835471535,
,6,0,2,0,-4,0,21,,train_dim1_1,22,30,,,,2,0,2,0,,,,,,,,,0,0,0,0,0,21,21,21,0,0,0,0,,,,,,,,,,,,,,,,,,,,,,,,,stimuli/alien_stimuli/21.png,,,,,,,,,,,,,,,,,,,,,,,,,,,,,stimuli/alien_stimuli/31.png,31,9,23,,,,,,,30,,,,,,,,814.9465598000679,814.9465598000679,814.9465598000679,814.9465598000679,814.9465598000679,left,2.276506599970162,6,1,0,99,0.24,-0.4,left,2.1504295002669096,,,,,813.3373539999593,,0.32,-0.24,0.0,0.24,-0.24,0.32,0.44000000000000006,0.32,-0.24,790.7781620000023,790.7781620000023,790.7781620000023,790.7781620000023,790.7781620000023,790.7781620000023,790.7781620000023,790.7781620000023,790.7561793100554,22.678240000037476,return,22.52595840021968,,,,,,,,,,,,,,,,,,,,,,,,,,,,,,,,,010UVG,train_x,blue_star,bottom_right,2024-12-06_13h38.53.416,HideSeek_v1,2022.2.5,59.92092835471535,
,6,0,2,0,-4,0,21,,train_dim1_1,22,30,,,,2,0,2,0,,,,,,,,,0,0,0,0,0,21,21,21,1,0,1,0,,,,,,,,,,,,,,,,,,,,,,,,,,,,,,,,,,,,,,,,,,,,,,,,,,,,,,,,,,,,,,,,30,,,,,,,,817.2129548999947,817.2129548999947,817.2129548999947,817.2129548999947,817.2129548999947,left,1.1415666001848876,6,1,0,99,0.15999999999999998,-0.4,left,1.0359768001362681,,,,,,,,,,,,,,,,,,,,,,,,,,,,,,,,,,,,,,,,,,,,,,,,,,,,,,,,,,,,010UVG,train_x,blue_star,bottom_right,2024-12-06_13h38.53.416,HideSeek_v1,2022.2.5,59.92092835471535,
,6,0,2,0,-4,0,21,,train_dim1_1,22,30,,,,2,0,2,0,,,,,,,,,0,0,0,0,0,21,21,21,2,0,2,0,,,,,,,,,,,,,,,,,,,,,,,,,,,,,,,,,,,,,,,,,,,,,,,,,,,,,,,,,,,,,,,,30,,,,,,,,818.3589532999322,818.3589532999322,818.3589532999322,818.3589532999322,818.3589532999322,left,1.0937711000442505,6,1,0,99,0.07999999999999997,-0.4,left,0.9982270000036806,,,,,,,,,,,,,,,,,,,,,,,,,,,,,,,,,,,,,,,,,,,,,,,,,,,,,,,,,,,,010UVG,train_x,blue_star,bottom_right,2024-12-06_13h38.53.416,HideSeek_v1,2022.2.5,59.92092835471535,
,6,0,2,0,-4,0,21,,train_dim1_1,22,30,,,,2,0,2,0,,,,,,,,,0,0,0,0,0,21,21,21,3,0,3,0,,,,,,,,,,,,,,,,,,,,,,,,,,,,,,,,,,,,,,,,,,,,,,,,,,,,,,,,,,,,,,,,30,,,,,,,,819.4484272000846,819.4484272000846,819.4484272000846,819.4484272000846,819.4484272000846,return,3.4946245001628995,6,1,0,0,0.07999999999999997,-0.4,return,3.413627900183201,2,-45,0.07999999999999997,-0.4,,,,,,,,,,,,,,,,,,,,,,,,,,,,,,,,,,,,,,,,,,,,,,,,,,,,,,,,010UVG,train_x,blue_star,bottom_right,2024-12-06_13h38.53.416,HideSeek_v1,2022.2.5,59.92092835471535,
,7,1,7,1,0,0,61,,train_dim1_1,23,30,,,,2,0,2,0,,,,,,,,,0,0,0,0,0,22,22,22,0,0,0,0,,,,,,,,,,,,,,,,,,,,,,,,,stimuli/alien_stimuli/61.png,,,,,,,,,,,,,,,,,,,,,,,,,,,,,stimuli/alien_stimuli/21.png,21,6,24,,,,,,,30,,,,,,,,827.9979314000811,827.9979314000811,827.9979314000811,827.9979314000811,827.9979314000811,return,1.8608605000190437,7,0,0,1,0.4,-0.32,return,1.7462199002038687,2,-45,0.4,-0.32,826.4024537000805,824.548470800044,0,-0.4,0.0,0.32,-0.4,0,0.16,0,-0.4,824.548470800044,824.548470800044,824.548470800044,824.548470800044,824.548470800044,824.548470800044,824.548470800044,824.548470800044,824.5341812700964,2.0018434000667185,return,1.8170642999466509,,,,,,,,,,,,,,,,,,,,,,,,,,,,,,,,,010UVG,train_x,blue_star,bottom_right,2024-12-06_13h38.53.416,HideSeek_v1,2022.2.5,59.92092835471535,
,9,4,8,4,-1,0,51,,train_dim1_1,24,30,,,,2,0,2,0,,,,,,,,,0,0,0,0,0,23,23,23,0,0,0,0,,,,,,,,,,,,,,,,,,,,,,,,,stimuli/alien_stimuli/51.png,,,,,,,,,,,,,,,,,,,,,,,,,,,,,stimuli/alien_stimuli/61.png,61,7,25,,,,,,,30,,,,,,,,834.9368809000589,834.9368809000589,834.9368809000589,834.9368809000589,834.9368809000589,left,1.7201683998573571,7,0,0,99,0.48000000000000004,-0.08,left,1.6203168001957238,,,,,833.3585995999165,834.9368809000589,0.4,-0.32,0.0,0.0,-0.32,0.4,0.4,0.4,-0.32,831.4076755000278,831.4076755000278,831.4076755000278,831.4076755000278,831.4076755000278,831.4076755000278,831.4076755000278,831.4076755000278,831.3893819800112,2.056745999958366,return,1.926577600184828,,,,,,,,,,,,,,,,,,,,,,,,,,,,,,,,,010UVG,train_x,blue_star,bottom_right,2024-12-06_13h38.53.416,HideSeek_v1,2022.2.5,59.92092835471535,
,9,4,8,4,-1,0,51,,train_dim1_1,24,30,,,,2,0,2,0,,,,,,,,,0,0,0,0,0,23,23,23,1,0,1,0,,,,,,,,,,,,,,,,,,,,,,,,,,,,,,,,,,,,,,,,,,,,,,,,,,,,,,,,,,,,,,,,30,,,,,,,,836.65417600004,836.65417600004,836.65417600004,836.65417600004,836.65417600004,return,0.8415300000924617,8,0,0,1,0.48000000000000004,-0.08,return,0.7437977001536638,2,-46,0.48000000000000004,-0.08,,,,,,,,,,,,,,,,,,,,,,,,,,,,,,,,,,,,,,,,,,,,,,,,,,,,,,,,010UVG,train_x,blue_star,bottom_right,2024-12-06_13h38.53.416,HideSeek_v1,2022.2.5,59.92092835471535,
,8,0,3,0,-5,0,11,,train_dim1_1,25,30,,,,2,0,2,0,,,,,,,,,0,0,0,0,0,24,24,24,0,0,0,0,,,,,,,,,,,,,,,,,,,,,,,,,stimuli/alien_stimuli/11.png,,,,,,,,,,,,,,,,,,,,,,,,,,,,,stimuli/alien_stimuli/51.png,51,9,26,,,,,,,30,,,,,,,,841.8534184999298,841.8534184999298,841.8534184999298,841.8534184999298,841.8534184999298,left,1.389792799949646,8,0,0,99,0.39999999999999997,-0.4,left,1.2949345000088215,,,,,840.2802893999033,841.8534184999298,0.48,-0.08,0.0,0.08,-0.08,0.48,0.52,0.48,-0.08,839.0630610000808,839.0630610000808,839.0630610000808,839.0630610000808,839.0630610000808,839.0630610000808,839.0630610000808,839.0630610000808,839.0463128100614,1.3379049999639392,return,1.1989182000979781,,,,,,,,,,,,,,,,,,,,,,,,,,,,,,,,,010UVG,train_x,blue_star,bottom_right,2024-12-06_13h38.53.416,HideSeek_v1,2022.2.5,59.92092835471535,
,8,0,3,0,-5,0,11,,train_dim1_1,25,30,,,,2,0,2,0,,,,,,,,,0,0,0,0,0,24,24,24,1,0,1,0,,,,,,,,,,,,,,,,,,,,,,,,,,,,,,,,,,,,,,,,,,,,,,,,,,,,,,,,,,,,,,,,30,,,,,,,,843.2351327000652,843.2351327000652,843.2351327000652,843.2351327000652,843.2351327000652,left,0.3592091000173241,8,0,0,99,0.31999999999999995,-0.4,left,0.26667749998159707,,,,,,,,,,,,,,,,,,,,,,,,,,,,,,,,,,,,,,,,,,,,,,,,,,,,,,,,,,,,010UVG,train_x,blue_star,bottom_right,2024-12-06_13h38.53.416,HideSeek_v1,2022.2.5,59.92092835471535,
,8,0,3,0,-5,0,11,,train_dim1_1,25,30,,,,2,0,2,0,,,,,,,,,0,0,0,0,0,24,24,24,2,0,2,0,,,,,,,,,,,,,,,,,,,,,,,,,,,,,,,,,,,,,,,,,,,,,,,,,,,,,,,,,,,,,,,,30,,,,,,,,843.6013686999213,843.6013686999213,843.6013686999213,843.6013686999213,843.6013686999213,left,0.35943119996227324,8,0,0,99,0.23999999999999994,-0.4,left,0.2772789001464844,,,,,,,,,,,,,,,,,,,,,,,,,,,,,,,,,,,,,,,,,,,,,,,,,,,,,,,,,,,,010UVG,train_x,blue_star,bottom_right,2024-12-06_13h38.53.416,HideSeek_v1,2022.2.5,59.92092835471535,
,8,0,3,0,-5,0,11,,train_dim1_1,25,30,,,,2,0,2,0,,,,,,,,,0,0,0,0,0,24,24,24,3,0,3,0,,,,,,,,,,,,,,,,,,,,,,,,,,,,,,,,,,,,,,,,,,,,,,,,,,,,,,,,,,,,,,,,30,,,,,,,,843.9675280998927,843.9675280998927,843.9675280998927,843.9675280998927,843.9675280998927,left,0.3764763998333365,8,0,0,99,0.15999999999999992,-0.4,left,0.2932188000995666,,,,,,,,,,,,,,,,,,,,,,,,,,,,,,,,,,,,,,,,,,,,,,,,,,,,,,,,,,,,010UVG,train_x,blue_star,bottom_right,2024-12-06_13h38.53.416,HideSeek_v1,2022.2.5,59.92092835471535,
,8,0,3,0,-5,0,11,,train_dim1_1,25,30,,,,2,0,2,0,,,,,,,,,0,0,0,0,0,24,24,24,4,0,4,0,,,,,,,,,,,,,,,,,,,,,,,,,,,,,,,,,,,,,,,,,,,,,,,,,,,,,,,,,,,,,,,,30,,,,,,,,844.3521650000475,844.3521650000475,844.3521650000475,844.3521650000475,844.3521650000475,left,0.3928701998665929,8,0,0,99,0.07999999999999992,-0.4,left,0.30051200021989644,,,,,,,,,,,,,,,,,,,,,,,,,,,,,,,,,,,,,,,,,,,,,,,,,,,,,,,,,,,,010UVG,train_x,blue_star,bottom_right,2024-12-06_13h38.53.416,HideSeek_v1,2022.2.5,59.92092835471535,
,8,0,3,0,-5,0,11,,train_dim1_1,25,30,,,,2,0,2,0,,,,,,,,,0,0,0,0,0,24,24,24,5,0,5,0,,,,,,,,,,,,,,,,,,,,,,,,,,,,,,,,,,,,,,,,,,,,,,,,,,,,,,,,,,,,,,,,30,,,,,,,,844.7515056000557,844.7515056000557,844.7515056000557,844.7515056000557,844.7515056000557,left,0.409993999870494,8,0,0,99,-8.326672684688674e-17,-0.4,left,0.31885879999026656,,,,,,,,,,,,,,,,,,,,,,,,,,,,,,,,,,,,,,,,,,,,,,,,,,,,,,,,,,,,010UVG,train_x,blue_star,bottom_right,2024-12-06_13h38.53.416,HideSeek_v1,2022.2.5,59.92092835471535,
,8,0,3,0,-5,0,11,,train_dim1_1,25,30,,,,2,0,2,0,,,,,,,,,0,0,0,0,0,24,24,24,6,0,6,0,,,,,,,,,,,,,,,,,,,,,,,,,,,,,,,,,,,,,,,,,,,,,,,,,,,,,,,,,,,,,,,,30,,,,,,,,845.1682247999124,845.1682247999124,845.1682247999124,845.1682247999124,845.1682247999124,left,1.4605427999049425,8,0,0,99,-0.08000000000000008,-0.4,left,1.3792863001581281,,,,,,,,,,,,,,,,,,,,,,,,,,,,,,,,,,,,,,,,,,,,,,,,,,,,,,,,,,,,010UVG,train_x,blue_star,bottom_right,2024-12-06_13h38.53.416,HideSeek_v1,2022.2.5,59.92092835471535,
,8,0,3,0,-5,0,11,,train_dim1_1,25,30,,,,2,0,2,0,,,,,,,,,0,0,0,0,0,24,24,24,7,0,7,0,,,,,,,,,,,,,,,,,,,,,,,,,,,,,,,,,,,,,,,,,,,,,,,,,,,,,,,,,,,,,,,,30,,,,,,,,846.6358125999104,846.6358125999104,846.6358125999104,846.6358125999104,846.6358125999104,return,1.0274819999467582,8,0,0,0,-0.08000000000000008,-0.4,return,0.9518450000323355,2,-53,-0.08000000000000008,-0.4,,,,,,,,,,,,,,,,,,,,,,,,,,,,,,,,,,,,,,,,,,,,,,,,,,,,,,,,010UVG,train_x,blue_star,bottom_right,2024-12-06_13h38.53.416,HideSeek_v1,2022.2.5,59.92092835471535,
,6,1,6,1,0,0,61,,train_dim1_1,26,30,,,,2,0,2,0,,,,,,,,,0,0,0,0,0,25,25,25,0,0,0,0,,,,,,,,,,,,,,,,,,,,,,,,,stimuli/alien_stimuli/61.png,,,,,,,,,,,,,,,,,,,,,,,,,,,,,stimuli/alien_stimuli/11.png,11,8,27,,,,,,,30,,,,,,,,853.3443841000553,853.3443841000553,853.3443841000553,853.3443841000553,853.3443841000553,return,1.7731359000317752,9,0,0,1,0.32,-0.32,return,1.6700621999334544,2,-53,0.32,-0.32,851.7736573000439,853.3443841000553,0.08,-0.4,0.0,0.4,-0.4,0.08,0.27999999999999997,0.08,-0.4,849.2295224999543,849.2295224999543,849.2295224999543,849.2295224999543,849.2295224999543,849.2295224999543,849.2295224999543,849.2295224999543,849.2211362101602,2.6550547999795526,return,2.515715200221166,,,,,,,,,,,,,,,,,,,,,,,,,,,,,,,,,010UVG,train_x,blue_star,bottom_right,2024-12-06_13h38.53.416,HideSeek_v1,2022.2.5,59.92092835471535,
,5,1,2,1,-3,0,31,,train_dim1_1,27,30,,,,2,0,2,0,,,,,,,,,0,0,0,0,0,26,26,26,0,0,0,0,,,,,,,,,,,,,,,,,,,,,,,,,stimuli/alien_stimuli/31.png,,,,,,,,,,,,,,,,,,,,,,,,,,,,,stimuli/alien_stimuli/61.png,61,6,28,,,,,,,30,,,,,,,,859.3720712000504,859.3720712000504,859.3720712000504,859.3720712000504,859.3720712000504,left,4.6257809000089765,9,0,0,99,0.15999999999999998,-0.32,left,4.533641700167209,,,,,857.81204660004,859.3720712000504,0.32,-0.32,0.0,0.0,-0.32,0.32,0.32,0.32,-0.32,856.678090200061,856.678090200061,856.678090200061,856.678090200061,856.678090200061,856.678090200061,856.678090200061,856.678090200061,856.660843880102,1.2375940999481827,return,1.117762700188905,,,,,,,,,,,,,,,,,,,,,,,,,,,,,,,,,010UVG,train_x,blue_star,bottom_right,2024-12-06_13h38.53.416,HideSeek_v1,2022.2.5,59.92092835471535,
,5,1,2,1,-3,0,31,,train_dim1_1,27,30,,,,2,0,2,0,,,,,,,,,0,0,0,0,0,26,26,26,1,0,1,0,,,,,,,,,,,,,,,,,,,,,,,,,,,,,,,,,,,,,,,,,,,,,,,,,,,,,,,,,,,,,,,,30,,,,,,,,863.9986179000698,863.9986179000698,863.9986179000698,863.9986179000698,863.9986179000698,left,1.7434111000038683,9,0,0,99,0.07999999999999997,-0.32,left,1.6618447001092136,,,,,,,,,,,,,,,,,,,,,,,,,,,,,,,,,,,,,,,,,,,,,,,,,,,,,,,,,,,,010UVG,train_x,blue_star,bottom_right,2024-12-06_13h38.53.416,HideSeek_v1,2022.2.5,59.92092835471535,
,5,1,2,1,-3,0,31,,train_dim1_1,27,30,,,,2,0,2,0,,,,,,,,,0,0,0,0,0,26,26,26,2,0,2,0,,,,,,,,,,,,,,,,,,,,,,,,,,,,,,,,,,,,,,,,,,,,,,,,,,,,,,,,,,,,,,,,30,,,,,,,,865.7517132000066,865.7517132000066,865.7517132000066,865.7517132000066,865.7517132000066,left,1.0419320999644697,9,0,0,99,-2.7755575615628914e-17,-0.32,left,0.9653916000388563,,,,,,,,,,,,,,,,,,,,,,,,,,,,,,,,,,,,,,,,,,,,,,,,,,,,,,,,,,,,010UVG,train_x,blue_star,bottom_right,2024-12-06_13h38.53.416,HideSeek_v1,2022.2.5,59.92092835471535,
,5,1,2,1,-3,0,31,,train_dim1_1,27,30,,,,2,0,2,0,,,,,,,,,0,0,0,0,0,26,26,26,3,0,3,0,,,,,,,,,,,,,,,,,,,,,,,,,,,,,,,,,,,,,,,,,,,,,,,,,,,,,,,,,,,,,,,,30,,,,,,,,866.8002830999903,866.8002830999903,866.8002830999903,866.8002830999903,866.8002830999903,return,1.3603824998717755,10,0,0,1,-2.7755575615628914e-17,-0.32,return,1.2834319001995027,2,-56,-2.7755575615628914e-17,-0.32,,,,,,,,,,,,,,,,,,,,,,,,,,,,,,,,,,,,,,,,,,,,,,,,,,,,,,,,010UVG,train_x,blue_star,bottom_right,2024-12-06_13h38.53.416,HideSeek_v1,2022.2.5,59.92092835471535,
,8,1,4,1,-4,0,21,,train_dim1_1,28,30,,,,2,0,2,0,,,,,,,,,0,0,0,0,0,27,27,27,0,0,0,0,,,,,,,,,,,,,,,,,,,,,,,,,stimuli/alien_stimuli/21.png,,,,,,,,,,,,,,,,,,,,,,,,,,,,,stimuli/alien_stimuli/31.png,31,5,29,,,,,,,30,,,,,,,,873.8560730000027,873.8560730000027,873.8560730000027,873.8560730000027,873.8560730000027,left,1.3840439000632614,10,0,0,99,0.39999999999999997,-0.32,left,1.2798485001549125,,,,,872.2739705999848,873.8560730000027,0,-0.32,0.0,0.24,-0.32,0,0.12,0,-0.32,869.7396941999905,869.7396941999905,869.7396941999905,869.7396941999905,869.7396941999905,869.7396941999905,869.7396941999905,869.7396941999905,869.722028409969,2.6541503998450935,return,2.518200600054115,,,,,,,,,,,,,,,,,,,,,,,,,,,,,,,,,010UVG,train_x,blue_star,bottom_right,2024-12-06_13h38.53.416,HideSeek_v1,2022.2.5,59.92092835471535,
,8,1,4,1,-4,0,21,,train_dim1_1,28,30,,,,2,0,2,0,,,,,,,,,0,0,0,0,0,27,27,27,1,0,1,0,,,,,,,,,,,,,,,,,,,,,,,,,,,,,,,,,,,,,,,,,,,,,,,,,,,,,,,,,,,,,,,,30,,,,,,,,875.2296160000842,875.2296160000842,875.2296160000842,875.2296160000842,875.2296160000842,left,0.5916728999000043,10,0,0,99,0.31999999999999995,-0.32,left,0.5044764000922441,,,,,,,,,,,,,,,,,,,,,,,,,,,,,,,,,,,,,,,,,,,,,,,,,,,,,,,,,,,,010UVG,train_x,blue_star,bottom_right,2024-12-06_13h38.53.416,HideSeek_v1,2022.2.5,59.92092835471535,
,8,1,4,1,-4,0,21,,train_dim1_1,28,30,,,,2,0,2,0,,,,,,,,,0,0,0,0,0,27,27,27,2,0,2,0,,,,,,,,,,,,,,,,,,,,,,,,,,,,,,,,,,,,,,,,,,,,,,,,,,,,,,,,,,,,,,,,30,,,,,,,,875.8281276999041,875.8281276999041,875.8281276999041,875.8281276999041,875.8281276999041,left,0.509398200083524,10,0,0,99,0.23999999999999994,-0.32,left,0.4241805002093315,,,,,,,,,,,,,,,,,,,,,,,,,,,,,,,,,,,,,,,,,,,,,,,,,,,,,,,,,,,,010UVG,train_x,blue_star,bottom_right,2024-12-06_13h38.53.416,HideSeek_v1,2022.2.5,59.92092835471535,
,8,1,4,1,-4,0,21,,train_dim1_1,28,30,,,,2,0,2,0,,,,,,,,,0,0,0,0,0,27,27,27,3,0,3,0,,,,,,,,,,,,,,,,,,,,,,,,,,,,,,,,,,,,,,,,,,,,,,,,,,,,,,,,,,,,,,,,30,,,,,,,,876.3447934000287,876.3447934000287,876.3447934000287,876.3447934000287,876.3447934000287,left,0.5599077998194844,10,0,0,99,0.15999999999999992,-0.32,left,0.47972430009394884,,,,,,,,,,,,,,,,,,,,,,,,,,,,,,,,,,,,,,,,,,,,,,,,,,,,,,,,,,,,010UVG,train_x,blue_star,bottom_right,2024-12-06_13h38.53.416,HideSeek_v1,2022.2.5,59.92092835471535,
,8,1,4,1,-4,0,21,,train_dim1_1,28,30,,,,2,0,2,0,,,,,,,,,0,0,0,0,0,27,27,27,4,0,4,0,,,,,,,,,,,,,,,,,,,,,,,,,,,,,,,,,,,,,,,,,,,,,,,,,,,,,,,,,,,,,,,,30,,,,,,,,876.9107478999067,876.9107478999067,876.9107478999067,876.9107478999067,876.9107478999067,left,2.0281259999610484,10,0,0,99,0.07999999999999992,-0.32,left,1.9434024000074714,,,,,,,,,,,,,,,,,,,,,,,,,,,,,,,,,,,,,,,,,,,,,,,,,,,,,,,,,,,,010UVG,train_x,blue_star,bottom_right,2024-12-06_13h38.53.416,HideSeek_v1,2022.2.5,59.92092835471535,
,8,1,4,1,-4,0,21,,train_dim1_1,28,30,,,,2,0,2,0,,,,,,,,,0,0,0,0,0,27,27,27,5,0,5,0,,,,,,,,,,,,,,,,,,,,,,,,,,,,,,,,,,,,,,,,,,,,,,,,,,,,,,,,,,,,,,,,30,,,,,,,,878.9460610998794,878.9460610998794,878.9460610998794,878.9460610998794,878.9460610998794,return,1.4610806999262422,10,1,0,0,0.07999999999999992,-0.32,return,1.3743170001544058,2,-61,0.07999999999999992,-0.32,,,,,,,,,,,,,,,,,,,,,,,,,,,,,,,,,,,,,,,,,,,,,,,,,,,,,,,,010UVG,train_x,blue_star,bottom_right,2024-12-06_13h38.53.416,HideSeek_v1,2022.2.5,59.92092835471535,
,9,0,8,0,-1,0,51,,train_dim1_1,29,30,,,,2,0,2,0,,,,,,,,,0,0,0,0,0,28,28,28,0,0,0,0,,,,,,,,,,,,,,,,,,,,,,,,,stimuli/alien_stimuli/51.png,,,,,,,,,,,,,,,,,,,,,,,,,,,,,stimuli/alien_stimuli/21.png,21,8,30,,,,,,,30,,,,,,,,890.56950829993,890.56950829993,890.56950829993,890.56950829993,890.56950829993,left,1.7187256999313831,10,1,0,99,0.48000000000000004,-0.4,left,1.6370667002629489,,,,,889.0043593000155,890.56950829993,0.16,-0.32,0.0,0.32,-0.32,0.16,0.32,0.16,-0.32,881.9923233001027,881.9923233001027,881.9923233001027,881.9923233001027,881.9923233001027,881.9923233001027,881.9923233001027,881.9923233001027,881.9821705400012,7.141190299997106,return,6.989319000160322,,,,,,,,,,,,,,,,,,,,,,,,,,,,,,,,,010UVG,train_x,blue_star,bottom_right,2024-12-06_13h38.53.416,HideSeek_v1,2022.2.5,59.92092835471535,
,9,0,8,0,-1,0,51,,train_dim1_1,29,30,,,,2,0,2,0,,,,,,,,,0,0,0,0,0,28,28,28,1,0,1,0,,,,,,,,,,,,,,,,,,,,,,,,,,,,,,,,,,,,,,,,,,,,,,,,,,,,,,,,,,,,,,,,30,,,,,,,,892.2938951000106,892.2938951000106,892.2938951000106,892.2938951000106,892.2938951000106,return,0.5902879999484867,11,0,0,1,0.48000000000000004,-0.4,return,0.513127600075677,2,-62,0.48000000000000004,-0.4,,,,,,,,,,,,,,,,,,,,,,,,,,,,,,,,,,,,,,,,,,,,,,,,,,,,,,,,010UVG,train_x,blue_star,bottom_right,2024-12-06_13h38.53.416,HideSeek_v1,2022.2.5,59.92092835471535,
,7,2,2,2,-5,0,11,,train_dim1_1,30,30,,,,2,0,2,0,,,,,,,,,0,0,0,0,0,29,29,29,0,0,0,0,,,,,,,,,,,,,,,,,,,,,,,,,stimuli/alien_stimuli/11.png,,,,,,,,,,,,,,,,,,,,,,,,,,,,,stimuli/alien_stimuli/51.png,51,9,31,,,,,,,30,,,,,,,,897.6059016999789,897.6059016999789,897.6059016999789,897.6059016999789,897.6059016999789,left,2.186723900027573,11,0,0,99,0.32,-0.24,left,2.0848952000960708,,,,,896.0269585000351,897.6059016999789,0.48,-0.4,0.0,0.08,-0.4,0.48,0.52,0.48,-0.4,894.4623753998894,894.4623753998894,894.4623753998894,894.4623753998894,894.4623753998894,894.4623753998894,894.4623753998894,894.4623753998894,894.4422740099485,1.6868543999735266,return,1.5390371000394225,,,,,,,,,,,,,,,,,,,,,,,,,,,,,,,,,010UVG,train_x,blue_star,bottom_right,2024-12-06_13h38.53.416,HideSeek_v1,2022.2.5,59.92092835471535,
,7,2,2,2,-5,0,11,,train_dim1_1,30,30,,,,2,0,2,0,,,,,,,,,0,0,0,0,0,29,29,29,1,0,1,0,,,,,,,,,,,,,,,,,,,,,,,,,,,,,,,,,,,,,,,,,,,,,,,,,,,,,,,,,,,,,,,,30,,,,,,,,899.7816512000281,899.7816512000281,899.7816512000281,899.7816512000281,899.7816512000281,left,0.5763259998057038,11,0,0,99,0.24,-0.24,left,0.4997066000942141,,,,,,,,,,,,,,,,,,,,,,,,,,,,,,,,,,,,,,,,,,,,,,,,,,,,,,,,,,,,010UVG,train_x,blue_star,bottom_right,2024-12-06_13h38.53.416,HideSeek_v1,2022.2.5,59.92092835471535,
,7,2,2,2,-5,0,11,,train_dim1_1,30,30,,,,2,0,2,0,,,,,,,,,0,0,0,0,0,29,29,29,2,0,2,0,,,,,,,,,,,,,,,,,,,,,,,,,,,,,,,,,,,,,,,,,,,,,,,,,,,,,,,,,,,,,,,,30,,,,,,,,900.3644940999802,900.3644940999802,900.3644940999802,900.3644940999802,900.3644940999802,left,0.5096506997942924,11,0,0,99,0.15999999999999998,-0.24,left,0.43082979996688664,,,,,,,,,,,,,,,,,,,,,,,,,,,,,,,,,,,,,,,,,,,,,,,,,,,,,,,,,,,,010UVG,train_x,blue_star,bottom_right,2024-12-06_13h38.53.416,HideSeek_v1,2022.2.5,59.92092835471535,
,7,2,2,2,-5,0,11,,train_dim1_1,30,30,,,,2,0,2,0,,,,,,,,,0,0,0,0,0,29,29,29,3,0,3,0,,,,,,,,,,,,,,,,,,,,,,,,,,,,,,,,,,,,,,,,,,,,,,,,,,,,,,,,,,,,,,,,30,,,,,,,,900.8809603000991,900.8809603000991,900.8809603000991,900.8809603000991,900.8809603000991,left,0.5602639999706298,11,0,0,99,0.07999999999999997,-0.24,left,0.47590660001151264,,,,,,,,,,,,,,,,,,,,,,,,,,,,,,,,,,,,,,,,,,,,,,,,,,,,,,,,,,,,010UVG,train_x,blue_star,bottom_right,2024-12-06_13h38.53.416,HideSeek_v1,2022.2.5,59.92092835471535,
,7,2,2,2,-5,0,11,,train_dim1_1,30,30,,,,2,0,2,0,,,,,,,,,0,0,0,0,0,29,29,29,4,0,4,0,,,,,,,,,,,,,,,,,,,,,,,,,,,,,,,,,,,,,,,,,,,,,,,,,,,,,,,,,,,,,,,,30,,,,,,,,901.4492637999356,901.4492637999356,901.4492637999356,901.4492637999356,901.4492637999356,left,2.6281347000040114,11,0,0,99,-2.7755575615628914e-17,-0.24,left,2.550907999975607,,,,,,,,,,,,,,,,,,,,,,,,,,,,,,,,,,,,,,,,,,,,,,,,,,,,,,,,,,,,010UVG,train_x,blue_star,bottom_right,2024-12-06_13h38.53.416,HideSeek_v1,2022.2.5,59.92092835471535,
