trialInstr,x_fixStart,y_fixStart,x_corrSteps,y_corrSteps,x_nrSteps,y_nrSteps,alienID,trialLength,version,trialTrain,praclen,testlen,trial_label,break_on_off,beforeExpLoop.thisRepN,beforeExpLoop.thisTrialN,beforeExpLoop.thisN,beforeExpLoop.thisIndex,mini_instr_trials.thisRepN,mini_instr_trials.thisTrialN,mini_instr_trials.thisN,mini_instr_trials.thisIndex,instrLoop.thisRepN,instrLoop.thisTrialN,instrLoop.thisN,instrLoop.thisIndex,repeat_prac.thisRepN,repeat_prac.thisTrialN,repeat_prac.thisN,repeat_prac.thisIndex,trainLoop.thisRepN,trainLoop.thisTrialN,trainLoop.thisN,trainLoop.thisIndex,moveLoop_train.thisRepN,moveLoop_train.thisTrialN,moveLoop_train.thisN,moveLoop_train.thisIndex,experiment.thisRepN,experiment.thisTrialN,experiment.thisN,experiment.thisIndex,moveLoop_test.thisRepN,moveLoop_test.thisTrialN,moveLoop_test.thisN,moveLoop_test.thisIndex,mini_instr2_trials.thisRepN,mini_instr2_trials.thisTrialN,mini_instr2_trials.thisN,mini_instr2_trials.thisIndex,start_all_time,url,slideStim,audioStim,slides.started,sounds.started,nextButton.numClicks,nextButton.timesOn,nextButton.timesOff,prev_but.numClicks,prev_but.timesOn,prev_but.timesOff,alienStim,instrFile,alienStim_instr,gridImage_instr.started,startPos_3.started,key_instr.started,alienImage_3.started,sounds_1.started,key_instr.keys,key_instr.rt,all_x,all_y,FBy_corrSteps,FBy_fixStart,FBx_corrSteps,FBx_fixStart,FBy_pathSize_check,FBx_pathSize_check,gridImage_9.started,alienImageFB_3.started,startPosFB_3.started,keyFB_3.started,pathLine_ydir_2.started,pathLine_xdir_2.started,alienFace_3.started,sounds_2.started,RTFB_instr,keyFB_3.keys,keyFB_3.rt,draw_alienStim,draw_alienID,test_x,nrepcount,perfthres,percthres,earlierperf,earlystop,nextPrac,fileidx,praclen,saveACC_train,pracFile,nextPrac_train,addNrep,fileidx_endr,repExp,showearly,gridImage_4.started,startPos.started,movePos.started,key_resp.started,alienImage.started,buttonPress_train,RTchoice_train,cumAcctrain,aCorr,saveACC_choice,corrAns,x_movePos_end,y_movePos_end,key_resp.keys,key_resp.rt,wLy_dir,wLx_dir,x_movePos,y_movePos,text_2.started,text_2.stopped,aft_x_corrPos,aft_y_corrPos,y_pathSize_check,x_pathSize_check,y_pathdirY,x_pathdirY,x_pathdirX,x_corrPos,y_corrPos,gridImage_6.started,alienImageFB_2.started,startPosFB_2.started,movePosFB_2.started,keyFB_2.started,pathLine_xdir.started,pathLine_ydir.started,alienFace.started,sounds_4.started,RT_FBtrain,keyFB_2.keys,keyFB_2.rt,saveACC_pre,ACC,within_saveACC_train,earlystop_wloop,cumAcctrain_check,gridImage_3.started,alienImage_test.started,startPos_test.started,movePos_test.started,key_resp_test.started,wLy_dir_test,wLx_dir_test,buttonPress_test,RTchoice_test,cumAcctest,corrAns_test,key_resp_test.keys,key_resp_test.rt,text_3.started,text_3.stopped,total_time,end_all_time,key_resp_3.keys,slides_2.started,sounds_3.started,nextButton_2.numClicks,nextButton_2.timesOn,nextButton_2.timesOff,prev_but_2.numClicks,prev_but_2.timesOn,prev_but_2.timesOff,bye.started,participant,train_first,00_coordinate,starting corner,date,expName,psychopyVersion,frameRate,
,,,,,,,,,,,,,,,0,0,0,0,0,0,0,0,,,,,,,,,,,,,,,,,,,,,,,,,,,,,start_all_time,testround,conditions/schedules/train_y_first/red_square_00/bottom_right/instructions/Slide1.png,conditions/schedules/train_y_first/red_square_00/bottom_right/instructions/Audio1.wav,40.95611110000027,40.91144653994852,1,[4.631411399999706],[4.631418400000257],0,,,,,,,,,,,,,,,,,,,,,,,,,,,,,,,,,,,,,,,,,,,,,,,,,,,,,,,,,,,,,,,,,,,,,,,,,,,,,,,,,,,,,,,,,,,,,,,,,,,,,,,,,,,,,,,,,,,,,,,,,,,,0CV6D0,train_y,red_square,bottom_right,2025-03-07_17h02.53.284,HideSeek_v1,2022.2.5,59.849311403770145,
,,,,,,,,,,,,,,,0,0,0,0,1,0,1,0,,,,,,,,,,,,,,,,,,,,,,,,,,,,,,,conditions/schedules/train_y_first/red_square_00/bottom_right/instructions/Slide2.png,conditions/schedules/train_y_first/red_square_00/bottom_right/instructions/Audio2.wav,45.61154189999979,45.613591749999614,2,"[4.631411399999706, 11.275217399999747]","[4.631418400000257, 11.275223799999367]",0,,,,,,,,,,,,,,,,,,,,,,,,,,,,,,,,,,,,,,,,,,,,,,,,,,,,,,,,,,,,,,,,,,,,,,,,,,,,,,,,,,,,,,,,,,,,,,,,,,,,,,,,,,,,,,,,,,,,,,,,,,,,0CV6D0,train_y,red_square,bottom_right,2025-03-07_17h02.53.284,HideSeek_v1,2022.2.5,59.849311403770145,
,,,,,,,,,,,,,,,0,0,0,0,2,0,2,0,,,,,,,,,,,,,,,,,,,,,,,,,,,,,,,conditions/schedules/train_y_first/red_square_00/bottom_right/instructions/Slide3.png,conditions/schedules/train_y_first/red_square_00/bottom_right/instructions/Audio3.wav,56.96953919999942,56.95619114999863,3,"[4.631411399999706, 11.275217399999747, 16.814982699999746]","[4.631418400000257, 0.45115789999908884, 16.81498929999907]",0,,,,,,,,,,,,,,,,,,,,,,,,,,,,,,,,,,,,,,,,,,,,,,,,,,,,,,,,,,,,,,,,,,,,,,,,,,,,,,,,,,,,,,,,,,,,,,,,,,,,,,,,,,,,,,,,,,,,,,,,,,,,0CV6D0,train_y,red_square,bottom_right,2025-03-07_17h02.53.284,HideSeek_v1,2022.2.5,59.849311403770145,
,,,,,,,,,,,,,,,0,0,0,0,3,0,3,0,,,,,,,,,,,,,,,,,,,,,,,,,,,,,,,conditions/schedules/train_y_first/red_square_00/bottom_right/instructions/Slide4.png,conditions/schedules/train_y_first/red_square_00/bottom_right/instructions/Audio4.wav,73.86916439999914,73.87030157999943,4,"[4.631411399999706, 11.275217399999747, 16.814982699999746, 19.348287299999356]","[4.631418400000257, 0.45115789999908884, 0.04909930000030727, 19.3482939000005]",0,,,,,,,,,,,,,,,,,,,,,,,,,,,,,,,,,,,,,,,,,,,,,,,,,,,,,,,,,,,,,,,,,,,,,,,,,,,,,,,,,,,,,,,,,,,,,,,,,,,,,,,,,,,,,,,,,,,,,,,,,,,,0CV6D0,train_y,red_square,bottom_right,2025-03-07_17h02.53.284,HideSeek_v1,2022.2.5,59.849311403770145,
,,,,,,,,,,,,,,,0,0,0,0,4,0,4,0,,,,,,,,,,,,,,,,,,,,,,,,,,,,,,,conditions/schedules/train_y_first/red_square_00/bottom_right/instructions/Slide5.png,conditions/schedules/train_y_first/red_square_00/bottom_right/instructions/Audio5.wav,93.28590919999988,93.2864635499991,5,"[4.631411399999706, 11.275217399999747, 16.814982699999746, 19.348287299999356, 4.551865599998564]","[4.631418400000257, 0.45115789999908884, 0.04909930000030727, 0.014181999998982064, 4.551873999998861]",0,,,,,,,,,,,,,,,,,,,,,,,,,,,,,,,,,,,,,,,,,,,,,,,,,,,,,,,,,,,,,,,,,,,,,,,,,,,,,,,,,,,,,,,,,,,,,,,,,,,,,,,,,,,,,,,,,,,,,,,,,,,,0CV6D0,train_y,red_square,bottom_right,2025-03-07_17h02.53.284,HideSeek_v1,2022.2.5,59.849311403770145,
,,,,,,,,,,,,,,,0,0,0,0,5,0,5,0,,,,,,,,,,,,,,,,,,,,,,,,,,,,,,,conditions/schedules/train_y_first/red_square_00/bottom_right/instructions/Slide6.png,conditions/schedules/train_y_first/red_square_00/bottom_right/instructions/Audio6.wav,97.88968679999925,97.89018121999906,6,"[4.631411399999706, 11.275217399999747, 16.814982699999746, 19.348287299999356, 4.551865599998564, 4.718764799999917]","[4.631418400000257, 0.45115789999908884, 0.04909930000030727, 0.014181999998982064, 0.04836230000000796, 4.718772700000045]",0,,,,,,,,,,,,,,,,,,,,,,,,,,,,,,,,,,,,,,,,,,,,,,,,,,,,,,,,,,,,,,,,,,,,,,,,,,,,,,,,,,,,,,,,,,,,,,,,,,,,,,,,,,,,,,,,,,,,,,,,,,,,0CV6D0,train_y,red_square,bottom_right,2025-03-07_17h02.53.284,HideSeek_v1,2022.2.5,59.849311403770145,
,,,,,,,,,,,,,,,0,0,0,0,6,0,6,0,,,,,,,,,,,,,,,,,,,,,,,,,,,,,,,conditions/schedules/train_y_first/red_square_00/bottom_right/instructions/Slide7.png,conditions/schedules/train_y_first/red_square_00/bottom_right/instructions/Audio7.wav,102.65824790000079,102.66066312000002,7,"[4.631411399999706, 11.275217399999747, 16.814982699999746, 19.348287299999356, 4.551865599998564, 4.718764799999917, 5.488100499998836]","[4.631418400000257, 0.45115789999908884, 0.04909930000030727, 0.014181999998982064, 0.04836230000000796, 0.049936800000068615, 5.488107299999683]",0,,,,,,,,,,,,,,,,,,,,,,,,,,,,,,,,,,,,,,,,,,,,,,,,,,,,,,,,,,,,,,,,,,,,,,,,,,,,,,,,,,,,,,,,,,,,,,,,,,,,,,,,,,,,,,,,,,,,,,,,,,,,0CV6D0,train_y,red_square,bottom_right,2025-03-07_17h02.53.284,HideSeek_v1,2022.2.5,59.849311403770145,
,,,,,,,,,,,,,,,0,0,0,0,7,0,7,0,,,,,,,,,,,,,,,,,,,,,,,,,,,,,,,conditions/schedules/train_y_first/red_square_00/bottom_right/instructions/Slide8.png,conditions/schedules/train_y_first/red_square_00/bottom_right/instructions/Audio8.wav,108.19932060000065,108.19887261999865,8,"[4.631411399999706, 11.275217399999747, 16.814982699999746, 19.348287299999356, 4.551865599998564, 4.718764799999917, 5.488100499998836, 11.622732999998334]","[4.631418400000257, 0.45115789999908884, 0.04909930000030727, 0.014181999998982064, 0.04836230000000796, 0.049936800000068615, 0.08020729999952891, 11.62273969999842]",0,,,,,,,,,,,,,,,,,,,,,,,,,,,,,,,,,,,,,,,,,,,,,,,,,,,,,,,,,,,,,,,,,,,,,,,,,,,,,,,,,,,,,,,,,,,,,,,,,,,,,,,,,,,,,,,,,,,,,,,,,,,,0CV6D0,train_y,red_square,bottom_right,2025-03-07_17h02.53.284,HideSeek_v1,2022.2.5,59.849311403770145,
,,,,,,,,,,,,,,,0,0,0,0,8,0,8,0,,,,,,,,,,,,,,,,,,,,,,,,,,,,,,,conditions/schedules/train_y_first/red_square_00/bottom_right/instructions/Slide9.png,conditions/schedules/train_y_first/red_square_00/bottom_right/instructions/Audio9.wav,119.89219020000019,119.89167354999881,9,"[4.631411399999706, 11.275217399999747, 16.814982699999746, 19.348287299999356, 4.551865599998564, 4.718764799999917, 5.488100499998836, 11.622732999998334, 5.902218400000493]","[4.631418400000257, 0.45115789999908884, 0.04909930000030727, 0.014181999998982064, 0.04836230000000796, 0.049936800000068615, 0.08020729999952891, 0.08025850000012724, 5.902226200001678]",0,,,,,,,,,,,,,,,,,,,,,,,,,,,,,,,,,,,,,,,,,,,,,,,,,,,,,,,,,,,,,,,,,,,,,,,,,,,,,,,,,,,,,,,,,,,,,,,,,,,,,,,,,,,,,,,,,,,,,,,,,,,,0CV6D0,train_y,red_square,bottom_right,2025-03-07_17h02.53.284,HideSeek_v1,2022.2.5,59.849311403770145,
,,,,,,,,,,,,,,,0,0,0,0,9,0,9,0,,,,,,,,,,,,,,,,,,,,,,,,,,,,,,,conditions/schedules/train_y_first/red_square_00/bottom_right/instructions/Slide10.png,conditions/schedules/train_y_first/red_square_00/bottom_right/instructions/Audio10.wav,125.83288080000057,125.82991748999994,10,"[4.631411399999706, 11.275217399999747, 16.814982699999746, 19.348287299999356, 4.551865599998564, 4.718764799999917, 5.488100499998836, 11.622732999998334, 5.902218400000493, 6.801066399999399]","[4.631418400000257, 0.45115789999908884, 0.04909930000030727, 0.014181999998982064, 0.04836230000000796, 0.049936800000068615, 0.08020729999952891, 0.08025850000012724, 0.07943179999892891, 6.801073099999485]",0,,,,,,,,,,,,,,,,,,,,,,,,,,,,,,,,,,,,,,,,,,,,,,,,,,,,,,,,,,,,,,,,,,,,,,,,,,,,,,,,,,,,,,,,,,,,,,,,,,,,,,,,,,,,,,,,,,,,,,,,,,,,0CV6D0,train_y,red_square,bottom_right,2025-03-07_17h02.53.284,HideSeek_v1,2022.2.5,59.849311403770145,
,,,,,,,,,,,,,,,0,0,0,0,10,0,10,0,,,,,,,,,,,,,,,,,,,,,,,,,,,,,,,conditions/schedules/train_y_first/red_square_00/bottom_right/instructions/Slide11.png,conditions/schedules/train_y_first/red_square_00/bottom_right/instructions/Audio11.wav,132.67193100000077,132.66904768999993,11,"[4.631411399999706, 11.275217399999747, 16.814982699999746, 19.348287299999356, 4.551865599998564, 4.718764799999917, 5.488100499998836, 11.622732999998334, 5.902218400000493, 6.801066399999399, 10.602779900000314]","[4.631418400000257, 0.45115789999908884, 0.04909930000030727, 0.014181999998982064, 0.04836230000000796, 0.049936800000068615, 0.08020729999952891, 0.08025850000012724, 0.07943179999892891, 0.09420379999937722, 10.602786299999934]",0,,,,,,,,,,,,,,,,,,,,,,,,,,,,,,,,,,,,,,,,,,,,,,,,,,,,,,,,,,,,,,,,,,,,,,,,,,,,,,,,,,,,,,,,,,,,,,,,,,,,,,,,,,,,,,,,,,,,,,,,,,,,0CV6D0,train_y,red_square,bottom_right,2025-03-07_17h02.53.284,HideSeek_v1,2022.2.5,59.849311403770145,
,,,,,,,,,,,,,,,0,0,0,0,11,0,11,0,,,,,,,,,,,,,,,,,,,,,,,,,,,,,,,conditions/schedules/train_y_first/red_square_00/bottom_right/instructions/Slide12.png,conditions/schedules/train_y_first/red_square_00/bottom_right/instructions/Audio12.wav,143.34221839999918,143.34432874999948,12,"[4.631411399999706, 11.275217399999747, 16.814982699999746, 19.348287299999356, 4.551865599998564, 4.718764799999917, 5.488100499998836, 11.622732999998334, 5.902218400000493, 6.801066399999399, 10.602779900000314, 13.643570400001408]","[4.631418400000257, 0.45115789999908884, 0.04909930000030727, 0.014181999998982064, 0.04836230000000796, 0.049936800000068615, 0.08020729999952891, 0.08025850000012724, 0.07943179999892891, 0.09420379999937722, 0.06622790000074019, 13.643577000000732]",0,,,,,,,,,,,,,,,,,,,,,,,,,,,,,,,,,,,,,,,,,,,,,,,,,,,,,,,,,,,,,,,,,,,,,,,,,,,,,,,,,,,,,,,,,,,,,,,,,,,,,,,,,,,,,,,,,,,,,,,,,,,,0CV6D0,train_y,red_square,bottom_right,2025-03-07_17h02.53.284,HideSeek_v1,2022.2.5,59.849311403770145,
1,7,3,7,8,0,5,11,2,instr_dim1_1,,,,,,0,0,0,0,,,,,0,0,0,0,,,,,,,,,,,,,,,,,,,,,,,,,,,,,,,,,,,,,stimuli/alien_stimuli/11.png,conditions/schedules/train_y_first/red_square_00/bottom_right/inputInstr_1.xlsx,stimuli/alien_stimuli/11.png,157.09088019999945,157.09088019999945,157.09088019999945,157.09088019999945,157.08887680999794,return,14.305440399999497,"[-0.16, -0.08, 0, 0.08, 0.16, 0.24, 0.32, 0.4, 0.48, 0.56]","[-0.4, -0.32, -0.24, -0.16, -0.08, 0, 0.08, 0.16, 0.24, 0.32]",8,3,7,7,0.4,0.0,171.5729553000001,171.5729553000001,171.5729553000001,171.5729553000001,171.5729553000001,171.5729553000001,171.5729553000001,171.56787369999802,9.675800199998775,return,9.494751800000813,stimuli/alien_stimuli/11.png,11,7,1,,,,,,,,,,,,,,,,,,,,,,,,,,,,,,,,,,,,,,,,,,,,,,,,,,,,,,,,,,,,,,,,,,,,,,,,,,,,,,,,,,,,,,,,,0CV6D0,train_y,red_square,bottom_right,2025-03-07_17h02.53.284,HideSeek_v1,2022.2.5,59.849311403770145,
,,,,,,,,,,,30,,,,0,0,0,0,,,,,,,,,,,,,,,,,,,,,,,,,,,,,,,,,,,,,,,,,,,,,,,,,,,,,,,,,,,,,,,,,,,,,,,,,,,,,,21,0.7,0,0,99,1,30,0,conditions/schedules/train_y_first/red_square_00/bottom_right/inputTrain_1.1.xlsx,99,1,1,1,0,,,,,,,,,,,,,,,,,,,,,,,,,,,,,,,,,,,,,,,,,,,,,,,,,,,,,,,,,,,,,,,,,,,,,,,,,,,0CV6D0,train_y,red_square,bottom_right,2025-03-07_17h02.53.284,HideSeek_v1,2022.2.5,59.849311403770145,
,,,,,,,,,,,,,,,1,0,1,0,0,0,0,0,,,,,,,,,,,,,,,,,,,,,,,,,,,,,,,conditions/schedules/train_y_first/red_square_00/bottom_right/instructions/Slide13.png,conditions/schedules/train_y_first/red_square_00/bottom_right/instructions/Audio13.wav,181.22186019999936,181.20941533999903,13,"[4.631411399999706, 11.275217399999747, 16.814982699999746, 19.348287299999356, 4.551865599998564, 4.718764799999917, 5.488100499998836, 11.622732999998334, 5.902218400000493, 6.801066399999399, 10.602779900000314, 13.643570400001408, 18.466650200000004]","[4.631418400000257, 0.45115789999908884, 0.04909930000030727, 0.014181999998982064, 0.04836230000000796, 0.049936800000068615, 0.08020729999952891, 0.08025850000012724, 0.07943179999892891, 0.09420379999937722, 0.06622790000074019, 13.643577000000732, 18.466656600001443]",0,,,,,,,,,,,,,,,,,,,,,,,,,,,,,,,,,,,,,,,,,,,,,,,,,,,,,,,,,,,,,,,,,,,,,,,,,,,,,,,,,,,,,,,,,,,,,,,,,,,,,,,,,,,,,,,,,,,,,,,,,,,,0CV6D0,train_y,red_square,bottom_right,2025-03-07_17h02.53.284,HideSeek_v1,2022.2.5,59.849311403770145,
,,,,,,,,,,,,,,,1,0,1,0,1,0,1,0,,,,,,,,,,,,,,,,,,,,,,,,,,,,,,,conditions/schedules/train_y_first/red_square_00/bottom_right/instructions/Slide14.png,conditions/schedules/train_y_first/red_square_00/bottom_right/instructions/Audio14.wav,199.76137779999954,199.75817114999882,14,"[4.631411399999706, 11.275217399999747, 16.814982699999746, 19.348287299999356, 4.551865599998564, 4.718764799999917, 5.488100499998836, 11.622732999998334, 5.902218400000493, 6.801066399999399, 10.602779900000314, 13.643570400001408, 18.466650200000004, 16.641019500000766]","[4.631418400000257, 0.45115789999908884, 0.04909930000030727, 0.014181999998982064, 0.04836230000000796, 0.049936800000068615, 0.08020729999952891, 0.08025850000012724, 0.07943179999892891, 0.09420379999937722, 0.06622790000074019, 13.643577000000732, 18.466656600001443, 16.64102599999933]",0,,,,,,,,,,,,,,,,,,,,,,,,,,,,,,,,,,,,,,,,,,,,,,,,,,,,,,,,,,,,,,,,,,,,,,,,,,,,,,,,,,,,,,,,,,,,,,,,,,,,,,,,,,,,,,,,,,,,,,,,,,,,0CV6D0,train_y,red_square,bottom_right,2025-03-07_17h02.53.284,HideSeek_v1,2022.2.5,59.849311403770145,
2,5,3,5,3,0,0,16,2,instr_dim1_1,,,,,,1,0,1,0,,,,,0,0,0,0,,,,,,,,,,,,,,,,,,,,,,,,,,,,,,,,,,,,,stimuli/alien_stimuli/16.png,conditions/schedules/train_y_first/red_square_00/bottom_right/inputInstr_1.xlsx,stimuli/alien_stimuli/16.png,216.49979990000065,216.49979990000065,216.49979990000065,216.49979990000065,216.50527590999843,return,8.878146000000925,"[-0.16, -0.08, 0, 0.08, 0.16, 0.24, 0.32, 0.4, 0.48, 0.56]","[-0.4, -0.32, -0.24, -0.16, -0.08, 0, 0.08, 0.16, 0.24, 0.32]",3,3,5,5,0.0,0.0,225.51864390000082,225.51864390000082,225.51864390000082,225.51864390000082,225.51864390000082,225.51864390000082,225.51864390000082,225.5126263399994,9.575687100001232,return,9.434866100000363,stimuli/alien_stimuli/16.png,16,5,2,,,,,,,,,,,,,,,,,,,,,,,,,,,,,,,,,,,,,,,,,,,,,,,,,,,,,,,,,,,,,,,,,,,,,,,,,,,,,,,,,,,,,,,,,0CV6D0,train_y,red_square,bottom_right,2025-03-07_17h02.53.284,HideSeek_v1,2022.2.5,59.849311403770145,
,,,,,,,,,,,30,,,,1,0,1,0,,,,,,,,,,,,,,,,,,,,,,,,,,,,,,,,,,,,,,,,,,,,,,,,,,,,,,,,,,,,,,,,,,,,,,,,,,,,,,21,0.7,0,0,99,1,30,0,conditions/schedules/train_y_first/red_square_00/bottom_right/inputTrain_1.1.xlsx,99,1,1,1,0,,,,,,,,,,,,,,,,,,,,,,,,,,,,,,,,,,,,,,,,,,,,,,,,,,,,,,,,,,,,,,,,,,,,,,,,,,,0CV6D0,train_y,red_square,bottom_right,2025-03-07_17h02.53.284,HideSeek_v1,2022.2.5,59.849311403770145,
,,,,,,,,,,,,,,,2,0,2,0,0,0,0,0,,,,,,,,,,,,,,,,,,,,,,,,,,,,,,,conditions/schedules/train_y_first/red_square_00/bottom_right/instructions/Slide15.png,conditions/schedules/train_y_first/red_square_00/bottom_right/instructions/Audio15.wav,235.10633170000074,235.10382796999764,15,"[4.631411399999706, 11.275217399999747, 16.814982699999746, 19.348287299999356, 4.551865599998564, 4.718764799999917, 5.488100499998836, 11.622732999998334, 5.902218400000493, 6.801066399999399, 10.602779900000314, 13.643570400001408, 18.466650200000004, 16.641019500000766, 43.44759249999879]","[4.631418400000257, 0.45115789999908884, 0.04909930000030727, 0.014181999998982064, 0.04836230000000796, 0.049936800000068615, 0.08020729999952891, 0.08025850000012724, 0.07943179999892891, 0.09420379999937722, 0.06622790000074019, 13.643577000000732, 18.466656600001443, 16.64102599999933, 43.447599199998876]",0,,,,,,,,,,,,,,,,,,,,,,,,,,,,,,,,,,,,,,,,,,,,,,,,,,,,,,,,,,,,,,,,,,,,,,,,,,,,,,,,,,,,,,,,,,,,,,,,,,,,,,,,,,,,,,,,,,,,,,,,,,,,0CV6D0,train_y,red_square,bottom_right,2025-03-07_17h02.53.284,HideSeek_v1,2022.2.5,59.849311403770145,
,,,,,,,,,,,,,,,2,0,2,0,1,0,1,0,,,,,,,,,,,,,,,,,,,,,,,,,,,,,,,conditions/schedules/train_y_first/red_square_00/bottom_right/instructions/Slide16.png,conditions/schedules/train_y_first/red_square_00/bottom_right/instructions/Audio16.wav,278.62896739999996,278.62332654999955,16,"[4.631411399999706, 11.275217399999747, 16.814982699999746, 19.348287299999356, 4.551865599998564, 4.718764799999917, 5.488100499998836, 11.622732999998334, 5.902218400000493, 6.801066399999399, 10.602779900000314, 13.643570400001408, 18.466650200000004, 16.641019500000766, 43.44759249999879, 34.42046560000017]","[4.631418400000257, 0.45115789999908884, 0.04909930000030727, 0.014181999998982064, 0.04836230000000796, 0.049936800000068615, 0.08020729999952891, 0.08025850000012724, 0.07943179999892891, 0.09420379999937722, 0.06622790000074019, 13.643577000000732, 18.466656600001443, 16.64102599999933, 0.06300240000018675, 34.42047629999979]",0,,,,,,,,,,,,,,,,,,,,,,,,,,,,,,,,,,,,,,,,,,,,,,,,,,,,,,,,,,,,,,,,,,,,,,,,,,,,,,,,,,,,,,,,,,,,,,,,,,,,,,,,,,,,,,,,,,,,,,,,,,,,0CV6D0,train_y,red_square,bottom_right,2025-03-07_17h02.53.284,HideSeek_v1,2022.2.5,59.849311403770145,
,5,0,5,1,0,1,15,,train_dim1_1,1,30,,,,2,0,2,0,,,,,,,,,0,0,0,0,0,0,0,0,0,0,0,0,,,,,,,,,,,,,,,,,,,,,,,,,stimuli/alien_stimuli/15.png,,,,,,,,,,,,,,,,,,,,,,,,,,,,,,,,,,,,,,,30,,,,,,,,313.1507550000006,313.1507550000006,313.1507550000006,313.1507550000006,313.1507550000006,up,4.248815900000409,0,0,0,99,0.24,-0.32,up,4.149566099998992,,,,,,,,,,,,,,,,,,,,,,,,,,,,,,,,,,,,,,,,,,,,,,,,,,,,,,,,,,,,0CV6D0,train_y,red_square,bottom_right,2025-03-07_17h02.53.284,HideSeek_v1,2022.2.5,59.849311403770145,
,5,0,5,1,0,1,15,,train_dim1_1,1,30,,,,2,0,2,0,,,,,,,,,0,0,0,0,0,0,0,0,1,0,1,0,,,,,,,,,,,,,,,,,,,,,,,,,,,,,,,,,,,,,,,,,,,,,,,,,,,,,,,,,,,,,,,,30,,,,,,,,317.3906927000007,317.3906927000007,317.3906927000007,317.3906927000007,317.3906927000007,up,1.3603264000012132,0,0,0,99,0.24,-0.24,up,1.2783458000012615,,,,,,,,,,,,,,,,,,,,,,,,,,,,,,,,,,,,,,,,,,,,,,,,,,,,,,,,,,,,0CV6D0,train_y,red_square,bottom_right,2025-03-07_17h02.53.284,HideSeek_v1,2022.2.5,59.849311403770145,
,5,0,5,1,0,1,15,,train_dim1_1,1,30,,,,2,0,2,0,,,,,,,,,0,0,0,0,0,0,0,0,2,0,2,0,,,,,,,,,,,,,,,,,,,,,,,,,,,,,,,,,,,,,,,,,,,,,,,,,,,,,,,,,,,,,,,,30,,,,,,,,318.75704530000075,318.75704530000075,318.75704530000075,318.75704530000075,318.75704530000075,up,0.8103850999996212,0,0,0,99,0.24,-0.15999999999999998,up,0.7281810999993468,,,,,,,,,,,,,,,,,,,,,,,,,,,,,,,,,,,,,,,,,,,,,,,,,,,,,,,,,,,,0CV6D0,train_y,red_square,bottom_right,2025-03-07_17h02.53.284,HideSeek_v1,2022.2.5,59.849311403770145,
,5,0,5,1,0,1,15,,train_dim1_1,1,30,,,,2,0,2,0,,,,,,,,,0,0,0,0,0,0,0,0,3,0,3,0,,,,,,,,,,,,,,,,,,,,,,,,,,,,,,,,,,,,,,,,,,,,,,,,,,,,,,,,,,,,,,,,30,,,,,,,,319.5747300999992,319.5747300999992,319.5747300999992,319.5747300999992,319.5747300999992,up,0.6934915000001638,0,0,0,99,0.24,-0.07999999999999997,up,0.6071732000000338,,,,,,,,,,,,,,,,,,,,,,,,,,,,,,,,,,,,,,,,,,,,,,,,,,,,,,,,,,,,0CV6D0,train_y,red_square,bottom_right,2025-03-07_17h02.53.284,HideSeek_v1,2022.2.5,59.849311403770145,
,5,0,5,1,0,1,15,,train_dim1_1,1,30,,,,2,0,2,0,,,,,,,,,0,0,0,0,0,0,0,0,4,0,4,0,,,,,,,,,,,,,,,,,,,,,,,,,,,,,,,,,,,,,,,,,,,,,,,,,,,,,,,,,,,,,,,,30,,,,,,,,320.2740861000002,320.2740861000002,320.2740861000002,320.2740861000002,320.2740861000002,up,0.7438013999999384,0,0,0,99,0.24,2.7755575615628914e-17,up,0.6635234999994282,,,,,,,,,,,,,,,,,,,,,,,,,,,,,,,,,,,,,,,,,,,,,,,,,,,,,,,,,,,,0CV6D0,train_y,red_square,bottom_right,2025-03-07_17h02.53.284,HideSeek_v1,2022.2.5,59.849311403770145,
,5,0,5,1,0,1,15,,train_dim1_1,1,30,,,,2,0,2,0,,,,,,,,,0,0,0,0,0,0,0,0,5,0,5,0,,,,,,,,,,,,,,,,,,,,,,,,,,,,,,,,,,,,,,,,,,,,,,,,,,,,,,,,,,,,,,,,30,,,,,,,,321.0251382000006,321.0251382000006,321.0251382000006,321.0251382000006,321.0251382000006,return,1.5775125000000116,0,0,0,0,0.24,2.7755575615628914e-17,return,1.4882855999985622,5,0,0.24,2.7755575615628914e-17,,,,,,,,,,,,,,,,,,,,,,,,,,,,,,,,,,,,,,,,,,,,,,,,,,,,,,,,0CV6D0,train_y,red_square,bottom_right,2025-03-07_17h02.53.284,HideSeek_v1,2022.2.5,59.849311403770145,
,8,2,8,2,0,0,16,,train_dim1_1,2,30,,,,2,0,2,0,,,,,,,,,0,0,0,0,0,1,1,1,0,0,0,0,,,,,,,,,,,,,,,,,,,,,,,,,stimuli/alien_stimuli/16.png,,,,,,,,,,,,,,,,,,,,,,,,,,,,,stimuli/alien_stimuli/15.png,15,5,3,,,,,,,30,,,,,,,,340.54947360000006,340.54947360000006,340.54947360000006,340.54947360000006,340.54947360000006,return,9.027360100000806,1,0,0,1,0.48,-0.24,return,8.922621699999581,5,0,0.48,-0.24,338.97333509999953,340.54947360000006,0.24,-0.32,0.08,0.0,-0.36,0.24,0.24,0.24,-0.32,324.1837493999992,324.1837493999992,324.1837493999992,324.1837493999992,324.1837493999992,324.1837493999992,324.1837493999992,324.1837493999992,324.17757533999935,14.91462219999994,return,14.758595400000559,,,,,,,,,,,,,,,,,,,,,,,,,,,,,,,,,0CV6D0,train_y,red_square,bottom_right,2025-03-07_17h02.53.284,HideSeek_v1,2022.2.5,59.849311403770145,
,7,3,7,6,0,3,13,,train_dim1_1,3,30,,,,2,0,2,0,,,,,,,,,0,0,0,0,0,2,2,2,0,0,0,0,,,,,,,,,,,,,,,,,,,,,,,,,stimuli/alien_stimuli/13.png,,,,,,,,,,,,,,,,,,,,,,,,,,,,,stimuli/alien_stimuli/16.png,16,8,4,,,,,,,30,,,,,,,,362.1016144999994,362.1016144999994,362.1016144999994,362.1016144999994,362.1016144999994,left,8.14360299999862,1,0,0,99,0.32,-0.16,left,8.035997799999677,,,,,360.52484279999953,362.1016144999994,0.48,-0.24,0.0,0.0,-0.24,0.48,0.48,0.48,-0.24,351.1496270000007,351.1496270000007,351.1496270000007,351.1496270000007,351.1496270000007,351.1496270000007,351.1496270000007,351.1496270000007,351.15010326999874,9.509926300001098,return,9.34811819999959,,,,,,,,,,,,,,,,,,,,,,,,,,,,,,,,,0CV6D0,train_y,red_square,bottom_right,2025-03-07_17h02.53.284,HideSeek_v1,2022.2.5,59.849311403770145,
,7,3,7,6,0,3,13,,train_dim1_1,3,30,,,,2,0,2,0,,,,,,,,,0,0,0,0,0,2,2,2,1,0,1,0,,,,,,,,,,,,,,,,,,,,,,,,,,,,,,,,,,,,,,,,,,,,,,,,,,,,,,,,,,,,,,,,30,,,,,,,,370.2339675000003,370.2339675000003,370.2339675000003,370.2339675000003,370.2339675000003,left,0.609980799999903,1,0,0,99,0.24,-0.16,left,0.5293012999991333,,,,,,,,,,,,,,,,,,,,,,,,,,,,,,,,,,,,,,,,,,,,,,,,,,,,,,,,,,,,0CV6D0,train_y,red_square,bottom_right,2025-03-07_17h02.53.284,HideSeek_v1,2022.2.5,59.849311403770145,
,7,3,7,6,0,3,13,,train_dim1_1,3,30,,,,2,0,2,0,,,,,,,,,0,0,0,0,0,2,2,2,2,0,2,0,,,,,,,,,,,,,,,,,,,,,,,,,,,,,,,,,,,,,,,,,,,,,,,,,,,,,,,,,,,,,,,,30,,,,,,,,370.8500363999992,370.8500363999992,370.8500363999992,370.8500363999992,370.8500363999992,left,2.7455853999999817,1,0,0,99,0.15999999999999998,-0.16,left,2.669215500000064,,,,,,,,,,,,,,,,,,,,,,,,,,,,,,,,,,,,,,,,,,,,,,,,,,,,,,,,,,,,0CV6D0,train_y,red_square,bottom_right,2025-03-07_17h02.53.284,HideSeek_v1,2022.2.5,59.849311403770145,
,7,3,7,6,0,3,13,,train_dim1_1,3,30,,,,2,0,2,0,,,,,,,,,0,0,0,0,0,2,2,2,3,0,3,0,,,,,,,,,,,,,,,,,,,,,,,,,,,,,,,,,,,,,,,,,,,,,,,,,,,,,,,,,,,,,,,,30,,,,,,,,373.60259869999936,373.60259869999936,373.60259869999936,373.60259869999936,373.60259869999936,return,0.6600707999987208,1,0,0,0,0.15999999999999998,-0.16,return,0.5709110000007058,5,-3,0.15999999999999998,-0.16,,,,,,,,,,,,,,,,,,,,,,,,,,,,,,,,,,,,,,,,,,,,,,,,,,,,,,,,0CV6D0,train_y,red_square,bottom_right,2025-03-07_17h02.53.284,HideSeek_v1,2022.2.5,59.849311403770145,
,5,1,5,5,0,4,12,,train_dim1_1,4,30,,,,2,0,2,0,,,,,,,,,0,0,0,0,0,3,3,3,0,0,0,0,,,,,,,,,,,,,,,,,,,,,,,,,stimuli/alien_stimuli/12.png,,,,,,,,,,,,,,,,,,,,,,,,,,,,,stimuli/alien_stimuli/13.png,13,7,5,,,,,,,30,,,,,,,,383.65035499999976,383.65035499999976,383.65035499999976,383.65035499999976,383.65035499999976,up,6.592043500000727,1,0,0,99,0.24,-0.24,up,6.5117994000011095,,,,,382.09256540000024,383.65035499999976,0.4,0.08,0.24,0.0,-0.04,0.4,0.4,0.4,0.08,375.83849089999967,375.83849089999967,375.83849089999967,375.83849089999967,375.83849089999967,375.83849089999967,375.83849089999967,375.83849089999967,375.83700593999816,6.374624300000505,return,6.23629660000006,,,,,,,,,,,,,,,,,,,,,,,,,,,,,,,,,0CV6D0,train_y,red_square,bottom_right,2025-03-07_17h02.53.284,HideSeek_v1,2022.2.5,59.849311403770145,
,5,1,5,5,0,4,12,,train_dim1_1,4,30,,,,2,0,2,0,,,,,,,,,0,0,0,0,0,3,3,3,1,0,1,0,,,,,,,,,,,,,,,,,,,,,,,,,,,,,,,,,,,,,,,,,,,,,,,,,,,,,,,,,,,,,,,,30,,,,,,,,390.2507721000002,390.2507721000002,390.2507721000002,390.2507721000002,390.2507721000002,up,2.477984099999958,1,0,0,99,0.24,-0.15999999999999998,up,2.3985321000000113,,,,,,,,,,,,,,,,,,,,,,,,,,,,,,,,,,,,,,,,,,,,,,,,,,,,,,,,,,,,0CV6D0,train_y,red_square,bottom_right,2025-03-07_17h02.53.284,HideSeek_v1,2022.2.5,59.849311403770145,
,5,1,5,5,0,4,12,,train_dim1_1,4,30,,,,2,0,2,0,,,,,,,,,0,0,0,0,0,3,3,3,2,0,2,0,,,,,,,,,,,,,,,,,,,,,,,,,,,,,,,,,,,,,,,,,,,,,,,,,,,,,,,,,,,,,,,,30,,,,,,,,392.7352482999995,392.7352482999995,392.7352482999995,392.7352482999995,392.7352482999995,return,1.944871100000455,1,0,0,0,0.24,-0.15999999999999998,return,1.8582545000008395,7,-3,0.24,-0.15999999999999998,,,,,,,,,,,,,,,,,,,,,,,,,,,,,,,,,,,,,,,,,,,,,,,,,,,,,,,,0CV6D0,train_y,red_square,bottom_right,2025-03-07_17h02.53.284,HideSeek_v1,2022.2.5,59.849311403770145,
,8,3,8,8,0,5,11,,train_dim1_1,5,30,,,,2,0,2,0,,,,,,,,,0,0,0,0,0,4,4,4,0,0,0,0,,,,,,,,,,,,,,,,,,,,,,,,,stimuli/alien_stimuli/11.png,,,,,,,,,,,,,,,,,,,,,,,,,,,,,stimuli/alien_stimuli/12.png,12,5,6,,,,,,,30,,,,,,,,404.1493663000001,404.1493663000001,404.1493663000001,404.1493663000001,404.1493663000001,up,4.007718599999862,1,0,0,99,0.48,-0.08,up,3.9313916000010067,,,,,402.5928375000003,404.1493663000001,0.24,0,0.32,0.0,-0.16,0.24,0.24,0.24,0,396.2551889999995,396.2551889999995,396.2551889999995,396.2551889999995,396.2551889999995,396.2551889999995,396.2551889999995,396.2551889999995,396.2540262399976,6.457670300000245,return,6.319736299999931,,,,,,,,,,,,,,,,,,,,,,,,,,,,,,,,,0CV6D0,train_y,red_square,bottom_right,2025-03-07_17h02.53.284,HideSeek_v1,2022.2.5,59.849311403770145,
,8,3,8,8,0,5,11,,train_dim1_1,5,30,,,,2,0,2,0,,,,,,,,,0,0,0,0,0,4,4,4,1,0,1,0,,,,,,,,,,,,,,,,,,,,,,,,,,,,,,,,,,,,,,,,,,,,,,,,,,,,,,,,,,,,,,,,30,,,,,,,,408.1642859000003,408.1642859000003,408.1642859000003,408.1642859000003,408.1642859000003,up,0.7098808999999164,1,0,0,99,0.48,0.0,up,0.6332011000013154,,,,,,,,,,,,,,,,,,,,,,,,,,,,,,,,,,,,,,,,,,,,,,,,,,,,,,,,,,,,0CV6D0,train_y,red_square,bottom_right,2025-03-07_17h02.53.284,HideSeek_v1,2022.2.5,59.849311403770145,
,8,3,8,8,0,5,11,,train_dim1_1,5,30,,,,2,0,2,0,,,,,,,,,0,0,0,0,0,4,4,4,2,0,2,0,,,,,,,,,,,,,,,,,,,,,,,,,,,,,,,,,,,,,,,,,,,,,,,,,,,,,,,,,,,,,,,,30,,,,,,,,408.8820049999995,408.8820049999995,408.8820049999995,408.8820049999995,408.8820049999995,up,0.7428593999993609,1,0,0,99,0.48,0.08,up,0.657963200001177,,,,,,,,,,,,,,,,,,,,,,,,,,,,,,,,,,,,,,,,,,,,,,,,,,,,,,,,,,,,0CV6D0,train_y,red_square,bottom_right,2025-03-07_17h02.53.284,HideSeek_v1,2022.2.5,59.849311403770145,
,8,3,8,8,0,5,11,,train_dim1_1,5,30,,,,2,0,2,0,,,,,,,,,0,0,0,0,0,4,4,4,3,0,3,0,,,,,,,,,,,,,,,,,,,,,,,,,,,,,,,,,,,,,,,,,,,,,,,,,,,,,,,,,,,,,,,,30,,,,,,,,409.6315835000005,409.6315835000005,409.6315835000005,409.6315835000005,409.6315835000005,up,6.014747699999134,1,0,0,99,0.48,0.16,up,5.923757700000351,,,,,,,,,,,,,,,,,,,,,,,,,,,,,,,,,,,,,,,,,,,,,,,,,,,,,,,,,,,,0CV6D0,train_y,red_square,bottom_right,2025-03-07_17h02.53.284,HideSeek_v1,2022.2.5,59.849311403770145,
,8,3,8,8,0,5,11,,train_dim1_1,5,30,,,,2,0,2,0,,,,,,,,,0,0,0,0,0,4,4,4,4,0,4,0,,,,,,,,,,,,,,,,,,,,,,,,,,,,,,,,,,,,,,,,,,,,,,,,,,,,,,,,,,,,,,,,30,,,,,,,,415.67502140000033,415.67502140000033,415.67502140000033,415.67502140000033,415.67502140000033,return,1.2933451000008063,1,1,0,0,0.48,0.16,return,1.1807714000005944,11,-3,0.48,0.16,,,,,,,,,,,,,,,,,,,,,,,,,,,,,,,,,,,,,,,,,,,,,,,,,,,,,,,,0CV6D0,train_y,red_square,bottom_right,2025-03-07_17h02.53.284,HideSeek_v1,2022.2.5,59.849311403770145,
,6,4,6,8,0,4,12,,train_dim1_1,6,30,,,,2,0,2,0,,,,,,,,,0,0,0,0,0,5,5,5,0,0,0,0,,,,,,,,,,,,,,,,,,,,,,,,,stimuli/alien_stimuli/12.png,,,,,,,,,,,,,,,,,,,,,,,,,,,,,stimuli/alien_stimuli/11.png,11,8,7,,,,,,,30,,,,,,,,450.22807309999916,450.22807309999916,450.22807309999916,450.22807309999916,450.22807309999916,left,9.274948800000857,1,1,0,99,0.24,-0.08,left,9.166874500000631,,,,,448.6478996000005,450.22807309999916,0.48,0.24,0.4,0.0,0.039999999999999994,0.48,0.48,0.48,0.24,418.52721080000083,418.52721080000083,418.52721080000083,418.52721080000083,418.52721080000083,418.52721080000083,418.52721080000083,418.52721080000083,418.52236273999875,30.244702899999538,return,30.097800700001244,,,,,,,,,,,,,,,,,,,,,,,,,,,,,,,,,0CV6D0,train_y,red_square,bottom_right,2025-03-07_17h02.53.284,HideSeek_v1,2022.2.5,59.849311403770145,
,6,4,6,8,0,4,12,,train_dim1_1,6,30,,,,2,0,2,0,,,,,,,,,0,0,0,0,0,5,5,5,1,0,1,0,,,,,,,,,,,,,,,,,,,,,,,,,,,,,,,,,,,,,,,,,,,,,,,,,,,,,,,,,,,,,,,,30,,,,,,,,459.5028722999996,459.5028722999996,459.5028722999996,459.5028722999996,459.5028722999996,left,0.5933487999991485,1,1,0,99,0.15999999999999998,-0.08,left,0.4929370999998355,,,,,,,,,,,,,,,,,,,,,,,,,,,,,,,,,,,,,,,,,,,,,,,,,,,,,,,,,,,,0CV6D0,train_y,red_square,bottom_right,2025-03-07_17h02.53.284,HideSeek_v1,2022.2.5,59.849311403770145,
,6,4,6,8,0,4,12,,train_dim1_1,6,30,,,,2,0,2,0,,,,,,,,,0,0,0,0,0,5,5,5,2,0,2,0,,,,,,,,,,,,,,,,,,,,,,,,,,,,,,,,,,,,,,,,,,,,,,,,,,,,,,,,,,,,,,,,30,,,,,,,,460.0914367000005,460.0914367000005,460.0914367000005,460.0914367000005,460.0914367000005,left,0.8102873000007094,1,1,0,99,0.07999999999999997,-0.08,left,0.7217930999995588,,,,,,,,,,,,,,,,,,,,,,,,,,,,,,,,,,,,,,,,,,,,,,,,,,,,,,,,,,,,0CV6D0,train_y,red_square,bottom_right,2025-03-07_17h02.53.284,HideSeek_v1,2022.2.5,59.849311403770145,
,6,4,6,8,0,4,12,,train_dim1_1,6,30,,,,2,0,2,0,,,,,,,,,0,0,0,0,0,5,5,5,3,0,3,0,,,,,,,,,,,,,,,,,,,,,,,,,,,,,,,,,,,,,,,,,,,,,,,,,,,,,,,,,,,,,,,,30,,,,,,,,460.90775199999916,460.90775199999916,460.90775199999916,460.90775199999916,460.90775199999916,left,1.8613287999996828,1,1,0,99,-2.7755575615628914e-17,-0.08,left,1.777486000000863,,,,,,,,,,,,,,,,,,,,,,,,,,,,,,,,,,,,,,,,,,,,,,,,,,,,,,,,,,,,0CV6D0,train_y,red_square,bottom_right,2025-03-07_17h02.53.284,HideSeek_v1,2022.2.5,59.849311403770145,
,6,4,6,8,0,4,12,,train_dim1_1,6,30,,,,2,0,2,0,,,,,,,,,0,0,0,0,0,5,5,5,4,0,4,0,,,,,,,,,,,,,,,,,,,,,,,,,,,,,,,,,,,,,,,,,,,,,,,,,,,,,,,,,,,,,,,,30,,,,,,,,462.7763178999994,462.7763178999994,462.7763178999994,462.7763178999994,462.7763178999994,left,1.0938664000004792,1,1,0,99,-0.08000000000000003,-0.08,left,1.0064352999997936,,,,,,,,,,,,,,,,,,,,,,,,,,,,,,,,,,,,,,,,,,,,,,,,,,,,,,,,,,,,0CV6D0,train_y,red_square,bottom_right,2025-03-07_17h02.53.284,HideSeek_v1,2022.2.5,59.849311403770145,
,6,4,6,8,0,4,12,,train_dim1_1,6,30,,,,2,0,2,0,,,,,,,,,0,0,0,0,0,5,5,5,5,0,5,0,,,,,,,,,,,,,,,,,,,,,,,,,,,,,,,,,,,,,,,,,,,,,,,,,,,,,,,,,,,,,,,,30,,,,,,,,463.87980210000023,463.87980210000023,463.87980210000023,463.87980210000023,463.87980210000023,return,0.726833999999144,1,0,0,0,-0.08000000000000003,-0.08,return,0.6465069000005315,11,-8,-0.08000000000000003,-0.08,,,,,,,,,,,,,,,,,,,,,,,,,,,,,,,,,,,,,,,,,,,,,,,,,,,,,,,,0CV6D0,train_y,red_square,bottom_right,2025-03-07_17h02.53.284,HideSeek_v1,2022.2.5,59.849311403770145,
,6,3,6,6,0,3,13,,train_dim1_1,7,30,,,,2,0,2,0,,,,,,,,,0,0,0,0,0,6,6,6,0,0,0,0,,,,,,,,,,,,,,,,,,,,,,,,,stimuli/alien_stimuli/13.png,,,,,,,,,,,,,,,,,,,,,,,,,,,,,stimuli/alien_stimuli/12.png,12,6,8,,,,,,,30,,,,,,,,470.7200365000008,470.7200365000008,470.7200365000008,470.7200365000008,470.7200365000008,up,6.210708700000396,1,0,0,99,0.32,-0.08,up,6.125782600000093,,,,,469.1648210000003,470.7200365000008,0.32,0.24,0.32,0.0,0.07999999999999999,0.32,0.32,0.32,0.24,466.1809391000006,466.1809391000006,466.1809391000006,466.1809391000006,466.1809391000006,466.1809391000006,466.1809391000006,466.1809391000006,466.17880903999827,3.1049086000002717,return,2.966630400000213,,,,,,,,,,,,,,,,,,,,,,,,,,,,,,,,,0CV6D0,train_y,red_square,bottom_right,2025-03-07_17h02.53.284,HideSeek_v1,2022.2.5,59.849311403770145,
,6,3,6,6,0,3,13,,train_dim1_1,7,30,,,,2,0,2,0,,,,,,,,,0,0,0,0,0,6,6,6,1,0,1,0,,,,,,,,,,,,,,,,,,,,,,,,,,,,,,,,,,,,,,,,,,,,,,,,,,,,,,,,,,,,,,,,30,,,,,,,,476.93867820000014,476.93867820000014,476.93867820000014,476.93867820000014,476.93867820000014,up,0.7098359000010532,1,0,0,99,0.32,0.0,up,0.6306956999997055,,,,,,,,,,,,,,,,,,,,,,,,,,,,,,,,,,,,,,,,,,,,,,,,,,,,,,,,,,,,0CV6D0,train_y,red_square,bottom_right,2025-03-07_17h02.53.284,HideSeek_v1,2022.2.5,59.849311403770145,
,6,3,6,6,0,3,13,,train_dim1_1,7,30,,,,2,0,2,0,,,,,,,,,0,0,0,0,0,6,6,6,2,0,2,0,,,,,,,,,,,,,,,,,,,,,,,,,,,,,,,,,,,,,,,,,,,,,,,,,,,,,,,,,,,,,,,,30,,,,,,,,477.6549051999991,477.6549051999991,477.6549051999991,477.6549051999991,477.6549051999991,up,3.429225599998972,1,0,0,99,0.32,0.08,up,3.337289099999907,,,,,,,,,,,,,,,,,,,,,,,,,,,,,,,,,,,,,,,,,,,,,,,,,,,,,,,,,,,,0CV6D0,train_y,red_square,bottom_right,2025-03-07_17h02.53.284,HideSeek_v1,2022.2.5,59.849311403770145,
,6,3,6,6,0,3,13,,train_dim1_1,7,30,,,,2,0,2,0,,,,,,,,,0,0,0,0,0,6,6,6,3,0,3,0,,,,,,,,,,,,,,,,,,,,,,,,,,,,,,,,,,,,,,,,,,,,,,,,,,,,,,,,,,,,,,,,30,,,,,,,,481.0913865000002,481.0913865000002,481.0913865000002,481.0913865000002,481.0913865000002,return,0.8101967000002332,2,0,0,1,0.32,0.08,return,0.7229126000001997,14,-8,0.32,0.08,,,,,,,,,,,,,,,,,,,,,,,,,,,,,,,,,,,,,,,,,,,,,,,,,,,,,,,,0CV6D0,train_y,red_square,bottom_right,2025-03-07_17h02.53.284,HideSeek_v1,2022.2.5,59.849311403770145,
,9,2,9,7,0,5,11,,train_dim1_1,8,30,,,,2,0,2,0,,,,,,,,,0,0,0,0,0,7,7,7,0,0,0,0,,,,,,,,,,,,,,,,,,,,,,,,,stimuli/alien_stimuli/11.png,,,,,,,,,,,,,,,,,,,,,,,,,,,,,stimuli/alien_stimuli/13.png,13,6,9,,,,,,,30,,,,,,,,487.9366200000004,487.9366200000004,487.9366200000004,487.9366200000004,487.9366200000004,up,6.509704900001452,2,0,0,99,0.56,-0.15999999999999998,up,6.43025089999901,,,,,486.3789558999997,487.9366200000004,0.32,0.08,0.24,0.0,-0.04,0.32,0.32,0.32,0.08,483.4757131999995,483.4757131999995,483.4757131999995,483.4757131999995,483.4757131999995,483.4757131999995,483.4757131999995,483.4757131999995,483.476297939998,3.0214427999999316,return,2.876178799999252,,,,,,,,,,,,,,,,,,,,,,,,,,,,,,,,,0CV6D0,train_y,red_square,bottom_right,2025-03-07_17h02.53.284,HideSeek_v1,2022.2.5,59.849311403770145,
,9,2,9,7,0,5,11,,train_dim1_1,8,30,,,,2,0,2,0,,,,,,,,,0,0,0,0,0,7,7,7,1,0,1,0,,,,,,,,,,,,,,,,,,,,,,,,,,,,,,,,,,,,,,,,,,,,,,,,,,,,,,,,,,,,,,,,30,,,,,,,,494.45343519999915,494.45343519999915,494.45343519999915,494.45343519999915,494.45343519999915,up,0.6259791000011319,2,0,0,99,0.56,-0.07999999999999997,up,0.5495382000008249,,,,,,,,,,,,,,,,,,,,,,,,,,,,,,,,,,,,,,,,,,,,,,,,,,,,,,,,,,,,0CV6D0,train_y,red_square,bottom_right,2025-03-07_17h02.53.284,HideSeek_v1,2022.2.5,59.849311403770145,
,9,2,9,7,0,5,11,,train_dim1_1,8,30,,,,2,0,2,0,,,,,,,,,0,0,0,0,0,7,7,7,2,0,2,0,,,,,,,,,,,,,,,,,,,,,,,,,,,,,,,,,,,,,,,,,,,,,,,,,,,,,,,,,,,,,,,,30,,,,,,,,495.0859137000007,495.0859137000007,495.0859137000007,495.0859137000007,495.0859137000007,up,0.6937820999992255,2,0,0,99,0.56,2.7755575615628914e-17,up,0.6092207999990933,,,,,,,,,,,,,,,,,,,,,,,,,,,,,,,,,,,,,,,,,,,,,,,,,,,,,,,,,,,,0CV6D0,train_y,red_square,bottom_right,2025-03-07_17h02.53.284,HideSeek_v1,2022.2.5,59.849311403770145,
,9,2,9,7,0,5,11,,train_dim1_1,8,30,,,,2,0,2,0,,,,,,,,,0,0,0,0,0,7,7,7,3,0,3,0,,,,,,,,,,,,,,,,,,,,,,,,,,,,,,,,,,,,,,,,,,,,,,,,,,,,,,,,,,,,,,,,30,,,,,,,,495.78625060000013,495.78625060000013,495.78625060000013,495.78625060000013,495.78625060000013,up,0.7433221000010235,2,0,0,99,0.56,0.08000000000000003,up,0.6535751999999775,,,,,,,,,,,,,,,,,,,,,,,,,,,,,,,,,,,,,,,,,,,,,,,,,,,,,,,,,,,,0CV6D0,train_y,red_square,bottom_right,2025-03-07_17h02.53.284,HideSeek_v1,2022.2.5,59.849311403770145,
,9,2,9,7,0,5,11,,train_dim1_1,8,30,,,,2,0,2,0,,,,,,,,,0,0,0,0,0,7,7,7,4,0,4,0,,,,,,,,,,,,,,,,,,,,,,,,,,,,,,,,,,,,,,,,,,,,,,,,,,,,,,,,,,,,,,,,30,,,,,,,,496.53712219999943,496.53712219999943,496.53712219999943,496.53712219999943,496.53712219999943,up,1.0773427000003721,2,0,0,99,0.56,0.16000000000000003,up,0.9933591999997589,,,,,,,,,,,,,,,,,,,,,,,,,,,,,,,,,,,,,,,,,,,,,,,,,,,,,,,,,,,,0CV6D0,train_y,red_square,bottom_right,2025-03-07_17h02.53.284,HideSeek_v1,2022.2.5,59.849311403770145,
,9,2,9,7,0,5,11,,train_dim1_1,8,30,,,,2,0,2,0,,,,,,,,,0,0,0,0,0,7,7,7,5,0,5,0,,,,,,,,,,,,,,,,,,,,,,,,,,,,,,,,,,,,,,,,,,,,,,,,,,,,,,,,,,,,,,,,30,,,,,,,,497.62256569999954,497.62256569999954,497.62256569999954,497.62256569999954,497.62256569999954,return,2.0442153999993025,3,0,0,1,0.56,0.16000000000000003,return,1.9639490000008664,19,-8,0.56,0.16000000000000003,,,,,,,,,,,,,,,,,,,,,,,,,,,,,,,,,,,,,,,,,,,,,,,,,,,,,,,,0CV6D0,train_y,red_square,bottom_right,2025-03-07_17h02.53.284,HideSeek_v1,2022.2.5,59.849311403770145,
,9,3,9,4,0,1,15,,train_dim1_1,9,30,,,,2,0,2,0,,,,,,,,,0,0,0,0,0,8,8,8,0,0,0,0,,,,,,,,,,,,,,,,,,,,,,,,,stimuli/alien_stimuli/15.png,,,,,,,,,,,,,,,,,,,,,,,,,,,,,stimuli/alien_stimuli/11.png,11,9,10,,,,,,,30,,,,,,,,505.6353192000006,505.6353192000006,505.6353192000006,505.6353192000006,505.6353192000006,return,1.955449499999304,3,1,0,0,0.56,-0.16,return,1.8746362999991106,19,-8,0.56,-0.16,504.0767147000006,505.6353192000006,0.56,0.16,0.4,0.0,-0.039999999999999994,0.56,0.56,0.56,0.16,501.2435616999992,501.2435616999992,501.2435616999992,501.2435616999992,501.2435616999992,501.2435616999992,501.2435616999992,501.2435616999992,501.24103963999875,2.954936499998439,return,2.8059969000005367,,,,,,,,,,,,,,,,,,,,,,,,,,,,,,,,,0CV6D0,train_y,red_square,bottom_right,2025-03-07_17h02.53.284,HideSeek_v1,2022.2.5,59.849311403770145,
,7,2,7,2,0,0,16,,train_dim1_1,10,30,,,,2,0,2,0,,,,,,,,,0,0,0,0,0,9,9,9,0,0,0,0,,,,,,,,,,,,,,,,,,,,,,,,,stimuli/alien_stimuli/16.png,,,,,,,,,,,,,,,,,,,,,,,,,,,,,stimuli/alien_stimuli/15.png,15,9,11,,,,,,,30,,,,,,,,521.4952983999992,521.4952983999992,521.4952983999992,521.4952983999992,521.4952983999992,return,2.272809899999629,4,0,0,1,0.4,-0.24,return,2.172976199999539,19,-8,0.4,-0.24,519.9234166999995,521.4952983999992,0.56,-0.08,0.08,0.0,-0.12,0.56,0.56,0.56,-0.08,509.1474010000002,509.1474010000002,509.1474010000002,509.1474010000002,509.1474010000002,509.1474010000002,509.1474010000002,509.1474010000002,509.1475584099993,10.87808270000096,return,10.743851600000198,,,,,,,,,,,,,,,,,,,,,,,,,,,,,,,,,0CV6D0,train_y,red_square,bottom_right,2025-03-07_17h02.53.284,HideSeek_v1,2022.2.5,59.849311403770145,
,9,1,9,2,0,1,15,,train_dim1_1,11,30,,,,2,0,2,0,,,,,,,,,0,0,0,0,0,10,10,10,0,0,0,0,,,,,,,,,,,,,,,,,,,,,,,,,stimuli/alien_stimuli/15.png,,,,,,,,,,,,,,,,,,,,,,,,,,,,,stimuli/alien_stimuli/16.png,16,7,12,,,,,,,30,,,,,,,,528.9703530000006,528.9703530000006,528.9703530000006,528.9703530000006,528.9703530000006,up,3.122844100000293,4,0,0,99,0.56,-0.24,up,3.0329695000000356,,,,,527.4128005999992,528.9703530000006,0.4,-0.24,0.0,0.0,-0.24,0.4,0.4,0.4,-0.24,525.3315359999997,525.3315359999997,525.3315359999997,525.3315359999997,525.3315359999997,525.3315359999997,525.3315359999997,525.3315359999997,525.327660239998,2.2040285999992193,return,2.0592766999998275,,,,,,,,,,,,,,,,,,,,,,,,,,,,,,,,,0CV6D0,train_y,red_square,bottom_right,2025-03-07_17h02.53.284,HideSeek_v1,2022.2.5,59.849311403770145,
,9,1,9,2,0,1,15,,train_dim1_1,11,30,,,,2,0,2,0,,,,,,,,,0,0,0,0,0,10,10,10,1,0,1,0,,,,,,,,,,,,,,,,,,,,,,,,,,,,,,,,,,,,,,,,,,,,,,,,,,,,,,,,,,,,,,,,30,,,,,,,,532.1014964000005,532.1014964000005,532.1014964000005,532.1014964000005,532.1014964000005,return,2.8454733999988093,5,0,0,1,0.56,-0.24,return,2.763622000000396,20,-8,0.56,-0.24,,,,,,,,,,,,,,,,,,,,,,,,,,,,,,,,,,,,,,,,,,,,,,,,,,,,,,,,0CV6D0,train_y,red_square,bottom_right,2025-03-07_17h02.53.284,HideSeek_v1,2022.2.5,59.849311403770145,
,5,0,5,5,0,5,11,,train_dim1_1,12,30,,,,2,0,2,0,,,,,,,,,0,0,0,0,0,11,11,11,0,0,0,0,,,,,,,,,,,,,,,,,,,,,,,,,stimuli/alien_stimuli/11.png,,,,,,,,,,,,,,,,,,,,,,,,,,,,,stimuli/alien_stimuli/15.png,15,9,13,,,,,,,30,,,,,,,,540.2613333999998,540.2613333999998,540.2613333999998,540.2613333999998,540.2613333999998,up,2.022997599999144,5,0,0,99,0.24,-0.32,up,1.9393166000008932,,,,,538.7055849999997,540.2613333999998,0.56,-0.24,0.08,0.0,-0.28,0.56,0.56,0.56,-0.24,536.5027639,536.5027639,536.5027639,536.5027639,536.5027639,536.5027639,536.5027639,536.5027639,536.5039983099982,2.303775399999722,return,2.1714244000013423,,,,,,,,,,,,,,,,,,,,,,,,,,,,,,,,,0CV6D0,train_y,red_square,bottom_right,2025-03-07_17h02.53.284,HideSeek_v1,2022.2.5,59.849311403770145,
,5,0,5,5,0,5,11,,train_dim1_1,12,30,,,,2,0,2,0,,,,,,,,,0,0,0,0,0,11,11,11,1,0,1,0,,,,,,,,,,,,,,,,,,,,,,,,,,,,,,,,,,,,,,,,,,,,,,,,,,,,,,,,,,,,,,,,30,,,,,,,,542.2916069000003,542.2916069000003,542.2916069000003,542.2916069000003,542.2916069000003,up,0.5762061000004906,5,0,0,99,0.24,-0.24,up,0.49138920000041253,,,,,,,,,,,,,,,,,,,,,,,,,,,,,,,,,,,,,,,,,,,,,,,,,,,,,,,,,,,,0CV6D0,train_y,red_square,bottom_right,2025-03-07_17h02.53.284,HideSeek_v1,2022.2.5,59.849311403770145,
,5,0,5,5,0,5,11,,train_dim1_1,12,30,,,,2,0,2,0,,,,,,,,,0,0,0,0,0,11,11,11,2,0,2,0,,,,,,,,,,,,,,,,,,,,,,,,,,,,,,,,,,,,,,,,,,,,,,,,,,,,,,,,,,,,,,,,30,,,,,,,,542.8773213000004,542.8773213000004,542.8773213000004,542.8773213000004,542.8773213000004,up,0.5767641000002186,5,0,0,99,0.24,-0.15999999999999998,up,0.499572700000499,,,,,,,,,,,,,,,,,,,,,,,,,,,,,,,,,,,,,,,,,,,,,,,,,,,,,,,,,,,,0CV6D0,train_y,red_square,bottom_right,2025-03-07_17h02.53.284,HideSeek_v1,2022.2.5,59.849311403770145,
,5,0,5,5,0,5,11,,train_dim1_1,12,30,,,,2,0,2,0,,,,,,,,,0,0,0,0,0,11,11,11,3,0,3,0,,,,,,,,,,,,,,,,,,,,,,,,,,,,,,,,,,,,,,,,,,,,,,,,,,,,,,,,,,,,,,,,30,,,,,,,,543.4595840999991,543.4595840999991,543.4595840999991,543.4595840999991,543.4595840999991,up,0.7604015999986586,5,0,0,99,0.24,-0.07999999999999997,up,0.6791601000004448,,,,,,,,,,,,,,,,,,,,,,,,,,,,,,,,,,,,,,,,,,,,,,,,,,,,,,,,,,,,0CV6D0,train_y,red_square,bottom_right,2025-03-07_17h02.53.284,HideSeek_v1,2022.2.5,59.849311403770145,
,5,0,5,5,0,5,11,,train_dim1_1,12,30,,,,2,0,2,0,,,,,,,,,0,0,0,0,0,11,11,11,4,0,4,0,,,,,,,,,,,,,,,,,,,,,,,,,,,,,,,,,,,,,,,,,,,,,,,,,,,,,,,,,,,,,,,,30,,,,,,,,544.2261295000008,544.2261295000008,544.2261295000008,544.2261295000008,544.2261295000008,up,1.0272125999999844,5,0,0,99,0.24,2.7755575615628914e-17,up,0.9383937999991758,,,,,,,,,,,,,,,,,,,,,,,,,,,,,,,,,,,,,,,,,,,,,,,,,,,,,,,,,,,,0CV6D0,train_y,red_square,bottom_right,2025-03-07_17h02.53.284,HideSeek_v1,2022.2.5,59.849311403770145,
,5,0,5,5,0,5,11,,train_dim1_1,12,30,,,,2,0,2,0,,,,,,,,,0,0,0,0,0,11,11,11,5,0,5,0,,,,,,,,,,,,,,,,,,,,,,,,,,,,,,,,,,,,,,,,,,,,,,,,,,,,,,,,,,,,,,,,30,,,,,,,,545.2613837000008,545.2613837000008,545.2613837000008,545.2613837000008,545.2613837000008,up,3.429215500000282,5,0,0,99,0.24,0.08000000000000003,up,3.3462380999990273,,,,,,,,,,,,,,,,,,,,,,,,,,,,,,,,,,,,,,,,,,,,,,,,,,,,,,,,,,,,0CV6D0,train_y,red_square,bottom_right,2025-03-07_17h02.53.284,HideSeek_v1,2022.2.5,59.849311403770145,
,5,0,5,5,0,5,11,,train_dim1_1,12,30,,,,2,0,2,0,,,,,,,,,0,0,0,0,0,11,11,11,6,0,6,0,,,,,,,,,,,,,,,,,,,,,,,,,,,,,,,,,,,,,,,,,,,,,,,,,,,,,,,,,,,,,,,,30,,,,,,,,548.6993337000004,548.6993337000004,548.6993337000004,548.6993337000004,548.6993337000004,return,0.4752520000001823,5,1,0,0,0.24,0.08000000000000003,return,0.39321599999857426,26,-8,0.24,0.08000000000000003,,,,,,,,,,,,,,,,,,,,,,,,,,,,,,,,,,,,,,,,,,,,,,,,,,,,,,,,0CV6D0,train_y,red_square,bottom_right,2025-03-07_17h02.53.284,HideSeek_v1,2022.2.5,59.849311403770145,
,9,3,9,7,0,4,12,,train_dim1_1,13,30,,,,2,0,2,0,,,,,,,,,0,0,0,0,0,12,12,12,0,0,0,0,,,,,,,,,,,,,,,,,,,,,,,,,stimuli/alien_stimuli/12.png,,,,,,,,,,,,,,,,,,,,,,,,,,,,,stimuli/alien_stimuli/11.png,11,5,14,,,,,,,30,,,,,,,,556.5439353999991,556.5439353999991,556.5439353999991,556.5439353999991,556.5439353999991,up,4.274581100000432,5,1,0,99,0.56,-0.08,up,4.1956564000010985,,,,,554.9859691999991,556.5439353999991,0.24,0,0.4,0.0,-0.2,0.24,0.24,0.24,0,550.7555303000008,550.7555303000008,550.7555303000008,550.7555303000008,550.7555303000008,550.7555303000008,550.7555303000008,550.7555303000008,550.7490790399985,4.355516900001021,return,4.203079000000798,,,,,,,,,,,,,,,,,,,,,,,,,,,,,,,,,0CV6D0,train_y,red_square,bottom_right,2025-03-07_17h02.53.284,HideSeek_v1,2022.2.5,59.849311403770145,
,9,3,9,7,0,4,12,,train_dim1_1,13,30,,,,2,0,2,0,,,,,,,,,0,0,0,0,0,12,12,12,1,0,1,0,,,,,,,,,,,,,,,,,,,,,,,,,,,,,,,,,,,,,,,,,,,,,,,,,,,,,,,,,,,,,,,,30,,,,,,,,560.8251304999994,560.8251304999994,560.8251304999994,560.8251304999994,560.8251304999994,up,0.6767528000000311,5,1,0,99,0.56,0.0,up,0.5858797000000777,,,,,,,,,,,,,,,,,,,,,,,,,,,,,,,,,,,,,,,,,,,,,,,,,,,,,,,,,,,,0CV6D0,train_y,red_square,bottom_right,2025-03-07_17h02.53.284,HideSeek_v1,2022.2.5,59.849311403770145,
,9,3,9,7,0,4,12,,train_dim1_1,13,30,,,,2,0,2,0,,,,,,,,,0,0,0,0,0,12,12,12,2,0,2,0,,,,,,,,,,,,,,,,,,,,,,,,,,,,,,,,,,,,,,,,,,,,,,,,,,,,,,,,,,,,,,,,30,,,,,,,,561.5079205999991,561.5079205999991,561.5079205999991,561.5079205999991,561.5079205999991,up,0.6265112999990379,5,1,0,99,0.56,0.08,up,0.5367361999997229,,,,,,,,,,,,,,,,,,,,,,,,,,,,,,,,,,,,,,,,,,,,,,,,,,,,,,,,,,,,0CV6D0,train_y,red_square,bottom_right,2025-03-07_17h02.53.284,HideSeek_v1,2022.2.5,59.849311403770145,
,9,3,9,7,0,4,12,,train_dim1_1,13,30,,,,2,0,2,0,,,,,,,,,0,0,0,0,0,12,12,12,3,0,3,0,,,,,,,,,,,,,,,,,,,,,,,,,,,,,,,,,,,,,,,,,,,,,,,,,,,,,,,,,,,,,,,,30,,,,,,,,562.141474,562.141474,562.141474,562.141474,562.141474,up,0.677066799999011,5,1,0,99,0.56,0.16,up,0.5862434999999095,,,,,,,,,,,,,,,,,,,,,,,,,,,,,,,,,,,,,,,,,,,,,,,,,,,,,,,,,,,,0CV6D0,train_y,red_square,bottom_right,2025-03-07_17h02.53.284,HideSeek_v1,2022.2.5,59.849311403770145,
,9,3,9,7,0,4,12,,train_dim1_1,13,30,,,,2,0,2,0,,,,,,,,,0,0,0,0,0,12,12,12,4,0,4,0,,,,,,,,,,,,,,,,,,,,,,,,,,,,,,,,,,,,,,,,,,,,,,,,,,,,,,,,,,,,,,,,30,,,,,,,,562.8255656000001,562.8255656000001,562.8255656000001,562.8255656000001,562.8255656000001,return,1.4775634999987233,6,0,0,1,0.56,0.16,return,1.3877700000011828,30,-8,0.56,0.16,,,,,,,,,,,,,,,,,,,,,,,,,,,,,,,,,,,,,,,,,,,,,,,,,,,,,,,,0CV6D0,train_y,red_square,bottom_right,2025-03-07_17h02.53.284,HideSeek_v1,2022.2.5,59.849311403770145,
,7,2,7,2,0,0,16,,train_dim1_1,14,30,,,,2,0,2,0,,,,,,,,,0,0,0,0,0,13,13,13,0,0,0,0,,,,,,,,,,,,,,,,,,,,,,,,,stimuli/alien_stimuli/16.png,,,,,,,,,,,,,,,,,,,,,,,,,,,,,stimuli/alien_stimuli/12.png,12,9,15,,,,,,,30,,,,,,,,570.0035508000001,570.0035508000001,570.0035508000001,570.0035508000001,570.0035508000001,return,2.9407754999992903,7,0,0,1,0.4,-0.24,return,2.8516178999998374,30,-8,0.4,-0.24,568.4468655000001,570.0035508000001,0.56,0.16,0.32,0.0,0.0,0.56,0.56,0.56,0.16,565.8783614000004,565.8783614000004,565.8783614000004,565.8783614000004,565.8783614000004,565.8783614000004,565.8783614000004,565.8783614000004,565.8779738399986,2.6880235000007815,return,2.5471262999999453,,,,,,,,,,,,,,,,,,,,,,,,,,,,,,,,,0CV6D0,train_y,red_square,bottom_right,2025-03-07_17h02.53.284,HideSeek_v1,2022.2.5,59.849311403770145,
,6,4,6,7,0,3,13,,train_dim1_1,15,30,,,,2,0,2,0,,,,,,,,,0,0,0,0,0,14,14,14,0,0,0,0,,,,,,,,,,,,,,,,,,,,,,,,,stimuli/alien_stimuli/13.png,,,,,,,,,,,,,,,,,,,,,,,,,,,,,stimuli/alien_stimuli/16.png,16,7,16,,,,,,,30,,,,,,,,579.0283024,579.0283024,579.0283024,579.0283024,579.0283024,up,2.8225589000012405,7,0,0,99,0.32,0.0,up,2.7393396999996185,,,,,577.4716578000007,579.0283024,0.4,-0.24,0.0,0.0,-0.24,0.4,0.4,0.4,-0.24,574.5201183999998,574.5201183999998,574.5201183999998,574.5201183999998,574.5201183999998,574.5201183999998,574.5201183999998,574.5201183999998,574.5186320399986,3.0718555000003107,return,2.9208330000001297,,,,,,,,,,,,,,,,,,,,,,,,,,,,,,,,,0CV6D0,train_y,red_square,bottom_right,2025-03-07_17h02.53.284,HideSeek_v1,2022.2.5,59.849311403770145,
,6,4,6,7,0,3,13,,train_dim1_1,15,30,,,,2,0,2,0,,,,,,,,,0,0,0,0,0,14,14,14,1,0,1,0,,,,,,,,,,,,,,,,,,,,,,,,,,,,,,,,,,,,,,,,,,,,,,,,,,,,,,,,,,,,,,,,30,,,,,,,,581.8576623999998,581.8576623999998,581.8576623999998,581.8576623999998,581.8576623999998,up,0.8765855000001466,7,0,0,99,0.32,0.08,up,0.8000492999999551,,,,,,,,,,,,,,,,,,,,,,,,,,,,,,,,,,,,,,,,,,,,,,,,,,,,,,,,,,,,0CV6D0,train_y,red_square,bottom_right,2025-03-07_17h02.53.284,HideSeek_v1,2022.2.5,59.849311403770145,
,6,4,6,7,0,3,13,,train_dim1_1,15,30,,,,2,0,2,0,,,,,,,,,0,0,0,0,0,14,14,14,2,0,2,0,,,,,,,,,,,,,,,,,,,,,,,,,,,,,,,,,,,,,,,,,,,,,,,,,,,,,,,,,,,,,,,,30,,,,,,,,582.7410201000002,582.7410201000002,582.7410201000002,582.7410201000002,582.7410201000002,up,0.7600814000015816,7,0,0,99,0.32,0.16,up,0.6815160000005562,,,,,,,,,,,,,,,,,,,,,,,,,,,,,,,,,,,,,,,,,,,,,,,,,,,,,,,,,,,,0CV6D0,train_y,red_square,bottom_right,2025-03-07_17h02.53.284,HideSeek_v1,2022.2.5,59.849311403770145,
,6,4,6,7,0,3,13,,train_dim1_1,15,30,,,,2,0,2,0,,,,,,,,,0,0,0,0,0,14,14,14,3,0,3,0,,,,,,,,,,,,,,,,,,,,,,,,,,,,,,,,,,,,,,,,,,,,,,,,,,,,,,,,,,,,,,,,30,,,,,,,,583.5088195000008,583.5088195000008,583.5088195000008,583.5088195000008,583.5088195000008,up,2.561916700000438,7,0,0,99,0.32,0.24,up,2.486584700000094,,,,,,,,,,,,,,,,,,,,,,,,,,,,,,,,,,,,,,,,,,,,,,,,,,,,,,,,,,,,0CV6D0,train_y,red_square,bottom_right,2025-03-07_17h02.53.284,HideSeek_v1,2022.2.5,59.849311403770145,
,6,4,6,7,0,3,13,,train_dim1_1,15,30,,,,2,0,2,0,,,,,,,,,0,0,0,0,0,14,14,14,4,0,4,0,,,,,,,,,,,,,,,,,,,,,,,,,,,,,,,,,,,,,,,,,,,,,,,,,,,,,,,,,,,,,,,,30,,,,,,,,586.0785660999991,586.0785660999991,586.0785660999991,586.0785660999991,586.0785660999991,return,0.8772240000016609,7,1,0,0,0.32,0.24,return,0.7985115999999834,34,-8,0.32,0.24,,,,,,,,,,,,,,,,,,,,,,,,,,,,,,,,,,,,,,,,,,,,,,,,,,,,,,,,0CV6D0,train_y,red_square,bottom_right,2025-03-07_17h02.53.284,HideSeek_v1,2022.2.5,59.849311403770145,
,9,0,9,1,0,1,15,,train_dim1_1,16,30,,,,2,0,2,0,,,,,,,,,0,0,0,0,0,15,15,15,0,0,0,0,,,,,,,,,,,,,,,,,,,,,,,,,stimuli/alien_stimuli/15.png,,,,,,,,,,,,,,,,,,,,,,,,,,,,,stimuli/alien_stimuli/13.png,13,6,17,,,,,,,30,,,,,,,,593.9761811000008,593.9761811000008,593.9761811000008,593.9761811000008,593.9761811000008,up,2.6719202999993286,7,1,0,99,0.56,-0.32,up,2.578371600000537,,,,,592.4166714999992,593.9761811000008,0.32,0.16,0.24,0.0,0.04,0.32,0.32,0.32,0.16,588.5298578999991,588.5298578999991,588.5298578999991,588.5298578999991,588.5298578999991,588.5298578999991,588.5298578999991,588.5298578999991,588.5299517399977,4.005570100000114,return,3.864521200001036,,,,,,,,,,,,,,,,,,,,,,,,,,,,,,,,,0CV6D0,train_y,red_square,bottom_right,2025-03-07_17h02.53.284,HideSeek_v1,2022.2.5,59.849311403770145,
,9,0,9,1,0,1,15,,train_dim1_1,16,30,,,,2,0,2,0,,,,,,,,,0,0,0,0,0,15,15,15,1,0,1,0,,,,,,,,,,,,,,,,,,,,,,,,,,,,,,,,,,,,,,,,,,,,,,,,,,,,,,,,,,,,,,,,30,,,,,,,,596.6556194000004,596.6556194000004,596.6556194000004,596.6556194000004,596.6556194000004,return,0.8931876999995438,8,0,0,1,0.56,-0.32,return,0.813881100000799,35,-8,0.56,-0.32,,,,,,,,,,,,,,,,,,,,,,,,,,,,,,,,,,,,,,,,,,,,,,,,,,,,,,,,0CV6D0,train_y,red_square,bottom_right,2025-03-07_17h02.53.284,HideSeek_v1,2022.2.5,59.849311403770145,
,8,3,8,6,0,3,13,,train_dim1_1,17,30,,,,2,0,2,0,,,,,,,,,0,0,0,0,0,16,16,16,0,0,0,0,,,,,,,,,,,,,,,,,,,,,,,,,stimuli/alien_stimuli/13.png,,,,,,,,,,,,,,,,,,,,,,,,,,,,,stimuli/alien_stimuli/15.png,15,9,18,,,,,,,30,,,,,,,,603.7342778000002,603.7342778000002,603.7342778000002,603.7342778000002,603.7342778000002,up,2.7371881999988545,8,0,0,99,0.48,-0.08,up,2.6569764999985637,,,,,602.1750004000005,603.7342778000002,0.56,-0.32,0.08,0.0,-0.36,0.56,0.56,0.56,-0.32,599.1239449999994,599.1239449999994,599.1239449999994,599.1239449999994,599.1239449999994,599.1239449999994,599.1239449999994,599.1239449999994,599.1224567399983,3.1712621999995463,return,3.019189099999494,,,,,,,,,,,,,,,,,,,,,,,,,,,,,,,,,0CV6D0,train_y,red_square,bottom_right,2025-03-07_17h02.53.284,HideSeek_v1,2022.2.5,59.849311403770145,
,8,3,8,6,0,3,13,,train_dim1_1,17,30,,,,2,0,2,0,,,,,,,,,0,0,0,0,0,16,16,16,1,0,1,0,,,,,,,,,,,,,,,,,,,,,,,,,,,,,,,,,,,,,,,,,,,,,,,,,,,,,,,,,,,,,,,,30,,,,,,,,606.4781366000007,606.4781366000007,606.4781366000007,606.4781366000007,606.4781366000007,up,0.7098752000001696,8,0,0,99,0.48,0.0,up,0.6291305000013381,,,,,,,,,,,,,,,,,,,,,,,,,,,,,,,,,,,,,,,,,,,,,,,,,,,,,,,,,,,,0CV6D0,train_y,red_square,bottom_right,2025-03-07_17h02.53.284,HideSeek_v1,2022.2.5,59.849311403770145,
,8,3,8,6,0,3,13,,train_dim1_1,17,30,,,,2,0,2,0,,,,,,,,,0,0,0,0,0,16,16,16,2,0,2,0,,,,,,,,,,,,,,,,,,,,,,,,,,,,,,,,,,,,,,,,,,,,,,,,,,,,,,,,,,,,,,,,30,,,,,,,,607.1945341999999,607.1945341999999,607.1945341999999,607.1945341999999,607.1945341999999,up,0.7437340999986191,8,0,0,99,0.48,0.08,up,0.6646684999996069,,,,,,,,,,,,,,,,,,,,,,,,,,,,,,,,,,,,,,,,,,,,,,,,,,,,,,,,,,,,0CV6D0,train_y,red_square,bottom_right,2025-03-07_17h02.53.284,HideSeek_v1,2022.2.5,59.849311403770145,
,8,3,8,6,0,3,13,,train_dim1_1,17,30,,,,2,0,2,0,,,,,,,,,0,0,0,0,0,16,16,16,3,0,3,0,,,,,,,,,,,,,,,,,,,,,,,,,,,,,,,,,,,,,,,,,,,,,,,,,,,,,,,,,,,,,,,,30,,,,,,,,607.9467021,607.9467021,607.9467021,607.9467021,607.9467021,up,0.7431512999992265,8,0,0,99,0.48,0.16,up,0.6623422999982722,,,,,,,,,,,,,,,,,,,,,,,,,,,,,,,,,,,,,,,,,,,,,,,,,,,,,,,,,,,,0CV6D0,train_y,red_square,bottom_right,2025-03-07_17h02.53.284,HideSeek_v1,2022.2.5,59.849311403770145,
,8,3,8,6,0,3,13,,train_dim1_1,17,30,,,,2,0,2,0,,,,,,,,,0,0,0,0,0,16,16,16,4,0,4,0,,,,,,,,,,,,,,,,,,,,,,,,,,,,,,,,,,,,,,,,,,,,,,,,,,,,,,,,,,,,,,,,30,,,,,,,,608.6961979000007,608.6961979000007,608.6961979000007,608.6961979000007,608.6961979000007,return,1.644117499999993,8,1,0,0,0.48,0.16,return,1.5650569000008545,39,-8,0.48,0.16,,,,,,,,,,,,,,,,,,,,,,,,,,,,,,,,,,,,,,,,,,,,,,,,,,,,,,,,0CV6D0,train_y,red_square,bottom_right,2025-03-07_17h02.53.284,HideSeek_v1,2022.2.5,59.849311403770145,
,7,1,7,6,0,5,11,,train_dim1_1,18,30,,,,2,0,2,0,,,,,,,,,0,0,0,0,0,17,17,17,0,0,0,0,,,,,,,,,,,,,,,,,,,,,,,,,stimuli/alien_stimuli/11.png,,,,,,,,,,,,,,,,,,,,,,,,,,,,,stimuli/alien_stimuli/13.png,13,8,19,,,,,,,30,,,,,,,,616.5647128,616.5647128,616.5647128,616.5647128,616.5647128,up,3.718829299999925,8,1,0,99,0.4,-0.24,up,3.6349004000003333,,,,,615.0022036999999,616.5647128,0.48,0.08,0.24,0.0,-0.04,0.48,0.48,0.48,0.08,611.9112798000006,611.9112798000006,611.9112798000006,611.9112798000006,611.9112798000006,611.9112798000006,611.9112798000006,611.9112798000006,611.8993546099996,3.2051456999997754,return,3.0625715000005584,,,,,,,,,,,,,,,,,,,,,,,,,,,,,,,,,0CV6D0,train_y,red_square,bottom_right,2025-03-07_17h02.53.284,HideSeek_v1,2022.2.5,59.849311403770145,
,7,1,7,6,0,5,11,,train_dim1_1,18,30,,,,2,0,2,0,,,,,,,,,0,0,0,0,0,17,17,17,1,0,1,0,,,,,,,,,,,,,,,,,,,,,,,,,,,,,,,,,,,,,,,,,,,,,,,,,,,,,,,,,,,,,,,,30,,,,,,,,620.2898662000007,620.2898662000007,620.2898662000007,620.2898662000007,620.2898662000007,up,0.6097656000001734,8,1,0,99,0.4,-0.15999999999999998,up,0.5335785999996006,,,,,,,,,,,,,,,,,,,,,,,,,,,,,,,,,,,,,,,,,,,,,,,,,,,,,,,,,,,,0CV6D0,train_y,red_square,bottom_right,2025-03-07_17h02.53.284,HideSeek_v1,2022.2.5,59.849311403770145,
,7,1,7,6,0,5,11,,train_dim1_1,18,30,,,,2,0,2,0,,,,,,,,,0,0,0,0,0,17,17,17,2,0,2,0,,,,,,,,,,,,,,,,,,,,,,,,,,,,,,,,,,,,,,,,,,,,,,,,,,,,,,,,,,,,,,,,30,,,,,,,,620.9066247999999,620.9066247999999,620.9066247999999,620.9066247999999,620.9066247999999,up,0.7774668000001839,8,1,0,99,0.4,-0.07999999999999997,up,0.6992866000000504,,,,,,,,,,,,,,,,,,,,,,,,,,,,,,,,,,,,,,,,,,,,,,,,,,,,,,,,,,,,0CV6D0,train_y,red_square,bottom_right,2025-03-07_17h02.53.284,HideSeek_v1,2022.2.5,59.849311403770145,
,7,1,7,6,0,5,11,,train_dim1_1,18,30,,,,2,0,2,0,,,,,,,,,0,0,0,0,0,17,17,17,3,0,3,0,,,,,,,,,,,,,,,,,,,,,,,,,,,,,,,,,,,,,,,,,,,,,,,,,,,,,,,,,,,,,,,,30,,,,,,,,621.6913081999992,621.6913081999992,621.6913081999992,621.6913081999992,621.6913081999992,up,0.6770703999991383,8,1,0,99,0.4,2.7755575615628914e-17,up,0.5874984999991284,,,,,,,,,,,,,,,,,,,,,,,,,,,,,,,,,,,,,,,,,,,,,,,,,,,,,,,,,,,,0CV6D0,train_y,red_square,bottom_right,2025-03-07_17h02.53.284,HideSeek_v1,2022.2.5,59.849311403770145,
,7,1,7,6,0,5,11,,train_dim1_1,18,30,,,,2,0,2,0,,,,,,,,,0,0,0,0,0,17,17,17,4,0,4,0,,,,,,,,,,,,,,,,,,,,,,,,,,,,,,,,,,,,,,,,,,,,,,,,,,,,,,,,,,,,,,,,30,,,,,,,,622.3750323000004,622.3750323000004,622.3750323000004,622.3750323000004,622.3750323000004,up,0.8102376999995613,8,1,0,99,0.4,0.08000000000000003,up,0.7228608999994321,,,,,,,,,,,,,,,,,,,,,,,,,,,,,,,,,,,,,,,,,,,,,,,,,,,,,,,,,,,,0CV6D0,train_y,red_square,bottom_right,2025-03-07_17h02.53.284,HideSeek_v1,2022.2.5,59.849311403770145,
,7,1,7,6,0,5,11,,train_dim1_1,18,30,,,,2,0,2,0,,,,,,,,,0,0,0,0,0,17,17,17,5,0,5,0,,,,,,,,,,,,,,,,,,,,,,,,,,,,,,,,,,,,,,,,,,,,,,,,,,,,,,,,,,,,,,,,30,,,,,,,,623.1928638999998,623.1928638999998,623.1928638999998,623.1928638999998,623.1928638999998,up,1.2605285000008735,8,1,0,99,0.4,0.16000000000000003,up,1.1766592000003584,,,,,,,,,,,,,,,,,,,,,,,,,,,,,,,,,,,,,,,,,,,,,,,,,,,,,,,,,,,,0CV6D0,train_y,red_square,bottom_right,2025-03-07_17h02.53.284,HideSeek_v1,2022.2.5,59.849311403770145,
,7,1,7,6,0,5,11,,train_dim1_1,18,30,,,,2,0,2,0,,,,,,,,,0,0,0,0,0,17,17,17,6,0,6,0,,,,,,,,,,,,,,,,,,,,,,,,,,,,,,,,,,,,,,,,,,,,,,,,,,,,,,,,,,,,,,,,30,,,,,,,,624.4611351000003,624.4611351000003,624.4611351000003,624.4611351000003,624.4611351000003,return,1.5441453000003094,8,1,0,0,0.4,0.16000000000000003,return,1.46643849999964,45,-8,0.4,0.16000000000000003,,,,,,,,,,,,,,,,,,,,,,,,,,,,,,,,,,,,,,,,,,,,,,,,,,,,,,,,0CV6D0,train_y,red_square,bottom_right,2025-03-07_17h02.53.284,HideSeek_v1,2022.2.5,59.849311403770145,
,5,4,5,8,0,4,12,,train_dim1_1,19,30,,,,2,0,2,0,,,,,,,,,0,0,0,0,0,18,18,18,0,0,0,0,,,,,,,,,,,,,,,,,,,,,,,,,stimuli/alien_stimuli/12.png,,,,,,,,,,,,,,,,,,,,,,,,,,,,,stimuli/alien_stimuli/11.png,11,7,20,,,,,,,30,,,,,,,,632.8409940000001,632.8409940000001,632.8409940000001,632.8409940000001,632.8409940000001,up,3.372955799999545,8,1,0,99,0.24,0.0,up,3.2841917000005196,,,,,631.2823062000007,632.8409940000001,0.4,0.08,0.4,0.0,-0.12,0.4,0.4,0.4,0.08,627.577939499999,627.577939499999,627.577939499999,627.577939499999,627.577939499999,627.577939499999,627.577939499999,627.577939499999,627.5794217399977,3.821913300000233,return,3.685627900000327,,,,,,,,,,,,,,,,,,,,,,,,,,,,,,,,,0CV6D0,train_y,red_square,bottom_right,2025-03-07_17h02.53.284,HideSeek_v1,2022.2.5,59.849311403770145,
,5,4,5,8,0,4,12,,train_dim1_1,19,30,,,,2,0,2,0,,,,,,,,,0,0,0,0,0,18,18,18,1,0,1,0,,,,,,,,,,,,,,,,,,,,,,,,,,,,,,,,,,,,,,,,,,,,,,,,,,,,,,,,,,,,,,,,30,,,,,,,,636.2201535000004,636.2201535000004,636.2201535000004,636.2201535000004,636.2201535000004,up,0.6932168000003003,8,1,0,99,0.24,0.08,up,0.6013335000006919,,,,,,,,,,,,,,,,,,,,,,,,,,,,,,,,,,,,,,,,,,,,,,,,,,,,,,,,,,,,0CV6D0,train_y,red_square,bottom_right,2025-03-07_17h02.53.284,HideSeek_v1,2022.2.5,59.849311403770145,
,5,4,5,8,0,4,12,,train_dim1_1,19,30,,,,2,0,2,0,,,,,,,,,0,0,0,0,0,18,18,18,2,0,2,0,,,,,,,,,,,,,,,,,,,,,,,,,,,,,,,,,,,,,,,,,,,,,,,,,,,,,,,,,,,,,,,,30,,,,,,,,636.9213247000007,636.9213247000007,636.9213247000007,636.9213247000007,636.9213247000007,up,0.9104475999993156,8,1,0,99,0.24,0.16,up,0.8185932000014873,,,,,,,,,,,,,,,,,,,,,,,,,,,,,,,,,,,,,,,,,,,,,,,,,,,,,,,,,,,,0CV6D0,train_y,red_square,bottom_right,2025-03-07_17h02.53.284,HideSeek_v1,2022.2.5,59.849311403770145,
,5,4,5,8,0,4,12,,train_dim1_1,19,30,,,,2,0,2,0,,,,,,,,,0,0,0,0,0,18,18,18,3,0,3,0,,,,,,,,,,,,,,,,,,,,,,,,,,,,,,,,,,,,,,,,,,,,,,,,,,,,,,,,,,,,,,,,30,,,,,,,,637.8377225000004,637.8377225000004,637.8377225000004,637.8377225000004,637.8377225000004,up,0.7768995999995241,8,1,0,99,0.24,0.24,up,0.6918673000000126,,,,,,,,,,,,,,,,,,,,,,,,,,,,,,,,,,,,,,,,,,,,,,,,,,,,,,,,,,,,0CV6D0,train_y,red_square,bottom_right,2025-03-07_17h02.53.284,HideSeek_v1,2022.2.5,59.849311403770145,
,5,4,5,8,0,4,12,,train_dim1_1,19,30,,,,2,0,2,0,,,,,,,,,0,0,0,0,0,18,18,18,4,0,4,0,,,,,,,,,,,,,,,,,,,,,,,,,,,,,,,,,,,,,,,,,,,,,,,,,,,,,,,,,,,,,,,,30,,,,,,,,638.6216015999998,638.6216015999998,638.6216015999998,638.6216015999998,638.6216015999998,up,0.5434041999997135,8,1,0,99,0.24,0.32,up,0.4597604999999021,,,,,,,,,,,,,,,,,,,,,,,,,,,,,,,,,,,,,,,,,,,,,,,,,,,,,,,,,,,,0CV6D0,train_y,red_square,bottom_right,2025-03-07_17h02.53.284,HideSeek_v1,2022.2.5,59.849311403770145,
,5,4,5,8,0,4,12,,train_dim1_1,19,30,,,,2,0,2,0,,,,,,,,,0,0,0,0,0,18,18,18,5,0,5,0,,,,,,,,,,,,,,,,,,,,,,,,,,,,,,,,,,,,,,,,,,,,,,,,,,,,,,,,,,,,,,,,30,,,,,,,,639.1751977999993,639.1751977999993,639.1751977999993,639.1751977999993,639.1751977999993,return,0.6769230999998399,8,1,0,0,0.24,0.32,return,0.5900224999986676,50,-8,0.24,0.32,,,,,,,,,,,,,,,,,,,,,,,,,,,,,,,,,,,,,,,,,,,,,,,,,,,,,,,,0CV6D0,train_y,red_square,bottom_right,2025-03-07_17h02.53.284,HideSeek_v1,2022.2.5,59.849311403770145,
,7,0,7,0,0,0,16,,train_dim1_1,20,30,,,,2,0,2,0,,,,,,,,,0,0,0,0,0,19,19,19,0,0,0,0,,,,,,,,,,,,,,,,,,,,,,,,,stimuli/alien_stimuli/16.png,,,,,,,,,,,,,,,,,,,,,,,,,,,,,stimuli/alien_stimuli/12.png,12,5,21,,,,,,,30,,,,,,,,646.0177365,646.0177365,646.0177365,646.0177365,646.0177365,return,3.8070009000002756,9,0,0,1,0.4,-0.4,return,3.72474819999843,50,-8,0.4,-0.4,644.4598745999992,646.0177365,0.24,0.24,0.32,0.0,0.07999999999999999,0.24,0.24,0.24,0.24,641.4219417000004,641.4219417000004,641.4219417000004,641.4219417000004,641.4219417000004,641.4219417000004,641.4219417000004,641.4219417000004,641.423866839999,3.1553122000004805,return,3.020645399999921,,,,,,,,,,,,,,,,,,,,,,,,,,,,,,,,,0CV6D0,train_y,red_square,bottom_right,2025-03-07_17h02.53.284,HideSeek_v1,2022.2.5,59.849311403770145,
,7,4,7,5,0,1,15,,train_dim1_1,21,30,,,,2,0,2,0,,,,,,,,,0,0,0,0,0,20,20,20,0,0,0,0,,,,,,,,,,,,,,,,,,,,,,,,,stimuli/alien_stimuli/15.png,,,,,,,,,,,,,,,,,,,,,,,,,,,,,stimuli/alien_stimuli/16.png,16,7,22,,,,,,,30,,,,,,,,656.6100697999991,656.6100697999991,656.6100697999991,656.6100697999991,656.6100697999991,up,1.9215777999997954,9,0,0,99,0.4,0.0,up,1.8377561000015703,,,,,655.0521678000005,656.6100697999991,0.4,-0.4,0.0,0.0,-0.4,0.4,0.4,0.4,-0.4,651.3794417000008,651.3794417000008,651.3794417000008,651.3794417000008,651.3794417000008,651.3794417000008,651.3794417000008,651.3794417000008,651.3661381799986,3.771160200001759,return,3.645470999999816,,,,,,,,,,,,,,,,,,,,,,,,,,,,,,,,,0CV6D0,train_y,red_square,bottom_right,2025-03-07_17h02.53.284,HideSeek_v1,2022.2.5,59.849311403770145,
,7,4,7,5,0,1,15,,train_dim1_1,21,30,,,,2,0,2,0,,,,,,,,,0,0,0,0,0,20,20,20,1,0,1,0,,,,,,,,,,,,,,,,,,,,,,,,,,,,,,,,,,,,,,,,,,,,,,,,,,,,,,,,,,,,,,,,30,,,,,,,,658.5393194000007,658.5393194000007,658.5393194000007,658.5393194000007,658.5393194000007,return,1.0093966000004002,10,0,0,1,0.4,0.0,return,0.9172620999997889,51,-8,0.4,0.0,,,,,,,,,,,,,,,,,,,,,,,,,,,,,,,,,,,,,,,,,,,,,,,,,,,,,,,,0CV6D0,train_y,red_square,bottom_right,2025-03-07_17h02.53.284,HideSeek_v1,2022.2.5,59.849311403770145,
,5,2,5,5,0,3,13,,train_dim1_1,22,30,,,,2,0,2,0,,,,,,,,,0,0,0,0,0,21,21,21,0,0,0,0,,,,,,,,,,,,,,,,,,,,,,,,,stimuli/alien_stimuli/13.png,,,,,,,,,,,,,,,,,,,,,,,,,,,,,stimuli/alien_stimuli/15.png,15,7,23,,,,,,,30,,,,,,,,664.9811355999991,664.9811355999991,664.9811355999991,664.9811355999991,664.9811355999991,up,1.8062984000007418,10,0,0,99,0.24,-0.15999999999999998,up,1.72571760000028,,,,,663.4255522999993,664.9811355999991,0.4,0,0.08,0.0,-0.04,0.4,0.4,0.4,0,661.1055844000002,661.1055844000002,661.1055844000002,661.1055844000002,661.1055844000002,661.1055844000002,661.1055844000002,661.1055844000002,661.1070403099989,2.420949400000609,return,2.298401300000478,,,,,,,,,,,,,,,,,,,,,,,,,,,,,,,,,0CV6D0,train_y,red_square,bottom_right,2025-03-07_17h02.53.284,HideSeek_v1,2022.2.5,59.849311403770145,
,5,2,5,5,0,3,13,,train_dim1_1,22,30,,,,2,0,2,0,,,,,,,,,0,0,0,0,0,21,21,21,1,0,1,0,,,,,,,,,,,,,,,,,,,,,,,,,,,,,,,,,,,,,,,,,,,,,,,,,,,,,,,,,,,,,,,,30,,,,,,,,666.7945498000008,666.7945498000008,666.7945498000008,666.7945498000008,666.7945498000008,up,0.6099708000001556,10,0,0,99,0.24,-0.07999999999999997,up,0.5259094000011828,,,,,,,,,,,,,,,,,,,,,,,,,,,,,,,,,,,,,,,,,,,,,,,,,,,,,,,,,,,,0CV6D0,train_y,red_square,bottom_right,2025-03-07_17h02.53.284,HideSeek_v1,2022.2.5,59.849311403770145,
,5,2,5,5,0,3,13,,train_dim1_1,22,30,,,,2,0,2,0,,,,,,,,,0,0,0,0,0,21,21,21,2,0,2,0,,,,,,,,,,,,,,,,,,,,,,,,,,,,,,,,,,,,,,,,,,,,,,,,,,,,,,,,,,,,,,,,30,,,,,,,,667.4120961000008,667.4120961000008,667.4120961000008,667.4120961000008,667.4120961000008,up,0.6102276000001439,10,0,0,99,0.24,2.7755575615628914e-17,up,0.5187504999994417,,,,,,,,,,,,,,,,,,,,,,,,,,,,,,,,,,,,,,,,,,,,,,,,,,,,,,,,,,,,0CV6D0,train_y,red_square,bottom_right,2025-03-07_17h02.53.284,HideSeek_v1,2022.2.5,59.849311403770145,
,5,2,5,5,0,3,13,,train_dim1_1,22,30,,,,2,0,2,0,,,,,,,,,0,0,0,0,0,21,21,21,3,0,3,0,,,,,,,,,,,,,,,,,,,,,,,,,,,,,,,,,,,,,,,,,,,,,,,,,,,,,,,,,,,,,,,,30,,,,,,,,668.0294271999992,668.0294271999992,668.0294271999992,668.0294271999992,668.0294271999992,up,1.027192899999136,10,0,0,99,0.24,0.08000000000000003,up,0.9412654999996448,,,,,,,,,,,,,,,,,,,,,,,,,,,,,,,,,,,,,,,,,,,,,,,,,,,,,,,,,,,,0CV6D0,train_y,red_square,bottom_right,2025-03-07_17h02.53.284,HideSeek_v1,2022.2.5,59.849311403770145,
,5,2,5,5,0,3,13,,train_dim1_1,22,30,,,,2,0,2,0,,,,,,,,,0,0,0,0,0,21,21,21,4,0,4,0,,,,,,,,,,,,,,,,,,,,,,,,,,,,,,,,,,,,,,,,,,,,,,,,,,,,,,,,,,,,,,,,30,,,,,,,,669.0635019999991,669.0635019999991,669.0635019999991,669.0635019999991,669.0635019999991,up,1.0104632000002312,10,0,0,99,0.24,0.16000000000000003,up,0.9225003000010474,,,,,,,,,,,,,,,,,,,,,,,,,,,,,,,,,,,,,,,,,,,,,,,,,,,,,,,,,,,,0CV6D0,train_y,red_square,bottom_right,2025-03-07_17h02.53.284,HideSeek_v1,2022.2.5,59.849311403770145,
,5,2,5,5,0,3,13,,train_dim1_1,22,30,,,,2,0,2,0,,,,,,,,,0,0,0,0,0,21,21,21,5,0,5,0,,,,,,,,,,,,,,,,,,,,,,,,,,,,,,,,,,,,,,,,,,,,,,,,,,,,,,,,,,,,,,,,30,,,,,,,,670.0809121999991,670.0809121999991,670.0809121999991,670.0809121999991,670.0809121999991,return,5.78077680000024,10,0,0,0,0.24,0.16000000000000003,return,5.691601399999854,56,-8,0.24,0.16000000000000003,,,,,,,,,,,,,,,,,,,,,,,,,,,,,,,,,,,,,,,,,,,,,,,,,,,,,,,,0CV6D0,train_y,red_square,bottom_right,2025-03-07_17h02.53.284,HideSeek_v1,2022.2.5,59.849311403770145,
,5,3,5,8,0,5,11,,train_dim1_1,23,30,,,,2,0,2,0,,,,,,,,,0,0,0,0,0,22,22,22,0,0,0,0,,,,,,,,,,,,,,,,,,,,,,,,,stimuli/alien_stimuli/11.png,,,,,,,,,,,,,,,,,,,,,,,,,,,,,stimuli/alien_stimuli/13.png,13,5,24,,,,,,,30,,,,,,,,681.4608196000008,681.4608196000008,681.4608196000008,681.4608196000008,681.4608196000008,return,4.54343340000014,10,0,0,0,0.24,-0.16,return,4.45350580000013,56,-8,0.24,-0.16,679.9060133000003,681.4608196000008,0.24,0,0.24,0.0,-0.12,0.24,0.24,0.24,0,677.4364248000002,677.4364248000002,677.4364248000002,677.4364248000002,677.4364248000002,677.4364248000002,677.4364248000002,677.4364248000002,677.4369685399994,2.5877003999994486,return,2.4444824999991397,,,,,,,,,,,,,,,,,,,,,,,,,,,,,,,,,0CV6D0,train_y,red_square,bottom_right,2025-03-07_17h02.53.284,HideSeek_v1,2022.2.5,59.849311403770145,
,8,2,8,2,0,0,16,,train_dim1_1,24,30,,,,2,0,2,0,,,,,,,,,0,0,0,0,0,23,23,23,0,0,0,0,,,,,,,,,,,,,,,,,,,,,,,,,stimuli/alien_stimuli/16.png,,,,,,,,,,,,,,,,,,,,,,,,,,,,,stimuli/alien_stimuli/11.png,11,5,25,,,,,,,30,,,,,,,,693.1071166000002,693.1071166000002,693.1071166000002,693.1071166000002,693.1071166000002,return,1.9387170000009064,11,0,0,1,0.48,-0.24,return,1.8531982000004064,56,-8,0.48,-0.24,691.5491249000006,693.1071166000002,0.24,0.24,0.4,0.0,0.039999999999999994,0.24,0.24,0.24,0.24,687.5783964999991,687.5783964999991,687.5783964999991,687.5783964999991,687.5783964999991,687.5783964999991,687.5783964999991,687.5783964999991,687.5791858399986,4.0889790000001085,return,3.9537878000010096,,,,,,,,,,,,,,,,,,,,,,,,,,,,,,,,,0CV6D0,train_y,red_square,bottom_right,2025-03-07_17h02.53.284,HideSeek_v1,2022.2.5,59.849311403770145,
,8,3,8,7,0,4,12,,train_dim1_1,25,30,,,,2,0,2,0,,,,,,,,,0,0,0,0,0,24,24,24,0,0,0,0,,,,,,,,,,,,,,,,,,,,,,,,,stimuli/alien_stimuli/12.png,,,,,,,,,,,,,,,,,,,,,,,,,,,,,stimuli/alien_stimuli/16.png,16,8,26,,,,,,,30,,,,,,,,701.3960318000009,701.3960318000009,701.3960318000009,701.3960318000009,701.3960318000009,up,2.2567117999988113,11,0,0,99,0.48,-0.08,up,2.16597290000027,,,,,699.8391026000008,701.3960318000009,0.48,-0.24,0.0,0.0,-0.24,0.48,0.48,0.48,-0.24,696.6180705000006,696.6180705000006,696.6180705000006,696.6180705000006,696.6180705000006,696.6180705000006,696.6180705000006,696.6180705000006,696.6199000399989,3.3380979000012303,return,3.1914778999998816,,,,,,,,,,,,,,,,,,,,,,,,,,,,,,,,,0CV6D0,train_y,red_square,bottom_right,2025-03-07_17h02.53.284,HideSeek_v1,2022.2.5,59.849311403770145,
,8,3,8,7,0,4,12,,train_dim1_1,25,30,,,,2,0,2,0,,,,,,,,,0,0,0,0,0,24,24,24,1,0,1,0,,,,,,,,,,,,,,,,,,,,,,,,,,,,,,,,,,,,,,,,,,,,,,,,,,,,,,,,,,,,,,,,30,,,,,,,,703.6653088000003,703.6653088000003,703.6653088000003,703.6653088000003,703.6653088000003,up,0.554849699999977,11,0,0,99,0.48,0.0,up,0.4647256999996898,,,,,,,,,,,,,,,,,,,,,,,,,,,,,,,,,,,,,,,,,,,,,,,,,,,,,,,,,,,,0CV6D0,train_y,red_square,bottom_right,2025-03-07_17h02.53.284,HideSeek_v1,2022.2.5,59.849311403770145,
,8,3,8,7,0,4,12,,train_dim1_1,25,30,,,,2,0,2,0,,,,,,,,,0,0,0,0,0,24,24,24,2,0,2,0,,,,,,,,,,,,,,,,,,,,,,,,,,,,,,,,,,,,,,,,,,,,,,,,,,,,,,,,,,,,,,,,30,,,,,,,,704.2265647999993,704.2265647999993,704.2265647999993,704.2265647999993,704.2265647999993,up,0.6103965999991487,11,0,0,99,0.48,0.08,up,0.5230740000006335,,,,,,,,,,,,,,,,,,,,,,,,,,,,,,,,,,,,,,,,,,,,,,,,,,,,,,,,,,,,0CV6D0,train_y,red_square,bottom_right,2025-03-07_17h02.53.284,HideSeek_v1,2022.2.5,59.849311403770145,
,8,3,8,7,0,4,12,,train_dim1_1,25,30,,,,2,0,2,0,,,,,,,,,0,0,0,0,0,24,24,24,3,0,3,0,,,,,,,,,,,,,,,,,,,,,,,,,,,,,,,,,,,,,,,,,,,,,,,,,,,,,,,,,,,,,,,,30,,,,,,,,704.8438262,704.8438262,704.8438262,704.8438262,704.8438262,up,0.726831800000582,11,0,0,99,0.48,0.16,up,0.6491059999989375,,,,,,,,,,,,,,,,,,,,,,,,,,,,,,,,,,,,,,,,,,,,,,,,,,,,,,,,,,,,0CV6D0,train_y,red_square,bottom_right,2025-03-07_17h02.53.284,HideSeek_v1,2022.2.5,59.849311403770145,
,8,3,8,7,0,4,12,,train_dim1_1,25,30,,,,2,0,2,0,,,,,,,,,0,0,0,0,0,24,24,24,4,0,4,0,,,,,,,,,,,,,,,,,,,,,,,,,,,,,,,,,,,,,,,,,,,,,,,,,,,,,,,,,,,,,,,,30,,,,,,,,705.5773898999996,705.5773898999996,705.5773898999996,705.5773898999996,705.5773898999996,up,0.6099696999990556,11,0,0,99,0.48,0.24,up,0.5317417999995087,,,,,,,,,,,,,,,,,,,,,,,,,,,,,,,,,,,,,,,,,,,,,,,,,,,,,,,,,,,,0CV6D0,train_y,red_square,bottom_right,2025-03-07_17h02.53.284,HideSeek_v1,2022.2.5,59.849311403770145,
,8,3,8,7,0,4,12,,train_dim1_1,25,30,,,,2,0,2,0,,,,,,,,,0,0,0,0,0,24,24,24,5,0,5,0,,,,,,,,,,,,,,,,,,,,,,,,,,,,,,,,,,,,,,,,,,,,,,,,,,,,,,,,,,,,,,,,30,,,,,,,,706.1942003999993,706.1942003999993,706.1942003999993,706.1942003999993,706.1942003999993,return,1.2110577000003104,11,1,0,0,0.48,0.24,return,1.1288211999999476,61,-8,0.48,0.24,,,,,,,,,,,,,,,,,,,,,,,,,,,,,,,,,,,,,,,,,,,,,,,,,,,,,,,,0CV6D0,train_y,red_square,bottom_right,2025-03-07_17h02.53.284,HideSeek_v1,2022.2.5,59.849311403770145,
,9,4,9,7,0,3,13,,train_dim1_1,26,30,,,,2,0,2,0,,,,,,,,,0,0,0,0,0,25,25,25,0,0,0,0,,,,,,,,,,,,,,,,,,,,,,,,,stimuli/alien_stimuli/13.png,,,,,,,,,,,,,,,,,,,,,,,,,,,,,stimuli/alien_stimuli/12.png,12,8,27,,,,,,,30,,,,,,,,713.9058117000004,713.9058117000004,713.9058117000004,713.9058117000004,713.9058117000004,up,2.357024699998874,11,1,0,99,0.56,0.0,up,2.278277800000069,,,,,712.3495652999991,713.9058117000004,0.48,0.16,0.32,0.0,0.0,0.48,0.48,0.48,0.16,708.9817321999999,708.9817321999999,708.9817321999999,708.9817321999999,708.9817321999999,708.9817321999999,708.9817321999999,708.9817321999999,708.9800329399983,3.488617900000463,return,3.3462619999991148,,,,,,,,,,,,,,,,,,,,,,,,,,,,,,,,,0CV6D0,train_y,red_square,bottom_right,2025-03-07_17h02.53.284,HideSeek_v1,2022.2.5,59.849311403770145,
,9,4,9,7,0,3,13,,train_dim1_1,26,30,,,,2,0,2,0,,,,,,,,,0,0,0,0,0,25,25,25,1,0,1,0,,,,,,,,,,,,,,,,,,,,,,,,,,,,,,,,,,,,,,,,,,,,,,,,,,,,,,,,,,,,,,,,30,,,,,,,,716.2701355999998,716.2701355999998,716.2701355999998,716.2701355999998,716.2701355999998,up,0.5758647999991808,11,1,0,99,0.56,0.08,up,0.48663029999988794,,,,,,,,,,,,,,,,,,,,,,,,,,,,,,,,,,,,,,,,,,,,,,,,,,,,,,,,,,,,0CV6D0,train_y,red_square,bottom_right,2025-03-07_17h02.53.284,HideSeek_v1,2022.2.5,59.849311403770145,
,9,4,9,7,0,3,13,,train_dim1_1,26,30,,,,2,0,2,0,,,,,,,,,0,0,0,0,0,25,25,25,2,0,2,0,,,,,,,,,,,,,,,,,,,,,,,,,,,,,,,,,,,,,,,,,,,,,,,,,,,,,,,,,,,,,,,,30,,,,,,,,716.8521695,716.8521695,716.8521695,716.8521695,716.8521695,up,0.6769968999997218,11,1,0,99,0.56,0.16,up,0.5912183999989793,,,,,,,,,,,,,,,,,,,,,,,,,,,,,,,,,,,,,,,,,,,,,,,,,,,,,,,,,,,,0CV6D0,train_y,red_square,bottom_right,2025-03-07_17h02.53.284,HideSeek_v1,2022.2.5,59.849311403770145,
,9,4,9,7,0,3,13,,train_dim1_1,26,30,,,,2,0,2,0,,,,,,,,,0,0,0,0,0,25,25,25,3,0,3,0,,,,,,,,,,,,,,,,,,,,,,,,,,,,,,,,,,,,,,,,,,,,,,,,,,,,,,,,,,,,,,,,30,,,,,,,,717.5355839999993,717.5355839999993,717.5355839999993,717.5355839999993,717.5355839999993,return,4.463794400000552,12,0,0,1,0.56,0.16,return,4.374230699999316,64,-8,0.56,0.16,,,,,,,,,,,,,,,,,,,,,,,,,,,,,,,,,,,,,,,,,,,,,,,,,,,,,,,,0CV6D0,train_y,red_square,bottom_right,2025-03-07_17h02.53.284,HideSeek_v1,2022.2.5,59.849311403770145,
,8,4,8,4,0,0,16,,train_dim1_1,27,30,,,,2,0,2,0,,,,,,,,,0,0,0,0,0,26,26,26,0,0,0,0,,,,,,,,,,,,,,,,,,,,,,,,,stimuli/alien_stimuli/16.png,,,,,,,,,,,,,,,,,,,,,,,,,,,,,stimuli/alien_stimuli/13.png,13,9,28,,,,,,,30,,,,,,,,727.0006331999994,727.0006331999994,727.0006331999994,727.0006331999994,727.0006331999994,return,2.105802300000505,13,0,0,1,0.48,-0.08,return,2.025501099999019,64,-8,0.48,-0.08,725.4438073999991,727.0006331999994,0.56,0.16,0.24,0.0,0.04,0.56,0.56,0.56,0.16,723.5721991999999,723.5721991999999,723.5721991999999,723.5721991999999,723.5721991999999,723.5721991999999,723.5721991999999,723.5721991999999,723.5589541099985,1.9868442000006326,return,1.8395265999988624,,,,,,,,,,,,,,,,,,,,,,,,,,,,,,,,,0CV6D0,train_y,red_square,bottom_right,2025-03-07_17h02.53.284,HideSeek_v1,2022.2.5,59.849311403770145,
,9,1,9,6,0,5,11,,train_dim1_1,28,30,,,,2,0,2,0,,,,,,,,,0,0,0,0,0,27,27,27,0,0,0,0,,,,,,,,,,,,,,,,,,,,,,,,,stimuli/alien_stimuli/11.png,,,,,,,,,,,,,,,,,,,,,,,,,,,,,stimuli/alien_stimuli/16.png,16,8,29,,,,,,,30,,,,,,,,734.9398994000003,734.9398994000003,734.9398994000003,734.9398994000003,734.9398994000003,up,1.7728006999986974,13,0,0,99,0.56,-0.24,up,1.6916197999998985,,,,,733.3835381999997,734.9398994000003,0.48,-0.08,0.0,0.0,-0.08,0.48,0.48,0.48,-0.08,730.6595708999994,730.6595708999994,730.6595708999994,730.6595708999994,730.6595708999994,730.6595708999994,730.6595708999994,730.6595708999994,730.6478286799986,2.8214242000012746,return,2.7005501999992703,,,,,,,,,,,,,,,,,,,,,,,,,,,,,,,,,0CV6D0,train_y,red_square,bottom_right,2025-03-07_17h02.53.284,HideSeek_v1,2022.2.5,59.849311403770145,
,9,1,9,6,0,5,11,,train_dim1_1,28,30,,,,2,0,2,0,,,,,,,,,0,0,0,0,0,27,27,27,1,0,1,0,,,,,,,,,,,,,,,,,,,,,,,,,,,,,,,,,,,,,,,,,,,,,,,,,,,,,,,,,,,,,,,,30,,,,,,,,736.7197225,736.7197225,736.7197225,736.7197225,736.7197225,up,0.5932401999998547,13,0,0,99,0.56,-0.15999999999999998,up,0.5079874999992171,,,,,,,,,,,,,,,,,,,,,,,,,,,,,,,,,,,,,,,,,,,,,,,,,,,,,,,,,,,,0CV6D0,train_y,red_square,bottom_right,2025-03-07_17h02.53.284,HideSeek_v1,2022.2.5,59.849311403770145,
,9,1,9,6,0,5,11,,train_dim1_1,28,30,,,,2,0,2,0,,,,,,,,,0,0,0,0,0,27,27,27,2,0,2,0,,,,,,,,,,,,,,,,,,,,,,,,,,,,,,,,,,,,,,,,,,,,,,,,,,,,,,,,,,,,,,,,30,,,,,,,,737.3199860999994,737.3199860999994,737.3199860999994,737.3199860999994,737.3199860999994,up,0.6268978999996762,13,0,0,99,0.56,-0.07999999999999997,up,0.5435471000000689,,,,,,,,,,,,,,,,,,,,,,,,,,,,,,,,,,,,,,,,,,,,,,,,,,,,,,,,,,,,0CV6D0,train_y,red_square,bottom_right,2025-03-07_17h02.53.284,HideSeek_v1,2022.2.5,59.849311403770145,
,9,1,9,6,0,5,11,,train_dim1_1,28,30,,,,2,0,2,0,,,,,,,,,0,0,0,0,0,27,27,27,3,0,3,0,,,,,,,,,,,,,,,,,,,,,,,,,,,,,,,,,,,,,,,,,,,,,,,,,,,,,,,,,,,,,,,,30,,,,,,,,737.9537096999993,737.9537096999993,737.9537096999993,737.9537096999993,737.9537096999993,up,0.6603132000000187,13,0,0,99,0.56,2.7755575615628914e-17,up,0.5719472000000678,,,,,,,,,,,,,,,,,,,,,,,,,,,,,,,,,,,,,,,,,,,,,,,,,,,,,,,,,,,,0CV6D0,train_y,red_square,bottom_right,2025-03-07_17h02.53.284,HideSeek_v1,2022.2.5,59.849311403770145,
,9,1,9,6,0,5,11,,train_dim1_1,28,30,,,,2,0,2,0,,,,,,,,,0,0,0,0,0,27,27,27,4,0,4,0,,,,,,,,,,,,,,,,,,,,,,,,,,,,,,,,,,,,,,,,,,,,,,,,,,,,,,,,,,,,,,,,30,,,,,,,,738.6210320999999,738.6210320999999,738.6210320999999,738.6210320999999,738.6210320999999,up,0.5602333000006183,13,0,0,99,0.56,0.08000000000000003,up,0.47087269999974524,,,,,,,,,,,,,,,,,,,,,,,,,,,,,,,,,,,,,,,,,,,,,,,,,,,,,,,,,,,,0CV6D0,train_y,red_square,bottom_right,2025-03-07_17h02.53.284,HideSeek_v1,2022.2.5,59.849311403770145,
,9,1,9,6,0,5,11,,train_dim1_1,28,30,,,,2,0,2,0,,,,,,,,,0,0,0,0,0,27,27,27,5,0,5,0,,,,,,,,,,,,,,,,,,,,,,,,,,,,,,,,,,,,,,,,,,,,,,,,,,,,,,,,,,,,,,,,30,,,,,,,,739.1891601000007,739.1891601000007,739.1891601000007,739.1891601000007,739.1891601000007,up,1.5108557999992627,13,0,0,99,0.56,0.16000000000000003,up,1.4197359000008873,,,,,,,,,,,,,,,,,,,,,,,,,,,,,,,,,,,,,,,,,,,,,,,,,,,,,,,,,,,,0CV6D0,train_y,red_square,bottom_right,2025-03-07_17h02.53.284,HideSeek_v1,2022.2.5,59.849311403770145,
,9,1,9,6,0,5,11,,train_dim1_1,28,30,,,,2,0,2,0,,,,,,,,,0,0,0,0,0,27,27,27,6,0,6,0,,,,,,,,,,,,,,,,,,,,,,,,,,,,,,,,,,,,,,,,,,,,,,,,,,,,,,,,,,,,,,,,30,,,,,,,,740.7085367,740.7085367,740.7085367,740.7085367,740.7085367,down,12.117139599999064,13,0,0,99,0.56,0.08000000000000003,down,12.040805900000123,,,,,,,,,,,,,,,,,,,,,,,,,,,,,,,,,,,,,,,,,,,,,,,,,,,,,,,,,,,,0CV6D0,train_y,red_square,bottom_right,2025-03-07_17h02.53.284,HideSeek_v1,2022.2.5,59.849311403770145,
,9,1,9,6,0,5,11,,train_dim1_1,28,30,,,,2,0,2,0,,,,,,,,,0,0,0,0,0,27,27,27,7,0,7,0,,,,,,,,,,,,,,,,,,,,,,,,,,,,,,,,,,,,,,,,,,,,,,,,,,,,,,,,,,,,,,,,30,,,,,,,,752.8525673999993,752.8525673999993,752.8525673999993,752.8525673999993,752.8525673999993,return,3.362603699999454,14,0,0,1,0.56,0.08000000000000003,return,3.262218399999256,69,-8,0.56,0.08000000000000003,,,,,,,,,,,,,,,,,,,,,,,,,,,,,,,,,,,,,,,,,,,,,,,,,,,,,,,,0CV6D0,train_y,red_square,bottom_right,2025-03-07_17h02.53.284,HideSeek_v1,2022.2.5,59.849311403770145,
,7,2,7,6,0,4,12,,train_dim1_1,29,30,,,,2,0,2,0,,,,,,,,,0,0,0,0,0,28,28,28,0,0,0,0,,,,,,,,,,,,,,,,,,,,,,,,,stimuli/alien_stimuli/12.png,,,,,,,,,,,,,,,,,,,,,,,,,,,,,stimuli/alien_stimuli/11.png,11,9,30,,,,,,,30,,,,,,,,760.6437098999995,760.6437098999995,760.6437098999995,760.6437098999995,760.6437098999995,up,1.9909158000009484,14,0,0,99,0.4,-0.15999999999999998,up,1.8997743999989325,,,,,759.0884098000006,760.6437098999995,0.56,0.08,0.4,0.0,-0.12,0.56,0.56,0.56,0.08,757.7708796999996,757.7708796999996,757.7708796999996,757.7708796999996,757.7708796999996,757.7708796999996,757.7708796999996,757.7708796999996,757.770722339999,1.436586100000568,return,1.2988057999991725,,,,,,,,,,,,,,,,,,,,,,,,,,,,,,,,,0CV6D0,train_y,red_square,bottom_right,2025-03-07_17h02.53.284,HideSeek_v1,2022.2.5,59.849311403770145,
,7,2,7,6,0,4,12,,train_dim1_1,29,30,,,,2,0,2,0,,,,,,,,,0,0,0,0,0,28,28,28,1,0,1,0,,,,,,,,,,,,,,,,,,,,,,,,,,,,,,,,,,,,,,,,,,,,,,,,,,,,,,,,,,,,,,,,30,,,,,,,,762.6417249000006,762.6417249000006,762.6417249000006,762.6417249000006,762.6417249000006,up,0.6431867999999668,14,0,0,99,0.4,-0.07999999999999997,up,0.5586011000013968,,,,,,,,,,,,,,,,,,,,,,,,,,,,,,,,,,,,,,,,,,,,,,,,,,,,,,,,,,,,0CV6D0,train_y,red_square,bottom_right,2025-03-07_17h02.53.284,HideSeek_v1,2022.2.5,59.849311403770145,
,7,2,7,6,0,4,12,,train_dim1_1,29,30,,,,2,0,2,0,,,,,,,,,0,0,0,0,0,28,28,28,2,0,2,0,,,,,,,,,,,,,,,,,,,,,,,,,,,,,,,,,,,,,,,,,,,,,,,,,,,,,,,,,,,,,,,,30,,,,,,,,763.2923768,763.2923768,763.2923768,763.2923768,763.2923768,up,0.6269117000010738,14,0,0,99,0.4,2.7755575615628914e-17,up,0.5455697000015789,,,,,,,,,,,,,,,,,,,,,,,,,,,,,,,,,,,,,,,,,,,,,,,,,,,,,,,,,,,,0CV6D0,train_y,red_square,bottom_right,2025-03-07_17h02.53.284,HideSeek_v1,2022.2.5,59.849311403770145,
,7,2,7,6,0,4,12,,train_dim1_1,29,30,,,,2,0,2,0,,,,,,,,,0,0,0,0,0,28,28,28,3,0,3,0,,,,,,,,,,,,,,,,,,,,,,,,,,,,,,,,,,,,,,,,,,,,,,,,,,,,,,,,,,,,,,,,30,,,,,,,,763.9264433999997,763.9264433999997,763.9264433999997,763.9264433999997,763.9264433999997,up,0.7935125999993033,14,0,0,99,0.4,0.08000000000000003,up,0.7068859000009979,,,,,,,,,,,,,,,,,,,,,,,,,,,,,,,,,,,,,,,,,,,,,,,,,,,,,,,,,,,,0CV6D0,train_y,red_square,bottom_right,2025-03-07_17h02.53.284,HideSeek_v1,2022.2.5,59.849311403770145,
,7,2,7,6,0,4,12,,train_dim1_1,29,30,,,,2,0,2,0,,,,,,,,,0,0,0,0,0,28,28,28,4,0,4,0,,,,,,,,,,,,,,,,,,,,,,,,,,,,,,,,,,,,,,,,,,,,,,,,,,,,,,,,,,,,,,,,30,,,,,,,,764.7266653999995,764.7266653999995,764.7266653999995,764.7266653999995,764.7266653999995,return,3.245606000000407,15,0,0,1,0.4,0.08000000000000003,return,3.154190999999628,73,-8,0.4,0.08000000000000003,,,,,,,,,,,,,,,,,,,,,,,,,,,,,,,,,,,,,,,,,,,,,,,,,,,,,,,,0CV6D0,train_y,red_square,bottom_right,2025-03-07_17h02.53.284,HideSeek_v1,2022.2.5,59.849311403770145,
,5,1,5,2,0,1,15,,train_dim1_1,30,30,,,,2,0,2,0,,,,,,,,,0,0,0,0,0,29,29,29,0,0,0,0,,,,,,,,,,,,,,,,,,,,,,,,,stimuli/alien_stimuli/15.png,,,,,,,,,,,,,,,,,,,,,,,,,,,,,stimuli/alien_stimuli/12.png,12,7,31,,,,,,,30,,,,,,,,773.9727210000001,773.9727210000001,773.9727210000001,773.9727210000001,773.9727210000001,up,2.4234728000010364,15,0,0,99,0.24,-0.24,up,2.3365198999999848,,,,,772.4160981999994,773.9727210000001,0.4,0.08,0.32,0.0,-0.07999999999999999,0.4,0.4,0.4,0.08,769.5444368999997,769.5444368999997,769.5444368999997,769.5444368999997,769.5444368999997,769.5444368999997,769.5444368999997,769.5444368999997,769.5303870099983,2.987995100000262,return,2.8544030000011844,,,,,,,,,,,,,,,,,,,,,,,,,,,,,,,,,0CV6D0,train_y,red_square,bottom_right,2025-03-07_17h02.53.284,HideSeek_v1,2022.2.5,59.849311403770145,
,5,1,5,2,0,1,15,,train_dim1_1,30,30,,,,2,0,2,0,,,,,,,,,0,0,0,0,0,29,29,29,1,0,1,0,,,,,,,,,,,,,,,,,,,,,,,,,,,,,,,,,,,,,,,,,,,,,,,,,,,,,,,,,,,,,,,,30,,,,,,,,776.4038762,776.4038762,776.4038762,776.4038762,776.4038762,return,1.1936506999991252,16,0,0,1,0.24,-0.24,return,1.1122993999997561,74,-8,0.24,-0.24,,,,,,,,,,,,,,,,,,,,,,,,,,,,,,,,,,,,,,,,,,,,,,,,,,,,,,,,0CV6D0,train_y,red_square,bottom_right,2025-03-07_17h02.53.284,HideSeek_v1,2022.2.5,59.849311403770145,
,,,,,,,,,,,30,,,,2,0,2,0,,,,,,,,,,,,,,,,,,,,,,,,,,,,,,,,,,,,,,,,,,,,,,,,,,,,,,,,,,,,,,,,,,,,,,,,,,stimuli/alien_stimuli/15.png,15,5,32,21,0.7,0.6666666666666667,1,1,1,30,0,conditions/schedules/train_y_first/red_square_00/bottom_right/inputTrain_2.1.xlsx,99,1,2,1,0,,,,,,,,,,,1,,,,,,,,,781.3402447999997,782.8956904000006,0.24,-0.24,0.08,0.0,-0.28,0.24,0.24,0.24,-0.24,779.1717444000005,779.1717444000005,779.1717444000005,779.1717444000005,779.1717444000005,779.1717444000005,779.1717444000005,779.1717444000005,779.1716107399985,2.2871312999996007,return,2.1414168999999674,0,0.9,0,1,16,,,,,,,,,,,,,,,,,,,,,,,,,,,,0CV6D0,train_y,red_square,bottom_right,2025-03-07_17h02.53.284,HideSeek_v1,2022.2.5,59.849311403770145,
,,,,,,,,,,,,,,,3,0,3,0,0,0,0,0,,,,,,,,,,,,,,,,,,,,,,,,,,,,,,,conditions/schedules/train_y_first/red_square_00/bottom_right/instructions/Slide17.png,conditions/schedules/train_y_first/red_square_00/bottom_right/instructions/Audio17.wav,782.8956904000006,782.8915215199985,17,"[4.631411399999706, 11.275217399999747, 16.814982699999746, 19.348287299999356, 4.551865599998564, 4.718764799999917, 5.488100499998836, 11.622732999998334, 5.902218400000493, 6.801066399999399, 10.602779900000314, 13.643570400001408, 18.466650200000004, 16.641019500000766, 43.44759249999879, 34.42046560000017, 55.12230830000044]","[4.631418400000257, 0.45115789999908884, 0.04909930000030727, 0.014181999998982064, 0.04836230000000796, 0.049936800000068615, 0.08020729999952891, 0.08025850000012724, 0.07943179999892891, 0.09420379999937722, 0.06622790000074019, 13.643577000000732, 18.466656600001443, 16.64102599999933, 0.06300240000018675, 34.42047629999979, 55.12231549999888]",0,,,,,,,,,,,,,,,,,,,,,,,,,,,,,,,,,,,,,,,,,,,,,,,,,,,,,,,,,,,,,,,,,,,,,,,,,,,,,,,,,,,,,,,,,,,,,,,,,,,,,,,,,,,,,,,,,,,,,,,,,,,,0CV6D0,train_y,red_square,bottom_right,2025-03-07_17h02.53.284,HideSeek_v1,2022.2.5,59.849311403770145,
,,,,,,,,,,,,,,,3,0,3,0,1,0,1,0,,,,,,,,,,,,,,,,,,,,,,,,,,,,,,,conditions/schedules/train_y_first/red_square_00/bottom_right/instructions/Slide18.png,conditions/schedules/train_y_first/red_square_00/bottom_right/instructions/Audio18.wav,838.0784354999996,838.0704072199995,18,"[4.631411399999706, 11.275217399999747, 16.814982699999746, 19.348287299999356, 4.551865599998564, 4.718764799999917, 5.488100499998836, 11.622732999998334, 5.902218400000493, 6.801066399999399, 10.602779900000314, 13.643570400001408, 18.466650200000004, 16.641019500000766, 43.44759249999879, 34.42046560000017, 55.12230830000044, 6.261077099999966]","[4.631418400000257, 0.45115789999908884, 0.04909930000030727, 0.014181999998982064, 0.04836230000000796, 0.049936800000068615, 0.08020729999952891, 0.08025850000012724, 0.07943179999892891, 0.09420379999937722, 0.06622790000074019, 13.643577000000732, 18.466656600001443, 16.64102599999933, 0.06300240000018675, 34.42047629999979, 55.12231549999888, 6.261083999999755]",0,,,,,,,,,,,,,,,,,,,,,,,,,,,,,,,,,,,,,,,,,,,,,,,,,,,,,,,,,,,,,,,,,,,,,,,,,,,,,,,,,,,,,,,,,,,,,,,,,,,,,,,,,,,,,,,,,,,,,,,,,,,,0CV6D0,train_y,red_square,bottom_right,2025-03-07_17h02.53.284,HideSeek_v1,2022.2.5,59.849311403770145,
,,,,,,,,,,,,,,,3,0,3,0,2,0,2,0,,,,,,,,,,,,,,,,,,,,,,,,,,,,,,,conditions/schedules/train_y_first/red_square_00/bottom_right/instructions/Slide19.png,conditions/schedules/train_y_first/red_square_00/bottom_right/instructions/Audio19.wav,844.4177159999999,844.4090855499999,19,"[4.631411399999706, 11.275217399999747, 16.814982699999746, 19.348287299999356, 4.551865599998564, 4.718764799999917, 5.488100499998836, 11.622732999998334, 5.902218400000493, 6.801066399999399, 10.602779900000314, 13.643570400001408, 18.466650200000004, 16.641019500000766, 43.44759249999879, 34.42046560000017, 55.12230830000044, 6.261077099999966, 10.86446849999993]","[4.631418400000257, 0.45115789999908884, 0.04909930000030727, 0.014181999998982064, 0.04836230000000796, 0.049936800000068615, 0.08020729999952891, 0.08025850000012724, 0.07943179999892891, 0.09420379999937722, 0.06622790000074019, 13.643577000000732, 18.466656600001443, 16.64102599999933, 0.06300240000018675, 34.42047629999979, 55.12231549999888, 0.00020849999964411836, 10.864475000000311]",0,,,,,,,,,,,,,,,,,,,,,,,,,,,,,,,,,,,,,,,,,,,,,,,,,,,,,,,,,,,,,,,,,,,,,,,,,,,,,,,,,,,,,,,,,,,,,,,,,,,,,,,,,,,,,,,,,,,,,,,,,,,,0CV6D0,train_y,red_square,bottom_right,2025-03-07_17h02.53.284,HideSeek_v1,2022.2.5,59.849311403770145,
,,,,,,,,,,,,,,,3,0,3,0,3,0,3,0,,,,,,,,,,,,,,,,,,,,,,,,,,,,,,,conditions/schedules/train_y_first/red_square_00/bottom_right/instructions/Slide20.png,conditions/schedules/train_y_first/red_square_00/bottom_right/instructions/Audio20.wav,855.3577101999999,855.3515164499986,20,"[4.631411399999706, 11.275217399999747, 16.814982699999746, 19.348287299999356, 4.551865599998564, 4.718764799999917, 5.488100499998836, 11.622732999998334, 5.902218400000493, 6.801066399999399, 10.602779900000314, 13.643570400001408, 18.466650200000004, 16.641019500000766, 43.44759249999879, 34.42046560000017, 55.12230830000044, 6.261077099999966, 10.86446849999993, 12.735183800001323]","[4.631418400000257, 0.45115789999908884, 0.04909930000030727, 0.014181999998982064, 0.04836230000000796, 0.049936800000068615, 0.08020729999952891, 0.08025850000012724, 0.07943179999892891, 0.09420379999937722, 0.06622790000074019, 13.643577000000732, 18.466656600001443, 16.64102599999933, 0.06300240000018675, 34.42047629999979, 55.12231549999888, 0.00020849999964411836, 0.013922600001023966, 12.735191000001578]",0,,,,,,,,,,,,,,,,,,,,,,,,,,,,,,,,,,,,,,,,,,,,,,,,,,,,,,,,,,,,,,,,,,,,,,,,,,,,,,,,,,,,,,,,,,,,,,,,,,,,,,,,,,,,,,,,,,,,,,,,,,,,0CV6D0,train_y,red_square,bottom_right,2025-03-07_17h02.53.284,HideSeek_v1,2022.2.5,59.849311403770145,
1,8,2,3,2,-5,0,66,2,instr_dim1_2,,,,,,3,0,3,0,,,,,0,0,0,0,,,,,,,,,,,,,,,,,,,,,,,,,,,,,,,,,,,,,stimuli/alien_stimuli/66.png,conditions/schedules/train_y_first/red_square_00/bottom_right/inputInstr_2.xlsx,stimuli/alien_stimuli/66.png,868.1964893999993,868.1964893999993,868.1964893999993,868.1964893999993,868.1955085099985,return,8.274357500000406,"[-0.16, -0.08, 0, 0.08, 0.16, 0.24, 0.32, 0.4, 0.48, 0.56]","[-0.4, -0.32, -0.24, -0.16, -0.08, 0, 0.08, 0.16, 0.24, 0.32]",2,2,3,8,0.0,0.4,876.6409509000005,876.6409509000005,876.6409509000005,876.6409509000005,876.6409509000005,876.6409509000005,876.6409509000005,876.6192148399983,8.891273699999147,return,8.72665009999946,stimuli/alien_stimuli/66.png,66,8,1,,,,,,,,,,,,,,,,,,,,,,,,,,,,,,,,,,,,,,,,,,,,,,,,,,,,,,,,,,,,,,,,,,,,,,,,,,,,,,,,,,,,,,,,,0CV6D0,train_y,red_square,bottom_right,2025-03-07_17h02.53.284,HideSeek_v1,2022.2.5,59.849311403770145,
,,,,,,,,,,,30,,,,3,0,3,0,,,,,,,,,,,,,,,,,,,,,,,,,,,,,,,,,,,,,,,,,,,,,,,,,,,,,,,,,,,,,,,,,,,,,,,,,,,,,,21,0.7,0.6666666666666667,1,99,2,30,0,conditions/schedules/train_y_first/red_square_00/bottom_right/inputTrain_2.1.xlsx,99,1,2,1,0,,,,,,,,,,,,,,,,,,,,,,,,,,,,,,,,,,,,,,,,,,,,,,,,,,,,,,,,,,,,,,,,,,,,,,,,,,,0CV6D0,train_y,red_square,bottom_right,2025-03-07_17h02.53.284,HideSeek_v1,2022.2.5,59.849311403770145,
,,,,,,,,,,,,,,,4,0,4,0,0,0,0,0,,,,,,,,,,,,,,,,,,,,,,,,,,,,,,,conditions/schedules/train_y_first/red_square_00/bottom_right/instructions/Slide21.png,conditions/schedules/train_y_first/red_square_00/bottom_right/instructions/Audio21.wav,885.5320154000001,885.526395769998,21,"[4.631411399999706, 11.275217399999747, 16.814982699999746, 19.348287299999356, 4.551865599998564, 4.718764799999917, 5.488100499998836, 11.622732999998334, 5.902218400000493, 6.801066399999399, 10.602779900000314, 13.643570400001408, 18.466650200000004, 16.641019500000766, 43.44759249999879, 34.42046560000017, 55.12230830000044, 6.261077099999966, 10.86446849999993, 12.735183800001323, 13.170013799999651]","[4.631418400000257, 0.45115789999908884, 0.04909930000030727, 0.014181999998982064, 0.04836230000000796, 0.049936800000068615, 0.08020729999952891, 0.08025850000012724, 0.07943179999892891, 0.09420379999937722, 0.06622790000074019, 13.643577000000732, 18.466656600001443, 16.64102599999933, 0.06300240000018675, 34.42047629999979, 55.12231549999888, 0.00020849999964411836, 0.013922600001023966, 12.735191000001578, 13.170021099998849]",0,,,,,,,,,,,,,,,,,,,,,,,,,,,,,,,,,,,,,,,,,,,,,,,,,,,,,,,,,,,,,,,,,,,,,,,,,,,,,,,,,,,,,,,,,,,,,,,,,,,,,,,,,,,,,,,,,,,,,,,,,,,,0CV6D0,train_y,red_square,bottom_right,2025-03-07_17h02.53.284,HideSeek_v1,2022.2.5,59.849311403770145,
2,9,0,9,0,0,0,16,2,instr_dim1_2,,,,,,4,0,4,0,,,,,0,0,0,0,,,,,,,,,,,,,,,,,,,,,,,,,,,,,,,,,,,,,stimuli/alien_stimuli/16.png,conditions/schedules/train_y_first/red_square_00/bottom_right/inputInstr_2.xlsx,stimuli/alien_stimuli/16.png,898.8125359000005,898.8125359000005,898.8125359000005,898.8125359000005,898.8039695099983,return,6.729891700000735,"[-0.16, -0.08, 0, 0.08, 0.16, 0.24, 0.32, 0.4, 0.48, 0.56]","[-0.4, -0.32, -0.24, -0.16, -0.08, 0, 0.08, 0.16, 0.24, 0.32]",0,0,9,9,0.0,0.0,905.6955183999999,905.6955183999999,905.6955183999999,905.6955183999999,905.6955183999999,905.6955183999999,905.6955183999999,905.6765851399992,7.75707070000135,return,7.596871399999145,stimuli/alien_stimuli/16.png,16,9,2,,,,,,,,,,,,,,,,,,,,,,,,,,,,,,,,,,,,,,,,,,,,,,,,,,,,,,,,,,,,,,,,,,,,,,,,,,,,,,,,,,,,,,,,,0CV6D0,train_y,red_square,bottom_right,2025-03-07_17h02.53.284,HideSeek_v1,2022.2.5,59.849311403770145,
,,,,,,,,,,,30,,,,4,0,4,0,,,,,,,,,,,,,,,,,,,,,,,,,,,,,,,,,,,,,,,,,,,,,,,,,,,,,,,,,,,,,,,,,,,,,,,,,,,,,,21,0.7,0.6666666666666667,1,99,2,30,0,conditions/schedules/train_y_first/red_square_00/bottom_right/inputTrain_2.1.xlsx,99,1,2,1,0,,,,,,,,,,,,,,,,,,,,,,,,,,,,,,,,,,,,,,,,,,,,,,,,,,,,,,,,,,,,,,,,,,,,,,,,,,,0CV6D0,train_y,red_square,bottom_right,2025-03-07_17h02.53.284,HideSeek_v1,2022.2.5,59.849311403770145,
,,,,,,,,,,,,,,,5,0,5,0,0,0,0,0,,,,,,,,,,,,,,,,,,,,,,,,,,,,,,,conditions/schedules/train_y_first/red_square_00/bottom_right/instructions/Slide22.png,conditions/schedules/train_y_first/red_square_00/bottom_right/instructions/Audio22.wav,913.4572315999994,913.4495600699983,22,"[4.631411399999706, 11.275217399999747, 16.814982699999746, 19.348287299999356, 4.551865599998564, 4.718764799999917, 5.488100499998836, 11.622732999998334, 5.902218400000493, 6.801066399999399, 10.602779900000314, 13.643570400001408, 18.466650200000004, 16.641019500000766, 43.44759249999879, 34.42046560000017, 55.12230830000044, 6.261077099999966, 10.86446849999993, 12.735183800001323, 13.170013799999651, 30.865137599999798]","[4.631418400000257, 0.45115789999908884, 0.04909930000030727, 0.014181999998982064, 0.04836230000000796, 0.049936800000068615, 0.08020729999952891, 0.08025850000012724, 0.07943179999892891, 0.09420379999937722, 0.06622790000074019, 13.643577000000732, 18.466656600001443, 16.64102599999933, 0.06300240000018675, 34.42047629999979, 55.12231549999888, 0.00020849999964411836, 0.013922600001023966, 12.735191000001578, 13.170021099998849, 30.865147000000434]",0,,,,,,,,,,,,,,,,,,,,,,,,,,,,,,,,,,,,,,,,,,,,,,,,,,,,,,,,,,,,,,,,,,,,,,,,,,,,,,,,,,,,,,,,,,,,,,,,,,,,,,,,,,,,,,,,,,,,,,,,,,,,0CV6D0,train_y,red_square,bottom_right,2025-03-07_17h02.53.284,HideSeek_v1,2022.2.5,59.849311403770145,
,7,1,4,1,-3,0,46,,train_dim1_2,1,30,,,,5,0,5,0,,,,,,,,,0,0,0,0,0,0,0,0,0,0,0,0,,,,,,,,,,,,,,,,,,,,,,,,,stimuli/alien_stimuli/46.png,,,,,,,,,,,,,,,,,,,,,,,,,,,,,,,,,,,,,,,30,,,,,,,,944.4206818999992,944.4206818999992,944.4206818999992,944.4206818999992,944.4206818999992,up,4.196649800000159,0,0,0,99,0.4,-0.24,up,4.099006300000838,,,,,,,,,,,,,,,,,,,,,,,,,,,,,,,,,,,,,,,,,,,,,,,,,,,,,,,,,,,,0CV6D0,train_y,red_square,bottom_right,2025-03-07_17h02.53.284,HideSeek_v1,2022.2.5,59.849311403770145,
,7,1,4,1,-3,0,46,,train_dim1_2,1,30,,,,5,0,5,0,,,,,,,,,0,0,0,0,0,0,0,0,1,0,1,0,,,,,,,,,,,,,,,,,,,,,,,,,,,,,,,,,,,,,,,,,,,,,,,,,,,,,,,,,,,,,,,,30,,,,,,,,948.6090332000003,948.6090332000003,948.6090332000003,948.6090332000003,948.6090332000003,up,1.477241699998558,0,0,0,99,0.4,-0.15999999999999998,up,1.3909089999997377,,,,,,,,,,,,,,,,,,,,,,,,,,,,,,,,,,,,,,,,,,,,,,,,,,,,,,,,,,,,0CV6D0,train_y,red_square,bottom_right,2025-03-07_17h02.53.284,HideSeek_v1,2022.2.5,59.849311403770145,
,7,1,4,1,-3,0,46,,train_dim1_2,1,30,,,,5,0,5,0,,,,,,,,,0,0,0,0,0,0,0,0,2,0,2,0,,,,,,,,,,,,,,,,,,,,,,,,,,,,,,,,,,,,,,,,,,,,,,,,,,,,,,,,,,,,,,,,30,,,,,,,,950.0923652000001,950.0923652000001,950.0923652000001,950.0923652000001,950.0923652000001,up,1.4438938000002963,0,0,0,99,0.4,-0.07999999999999997,up,1.3673835999998118,,,,,,,,,,,,,,,,,,,,,,,,,,,,,,,,,,,,,,,,,,,,,,,,,,,,,,,,,,,,0CV6D0,train_y,red_square,bottom_right,2025-03-07_17h02.53.284,HideSeek_v1,2022.2.5,59.849311403770145,
,7,1,4,1,-3,0,46,,train_dim1_2,1,30,,,,5,0,5,0,,,,,,,,,0,0,0,0,0,0,0,0,3,0,3,0,,,,,,,,,,,,,,,,,,,,,,,,,,,,,,,,,,,,,,,,,,,,,,,,,,,,,,,,,,,,,,,,30,,,,,,,,951.5439155999993,951.5439155999993,951.5439155999993,951.5439155999993,951.5439155999993,up,0.777335700000549,0,0,0,99,0.4,2.7755575615628914e-17,up,0.6999533999987761,,,,,,,,,,,,,,,,,,,,,,,,,,,,,,,,,,,,,,,,,,,,,,,,,,,,,,,,,,,,0CV6D0,train_y,red_square,bottom_right,2025-03-07_17h02.53.284,HideSeek_v1,2022.2.5,59.849311403770145,
,7,1,4,1,-3,0,46,,train_dim1_2,1,30,,,,5,0,5,0,,,,,,,,,0,0,0,0,0,0,0,0,4,0,4,0,,,,,,,,,,,,,,,,,,,,,,,,,,,,,,,,,,,,,,,,,,,,,,,,,,,,,,,,,,,,,,,,30,,,,,,,,952.3280639999994,952.3280639999994,952.3280639999994,952.3280639999994,952.3280639999994,return,3.512133399999584,0,0,0,0,0.4,2.7755575615628914e-17,return,3.430090600000767,78,-8,0.4,2.7755575615628914e-17,,,,,,,,,,,,,,,,,,,,,,,,,,,,,,,,,,,,,,,,,,,,,,,,,,,,,,,,0CV6D0,train_y,red_square,bottom_right,2025-03-07_17h02.53.284,HideSeek_v1,2022.2.5,59.849311403770145,
,7,4,7,4,0,0,16,,train_dim1_2,2,30,,,,5,0,5,0,,,,,,,,,0,0,0,0,0,1,1,1,0,0,0,0,,,,,,,,,,,,,,,,,,,,,,,,,stimuli/alien_stimuli/16.png,,,,,,,,,,,,,,,,,,,,,,,,,,,,,stimuli/alien_stimuli/46.png,46,7,3,,,,,,,30,,,,,,,,964.9371936999996,964.9371936999996,964.9371936999996,964.9371936999996,964.9371936999996,left,3.592159600000741,0,0,0,99,0.32,-0.08,left,3.5033717999995133,,,,,963.3744466000007,964.9371936999996,0.16,-0.32,0.0,0.24,-0.32,0.16,0.28,0.16,-0.32,957.4210707000002,957.4210707000002,957.4210707000002,957.4210707000002,957.4210707000002,957.4210707000002,957.4210707000002,957.4210707000002,957.4025646099985,6.074329699998998,return,5.933485600000495,,,,,,,,,,,,,,,,,,,,,,,,,,,,,,,,,0CV6D0,train_y,red_square,bottom_right,2025-03-07_17h02.53.284,HideSeek_v1,2022.2.5,59.849311403770145,
,7,4,7,4,0,0,16,,train_dim1_2,2,30,,,,5,0,5,0,,,,,,,,,0,0,0,0,0,1,1,1,1,0,1,0,,,,,,,,,,,,,,,,,,,,,,,,,,,,,,,,,,,,,,,,,,,,,,,,,,,,,,,,,,,,,,,,30,,,,,,,,968.5294911000001,968.5294911000001,968.5294911000001,968.5294911000001,968.5294911000001,return,0.7424370999997336,0,1,0,0,0.32,-0.08,return,0.658098500000051,78,-9,0.32,-0.08,,,,,,,,,,,,,,,,,,,,,,,,,,,,,,,,,,,,,,,,,,,,,,,,,,,,,,,,0CV6D0,train_y,red_square,bottom_right,2025-03-07_17h02.53.284,HideSeek_v1,2022.2.5,59.849311403770145,
,9,4,8,4,-1,0,26,,train_dim1_2,3,30,,,,5,0,5,0,,,,,,,,,0,0,0,0,0,2,2,2,0,0,0,0,,,,,,,,,,,,,,,,,,,,,,,,,stimuli/alien_stimuli/26.png,,,,,,,,,,,,,,,,,,,,,,,,,,,,,stimuli/alien_stimuli/16.png,16,7,4,,,,,,,30,,,,,,,,976.5293837999998,976.5293837999998,976.5293837999998,976.5293837999998,976.5293837999998,left,2.223806699999841,0,1,0,99,0.48000000000000004,-0.08,left,2.1254141999997955,,,,,974.967098699999,976.5293837999998,0.4,-0.08,0.0,0.0,-0.08,0.4,0.4,0.4,-0.08,970.8507513000004,970.8507513000004,970.8507513000004,970.8507513000004,970.8507513000004,970.8507513000004,970.8507513000004,970.8507513000004,970.830572809999,4.239364799999748,return,4.097936299998764,,,,,,,,,,,,,,,,,,,,,,,,,,,,,,,,,0CV6D0,train_y,red_square,bottom_right,2025-03-07_17h02.53.284,HideSeek_v1,2022.2.5,59.849311403770145,
,9,4,8,4,-1,0,26,,train_dim1_2,3,30,,,,5,0,5,0,,,,,,,,,0,0,0,0,0,2,2,2,1,0,1,0,,,,,,,,,,,,,,,,,,,,,,,,,,,,,,,,,,,,,,,,,,,,,,,,,,,,,,,,,,,,,,,,30,,,,,,,,978.7537673000006,978.7537673000006,978.7537673000006,978.7537673000006,978.7537673000006,return,1.5274886999995942,1,0,0,1,0.48000000000000004,-0.08,return,1.437725199999477,78,-10,0.48000000000000004,-0.08,,,,,,,,,,,,,,,,,,,,,,,,,,,,,,,,,,,,,,,,,,,,,,,,,,,,,,,,0CV6D0,train_y,red_square,bottom_right,2025-03-07_17h02.53.284,HideSeek_v1,2022.2.5,59.849311403770145,
