trialInstr,x_fixStart,y_fixStart,x_corrSteps,y_corrSteps,x_nrSteps,y_nrSteps,alienID,trialLength,version,trialTrain,praclen,testlen,trial_label,break_on_off,beforeExpLoop.thisRepN,beforeExpLoop.thisTrialN,beforeExpLoop.thisN,beforeExpLoop.thisIndex,mini_instr_trials.thisRepN,mini_instr_trials.thisTrialN,mini_instr_trials.thisN,mini_instr_trials.thisIndex,instrLoop.thisRepN,instrLoop.thisTrialN,instrLoop.thisN,instrLoop.thisIndex,repeat_prac.thisRepN,repeat_prac.thisTrialN,repeat_prac.thisN,repeat_prac.thisIndex,trainLoop.thisRepN,trainLoop.thisTrialN,trainLoop.thisN,trainLoop.thisIndex,moveLoop_train.thisRepN,moveLoop_train.thisTrialN,moveLoop_train.thisN,moveLoop_train.thisIndex,experiment.thisRepN,experiment.thisTrialN,experiment.thisN,experiment.thisIndex,moveLoop_test.thisRepN,moveLoop_test.thisTrialN,moveLoop_test.thisN,moveLoop_test.thisIndex,mini_instr2_trials.thisRepN,mini_instr2_trials.thisTrialN,mini_instr2_trials.thisN,mini_instr2_trials.thisIndex,start_all_time,url,slideStim,audioStim,slides.started,sounds.started,nextButton.numClicks,nextButton.timesOn,nextButton.timesOff,prev_but.numClicks,prev_but.timesOn,prev_but.timesOff,alienStim,instrFile,alienStim_instr,gridImage_instr.started,startPos_3.started,key_instr.started,alienImage_3.started,sounds_1.started,key_instr.keys,key_instr.rt,all_x,all_y,FBy_corrSteps,FBy_fixStart,FBx_corrSteps,FBx_fixStart,FBy_pathSize_check,FBx_pathSize_check,gridImage_9.started,alienImageFB_3.started,startPosFB_3.started,keyFB_3.started,pathLine_ydir_2.started,pathLine_xdir_2.started,alienFace_3.started,sounds_2.started,RTFB_instr,keyFB_3.keys,keyFB_3.rt,draw_alienStim,draw_alienID,test_x,nrepcount,perfthres,percthres,earlierperf,earlystop,nextPrac,fileidx,praclen,saveACC_train,pracFile,nextPrac_train,addNrep,fileidx_endr,repExp,showearly,gridImage_4.started,startPos.started,movePos.started,key_resp.started,alienImage.started,buttonPress_train,RTchoice_train,cumAcctrain,aCorr,saveACC_choice,corrAns,x_movePos_end,y_movePos_end,key_resp.keys,key_resp.rt,wLy_dir,wLx_dir,x_movePos,y_movePos,text_2.started,text_2.stopped,aft_x_corrPos,aft_y_corrPos,y_pathSize_check,x_pathSize_check,y_pathdirY,x_pathdirY,x_pathdirX,x_corrPos,y_corrPos,gridImage_6.started,alienImageFB_2.started,startPosFB_2.started,movePosFB_2.started,keyFB_2.started,pathLine_xdir.started,pathLine_ydir.started,alienFace.started,sounds_4.started,RT_FBtrain,keyFB_2.keys,keyFB_2.rt,saveACC_pre,ACC,within_saveACC_train,earlystop_wloop,cumAcctrain_check,gridImage_3.started,alienImage_test.started,startPos_test.started,movePos_test.started,key_resp_test.started,wLy_dir_test,wLx_dir_test,buttonPress_test,RTchoice_test,cumAcctest,corrAns_test,key_resp_test.keys,key_resp_test.rt,text_3.started,text_3.stopped,total_time,end_all_time,key_resp_3.keys,slides_2.started,sounds_3.started,nextButton_2.numClicks,nextButton_2.timesOn,nextButton_2.timesOff,prev_but_2.numClicks,prev_but_2.timesOn,prev_but_2.timesOff,bye.started,participant,train_first,00_coordinate,starting corner,date,expName,psychopyVersion,frameRate,
,,,,,,,,,,,,,,,0,0,0,0,0,0,0,0,,,,,,,,,,,,,,,,,,,,,,,,,,,,,start_all_time,testround,conditions/schedules/train_x_first/blue_star_00/bottom_right/instructions/Slide1.png,conditions/schedules/train_x_first/blue_star_00/bottom_right/instructions/Audio1.wav,43.240326300030574,43.161409142985946,1,[6.761071800021455],[6.761083899997175],0,,,,,,,,,,,,,,,,,,,,,,,,,,,,,,,,,,,,,,,,,,,,,,,,,,,,,,,,,,,,,,,,,,,,,,,,,,,,,,,,,,,,,,,,,,,,,,,,,,,,,,,,,,,,,,,,,,,,,,,,,,,,0E1T7F,train_x,blue_star,bottom_right,2025-02-10_14h40.11.770,HideSeek_v1,2022.2.5,60.300574242599325,
,,,,,,,,,,,,,,,0,0,0,0,1,0,1,0,,,,,,,,,,,,,,,,,,,,,,,,,,,,,,,conditions/schedules/train_x_first/blue_star_00/bottom_right/instructions/Slide2.png,conditions/schedules/train_x_first/blue_star_00/bottom_right/instructions/Audio2.wav,50.04445679998025,50.04241809984669,2,"[6.761071800021455, 18.526008300017565]","[6.761083899997175, 18.526024299906567]",0,,,,,,,,,,,,,,,,,,,,,,,,,,,,,,,,,,,,,,,,,,,,,,,,,,,,,,,,,,,,,,,,,,,,,,,,,,,,,,,,,,,,,,,,,,,,,,,,,,,,,,,,,,,,,,,,,,,,,,,,,,,,0E1T7F,train_x,blue_star,bottom_right,2025-02-10_14h40.11.770,HideSeek_v1,2022.2.5,60.300574242599325,
,,,,,,,,,,,,,,,0,0,0,0,2,0,2,0,,,,,,,,,,,,,,,,,,,,,,,,,,,,,,,conditions/schedules/train_x_first/blue_star_00/bottom_right/instructions/Slide3.png,conditions/schedules/train_x_first/blue_star_00/bottom_right/instructions/Audio3.wav,68.67118710000068,68.66810964988545,3,"[6.761071800021455, 18.526008300017565, 10.27744510001503]","[6.761083899997175, 18.526024299906567, 10.277456799987704]",0,,,,,,,,,,,,,,,,,,,,,,,,,,,,,,,,,,,,,,,,,,,,,,,,,,,,,,,,,,,,,,,,,,,,,,,,,,,,,,,,,,,,,,,,,,,,,,,,,,,,,,,,,,,,,,,,,,,,,,,,,,,,0E1T7F,train_x,blue_star,bottom_right,2025-02-10_14h40.11.770,HideSeek_v1,2022.2.5,60.300574242599325,
,,,,,,,,,,,,,,,0,0,0,0,3,0,3,0,,,,,,,,,,,,,,,,,,,,,,,,,,,,,,,conditions/schedules/train_x_first/blue_star_00/bottom_right/instructions/Slide4.png,conditions/schedules/train_x_first/blue_star_00/bottom_right/instructions/Audio4.wav,79.05729380017146,79.04910974982195,4,"[6.761071800021455, 18.526008300017565, 10.27744510001503, 19.5196069998201]","[6.761083899997175, 18.526024299906567, 10.277456799987704, 19.51961459987797]",0,,,,,,,,,,,,,,,,,,,,,,,,,,,,,,,,,,,,,,,,,,,,,,,,,,,,,,,,,,,,,,,,,,,,,,,,,,,,,,,,,,,,,,,,,,,,,,,,,,,,,,,,,,,,,,,,,,,,,,,,,,,,0E1T7F,train_x,blue_star,bottom_right,2025-02-10_14h40.11.770,HideSeek_v1,2022.2.5,60.300574242599325,
,,,,,,,,,,,,,,,0,0,0,0,4,0,4,0,,,,,,,,,,,,,,,,,,,,,,,,,,,,,,,conditions/schedules/train_x_first/blue_star_00/bottom_right/instructions/Slide5.png,conditions/schedules/train_x_first/blue_star_00/bottom_right/instructions/Audio5.wav,98.63793910015374,98.62553500006906,5,"[6.761071800021455, 18.526008300017565, 10.27744510001503, 19.5196069998201, 4.7896983998361975]","[6.761083899997175, 18.526024299906567, 10.277456799987704, 0.03574700001627207, 4.7897079000249505]",0,,,,,,,,,,,,,,,,,,,,,,,,,,,,,,,,,,,,,,,,,,,,,,,,,,,,,,,,,,,,,,,,,,,,,,,,,,,,,,,,,,,,,,,,,,,,,,,,,,,,,,,,,,,,,,,,,,,,,,,,,,,,0E1T7F,train_x,blue_star,bottom_right,2025-02-10_14h40.11.770,HideSeek_v1,2022.2.5,60.300574242599325,
,,,,,,,,,,,,,,,0,0,0,0,5,0,5,0,,,,,,,,,,,,,,,,,,,,,,,,,,,,,,,conditions/schedules/train_x_first/blue_star_00/bottom_right/instructions/Slide6.png,conditions/schedules/train_x_first/blue_star_00/bottom_right/instructions/Audio6.wav,103.47742990008555,103.47961840005591,6,"[6.761071800021455, 18.526008300017565, 10.27744510001503, 19.5196069998201, 4.7896983998361975, 4.55394470016472]","[6.761083899997175, 18.526024299906567, 10.277456799987704, 0.03574700001627207, 0.0502335000783205, 4.553953400114551]",0,,,,,,,,,,,,,,,,,,,,,,,,,,,,,,,,,,,,,,,,,,,,,,,,,,,,,,,,,,,,,,,,,,,,,,,,,,,,,,,,,,,,,,,,,,,,,,,,,,,,,,,,,,,,,,,,,,,,,,,,,,,,0E1T7F,train_x,blue_star,bottom_right,2025-02-10_14h40.11.770,HideSeek_v1,2022.2.5,60.300574242599325,
,,,,,,,,,,,,,,,0,0,0,0,6,0,6,0,,,,,,,,,,,,,,,,,,,,,,,,,,,,,,,conditions/schedules/train_x_first/blue_star_00/bottom_right/instructions/Slide7.png,conditions/schedules/train_x_first/blue_star_00/bottom_right/instructions/Audio7.wav,108.08186130016111,108.08341750008985,7,"[6.761071800021455, 18.526008300017565, 10.27744510001503, 19.5196069998201, 4.7896983998361975, 4.55394470016472, 5.186621499946341]","[6.761083899997175, 18.526024299906567, 10.277456799987704, 0.03574700001627207, 0.0502335000783205, 0.04911939986050129, 5.186629500007257]",0,,,,,,,,,,,,,,,,,,,,,,,,,,,,,,,,,,,,,,,,,,,,,,,,,,,,,,,,,,,,,,,,,,,,,,,,,,,,,,,,,,,,,,,,,,,,,,,,,,,,,,,,,,,,,,,,,,,,,,,,,,,,0E1T7F,train_x,blue_star,bottom_right,2025-02-10_14h40.11.770,HideSeek_v1,2022.2.5,60.300574242599325,
,,,,,,,,,,,,,,,0,0,0,0,7,0,7,0,,,,,,,,,,,,,,,,,,,,,,,,,,,,,,,conditions/schedules/train_x_first/blue_star_00/bottom_right/instructions/Slide8.png,conditions/schedules/train_x_first/blue_star_00/bottom_right/instructions/Audio8.wav,113.32051340001635,113.3211008999031,8,"[6.761071800021455, 18.526008300017565, 10.27744510001503, 19.5196069998201, 4.7896983998361975, 4.55394470016472, 5.186621499946341, 11.95780809991993]","[6.761083899997175, 18.526024299906567, 10.277456799987704, 0.03574700001627207, 0.0502335000783205, 0.04911939986050129, 0.0979275000281632, 11.957815299974754]",0,,,,,,,,,,,,,,,,,,,,,,,,,,,,,,,,,,,,,,,,,,,,,,,,,,,,,,,,,,,,,,,,,,,,,,,,,,,,,,,,,,,,,,,,,,,,,,,,,,,,,,,,,,,,,,,,,,,,,,,,,,,,0E1T7F,train_x,blue_star,bottom_right,2025-02-10_14h40.11.770,HideSeek_v1,2022.2.5,60.300574242599325,
,,,,,,,,,,,,,,,0,0,0,0,8,0,8,0,,,,,,,,,,,,,,,,,,,,,,,,,,,,,,,conditions/schedules/train_x_first/blue_star_00/bottom_right/instructions/Slide9.png,conditions/schedules/train_x_first/blue_star_00/bottom_right/instructions/Audio9.wav,125.3477044000756,125.34777324995957,9,"[6.761071800021455, 18.526008300017565, 10.27744510001503, 19.5196069998201, 4.7896983998361975, 4.55394470016472, 5.186621499946341, 11.95780809991993, 6.286160999909043]","[6.761083899997175, 18.526024299906567, 10.277456799987704, 0.03574700001627207, 0.0502335000783205, 0.04911939986050129, 0.0979275000281632, 0.030903599923476577, 6.286169999977574]",0,,,,,,,,,,,,,,,,,,,,,,,,,,,,,,,,,,,,,,,,,,,,,,,,,,,,,,,,,,,,,,,,,,,,,,,,,,,,,,,,,,,,,,,,,,,,,,,,,,,,,,,,,,,,,,,,,,,,,,,,,,,,0E1T7F,train_x,blue_star,bottom_right,2025-02-10_14h40.11.770,HideSeek_v1,2022.2.5,60.300574242599325,
,,,,,,,,,,,,,,,0,0,0,0,9,0,9,0,,,,,,,,,,,,,,,,,,,,,,,,,,,,,,,conditions/schedules/train_x_first/blue_star_00/bottom_right/instructions/Slide10.png,conditions/schedules/train_x_first/blue_star_00/bottom_right/instructions/Audio10.wav,131.67153859999962,131.66957975006662,10,"[6.761071800021455, 18.526008300017565, 10.27744510001503, 19.5196069998201, 4.7896983998361975, 4.55394470016472, 5.186621499946341, 11.95780809991993, 6.286160999909043, 7.06833599996753]","[6.761083899997175, 18.526024299906567, 10.277456799987704, 0.03574700001627207, 0.0502335000783205, 0.04911939986050129, 0.0979275000281632, 0.030903599923476577, 0.06338430009782314, 7.068343800026923]",0,,,,,,,,,,,,,,,,,,,,,,,,,,,,,,,,,,,,,,,,,,,,,,,,,,,,,,,,,,,,,,,,,,,,,,,,,,,,,,,,,,,,,,,,,,,,,,,,,,,,,,,,,,,,,,,,,,,,,,,,,,,,0E1T7F,train_x,blue_star,bottom_right,2025-02-10_14h40.11.770,HideSeek_v1,2022.2.5,60.300574242599325,
,,,,,,,,,,,,,,,0,0,0,0,10,0,10,0,,,,,,,,,,,,,,,,,,,,,,,,,,,,,,,conditions/schedules/train_x_first/blue_star_00/bottom_right/instructions/Slide11.png,conditions/schedules/train_x_first/blue_star_00/bottom_right/instructions/Audio11.wav,138.79293170012534,138.7923082999885,11,"[6.761071800021455, 18.526008300017565, 10.27744510001503, 19.5196069998201, 4.7896983998361975, 4.55394470016472, 5.186621499946341, 11.95780809991993, 6.286160999909043, 7.06833599996753, 10.238736600149423]","[6.761083899997175, 18.526024299906567, 10.277456799987704, 0.03574700001627207, 0.0502335000783205, 0.04911939986050129, 0.0979275000281632, 0.030903599923476577, 0.06338430009782314, 0.06368879997171462, 10.238744100090116]",0,,,,,,,,,,,,,,,,,,,,,,,,,,,,,,,,,,,,,,,,,,,,,,,,,,,,,,,,,,,,,,,,,,,,,,,,,,,,,,,,,,,,,,,,,,,,,,,,,,,,,,,,,,,,,,,,,,,,,,,,,,,,0E1T7F,train_x,blue_star,bottom_right,2025-02-10_14h40.11.770,HideSeek_v1,2022.2.5,60.300574242599325,
,,,,,,,,,,,,,,,0,0,0,0,11,0,11,0,,,,,,,,,,,,,,,,,,,,,,,,,,,,,,,conditions/schedules/train_x_first/blue_star_00/bottom_right/instructions/Slide12.png,conditions/schedules/train_x_first/blue_star_00/bottom_right/instructions/Audio12.wav,149.10409220005386,149.10083144996315,12,"[6.761071800021455, 18.526008300017565, 10.27744510001503, 19.5196069998201, 4.7896983998361975, 4.55394470016472, 5.186621499946341, 11.95780809991993, 6.286160999909043, 7.06833599996753, 10.238736600149423, 12.554802700178698]","[6.761083899997175, 18.526024299906567, 10.277456799987704, 0.03574700001627207, 0.0502335000783205, 0.04911939986050129, 0.0979275000281632, 0.030903599923476577, 0.06338430009782314, 0.06368879997171462, 0.03054370009340346, 12.554810600122437]",0,,,,,,,,,,,,,,,,,,,,,,,,,,,,,,,,,,,,,,,,,,,,,,,,,,,,,,,,,,,,,,,,,,,,,,,,,,,,,,,,,,,,,,,,,,,,,,,,,,,,,,,,,,,,,,,,,,,,,,,,,,,,0E1T7F,train_x,blue_star,bottom_right,2025-02-10_14h40.11.770,HideSeek_v1,2022.2.5,60.300574242599325,
1,9,0,4,0,-5,0,11,2,instr_dim1_1,,,,,,0,0,0,0,,,,,0,0,0,0,,,,,,,,,,,,,,,,,,,,,,,,,,,,,,,,,,,,,stimuli/alien_stimuli/11.png,conditions/schedules/train_x_first/blue_star_00/bottom_right/inputInstr_1.xlsx,stimuli/alien_stimuli/11.png,161.76246870006435,161.76246870006435,161.76246870006435,161.76246870006435,161.76106294998897,return,35.456821999978274,"[-0.16, -0.08, 0, 0.08, 0.16, 0.24, 0.32, 0.4, 0.48, 0.56]","[-0.4, -0.32, -0.24, -0.16, -0.08, 0, 0.08, 0.16, 0.24, 0.32]",0,0,4,9,0.0,0.4,197.39112560008653,197.39112560008653,197.39112560008653,197.39112560008653,197.39112560008653,197.39112560008653,197.39112560008653,197.39056269987486,7.690476699965075,return,7.513244399800897,stimuli/alien_stimuli/11.png,11,9,1,,,,,,,,,,,,,,,,,,,,,,,,,,,,,,,,,,,,,,,,,,,,,,,,,,,,,,,,,,,,,,,,,,,,,,,,,,,,,,,,,,,,,,,,,0E1T7F,train_x,blue_star,bottom_right,2025-02-10_14h40.11.770,HideSeek_v1,2022.2.5,60.300574242599325,
,,,,,,,,,,,30,,,,0,0,0,0,,,,,,,,,,,,,,,,,,,,,,,,,,,,,,,,,,,,,,,,,,,,,,,,,,,,,,,,,,,,,,,,,,,,,,,,,,,,,,21,0.7,0,0,99,1,30,0,conditions/schedules/train_x_first/blue_star_00/bottom_right/inputTrain_1.1.xlsx,99,1,1,1,0,,,,,,,,,,,,,,,,,,,,,,,,,,,,,,,,,,,,,,,,,,,,,,,,,,,,,,,,,,,,,,,,,,,,,,,,,,,0E1T7F,train_x,blue_star,bottom_right,2025-02-10_14h40.11.770,HideSeek_v1,2022.2.5,60.300574242599325,
,,,,,,,,,,,,,,,1,0,1,0,0,0,0,0,,,,,,,,,,,,,,,,,,,,,,,,,,,,,,,conditions/schedules/train_x_first/blue_star_00/bottom_right/instructions/Slide13.png,conditions/schedules/train_x_first/blue_star_00/bottom_right/instructions/Audio13.wav,205.06898730015382,205.06367524988016,13,"[6.761071800021455, 18.526008300017565, 10.27744510001503, 19.5196069998201, 4.7896983998361975, 4.55394470016472, 5.186621499946341, 11.95780809991993, 6.286160999909043, 7.06833599996753, 10.238736600149423, 12.554802700178698, 17.723763399990276]","[6.761083899997175, 18.526024299906567, 10.277456799987704, 0.03574700001627207, 0.0502335000783205, 0.04911939986050129, 0.0979275000281632, 0.030903599923476577, 0.06338430009782314, 0.06368879997171462, 0.03054370009340346, 12.554810600122437, 17.7237706000451]",0,,,,,,,,,,,,,,,,,,,,,,,,,,,,,,,,,,,,,,,,,,,,,,,,,,,,,,,,,,,,,,,,,,,,,,,,,,,,,,,,,,,,,,,,,,,,,,,,,,,,,,,,,,,,,,,,,,,,,,,,,,,,0E1T7F,train_x,blue_star,bottom_right,2025-02-10_14h40.11.770,HideSeek_v1,2022.2.5,60.300574242599325,
,,,,,,,,,,,,,,,1,0,1,0,1,0,1,0,,,,,,,,,,,,,,,,,,,,,,,,,,,,,,,conditions/schedules/train_x_first/blue_star_00/bottom_right/instructions/Slide14.png,conditions/schedules/train_x_first/blue_star_00/bottom_right/instructions/Audio14.wav,222.85856360010803,222.8453063000459,14,"[6.761071800021455, 18.526008300017565, 10.27744510001503, 19.5196069998201, 4.7896983998361975, 4.55394470016472, 5.186621499946341, 11.95780809991993, 6.286160999909043, 7.06833599996753, 10.238736600149423, 12.554802700178698, 17.723763399990276, 12.612512700026855]","[6.761083899997175, 18.526024299906567, 10.277456799987704, 0.03574700001627207, 0.0502335000783205, 0.04911939986050129, 0.0979275000281632, 0.030903599923476577, 0.06338430009782314, 0.06368879997171462, 0.03054370009340346, 12.554810600122437, 0.03416549996472895, 12.612521099857986]",0,,,,,,,,,,,,,,,,,,,,,,,,,,,,,,,,,,,,,,,,,,,,,,,,,,,,,,,,,,,,,,,,,,,,,,,,,,,,,,,,,,,,,,,,,,,,,,,,,,,,,,,,,,,,,,,,,,,,,,,,,,,,0E1T7F,train_x,blue_star,bottom_right,2025-02-10_14h40.11.770,HideSeek_v1,2022.2.5,60.300574242599325,
2,8,2,8,2,0,0,61,2,instr_dim1_1,,,,,,1,0,1,0,,,,,0,0,0,0,,,,,,,,,,,,,,,,,,,,,,,,,,,,,,,,,,,,,stimuli/alien_stimuli/61.png,conditions/schedules/train_x_first/blue_star_00/bottom_right/inputInstr_1.xlsx,stimuli/alien_stimuli/61.png,235.56949950009584,235.56949950009584,235.56949950009584,235.56949950009584,235.55648579988627,return,7.139431499876082,"[-0.16, -0.08, 0, 0.08, 0.16, 0.24, 0.32, 0.4, 0.48, 0.56]","[-0.4, -0.32, -0.24, -0.16, -0.08, 0, 0.08, 0.16, 0.24, 0.32]",2,2,8,8,0.0,0.0,242.85725460015237,242.85725460015237,242.85725460015237,242.85725460015237,242.85725460015237,242.85725460015237,242.85725460015237,242.8452302998863,7.323328499915078,return,7.164763199863955,stimuli/alien_stimuli/61.png,61,8,2,,,,,,,,,,,,,,,,,,,,,,,,,,,,,,,,,,,,,,,,,,,,,,,,,,,,,,,,,,,,,,,,,,,,,,,,,,,,,,,,,,,,,,,,,0E1T7F,train_x,blue_star,bottom_right,2025-02-10_14h40.11.770,HideSeek_v1,2022.2.5,60.300574242599325,
,,,,,,,,,,,30,,,,1,0,1,0,,,,,,,,,,,,,,,,,,,,,,,,,,,,,,,,,,,,,,,,,,,,,,,,,,,,,,,,,,,,,,,,,,,,,,,,,,,,,,21,0.7,0,0,99,1,30,0,conditions/schedules/train_x_first/blue_star_00/bottom_right/inputTrain_1.1.xlsx,99,1,1,1,0,,,,,,,,,,,,,,,,,,,,,,,,,,,,,,,,,,,,,,,,,,,,,,,,,,,,,,,,,,,,,,,,,,,,,,,,,,,0E1T7F,train_x,blue_star,bottom_right,2025-02-10_14h40.11.770,HideSeek_v1,2022.2.5,60.300574242599325,
,,,,,,,,,,,,,,,2,0,2,0,0,0,0,0,,,,,,,,,,,,,,,,,,,,,,,,,,,,,,,conditions/schedules/train_x_first/blue_star_00/bottom_right/instructions/Slide15.png,conditions/schedules/train_x_first/blue_star_00/bottom_right/instructions/Audio15.wav,250.19399030017667,250.184377149865,15,"[6.761071800021455, 18.526008300017565, 10.27744510001503, 19.5196069998201, 4.7896983998361975, 4.55394470016472, 5.186621499946341, 11.95780809991993, 6.286160999909043, 7.06833599996753, 10.238736600149423, 12.554802700178698, 17.723763399990276, 12.612512700026855, 32.864941499894485]","[6.761083899997175, 18.526024299906567, 10.277456799987704, 0.03574700001627207, 0.0502335000783205, 0.04911939986050129, 0.0979275000281632, 0.030903599923476577, 0.06338430009782314, 0.06368879997171462, 0.03054370009340346, 12.554810600122437, 0.03416549996472895, 12.612521099857986, 32.8649498000741]",0,,,,,,,,,,,,,,,,,,,,,,,,,,,,,,,,,,,,,,,,,,,,,,,,,,,,,,,,,,,,,,,,,,,,,,,,,,,,,,,,,,,,,,,,,,,,,,,,,,,,,,,,,,,,,,,,,,,,,,,,,,,,0E1T7F,train_x,blue_star,bottom_right,2025-02-10_14h40.11.770,HideSeek_v1,2022.2.5,60.300574242599325,
,,,,,,,,,,,,,,,2,0,2,0,1,0,1,0,,,,,,,,,,,,,,,,,,,,,,,,,,,,,,,conditions/schedules/train_x_first/blue_star_00/bottom_right/instructions/Slide16.png,conditions/schedules/train_x_first/blue_star_00/bottom_right/instructions/Audio16.wav,283.13613340002485,283.1285109499004,16,"[6.761071800021455, 18.526008300017565, 10.27744510001503, 19.5196069998201, 4.7896983998361975, 4.55394470016472, 5.186621499946341, 11.95780809991993, 6.286160999909043, 7.06833599996753, 10.238736600149423, 12.554802700178698, 17.723763399990276, 12.612512700026855, 32.864941499894485, 21.874753299867734]","[6.761083899997175, 18.526024299906567, 10.277456799987704, 0.03574700001627207, 0.0502335000783205, 0.04911939986050129, 0.0979275000281632, 0.030903599923476577, 0.06338430009782314, 0.06368879997171462, 0.03054370009340346, 12.554810600122437, 0.03416549996472895, 12.612521099857986, 0.00029419991187751293, 21.874764299951494]",0,,,,,,,,,,,,,,,,,,,,,,,,,,,,,,,,,,,,,,,,,,,,,,,,,,,,,,,,,,,,,,,,,,,,,,,,,,,,,,,,,,,,,,,,,,,,,,,,,,,,,,,,,,,,,,,,,,,,,,,,,,,,0E1T7F,train_x,blue_star,bottom_right,2025-02-10_14h40.11.770,HideSeek_v1,2022.2.5,60.300574242599325,
,7,1,4,1,-3,0,31,,train_dim1_1,1,30,,,,2,0,2,0,,,,,,,,,0,0,0,0,0,0,0,0,0,0,0,0,,,,,,,,,,,,,,,,,,,,,,,,,stimuli/alien_stimuli/31.png,,,,,,,,,,,,,,,,,,,,,,,,,,,,,,,,,,,,,,,30,,,,,,,,305.1114219999872,305.1114219999872,305.1114219999872,305.1114219999872,305.1114219999872,left,11.069949600147083,0,0,0,99,0.32,-0.32,left,10.976519899908453,,,,,,,,,,,,,,,,,,,,,,,,,,,,,,,,,,,,,,,,,,,,,,,,,,,,,,,,,,,,0E1T7F,train_x,blue_star,bottom_right,2025-02-10_14h40.11.770,HideSeek_v1,2022.2.5,60.300574242599325,
,7,1,4,1,-3,0,31,,train_dim1_1,1,30,,,,2,0,2,0,,,,,,,,,0,0,0,0,0,0,0,0,1,0,1,0,,,,,,,,,,,,,,,,,,,,,,,,,,,,,,,,,,,,,,,,,,,,,,,,,,,,,,,,,,,,,,,,30,,,,,,,,316.18573410017416,316.18573410017416,316.18573410017416,316.18573410017416,316.18573410017416,left,0.7099002997856587,0,0,0,99,0.24,-0.32,left,0.6190299997106194,,,,,,,,,,,,,,,,,,,,,,,,,,,,,,,,,,,,,,,,,,,,,,,,,,,,,,,,,,,,0E1T7F,train_x,blue_star,bottom_right,2025-02-10_14h40.11.770,HideSeek_v1,2022.2.5,60.300574242599325,
,7,1,4,1,-3,0,31,,train_dim1_1,1,30,,,,2,0,2,0,,,,,,,,,0,0,0,0,0,0,0,0,2,0,2,0,,,,,,,,,,,,,,,,,,,,,,,,,,,,,,,,,,,,,,,,,,,,,,,,,,,,,,,,,,,,,,,,30,,,,,,,,316.88643850013614,316.88643850013614,316.88643850013614,316.88643850013614,316.88643850013614,left,0.4601598000153899,0,0,0,99,0.15999999999999998,-0.32,left,0.38010099972598255,,,,,,,,,,,,,,,,,,,,,,,,,,,,,,,,,,,,,,,,,,,,,,,,,,,,,,,,,,,,0E1T7F,train_x,blue_star,bottom_right,2025-02-10_14h40.11.770,HideSeek_v1,2022.2.5,60.300574242599325,
,7,1,4,1,-3,0,31,,train_dim1_1,1,30,,,,2,0,2,0,,,,,,,,,0,0,0,0,0,0,0,0,3,0,3,0,,,,,,,,,,,,,,,,,,,,,,,,,,,,,,,,,,,,,,,,,,,,,,,,,,,,,,,,,,,,,,,,30,,,,,,,,317.3548530000262,317.3548530000262,317.3548530000262,317.3548530000262,317.3548530000262,left,0.42654080013744533,0,0,0,99,0.07999999999999997,-0.32,left,0.348308099899441,,,,,,,,,,,,,,,,,,,,,,,,,,,,,,,,,,,,,,,,,,,,,,,,,,,,,,,,,,,,0E1T7F,train_x,blue_star,bottom_right,2025-02-10_14h40.11.770,HideSeek_v1,2022.2.5,60.300574242599325,
,7,1,4,1,-3,0,31,,train_dim1_1,1,30,,,,2,0,2,0,,,,,,,,,0,0,0,0,0,0,0,0,4,0,4,0,,,,,,,,,,,,,,,,,,,,,,,,,,,,,,,,,,,,,,,,,,,,,,,,,,,,,,,,,,,,,,,,30,,,,,,,,317.78738970006816,317.78738970006816,317.78738970006816,317.78738970006816,317.78738970006816,right,0.5101964001078159,0,0,0,99,0.15999999999999998,-0.32,right,0.424760099966079,,,,,,,,,,,,,,,,,,,,,,,,,,,,,,,,,,,,,,,,,,,,,,,,,,,,,,,,,,,,0E1T7F,train_x,blue_star,bottom_right,2025-02-10_14h40.11.770,HideSeek_v1,2022.2.5,60.300574242599325,
,7,1,4,1,-3,0,31,,train_dim1_1,1,30,,,,2,0,2,0,,,,,,,,,0,0,0,0,0,0,0,0,5,0,5,0,,,,,,,,,,,,,,,,,,,,,,,,,,,,,,,,,,,,,,,,,,,,,,,,,,,,,,,,,,,,,,,,30,,,,,,,,318.3045016999822,318.3045016999822,318.3045016999822,318.3045016999822,318.3045016999822,left,0.5768102000001818,0,0,0,99,0.07999999999999997,-0.32,left,0.49298269976861775,,,,,,,,,,,,,,,,,,,,,,,,,,,,,,,,,,,,,,,,,,,,,,,,,,,,,,,,,,,,0E1T7F,train_x,blue_star,bottom_right,2025-02-10_14h40.11.770,HideSeek_v1,2022.2.5,60.300574242599325,
,7,1,4,1,-3,0,31,,train_dim1_1,1,30,,,,2,0,2,0,,,,,,,,,0,0,0,0,0,0,0,0,6,0,6,0,,,,,,,,,,,,,,,,,,,,,,,,,,,,,,,,,,,,,,,,,,,,,,,,,,,,,,,,,,,,,,,,30,,,,,,,,318.88808190007694,318.88808190007694,318.88808190007694,318.88808190007694,318.88808190007694,return,0.6270813001319766,0,1,0,0,0.07999999999999997,-0.32,return,0.543998799752444,0,-4,0.07999999999999997,-0.32,,,,,,,,,,,,,,,,,,,,,,,,,,,,,,,,,,,,,,,,,,,,,,,,,,,,,,,,0E1T7F,train_x,blue_star,bottom_right,2025-02-10_14h40.11.770,HideSeek_v1,2022.2.5,60.300574242599325,
,7,4,2,4,-5,0,11,,train_dim1_1,2,30,,,,2,0,2,0,,,,,,,,,0,0,0,0,0,1,1,1,0,0,0,0,,,,,,,,,,,,,,,,,,,,,,,,,stimuli/alien_stimuli/11.png,,,,,,,,,,,,,,,,,,,,,,,,,,,,,stimuli/alien_stimuli/31.png,31,7,3,,,,,,,30,,,,,,,,347.03087040013634,347.03087040013634,347.03087040013634,347.03087040013634,347.03087040013634,left,3.908492899965495,0,1,0,99,0.32,-0.08,left,3.802728199865669,,,,,345.4470626001712,347.03087040013634,0.16,-0.32,0.0,0.24,-0.32,0.16,0.28,0.16,-0.32,321.0913601000793,321.0913601000793,321.0913601000793,321.0913601000793,321.0913601000793,321.0913601000793,321.0913601000793,321.0913601000793,321.07666534986345,24.47250510007143,return,24.338152299867943,,,,,,,,,,,,,,,,,,,,,,,,,,,,,,,,,0E1T7F,train_x,blue_star,bottom_right,2025-02-10_14h40.11.770,HideSeek_v1,2022.2.5,60.300574242599325,
,7,4,2,4,-5,0,11,,train_dim1_1,2,30,,,,2,0,2,0,,,,,,,,,0,0,0,0,0,1,1,1,1,0,1,0,,,,,,,,,,,,,,,,,,,,,,,,,,,,,,,,,,,,,,,,,,,,,,,,,,,,,,,,,,,,,,,,30,,,,,,,,350.9191807000898,350.9191807000898,350.9191807000898,350.9191807000898,350.9191807000898,left,0.7431481999810785,0,1,0,99,0.24,-0.08,left,0.6547306999564171,,,,,,,,,,,,,,,,,,,,,,,,,,,,,,,,,,,,,,,,,,,,,,,,,,,,,,,,,,,,0E1T7F,train_x,blue_star,bottom_right,2025-02-10_14h40.11.770,HideSeek_v1,2022.2.5,60.300574242599325,
,7,4,2,4,-5,0,11,,train_dim1_1,2,30,,,,2,0,2,0,,,,,,,,,0,0,0,0,0,1,1,1,2,0,2,0,,,,,,,,,,,,,,,,,,,,,,,,,,,,,,,,,,,,,,,,,,,,,,,,,,,,,,,,,,,,,,,,30,,,,,,,,351.6693690000102,351.6693690000102,351.6693690000102,351.6693690000102,351.6693690000102,left,0.6435763998888433,0,1,0,99,0.15999999999999998,-0.08,left,0.5629795000422746,,,,,,,,,,,,,,,,,,,,,,,,,,,,,,,,,,,,,,,,,,,,,,,,,,,,,,,,,,,,0E1T7F,train_x,blue_star,bottom_right,2025-02-10_14h40.11.770,HideSeek_v1,2022.2.5,60.300574242599325,
,7,4,2,4,-5,0,11,,train_dim1_1,2,30,,,,2,0,2,0,,,,,,,,,0,0,0,0,0,1,1,1,3,0,3,0,,,,,,,,,,,,,,,,,,,,,,,,,,,,,,,,,,,,,,,,,,,,,,,,,,,,,,,,,,,,,,,,30,,,,,,,,352.31982670002617,352.31982670002617,352.31982670002617,352.31982670002617,352.31982670002617,left,6.164726600050926,0,1,0,99,0.07999999999999997,-0.08,left,6.079237799858674,,,,,,,,,,,,,,,,,,,,,,,,,,,,,,,,,,,,,,,,,,,,,,,,,,,,,,,,,,,,0E1T7F,train_x,blue_star,bottom_right,2025-02-10_14h40.11.770,HideSeek_v1,2022.2.5,60.300574242599325,
,7,4,2,4,-5,0,11,,train_dim1_1,2,30,,,,2,0,2,0,,,,,,,,,0,0,0,0,0,1,1,1,4,0,4,0,,,,,,,,,,,,,,,,,,,,,,,,,,,,,,,,,,,,,,,,,,,,,,,,,,,,,,,,,,,,,,,,30,,,,,,,,358.49178170016967,358.49178170016967,358.49178170016967,358.49178170016967,358.49178170016967,left,0.29340089997276664,0,1,0,99,-2.7755575615628914e-17,-0.08,left,0.20940879988484085,,,,,,,,,,,,,,,,,,,,,,,,,,,,,,,,,,,,,,,,,,,,,,,,,,,,,,,,,,,,0E1T7F,train_x,blue_star,bottom_right,2025-02-10_14h40.11.770,HideSeek_v1,2022.2.5,60.300574242599325,
,7,4,2,4,-5,0,11,,train_dim1_1,2,30,,,,2,0,2,0,,,,,,,,,0,0,0,0,0,1,1,1,5,0,5,0,,,,,,,,,,,,,,,,,,,,,,,,,,,,,,,,,,,,,,,,,,,,,,,,,,,,,,,,,,,,,,,,30,,,,,,,,358.7910271000583,358.7910271000583,358.7910271000583,358.7910271000583,358.7910271000583,return,0.41006370005197823,1,0,0,1,-2.7755575615628914e-17,-0.08,return,0.3207830998580903,0,-9,-2.7755575615628914e-17,-0.08,,,,,,,,,,,,,,,,,,,,,,,,,,,,,,,,,,,,,,,,,,,,,,,,,,,,,,,,0E1T7F,train_x,blue_star,bottom_right,2025-02-10_14h40.11.770,HideSeek_v1,2022.2.5,60.300574242599325,
,9,4,5,4,-4,0,21,,train_dim1_1,3,30,,,,2,0,2,0,,,,,,,,,0,0,0,0,0,2,2,2,0,0,0,0,,,,,,,,,,,,,,,,,,,,,,,,,stimuli/alien_stimuli/21.png,,,,,,,,,,,,,,,,,,,,,,,,,,,,,stimuli/alien_stimuli/11.png,11,7,4,,,,,,,30,,,,,,,,371.0047484000679,371.0047484000679,371.0047484000679,371.0047484000679,371.0047484000679,left,2.7557890000753105,1,0,0,99,0.48000000000000004,-0.08,left,2.6359689999371767,,,,,369.4168684000615,371.0047484000679,0,-0.08,0.0,0.4,-0.08,0,0.2,0,-0.08,360.7908672001213,360.7908672001213,360.7908672001213,360.7908672001213,360.7908672001213,360.7908672001213,360.7908672001213,360.7908672001213,360.7760017999913,8.759735699975863,return,8.610322599997744,,,,,,,,,,,,,,,,,,,,,,,,,,,,,,,,,0E1T7F,train_x,blue_star,bottom_right,2025-02-10_14h40.11.770,HideSeek_v1,2022.2.5,60.300574242599325,
,9,4,5,4,-4,0,21,,train_dim1_1,3,30,,,,2,0,2,0,,,,,,,,,0,0,0,0,0,2,2,2,1,0,1,0,,,,,,,,,,,,,,,,,,,,,,,,,,,,,,,,,,,,,,,,,,,,,,,,,,,,,,,,,,,,,,,,30,,,,,,,,373.73940790002234,373.73940790002234,373.73940790002234,373.73940790002234,373.73940790002234,left,0.5427304999902844,1,0,0,99,0.4,-0.08,left,0.4581621000543237,,,,,,,,,,,,,,,,,,,,,,,,,,,,,,,,,,,,,,,,,,,,,,,,,,,,,,,,,,,,0E1T7F,train_x,blue_star,bottom_right,2025-02-10_14h40.11.770,HideSeek_v1,2022.2.5,60.300574242599325,
,9,4,5,4,-4,0,21,,train_dim1_1,3,30,,,,2,0,2,0,,,,,,,,,0,0,0,0,0,2,2,2,2,0,2,0,,,,,,,,,,,,,,,,,,,,,,,,,,,,,,,,,,,,,,,,,,,,,,,,,,,,,,,,,,,,,,,,30,,,,,,,,374.2873410000466,374.2873410000466,374.2873410000466,374.2873410000466,374.2873410000466,left,0.5268492999020964,1,0,0,99,0.32,-0.08,left,0.44376119994558394,,,,,,,,,,,,,,,,,,,,,,,,,,,,,,,,,,,,,,,,,,,,,,,,,,,,,,,,,,,,0E1T7F,train_x,blue_star,bottom_right,2025-02-10_14h40.11.770,HideSeek_v1,2022.2.5,60.300574242599325,
,9,4,5,4,-4,0,21,,train_dim1_1,3,30,,,,2,0,2,0,,,,,,,,,0,0,0,0,0,2,2,2,3,0,3,0,,,,,,,,,,,,,,,,,,,,,,,,,,,,,,,,,,,,,,,,,,,,,,,,,,,,,,,,,,,,,,,,30,,,,,,,,374.82099490007386,374.82099490007386,374.82099490007386,374.82099490007386,374.82099490007386,left,0.4935639000032097,1,0,0,99,0.24,-0.08,left,0.4064883997198194,,,,,,,,,,,,,,,,,,,,,,,,,,,,,,,,,,,,,,,,,,,,,,,,,,,,,,,,,,,,0E1T7F,train_x,blue_star,bottom_right,2025-02-10_14h40.11.770,HideSeek_v1,2022.2.5,60.300574242599325,
,9,4,5,4,-4,0,21,,train_dim1_1,3,30,,,,2,0,2,0,,,,,,,,,0,0,0,0,0,2,2,2,4,0,4,0,,,,,,,,,,,,,,,,,,,,,,,,,,,,,,,,,,,,,,,,,,,,,,,,,,,,,,,,,,,,,,,,30,,,,,,,,375.3223919000011,375.3223919000011,375.3223919000011,375.3223919000011,375.3223919000011,return,0.4102565001230687,2,0,0,1,0.24,-0.08,return,0.33024829998612404,0,-13,0.24,-0.08,,,,,,,,,,,,,,,,,,,,,,,,,,,,,,,,,,,,,,,,,,,,,,,,,,,,,,,,0E1T7F,train_x,blue_star,bottom_right,2025-02-10_14h40.11.770,HideSeek_v1,2022.2.5,60.300574242599325,
,7,3,6,3,-1,0,51,,train_dim1_1,4,30,,,,2,0,2,0,,,,,,,,,0,0,0,0,0,3,3,3,0,0,0,0,,,,,,,,,,,,,,,,,,,,,,,,,stimuli/alien_stimuli/51.png,,,,,,,,,,,,,,,,,,,,,,,,,,,,,stimuli/alien_stimuli/21.png,21,9,5,,,,,,,30,,,,,,,,381.9033639000263,381.9033639000263,381.9033639000263,381.9033639000263,381.9033639000263,left,3.7259936998598278,2,0,0,99,0.32,-0.16,left,3.628376599866897,,,,,380.34266220009886,381.9033639000263,0.24,-0.08,0.0,0.32,-0.08,0.24,0.4,0.24,-0.08,377.31717970012687,377.31717970012687,377.31717970012687,377.31717970012687,377.31717970012687,377.31717970012687,377.31717970012687,377.31717970012687,377.3064151000231,3.1549199000000954,return,2.995945599861443,,,,,,,,,,,,,,,,,,,,,,,,,,,,,,,,,0E1T7F,train_x,blue_star,bottom_right,2025-02-10_14h40.11.770,HideSeek_v1,2022.2.5,60.300574242599325,
,7,3,6,3,-1,0,51,,train_dim1_1,4,30,,,,2,0,2,0,,,,,,,,,0,0,0,0,0,3,3,3,1,0,1,0,,,,,,,,,,,,,,,,,,,,,,,,,,,,,,,,,,,,,,,,,,,,,,,,,,,,,,,,,,,,,,,,30,,,,,,,,385.6298265000805,385.6298265000805,385.6298265000805,385.6298265000805,385.6298265000805,return,0.6265367998275906,3,0,0,1,0.32,-0.16,return,0.5364206999074668,0,-14,0.32,-0.16,,,,,,,,,,,,,,,,,,,,,,,,,,,,,,,,,,,,,,,,,,,,,,,,,,,,,,,,0E1T7F,train_x,blue_star,bottom_right,2025-02-10_14h40.11.770,HideSeek_v1,2022.2.5,60.300574242599325,
,5,2,5,2,0,0,61,,train_dim1_1,5,30,,,,2,0,2,0,,,,,,,,,0,0,0,0,0,4,4,4,0,0,0,0,,,,,,,,,,,,,,,,,,,,,,,,,stimuli/alien_stimuli/61.png,,,,,,,,,,,,,,,,,,,,,,,,,,,,,stimuli/alien_stimuli/51.png,51,7,6,,,,,,,30,,,,,,,,393.06081430008635,393.06081430008635,393.06081430008635,393.06081430008635,393.06081430008635,return,1.7411100999452174,4,0,0,1,0.24,-0.24,return,1.6466687000356615,0,-14,0.24,-0.24,391.50223760004155,393.06081430008635,0.32,-0.16,0.0,0.08,-0.16,0.32,0.36,0.32,-0.16,387.83683960000053,387.83683960000053,387.83683960000053,387.83683960000053,387.83683960000053,387.83683960000053,387.83683960000053,387.83683960000053,387.81497684991916,3.7889324999414384,return,3.6408733997959644,,,,,,,,,,,,,,,,,,,,,,,,,,,,,,,,,0E1T7F,train_x,blue_star,bottom_right,2025-02-10_14h40.11.770,HideSeek_v1,2022.2.5,60.300574242599325,
,5,0,1,0,-4,0,21,,train_dim1_1,6,30,,,,2,0,2,0,,,,,,,,,0,0,0,0,0,5,5,5,0,0,0,0,,,,,,,,,,,,,,,,,,,,,,,,,stimuli/alien_stimuli/21.png,,,,,,,,,,,,,,,,,,,,,,,,,,,,,stimuli/alien_stimuli/61.png,61,5,7,,,,,,,30,,,,,,,,400.6871234001592,400.6871234001592,400.6871234001592,400.6871234001592,400.6871234001592,left,2.6412786999717355,4,0,0,99,0.15999999999999998,-0.4,left,2.547814699821174,,,,,399.1248564000707,400.6871234001592,0.24,-0.24,0.0,0.0,-0.24,0.24,0.24,0.24,-0.24,396.3602526001632,396.3602526001632,396.3602526001632,396.3602526001632,396.3602526001632,396.3602526001632,396.3602526001632,396.3602526001632,396.33918989989905,2.870898599969223,return,2.739832199877128,,,,,,,,,,,,,,,,,,,,,,,,,,,,,,,,,0E1T7F,train_x,blue_star,bottom_right,2025-02-10_14h40.11.770,HideSeek_v1,2022.2.5,60.300574242599325,
,5,0,1,0,-4,0,21,,train_dim1_1,6,30,,,,2,0,2,0,,,,,,,,,0,0,0,0,0,5,5,5,1,0,1,0,,,,,,,,,,,,,,,,,,,,,,,,,,,,,,,,,,,,,,,,,,,,,,,,,,,,,,,,,,,,,,,,30,,,,,,,,403.32993080001324,403.32993080001324,403.32993080001324,403.32993080001324,403.32993080001324,left,0.6095499000512064,4,0,0,99,0.07999999999999997,-0.4,left,0.5332096999045461,,,,,,,,,,,,,,,,,,,,,,,,,,,,,,,,,,,,,,,,,,,,,,,,,,,,,,,,,,,,0E1T7F,train_x,blue_star,bottom_right,2025-02-10_14h40.11.770,HideSeek_v1,2022.2.5,60.300574242599325,
,5,0,1,0,-4,0,21,,train_dim1_1,6,30,,,,2,0,2,0,,,,,,,,,0,0,0,0,0,5,5,5,2,0,2,0,,,,,,,,,,,,,,,,,,,,,,,,,,,,,,,,,,,,,,,,,,,,,,,,,,,,,,,,,,,,,,,,30,,,,,,,,403.94588390015997,403.94588390015997,403.94588390015997,403.94588390015997,403.94588390015997,left,0.526785199996084,4,0,0,99,-2.7755575615628914e-17,-0.4,left,0.4471805999055505,,,,,,,,,,,,,,,,,,,,,,,,,,,,,,,,,,,,,,,,,,,,,,,,,,,,,,,,,,,,0E1T7F,train_x,blue_star,bottom_right,2025-02-10_14h40.11.770,HideSeek_v1,2022.2.5,60.300574242599325,
,5,0,1,0,-4,0,21,,train_dim1_1,6,30,,,,2,0,2,0,,,,,,,,,0,0,0,0,0,5,5,5,3,0,3,0,,,,,,,,,,,,,,,,,,,,,,,,,,,,,,,,,,,,,,,,,,,,,,,,,,,,,,,,,,,,,,,,30,,,,,,,,404.479695700109,404.479695700109,404.479695700109,404.479695700109,404.479695700109,left,0.4104577999096364,4,0,0,99,-0.08000000000000003,-0.4,left,0.3256671999115497,,,,,,,,,,,,,,,,,,,,,,,,,,,,,,,,,,,,,,,,,,,,,,,,,,,,,,,,,,,,0E1T7F,train_x,blue_star,bottom_right,2025-02-10_14h40.11.770,HideSeek_v1,2022.2.5,60.300574242599325,
,5,0,1,0,-4,0,21,,train_dim1_1,6,30,,,,2,0,2,0,,,,,,,,,0,0,0,0,0,5,5,5,4,0,4,0,,,,,,,,,,,,,,,,,,,,,,,,,,,,,,,,,,,,,,,,,,,,,,,,,,,,,,,,,,,,,,,,30,,,,,,,,404.89750520000234,404.89750520000234,404.89750520000234,404.89750520000234,404.89750520000234,return,0.3763692998327315,5,0,0,1,-0.08000000000000003,-0.4,return,0.29430139996111393,0,-18,-0.08000000000000003,-0.4,,,,,,,,,,,,,,,,,,,,,,,,,,,,,,,,,,,,,,,,,,,,,,,,,,,,,,,,0E1T7F,train_x,blue_star,bottom_right,2025-02-10_14h40.11.770,HideSeek_v1,2022.2.5,60.300574242599325,
,8,0,8,0,0,0,61,,train_dim1_1,7,30,,,,2,0,2,0,,,,,,,,,0,0,0,0,0,6,6,6,0,0,0,0,,,,,,,,,,,,,,,,,,,,,,,,,stimuli/alien_stimuli/61.png,,,,,,,,,,,,,,,,,,,,,,,,,,,,,stimuli/alien_stimuli/21.png,21,5,8,,,,,,,30,,,,,,,,411.5954502001405,411.5954502001405,411.5954502001405,411.5954502001405,411.5954502001405,return,1.4215819998644292,6,0,0,1,0.48,-0.4,return,1.334507699823007,0,-18,0.48,-0.4,410.03389700013213,411.5954502001405,-0.08,-0.4,0.0,0.32,-0.4,-0.08,0.07999999999999999,-0.08,-0.4,406.8551401000004,406.8551401000004,406.8551401000004,406.8551401000004,406.8551401000004,406.8551401000004,406.8551401000004,406.8551401000004,406.8475642999634,3.305049199843779,return,3.153431999962777,,,,,,,,,,,,,,,,,,,,,,,,,,,,,,,,,0E1T7F,train_x,blue_star,bottom_right,2025-02-10_14h40.11.770,HideSeek_v1,2022.2.5,60.300574242599325,
,5,4,2,4,-3,0,31,,train_dim1_1,8,30,,,,2,0,2,0,,,,,,,,,0,0,0,0,0,7,7,7,0,0,0,0,,,,,,,,,,,,,,,,,,,,,,,,,stimuli/alien_stimuli/31.png,,,,,,,,,,,,,,,,,,,,,,,,,,,,,stimuli/alien_stimuli/61.png,61,8,9,,,,,,,30,,,,,,,,417.57615310000256,417.57615310000256,417.57615310000256,417.57615310000256,417.57615310000256,left,2.690782400080934,6,0,0,99,0.15999999999999998,-0.08,left,2.5956864999607205,,,,,416.00564970006235,417.57615310000256,0.48,-0.4,0.0,0.0,-0.4,0.48,0.48,0.48,-0.4,414.5720281000249,414.5720281000249,414.5720281000249,414.5720281000249,414.5720281000249,414.5720281000249,414.5720281000249,414.5720281000249,414.5542468000669,1.5367364999838173,return,1.4059037999249995,,,,,,,,,,,,,,,,,,,,,,,,,,,,,,,,,0E1T7F,train_x,blue_star,bottom_right,2025-02-10_14h40.11.770,HideSeek_v1,2022.2.5,60.300574242599325,
,5,4,2,4,-3,0,31,,train_dim1_1,8,30,,,,2,0,2,0,,,,,,,,,0,0,0,0,0,7,7,7,1,0,1,0,,,,,,,,,,,,,,,,,,,,,,,,,,,,,,,,,,,,,,,,,,,,,,,,,,,,,,,,,,,,,,,,30,,,,,,,,420.2563816001639,420.2563816001639,420.2563816001639,420.2563816001639,420.2563816001639,left,0.526413899846375,6,0,0,99,0.07999999999999997,-0.08,left,0.4470019999425858,,,,,,,,,,,,,,,,,,,,,,,,,,,,,,,,,,,,,,,,,,,,,,,,,,,,,,,,,,,,0E1T7F,train_x,blue_star,bottom_right,2025-02-10_14h40.11.770,HideSeek_v1,2022.2.5,60.300574242599325,
,5,4,2,4,-3,0,31,,train_dim1_1,8,30,,,,2,0,2,0,,,,,,,,,0,0,0,0,0,7,7,7,2,0,2,0,,,,,,,,,,,,,,,,,,,,,,,,,,,,,,,,,,,,,,,,,,,,,,,,,,,,,,,,,,,,,,,,30,,,,,,,,420.7890670001507,420.7890670001507,420.7890670001507,420.7890670001507,420.7890670001507,left,0.9607818000949919,6,0,0,99,-2.7755575615628914e-17,-0.08,left,0.8814171000849456,,,,,,,,,,,,,,,,,,,,,,,,,,,,,,,,,,,,,,,,,,,,,,,,,,,,,,,,,,,,0E1T7F,train_x,blue_star,bottom_right,2025-02-10_14h40.11.770,HideSeek_v1,2022.2.5,60.300574242599325,
,5,4,2,4,-3,0,31,,train_dim1_1,8,30,,,,2,0,2,0,,,,,,,,,0,0,0,0,0,7,7,7,3,0,3,0,,,,,,,,,,,,,,,,,,,,,,,,,,,,,,,,,,,,,,,,,,,,,,,,,,,,,,,,,,,,,,,,30,,,,,,,,421.7562745001633,421.7562745001633,421.7562745001633,421.7562745001633,421.7562745001633,return,1.1272818001452833,7,0,0,1,-2.7755575615628914e-17,-0.08,return,1.0530550999101251,0,-21,-2.7755575615628914e-17,-0.08,,,,,,,,,,,,,,,,,,,,,,,,,,,,,,,,,,,,,,,,,,,,,,,,,,,,,,,,0E1T7F,train_x,blue_star,bottom_right,2025-02-10_14h40.11.770,HideSeek_v1,2022.2.5,60.300574242599325,
,6,0,5,0,-1,0,51,,train_dim1_1,9,30,,,,2,0,2,0,,,,,,,,,0,0,0,0,0,8,8,8,0,0,0,0,,,,,,,,,,,,,,,,,,,,,,,,,stimuli/alien_stimuli/51.png,,,,,,,,,,,,,,,,,,,,,,,,,,,,,stimuli/alien_stimuli/31.png,31,5,10,,,,,,,30,,,,,,,,428.22540899994783,428.22540899994783,428.22540899994783,428.22540899994783,428.22540899994783,left,2.1739634999539703,7,0,0,99,0.24,-0.4,left,2.0604932999704033,,,,,426.64785240008496,428.22540899994783,0,-0.08,0.0,0.24,-0.08,0,0.12,0,-0.08,424.4477534999605,424.4477534999605,424.4477534999605,424.4477534999605,424.4477534999605,424.4477534999605,424.4477534999605,424.4477534999605,424.42895090002565,2.3040359998121858,return,2.1677186000160873,,,,,,,,,,,,,,,,,,,,,,,,,,,,,,,,,0E1T7F,train_x,blue_star,bottom_right,2025-02-10_14h40.11.770,HideSeek_v1,2022.2.5,60.300574242599325,
,6,0,5,0,-1,0,51,,train_dim1_1,9,30,,,,2,0,2,0,,,,,,,,,0,0,0,0,0,8,8,8,1,0,1,0,,,,,,,,,,,,,,,,,,,,,,,,,,,,,,,,,,,,,,,,,,,,,,,,,,,,,,,,,,,,,,,,30,,,,,,,,430.3837850999553,430.3837850999553,430.3837850999553,430.3837850999553,430.3837850999553,return,0.5764584999997169,8,0,0,1,0.24,-0.4,return,0.492771300021559,0,-22,0.24,-0.4,,,,,,,,,,,,,,,,,,,,,,,,,,,,,,,,,,,,,,,,,,,,,,,,,,,,,,,,0E1T7F,train_x,blue_star,bottom_right,2025-02-10_14h40.11.770,HideSeek_v1,2022.2.5,60.300574242599325,
,5,3,0,3,-5,0,11,,train_dim1_1,10,30,,,,2,0,2,0,,,,,,,,,0,0,0,0,0,9,9,9,0,0,0,0,,,,,,,,,,,,,,,,,,,,,,,,,stimuli/alien_stimuli/11.png,,,,,,,,,,,,,,,,,,,,,,,,,,,,,stimuli/alien_stimuli/51.png,51,6,11,,,,,,,30,,,,,,,,435.72925670002587,435.72925670002587,435.72925670002587,435.72925670002587,435.72925670002587,left,1.571936700027436,8,0,0,99,0.15999999999999998,-0.16,left,1.4684752998873591,,,,,434.1541888001375,435.72925670002587,0.24,-0.4,0.0,0.08,-0.4,0.24,0.28,0.24,-0.4,432.52400010009296,432.52400010009296,432.52400010009296,432.52400010009296,432.52400010009296,432.52400010009296,432.52400010009296,432.52400010009296,432.5023512000218,1.7370070000179112,return,1.6091706997249275,,,,,,,,,,,,,,,,,,,,,,,,,,,,,,,,,0E1T7F,train_x,blue_star,bottom_right,2025-02-10_14h40.11.770,HideSeek_v1,2022.2.5,60.300574242599325,
,5,3,0,3,-5,0,11,,train_dim1_1,10,30,,,,2,0,2,0,,,,,,,,,0,0,0,0,0,9,9,9,1,0,1,0,,,,,,,,,,,,,,,,,,,,,,,,,,,,,,,,,,,,,,,,,,,,,,,,,,,,,,,,,,,,,,,,30,,,,,,,,437.2919721000362,437.2919721000362,437.2919721000362,437.2919721000362,437.2919721000362,left,0.5264383999165148,8,0,0,99,0.07999999999999997,-0.16,left,0.44145289971493185,,,,,,,,,,,,,,,,,,,,,,,,,,,,,,,,,,,,,,,,,,,,,,,,,,,,,,,,,,,,0E1T7F,train_x,blue_star,bottom_right,2025-02-10_14h40.11.770,HideSeek_v1,2022.2.5,60.300574242599325,
,5,3,0,3,-5,0,11,,train_dim1_1,10,30,,,,2,0,2,0,,,,,,,,,0,0,0,0,0,9,9,9,2,0,2,0,,,,,,,,,,,,,,,,,,,,,,,,,,,,,,,,,,,,,,,,,,,,,,,,,,,,,,,,,,,,,,,,30,,,,,,,,437.8247835000511,437.8247835000511,437.8247835000511,437.8247835000511,437.8247835000511,left,0.6100463999900967,8,0,0,99,-2.7755575615628914e-17,-0.16,left,0.5170845999382436,,,,,,,,,,,,,,,,,,,,,,,,,,,,,,,,,,,,,,,,,,,,,,,,,,,,,,,,,,,,0E1T7F,train_x,blue_star,bottom_right,2025-02-10_14h40.11.770,HideSeek_v1,2022.2.5,60.300574242599325,
,5,3,0,3,-5,0,11,,train_dim1_1,10,30,,,,2,0,2,0,,,,,,,,,0,0,0,0,0,9,9,9,3,0,3,0,,,,,,,,,,,,,,,,,,,,,,,,,,,,,,,,,,,,,,,,,,,,,,,,,,,,,,,,,,,,,,,,30,,,,,,,,438.4417934999801,438.4417934999801,438.4417934999801,438.4417934999801,438.4417934999801,left,0.5934594999998808,8,0,0,99,-0.08000000000000003,-0.16,left,0.5111348000355065,,,,,,,,,,,,,,,,,,,,,,,,,,,,,,,,,,,,,,,,,,,,,,,,,,,,,,,,,,,,0E1T7F,train_x,blue_star,bottom_right,2025-02-10_14h40.11.770,HideSeek_v1,2022.2.5,60.300574242599325,
,5,3,0,3,-5,0,11,,train_dim1_1,10,30,,,,2,0,2,0,,,,,,,,,0,0,0,0,0,9,9,9,4,0,4,0,,,,,,,,,,,,,,,,,,,,,,,,,,,,,,,,,,,,,,,,,,,,,,,,,,,,,,,,,,,,,,,,30,,,,,,,,439.0411727000028,439.0411727000028,439.0411727000028,439.0411727000028,439.0411727000028,left,0.5103115001693368,8,0,0,99,-0.16000000000000003,-0.16,left,0.4256046998780221,,,,,,,,,,,,,,,,,,,,,,,,,,,,,,,,,,,,,,,,,,,,,,,,,,,,,,,,,,,,0E1T7F,train_x,blue_star,bottom_right,2025-02-10_14h40.11.770,HideSeek_v1,2022.2.5,60.300574242599325,
,5,3,0,3,-5,0,11,,train_dim1_1,10,30,,,,2,0,2,0,,,,,,,,,0,0,0,0,0,9,9,9,5,0,5,0,,,,,,,,,,,,,,,,,,,,,,,,,,,,,,,,,,,,,,,,,,,,,,,,,,,,,,,,,,,,,,,,30,,,,,,,,439.55859130015597,439.55859130015597,439.55859130015597,439.55859130015597,439.55859130015597,return,0.5100875000935048,9,0,0,1,-0.16000000000000003,-0.16,return,0.4253786997869611,0,-27,-0.16000000000000003,-0.16,,,,,,,,,,,,,,,,,,,,,,,,,,,,,,,,,,,,,,,,,,,,,,,,,,,,,,,,0E1T7F,train_x,blue_star,bottom_right,2025-02-10_14h40.11.770,HideSeek_v1,2022.2.5,60.300574242599325,
,7,2,4,2,-3,0,31,,train_dim1_1,11,30,,,,2,0,2,0,,,,,,,,,0,0,0,0,0,10,10,10,0,0,0,0,,,,,,,,,,,,,,,,,,,,,,,,,stimuli/alien_stimuli/31.png,,,,,,,,,,,,,,,,,,,,,,,,,,,,,stimuli/alien_stimuli/11.png,11,5,12,,,,,,,30,,,,,,,,444.80707830004394,444.80707830004394,444.80707830004394,444.80707830004394,444.80707830004394,left,2.0373583999462426,9,0,0,99,0.32,-0.24,left,1.9319782999809831,,,,,443.2279715000186,444.80707830004394,-0.16,-0.16,0.0,0.4,-0.16,-0.16,0.039999999999999994,-0.16,-0.16,441.63349459995516,441.63349459995516,441.63349459995516,441.63349459995516,441.63349459995516,441.63349459995516,441.63349459995516,441.63349459995516,441.6264250498265,1.7036163001321256,return,1.5643044000025839,,,,,,,,,,,,,,,,,,,,,,,,,,,,,,,,,0E1T7F,train_x,blue_star,bottom_right,2025-02-10_14h40.11.770,HideSeek_v1,2022.2.5,60.300574242599325,
,7,2,4,2,-3,0,31,,train_dim1_1,11,30,,,,2,0,2,0,,,,,,,,,0,0,0,0,0,10,10,10,1,0,1,0,,,,,,,,,,,,,,,,,,,,,,,,,,,,,,,,,,,,,,,,,,,,,,,,,,,,,,,,,,,,,,,,30,,,,,,,,446.82933600014076,446.82933600014076,446.82933600014076,446.82933600014076,446.82933600014076,left,0.45922600012272596,9,0,0,99,0.24,-0.24,left,0.37871849979273975,,,,,,,,,,,,,,,,,,,,,,,,,,,,,,,,,,,,,,,,,,,,,,,,,,,,,,,,,,,,0E1T7F,train_x,blue_star,bottom_right,2025-02-10_14h40.11.770,HideSeek_v1,2022.2.5,60.300574242599325,
,7,2,4,2,-3,0,31,,train_dim1_1,11,30,,,,2,0,2,0,,,,,,,,,0,0,0,0,0,10,10,10,2,0,2,0,,,,,,,,,,,,,,,,,,,,,,,,,,,,,,,,,,,,,,,,,,,,,,,,,,,,,,,,,,,,,,,,30,,,,,,,,447.29474560008384,447.29474560008384,447.29474560008384,447.29474560008384,447.29474560008384,left,0.5103970000054687,9,0,0,99,0.15999999999999998,-0.24,left,0.4347274999599904,,,,,,,,,,,,,,,,,,,,,,,,,,,,,,,,,,,,,,,,,,,,,,,,,,,,,,,,,,,,0E1T7F,train_x,blue_star,bottom_right,2025-02-10_14h40.11.770,HideSeek_v1,2022.2.5,60.300574242599325,
,7,2,4,2,-3,0,31,,train_dim1_1,11,30,,,,2,0,2,0,,,,,,,,,0,0,0,0,0,10,10,10,3,0,3,0,,,,,,,,,,,,,,,,,,,,,,,,,,,,,,,,,,,,,,,,,,,,,,,,,,,,,,,,,,,,,,,,30,,,,,,,,447.81155370012857,447.81155370012857,447.81155370012857,447.81155370012857,447.81155370012857,return,1.577478799968958,10,0,0,1,0.15999999999999998,-0.24,return,1.5006953000556678,0,-30,0.15999999999999998,-0.24,,,,,,,,,,,,,,,,,,,,,,,,,,,,,,,,,,,,,,,,,,,,,,,,,,,,,,,,0E1T7F,train_x,blue_star,bottom_right,2025-02-10_14h40.11.770,HideSeek_v1,2022.2.5,60.300574242599325,
,5,0,1,0,-4,0,21,,train_dim1_1,12,30,,,,2,0,2,0,,,,,,,,,0,0,0,0,0,11,11,11,0,0,0,0,,,,,,,,,,,,,,,,,,,,,,,,,stimuli/alien_stimuli/21.png,,,,,,,,,,,,,,,,,,,,,,,,,,,,,stimuli/alien_stimuli/31.png,31,7,13,,,,,,,30,,,,,,,,454.25157990003936,454.25157990003936,454.25157990003936,454.25157990003936,454.25157990003936,left,2.590620500035584,10,0,0,99,0.15999999999999998,-0.4,left,2.487620199797675,,,,,452.66929100011475,454.25157990003936,0.16,-0.24,0.0,0.24,-0.24,0.16,0.28,0.16,-0.24,450.95206589996815,450.95206589996815,450.95206589996815,450.95206589996815,450.95206589996815,450.95206589996815,450.95206589996815,450.95206589996815,450.93414149996823,1.8203557999804616,return,1.6859037999529392,,,,,,,,,,,,,,,,,,,,,,,,,,,,,,,,,0E1T7F,train_x,blue_star,bottom_right,2025-02-10_14h40.11.770,HideSeek_v1,2022.2.5,60.300574242599325,
,5,0,1,0,-4,0,21,,train_dim1_1,12,30,,,,2,0,2,0,,,,,,,,,0,0,0,0,0,11,11,11,1,0,1,0,,,,,,,,,,,,,,,,,,,,,,,,,,,,,,,,,,,,,,,,,,,,,,,,,,,,,,,,,,,,,,,,30,,,,,,,,456.8269246001728,456.8269246001728,456.8269246001728,456.8269246001728,456.8269246001728,left,0.9410683000460267,10,0,0,99,0.07999999999999997,-0.4,left,0.8610133999027312,,,,,,,,,,,,,,,,,,,,,,,,,,,,,,,,,,,,,,,,,,,,,,,,,,,,,,,,,,,,0E1T7F,train_x,blue_star,bottom_right,2025-02-10_14h40.11.770,HideSeek_v1,2022.2.5,60.300574242599325,
,5,0,1,0,-4,0,21,,train_dim1_1,12,30,,,,2,0,2,0,,,,,,,,,0,0,0,0,0,11,11,11,2,0,2,0,,,,,,,,,,,,,,,,,,,,,,,,,,,,,,,,,,,,,,,,,,,,,,,,,,,,,,,,,,,,,,,,30,,,,,,,,457.773488300154,457.773488300154,457.773488300154,457.773488300154,457.773488300154,left,0.8103003001306206,10,0,0,99,-2.7755575615628914e-17,-0.4,left,0.7224768998567015,,,,,,,,,,,,,,,,,,,,,,,,,,,,,,,,,,,,,,,,,,,,,,,,,,,,,,,,,,,,0E1T7F,train_x,blue_star,bottom_right,2025-02-10_14h40.11.770,HideSeek_v1,2022.2.5,60.300574242599325,
,5,0,1,0,-4,0,21,,train_dim1_1,12,30,,,,2,0,2,0,,,,,,,,,0,0,0,0,0,11,11,11,3,0,3,0,,,,,,,,,,,,,,,,,,,,,,,,,,,,,,,,,,,,,,,,,,,,,,,,,,,,,,,,,,,,,,,,30,,,,,,,,458.59062679996714,458.59062679996714,458.59062679996714,458.59062679996714,458.59062679996714,left,0.8602191000245512,10,0,0,99,-0.08000000000000003,-0.4,left,0.7754302998073399,,,,,,,,,,,,,,,,,,,,,,,,,,,,,,,,,,,,,,,,,,,,,,,,,,,,,,,,,,,,0E1T7F,train_x,blue_star,bottom_right,2025-02-10_14h40.11.770,HideSeek_v1,2022.2.5,60.300574242599325,
,5,0,1,0,-4,0,21,,train_dim1_1,12,30,,,,2,0,2,0,,,,,,,,,0,0,0,0,0,11,11,11,4,0,4,0,,,,,,,,,,,,,,,,,,,,,,,,,,,,,,,,,,,,,,,,,,,,,,,,,,,,,,,,,,,,,,,,30,,,,,,,,459.4578959001228,459.4578959001228,459.4578959001228,459.4578959001228,459.4578959001228,return,0.6100929998792708,11,0,0,1,-0.08000000000000003,-0.4,return,0.5341455999296159,0,-34,-0.08000000000000003,-0.4,,,,,,,,,,,,,,,,,,,,,,,,,,,,,,,,,,,,,,,,,,,,,,,,,,,,,,,,0E1T7F,train_x,blue_star,bottom_right,2025-02-10_14h40.11.770,HideSeek_v1,2022.2.5,60.300574242599325,
,5,4,4,4,-1,0,51,,train_dim1_1,13,30,,,,2,0,2,0,,,,,,,,,0,0,0,0,0,12,12,12,0,0,0,0,,,,,,,,,,,,,,,,,,,,,,,,,stimuli/alien_stimuli/51.png,,,,,,,,,,,,,,,,,,,,,,,,,,,,,stimuli/alien_stimuli/21.png,21,5,14,,,,,,,30,,,,,,,,466.9114920999855,466.9114920999855,466.9114920999855,466.9114920999855,466.9114920999855,left,1.302099300082773,11,0,0,99,0.15999999999999998,-0.08,left,1.2061507999897003,,,,,465.34644590015523,466.9114920999855,-0.08,-0.4,0.0,0.32,-0.4,-0.08,0.07999999999999999,-0.08,-0.4,461.65158720011823,461.65158720011823,461.65158720011823,461.65158720011823,461.65158720011823,461.65158720011823,461.65158720011823,461.65158720011823,461.64312759987075,3.8217901999596506,return,3.6681042998097837,,,,,,,,,,,,,,,,,,,,,,,,,,,,,,,,,0E1T7F,train_x,blue_star,bottom_right,2025-02-10_14h40.11.770,HideSeek_v1,2022.2.5,60.300574242599325,
,5,4,4,4,-1,0,51,,train_dim1_1,13,30,,,,2,0,2,0,,,,,,,,,0,0,0,0,0,12,12,12,1,0,1,0,,,,,,,,,,,,,,,,,,,,,,,,,,,,,,,,,,,,,,,,,,,,,,,,,,,,,,,,,,,,,,,,30,,,,,,,,468.21571859996766,468.21571859996766,468.21571859996766,468.21571859996766,468.21571859996766,return,0.40996209997683764,12,0,0,1,0.15999999999999998,-0.08,return,0.3322325998451561,0,-35,0.15999999999999998,-0.08,,,,,,,,,,,,,,,,,,,,,,,,,,,,,,,,,,,,,,,,,,,,,,,,,,,,,,,,0E1T7F,train_x,blue_star,bottom_right,2025-02-10_14h40.11.770,HideSeek_v1,2022.2.5,60.300574242599325,
,9,3,4,3,-5,0,11,,train_dim1_1,14,30,,,,2,0,2,0,,,,,,,,,0,0,0,0,0,13,13,13,0,0,0,0,,,,,,,,,,,,,,,,,,,,,,,,,stimuli/alien_stimuli/11.png,,,,,,,,,,,,,,,,,,,,,,,,,,,,,stimuli/alien_stimuli/51.png,51,5,15,,,,,,,30,,,,,,,,473.280018000165,473.280018000165,473.280018000165,473.280018000165,473.280018000165,left,1.388150200014934,12,0,0,99,0.48000000000000004,-0.16,left,1.278690999839455,,,,,471.70191890001297,473.280018000165,0.16,-0.08,0.0,0.08,-0.08,0.16,0.2,0.16,-0.08,470.1886064000428,470.1886064000428,470.1886064000428,470.1886064000428,470.1886064000428,470.1886064000428,470.1886064000428,470.1886064000428,470.16681399992666,1.6201561000198126,return,1.4898637998849154,,,,,,,,,,,,,,,,,,,,,,,,,,,,,,,,,0E1T7F,train_x,blue_star,bottom_right,2025-02-10_14h40.11.770,HideSeek_v1,2022.2.5,60.300574242599325,
,9,3,4,3,-5,0,11,,train_dim1_1,14,30,,,,2,0,2,0,,,,,,,,,0,0,0,0,0,13,13,13,1,0,1,0,,,,,,,,,,,,,,,,,,,,,,,,,,,,,,,,,,,,,,,,,,,,,,,,,,,,,,,,,,,,,,,,30,,,,,,,,474.66266320017166,474.66266320017166,474.66266320017166,474.66266320017166,474.66266320017166,left,0.3710895001422614,12,0,0,99,0.4,-0.16,left,0.2917815998662263,,,,,,,,,,,,,,,,,,,,,,,,,,,,,,,,,,,,,,,,,,,,,,,,,,,,,,,,,,,,0E1T7F,train_x,blue_star,bottom_right,2025-02-10_14h40.11.770,HideSeek_v1,2022.2.5,60.300574242599325,
,9,3,4,3,-5,0,11,,train_dim1_1,14,30,,,,2,0,2,0,,,,,,,,,0,0,0,0,0,13,13,13,2,0,2,0,,,,,,,,,,,,,,,,,,,,,,,,,,,,,,,,,,,,,,,,,,,,,,,,,,,,,,,,,,,,,,,,30,,,,,,,,475.0377297999803,475.0377297999803,475.0377297999803,475.0377297999803,475.0377297999803,left,0.4764568000100553,12,0,0,99,0.32,-0.16,left,0.38563259970396757,,,,,,,,,,,,,,,,,,,,,,,,,,,,,,,,,,,,,,,,,,,,,,,,,,,,,,,,,,,,0E1T7F,train_x,blue_star,bottom_right,2025-02-10_14h40.11.770,HideSeek_v1,2022.2.5,60.300574242599325,
,9,3,4,3,-5,0,11,,train_dim1_1,14,30,,,,2,0,2,0,,,,,,,,,0,0,0,0,0,13,13,13,3,0,3,0,,,,,,,,,,,,,,,,,,,,,,,,,,,,,,,,,,,,,,,,,,,,,,,,,,,,,,,,,,,,,,,,30,,,,,,,,475.52190160006285,475.52190160006285,475.52190160006285,475.52190160006285,475.52190160006285,left,0.443608800182119,12,0,0,99,0.24,-0.16,left,0.3594636998604983,,,,,,,,,,,,,,,,,,,,,,,,,,,,,,,,,,,,,,,,,,,,,,,,,,,,,,,,,,,,0E1T7F,train_x,blue_star,bottom_right,2025-02-10_14h40.11.770,HideSeek_v1,2022.2.5,60.300574242599325,
,9,3,4,3,-5,0,11,,train_dim1_1,14,30,,,,2,0,2,0,,,,,,,,,0,0,0,0,0,13,13,13,4,0,4,0,,,,,,,,,,,,,,,,,,,,,,,,,,,,,,,,,,,,,,,,,,,,,,,,,,,,,,,,,,,,,,,,30,,,,,,,,475.9714289000258,475.9714289000258,475.9714289000258,475.9714289000258,475.9714289000258,left,0.4436186000239104,12,0,0,99,0.15999999999999998,-0.16,left,0.36322319973260164,,,,,,,,,,,,,,,,,,,,,,,,,,,,,,,,,,,,,,,,,,,,,,,,,,,,,,,,,,,,0E1T7F,train_x,blue_star,bottom_right,2025-02-10_14h40.11.770,HideSeek_v1,2022.2.5,60.300574242599325,
,9,3,4,3,-5,0,11,,train_dim1_1,14,30,,,,2,0,2,0,,,,,,,,,0,0,0,0,0,13,13,13,5,0,5,0,,,,,,,,,,,,,,,,,,,,,,,,,,,,,,,,,,,,,,,,,,,,,,,,,,,,,,,,,,,,,,,,30,,,,,,,,476.4226238001138,476.4226238001138,476.4226238001138,476.4226238001138,476.4226238001138,return,0.5100660000462085,13,0,0,1,0.15999999999999998,-0.16,return,0.43277319986373186,0,-40,0.15999999999999998,-0.16,,,,,,,,,,,,,,,,,,,,,,,,,,,,,,,,,,,,,,,,,,,,,,,,,,,,,,,,0E1T7F,train_x,blue_star,bottom_right,2025-02-10_14h40.11.770,HideSeek_v1,2022.2.5,60.300574242599325,
,9,2,9,2,0,0,61,,train_dim1_1,15,30,,,,2,0,2,0,,,,,,,,,0,0,0,0,0,14,14,14,0,0,0,0,,,,,,,,,,,,,,,,,,,,,,,,,stimuli/alien_stimuli/61.png,,,,,,,,,,,,,,,,,,,,,,,,,,,,,stimuli/alien_stimuli/11.png,11,9,16,,,,,,,30,,,,,,,,481.07278580009006,481.07278580009006,481.07278580009006,481.07278580009006,481.07278580009006,return,1.0700137000530958,14,0,0,1,0.56,-0.24,return,0.9710476999171078,0,-40,0.56,-0.24,479.4916455000639,481.07278580009006,0.16,-0.16,0.0,0.4,-0.16,0.16,0.36000000000000004,0.16,-0.16,478.4967946000397,478.4967946000397,478.4967946000397,478.4967946000397,478.4967946000397,478.4967946000397,478.4967946000397,478.4967946000397,478.4903228500392,1.1031812999863178,return,0.9733013999648392,,,,,,,,,,,,,,,,,,,,,,,,,,,,,,,,,0E1T7F,train_x,blue_star,bottom_right,2025-02-10_14h40.11.770,HideSeek_v1,2022.2.5,60.300574242599325,
,8,3,7,3,-1,0,51,,train_dim1_1,16,30,,,,2,0,2,0,,,,,,,,,0,0,0,0,0,15,15,15,0,0,0,0,,,,,,,,,,,,,,,,,,,,,,,,,stimuli/alien_stimuli/51.png,,,,,,,,,,,,,,,,,,,,,,,,,,,,,stimuli/alien_stimuli/61.png,61,9,17,,,,,,,30,,,,,,,,486.49502460006624,486.49502460006624,486.49502460006624,486.49502460006624,486.49502460006624,left,1.1375446999445558,14,0,0,99,0.39999999999999997,-0.16,left,1.0459060999564826,,,,,484.9294217999559,486.49502460006624,0.56,-0.24,0.0,0.0,-0.24,0.56,0.56,0.56,-0.24,483.6825954001397,483.6825954001397,483.6825954001397,483.6825954001397,483.6825954001397,483.6825954001397,483.6825954001397,483.6825954001397,483.66143070003017,1.3534200999420136,return,1.2303863000124693,,,,,,,,,,,,,,,,,,,,,,,,,,,,,,,,,0E1T7F,train_x,blue_star,bottom_right,2025-02-10_14h40.11.770,HideSeek_v1,2022.2.5,60.300574242599325,
,8,3,7,3,-1,0,51,,train_dim1_1,16,30,,,,2,0,2,0,,,,,,,,,0,0,0,0,0,15,15,15,1,0,1,0,,,,,,,,,,,,,,,,,,,,,,,,,,,,,,,,,,,,,,,,,,,,,,,,,,,,,,,,,,,,,,,,30,,,,,,,,487.63064190000296,487.63064190000296,487.63064190000296,487.63064190000296,487.63064190000296,return,0.5421541000250727,15,0,0,1,0.39999999999999997,-0.16,return,0.4608891997486353,0,-41,0.39999999999999997,-0.16,,,,,,,,,,,,,,,,,,,,,,,,,,,,,,,,,,,,,,,,,,,,,,,,,,,,,,,,0E1T7F,train_x,blue_star,bottom_right,2025-02-10_14h40.11.770,HideSeek_v1,2022.2.5,60.300574242599325,
,7,4,3,4,-4,0,21,,train_dim1_1,17,30,,,,2,0,2,0,,,,,,,,,0,0,0,0,0,16,16,16,0,0,0,0,,,,,,,,,,,,,,,,,,,,,,,,,stimuli/alien_stimuli/21.png,,,,,,,,,,,,,,,,,,,,,,,,,,,,,stimuli/alien_stimuli/51.png,51,8,18,,,,,,,30,,,,,,,,492.6148268999532,492.6148268999532,492.6148268999532,492.6148268999532,492.6148268999532,left,1.0376633000560105,15,0,0,99,0.32,-0.08,left,0.9486407998483628,,,,,491.05117850005627,492.6148268999532,0.4,-0.16,0.0,0.08,-0.16,0.4,0.44,0.4,-0.16,489.73989640013315,489.73989640013315,489.73989640013315,489.73989640013315,489.73989640013315,489.73989640013315,489.73989640013315,489.73989640013315,489.73299244986845,1.4199482998810709,return,1.2923205997794867,,,,,,,,,,,,,,,,,,,,,,,,,,,,,,,,,0E1T7F,train_x,blue_star,bottom_right,2025-02-10_14h40.11.770,HideSeek_v1,2022.2.5,60.300574242599325,
,7,4,3,4,-4,0,21,,train_dim1_1,17,30,,,,2,0,2,0,,,,,,,,,0,0,0,0,0,16,16,16,1,0,1,0,,,,,,,,,,,,,,,,,,,,,,,,,,,,,,,,,,,,,,,,,,,,,,,,,,,,,,,,,,,,,,,,30,,,,,,,,493.65390809997916,493.65390809997916,493.65390809997916,493.65390809997916,493.65390809997916,left,0.5766739998944104,15,0,0,99,0.24,-0.08,left,0.49208379979245365,,,,,,,,,,,,,,,,,,,,,,,,,,,,,,,,,,,,,,,,,,,,,,,,,,,,,,,,,,,,0E1T7F,train_x,blue_star,bottom_right,2025-02-10_14h40.11.770,HideSeek_v1,2022.2.5,60.300574242599325,
,7,4,3,4,-4,0,21,,train_dim1_1,17,30,,,,2,0,2,0,,,,,,,,,0,0,0,0,0,16,16,16,2,0,2,0,,,,,,,,,,,,,,,,,,,,,,,,,,,,,,,,,,,,,,,,,,,,,,,,,,,,,,,,,,,,,,,,30,,,,,,,,494.2368942000903,494.2368942000903,494.2368942000903,494.2368942000903,494.2368942000903,left,0.6435074999462813,15,0,0,99,0.15999999999999998,-0.08,left,0.5626335998531431,,,,,,,,,,,,,,,,,,,,,,,,,,,,,,,,,,,,,,,,,,,,,,,,,,,,,,,,,,,,0E1T7F,train_x,blue_star,bottom_right,2025-02-10_14h40.11.770,HideSeek_v1,2022.2.5,60.300574242599325,
,7,4,3,4,-4,0,21,,train_dim1_1,17,30,,,,2,0,2,0,,,,,,,,,0,0,0,0,0,16,16,16,3,0,3,0,,,,,,,,,,,,,,,,,,,,,,,,,,,,,,,,,,,,,,,,,,,,,,,,,,,,,,,,,,,,,,,,30,,,,,,,,494.88734110002406,494.88734110002406,494.88734110002406,494.88734110002406,494.88734110002406,left,2.3951131999492645,15,0,0,99,0.07999999999999997,-0.08,left,2.313937099883333,,,,,,,,,,,,,,,,,,,,,,,,,,,,,,,,,,,,,,,,,,,,,,,,,,,,,,,,,,,,0E1T7F,train_x,blue_star,bottom_right,2025-02-10_14h40.11.770,HideSeek_v1,2022.2.5,60.300574242599325,
,7,4,3,4,-4,0,21,,train_dim1_1,17,30,,,,2,0,2,0,,,,,,,,,0,0,0,0,0,16,16,16,4,0,4,0,,,,,,,,,,,,,,,,,,,,,,,,,,,,,,,,,,,,,,,,,,,,,,,,,,,,,,,,,,,,,,,,30,,,,,,,,497.2895659999922,497.2895659999922,497.2895659999922,497.2895659999922,497.2895659999922,return,0.6267174000386149,16,0,0,1,0.07999999999999997,-0.08,return,0.5438542999327183,0,-45,0.07999999999999997,-0.08,,,,,,,,,,,,,,,,,,,,,,,,,,,,,,,,,,,,,,,,,,,,,,,,,,,,,,,,0E1T7F,train_x,blue_star,bottom_right,2025-02-10_14h40.11.770,HideSeek_v1,2022.2.5,60.300574242599325,
,7,1,7,1,0,0,61,,train_dim1_1,18,30,,,,2,0,2,0,,,,,,,,,0,0,0,0,0,17,17,17,0,0,0,0,,,,,,,,,,,,,,,,,,,,,,,,,stimuli/alien_stimuli/61.png,,,,,,,,,,,,,,,,,,,,,,,,,,,,,stimuli/alien_stimuli/21.png,21,7,19,,,,,,,30,,,,,,,,502.0577330000233,502.0577330000233,502.0577330000233,502.0577330000233,502.0577330000233,return,1.3700290000997484,17,0,0,1,0.4,-0.32,return,1.2616554996930063,0,-45,0.4,-0.32,500.4757342999801,502.0577330000233,0.08,-0.08,0.0,0.32,-0.08,0.08,0.24000000000000002,0.08,-0.08,499.48525739996694,499.48525739996694,499.48525739996694,499.48525739996694,499.48525739996694,499.48525739996694,499.48525739996694,499.48525739996694,499.47448014989493,1.1028678000438958,return,0.9679491997230798,,,,,,,,,,,,,,,,,,,,,,,,,,,,,,,,,0E1T7F,train_x,blue_star,bottom_right,2025-02-10_14h40.11.770,HideSeek_v1,2022.2.5,60.300574242599325,
,5,3,2,3,-3,0,31,,train_dim1_1,19,30,,,,2,0,2,0,,,,,,,,,0,0,0,0,0,18,18,18,0,0,0,0,,,,,,,,,,,,,,,,,,,,,,,,,stimuli/alien_stimuli/31.png,,,,,,,,,,,,,,,,,,,,,,,,,,,,,stimuli/alien_stimuli/61.png,61,7,20,,,,,,,30,,,,,,,,507.2422319999896,507.2422319999896,507.2422319999896,507.2422319999896,507.2422319999896,left,1.6701269999612123,17,0,0,99,0.15999999999999998,-0.16,left,1.585635299794376,,,,,505.67985870013945,507.2422319999896,0.4,-0.32,0.0,0.0,-0.32,0.4,0.4,0.4,-0.32,504.96619549999014,504.96619549999014,504.96619549999014,504.96619549999014,504.96619549999014,504.96619549999014,504.96619549999014,504.96619549999014,504.9458011000417,0.8194657999556512,return,0.6970761998090893,,,,,,,,,,,,,,,,,,,,,,,,,,,,,,,,,0E1T7F,train_x,blue_star,bottom_right,2025-02-10_14h40.11.770,HideSeek_v1,2022.2.5,60.300574242599325,
,5,3,2,3,-3,0,31,,train_dim1_1,19,30,,,,2,0,2,0,,,,,,,,,0,0,0,0,0,18,18,18,1,0,1,0,,,,,,,,,,,,,,,,,,,,,,,,,,,,,,,,,,,,,,,,,,,,,,,,,,,,,,,,,,,,,,,,30,,,,,,,,508.9135410999879,508.9135410999879,508.9135410999879,508.9135410999879,508.9135410999879,left,0.3928384000901133,17,0,0,99,0.07999999999999997,-0.16,left,0.31688259984366596,,,,,,,,,,,,,,,,,,,,,,,,,,,,,,,,,,,,,,,,,,,,,,,,,,,,,,,,,,,,0E1T7F,train_x,blue_star,bottom_right,2025-02-10_14h40.11.770,HideSeek_v1,2022.2.5,60.300574242599325,
,5,3,2,3,-3,0,31,,train_dim1_1,19,30,,,,2,0,2,0,,,,,,,,,0,0,0,0,0,18,18,18,2,0,2,0,,,,,,,,,,,,,,,,,,,,,,,,,,,,,,,,,,,,,,,,,,,,,,,,,,,,,,,,,,,,,,,,30,,,,,,,,509.3138709999621,509.3138709999621,509.3138709999621,509.3138709999621,509.3138709999621,left,0.3598575999494642,17,0,0,99,-2.7755575615628914e-17,-0.16,left,0.27779789990745485,,,,,,,,,,,,,,,,,,,,,,,,,,,,,,,,,,,,,,,,,,,,,,,,,,,,,,,,,,,,0E1T7F,train_x,blue_star,bottom_right,2025-02-10_14h40.11.770,HideSeek_v1,2022.2.5,60.300574242599325,
,5,3,2,3,-3,0,31,,train_dim1_1,19,30,,,,2,0,2,0,,,,,,,,,0,0,0,0,0,18,18,18,3,0,3,0,,,,,,,,,,,,,,,,,,,,,,,,,,,,,,,,,,,,,,,,,,,,,,,,,,,,,,,,,,,,,,,,30,,,,,,,,509.6797807000112,509.6797807000112,509.6797807000112,509.6797807000112,509.6797807000112,return,0.3765595001168549,18,0,0,1,-2.7755575615628914e-17,-0.16,return,0.3036059997975826,0,-48,-2.7755575615628914e-17,-0.16,,,,,,,,,,,,,,,,,,,,,,,,,,,,,,,,,,,,,,,,,,,,,,,,,,,,,,,,0E1T7F,train_x,blue_star,bottom_right,2025-02-10_14h40.11.770,HideSeek_v1,2022.2.5,60.300574242599325,
,5,1,0,1,-5,0,11,,train_dim1_1,20,30,,,,2,0,2,0,,,,,,,,,0,0,0,0,0,19,19,19,0,0,0,0,,,,,,,,,,,,,,,,,,,,,,,,,stimuli/alien_stimuli/11.png,,,,,,,,,,,,,,,,,,,,,,,,,,,,,stimuli/alien_stimuli/31.png,31,5,21,,,,,,,30,,,,,,,,514.647707800148,514.647707800148,514.647707800148,514.647707800148,514.647707800148,left,1.5232307999394834,18,0,0,99,0.15999999999999998,-0.32,left,1.4358304999768734,,,,,513.0860995000694,514.647707800148,0,-0.16,0.0,0.24,-0.16,0,0.12,0,-0.16,511.62054869998246,511.62054869998246,511.62054869998246,511.62054869998246,511.62054869998246,511.62054869998246,511.62054869998246,511.62054869998246,511.60115289995446,1.5700976999942213,return,1.4376653998624533,,,,,,,,,,,,,,,,,,,,,,,,,,,,,,,,,0E1T7F,train_x,blue_star,bottom_right,2025-02-10_14h40.11.770,HideSeek_v1,2022.2.5,60.300574242599325,
,5,1,0,1,-5,0,11,,train_dim1_1,20,30,,,,2,0,2,0,,,,,,,,,0,0,0,0,0,19,19,19,1,0,1,0,,,,,,,,,,,,,,,,,,,,,,,,,,,,,,,,,,,,,,,,,,,,,,,,,,,,,,,,,,,,,,,,30,,,,,,,,516.1724221000914,516.1724221000914,516.1724221000914,516.1724221000914,516.1724221000914,left,0.47607009997591376,18,0,0,99,0.07999999999999997,-0.32,left,0.39953919989056885,,,,,,,,,,,,,,,,,,,,,,,,,,,,,,,,,,,,,,,,,,,,,,,,,,,,,,,,,,,,0E1T7F,train_x,blue_star,bottom_right,2025-02-10_14h40.11.770,HideSeek_v1,2022.2.5,60.300574242599325,
,5,1,0,1,-5,0,11,,train_dim1_1,20,30,,,,2,0,2,0,,,,,,,,,0,0,0,0,0,19,19,19,2,0,2,0,,,,,,,,,,,,,,,,,,,,,,,,,,,,,,,,,,,,,,,,,,,,,,,,,,,,,,,,,,,,,,,,30,,,,,,,,516.657271400094,516.657271400094,516.657271400094,516.657271400094,516.657271400094,left,0.526322899851948,18,0,0,99,-2.7755575615628914e-17,-0.32,left,0.4421176000032574,,,,,,,,,,,,,,,,,,,,,,,,,,,,,,,,,,,,,,,,,,,,,,,,,,,,,,,,,,,,0E1T7F,train_x,blue_star,bottom_right,2025-02-10_14h40.11.770,HideSeek_v1,2022.2.5,60.300574242599325,
,5,1,0,1,-5,0,11,,train_dim1_1,20,30,,,,2,0,2,0,,,,,,,,,0,0,0,0,0,19,19,19,3,0,3,0,,,,,,,,,,,,,,,,,,,,,,,,,,,,,,,,,,,,,,,,,,,,,,,,,,,,,,,,,,,,,,,,30,,,,,,,,517.193024800159,517.193024800159,517.193024800159,517.193024800159,517.193024800159,left,0.47642600000835955,18,0,0,99,-0.08000000000000003,-0.32,left,0.39419959974475205,,,,,,,,,,,,,,,,,,,,,,,,,,,,,,,,,,,,,,,,,,,,,,,,,,,,,,,,,,,,0E1T7F,train_x,blue_star,bottom_right,2025-02-10_14h40.11.770,HideSeek_v1,2022.2.5,60.300574242599325,
,5,1,0,1,-5,0,11,,train_dim1_1,20,30,,,,2,0,2,0,,,,,,,,,0,0,0,0,0,19,19,19,4,0,4,0,,,,,,,,,,,,,,,,,,,,,,,,,,,,,,,,,,,,,,,,,,,,,,,,,,,,,,,,,,,,,,,,30,,,,,,,,517.6744592001196,517.6744592001196,517.6744592001196,517.6744592001196,517.6744592001196,left,0.5271234998945147,18,0,0,99,-0.16000000000000003,-0.32,left,0.4342453998979181,,,,,,,,,,,,,,,,,,,,,,,,,,,,,,,,,,,,,,,,,,,,,,,,,,,,,,,,,,,,0E1T7F,train_x,blue_star,bottom_right,2025-02-10_14h40.11.770,HideSeek_v1,2022.2.5,60.300574242599325,
,5,1,0,1,-5,0,11,,train_dim1_1,20,30,,,,2,0,2,0,,,,,,,,,0,0,0,0,0,19,19,19,5,0,5,0,,,,,,,,,,,,,,,,,,,,,,,,,,,,,,,,,,,,,,,,,,,,,,,,,,,,,,,,,,,,,,,,30,,,,,,,,518.2126972000115,518.2126972000115,518.2126972000115,518.2126972000115,518.2126972000115,return,0.5930612999945879,19,0,0,1,-0.16000000000000003,-0.32,return,0.4982449000235647,0,-53,-0.16000000000000003,-0.32,,,,,,,,,,,,,,,,,,,,,,,,,,,,,,,,,,,,,,,,,,,,,,,,,,,,,,,,0E1T7F,train_x,blue_star,bottom_right,2025-02-10_14h40.11.770,HideSeek_v1,2022.2.5,60.300574242599325,
,9,2,6,2,-3,0,31,,train_dim1_1,21,30,,,,2,0,2,0,,,,,,,,,0,0,0,0,0,20,20,20,0,0,0,0,,,,,,,,,,,,,,,,,,,,,,,,,stimuli/alien_stimuli/31.png,,,,,,,,,,,,,,,,,,,,,,,,,,,,,stimuli/alien_stimuli/11.png,11,5,22,,,,,,,30,,,,,,,,524.2040858000983,524.2040858000983,524.2040858000983,524.2040858000983,524.2040858000983,left,4.557858099928126,19,0,0,99,0.48000000000000004,-0.24,left,4.450763699831441,,,,,522.6272005001083,524.2040858000983,-0.16,-0.32,0.0,0.4,-0.32,-0.16,0.039999999999999994,-0.16,-0.32,520.3687583999708,520.3687583999708,520.3687583999708,520.3687583999708,520.3687583999708,520.3687583999708,520.3687583999708,520.3687583999708,520.3583551499528,2.3708991000894457,return,2.2270118999294937,,,,,,,,,,,,,,,,,,,,,,,,,,,,,,,,,0E1T7F,train_x,blue_star,bottom_right,2025-02-10_14h40.11.770,HideSeek_v1,2022.2.5,60.300574242599325,
,9,2,6,2,-3,0,31,,train_dim1_1,21,30,,,,2,0,2,0,,,,,,,,,0,0,0,0,0,20,20,20,1,0,1,0,,,,,,,,,,,,,,,,,,,,,,,,,,,,,,,,,,,,,,,,,,,,,,,,,,,,,,,,,,,,,,,,30,,,,,,,,528.7475815999787,528.7475815999787,528.7475815999787,528.7475815999787,528.7475815999787,left,0.35968109988607466,19,0,0,99,0.4,-0.24,left,0.2735252999700606,,,,,,,,,,,,,,,,,,,,,,,,,,,,,,,,,,,,,,,,,,,,,,,,,,,,,,,,,,,,0E1T7F,train_x,blue_star,bottom_right,2025-02-10_14h40.11.770,HideSeek_v1,2022.2.5,60.300574242599325,
,9,2,6,2,-3,0,31,,train_dim1_1,21,30,,,,2,0,2,0,,,,,,,,,0,0,0,0,0,20,20,20,2,0,2,0,,,,,,,,,,,,,,,,,,,,,,,,,,,,,,,,,,,,,,,,,,,,,,,,,,,,,,,,,,,,,,,,30,,,,,,,,529.1127123001497,529.1127123001497,529.1127123001497,529.1127123001497,529.1127123001497,left,0.2933654999360442,19,0,0,99,0.32,-0.24,left,0.2154193997848779,,,,,,,,,,,,,,,,,,,,,,,,,,,,,,,,,,,,,,,,,,,,,,,,,,,,,,,,,,,,0E1T7F,train_x,blue_star,bottom_right,2025-02-10_14h40.11.770,HideSeek_v1,2022.2.5,60.300574242599325,
,9,2,6,2,-3,0,31,,train_dim1_1,21,30,,,,2,0,2,0,,,,,,,,,0,0,0,0,0,20,20,20,3,0,3,0,,,,,,,,,,,,,,,,,,,,,,,,,,,,,,,,,,,,,,,,,,,,,,,,,,,,,,,,,,,,,,,,30,,,,,,,,529.4124674000777,529.4124674000777,529.4124674000777,529.4124674000777,529.4124674000777,return,1.2108823000453413,20,0,0,1,0.32,-0.24,return,1.1237929000053555,0,-56,0.32,-0.24,,,,,,,,,,,,,,,,,,,,,,,,,,,,,,,,,,,,,,,,,,,,,,,,,,,,,,,,0E1T7F,train_x,blue_star,bottom_right,2025-02-10_14h40.11.770,HideSeek_v1,2022.2.5,60.300574242599325,
,6,0,2,0,-4,0,21,,train_dim1_1,22,30,,,,2,0,2,0,,,,,,,,,0,0,0,0,0,21,21,21,0,0,0,0,,,,,,,,,,,,,,,,,,,,,,,,,stimuli/alien_stimuli/21.png,,,,,,,,,,,,,,,,,,,,,,,,,,,,,stimuli/alien_stimuli/31.png,31,9,23,,,,,,,30,,,,,,,,536.4341843000147,536.4341843000147,536.4341843000147,536.4341843000147,536.4341843000147,left,1.8903479999862611,20,0,0,99,0.24,-0.4,left,1.7987679997459054,,,,,534.8710173000582,536.4341843000147,0.32,-0.24,0.0,0.24,-0.24,0.32,0.44000000000000006,0.32,-0.24,532.188570600003,532.188570600003,532.188570600003,532.188570600003,532.188570600003,532.188570600003,532.188570600003,532.188570600003,532.1682246998419,2.7880775001831353,return,2.6575176999904215,,,,,,,,,,,,,,,,,,,,,,,,,,,,,,,,,0E1T7F,train_x,blue_star,bottom_right,2025-02-10_14h40.11.770,HideSeek_v1,2022.2.5,60.300574242599325,
,6,0,2,0,-4,0,21,,train_dim1_1,22,30,,,,2,0,2,0,,,,,,,,,0,0,0,0,0,21,21,21,1,0,1,0,,,,,,,,,,,,,,,,,,,,,,,,,,,,,,,,,,,,,,,,,,,,,,,,,,,,,,,,,,,,,,,,30,,,,,,,,538.3242289000191,538.3242289000191,538.3242289000191,538.3242289000191,538.3242289000191,left,0.4766434000339359,20,0,0,99,0.15999999999999998,-0.4,left,0.3916922998614609,,,,,,,,,,,,,,,,,,,,,,,,,,,,,,,,,,,,,,,,,,,,,,,,,,,,,,,,,,,,0E1T7F,train_x,blue_star,bottom_right,2025-02-10_14h40.11.770,HideSeek_v1,2022.2.5,60.300574242599325,
,6,0,2,0,-4,0,21,,train_dim1_1,22,30,,,,2,0,2,0,,,,,,,,,0,0,0,0,0,21,21,21,2,0,2,0,,,,,,,,,,,,,,,,,,,,,,,,,,,,,,,,,,,,,,,,,,,,,,,,,,,,,,,,,,,,,,,,30,,,,,,,,538.8081632000394,538.8081632000394,538.8081632000394,538.8081632000394,538.8081632000394,left,0.5100486997980624,20,0,0,99,0.07999999999999997,-0.4,left,0.43038549995981157,,,,,,,,,,,,,,,,,,,,,,,,,,,,,,,,,,,,,,,,,,,,,,,,,,,,,,,,,,,,0E1T7F,train_x,blue_star,bottom_right,2025-02-10_14h40.11.770,HideSeek_v1,2022.2.5,60.300574242599325,
,6,0,2,0,-4,0,21,,train_dim1_1,22,30,,,,2,0,2,0,,,,,,,,,0,0,0,0,0,21,21,21,3,0,3,0,,,,,,,,,,,,,,,,,,,,,,,,,,,,,,,,,,,,,,,,,,,,,,,,,,,,,,,,,,,,,,,,30,,,,,,,,539.3247793000191,539.3247793000191,539.3247793000191,539.3247793000191,539.3247793000191,left,0.9439685000106692,20,0,0,99,-2.7755575615628914e-17,-0.4,left,0.8581552999094129,,,,,,,,,,,,,,,,,,,,,,,,,,,,,,,,,,,,,,,,,,,,,,,,,,,,,,,,,,,,0E1T7F,train_x,blue_star,bottom_right,2025-02-10_14h40.11.770,HideSeek_v1,2022.2.5,60.300574242599325,
,6,0,2,0,-4,0,21,,train_dim1_1,22,30,,,,2,0,2,0,,,,,,,,,0,0,0,0,0,21,21,21,4,0,4,0,,,,,,,,,,,,,,,,,,,,,,,,,,,,,,,,,,,,,,,,,,,,,,,,,,,,,,,,,,,,,,,,30,,,,,,,,540.2764517001342,540.2764517001342,540.2764517001342,540.2764517001342,540.2764517001342,return,0.5095720000099391,21,0,0,1,-2.7755575615628914e-17,-0.4,return,0.42514869989827275,0,-60,-2.7755575615628914e-17,-0.4,,,,,,,,,,,,,,,,,,,,,,,,,,,,,,,,,,,,,,,,,,,,,,,,,,,,,,,,0E1T7F,train_x,blue_star,bottom_right,2025-02-10_14h40.11.770,HideSeek_v1,2022.2.5,60.300574242599325,
,7,1,7,1,0,0,61,,train_dim1_1,23,30,,,,2,0,2,0,,,,,,,,,0,0,0,0,0,22,22,22,0,0,0,0,,,,,,,,,,,,,,,,,,,,,,,,,stimuli/alien_stimuli/61.png,,,,,,,,,,,,,,,,,,,,,,,,,,,,,stimuli/alien_stimuli/21.png,21,6,24,,,,,,,30,,,,,,,,545.1037014999893,545.1037014999893,545.1037014999893,545.1037014999893,545.1037014999893,return,1.139170999871567,22,0,0,1,0.4,-0.32,return,1.040834599873051,0,-60,0.4,-0.32,543.5159043001477,542.3657154999673,0,-0.4,0.0,0.32,-0.4,0,0.16,0,-0.4,542.3657154999673,542.3657154999673,542.3657154999673,542.3657154999673,542.3657154999673,542.3657154999673,542.3657154999673,542.3657154999673,542.3599574998021,1.2760570000391454,return,1.1213706000708044,,,,,,,,,,,,,,,,,,,,,,,,,,,,,,,,,0E1T7F,train_x,blue_star,bottom_right,2025-02-10_14h40.11.770,HideSeek_v1,2022.2.5,60.300574242599325,
,9,4,8,4,-1,0,51,,train_dim1_1,24,30,,,,2,0,2,0,,,,,,,,,0,0,0,0,0,23,23,23,0,0,0,0,,,,,,,,,,,,,,,,,,,,,,,,,stimuli/alien_stimuli/51.png,,,,,,,,,,,,,,,,,,,,,,,,,,,,,stimuli/alien_stimuli/61.png,61,7,25,,,,,,,30,,,,,,,,550.9450749000534,550.9450749000534,550.9450749000534,550.9450749000534,550.9450749000534,left,0.98825449985452,22,0,0,99,0.48000000000000004,-0.08,left,0.893980500055477,,,,,549.3827867000364,550.9450749000534,0.4,-0.32,0.0,0.0,-0.32,0.4,0.4,0.4,-0.32,547.786013300065,547.786013300065,547.786013300065,547.786013300065,547.786013300065,547.786013300065,547.786013300065,547.786013300065,547.7644534998574,1.7033398000057787,return,1.5749720998574048,,,,,,,,,,,,,,,,,,,,,,,,,,,,,,,,,0E1T7F,train_x,blue_star,bottom_right,2025-02-10_14h40.11.770,HideSeek_v1,2022.2.5,60.300574242599325,
,9,4,8,4,-1,0,51,,train_dim1_1,24,30,,,,2,0,2,0,,,,,,,,,0,0,0,0,0,23,23,23,1,0,1,0,,,,,,,,,,,,,,,,,,,,,,,,,,,,,,,,,,,,,,,,,,,,,,,,,,,,,,,,,,,,,,,,30,,,,,,,,551.9335010000505,551.9335010000505,551.9335010000505,551.9335010000505,551.9335010000505,return,0.39288950012996793,23,0,0,1,0.48000000000000004,-0.08,return,0.31404049997217953,0,-61,0.48000000000000004,-0.08,,,,,,,,,,,,,,,,,,,,,,,,,,,,,,,,,,,,,,,,,,,,,,,,,,,,,,,,0E1T7F,train_x,blue_star,bottom_right,2025-02-10_14h40.11.770,HideSeek_v1,2022.2.5,60.300574242599325,
,8,0,3,0,-5,0,11,,train_dim1_1,25,30,,,,2,0,2,0,,,,,,,,,0,0,0,0,0,24,24,24,0,0,0,0,,,,,,,,,,,,,,,,,,,,,,,,,stimuli/alien_stimuli/11.png,,,,,,,,,,,,,,,,,,,,,,,,,,,,,stimuli/alien_stimuli/51.png,51,9,26,,,,,,,30,,,,,,,,557.6191561999731,557.6191561999731,557.6191561999731,557.6191561999731,557.6191561999731,left,1.2715294000227004,23,0,0,99,0.39999999999999997,-0.4,left,1.179661100031808,,,,,556.0549688001629,557.6191561999731,0.48,-0.08,0.0,0.08,-0.08,0.48,0.52,0.48,-0.08,553.8917626000475,553.8917626000475,553.8917626000475,553.8917626000475,553.8917626000475,553.8917626000475,553.8917626000475,553.8917626000475,553.8695552999154,2.2706748000346124,return,2.137330199824646,,,,,,,,,,,,,,,,,,,,,,,,,,,,,,,,,0E1T7F,train_x,blue_star,bottom_right,2025-02-10_14h40.11.770,HideSeek_v1,2022.2.5,60.300574242599325,
,8,0,3,0,-5,0,11,,train_dim1_1,25,30,,,,2,0,2,0,,,,,,,,,0,0,0,0,0,24,24,24,1,0,1,0,,,,,,,,,,,,,,,,,,,,,,,,,,,,,,,,,,,,,,,,,,,,,,,,,,,,,,,,,,,,,,,,30,,,,,,,,558.8916507000104,558.8916507000104,558.8916507000104,558.8916507000104,558.8916507000104,left,0.4766359000932425,23,0,0,99,0.31999999999999995,-0.4,left,0.3871855998877436,,,,,,,,,,,,,,,,,,,,,,,,,,,,,,,,,,,,,,,,,,,,,,,,,,,,,,,,,,,,0E1T7F,train_x,blue_star,bottom_right,2025-02-10_14h40.11.770,HideSeek_v1,2022.2.5,60.300574242599325,
,8,0,3,0,-5,0,11,,train_dim1_1,25,30,,,,2,0,2,0,,,,,,,,,0,0,0,0,0,24,24,24,2,0,2,0,,,,,,,,,,,,,,,,,,,,,,,,,,,,,,,,,,,,,,,,,,,,,,,,,,,,,,,,,,,,,,,,30,,,,,,,,559.3742150999606,559.3742150999606,559.3742150999606,559.3742150999606,559.3742150999606,left,0.5266799998935312,23,0,0,99,0.23999999999999994,-0.4,left,0.4401702999603003,,,,,,,,,,,,,,,,,,,,,,,,,,,,,,,,,,,,,,,,,,,,,,,,,,,,,,,,,,,,0E1T7F,train_x,blue_star,bottom_right,2025-02-10_14h40.11.770,HideSeek_v1,2022.2.5,60.300574242599325,
,8,0,3,0,-5,0,11,,train_dim1_1,25,30,,,,2,0,2,0,,,,,,,,,0,0,0,0,0,24,24,24,3,0,3,0,,,,,,,,,,,,,,,,,,,,,,,,,,,,,,,,,,,,,,,,,,,,,,,,,,,,,,,,,,,,,,,,30,,,,,,,,559.9095612999517,559.9095612999517,559.9095612999517,559.9095612999517,559.9095612999517,left,0.5272176000289619,23,0,0,99,0.15999999999999992,-0.4,left,0.44820059975609183,,,,,,,,,,,,,,,,,,,,,,,,,,,,,,,,,,,,,,,,,,,,,,,,,,,,,,,,,,,,0E1T7F,train_x,blue_star,bottom_right,2025-02-10_14h40.11.770,HideSeek_v1,2022.2.5,60.300574242599325,
,8,0,3,0,-5,0,11,,train_dim1_1,25,30,,,,2,0,2,0,,,,,,,,,0,0,0,0,0,24,24,24,4,0,4,0,,,,,,,,,,,,,,,,,,,,,,,,,,,,,,,,,,,,,,,,,,,,,,,,,,,,,,,,,,,,,,,,30,,,,,,,,560.4420882000122,560.4420882000122,560.4420882000122,560.4420882000122,560.4420882000122,left,0.6265428999904543,23,0,0,99,0.07999999999999992,-0.4,left,0.5382812998723239,,,,,,,,,,,,,,,,,,,,,,,,,,,,,,,,,,,,,,,,,,,,,,,,,,,,,,,,,,,,0E1T7F,train_x,blue_star,bottom_right,2025-02-10_14h40.11.770,HideSeek_v1,2022.2.5,60.300574242599325,
,8,0,3,0,-5,0,11,,train_dim1_1,25,30,,,,2,0,2,0,,,,,,,,,0,0,0,0,0,24,24,24,5,0,5,0,,,,,,,,,,,,,,,,,,,,,,,,,,,,,,,,,,,,,,,,,,,,,,,,,,,,,,,,,,,,,,,,30,,,,,,,,561.0762945001479,561.0762945001479,561.0762945001479,561.0762945001479,561.0762945001479,return,0.5936517999507487,24,0,0,1,0.07999999999999992,-0.4,return,0.5125034998636693,0,-66,0.07999999999999992,-0.4,,,,,,,,,,,,,,,,,,,,,,,,,,,,,,,,,,,,,,,,,,,,,,,,,,,,,,,,0E1T7F,train_x,blue_star,bottom_right,2025-02-10_14h40.11.770,HideSeek_v1,2022.2.5,60.300574242599325,
,6,1,6,1,0,0,61,,train_dim1_1,26,30,,,,2,0,2,0,,,,,,,,,0,0,0,0,0,25,25,25,0,0,0,0,,,,,,,,,,,,,,,,,,,,,,,,,stimuli/alien_stimuli/61.png,,,,,,,,,,,,,,,,,,,,,,,,,,,,,stimuli/alien_stimuli/11.png,11,8,27,,,,,,,30,,,,,,,,567.1371323999483,567.1371323999483,567.1371323999483,567.1371323999483,567.1371323999483,return,1.8724356000311673,25,0,0,1,0.32,-0.32,return,1.7667664997279644,0,-66,0.32,-0.32,565.5632458999753,567.1371323999483,0.08,-0.4,0.0,0.4,-0.4,0.08,0.27999999999999997,0.08,-0.4,563.2344317000825,563.2344317000825,563.2344317000825,563.2344317000825,563.2344317000825,563.2344317000825,563.2344317000825,563.2344317000825,563.2269265498967,2.4379319997970015,return,2.3069786997511983,,,,,,,,,,,,,,,,,,,,,,,,,,,,,,,,,0E1T7F,train_x,blue_star,bottom_right,2025-02-10_14h40.11.770,HideSeek_v1,2022.2.5,60.300574242599325,
,5,1,2,1,-3,0,31,,train_dim1_1,27,30,,,,2,0,2,0,,,,,,,,,0,0,0,0,0,26,26,26,0,0,0,0,,,,,,,,,,,,,,,,,,,,,,,,,stimuli/alien_stimuli/31.png,,,,,,,,,,,,,,,,,,,,,,,,,,,,,stimuli/alien_stimuli/61.png,61,6,28,,,,,,,30,,,,,,,,573.2484957000706,573.2484957000706,573.2484957000706,573.2484957000706,573.2484957000706,left,1.4181819001678377,25,0,0,99,0.15999999999999998,-0.32,left,1.3358355998061597,,,,,571.6841294001788,573.2484957000706,0.32,-0.32,0.0,0.0,-0.32,0.32,0.32,0.32,-0.32,570.5525840001646,570.5525840001646,570.5525840001646,570.5525840001646,570.5525840001646,570.5525840001646,570.5525840001646,570.5525840001646,570.5333069998771,1.2364673998672515,return,1.1003723999019712,,,,,,,,,,,,,,,,,,,,,,,,,,,,,,,,,0E1T7F,train_x,blue_star,bottom_right,2025-02-10_14h40.11.770,HideSeek_v1,2022.2.5,60.300574242599325,
,5,1,2,1,-3,0,31,,train_dim1_1,27,30,,,,2,0,2,0,,,,,,,,,0,0,0,0,0,26,26,26,1,0,1,0,,,,,,,,,,,,,,,,,,,,,,,,,,,,,,,,,,,,,,,,,,,,,,,,,,,,,,,,,,,,,,,,30,,,,,,,,574.6690299001057,574.6690299001057,574.6690299001057,574.6690299001057,574.6690299001057,left,0.3921324999537319,25,0,0,99,0.07999999999999997,-0.32,left,0.30844779987819493,,,,,,,,,,,,,,,,,,,,,,,,,,,,,,,,,,,,,,,,,,,,,,,,,,,,,,,,,,,,0E1T7F,train_x,blue_star,bottom_right,2025-02-10_14h40.11.770,HideSeek_v1,2022.2.5,60.300574242599325,
,5,1,2,1,-3,0,31,,train_dim1_1,27,30,,,,2,0,2,0,,,,,,,,,0,0,0,0,0,26,26,26,2,0,2,0,,,,,,,,,,,,,,,,,,,,,,,,,,,,,,,,,,,,,,,,,,,,,,,,,,,,,,,,,,,,,,,,30,,,,,,,,575.0690375000704,575.0690375000704,575.0690375000704,575.0690375000704,575.0690375000704,left,0.34384010010398924,25,0,0,99,-2.7755575615628914e-17,-0.32,left,0.2648936999030411,,,,,,,,,,,,,,,,,,,,,,,,,,,,,,,,,,,,,,,,,,,,,,,,,,,,,,,,,,,,0E1T7F,train_x,blue_star,bottom_right,2025-02-10_14h40.11.770,HideSeek_v1,2022.2.5,60.300574242599325,
,5,1,2,1,-3,0,31,,train_dim1_1,27,30,,,,2,0,2,0,,,,,,,,,0,0,0,0,0,26,26,26,3,0,3,0,,,,,,,,,,,,,,,,,,,,,,,,,,,,,,,,,,,,,,,,,,,,,,,,,,,,,,,,,,,,,,,,30,,,,,,,,575.4187682999764,575.4187682999764,575.4187682999764,575.4187682999764,575.4187682999764,return,0.37647289992310107,26,0,0,1,-2.7755575615628914e-17,-0.32,return,0.287514999974519,0,-69,-2.7755575615628914e-17,-0.32,,,,,,,,,,,,,,,,,,,,,,,,,,,,,,,,,,,,,,,,,,,,,,,,,,,,,,,,0E1T7F,train_x,blue_star,bottom_right,2025-02-10_14h40.11.770,HideSeek_v1,2022.2.5,60.300574242599325,
,8,1,4,1,-4,0,21,,train_dim1_1,28,30,,,,2,0,2,0,,,,,,,,,0,0,0,0,0,27,27,27,0,0,0,0,,,,,,,,,,,,,,,,,,,,,,,,,stimuli/alien_stimuli/21.png,,,,,,,,,,,,,,,,,,,,,,,,,,,,,stimuli/alien_stimuli/31.png,31,5,29,,,,,,,30,,,,,,,,580.438000000082,580.438000000082,580.438000000082,580.438000000082,580.438000000082,left,1.2882964999880642,26,0,0,99,0.39999999999999997,-0.32,left,1.1999496999196708,,,,,578.873873700155,580.438000000082,0,-0.32,0.0,0.24,-0.32,0,0.12,0,-0.32,577.3563711000606,577.3563711000606,577.3563711000606,577.3563711000606,577.3563711000606,577.3563711000606,577.3563711000606,577.3563711000606,577.3389321000316,1.6203480998519808,return,1.492043900070712,,,,,,,,,,,,,,,,,,,,,,,,,,,,,,,,,0E1T7F,train_x,blue_star,bottom_right,2025-02-10_14h40.11.770,HideSeek_v1,2022.2.5,60.300574242599325,
,8,1,4,1,-4,0,21,,train_dim1_1,28,30,,,,2,0,2,0,,,,,,,,,0,0,0,0,0,27,27,27,1,0,1,0,,,,,,,,,,,,,,,,,,,,,,,,,,,,,,,,,,,,,,,,,,,,,,,,,,,,,,,,,,,,,,,,30,,,,,,,,581.7268779000733,581.7268779000733,581.7268779000733,581.7268779000733,581.7268779000733,left,0.9933809998910874,26,0,0,99,0.31999999999999995,-0.32,left,0.9125302999746054,,,,,,,,,,,,,,,,,,,,,,,,,,,,,,,,,,,,,,,,,,,,,,,,,,,,,,,,,,,,0E1T7F,train_x,blue_star,bottom_right,2025-02-10_14h40.11.770,HideSeek_v1,2022.2.5,60.300574242599325,
,8,1,4,1,-4,0,21,,train_dim1_1,28,30,,,,2,0,2,0,,,,,,,,,0,0,0,0,0,27,27,27,2,0,2,0,,,,,,,,,,,,,,,,,,,,,,,,,,,,,,,,,,,,,,,,,,,,,,,,,,,,,,,,,,,,,,,,30,,,,,,,,582.7274501000065,582.7274501000065,582.7274501000065,582.7274501000065,582.7274501000065,left,0.5935766000766307,26,0,0,99,0.23999999999999994,-0.32,left,0.5073099997825921,,,,,,,,,,,,,,,,,,,,,,,,,,,,,,,,,,,,,,,,,,,,,,,,,,,,,,,,,,,,0E1T7F,train_x,blue_star,bottom_right,2025-02-10_14h40.11.770,HideSeek_v1,2022.2.5,60.300574242599325,
,8,1,4,1,-4,0,21,,train_dim1_1,28,30,,,,2,0,2,0,,,,,,,,,0,0,0,0,0,27,27,27,3,0,3,0,,,,,,,,,,,,,,,,,,,,,,,,,,,,,,,,,,,,,,,,,,,,,,,,,,,,,,,,,,,,,,,,30,,,,,,,,583.3281025001779,583.3281025001779,583.3281025001779,583.3281025001779,583.3281025001779,left,0.5601244999561459,26,0,0,99,0.15999999999999992,-0.32,left,0.48063469980843365,,,,,,,,,,,,,,,,,,,,,,,,,,,,,,,,,,,,,,,,,,,,,,,,,,,,,,,,,,,,0E1T7F,train_x,blue_star,bottom_right,2025-02-10_14h40.11.770,HideSeek_v1,2022.2.5,60.300574242599325,
,8,1,4,1,-4,0,21,,train_dim1_1,28,30,,,,2,0,2,0,,,,,,,,,0,0,0,0,0,27,27,27,4,0,4,0,,,,,,,,,,,,,,,,,,,,,,,,,,,,,,,,,,,,,,,,,,,,,,,,,,,,,,,,,,,,,,,,30,,,,,,,,583.8949571000412,583.8949571000412,583.8949571000412,583.8949571000412,583.8949571000412,return,0.46023810002952814,27,0,0,1,0.15999999999999992,-0.32,return,0.3738539998885244,0,-73,0.15999999999999992,-0.32,,,,,,,,,,,,,,,,,,,,,,,,,,,,,,,,,,,,,,,,,,,,,,,,,,,,,,,,0E1T7F,train_x,blue_star,bottom_right,2025-02-10_14h40.11.770,HideSeek_v1,2022.2.5,60.300574242599325,
,9,0,8,0,-1,0,51,,train_dim1_1,29,30,,,,2,0,2,0,,,,,,,,,0,0,0,0,0,28,28,28,0,0,0,0,,,,,,,,,,,,,,,,,,,,,,,,,stimuli/alien_stimuli/51.png,,,,,,,,,,,,,,,,,,,,,,,,,,,,,stimuli/alien_stimuli/21.png,21,8,30,,,,,,,30,,,,,,,,588.6085608000867,588.6085608000867,588.6085608000867,588.6085608000867,588.6085608000867,left,1.2380766000133008,27,0,0,99,0.48000000000000004,-0.4,left,1.1413819999434054,,,,,587.0306049999781,588.6085608000867,0.16,-0.32,0.0,0.32,-0.32,0.16,0.32,0.16,-0.32,585.9220750001259,585.9220750001259,585.9220750001259,585.9220750001259,585.9220750001259,585.9220750001259,585.9220750001259,585.9220750001259,585.912735849945,1.2199262001086026,return,1.082240500021726,,,,,,,,,,,,,,,,,,,,,,,,,,,,,,,,,0E1T7F,train_x,blue_star,bottom_right,2025-02-10_14h40.11.770,HideSeek_v1,2022.2.5,60.300574242599325,
,9,0,8,0,-1,0,51,,train_dim1_1,29,30,,,,2,0,2,0,,,,,,,,,0,0,0,0,0,28,28,28,1,0,1,0,,,,,,,,,,,,,,,,,,,,,,,,,,,,,,,,,,,,,,,,,,,,,,,,,,,,,,,,,,,,,,,,30,,,,,,,,589.8323634001426,589.8323634001426,589.8323634001426,589.8323634001426,589.8323634001426,return,1.66073719994165,28,0,0,1,0.48000000000000004,-0.4,return,1.5804060997907072,0,-74,0.48000000000000004,-0.4,,,,,,,,,,,,,,,,,,,,,,,,,,,,,,,,,,,,,,,,,,,,,,,,,,,,,,,,0E1T7F,train_x,blue_star,bottom_right,2025-02-10_14h40.11.770,HideSeek_v1,2022.2.5,60.300574242599325,
,7,2,2,2,-5,0,11,,train_dim1_1,30,30,,,,2,0,2,0,,,,,,,,,0,0,0,0,0,29,29,29,0,0,0,0,,,,,,,,,,,,,,,,,,,,,,,,,stimuli/alien_stimuli/11.png,,,,,,,,,,,,,,,,,,,,,,,,,,,,,stimuli/alien_stimuli/51.png,51,9,31,,,,,,,30,,,,,,,,595.3674338001292,595.3674338001292,595.3674338001292,595.3674338001292,595.3674338001292,left,1.0700405999086797,28,0,0,99,0.32,-0.24,left,0.978375299833715,,,,,593.8029027001467,595.3674338001292,0.48,-0.4,0.0,0.08,-0.4,0.48,0.52,0.48,-0.4,593.0581239000894,593.0581239000894,593.0581239000894,593.0581239000894,593.0581239000894,593.0581239000894,593.0581239000894,593.0581239000894,593.0355769000482,0.8525588000193238,return,0.7127638997044414,,,,,,,,,,,,,,,,,,,,,,,,,,,,,,,,,0E1T7F,train_x,blue_star,bottom_right,2025-02-10_14h40.11.770,HideSeek_v1,2022.2.5,60.300574242599325,
,7,2,2,2,-5,0,11,,train_dim1_1,30,30,,,,2,0,2,0,,,,,,,,,0,0,0,0,0,29,29,29,1,0,1,0,,,,,,,,,,,,,,,,,,,,,,,,,,,,,,,,,,,,,,,,,,,,,,,,,,,,,,,,,,,,,,,,30,,,,,,,,596.4411528999917,596.4411528999917,596.4411528999917,596.4411528999917,596.4411528999917,left,0.3762717000208795,28,0,0,99,0.24,-0.24,left,0.29362979996949434,,,,,,,,,,,,,,,,,,,,,,,,,,,,,,,,,,,,,,,,,,,,,,,,,,,,,,,,,,,,0E1T7F,train_x,blue_star,bottom_right,2025-02-10_14h40.11.770,HideSeek_v1,2022.2.5,60.300574242599325,
,7,2,2,2,-5,0,11,,train_dim1_1,30,30,,,,2,0,2,0,,,,,,,,,0,0,0,0,0,29,29,29,2,0,2,0,,,,,,,,,,,,,,,,,,,,,,,,,,,,,,,,,,,,,,,,,,,,,,,,,,,,,,,,,,,,,,,,30,,,,,,,,596.8236970000435,596.8236970000435,596.8236970000435,596.8236970000435,596.8236970000435,left,0.35983000020496547,28,0,0,99,0.15999999999999998,-0.24,left,0.2820490999147296,,,,,,,,,,,,,,,,,,,,,,,,,,,,,,,,,,,,,,,,,,,,,,,,,,,,,,,,,,,,0E1T7F,train_x,blue_star,bottom_right,2025-02-10_14h40.11.770,HideSeek_v1,2022.2.5,60.300574242599325,
,7,2,2,2,-5,0,11,,train_dim1_1,30,30,,,,2,0,2,0,,,,,,,,,0,0,0,0,0,29,29,29,3,0,3,0,,,,,,,,,,,,,,,,,,,,,,,,,,,,,,,,,,,,,,,,,,,,,,,,,,,,,,,,,,,,,,,,30,,,,,,,,597.1896049999632,597.1896049999632,597.1896049999632,597.1896049999632,597.1896049999632,left,0.37672300008125603,28,0,0,99,0.07999999999999997,-0.24,left,0.28759129997342825,,,,,,,,,,,,,,,,,,,,,,,,,,,,,,,,,,,,,,,,,,,,,,,,,,,,,,,,,,,,0E1T7F,train_x,blue_star,bottom_right,2025-02-10_14h40.11.770,HideSeek_v1,2022.2.5,60.300574242599325,
,7,2,2,2,-5,0,11,,train_dim1_1,30,30,,,,2,0,2,0,,,,,,,,,0,0,0,0,0,29,29,29,4,0,4,0,,,,,,,,,,,,,,,,,,,,,,,,,,,,,,,,,,,,,,,,,,,,,,,,,,,,,,,,,,,,,,,,30,,,,,,,,597.5738166000228,597.5738166000228,597.5738166000228,597.5738166000228,597.5738166000228,left,0.34326180000789464,28,0,0,99,-2.7755575615628914e-17,-0.24,left,0.26604149979539216,,,,,,,,,,,,,,,,,,,,,,,,,,,,,,,,,,,,,,,,,,,,,,,,,,,,,,,,,,,,0E1T7F,train_x,blue_star,bottom_right,2025-02-10_14h40.11.770,HideSeek_v1,2022.2.5,60.300574242599325,
,7,2,2,2,-5,0,11,,train_dim1_1,30,30,,,,2,0,2,0,,,,,,,,,0,0,0,0,0,29,29,29,5,0,5,0,,,,,,,,,,,,,,,,,,,,,,,,,,,,,,,,,,,,,,,,,,,,,,,,,,,,,,,,,,,,,,,,30,,,,,,,,597.9242915001232,597.9242915001232,597.9242915001232,597.9242915001232,597.9242915001232,return,1.3439432999584824,29,0,0,1,-2.7755575615628914e-17,-0.24,return,1.2616489997599274,0,-79,-2.7755575615628914e-17,-0.24,,,,,,,,,,,,,,,,,,,,,,,,,,,,,,,,,,,,,,,,,,,,,,,,,,,,,,,,0E1T7F,train_x,blue_star,bottom_right,2025-02-10_14h40.11.770,HideSeek_v1,2022.2.5,60.300574242599325,
,,,,,,,,,,,30,,,,2,0,2,0,,,,,,,,,,,,,,,,,,,,,,,,,,,,,,,,,,,,,,,,,,,,,,,,,,,,,,,,,,,,,,,,,,,,,,,,,,stimuli/alien_stimuli/11.png,11,7,32,21,0.7,1.2083333333333335,1,1,1,30,0,conditions/schedules/train_x_first/blue_star_00/bottom_right/inputTrain_2.1.xlsx,99,1,2,1,0,,,,,,,,,,,1,,,,,,,,,603.0103915999644,604.5705661999527,0,-0.24,0.0,0.4,-0.24,0,0.2,0,-0.24,600.8353153001517,600.8353153001517,600.8353153001517,600.8353153001517,600.8353153001517,600.8353153001517,600.8353153001517,600.8353153001517,600.825115549937,2.287219500169158,return,2.1437125999946147,0,0.9,0,1,29,,,,,,,,,,,,,,,,,,,,,,,,,,,,0E1T7F,train_x,blue_star,bottom_right,2025-02-10_14h40.11.770,HideSeek_v1,2022.2.5,60.300574242599325,
,,,,,,,,,,,,,,,3,0,3,0,0,0,0,0,,,,,,,,,,,,,,,,,,,,,,,,,,,,,,,conditions/schedules/train_x_first/blue_star_00/bottom_right/instructions/Slide17.png,conditions/schedules/train_x_first/blue_star_00/bottom_right/instructions/Audio17.wav,604.5705661999527,604.5617643999402,17,"[6.761071800021455, 18.526008300017565, 10.27744510001503, 19.5196069998201, 4.7896983998361975, 4.55394470016472, 5.186621499946341, 11.95780809991993, 6.286160999909043, 7.06833599996753, 10.238736600149423, 12.554802700178698, 17.723763399990276, 12.612512700026855, 32.864941499894485, 21.874753299867734, 36.752175299916416]","[6.761083899997175, 18.526024299906567, 10.277456799987704, 0.03574700001627207, 0.0502335000783205, 0.04911939986050129, 0.0979275000281632, 0.030903599923476577, 0.06338430009782314, 0.06368879997171462, 0.03054370009340346, 12.554810600122437, 0.03416549996472895, 12.612521099857986, 0.00029419991187751293, 21.874764299951494, 36.752183199860156]",0,,,,,,,,,,,,,,,,,,,,,,,,,,,,,,,,,,,,,,,,,,,,,,,,,,,,,,,,,,,,,,,,,,,,,,,,,,,,,,,,,,,,,,,,,,,,,,,,,,,,,,,,,,,,,,,,,,,,,,,,,,,,0E1T7F,train_x,blue_star,bottom_right,2025-02-10_14h40.11.770,HideSeek_v1,2022.2.5,60.300574242599325,
,,,,,,,,,,,,,,,3,0,3,0,1,0,1,0,,,,,,,,,,,,,,,,,,,,,,,,,,,,,,,conditions/schedules/train_x_first/blue_star_00/bottom_right/instructions/Slide18.png,conditions/schedules/train_x_first/blue_star_00/bottom_right/instructions/Audio18.wav,641.3928213999607,641.3921868500765,18,"[6.761071800021455, 18.526008300017565, 10.27744510001503, 19.5196069998201, 4.7896983998361975, 4.55394470016472, 5.186621499946341, 11.95780809991993, 6.286160999909043, 7.06833599996753, 10.238736600149423, 12.554802700178698, 17.723763399990276, 12.612512700026855, 32.864941499894485, 21.874753299867734, 36.752175299916416, 7.48715619998984]","[6.761083899997175, 18.526024299906567, 10.277456799987704, 0.03574700001627207, 0.0502335000783205, 0.04911939986050129, 0.0979275000281632, 0.030903599923476577, 0.06338430009782314, 0.06368879997171462, 0.03054370009340346, 12.554810600122437, 0.03416549996472895, 12.612521099857986, 0.00029419991187751293, 21.874764299951494, 0.013877299847081304, 7.487163599813357]",0,,,,,,,,,,,,,,,,,,,,,,,,,,,,,,,,,,,,,,,,,,,,,,,,,,,,,,,,,,,,,,,,,,,,,,,,,,,,,,,,,,,,,,,,,,,,,,,,,,,,,,,,,,,,,,,,,,,,,,,,,,,,0E1T7F,train_x,blue_star,bottom_right,2025-02-10_14h40.11.770,HideSeek_v1,2022.2.5,60.300574242599325,
,,,,,,,,,,,,,,,3,0,3,0,2,0,2,0,,,,,,,,,,,,,,,,,,,,,,,,,,,,,,,conditions/schedules/train_x_first/blue_star_00/bottom_right/instructions/Slide19.png,conditions/schedules/train_x_first/blue_star_00/bottom_right/instructions/Audio19.wav,648.9380554000381,648.9325083998964,19,"[6.761071800021455, 18.526008300017565, 10.27744510001503, 19.5196069998201, 4.7896983998361975, 4.55394470016472, 5.186621499946341, 11.95780809991993, 6.286160999909043, 7.06833599996753, 10.238736600149423, 12.554802700178698, 17.723763399990276, 12.612512700026855, 32.864941499894485, 21.874753299867734, 36.752175299916416, 7.48715619998984, 10.850176299922168]","[6.761083899997175, 18.526024299906567, 10.277456799987704, 0.03574700001627207, 0.0502335000783205, 0.04911939986050129, 0.0979275000281632, 0.030903599923476577, 0.06338430009782314, 0.06368879997171462, 0.03054370009340346, 12.554810600122437, 0.03416549996472895, 12.612521099857986, 0.00029419991187751293, 21.874764299951494, 0.013877299847081304, 0.014224600046873093, 10.850184299983084]",0,,,,,,,,,,,,,,,,,,,,,,,,,,,,,,,,,,,,,,,,,,,,,,,,,,,,,,,,,,,,,,,,,,,,,,,,,,,,,,,,,,,,,,,,,,,,,,,,,,,,,,,,,,,,,,,,,,,,,,,,,,,,0E1T7F,train_x,blue_star,bottom_right,2025-02-10_14h40.11.770,HideSeek_v1,2022.2.5,60.300574242599325,
,,,,,,,,,,,,,,,3,0,3,0,3,0,3,0,,,,,,,,,,,,,,,,,,,,,,,,,,,,,,,conditions/schedules/train_x_first/blue_star_00/bottom_right/instructions/Slide20.png,conditions/schedules/train_x_first/blue_star_00/bottom_right/instructions/Audio20.wav,659.861572700087,659.8573563499376,20,"[6.761071800021455, 18.526008300017565, 10.27744510001503, 19.5196069998201, 4.7896983998361975, 4.55394470016472, 5.186621499946341, 11.95780809991993, 6.286160999909043, 7.06833599996753, 10.238736600149423, 12.554802700178698, 17.723763399990276, 12.612512700026855, 32.864941499894485, 21.874753299867734, 36.752175299916416, 7.48715619998984, 10.850176299922168, 46.298317400040105]","[6.761083899997175, 18.526024299906567, 10.277456799987704, 0.03574700001627207, 0.0502335000783205, 0.04911939986050129, 0.0979275000281632, 0.030903599923476577, 0.06338430009782314, 0.06368879997171462, 0.03054370009340346, 12.554810600122437, 0.03416549996472895, 12.612521099857986, 0.00029419991187751293, 21.874764299951494, 0.013877299847081304, 0.014224600046873093, 0.030749999918043613, 46.2983245998621]",0,,,,,,,,,,,,,,,,,,,,,,,,,,,,,,,,,,,,,,,,,,,,,,,,,,,,,,,,,,,,,,,,,,,,,,,,,,,,,,,,,,,,,,,,,,,,,,,,,,,,,,,,,,,,,,,,,,,,,,,,,,,,0E1T7F,train_x,blue_star,bottom_right,2025-02-10_14h40.11.770,HideSeek_v1,2022.2.5,60.300574242599325,
1,5,3,5,8,0,5,66,2,instr_dim1_2,,,,,,3,0,3,0,,,,,0,0,0,0,,,,,,,,,,,,,,,,,,,,,,,,,,,,,,,,,,,,,stimuli/alien_stimuli/66.png,conditions/schedules/train_x_first/blue_star_00/bottom_right/inputInstr_2.xlsx,stimuli/alien_stimuli/66.png,706.2579672001302,706.2579672001302,706.2579672001302,706.2579672001302,706.262409449881,return,5.9589869999326766,"[-0.16, -0.08, 0, 0.08, 0.16, 0.24, 0.32, 0.4, 0.48, 0.56]","[-0.4, -0.32, -0.24, -0.16, -0.08, 0, 0.08, 0.16, 0.24, 0.32]",8,3,5,5,0.4,0.0,712.3761283999775,712.3761283999775,712.3761283999775,712.3761283999775,712.3761283999775,712.3761283999775,712.3761283999775,712.3676116498654,9.008088100003079,return,8.840162999927998,stimuli/alien_stimuli/66.png,66,5,1,,,,,,,,,,,,,,,,,,,,,,,,,,,,,,,,,,,,,,,,,,,,,,,,,,,,,,,,,,,,,,,,,,,,,,,,,,,,,,,,,,,,,,,,,0E1T7F,train_x,blue_star,bottom_right,2025-02-10_14h40.11.770,HideSeek_v1,2022.2.5,60.300574242599325,
,,,,,,,,,,,30,,,,3,0,3,0,,,,,,,,,,,,,,,,,,,,,,,,,,,,,,,,,,,,,,,,,,,,,,,,,,,,,,,,,,,,,,,,,,,,,,,,,,,,,,21,0.7,1.2083333333333335,1,99,2,30,0,conditions/schedules/train_x_first/blue_star_00/bottom_right/inputTrain_2.1.xlsx,99,1,2,1,0,,,,,,,,,,,,,,,,,,,,,,,,,,,,,,,,,,,,,,,,,,,,,,,,,,,,,,,,,,,,,,,,,,,,,,,,,,,0E1T7F,train_x,blue_star,bottom_right,2025-02-10_14h40.11.770,HideSeek_v1,2022.2.5,60.300574242599325,
,,,,,,,,,,,,,,,4,0,4,0,0,0,0,0,,,,,,,,,,,,,,,,,,,,,,,,,,,,,,,conditions/schedules/train_x_first/blue_star_00/bottom_right/instructions/Slide21.png,conditions/schedules/train_x_first/blue_star_00/bottom_right/instructions/Audio21.wav,721.3856244999915,721.3749650499784,21,"[6.761071800021455, 18.526008300017565, 10.27744510001503, 19.5196069998201, 4.7896983998361975, 4.55394470016472, 5.186621499946341, 11.95780809991993, 6.286160999909043, 7.06833599996753, 10.238736600149423, 12.554802700178698, 17.723763399990276, 12.612512700026855, 32.864941499894485, 21.874753299867734, 36.752175299916416, 7.48715619998984, 10.850176299922168, 46.298317400040105, 16.567687999922782]","[6.761083899997175, 18.526024299906567, 10.277456799987704, 0.03574700001627207, 0.0502335000783205, 0.04911939986050129, 0.0979275000281632, 0.030903599923476577, 0.06338430009782314, 0.06368879997171462, 0.03054370009340346, 12.554810600122437, 0.03416549996472895, 12.612521099857986, 0.00029419991187751293, 21.874764299951494, 0.013877299847081304, 0.014224600046873093, 0.030749999918043613, 46.2983245998621, 16.56769650010392]",0,,,,,,,,,,,,,,,,,,,,,,,,,,,,,,,,,,,,,,,,,,,,,,,,,,,,,,,,,,,,,,,,,,,,,,,,,,,,,,,,,,,,,,,,,,,,,,,,,,,,,,,,,,,,,,,,,,,,,,,,,,,,0E1T7F,train_x,blue_star,bottom_right,2025-02-10_14h40.11.770,HideSeek_v1,2022.2.5,60.300574242599325,
2,7,3,7,3,0,0,61,2,instr_dim1_2,,,,,,4,0,4,0,,,,,0,0,0,0,,,,,,,,,,,,,,,,,,,,,,,,,,,,,,,,,,,,,stimuli/alien_stimuli/61.png,conditions/schedules/train_x_first/blue_star_00/bottom_right/inputInstr_2.xlsx,stimuli/alien_stimuli/61.png,738.0509332001675,738.0509332001675,738.0509332001675,738.0509332001675,738.0555154498202,return,3.8173585997428745,"[-0.16, -0.08, 0, 0.08, 0.16, 0.24, 0.32, 0.4, 0.48, 0.56]","[-0.4, -0.32, -0.24, -0.16, -0.08, 0, 0.08, 0.16, 0.24, 0.32]",3,3,7,7,0.0,0.0,742.016796000069,742.016796000069,742.016796000069,742.016796000069,742.016796000069,742.016796000069,742.016796000069,742.0088285998442,8.29107499984093,return,8.14507899992168,stimuli/alien_stimuli/61.png,61,7,2,,,,,,,,,,,,,,,,,,,,,,,,,,,,,,,,,,,,,,,,,,,,,,,,,,,,,,,,,,,,,,,,,,,,,,,,,,,,,,,,,,,,,,,,,0E1T7F,train_x,blue_star,bottom_right,2025-02-10_14h40.11.770,HideSeek_v1,2022.2.5,60.300574242599325,
,,,,,,,,,,,30,,,,4,0,4,0,,,,,,,,,,,,,,,,,,,,,,,,,,,,,,,,,,,,,,,,,,,,,,,,,,,,,,,,,,,,,,,,,,,,,,,,,,,,,,21,0.7,1.2083333333333335,1,99,2,30,0,conditions/schedules/train_x_first/blue_star_00/bottom_right/inputTrain_2.1.xlsx,99,1,2,1,0,,,,,,,,,,,,,,,,,,,,,,,,,,,,,,,,,,,,,,,,,,,,,,,,,,,,,,,,,,,,,,,,,,,,,,,,,,,0E1T7F,train_x,blue_star,bottom_right,2025-02-10_14h40.11.770,HideSeek_v1,2022.2.5,60.300574242599325,
,,,,,,,,,,,,,,,5,0,5,0,0,0,0,0,,,,,,,,,,,,,,,,,,,,,,,,,,,,,,,conditions/schedules/train_x_first/blue_star_00/bottom_right/instructions/Slide22.png,conditions/schedules/train_x_first/blue_star_00/bottom_right/instructions/Audio22.wav,750.3399708999787,750.3323079999536,22,"[6.761071800021455, 18.526008300017565, 10.27744510001503, 19.5196069998201, 4.7896983998361975, 4.55394470016472, 5.186621499946341, 11.95780809991993, 6.286160999909043, 7.06833599996753, 10.238736600149423, 12.554802700178698, 17.723763399990276, 12.612512700026855, 32.864941499894485, 21.874753299867734, 36.752175299916416, 7.48715619998984, 10.850176299922168, 46.298317400040105, 16.567687999922782, 43.109011200023815]","[6.761083899997175, 18.526024299906567, 10.277456799987704, 0.03574700001627207, 0.0502335000783205, 0.04911939986050129, 0.0979275000281632, 0.030903599923476577, 0.06338430009782314, 0.06368879997171462, 0.03054370009340346, 12.554810600122437, 0.03416549996472895, 12.612521099857986, 0.00029419991187751293, 21.874764299951494, 0.013877299847081304, 0.014224600046873093, 0.030749999918043613, 46.2983245998621, 16.56769650010392, 43.1090198000893]",0,,,,,,,,,,,,,,,,,,,,,,,,,,,,,,,,,,,,,,,,,,,,,,,,,,,,,,,,,,,,,,,,,,,,,,,,,,,,,,,,,,,,,,,,,,,,,,,,,,,,,,,,,,,,,,,,,,,,,,,,,,,,0E1T7F,train_x,blue_star,bottom_right,2025-02-10_14h40.11.770,HideSeek_v1,2022.2.5,60.300574242599325,
,5,0,5,4,0,4,65,,train_dim1_2,1,30,,,,5,0,5,0,,,,,,,,,0,0,0,0,0,0,0,0,0,0,0,0,,,,,,,,,,,,,,,,,,,,,,,,,stimuli/alien_stimuli/65.png,,,,,,,,,,,,,,,,,,,,,,,,,,,,,,,,,,,,,,,30,,,,,,,,793.5542187001556,793.5542187001556,793.5542187001556,793.5542187001556,793.5542187001556,up,2.84614110016264,0,0,0,99,0.24,-0.32,up,2.7486032999586314,,,,,,,,,,,,,,,,,,,,,,,,,,,,,,,,,,,,,,,,,,,,,,,,,,,,,,,,,,,,0E1T7F,train_x,blue_star,bottom_right,2025-02-10_14h40.11.770,HideSeek_v1,2022.2.5,60.300574242599325,
,5,0,5,4,0,4,65,,train_dim1_2,1,30,,,,5,0,5,0,,,,,,,,,0,0,0,0,0,0,0,0,1,0,1,0,,,,,,,,,,,,,,,,,,,,,,,,,,,,,,,,,,,,,,,,,,,,,,,,,,,,,,,,,,,,,,,,30,,,,,,,,796.3838108000346,796.3838108000346,796.3838108000346,796.3838108000346,796.3838108000346,up,0.45969809987582266,0,0,0,99,0.24,-0.24,up,0.38000929984264076,,,,,,,,,,,,,,,,,,,,,,,,,,,,,,,,,,,,,,,,,,,,,,,,,,,,,,,,,,,,0E1T7F,train_x,blue_star,bottom_right,2025-02-10_14h40.11.770,HideSeek_v1,2022.2.5,60.300574242599325,
,5,0,5,4,0,4,65,,train_dim1_2,1,30,,,,5,0,5,0,,,,,,,,,0,0,0,0,0,0,0,0,2,0,2,0,,,,,,,,,,,,,,,,,,,,,,,,,,,,,,,,,,,,,,,,,,,,,,,,,,,,,,,,,,,,,,,,30,,,,,,,,796.8499013001565,796.8499013001565,796.8499013001565,796.8499013001565,796.8499013001565,up,0.41013209987431765,0,0,0,99,0.24,-0.15999999999999998,up,0.3261546997819096,,,,,,,,,,,,,,,,,,,,,,,,,,,,,,,,,,,,,,,,,,,,,,,,,,,,,,,,,,,,0E1T7F,train_x,blue_star,bottom_right,2025-02-10_14h40.11.770,HideSeek_v1,2022.2.5,60.300574242599325,
,5,0,5,4,0,4,65,,train_dim1_2,1,30,,,,5,0,5,0,,,,,,,,,0,0,0,0,0,0,0,0,3,0,3,0,,,,,,,,,,,,,,,,,,,,,,,,,,,,,,,,,,,,,,,,,,,,,,,,,,,,,,,,,,,,,,,,30,,,,,,,,797.267262400128,797.267262400128,797.267262400128,797.267262400128,797.267262400128,up,0.7271183000411838,0,0,0,99,0.24,-0.07999999999999997,up,0.6509289999958128,,,,,,,,,,,,,,,,,,,,,,,,,,,,,,,,,,,,,,,,,,,,,,,,,,,,,,,,,,,,0E1T7F,train_x,blue_star,bottom_right,2025-02-10_14h40.11.770,HideSeek_v1,2022.2.5,60.300574242599325,
,5,0,5,4,0,4,65,,train_dim1_2,1,30,,,,5,0,5,0,,,,,,,,,0,0,0,0,0,0,0,0,4,0,4,0,,,,,,,,,,,,,,,,,,,,,,,,,,,,,,,,,,,,,,,,,,,,,,,,,,,,,,,,,,,,,,,,30,,,,,,,,798.0008803999517,798.0008803999517,798.0008803999517,798.0008803999517,798.0008803999517,return,2.1445691999979317,1,0,0,1,0.24,-0.07999999999999997,return,2.0617358998861164,4,-79,0.24,-0.07999999999999997,,,,,,,,,,,,,,,,,,,,,,,,,,,,,,,,,,,,,,,,,,,,,,,,,,,,,,,,0E1T7F,train_x,blue_star,bottom_right,2025-02-10_14h40.11.770,HideSeek_v1,2022.2.5,60.300574242599325,
,8,2,8,7,0,5,66,,train_dim1_2,2,30,,,,5,0,5,0,,,,,,,,,0,0,0,0,0,1,1,1,0,0,0,0,,,,,,,,,,,,,,,,,,,,,,,,,stimuli/alien_stimuli/66.png,,,,,,,,,,,,,,,,,,,,,,,,,,,,,stimuli/alien_stimuli/65.png,65,5,3,,,,,,,30,,,,,,,,808.3837137999944,808.3837137999944,808.3837137999944,808.3837137999944,808.3837137999944,up,1.772080299910158,1,0,0,99,0.48,-0.15999999999999998,up,1.695223999908194,,,,,806.829387200065,808.3837137999944,0.24,-0.08,0.32,0.0,-0.24000000000000002,0.24,0.24,0.24,-0.08,801.728041900089,801.728041900089,801.728041900089,801.728041900089,801.728041900089,801.728041900089,801.728041900089,801.728041900089,801.7081631499809,5.223274900112301,return,5.071500999853015,,,,,,,,,,,,,,,,,,,,,,,,,,,,,,,,,0E1T7F,train_x,blue_star,bottom_right,2025-02-10_14h40.11.770,HideSeek_v1,2022.2.5,60.300574242599325,
,8,2,8,7,0,5,66,,train_dim1_2,2,30,,,,5,0,5,0,,,,,,,,,0,0,0,0,0,1,1,1,1,0,1,0,,,,,,,,,,,,,,,,,,,,,,,,,,,,,,,,,,,,,,,,,,,,,,,,,,,,,,,,,,,,,,,,30,,,,,,,,810.1622985000722,810.1622985000722,810.1622985000722,810.1622985000722,810.1622985000722,up,0.4591842000372708,1,0,0,99,0.48,-0.07999999999999997,up,0.3812942998483777,,,,,,,,,,,,,,,,,,,,,,,,,,,,,,,,,,,,,,,,,,,,,,,,,,,,,,,,,,,,0E1T7F,train_x,blue_star,bottom_right,2025-02-10_14h40.11.770,HideSeek_v1,2022.2.5,60.300574242599325,
,8,2,8,7,0,5,66,,train_dim1_2,2,30,,,,5,0,5,0,,,,,,,,,0,0,0,0,0,1,1,1,2,0,2,0,,,,,,,,,,,,,,,,,,,,,,,,,,,,,,,,,,,,,,,,,,,,,,,,,,,,,,,,,,,,,,,,30,,,,,,,,810.6288375000004,810.6288375000004,810.6288375000004,810.6288375000004,810.6288375000004,up,0.39323089993558824,1,0,0,99,0.48,2.7755575615628914e-17,up,0.3129018999170512,,,,,,,,,,,,,,,,,,,,,,,,,,,,,,,,,,,,,,,,,,,,,,,,,,,,,,,,,,,,0E1T7F,train_x,blue_star,bottom_right,2025-02-10_14h40.11.770,HideSeek_v1,2022.2.5,60.300574242599325,
,8,2,8,7,0,5,66,,train_dim1_2,2,30,,,,5,0,5,0,,,,,,,,,0,0,0,0,0,1,1,1,3,0,3,0,,,,,,,,,,,,,,,,,,,,,,,,,,,,,,,,,,,,,,,,,,,,,,,,,,,,,,,,,,,,,,,,30,,,,,,,,811.0291471001692,811.0291471001692,811.0291471001692,811.0291471001692,811.0291471001692,up,0.40954259992577136,1,0,0,99,0.48,0.08000000000000003,up,0.32197699998505414,,,,,,,,,,,,,,,,,,,,,,,,,,,,,,,,,,,,,,,,,,,,,,,,,,,,,,,,,,,,0E1T7F,train_x,blue_star,bottom_right,2025-02-10_14h40.11.770,HideSeek_v1,2022.2.5,60.300574242599325,
,8,2,8,7,0,5,66,,train_dim1_2,2,30,,,,5,0,5,0,,,,,,,,,0,0,0,0,0,1,1,1,4,0,4,0,,,,,,,,,,,,,,,,,,,,,,,,,,,,,,,,,,,,,,,,,,,,,,,,,,,,,,,,,,,,,,,,30,,,,,,,,811.4463747001719,811.4463747001719,811.4463747001719,811.4463747001719,811.4463747001719,up,0.41014569997787476,1,0,0,99,0.48,0.16000000000000003,up,0.32283939979970455,,,,,,,,,,,,,,,,,,,,,,,,,,,,,,,,,,,,,,,,,,,,,,,,,,,,,,,,,,,,0E1T7F,train_x,blue_star,bottom_right,2025-02-10_14h40.11.770,HideSeek_v1,2022.2.5,60.300574242599325,
