trialInstr,x_fixStart,y_fixStart,x_corrSteps,y_corrSteps,x_nrSteps,y_nrSteps,alienID,trialLength,version,trialTrain,praclen,testlen,trial_label,break_on_off,beforeExpLoop.thisRepN,beforeExpLoop.thisTrialN,beforeExpLoop.thisN,beforeExpLoop.thisIndex,mini_instr_trials.thisRepN,mini_instr_trials.thisTrialN,mini_instr_trials.thisN,mini_instr_trials.thisIndex,instrLoop.thisRepN,instrLoop.thisTrialN,instrLoop.thisN,instrLoop.thisIndex,repeat_prac.thisRepN,repeat_prac.thisTrialN,repeat_prac.thisN,repeat_prac.thisIndex,trainLoop.thisRepN,trainLoop.thisTrialN,trainLoop.thisN,trainLoop.thisIndex,moveLoop_train.thisRepN,moveLoop_train.thisTrialN,moveLoop_train.thisN,moveLoop_train.thisIndex,experiment.thisRepN,experiment.thisTrialN,experiment.thisN,experiment.thisIndex,moveLoop_test.thisRepN,moveLoop_test.thisTrialN,moveLoop_test.thisN,moveLoop_test.thisIndex,mini_instr2_trials.thisRepN,mini_instr2_trials.thisTrialN,mini_instr2_trials.thisN,mini_instr2_trials.thisIndex,start_all_time,url,slideStim,audioStim,slides.started,sounds.started,nextButton.numClicks,nextButton.timesOn,nextButton.timesOff,prev_but.numClicks,prev_but.timesOn,prev_but.timesOff,alienStim,instrFile,alienStim_instr,gridImage_instr.started,startPos_3.started,key_instr.started,alienImage_3.started,sounds_1.started,key_instr.keys,key_instr.rt,all_x,all_y,FBy_corrSteps,FBy_fixStart,FBx_corrSteps,FBx_fixStart,FBy_pathSize_check,FBx_pathSize_check,gridImage_9.started,alienImageFB_3.started,startPosFB_3.started,keyFB_3.started,pathLine_ydir_2.started,pathLine_xdir_2.started,alienFace_3.started,sounds_2.started,RTFB_instr,keyFB_3.keys,keyFB_3.rt,draw_alienStim,draw_alienID,test_x,nrepcount,perfthres,percthres,earlierperf,earlystop,nextPrac,fileidx,praclen,saveACC_train,pracFile,nextPrac_train,addNrep,fileidx_endr,repExp,showearly,gridImage_4.started,startPos.started,movePos.started,key_resp.started,alienImage.started,buttonPress_train,RTchoice_train,cumAcctrain,aCorr,saveACC_choice,corrAns,x_movePos_end,y_movePos_end,key_resp.keys,key_resp.rt,wLy_dir,wLx_dir,x_movePos,y_movePos,text_2.started,text_2.stopped,aft_x_corrPos,aft_y_corrPos,y_pathSize_check,x_pathSize_check,y_pathdirY,x_pathdirY,x_pathdirX,x_corrPos,y_corrPos,gridImage_6.started,alienImageFB_2.started,startPosFB_2.started,movePosFB_2.started,keyFB_2.started,pathLine_xdir.started,pathLine_ydir.started,alienFace.started,sounds_4.started,RT_FBtrain,keyFB_2.keys,keyFB_2.rt,saveACC_pre,ACC,within_saveACC_train,earlystop_wloop,cumAcctrain_check,gridImage_3.started,alienImage_test.started,startPos_test.started,movePos_test.started,key_resp_test.started,wLy_dir_test,wLx_dir_test,buttonPress_test,RTchoice_test,cumAcctest,corrAns_test,key_resp_test.keys,key_resp_test.rt,text_3.started,text_3.stopped,total_time,end_all_time,key_resp_3.keys,slides_2.started,sounds_3.started,nextButton_2.numClicks,nextButton_2.timesOn,nextButton_2.timesOff,prev_but_2.numClicks,prev_but_2.timesOn,prev_but_2.timesOff,bye.started,participant,train_first,00_coordinate,starting corner,date,expName,psychopyVersion,frameRate,
,,,,,,,,,,,,,,,0,0,0,0,0,0,0,0,,,,,,,,,,,,,,,,,,,,,,,,,,,,,start_all_time,testround,conditions/schedules/train_y_first/red_square_00/bottom_right/instructions/Slide1.png,conditions/schedules/train_y_first/red_square_00/bottom_right/instructions/Audio1.wav,1370.3947228000034,1370.3474211406428,1,[3.9544538999907672],[3.9544666002038866],0,,,,,,,,,,,,,,,,,,,,,,,,,,,,,,,,,,,,,,,,,,,,,,,,,,,,,,,,,,,,,,,,,,,,,,,,,,,,,,,,,,,,,,,,,,,,,,,,,,,,,,,,,,,,,,,,,,,,,,,,,,,,0MW9TH,train_y,red_square,bottom_right,2025-04-03_15h51.08.455,HideSeek_v1,2022.2.5,59.86708307971288,
,,,,,,,,,,,,,,,0,0,0,0,1,0,1,0,,,,,,,,,,,,,,,,,,,,,,,,,,,,,,,conditions/schedules/train_y_first/red_square_00/bottom_right/instructions/Slide2.png,conditions/schedules/train_y_first/red_square_00/bottom_right/instructions/Audio2.wav,1374.3714899001643,1374.3703759501223,2,"[3.9544538999907672, 18.795546100009233]","[3.9544666002038866, 18.795554700074717]",0,,,,,,,,,,,,,,,,,,,,,,,,,,,,,,,,,,,,,,,,,,,,,,,,,,,,,,,,,,,,,,,,,,,,,,,,,,,,,,,,,,,,,,,,,,,,,,,,,,,,,,,,,,,,,,,,,,,,,,,,,,,,0MW9TH,train_y,red_square,bottom_right,2025-04-03_15h51.08.455,HideSeek_v1,2022.2.5,59.86708307971288,
,,,,,,,,,,,,,,,0,0,0,0,2,0,2,0,,,,,,,,,,,,,,,,,,,,,,,,,,,,,,,conditions/schedules/train_y_first/red_square_00/bottom_right/instructions/Slide3.png,conditions/schedules/train_y_first/red_square_00/bottom_right/instructions/Audio3.wav,1393.2480933000334,1393.2354039500933,3,"[3.9544538999907672, 18.795546100009233, 17.851823200006038]","[3.9544666002038866, 0.00020999996922910213, 17.851831999840215]",0,,,,,,,,,,,,,,,,,,,,,,,,,,,,,,,,,,,,,,,,,,,,,,,,,,,,,,,,,,,,,,,,,,,,,,,,,,,,,,,,,,,,,,,,,,,,,,,,,,,,,,,,,,,,,,,,,,,,,,,,,,,,0MW9TH,train_y,red_square,bottom_right,2025-04-03_15h51.08.455,HideSeek_v1,2022.2.5,59.86708307971288,
,,,,,,,,,,,,,,,0,0,0,0,3,0,3,0,,,,,,,,,,,,,,,,,,,,,,,,,,,,,,,conditions/schedules/train_y_first/red_square_00/bottom_right/instructions/Slide4.png,conditions/schedules/train_y_first/red_square_00/bottom_right/instructions/Audio4.wav,1411.1774198999628,1411.1675016500521,4,"[3.9544538999907672, 18.795546100009233, 17.851823200006038, 27.010406399844214]","[3.9544666002038866, 0.00020999996922910213, 0.00022249994799494743, 27.010414199903607]",0,,,,,,,,,,,,,,,,,,,,,,,,,,,,,,,,,,,,,,,,,,,,,,,,,,,,,,,,,,,,,,,,,,,,,,,,,,,,,,,,,,,,,,,,,,,,,,,,,,,,,,,,,,,,,,,,,,,,,,,,,,,,0MW9TH,train_y,red_square,bottom_right,2025-04-03_15h51.08.455,HideSeek_v1,2022.2.5,59.86708307971288,
,,,,,,,,,,,,,,,0,0,0,0,4,0,4,0,,,,,,,,,,,,,,,,,,,,,,,,,,,,,,,conditions/schedules/train_y_first/red_square_00/bottom_right/instructions/Slide5.png,conditions/schedules/train_y_first/red_square_00/bottom_right/instructions/Audio5.wav,1438.2539705999661,1438.2400913601741,5,"[3.9544538999907672, 18.795546100009233, 17.851823200006038, 27.010406399844214, 4.4708579001016915]","[3.9544666002038866, 0.00020999996922910213, 0.00022249994799494743, 0.00019940012134611607, 4.4708657001610845]",0,,,,,,,,,,,,,,,,,,,,,,,,,,,,,,,,,,,,,,,,,,,,,,,,,,,,,,,,,,,,,,,,,,,,,,,,,,,,,,,,,,,,,,,,,,,,,,,,,,,,,,,,,,,,,,,,,,,,,,,,,,,,0MW9TH,train_y,red_square,bottom_right,2025-04-03_15h51.08.455,HideSeek_v1,2022.2.5,59.86708307971288,
,,,,,,,,,,,,,,,0,0,0,0,5,0,5,0,,,,,,,,,,,,,,,,,,,,,,,,,,,,,,,conditions/schedules/train_y_first/red_square_00/bottom_right/instructions/Slide6.png,conditions/schedules/train_y_first/red_square_00/bottom_right/instructions/Audio6.wav,1442.7762126000598,1442.7770413600374,6,"[3.9544538999907672, 18.795546100009233, 17.851823200006038, 27.010406399844214, 4.4708579001016915, 4.535730400122702]","[3.9544666002038866, 0.00020999996922910213, 0.00022249994799494743, 0.00019940012134611607, 0.013825200032442808, 4.535737800179049]",0,,,,,,,,,,,,,,,,,,,,,,,,,,,,,,,,,,,,,,,,,,,,,,,,,,,,,,,,,,,,,,,,,,,,,,,,,,,,,,,,,,,,,,,,,,,,,,,,,,,,,,,,,,,,,,,,,,,,,,,,,,,,0MW9TH,train_y,red_square,bottom_right,2025-04-03_15h51.08.455,HideSeek_v1,2022.2.5,59.86708307971288,
,,,,,,,,,,,,,,,0,0,0,0,6,0,6,0,,,,,,,,,,,,,,,,,,,,,,,,,,,,,,,conditions/schedules/train_y_first/red_square_00/bottom_right/instructions/Slide7.png,conditions/schedules/train_y_first/red_square_00/bottom_right/instructions/Audio7.wav,1447.3641091999598,1447.3645368600264,7,"[3.9544538999907672, 18.795546100009233, 17.851823200006038, 27.010406399844214, 4.4708579001016915, 4.535730400122702, 4.968396800104529]","[3.9544666002038866, 0.00020999996922910213, 0.00022249994799494743, 0.00019940012134611607, 0.013825200032442808, 0.030747300013899803, 4.968404799932614]",0,,,,,,,,,,,,,,,,,,,,,,,,,,,,,,,,,,,,,,,,,,,,,,,,,,,,,,,,,,,,,,,,,,,,,,,,,,,,,,,,,,,,,,,,,,,,,,,,,,,,,,,,,,,,,,,,,,,,,,,,,,,,0MW9TH,train_y,red_square,bottom_right,2025-04-03_15h51.08.455,HideSeek_v1,2022.2.5,59.86708307971288,
,,,,,,,,,,,,,,,0,0,0,0,7,0,7,0,,,,,,,,,,,,,,,,,,,,,,,,,,,,,,,conditions/schedules/train_y_first/red_square_00/bottom_right/instructions/Slide8.png,conditions/schedules/train_y_first/red_square_00/bottom_right/instructions/Audio8.wav,1452.3873519999906,1452.3851815599483,8,"[3.9544538999907672, 18.795546100009233, 17.851823200006038, 27.010406399844214, 4.4708579001016915, 4.535730400122702, 4.968396800104529, 11.571953699924052]","[3.9544666002038866, 0.00020999996922910213, 0.00022249994799494743, 0.00019940012134611607, 0.013825200032442808, 0.030747300013899803, 0.04663800005801022, 11.571961800102144]",0,,,,,,,,,,,,,,,,,,,,,,,,,,,,,,,,,,,,,,,,,,,,,,,,,,,,,,,,,,,,,,,,,,,,,,,,,,,,,,,,,,,,,,,,,,,,,,,,,,,,,,,,,,,,,,,,,,,,,,,,,,,,0MW9TH,train_y,red_square,bottom_right,2025-04-03_15h51.08.455,HideSeek_v1,2022.2.5,59.86708307971288,
,,,,,,,,,,,,,,,0,0,0,0,8,0,8,0,,,,,,,,,,,,,,,,,,,,,,,,,,,,,,,conditions/schedules/train_y_first/red_square_00/bottom_right/instructions/Slide9.png,conditions/schedules/train_y_first/red_square_00/bottom_right/instructions/Audio9.wav,1464.0254449001513,1464.0115820600186,9,"[3.9544538999907672, 18.795546100009233, 17.851823200006038, 27.010406399844214, 4.4708579001016915, 4.535730400122702, 4.968396800104529, 11.571953699924052, 5.521857500076294]","[3.9544666002038866, 0.00020999996922910213, 0.00022249994799494743, 0.00019940012134611607, 0.013825200032442808, 0.030747300013899803, 0.04663800005801022, 0.034200800117105246, 5.521869300166145]",0,,,,,,,,,,,,,,,,,,,,,,,,,,,,,,,,,,,,,,,,,,,,,,,,,,,,,,,,,,,,,,,,,,,,,,,,,,,,,,,,,,,,,,,,,,,,,,,,,,,,,,,,,,,,,,,,,,,,,,,,,,,,0MW9TH,train_y,red_square,bottom_right,2025-04-03_15h51.08.455,HideSeek_v1,2022.2.5,59.86708307971288,
,,,,,,,,,,,,,,,0,0,0,0,9,0,9,0,,,,,,,,,,,,,,,,,,,,,,,,,,,,,,,conditions/schedules/train_y_first/red_square_00/bottom_right/instructions/Slide10.png,conditions/schedules/train_y_first/red_square_00/bottom_right/instructions/Audio10.wav,1469.6052586000878,1469.5994378600735,10,"[3.9544538999907672, 18.795546100009233, 17.851823200006038, 27.010406399844214, 4.4708579001016915, 4.535730400122702, 4.968396800104529, 11.571953699924052, 5.521857500076294, 6.447168399812654]","[3.9544666002038866, 0.00020999996922910213, 0.00022249994799494743, 0.00019940012134611607, 0.013825200032442808, 0.030747300013899803, 0.04663800005801022, 0.034200800117105246, 0.013922699959948659, 6.447175999870524]",0,,,,,,,,,,,,,,,,,,,,,,,,,,,,,,,,,,,,,,,,,,,,,,,,,,,,,,,,,,,,,,,,,,,,,,,,,,,,,,,,,,,,,,,,,,,,,,,,,,,,,,,,,,,,,,,,,,,,,,,,,,,,0MW9TH,train_y,red_square,bottom_right,2025-04-03_15h51.08.455,HideSeek_v1,2022.2.5,59.86708307971288,
,,,,,,,,,,,,,,,0,0,0,0,10,0,10,0,,,,,,,,,,,,,,,,,,,,,,,,,,,,,,,conditions/schedules/train_y_first/red_square_00/bottom_right/instructions/Slide11.png,conditions/schedules/train_y_first/red_square_00/bottom_right/instructions/Audio11.wav,1476.092540099984,1476.0882934699766,11,"[3.9544538999907672, 18.795546100009233, 17.851823200006038, 27.010406399844214, 4.4708579001016915, 4.535730400122702, 4.968396800104529, 11.571953699924052, 5.521857500076294, 6.447168399812654, 10.101412000134587]","[3.9544666002038866, 0.00020999996922910213, 0.00022249994799494743, 0.00019940012134611607, 0.013825200032442808, 0.030747300013899803, 0.04663800005801022, 0.034200800117105246, 0.013922699959948659, 0.04694620007649064, 10.101422500098124]",0,,,,,,,,,,,,,,,,,,,,,,,,,,,,,,,,,,,,,,,,,,,,,,,,,,,,,,,,,,,,,,,,,,,,,,,,,,,,,,,,,,,,,,,,,,,,,,,,,,,,,,,,,,,,,,,,,,,,,,,,,,,,0MW9TH,train_y,red_square,bottom_right,2025-04-03_15h51.08.455,HideSeek_v1,2022.2.5,59.86708307971288,
,,,,,,,,,,,,,,,0,0,0,0,11,0,11,0,,,,,,,,,,,,,,,,,,,,,,,,,,,,,,,conditions/schedules/train_y_first/red_square_00/bottom_right/instructions/Slide12.png,conditions/schedules/train_y_first/red_square_00/bottom_right/instructions/Audio12.wav,1486.25024510012,1486.246524060145,12,"[3.9544538999907672, 18.795546100009233, 17.851823200006038, 27.010406399844214, 4.4708579001016915, 4.535730400122702, 4.968396800104529, 11.571953699924052, 5.521857500076294, 6.447168399812654, 10.101412000134587, 13.638737600063905]","[3.9544666002038866, 0.00020999996922910213, 0.00022249994799494743, 0.00019940012134611607, 0.013825200032442808, 0.030747300013899803, 0.04663800005801022, 0.034200800117105246, 0.013922699959948659, 0.04694620007649064, 0.047880199970677495, 13.638745300006121]",0,,,,,,,,,,,,,,,,,,,,,,,,,,,,,,,,,,,,,,,,,,,,,,,,,,,,,,,,,,,,,,,,,,,,,,,,,,,,,,,,,,,,,,,,,,,,,,,,,,,,,,,,,,,,,,,,,,,,,,,,,,,,0MW9TH,train_y,red_square,bottom_right,2025-04-03_15h51.08.455,HideSeek_v1,2022.2.5,59.86708307971288,
1,7,3,7,8,0,5,11,2,instr_dim1_1,,,,,,0,0,0,0,,,,,0,0,0,0,,,,,,,,,,,,,,,,,,,,,,,,,,,,,,,,,,,,,stimuli/alien_stimuli/11.png,conditions/schedules/train_y_first/red_square_00/bottom_right/inputInstr_1.xlsx,stimuli/alien_stimuli/11.png,1499.9935798000079,1499.9935798000079,1499.9935798000079,1499.9935798000079,1499.9912174299825,return,8.92289699986577,"[-0.16, -0.08, 0, 0.08, 0.16, 0.24, 0.32, 0.4, 0.48, 0.56]","[-0.4, -0.32, -0.24, -0.16, -0.08, 0, 0.08, 0.16, 0.24, 0.32]",8,3,7,7,0.4,0.0,1509.0849004001357,1509.0849004001357,1509.0849004001357,1509.0849004001357,1509.0849004001357,1509.0849004001357,1509.0849004001357,1509.0819096099585,9.976526099955663,return,9.810565900057554,stimuli/alien_stimuli/11.png,11,7,1,,,,,,,,,,,,,,,,,,,,,,,,,,,,,,,,,,,,,,,,,,,,,,,,,,,,,,,,,,,,,,,,,,,,,,,,,,,,,,,,,,,,,,,,,0MW9TH,train_y,red_square,bottom_right,2025-04-03_15h51.08.455,HideSeek_v1,2022.2.5,59.86708307971288,
,,,,,,,,,,,30,,,,0,0,0,0,,,,,,,,,,,,,,,,,,,,,,,,,,,,,,,,,,,,,,,,,,,,,,,,,,,,,,,,,,,,,,,,,,,,,,,,,,,,,,21,0.7,0,0,99,1,30,0,conditions/schedules/train_y_first/red_square_00/bottom_right/inputTrain_1.1.xlsx,99,1,1,1,0,,,,,,,,,,,,,,,,,,,,,,,,,,,,,,,,,,,,,,,,,,,,,,,,,,,,,,,,,,,,,,,,,,,,,,,,,,,0MW9TH,train_y,red_square,bottom_right,2025-04-03_15h51.08.455,HideSeek_v1,2022.2.5,59.86708307971288,
,,,,,,,,,,,,,,,1,0,1,0,0,0,0,0,,,,,,,,,,,,,,,,,,,,,,,,,,,,,,,conditions/schedules/train_y_first/red_square_00/bottom_right/instructions/Slide13.png,conditions/schedules/train_y_first/red_square_00/bottom_right/instructions/Audio13.wav,1519.0554111001547,1519.0573010100052,13,"[3.9544538999907672, 18.795546100009233, 17.851823200006038, 27.010406399844214, 4.4708579001016915, 4.535730400122702, 4.968396800104529, 11.571953699924052, 5.521857500076294, 6.447168399812654, 10.101412000134587, 13.638737600063905, 17.46308510005474]","[3.9544666002038866, 0.00020999996922910213, 0.00022249994799494743, 0.00019940012134611607, 0.013825200032442808, 0.030747300013899803, 0.04663800005801022, 0.034200800117105246, 0.013922699959948659, 0.04694620007649064, 0.047880199970677495, 13.638745300006121, 17.463092500111088]",0,,,,,,,,,,,,,,,,,,,,,,,,,,,,,,,,,,,,,,,,,,,,,,,,,,,,,,,,,,,,,,,,,,,,,,,,,,,,,,,,,,,,,,,,,,,,,,,,,,,,,,,,,,,,,,,,,,,,,,,,,,,,0MW9TH,train_y,red_square,bottom_right,2025-04-03_15h51.08.455,HideSeek_v1,2022.2.5,59.86708307971288,
,,,,,,,,,,,,,,,1,0,1,0,1,0,1,0,,,,,,,,,,,,,,,,,,,,,,,,,,,,,,,conditions/schedules/train_y_first/red_square_00/bottom_right/instructions/Slide14.png,conditions/schedules/train_y_first/red_square_00/bottom_right/instructions/Audio14.wav,1536.5958972000517,1536.5882539500017,14,"[3.9544538999907672, 18.795546100009233, 17.851823200006038, 27.010406399844214, 4.4708579001016915, 4.535730400122702, 4.968396800104529, 11.571953699924052, 5.521857500076294, 6.447168399812654, 10.101412000134587, 13.638737600063905, 17.46308510005474, 16.837182600051165]","[3.9544666002038866, 0.00020999996922910213, 0.00022249994799494743, 0.00019940012134611607, 0.013825200032442808, 0.030747300013899803, 0.04663800005801022, 0.034200800117105246, 0.013922699959948659, 0.04694620007649064, 0.047880199970677495, 13.638745300006121, 0.01402050000615418, 16.837189699988812]",0,,,,,,,,,,,,,,,,,,,,,,,,,,,,,,,,,,,,,,,,,,,,,,,,,,,,,,,,,,,,,,,,,,,,,,,,,,,,,,,,,,,,,,,,,,,,,,,,,,,,,,,,,,,,,,,,,,,,,,,,,,,,0MW9TH,train_y,red_square,bottom_right,2025-04-03_15h51.08.455,HideSeek_v1,2022.2.5,59.86708307971288,
2,5,3,5,3,0,0,16,2,instr_dim1_1,,,,,,1,0,1,0,,,,,0,0,0,0,,,,,,,,,,,,,,,,,,,,,,,,,,,,,,,,,,,,,stimuli/alien_stimuli/16.png,conditions/schedules/train_y_first/red_square_00/bottom_right/inputInstr_1.xlsx,stimuli/alien_stimuli/16.png,1553.5295162999537,1553.5295162999537,1553.5295162999537,1553.5295162999537,1553.519064740045,return,6.947088800137863,"[-0.16, -0.08, 0, 0.08, 0.16, 0.24, 0.32, 0.4, 0.48, 0.56]","[-0.4, -0.32, -0.24, -0.16, -0.08, 0, 0.08, 0.16, 0.24, 0.32]",3,3,5,5,0.0,0.0,1560.635463700164,1560.635463700164,1560.635463700164,1560.635463700164,1560.635463700164,1560.635463700164,1560.635463700164,1560.6248137201183,8.925134000135586,return,8.767107699997723,stimuli/alien_stimuli/16.png,16,5,2,,,,,,,,,,,,,,,,,,,,,,,,,,,,,,,,,,,,,,,,,,,,,,,,,,,,,,,,,,,,,,,,,,,,,,,,,,,,,,,,,,,,,,,,,0MW9TH,train_y,red_square,bottom_right,2025-04-03_15h51.08.455,HideSeek_v1,2022.2.5,59.86708307971288,
,,,,,,,,,,,30,,,,1,0,1,0,,,,,,,,,,,,,,,,,,,,,,,,,,,,,,,,,,,,,,,,,,,,,,,,,,,,,,,,,,,,,,,,,,,,,,,,,,,,,,21,0.7,0,0,99,1,30,0,conditions/schedules/train_y_first/red_square_00/bottom_right/inputTrain_1.1.xlsx,99,1,1,1,0,,,,,,,,,,,,,,,,,,,,,,,,,,,,,,,,,,,,,,,,,,,,,,,,,,,,,,,,,,,,,,,,,,,,,,,,,,,0MW9TH,train_y,red_square,bottom_right,2025-04-03_15h51.08.455,HideSeek_v1,2022.2.5,59.86708307971288,
,,,,,,,,,,,,,,,2,0,2,0,0,0,0,0,,,,,,,,,,,,,,,,,,,,,,,,,,,,,,,conditions/schedules/train_y_first/red_square_00/bottom_right/instructions/Slide15.png,conditions/schedules/train_y_first/red_square_00/bottom_right/instructions/Audio15.wav,1569.572163700126,1569.5656821101438,15,"[3.9544538999907672, 18.795546100009233, 17.851823200006038, 27.010406399844214, 4.4708579001016915, 4.535730400122702, 4.968396800104529, 11.571953699924052, 5.521857500076294, 6.447168399812654, 10.101412000134587, 13.638737600063905, 17.46308510005474, 16.837182600051165, 42.50920239998959]","[3.9544666002038866, 0.00020999996922910213, 0.00022249994799494743, 0.00019940012134611607, 0.013825200032442808, 0.030747300013899803, 0.04663800005801022, 0.034200800117105246, 0.013922699959948659, 0.04694620007649064, 0.047880199970677495, 13.638745300006121, 0.01402050000615418, 16.837189699988812, 42.50921010016464]",0,,,,,,,,,,,,,,,,,,,,,,,,,,,,,,,,,,,,,,,,,,,,,,,,,,,,,,,,,,,,,,,,,,,,,,,,,,,,,,,,,,,,,,,,,,,,,,,,,,,,,,,,,,,,,,,,,,,,,,,,,,,,0MW9TH,train_y,red_square,bottom_right,2025-04-03_15h51.08.455,HideSeek_v1,2022.2.5,59.86708307971288,
,,,,,,,,,,,,,,,2,0,2,0,1,0,1,0,,,,,,,,,,,,,,,,,,,,,,,,,,,,,,,conditions/schedules/train_y_first/red_square_00/bottom_right/instructions/Slide16.png,conditions/schedules/train_y_first/red_square_00/bottom_right/instructions/Audio16.wav,1612.1489504000638,1612.1511858501472,16,"[3.9544538999907672, 18.795546100009233, 17.851823200006038, 27.010406399844214, 4.4708579001016915, 4.535730400122702, 4.968396800104529, 11.571953699924052, 5.521857500076294, 6.447168399812654, 10.101412000134587, 13.638737600063905, 17.46308510005474, 16.837182600051165, 42.50920239998959, 22.23485099989921]","[3.9544666002038866, 0.00020999996922910213, 0.00022249994799494743, 0.00019940012134611607, 0.013825200032442808, 0.030747300013899803, 0.04663800005801022, 0.034200800117105246, 0.013922699959948659, 0.04694620007649064, 0.047880199970677495, 13.638745300006121, 0.01402050000615418, 16.837189699988812, 0.000206399941816926, 22.23485859995708]",0,,,,,,,,,,,,,,,,,,,,,,,,,,,,,,,,,,,,,,,,,,,,,,,,,,,,,,,,,,,,,,,,,,,,,,,,,,,,,,,,,,,,,,,,,,,,,,,,,,,,,,,,,,,,,,,,,,,,,,,,,,,,0MW9TH,train_y,red_square,bottom_right,2025-04-03_15h51.08.455,HideSeek_v1,2022.2.5,59.86708307971288,
,5,0,5,1,0,1,15,,train_dim1_1,1,30,,,,2,0,2,0,,,,,,,,,0,0,0,0,0,0,0,0,0,0,0,0,,,,,,,,,,,,,,,,,,,,,,,,,stimuli/alien_stimuli/15.png,,,,,,,,,,,,,,,,,,,,,,,,,,,,,,,,,,,,,,,30,,,,,,,,1634.4908998999745,1634.4908998999745,1634.4908998999745,1634.4908998999745,1634.4908998999745,right,25.23150200000964,0,0,0,99,0.32,-0.4,right,25.128100200090557,,,,,,,,,,,,,,,,,,,,,,,,,,,,,,,,,,,,,,,,,,,,,,,,,,,,,,,,,,,,0MW9TH,train_y,red_square,bottom_right,2025-04-03_15h51.08.455,HideSeek_v1,2022.2.5,59.86708307971288,
,5,0,5,1,0,1,15,,train_dim1_1,1,30,,,,2,0,2,0,,,,,,,,,0,0,0,0,0,0,0,0,1,0,1,0,,,,,,,,,,,,,,,,,,,,,,,,,,,,,,,,,,,,,,,,,,,,,,,,,,,,,,,,,,,,,,,,30,,,,,,,,1659.7252032000106,1659.7252032000106,1659.7252032000106,1659.7252032000106,1659.7252032000106,left,7.014983499888331,0,0,0,99,0.24,-0.4,left,6.913348800037056,,,,,,,,,,,,,,,,,,,,,,,,,,,,,,,,,,,,,,,,,,,,,,,,,,,,,,,,,,,,0MW9TH,train_y,red_square,bottom_right,2025-04-03_15h51.08.455,HideSeek_v1,2022.2.5,59.86708307971288,
,5,0,5,1,0,1,15,,train_dim1_1,1,30,,,,2,0,2,0,,,,,,,,,0,0,0,0,0,0,0,0,2,0,2,0,,,,,,,,,,,,,,,,,,,,,,,,,,,,,,,,,,,,,,,,,,,,,,,,,,,,,,,,,,,,,,,,30,,,,,,,,1666.7334031001665,1666.7334031001665,1666.7334031001665,1666.7334031001665,1666.7334031001665,up,7.382405900163576,0,0,0,99,0.24,-0.32,up,7.302163900109008,,,,,,,,,,,,,,,,,,,,,,,,,,,,,,,,,,,,,,,,,,,,,,,,,,,,,,,,,,,,0MW9TH,train_y,red_square,bottom_right,2025-04-03_15h51.08.455,HideSeek_v1,2022.2.5,59.86708307971288,
,5,0,5,1,0,1,15,,train_dim1_1,1,30,,,,2,0,2,0,,,,,,,,,0,0,0,0,0,0,0,0,3,0,3,0,,,,,,,,,,,,,,,,,,,,,,,,,,,,,,,,,,,,,,,,,,,,,,,,,,,,,,,,,,,,,,,,30,,,,,,,,1674.1205009000842,1674.1205009000842,1674.1205009000842,1674.1205009000842,1674.1205009000842,up,4.279757099924609,0,0,0,99,0.24,-0.24,up,4.198441200191155,,,,,,,,,,,,,,,,,,,,,,,,,,,,,,,,,,,,,,,,,,,,,,,,,,,,,,,,,,,,0MW9TH,train_y,red_square,bottom_right,2025-04-03_15h51.08.455,HideSeek_v1,2022.2.5,59.86708307971288,
,5,0,5,1,0,1,15,,train_dim1_1,1,30,,,,2,0,2,0,,,,,,,,,0,0,0,0,0,0,0,0,4,0,4,0,,,,,,,,,,,,,,,,,,,,,,,,,,,,,,,,,,,,,,,,,,,,,,,,,,,,,,,,,,,,,,,,30,,,,,,,,1678.407276400132,1678.407276400132,1678.407276400132,1678.407276400132,1678.407276400132,left,6.715302400058135,0,0,0,99,0.15999999999999998,-0.24,left,6.634414100088179,,,,,,,,,,,,,,,,,,,,,,,,,,,,,,,,,,,,,,,,,,,,,,,,,,,,,,,,,,,,0MW9TH,train_y,red_square,bottom_right,2025-04-03_15h51.08.455,HideSeek_v1,2022.2.5,59.86708307971288,
,5,0,5,1,0,1,15,,train_dim1_1,1,30,,,,2,0,2,0,,,,,,,,,0,0,0,0,0,0,0,0,5,0,5,0,,,,,,,,,,,,,,,,,,,,,,,,,,,,,,,,,,,,,,,,,,,,,,,,,,,,,,,,,,,,,,,,30,,,,,,,,1685.1448516999371,1685.1448516999371,1685.1448516999371,1685.1448516999371,1685.1448516999371,left,7.982952299993485,0,0,0,99,0.07999999999999997,-0.24,left,7.883425300009549,,,,,,,,,,,,,,,,,,,,,,,,,,,,,,,,,,,,,,,,,,,,,,,,,,,,,,,,,,,,0MW9TH,train_y,red_square,bottom_right,2025-04-03_15h51.08.455,HideSeek_v1,2022.2.5,59.86708307971288,
,5,0,5,1,0,1,15,,train_dim1_1,1,30,,,,2,0,2,0,,,,,,,,,0,0,0,0,0,0,0,0,6,0,6,0,,,,,,,,,,,,,,,,,,,,,,,,,,,,,,,,,,,,,,,,,,,,,,,,,,,,,,,,,,,,,,,,30,,,,,,,,1693.1202235999517,1693.1202235999517,1693.1202235999517,1693.1202235999517,1693.1202235999517,up,3.745943299960345,0,0,0,99,0.07999999999999997,-0.15999999999999998,up,3.6632931001950055,,,,,,,,,,,,,,,,,,,,,,,,,,,,,,,,,,,,,,,,,,,,,,,,,,,,,,,,,,,,0MW9TH,train_y,red_square,bottom_right,2025-04-03_15h51.08.455,HideSeek_v1,2022.2.5,59.86708307971288,
,5,0,5,1,0,1,15,,train_dim1_1,1,30,,,,2,0,2,0,,,,,,,,,0,0,0,0,0,0,0,0,7,0,7,0,,,,,,,,,,,,,,,,,,,,,,,,,,,,,,,,,,,,,,,,,,,,,,,,,,,,,,,,,,,,,,,,30,,,,,,,,1696.8728841000702,1696.8728841000702,1696.8728841000702,1696.8728841000702,1696.8728841000702,up,5.998032500036061,0,0,0,99,0.07999999999999997,-0.07999999999999997,up,5.905463899951428,,,,,,,,,,,,,,,,,,,,,,,,,,,,,,,,,,,,,,,,,,,,,,,,,,,,,,,,,,,,0MW9TH,train_y,red_square,bottom_right,2025-04-03_15h51.08.455,HideSeek_v1,2022.2.5,59.86708307971288,
,5,0,5,1,0,1,15,,train_dim1_1,1,30,,,,2,0,2,0,,,,,,,,,0,0,0,0,0,0,0,0,8,0,8,0,,,,,,,,,,,,,,,,,,,,,,,,,,,,,,,,,,,,,,,,,,,,,,,,,,,,,,,,,,,,,,,,30,,,,,,,,1702.877404900035,1702.877404900035,1702.877404900035,1702.877404900035,1702.877404900035,left,8.31662239995785,0,0,0,99,-2.7755575615628914e-17,-0.07999999999999997,left,8.229747100034729,,,,,,,,,,,,,,,,,,,,,,,,,,,,,,,,,,,,,,,,,,,,,,,,,,,,,,,,,,,,0MW9TH,train_y,red_square,bottom_right,2025-04-03_15h51.08.455,HideSeek_v1,2022.2.5,59.86708307971288,
,5,0,5,1,0,1,15,,train_dim1_1,1,30,,,,2,0,2,0,,,,,,,,,0,0,0,0,0,0,0,0,9,0,9,0,,,,,,,,,,,,,,,,,,,,,,,,,,,,,,,,,,,,,,,,,,,,,,,,,,,,,,,,,,,,,,,,30,,,,,,,,1711.2213316000998,1711.2213316000998,1711.2213316000998,1711.2213316000998,1711.2213316000998,left,1.877078700112179,0,0,0,99,-0.08000000000000003,-0.07999999999999997,left,1.7793090001214296,,,,,,,,,,,,,,,,,,,,,,,,,,,,,,,,,,,,,,,,,,,,,,,,,,,,,,,,,,,,0MW9TH,train_y,red_square,bottom_right,2025-04-03_15h51.08.455,HideSeek_v1,2022.2.5,59.86708307971288,
,5,0,5,1,0,1,15,,train_dim1_1,1,30,,,,2,0,2,0,,,,,,,,,0,0,0,0,0,0,0,0,10,0,10,0,,,,,,,,,,,,,,,,,,,,,,,,,,,,,,,,,,,,,,,,,,,,,,,,,,,,,,,,,,,,,,,,30,,,,,,,,1713.086501199985,1713.086501199985,1713.086501199985,1713.086501199985,1713.086501199985,return,1.6271421001292765,0,0,0,0,-0.08000000000000003,-0.07999999999999997,return,1.5485977998469025,4,-4,-0.08000000000000003,-0.07999999999999997,,,,,,,,,,,,,,,,,,,,,,,,,,,,,,,,,,,,,,,,,,,,,,,,,,,,,,,,0MW9TH,train_y,red_square,bottom_right,2025-04-03_15h51.08.455,HideSeek_v1,2022.2.5,59.86708307971288,
,8,2,8,2,0,0,16,,train_dim1_1,2,30,,,,2,0,2,0,,,,,,,,,0,0,0,0,0,1,1,1,0,0,0,0,,,,,,,,,,,,,,,,,,,,,,,,,stimuli/alien_stimuli/16.png,,,,,,,,,,,,,,,,,,,,,,,,,,,,,stimuli/alien_stimuli/15.png,15,5,3,,,,,,,30,,,,,,,,1738.212389799999,1738.212389799999,1738.212389799999,1738.212389799999,1738.212389799999,up,1.737100699916482,0,0,0,99,0.48,-0.15999999999999998,up,1.6299161999486387,,,,,1736.6380837000906,1738.212389799999,0.24,-0.32,0.08,0.0,-0.36,0.24,0.24,0.24,-0.32,1716.2877581999637,1716.2877581999637,1716.2877581999637,1716.2877581999637,1716.2877581999637,1716.2877581999637,1716.2877581999637,1716.2877581999637,1716.2706754300743,20.46944690006785,return,20.320798799861223,,,,,,,,,,,,,,,,,,,,,,,,,,,,,,,,,0MW9TH,train_y,red_square,bottom_right,2025-04-03_15h51.08.455,HideSeek_v1,2022.2.5,59.86708307971288,
,8,2,8,2,0,0,16,,train_dim1_1,2,30,,,,2,0,2,0,,,,,,,,,0,0,0,0,0,1,1,1,1,0,1,0,,,,,,,,,,,,,,,,,,,,,,,,,,,,,,,,,,,,,,,,,,,,,,,,,,,,,,,,,,,,,,,,30,,,,,,,,1739.9418677999638,1739.9418677999638,1739.9418677999638,1739.9418677999638,1739.9418677999638,up,2.0610364000312984,0,0,0,99,0.48,-0.07999999999999997,up,1.974029199918732,,,,,,,,,,,,,,,,,,,,,,,,,,,,,,,,,,,,,,,,,,,,,,,,,,,,,,,,,,,,0MW9TH,train_y,red_square,bottom_right,2025-04-03_15h51.08.455,HideSeek_v1,2022.2.5,59.86708307971288,
,8,2,8,2,0,0,16,,train_dim1_1,2,30,,,,2,0,2,0,,,,,,,,,0,0,0,0,0,1,1,1,2,0,2,0,,,,,,,,,,,,,,,,,,,,,,,,,,,,,,,,,,,,,,,,,,,,,,,,,,,,,,,,,,,,,,,,30,,,,,,,,1742.0091848999728,1742.0091848999728,1742.0091848999728,1742.0091848999728,1742.0091848999728,up,0.5934996998403221,0,0,0,99,0.48,2.7755575615628914e-17,up,0.5072848000563681,,,,,,,,,,,,,,,,,,,,,,,,,,,,,,,,,,,,,,,,,,,,,,,,,,,,,,,,,,,,0MW9TH,train_y,red_square,bottom_right,2025-04-03_15h51.08.455,HideSeek_v1,2022.2.5,59.86708307971288,
,8,2,8,2,0,0,16,,train_dim1_1,2,30,,,,2,0,2,0,,,,,,,,,0,0,0,0,0,1,1,1,3,0,3,0,,,,,,,,,,,,,,,,,,,,,,,,,,,,,,,,,,,,,,,,,,,,,,,,,,,,,,,,,,,,,,,,30,,,,,,,,1742.6099746001419,1742.6099746001419,1742.6099746001419,1742.6099746001419,1742.6099746001419,up,0.9937118999660015,0,0,0,99,0.48,0.08000000000000003,up,0.9023228001315147,,,,,,,,,,,,,,,,,,,,,,,,,,,,,,,,,,,,,,,,,,,,,,,,,,,,,,,,,,,,0MW9TH,train_y,red_square,bottom_right,2025-04-03_15h51.08.455,HideSeek_v1,2022.2.5,59.86708307971288,
,8,2,8,2,0,0,16,,train_dim1_1,2,30,,,,2,0,2,0,,,,,,,,,0,0,0,0,0,1,1,1,4,0,4,0,,,,,,,,,,,,,,,,,,,,,,,,,,,,,,,,,,,,,,,,,,,,,,,,,,,,,,,,,,,,,,,,30,,,,,,,,1743.610316999955,1743.610316999955,1743.610316999955,1743.610316999955,1743.610316999955,up,1.2107973999809474,0,0,0,99,0.48,0.16000000000000003,up,1.1350968000479043,,,,,,,,,,,,,,,,,,,,,,,,,,,,,,,,,,,,,,,,,,,,,,,,,,,,,,,,,,,,0MW9TH,train_y,red_square,bottom_right,2025-04-03_15h51.08.455,HideSeek_v1,2022.2.5,59.86708307971288,
,8,2,8,2,0,0,16,,train_dim1_1,2,30,,,,2,0,2,0,,,,,,,,,0,0,0,0,0,1,1,1,5,0,5,0,,,,,,,,,,,,,,,,,,,,,,,,,,,,,,,,,,,,,,,,,,,,,,,,,,,,,,,,,,,,,,,,30,,,,,,,,1744.8281279001385,1744.8281279001385,1744.8281279001385,1744.8281279001385,1744.8281279001385,up,0.46016740007326007,0,0,0,99,0.48,0.24000000000000005,up,0.3831642000004649,,,,,,,,,,,,,,,,,,,,,,,,,,,,,,,,,,,,,,,,,,,,,,,,,,,,,,,,,,,,0MW9TH,train_y,red_square,bottom_right,2025-04-03_15h51.08.455,HideSeek_v1,2022.2.5,59.86708307971288,
,8,2,8,2,0,0,16,,train_dim1_1,2,30,,,,2,0,2,0,,,,,,,,,0,0,0,0,0,1,1,1,6,0,6,0,,,,,,,,,,,,,,,,,,,,,,,,,,,,,,,,,,,,,,,,,,,,,,,,,,,,,,,,,,,,,,,,30,,,,,,,,1745.2952279001474,1745.2952279001474,1745.2952279001474,1745.2952279001474,1745.2952279001474,left,2.0948028001002967,0,0,0,99,0.39999999999999997,0.24000000000000005,left,2.0178751999046654,,,,,,,,,,,,,,,,,,,,,,,,,,,,,,,,,,,,,,,,,,,,,,,,,,,,,,,,,,,,0MW9TH,train_y,red_square,bottom_right,2025-04-03_15h51.08.455,HideSeek_v1,2022.2.5,59.86708307971288,
,8,2,8,2,0,0,16,,train_dim1_1,2,30,,,,2,0,2,0,,,,,,,,,0,0,0,0,0,1,1,1,7,0,7,0,,,,,,,,,,,,,,,,,,,,,,,,,,,,,,,,,,,,,,,,,,,,,,,,,,,,,,,,,,,,,,,,30,,,,,,,,1747.3974123999942,1747.3974123999942,1747.3974123999942,1747.3974123999942,1747.3974123999942,left,0.6766460000071675,0,0,0,99,0.31999999999999995,0.24000000000000005,left,0.5854841000400484,,,,,,,,,,,,,,,,,,,,,,,,,,,,,,,,,,,,,,,,,,,,,,,,,,,,,,,,,,,,0MW9TH,train_y,red_square,bottom_right,2025-04-03_15h51.08.455,HideSeek_v1,2022.2.5,59.86708307971288,
,8,2,8,2,0,0,16,,train_dim1_1,2,30,,,,2,0,2,0,,,,,,,,,0,0,0,0,0,1,1,1,8,0,8,0,,,,,,,,,,,,,,,,,,,,,,,,,,,,,,,,,,,,,,,,,,,,,,,,,,,,,,,,,,,,,,,,30,,,,,,,,1748.0813412000425,1748.0813412000425,1748.0813412000425,1748.0813412000425,1748.0813412000425,left,1.210684600053355,0,0,0,99,0.23999999999999994,0.24000000000000005,left,1.1296685000415891,,,,,,,,,,,,,,,,,,,,,,,,,,,,,,,,,,,,,,,,,,,,,,,,,,,,,,,,,,,,0MW9TH,train_y,red_square,bottom_right,2025-04-03_15h51.08.455,HideSeek_v1,2022.2.5,59.86708307971288,
,8,2,8,2,0,0,16,,train_dim1_1,2,30,,,,2,0,2,0,,,,,,,,,0,0,0,0,0,1,1,1,9,0,9,0,,,,,,,,,,,,,,,,,,,,,,,,,,,,,,,,,,,,,,,,,,,,,,,,,,,,,,,,,,,,,,,,30,,,,,,,,1749.2989654999692,1749.2989654999692,1749.2989654999692,1749.2989654999692,1749.2989654999692,down,1.4272637001704425,0,0,0,99,0.23999999999999994,0.16000000000000003,down,1.340214699972421,,,,,,,,,,,,,,,,,,,,,,,,,,,,,,,,,,,,,,,,,,,,,,,,,,,,,,,,,,,,0MW9TH,train_y,red_square,bottom_right,2025-04-03_15h51.08.455,HideSeek_v1,2022.2.5,59.86708307971288,
,8,2,8,2,0,0,16,,train_dim1_1,2,30,,,,2,0,2,0,,,,,,,,,0,0,0,0,0,1,1,1,10,0,10,0,,,,,,,,,,,,,,,,,,,,,,,,,,,,,,,,,,,,,,,,,,,,,,,,,,,,,,,,,,,,,,,,30,,,,,,,,1750.7330573999789,1750.7330573999789,1750.7330573999789,1750.7330573999789,1750.7330573999789,down,0.7606728998944163,0,0,0,99,0.23999999999999994,0.08000000000000003,down,0.6798349998425692,,,,,,,,,,,,,,,,,,,,,,,,,,,,,,,,,,,,,,,,,,,,,,,,,,,,,,,,,,,,0MW9TH,train_y,red_square,bottom_right,2025-04-03_15h51.08.455,HideSeek_v1,2022.2.5,59.86708307971288,
,8,2,8,2,0,0,16,,train_dim1_1,2,30,,,,2,0,2,0,,,,,,,,,0,0,0,0,0,1,1,1,11,0,11,0,,,,,,,,,,,,,,,,,,,,,,,,,,,,,,,,,,,,,,,,,,,,,,,,,,,,,,,,,,,,,,,,30,,,,,,,,1751.5008747000247,1751.5008747000247,1751.5008747000247,1751.5008747000247,1751.5008747000247,down,1.1770797001663595,0,0,0,99,0.23999999999999994,2.7755575615628914e-17,down,1.0848840000107884,,,,,,,,,,,,,,,,,,,,,,,,,,,,,,,,,,,,,,,,,,,,,,,,,,,,,,,,,,,,0MW9TH,train_y,red_square,bottom_right,2025-04-03_15h51.08.455,HideSeek_v1,2022.2.5,59.86708307971288,
,8,2,8,2,0,0,16,,train_dim1_1,2,30,,,,2,0,2,0,,,,,,,,,0,0,0,0,0,1,1,1,12,0,12,0,,,,,,,,,,,,,,,,,,,,,,,,,,,,,,,,,,,,,,,,,,,,,,,,,,,,,,,,,,,,,,,,30,,,,,,,,1752.6852343000937,1752.6852343000937,1752.6852343000937,1752.6852343000937,1752.6852343000937,down,0.559988799970597,0,0,0,99,0.23999999999999994,-0.07999999999999997,down,0.47145770001225173,,,,,,,,,,,,,,,,,,,,,,,,,,,,,,,,,,,,,,,,,,,,,,,,,,,,,,,,,,,,0MW9TH,train_y,red_square,bottom_right,2025-04-03_15h51.08.455,HideSeek_v1,2022.2.5,59.86708307971288,
,8,2,8,2,0,0,16,,train_dim1_1,2,30,,,,2,0,2,0,,,,,,,,,0,0,0,0,0,1,1,1,13,0,13,0,,,,,,,,,,,,,,,,,,,,,,,,,,,,,,,,,,,,,,,,,,,,,,,,,,,,,,,,,,,,,,,,30,,,,,,,,1753.2527660999913,1753.2527660999913,1753.2527660999913,1753.2527660999913,1753.2527660999913,down,0.3930196000728756,0,0,0,99,0.23999999999999994,-0.15999999999999998,down,0.3037995998747647,,,,,,,,,,,,,,,,,,,,,,,,,,,,,,,,,,,,,,,,,,,,,,,,,,,,,,,,,,,,0MW9TH,train_y,red_square,bottom_right,2025-04-03_15h51.08.455,HideSeek_v1,2022.2.5,59.86708307971288,
,8,2,8,2,0,0,16,,train_dim1_1,2,30,,,,2,0,2,0,,,,,,,,,0,0,0,0,0,1,1,1,14,0,14,0,,,,,,,,,,,,,,,,,,,,,,,,,,,,,,,,,,,,,,,,,,,,,,,,,,,,,,,,,,,,,,,,30,,,,,,,,1753.6531901001,1753.6531901001,1753.6531901001,1753.6531901001,1753.6531901001,down,0.39317479985766113,0,0,0,99,0.23999999999999994,-0.24,down,0.3010968999005854,,,,,,,,,,,,,,,,,,,,,,,,,,,,,,,,,,,,,,,,,,,,,,,,,,,,,,,,,,,,0MW9TH,train_y,red_square,bottom_right,2025-04-03_15h51.08.455,HideSeek_v1,2022.2.5,59.86708307971288,
,8,2,8,2,0,0,16,,train_dim1_1,2,30,,,,2,0,2,0,,,,,,,,,0,0,0,0,0,1,1,1,15,0,15,0,,,,,,,,,,,,,,,,,,,,,,,,,,,,,,,,,,,,,,,,,,,,,,,,,,,,,,,,,,,,,,,,30,,,,,,,,1754.0528846001253,1754.0528846001253,1754.0528846001253,1754.0528846001253,1754.0528846001253,return,3.7126885999459773,0,0,0,0,0.23999999999999994,-0.24,return,3.631045099813491,4,-7,0.23999999999999994,-0.24,,,,,,,,,,,,,,,,,,,,,,,,,,,,,,,,,,,,,,,,,,,,,,,,,,,,,,,,0MW9TH,train_y,red_square,bottom_right,2025-04-03_15h51.08.455,HideSeek_v1,2022.2.5,59.86708307971288,
,7,3,7,6,0,3,13,,train_dim1_1,3,30,,,,2,0,2,0,,,,,,,,,0,0,0,0,0,2,2,2,0,0,0,0,,,,,,,,,,,,,,,,,,,,,,,,,stimuli/alien_stimuli/13.png,,,,,,,,,,,,,,,,,,,,,,,,,,,,,stimuli/alien_stimuli/16.png,16,8,4,,,,,,,30,,,,,,,,1770.609902099939,1770.609902099939,1770.609902099939,1770.609902099939,1770.609902099939,return,0.18716369988396764,0,0,0,0,0.4,-0.16,return,0.07799539994448423,4,-7,0.4,-0.16,1769.0316133999731,1770.609902099939,0.48,-0.24,0.0,0.0,-0.24,0.48,0.48,0.48,-0.24,1759.3408963000402,1759.3408963000402,1759.3408963000402,1759.3408963000402,1759.3408963000402,1759.3408963000402,1759.3408963000402,1759.3408963000402,1759.3400120199658,9.810455299913883,return,9.66804839996621,,,,,,,,,,,,,,,,,,,,,,,,,,,,,,,,,0MW9TH,train_y,red_square,bottom_right,2025-04-03_15h51.08.455,HideSeek_v1,2022.2.5,59.86708307971288,
,5,1,5,5,0,4,12,,train_dim1_1,4,30,,,,2,0,2,0,,,,,,,,,0,0,0,0,0,3,3,3,0,0,0,0,,,,,,,,,,,,,,,,,,,,,,,,,stimuli/alien_stimuli/12.png,,,,,,,,,,,,,,,,,,,,,,,,,,,,,stimuli/alien_stimuli/13.png,13,7,5,,,,,,,30,,,,,,,,1782.2727586000692,1782.2727586000692,1782.2727586000692,1782.2727586000692,1782.2727586000692,up,2.5514583000913262,0,0,0,99,0.24,-0.24,up,2.456492899917066,,,,,1780.7077271000016,1782.2727586000692,0.4,0.08,0.24,0.0,-0.04,0.4,0.4,0.4,0.08,1772.3476730000693,1772.3476730000693,1772.3476730000693,1772.3476730000693,1772.3476730000693,1772.3476730000693,1772.3476730000693,1772.3476730000693,1772.334122630069,8.476130299968645,return,8.338920099893585,,,,,,,,,,,,,,,,,,,,,,,,,,,,,,,,,0MW9TH,train_y,red_square,bottom_right,2025-04-03_15h51.08.455,HideSeek_v1,2022.2.5,59.86708307971288,
,5,1,5,5,0,4,12,,train_dim1_1,4,30,,,,2,0,2,0,,,,,,,,,0,0,0,0,0,3,3,3,1,0,1,0,,,,,,,,,,,,,,,,,,,,,,,,,,,,,,,,,,,,,,,,,,,,,,,,,,,,,,,,,,,,,,,,30,,,,,,,,1784.8331434000283,1784.8331434000283,1784.8331434000283,1784.8331434000283,1784.8331434000283,up,0.6736026001162827,0,0,0,99,0.24,-0.15999999999999998,up,0.5915766998659819,,,,,,,,,,,,,,,,,,,,,,,,,,,,,,,,,,,,,,,,,,,,,,,,,,,,,,,,,,,,0MW9TH,train_y,red_square,bottom_right,2025-04-03_15h51.08.455,HideSeek_v1,2022.2.5,59.86708307971288,
,5,1,5,5,0,4,12,,train_dim1_1,4,30,,,,2,0,2,0,,,,,,,,,0,0,0,0,0,3,3,3,2,0,2,0,,,,,,,,,,,,,,,,,,,,,,,,,,,,,,,,,,,,,,,,,,,,,,,,,,,,,,,,,,,,,,,,30,,,,,,,,1785.5124278999865,1785.5124278999865,1785.5124278999865,1785.5124278999865,1785.5124278999865,up,0.6100331998895854,0,0,0,99,0.24,-0.07999999999999997,up,0.5269510999787599,,,,,,,,,,,,,,,,,,,,,,,,,,,,,,,,,,,,,,,,,,,,,,,,,,,,,,,,,,,,0MW9TH,train_y,red_square,bottom_right,2025-04-03_15h51.08.455,HideSeek_v1,2022.2.5,59.86708307971288,
,5,1,5,5,0,4,12,,train_dim1_1,4,30,,,,2,0,2,0,,,,,,,,,0,0,0,0,0,3,3,3,3,0,3,0,,,,,,,,,,,,,,,,,,,,,,,,,,,,,,,,,,,,,,,,,,,,,,,,,,,,,,,,,,,,,,,,30,,,,,,,,1786.1301484999713,1786.1301484999713,1786.1301484999713,1786.1301484999713,1786.1301484999713,up,0.7603633999824524,0,0,0,99,0.24,2.7755575615628914e-17,up,0.677727600093931,,,,,,,,,,,,,,,,,,,,,,,,,,,,,,,,,,,,,,,,,,,,,,,,,,,,,,,,,,,,0MW9TH,train_y,red_square,bottom_right,2025-04-03_15h51.08.455,HideSeek_v1,2022.2.5,59.86708307971288,
,5,1,5,5,0,4,12,,train_dim1_1,4,30,,,,2,0,2,0,,,,,,,,,0,0,0,0,0,3,3,3,4,0,4,0,,,,,,,,,,,,,,,,,,,,,,,,,,,,,,,,,,,,,,,,,,,,,,,,,,,,,,,,,,,,,,,,30,,,,,,,,1786.8969189999625,1786.8969189999625,1786.8969189999625,1786.8969189999625,1786.8969189999625,up,1.3107046999502927,0,0,0,99,0.24,0.08000000000000003,up,1.2224666001275182,,,,,,,,,,,,,,,,,,,,,,,,,,,,,,,,,,,,,,,,,,,,,,,,,,,,,,,,,,,,0MW9TH,train_y,red_square,bottom_right,2025-04-03_15h51.08.455,HideSeek_v1,2022.2.5,59.86708307971288,
,5,1,5,5,0,4,12,,train_dim1_1,4,30,,,,2,0,2,0,,,,,,,,,0,0,0,0,0,3,3,3,5,0,5,0,,,,,,,,,,,,,,,,,,,,,,,,,,,,,,,,,,,,,,,,,,,,,,,,,,,,,,,,,,,,,,,,30,,,,,,,,1788.2151475001592,1788.2151475001592,1788.2151475001592,1788.2151475001592,1788.2151475001592,up,0.5594487001653761,0,0,0,99,0.24,0.16000000000000003,up,0.4778037001378834,,,,,,,,,,,,,,,,,,,,,,,,,,,,,,,,,,,,,,,,,,,,,,,,,,,,,,,,,,,,0MW9TH,train_y,red_square,bottom_right,2025-04-03_15h51.08.455,HideSeek_v1,2022.2.5,59.86708307971288,
,5,1,5,5,0,4,12,,train_dim1_1,4,30,,,,2,0,2,0,,,,,,,,,0,0,0,0,0,3,3,3,6,0,6,0,,,,,,,,,,,,,,,,,,,,,,,,,,,,,,,,,,,,,,,,,,,,,,,,,,,,,,,,,,,,,,,,30,,,,,,,,1788.7819865001366,1788.7819865001366,1788.7819865001366,1788.7819865001366,1788.7819865001366,right,0.8435490000993013,0,0,0,99,0.32,0.16000000000000003,right,0.751642599934712,,,,,,,,,,,,,,,,,,,,,,,,,,,,,,,,,,,,,,,,,,,,,,,,,,,,,,,,,,,,0MW9TH,train_y,red_square,bottom_right,2025-04-03_15h51.08.455,HideSeek_v1,2022.2.5,59.86708307971288,
,5,1,5,5,0,4,12,,train_dim1_1,4,30,,,,2,0,2,0,,,,,,,,,0,0,0,0,0,3,3,3,7,0,7,0,,,,,,,,,,,,,,,,,,,,,,,,,,,,,,,,,,,,,,,,,,,,,,,,,,,,,,,,,,,,,,,,30,,,,,,,,1789.632849200163,1789.632849200163,1789.632849200163,1789.632849200163,1789.632849200163,down,1.7447326998226345,0,0,0,99,0.32,0.08000000000000003,down,1.655977999791503,,,,,,,,,,,,,,,,,,,,,,,,,,,,,,,,,,,,,,,,,,,,,,,,,,,,,,,,,,,,0MW9TH,train_y,red_square,bottom_right,2025-04-03_15h51.08.455,HideSeek_v1,2022.2.5,59.86708307971288,
,5,1,5,5,0,4,12,,train_dim1_1,4,30,,,,2,0,2,0,,,,,,,,,0,0,0,0,0,3,3,3,8,0,8,0,,,,,,,,,,,,,,,,,,,,,,,,,,,,,,,,,,,,,,,,,,,,,,,,,,,,,,,,,,,,,,,,30,,,,,,,,1791.3848425000906,1791.3848425000906,1791.3848425000906,1791.3848425000906,1791.3848425000906,down,1.3104759000707418,0,0,0,99,0.32,2.7755575615628914e-17,down,1.2247441001236439,,,,,,,,,,,,,,,,,,,,,,,,,,,,,,,,,,,,,,,,,,,,,,,,,,,,,,,,,,,,0MW9TH,train_y,red_square,bottom_right,2025-04-03_15h51.08.455,HideSeek_v1,2022.2.5,59.86708307971288,
,5,1,5,5,0,4,12,,train_dim1_1,4,30,,,,2,0,2,0,,,,,,,,,0,0,0,0,0,3,3,3,9,0,9,0,,,,,,,,,,,,,,,,,,,,,,,,,,,,,,,,,,,,,,,,,,,,,,,,,,,,,,,,,,,,,,,,30,,,,,,,,1792.7019508001395,1792.7019508001395,1792.7019508001395,1792.7019508001395,1792.7019508001395,down,0.4104848999995738,0,0,0,99,0.32,-0.07999999999999997,down,0.31840400001965463,,,,,,,,,,,,,,,,,,,,,,,,,,,,,,,,,,,,,,,,,,,,,,,,,,,,,,,,,,,,0MW9TH,train_y,red_square,bottom_right,2025-04-03_15h51.08.455,HideSeek_v1,2022.2.5,59.86708307971288,
,5,1,5,5,0,4,12,,train_dim1_1,4,30,,,,2,0,2,0,,,,,,,,,0,0,0,0,0,3,3,3,10,0,10,0,,,,,,,,,,,,,,,,,,,,,,,,,,,,,,,,,,,,,,,,,,,,,,,,,,,,,,,,,,,,,,,,30,,,,,,,,1793.1191388000734,1793.1191388000734,1793.1191388000734,1793.1191388000734,1793.1191388000734,down,0.42634900007396936,0,0,0,99,0.32,-0.15999999999999998,down,0.33448219997808337,,,,,,,,,,,,,,,,,,,,,,,,,,,,,,,,,,,,,,,,,,,,,,,,,,,,,,,,,,,,0MW9TH,train_y,red_square,bottom_right,2025-04-03_15h51.08.455,HideSeek_v1,2022.2.5,59.86708307971288,
,5,1,5,5,0,4,12,,train_dim1_1,4,30,,,,2,0,2,0,,,,,,,,,0,0,0,0,0,3,3,3,11,0,11,0,,,,,,,,,,,,,,,,,,,,,,,,,,,,,,,,,,,,,,,,,,,,,,,,,,,,,,,,,,,,,,,,30,,,,,,,,1793.5525249000639,1793.5525249000639,1793.5525249000639,1793.5525249000639,1793.5525249000639,down,0.4268928000237793,0,0,0,99,0.32,-0.24,down,0.3385729000438005,,,,,,,,,,,,,,,,,,,,,,,,,,,,,,,,,,,,,,,,,,,,,,,,,,,,,,,,,,,,0MW9TH,train_y,red_square,bottom_right,2025-04-03_15h51.08.455,HideSeek_v1,2022.2.5,59.86708307971288,
,5,1,5,5,0,4,12,,train_dim1_1,4,30,,,,2,0,2,0,,,,,,,,,0,0,0,0,0,3,3,3,12,0,12,0,,,,,,,,,,,,,,,,,,,,,,,,,,,,,,,,,,,,,,,,,,,,,,,,,,,,,,,,,,,,,,,,30,,,,,,,,1793.9864799000788,1793.9864799000788,1793.9864799000788,1793.9864799000788,1793.9864799000788,down,0.3595032999292016,0,0,0,99,0.32,-0.32,down,0.2815683998633176,,,,,,,,,,,,,,,,,,,,,,,,,,,,,,,,,,,,,,,,,,,,,,,,,,,,,,,,,,,,0MW9TH,train_y,red_square,bottom_right,2025-04-03_15h51.08.455,HideSeek_v1,2022.2.5,59.86708307971288,
,5,1,5,5,0,4,12,,train_dim1_1,4,30,,,,2,0,2,0,,,,,,,,,0,0,0,0,0,3,3,3,13,0,13,0,,,,,,,,,,,,,,,,,,,,,,,,,,,,,,,,,,,,,,,,,,,,,,,,,,,,,,,,,,,,,,,,30,,,,,,,,1794.3550025001168,1794.3550025001168,1794.3550025001168,1794.3550025001168,1794.3550025001168,return,4.679753300035372,0,0,0,0,0.32,-0.32,return,4.599102699896321,4,-6,0.32,-0.32,,,,,,,,,,,,,,,,,,,,,,,,,,,,,,,,,,,,,,,,,,,,,,,,,,,,,,,,0MW9TH,train_y,red_square,bottom_right,2025-04-03_15h51.08.455,HideSeek_v1,2022.2.5,59.86708307971288,
,8,3,8,8,0,5,11,,train_dim1_1,5,30,,,,2,0,2,0,,,,,,,,,0,0,0,0,0,4,4,4,0,0,0,0,,,,,,,,,,,,,,,,,,,,,,,,,stimuli/alien_stimuli/11.png,,,,,,,,,,,,,,,,,,,,,,,,,,,,,stimuli/alien_stimuli/12.png,12,5,6,,,,,,,30,,,,,,,,1813.8829272000585,1813.8829272000585,1813.8829272000585,1813.8829272000585,1813.8829272000585,up,2.483689900022,0,0,0,99,0.48,-0.08,up,2.379602300003171,,,,,1812.3004636999685,1813.8829272000585,0.24,0,0.32,0.0,-0.16,0.24,0.24,0.24,0,1800.6128161000088,1800.6128161000088,1800.6128161000088,1800.6128161000088,1800.6128161000088,1800.6128161000088,1800.6128161000088,1800.6128161000088,1800.6075488200877,11.812308999942616,return,11.66648370004259,,,,,,,,,,,,,,,,,,,,,,,,,,,,,,,,,0MW9TH,train_y,red_square,bottom_right,2025-04-03_15h51.08.455,HideSeek_v1,2022.2.5,59.86708307971288,
,8,3,8,8,0,5,11,,train_dim1_1,5,30,,,,2,0,2,0,,,,,,,,,0,0,0,0,0,4,4,4,1,0,1,0,,,,,,,,,,,,,,,,,,,,,,,,,,,,,,,,,,,,,,,,,,,,,,,,,,,,,,,,,,,,,,,,30,,,,,,,,1816.3556347000413,1816.3556347000413,1816.3556347000413,1816.3556347000413,1816.3556347000413,up,1.0765102000441402,0,0,0,99,0.48,0.0,up,0.9892138000577688,,,,,,,,,,,,,,,,,,,,,,,,,,,,,,,,,,,,,,,,,,,,,,,,,,,,,,,,,,,,0MW9TH,train_y,red_square,bottom_right,2025-04-03_15h51.08.455,HideSeek_v1,2022.2.5,59.86708307971288,
,8,3,8,8,0,5,11,,train_dim1_1,5,30,,,,2,0,2,0,,,,,,,,,0,0,0,0,0,4,4,4,2,0,2,0,,,,,,,,,,,,,,,,,,,,,,,,,,,,,,,,,,,,,,,,,,,,,,,,,,,,,,,,,,,,,,,,30,,,,,,,,1817.4393258001655,1817.4393258001655,1817.4393258001655,1817.4393258001655,1817.4393258001655,left,2.428093999857083,0,0,0,99,0.39999999999999997,0.0,left,2.3362014000304043,,,,,,,,,,,,,,,,,,,,,,,,,,,,,,,,,,,,,,,,,,,,,,,,,,,,,,,,,,,,0MW9TH,train_y,red_square,bottom_right,2025-04-03_15h51.08.455,HideSeek_v1,2022.2.5,59.86708307971288,
,8,3,8,8,0,5,11,,train_dim1_1,5,30,,,,2,0,2,0,,,,,,,,,0,0,0,0,0,4,4,4,3,0,3,0,,,,,,,,,,,,,,,,,,,,,,,,,,,,,,,,,,,,,,,,,,,,,,,,,,,,,,,,,,,,,,,,30,,,,,,,,1819.8741665999405,1819.8741665999405,1819.8741665999405,1819.8741665999405,1819.8741665999405,left,2.3284404000733048,0,0,0,99,0.31999999999999995,0.0,left,2.244749699952081,,,,,,,,,,,,,,,,,,,,,,,,,,,,,,,,,,,,,,,,,,,,,,,,,,,,,,,,,,,,0MW9TH,train_y,red_square,bottom_right,2025-04-03_15h51.08.455,HideSeek_v1,2022.2.5,59.86708307971288,
,8,3,8,8,0,5,11,,train_dim1_1,5,30,,,,2,0,2,0,,,,,,,,,0,0,0,0,0,4,4,4,4,0,4,0,,,,,,,,,,,,,,,,,,,,,,,,,,,,,,,,,,,,,,,,,,,,,,,,,,,,,,,,,,,,,,,,30,,,,,,,,1822.2108527999371,1822.2108527999371,1822.2108527999371,1822.2108527999371,1822.2108527999371,return,1.2268186998553574,0,0,0,0,0.31999999999999995,0.0,return,1.1444665000308305,6,-8,0.31999999999999995,0.0,,,,,,,,,,,,,,,,,,,,,,,,,,,,,,,,,,,,,,,,,,,,,,,,,,,,,,,,0MW9TH,train_y,red_square,bottom_right,2025-04-03_15h51.08.455,HideSeek_v1,2022.2.5,59.86708307971288,
,6,4,6,8,0,4,12,,train_dim1_1,6,30,,,,2,0,2,0,,,,,,,,,0,0,0,0,0,5,5,5,0,0,0,0,,,,,,,,,,,,,,,,,,,,,,,,,stimuli/alien_stimuli/12.png,,,,,,,,,,,,,,,,,,,,,,,,,,,,,stimuli/alien_stimuli/11.png,11,8,7,,,,,,,30,,,,,,,,1844.8354563999455,1844.8354563999455,1844.8354563999455,1844.8354563999455,1844.8354563999455,up,6.242586000123993,0,0,0,99,0.32,0.0,up,6.146861700108275,,,,,1843.2597872000188,1844.8354563999455,0.48,0.24,0.4,0.0,0.039999999999999994,0.48,0.48,0.48,0.24,1825.0108535001054,1825.0108535001054,1825.0108535001054,1825.0108535001054,1825.0108535001054,1825.0108535001054,1825.0108535001054,1825.0108535001054,1825.0110114200506,18.367350299842656,return,18.2312465000432,,,,,,,,,,,,,,,,,,,,,,,,,,,,,,,,,0MW9TH,train_y,red_square,bottom_right,2025-04-03_15h51.08.455,HideSeek_v1,2022.2.5,59.86708307971288,
,6,4,6,8,0,4,12,,train_dim1_1,6,30,,,,2,0,2,0,,,,,,,,,0,0,0,0,0,5,5,5,1,0,1,0,,,,,,,,,,,,,,,,,,,,,,,,,,,,,,,,,,,,,,,,,,,,,,,,,,,,,,,,,,,,,,,,30,,,,,,,,1851.0789707000367,1851.0789707000367,1851.0789707000367,1851.0789707000367,1851.0789707000367,up,1.5773540998343378,0,0,0,99,0.32,0.08,up,1.4878491999115795,,,,,,,,,,,,,,,,,,,,,,,,,,,,,,,,,,,,,,,,,,,,,,,,,,,,,,,,,,,,0MW9TH,train_y,red_square,bottom_right,2025-04-03_15h51.08.455,HideSeek_v1,2022.2.5,59.86708307971288,
,6,4,6,8,0,4,12,,train_dim1_1,6,30,,,,2,0,2,0,,,,,,,,,0,0,0,0,0,5,5,5,2,0,2,0,,,,,,,,,,,,,,,,,,,,,,,,,,,,,,,,,,,,,,,,,,,,,,,,,,,,,,,,,,,,,,,,30,,,,,,,,1852.6530339000747,1852.6530339000747,1852.6530339000747,1852.6530339000747,1852.6530339000747,up,5.530356300063431,0,0,0,99,0.32,0.16,up,5.446099800057709,,,,,,,,,,,,,,,,,,,,,,,,,,,,,,,,,,,,,,,,,,,,,,,,,,,,,,,,,,,,0MW9TH,train_y,red_square,bottom_right,2025-04-03_15h51.08.455,HideSeek_v1,2022.2.5,59.86708307971288,
,6,4,6,8,0,4,12,,train_dim1_1,6,30,,,,2,0,2,0,,,,,,,,,0,0,0,0,0,5,5,5,3,0,3,0,,,,,,,,,,,,,,,,,,,,,,,,,,,,,,,,,,,,,,,,,,,,,,,,,,,,,,,,,,,,,,,,30,,,,,,,,1858.190595400054,1858.190595400054,1858.190595400054,1858.190595400054,1858.190595400054,up,0.7101758001372218,0,0,0,99,0.32,0.24,up,0.6302926000207663,,,,,,,,,,,,,,,,,,,,,,,,,,,,,,,,,,,,,,,,,,,,,,,,,,,,,,,,,,,,0MW9TH,train_y,red_square,bottom_right,2025-04-03_15h51.08.455,HideSeek_v1,2022.2.5,59.86708307971288,
,6,4,6,8,0,4,12,,train_dim1_1,6,30,,,,2,0,2,0,,,,,,,,,0,0,0,0,0,5,5,5,4,0,4,0,,,,,,,,,,,,,,,,,,,,,,,,,,,,,,,,,,,,,,,,,,,,,,,,,,,,,,,,,,,,,,,,30,,,,,,,,1858.9064931999892,1858.9064931999892,1858.9064931999892,1858.9064931999892,1858.9064931999892,up,0.6602588999085128,0,0,0,99,0.32,0.32,up,0.5792201000731438,,,,,,,,,,,,,,,,,,,,,,,,,,,,,,,,,,,,,,,,,,,,,,,,,,,,,,,,,,,,0MW9TH,train_y,red_square,bottom_right,2025-04-03_15h51.08.455,HideSeek_v1,2022.2.5,59.86708307971288,
,6,4,6,8,0,4,12,,train_dim1_1,6,30,,,,2,0,2,0,,,,,,,,,0,0,0,0,0,5,5,5,5,0,5,0,,,,,,,,,,,,,,,,,,,,,,,,,,,,,,,,,,,,,,,,,,,,,,,,,,,,,,,,,,,,,,,,30,,,,,,,,1859.5737837001216,1859.5737837001216,1859.5737837001216,1859.5737837001216,1859.5737837001216,return,7.032024299958721,0,1,0,0,0.32,0.32,return,6.953110300004482,11,-8,0.32,0.32,,,,,,,,,,,,,,,,,,,,,,,,,,,,,,,,,,,,,,,,,,,,,,,,,,,,,,,,0MW9TH,train_y,red_square,bottom_right,2025-04-03_15h51.08.455,HideSeek_v1,2022.2.5,59.86708307971288,
,6,3,6,6,0,3,13,,train_dim1_1,7,30,,,,2,0,2,0,,,,,,,,,0,0,0,0,0,6,6,6,0,0,0,0,,,,,,,,,,,,,,,,,,,,,,,,,stimuli/alien_stimuli/13.png,,,,,,,,,,,,,,,,,,,,,,,,,,,,,stimuli/alien_stimuli/12.png,12,6,8,,,,,,,30,,,,,,,,1890.727334999945,1890.727334999945,1890.727334999945,1890.727334999945,1890.727334999945,up,1.870102500077337,0,1,0,99,0.32,-0.08,up,1.7732788000721484,,,,,1889.1478170000482,1890.727334999945,0.32,0.24,0.32,0.0,0.07999999999999999,0.32,0.32,0.32,0.24,1868.1866061999463,1868.1866061999463,1868.1866061999463,1868.1866061999463,1868.1866061999463,1868.1866061999463,1868.1866061999463,1868.1866061999463,1868.1803197201807,21.08665239997208,return,20.9455138000194,,,,,,,,,,,,,,,,,,,,,,,,,,,,,,,,,0MW9TH,train_y,red_square,bottom_right,2025-04-03_15h51.08.455,HideSeek_v1,2022.2.5,59.86708307971288,
,6,3,6,6,0,3,13,,train_dim1_1,7,30,,,,2,0,2,0,,,,,,,,,0,0,0,0,0,6,6,6,1,0,1,0,,,,,,,,,,,,,,,,,,,,,,,,,,,,,,,,,,,,,,,,,,,,,,,,,,,,,,,,,,,,,,,,30,,,,,,,,1892.5845266999677,1892.5845266999677,1892.5845266999677,1892.5845266999677,1892.5845266999677,up,0.3594347001053393,0,1,0,99,0.32,0.0,up,0.2731693999376148,,,,,,,,,,,,,,,,,,,,,,,,,,,,,,,,,,,,,,,,,,,,,,,,,,,,,,,,,,,,0MW9TH,train_y,red_square,bottom_right,2025-04-03_15h51.08.455,HideSeek_v1,2022.2.5,59.86708307971288,
,6,3,6,6,0,3,13,,train_dim1_1,7,30,,,,2,0,2,0,,,,,,,,,0,0,0,0,0,6,6,6,2,0,2,0,,,,,,,,,,,,,,,,,,,,,,,,,,,,,,,,,,,,,,,,,,,,,,,,,,,,,,,,,,,,,,,,30,,,,,,,,1892.95088759996,1892.95088759996,1892.95088759996,1892.95088759996,1892.95088759996,up,3.879675399977714,0,1,0,99,0.32,0.08,up,3.7958425998222083,,,,,,,,,,,,,,,,,,,,,,,,,,,,,,,,,,,,,,,,,,,,,,,,,,,,,,,,,,,,0MW9TH,train_y,red_square,bottom_right,2025-04-03_15h51.08.455,HideSeek_v1,2022.2.5,59.86708307971288,
,6,3,6,6,0,3,13,,train_dim1_1,7,30,,,,2,0,2,0,,,,,,,,,0,0,0,0,0,6,6,6,3,0,3,0,,,,,,,,,,,,,,,,,,,,,,,,,,,,,,,,,,,,,,,,,,,,,,,,,,,,,,,,,,,,,,,,30,,,,,,,,1896.838170300005,1896.838170300005,1896.838170300005,1896.838170300005,1896.838170300005,up,0.3758978999685496,0,1,0,99,0.32,0.16,up,0.29637500015087426,,,,,,,,,,,,,,,,,,,,,,,,,,,,,,,,,,,,,,,,,,,,,,,,,,,,,,,,,,,,0MW9TH,train_y,red_square,bottom_right,2025-04-03_15h51.08.455,HideSeek_v1,2022.2.5,59.86708307971288,
,6,3,6,6,0,3,13,,train_dim1_1,7,30,,,,2,0,2,0,,,,,,,,,0,0,0,0,0,6,6,6,4,0,4,0,,,,,,,,,,,,,,,,,,,,,,,,,,,,,,,,,,,,,,,,,,,,,,,,,,,,,,,,,,,,,,,,30,,,,,,,,1897.222115600016,1897.222115600016,1897.222115600016,1897.222115600016,1897.222115600016,up,0.34319230006076396,0,1,0,99,0.32,0.24,up,0.2538984001148492,,,,,,,,,,,,,,,,,,,,,,,,,,,,,,,,,,,,,,,,,,,,,,,,,,,,,,,,,,,,0MW9TH,train_y,red_square,bottom_right,2025-04-03_15h51.08.455,HideSeek_v1,2022.2.5,59.86708307971288,
,6,3,6,6,0,3,13,,train_dim1_1,7,30,,,,2,0,2,0,,,,,,,,,0,0,0,0,0,6,6,6,5,0,5,0,,,,,,,,,,,,,,,,,,,,,,,,,,,,,,,,,,,,,,,,,,,,,,,,,,,,,,,,,,,,,,,,30,,,,,,,,1897.5742643000558,1897.5742643000558,1897.5742643000558,1897.5742643000558,1897.5742643000558,up,0.39164149994030595,0,1,0,99,0.32,0.32,up,0.29909939994104207,,,,,,,,,,,,,,,,,,,,,,,,,,,,,,,,,,,,,,,,,,,,,,,,,,,,,,,,,,,,0MW9TH,train_y,red_square,bottom_right,2025-04-03_15h51.08.455,HideSeek_v1,2022.2.5,59.86708307971288,
,6,3,6,6,0,3,13,,train_dim1_1,7,30,,,,2,0,2,0,,,,,,,,,0,0,0,0,0,6,6,6,6,0,6,0,,,,,,,,,,,,,,,,,,,,,,,,,,,,,,,,,,,,,,,,,,,,,,,,,,,,,,,,,,,,,,,,30,,,,,,,,1897.9726712000556,1897.9726712000556,1897.9726712000556,1897.9726712000556,1897.9726712000556,return,2.0113228999543935,0,0,0,0,0.32,0.32,return,1.926433099899441,17,-8,0.32,0.32,,,,,,,,,,,,,,,,,,,,,,,,,,,,,,,,,,,,,,,,,,,,,,,,,,,,,,,,0MW9TH,train_y,red_square,bottom_right,2025-04-03_15h51.08.455,HideSeek_v1,2022.2.5,59.86708307971288,
,9,2,9,7,0,5,11,,train_dim1_1,8,30,,,,2,0,2,0,,,,,,,,,0,0,0,0,0,7,7,7,0,0,0,0,,,,,,,,,,,,,,,,,,,,,,,,,stimuli/alien_stimuli/11.png,,,,,,,,,,,,,,,,,,,,,,,,,,,,,stimuli/alien_stimuli/13.png,13,6,9,,,,,,,30,,,,,,,,1905.7388822999783,1905.7388822999783,1905.7388822999783,1905.7388822999783,1905.7388822999783,left,4.220315000042319,0,0,0,99,0.48000000000000004,-0.24,left,4.128805499989539,,,,,1904.177049699938,1905.7388822999783,0.32,0.08,0.24,0.0,-0.04,0.32,0.32,0.32,0.08,1901.5673130999785,1901.5673130999785,1901.5673130999785,1901.5673130999785,1901.5673130999785,1901.5673130999785,1901.5673130999785,1901.5673130999785,1901.5583668199833,2.7372854000423104,return,2.586887000128627,,,,,,,,,,,,,,,,,,,,,,,,,,,,,,,,,0MW9TH,train_y,red_square,bottom_right,2025-04-03_15h51.08.455,HideSeek_v1,2022.2.5,59.86708307971288,
,9,2,9,7,0,5,11,,train_dim1_1,8,30,,,,2,0,2,0,,,,,,,,,0,0,0,0,0,7,7,7,1,0,1,0,,,,,,,,,,,,,,,,,,,,,,,,,,,,,,,,,,,,,,,,,,,,,,,,,,,,,,,,,,,,,,,,30,,,,,,,,1909.9673194000497,1909.9673194000497,1909.9673194000497,1909.9673194000497,1909.9673194000497,left,2.193859999999404,0,0,0,99,0.4,-0.24,left,2.1089838999323547,,,,,,,,,,,,,,,,,,,,,,,,,,,,,,,,,,,,,,,,,,,,,,,,,,,,,,,,,,,,0MW9TH,train_y,red_square,bottom_right,2025-04-03_15h51.08.455,HideSeek_v1,2022.2.5,59.86708307971288,
,9,2,9,7,0,5,11,,train_dim1_1,8,30,,,,2,0,2,0,,,,,,,,,0,0,0,0,0,7,7,7,2,0,2,0,,,,,,,,,,,,,,,,,,,,,,,,,,,,,,,,,,,,,,,,,,,,,,,,,,,,,,,,,,,,,,,,30,,,,,,,,1912.1683046000544,1912.1683046000544,1912.1683046000544,1912.1683046000544,1912.1683046000544,left,2.1277469000779092,0,0,0,99,0.32,-0.24,left,2.0462189000099897,,,,,,,,,,,,,,,,,,,,,,,,,,,,,,,,,,,,,,,,,,,,,,,,,,,,,,,,,,,,0MW9TH,train_y,red_square,bottom_right,2025-04-03_15h51.08.455,HideSeek_v1,2022.2.5,59.86708307971288,
,9,2,9,7,0,5,11,,train_dim1_1,8,30,,,,2,0,2,0,,,,,,,,,0,0,0,0,0,7,7,7,3,0,3,0,,,,,,,,,,,,,,,,,,,,,,,,,,,,,,,,,,,,,,,,,,,,,,,,,,,,,,,,,,,,,,,,30,,,,,,,,1914.3028592001647,1914.3028592001647,1914.3028592001647,1914.3028592001647,1914.3028592001647,left,0.6102755998726934,0,0,0,99,0.24,-0.24,left,0.5298546000849456,,,,,,,,,,,,,,,,,,,,,,,,,,,,,,,,,,,,,,,,,,,,,,,,,,,,,,,,,,,,0MW9TH,train_y,red_square,bottom_right,2025-04-03_15h51.08.455,HideSeek_v1,2022.2.5,59.86708307971288,
,9,2,9,7,0,5,11,,train_dim1_1,8,30,,,,2,0,2,0,,,,,,,,,0,0,0,0,0,7,7,7,4,0,4,0,,,,,,,,,,,,,,,,,,,,,,,,,,,,,,,,,,,,,,,,,,,,,,,,,,,,,,,,,,,,,,,,30,,,,,,,,1914.9206916999537,1914.9206916999537,1914.9206916999537,1914.9206916999537,1914.9206916999537,left,1.8776873000897467,0,0,0,99,0.15999999999999998,-0.24,left,1.7983365000691265,,,,,,,,,,,,,,,,,,,,,,,,,,,,,,,,,,,,,,,,,,,,,,,,,,,,,,,,,,,,0MW9TH,train_y,red_square,bottom_right,2025-04-03_15h51.08.455,HideSeek_v1,2022.2.5,59.86708307971288,
,9,2,9,7,0,5,11,,train_dim1_1,8,30,,,,2,0,2,0,,,,,,,,,0,0,0,0,0,7,7,7,5,0,5,0,,,,,,,,,,,,,,,,,,,,,,,,,,,,,,,,,,,,,,,,,,,,,,,,,,,,,,,,,,,,,,,,30,,,,,,,,1916.8061981000938,1916.8061981000938,1916.8061981000938,1916.8061981000938,1916.8061981000938,left,1.2271308000199497,0,0,0,99,0.07999999999999997,-0.24,left,1.1369265001267195,,,,,,,,,,,,,,,,,,,,,,,,,,,,,,,,,,,,,,,,,,,,,,,,,,,,,,,,,,,,0MW9TH,train_y,red_square,bottom_right,2025-04-03_15h51.08.455,HideSeek_v1,2022.2.5,59.86708307971288,
,9,2,9,7,0,5,11,,train_dim1_1,8,30,,,,2,0,2,0,,,,,,,,,0,0,0,0,0,7,7,7,6,0,6,0,,,,,,,,,,,,,,,,,,,,,,,,,,,,,,,,,,,,,,,,,,,,,,,,,,,,,,,,,,,,,,,,30,,,,,,,,1918.0399865000509,1918.0399865000509,1918.0399865000509,1918.0399865000509,1918.0399865000509,left,1.2265339000150561,0,0,0,99,-2.7755575615628914e-17,-0.24,left,1.1416182999964803,,,,,,,,,,,,,,,,,,,,,,,,,,,,,,,,,,,,,,,,,,,,,,,,,,,,,,,,,,,,0MW9TH,train_y,red_square,bottom_right,2025-04-03_15h51.08.455,HideSeek_v1,2022.2.5,59.86708307971288,
,9,2,9,7,0,5,11,,train_dim1_1,8,30,,,,2,0,2,0,,,,,,,,,0,0,0,0,0,7,7,7,7,0,7,0,,,,,,,,,,,,,,,,,,,,,,,,,,,,,,,,,,,,,,,,,,,,,,,,,,,,,,,,,,,,,,,,30,,,,,,,,1919.2729042000137,1919.2729042000137,1919.2729042000137,1919.2729042000137,1919.2729042000137,left,1.3606948000378907,0,0,0,99,-0.08000000000000003,-0.24,left,1.274718299973756,,,,,,,,,,,,,,,,,,,,,,,,,,,,,,,,,,,,,,,,,,,,,,,,,,,,,,,,,,,,0MW9TH,train_y,red_square,bottom_right,2025-04-03_15h51.08.455,HideSeek_v1,2022.2.5,59.86708307971288,
,9,2,9,7,0,5,11,,train_dim1_1,8,30,,,,2,0,2,0,,,,,,,,,0,0,0,0,0,7,7,7,8,0,8,0,,,,,,,,,,,,,,,,,,,,,,,,,,,,,,,,,,,,,,,,,,,,,,,,,,,,,,,,,,,,,,,,30,,,,,,,,1920.6415793001652,1920.6415793001652,1920.6415793001652,1920.6415793001652,1920.6415793001652,return,3.545923799974844,0,0,0,0,-0.08000000000000003,-0.24,return,3.462137200171128,17,-16,-0.08000000000000003,-0.24,,,,,,,,,,,,,,,,,,,,,,,,,,,,,,,,,,,,,,,,,,,,,,,,,,,,,,,,0MW9TH,train_y,red_square,bottom_right,2025-04-03_15h51.08.455,HideSeek_v1,2022.2.5,59.86708307971288,
,9,3,9,4,0,1,15,,train_dim1_1,9,30,,,,2,0,2,0,,,,,,,,,0,0,0,0,0,8,8,8,0,0,0,0,,,,,,,,,,,,,,,,,,,,,,,,,stimuli/alien_stimuli/15.png,,,,,,,,,,,,,,,,,,,,,,,,,,,,,stimuli/alien_stimuli/11.png,11,9,10,,,,,,,30,,,,,,,,1930.9243449999485,1930.9243449999485,1930.9243449999485,1930.9243449999485,1930.9243449999485,return,0.9042876998428255,0,1,0,0,0.56,-0.16,return,0.8166918000206351,17,-16,0.56,-0.16,1929.3645647000521,1930.9243449999485,0.56,0.16,0.4,0.0,-0.039999999999999994,0.56,0.56,0.56,0.16,1925.766683800146,1925.766683800146,1925.766683800146,1925.766683800146,1925.766683800146,1925.766683800146,1925.766683800146,1925.766683800146,1925.7617885200307,3.7215285999700427,return,3.5664021000266075,,,,,,,,,,,,,,,,,,,,,,,,,,,,,,,,,0MW9TH,train_y,red_square,bottom_right,2025-04-03_15h51.08.455,HideSeek_v1,2022.2.5,59.86708307971288,
,7,2,7,2,0,0,16,,train_dim1_1,10,30,,,,2,0,2,0,,,,,,,,,0,0,0,0,0,9,9,9,0,0,0,0,,,,,,,,,,,,,,,,,,,,,,,,,stimuli/alien_stimuli/16.png,,,,,,,,,,,,,,,,,,,,,,,,,,,,,stimuli/alien_stimuli/15.png,15,9,11,,,,,,,30,,,,,,,,1952.275202400051,1952.275202400051,1952.275202400051,1952.275202400051,1952.275202400051,up,0.9875527999829501,0,1,0,99,0.4,-0.15999999999999998,up,0.8770976001396775,,,,,1950.699029700132,1952.275202400051,0.56,-0.08,0.08,0.0,-0.12,0.56,0.56,0.56,-0.08,1933.4051763000898,1933.4051763000898,1933.4051763000898,1933.4051763000898,1933.4051763000898,1933.4051763000898,1933.4051763000898,1933.4051763000898,1933.4013017201796,17.41696299985051,return,17.27399959997274,,,,,,,,,,,,,,,,,,,,,,,,,,,,,,,,,0MW9TH,train_y,red_square,bottom_right,2025-04-03_15h51.08.455,HideSeek_v1,2022.2.5,59.86708307971288,
,7,2,7,2,0,0,16,,train_dim1_1,10,30,,,,2,0,2,0,,,,,,,,,0,0,0,0,0,9,9,9,1,0,1,0,,,,,,,,,,,,,,,,,,,,,,,,,,,,,,,,,,,,,,,,,,,,,,,,,,,,,,,,,,,,,,,,30,,,,,,,,1953.251404599985,1953.251404599985,1953.251404599985,1953.251404599985,1953.251404599985,up,0.409904700005427,0,1,0,99,0.4,-0.07999999999999997,up,0.32915930007584393,,,,,,,,,,,,,,,,,,,,,,,,,,,,,,,,,,,,,,,,,,,,,,,,,,,,,,,,,,,,0MW9TH,train_y,red_square,bottom_right,2025-04-03_15h51.08.455,HideSeek_v1,2022.2.5,59.86708307971288,
,7,2,7,2,0,0,16,,train_dim1_1,10,30,,,,2,0,2,0,,,,,,,,,0,0,0,0,0,9,9,9,2,0,2,0,,,,,,,,,,,,,,,,,,,,,,,,,,,,,,,,,,,,,,,,,,,,,,,,,,,,,,,,,,,,,,,,30,,,,,,,,1953.6688673000317,1953.6688673000317,1953.6688673000317,1953.6688673000317,1953.6688673000317,right,3.362363300053403,0,1,0,99,0.48000000000000004,-0.07999999999999997,right,3.2699597000610083,,,,,,,,,,,,,,,,,,,,,,,,,,,,,,,,,,,,,,,,,,,,,,,,,,,,,,,,,,,,0MW9TH,train_y,red_square,bottom_right,2025-04-03_15h51.08.455,HideSeek_v1,2022.2.5,59.86708307971288,
,7,2,7,2,0,0,16,,train_dim1_1,10,30,,,,2,0,2,0,,,,,,,,,0,0,0,0,0,9,9,9,3,0,3,0,,,,,,,,,,,,,,,,,,,,,,,,,,,,,,,,,,,,,,,,,,,,,,,,,,,,,,,,,,,,,,,,30,,,,,,,,1957.038158700103,1957.038158700103,1957.038158700103,1957.038158700103,1957.038158700103,right,2.244674599962309,0,1,0,99,0.56,-0.07999999999999997,right,2.1524191999342293,,,,,,,,,,,,,,,,,,,,,,,,,,,,,,,,,,,,,,,,,,,,,,,,,,,,,,,,,,,,0MW9TH,train_y,red_square,bottom_right,2025-04-03_15h51.08.455,HideSeek_v1,2022.2.5,59.86708307971288,
,7,2,7,2,0,0,16,,train_dim1_1,10,30,,,,2,0,2,0,,,,,,,,,0,0,0,0,0,9,9,9,4,0,4,0,,,,,,,,,,,,,,,,,,,,,,,,,,,,,,,,,,,,,,,,,,,,,,,,,,,,,,,,,,,,,,,,30,,,,,,,,1959.2902490000706,1959.2902490000706,1959.2902490000706,1959.2902490000706,1959.2902490000706,left,1.04383679991588,0,1,0,99,0.48000000000000004,-0.07999999999999997,left,0.9602294999640435,,,,,,,,,,,,,,,,,,,,,,,,,,,,,,,,,,,,,,,,,,,,,,,,,,,,,,,,,,,,0MW9TH,train_y,red_square,bottom_right,2025-04-03_15h51.08.455,HideSeek_v1,2022.2.5,59.86708307971288,
,7,2,7,2,0,0,16,,train_dim1_1,10,30,,,,2,0,2,0,,,,,,,,,0,0,0,0,0,9,9,9,5,0,5,0,,,,,,,,,,,,,,,,,,,,,,,,,,,,,,,,,,,,,,,,,,,,,,,,,,,,,,,,,,,,,,,,30,,,,,,,,1960.3407888000365,1960.3407888000365,1960.3407888000365,1960.3407888000365,1960.3407888000365,left,0.9771572998724878,0,1,0,99,0.4,-0.07999999999999997,left,0.8984014000743628,,,,,,,,,,,,,,,,,,,,,,,,,,,,,,,,,,,,,,,,,,,,,,,,,,,,,,,,,,,,0MW9TH,train_y,red_square,bottom_right,2025-04-03_15h51.08.455,HideSeek_v1,2022.2.5,59.86708307971288,
,7,2,7,2,0,0,16,,train_dim1_1,10,30,,,,2,0,2,0,,,,,,,,,0,0,0,0,0,9,9,9,6,0,6,0,,,,,,,,,,,,,,,,,,,,,,,,,,,,,,,,,,,,,,,,,,,,,,,,,,,,,,,,,,,,,,,,30,,,,,,,,1961.3255243999884,1961.3255243999884,1961.3255243999884,1961.3255243999884,1961.3255243999884,left,0.40951719996519387,0,1,0,99,0.32,-0.07999999999999997,left,0.3241121000610292,,,,,,,,,,,,,,,,,,,,,,,,,,,,,,,,,,,,,,,,,,,,,,,,,,,,,,,,,,,,0MW9TH,train_y,red_square,bottom_right,2025-04-03_15h51.08.455,HideSeek_v1,2022.2.5,59.86708307971288,
,7,2,7,2,0,0,16,,train_dim1_1,10,30,,,,2,0,2,0,,,,,,,,,0,0,0,0,0,9,9,9,7,0,7,0,,,,,,,,,,,,,,,,,,,,,,,,,,,,,,,,,,,,,,,,,,,,,,,,,,,,,,,,,,,,,,,,30,,,,,,,,1961.7422658000141,1961.7422658000141,1961.7422658000141,1961.7422658000141,1961.7422658000141,left,0.34338199999183416,0,1,0,99,0.24,-0.07999999999999997,left,0.2652400000952184,,,,,,,,,,,,,,,,,,,,,,,,,,,,,,,,,,,,,,,,,,,,,,,,,,,,,,,,,,,,0MW9TH,train_y,red_square,bottom_right,2025-04-03_15h51.08.455,HideSeek_v1,2022.2.5,59.86708307971288,
,7,2,7,2,0,0,16,,train_dim1_1,10,30,,,,2,0,2,0,,,,,,,,,0,0,0,0,0,9,9,9,8,0,8,0,,,,,,,,,,,,,,,,,,,,,,,,,,,,,,,,,,,,,,,,,,,,,,,,,,,,,,,,,,,,,,,,30,,,,,,,,1962.0939563999418,1962.0939563999418,1962.0939563999418,1962.0939563999418,1962.0939563999418,left,0.4102634999435395,0,1,0,99,0.15999999999999998,-0.07999999999999997,left,0.3243060999084264,,,,,,,,,,,,,,,,,,,,,,,,,,,,,,,,,,,,,,,,,,,,,,,,,,,,,,,,,,,,0MW9TH,train_y,red_square,bottom_right,2025-04-03_15h51.08.455,HideSeek_v1,2022.2.5,59.86708307971288,
,7,2,7,2,0,0,16,,train_dim1_1,10,30,,,,2,0,2,0,,,,,,,,,0,0,0,0,0,9,9,9,9,0,9,0,,,,,,,,,,,,,,,,,,,,,,,,,,,,,,,,,,,,,,,,,,,,,,,,,,,,,,,,,,,,,,,,30,,,,,,,,1962.5096740000881,1962.5096740000881,1962.5096740000881,1962.5096740000881,1962.5096740000881,up,2.6783998999744654,0,1,0,99,0.15999999999999998,2.7755575615628914e-17,up,2.5866151999216527,,,,,,,,,,,,,,,,,,,,,,,,,,,,,,,,,,,,,,,,,,,,,,,,,,,,,,,,,,,,0MW9TH,train_y,red_square,bottom_right,2025-04-03_15h51.08.455,HideSeek_v1,2022.2.5,59.86708307971288,
,7,2,7,2,0,0,16,,train_dim1_1,10,30,,,,2,0,2,0,,,,,,,,,0,0,0,0,0,9,9,9,10,0,10,0,,,,,,,,,,,,,,,,,,,,,,,,,,,,,,,,,,,,,,,,,,,,,,,,,,,,,,,,,,,,,,,,30,,,,,,,,1965.1952693001367,1965.1952693001367,1965.1952693001367,1965.1952693001367,1965.1952693001367,left,0.6101314001716673,0,1,0,99,0.07999999999999997,2.7755575615628914e-17,left,0.531884599942714,,,,,,,,,,,,,,,,,,,,,,,,,,,,,,,,,,,,,,,,,,,,,,,,,,,,,,,,,,,,0MW9TH,train_y,red_square,bottom_right,2025-04-03_15h51.08.455,HideSeek_v1,2022.2.5,59.86708307971288,
,7,2,7,2,0,0,16,,train_dim1_1,10,30,,,,2,0,2,0,,,,,,,,,0,0,0,0,0,9,9,9,11,0,11,0,,,,,,,,,,,,,,,,,,,,,,,,,,,,,,,,,,,,,,,,,,,,,,,,,,,,,,,,,,,,,,,,30,,,,,,,,1965.8115873001516,1965.8115873001516,1965.8115873001516,1965.8115873001516,1965.8115873001516,return,4.129664599895477,0,0,0,0,0.07999999999999997,2.7755575615628914e-17,return,4.053167800186202,20,-20,0.07999999999999997,2.7755575615628914e-17,,,,,,,,,,,,,,,,,,,,,,,,,,,,,,,,,,,,,,,,,,,,,,,,,,,,,,,,0MW9TH,train_y,red_square,bottom_right,2025-04-03_15h51.08.455,HideSeek_v1,2022.2.5,59.86708307971288,
,9,1,9,2,0,1,15,,train_dim1_1,11,30,,,,2,0,2,0,,,,,,,,,0,0,0,0,0,10,10,10,0,0,0,0,,,,,,,,,,,,,,,,,,,,,,,,,stimuli/alien_stimuli/15.png,,,,,,,,,,,,,,,,,,,,,,,,,,,,,stimuli/alien_stimuli/16.png,16,7,12,,,,,,,30,,,,,,,,1975.8788471999578,1975.8788471999578,1975.8788471999578,1975.8788471999578,1975.8788471999578,up,7.14245679997839,0,0,0,99,0.56,-0.24,up,7.0538135000970215,,,,,1974.318784300005,1975.8788471999578,0.4,-0.24,0.0,0.0,-0.24,0.4,0.4,0.4,-0.24,1971.5208424001466,1971.5208424001466,1971.5208424001466,1971.5208424001466,1971.5208424001466,1971.5208424001466,1971.5208424001466,1971.5208424001466,1971.5163727200124,2.921156199881807,return,2.770642900140956,,,,,,,,,,,,,,,,,,,,,,,,,,,,,,,,,0MW9TH,train_y,red_square,bottom_right,2025-04-03_15h51.08.455,HideSeek_v1,2022.2.5,59.86708307971288,
,9,1,9,2,0,1,15,,train_dim1_1,11,30,,,,2,0,2,0,,,,,,,,,0,0,0,0,0,10,10,10,1,0,1,0,,,,,,,,,,,,,,,,,,,,,,,,,,,,,,,,,,,,,,,,,,,,,,,,,,,,,,,,,,,,,,,,30,,,,,,,,1983.047472300008,1983.047472300008,1983.047472300008,1983.047472300008,1983.047472300008,up,0.642611299874261,0,0,0,99,0.56,-0.15999999999999998,up,0.5334119000472128,,,,,,,,,,,,,,,,,,,,,,,,,,,,,,,,,,,,,,,,,,,,,,,,,,,,,,,,,,,,0MW9TH,train_y,red_square,bottom_right,2025-04-03_15h51.08.455,HideSeek_v1,2022.2.5,59.86708307971288,
,9,1,9,2,0,1,15,,train_dim1_1,11,30,,,,2,0,2,0,,,,,,,,,0,0,0,0,0,10,10,10,2,0,2,0,,,,,,,,,,,,,,,,,,,,,,,,,,,,,,,,,,,,,,,,,,,,,,,,,,,,,,,,,,,,,,,,30,,,,,,,,1983.6771965001244,1983.6771965001244,1983.6771965001244,1983.6771965001244,1983.6771965001244,left,4.32983860000968,0,0,0,99,0.48000000000000004,-0.15999999999999998,left,4.240960699971765,,,,,,,,,,,,,,,,,,,,,,,,,,,,,,,,,,,,,,,,,,,,,,,,,,,,,,,,,,,,0MW9TH,train_y,red_square,bottom_right,2025-04-03_15h51.08.455,HideSeek_v1,2022.2.5,59.86708307971288,
,9,1,9,2,0,1,15,,train_dim1_1,11,30,,,,2,0,2,0,,,,,,,,,0,0,0,0,0,10,10,10,3,0,3,0,,,,,,,,,,,,,,,,,,,,,,,,,,,,,,,,,,,,,,,,,,,,,,,,,,,,,,,,,,,,,,,,30,,,,,,,,1988.0160541001242,1988.0160541001242,1988.0160541001242,1988.0160541001242,1988.0160541001242,left,0.8933508000336587,0,0,0,99,0.4,-0.15999999999999998,left,0.8113806999754161,,,,,,,,,,,,,,,,,,,,,,,,,,,,,,,,,,,,,,,,,,,,,,,,,,,,,,,,,,,,0MW9TH,train_y,red_square,bottom_right,2025-04-03_15h51.08.455,HideSeek_v1,2022.2.5,59.86708307971288,
,9,1,9,2,0,1,15,,train_dim1_1,11,30,,,,2,0,2,0,,,,,,,,,0,0,0,0,0,10,10,10,4,0,4,0,,,,,,,,,,,,,,,,,,,,,,,,,,,,,,,,,,,,,,,,,,,,,,,,,,,,,,,,,,,,,,,,30,,,,,,,,1988.9147827001289,1988.9147827001289,1988.9147827001289,1988.9147827001289,1988.9147827001289,left,0.34317280002869666,0,0,0,99,0.32,-0.15999999999999998,left,0.2657135999761522,,,,,,,,,,,,,,,,,,,,,,,,,,,,,,,,,,,,,,,,,,,,,,,,,,,,,,,,,,,,0MW9TH,train_y,red_square,bottom_right,2025-04-03_15h51.08.455,HideSeek_v1,2022.2.5,59.86708307971288,
,9,1,9,2,0,1,15,,train_dim1_1,11,30,,,,2,0,2,0,,,,,,,,,0,0,0,0,0,10,10,10,5,0,5,0,,,,,,,,,,,,,,,,,,,,,,,,,,,,,,,,,,,,,,,,,,,,,,,,,,,,,,,,,,,,,,,,30,,,,,,,,1989.2673752000555,1989.2673752000555,1989.2673752000555,1989.2673752000555,1989.2673752000555,left,0.3257915999274701,0,0,0,99,0.24,-0.15999999999999998,left,0.23354149982333183,,,,,,,,,,,,,,,,,,,,,,,,,,,,,,,,,,,,,,,,,,,,,,,,,,,,,,,,,,,,0MW9TH,train_y,red_square,bottom_right,2025-04-03_15h51.08.455,HideSeek_v1,2022.2.5,59.86708307971288,
,9,1,9,2,0,1,15,,train_dim1_1,11,30,,,,2,0,2,0,,,,,,,,,0,0,0,0,0,10,10,10,6,0,6,0,,,,,,,,,,,,,,,,,,,,,,,,,,,,,,,,,,,,,,,,,,,,,,,,,,,,,,,,,,,,,,,,30,,,,,,,,1989.6008323000278,1989.6008323000278,1989.6008323000278,1989.6008323000278,1989.6008323000278,left,0.37603370007127523,0,0,0,99,0.15999999999999998,-0.15999999999999998,left,0.29715680005028844,,,,,,,,,,,,,,,,,,,,,,,,,,,,,,,,,,,,,,,,,,,,,,,,,,,,,,,,,,,,0MW9TH,train_y,red_square,bottom_right,2025-04-03_15h51.08.455,HideSeek_v1,2022.2.5,59.86708307971288,
,9,1,9,2,0,1,15,,train_dim1_1,11,30,,,,2,0,2,0,,,,,,,,,0,0,0,0,0,10,10,10,7,0,7,0,,,,,,,,,,,,,,,,,,,,,,,,,,,,,,,,,,,,,,,,,,,,,,,,,,,,,,,,,,,,,,,,30,,,,,,,,1990.0042544000316,1990.0042544000316,1990.0042544000316,1990.0042544000316,1990.0042544000316,left,0.4196403999812901,0,0,0,99,0.07999999999999997,-0.15999999999999998,left,0.3151275999844074,,,,,,,,,,,,,,,,,,,,,,,,,,,,,,,,,,,,,,,,,,,,,,,,,,,,,,,,,,,,0MW9TH,train_y,red_square,bottom_right,2025-04-03_15h51.08.455,HideSeek_v1,2022.2.5,59.86708307971288,
,9,1,9,2,0,1,15,,train_dim1_1,11,30,,,,2,0,2,0,,,,,,,,,0,0,0,0,0,10,10,10,8,0,8,0,,,,,,,,,,,,,,,,,,,,,,,,,,,,,,,,,,,,,,,,,,,,,,,,,,,,,,,,,,,,,,,,30,,,,,,,,1990.418758600019,1990.418758600019,1990.418758600019,1990.418758600019,1990.418758600019,left,0.4927847001235932,0,0,0,99,-2.7755575615628914e-17,-0.15999999999999998,left,0.40497439983300865,,,,,,,,,,,,,,,,,,,,,,,,,,,,,,,,,,,,,,,,,,,,,,,,,,,,,,,,,,,,0MW9TH,train_y,red_square,bottom_right,2025-04-03_15h51.08.455,HideSeek_v1,2022.2.5,59.86708307971288,
,9,1,9,2,0,1,15,,train_dim1_1,11,30,,,,2,0,2,0,,,,,,,,,0,0,0,0,0,10,10,10,9,0,9,0,,,,,,,,,,,,,,,,,,,,,,,,,,,,,,,,,,,,,,,,,,,,,,,,,,,,,,,,,,,,,,,,30,,,,,,,,1990.918480799999,1990.918480799999,1990.918480799999,1990.918480799999,1990.918480799999,return,2.5952983999159187,0,0,0,0,-2.7755575615628914e-17,-0.15999999999999998,return,2.513115300098434,22,-27,-2.7755575615628914e-17,-0.15999999999999998,,,,,,,,,,,,,,,,,,,,,,,,,,,,,,,,,,,,,,,,,,,,,,,,,,,,,,,,0MW9TH,train_y,red_square,bottom_right,2025-04-03_15h51.08.455,HideSeek_v1,2022.2.5,59.86708307971288,
,5,0,5,5,0,5,11,,train_dim1_1,12,30,,,,2,0,2,0,,,,,,,,,0,0,0,0,0,11,11,11,0,0,0,0,,,,,,,,,,,,,,,,,,,,,,,,,stimuli/alien_stimuli/11.png,,,,,,,,,,,,,,,,,,,,,,,,,,,,,stimuli/alien_stimuli/15.png,15,9,13,,,,,,,30,,,,,,,,2001.897559700068,2001.897559700068,2001.897559700068,2001.897559700068,2001.897559700068,up,1.4066429000813514,0,0,0,99,0.24,-0.32,up,1.3263895001728088,,,,,2000.34004619997,2001.897559700068,0.56,-0.24,0.08,0.0,-0.28,0.56,0.56,0.56,-0.24,1995.0844012000598,1995.0844012000598,1995.0844012000598,1995.0844012000598,1995.0844012000598,1995.0844012000598,1995.0844012000598,1995.0844012000598,1995.0855578200426,5.373679199954495,return,5.233221300179139,,,,,,,,,,,,,,,,,,,,,,,,,,,,,,,,,0MW9TH,train_y,red_square,bottom_right,2025-04-03_15h51.08.455,HideSeek_v1,2022.2.5,59.86708307971288,
,5,0,5,5,0,5,11,,train_dim1_1,12,30,,,,2,0,2,0,,,,,,,,,0,0,0,0,0,11,11,11,1,0,1,0,,,,,,,,,,,,,,,,,,,,,,,,,,,,,,,,,,,,,,,,,,,,,,,,,,,,,,,,,,,,,,,,30,,,,,,,,2003.334815399954,2003.334815399954,2003.334815399954,2003.334815399954,2003.334815399954,return,4.874706599861383,0,0,0,0,0.24,-0.32,return,4.774025299819186,23,-27,0.24,-0.32,,,,,,,,,,,,,,,,,,,,,,,,,,,,,,,,,,,,,,,,,,,,,,,,,,,,,,,,0MW9TH,train_y,red_square,bottom_right,2025-04-03_15h51.08.455,HideSeek_v1,2022.2.5,59.86708307971288,
,9,3,9,7,0,4,12,,train_dim1_1,13,30,,,,2,0,2,0,,,,,,,,,0,0,0,0,0,12,12,12,0,0,0,0,,,,,,,,,,,,,,,,,,,,,,,,,stimuli/alien_stimuli/12.png,,,,,,,,,,,,,,,,,,,,,,,,,,,,,stimuli/alien_stimuli/11.png,11,5,14,,,,,,,30,,,,,,,,2014.4955327999778,2014.4955327999778,2014.4955327999778,2014.4955327999778,2014.4955327999778,left,1.6233876999467611,0,0,0,99,0.48000000000000004,-0.16,left,1.5309258999768645,,,,,2012.9341490000952,2014.4955327999778,0.24,0,0.4,0.0,-0.2,0.24,0.24,0.24,0,2009.7738258000463,2009.7738258000463,2009.7738258000463,2009.7738258000463,2009.7738258000463,2009.7738258000463,2009.7738258000463,2009.7738258000463,2009.7643589200452,3.28853080002591,return,3.1360539000015706,,,,,,,,,,,,,,,,,,,,,,,,,,,,,,,,,0MW9TH,train_y,red_square,bottom_right,2025-04-03_15h51.08.455,HideSeek_v1,2022.2.5,59.86708307971288,
,9,3,9,7,0,4,12,,train_dim1_1,13,30,,,,2,0,2,0,,,,,,,,,0,0,0,0,0,12,12,12,1,0,1,0,,,,,,,,,,,,,,,,,,,,,,,,,,,,,,,,,,,,,,,,,,,,,,,,,,,,,,,,,,,,,,,,30,,,,,,,,2016.1215880999807,2016.1215880999807,2016.1215880999807,2016.1215880999807,2016.1215880999807,left,0.3924402999691665,0,0,0,99,0.4,-0.16,left,0.3021113001741469,,,,,,,,,,,,,,,,,,,,,,,,,,,,,,,,,,,,,,,,,,,,,,,,,,,,,,,,,,,,0MW9TH,train_y,red_square,bottom_right,2025-04-03_15h51.08.455,HideSeek_v1,2022.2.5,59.86708307971288,
,9,3,9,7,0,4,12,,train_dim1_1,13,30,,,,2,0,2,0,,,,,,,,,0,0,0,0,0,12,12,12,2,0,2,0,,,,,,,,,,,,,,,,,,,,,,,,,,,,,,,,,,,,,,,,,,,,,,,,,,,,,,,,,,,,,,,,30,,,,,,,,2016.5210796999745,2016.5210796999745,2016.5210796999745,2016.5210796999745,2016.5210796999745,left,0.3599569001235068,0,0,0,99,0.32,-0.16,left,0.2782201999798417,,,,,,,,,,,,,,,,,,,,,,,,,,,,,,,,,,,,,,,,,,,,,,,,,,,,,,,,,,,,0MW9TH,train_y,red_square,bottom_right,2025-04-03_15h51.08.455,HideSeek_v1,2022.2.5,59.86708307971288,
,9,3,9,7,0,4,12,,train_dim1_1,13,30,,,,2,0,2,0,,,,,,,,,0,0,0,0,0,12,12,12,3,0,3,0,,,,,,,,,,,,,,,,,,,,,,,,,,,,,,,,,,,,,,,,,,,,,,,,,,,,,,,,,,,,,,,,30,,,,,,,,2016.8875931999646,2016.8875931999646,2016.8875931999646,2016.8875931999646,2016.8875931999646,left,0.40982840000651777,0,0,0,99,0.24,-0.16,left,0.32597059989348054,,,,,,,,,,,,,,,,,,,,,,,,,,,,,,,,,,,,,,,,,,,,,,,,,,,,,,,,,,,,0MW9TH,train_y,red_square,bottom_right,2025-04-03_15h51.08.455,HideSeek_v1,2022.2.5,59.86708307971288,
,9,3,9,7,0,4,12,,train_dim1_1,13,30,,,,2,0,2,0,,,,,,,,,0,0,0,0,0,12,12,12,4,0,4,0,,,,,,,,,,,,,,,,,,,,,,,,,,,,,,,,,,,,,,,,,,,,,,,,,,,,,,,,,,,,,,,,30,,,,,,,,2017.3050321999472,2017.3050321999472,2017.3050321999472,2017.3050321999472,2017.3050321999472,left,0.3767281000036746,0,0,0,99,0.15999999999999998,-0.16,left,0.28841230017133057,,,,,,,,,,,,,,,,,,,,,,,,,,,,,,,,,,,,,,,,,,,,,,,,,,,,,,,,,,,,0MW9TH,train_y,red_square,bottom_right,2025-04-03_15h51.08.455,HideSeek_v1,2022.2.5,59.86708307971288,
,9,3,9,7,0,4,12,,train_dim1_1,13,30,,,,2,0,2,0,,,,,,,,,0,0,0,0,0,12,12,12,5,0,5,0,,,,,,,,,,,,,,,,,,,,,,,,,,,,,,,,,,,,,,,,,,,,,,,,,,,,,,,,,,,,,,,,30,,,,,,,,2017.6892196999397,2017.6892196999397,2017.6892196999397,2017.6892196999397,2017.6892196999397,left,0.3430842999368906,0,0,0,99,0.07999999999999997,-0.16,left,0.26152030006051064,,,,,,,,,,,,,,,,,,,,,,,,,,,,,,,,,,,,,,,,,,,,,,,,,,,,,,,,,,,,0MW9TH,train_y,red_square,bottom_right,2025-04-03_15h51.08.455,HideSeek_v1,2022.2.5,59.86708307971288,
,9,3,9,7,0,4,12,,train_dim1_1,13,30,,,,2,0,2,0,,,,,,,,,0,0,0,0,0,12,12,12,6,0,6,0,,,,,,,,,,,,,,,,,,,,,,,,,,,,,,,,,,,,,,,,,,,,,,,,,,,,,,,,,,,,,,,,30,,,,,,,,2018.0408250000328,2018.0408250000328,2018.0408250000328,2018.0408250000328,2018.0408250000328,left,0.3762167999520898,0,0,0,99,-2.7755575615628914e-17,-0.16,left,0.29430839978158474,,,,,,,,,,,,,,,,,,,,,,,,,,,,,,,,,,,,,,,,,,,,,,,,,,,,,,,,,,,,0MW9TH,train_y,red_square,bottom_right,2025-04-03_15h51.08.455,HideSeek_v1,2022.2.5,59.86708307971288,
,9,3,9,7,0,4,12,,train_dim1_1,13,30,,,,2,0,2,0,,,,,,,,,0,0,0,0,0,12,12,12,7,0,7,0,,,,,,,,,,,,,,,,,,,,,,,,,,,,,,,,,,,,,,,,,,,,,,,,,,,,,,,,,,,,,,,,30,,,,,,,,2018.4236473001074,2018.4236473001074,2018.4236473001074,2018.4236473001074,2018.4236473001074,left,0.39293149998411536,0,0,0,99,-0.08000000000000003,-0.16,left,0.3061876001302153,,,,,,,,,,,,,,,,,,,,,,,,,,,,,,,,,,,,,,,,,,,,,,,,,,,,,,,,,,,,0MW9TH,train_y,red_square,bottom_right,2025-04-03_15h51.08.455,HideSeek_v1,2022.2.5,59.86708307971288,
,9,3,9,7,0,4,12,,train_dim1_1,13,30,,,,2,0,2,0,,,,,,,,,0,0,0,0,0,12,12,12,8,0,8,0,,,,,,,,,,,,,,,,,,,,,,,,,,,,,,,,,,,,,,,,,,,,,,,,,,,,,,,,,,,,,,,,30,,,,,,,,2018.8244535999838,2018.8244535999838,2018.8244535999838,2018.8244535999838,2018.8244535999838,left,0.376347100129351,0,0,0,99,-0.16000000000000003,-0.16,left,0.2940307999961078,,,,,,,,,,,,,,,,,,,,,,,,,,,,,,,,,,,,,,,,,,,,,,,,,,,,,,,,,,,,0MW9TH,train_y,red_square,bottom_right,2025-04-03_15h51.08.455,HideSeek_v1,2022.2.5,59.86708307971288,
,9,3,9,7,0,4,12,,train_dim1_1,13,30,,,,2,0,2,0,,,,,,,,,0,0,0,0,0,12,12,12,9,0,9,0,,,,,,,,,,,,,,,,,,,,,,,,,,,,,,,,,,,,,,,,,,,,,,,,,,,,,,,,,,,,,,,,30,,,,,,,,2019.2106186000165,2019.2106186000165,2019.2106186000165,2019.2106186000165,2019.2106186000165,right,1.744136800058186,0,0,0,99,-0.08000000000000003,-0.16,right,1.6531847999431193,,,,,,,,,,,,,,,,,,,,,,,,,,,,,,,,,,,,,,,,,,,,,,,,,,,,,,,,,,,,0MW9TH,train_y,red_square,bottom_right,2025-04-03_15h51.08.455,HideSeek_v1,2022.2.5,59.86708307971288,
,9,3,9,7,0,4,12,,train_dim1_1,13,30,,,,2,0,2,0,,,,,,,,,0,0,0,0,0,12,12,12,10,0,10,0,,,,,,,,,,,,,,,,,,,,,,,,,,,,,,,,,,,,,,,,,,,,,,,,,,,,,,,,,,,,,,,,30,,,,,,,,2020.9610069000628,2020.9610069000628,2020.9610069000628,2020.9610069000628,2020.9610069000628,right,0.24355220003053546,0,0,0,99,-2.7755575615628914e-17,-0.16,right,0.15009300014935434,,,,,,,,,,,,,,,,,,,,,,,,,,,,,,,,,,,,,,,,,,,,,,,,,,,,,,,,,,,,0MW9TH,train_y,red_square,bottom_right,2025-04-03_15h51.08.455,HideSeek_v1,2022.2.5,59.86708307971288,
,9,3,9,7,0,4,12,,train_dim1_1,13,30,,,,2,0,2,0,,,,,,,,,0,0,0,0,0,12,12,12,11,0,11,0,,,,,,,,,,,,,,,,,,,,,,,,,,,,,,,,,,,,,,,,,,,,,,,,,,,,,,,,,,,,,,,,30,,,,,,,,2021.2105354999658,2021.2105354999658,2021.2105354999658,2021.2105354999658,2021.2105354999658,right,0.2760862000286579,0,0,0,99,0.07999999999999997,-0.16,right,0.19356240006163716,,,,,,,,,,,,,,,,,,,,,,,,,,,,,,,,,,,,,,,,,,,,,,,,,,,,,,,,,,,,0MW9TH,train_y,red_square,bottom_right,2025-04-03_15h51.08.455,HideSeek_v1,2022.2.5,59.86708307971288,
,9,3,9,7,0,4,12,,train_dim1_1,13,30,,,,2,0,2,0,,,,,,,,,0,0,0,0,0,12,12,12,12,0,12,0,,,,,,,,,,,,,,,,,,,,,,,,,,,,,,,,,,,,,,,,,,,,,,,,,,,,,,,,,,,,,,,,30,,,,,,,,2021.4932319000363,2021.4932319000363,2021.4932319000363,2021.4932319000363,2021.4932319000363,right,0.27652699989266694,0,0,0,99,0.15999999999999998,-0.16,right,0.18929609982296824,,,,,,,,,,,,,,,,,,,,,,,,,,,,,,,,,,,,,,,,,,,,,,,,,,,,,,,,,,,,0MW9TH,train_y,red_square,bottom_right,2025-04-03_15h51.08.455,HideSeek_v1,2022.2.5,59.86708307971288,
,9,3,9,7,0,4,12,,train_dim1_1,13,30,,,,2,0,2,0,,,,,,,,,0,0,0,0,0,12,12,12,13,0,13,0,,,,,,,,,,,,,,,,,,,,,,,,,,,,,,,,,,,,,,,,,,,,,,,,,,,,,,,,,,,,,,,,30,,,,,,,,2021.7850814999547,2021.7850814999547,2021.7850814999547,2021.7850814999547,2021.7850814999547,right,0.2433178999926895,0,0,0,99,0.24,-0.16,right,0.15757269994355738,,,,,,,,,,,,,,,,,,,,,,,,,,,,,,,,,,,,,,,,,,,,,,,,,,,,,,,,,,,,0MW9TH,train_y,red_square,bottom_right,2025-04-03_15h51.08.455,HideSeek_v1,2022.2.5,59.86708307971288,
,9,3,9,7,0,4,12,,train_dim1_1,13,30,,,,2,0,2,0,,,,,,,,,0,0,0,0,0,12,12,12,14,0,14,0,,,,,,,,,,,,,,,,,,,,,,,,,,,,,,,,,,,,,,,,,,,,,,,,,,,,,,,,,,,,,,,,30,,,,,,,,2022.027634399943,2022.027634399943,2022.027634399943,2022.027634399943,2022.027634399943,right,0.5429378999397159,0,0,0,99,0.32,-0.16,right,0.46221339982002974,,,,,,,,,,,,,,,,,,,,,,,,,,,,,,,,,,,,,,,,,,,,,,,,,,,,,,,,,,,,0MW9TH,train_y,red_square,bottom_right,2025-04-03_15h51.08.455,HideSeek_v1,2022.2.5,59.86708307971288,
,9,3,9,7,0,4,12,,train_dim1_1,13,30,,,,2,0,2,0,,,,,,,,,0,0,0,0,0,12,12,12,15,0,15,0,,,,,,,,,,,,,,,,,,,,,,,,,,,,,,,,,,,,,,,,,,,,,,,,,,,,,,,,,,,,,,,,30,,,,,,,,2022.579093000153,2022.579093000153,2022.579093000153,2022.579093000153,2022.579093000153,return,1.3264850000850856,0,0,0,0,0.32,-0.16,return,1.2316441000439227,23,-30,0.32,-0.16,,,,,,,,,,,,,,,,,,,,,,,,,,,,,,,,,,,,,,,,,,,,,,,,,,,,,,,,0MW9TH,train_y,red_square,bottom_right,2025-04-03_15h51.08.455,HideSeek_v1,2022.2.5,59.86708307971288,
,7,2,7,2,0,0,16,,train_dim1_1,14,30,,,,2,0,2,0,,,,,,,,,0,0,0,0,0,13,13,13,0,0,0,0,,,,,,,,,,,,,,,,,,,,,,,,,stimuli/alien_stimuli/16.png,,,,,,,,,,,,,,,,,,,,,,,,,,,,,stimuli/alien_stimuli/12.png,12,9,15,,,,,,,30,,,,,,,,2029.4048675000668,2029.4048675000668,2029.4048675000668,2029.4048675000668,2029.4048675000668,up,1.9066776998806745,0,0,0,99,0.4,-0.15999999999999998,up,1.8134220000356436,,,,,2027.8459177999757,2029.4048675000668,0.56,0.16,0.32,0.0,0.0,0.56,0.56,0.56,0.16,2025.4745775000192,2025.4745775000192,2025.4745775000192,2025.4745775000192,2025.4745775000192,2025.4745775000192,2025.4745775000192,2025.4745775000192,2025.4606739301234,2.48773659998551,return,2.3413283999543637,,,,,,,,,,,,,,,,,,,,,,,,,,,,,,,,,0MW9TH,train_y,red_square,bottom_right,2025-04-03_15h51.08.455,HideSeek_v1,2022.2.5,59.86708307971288,
,7,2,7,2,0,0,16,,train_dim1_1,14,30,,,,2,0,2,0,,,,,,,,,0,0,0,0,0,13,13,13,1,0,1,0,,,,,,,,,,,,,,,,,,,,,,,,,,,,,,,,,,,,,,,,,,,,,,,,,,,,,,,,,,,,,,,,30,,,,,,,,2031.3178682001308,2031.3178682001308,2031.3178682001308,2031.3178682001308,2031.3178682001308,up,1.076641899999231,0,0,0,99,0.4,-0.07999999999999997,up,0.9950580999720842,,,,,,,,,,,,,,,,,,,,,,,,,,,,,,,,,,,,,,,,,,,,,,,,,,,,,,,,,,,,0MW9TH,train_y,red_square,bottom_right,2025-04-03_15h51.08.455,HideSeek_v1,2022.2.5,59.86708307971288,
,7,2,7,2,0,0,16,,train_dim1_1,14,30,,,,2,0,2,0,,,,,,,,,0,0,0,0,0,13,13,13,2,0,2,0,,,,,,,,,,,,,,,,,,,,,,,,,,,,,,,,,,,,,,,,,,,,,,,,,,,,,,,,,,,,,,,,30,,,,,,,,2032.4007778000087,2032.4007778000087,2032.4007778000087,2032.4007778000087,2032.4007778000087,up,0.4604685001540929,0,0,0,99,0.4,2.7755575615628914e-17,up,0.3742769998498261,,,,,,,,,,,,,,,,,,,,,,,,,,,,,,,,,,,,,,,,,,,,,,,,,,,,,,,,,,,,0MW9TH,train_y,red_square,bottom_right,2025-04-03_15h51.08.455,HideSeek_v1,2022.2.5,59.86708307971288,
,7,2,7,2,0,0,16,,train_dim1_1,14,30,,,,2,0,2,0,,,,,,,,,0,0,0,0,0,13,13,13,3,0,3,0,,,,,,,,,,,,,,,,,,,,,,,,,,,,,,,,,,,,,,,,,,,,,,,,,,,,,,,,,,,,,,,,30,,,,,,,,2032.8679265000392,2032.8679265000392,2032.8679265000392,2032.8679265000392,2032.8679265000392,down,1.7109212998766452,0,0,0,99,0.4,-0.07999999999999997,down,1.622827999992296,,,,,,,,,,,,,,,,,,,,,,,,,,,,,,,,,,,,,,,,,,,,,,,,,,,,,,,,,,,,0MW9TH,train_y,red_square,bottom_right,2025-04-03_15h51.08.455,HideSeek_v1,2022.2.5,59.86708307971288,
,7,2,7,2,0,0,16,,train_dim1_1,14,30,,,,2,0,2,0,,,,,,,,,0,0,0,0,0,13,13,13,4,0,4,0,,,,,,,,,,,,,,,,,,,,,,,,,,,,,,,,,,,,,,,,,,,,,,,,,,,,,,,,,,,,,,,,30,,,,,,,,2034.5863979000133,2034.5863979000133,2034.5863979000133,2034.5863979000133,2034.5863979000133,down,0.32642189995385706,0,0,0,99,0.4,-0.15999999999999998,down,0.249941699905321,,,,,,,,,,,,,,,,,,,,,,,,,,,,,,,,,,,,,,,,,,,,,,,,,,,,,,,,,,,,0MW9TH,train_y,red_square,bottom_right,2025-04-03_15h51.08.455,HideSeek_v1,2022.2.5,59.86708307971288,
,7,2,7,2,0,0,16,,train_dim1_1,14,30,,,,2,0,2,0,,,,,,,,,0,0,0,0,0,13,13,13,5,0,5,0,,,,,,,,,,,,,,,,,,,,,,,,,,,,,,,,,,,,,,,,,,,,,,,,,,,,,,,,,,,,,,,,30,,,,,,,,2034.9195416001603,2034.9195416001603,2034.9195416001603,2034.9195416001603,2034.9195416001603,down,0.3600821001455188,0,0,0,99,0.4,-0.24,down,0.27624260005541146,,,,,,,,,,,,,,,,,,,,,,,,,,,,,,,,,,,,,,,,,,,,,,,,,,,,,,,,,,,,0MW9TH,train_y,red_square,bottom_right,2025-04-03_15h51.08.455,HideSeek_v1,2022.2.5,59.86708307971288,
,7,2,7,2,0,0,16,,train_dim1_1,14,30,,,,2,0,2,0,,,,,,,,,0,0,0,0,0,13,13,13,6,0,6,0,,,,,,,,,,,,,,,,,,,,,,,,,,,,,,,,,,,,,,,,,,,,,,,,,,,,,,,,,,,,,,,,30,,,,,,,,2035.2863537000958,2035.2863537000958,2035.2863537000958,2035.2863537000958,2035.2863537000958,return,0.8603026000782847,1,0,0,1,0.4,-0.24,return,0.7691377999726683,23,-30,0.4,-0.24,,,,,,,,,,,,,,,,,,,,,,,,,,,,,,,,,,,,,,,,,,,,,,,,,,,,,,,,0MW9TH,train_y,red_square,bottom_right,2025-04-03_15h51.08.455,HideSeek_v1,2022.2.5,59.86708307971288,
,6,4,6,7,0,3,13,,train_dim1_1,15,30,,,,2,0,2,0,,,,,,,,,0,0,0,0,0,14,14,14,0,0,0,0,,,,,,,,,,,,,,,,,,,,,,,,,stimuli/alien_stimuli/13.png,,,,,,,,,,,,,,,,,,,,,,,,,,,,,stimuli/alien_stimuli/16.png,16,7,16,,,,,,,30,,,,,,,,2064.6281371000223,2064.6281371000223,2064.6281371000223,2064.6281371000223,2064.6281371000223,up,1.257002400001511,1,0,0,99,0.32,0.0,up,1.1649163998663425,,,,,2063.059031800134,2064.6281371000223,0.4,-0.24,0.0,0.0,-0.24,0.4,0.4,0.4,-0.24,2037.7264197999611,2037.7264197999611,2037.7264197999611,2037.7264197999611,2037.7264197999611,2037.7264197999611,2037.7264197999611,2037.7264197999611,2037.721209320007,25.457092799944803,return,25.316281400155276,,,,,,,,,,,,,,,,,,,,,,,,,,,,,,,,,0MW9TH,train_y,red_square,bottom_right,2025-04-03_15h51.08.455,HideSeek_v1,2022.2.5,59.86708307971288,
,6,4,6,7,0,3,13,,train_dim1_1,15,30,,,,2,0,2,0,,,,,,,,,0,0,0,0,0,14,14,14,1,0,1,0,,,,,,,,,,,,,,,,,,,,,,,,,,,,,,,,,,,,,,,,,,,,,,,,,,,,,,,,,,,,,,,,30,,,,,,,,2065.8830397999845,2065.8830397999845,2065.8830397999845,2065.8830397999845,2065.8830397999845,up,0.3570775000844151,1,0,0,99,0.32,0.08,up,0.27783609996549785,,,,,,,,,,,,,,,,,,,,,,,,,,,,,,,,,,,,,,,,,,,,,,,,,,,,,,,,,,,,0MW9TH,train_y,red_square,bottom_right,2025-04-03_15h51.08.455,HideSeek_v1,2022.2.5,59.86708307971288,
,6,4,6,7,0,3,13,,train_dim1_1,15,30,,,,2,0,2,0,,,,,,,,,0,0,0,0,0,14,14,14,2,0,2,0,,,,,,,,,,,,,,,,,,,,,,,,,,,,,,,,,,,,,,,,,,,,,,,,,,,,,,,,,,,,,,,,30,,,,,,,,2066.24658669997,2066.24658669997,2066.24658669997,2066.24658669997,2066.24658669997,left,2.143411200027913,1,0,0,99,0.24,0.08,left,2.0568397999741137,,,,,,,,,,,,,,,,,,,,,,,,,,,,,,,,,,,,,,,,,,,,,,,,,,,,,,,,,,,,0MW9TH,train_y,red_square,bottom_right,2025-04-03_15h51.08.455,HideSeek_v1,2022.2.5,59.86708307971288,
,6,4,6,7,0,3,13,,train_dim1_1,15,30,,,,2,0,2,0,,,,,,,,,0,0,0,0,0,14,14,14,3,0,3,0,,,,,,,,,,,,,,,,,,,,,,,,,,,,,,,,,,,,,,,,,,,,,,,,,,,,,,,,,,,,,,,,30,,,,,,,,2068.3967057000846,2068.3967057000846,2068.3967057000846,2068.3967057000846,2068.3967057000846,down,1.5442735000979155,1,0,0,99,0.24,0.0,down,1.4552084000315517,,,,,,,,,,,,,,,,,,,,,,,,,,,,,,,,,,,,,,,,,,,,,,,,,,,,,,,,,,,,0MW9TH,train_y,red_square,bottom_right,2025-04-03_15h51.08.455,HideSeek_v1,2022.2.5,59.86708307971288,
,6,4,6,7,0,3,13,,train_dim1_1,15,30,,,,2,0,2,0,,,,,,,,,0,0,0,0,0,14,14,14,4,0,4,0,,,,,,,,,,,,,,,,,,,,,,,,,,,,,,,,,,,,,,,,,,,,,,,,,,,,,,,,,,,,,,,,30,,,,,,,,2069.9473158000037,2069.9473158000037,2069.9473158000037,2069.9473158000037,2069.9473158000037,down,0.993798199808225,1,0,0,99,0.24,-0.08,down,0.9129846999421716,,,,,,,,,,,,,,,,,,,,,,,,,,,,,,,,,,,,,,,,,,,,,,,,,,,,,,,,,,,,0MW9TH,train_y,red_square,bottom_right,2025-04-03_15h51.08.455,HideSeek_v1,2022.2.5,59.86708307971288,
,6,4,6,7,0,3,13,,train_dim1_1,15,30,,,,2,0,2,0,,,,,,,,,0,0,0,0,0,14,14,14,5,0,5,0,,,,,,,,,,,,,,,,,,,,,,,,,,,,,,,,,,,,,,,,,,,,,,,,,,,,,,,,,,,,,,,,30,,,,,,,,2070.9492401001044,2070.9492401001044,2070.9492401001044,2070.9492401001044,2070.9492401001044,up,1.8944401999469846,1,0,0,99,0.24,0.0,up,1.8177379998378456,,,,,,,,,,,,,,,,,,,,,,,,,,,,,,,,,,,,,,,,,,,,,,,,,,,,,,,,,,,,0MW9TH,train_y,red_square,bottom_right,2025-04-03_15h51.08.455,HideSeek_v1,2022.2.5,59.86708307971288,
,6,4,6,7,0,3,13,,train_dim1_1,15,30,,,,2,0,2,0,,,,,,,,,0,0,0,0,0,14,14,14,6,0,6,0,,,,,,,,,,,,,,,,,,,,,,,,,,,,,,,,,,,,,,,,,,,,,,,,,,,,,,,,,,,,,,,,30,,,,,,,,2072.85076089995,2072.85076089995,2072.85076089995,2072.85076089995,2072.85076089995,up,0.6767140999436378,1,0,0,99,0.24,0.08,up,0.5977419000118971,,,,,,,,,,,,,,,,,,,,,,,,,,,,,,,,,,,,,,,,,,,,,,,,,,,,,,,,,,,,0MW9TH,train_y,red_square,bottom_right,2025-04-03_15h51.08.455,HideSeek_v1,2022.2.5,59.86708307971288,
,6,4,6,7,0,3,13,,train_dim1_1,15,30,,,,2,0,2,0,,,,,,,,,0,0,0,0,0,14,14,14,7,0,7,0,,,,,,,,,,,,,,,,,,,,,,,,,,,,,,,,,,,,,,,,,,,,,,,,,,,,,,,,,,,,,,,,30,,,,,,,,2073.5340001001023,2073.5340001001023,2073.5340001001023,2073.5340001001023,2073.5340001001023,right,1.945107800187543,1,0,0,99,0.32,0.08,right,1.8680593001190573,,,,,,,,,,,,,,,,,,,,,,,,,,,,,,,,,,,,,,,,,,,,,,,,,,,,,,,,,,,,0MW9TH,train_y,red_square,bottom_right,2025-04-03_15h51.08.455,HideSeek_v1,2022.2.5,59.86708307971288,
,6,4,6,7,0,3,13,,train_dim1_1,15,30,,,,2,0,2,0,,,,,,,,,0,0,0,0,0,14,14,14,8,0,8,0,,,,,,,,,,,,,,,,,,,,,,,,,,,,,,,,,,,,,,,,,,,,,,,,,,,,,,,,,,,,,,,,30,,,,,,,,2075.486911999993,2075.486911999993,2075.486911999993,2075.486911999993,2075.486911999993,up,0.9262520000338554,1,0,0,99,0.32,0.16,up,0.8495336999185383,,,,,,,,,,,,,,,,,,,,,,,,,,,,,,,,,,,,,,,,,,,,,,,,,,,,,,,,,,,,0MW9TH,train_y,red_square,bottom_right,2025-04-03_15h51.08.455,HideSeek_v1,2022.2.5,59.86708307971288,
,6,4,6,7,0,3,13,,train_dim1_1,15,30,,,,2,0,2,0,,,,,,,,,0,0,0,0,0,14,14,14,9,0,9,0,,,,,,,,,,,,,,,,,,,,,,,,,,,,,,,,,,,,,,,,,,,,,,,,,,,,,,,,,,,,,,,,30,,,,,,,,2076.4219313000795,2076.4219313000795,2076.4219313000795,2076.4219313000795,2076.4219313000795,return,1.1106408999767154,2,0,0,1,0.32,0.16,return,1.024953099898994,26,-30,0.32,0.16,,,,,,,,,,,,,,,,,,,,,,,,,,,,,,,,,,,,,,,,,,,,,,,,,,,,,,,,0MW9TH,train_y,red_square,bottom_right,2025-04-03_15h51.08.455,HideSeek_v1,2022.2.5,59.86708307971288,
,9,0,9,1,0,1,15,,train_dim1_1,16,30,,,,2,0,2,0,,,,,,,,,0,0,0,0,0,15,15,15,0,0,0,0,,,,,,,,,,,,,,,,,,,,,,,,,stimuli/alien_stimuli/15.png,,,,,,,,,,,,,,,,,,,,,,,,,,,,,stimuli/alien_stimuli/13.png,13,6,17,,,,,,,30,,,,,,,,2105.749118400039,2105.749118400039,2105.749118400039,2105.749118400039,2105.749118400039,left,1.8378169999923557,2,0,0,99,0.48000000000000004,-0.4,left,1.7352719998452812,,,,,2104.1765576000325,2105.749118400039,0.32,0.16,0.24,0.0,0.04,0.32,0.32,0.32,0.16,2079.109522300074,2079.109522300074,2079.109522300074,2079.109522300074,2079.109522300074,2079.109522300074,2079.109522300074,2079.109522300074,2079.105868719984,25.189322300022468,return,25.050671799806878,,,,,,,,,,,,,,,,,,,,,,,,,,,,,,,,,0MW9TH,train_y,red_square,bottom_right,2025-04-03_15h51.08.455,HideSeek_v1,2022.2.5,59.86708307971288,
,9,0,9,1,0,1,15,,train_dim1_1,16,30,,,,2,0,2,0,,,,,,,,,0,0,0,0,0,15,15,15,1,0,1,0,,,,,,,,,,,,,,,,,,,,,,,,,,,,,,,,,,,,,,,,,,,,,,,,,,,,,,,,,,,,,,,,30,,,,,,,,2107.582160500111,2107.582160500111,2107.582160500111,2107.582160500111,2107.582160500111,left,0.4094678999390453,2,0,0,99,0.4,-0.4,left,0.32895389990881085,,,,,,,,,,,,,,,,,,,,,,,,,,,,,,,,,,,,,,,,,,,,,,,,,,,,,,,,,,,,0MW9TH,train_y,red_square,bottom_right,2025-04-03_15h51.08.455,HideSeek_v1,2022.2.5,59.86708307971288,
,9,0,9,1,0,1,15,,train_dim1_1,16,30,,,,2,0,2,0,,,,,,,,,0,0,0,0,0,15,15,15,2,0,2,0,,,,,,,,,,,,,,,,,,,,,,,,,,,,,,,,,,,,,,,,,,,,,,,,,,,,,,,,,,,,,,,,30,,,,,,,,2107.9973520999774,2107.9973520999774,2107.9973520999774,2107.9973520999774,2107.9973520999774,left,0.3601265999022871,2,0,0,99,0.32,-0.4,left,0.27766559994779527,,,,,,,,,,,,,,,,,,,,,,,,,,,,,,,,,,,,,,,,,,,,,,,,,,,,,,,,,,,,0MW9TH,train_y,red_square,bottom_right,2025-04-03_15h51.08.455,HideSeek_v1,2022.2.5,59.86708307971288,
,9,0,9,1,0,1,15,,train_dim1_1,16,30,,,,2,0,2,0,,,,,,,,,0,0,0,0,0,15,15,15,3,0,3,0,,,,,,,,,,,,,,,,,,,,,,,,,,,,,,,,,,,,,,,,,,,,,,,,,,,,,,,,,,,,,,,,30,,,,,,,,2108.3675083999988,2108.3675083999988,2108.3675083999988,2108.3675083999988,2108.3675083999988,left,0.3239838001318276,2,0,0,99,0.24,-0.4,left,0.24110360001213849,,,,,,,,,,,,,,,,,,,,,,,,,,,,,,,,,,,,,,,,,,,,,,,,,,,,,,,,,,,,0MW9TH,train_y,red_square,bottom_right,2025-04-03_15h51.08.455,HideSeek_v1,2022.2.5,59.86708307971288,
,9,0,9,1,0,1,15,,train_dim1_1,16,30,,,,2,0,2,0,,,,,,,,,0,0,0,0,0,15,15,15,4,0,4,0,,,,,,,,,,,,,,,,,,,,,,,,,,,,,,,,,,,,,,,,,,,,,,,,,,,,,,,,,,,,,,,,30,,,,,,,,2108.6977089000866,2108.6977089000866,2108.6977089000866,2108.6977089000866,2108.6977089000866,left,0.3266191000584513,2,0,0,99,0.15999999999999998,-0.4,left,0.24132129992358387,,,,,,,,,,,,,,,,,,,,,,,,,,,,,,,,,,,,,,,,,,,,,,,,,,,,,,,,,,,,0MW9TH,train_y,red_square,bottom_right,2025-04-03_15h51.08.455,HideSeek_v1,2022.2.5,59.86708307971288,
,9,0,9,1,0,1,15,,train_dim1_1,16,30,,,,2,0,2,0,,,,,,,,,0,0,0,0,0,15,15,15,5,0,5,0,,,,,,,,,,,,,,,,,,,,,,,,,,,,,,,,,,,,,,,,,,,,,,,,,,,,,,,,,,,,,,,,30,,,,,,,,2109.0312290999573,2109.0312290999573,2109.0312290999573,2109.0312290999573,2109.0312290999573,up,1.6108969999477267,2,0,0,99,0.15999999999999998,-0.32,up,1.5232257000170648,,,,,,,,,,,,,,,,,,,,,,,,,,,,,,,,,,,,,,,,,,,,,,,,,,,,,,,,,,,,0MW9TH,train_y,red_square,bottom_right,2025-04-03_15h51.08.455,HideSeek_v1,2022.2.5,59.86708307971288,
,9,0,9,1,0,1,15,,train_dim1_1,16,30,,,,2,0,2,0,,,,,,,,,0,0,0,0,0,15,15,15,6,0,6,0,,,,,,,,,,,,,,,,,,,,,,,,,,,,,,,,,,,,,,,,,,,,,,,,,,,,,,,,,,,,,,,,30,,,,,,,,2110.6502943001688,2110.6502943001688,2110.6502943001688,2110.6502943001688,2110.6502943001688,up,1.0596768001560122,2,0,0,99,0.15999999999999998,-0.24,up,0.9723980999551713,,,,,,,,,,,,,,,,,,,,,,,,,,,,,,,,,,,,,,,,,,,,,,,,,,,,,,,,,,,,0MW9TH,train_y,red_square,bottom_right,2025-04-03_15h51.08.455,HideSeek_v1,2022.2.5,59.86708307971288,
,9,0,9,1,0,1,15,,train_dim1_1,16,30,,,,2,0,2,0,,,,,,,,,0,0,0,0,0,15,15,15,7,0,7,0,,,,,,,,,,,,,,,,,,,,,,,,,,,,,,,,,,,,,,,,,,,,,,,,,,,,,,,,,,,,,,,,30,,,,,,,,2111.717020299984,2111.717020299984,2111.717020299984,2111.717020299984,2111.717020299984,up,0.4098790001589805,2,0,0,99,0.15999999999999998,-0.15999999999999998,up,0.32827810011804104,,,,,,,,,,,,,,,,,,,,,,,,,,,,,,,,,,,,,,,,,,,,,,,,,,,,,,,,,,,,0MW9TH,train_y,red_square,bottom_right,2025-04-03_15h51.08.455,HideSeek_v1,2022.2.5,59.86708307971288,
,9,0,9,1,0,1,15,,train_dim1_1,16,30,,,,2,0,2,0,,,,,,,,,0,0,0,0,0,15,15,15,8,0,8,0,,,,,,,,,,,,,,,,,,,,,,,,,,,,,,,,,,,,,,,,,,,,,,,,,,,,,,,,,,,,,,,,30,,,,,,,,2112.133035799954,2112.133035799954,2112.133035799954,2112.133035799954,2112.133035799954,right,0.9271821000147611,2,0,0,99,0.24,-0.15999999999999998,right,0.8429906000383198,,,,,,,,,,,,,,,,,,,,,,,,,,,,,,,,,,,,,,,,,,,,,,,,,,,,,,,,,,,,0MW9TH,train_y,red_square,bottom_right,2025-04-03_15h51.08.455,HideSeek_v1,2022.2.5,59.86708307971288,
,9,0,9,1,0,1,15,,train_dim1_1,16,30,,,,2,0,2,0,,,,,,,,,0,0,0,0,0,15,15,15,9,0,9,0,,,,,,,,,,,,,,,,,,,,,,,,,,,,,,,,,,,,,,,,,,,,,,,,,,,,,,,,,,,,,,,,30,,,,,,,,2113.0729064999614,2113.0729064999614,2113.0729064999614,2113.0729064999614,2113.0729064999614,right,0.5908854000736028,2,0,0,99,0.32,-0.15999999999999998,right,0.5014086000155658,,,,,,,,,,,,,,,,,,,,,,,,,,,,,,,,,,,,,,,,,,,,,,,,,,,,,,,,,,,,0MW9TH,train_y,red_square,bottom_right,2025-04-03_15h51.08.455,HideSeek_v1,2022.2.5,59.86708307971288,
,9,0,9,1,0,1,15,,train_dim1_1,16,30,,,,2,0,2,0,,,,,,,,,0,0,0,0,0,15,15,15,10,0,10,0,,,,,,,,,,,,,,,,,,,,,,,,,,,,,,,,,,,,,,,,,,,,,,,,,,,,,,,,,,,,,,,,30,,,,,,,,2113.6682162000798,2113.6682162000798,2113.6682162000798,2113.6682162000798,2113.6682162000798,down,1.1940705999732018,2,0,0,99,0.32,-0.24,down,1.1124639001209289,,,,,,,,,,,,,,,,,,,,,,,,,,,,,,,,,,,,,,,,,,,,,,,,,,,,,,,,,,,,0MW9TH,train_y,red_square,bottom_right,2025-04-03_15h51.08.455,HideSeek_v1,2022.2.5,59.86708307971288,
,9,0,9,1,0,1,15,,train_dim1_1,16,30,,,,2,0,2,0,,,,,,,,,0,0,0,0,0,15,15,15,11,0,11,0,,,,,,,,,,,,,,,,,,,,,,,,,,,,,,,,,,,,,,,,,,,,,,,,,,,,,,,,,,,,,,,,30,,,,,,,,2114.869723400101,2114.869723400101,2114.869723400101,2114.869723400101,2114.869723400101,down,0.342893399996683,2,0,0,99,0.32,-0.32,down,0.2587542000692338,,,,,,,,,,,,,,,,,,,,,,,,,,,,,,,,,,,,,,,,,,,,,,,,,,,,,,,,,,,,0MW9TH,train_y,red_square,bottom_right,2025-04-03_15h51.08.455,HideSeek_v1,2022.2.5,59.86708307971288,
,9,0,9,1,0,1,15,,train_dim1_1,16,30,,,,2,0,2,0,,,,,,,,,0,0,0,0,0,15,15,15,12,0,12,0,,,,,,,,,,,,,,,,,,,,,,,,,,,,,,,,,,,,,,,,,,,,,,,,,,,,,,,,,,,,,,,,30,,,,,,,,2115.2198906999547,2115.2198906999547,2115.2198906999547,2115.2198906999547,2115.2198906999547,down,0.2939055000897497,2,0,0,99,0.32,-0.4,down,0.21263610012829304,,,,,,,,,,,,,,,,,,,,,,,,,,,,,,,,,,,,,,,,,,,,,,,,,,,,,,,,,,,,0MW9TH,train_y,red_square,bottom_right,2025-04-03_15h51.08.455,HideSeek_v1,2022.2.5,59.86708307971288,
,9,0,9,1,0,1,15,,train_dim1_1,16,30,,,,2,0,2,0,,,,,,,,,0,0,0,0,0,15,15,15,13,0,13,0,,,,,,,,,,,,,,,,,,,,,,,,,,,,,,,,,,,,,,,,,,,,,,,,,,,,,,,,,,,,,,,,30,,,,,,,,2115.5217800000682,2115.5217800000682,2115.5217800000682,2115.5217800000682,2115.5217800000682,down,1.1266572999302298,2,0,0,99,0.32,-0.48000000000000004,down,1.033938999986276,,,,,,,,,,,,,,,,,,,,,,,,,,,,,,,,,,,,,,,,,,,,,,,,,,,,,,,,,,,,0MW9TH,train_y,red_square,bottom_right,2025-04-03_15h51.08.455,HideSeek_v1,2022.2.5,59.86708307971288,
,9,0,9,1,0,1,15,,train_dim1_1,16,30,,,,2,0,2,0,,,,,,,,,0,0,0,0,0,15,15,15,14,0,14,0,,,,,,,,,,,,,,,,,,,,,,,,,,,,,,,,,,,,,,,,,,,,,,,,,,,,,,,,,,,,,,,,30,,,,,,,,2116.654075700091,2116.654075700091,2116.654075700091,2116.654075700091,2116.654075700091,down,0.5430213999934494,2,0,0,99,0.32,-0.56,down,0.4627574998885393,,,,,,,,,,,,,,,,,,,,,,,,,,,,,,,,,,,,,,,,,,,,,,,,,,,,,,,,,,,,0MW9TH,train_y,red_square,bottom_right,2025-04-03_15h51.08.455,HideSeek_v1,2022.2.5,59.86708307971288,
,9,0,9,1,0,1,15,,train_dim1_1,16,30,,,,2,0,2,0,,,,,,,,,0,0,0,0,0,15,15,15,15,0,15,0,,,,,,,,,,,,,,,,,,,,,,,,,,,,,,,,,,,,,,,,,,,,,,,,,,,,,,,,,,,,,,,,30,,,,,,,,2117.2043038001284,2117.2043038001284,2117.2043038001284,2117.2043038001284,2117.2043038001284,up,1.994616499869153,2,0,0,99,0.32,-0.48000000000000004,up,1.9132324999663979,,,,,,,,,,,,,,,,,,,,,,,,,,,,,,,,,,,,,,,,,,,,,,,,,,,,,,,,,,,,0MW9TH,train_y,red_square,bottom_right,2025-04-03_15h51.08.455,HideSeek_v1,2022.2.5,59.86708307971288,
,9,0,9,1,0,1,15,,train_dim1_1,16,30,,,,2,0,2,0,,,,,,,,,0,0,0,0,0,15,15,15,16,0,16,0,,,,,,,,,,,,,,,,,,,,,,,,,,,,,,,,,,,,,,,,,,,,,,,,,,,,,,,,,,,,,,,,30,,,,,,,,2119.2064598000143,2119.2064598000143,2119.2064598000143,2119.2064598000143,2119.2064598000143,up,0.6771310002077371,2,0,0,99,0.32,-0.4,up,0.5956257001962513,,,,,,,,,,,,,,,,,,,,,,,,,,,,,,,,,,,,,,,,,,,,,,,,,,,,,,,,,,,,0MW9TH,train_y,red_square,bottom_right,2025-04-03_15h51.08.455,HideSeek_v1,2022.2.5,59.86708307971288,
,9,0,9,1,0,1,15,,train_dim1_1,16,30,,,,2,0,2,0,,,,,,,,,0,0,0,0,0,15,15,15,17,0,17,0,,,,,,,,,,,,,,,,,,,,,,,,,,,,,,,,,,,,,,,,,,,,,,,,,,,,,,,,,,,,,,,,30,,,,,,,,2119.8921241001226,2119.8921241001226,2119.8921241001226,2119.8921241001226,2119.8921241001226,up,1.9437937999609858,2,0,0,99,0.32,-0.32,up,1.864058499922976,,,,,,,,,,,,,,,,,,,,,,,,,,,,,,,,,,,,,,,,,,,,,,,,,,,,,,,,,,,,0MW9TH,train_y,red_square,bottom_right,2025-04-03_15h51.08.455,HideSeek_v1,2022.2.5,59.86708307971288,
,9,0,9,1,0,1,15,,train_dim1_1,16,30,,,,2,0,2,0,,,,,,,,,0,0,0,0,0,15,15,15,18,0,18,0,,,,,,,,,,,,,,,,,,,,,,,,,,,,,,,,,,,,,,,,,,,,,,,,,,,,,,,,,,,,,,,,30,,,,,,,,2121.8434862000868,2121.8434862000868,2121.8434862000868,2121.8434862000868,2121.8434862000868,left,6.447641700040549,2,0,0,99,0.24,-0.32,left,6.3548906000796705,,,,,,,,,,,,,,,,,,,,,,,,,,,,,,,,,,,,,,,,,,,,,,,,,,,,,,,,,,,,0MW9TH,train_y,red_square,bottom_right,2025-04-03_15h51.08.455,HideSeek_v1,2022.2.5,59.86708307971288,
,9,0,9,1,0,1,15,,train_dim1_1,16,30,,,,2,0,2,0,,,,,,,,,0,0,0,0,0,15,15,15,19,0,19,0,,,,,,,,,,,,,,,,,,,,,,,,,,,,,,,,,,,,,,,,,,,,,,,,,,,,,,,,,,,,,,,,30,,,,,,,,2128.300603999989,2128.300603999989,2128.300603999989,2128.300603999989,2128.300603999989,left,1.5604711000341922,2,0,0,99,0.15999999999999998,-0.32,left,1.4785611999686807,,,,,,,,,,,,,,,,,,,,,,,,,,,,,,,,,,,,,,,,,,,,,,,,,,,,,,,,,,,,0MW9TH,train_y,red_square,bottom_right,2025-04-03_15h51.08.455,HideSeek_v1,2022.2.5,59.86708307971288,
,9,0,9,1,0,1,15,,train_dim1_1,16,30,,,,2,0,2,0,,,,,,,,,0,0,0,0,0,15,15,15,20,0,20,0,,,,,,,,,,,,,,,,,,,,,,,,,,,,,,,,,,,,,,,,,,,,,,,,,,,,,,,,,,,,,,,,30,,,,,,,,2129.8658235999756,2129.8658235999756,2129.8658235999756,2129.8658235999756,2129.8658235999756,down,0.8438847998622805,2,0,0,99,0.15999999999999998,-0.4,down,0.7562816999852657,,,,,,,,,,,,,,,,,,,,,,,,,,,,,,,,,,,,,,,,,,,,,,,,,,,,,,,,,,,,0MW9TH,train_y,red_square,bottom_right,2025-04-03_15h51.08.455,HideSeek_v1,2022.2.5,59.86708307971288,
,9,0,9,1,0,1,15,,train_dim1_1,16,30,,,,2,0,2,0,,,,,,,,,0,0,0,0,0,15,15,15,21,0,21,0,,,,,,,,,,,,,,,,,,,,,,,,,,,,,,,,,,,,,,,,,,,,,,,,,,,,,,,,,,,,,,,,30,,,,,,,,2130.7177051999606,2130.7177051999606,2130.7177051999606,2130.7177051999606,2130.7177051999606,left,1.6594551999587566,2,0,0,99,0.07999999999999997,-0.4,left,1.5681493000593036,,,,,,,,,,,,,,,,,,,,,,,,,,,,,,,,,,,,,,,,,,,,,,,,,,,,,,,,,,,,0MW9TH,train_y,red_square,bottom_right,2025-04-03_15h51.08.455,HideSeek_v1,2022.2.5,59.86708307971288,
,9,0,9,1,0,1,15,,train_dim1_1,16,30,,,,2,0,2,0,,,,,,,,,0,0,0,0,0,15,15,15,22,0,22,0,,,,,,,,,,,,,,,,,,,,,,,,,,,,,,,,,,,,,,,,,,,,,,,,,,,,,,,,,,,,,,,,30,,,,,,,,2132.384719300084,2132.384719300084,2132.384719300084,2132.384719300084,2132.384719300084,left,0.5264045000076294,2,0,0,99,-2.7755575615628914e-17,-0.4,left,0.442607699893415,,,,,,,,,,,,,,,,,,,,,,,,,,,,,,,,,,,,,,,,,,,,,,,,,,,,,,,,,,,,0MW9TH,train_y,red_square,bottom_right,2025-04-03_15h51.08.455,HideSeek_v1,2022.2.5,59.86708307971288,
,9,0,9,1,0,1,15,,train_dim1_1,16,30,,,,2,0,2,0,,,,,,,,,0,0,0,0,0,15,15,15,23,0,23,0,,,,,,,,,,,,,,,,,,,,,,,,,,,,,,,,,,,,,,,,,,,,,,,,,,,,,,,,,,,,,,,,30,,,,,,,,2132.9191660999786,2132.9191660999786,2132.9191660999786,2132.9191660999786,2132.9191660999786,right,2.4618116000201553,2,0,0,99,0.07999999999999997,-0.4,right,2.37397599988617,,,,,,,,,,,,,,,,,,,,,,,,,,,,,,,,,,,,,,,,,,,,,,,,,,,,,,,,,,,,0MW9TH,train_y,red_square,bottom_right,2025-04-03_15h51.08.455,HideSeek_v1,2022.2.5,59.86708307971288,
,9,0,9,1,0,1,15,,train_dim1_1,16,30,,,,2,0,2,0,,,,,,,,,0,0,0,0,0,15,15,15,24,0,24,0,,,,,,,,,,,,,,,,,,,,,,,,,,,,,,,,,,,,,,,,,,,,,,,,,,,,,,,,,,,,,,,,30,,,,,,,,2135.3870900999755,2135.3870900999755,2135.3870900999755,2135.3870900999755,2135.3870900999755,right,0.6101047000847757,2,0,0,99,0.15999999999999998,-0.4,right,0.5286544000264257,,,,,,,,,,,,,,,,,,,,,,,,,,,,,,,,,,,,,,,,,,,,,,,,,,,,,,,,,,,,0MW9TH,train_y,red_square,bottom_right,2025-04-03_15h51.08.455,HideSeek_v1,2022.2.5,59.86708307971288,
,9,0,9,1,0,1,15,,train_dim1_1,16,30,,,,2,0,2,0,,,,,,,,,0,0,0,0,0,15,15,15,25,0,25,0,,,,,,,,,,,,,,,,,,,,,,,,,,,,,,,,,,,,,,,,,,,,,,,,,,,,,,,,,,,,,,,,30,,,,,,,,2136.004102200037,2136.004102200037,2136.004102200037,2136.004102200037,2136.004102200037,left,1.3441474998835474,2,0,0,99,0.07999999999999997,-0.4,left,1.2568089999258518,,,,,,,,,,,,,,,,,,,,,,,,,,,,,,,,,,,,,,,,,,,,,,,,,,,,,,,,,,,,0MW9TH,train_y,red_square,bottom_right,2025-04-03_15h51.08.455,HideSeek_v1,2022.2.5,59.86708307971288,
,9,0,9,1,0,1,15,,train_dim1_1,16,30,,,,2,0,2,0,,,,,,,,,0,0,0,0,0,15,15,15,26,0,26,0,,,,,,,,,,,,,,,,,,,,,,,,,,,,,,,,,,,,,,,,,,,,,,,,,,,,,,,,,,,,,,,,30,,,,,,,,2137.3543295001145,2137.3543295001145,2137.3543295001145,2137.3543295001145,2137.3543295001145,left,0.6269513999577612,2,0,0,99,-2.7755575615628914e-17,-0.4,left,0.5443116000387818,,,,,,,,,,,,,,,,,,,,,,,,,,,,,,,,,,,,,,,,,,,,,,,,,,,,,,,,,,,,0MW9TH,train_y,red_square,bottom_right,2025-04-03_15h51.08.455,HideSeek_v1,2022.2.5,59.86708307971288,
