trialInstr,x_fixStart,y_fixStart,x_corrSteps,y_corrSteps,x_nrSteps,y_nrSteps,alienID,trialLength,version,trialTrain,praclen,testlen,trial_label,break_on_off,beforeExpLoop.thisRepN,beforeExpLoop.thisTrialN,beforeExpLoop.thisN,beforeExpLoop.thisIndex,mini_instr_trials.thisRepN,mini_instr_trials.thisTrialN,mini_instr_trials.thisN,mini_instr_trials.thisIndex,instrLoop.thisRepN,instrLoop.thisTrialN,instrLoop.thisN,instrLoop.thisIndex,repeat_prac.thisRepN,repeat_prac.thisTrialN,repeat_prac.thisN,repeat_prac.thisIndex,trainLoop.thisRepN,trainLoop.thisTrialN,trainLoop.thisN,trainLoop.thisIndex,moveLoop_train.thisRepN,moveLoop_train.thisTrialN,moveLoop_train.thisN,moveLoop_train.thisIndex,experiment.thisRepN,experiment.thisTrialN,experiment.thisN,experiment.thisIndex,moveLoop_test.thisRepN,moveLoop_test.thisTrialN,moveLoop_test.thisN,moveLoop_test.thisIndex,mini_instr2_trials.thisRepN,mini_instr2_trials.thisTrialN,mini_instr2_trials.thisN,mini_instr2_trials.thisIndex,start_all_time,url,slideStim,audioStim,slides.started,sounds.started,nextButton.numClicks,nextButton.timesOn,nextButton.timesOff,prev_but.numClicks,prev_but.timesOn,prev_but.timesOff,alienStim,instrFile,alienStim_instr,gridImage_instr.started,startPos_3.started,key_instr.started,alienImage_3.started,sounds_1.started,key_instr.keys,key_instr.rt,all_x,all_y,FBy_corrSteps,FBy_fixStart,FBx_corrSteps,FBx_fixStart,FBy_pathSize_check,FBx_pathSize_check,gridImage_9.started,alienImageFB_3.started,startPosFB_3.started,keyFB_3.started,pathLine_ydir_2.started,pathLine_xdir_2.started,alienFace_3.started,sounds_2.started,RTFB_instr,keyFB_3.keys,keyFB_3.rt,draw_alienStim,draw_alienID,test_x,nrepcount,perfthres,percthres,earlierperf,earlystop,nextPrac,fileidx,praclen,saveACC_train,pracFile,nextPrac_train,addNrep,fileidx_endr,repExp,showearly,gridImage_4.started,startPos.started,movePos.started,key_resp.started,alienImage.started,buttonPress_train,RTchoice_train,cumAcctrain,aCorr,saveACC_choice,corrAns,x_movePos_end,y_movePos_end,key_resp.keys,key_resp.rt,wLy_dir,wLx_dir,x_movePos,y_movePos,text_2.started,text_2.stopped,aft_x_corrPos,aft_y_corrPos,y_pathSize_check,x_pathSize_check,y_pathdirY,x_pathdirY,x_pathdirX,x_corrPos,y_corrPos,gridImage_6.started,alienImageFB_2.started,startPosFB_2.started,movePosFB_2.started,keyFB_2.started,pathLine_xdir.started,pathLine_ydir.started,alienFace.started,sounds_4.started,RT_FBtrain,keyFB_2.keys,keyFB_2.rt,saveACC_pre,ACC,within_saveACC_train,earlystop_wloop,cumAcctrain_check,gridImage_3.started,alienImage_test.started,startPos_test.started,movePos_test.started,key_resp_test.started,wLy_dir_test,wLx_dir_test,buttonPress_test,RTchoice_test,cumAcctest,corrAns_test,key_resp_test.keys,key_resp_test.rt,text_3.started,text_3.stopped,total_time,end_all_time,key_resp_3.keys,slides_2.started,sounds_3.started,nextButton_2.numClicks,nextButton_2.timesOn,nextButton_2.timesOff,prev_but_2.numClicks,prev_but_2.timesOn,prev_but_2.timesOff,bye.started,participant,train_first,00_coordinate,starting corner,date,expName,psychopyVersion,frameRate,
,,,,,,,,,,,,,,,0,0,0,0,0,0,0,0,,,,,,,,,,,,,,,,,,,,,,,,,,,,,start_all_time,testround,conditions/schedules/train_y_first/red_square_00/bottom_right/instructions/Slide1.png,conditions/schedules/train_y_first/red_square_00/bottom_right/instructions/Audio1.wav,338.81029789999957,338.76467753998224,1,[6.672911999999997],[6.672918499998559],0,,,,,,,,,,,,,,,,,,,,,,,,,,,,,,,,,,,,,,,,,,,,,,,,,,,,,,,,,,,,,,,,,,,,,,,,,,,,,,,,,,,,,,,,,,,,,,,,,,,,,,,,,,,,,,,,,,,,,,,,,,,,0NPJWL,train_y,red_square,bottom_right,2025-01-22_16h54.00.436,HideSeek_v1,2022.2.5,59.944599201330384,
,,,,,,,,,,,,,,,0,0,0,0,1,0,1,0,,,,,,,,,,,,,,,,,,,,,,,,,,,,,,,conditions/schedules/train_y_first/red_square_00/bottom_right/instructions/Slide2.png,conditions/schedules/train_y_first/red_square_00/bottom_right/instructions/Audio2.wav,345.50113319999946,345.48904967999914,2,"[6.672911999999997, 18.20089039999948]","[0.035944799999924726, 18.200896599999396]",0,,,,,,,,,,,,,,,,,,,,,,,,,,,,,,,,,,,,,,,,,,,,,,,,,,,,,,,,,,,,,,,,,,,,,,,,,,,,,,,,,,,,,,,,,,,,,,,,,,,,,,,,,,,,,,,,,,,,,,,,,,,,0NPJWL,train_y,red_square,bottom_right,2025-01-22_16h54.00.436,HideSeek_v1,2022.2.5,59.944599201330384,
,,,,,,,,,,,,,,,0,0,0,0,2,0,2,0,,,,,,,,,,,,,,,,,,,,,,,,,,,,,,,conditions/schedules/train_y_first/red_square_00/bottom_right/instructions/Slide3.png,conditions/schedules/train_y_first/red_square_00/bottom_right/instructions/Audio3.wav,363.7689601999991,363.770831249999,3,"[6.672911999999997, 18.20089039999948, 17.013976600001115]","[0.035944799999924726, 0.1493112000007386, 17.013984100000016]",0,,,,,,,,,,,,,,,,,,,,,,,,,,,,,,,,,,,,,,,,,,,,,,,,,,,,,,,,,,,,,,,,,,,,,,,,,,,,,,,,,,,,,,,,,,,,,,,,,,,,,,,,,,,,,,,,,,,,,,,,,,,,0NPJWL,train_y,red_square,bottom_right,2025-01-22_16h54.00.436,HideSeek_v1,2022.2.5,59.944599201330384,
,,,,,,,,,,,,,,,0,0,0,0,3,0,3,0,,,,,,,,,,,,,,,,,,,,,,,,,,,,,,,conditions/schedules/train_y_first/red_square_00/bottom_right/instructions/Slide4.png,conditions/schedules/train_y_first/red_square_00/bottom_right/instructions/Audio4.wav,380.85206279999875,380.8517504499987,4,"[6.672911999999997, 18.20089039999948, 17.013976600001115, 19.44701780000105]","[0.035944799999924726, 0.1493112000007386, 0.031103799999982584, 19.447024000000965]",0,,,,,,,,,,,,,,,,,,,,,,,,,,,,,,,,,,,,,,,,,,,,,,,,,,,,,,,,,,,,,,,,,,,,,,,,,,,,,,,,,,,,,,,,,,,,,,,,,,,,,,,,,,,,,,,,,,,,,,,,,,,,0NPJWL,train_y,red_square,bottom_right,2025-01-22_16h54.00.436,HideSeek_v1,2022.2.5,59.944599201330384,
,,,,,,,,,,,,,,,0,0,0,0,4,0,4,0,,,,,,,,,,,,,,,,,,,,,,,,,,,,,,,conditions/schedules/train_y_first/red_square_00/bottom_right/instructions/Slide5.png,conditions/schedules/train_y_first/red_square_00/bottom_right/instructions/Audio5.wav,400.35707079999884,400.3511823799992,5,"[6.672911999999997, 18.20089039999948, 17.013976600001115, 19.44701780000105, 4.412109399998371]","[0.035944799999924726, 0.1493112000007386, 0.031103799999982584, 0.07947039999999106, 4.412117500000022]",0,,,,,,,,,,,,,,,,,,,,,,,,,,,,,,,,,,,,,,,,,,,,,,,,,,,,,,,,,,,,,,,,,,,,,,,,,,,,,,,,,,,,,,,,,,,,,,,,,,,,,,,,,,,,,,,,,,,,,,,,,,,,0NPJWL,train_y,red_square,bottom_right,2025-01-22_16h54.00.436,HideSeek_v1,2022.2.5,59.944599201330384,
,,,,,,,,,,,,,,,0,0,0,0,5,0,5,0,,,,,,,,,,,,,,,,,,,,,,,,,,,,,,,conditions/schedules/train_y_first/red_square_00/bottom_right/instructions/Slide6.png,conditions/schedules/train_y_first/red_square_00/bottom_right/instructions/Audio6.wav,404.8186876999989,404.8214807799988,6,"[6.672911999999997, 18.20089039999948, 17.013976600001115, 19.44701780000105, 4.412109399998371, 5.2043611999997665]","[0.035944799999924726, 0.1493112000007386, 0.031103799999982584, 0.07947039999999106, 0.10037310000006983, 5.2043678000009095]",0,,,,,,,,,,,,,,,,,,,,,,,,,,,,,,,,,,,,,,,,,,,,,,,,,,,,,,,,,,,,,,,,,,,,,,,,,,,,,,,,,,,,,,,,,,,,,,,,,,,,,,,,,,,,,,,,,,,,,,,,,,,,0NPJWL,train_y,red_square,bottom_right,2025-01-22_16h54.00.436,HideSeek_v1,2022.2.5,59.944599201330384,
,,,,,,,,,,,,,,,0,0,0,0,6,0,6,0,,,,,,,,,,,,,,,,,,,,,,,,,,,,,,,conditions/schedules/train_y_first/red_square_00/bottom_right/instructions/Slide7.png,conditions/schedules/train_y_first/red_square_00/bottom_right/instructions/Audio7.wav,410.0732771999992,410.0758257799982,7,"[6.672911999999997, 18.20089039999948, 17.013976600001115, 19.44701780000105, 4.412109399998371, 5.2043611999997665, 5.688394700000572]","[0.035944799999924726, 0.1493112000007386, 0.031103799999982584, 0.07947039999999106, 0.10037310000006983, 0.11691950000022189, 5.688400699998965]",0,,,,,,,,,,,,,,,,,,,,,,,,,,,,,,,,,,,,,,,,,,,,,,,,,,,,,,,,,,,,,,,,,,,,,,,,,,,,,,,,,,,,,,,,,,,,,,,,,,,,,,,,,,,,,,,,,,,,,,,,,,,,0NPJWL,train_y,red_square,bottom_right,2025-01-22_16h54.00.436,HideSeek_v1,2022.2.5,59.944599201330384,
,,,,,,,,,,,,,,,0,0,0,0,7,0,7,0,,,,,,,,,,,,,,,,,,,,,,,,,,,,,,,conditions/schedules/train_y_first/red_square_00/bottom_right/instructions/Slide8.png,conditions/schedules/train_y_first/red_square_00/bottom_right/instructions/Audio8.wav,415.8123726999984,415.8140119799984,8,"[6.672911999999997, 18.20089039999948, 17.013976600001115, 19.44701780000105, 4.412109399998371, 5.2043611999997665, 5.688394700000572, 12.325913599999694]","[0.035944799999924726, 0.1493112000007386, 0.031103799999982584, 0.07947039999999106, 0.10037310000006983, 0.11691950000022189, 0.09906269999919459, 12.325919499999145]",0,,,,,,,,,,,,,,,,,,,,,,,,,,,,,,,,,,,,,,,,,,,,,,,,,,,,,,,,,,,,,,,,,,,,,,,,,,,,,,,,,,,,,,,,,,,,,,,,,,,,,,,,,,,,,,,,,,,,,,,,,,,,0NPJWL,train_y,red_square,bottom_right,2025-01-22_16h54.00.436,HideSeek_v1,2022.2.5,59.944599201330384,
,,,,,,,,,,,,,,,0,0,0,0,8,0,8,0,,,,,,,,,,,,,,,,,,,,,,,,,,,,,,,conditions/schedules/train_y_first/red_square_00/bottom_right/instructions/Slide9.png,conditions/schedules/train_y_first/red_square_00/bottom_right/instructions/Audio9.wav,428.19605369999954,428.19103207999905,9,"[6.672911999999997, 18.20089039999948, 17.013976600001115, 19.44701780000105, 4.412109399998371, 5.2043611999997665, 5.688394700000572, 12.325913599999694, 6.2144787999986875]","[0.035944799999924726, 0.1493112000007386, 0.031103799999982584, 0.07947039999999106, 0.10037310000006983, 0.11691950000022189, 0.09906269999919459, 0.04721329999847512, 6.214485299999069]",0,,,,,,,,,,,,,,,,,,,,,,,,,,,,,,,,,,,,,,,,,,,,,,,,,,,,,,,,,,,,,,,,,,,,,,,,,,,,,,,,,,,,,,,,,,,,,,,,,,,,,,,,,,,,,,,,,,,,,,,,,,,,0NPJWL,train_y,red_square,bottom_right,2025-01-22_16h54.00.436,HideSeek_v1,2022.2.5,59.944599201330384,
,,,,,,,,,,,,,,,0,0,0,0,9,0,9,0,,,,,,,,,,,,,,,,,,,,,,,,,,,,,,,conditions/schedules/train_y_first/red_square_00/bottom_right/instructions/Slide10.png,conditions/schedules/train_y_first/red_square_00/bottom_right/instructions/Audio10.wav,434.4458520999997,434.44610330999916,10,"[6.672911999999997, 18.20089039999948, 17.013976600001115, 19.44701780000105, 4.412109399998371, 5.2043611999997665, 5.688394700000572, 12.325913599999694, 6.2144787999986875, 7.95401259999926]","[0.035944799999924726, 0.1493112000007386, 0.031103799999982584, 0.07947039999999106, 0.10037310000006983, 0.11691950000022189, 0.09906269999919459, 0.04721329999847512, 0.18075230000067677, 7.954019200000403]",0,,,,,,,,,,,,,,,,,,,,,,,,,,,,,,,,,,,,,,,,,,,,,,,,,,,,,,,,,,,,,,,,,,,,,,,,,,,,,,,,,,,,,,,,,,,,,,,,,,,,,,,,,,,,,,,,,,,,,,,,,,,,0NPJWL,train_y,red_square,bottom_right,2025-01-22_16h54.00.436,HideSeek_v1,2022.2.5,59.944599201330384,
,,,,,,,,,,,,,,,0,0,0,0,10,0,10,0,,,,,,,,,,,,,,,,,,,,,,,,,,,,,,,conditions/schedules/train_y_first/red_square_00/bottom_right/instructions/Slide11.png,conditions/schedules/train_y_first/red_square_00/bottom_right/instructions/Audio11.wav,442.43675129999974,442.4360313099982,11,"[6.672911999999997, 18.20089039999948, 17.013976600001115, 19.44701780000105, 4.412109399998371, 5.2043611999997665, 5.688394700000572, 12.325913599999694, 6.2144787999986875, 7.95401259999926, 10.888816300001054]","[0.035944799999924726, 0.1493112000007386, 0.031103799999982584, 0.07947039999999106, 0.10037310000006983, 0.11691950000022189, 0.09906269999919459, 0.04721329999847512, 0.18075230000067677, 0.06280060000062804, 10.888823000001139]",0,,,,,,,,,,,,,,,,,,,,,,,,,,,,,,,,,,,,,,,,,,,,,,,,,,,,,,,,,,,,,,,,,,,,,,,,,,,,,,,,,,,,,,,,,,,,,,,,,,,,,,,,,,,,,,,,,,,,,,,,,,,,0NPJWL,train_y,red_square,bottom_right,2025-01-22_16h54.00.436,HideSeek_v1,2022.2.5,59.944599201330384,
,,,,,,,,,,,,,,,0,0,0,0,11,0,11,0,,,,,,,,,,,,,,,,,,,,,,,,,,,,,,,conditions/schedules/train_y_first/red_square_00/bottom_right/instructions/Slide12.png,conditions/schedules/train_y_first/red_square_00/bottom_right/instructions/Audio12.wav,453.3858737999999,453.3784519799985,12,"[6.672911999999997, 18.20089039999948, 17.013976600001115, 19.44701780000105, 4.412109399998371, 5.2043611999997665, 5.688394700000572, 12.325913599999694, 6.2144787999986875, 7.95401259999926, 10.888816300001054, 14.718904999999722]","[0.035944799999924726, 0.1493112000007386, 0.031103799999982584, 0.07947039999999106, 0.10037310000006983, 0.11691950000022189, 0.09906269999919459, 0.04721329999847512, 0.18075230000067677, 0.06280060000062804, 0.12349760000142851, 14.71891180000057]",0,,,,,,,,,,,,,,,,,,,,,,,,,,,,,,,,,,,,,,,,,,,,,,,,,,,,,,,,,,,,,,,,,,,,,,,,,,,,,,,,,,,,,,,,,,,,,,,,,,,,,,,,,,,,,,,,,,,,,,,,,,,,0NPJWL,train_y,red_square,bottom_right,2025-01-22_16h54.00.436,HideSeek_v1,2022.2.5,59.944599201330384,
1,7,3,7,8,0,5,11,2,instr_dim1_1,,,,,,0,0,0,0,,,,,0,0,0,0,,,,,,,,,,,,,,,,,,,,,,,,,,,,,,,,,,,,,stimuli/alien_stimuli/11.png,conditions/schedules/train_y_first/red_square_00/bottom_right/inputInstr_1.xlsx,stimuli/alien_stimuli/11.png,468.1973210999986,468.1973210999986,468.1973210999986,468.1973210999986,468.19053481999873,return,6.898319599999013,"[-0.16, -0.08, 0, 0.08, 0.16, 0.24, 0.32, 0.4, 0.48, 0.56]","[-0.4, -0.32, -0.24, -0.16, -0.08, 0, 0.08, 0.16, 0.24, 0.32]",8,3,7,7,0.4,0.0,475.24769620000006,475.24769620000006,475.24769620000006,475.24769620000006,475.24769620000006,475.24769620000006,475.24769620000006,475.24623672999786,286.3549185000011,return,286.1877206999998,stimuli/alien_stimuli/11.png,11,7,1,,,,,,,,,,,,,,,,,,,,,,,,,,,,,,,,,,,,,,,,,,,,,,,,,,,,,,,,,,,,,,,,,,,,,,,,,,,,,,,,,,,,,,,,,0NPJWL,train_y,red_square,bottom_right,2025-01-22_16h54.00.436,HideSeek_v1,2022.2.5,59.944599201330384,
,,,,,,,,,,,30,,,,0,0,0,0,,,,,,,,,,,,,,,,,,,,,,,,,,,,,,,,,,,,,,,,,,,,,,,,,,,,,,,,,,,,,,,,,,,,,,,,,,,,,,21,0.7,0,0,99,1,30,0,conditions/schedules/train_y_first/red_square_00/bottom_right/inputTrain_1.1.xlsx,99,1,1,1,0,,,,,,,,,,,,,,,,,,,,,,,,,,,,,,,,,,,,,,,,,,,,,,,,,,,,,,,,,,,,,,,,,,,,,,,,,,,0NPJWL,train_y,red_square,bottom_right,2025-01-22_16h54.00.436,HideSeek_v1,2022.2.5,59.944599201330384,
,,,,,,,,,,,,,,,1,0,1,0,0,0,0,0,,,,,,,,,,,,,,,,,,,,,,,,,,,,,,,conditions/schedules/train_y_first/red_square_00/bottom_right/instructions/Slide13.png,conditions/schedules/train_y_first/red_square_00/bottom_right/instructions/Audio13.wav,761.608816599999,761.6005940299984,13,"[6.672911999999997, 18.20089039999948, 17.013976600001115, 19.44701780000105, 4.412109399998371, 5.2043611999997665, 5.688394700000572, 12.325913599999694, 6.2144787999986875, 7.95401259999926, 10.888816300001054, 14.718904999999722, 20.473205700000108]","[0.035944799999924726, 0.1493112000007386, 0.031103799999982584, 0.07947039999999106, 0.10037310000006983, 0.11691950000022189, 0.09906269999919459, 0.04721329999847512, 0.18075230000067677, 0.06280060000062804, 0.12349760000142851, 14.71891180000057, 20.47321170000032]",0,,,,,,,,,,,,,,,,,,,,,,,,,,,,,,,,,,,,,,,,,,,,,,,,,,,,,,,,,,,,,,,,,,,,,,,,,,,,,,,,,,,,,,,,,,,,,,,,,,,,,,,,,,,,,,,,,,,,,,,,,,,,0NPJWL,train_y,red_square,bottom_right,2025-01-22_16h54.00.436,HideSeek_v1,2022.2.5,59.944599201330384,
,,,,,,,,,,,,,,,1,0,1,0,1,0,1,0,,,,,,,,,,,,,,,,,,,,,,,,,,,,,,,conditions/schedules/train_y_first/red_square_00/bottom_right/instructions/Slide14.png,conditions/schedules/train_y_first/red_square_00/bottom_right/instructions/Audio14.wav,782.1434972999996,782.1344156799997,14,"[6.672911999999997, 18.20089039999948, 17.013976600001115, 19.44701780000105, 4.412109399998371, 5.2043611999997665, 5.688394700000572, 12.325913599999694, 6.2144787999986875, 7.95401259999926, 10.888816300001054, 14.718904999999722, 20.473205700000108, 17.769539599999916]","[0.035944799999924726, 0.1493112000007386, 0.031103799999982584, 0.07947039999999106, 0.10037310000006983, 0.11691950000022189, 0.09906269999919459, 0.04721329999847512, 0.18075230000067677, 0.06280060000062804, 0.12349760000142851, 14.71891180000057, 0.01390960000026098, 17.769548600001144]",0,,,,,,,,,,,,,,,,,,,,,,,,,,,,,,,,,,,,,,,,,,,,,,,,,,,,,,,,,,,,,,,,,,,,,,,,,,,,,,,,,,,,,,,,,,,,,,,,,,,,,,,,,,,,,,,,,,,,,,,,,,,,0NPJWL,train_y,red_square,bottom_right,2025-01-22_16h54.00.436,HideSeek_v1,2022.2.5,59.944599201330384,
2,5,3,5,3,0,0,16,2,instr_dim1_1,,,,,,1,0,1,0,,,,,0,0,0,0,,,,,,,,,,,,,,,,,,,,,,,,,,,,,,,,,,,,,stimuli/alien_stimuli/16.png,conditions/schedules/train_y_first/red_square_00/bottom_right/inputInstr_1.xlsx,stimuli/alien_stimuli/16.png,800.0029355999995,800.0029355999995,800.0029355999995,800.0029355999995,799.9989330199994,return,6.228411800000686,"[-0.16, -0.08, 0, 0.08, 0.16, 0.24, 0.32, 0.4, 0.48, 0.56]","[-0.4, -0.32, -0.24, -0.16, -0.08, 0, 0.08, 0.16, 0.24, 0.32]",3,3,5,5,0.0,0.0,806.3968325999995,806.3968325999995,806.3968325999995,806.3968325999995,806.3968325999995,806.3968325999995,806.3968325999995,806.3874860299985,10.242990299999292,return,10.067610199999763,stimuli/alien_stimuli/16.png,16,5,2,,,,,,,,,,,,,,,,,,,,,,,,,,,,,,,,,,,,,,,,,,,,,,,,,,,,,,,,,,,,,,,,,,,,,,,,,,,,,,,,,,,,,,,,,0NPJWL,train_y,red_square,bottom_right,2025-01-22_16h54.00.436,HideSeek_v1,2022.2.5,59.944599201330384,
,,,,,,,,,,,30,,,,1,0,1,0,,,,,,,,,,,,,,,,,,,,,,,,,,,,,,,,,,,,,,,,,,,,,,,,,,,,,,,,,,,,,,,,,,,,,,,,,,,,,,21,0.7,0,0,99,1,30,0,conditions/schedules/train_y_first/red_square_00/bottom_right/inputTrain_1.1.xlsx,99,1,1,1,0,,,,,,,,,,,,,,,,,,,,,,,,,,,,,,,,,,,,,,,,,,,,,,,,,,,,,,,,,,,,,,,,,,,,,,,,,,,0NPJWL,train_y,red_square,bottom_right,2025-01-22_16h54.00.436,HideSeek_v1,2022.2.5,59.944599201330384,
,,,,,,,,,,,,,,,2,0,2,0,0,0,0,0,,,,,,,,,,,,,,,,,,,,,,,,,,,,,,,conditions/schedules/train_y_first/red_square_00/bottom_right/instructions/Slide15.png,conditions/schedules/train_y_first/red_square_00/bottom_right/instructions/Audio15.wav,816.6373688999993,816.6295682299989,15,"[6.672911999999997, 18.20089039999948, 17.013976600001115, 19.44701780000105, 4.412109399998371, 5.2043611999997665, 5.688394700000572, 12.325913599999694, 6.2144787999986875, 7.95401259999926, 10.888816300001054, 14.718904999999722, 20.473205700000108, 17.769539599999916, 43.17609160000029]","[0.035944799999924726, 0.1493112000007386, 0.031103799999982584, 0.07947039999999106, 0.10037310000006983, 0.11691950000022189, 0.09906269999919459, 0.04721329999847512, 0.18075230000067677, 0.06280060000062804, 0.12349760000142851, 14.71891180000057, 0.01390960000026098, 17.769548600001144, 43.17609950000042]",0,,,,,,,,,,,,,,,,,,,,,,,,,,,,,,,,,,,,,,,,,,,,,,,,,,,,,,,,,,,,,,,,,,,,,,,,,,,,,,,,,,,,,,,,,,,,,,,,,,,,,,,,,,,,,,,,,,,,,,,,,,,,0NPJWL,train_y,red_square,bottom_right,2025-01-22_16h54.00.436,HideSeek_v1,2022.2.5,59.944599201330384,
,,,,,,,,,,,,,,,2,0,2,0,1,0,1,0,,,,,,,,,,,,,,,,,,,,,,,,,,,,,,,conditions/schedules/train_y_first/red_square_00/bottom_right/instructions/Slide16.png,conditions/schedules/train_y_first/red_square_00/bottom_right/instructions/Audio16.wav,859.8822314999998,859.882301149998,16,"[6.672911999999997, 18.20089039999948, 17.013976600001115, 19.44701780000105, 4.412109399998371, 5.2043611999997665, 5.688394700000572, 12.325913599999694, 6.2144787999986875, 7.95401259999926, 10.888816300001054, 14.718904999999722, 20.473205700000108, 17.769539599999916, 43.17609160000029, 21.79915439999968]","[0.035944799999924726, 0.1493112000007386, 0.031103799999982584, 0.07947039999999106, 0.10037310000006983, 0.11691950000022189, 0.09906269999919459, 0.04721329999847512, 0.18075230000067677, 0.06280060000062804, 0.12349760000142851, 14.71891180000057, 0.01390960000026098, 17.769548600001144, 0.09711009999955422, 21.799161699998876]",0,,,,,,,,,,,,,,,,,,,,,,,,,,,,,,,,,,,,,,,,,,,,,,,,,,,,,,,,,,,,,,,,,,,,,,,,,,,,,,,,,,,,,,,,,,,,,,,,,,,,,,,,,,,,,,,,,,,,,,,,,,,,0NPJWL,train_y,red_square,bottom_right,2025-01-22_16h54.00.436,HideSeek_v1,2022.2.5,59.944599201330384,
,5,0,5,1,0,1,15,,train_dim1_1,1,30,,,,2,0,2,0,,,,,,,,,0,0,0,0,0,0,0,0,0,0,0,0,,,,,,,,,,,,,,,,,,,,,,,,,stimuli/alien_stimuli/15.png,,,,,,,,,,,,,,,,,,,,,,,,,,,,,,,,,,,,,,,30,,,,,,,,881.7763527999996,881.7763527999996,881.7763527999996,881.7763527999996,881.7763527999996,up,5.51548510000066,0,0,0,99,0.24,-0.32,up,5.415886999999202,,,,,,,,,,,,,,,,,,,,,,,,,,,,,,,,,,,,,,,,,,,,,,,,,,,,,,,,,,,,0NPJWL,train_y,red_square,bottom_right,2025-01-22_16h54.00.436,HideSeek_v1,2022.2.5,59.944599201330384,
,5,0,5,1,0,1,15,,train_dim1_1,1,30,,,,2,0,2,0,,,,,,,,,0,0,0,0,0,0,0,0,1,0,1,0,,,,,,,,,,,,,,,,,,,,,,,,,,,,,,,,,,,,,,,,,,,,,,,,,,,,,,,,,,,,,,,,30,,,,,,,,887.2897981999995,887.2897981999995,887.2897981999995,887.2897981999995,887.2897981999995,down,1.4933249000005162,0,0,0,99,0.24,-0.4,down,1.4146015000005718,,,,,,,,,,,,,,,,,,,,,,,,,,,,,,,,,,,,,,,,,,,,,,,,,,,,,,,,,,,,0NPJWL,train_y,red_square,bottom_right,2025-01-22_16h54.00.436,HideSeek_v1,2022.2.5,59.944599201330384,
,5,0,5,1,0,1,15,,train_dim1_1,1,30,,,,2,0,2,0,,,,,,,,,0,0,0,0,0,0,0,0,2,0,2,0,,,,,,,,,,,,,,,,,,,,,,,,,,,,,,,,,,,,,,,,,,,,,,,,,,,,,,,,,,,,,,,,30,,,,,,,,888.7901351,888.7901351,888.7901351,888.7901351,888.7901351,return,1.9944806000003155,0,1,0,0,0.24,-0.4,return,1.9087358999986463,0,0,0.24,-0.4,,,,,,,,,,,,,,,,,,,,,,,,,,,,,,,,,,,,,,,,,,,,,,,,,,,,,,,,0NPJWL,train_y,red_square,bottom_right,2025-01-22_16h54.00.436,HideSeek_v1,2022.2.5,59.944599201330384,
,8,2,8,2,0,0,16,,train_dim1_1,2,30,,,,2,0,2,0,,,,,,,,,0,0,0,0,0,1,1,1,0,0,0,0,,,,,,,,,,,,,,,,,,,,,,,,,stimuli/alien_stimuli/16.png,,,,,,,,,,,,,,,,,,,,,,,,,,,,,stimuli/alien_stimuli/15.png,15,5,3,,,,,,,30,,,,,,,,931.5884611999991,931.5884611999991,931.5884611999991,931.5884611999991,931.5884611999991,up,3.8903000999998767,0,1,0,99,0.48,-0.15999999999999998,up,3.805755199999112,,,,,930.0236987999997,931.5884611999991,0.24,-0.32,0.08,0.0,-0.36,0.24,0.24,0.24,-0.32,892.3664175999984,892.3664175999984,892.3664175999984,892.3664175999984,892.3664175999984,892.3664175999984,892.3664175999984,892.3664175999984,892.3587845599981,37.78357260000121,return,37.63369430000057,,,,,,,,,,,,,,,,,,,,,,,,,,,,,,,,,0NPJWL,train_y,red_square,bottom_right,2025-01-22_16h54.00.436,HideSeek_v1,2022.2.5,59.944599201330384,
,8,2,8,2,0,0,16,,train_dim1_1,2,30,,,,2,0,2,0,,,,,,,,,0,0,0,0,0,1,1,1,1,0,1,0,,,,,,,,,,,,,,,,,,,,,,,,,,,,,,,,,,,,,,,,,,,,,,,,,,,,,,,,,,,,,,,,30,,,,,,,,935.4777894999988,935.4777894999988,935.4777894999988,935.4777894999988,935.4777894999988,return,1.1937351999986276,0,1,0,0,0.48,-0.15999999999999998,return,1.1070952000009129,1,0,0.48,-0.15999999999999998,,,,,,,,,,,,,,,,,,,,,,,,,,,,,,,,,,,,,,,,,,,,,,,,,,,,,,,,0NPJWL,train_y,red_square,bottom_right,2025-01-22_16h54.00.436,HideSeek_v1,2022.2.5,59.944599201330384,
,7,3,7,6,0,3,13,,train_dim1_1,3,30,,,,2,0,2,0,,,,,,,,,0,0,0,0,0,2,2,2,0,0,0,0,,,,,,,,,,,,,,,,,,,,,,,,,stimuli/alien_stimuli/13.png,,,,,,,,,,,,,,,,,,,,,,,,,,,,,stimuli/alien_stimuli/16.png,16,8,4,,,,,,,30,,,,,,,,955.3112304999995,955.3112304999995,955.3112304999995,955.3112304999995,955.3112304999995,right,3.0364805000008346,0,1,0,99,0.48000000000000004,-0.16,right,2.942578500000309,,,,,953.7432773,955.3112304999995,0.48,-0.24,0.0,0.0,-0.24,0.48,0.48,0.48,-0.24,938.2423006999998,938.2423006999998,938.2423006999998,938.2423006999998,938.2423006999998,938.2423006999998,938.2423006999998,938.2423006999998,938.2303987899982,15.614922700000534,return,15.472964499998852,,,,,,,,,,,,,,,,,,,,,,,,,,,,,,,,,0NPJWL,train_y,red_square,bottom_right,2025-01-22_16h54.00.436,HideSeek_v1,2022.2.5,59.944599201330384,
,7,3,7,6,0,3,13,,train_dim1_1,3,30,,,,2,0,2,0,,,,,,,,,0,0,0,0,0,2,2,2,1,0,1,0,,,,,,,,,,,,,,,,,,,,,,,,,,,,,,,,,,,,,,,,,,,,,,,,,,,,,,,,,,,,,,,,30,,,,,,,,958.3462366999993,958.3462366999993,958.3462366999993,958.3462366999993,958.3462366999993,return,1.1267374000017298,0,0,0,0,0.48000000000000004,-0.16,return,1.0474920999986352,1,1,0.48000000000000004,-0.16,,,,,,,,,,,,,,,,,,,,,,,,,,,,,,,,,,,,,,,,,,,,,,,,,,,,,,,,0NPJWL,train_y,red_square,bottom_right,2025-01-22_16h54.00.436,HideSeek_v1,2022.2.5,59.944599201330384,
,5,1,5,5,0,4,12,,train_dim1_1,4,30,,,,2,0,2,0,,,,,,,,,0,0,0,0,0,3,3,3,0,0,0,0,,,,,,,,,,,,,,,,,,,,,,,,,stimuli/alien_stimuli/12.png,,,,,,,,,,,,,,,,,,,,,,,,,,,,,stimuli/alien_stimuli/13.png,13,7,5,,,,,,,30,,,,,,,,978.4812600999994,978.4812600999994,978.4812600999994,978.4812600999994,978.4812600999994,left,2.5204370000010385,0,0,0,99,0.15999999999999998,-0.32,left,2.4286173000000417,,,,,976.9124064999996,978.4812600999994,0.4,0.08,0.24,0.0,-0.04,0.4,0.4,0.4,0.08,961.0500286999995,961.0500286999995,961.0500286999995,961.0500286999995,961.0500286999995,961.0500286999995,961.0500286999995,961.0500286999995,961.0493074599984,15.981638699999166,return,15.830336300001363,,,,,,,,,,,,,,,,,,,,,,,,,,,,,,,,,0NPJWL,train_y,red_square,bottom_right,2025-01-22_16h54.00.436,HideSeek_v1,2022.2.5,59.944599201330384,
,5,1,5,5,0,4,12,,train_dim1_1,4,30,,,,2,0,2,0,,,,,,,,,0,0,0,0,0,3,3,3,1,0,1,0,,,,,,,,,,,,,,,,,,,,,,,,,,,,,,,,,,,,,,,,,,,,,,,,,,,,,,,,,,,,,,,,30,,,,,,,,980.9988935000001,980.9988935000001,980.9988935000001,980.9988935000001,980.9988935000001,up,0.1929122000001371,0,0,0,99,0.15999999999999998,-0.24,up,0.11343230000056792,,,,,,,,,,,,,,,,,,,,,,,,,,,,,,,,,,,,,,,,,,,,,,,,,,,,,,,,,,,,0NPJWL,train_y,red_square,bottom_right,2025-01-22_16h54.00.436,HideSeek_v1,2022.2.5,59.944599201330384,
,5,1,5,5,0,4,12,,train_dim1_1,4,30,,,,2,0,2,0,,,,,,,,,0,0,0,0,0,3,3,3,2,0,2,0,,,,,,,,,,,,,,,,,,,,,,,,,,,,,,,,,,,,,,,,,,,,,,,,,,,,,,,,,,,,,,,,30,,,,,,,,981.1992018000001,981.1992018000001,981.1992018000001,981.1992018000001,981.1992018000001,right,0.8100009000008868,0,0,0,99,0.24,-0.24,right,0.7343557000003784,,,,,,,,,,,,,,,,,,,,,,,,,,,,,,,,,,,,,,,,,,,,,,,,,,,,,,,,,,,,0NPJWL,train_y,red_square,bottom_right,2025-01-22_16h54.00.436,HideSeek_v1,2022.2.5,59.944599201330384,
,5,1,5,5,0,4,12,,train_dim1_1,4,30,,,,2,0,2,0,,,,,,,,,0,0,0,0,0,3,3,3,3,0,3,0,,,,,,,,,,,,,,,,,,,,,,,,,,,,,,,,,,,,,,,,,,,,,,,,,,,,,,,,,,,,,,,,30,,,,,,,,982.0169182999998,982.0169182999998,982.0169182999998,982.0169182999998,982.0169182999998,left,1.3442288000005647,0,0,0,99,0.15999999999999998,-0.24,left,1.257199199999377,,,,,,,,,,,,,,,,,,,,,,,,,,,,,,,,,,,,,,,,,,,,,,,,,,,,,,,,,,,,0NPJWL,train_y,red_square,bottom_right,2025-01-22_16h54.00.436,HideSeek_v1,2022.2.5,59.944599201330384,
,5,1,5,5,0,4,12,,train_dim1_1,4,30,,,,2,0,2,0,,,,,,,,,0,0,0,0,0,3,3,3,4,0,4,0,,,,,,,,,,,,,,,,,,,,,,,,,,,,,,,,,,,,,,,,,,,,,,,,,,,,,,,,,,,,,,,,30,,,,,,,,983.3695939999998,983.3695939999998,983.3695939999998,983.3695939999998,983.3695939999998,up,0.5100964000012027,0,0,0,99,0.15999999999999998,-0.15999999999999998,up,0.4309444999998959,,,,,,,,,,,,,,,,,,,,,,,,,,,,,,,,,,,,,,,,,,,,,,,,,,,,,,,,,,,,0NPJWL,train_y,red_square,bottom_right,2025-01-22_16h54.00.436,HideSeek_v1,2022.2.5,59.944599201330384,
,5,1,5,5,0,4,12,,train_dim1_1,4,30,,,,2,0,2,0,,,,,,,,,0,0,0,0,0,3,3,3,5,0,5,0,,,,,,,,,,,,,,,,,,,,,,,,,,,,,,,,,,,,,,,,,,,,,,,,,,,,,,,,,,,,,,,,30,,,,,,,,983.8849375999998,983.8849375999998,983.8849375999998,983.8849375999998,983.8849375999998,return,0.6269364999989193,0,0,0,0,0.15999999999999998,-0.15999999999999998,return,0.5438730000005307,3,0,0.15999999999999998,-0.15999999999999998,,,,,,,,,,,,,,,,,,,,,,,,,,,,,,,,,,,,,,,,,,,,,,,,,,,,,,,,0NPJWL,train_y,red_square,bottom_right,2025-01-22_16h54.00.436,HideSeek_v1,2022.2.5,59.944599201330384,
,8,3,8,8,0,5,11,,train_dim1_1,5,30,,,,2,0,2,0,,,,,,,,,0,0,0,0,0,4,4,4,0,0,0,0,,,,,,,,,,,,,,,,,,,,,,,,,stimuli/alien_stimuli/11.png,,,,,,,,,,,,,,,,,,,,,,,,,,,,,stimuli/alien_stimuli/12.png,12,5,6,,,,,,,30,,,,,,,,991.9641572,991.9641572,991.9641572,991.9641572,991.9641572,up,1.9719280999997864,0,0,0,99,0.48,-0.08,up,1.8941158999987238,,,,,990.4068110999997,991.9641572,0.24,0,0.32,0.0,-0.16,0.24,0.24,0.24,0,986.0833342999995,986.0833342999995,986.0833342999995,986.0833342999995,986.0833342999995,986.0833342999995,986.0833342999995,986.0833342999995,986.0699263899992,4.439226800001052,return,4.2968273000005865,,,,,,,,,,,,,,,,,,,,,,,,,,,,,,,,,0NPJWL,train_y,red_square,bottom_right,2025-01-22_16h54.00.436,HideSeek_v1,2022.2.5,59.944599201330384,
,8,3,8,8,0,5,11,,train_dim1_1,5,30,,,,2,0,2,0,,,,,,,,,0,0,0,0,0,4,4,4,1,0,1,0,,,,,,,,,,,,,,,,,,,,,,,,,,,,,,,,,,,,,,,,,,,,,,,,,,,,,,,,,,,,,,,,30,,,,,,,,993.9437601999998,993.9437601999998,993.9437601999998,993.9437601999998,993.9437601999998,up,0.3927530000000843,0,0,0,99,0.48,0.0,up,0.30123529999946186,,,,,,,,,,,,,,,,,,,,,,,,,,,,,,,,,,,,,,,,,,,,,,,,,,,,,,,,,,,,0NPJWL,train_y,red_square,bottom_right,2025-01-22_16h54.00.436,HideSeek_v1,2022.2.5,59.944599201330384,
,8,3,8,8,0,5,11,,train_dim1_1,5,30,,,,2,0,2,0,,,,,,,,,0,0,0,0,0,4,4,4,2,0,2,0,,,,,,,,,,,,,,,,,,,,,,,,,,,,,,,,,,,,,,,,,,,,,,,,,,,,,,,,,,,,,,,,30,,,,,,,,994.3428206999997,994.3428206999997,994.3428206999997,994.3428206999997,994.3428206999997,up,0.36028169999917736,0,0,0,99,0.48,0.08,up,0.27488740000080725,,,,,,,,,,,,,,,,,,,,,,,,,,,,,,,,,,,,,,,,,,,,,,,,,,,,,,,,,,,,0NPJWL,train_y,red_square,bottom_right,2025-01-22_16h54.00.436,HideSeek_v1,2022.2.5,59.944599201330384,
,8,3,8,8,0,5,11,,train_dim1_1,5,30,,,,2,0,2,0,,,,,,,,,0,0,0,0,0,4,4,4,3,0,3,0,,,,,,,,,,,,,,,,,,,,,,,,,,,,,,,,,,,,,,,,,,,,,,,,,,,,,,,,,,,,,,,,30,,,,,,,,994.710318899999,994.710318899999,994.710318899999,994.710318899999,994.710318899999,up,0.4266115999998874,0,0,0,99,0.48,0.16,up,0.33548069999960717,,,,,,,,,,,,,,,,,,,,,,,,,,,,,,,,,,,,,,,,,,,,,,,,,,,,,,,,,,,,0NPJWL,train_y,red_square,bottom_right,2025-01-22_16h54.00.436,HideSeek_v1,2022.2.5,59.944599201330384,
,8,3,8,8,0,5,11,,train_dim1_1,5,30,,,,2,0,2,0,,,,,,,,,0,0,0,0,0,4,4,4,4,0,4,0,,,,,,,,,,,,,,,,,,,,,,,,,,,,,,,,,,,,,,,,,,,,,,,,,,,,,,,,,,,,,,,,30,,,,,,,,995.1440680999985,995.1440680999985,995.1440680999985,995.1440680999985,995.1440680999985,return,1.0436114000003727,0,1,0,0,0.48,0.16,return,0.952658899999733,7,0,0.48,0.16,,,,,,,,,,,,,,,,,,,,,,,,,,,,,,,,,,,,,,,,,,,,,,,,,,,,,,,,0NPJWL,train_y,red_square,bottom_right,2025-01-22_16h54.00.436,HideSeek_v1,2022.2.5,59.944599201330384,
,6,4,6,8,0,4,12,,train_dim1_1,6,30,,,,2,0,2,0,,,,,,,,,0,0,0,0,0,5,5,5,0,0,0,0,,,,,,,,,,,,,,,,,,,,,,,,,stimuli/alien_stimuli/12.png,,,,,,,,,,,,,,,,,,,,,,,,,,,,,stimuli/alien_stimuli/11.png,11,8,7,,,,,,,30,,,,,,,,1004.3236125999993,1004.3236125999993,1004.3236125999993,1004.3236125999993,1004.3236125999993,up,2.19070339999962,0,1,0,99,0.32,0.0,up,2.1057645000000775,,,,,1002.7671815999984,1004.3236125999993,0.48,0.24,0.4,0.0,0.039999999999999994,0.48,0.48,0.48,0.24,997.7612929999996,997.7612929999996,997.7612929999996,997.7612929999996,997.7612929999996,997.7612929999996,997.7612929999996,997.7612929999996,997.7631569599984,5.122787700000117,return,4.976381799999217,,,,,,,,,,,,,,,,,,,,,,,,,,,,,,,,,0NPJWL,train_y,red_square,bottom_right,2025-01-22_16h54.00.436,HideSeek_v1,2022.2.5,59.944599201330384,
,6,4,6,8,0,4,12,,train_dim1_1,6,30,,,,2,0,2,0,,,,,,,,,0,0,0,0,0,5,5,5,1,0,1,0,,,,,,,,,,,,,,,,,,,,,,,,,,,,,,,,,,,,,,,,,,,,,,,,,,,,,,,,,,,,,,,,30,,,,,,,,1006.5211502999991,1006.5211502999991,1006.5211502999991,1006.5211502999991,1006.5211502999991,up,0.3591011000007711,0,1,0,99,0.32,0.08,up,0.2823606000001746,,,,,,,,,,,,,,,,,,,,,,,,,,,,,,,,,,,,,,,,,,,,,,,,,,,,,,,,,,,,0NPJWL,train_y,red_square,bottom_right,2025-01-22_16h54.00.436,HideSeek_v1,2022.2.5,59.944599201330384,
,6,4,6,8,0,4,12,,train_dim1_1,6,30,,,,2,0,2,0,,,,,,,,,0,0,0,0,0,5,5,5,2,0,2,0,,,,,,,,,,,,,,,,,,,,,,,,,,,,,,,,,,,,,,,,,,,,,,,,,,,,,,,,,,,,,,,,30,,,,,,,,1006.8971262999985,1006.8971262999985,1006.8971262999985,1006.8971262999985,1006.8971262999985,up,0.3435171999990416,0,1,0,99,0.32,0.16,up,0.2527384000004531,,,,,,,,,,,,,,,,,,,,,,,,,,,,,,,,,,,,,,,,,,,,,,,,,,,,,,,,,,,,0NPJWL,train_y,red_square,bottom_right,2025-01-22_16h54.00.436,HideSeek_v1,2022.2.5,59.944599201330384,
,6,4,6,8,0,4,12,,train_dim1_1,6,30,,,,2,0,2,0,,,,,,,,,0,0,0,0,0,5,5,5,3,0,3,0,,,,,,,,,,,,,,,,,,,,,,,,,,,,,,,,,,,,,,,,,,,,,,,,,,,,,,,,,,,,,,,,30,,,,,,,,1007.2369803999991,1007.2369803999991,1007.2369803999991,1007.2369803999991,1007.2369803999991,up,0.32614920000014536,0,1,0,99,0.32,0.24,up,0.24406770000132383,,,,,,,,,,,,,,,,,,,,,,,,,,,,,,,,,,,,,,,,,,,,,,,,,,,,,,,,,,,,0NPJWL,train_y,red_square,bottom_right,2025-01-22_16h54.00.436,HideSeek_v1,2022.2.5,59.944599201330384,
,6,4,6,8,0,4,12,,train_dim1_1,6,30,,,,2,0,2,0,,,,,,,,,0,0,0,0,0,5,5,5,4,0,4,0,,,,,,,,,,,,,,,,,,,,,,,,,,,,,,,,,,,,,,,,,,,,,,,,,,,,,,,,,,,,,,,,30,,,,,,,,1007.5728046999993,1007.5728046999993,1007.5728046999993,1007.5728046999993,1007.5728046999993,up,0.30828920000021753,0,1,0,99,0.32,0.32,up,0.22266879999915545,,,,,,,,,,,,,,,,,,,,,,,,,,,,,,,,,,,,,,,,,,,,,,,,,,,,,,,,,,,,0NPJWL,train_y,red_square,bottom_right,2025-01-22_16h54.00.436,HideSeek_v1,2022.2.5,59.944599201330384,
,6,4,6,8,0,4,12,,train_dim1_1,6,30,,,,2,0,2,0,,,,,,,,,0,0,0,0,0,5,5,5,5,0,5,0,,,,,,,,,,,,,,,,,,,,,,,,,,,,,,,,,,,,,,,,,,,,,,,,,,,,,,,,,,,,,,,,30,,,,,,,,1007.8912951999991,1007.8912951999991,1007.8912951999991,1007.8912951999991,1007.8912951999991,return,0.610839599999963,0,1,0,0,0.32,0.32,return,0.52265559999978,12,0,0.32,0.32,,,,,,,,,,,,,,,,,,,,,,,,,,,,,,,,,,,,,,,,,,,,,,,,,,,,,,,,0NPJWL,train_y,red_square,bottom_right,2025-01-22_16h54.00.436,HideSeek_v1,2022.2.5,59.944599201330384,
,6,3,6,6,0,3,13,,train_dim1_1,7,30,,,,2,0,2,0,,,,,,,,,0,0,0,0,0,6,6,6,0,0,0,0,,,,,,,,,,,,,,,,,,,,,,,,,stimuli/alien_stimuli/13.png,,,,,,,,,,,,,,,,,,,,,,,,,,,,,stimuli/alien_stimuli/12.png,12,6,8,,,,,,,30,,,,,,,,1016.0523421999987,1016.0523421999987,1016.0523421999987,1016.0523421999987,1016.0523421999987,up,2.489164800001163,0,1,0,99,0.32,-0.08,up,2.4000343999996403,,,,,1014.4932728999993,1016.0523421999987,0.32,0.24,0.32,0.0,0.07999999999999999,0.32,0.32,0.32,0.24,1010.0647709999994,1010.0647709999994,1010.0647709999994,1010.0647709999994,1010.0647709999994,1010.0647709999994,1010.0647709999994,1010.0647709999994,1010.0560078899985,4.539271599998756,return,4.408482900000308,,,,,,,,,,,,,,,,,,,,,,,,,,,,,,,,,0NPJWL,train_y,red_square,bottom_right,2025-01-22_16h54.00.436,HideSeek_v1,2022.2.5,59.944599201330384,
,6,3,6,6,0,3,13,,train_dim1_1,7,30,,,,2,0,2,0,,,,,,,,,0,0,0,0,0,6,6,6,1,0,1,0,,,,,,,,,,,,,,,,,,,,,,,,,,,,,,,,,,,,,,,,,,,,,,,,,,,,,,,,,,,,,,,,30,,,,,,,,1018.5499674999992,1018.5499674999992,1018.5499674999992,1018.5499674999992,1018.5499674999992,up,0.8941126999998232,0,1,0,99,0.32,0.0,up,0.8128269000008004,,,,,,,,,,,,,,,,,,,,,,,,,,,,,,,,,,,,,,,,,,,,,,,,,,,,,,,,,,,,0NPJWL,train_y,red_square,bottom_right,2025-01-22_16h54.00.436,HideSeek_v1,2022.2.5,59.944599201330384,
,6,3,6,6,0,3,13,,train_dim1_1,7,30,,,,2,0,2,0,,,,,,,,,0,0,0,0,0,6,6,6,2,0,2,0,,,,,,,,,,,,,,,,,,,,,,,,,,,,,,,,,,,,,,,,,,,,,,,,,,,,,,,,,,,,,,,,30,,,,,,,,1019.4514771999984,1019.4514771999984,1019.4514771999984,1019.4514771999984,1019.4514771999984,return,1.3942376999984845,0,1,0,0,0.32,0.0,return,1.3125518999986525,14,0,0.32,0.0,,,,,,,,,,,,,,,,,,,,,,,,,,,,,,,,,,,,,,,,,,,,,,,,,,,,,,,,0NPJWL,train_y,red_square,bottom_right,2025-01-22_16h54.00.436,HideSeek_v1,2022.2.5,59.944599201330384,
,9,2,9,7,0,5,11,,train_dim1_1,8,30,,,,2,0,2,0,,,,,,,,,0,0,0,0,0,7,7,7,0,0,0,0,,,,,,,,,,,,,,,,,,,,,,,,,stimuli/alien_stimuli/11.png,,,,,,,,,,,,,,,,,,,,,,,,,,,,,stimuli/alien_stimuli/13.png,13,6,9,,,,,,,30,,,,,,,,1027.0423676999999,1027.0423676999999,1027.0423676999999,1027.0423676999999,1027.0423676999999,up,2.089886199999455,0,1,0,99,0.56,-0.15999999999999998,up,2.005665199998475,,,,,1025.4860486999987,1027.0423676999999,0.32,0.08,0.24,0.0,-0.04,0.32,0.32,0.32,0.08,1022.4104559999996,1022.4104559999996,1022.4104559999996,1022.4104559999996,1022.4104559999996,1022.4104559999996,1022.4104559999996,1022.4104559999996,1022.4000717899985,3.187985900000058,return,3.0498563000001013,,,,,,,,,,,,,,,,,,,,,,,,,,,,,,,,,0NPJWL,train_y,red_square,bottom_right,2025-01-22_16h54.00.436,HideSeek_v1,2022.2.5,59.944599201330384,
,9,2,9,7,0,5,11,,train_dim1_1,8,30,,,,2,0,2,0,,,,,,,,,0,0,0,0,0,7,7,7,1,0,1,0,,,,,,,,,,,,,,,,,,,,,,,,,,,,,,,,,,,,,,,,,,,,,,,,,,,,,,,,,,,,,,,,30,,,,,,,,1029.1391755999994,1029.1391755999994,1029.1391755999994,1029.1391755999994,1029.1391755999994,up,0.47622819999924104,0,1,0,99,0.56,-0.07999999999999997,up,0.3998351999998704,,,,,,,,,,,,,,,,,,,,,,,,,,,,,,,,,,,,,,,,,,,,,,,,,,,,,,,,,,,,0NPJWL,train_y,red_square,bottom_right,2025-01-22_16h54.00.436,HideSeek_v1,2022.2.5,59.944599201330384,
,9,2,9,7,0,5,11,,train_dim1_1,8,30,,,,2,0,2,0,,,,,,,,,0,0,0,0,0,7,7,7,2,0,2,0,,,,,,,,,,,,,,,,,,,,,,,,,,,,,,,,,,,,,,,,,,,,,,,,,,,,,,,,,,,,,,,,30,,,,,,,,1029.6227070999994,1029.6227070999994,1029.6227070999994,1029.6227070999994,1029.6227070999994,up,0.8601653999994596,0,1,0,99,0.56,2.7755575615628914e-17,up,0.7739000999990822,,,,,,,,,,,,,,,,,,,,,,,,,,,,,,,,,,,,,,,,,,,,,,,,,,,,,,,,,,,,0NPJWL,train_y,red_square,bottom_right,2025-01-22_16h54.00.436,HideSeek_v1,2022.2.5,59.944599201330384,
,9,2,9,7,0,5,11,,train_dim1_1,8,30,,,,2,0,2,0,,,,,,,,,0,0,0,0,0,7,7,7,3,0,3,0,,,,,,,,,,,,,,,,,,,,,,,,,,,,,,,,,,,,,,,,,,,,,,,,,,,,,,,,,,,,,,,,30,,,,,,,,1030.4908877999987,1030.4908877999987,1030.4908877999987,1030.4908877999987,1030.4908877999987,up,0.859984999999142,0,1,0,99,0.56,0.08000000000000003,up,0.7688863000003039,,,,,,,,,,,,,,,,,,,,,,,,,,,,,,,,,,,,,,,,,,,,,,,,,,,,,,,,,,,,0NPJWL,train_y,red_square,bottom_right,2025-01-22_16h54.00.436,HideSeek_v1,2022.2.5,59.944599201330384,
,9,2,9,7,0,5,11,,train_dim1_1,8,30,,,,2,0,2,0,,,,,,,,,0,0,0,0,0,7,7,7,4,0,4,0,,,,,,,,,,,,,,,,,,,,,,,,,,,,,,,,,,,,,,,,,,,,,,,,,,,,,,,,,,,,,,,,30,,,,,,,,1031.3571792999992,1031.3571792999992,1031.3571792999992,1031.3571792999992,1031.3571792999992,return,0.4266325999997207,0,1,0,0,0.56,0.08000000000000003,return,0.3473747000007279,18,0,0.56,0.08000000000000003,,,,,,,,,,,,,,,,,,,,,,,,,,,,,,,,,,,,,,,,,,,,,,,,,,,,,,,,0NPJWL,train_y,red_square,bottom_right,2025-01-22_16h54.00.436,HideSeek_v1,2022.2.5,59.944599201330384,
,9,3,9,4,0,1,15,,train_dim1_1,9,30,,,,2,0,2,0,,,,,,,,,0,0,0,0,0,8,8,8,0,0,0,0,,,,,,,,,,,,,,,,,,,,,,,,,stimuli/alien_stimuli/15.png,,,,,,,,,,,,,,,,,,,,,,,,,,,,,stimuli/alien_stimuli/11.png,11,9,10,,,,,,,30,,,,,,,,1037.0008412999996,1037.0008412999996,1037.0008412999996,1037.0008412999996,1037.0008412999996,up,2.789637500000026,0,1,0,99,0.56,-0.08,up,2.708274900000106,,,,,1035.4446118999986,1037.0008412999996,0.56,0.16,0.4,0.0,-0.039999999999999994,0.56,0.56,0.56,0.16,1033.3555598999992,1033.3555598999992,1033.3555598999992,1033.3555598999992,1033.3555598999992,1033.3555598999992,1033.3555598999992,1033.3555598999992,1033.3422679899982,2.2045350999997027,return,2.0649530999999115,,,,,,,,,,,,,,,,,,,,,,,,,,,,,,,,,0NPJWL,train_y,red_square,bottom_right,2025-01-22_16h54.00.436,HideSeek_v1,2022.2.5,59.944599201330384,
,9,3,9,4,0,1,15,,train_dim1_1,9,30,,,,2,0,2,0,,,,,,,,,0,0,0,0,0,8,8,8,1,0,1,0,,,,,,,,,,,,,,,,,,,,,,,,,,,,,,,,,,,,,,,,,,,,,,,,,,,,,,,,,,,,,,,,30,,,,,,,,1039.7977011999992,1039.7977011999992,1039.7977011999992,1039.7977011999992,1039.7977011999992,return,1.4106291999996756,1,0,0,1,0.56,-0.08,return,1.3252266999988933,19,0,0.56,-0.08,,,,,,,,,,,,,,,,,,,,,,,,,,,,,,,,,,,,,,,,,,,,,,,,,,,,,,,,0NPJWL,train_y,red_square,bottom_right,2025-01-22_16h54.00.436,HideSeek_v1,2022.2.5,59.944599201330384,
,7,2,7,2,0,0,16,,train_dim1_1,10,30,,,,2,0,2,0,,,,,,,,,0,0,0,0,0,9,9,9,0,0,0,0,,,,,,,,,,,,,,,,,,,,,,,,,stimuli/alien_stimuli/16.png,,,,,,,,,,,,,,,,,,,,,,,,,,,,,stimuli/alien_stimuli/15.png,15,9,11,,,,,,,30,,,,,,,,1051.3461383999984,1051.3461383999984,1051.3461383999984,1051.3461383999984,1051.3461383999984,up,2.7072733999993943,1,0,0,99,0.4,-0.15999999999999998,up,2.626593499999217,,,,,1049.789388199999,1051.3461383999984,0.56,-0.08,0.08,0.0,-0.12,0.56,0.56,0.56,-0.08,1042.7646749999985,1042.7646749999985,1042.7646749999985,1042.7646749999985,1042.7646749999985,1042.7646749999985,1042.7646749999985,1042.7646749999985,1042.7506223199987,7.124488699999347,return,6.993329400000221,,,,,,,,,,,,,,,,,,,,,,,,,,,,,,,,,0NPJWL,train_y,red_square,bottom_right,2025-01-22_16h54.00.436,HideSeek_v1,2022.2.5,59.944599201330384,
,7,2,7,2,0,0,16,,train_dim1_1,10,30,,,,2,0,2,0,,,,,,,,,0,0,0,0,0,9,9,9,1,0,1,0,,,,,,,,,,,,,,,,,,,,,,,,,,,,,,,,,,,,,,,,,,,,,,,,,,,,,,,,,,,,,,,,30,,,,,,,,1054.0596724999996,1054.0596724999996,1054.0596724999996,1054.0596724999996,1054.0596724999996,return,1.3601768999997148,1,1,0,0,0.4,-0.15999999999999998,return,1.2803781000002346,20,0,0.4,-0.15999999999999998,,,,,,,,,,,,,,,,,,,,,,,,,,,,,,,,,,,,,,,,,,,,,,,,,,,,,,,,0NPJWL,train_y,red_square,bottom_right,2025-01-22_16h54.00.436,HideSeek_v1,2022.2.5,59.944599201330384,
,9,1,9,2,0,1,15,,train_dim1_1,11,30,,,,2,0,2,0,,,,,,,,,0,0,0,0,0,10,10,10,0,0,0,0,,,,,,,,,,,,,,,,,,,,,,,,,stimuli/alien_stimuli/15.png,,,,,,,,,,,,,,,,,,,,,,,,,,,,,stimuli/alien_stimuli/16.png,16,7,12,,,,,,,30,,,,,,,,1060.8098992999985,1060.8098992999985,1060.8098992999985,1060.8098992999985,1060.8098992999985,return,2.4805452000000514,1,1,0,0,0.56,-0.32,return,2.375304999999571,20,0,0.56,-0.32,1059.2305765,1060.8098992999985,0.4,-0.24,0.0,0.0,-0.24,0.4,0.4,0.4,-0.24,1056.9926382999984,1056.9926382999984,1056.9926382999984,1056.9926382999984,1056.9926382999984,1056.9926382999984,1056.9926382999984,1056.9926382999984,1056.9786781899988,2.3543348999992304,return,2.2124038000001747,,,,,,,,,,,,,,,,,,,,,,,,,,,,,,,,,0NPJWL,train_y,red_square,bottom_right,2025-01-22_16h54.00.436,HideSeek_v1,2022.2.5,59.944599201330384,
,5,0,5,5,0,5,11,,train_dim1_1,12,30,,,,2,0,2,0,,,,,,,,,0,0,0,0,0,11,11,11,0,0,0,0,,,,,,,,,,,,,,,,,,,,,,,,,stimuli/alien_stimuli/11.png,,,,,,,,,,,,,,,,,,,,,,,,,,,,,stimuli/alien_stimuli/15.png,15,9,13,,,,,,,30,,,,,,,,1068.5601374999987,1068.5601374999987,1068.5601374999987,1068.5601374999987,1068.5601374999987,up,1.6077263000006496,1,1,0,99,0.24,-0.32,up,1.5213148999991972,,,,,1067.0034340999991,1068.5601374999987,0.56,-0.24,0.08,0.0,-0.28,0.56,0.56,0.56,-0.24,1064.8452283999995,1064.8452283999995,1064.8452283999995,1064.8452283999995,1064.8452283999995,1064.8452283999995,1064.8452283999995,1064.8452283999995,1064.8352951899983,2.27128730000004,return,2.1422798999992665,,,,,,,,,,,,,,,,,,,,,,,,,,,,,,,,,0NPJWL,train_y,red_square,bottom_right,2025-01-22_16h54.00.436,HideSeek_v1,2022.2.5,59.944599201330384,
,5,0,5,5,0,5,11,,train_dim1_1,12,30,,,,2,0,2,0,,,,,,,,,0,0,0,0,0,11,11,11,1,0,1,0,,,,,,,,,,,,,,,,,,,,,,,,,,,,,,,,,,,,,,,,,,,,,,,,,,,,,,,,,,,,,,,,30,,,,,,,,1070.1844403999985,1070.1844403999985,1070.1844403999985,1070.1844403999985,1070.1844403999985,up,0.35397220000049856,1,1,0,99,0.24,-0.24,up,0.26303200000074867,,,,,,,,,,,,,,,,,,,,,,,,,,,,,,,,,,,,,,,,,,,,,,,,,,,,,,,,,,,,0NPJWL,train_y,red_square,bottom_right,2025-01-22_16h54.00.436,HideSeek_v1,2022.2.5,59.944599201330384,
,5,0,5,5,0,5,11,,train_dim1_1,12,30,,,,2,0,2,0,,,,,,,,,0,0,0,0,0,11,11,11,2,0,2,0,,,,,,,,,,,,,,,,,,,,,,,,,,,,,,,,,,,,,,,,,,,,,,,,,,,,,,,,,,,,,,,,30,,,,,,,,1070.5401208999992,1070.5401208999992,1070.5401208999992,1070.5401208999992,1070.5401208999992,up,0.39328260000002047,1,1,0,99,0.24,-0.15999999999999998,up,0.3108983000001899,,,,,,,,,,,,,,,,,,,,,,,,,,,,,,,,,,,,,,,,,,,,,,,,,,,,,,,,,,,,0NPJWL,train_y,red_square,bottom_right,2025-01-22_16h54.00.436,HideSeek_v1,2022.2.5,59.944599201330384,
,5,0,5,5,0,5,11,,train_dim1_1,12,30,,,,2,0,2,0,,,,,,,,,0,0,0,0,0,11,11,11,3,0,3,0,,,,,,,,,,,,,,,,,,,,,,,,,,,,,,,,,,,,,,,,,,,,,,,,,,,,,,,,,,,,,,,,30,,,,,,,,1070.9412653,1070.9412653,1070.9412653,1070.9412653,1070.9412653,up,0.3765235999999277,1,1,0,99,0.24,-0.07999999999999997,up,0.2947740999989037,,,,,,,,,,,,,,,,,,,,,,,,,,,,,,,,,,,,,,,,,,,,,,,,,,,,,,,,,,,,0NPJWL,train_y,red_square,bottom_right,2025-01-22_16h54.00.436,HideSeek_v1,2022.2.5,59.944599201330384,
,5,0,5,5,0,5,11,,train_dim1_1,12,30,,,,2,0,2,0,,,,,,,,,0,0,0,0,0,11,11,11,4,0,4,0,,,,,,,,,,,,,,,,,,,,,,,,,,,,,,,,,,,,,,,,,,,,,,,,,,,,,,,,,,,,,,,,30,,,,,,,,1071.3234181999997,1071.3234181999997,1071.3234181999997,1071.3234181999997,1071.3234181999997,return,3.0123712999993586,1,1,0,0,0.24,-0.07999999999999997,return,2.9274366999998165,24,0,0.24,-0.07999999999999997,,,,,,,,,,,,,,,,,,,,,,,,,,,,,,,,,,,,,,,,,,,,,,,,,,,,,,,,0NPJWL,train_y,red_square,bottom_right,2025-01-22_16h54.00.436,HideSeek_v1,2022.2.5,59.944599201330384,
,9,3,9,7,0,4,12,,train_dim1_1,13,30,,,,2,0,2,0,,,,,,,,,0,0,0,0,0,12,12,12,0,0,0,0,,,,,,,,,,,,,,,,,,,,,,,,,stimuli/alien_stimuli/12.png,,,,,,,,,,,,,,,,,,,,,,,,,,,,,stimuli/alien_stimuli/11.png,11,5,14,,,,,,,30,,,,,,,,1079.603673399999,1079.603673399999,1079.603673399999,1079.603673399999,1079.603673399999,up,1.4548094000001583,1,1,0,99,0.56,-0.08,up,1.373741900000823,,,,,1078.0464163999986,1079.603673399999,0.24,0,0.4,0.0,-0.2,0.24,0.24,0.24,0,1075.9032214999988,1075.9032214999988,1075.9032214999988,1075.9032214999988,1075.9032214999988,1075.9032214999988,1075.9032214999988,1075.9032214999988,1075.8944784899982,2.2539274000009755,return,2.1248362000005727,,,,,,,,,,,,,,,,,,,,,,,,,,,,,,,,,0NPJWL,train_y,red_square,bottom_right,2025-01-22_16h54.00.436,HideSeek_v1,2022.2.5,59.944599201330384,
,9,3,9,7,0,4,12,,train_dim1_1,13,30,,,,2,0,2,0,,,,,,,,,0,0,0,0,0,12,12,12,1,0,1,0,,,,,,,,,,,,,,,,,,,,,,,,,,,,,,,,,,,,,,,,,,,,,,,,,,,,,,,,,,,,,,,,30,,,,,,,,1081.0657241999997,1081.0657241999997,1081.0657241999997,1081.0657241999997,1081.0657241999997,up,0.3093153000008897,1,1,0,99,0.56,0.0,up,0.23300900000140246,,,,,,,,,,,,,,,,,,,,,,,,,,,,,,,,,,,,,,,,,,,,,,,,,,,,,,,,,,,,0NPJWL,train_y,red_square,bottom_right,2025-01-22_16h54.00.436,HideSeek_v1,2022.2.5,59.944599201330384,
,9,3,9,7,0,4,12,,train_dim1_1,13,30,,,,2,0,2,0,,,,,,,,,0,0,0,0,0,12,12,12,2,0,2,0,,,,,,,,,,,,,,,,,,,,,,,,,,,,,,,,,,,,,,,,,,,,,,,,,,,,,,,,,,,,,,,,30,,,,,,,,1081.3829002999992,1081.3829002999992,1081.3829002999992,1081.3829002999992,1081.3829002999992,up,0.29336760000114737,1,1,0,99,0.56,0.08,up,0.2117588999990403,,,,,,,,,,,,,,,,,,,,,,,,,,,,,,,,,,,,,,,,,,,,,,,,,,,,,,,,,,,,0NPJWL,train_y,red_square,bottom_right,2025-01-22_16h54.00.436,HideSeek_v1,2022.2.5,59.944599201330384,
,9,3,9,7,0,4,12,,train_dim1_1,13,30,,,,2,0,2,0,,,,,,,,,0,0,0,0,0,12,12,12,3,0,3,0,,,,,,,,,,,,,,,,,,,,,,,,,,,,,,,,,,,,,,,,,,,,,,,,,,,,,,,,,,,,,,,,30,,,,,,,,1081.6822747999995,1081.6822747999995,1081.6822747999995,1081.6822747999995,1081.6822747999995,up,0.25982789999943634,1,1,0,99,0.56,0.16,up,0.17976439999983995,,,,,,,,,,,,,,,,,,,,,,,,,,,,,,,,,,,,,,,,,,,,,,,,,,,,,,,,,,,,0NPJWL,train_y,red_square,bottom_right,2025-01-22_16h54.00.436,HideSeek_v1,2022.2.5,59.944599201330384,
,9,3,9,7,0,4,12,,train_dim1_1,13,30,,,,2,0,2,0,,,,,,,,,0,0,0,0,0,12,12,12,4,0,4,0,,,,,,,,,,,,,,,,,,,,,,,,,,,,,,,,,,,,,,,,,,,,,,,,,,,,,,,,,,,,,,,,30,,,,,,,,1081.9498795,1081.9498795,1081.9498795,1081.9498795,1081.9498795,return,0.5602040000012494,2,0,0,1,0.56,0.16,return,0.48069849999956205,28,0,0.56,0.16,,,,,,,,,,,,,,,,,,,,,,,,,,,,,,,,,,,,,,,,,,,,,,,,,,,,,,,,0NPJWL,train_y,red_square,bottom_right,2025-01-22_16h54.00.436,HideSeek_v1,2022.2.5,59.944599201330384,
,7,2,7,2,0,0,16,,train_dim1_1,14,30,,,,2,0,2,0,,,,,,,,,0,0,0,0,0,13,13,13,0,0,0,0,,,,,,,,,,,,,,,,,,,,,,,,,stimuli/alien_stimuli/16.png,,,,,,,,,,,,,,,,,,,,,,,,,,,,,stimuli/alien_stimuli/12.png,12,9,15,,,,,,,30,,,,,,,,1087.4118899999994,1087.4118899999994,1087.4118899999994,1087.4118899999994,1087.4118899999994,up,5.439293400000679,2,0,0,99,0.4,-0.15999999999999998,up,5.351688400000057,,,,,1085.852915399999,1087.4118899999994,0.56,0.16,0.32,0.0,0.0,0.56,0.56,0.56,0.16,1084.0663766999987,1084.0663766999987,1084.0663766999987,1084.0663766999987,1084.0663766999987,1084.0663766999987,1084.0663766999987,1084.0663766999987,1084.0676649899983,1.8871666000013647,return,1.7585653999994975,,,,,,,,,,,,,,,,,,,,,,,,,,,,,,,,,0NPJWL,train_y,red_square,bottom_right,2025-01-22_16h54.00.436,HideSeek_v1,2022.2.5,59.944599201330384,
,7,2,7,2,0,0,16,,train_dim1_1,14,30,,,,2,0,2,0,,,,,,,,,0,0,0,0,0,13,13,13,1,0,1,0,,,,,,,,,,,,,,,,,,,,,,,,,,,,,,,,,,,,,,,,,,,,,,,,,,,,,,,,,,,,,,,,30,,,,,,,,1092.8595138,1092.8595138,1092.8595138,1092.8595138,1092.8595138,return,0.39235460000054445,2,1,0,0,0.4,-0.15999999999999998,return,0.30865909999920405,29,0,0.4,-0.15999999999999998,,,,,,,,,,,,,,,,,,,,,,,,,,,,,,,,,,,,,,,,,,,,,,,,,,,,,,,,0NPJWL,train_y,red_square,bottom_right,2025-01-22_16h54.00.436,HideSeek_v1,2022.2.5,59.944599201330384,
,6,4,6,7,0,3,13,,train_dim1_1,15,30,,,,2,0,2,0,,,,,,,,,0,0,0,0,0,14,14,14,0,0,0,0,,,,,,,,,,,,,,,,,,,,,,,,,stimuli/alien_stimuli/13.png,,,,,,,,,,,,,,,,,,,,,,,,,,,,,stimuli/alien_stimuli/16.png,16,7,16,,,,,,,30,,,,,,,,1098.1687115999994,1098.1687115999994,1098.1687115999994,1098.1687115999994,1098.1687115999994,right,3.656007400000817,2,1,0,99,0.4,-0.08,right,3.5793053999987023,,,,,1096.6117993999997,1098.1687115999994,0.4,-0.24,0.0,0.0,-0.24,0.4,0.4,0.4,-0.24,1094.8249354,1094.8249354,1094.8249354,1094.8249354,1094.8249354,1094.8249354,1094.8249354,1094.8249354,1094.8102368899986,1.9036235000003217,return,1.7698901000003389,,,,,,,,,,,,,,,,,,,,,,,,,,,,,,,,,0NPJWL,train_y,red_square,bottom_right,2025-01-22_16h54.00.436,HideSeek_v1,2022.2.5,59.944599201330384,
,6,4,6,7,0,3,13,,train_dim1_1,15,30,,,,2,0,2,0,,,,,,,,,0,0,0,0,0,14,14,14,1,0,1,0,,,,,,,,,,,,,,,,,,,,,,,,,,,,,,,,,,,,,,,,,,,,,,,,,,,,,,,,,,,,,,,,30,,,,,,,,1101.8323399,1101.8323399,1101.8323399,1101.8323399,1101.8323399,return,1.6437024000006204,2,0,0,0,0.4,-0.08,return,1.5662285999987944,29,1,0.4,-0.08,,,,,,,,,,,,,,,,,,,,,,,,,,,,,,,,,,,,,,,,,,,,,,,,,,,,,,,,0NPJWL,train_y,red_square,bottom_right,2025-01-22_16h54.00.436,HideSeek_v1,2022.2.5,59.944599201330384,
,9,0,9,1,0,1,15,,train_dim1_1,16,30,,,,2,0,2,0,,,,,,,,,0,0,0,0,0,15,15,15,0,0,0,0,,,,,,,,,,,,,,,,,,,,,,,,,stimuli/alien_stimuli/15.png,,,,,,,,,,,,,,,,,,,,,,,,,,,,,stimuli/alien_stimuli/13.png,13,6,17,,,,,,,30,,,,,,,,1108.5607808999994,1108.5607808999994,1108.5607808999994,1108.5607808999994,1108.5607808999994,return,1.6383029999997234,2,1,0,0,0.56,-0.4,return,1.5630130999998073,29,1,0.56,-0.4,1107.0038043999994,1108.5607808999994,0.32,0.16,0.24,0.0,0.04,0.32,0.32,0.32,0.16,1105.0474441999995,1105.0474441999995,1105.0474441999995,1105.0474441999995,1105.0474441999995,1105.0474441999995,1105.0474441999995,1105.0474441999995,1105.0350548899992,2.0713300999996136,return,1.9402407000015955,,,,,,,,,,,,,,,,,,,,,,,,,,,,,,,,,0NPJWL,train_y,red_square,bottom_right,2025-01-22_16h54.00.436,HideSeek_v1,2022.2.5,59.944599201330384,
,8,3,8,6,0,3,13,,train_dim1_1,17,30,,,,2,0,2,0,,,,,,,,,0,0,0,0,0,16,16,16,0,0,0,0,,,,,,,,,,,,,,,,,,,,,,,,,stimuli/alien_stimuli/13.png,,,,,,,,,,,,,,,,,,,,,,,,,,,,,stimuli/alien_stimuli/15.png,15,9,18,,,,,,,30,,,,,,,,1115.1976308999983,1115.1976308999983,1115.1976308999983,1115.1976308999983,1115.1976308999983,up,2.2730048000012175,2,1,0,99,0.48,-0.08,up,2.1871803999983968,,,,,1113.6426562999986,1115.1976308999983,0.56,-0.32,0.08,0.0,-0.36,0.56,0.56,0.56,-0.32,1111.7542013999991,1111.7542013999991,1111.7542013999991,1111.7542013999991,1111.7542013999991,1111.7542013999991,1111.7542013999991,1111.7542013999991,1111.7407343199982,1.9873088999993342,return,1.859297199998764,,,,,,,,,,,,,,,,,,,,,,,,,,,,,,,,,0NPJWL,train_y,red_square,bottom_right,2025-01-22_16h54.00.436,HideSeek_v1,2022.2.5,59.944599201330384,
,8,3,8,6,0,3,13,,train_dim1_1,17,30,,,,2,0,2,0,,,,,,,,,0,0,0,0,0,16,16,16,1,0,1,0,,,,,,,,,,,,,,,,,,,,,,,,,,,,,,,,,,,,,,,,,,,,,,,,,,,,,,,,,,,,,,,,30,,,,,,,,1117.4783083999992,1117.4783083999992,1117.4783083999992,1117.4783083999992,1117.4783083999992,up,0.3259866000007605,2,1,0,99,0.48,0.0,up,0.2447770999988279,,,,,,,,,,,,,,,,,,,,,,,,,,,,,,,,,,,,,,,,,,,,,,,,,,,,,,,,,,,,0NPJWL,train_y,red_square,bottom_right,2025-01-22_16h54.00.436,HideSeek_v1,2022.2.5,59.944599201330384,
,8,3,8,6,0,3,13,,train_dim1_1,17,30,,,,2,0,2,0,,,,,,,,,0,0,0,0,0,16,16,16,2,0,2,0,,,,,,,,,,,,,,,,,,,,,,,,,,,,,,,,,,,,,,,,,,,,,,,,,,,,,,,,,,,,,,,,30,,,,,,,,1117.812734699999,1117.812734699999,1117.812734699999,1117.812734699999,1117.812734699999,up,0.24246099999982107,2,1,0,99,0.48,0.08,up,0.16772479999963252,,,,,,,,,,,,,,,,,,,,,,,,,,,,,,,,,,,,,,,,,,,,,,,,,,,,,,,,,,,,0NPJWL,train_y,red_square,bottom_right,2025-01-22_16h54.00.436,HideSeek_v1,2022.2.5,59.944599201330384,
,8,3,8,6,0,3,13,,train_dim1_1,17,30,,,,2,0,2,0,,,,,,,,,0,0,0,0,0,16,16,16,3,0,3,0,,,,,,,,,,,,,,,,,,,,,,,,,,,,,,,,,,,,,,,,,,,,,,,,,,,,,,,,,,,,,,,,30,,,,,,,,1118.0621789999987,1118.0621789999987,1118.0621789999987,1118.0621789999987,1118.0621789999987,return,0.6435815999993793,3,0,0,1,0.48,0.08,return,0.5665119999994204,32,1,0.48,0.08,,,,,,,,,,,,,,,,,,,,,,,,,,,,,,,,,,,,,,,,,,,,,,,,,,,,,,,,0NPJWL,train_y,red_square,bottom_right,2025-01-22_16h54.00.436,HideSeek_v1,2022.2.5,59.944599201330384,
,7,1,7,6,0,5,11,,train_dim1_1,18,30,,,,2,0,2,0,,,,,,,,,0,0,0,0,0,17,17,17,0,0,0,0,,,,,,,,,,,,,,,,,,,,,,,,,stimuli/alien_stimuli/11.png,,,,,,,,,,,,,,,,,,,,,,,,,,,,,stimuli/alien_stimuli/13.png,13,8,19,,,,,,,30,,,,,,,,1123.2215877999988,1123.2215877999988,1123.2215877999988,1123.2215877999988,1123.2215877999988,up,1.5894633999996586,3,0,0,99,0.4,-0.24,up,1.513238800000181,,,,,1121.6656645999992,1123.2215877999988,0.48,0.08,0.24,0.0,-0.04,0.48,0.48,0.48,0.08,1120.2579038999993,1120.2579038999993,1120.2579038999993,1120.2579038999993,1120.2579038999993,1120.2579038999993,1120.2579038999993,1120.2579038999993,1120.2479950199984,1.5032630000005156,return,1.3814434999985679,,,,,,,,,,,,,,,,,,,,,,,,,,,,,,,,,0NPJWL,train_y,red_square,bottom_right,2025-01-22_16h54.00.436,HideSeek_v1,2022.2.5,59.944599201330384,
,7,1,7,6,0,5,11,,train_dim1_1,18,30,,,,2,0,2,0,,,,,,,,,0,0,0,0,0,17,17,17,1,0,1,0,,,,,,,,,,,,,,,,,,,,,,,,,,,,,,,,,,,,,,,,,,,,,,,,,,,,,,,,,,,,,,,,30,,,,,,,,1124.8196639999987,1124.8196639999987,1124.8196639999987,1124.8196639999987,1124.8196639999987,up,0.29272780000064813,3,0,0,99,0.4,-0.15999999999999998,up,0.20324769999933778,,,,,,,,,,,,,,,,,,,,,,,,,,,,,,,,,,,,,,,,,,,,,,,,,,,,,,,,,,,,0NPJWL,train_y,red_square,bottom_right,2025-01-22_16h54.00.436,HideSeek_v1,2022.2.5,59.944599201330384,
,7,1,7,6,0,5,11,,train_dim1_1,18,30,,,,2,0,2,0,,,,,,,,,0,0,0,0,0,17,17,17,2,0,2,0,,,,,,,,,,,,,,,,,,,,,,,,,,,,,,,,,,,,,,,,,,,,,,,,,,,,,,,,,,,,,,,,30,,,,,,,,1125.1191635999985,1125.1191635999985,1125.1191635999985,1125.1191635999985,1125.1191635999985,up,0.29343929999959073,3,0,0,99,0.4,-0.07999999999999997,up,0.2030828000006295,,,,,,,,,,,,,,,,,,,,,,,,,,,,,,,,,,,,,,,,,,,,,,,,,,,,,,,,,,,,0NPJWL,train_y,red_square,bottom_right,2025-01-22_16h54.00.436,HideSeek_v1,2022.2.5,59.944599201330384,
,7,1,7,6,0,5,11,,train_dim1_1,18,30,,,,2,0,2,0,,,,,,,,,0,0,0,0,0,17,17,17,3,0,3,0,,,,,,,,,,,,,,,,,,,,,,,,,,,,,,,,,,,,,,,,,,,,,,,,,,,,,,,,,,,,,,,,30,,,,,,,,1125.4189818999985,1125.4189818999985,1125.4189818999985,1125.4189818999985,1125.4189818999985,up,0.2929122000005009,3,0,0,99,0.4,2.7755575615628914e-17,up,0.21321110000098997,,,,,,,,,,,,,,,,,,,,,,,,,,,,,,,,,,,,,,,,,,,,,,,,,,,,,,,,,,,,0NPJWL,train_y,red_square,bottom_right,2025-01-22_16h54.00.436,HideSeek_v1,2022.2.5,59.944599201330384,
,7,1,7,6,0,5,11,,train_dim1_1,18,30,,,,2,0,2,0,,,,,,,,,0,0,0,0,0,17,17,17,4,0,4,0,,,,,,,,,,,,,,,,,,,,,,,,,,,,,,,,,,,,,,,,,,,,,,,,,,,,,,,,,,,,,,,,30,,,,,,,,1125.7197585999984,1125.7197585999984,1125.7197585999984,1125.7197585999984,1125.7197585999984,up,0.45935670000108075,3,0,0,99,0.4,0.08000000000000003,up,0.37347480000062205,,,,,,,,,,,,,,,,,,,,,,,,,,,,,,,,,,,,,,,,,,,,,,,,,,,,,,,,,,,,0NPJWL,train_y,red_square,bottom_right,2025-01-22_16h54.00.436,HideSeek_v1,2022.2.5,59.944599201330384,
,7,1,7,6,0,5,11,,train_dim1_1,18,30,,,,2,0,2,0,,,,,,,,,0,0,0,0,0,17,17,17,5,0,5,0,,,,,,,,,,,,,,,,,,,,,,,,,,,,,,,,,,,,,,,,,,,,,,,,,,,,,,,,,,,,,,,,30,,,,,,,,1126.1860852999998,1126.1860852999998,1126.1860852999998,1126.1860852999998,1126.1860852999998,return,0.4267046000004484,4,0,0,1,0.4,0.08000000000000003,return,0.3399282000009407,37,1,0.4,0.08000000000000003,,,,,,,,,,,,,,,,,,,,,,,,,,,,,,,,,,,,,,,,,,,,,,,,,,,,,,,,0NPJWL,train_y,red_square,bottom_right,2025-01-22_16h54.00.436,HideSeek_v1,2022.2.5,59.944599201330384,
,5,4,5,8,0,4,12,,train_dim1_1,19,30,,,,2,0,2,0,,,,,,,,,0,0,0,0,0,18,18,18,0,0,0,0,,,,,,,,,,,,,,,,,,,,,,,,,stimuli/alien_stimuli/12.png,,,,,,,,,,,,,,,,,,,,,,,,,,,,,stimuli/alien_stimuli/11.png,11,7,20,,,,,,,30,,,,,,,,1130.9775851999984,1130.9775851999984,1130.9775851999984,1130.9775851999984,1130.9775851999984,up,1.2555080000001908,4,0,0,99,0.24,0.0,up,1.1804988000003505,,,,,1129.4223450999998,1130.9775851999984,0.4,0.08,0.4,0.0,-0.12,0.4,0.4,0.4,0.08,1128.1854925999996,1128.1854925999996,1128.1854925999996,1128.1854925999996,1128.1854925999996,1128.1854925999996,1128.1854925999996,1128.1854925999996,1128.1710387899989,1.3533952000016143,return,1.2169370999999956,,,,,,,,,,,,,,,,,,,,,,,,,,,,,,,,,0NPJWL,train_y,red_square,bottom_right,2025-01-22_16h54.00.436,HideSeek_v1,2022.2.5,59.944599201330384,
,5,4,5,8,0,4,12,,train_dim1_1,19,30,,,,2,0,2,0,,,,,,,,,0,0,0,0,0,18,18,18,1,0,1,0,,,,,,,,,,,,,,,,,,,,,,,,,,,,,,,,,,,,,,,,,,,,,,,,,,,,,,,,,,,,,,,,30,,,,,,,,1132.240916499999,1132.240916499999,1132.240916499999,1132.240916499999,1132.240916499999,up,0.2928984999998647,4,0,0,99,0.24,0.08,up,0.20222979999925883,,,,,,,,,,,,,,,,,,,,,,,,,,,,,,,,,,,,,,,,,,,,,,,,,,,,,,,,,,,,0NPJWL,train_y,red_square,bottom_right,2025-01-22_16h54.00.436,HideSeek_v1,2022.2.5,59.944599201330384,
,5,4,5,8,0,4,12,,train_dim1_1,19,30,,,,2,0,2,0,,,,,,,,,0,0,0,0,0,18,18,18,2,0,2,0,,,,,,,,,,,,,,,,,,,,,,,,,,,,,,,,,,,,,,,,,,,,,,,,,,,,,,,,,,,,,,,,30,,,,,,,,1132.5405307,1132.5405307,1132.5405307,1132.5405307,1132.5405307,up,0.24344270000074175,4,0,0,99,0.24,0.16,up,0.16730979999920237,,,,,,,,,,,,,,,,,,,,,,,,,,,,,,,,,,,,,,,,,,,,,,,,,,,,,,,,,,,,0NPJWL,train_y,red_square,bottom_right,2025-01-22_16h54.00.436,HideSeek_v1,2022.2.5,59.944599201330384,
,5,4,5,8,0,4,12,,train_dim1_1,19,30,,,,2,0,2,0,,,,,,,,,0,0,0,0,0,18,18,18,3,0,3,0,,,,,,,,,,,,,,,,,,,,,,,,,,,,,,,,,,,,,,,,,,,,,,,,,,,,,,,,,,,,,,,,30,,,,,,,,1132.7916225999998,1132.7916225999998,1132.7916225999998,1132.7916225999998,1132.7916225999998,up,0.3267974000009417,4,0,0,99,0.24,0.24,up,0.2416124999999738,,,,,,,,,,,,,,,,,,,,,,,,,,,,,,,,,,,,,,,,,,,,,,,,,,,,,,,,,,,,0NPJWL,train_y,red_square,bottom_right,2025-01-22_16h54.00.436,HideSeek_v1,2022.2.5,59.944599201330384,
,5,4,5,8,0,4,12,,train_dim1_1,19,30,,,,2,0,2,0,,,,,,,,,0,0,0,0,0,18,18,18,4,0,4,0,,,,,,,,,,,,,,,,,,,,,,,,,,,,,,,,,,,,,,,,,,,,,,,,,,,,,,,,,,,,,,,,30,,,,,,,,1133.1256252999992,1133.1256252999992,1133.1256252999992,1133.1256252999992,1133.1256252999992,up,0.24321219999910682,4,0,0,99,0.24,0.32,up,0.16470660000049975,,,,,,,,,,,,,,,,,,,,,,,,,,,,,,,,,,,,,,,,,,,,,,,,,,,,,,,,,,,,0NPJWL,train_y,red_square,bottom_right,2025-01-22_16h54.00.436,HideSeek_v1,2022.2.5,59.944599201330384,
,5,4,5,8,0,4,12,,train_dim1_1,19,30,,,,2,0,2,0,,,,,,,,,0,0,0,0,0,18,18,18,5,0,5,0,,,,,,,,,,,,,,,,,,,,,,,,,,,,,,,,,,,,,,,,,,,,,,,,,,,,,,,,,,,,,,,,30,,,,,,,,1133.376229399999,1133.376229399999,1133.376229399999,1133.376229399999,1133.376229399999,return,0.3598436000011134,4,1,0,0,0.24,0.32,return,0.27791569999862986,42,1,0.24,0.32,,,,,,,,,,,,,,,,,,,,,,,,,,,,,,,,,,,,,,,,,,,,,,,,,,,,,,,,0NPJWL,train_y,red_square,bottom_right,2025-01-22_16h54.00.436,HideSeek_v1,2022.2.5,59.944599201330384,
,7,0,7,0,0,0,16,,train_dim1_1,20,30,,,,2,0,2,0,,,,,,,,,0,0,0,0,0,19,19,19,0,0,0,0,,,,,,,,,,,,,,,,,,,,,,,,,stimuli/alien_stimuli/16.png,,,,,,,,,,,,,,,,,,,,,,,,,,,,,stimuli/alien_stimuli/12.png,12,5,21,,,,,,,30,,,,,,,,1138.5341964,1138.5341964,1138.5341964,1138.5341964,1138.5341964,return,1.7229779999997845,5,0,0,1,0.4,-0.4,return,1.6465279000003648,42,1,0.4,-0.4,1136.9785226999993,1138.5341964,0.24,0.24,0.32,0.0,0.07999999999999999,0.24,0.24,0.24,0.24,1135.2892256999985,1135.2892256999985,1135.2892256999985,1135.2892256999985,1135.2892256999985,1135.2892256999985,1135.2892256999985,1135.2892256999985,1135.276980819998,1.7872807000003377,return,1.6610054000011587,,,,,,,,,,,,,,,,,,,,,,,,,,,,,,,,,0NPJWL,train_y,red_square,bottom_right,2025-01-22_16h54.00.436,HideSeek_v1,2022.2.5,59.944599201330384,
,7,4,7,5,0,1,15,,train_dim1_1,21,30,,,,2,0,2,0,,,,,,,,,0,0,0,0,0,20,20,20,0,0,0,0,,,,,,,,,,,,,,,,,,,,,,,,,stimuli/alien_stimuli/15.png,,,,,,,,,,,,,,,,,,,,,,,,,,,,,stimuli/alien_stimuli/16.png,16,7,22,,,,,,,30,,,,,,,,1144.338143699999,1144.338143699999,1144.338143699999,1144.338143699999,1144.338143699999,up,2.808040300000357,5,0,0,99,0.4,0.0,up,2.7303678000007494,,,,,1142.7831693999997,1144.338143699999,0.4,-0.4,0.0,0.0,-0.4,0.4,0.4,0.4,-0.4,1141.8113493,1141.8113493,1141.8113493,1141.8113493,1141.8113493,1141.8113493,1141.8113493,1141.8113493,1141.7992220199983,1.0696164999990287,return,0.9446000999996613,,,,,,,,,,,,,,,,,,,,,,,,,,,,,,,,,0NPJWL,train_y,red_square,bottom_right,2025-01-22_16h54.00.436,HideSeek_v1,2022.2.5,59.944599201330384,
,7,4,7,5,0,1,15,,train_dim1_1,21,30,,,,2,0,2,0,,,,,,,,,0,0,0,0,0,20,20,20,1,0,1,0,,,,,,,,,,,,,,,,,,,,,,,,,,,,,,,,,,,,,,,,,,,,,,,,,,,,,,,,,,,,,,,,30,,,,,,,,1147.1548633999992,1147.1548633999992,1147.1548633999992,1147.1548633999992,1147.1548633999992,return,0.5430145999998786,6,0,0,1,0.4,0.0,return,0.4653574000003573,43,1,0.4,0.0,,,,,,,,,,,,,,,,,,,,,,,,,,,,,,,,,,,,,,,,,,,,,,,,,,,,,,,,0NPJWL,train_y,red_square,bottom_right,2025-01-22_16h54.00.436,HideSeek_v1,2022.2.5,59.944599201330384,
,5,2,5,5,0,3,13,,train_dim1_1,22,30,,,,2,0,2,0,,,,,,,,,0,0,0,0,0,21,21,21,0,0,0,0,,,,,,,,,,,,,,,,,,,,,,,,,stimuli/alien_stimuli/13.png,,,,,,,,,,,,,,,,,,,,,,,,,,,,,stimuli/alien_stimuli/15.png,15,7,23,,,,,,,30,,,,,,,,1152.1616219999996,1152.1616219999996,1152.1616219999996,1152.1616219999996,1152.1616219999996,up,1.6558624999997846,6,0,0,99,0.24,-0.15999999999999998,up,1.576232400000663,,,,,1150.606413899999,1152.1616219999996,0.4,0,0.08,0.0,-0.04,0.4,0.4,0.4,0,1149.2557988999997,1149.2557988999997,1149.2557988999997,1149.2557988999997,1149.2557988999997,1149.2557988999997,1149.2557988999997,1149.2557988999997,1149.255084689998,1.4536091999998462,return,1.326080599999841,,,,,,,,,,,,,,,,,,,,,,,,,,,,,,,,,0NPJWL,train_y,red_square,bottom_right,2025-01-22_16h54.00.436,HideSeek_v1,2022.2.5,59.944599201330384,
,5,2,5,5,0,3,13,,train_dim1_1,22,30,,,,2,0,2,0,,,,,,,,,0,0,0,0,0,21,21,21,1,0,1,0,,,,,,,,,,,,,,,,,,,,,,,,,,,,,,,,,,,,,,,,,,,,,,,,,,,,,,,,,,,,,,,,30,,,,,,,,1153.8251650999991,1153.8251650999991,1153.8251650999991,1153.8251650999991,1153.8251650999991,up,0.19338090000019292,6,0,0,99,0.24,-0.07999999999999997,up,0.11550919999899634,,,,,,,,,,,,,,,,,,,,,,,,,,,,,,,,,,,,,,,,,,,,,,,,,,,,,,,,,,,,0NPJWL,train_y,red_square,bottom_right,2025-01-22_16h54.00.436,HideSeek_v1,2022.2.5,59.944599201330384,
,5,2,5,5,0,3,13,,train_dim1_1,22,30,,,,2,0,2,0,,,,,,,,,0,0,0,0,0,21,21,21,2,0,2,0,,,,,,,,,,,,,,,,,,,,,,,,,,,,,,,,,,,,,,,,,,,,,,,,,,,,,,,,,,,,,,,,30,,,,,,,,1154.0260959999996,1154.0260959999996,1154.0260959999996,1154.0260959999996,1154.0260959999996,up,0.14310760000080336,6,0,0,99,0.24,2.7755575615628914e-17,up,0.06678879999890341,,,,,,,,,,,,,,,,,,,,,,,,,,,,,,,,,,,,,,,,,,,,,,,,,,,,,,,,,,,,0NPJWL,train_y,red_square,bottom_right,2025-01-22_16h54.00.436,HideSeek_v1,2022.2.5,59.944599201330384,
,5,2,5,5,0,3,13,,train_dim1_1,22,30,,,,2,0,2,0,,,,,,,,,0,0,0,0,0,21,21,21,3,0,3,0,,,,,,,,,,,,,,,,,,,,,,,,,,,,,,,,,,,,,,,,,,,,,,,,,,,,,,,,,,,,,,,,30,,,,,,,,1154.1756713999985,1154.1756713999985,1154.1756713999985,1154.1756713999985,1154.1756713999985,return,0.5101999999988038,7,0,0,1,0.24,2.7755575615628914e-17,return,0.42615479999949457,46,1,0.24,2.7755575615628914e-17,,,,,,,,,,,,,,,,,,,,,,,,,,,,,,,,,,,,,,,,,,,,,,,,,,,,,,,,0NPJWL,train_y,red_square,bottom_right,2025-01-22_16h54.00.436,HideSeek_v1,2022.2.5,59.944599201330384,
,5,3,5,8,0,5,11,,train_dim1_1,23,30,,,,2,0,2,0,,,,,,,,,0,0,0,0,0,22,22,22,0,0,0,0,,,,,,,,,,,,,,,,,,,,,,,,,stimuli/alien_stimuli/11.png,,,,,,,,,,,,,,,,,,,,,,,,,,,,,stimuli/alien_stimuli/13.png,13,5,24,,,,,,,30,,,,,,,,1158.8001852999987,1158.8001852999987,1158.8001852999987,1158.8001852999987,1158.8001852999987,up,3.975692499998331,7,0,0,99,0.24,-0.08,up,3.886308999999528,,,,,1157.2450641999985,1158.8001852999987,0.24,0,0.24,0.0,-0.12,0.24,0.24,0.24,0,1156.2403053999988,1156.2403053999988,1156.2403053999988,1156.2403053999988,1156.2403053999988,1156.2403053999988,1156.2403053999988,1156.2403053999988,1156.2274853199986,1.103332999999111,return,0.977136799998334,,,,,,,,,,,,,,,,,,,,,,,,,,,,,,,,,0NPJWL,train_y,red_square,bottom_right,2025-01-22_16h54.00.436,HideSeek_v1,2022.2.5,59.944599201330384,
,5,3,5,8,0,5,11,,train_dim1_1,23,30,,,,2,0,2,0,,,,,,,,,0,0,0,0,0,22,22,22,1,0,1,0,,,,,,,,,,,,,,,,,,,,,,,,,,,,,,,,,,,,,,,,,,,,,,,,,,,,,,,,,,,,,,,,30,,,,,,,,1162.7840634999993,1162.7840634999993,1162.7840634999993,1162.7840634999993,1162.7840634999993,up,0.24252350000097067,7,0,0,99,0.24,0.0,up,0.16118590000041877,,,,,,,,,,,,,,,,,,,,,,,,,,,,,,,,,,,,,,,,,,,,,,,,,,,,,,,,,,,,0NPJWL,train_y,red_square,bottom_right,2025-01-22_16h54.00.436,HideSeek_v1,2022.2.5,59.944599201330384,
,5,3,5,8,0,5,11,,train_dim1_1,23,30,,,,2,0,2,0,,,,,,,,,0,0,0,0,0,22,22,22,2,0,2,0,,,,,,,,,,,,,,,,,,,,,,,,,,,,,,,,,,,,,,,,,,,,,,,,,,,,,,,,,,,,,,,,30,,,,,,,,1163.0340018999996,1163.0340018999996,1163.0340018999996,1163.0340018999996,1163.0340018999996,up,0.2434588000014628,7,0,0,99,0.24,0.08,up,0.1632526000012149,,,,,,,,,,,,,,,,,,,,,,,,,,,,,,,,,,,,,,,,,,,,,,,,,,,,,,,,,,,,0NPJWL,train_y,red_square,bottom_right,2025-01-22_16h54.00.436,HideSeek_v1,2022.2.5,59.944599201330384,
,5,3,5,8,0,5,11,,train_dim1_1,23,30,,,,2,0,2,0,,,,,,,,,0,0,0,0,0,22,22,22,3,0,3,0,,,,,,,,,,,,,,,,,,,,,,,,,,,,,,,,,,,,,,,,,,,,,,,,,,,,,,,,,,,,,,,,30,,,,,,,,1163.2839292999997,1163.2839292999997,1163.2839292999997,1163.2839292999997,1163.2839292999997,up,0.2594762999997329,7,0,0,99,0.24,0.16,up,0.17683459999898332,,,,,,,,,,,,,,,,,,,,,,,,,,,,,,,,,,,,,,,,,,,,,,,,,,,,,,,,,,,,0NPJWL,train_y,red_square,bottom_right,2025-01-22_16h54.00.436,HideSeek_v1,2022.2.5,59.944599201330384,
,5,3,5,8,0,5,11,,train_dim1_1,23,30,,,,2,0,2,0,,,,,,,,,0,0,0,0,0,22,22,22,4,0,4,0,,,,,,,,,,,,,,,,,,,,,,,,,,,,,,,,,,,,,,,,,,,,,,,,,,,,,,,,,,,,,,,,30,,,,,,,,1163.5503321999986,1163.5503321999986,1163.5503321999986,1163.5503321999986,1163.5503321999986,up,0.26007690000005823,7,0,0,99,0.24,0.24,up,0.17934740000055172,,,,,,,,,,,,,,,,,,,,,,,,,,,,,,,,,,,,,,,,,,,,,,,,,,,,,,,,,,,,0NPJWL,train_y,red_square,bottom_right,2025-01-22_16h54.00.436,HideSeek_v1,2022.2.5,59.944599201330384,
,5,3,5,8,0,5,11,,train_dim1_1,23,30,,,,2,0,2,0,,,,,,,,,0,0,0,0,0,22,22,22,5,0,5,0,,,,,,,,,,,,,,,,,,,,,,,,,,,,,,,,,,,,,,,,,,,,,,,,,,,,,,,,,,,,,,,,30,,,,,,,,1163.8169763999995,1163.8169763999995,1163.8169763999995,1163.8169763999995,1163.8169763999995,return,0.5434772000007797,8,0,0,1,0.24,0.24,return,0.4611579000011261,51,1,0.24,0.24,,,,,,,,,,,,,,,,,,,,,,,,,,,,,,,,,,,,,,,,,,,,,,,,,,,,,,,,0NPJWL,train_y,red_square,bottom_right,2025-01-22_16h54.00.436,HideSeek_v1,2022.2.5,59.944599201330384,
,8,2,8,2,0,0,16,,train_dim1_1,24,30,,,,2,0,2,0,,,,,,,,,0,0,0,0,0,23,23,23,0,0,0,0,,,,,,,,,,,,,,,,,,,,,,,,,stimuli/alien_stimuli/16.png,,,,,,,,,,,,,,,,,,,,,,,,,,,,,stimuli/alien_stimuli/11.png,11,5,25,,,,,,,30,,,,,,,,1168.4923322999985,1168.4923322999985,1168.4923322999985,1168.4923322999985,1168.4923322999985,return,2.456921400000283,9,0,0,1,0.48,-0.24,return,2.3747759999987466,51,1,0.48,-0.24,1166.9367256999994,1168.4923322999985,0.24,0.24,0.4,0.0,0.039999999999999994,0.24,0.24,0.24,0.24,1165.933191099999,1165.933191099999,1165.933191099999,1165.933191099999,1165.933191099999,1165.933191099999,1165.933191099999,1165.933191099999,1165.9192615899979,1.119716100000005,return,0.9866532000014558,,,,,,,,,,,,,,,,,,,,,,,,,,,,,,,,,0NPJWL,train_y,red_square,bottom_right,2025-01-22_16h54.00.436,HideSeek_v1,2022.2.5,59.944599201330384,
,8,3,8,7,0,4,12,,train_dim1_1,25,30,,,,2,0,2,0,,,,,,,,,0,0,0,0,0,24,24,24,0,0,0,0,,,,,,,,,,,,,,,,,,,,,,,,,stimuli/alien_stimuli/12.png,,,,,,,,,,,,,,,,,,,,,,,,,,,,,stimuli/alien_stimuli/16.png,16,8,26,,,,,,,30,,,,,,,,1174.8499618999995,1174.8499618999995,1174.8499618999995,1174.8499618999995,1174.8499618999995,up,1.4545007000015175,9,0,0,99,0.48,-0.08,up,1.3669824999997218,,,,,1173.2917560999995,1174.8499618999995,0.48,-0.24,0.0,0.0,-0.24,0.48,0.48,0.48,-0.24,1172.512045399999,1172.512045399999,1172.512045399999,1172.512045399999,1172.512045399999,1172.512045399999,1172.512045399999,1172.512045399999,1172.5080369899993,0.885654899999281,return,0.7617625999992015,,,,,,,,,,,,,,,,,,,,,,,,,,,,,,,,,0NPJWL,train_y,red_square,bottom_right,2025-01-22_16h54.00.436,HideSeek_v1,2022.2.5,59.944599201330384,
,8,3,8,7,0,4,12,,train_dim1_1,25,30,,,,2,0,2,0,,,,,,,,,0,0,0,0,0,24,24,24,1,0,1,0,,,,,,,,,,,,,,,,,,,,,,,,,,,,,,,,,,,,,,,,,,,,,,,,,,,,,,,,,,,,,,,,30,,,,,,,,1176.311381399999,1176.311381399999,1176.311381399999,1176.311381399999,1176.311381399999,up,0.25954020000062883,9,0,0,99,0.48,0.0,up,0.18433750000076543,,,,,,,,,,,,,,,,,,,,,,,,,,,,,,,,,,,,,,,,,,,,,,,,,,,,,,,,,,,,0NPJWL,train_y,red_square,bottom_right,2025-01-22_16h54.00.436,HideSeek_v1,2022.2.5,59.944599201330384,
,8,3,8,7,0,4,12,,train_dim1_1,25,30,,,,2,0,2,0,,,,,,,,,0,0,0,0,0,24,24,24,2,0,2,0,,,,,,,,,,,,,,,,,,,,,,,,,,,,,,,,,,,,,,,,,,,,,,,,,,,,,,,,,,,,,,,,30,,,,,,,,1176.5782289999988,1176.5782289999988,1176.5782289999988,1176.5782289999988,1176.5782289999988,up,0.2765460000009625,9,0,0,99,0.48,0.08,up,0.18632009999964794,,,,,,,,,,,,,,,,,,,,,,,,,,,,,,,,,,,,,,,,,,,,,,,,,,,,,,,,,,,,0NPJWL,train_y,red_square,bottom_right,2025-01-22_16h54.00.436,HideSeek_v1,2022.2.5,59.944599201330384,
,8,3,8,7,0,4,12,,train_dim1_1,25,30,,,,2,0,2,0,,,,,,,,,0,0,0,0,0,24,24,24,3,0,3,0,,,,,,,,,,,,,,,,,,,,,,,,,,,,,,,,,,,,,,,,,,,,,,,,,,,,,,,,,,,,,,,,30,,,,,,,,1176.8617508999996,1176.8617508999996,1176.8617508999996,1176.8617508999996,1176.8617508999996,up,0.409860399999161,9,0,0,99,0.48,0.16,up,0.33304319999842846,,,,,,,,,,,,,,,,,,,,,,,,,,,,,,,,,,,,,,,,,,,,,,,,,,,,,,,,,,,,0NPJWL,train_y,red_square,bottom_right,2025-01-22_16h54.00.436,HideSeek_v1,2022.2.5,59.944599201330384,
,8,3,8,7,0,4,12,,train_dim1_1,25,30,,,,2,0,2,0,,,,,,,,,0,0,0,0,0,24,24,24,4,0,4,0,,,,,,,,,,,,,,,,,,,,,,,,,,,,,,,,,,,,,,,,,,,,,,,,,,,,,,,,,,,,,,,,30,,,,,,,,1177.2790852999988,1177.2790852999988,1177.2790852999988,1177.2790852999988,1177.2790852999988,return,0.49351990000104706,10,0,0,1,0.48,0.16,return,0.4087751000006392,55,1,0.48,0.16,,,,,,,,,,,,,,,,,,,,,,,,,,,,,,,,,,,,,,,,,,,,,,,,,,,,,,,,0NPJWL,train_y,red_square,bottom_right,2025-01-22_16h54.00.436,HideSeek_v1,2022.2.5,59.944599201330384,
,9,4,9,7,0,3,13,,train_dim1_1,26,30,,,,2,0,2,0,,,,,,,,,0,0,0,0,0,25,25,25,0,0,0,0,,,,,,,,,,,,,,,,,,,,,,,,,stimuli/alien_stimuli/13.png,,,,,,,,,,,,,,,,,,,,,,,,,,,,,stimuli/alien_stimuli/12.png,12,8,27,,,,,,,30,,,,,,,,1181.7874924999996,1181.7874924999996,1181.7874924999996,1181.7874924999996,1181.7874924999996,up,5.258147999998982,10,0,0,99,0.56,0.0,up,5.176113600000463,,,,,1180.230659499999,1181.7874924999996,0.48,0.16,0.32,0.0,0.0,0.48,0.48,0.48,0.16,1179.3281623999992,1179.3281623999992,1179.3281623999992,1179.3281623999992,1179.3281623999992,1179.3281623999992,1179.3281623999992,1179.3281623999992,1179.3300934899985,1.0027578999997786,return,0.8855540000004112,,,,,,,,,,,,,,,,,,,,,,,,,,,,,,,,,0NPJWL,train_y,red_square,bottom_right,2025-01-22_16h54.00.436,HideSeek_v1,2022.2.5,59.944599201330384,
,9,4,9,7,0,3,13,,train_dim1_1,26,30,,,,2,0,2,0,,,,,,,,,0,0,0,0,0,25,25,25,1,0,1,0,,,,,,,,,,,,,,,,,,,,,,,,,,,,,,,,,,,,,,,,,,,,,,,,,,,,,,,,,,,,,,,,30,,,,,,,,1187.0523457,1187.0523457,1187.0523457,1187.0523457,1187.0523457,up,0.843253499999264,10,0,0,99,0.56,0.08,up,0.7680038000016793,,,,,,,,,,,,,,,,,,,,,,,,,,,,,,,,,,,,,,,,,,,,,,,,,,,,,,,,,,,,0NPJWL,train_y,red_square,bottom_right,2025-01-22_16h54.00.436,HideSeek_v1,2022.2.5,59.944599201330384,
,9,4,9,7,0,3,13,,train_dim1_1,26,30,,,,2,0,2,0,,,,,,,,,0,0,0,0,0,25,25,25,2,0,2,0,,,,,,,,,,,,,,,,,,,,,,,,,,,,,,,,,,,,,,,,,,,,,,,,,,,,,,,,,,,,,,,,30,,,,,,,,1187.9039826999997,1187.9039826999997,1187.9039826999997,1187.9039826999997,1187.9039826999997,up,0.6434368999998696,10,0,0,99,0.56,0.16,up,0.5600248000009742,,,,,,,,,,,,,,,,,,,,,,,,,,,,,,,,,,,,,,,,,,,,,,,,,,,,,,,,,,,,0NPJWL,train_y,red_square,bottom_right,2025-01-22_16h54.00.436,HideSeek_v1,2022.2.5,59.944599201330384,
,9,4,9,7,0,3,13,,train_dim1_1,26,30,,,,2,0,2,0,,,,,,,,,0,0,0,0,0,25,25,25,3,0,3,0,,,,,,,,,,,,,,,,,,,,,,,,,,,,,,,,,,,,,,,,,,,,,,,,,,,,,,,,,,,,,,,,30,,,,,,,,1188.5543507999992,1188.5543507999992,1188.5543507999992,1188.5543507999992,1188.5543507999992,return,0.5770126000006712,11,0,0,1,0.56,0.16,return,0.5013871000010113,58,1,0.56,0.16,,,,,,,,,,,,,,,,,,,,,,,,,,,,,,,,,,,,,,,,,,,,,,,,,,,,,,,,0NPJWL,train_y,red_square,bottom_right,2025-01-22_16h54.00.436,HideSeek_v1,2022.2.5,59.944599201330384,
,8,4,8,4,0,0,16,,train_dim1_1,27,30,,,,2,0,2,0,,,,,,,,,0,0,0,0,0,26,26,26,0,0,0,0,,,,,,,,,,,,,,,,,,,,,,,,,stimuli/alien_stimuli/16.png,,,,,,,,,,,,,,,,,,,,,,,,,,,,,stimuli/alien_stimuli/13.png,13,9,28,,,,,,,30,,,,,,,,1193.0128012999994,1193.0128012999994,1193.0128012999994,1193.0128012999994,1193.0128012999994,return,1.1724500000000262,12,0,0,1,0.48,-0.08,return,1.0829198000010365,58,1,0.48,-0.08,1191.4569978,1193.0128012999994,0.56,0.16,0.24,0.0,0.04,0.56,0.56,0.56,0.16,1190.702669799999,1190.702669799999,1190.702669799999,1190.702669799999,1190.702669799999,1190.702669799999,1190.702669799999,1190.702669799999,1190.6895065899994,0.8699671000013041,return,0.7282252000004519,,,,,,,,,,,,,,,,,,,,,,,,,,,,,,,,,0NPJWL,train_y,red_square,bottom_right,2025-01-22_16h54.00.436,HideSeek_v1,2022.2.5,59.944599201330384,
,9,1,9,6,0,5,11,,train_dim1_1,28,30,,,,2,0,2,0,,,,,,,,,0,0,0,0,0,27,27,27,0,0,0,0,,,,,,,,,,,,,,,,,,,,,,,,,stimuli/alien_stimuli/11.png,,,,,,,,,,,,,,,,,,,,,,,,,,,,,stimuli/alien_stimuli/16.png,16,8,29,,,,,,,30,,,,,,,,1198.0502217999983,1198.0502217999983,1198.0502217999983,1198.0502217999983,1198.0502217999983,up,1.7070322999989003,12,0,0,99,0.56,-0.24,up,1.6284119000010833,,,,,1196.494286699999,1198.0502217999983,0.48,-0.08,0.0,0.0,-0.08,0.48,0.48,0.48,-0.08,1195.7427368999997,1195.7427368999997,1195.7427368999997,1195.7427368999997,1195.7427368999997,1195.7427368999997,1195.7427368999997,1195.7427368999997,1195.7436523899983,0.8529727000004641,return,0.7275171000001137,,,,,,,,,,,,,,,,,,,,,,,,,,,,,,,,,0NPJWL,train_y,red_square,bottom_right,2025-01-22_16h54.00.436,HideSeek_v1,2022.2.5,59.944599201330384,
,9,1,9,6,0,5,11,,train_dim1_1,28,30,,,,2,0,2,0,,,,,,,,,0,0,0,0,0,27,27,27,1,0,1,0,,,,,,,,,,,,,,,,,,,,,,,,,,,,,,,,,,,,,,,,,,,,,,,,,,,,,,,,,,,,,,,,30,,,,,,,,1199.7639469999995,1199.7639469999995,1199.7639469999995,1199.7639469999995,1199.7639469999995,up,0.2261106000005384,12,0,0,99,0.56,-0.15999999999999998,up,0.14346970000042347,,,,,,,,,,,,,,,,,,,,,,,,,,,,,,,,,,,,,,,,,,,,,,,,,,,,,,,,,,,,0NPJWL,train_y,red_square,bottom_right,2025-01-22_16h54.00.436,HideSeek_v1,2022.2.5,59.944599201330384,
,9,1,9,6,0,5,11,,train_dim1_1,28,30,,,,2,0,2,0,,,,,,,,,0,0,0,0,0,27,27,27,2,0,2,0,,,,,,,,,,,,,,,,,,,,,,,,,,,,,,,,,,,,,,,,,,,,,,,,,,,,,,,,,,,,,,,,30,,,,,,,,1199.9973107999995,1199.9973107999995,1199.9973107999995,1199.9973107999995,1199.9973107999995,up,0.2268698999996559,12,0,0,99,0.56,-0.07999999999999997,up,0.1439756000017951,,,,,,,,,,,,,,,,,,,,,,,,,,,,,,,,,,,,,,,,,,,,,,,,,,,,,,,,,,,,0NPJWL,train_y,red_square,bottom_right,2025-01-22_16h54.00.436,HideSeek_v1,2022.2.5,59.944599201330384,
,9,1,9,6,0,5,11,,train_dim1_1,28,30,,,,2,0,2,0,,,,,,,,,0,0,0,0,0,27,27,27,3,0,3,0,,,,,,,,,,,,,,,,,,,,,,,,,,,,,,,,,,,,,,,,,,,,,,,,,,,,,,,,,,,,,,,,30,,,,,,,,1200.230234999999,1200.230234999999,1200.230234999999,1200.230234999999,1200.230234999999,up,0.25978460000078485,12,0,0,99,0.56,2.7755575615628914e-17,up,0.16839679999975488,,,,,,,,,,,,,,,,,,,,,,,,,,,,,,,,,,,,,,,,,,,,,,,,,,,,,,,,,,,,0NPJWL,train_y,red_square,bottom_right,2025-01-22_16h54.00.436,HideSeek_v1,2022.2.5,59.944599201330384,
,9,1,9,6,0,5,11,,train_dim1_1,28,30,,,,2,0,2,0,,,,,,,,,0,0,0,0,0,27,27,27,4,0,4,0,,,,,,,,,,,,,,,,,,,,,,,,,,,,,,,,,,,,,,,,,,,,,,,,,,,,,,,,,,,,,,,,30,,,,,,,,1200.4972350999997,1200.4972350999997,1200.4972350999997,1200.4972350999997,1200.4972350999997,up,0.2263641000008647,12,0,0,99,0.56,0.08000000000000003,up,0.15006630000061705,,,,,,,,,,,,,,,,,,,,,,,,,,,,,,,,,,,,,,,,,,,,,,,,,,,,,,,,,,,,0NPJWL,train_y,red_square,bottom_right,2025-01-22_16h54.00.436,HideSeek_v1,2022.2.5,59.944599201330384,
,9,1,9,6,0,5,11,,train_dim1_1,28,30,,,,2,0,2,0,,,,,,,,,0,0,0,0,0,27,27,27,5,0,5,0,,,,,,,,,,,,,,,,,,,,,,,,,,,,,,,,,,,,,,,,,,,,,,,,,,,,,,,,,,,,,,,,30,,,,,,,,1200.7323505999993,1200.7323505999993,1200.7323505999993,1200.7323505999993,1200.7323505999993,return,0.376573700001245,13,0,0,1,0.56,0.08000000000000003,return,0.299990000001344,63,1,0.56,0.08000000000000003,,,,,,,,,,,,,,,,,,,,,,,,,,,,,,,,,,,,,,,,,,,,,,,,,,,,,,,,0NPJWL,train_y,red_square,bottom_right,2025-01-22_16h54.00.436,HideSeek_v1,2022.2.5,59.944599201330384,
,7,2,7,6,0,4,12,,train_dim1_1,29,30,,,,2,0,2,0,,,,,,,,,0,0,0,0,0,28,28,28,0,0,0,0,,,,,,,,,,,,,,,,,,,,,,,,,stimuli/alien_stimuli/12.png,,,,,,,,,,,,,,,,,,,,,,,,,,,,,stimuli/alien_stimuli/11.png,11,9,30,,,,,,,30,,,,,,,,1205.2733918999984,1205.2733918999984,1205.2733918999984,1205.2733918999984,1205.2733918999984,up,1.4389195000003383,13,0,0,99,0.4,-0.15999999999999998,up,1.3586718999995355,,,,,1203.7170275999997,1205.2733918999984,0.56,0.08,0.4,0.0,-0.12,0.56,0.56,0.56,0.08,1202.662780499999,1202.662780499999,1202.662780499999,1202.662780499999,1202.662780499999,1202.662780499999,1202.662780499999,1202.662780499999,1202.649355719998,1.153240800000276,return,1.0219218000002002,,,,,,,,,,,,,,,,,,,,,,,,,,,,,,,,,0NPJWL,train_y,red_square,bottom_right,2025-01-22_16h54.00.436,HideSeek_v1,2022.2.5,59.944599201330384,
,7,2,7,6,0,4,12,,train_dim1_1,29,30,,,,2,0,2,0,,,,,,,,,0,0,0,0,0,28,28,28,1,0,1,0,,,,,,,,,,,,,,,,,,,,,,,,,,,,,,,,,,,,,,,,,,,,,,,,,,,,,,,,,,,,,,,,30,,,,,,,,1206.7196201999996,1206.7196201999996,1206.7196201999996,1206.7196201999996,1206.7196201999996,up,0.3761117000012746,13,0,0,99,0.4,-0.07999999999999997,up,0.2961350000005041,,,,,,,,,,,,,,,,,,,,,,,,,,,,,,,,,,,,,,,,,,,,,,,,,,,,,,,,,,,,0NPJWL,train_y,red_square,bottom_right,2025-01-22_16h54.00.436,HideSeek_v1,2022.2.5,59.944599201330384,
,7,2,7,6,0,4,12,,train_dim1_1,29,30,,,,2,0,2,0,,,,,,,,,0,0,0,0,0,28,28,28,2,0,2,0,,,,,,,,,,,,,,,,,,,,,,,,,,,,,,,,,,,,,,,,,,,,,,,,,,,,,,,,,,,,,,,,30,,,,,,,,1207.1034296999987,1207.1034296999987,1207.1034296999987,1207.1034296999987,1207.1034296999987,up,0.32663550000143005,13,0,0,99,0.4,2.7755575615628914e-17,up,0.2480589000006148,,,,,,,,,,,,,,,,,,,,,,,,,,,,,,,,,,,,,,,,,,,,,,,,,,,,,,,,,,,,0NPJWL,train_y,red_square,bottom_right,2025-01-22_16h54.00.436,HideSeek_v1,2022.2.5,59.944599201330384,
,7,2,7,6,0,4,12,,train_dim1_1,29,30,,,,2,0,2,0,,,,,,,,,0,0,0,0,0,28,28,28,3,0,3,0,,,,,,,,,,,,,,,,,,,,,,,,,,,,,,,,,,,,,,,,,,,,,,,,,,,,,,,,,,,,,,,,30,,,,,,,,1207.4365752999984,1207.4365752999984,1207.4365752999984,1207.4365752999984,1207.4365752999984,up,0.29314370000065537,13,0,0,99,0.4,0.08000000000000003,up,0.20924100000047474,,,,,,,,,,,,,,,,,,,,,,,,,,,,,,,,,,,,,,,,,,,,,,,,,,,,,,,,,,,,0NPJWL,train_y,red_square,bottom_right,2025-01-22_16h54.00.436,HideSeek_v1,2022.2.5,59.944599201330384,
,7,2,7,6,0,4,12,,train_dim1_1,29,30,,,,2,0,2,0,,,,,,,,,0,0,0,0,0,28,28,28,4,0,4,0,,,,,,,,,,,,,,,,,,,,,,,,,,,,,,,,,,,,,,,,,,,,,,,,,,,,,,,,,,,,,,,,30,,,,,,,,1207.7370587999994,1207.7370587999994,1207.7370587999994,1207.7370587999994,1207.7370587999994,return,0.4101737000000867,14,0,0,1,0.4,0.08000000000000003,return,0.32757669999955397,67,1,0.4,0.08000000000000003,,,,,,,,,,,,,,,,,,,,,,,,,,,,,,,,,,,,,,,,,,,,,,,,,,,,,,,,0NPJWL,train_y,red_square,bottom_right,2025-01-22_16h54.00.436,HideSeek_v1,2022.2.5,59.944599201330384,
,5,1,5,2,0,1,15,,train_dim1_1,30,30,,,,2,0,2,0,,,,,,,,,0,0,0,0,0,29,29,29,0,0,0,0,,,,,,,,,,,,,,,,,,,,,,,,,stimuli/alien_stimuli/15.png,,,,,,,,,,,,,,,,,,,,,,,,,,,,,stimuli/alien_stimuli/12.png,12,7,31,,,,,,,30,,,,,,,,1212.4790187999988,1212.4790187999988,1212.4790187999988,1212.4790187999988,1212.4790187999988,up,1.7059394999996584,14,0,0,99,0.24,-0.24,up,1.623122400000284,,,,,1210.9230240999987,1212.4790187999988,0.4,0.08,0.32,0.0,-0.07999999999999999,0.4,0.4,0.4,0.08,1209.7009591999995,1209.7009591999995,1209.7009591999995,1209.7009591999995,1209.7009591999995,1209.7009591999995,1209.7009591999995,1209.7009591999995,1209.688735819999,1.3197600999992574,return,1.2008182000008674,,,,,,,,,,,,,,,,,,,,,,,,,,,,,,,,,0NPJWL,train_y,red_square,bottom_right,2025-01-22_16h54.00.436,HideSeek_v1,2022.2.5,59.944599201330384,
,5,1,5,2,0,1,15,,train_dim1_1,30,30,,,,2,0,2,0,,,,,,,,,0,0,0,0,0,29,29,29,1,0,1,0,,,,,,,,,,,,,,,,,,,,,,,,,,,,,,,,,,,,,,,,,,,,,,,,,,,,,,,,,,,,,,,,30,,,,,,,,1214.1935489999996,1214.1935489999996,1214.1935489999996,1214.1935489999996,1214.1935489999996,return,0.2926994999997987,15,0,0,1,0.24,-0.24,return,0.21384430000034627,68,1,0.24,-0.24,,,,,,,,,,,,,,,,,,,,,,,,,,,,,,,,,,,,,,,,,,,,,,,,,,,,,,,,0NPJWL,train_y,red_square,bottom_right,2025-01-22_16h54.00.436,HideSeek_v1,2022.2.5,59.944599201330384,
,,,,,,,,,,,30,,,,2,0,2,0,,,,,,,,,,,,,,,,,,,,,,,,,,,,,,,,,,,,,,,,,,,,,,,,,,,,,,,,,,,,,,,,,,,,,,,,,,stimuli/alien_stimuli/15.png,15,5,32,21,0.7,0.625,1,1,1,30,0,conditions/schedules/train_y_first/red_square_00/bottom_right/inputTrain_2.1.xlsx,99,1,2,1,0,,,,,,,,,,,1,,,,,,,,,1217.0115947999984,1218.5673193999992,0.24,-0.24,0.08,0.0,-0.28,0.24,0.24,0.24,-0.24,1216.0445882999993,1216.0445882999993,1216.0445882999993,1216.0445882999993,1216.0445882999993,1216.0445882999993,1216.0445882999993,1216.0445882999993,1216.0436592899991,1.0699961999998777,return,0.9499243999998725,0,0.9,0,1,15,,,,,,,,,,,,,,,,,,,,,,,,,,,,0NPJWL,train_y,red_square,bottom_right,2025-01-22_16h54.00.436,HideSeek_v1,2022.2.5,59.944599201330384,
,,,,,,,,,,,,,,,3,0,3,0,0,0,0,0,,,,,,,,,,,,,,,,,,,,,,,,,,,,,,,conditions/schedules/train_y_first/red_square_00/bottom_right/instructions/Slide17.png,conditions/schedules/train_y_first/red_square_00/bottom_right/instructions/Audio17.wav,1218.5673193999992,1218.5627114799984,17,"[6.672911999999997, 18.20089039999948, 17.013976600001115, 19.44701780000105, 4.412109399998371, 5.2043611999997665, 5.688394700000572, 12.325913599999694, 6.2144787999986875, 7.95401259999926, 10.888816300001054, 14.718904999999722, 20.473205700000108, 17.769539599999916, 43.17609160000029, 21.79915439999968, 47.9829791000011]","[0.035944799999924726, 0.1493112000007386, 0.031103799999982584, 0.07947039999999106, 0.10037310000006983, 0.11691950000022189, 0.09906269999919459, 0.04721329999847512, 0.18075230000067677, 0.06280060000062804, 0.12349760000142851, 14.71891180000057, 0.01390960000026098, 17.769548600001144, 0.09711009999955422, 21.799161699998876, 47.9829864000003]",0,,,,,,,,,,,,,,,,,,,,,,,,,,,,,,,,,,,,,,,,,,,,,,,,,,,,,,,,,,,,,,,,,,,,,,,,,,,,,,,,,,,,,,,,,,,,,,,,,,,,,,,,,,,,,,,,,,,,,,,,,,,,0NPJWL,train_y,red_square,bottom_right,2025-01-22_16h54.00.436,HideSeek_v1,2022.2.5,59.944599201330384,
,,,,,,,,,,,,,,,3,0,3,0,1,0,1,0,,,,,,,,,,,,,,,,,,,,,,,,,,,,,,,conditions/schedules/train_y_first/red_square_00/bottom_right/instructions/Slide18.png,conditions/schedules/train_y_first/red_square_00/bottom_right/instructions/Audio18.wav,1266.6153636,1266.6027142799987,18,"[6.672911999999997, 18.20089039999948, 17.013976600001115, 19.44701780000105, 4.412109399998371, 5.2043611999997665, 5.688394700000572, 12.325913599999694, 6.2144787999986875, 7.95401259999926, 10.888816300001054, 14.718904999999722, 20.473205700000108, 17.769539599999916, 43.17609160000029, 21.79915439999968, 47.9829791000011, 6.624144600000363]","[0.035944799999924726, 0.1493112000007386, 0.031103799999982584, 0.07947039999999106, 0.10037310000006983, 0.11691950000022189, 0.09906269999919459, 0.04721329999847512, 0.18075230000067677, 0.06280060000062804, 0.12349760000142851, 14.71891180000057, 0.01390960000026098, 17.769548600001144, 0.09711009999955422, 21.799161699998876, 0.014530200000081095, 6.624151300000449]",0,,,,,,,,,,,,,,,,,,,,,,,,,,,,,,,,,,,,,,,,,,,,,,,,,,,,,,,,,,,,,,,,,,,,,,,,,,,,,,,,,,,,,,,,,,,,,,,,,,,,,,,,,,,,,,,,,,,,,,,,,,,,0NPJWL,train_y,red_square,bottom_right,2025-01-22_16h54.00.436,HideSeek_v1,2022.2.5,59.944599201330384,
,,,,,,,,,,,,,,,3,0,3,0,2,0,2,0,,,,,,,,,,,,,,,,,,,,,,,,,,,,,,,conditions/schedules/train_y_first/red_square_00/bottom_right/instructions/Slide19.png,conditions/schedules/train_y_first/red_square_00/bottom_right/instructions/Audio19.wav,1273.2991898,1273.2914740799981,19,"[6.672911999999997, 18.20089039999948, 17.013976600001115, 19.44701780000105, 4.412109399998371, 5.2043611999997665, 5.688394700000572, 12.325913599999694, 6.2144787999986875, 7.95401259999926, 10.888816300001054, 14.718904999999722, 20.473205700000108, 17.769539599999916, 43.17609160000029, 21.79915439999968, 47.9829791000011, 6.624144600000363, 10.86549179999929]","[0.035944799999924726, 0.1493112000007386, 0.031103799999982584, 0.07947039999999106, 0.10037310000006983, 0.11691950000022189, 0.09906269999919459, 0.04721329999847512, 0.18075230000067677, 0.06280060000062804, 0.12349760000142851, 14.71891180000057, 0.01390960000026098, 17.769548600001144, 0.09711009999955422, 21.799161699998876, 0.014530200000081095, 0.07296299999870826, 10.86549869999908]",0,,,,,,,,,,,,,,,,,,,,,,,,,,,,,,,,,,,,,,,,,,,,,,,,,,,,,,,,,,,,,,,,,,,,,,,,,,,,,,,,,,,,,,,,,,,,,,,,,,,,,,,,,,,,,,,,,,,,,,,,,,,,0NPJWL,train_y,red_square,bottom_right,2025-01-22_16h54.00.436,HideSeek_v1,2022.2.5,59.944599201330384,
,,,,,,,,,,,,,,,3,0,3,0,3,0,3,0,,,,,,,,,,,,,,,,,,,,,,,,,,,,,,,conditions/schedules/train_y_first/red_square_00/bottom_right/instructions/Slide20.png,conditions/schedules/train_y_first/red_square_00/bottom_right/instructions/Audio20.wav,1284.2232921999985,1284.2172143799992,20,"[6.672911999999997, 18.20089039999948, 17.013976600001115, 19.44701780000105, 4.412109399998371, 5.2043611999997665, 5.688394700000572, 12.325913599999694, 6.2144787999986875, 7.95401259999926, 10.888816300001054, 14.718904999999722, 20.473205700000108, 17.769539599999916, 43.17609160000029, 21.79915439999968, 47.9829791000011, 6.624144600000363, 10.86549179999929, 0.030679899999086047]","[0.035944799999924726, 0.1493112000007386, 0.031103799999982584, 0.07947039999999106, 0.10037310000006983, 0.11691950000022189, 0.09906269999919459, 0.04721329999847512, 0.18075230000067677, 0.06280060000062804, 0.12349760000142851, 14.71891180000057, 0.01390960000026098, 17.769548600001144, 0.09711009999955422, 21.799161699998876, 0.014530200000081095, 0.07296299999870826, 10.86549869999908, 0.03068639999946754]",0,,,,,,,,,,,,,,,,,,,,,,,,,,,,,,,,,,,,,,,,,,,,,,,,,,,,,,,,,,,,,,,,,,,,,,,,,,,,,,,,,,,,,,,,,,,,,,,,,,,,,,,,,,,,,,,,,,,,,,,,,,,,0NPJWL,train_y,red_square,bottom_right,2025-01-22_16h54.00.436,HideSeek_v1,2022.2.5,59.944599201330384,
1,8,2,3,2,-5,0,66,2,instr_dim1_2,,,,,,3,0,3,0,,,,,0,0,0,0,,,,,,,,,,,,,,,,,,,,,,,,,,,,,,,,,,,,,stimuli/alien_stimuli/66.png,conditions/schedules/train_y_first/red_square_00/bottom_right/inputInstr_2.xlsx,stimuli/alien_stimuli/66.png,1284.3540513999997,1284.3540513999997,1284.3540513999997,1284.3540513999997,1284.3396826199994,return,12.478653799998938,"[-0.16, -0.08, 0, 0.08, 0.16, 0.24, 0.32, 0.4, 0.48, 0.56]","[-0.4, -0.32, -0.24, -0.16, -0.08, 0, 0.08, 0.16, 0.24, 0.32]",2,2,3,8,0.0,0.4,1296.996986799999,1296.996986799999,1296.996986799999,1296.996986799999,1296.996986799999,1296.996986799999,1296.996986799999,1296.9778640599982,7.574019600000611,return,7.417204700001093,stimuli/alien_stimuli/66.png,66,8,1,,,,,,,,,,,,,,,,,,,,,,,,,,,,,,,,,,,,,,,,,,,,,,,,,,,,,,,,,,,,,,,,,,,,,,,,,,,,,,,,,,,,,,,,,0NPJWL,train_y,red_square,bottom_right,2025-01-22_16h54.00.436,HideSeek_v1,2022.2.5,59.944599201330384,
,,,,,,,,,,,30,,,,3,0,3,0,,,,,,,,,,,,,,,,,,,,,,,,,,,,,,,,,,,,,,,,,,,,,,,,,,,,,,,,,,,,,,,,,,,,,,,,,,,,,,21,0.7,0.625,1,99,2,30,0,conditions/schedules/train_y_first/red_square_00/bottom_right/inputTrain_2.1.xlsx,99,1,2,1,0,,,,,,,,,,,,,,,,,,,,,,,,,,,,,,,,,,,,,,,,,,,,,,,,,,,,,,,,,,,,,,,,,,,,,,,,,,,0NPJWL,train_y,red_square,bottom_right,2025-01-22_16h54.00.436,HideSeek_v1,2022.2.5,59.944599201330384,
,,,,,,,,,,,,,,,4,0,4,0,0,0,0,0,,,,,,,,,,,,,,,,,,,,,,,,,,,,,,,conditions/schedules/train_y_first/red_square_00/bottom_right/instructions/Slide21.png,conditions/schedules/train_y_first/red_square_00/bottom_right/instructions/Audio21.wav,1304.5609726999992,1304.550806659998,21,"[6.672911999999997, 18.20089039999948, 17.013976600001115, 19.44701780000105, 4.412109399998371, 5.2043611999997665, 5.688394700000572, 12.325913599999694, 6.2144787999986875, 7.95401259999926, 10.888816300001054, 14.718904999999722, 20.473205700000108, 17.769539599999916, 43.17609160000029, 21.79915439999968, 47.9829791000011, 6.624144600000363, 10.86549179999929, 0.030679899999086047, 13.981684200000018]","[0.035944799999924726, 0.1493112000007386, 0.031103799999982584, 0.07947039999999106, 0.10037310000006983, 0.11691950000022189, 0.09906269999919459, 0.04721329999847512, 0.18075230000067677, 0.06280060000062804, 0.12349760000142851, 14.71891180000057, 0.01390960000026098, 17.769548600001144, 0.09711009999955422, 21.799161699998876, 0.014530200000081095, 0.07296299999870826, 10.86549869999908, 0.03068639999946754, 13.981691399998454]",0,,,,,,,,,,,,,,,,,,,,,,,,,,,,,,,,,,,,,,,,,,,,,,,,,,,,,,,,,,,,,,,,,,,,,,,,,,,,,,,,,,,,,,,,,,,,,,,,,,,,,,,,,,,,,,,,,,,,,,,,,,,,0NPJWL,train_y,red_square,bottom_right,2025-01-22_16h54.00.436,HideSeek_v1,2022.2.5,59.944599201330384,
2,9,0,9,0,0,0,16,2,instr_dim1_2,,,,,,4,0,4,0,,,,,0,0,0,0,,,,,,,,,,,,,,,,,,,,,,,,,,,,,,,,,,,,,stimuli/alien_stimuli/16.png,conditions/schedules/train_y_first/red_square_00/bottom_right/inputInstr_2.xlsx,stimuli/alien_stimuli/16.png,1318.644629299999,1318.644629299999,1318.644629299999,1318.644629299999,1318.6456394899983,return,6.22310970000035,"[-0.16, -0.08, 0, 0.08, 0.16, 0.24, 0.32, 0.4, 0.48, 0.56]","[-0.4, -0.32, -0.24, -0.16, -0.08, 0, 0.08, 0.16, 0.24, 0.32]",0,0,9,9,0.0,0.0,1325.0045425999997,1325.0045425999997,1325.0045425999997,1325.0045425999997,1325.0045425999997,1325.0045425999997,1325.0045425999997,1324.9844573899995,6.656429599999683,return,6.517332100000203,stimuli/alien_stimuli/16.png,16,9,2,,,,,,,,,,,,,,,,,,,,,,,,,,,,,,,,,,,,,,,,,,,,,,,,,,,,,,,,,,,,,,,,,,,,,,,,,,,,,,,,,,,,,,,,,0NPJWL,train_y,red_square,bottom_right,2025-01-22_16h54.00.436,HideSeek_v1,2022.2.5,59.944599201330384,
,,,,,,,,,,,30,,,,4,0,4,0,,,,,,,,,,,,,,,,,,,,,,,,,,,,,,,,,,,,,,,,,,,,,,,,,,,,,,,,,,,,,,,,,,,,,,,,,,,,,,21,0.7,0.625,1,99,2,30,0,conditions/schedules/train_y_first/red_square_00/bottom_right/inputTrain_2.1.xlsx,99,1,2,1,0,,,,,,,,,,,,,,,,,,,,,,,,,,,,,,,,,,,,,,,,,,,,,,,,,,,,,,,,,,,,,,,,,,,,,,,,,,,0NPJWL,train_y,red_square,bottom_right,2025-01-22_16h54.00.436,HideSeek_v1,2022.2.5,59.944599201330384,
,,,,,,,,,,,,,,,5,0,5,0,0,0,0,0,,,,,,,,,,,,,,,,,,,,,,,,,,,,,,,conditions/schedules/train_y_first/red_square_00/bottom_right/instructions/Slide22.png,conditions/schedules/train_y_first/red_square_00/bottom_right/instructions/Audio22.wav,1331.6792148999994,1331.6731687299982,22,"[6.672911999999997, 18.20089039999948, 17.013976600001115, 19.44701780000105, 4.412109399998371, 5.2043611999997665, 5.688394700000572, 12.325913599999694, 6.2144787999986875, 7.95401259999926, 10.888816300001054, 14.718904999999722, 20.473205700000108, 17.769539599999916, 43.17609160000029, 21.79915439999968, 47.9829791000011, 6.624144600000363, 10.86549179999929, 0.030679899999086047, 13.981684200000018, 30.967012300001443]","[0.035944799999924726, 0.1493112000007386, 0.031103799999982584, 0.07947039999999106, 0.10037310000006983, 0.11691950000022189, 0.09906269999919459, 0.04721329999847512, 0.18075230000067677, 0.06280060000062804, 0.12349760000142851, 14.71891180000057, 0.01390960000026098, 17.769548600001144, 0.09711009999955422, 21.799161699998876, 0.014530200000081095, 0.07296299999870826, 10.86549869999908, 0.03068639999946754, 13.981691399998454, 30.967021000000386]",0,,,,,,,,,,,,,,,,,,,,,,,,,,,,,,,,,,,,,,,,,,,,,,,,,,,,,,,,,,,,,,,,,,,,,,,,,,,,,,,,,,,,,,,,,,,,,,,,,,,,,,,,,,,,,,,,,,,,,,,,,,,,0NPJWL,train_y,red_square,bottom_right,2025-01-22_16h54.00.436,HideSeek_v1,2022.2.5,59.944599201330384,
,7,1,4,1,-3,0,46,,train_dim1_2,1,30,,,,5,0,5,0,,,,,,,,,0,0,0,0,0,0,0,0,0,0,0,0,,,,,,,,,,,,,,,,,,,,,,,,,stimuli/alien_stimuli/46.png,,,,,,,,,,,,,,,,,,,,,,,,,,,,,,,,,,,,,,,30,,,,,,,,1362.7466288999985,1362.7466288999985,1362.7466288999985,1362.7466288999985,1362.7466288999985,left,3.7802589000002627,0,0,0,99,0.32,-0.32,left,3.6896230000002106,,,,,,,,,,,,,,,,,,,,,,,,,,,,,,,,,,,,,,,,,,,,,,,,,,,,,,,,,,,,0NPJWL,train_y,red_square,bottom_right,2025-01-22_16h54.00.436,HideSeek_v1,2022.2.5,59.944599201330384,
,7,1,4,1,-3,0,46,,train_dim1_2,1,30,,,,5,0,5,0,,,,,,,,,0,0,0,0,0,0,0,0,1,0,1,0,,,,,,,,,,,,,,,,,,,,,,,,,,,,,,,,,,,,,,,,,,,,,,,,,,,,,,,,,,,,,,,,30,,,,,,,,1366.5167152999984,1366.5167152999984,1366.5167152999984,1366.5167152999984,1366.5167152999984,left,0.2581324000002496,0,0,0,99,0.24,-0.32,left,0.17059929999959422,,,,,,,,,,,,,,,,,,,,,,,,,,,,,,,,,,,,,,,,,,,,,,,,,,,,,,,,,,,,0NPJWL,train_y,red_square,bottom_right,2025-01-22_16h54.00.436,HideSeek_v1,2022.2.5,59.944599201330384,
,7,1,4,1,-3,0,46,,train_dim1_2,1,30,,,,5,0,5,0,,,,,,,,,0,0,0,0,0,0,0,0,2,0,2,0,,,,,,,,,,,,,,,,,,,,,,,,,,,,,,,,,,,,,,,,,,,,,,,,,,,,,,,,,,,,,,,,30,,,,,,,,1366.7819263000001,1366.7819263000001,1366.7819263000001,1366.7819263000001,1366.7819263000001,return,1.5277774999995017,0,1,0,0,0.24,-0.32,return,1.455923100000291,68,-1,0.24,-0.32,,,,,,,,,,,,,,,,,,,,,,,,,,,,,,,,,,,,,,,,,,,,,,,,,,,,,,,,0NPJWL,train_y,red_square,bottom_right,2025-01-22_16h54.00.436,HideSeek_v1,2022.2.5,59.944599201330384,
,7,4,7,4,0,0,16,,train_dim1_2,2,30,,,,5,0,5,0,,,,,,,,,0,0,0,0,0,1,1,1,0,0,0,0,,,,,,,,,,,,,,,,,,,,,,,,,stimuli/alien_stimuli/16.png,,,,,,,,,,,,,,,,,,,,,,,,,,,,,stimuli/alien_stimuli/46.png,46,7,3,,,,,,,30,,,,,,,,1373.7664208999995,1373.7664208999995,1373.7664208999995,1373.7664208999995,1373.7664208999995,up,2.472005999999965,0,1,0,99,0.4,0.0,up,2.368956399999661,,,,,1372.1901277999987,1373.7664208999995,0.16,-0.32,0.0,0.24,-0.32,0.16,0.28,0.16,-0.32,1369.8852843999994,1369.8852843999994,1369.8852843999994,1369.8852843999994,1369.8852843999994,1369.8852843999994,1369.8852843999994,1369.8852843999994,1369.871403589998,2.4206360000007408,return,2.2727350999994087,,,,,,,,,,,,,,,,,,,,,,,,,,,,,,,,,0NPJWL,train_y,red_square,bottom_right,2025-01-22_16h54.00.436,HideSeek_v1,2022.2.5,59.944599201330384,
,7,4,7,4,0,0,16,,train_dim1_2,2,30,,,,5,0,5,0,,,,,,,,,0,0,0,0,0,1,1,1,1,0,1,0,,,,,,,,,,,,,,,,,,,,,,,,,,,,,,,,,,,,,,,,,,,,,,,,,,,,,,,,,,,,,,,,30,,,,,,,,1376.2272678999998,1376.2272678999998,1376.2272678999998,1376.2272678999998,1376.2272678999998,up,0.1762842999996792,0,1,0,99,0.4,0.08,up,0.08742329999950016,,,,,,,,,,,,,,,,,,,,,,,,,,,,,,,,,,,,,,,,,,,,,,,,,,,,,,,,,,,,0NPJWL,train_y,red_square,bottom_right,2025-01-22_16h54.00.436,HideSeek_v1,2022.2.5,59.944599201330384,
,7,4,7,4,0,0,16,,train_dim1_2,2,30,,,,5,0,5,0,,,,,,,,,0,0,0,0,0,1,1,1,2,0,2,0,,,,,,,,,,,,,,,,,,,,,,,,,,,,,,,,,,,,,,,,,,,,,,,,,,,,,,,,,,,,,,,,30,,,,,,,,1376.4104776999993,1376.4104776999993,1376.4104776999993,1376.4104776999993,1376.4104776999993,up,0.22626739999941492,0,1,0,99,0.4,0.16,up,0.13639340000008815,,,,,,,,,,,,,,,,,,,,,,,,,,,,,,,,,,,,,,,,,,,,,,,,,,,,,,,,,,,,0NPJWL,train_y,red_square,bottom_right,2025-01-22_16h54.00.436,HideSeek_v1,2022.2.5,59.944599201330384,
,7,4,7,4,0,0,16,,train_dim1_2,2,30,,,,5,0,5,0,,,,,,,,,0,0,0,0,0,1,1,1,3,0,3,0,,,,,,,,,,,,,,,,,,,,,,,,,,,,,,,,,,,,,,,,,,,,,,,,,,,,,,,,,,,,,,,,30,,,,,,,,1376.6466124999988,1376.6466124999988,1376.6466124999988,1376.6466124999988,1376.6466124999988,return,0.3739449999993667,0,0,0,0,0.4,0.16,return,0.2906431999999768,71,-1,0.4,0.16,,,,,,,,,,,,,,,,,,,,,,,,,,,,,,,,,,,,,,,,,,,,,,,,,,,,,,,,0NPJWL,train_y,red_square,bottom_right,2025-01-22_16h54.00.436,HideSeek_v1,2022.2.5,59.944599201330384,
,9,4,8,4,-1,0,26,,train_dim1_2,3,30,,,,5,0,5,0,,,,,,,,,0,0,0,0,0,2,2,2,0,0,0,0,,,,,,,,,,,,,,,,,,,,,,,,,stimuli/alien_stimuli/26.png,,,,,,,,,,,,,,,,,,,,,,,,,,,,,stimuli/alien_stimuli/16.png,16,7,4,,,,,,,30,,,,,,,,1382.3347859999994,1382.3347859999994,1382.3347859999994,1382.3347859999994,1382.3347859999994,up,2.489907900000617,0,0,0,99,0.56,0.0,up,2.3836306000011973,,,,,1380.7638244999998,1382.3347859999994,0.4,-0.08,0.0,0.0,-0.08,0.4,0.4,0.4,-0.08,1378.5829767999985,1378.5829767999985,1378.5829767999985,1378.5829767999985,1378.5829767999985,1378.5829767999985,1378.5829767999985,1378.5829767999985,1378.5621363199996,2.2874830000000657,return,2.149895500000639,,,,,,,,,,,,,,,,,,,,,,,,,,,,,,,,,0NPJWL,train_y,red_square,bottom_right,2025-01-22_16h54.00.436,HideSeek_v1,2022.2.5,59.944599201330384,
,9,4,8,4,-1,0,26,,train_dim1_2,3,30,,,,5,0,5,0,,,,,,,,,0,0,0,0,0,2,2,2,1,0,1,0,,,,,,,,,,,,,,,,,,,,,,,,,,,,,,,,,,,,,,,,,,,,,,,,,,,,,,,,,,,,,,,,30,,,,,,,,1384.8180116999993,1384.8180116999993,1384.8180116999993,1384.8180116999993,1384.8180116999993,up,0.39303319999999076,0,0,0,99,0.56,0.08,up,0.30716430000029504,,,,,,,,,,,,,,,,,,,,,,,,,,,,,,,,,,,,,,,,,,,,,,,,,,,,,,,,,,,,0NPJWL,train_y,red_square,bottom_right,2025-01-22_16h54.00.436,HideSeek_v1,2022.2.5,59.944599201330384,
,9,4,8,4,-1,0,26,,train_dim1_2,3,30,,,,5,0,5,0,,,,,,,,,0,0,0,0,0,2,2,2,2,0,2,0,,,,,,,,,,,,,,,,,,,,,,,,,,,,,,,,,,,,,,,,,,,,,,,,,,,,,,,,,,,,,,,,30,,,,,,,,1385.2187718999994,1385.2187718999994,1385.2187718999994,1385.2187718999994,1385.2187718999994,up,0.5932997999989311,0,0,0,99,0.56,0.16,up,0.5010779000003822,,,,,,,,,,,,,,,,,,,,,,,,,,,,,,,,,,,,,,,,,,,,,,,,,,,,,,,,,,,,0NPJWL,train_y,red_square,bottom_right,2025-01-22_16h54.00.436,HideSeek_v1,2022.2.5,59.944599201330384,
,9,4,8,4,-1,0,26,,train_dim1_2,3,30,,,,5,0,5,0,,,,,,,,,0,0,0,0,0,2,2,2,3,0,3,0,,,,,,,,,,,,,,,,,,,,,,,,,,,,,,,,,,,,,,,,,,,,,,,,,,,,,,,,,,,,,,,,30,,,,,,,,1385.8173324999989,1385.8173324999989,1385.8173324999989,1385.8173324999989,1385.8173324999989,return,0.660468199999741,0,0,0,0,0.56,0.16,return,0.5742871999991621,74,-1,0.56,0.16,,,,,,,,,,,,,,,,,,,,,,,,,,,,,,,,,,,,,,,,,,,,,,,,,,,,,,,,0NPJWL,train_y,red_square,bottom_right,2025-01-22_16h54.00.436,HideSeek_v1,2022.2.5,59.944599201330384,
,7,3,3,3,-4,0,56,,train_dim1_2,4,30,,,,5,0,5,0,,,,,,,,,0,0,0,0,0,3,3,3,0,0,0,0,,,,,,,,,,,,,,,,,,,,,,,,,stimuli/alien_stimuli/56.png,,,,,,,,,,,,,,,,,,,,,,,,,,,,,stimuli/alien_stimuli/26.png,26,9,5,,,,,,,30,,,,,,,,1390.9746053999988,1390.9746053999988,1390.9746053999988,1390.9746053999988,1390.9746053999988,right,2.724577599999975,0,0,0,99,0.48000000000000004,-0.16,right,2.6226707999994687,,,,,1389.404641699999,1390.9746053999988,0.48,-0.08,0.0,0.08,-0.08,0.48,0.52,0.48,-0.08,1388.0459407999988,1388.0459407999988,1388.0459407999988,1388.0459407999988,1388.0459407999988,1388.0459407999988,1388.0459407999988,1388.0459407999988,1388.0363540899984,1.470503300000928,return,1.3285703000001376,,,,,,,,,,,,,,,,,,,,,,,,,,,,,,,,,0NPJWL,train_y,red_square,bottom_right,2025-01-22_16h54.00.436,HideSeek_v1,2022.2.5,59.944599201330384,
,7,3,3,3,-4,0,56,,train_dim1_2,4,30,,,,5,0,5,0,,,,,,,,,0,0,0,0,0,3,3,3,1,0,1,0,,,,,,,,,,,,,,,,,,,,,,,,,,,,,,,,,,,,,,,,,,,,,,,,,,,,,,,,,,,,,,,,30,,,,,,,,1393.6894268999986,1393.6894268999986,1393.6894268999986,1393.6894268999986,1393.6894268999986,return,1.8277596999996604,0,0,0,0,0.48000000000000004,-0.16,return,1.7483282000011968,74,0,0.48000000000000004,-0.16,,,,,,,,,,,,,,,,,,,,,,,,,,,,,,,,,,,,,,,,,,,,,,,,,,,,,,,,0NPJWL,train_y,red_square,bottom_right,2025-01-22_16h54.00.436,HideSeek_v1,2022.2.5,59.944599201330384,
,5,2,0,2,-5,0,66,,train_dim1_2,5,30,,,,5,0,5,0,,,,,,,,,0,0,0,0,0,4,4,4,0,0,0,0,,,,,,,,,,,,,,,,,,,,,,,,,stimuli/alien_stimuli/66.png,,,,,,,,,,,,,,,,,,,,,,,,,,,,,stimuli/alien_stimuli/56.png,56,7,6,,,,,,,30,,,,,,,,1400.4351802,1400.4351802,1400.4351802,1400.4351802,1400.4351802,left,2.439973499998814,0,0,0,99,0.15999999999999998,-0.24,left,2.3341557000003377,,,,,1398.8624498999998,1400.4351802,0.08,-0.16,0.0,0.32,-0.16,0.08,0.24000000000000002,0.08,-0.16,1397.0806689,1397.0806689,1397.0806689,1397.0806689,1397.0806689,1397.0806689,1397.0806689,1397.0806689,1397.0608501199993,1.8870246000005864,return,1.7628294000005553,,,,,,,,,,,,,,,,,,,,,,,,,,,,,,,,,0NPJWL,train_y,red_square,bottom_right,2025-01-22_16h54.00.436,HideSeek_v1,2022.2.5,59.944599201330384,
,5,2,0,2,-5,0,66,,train_dim1_2,5,30,,,,5,0,5,0,,,,,,,,,0,0,0,0,0,4,4,4,1,0,1,0,,,,,,,,,,,,,,,,,,,,,,,,,,,,,,,,,,,,,,,,,,,,,,,,,,,,,,,,,,,,,,,,30,,,,,,,,1402.8620682,1402.8620682,1402.8620682,1402.8620682,1402.8620682,left,0.3264370000015333,0,0,0,99,0.07999999999999997,-0.24,left,0.24945829999887792,,,,,,,,,,,,,,,,,,,,,,,,,,,,,,,,,,,,,,,,,,,,,,,,,,,,,,,,,,,,0NPJWL,train_y,red_square,bottom_right,2025-01-22_16h54.00.436,HideSeek_v1,2022.2.5,59.944599201330384,
,5,2,0,2,-5,0,66,,train_dim1_2,5,30,,,,5,0,5,0,,,,,,,,,0,0,0,0,0,4,4,4,2,0,2,0,,,,,,,,,,,,,,,,,,,,,,,,,,,,,,,,,,,,,,,,,,,,,,,,,,,,,,,,,,,,,,,,30,,,,,,,,1403.195369699999,1403.195369699999,1403.195369699999,1403.195369699999,1403.195369699999,left,0.27573259999917354,0,0,0,99,-2.7755575615628914e-17,-0.24,left,0.20408560000032594,,,,,,,,,,,,,,,,,,,,,,,,,,,,,,,,,,,,,,,,,,,,,,,,,,,,,,,,,,,,0NPJWL,train_y,red_square,bottom_right,2025-01-22_16h54.00.436,HideSeek_v1,2022.2.5,59.944599201330384,
