trialInstr,x_fixStart,y_fixStart,x_corrSteps,y_corrSteps,x_nrSteps,y_nrSteps,alienID,trialLength,version,trialTrain,praclen,testlen,trial_label,break_on_off,beforeExpLoop.thisRepN,beforeExpLoop.thisTrialN,beforeExpLoop.thisN,beforeExpLoop.thisIndex,mini_instr_trials.thisRepN,mini_instr_trials.thisTrialN,mini_instr_trials.thisN,mini_instr_trials.thisIndex,instrLoop.thisRepN,instrLoop.thisTrialN,instrLoop.thisN,instrLoop.thisIndex,repeat_prac.thisRepN,repeat_prac.thisTrialN,repeat_prac.thisN,repeat_prac.thisIndex,trainLoop.thisRepN,trainLoop.thisTrialN,trainLoop.thisN,trainLoop.thisIndex,moveLoop_train.thisRepN,moveLoop_train.thisTrialN,moveLoop_train.thisN,moveLoop_train.thisIndex,experiment.thisRepN,experiment.thisTrialN,experiment.thisN,experiment.thisIndex,moveLoop_test.thisRepN,moveLoop_test.thisTrialN,moveLoop_test.thisN,moveLoop_test.thisIndex,mini_instr2_trials.thisRepN,mini_instr2_trials.thisTrialN,mini_instr2_trials.thisN,mini_instr2_trials.thisIndex,start_all_time,url,slideStim,audioStim,slides.started,sounds.started,nextButton.numClicks,nextButton.timesOn,nextButton.timesOff,prev_but.numClicks,prev_but.timesOn,prev_but.timesOff,alienStim,instrFile,alienStim_instr,gridImage_instr.started,startPos_3.started,key_instr.started,alienImage_3.started,sounds_1.started,key_instr.keys,key_instr.rt,all_x,all_y,FBy_corrSteps,FBy_fixStart,FBx_corrSteps,FBx_fixStart,FBy_pathSize_check,FBx_pathSize_check,gridImage_9.started,alienImageFB_3.started,startPosFB_3.started,keyFB_3.started,pathLine_ydir_2.started,pathLine_xdir_2.started,alienFace_3.started,sounds_2.started,RTFB_instr,keyFB_3.keys,keyFB_3.rt,draw_alienStim,draw_alienID,test_x,nrepcount,perfthres,percthres,earlierperf,earlystop,nextPrac,fileidx,praclen,saveACC_train,pracFile,nextPrac_train,addNrep,fileidx_endr,repExp,showearly,gridImage_4.started,startPos.started,movePos.started,key_resp.started,alienImage.started,wLy_dir,wLx_dir,x_movePos,y_movePos,buttonPress_train,RTchoice_train,cumAcctrain,aCorr,saveACC_choice,corrAns,x_movePos_end,y_movePos_end,key_resp.keys,key_resp.rt,text_2.started,text_2.stopped,aft_x_corrPos,aft_y_corrPos,y_pathSize_check,x_pathSize_check,y_pathdirY,x_pathdirY,x_pathdirX,x_corrPos,y_corrPos,gridImage_6.started,alienImageFB_2.started,startPosFB_2.started,movePosFB_2.started,keyFB_2.started,pathLine_xdir.started,pathLine_ydir.started,alienFace.started,sounds_4.started,RT_FBtrain,keyFB_2.keys,keyFB_2.rt,saveACC_pre,ACC,within_saveACC_train,earlystop_wloop,cumAcctrain_check,gridImage_3.started,alienImage_test.started,startPos_test.started,movePos_test.started,key_resp_test.started,wLy_dir_test,wLx_dir_test,buttonPress_test,RTchoice_test,cumAcctest,corrAns_test,key_resp_test.keys,key_resp_test.rt,text_3.started,text_3.stopped,total_time,end_all_time,key_resp_3.keys,slides_2.started,sounds_3.started,nextButton_2.numClicks,nextButton_2.timesOn,nextButton_2.timesOff,prev_but_2.numClicks,prev_but_2.timesOn,prev_but_2.timesOff,bye.started,participant,train_first,00_coordinate,starting corner,date,expName,psychopyVersion,frameRate,
,,,,,,,,,,,,,,,0,0,0,0,0,0,0,0,,,,,,,,,,,,,,,,,,,,,,,,,,,,,start_all_time,testround,conditions/schedules/train_y_first/red_square_00/bottom_left/instructions/Slide1.png,conditions/schedules/train_y_first/red_square_00/bottom_left/instructions/Audio1.wav,33.16533540003002,33.105212301248685,1,[20.55779719981365],[20.557808799901977],0,,,,,,,,,,,,,,,,,,,,,,,,,,,,,,,,,,,,,,,,,,,,,,,,,,,,,,,,,,,,,,,,,,,,,,,,,,,,,,,,,,,,,,,,,,,,,,,,,,,,,,,,,,,,,,,,,,,,,,,,,,,,0Q50WN,train_y,red_square,bottom_left,2025-09-13_10h12.14.557,HideSeek_v1,2022.2.5,59.89056798545768,
,,,,,,,,,,,,,,,0,0,0,0,1,0,1,0,,,,,,,,,,,,,,,,,,,,,,,,,,,,,,,conditions/schedules/train_y_first/red_square_00/bottom_left/instructions/Slide2.png,conditions/schedules/train_y_first/red_square_00/bottom_left/instructions/Audio2.wav,53.748039699858055,53.7407847000286,2,"[20.55779719981365, 17.454602600075305]","[0.01438189996406436, 17.454609300009906]",0,,,,,,,,,,,,,,,,,,,,,,,,,,,,,,,,,,,,,,,,,,,,,,,,,,,,,,,,,,,,,,,,,,,,,,,,,,,,,,,,,,,,,,,,,,,,,,,,,,,,,,,,,,,,,,,,,,,,,,,,,,,,0Q50WN,train_y,red_square,bottom_left,2025-09-13_10h12.14.557,HideSeek_v1,2022.2.5,59.89056798545768,
,,,,,,,,,,,,,,,0,0,0,0,2,0,2,0,,,,,,,,,,,,,,,,,,,,,,,,,,,,,,,conditions/schedules/train_y_first/red_square_00/bottom_left/instructions/Slide3.png,conditions/schedules/train_y_first/red_square_00/bottom_left/instructions/Audio3.wav,71.28186999983154,71.27164499997161,3,"[20.55779719981365, 17.454602600075305, 16.367915299953893]","[0.01438189996406436, 0.014326300006359816, 16.367922200122848]",0,,,,,,,,,,,,,,,,,,,,,,,,,,,,,,,,,,,,,,,,,,,,,,,,,,,,,,,,,,,,,,,,,,,,,,,,,,,,,,,,,,,,,,,,,,,,,,,,,,,,,,,,,,,,,,,,,,,,,,,,,,,,0Q50WN,train_y,red_square,bottom_left,2025-09-13_10h12.14.557,HideSeek_v1,2022.2.5,59.89056798545768,
,,,,,,,,,,,,,,,0,0,0,0,3,0,3,0,,,,,,,,,,,,,,,,,,,,,,,,,,,,,,,conditions/schedules/train_y_first/red_square_00/bottom_left/instructions/Slide4.png,conditions/schedules/train_y_first/red_square_00/bottom_left/instructions/Audio4.wav,87.72996179992333,87.71866829995997,4,"[20.55779719981365, 17.454602600075305, 16.367915299953893, 18.785638900008053]","[0.01438189996406436, 0.014326300006359816, 0.014614100102335215, 18.78564519993961]",0,,,,,,,,,,,,,,,,,,,,,,,,,,,,,,,,,,,,,,,,,,,,,,,,,,,,,,,,,,,,,,,,,,,,,,,,,,,,,,,,,,,,,,,,,,,,,,,,,,,,,,,,,,,,,,,,,,,,,,,,,,,,0Q50WN,train_y,red_square,bottom_left,2025-09-13_10h12.14.557,HideSeek_v1,2022.2.5,59.89056798545768,
,,,,,,,,,,,,,,,0,0,0,0,4,0,4,0,,,,,,,,,,,,,,,,,,,,,,,,,,,,,,,conditions/schedules/train_y_first/red_square_00/bottom_left/instructions/Slide5.png,conditions/schedules/train_y_first/red_square_00/bottom_left/instructions/Audio5.wav,106.58330609998666,106.58443769998848,5,"[20.55779719981365, 17.454602600075305, 16.367915299953893, 18.785638900008053, 4.019145000027493]","[0.01438189996406436, 0.014326300006359816, 0.014614100102335215, 0.014365399954840541, 4.019151800079271]",0,,,,,,,,,,,,,,,,,,,,,,,,,,,,,,,,,,,,,,,,,,,,,,,,,,,,,,,,,,,,,,,,,,,,,,,,,,,,,,,,,,,,,,,,,,,,,,,,,,,,,,,,,,,,,,,,,,,,,,,,,,,,0Q50WN,train_y,red_square,bottom_left,2025-09-13_10h12.14.557,HideSeek_v1,2022.2.5,59.89056798545768,
,,,,,,,,,,,,,,,0,0,0,0,5,0,5,0,,,,,,,,,,,,,,,,,,,,,,,,,,,,,,,conditions/schedules/train_y_first/red_square_00/bottom_left/instructions/Slide6.png,conditions/schedules/train_y_first/red_square_00/bottom_left/instructions/Audio6.wav,110.65244259987958,110.65461038001813,6,"[20.55779719981365, 17.454602600075305, 16.367915299953893, 18.785638900008053, 4.019145000027493, 4.386381699936464]","[0.01438189996406436, 0.014326300006359816, 0.014614100102335215, 0.014365399954840541, 0.049508600030094385, 4.386389299994335]",0,,,,,,,,,,,,,,,,,,,,,,,,,,,,,,,,,,,,,,,,,,,,,,,,,,,,,,,,,,,,,,,,,,,,,,,,,,,,,,,,,,,,,,,,,,,,,,,,,,,,,,,,,,,,,,,,,,,,,,,,,,,,0Q50WN,train_y,red_square,bottom_left,2025-09-13_10h12.14.557,HideSeek_v1,2022.2.5,59.89056798545768,
,,,,,,,,,,,,,,,0,0,0,0,6,0,6,0,,,,,,,,,,,,,,,,,,,,,,,,,,,,,,,conditions/schedules/train_y_first/red_square_00/bottom_left/instructions/Slide7.png,conditions/schedules/train_y_first/red_square_00/bottom_left/instructions/Audio7.wav,115.09016869985498,115.09121168004349,7,"[20.55779719981365, 17.454602600075305, 16.367915299953893, 18.785638900008053, 4.019145000027493, 4.386381699936464, 5.103291800012812]","[0.01438189996406436, 0.014326300006359816, 0.014614100102335215, 0.014365399954840541, 0.049508600030094385, 0.06569750001654029, 5.103298400063068]",0,,,,,,,,,,,,,,,,,,,,,,,,,,,,,,,,,,,,,,,,,,,,,,,,,,,,,,,,,,,,,,,,,,,,,,,,,,,,,,,,,,,,,,,,,,,,,,,,,,,,,,,,,,,,,,,,,,,,,,,,,,,,0Q50WN,train_y,red_square,bottom_left,2025-09-13_10h12.14.557,HideSeek_v1,2022.2.5,59.89056798545768,
,,,,,,,,,,,,,,,0,0,0,0,7,0,7,0,,,,,,,,,,,,,,,,,,,,,,,,,,,,,,,conditions/schedules/train_y_first/red_square_00/bottom_left/instructions/Slide8.png,conditions/schedules/train_y_first/red_square_00/bottom_left/instructions/Audio8.wav,120.2476548999548,120.24571508001536,8,"[20.55779719981365, 17.454602600075305, 16.367915299953893, 18.785638900008053, 4.019145000027493, 4.386381699936464, 5.103291800012812, 11.271854999940842]","[0.01438189996406436, 0.014326300006359816, 0.014614100102335215, 0.014365399954840541, 0.049508600030094385, 0.06569750001654029, 0.03073900006711483, 11.27186209987849]",0,,,,,,,,,,,,,,,,,,,,,,,,,,,,,,,,,,,,,,,,,,,,,,,,,,,,,,,,,,,,,,,,,,,,,,,,,,,,,,,,,,,,,,,,,,,,,,,,,,,,,,,,,,,,,,,,,,,,,,,,,,,,0Q50WN,train_y,red_square,bottom_left,2025-09-13_10h12.14.557,HideSeek_v1,2022.2.5,59.89056798545768,
,,,,,,,,,,,,,,,0,0,0,0,8,0,8,0,,,,,,,,,,,,,,,,,,,,,,,,,,,,,,,conditions/schedules/train_y_first/red_square_00/bottom_left/instructions/Slide9.png,conditions/schedules/train_y_first/red_square_00/bottom_left/instructions/Audio9.wav,131.58655179990456,131.58841930003837,9,"[20.55779719981365, 17.454602600075305, 16.367915299953893, 18.785638900008053, 4.019145000027493, 4.386381699936464, 5.103291800012812, 11.271854999940842, 5.487834500148892]","[0.01438189996406436, 0.014326300006359816, 0.014614100102335215, 0.014365399954840541, 0.049508600030094385, 0.06569750001654029, 0.03073900006711483, 0.06684750015847385, 5.487841000081971]",0,,,,,,,,,,,,,,,,,,,,,,,,,,,,,,,,,,,,,,,,,,,,,,,,,,,,,,,,,,,,,,,,,,,,,,,,,,,,,,,,,,,,,,,,,,,,,,,,,,,,,,,,,,,,,,,,,,,,,,,,,,,,0Q50WN,train_y,red_square,bottom_left,2025-09-13_10h12.14.557,HideSeek_v1,2022.2.5,59.89056798545768,
,,,,,,,,,,,,,,,0,0,0,0,9,0,9,0,,,,,,,,,,,,,,,,,,,,,,,,,,,,,,,conditions/schedules/train_y_first/red_square_00/bottom_left/instructions/Slide10.png,conditions/schedules/train_y_first/red_square_00/bottom_left/instructions/Audio10.wav,137.1134299999103,137.10977915991097,10,"[20.55779719981365, 17.454602600075305, 16.367915299953893, 18.785638900008053, 4.019145000027493, 4.386381699936464, 5.103291800012812, 11.271854999940842, 5.487834500148892, 6.566073399968445]","[0.01438189996406436, 0.014326300006359816, 0.014614100102335215, 0.014365399954840541, 0.049508600030094385, 0.06569750001654029, 0.03073900006711483, 0.06684750015847385, 0.06421440001577139, 6.5660805001389235]",0,,,,,,,,,,,,,,,,,,,,,,,,,,,,,,,,,,,,,,,,,,,,,,,,,,,,,,,,,,,,,,,,,,,,,,,,,,,,,,,,,,,,,,,,,,,,,,,,,,,,,,,,,,,,,,,,,,,,,,,,,,,,0Q50WN,train_y,red_square,bottom_left,2025-09-13_10h12.14.557,HideSeek_v1,2022.2.5,59.89056798545768,
,,,,,,,,,,,,,,,0,0,0,0,10,0,10,0,,,,,,,,,,,,,,,,,,,,,,,,,,,,,,,conditions/schedules/train_y_first/red_square_00/bottom_left/instructions/Slide11.png,conditions/schedules/train_y_first/red_square_00/bottom_left/instructions/Audio11.wav,143.71804139995947,143.7151753598824,11,"[20.55779719981365, 17.454602600075305, 16.367915299953893, 18.785638900008053, 4.019145000027493, 4.386381699936464, 5.103291800012812, 11.271854999940842, 5.487834500148892, 6.566073399968445, 10.203315999824554]","[0.01438189996406436, 0.014326300006359816, 0.014614100102335215, 0.014365399954840541, 0.049508600030094385, 0.06569750001654029, 0.03073900006711483, 0.06684750015847385, 0.06421440001577139, 0.07940439996309578, 10.203323099995032]",0,,,,,,,,,,,,,,,,,,,,,,,,,,,,,,,,,,,,,,,,,,,,,,,,,,,,,,,,,,,,,,,,,,,,,,,,,,,,,,,,,,,,,,,,,,,,,,,,,,,,,,,,,,,,,,,,,,,,,,,,,,,,0Q50WN,train_y,red_square,bottom_left,2025-09-13_10h12.14.557,HideSeek_v1,2022.2.5,59.89056798545768,
,,,,,,,,,,,,,,,0,0,0,0,11,0,11,0,,,,,,,,,,,,,,,,,,,,,,,,,,,,,,,conditions/schedules/train_y_first/red_square_00/bottom_left/instructions/Slide12.png,conditions/schedules/train_y_first/red_square_00/bottom_left/instructions/Audio12.wav,154.00120950001292,153.99094399996102,12,"[20.55779719981365, 17.454602600075305, 16.367915299953893, 18.785638900008053, 4.019145000027493, 4.386381699936464, 5.103291800012812, 11.271854999940842, 5.487834500148892, 6.566073399968445, 10.203315999824554, 13.548346000025049]","[0.01438189996406436, 0.014326300006359816, 0.014614100102335215, 0.014365399954840541, 0.049508600030094385, 0.06569750001654029, 0.03073900006711483, 0.06684750015847385, 0.06421440001577139, 0.07940439996309578, 0.013901700032874942, 13.54835299984552]",0,,,,,,,,,,,,,,,,,,,,,,,,,,,,,,,,,,,,,,,,,,,,,,,,,,,,,,,,,,,,,,,,,,,,,,,,,,,,,,,,,,,,,,,,,,,,,,,,,,,,,,,,,,,,,,,,,,,,,,,,,,,,0Q50WN,train_y,red_square,bottom_left,2025-09-13_10h12.14.557,HideSeek_v1,2022.2.5,59.89056798545768,
1,2,3,2,8,0,5,11,2,instr_dim1_1,,,,,,0,0,0,0,,,,,0,0,0,0,,,,,,,,,,,,,,,,,,,,,,,,,,,,,,,,,,,,,stimuli/alien_stimuli/11.png,conditions/schedules/train_y_first/red_square_00/bottom_left/inputInstr_1.xlsx,stimuli/alien_stimuli/11.png,167.6585246999748,167.6585246999748,167.6585246999748,167.6585246999748,167.65170423998495,return,8.900526099838316,"[-0.16, -0.08, 0, 0.08, 0.16, 0.24, 0.32, 0.4, 0.48, 0.56]","[-0.4, -0.32, -0.24, -0.16, -0.08, 0, 0.08, 0.16, 0.24, 0.32]",8,3,2,2,0.4,0.0,176.703926499933,176.703926499933,176.703926499933,176.703926499933,176.703926499933,176.703926499933,176.703926499933,176.69244015999138,6.4398040000814945,return,6.288330700015649,stimuli/alien_stimuli/11.png,11,2,1,,,,,,,,,,,,,,,,,,,,,,,,,,,,,,,,,,,,,,,,,,,,,,,,,,,,,,,,,,,,,,,,,,,,,,,,,,,,,,,,,,,,,,,,,0Q50WN,train_y,red_square,bottom_left,2025-09-13_10h12.14.557,HideSeek_v1,2022.2.5,59.89056798545768,
,,,,,,,,,,,30,,,,0,0,0,0,,,,,,,,,,,,,,,,,,,,,,,,,,,,,,,,,,,,,,,,,,,,,,,,,,,,,,,,,,,,,,,,,,,,,,,,,,,,,,21,0.7,0,0,99,1,30,0,conditions/schedules/train_y_first/red_square_00/bottom_left/inputTrain_1.1.xlsx,99,1,1,1,0,,,,,,,,,,,,,,,,,,,,,,,,,,,,,,,,,,,,,,,,,,,,,,,,,,,,,,,,,,,,,,,,,,,,,,,,,,,0Q50WN,train_y,red_square,bottom_left,2025-09-13_10h12.14.557,HideSeek_v1,2022.2.5,59.89056798545768,
,,,,,,,,,,,,,,,1,0,1,0,0,0,0,0,,,,,,,,,,,,,,,,,,,,,,,,,,,,,,,conditions/schedules/train_y_first/red_square_00/bottom_left/instructions/Slide13.png,conditions/schedules/train_y_first/red_square_00/bottom_left/instructions/Audio13.wav,183.1819221000187,183.18123701987787,13,"[20.55779719981365, 17.454602600075305, 16.367915299953893, 18.785638900008053, 4.019145000027493, 4.386381699936464, 5.103291800012812, 11.271854999940842, 5.487834500148892, 6.566073399968445, 10.203315999824554, 13.548346000025049, 16.610204400029033]","[0.01438189996406436, 0.014326300006359816, 0.014614100102335215, 0.014365399954840541, 0.049508600030094385, 0.06569750001654029, 0.03073900006711483, 0.06684750015847385, 0.06421440001577139, 0.07940439996309578, 0.013901700032874942, 13.54835299984552, 16.610211099963635]",0,,,,,,,,,,,,,,,,,,,,,,,,,,,,,,,,,,,,,,,,,,,,,,,,,,,,,,,,,,,,,,,,,,,,,,,,,,,,,,,,,,,,,,,,,,,,,,,,,,,,,,,,,,,,,,,,,,,,,,,,,,,,0Q50WN,train_y,red_square,bottom_left,2025-09-13_10h12.14.557,HideSeek_v1,2022.2.5,59.89056798545768,
,,,,,,,,,,,,,,,1,0,1,0,1,0,1,0,,,,,,,,,,,,,,,,,,,,,,,,,,,,,,,conditions/schedules/train_y_first/red_square_00/bottom_left/instructions/Slide14.png,conditions/schedules/train_y_first/red_square_00/bottom_left/instructions/Audio14.wav,199.85966619988903,199.86156599991955,14,"[20.55779719981365, 17.454602600075305, 16.367915299953893, 18.785638900008053, 4.019145000027493, 4.386381699936464, 5.103291800012812, 11.271854999940842, 5.487834500148892, 6.566073399968445, 10.203315999824554, 13.548346000025049, 16.610204400029033, 16.93042270001024]","[0.01438189996406436, 0.014326300006359816, 0.014614100102335215, 0.014365399954840541, 0.049508600030094385, 0.06569750001654029, 0.03073900006711483, 0.06684750015847385, 0.06421440001577139, 0.07940439996309578, 0.013901700032874942, 13.54835299984552, 0.08324029995128512, 16.93043259996921]",0,,,,,,,,,,,,,,,,,,,,,,,,,,,,,,,,,,,,,,,,,,,,,,,,,,,,,,,,,,,,,,,,,,,,,,,,,,,,,,,,,,,,,,,,,,,,,,,,,,,,,,,,,,,,,,,,,,,,,,,,,,,,0Q50WN,train_y,red_square,bottom_left,2025-09-13_10h12.14.557,HideSeek_v1,2022.2.5,59.89056798545768,
2,0,3,0,3,0,0,16,2,instr_dim1_1,,,,,,1,0,1,0,,,,,0,0,0,0,,,,,,,,,,,,,,,,,,,,,,,,,,,,,,,,,,,,,stimuli/alien_stimuli/16.png,conditions/schedules/train_y_first/red_square_00/bottom_left/inputInstr_1.xlsx,stimuli/alien_stimuli/16.png,216.89429540000856,216.89429540000856,216.89429540000856,216.89429540000856,216.8923558400478,return,3.0379638001322746,"[-0.16, -0.08, 0, 0.08, 0.16, 0.24, 0.32, 0.4, 0.48, 0.56]","[-0.4, -0.32, -0.24, -0.16, -0.08, 0, 0.08, 0.16, 0.24, 0.32]",3,3,0,0,0.0,0.0,220.09440439986065,220.09440439986065,220.09440439986065,220.09440439986065,220.09440439986065,220.09440439986065,220.09440439986065,220.0951874800492,7.523706200066954,return,7.365274999989197,stimuli/alien_stimuli/16.png,16,0,2,,,,,,,,,,,,,,,,,,,,,,,,,,,,,,,,,,,,,,,,,,,,,,,,,,,,,,,,,,,,,,,,,,,,,,,,,,,,,,,,,,,,,,,,,0Q50WN,train_y,red_square,bottom_left,2025-09-13_10h12.14.557,HideSeek_v1,2022.2.5,59.89056798545768,
,,,,,,,,,,,30,,,,1,0,1,0,,,,,,,,,,,,,,,,,,,,,,,,,,,,,,,,,,,,,,,,,,,,,,,,,,,,,,,,,,,,,,,,,,,,,,,,,,,,,,21,0.7,0,0,99,1,30,0,conditions/schedules/train_y_first/red_square_00/bottom_left/inputTrain_1.1.xlsx,99,1,1,1,0,,,,,,,,,,,,,,,,,,,,,,,,,,,,,,,,,,,,,,,,,,,,,,,,,,,,,,,,,,,,,,,,,,,,,,,,,,,0Q50WN,train_y,red_square,bottom_left,2025-09-13_10h12.14.557,HideSeek_v1,2022.2.5,59.89056798545768,
,,,,,,,,,,,,,,,2,0,2,0,0,0,0,0,,,,,,,,,,,,,,,,,,,,,,,,,,,,,,,conditions/schedules/train_y_first/red_square_00/bottom_left/instructions/Slide15.png,conditions/schedules/train_y_first/red_square_00/bottom_left/instructions/Audio15.wav,227.66750889993273,227.66803343999197,15,"[20.55779719981365, 17.454602600075305, 16.367915299953893, 18.785638900008053, 4.019145000027493, 4.386381699936464, 5.103291800012812, 11.271854999940842, 5.487834500148892, 6.566073399968445, 10.203315999824554, 13.548346000025049, 16.610204400029033, 16.93042270001024, 43.51690030004829]","[0.01438189996406436, 0.014326300006359816, 0.014614100102335215, 0.014365399954840541, 0.049508600030094385, 0.06569750001654029, 0.03073900006711483, 0.06684750015847385, 0.06421440001577139, 0.07940439996309578, 0.013901700032874942, 13.54835299984552, 0.08324029995128512, 16.93043259996921, 43.51690730010159]",0,,,,,,,,,,,,,,,,,,,,,,,,,,,,,,,,,,,,,,,,,,,,,,,,,,,,,,,,,,,,,,,,,,,,,,,,,,,,,,,,,,,,,,,,,,,,,,,,,,,,,,,,,,,,,,,,,,,,,,,,,,,,0Q50WN,train_y,red_square,bottom_left,2025-09-13_10h12.14.557,HideSeek_v1,2022.2.5,59.89056798545768,
,,,,,,,,,,,,,,,2,0,2,0,1,0,1,0,,,,,,,,,,,,,,,,,,,,,,,,,,,,,,,conditions/schedules/train_y_first/red_square_00/bottom_left/instructions/Slide16.png,conditions/schedules/train_y_first/red_square_00/bottom_left/instructions/Audio16.wav,271.2591824999545,271.2541151000187,16,"[20.55779719981365, 17.454602600075305, 16.367915299953893, 18.785638900008053, 4.019145000027493, 4.386381699936464, 5.103291800012812, 11.271854999940842, 5.487834500148892, 6.566073399968445, 10.203315999824554, 13.548346000025049, 16.610204400029033, 16.93042270001024, 43.51690030004829, 21.277230200124905]","[0.01438189996406436, 0.014326300006359816, 0.014614100102335215, 0.014365399954840541, 0.049508600030094385, 0.06569750001654029, 0.03073900006711483, 0.06684750015847385, 0.06421440001577139, 0.07940439996309578, 0.013901700032874942, 13.54835299984552, 0.08324029995128512, 16.93043259996921, 0.031011200044304132, 21.27723650005646]",0,,,,,,,,,,,,,,,,,,,,,,,,,,,,,,,,,,,,,,,,,,,,,,,,,,,,,,,,,,,,,,,,,,,,,,,,,,,,,,,,,,,,,,,,,,,,,,,,,,,,,,,,,,,,,,,,,,,,,,,,,,,,0Q50WN,train_y,red_square,bottom_left,2025-09-13_10h12.14.557,HideSeek_v1,2022.2.5,59.89056798545768,
,0,0,0,1,0,1,15,,train_dim1_1,1,30,,,,2,0,2,0,,,,,,,,,0,0,0,0,0,0,0,0,0,0,0,0,,,,,,,,,,,,,,,,,,,,,,,,,stimuli/alien_stimuli/15.png,,,,,,,,,,,,,,,,,,,,,,,,,,,,,,,,,,,,,,,30,,,,,,,,292.6516903999727,292.6516903999727,292.6516903999727,292.6516903999727,292.6516903999727,0,0,-0.16,-0.4,return,3.825051699997857,0,1,0,0,-0.16,-0.4,return,3.7113644001074135,,,,,,,,,,,,,,,,,,,,,,,,,,,,,,,,,,,,,,,,,,,,,,,,,,,,,,,,0Q50WN,train_y,red_square,bottom_left,2025-09-13_10h12.14.557,HideSeek_v1,2022.2.5,59.89056798545768,
,3,2,3,2,0,0,16,,train_dim1_1,2,30,,,,2,0,2,0,,,,,,,,,0,0,0,0,0,1,1,1,0,0,0,0,,,,,,,,,,,,,,,,,,,,,,,,,stimuli/alien_stimuli/16.png,,,,,,,,,,,,,,,,,,,,,,,,,,,,,stimuli/alien_stimuli/15.png,15,0,3,,,,,,,30,,,,,,,,315.3958556998987,315.3958556998987,315.3958556998987,315.3958556998987,315.3958556998987,,,,,up,2.891719500068575,0,1,0,99,0.08,-0.15999999999999998,up,2.796408199938014,313.82271460001357,315.3958556998987,-0.16,-0.32,0.08,0.0,-0.36,-0.16,-0.16,-0.16,-0.32,298.03683419991285,298.03683419991285,298.03683419991285,298.03683419991285,298.03683419991285,298.03683419991285,298.03683419991285,298.03683419991285,298.02644496005956,15.915767600061372,return,15.764336500084028,,,,,,,,,,,,,,,,,,,,,,,,,,,,,,,,,0Q50WN,train_y,red_square,bottom_left,2025-09-13_10h12.14.557,HideSeek_v1,2022.2.5,59.89056798545768,
,3,2,3,2,0,0,16,,train_dim1_1,2,30,,,,2,0,2,0,,,,,,,,,0,0,0,0,0,1,1,1,1,0,1,0,,,,,,,,,,,,,,,,,,,,,,,,,,,,,,,,,,,,,,,,,,,,,,,,,,,,,,,,,,,,,,,,30,,,,,,,,318.2794468998909,318.2794468998909,318.2794468998909,318.2794468998909,318.2794468998909,,,,,up,0.8431597000453621,0,1,0,99,0.08,-0.07999999999999997,up,0.7574191000312567,,,,,,,,,,,,,,,,,,,,,,,,,,,,,,,,,,,,,,,,,,,,,,,,,,,,,,,,0Q50WN,train_y,red_square,bottom_left,2025-09-13_10h12.14.557,HideSeek_v1,2022.2.5,59.89056798545768,
,3,2,3,2,0,0,16,,train_dim1_1,2,30,,,,2,0,2,0,,,,,,,,,0,0,0,0,0,1,1,1,2,0,2,0,,,,,,,,,,,,,,,,,,,,,,,,,,,,,,,,,,,,,,,,,,,,,,,,,,,,,,,,,,,,,,,,30,,,,,,,,319.13400559988804,319.13400559988804,319.13400559988804,319.13400559988804,319.13400559988804,2,0,0.08,-0.07999999999999997,return,0.9268266002181917,0,0,0,0,0.08,-0.07999999999999997,return,0.8355811000801623,,,,,,,,,,,,,,,,,,,,,,,,,,,,,,,,,,,,,,,,,,,,,,,,,,,,,,,,0Q50WN,train_y,red_square,bottom_left,2025-09-13_10h12.14.557,HideSeek_v1,2022.2.5,59.89056798545768,
,2,3,2,6,0,3,13,,train_dim1_1,3,30,,,,2,0,2,0,,,,,,,,,0,0,0,0,0,2,2,2,0,0,0,0,,,,,,,,,,,,,,,,,,,,,,,,,stimuli/alien_stimuli/13.png,,,,,,,,,,,,,,,,,,,,,,,,,,,,,stimuli/alien_stimuli/16.png,16,3,4,,,,,,,30,,,,,,,,329.8453374998644,329.8453374998644,329.8453374998644,329.8453374998644,329.8453374998644,,,,,down,2.288045800058171,0,0,0,99,0,-0.24,down,2.206802199827507,328.28474469995126,329.8453374998644,0.08,-0.24,0.0,0.0,-0.24,0.08,0.08,0.08,-0.24,321.6372244998347,321.6372244998347,321.6372244998347,321.6372244998347,321.6372244998347,321.6372244998347,321.6372244998347,321.6372244998347,321.6292820599861,6.774422500049695,return,6.62028030003421,,,,,,,,,,,,,,,,,,,,,,,,,,,,,,,,,0Q50WN,train_y,red_square,bottom_left,2025-09-13_10h12.14.557,HideSeek_v1,2022.2.5,59.89056798545768,
,2,3,2,6,0,3,13,,train_dim1_1,3,30,,,,2,0,2,0,,,,,,,,,0,0,0,0,0,2,2,2,1,0,1,0,,,,,,,,,,,,,,,,,,,,,,,,,,,,,,,,,,,,,,,,,,,,,,,,,,,,,,,,,,,,,,,,30,,,,,,,,332.1409366999287,332.1409366999287,332.1409366999287,332.1409366999287,332.1409366999287,,,,,down,0.6591747999191284,0,0,0,99,0,-0.32,down,0.5679811998270452,,,,,,,,,,,,,,,,,,,,,,,,,,,,,,,,,,,,,,,,,,,,,,,,,,,,,,,,0Q50WN,train_y,red_square,bottom_left,2025-09-13_10h12.14.557,HideSeek_v1,2022.2.5,59.89056798545768,
,2,3,2,6,0,3,13,,train_dim1_1,3,30,,,,2,0,2,0,,,,,,,,,0,0,0,0,0,2,2,2,2,0,2,0,,,,,,,,,,,,,,,,,,,,,,,,,,,,,,,,,,,,,,,,,,,,,,,,,,,,,,,,,,,,,,,,30,,,,,,,,332.8059649998322,332.8059649998322,332.8059649998322,332.8059649998322,332.8059649998322,,,,,down,0.5600378999952227,0,0,0,99,0,-0.4,down,0.4782922000158578,,,,,,,,,,,,,,,,,,,,,,,,,,,,,,,,,,,,,,,,,,,,,,,,,,,,,,,,0Q50WN,train_y,red_square,bottom_left,2025-09-13_10h12.14.557,HideSeek_v1,2022.2.5,59.89056798545768,
,2,3,2,6,0,3,13,,train_dim1_1,3,30,,,,2,0,2,0,,,,,,,,,0,0,0,0,0,2,2,2,3,0,3,0,,,,,,,,,,,,,,,,,,,,,,,,,,,,,,,,,,,,,,,,,,,,,,,,,,,,,,,,,,,,,,,,30,,,,,,,,333.3740983000025,333.3740983000025,333.3740983000025,333.3740983000025,333.3740983000025,-1,0,0,-0.4,return,1.5109507001470774,0,0,0,0,0,-0.4,return,1.4175283999647945,,,,,,,,,,,,,,,,,,,,,,,,,,,,,,,,,,,,,,,,,,,,,,,,,,,,,,,,0Q50WN,train_y,red_square,bottom_left,2025-09-13_10h12.14.557,HideSeek_v1,2022.2.5,59.89056798545768,
,0,1,0,5,0,4,12,,train_dim1_1,4,30,,,,2,0,2,0,,,,,,,,,0,0,0,0,0,3,3,3,0,0,0,0,,,,,,,,,,,,,,,,,,,,,,,,,stimuli/alien_stimuli/12.png,,,,,,,,,,,,,,,,,,,,,,,,,,,,,stimuli/alien_stimuli/13.png,13,2,5,,,,,,,30,,,,,,,,350.41248929989524,350.41248929989524,350.41248929989524,350.41248929989524,350.41248929989524,,,,,up,3.722685399930924,0,0,0,99,-0.16,-0.24,up,3.614374900003895,348.8353095999919,350.41248929989524,0,0.08,0.24,0.0,-0.04,0,0.0,0,0.08,336.45565929985605,336.45565929985605,336.45565929985605,336.45565929985605,336.45565929985605,336.45565929985605,336.45565929985605,336.45565929985605,336.4414589399006,12.495987599948421,return,12.354909599991515,,,,,,,,,,,,,,,,,,,,,,,,,,,,,,,,,0Q50WN,train_y,red_square,bottom_left,2025-09-13_10h12.14.557,HideSeek_v1,2022.2.5,59.89056798545768,
,0,1,0,5,0,4,12,,train_dim1_1,4,30,,,,2,0,2,0,,,,,,,,,0,0,0,0,0,3,3,3,1,0,1,0,,,,,,,,,,,,,,,,,,,,,,,,,,,,,,,,,,,,,,,,,,,,,,,,,,,,,,,,,,,,,,,,30,,,,,,,,354.127760599833,354.127760599833,354.127760599833,354.127760599833,354.127760599833,0,0,-0.16,-0.24,return,0.5400863999966532,0,0,0,0,-0.16,-0.24,return,0.4472618999425322,,,,,,,,,,,,,,,,,,,,,,,,,,,,,,,,,,,,,,,,,,,,,,,,,,,,,,,,0Q50WN,train_y,red_square,bottom_left,2025-09-13_10h12.14.557,HideSeek_v1,2022.2.5,59.89056798545768,
,3,3,3,8,0,5,11,,train_dim1_1,5,30,,,,2,0,2,0,,,,,,,,,0,0,0,0,0,4,4,4,0,0,0,0,,,,,,,,,,,,,,,,,,,,,,,,,stimuli/alien_stimuli/11.png,,,,,,,,,,,,,,,,,,,,,,,,,,,,,stimuli/alien_stimuli/12.png,12,0,6,,,,,,,30,,,,,,,,360.0395876998082,360.0395876998082,360.0395876998082,360.0395876998082,360.0395876998082,,,,,up,4.086386600043625,0,0,0,99,0.08,-0.08,up,4.004682699916884,358.4766412000172,360.0395876998082,-0.16,0,0.32,0.0,-0.16,-0.16,-0.16,-0.16,0,356.247170999879,356.247170999879,356.247170999879,356.247170999879,356.247170999879,356.247170999879,356.247170999879,356.247170999879,356.24166935998943,2.3536600000225008,return,2.2136293998919427,,,,,,,,,,,,,,,,,,,,,,,,,,,,,,,,,0Q50WN,train_y,red_square,bottom_left,2025-09-13_10h12.14.557,HideSeek_v1,2022.2.5,59.89056798545768,
,3,3,3,8,0,5,11,,train_dim1_1,5,30,,,,2,0,2,0,,,,,,,,,0,0,0,0,0,4,4,4,1,0,1,0,,,,,,,,,,,,,,,,,,,,,,,,,,,,,,,,,,,,,,,,,,,,,,,,,,,,,,,,,,,,,,,,30,,,,,,,,364.1337130998727,364.1337130998727,364.1337130998727,364.1337130998727,364.1337130998727,,,,,right,3.5449143999721855,0,0,0,99,0.16,-0.08,right,3.462892400100827,,,,,,,,,,,,,,,,,,,,,,,,,,,,,,,,,,,,,,,,,,,,,,,,,,,,,,,,0Q50WN,train_y,red_square,bottom_left,2025-09-13_10h12.14.557,HideSeek_v1,2022.2.5,59.89056798545768,
,3,3,3,8,0,5,11,,train_dim1_1,5,30,,,,2,0,2,0,,,,,,,,,0,0,0,0,0,4,4,4,2,0,2,0,,,,,,,,,,,,,,,,,,,,,,,,,,,,,,,,,,,,,,,,,,,,,,,,,,,,,,,,,,,,,,,,30,,,,,,,,367.6857837999705,367.6857837999705,367.6857837999705,367.6857837999705,367.6857837999705,1,1,0.16,-0.08,return,0.5434629998635501,0,0,0,0,0.16,-0.08,return,0.4645568998530507,,,,,,,,,,,,,,,,,,,,,,,,,,,,,,,,,,,,,,,,,,,,,,,,,,,,,,,,0Q50WN,train_y,red_square,bottom_left,2025-09-13_10h12.14.557,HideSeek_v1,2022.2.5,59.89056798545768,
,1,4,1,8,0,4,12,,train_dim1_1,6,30,,,,2,0,2,0,,,,,,,,,0,0,0,0,0,5,5,5,0,0,0,0,,,,,,,,,,,,,,,,,,,,,,,,,stimuli/alien_stimuli/12.png,,,,,,,,,,,,,,,,,,,,,,,,,,,,,stimuli/alien_stimuli/11.png,11,3,7,,,,,,,30,,,,,,,,375.60167280002497,375.60167280002497,375.60167280002497,375.60167280002497,375.60167280002497,,,,,up,4.375460900133476,0,0,0,99,-0.08,0.0,up,4.2805341999046504,374.0395480999723,375.60167280002497,0.08,0.24,0.4,0.0,0.039999999999999994,0.08,0.08,0.08,0.24,369.8039769998286,369.8039769998286,369.8039769998286,369.8039769998286,369.8039769998286,369.8039769998286,369.8039769998286,369.8039769998286,369.8024621600285,4.356146400095895,return,4.213937100023031,,,,,,,,,,,,,,,,,,,,,,,,,,,,,,,,,0Q50WN,train_y,red_square,bottom_left,2025-09-13_10h12.14.557,HideSeek_v1,2022.2.5,59.89056798545768,
,1,4,1,8,0,4,12,,train_dim1_1,6,30,,,,2,0,2,0,,,,,,,,,0,0,0,0,0,5,5,5,1,0,1,0,,,,,,,,,,,,,,,,,,,,,,,,,,,,,,,,,,,,,,,,,,,,,,,,,,,,,,,,,,,,,,,,30,,,,,,,,379.981304399902,379.981304399902,379.981304399902,379.981304399902,379.981304399902,,,,,up,0.34296649997122586,0,0,0,99,-0.08,0.08,up,0.25521619990468025,,,,,,,,,,,,,,,,,,,,,,,,,,,,,,,,,,,,,,,,,,,,,,,,,,,,,,,,0Q50WN,train_y,red_square,bottom_left,2025-09-13_10h12.14.557,HideSeek_v1,2022.2.5,59.89056798545768,
,1,4,1,8,0,4,12,,train_dim1_1,6,30,,,,2,0,2,0,,,,,,,,,0,0,0,0,0,5,5,5,2,0,2,0,,,,,,,,,,,,,,,,,,,,,,,,,,,,,,,,,,,,,,,,,,,,,,,,,,,,,,,,,,,,,,,,30,,,,,,,,380.33219520002604,380.33219520002604,380.33219520002604,380.33219520002604,380.33219520002604,,,,,up,0.37635399983264506,0,0,0,99,-0.08,0.16,up,0.2817152999341488,,,,,,,,,,,,,,,,,,,,,,,,,,,,,,,,,,,,,,,,,,,,,,,,,,,,,,,,0Q50WN,train_y,red_square,bottom_left,2025-09-13_10h12.14.557,HideSeek_v1,2022.2.5,59.89056798545768,
,1,4,1,8,0,4,12,,train_dim1_1,6,30,,,,2,0,2,0,,,,,,,,,0,0,0,0,0,5,5,5,3,0,3,0,,,,,,,,,,,,,,,,,,,,,,,,,,,,,,,,,,,,,,,,,,,,,,,,,,,,,,,,,,,,,,,,30,,,,,,,,380.7174533000216,380.7174533000216,380.7174533000216,380.7174533000216,380.7174533000216,4,1,-0.08,0.16,return,0.5270639001391828,0,1,0,0,-0.08,0.16,return,0.4396732000168413,,,,,,,,,,,,,,,,,,,,,,,,,,,,,,,,,,,,,,,,,,,,,,,,,,,,,,,,0Q50WN,train_y,red_square,bottom_left,2025-09-13_10h12.14.557,HideSeek_v1,2022.2.5,59.89056798545768,
,1,3,1,6,0,3,13,,train_dim1_1,7,30,,,,2,0,2,0,,,,,,,,,0,0,0,0,0,6,6,6,0,0,0,0,,,,,,,,,,,,,,,,,,,,,,,,,stimuli/alien_stimuli/13.png,,,,,,,,,,,,,,,,,,,,,,,,,,,,,stimuli/alien_stimuli/12.png,12,1,8,,,,,,,30,,,,,,,,388.7432544999756,388.7432544999756,388.7432544999756,388.7432544999756,388.7432544999756,,,,,up,5.140639099990949,0,1,0,99,-0.08,-0.08,up,5.052873099921271,387.1836766998749,388.7432544999756,-0.08,0.24,0.32,0.0,0.07999999999999999,-0.08,-0.08,-0.08,0.24,382.79820910003036,382.79820910003036,382.79820910003036,382.79820910003036,382.79820910003036,382.79820910003036,382.79820910003036,382.79820910003036,382.79672683994283,4.48916759993881,return,4.368265499826521,,,,,,,,,,,,,,,,,,,,,,,,,,,,,,,,,0Q50WN,train_y,red_square,bottom_left,2025-09-13_10h12.14.557,HideSeek_v1,2022.2.5,59.89056798545768,
,1,3,1,6,0,3,13,,train_dim1_1,7,30,,,,2,0,2,0,,,,,,,,,0,0,0,0,0,6,6,6,1,0,1,0,,,,,,,,,,,,,,,,,,,,,,,,,,,,,,,,,,,,,,,,,,,,,,,,,,,,,,,,,,,,,,,,30,,,,,,,,393.8916168999858,393.8916168999858,393.8916168999858,393.8916168999858,393.8916168999858,5,1,-0.08,-0.08,return,0.32638119999319315,0,0,0,0,-0.08,-0.08,return,0.24063959997147322,,,,,,,,,,,,,,,,,,,,,,,,,,,,,,,,,,,,,,,,,,,,,,,,,,,,,,,,0Q50WN,train_y,red_square,bottom_left,2025-09-13_10h12.14.557,HideSeek_v1,2022.2.5,59.89056798545768,
,4,2,4,7,0,5,11,,train_dim1_1,8,30,,,,2,0,2,0,,,,,,,,,0,0,0,0,0,7,7,7,0,0,0,0,,,,,,,,,,,,,,,,,,,,,,,,,stimuli/alien_stimuli/11.png,,,,,,,,,,,,,,,,,,,,,,,,,,,,,stimuli/alien_stimuli/13.png,13,1,9,,,,,,,30,,,,,,,,400.2479554999154,400.2479554999154,400.2479554999154,400.2479554999154,400.2479554999154,,,,,up,4.640524999937043,0,0,0,99,0.16,-0.15999999999999998,up,4.546675399877131,398.67652729991823,400.2479554999154,-0.08,0.08,0.24,0.0,-0.04,-0.08,-0.08,-0.08,0.08,395.79094179999083,395.79094179999083,395.79094179999083,395.79094179999083,395.79094179999083,395.79094179999083,395.79094179999083,395.79094179999083,395.79076786004003,3.0049622000660747,return,2.8696391999255866,,,,,,,,,,,,,,,,,,,,,,,,,,,,,,,,,0Q50WN,train_y,red_square,bottom_left,2025-09-13_10h12.14.557,HideSeek_v1,2022.2.5,59.89056798545768,
,4,2,4,7,0,5,11,,train_dim1_1,8,30,,,,2,0,2,0,,,,,,,,,0,0,0,0,0,7,7,7,1,0,1,0,,,,,,,,,,,,,,,,,,,,,,,,,,,,,,,,,,,,,,,,,,,,,,,,,,,,,,,,,,,,,,,,30,,,,,,,,404.88460560003296,404.88460560003296,404.88460560003296,404.88460560003296,404.88460560003296,,,,,up,1.4770078000146896,0,0,0,99,0.16,-0.07999999999999997,up,1.3974345000460744,,,,,,,,,,,,,,,,,,,,,,,,,,,,,,,,,,,,,,,,,,,,,,,,,,,,,,,,0Q50WN,train_y,red_square,bottom_left,2025-09-13_10h12.14.557,HideSeek_v1,2022.2.5,59.89056798545768,
,4,2,4,7,0,5,11,,train_dim1_1,8,30,,,,2,0,2,0,,,,,,,,,0,0,0,0,0,7,7,7,2,0,2,0,,,,,,,,,,,,,,,,,,,,,,,,,,,,,,,,,,,,,,,,,,,,,,,,,,,,,,,,,,,,,,,,30,,,,,,,,406.3679046998732,406.3679046998732,406.3679046998732,406.3679046998732,406.3679046998732,,,,,up,0.8269819000270218,0,0,0,99,0.16,2.7755575615628914e-17,up,0.7427521999925375,,,,,,,,,,,,,,,,,,,,,,,,,,,,,,,,,,,,,,,,,,,,,,,,,,,,,,,,0Q50WN,train_y,red_square,bottom_left,2025-09-13_10h12.14.557,HideSeek_v1,2022.2.5,59.89056798545768,
,4,2,4,7,0,5,11,,train_dim1_1,8,30,,,,2,0,2,0,,,,,,,,,0,0,0,0,0,7,7,7,3,0,3,0,,,,,,,,,,,,,,,,,,,,,,,,,,,,,,,,,,,,,,,,,,,,,,,,,,,,,,,,,,,,,,,,30,,,,,,,,407.20874599996023,407.20874599996023,407.20874599996023,407.20874599996023,407.20874599996023,8,1,0.16,2.7755575615628914e-17,return,1.277225999860093,0,0,0,0,0.16,2.7755575615628914e-17,return,1.1806423000525683,,,,,,,,,,,,,,,,,,,,,,,,,,,,,,,,,,,,,,,,,,,,,,,,,,,,,,,,0Q50WN,train_y,red_square,bottom_left,2025-09-13_10h12.14.557,HideSeek_v1,2022.2.5,59.89056798545768,
,4,3,4,4,0,1,15,,train_dim1_1,9,30,,,,2,0,2,0,,,,,,,,,0,0,0,0,0,8,8,8,0,0,0,0,,,,,,,,,,,,,,,,,,,,,,,,,stimuli/alien_stimuli/15.png,,,,,,,,,,,,,,,,,,,,,,,,,,,,,stimuli/alien_stimuli/11.png,11,4,10,,,,,,,30,,,,,,,,415.01551179983653,415.01551179983653,415.01551179983653,415.01551179983653,415.01551179983653,,,,,right,0.638554000062868,0,0,0,99,0.24,-0.16,right,0.5542866999749094,413.45561329997145,415.01551179983653,0.16,0.16,0.4,0.0,-0.039999999999999994,0.16,0.16,0.16,0.16,410.0528249000199,410.0528249000199,410.0528249000199,410.0528249000199,410.0528249000199,410.0528249000199,410.0528249000199,410.0528249000199,410.0526682598516,3.5215433000121266,return,3.374419800005853,,,,,,,,,,,,,,,,,,,,,,,,,,,,,,,,,0Q50WN,train_y,red_square,bottom_left,2025-09-13_10h12.14.557,HideSeek_v1,2022.2.5,59.89056798545768,
,4,3,4,4,0,1,15,,train_dim1_1,9,30,,,,2,0,2,0,,,,,,,,,0,0,0,0,0,8,8,8,1,0,1,0,,,,,,,,,,,,,,,,,,,,,,,,,,,,,,,,,,,,,,,,,,,,,,,,,,,,,,,,,,,,,,,,30,,,,,,,,415.65951319993474,415.65951319993474,415.65951319993474,415.65951319993474,415.65951319993474,,,,,left,2.4109930999111384,0,0,0,99,0.15999999999999998,-0.16,left,2.317683900007978,,,,,,,,,,,,,,,,,,,,,,,,,,,,,,,,,,,,,,,,,,,,,,,,,,,,,,,,0Q50WN,train_y,red_square,bottom_left,2025-09-13_10h12.14.557,HideSeek_v1,2022.2.5,59.89056798545768,
,4,3,4,4,0,1,15,,train_dim1_1,9,30,,,,2,0,2,0,,,,,,,,,0,0,0,0,0,8,8,8,2,0,2,0,,,,,,,,,,,,,,,,,,,,,,,,,,,,,,,,,,,,,,,,,,,,,,,,,,,,,,,,,,,,,,,,30,,,,,,,,418.0779913000297,418.0779913000297,418.0779913000297,418.0779913000297,418.0779913000297,,,,,down,4.613446499919519,0,0,0,99,0.15999999999999998,-0.24,down,4.531002399977297,,,,,,,,,,,,,,,,,,,,,,,,,,,,,,,,,,,,,,,,,,,,,,,,,,,,,,,,0Q50WN,train_y,red_square,bottom_left,2025-09-13_10h12.14.557,HideSeek_v1,2022.2.5,59.89056798545768,
,4,3,4,4,0,1,15,,train_dim1_1,9,30,,,,2,0,2,0,,,,,,,,,0,0,0,0,0,8,8,8,3,0,3,0,,,,,,,,,,,,,,,,,,,,,,,,,,,,,,,,,,,,,,,,,,,,,,,,,,,,,,,,,,,,,,,,30,,,,,,,,422.7123120999895,422.7123120999895,422.7123120999895,422.7123120999895,422.7123120999895,,,,,down,3.763499400112778,0,0,0,99,0.15999999999999998,-0.32,down,3.6636469999793917,,,,,,,,,,,,,,,,,,,,,,,,,,,,,,,,,,,,,,,,,,,,,,,,,,,,,,,,0Q50WN,train_y,red_square,bottom_left,2025-09-13_10h12.14.557,HideSeek_v1,2022.2.5,59.89056798545768,
,4,3,4,4,0,1,15,,train_dim1_1,9,30,,,,2,0,2,0,,,,,,,,,0,0,0,0,0,8,8,8,4,0,4,0,,,,,,,,,,,,,,,,,,,,,,,,,,,,,,,,,,,,,,,,,,,,,,,,,,,,,,,,,,,,,,,,30,,,,,,,,426.4686865999829,426.4686865999829,426.4686865999829,426.4686865999829,426.4686865999829,6,1,0.15999999999999998,-0.32,return,1.0268122998531908,0,0,0,0,0.15999999999999998,-0.32,return,0.9455038998275995,,,,,,,,,,,,,,,,,,,,,,,,,,,,,,,,,,,,,,,,,,,,,,,,,,,,,,,,0Q50WN,train_y,red_square,bottom_left,2025-09-13_10h12.14.557,HideSeek_v1,2022.2.5,59.89056798545768,
,2,2,2,2,0,0,16,,train_dim1_1,10,30,,,,2,0,2,0,,,,,,,,,0,0,0,0,0,9,9,9,0,0,0,0,,,,,,,,,,,,,,,,,,,,,,,,,stimuli/alien_stimuli/16.png,,,,,,,,,,,,,,,,,,,,,,,,,,,,,stimuli/alien_stimuli/15.png,15,4,11,,,,,,,30,,,,,,,,433.1785250999965,433.1785250999965,433.1785250999965,433.1785250999965,433.1785250999965,6,1,0,-0.24,return,1.1728854000102729,1,0,0,1,0,-0.24,return,1.0843766999896616,431.6205384999048,433.1785250999965,0.16,-0.08,0.08,0.0,-0.12,0.16,0.16,0.16,-0.08,429.0693615998607,429.0693615998607,429.0693615998607,429.0693615998607,429.0693615998607,429.0693615998607,429.0693615998607,429.0693615998607,429.0684022599831,2.6710880000609905,return,2.520017100032419,,,,,,,,,,,,,,,,,,,,,,,,,,,,,,,,,0Q50WN,train_y,red_square,bottom_left,2025-09-13_10h12.14.557,HideSeek_v1,2022.2.5,59.89056798545768,
,4,1,4,2,0,1,15,,train_dim1_1,11,30,,,,2,0,2,0,,,,,,,,,0,0,0,0,0,10,10,10,0,0,0,0,,,,,,,,,,,,,,,,,,,,,,,,,stimuli/alien_stimuli/15.png,,,,,,,,,,,,,,,,,,,,,,,,,,,,,stimuli/alien_stimuli/16.png,16,2,12,,,,,,,30,,,,,,,,442.1489051999524,442.1489051999524,442.1489051999524,442.1489051999524,442.1489051999524,,,,,up,5.655076900031418,1,0,0,99,0.16,-0.24,up,5.569163500098512,440.5779287000187,442.1489051999524,0,-0.24,0.0,0.0,-0.24,0,0.0,0,-0.24,435.91468479996547,435.91468479996547,435.91468479996547,435.91468479996547,435.91468479996547,435.91468479996547,435.91468479996547,435.91468479996547,435.90773204001596,4.77254859986715,return,4.6337852999567986,,,,,,,,,,,,,,,,,,,,,,,,,,,,,,,,,0Q50WN,train_y,red_square,bottom_left,2025-09-13_10h12.14.557,HideSeek_v1,2022.2.5,59.89056798545768,
,4,1,4,2,0,1,15,,train_dim1_1,11,30,,,,2,0,2,0,,,,,,,,,0,0,0,0,0,10,10,10,1,0,1,0,,,,,,,,,,,,,,,,,,,,,,,,,,,,,,,,,,,,,,,,,,,,,,,,,,,,,,,,,,,,,,,,30,,,,,,,,447.81265069986694,447.81265069986694,447.81265069986694,447.81265069986694,447.81265069986694,7,1,0.16,-0.24,return,0.5257703000679612,2,0,0,1,0.16,-0.24,return,0.42572630010545254,,,,,,,,,,,,,,,,,,,,,,,,,,,,,,,,,,,,,,,,,,,,,,,,,,,,,,,,0Q50WN,train_y,red_square,bottom_left,2025-09-13_10h12.14.557,HideSeek_v1,2022.2.5,59.89056798545768,
,0,0,0,5,0,5,11,,train_dim1_1,12,30,,,,2,0,2,0,,,,,,,,,0,0,0,0,0,11,11,11,0,0,0,0,,,,,,,,,,,,,,,,,,,,,,,,,stimuli/alien_stimuli/11.png,,,,,,,,,,,,,,,,,,,,,,,,,,,,,stimuli/alien_stimuli/15.png,15,4,13,,,,,,,30,,,,,,,,453.21218209993094,453.21218209993094,453.21218209993094,453.21218209993094,453.21218209993094,,,,,up,2.7903255000710487,2,0,0,99,-0.16,-0.32,up,2.707602099981159,451.65379999997094,453.21218209993094,0.16,-0.24,0.08,0.0,-0.28,0.16,0.16,0.16,-0.24,449.90338649996556,449.90338649996556,449.90338649996556,449.90338649996556,449.90338649996556,449.90338649996556,449.90338649996556,449.90338649996556,449.9023417599033,1.8701565000228584,return,1.7183366999961436,,,,,,,,,,,,,,,,,,,,,,,,,,,,,,,,,0Q50WN,train_y,red_square,bottom_left,2025-09-13_10h12.14.557,HideSeek_v1,2022.2.5,59.89056798545768,
,0,0,0,5,0,5,11,,train_dim1_1,12,30,,,,2,0,2,0,,,,,,,,,0,0,0,0,0,11,11,11,1,0,1,0,,,,,,,,,,,,,,,,,,,,,,,,,,,,,,,,,,,,,,,,,,,,,,,,,,,,,,,,,,,,,,,,30,,,,,,,,456.0100113998633,456.0100113998633,456.0100113998633,456.0100113998633,456.0100113998633,,,,,up,0.5427196999080479,2,0,0,99,-0.16,-0.24,up,0.4629048998467624,,,,,,,,,,,,,,,,,,,,,,,,,,,,,,,,,,,,,,,,,,,,,,,,,,,,,,,,0Q50WN,train_y,red_square,bottom_left,2025-09-13_10h12.14.557,HideSeek_v1,2022.2.5,59.89056798545768,
,0,0,0,5,0,5,11,,train_dim1_1,12,30,,,,2,0,2,0,,,,,,,,,0,0,0,0,0,11,11,11,2,0,2,0,,,,,,,,,,,,,,,,,,,,,,,,,,,,,,,,,,,,,,,,,,,,,,,,,,,,,,,,,,,,,,,,30,,,,,,,,456.56051569990814,456.56051569990814,456.56051569990814,456.56051569990814,456.56051569990814,,,,,up,0.3437143999617547,2,0,0,99,-0.16,-0.15999999999999998,up,0.25404309993609786,,,,,,,,,,,,,,,,,,,,,,,,,,,,,,,,,,,,,,,,,,,,,,,,,,,,,,,,0Q50WN,train_y,red_square,bottom_left,2025-09-13_10h12.14.557,HideSeek_v1,2022.2.5,59.89056798545768,
,0,0,0,5,0,5,11,,train_dim1_1,12,30,,,,2,0,2,0,,,,,,,,,0,0,0,0,0,11,11,11,3,0,3,0,,,,,,,,,,,,,,,,,,,,,,,,,,,,,,,,,,,,,,,,,,,,,,,,,,,,,,,,,,,,,,,,30,,,,,,,,456.9141035999637,456.9141035999637,456.9141035999637,456.9141035999637,456.9141035999637,,,,,up,0.9257867999840528,2,0,0,99,-0.16,-0.07999999999999997,up,0.8411060001235455,,,,,,,,,,,,,,,,,,,,,,,,,,,,,,,,,,,,,,,,,,,,,,,,,,,,,,,,0Q50WN,train_y,red_square,bottom_left,2025-09-13_10h12.14.557,HideSeek_v1,2022.2.5,59.89056798545768,
,0,0,0,5,0,5,11,,train_dim1_1,12,30,,,,2,0,2,0,,,,,,,,,0,0,0,0,0,11,11,11,4,0,4,0,,,,,,,,,,,,,,,,,,,,,,,,,,,,,,,,,,,,,,,,,,,,,,,,,,,,,,,,,,,,,,,,30,,,,,,,,457.84376950003207,457.84376950003207,457.84376950003207,457.84376950003207,457.84376950003207,11,1,-0.16,-0.07999999999999997,return,0.5771091999486089,2,1,0,0,-0.16,-0.07999999999999997,return,0.48611599998548627,,,,,,,,,,,,,,,,,,,,,,,,,,,,,,,,,,,,,,,,,,,,,,,,,,,,,,,,0Q50WN,train_y,red_square,bottom_left,2025-09-13_10h12.14.557,HideSeek_v1,2022.2.5,59.89056798545768,
,4,3,4,7,0,4,12,,train_dim1_1,13,30,,,,2,0,2,0,,,,,,,,,0,0,0,0,0,12,12,12,0,0,0,0,,,,,,,,,,,,,,,,,,,,,,,,,stimuli/alien_stimuli/12.png,,,,,,,,,,,,,,,,,,,,,,,,,,,,,stimuli/alien_stimuli/11.png,11,0,14,,,,,,,30,,,,,,,,465.7931941000279,465.7931941000279,465.7931941000279,465.7931941000279,465.7931941000279,,,,,down,2.1026870000641793,2,1,0,99,0.16,-0.24,down,2.0116169000975788,464.23115809983574,465.7931941000279,-0.16,0,0.4,0.0,-0.2,-0.16,-0.16,-0.16,0,459.97856849990785,459.97856849990785,459.97856849990785,459.97856849990785,459.97856849990785,459.97856849990785,459.97856849990785,459.97856849990785,459.97740114000624,4.3559960999991745,return,4.230303700082004,,,,,,,,,,,,,,,,,,,,,,,,,,,,,,,,,0Q50WN,train_y,red_square,bottom_left,2025-09-13_10h12.14.557,HideSeek_v1,2022.2.5,59.89056798545768,
,4,3,4,7,0,4,12,,train_dim1_1,13,30,,,,2,0,2,0,,,,,,,,,0,0,0,0,0,12,12,12,1,0,1,0,,,,,,,,,,,,,,,,,,,,,,,,,,,,,,,,,,,,,,,,,,,,,,,,,,,,,,,,,,,,,,,,30,,,,,,,,467.9027625999879,467.9027625999879,467.9027625999879,467.9027625999879,467.9027625999879,,,,,up,0.19303390011191368,2,1,0,99,0.16,-0.15999999999999998,up,0.10791810019873083,,,,,,,,,,,,,,,,,,,,,,,,,,,,,,,,,,,,,,,,,,,,,,,,,,,,,,,,0Q50WN,train_y,red_square,bottom_left,2025-09-13_10h12.14.557,HideSeek_v1,2022.2.5,59.89056798545768,
,4,3,4,7,0,4,12,,train_dim1_1,13,30,,,,2,0,2,0,,,,,,,,,0,0,0,0,0,12,12,12,2,0,2,0,,,,,,,,,,,,,,,,,,,,,,,,,,,,,,,,,,,,,,,,,,,,,,,,,,,,,,,,,,,,,,,,30,,,,,,,,468.10402049985714,468.10402049985714,468.10402049985714,468.10402049985714,468.10402049985714,,,,,up,0.42679439997300506,2,1,0,99,0.16,-0.07999999999999997,up,0.34680860000662506,,,,,,,,,,,,,,,,,,,,,,,,,,,,,,,,,,,,,,,,,,,,,,,,,,,,,,,,0Q50WN,train_y,red_square,bottom_left,2025-09-13_10h12.14.557,HideSeek_v1,2022.2.5,59.89056798545768,
,4,3,4,7,0,4,12,,train_dim1_1,13,30,,,,2,0,2,0,,,,,,,,,0,0,0,0,0,12,12,12,3,0,3,0,,,,,,,,,,,,,,,,,,,,,,,,,,,,,,,,,,,,,,,,,,,,,,,,,,,,,,,,,,,,,,,,30,,,,,,,,468.53615479986183,468.53615479986183,468.53615479986183,468.53615479986183,468.53615479986183,,,,,up,0.45994339999742806,2,1,0,99,0.16,2.7755575615628914e-17,up,0.370589500060305,,,,,,,,,,,,,,,,,,,,,,,,,,,,,,,,,,,,,,,,,,,,,,,,,,,,,,,,0Q50WN,train_y,red_square,bottom_left,2025-09-13_10h12.14.557,HideSeek_v1,2022.2.5,59.89056798545768,
,4,3,4,7,0,4,12,,train_dim1_1,13,30,,,,2,0,2,0,,,,,,,,,0,0,0,0,0,12,12,12,4,0,4,0,,,,,,,,,,,,,,,,,,,,,,,,,,,,,,,,,,,,,,,,,,,,,,,,,,,,,,,,,,,,,,,,30,,,,,,,,469.0040182999801,469.0040182999801,469.0040182999801,469.0040182999801,469.0040182999801,,,,,up,0.4098567001055926,2,1,0,99,0.16,0.08000000000000003,up,0.316700000083074,,,,,,,,,,,,,,,,,,,,,,,,,,,,,,,,,,,,,,,,,,,,,,,,,,,,,,,,0Q50WN,train_y,red_square,bottom_left,2025-09-13_10h12.14.557,HideSeek_v1,2022.2.5,59.89056798545768,
,4,3,4,7,0,4,12,,train_dim1_1,13,30,,,,2,0,2,0,,,,,,,,,0,0,0,0,0,12,12,12,5,0,5,0,,,,,,,,,,,,,,,,,,,,,,,,,,,,,,,,,,,,,,,,,,,,,,,,,,,,,,,,,,,,,,,,30,,,,,,,,469.42309239995666,469.42309239995666,469.42309239995666,469.42309239995666,469.42309239995666,14,1,0.16,0.08000000000000003,return,0.7572865998372436,2,1,0,0,0.16,0.08000000000000003,return,0.6784055999014527,,,,,,,,,,,,,,,,,,,,,,,,,,,,,,,,,,,,,,,,,,,,,,,,,,,,,,,,0Q50WN,train_y,red_square,bottom_left,2025-09-13_10h12.14.557,HideSeek_v1,2022.2.5,59.89056798545768,
,2,2,2,2,0,0,16,,train_dim1_1,14,30,,,,2,0,2,0,,,,,,,,,0,0,0,0,0,13,13,13,0,0,0,0,,,,,,,,,,,,,,,,,,,,,,,,,stimuli/alien_stimuli/16.png,,,,,,,,,,,,,,,,,,,,,,,,,,,,,stimuli/alien_stimuli/12.png,12,4,15,,,,,,,30,,,,,,,,475.5358728999272,475.5358728999272,475.5358728999272,475.5358728999272,475.5358728999272,,,,,up,2.3730326001532376,2,1,0,99,0,-0.15999999999999998,up,2.289336899993941,473.9722765998449,475.5358728999272,0.16,0.16,0.32,0.0,0.0,0.16,0.16,0.16,0.16,471.75221009994857,471.75221009994857,471.75221009994857,471.75221009994857,471.75221009994857,471.75221009994857,471.75221009994857,471.75221009994857,471.7535932598635,2.337464899988845,return,2.1896485998295248,,,,,,,,,,,,,,,,,,,,,,,,,,,,,,,,,0Q50WN,train_y,red_square,bottom_left,2025-09-13_10h12.14.557,HideSeek_v1,2022.2.5,59.89056798545768,
,2,2,2,2,0,0,16,,train_dim1_1,14,30,,,,2,0,2,0,,,,,,,,,0,0,0,0,0,13,13,13,1,0,1,0,,,,,,,,,,,,,,,,,,,,,,,,,,,,,,,,,,,,,,,,,,,,,,,,,,,,,,,,,,,,,,,,30,,,,,,,,477.91146239987575,477.91146239987575,477.91146239987575,477.91146239987575,477.91146239987575,15,1,0,-0.15999999999999998,return,0.42606660001911223,2,1,0,0,0,-0.15999999999999998,return,0.34781439998187125,,,,,,,,,,,,,,,,,,,,,,,,,,,,,,,,,,,,,,,,,,,,,,,,,,,,,,,,0Q50WN,train_y,red_square,bottom_left,2025-09-13_10h12.14.557,HideSeek_v1,2022.2.5,59.89056798545768,
,1,4,1,7,0,3,13,,train_dim1_1,15,30,,,,2,0,2,0,,,,,,,,,0,0,0,0,0,14,14,14,0,0,0,0,,,,,,,,,,,,,,,,,,,,,,,,,stimuli/alien_stimuli/13.png,,,,,,,,,,,,,,,,,,,,,,,,,,,,,stimuli/alien_stimuli/16.png,16,2,16,,,,,,,30,,,,,,,,483.8050151998177,483.8050151998177,483.8050151998177,483.8050151998177,483.8050151998177,,,,,up,6.225365000078455,2,1,0,99,-0.08,0.0,up,6.137221500044689,482.24585219984874,483.8050151998177,0,-0.24,0.0,0.0,-0.24,0,0.0,0,-0.24,479.89531769999303,479.89531769999303,479.89531769999303,479.89531769999303,479.89531769999303,479.89531769999303,479.89531769999303,479.89531769999303,479.8937549398746,2.454332699999213,return,2.3250991001259536,,,,,,,,,,,,,,,,,,,,,,,,,,,,,,,,,0Q50WN,train_y,red_square,bottom_left,2025-09-13_10h12.14.557,HideSeek_v1,2022.2.5,59.89056798545768,
,1,4,1,7,0,3,13,,train_dim1_1,15,30,,,,2,0,2,0,,,,,,,,,0,0,0,0,0,14,14,14,1,0,1,0,,,,,,,,,,,,,,,,,,,,,,,,,,,,,,,,,,,,,,,,,,,,,,,,,,,,,,,,,,,,,,,,30,,,,,,,,490.03788459999487,490.03788459999487,490.03788459999487,490.03788459999487,490.03788459999487,,,,,up,0.3930335999466479,2,1,0,99,-0.08,0.08,up,0.305855399928987,,,,,,,,,,,,,,,,,,,,,,,,,,,,,,,,,,,,,,,,,,,,,,,,,,,,,,,,0Q50WN,train_y,red_square,bottom_left,2025-09-13_10h12.14.557,HideSeek_v1,2022.2.5,59.89056798545768,
,1,4,1,7,0,3,13,,train_dim1_1,15,30,,,,2,0,2,0,,,,,,,,,0,0,0,0,0,14,14,14,2,0,2,0,,,,,,,,,,,,,,,,,,,,,,,,,,,,,,,,,,,,,,,,,,,,,,,,,,,,,,,,,,,,,,,,30,,,,,,,,490.4386532998178,490.4386532998178,490.4386532998178,490.4386532998178,490.4386532998178,,,,,up,0.3091416999232024,2,1,0,99,-0.08,0.16,up,0.2306442998815328,,,,,,,,,,,,,,,,,,,,,,,,,,,,,,,,,,,,,,,,,,,,,,,,,,,,,,,,0Q50WN,train_y,red_square,bottom_left,2025-09-13_10h12.14.557,HideSeek_v1,2022.2.5,59.89056798545768,
,1,4,1,7,0,3,13,,train_dim1_1,15,30,,,,2,0,2,0,,,,,,,,,0,0,0,0,0,14,14,14,3,0,3,0,,,,,,,,,,,,,,,,,,,,,,,,,,,,,,,,,,,,,,,,,,,,,,,,,,,,,,,,,,,,,,,,30,,,,,,,,490.75652729999274,490.75652729999274,490.75652729999274,490.75652729999274,490.75652729999274,18,1,-0.08,0.16,return,1.1579770999960601,3,0,0,1,-0.08,0.16,return,1.0682757999747992,,,,,,,,,,,,,,,,,,,,,,,,,,,,,,,,,,,,,,,,,,,,,,,,,,,,,,,,0Q50WN,train_y,red_square,bottom_left,2025-09-13_10h12.14.557,HideSeek_v1,2022.2.5,59.89056798545768,
,4,0,4,1,0,1,15,,train_dim1_1,16,30,,,,2,0,2,0,,,,,,,,,0,0,0,0,0,15,15,15,0,0,0,0,,,,,,,,,,,,,,,,,,,,,,,,,stimuli/alien_stimuli/15.png,,,,,,,,,,,,,,,,,,,,,,,,,,,,,stimuli/alien_stimuli/13.png,13,1,17,,,,,,,30,,,,,,,,497.7502715999726,497.7502715999726,497.7502715999726,497.7502715999726,497.7502715999726,,,,,up,2.8565039997920394,3,0,0,99,0.16,-0.32,up,2.7720728998538107,496.19080219999887,497.7502715999726,-0.08,0.16,0.24,0.0,0.04,-0.08,-0.08,-0.08,0.16,493.4909753999673,493.4909753999673,493.4909753999673,493.4909753999673,493.4909753999673,493.4909753999673,493.4909753999673,493.4909753999673,493.48832946005274,2.821570800151676,return,2.6812644999008626,,,,,,,,,,,,,,,,,,,,,,,,,,,,,,,,,0Q50WN,train_y,red_square,bottom_left,2025-09-13_10h12.14.557,HideSeek_v1,2022.2.5,59.89056798545768,
,4,0,4,1,0,1,15,,train_dim1_1,16,30,,,,2,0,2,0,,,,,,,,,0,0,0,0,0,15,15,15,1,0,1,0,,,,,,,,,,,,,,,,,,,,,,,,,,,,,,,,,,,,,,,,,,,,,,,,,,,,,,,,,,,,,,,,30,,,,,,,,500.61357759987004,500.61357759987004,500.61357759987004,500.61357759987004,500.61357759987004,19,1,0.16,-0.32,return,0.47645950014702976,4,0,0,1,0.16,-0.32,return,0.38813259988091886,,,,,,,,,,,,,,,,,,,,,,,,,,,,,,,,,,,,,,,,,,,,,,,,,,,,,,,,0Q50WN,train_y,red_square,bottom_left,2025-09-13_10h12.14.557,HideSeek_v1,2022.2.5,59.89056798545768,
,3,3,3,6,0,3,13,,train_dim1_1,17,30,,,,2,0,2,0,,,,,,,,,0,0,0,0,0,16,16,16,0,0,0,0,,,,,,,,,,,,,,,,,,,,,,,,,stimuli/alien_stimuli/13.png,,,,,,,,,,,,,,,,,,,,,,,,,,,,,stimuli/alien_stimuli/15.png,15,4,18,,,,,,,30,,,,,,,,505.60919429990463,505.60919429990463,505.60919429990463,505.60919429990463,505.60919429990463,,,,,up,1.6347803000826389,4,0,0,99,0.08,-0.08,up,1.5557550000958145,504.0472179998178,505.60919429990463,0.16,-0.32,0.08,0.0,-0.36,0.16,0.16,0.16,-0.32,502.6625516999047,502.6625516999047,502.6625516999047,502.6625516999047,502.6625516999047,502.6625516999047,502.6625516999047,502.6625516999047,502.6627635598648,1.503511199960485,return,1.3604584001004696,,,,,,,,,,,,,,,,,,,,,,,,,,,,,,,,,0Q50WN,train_y,red_square,bottom_left,2025-09-13_10h12.14.557,HideSeek_v1,2022.2.5,59.89056798545768,
,3,3,3,6,0,3,13,,train_dim1_1,17,30,,,,2,0,2,0,,,,,,,,,0,0,0,0,0,16,16,16,1,0,1,0,,,,,,,,,,,,,,,,,,,,,,,,,,,,,,,,,,,,,,,,,,,,,,,,,,,,,,,,,,,,,,,,30,,,,,,,,507.251432799967,507.251432799967,507.251432799967,507.251432799967,507.251432799967,,,,,up,0.7933114999905229,4,0,0,99,0.08,0.0,up,0.7159116000402719,,,,,,,,,,,,,,,,,,,,,,,,,,,,,,,,,,,,,,,,,,,,,,,,,,,,,,,,0Q50WN,train_y,red_square,bottom_left,2025-09-13_10h12.14.557,HideSeek_v1,2022.2.5,59.89056798545768,
,3,3,3,6,0,3,13,,train_dim1_1,17,30,,,,2,0,2,0,,,,,,,,,0,0,0,0,0,16,16,16,2,0,2,0,,,,,,,,,,,,,,,,,,,,,,,,,,,,,,,,,,,,,,,,,,,,,,,,,,,,,,,,,,,,,,,,30,,,,,,,,508.0553001998924,508.0553001998924,508.0553001998924,508.0553001998924,508.0553001998924,,,,,up,0.6240542999003083,4,0,0,99,0.08,0.08,up,0.5381039001513273,,,,,,,,,,,,,,,,,,,,,,,,,,,,,,,,,,,,,,,,,,,,,,,,,,,,,,,,0Q50WN,train_y,red_square,bottom_left,2025-09-13_10h12.14.557,HideSeek_v1,2022.2.5,59.89056798545768,
,3,3,3,6,0,3,13,,train_dim1_1,17,30,,,,2,0,2,0,,,,,,,,,0,0,0,0,0,16,16,16,3,0,3,0,,,,,,,,,,,,,,,,,,,,,,,,,,,,,,,,,,,,,,,,,,,,,,,,,,,,,,,,,,,,,,,,30,,,,,,,,508.68632790003903,508.68632790003903,508.68632790003903,508.68632790003903,508.68632790003903,,,,,up,0.5269494999665767,4,0,0,99,0.08,0.16,up,0.4441956002265215,,,,,,,,,,,,,,,,,,,,,,,,,,,,,,,,,,,,,,,,,,,,,,,,,,,,,,,,0Q50WN,train_y,red_square,bottom_left,2025-09-13_10h12.14.557,HideSeek_v1,2022.2.5,59.89056798545768,
,3,3,3,6,0,3,13,,train_dim1_1,17,30,,,,2,0,2,0,,,,,,,,,0,0,0,0,0,16,16,16,4,0,4,0,,,,,,,,,,,,,,,,,,,,,,,,,,,,,,,,,,,,,,,,,,,,,,,,,,,,,,,,,,,,,,,,30,,,,,,,,509.2194769999478,509.2194769999478,509.2194769999478,509.2194769999478,509.2194769999478,23,1,0.08,0.16,return,0.3263050999958068,4,1,0,0,0.08,0.16,return,0.23976990021765232,,,,,,,,,,,,,,,,,,,,,,,,,,,,,,,,,,,,,,,,,,,,,,,,,,,,,,,,0Q50WN,train_y,red_square,bottom_left,2025-09-13_10h12.14.557,HideSeek_v1,2022.2.5,59.89056798545768,
,2,1,2,6,0,5,11,,train_dim1_1,18,30,,,,2,0,2,0,,,,,,,,,0,0,0,0,0,17,17,17,0,0,0,0,,,,,,,,,,,,,,,,,,,,,,,,,stimuli/alien_stimuli/11.png,,,,,,,,,,,,,,,,,,,,,,,,,,,,,stimuli/alien_stimuli/13.png,13,3,19,,,,,,,30,,,,,,,,513.7638758998364,513.7638758998364,513.7638758998364,513.7638758998364,513.7638758998364,,,,,up,1.6718635000288486,4,1,0,99,0,-0.24,up,1.5922101000323892,512.2038641998079,513.7638758998364,0.08,0.08,0.24,0.0,-0.04,0.08,0.08,0.08,0.08,511.1185780998785,511.1185780998785,511.1185780998785,511.1185780998785,511.1185780998785,511.1185780998785,511.1185780998785,511.1185780998785,511.1198056600056,1.2033277000300586,return,1.0668023999314755,,,,,,,,,,,,,,,,,,,,,,,,,,,,,,,,,0Q50WN,train_y,red_square,bottom_left,2025-09-13_10h12.14.557,HideSeek_v1,2022.2.5,59.89056798545768,
,2,1,2,6,0,5,11,,train_dim1_1,18,30,,,,2,0,2,0,,,,,,,,,0,0,0,0,0,17,17,17,1,0,1,0,,,,,,,,,,,,,,,,,,,,,,,,,,,,,,,,,,,,,,,,,,,,,,,,,,,,,,,,,,,,,,,,30,,,,,,,,515.4474216999952,515.4474216999952,515.4474216999952,515.4474216999952,515.4474216999952,,,,,up,7.415350700030103,4,1,0,99,0,-0.15999999999999998,up,7.327125400071964,,,,,,,,,,,,,,,,,,,,,,,,,,,,,,,,,,,,,,,,,,,,,,,,,,,,,,,,0Q50WN,train_y,red_square,bottom_left,2025-09-13_10h12.14.557,HideSeek_v1,2022.2.5,59.89056798545768,
,2,1,2,6,0,5,11,,train_dim1_1,18,30,,,,2,0,2,0,,,,,,,,,0,0,0,0,0,17,17,17,2,0,2,0,,,,,,,,,,,,,,,,,,,,,,,,,,,,,,,,,,,,,,,,,,,,,,,,,,,,,,,,,,,,,,,,30,,,,,,,,522.8654559999704,522.8654559999704,522.8654559999704,522.8654559999704,522.8654559999704,,,,,up,1.3769144001416862,4,1,0,99,0,-0.07999999999999997,up,1.2887719001155347,,,,,,,,,,,,,,,,,,,,,,,,,,,,,,,,,,,,,,,,,,,,,,,,,,,,,,,,0Q50WN,train_y,red_square,bottom_left,2025-09-13_10h12.14.557,HideSeek_v1,2022.2.5,59.89056798545768,
,2,1,2,6,0,5,11,,train_dim1_1,18,30,,,,2,0,2,0,,,,,,,,,0,0,0,0,0,17,17,17,3,0,3,0,,,,,,,,,,,,,,,,,,,,,,,,,,,,,,,,,,,,,,,,,,,,,,,,,,,,,,,,,,,,,,,,30,,,,,,,,524.2494276999496,524.2494276999496,524.2494276999496,524.2494276999496,524.2494276999496,,,,,up,0.40984900016337633,4,1,0,99,0,2.7755575615628914e-17,up,0.32387099997140467,,,,,,,,,,,,,,,,,,,,,,,,,,,,,,,,,,,,,,,,,,,,,,,,,,,,,,,,0Q50WN,train_y,red_square,bottom_left,2025-09-13_10h12.14.557,HideSeek_v1,2022.2.5,59.89056798545768,
,2,1,2,6,0,5,11,,train_dim1_1,18,30,,,,2,0,2,0,,,,,,,,,0,0,0,0,0,17,17,17,4,0,4,0,,,,,,,,,,,,,,,,,,,,,,,,,,,,,,,,,,,,,,,,,,,,,,,,,,,,,,,,,,,,,,,,30,,,,,,,,524.6687617998105,524.6687617998105,524.6687617998105,524.6687617998105,524.6687617998105,,,,,up,0.7772097999695688,4,1,0,99,0,0.08000000000000003,up,0.6888208999298513,,,,,,,,,,,,,,,,,,,,,,,,,,,,,,,,,,,,,,,,,,,,,,,,,,,,,,,,0Q50WN,train_y,red_square,bottom_left,2025-09-13_10h12.14.557,HideSeek_v1,2022.2.5,59.89056798545768,
,2,1,2,6,0,5,11,,train_dim1_1,18,30,,,,2,0,2,0,,,,,,,,,0,0,0,0,0,17,17,17,5,0,5,0,,,,,,,,,,,,,,,,,,,,,,,,,,,,,,,,,,,,,,,,,,,,,,,,,,,,,,,,,,,,,,,,30,,,,,,,,525.4507332998328,525.4507332998328,525.4507332998328,525.4507332998328,525.4507332998328,28,1,0,0.08000000000000003,return,0.3263870000373572,5,0,0,1,0,0.08000000000000003,return,0.24638079991564155,,,,,,,,,,,,,,,,,,,,,,,,,,,,,,,,,,,,,,,,,,,,,,,,,,,,,,,,0Q50WN,train_y,red_square,bottom_left,2025-09-13_10h12.14.557,HideSeek_v1,2022.2.5,59.89056798545768,
,0,4,0,8,0,4,12,,train_dim1_1,19,30,,,,2,0,2,0,,,,,,,,,0,0,0,0,0,18,18,18,0,0,0,0,,,,,,,,,,,,,,,,,,,,,,,,,stimuli/alien_stimuli/12.png,,,,,,,,,,,,,,,,,,,,,,,,,,,,,stimuli/alien_stimuli/11.png,11,2,20,,,,,,,30,,,,,,,,536.3515892999712,536.3515892999712,536.3515892999712,536.3515892999712,536.3515892999712,,,,,up,45.92329999990761,5,0,0,99,-0.16,0.0,up,45.8388253999874,534.7895650998689,536.3515892999712,0,0.08,0.4,0.0,-0.12,0,0.0,0,0.08,527.3514296000358,527.3514296000358,527.3514296000358,527.3514296000358,527.3514296000358,527.3514296000358,527.3514296000358,527.3514296000358,527.3501243599691,7.558449999894947,return,7.422241100110114,,,,,,,,,,,,,,,,,,,,,,,,,,,,,,,,,0Q50WN,train_y,red_square,bottom_left,2025-09-13_10h12.14.557,HideSeek_v1,2022.2.5,59.89056798545768,
,0,4,0,8,0,4,12,,train_dim1_1,19,30,,,,2,0,2,0,,,,,,,,,0,0,0,0,0,18,18,18,1,0,1,0,,,,,,,,,,,,,,,,,,,,,,,,,,,,,,,,,,,,,,,,,,,,,,,,,,,,,,,,,,,,,,,,30,,,,,,,,582.2961092998739,582.2961092998739,582.2961092998739,582.2961092998739,582.2961092998739,,,,,up,0.4762844000943005,5,0,0,99,-0.16,0.08,up,0.375385400140658,,,,,,,,,,,,,,,,,,,,,,,,,,,,,,,,,,,,,,,,,,,,,,,,,,,,,,,,0Q50WN,train_y,red_square,bottom_left,2025-09-13_10h12.14.557,HideSeek_v1,2022.2.5,59.89056798545768,
,0,4,0,8,0,4,12,,train_dim1_1,19,30,,,,2,0,2,0,,,,,,,,,0,0,0,0,0,18,18,18,2,0,2,0,,,,,,,,,,,,,,,,,,,,,,,,,,,,,,,,,,,,,,,,,,,,,,,,,,,,,,,,,,,,,,,,30,,,,,,,,582.7679991999175,582.7679991999175,582.7679991999175,582.7679991999175,582.7679991999175,,,,,up,0.8574904999695718,5,0,0,99,-0.16,0.16,up,0.7771860999055207,,,,,,,,,,,,,,,,,,,,,,,,,,,,,,,,,,,,,,,,,,,,,,,,,,,,,,,,0Q50WN,train_y,red_square,bottom_left,2025-09-13_10h12.14.557,HideSeek_v1,2022.2.5,59.89056798545768,
,0,4,0,8,0,4,12,,train_dim1_1,19,30,,,,2,0,2,0,,,,,,,,,0,0,0,0,0,18,18,18,3,0,3,0,,,,,,,,,,,,,,,,,,,,,,,,,,,,,,,,,,,,,,,,,,,,,,,,,,,,,,,,,,,,,,,,30,,,,,,,,583.6324738999829,583.6324738999829,583.6324738999829,583.6324738999829,583.6324738999829,,,,,up,0.24259450007230043,5,0,0,99,-0.16,0.24,up,0.15998060000129044,,,,,,,,,,,,,,,,,,,,,,,,,,,,,,,,,,,,,,,,,,,,,,,,,,,,,,,,0Q50WN,train_y,red_square,bottom_left,2025-09-13_10h12.14.557,HideSeek_v1,2022.2.5,59.89056798545768,
,0,4,0,8,0,4,12,,train_dim1_1,19,30,,,,2,0,2,0,,,,,,,,,0,0,0,0,0,18,18,18,4,0,4,0,,,,,,,,,,,,,,,,,,,,,,,,,,,,,,,,,,,,,,,,,,,,,,,,,,,,,,,,,,,,,,,,30,,,,,,,,583.8836401000153,583.8836401000153,583.8836401000153,583.8836401000153,583.8836401000153,32,1,-0.16,0.24,return,0.7437572998460382,6,0,0,1,-0.16,0.24,return,0.6617745999246836,,,,,,,,,,,,,,,,,,,,,,,,,,,,,,,,,,,,,,,,,,,,,,,,,,,,,,,,0Q50WN,train_y,red_square,bottom_left,2025-09-13_10h12.14.557,HideSeek_v1,2022.2.5,59.89056798545768,
,2,0,2,0,0,0,16,,train_dim1_1,20,30,,,,2,0,2,0,,,,,,,,,0,0,0,0,0,19,19,19,0,0,0,0,,,,,,,,,,,,,,,,,,,,,,,,,stimuli/alien_stimuli/16.png,,,,,,,,,,,,,,,,,,,,,,,,,,,,,stimuli/alien_stimuli/12.png,12,0,21,,,,,,,30,,,,,,,,590.6950357998721,590.6950357998721,590.6950357998721,590.6950357998721,590.6950357998721,,,,,up,5.591443299781531,6,0,0,99,0,-0.32,up,5.509627299848944,589.1344857998192,590.6950357998721,-0.16,0.24,0.32,0.0,0.07999999999999999,-0.16,-0.16,-0.16,0.24,586.2014848999679,586.2014848999679,586.2014848999679,586.2014848999679,586.2014848999679,586.2014848999679,586.2014848999679,586.2014848999679,586.1987117600162,3.054891600040719,return,2.9127295000944287,,,,,,,,,,,,,,,,,,,,,,,,,,,,,,,,,0Q50WN,train_y,red_square,bottom_left,2025-09-13_10h12.14.557,HideSeek_v1,2022.2.5,59.89056798545768,
,2,0,2,0,0,0,16,,train_dim1_1,20,30,,,,2,0,2,0,,,,,,,,,0,0,0,0,0,19,19,19,1,0,1,0,,,,,,,,,,,,,,,,,,,,,,,,,,,,,,,,,,,,,,,,,,,,,,,,,,,,,,,,,,,,,,,,30,,,,,,,,596.2926231999882,596.2926231999882,596.2926231999882,596.2926231999882,596.2926231999882,,,,,up,0.40977329993620515,6,0,0,99,0,-0.24,up,0.3278363000135869,,,,,,,,,,,,,,,,,,,,,,,,,,,,,,,,,,,,,,,,,,,,,,,,,,,,,,,,0Q50WN,train_y,red_square,bottom_left,2025-09-13_10h12.14.557,HideSeek_v1,2022.2.5,59.89056798545768,
,2,0,2,0,0,0,16,,train_dim1_1,20,30,,,,2,0,2,0,,,,,,,,,0,0,0,0,0,19,19,19,2,0,2,0,,,,,,,,,,,,,,,,,,,,,,,,,,,,,,,,,,,,,,,,,,,,,,,,,,,,,,,,,,,,,,,,30,,,,,,,,596.7096239998937,596.7096239998937,596.7096239998937,596.7096239998937,596.7096239998937,34,1,0,-0.24,return,0.9271185998804867,6,0,0,0,0,-0.24,return,0.8471663000527769,,,,,,,,,,,,,,,,,,,,,,,,,,,,,,,,,,,,,,,,,,,,,,,,,,,,,,,,0Q50WN,train_y,red_square,bottom_left,2025-09-13_10h12.14.557,HideSeek_v1,2022.2.5,59.89056798545768,
,2,4,2,5,0,1,15,,train_dim1_1,21,30,,,,2,0,2,0,,,,,,,,,0,0,0,0,0,20,20,20,0,0,0,0,,,,,,,,,,,,,,,,,,,,,,,,,stimuli/alien_stimuli/15.png,,,,,,,,,,,,,,,,,,,,,,,,,,,,,stimuli/alien_stimuli/16.png,16,2,22,,,,,,,30,,,,,,,,605.3587533000391,605.3587533000391,605.3587533000391,605.3587533000391,605.3587533000391,34,1,0,-0.08,return,3.6881660998333246,6,1,0,0,0,-0.08,return,3.5965066999197006,603.7967515999917,605.3587533000391,0,-0.4,0.0,0.0,-0.4,0,0.0,0,-0.4,599.2094376999885,599.2094376999885,599.2094376999885,599.2094376999885,599.2094376999885,599.2094376999885,599.2094376999885,599.2094376999885,599.2094983599615,4.705898199928924,return,4.56715300003998,,,,,,,,,,,,,,,,,,,,,,,,,,,,,,,,,0Q50WN,train_y,red_square,bottom_left,2025-09-13_10h12.14.557,HideSeek_v1,2022.2.5,59.89056798545768,
,0,2,0,5,0,3,13,,train_dim1_1,22,30,,,,2,0,2,0,,,,,,,,,0,0,0,0,0,21,21,21,0,0,0,0,,,,,,,,,,,,,,,,,,,,,,,,,stimuli/alien_stimuli/13.png,,,,,,,,,,,,,,,,,,,,,,,,,,,,,stimuli/alien_stimuli/15.png,15,2,23,,,,,,,30,,,,,,,,614.3460625000298,614.3460625000298,614.3460625000298,614.3460625000298,614.3460625000298,,,,,up,2.6225403998978436,6,1,0,99,-0.16,-0.15999999999999998,up,2.5405160998925567,612.7875634999946,614.3460625000298,0,0,0.08,0.0,-0.04,0,0.0,0,0,610.6040359998588,610.6040359998588,610.6040359998588,610.6040359998588,610.6040359998588,610.6040359998588,610.6040359998588,610.6040359998588,610.602279239893,2.2874170001596212,return,2.1513059998396784,,,,,,,,,,,,,,,,,,,,,,,,,,,,,,,,,0Q50WN,train_y,red_square,bottom_left,2025-09-13_10h12.14.557,HideSeek_v1,2022.2.5,59.89056798545768,
,0,2,0,5,0,3,13,,train_dim1_1,22,30,,,,2,0,2,0,,,,,,,,,0,0,0,0,0,21,21,21,1,0,1,0,,,,,,,,,,,,,,,,,,,,,,,,,,,,,,,,,,,,,,,,,,,,,,,,,,,,,,,,,,,,,,,,30,,,,,,,,616.9761465999763,616.9761465999763,616.9761465999763,616.9761465999763,616.9761465999763,,,,,up,0.5263604999054223,6,1,0,99,-0.16,-0.07999999999999997,up,0.4463535000104457,,,,,,,,,,,,,,,,,,,,,,,,,,,,,,,,,,,,,,,,,,,,,,,,,,,,,,,,0Q50WN,train_y,red_square,bottom_left,2025-09-13_10h12.14.557,HideSeek_v1,2022.2.5,59.89056798545768,
,0,2,0,5,0,3,13,,train_dim1_1,22,30,,,,2,0,2,0,,,,,,,,,0,0,0,0,0,21,21,21,2,0,2,0,,,,,,,,,,,,,,,,,,,,,,,,,,,,,,,,,,,,,,,,,,,,,,,,,,,,,,,,,,,,,,,,30,,,,,,,,617.5109996998217,617.5109996998217,617.5109996998217,617.5109996998217,617.5109996998217,,,,,up,0.4599584999959916,6,1,0,99,-0.16,2.7755575615628914e-17,up,0.37672229995951056,,,,,,,,,,,,,,,,,,,,,,,,,,,,,,,,,,,,,,,,,,,,,,,,,,,,,,,,0Q50WN,train_y,red_square,bottom_left,2025-09-13_10h12.14.557,HideSeek_v1,2022.2.5,59.89056798545768,
,0,2,0,5,0,3,13,,train_dim1_1,22,30,,,,2,0,2,0,,,,,,,,,0,0,0,0,0,21,21,21,3,0,3,0,,,,,,,,,,,,,,,,,,,,,,,,,,,,,,,,,,,,,,,,,,,,,,,,,,,,,,,,,,,,,,,,30,,,,,,,,617.9773034998216,617.9773034998216,617.9773034998216,617.9773034998216,617.9773034998216,37,1,-0.16,2.7755575615628914e-17,return,0.7440979999955744,7,0,0,1,-0.16,2.7755575615628914e-17,return,0.6620315001346171,,,,,,,,,,,,,,,,,,,,,,,,,,,,,,,,,,,,,,,,,,,,,,,,,,,,,,,,0Q50WN,train_y,red_square,bottom_left,2025-09-13_10h12.14.557,HideSeek_v1,2022.2.5,59.89056798545768,
,0,3,0,8,0,5,11,,train_dim1_1,23,30,,,,2,0,2,0,,,,,,,,,0,0,0,0,0,22,22,22,0,0,0,0,,,,,,,,,,,,,,,,,,,,,,,,,stimuli/alien_stimuli/11.png,,,,,,,,,,,,,,,,,,,,,,,,,,,,,stimuli/alien_stimuli/13.png,13,0,24,,,,,,,30,,,,,,,,622.8411202998832,622.8411202998832,622.8411202998832,622.8411202998832,622.8411202998832,,,,,up,1.4686322000343353,7,0,0,99,-0.16,-0.08,up,1.38769599981606,621.2778153999243,622.8411202998832,-0.16,0,0.24,0.0,-0.12,-0.16,-0.16,-0.16,0,620.2958962998819,620.2958962998819,620.2958962998819,620.2958962998819,620.2958962998819,620.2958962998819,620.2958962998819,620.2958962998819,620.2937297598925,1.102602400118485,return,0.9537865999154747,,,,,,,,,,,,,,,,,,,,,,,,,,,,,,,,,0Q50WN,train_y,red_square,bottom_left,2025-09-13_10h12.14.557,HideSeek_v1,2022.2.5,59.89056798545768,
,0,3,0,8,0,5,11,,train_dim1_1,23,30,,,,2,0,2,0,,,,,,,,,0,0,0,0,0,22,22,22,1,0,1,0,,,,,,,,,,,,,,,,,,,,,,,,,,,,,,,,,,,,,,,,,,,,,,,,,,,,,,,,,,,,,,,,30,,,,,,,,624.3159547999967,624.3159547999967,624.3159547999967,624.3159547999967,624.3159547999967,,,,,up,0.29284270014613867,7,0,0,99,-0.16,0.0,up,0.20273360004648566,,,,,,,,,,,,,,,,,,,,,,,,,,,,,,,,,,,,,,,,,,,,,,,,,,,,,,,,0Q50WN,train_y,red_square,bottom_left,2025-09-13_10h12.14.557,HideSeek_v1,2022.2.5,59.89056798545768,
,0,3,0,8,0,5,11,,train_dim1_1,23,30,,,,2,0,2,0,,,,,,,,,0,0,0,0,0,22,22,22,2,0,2,0,,,,,,,,,,,,,,,,,,,,,,,,,,,,,,,,,,,,,,,,,,,,,,,,,,,,,,,,,,,,,,,,30,,,,,,,,624.6188433000352,624.6188433000352,624.6188433000352,624.6188433000352,624.6188433000352,,,,,up,0.30985710001550615,7,0,0,99,-0.16,0.08,up,0.2272522000130266,,,,,,,,,,,,,,,,,,,,,,,,,,,,,,,,,,,,,,,,,,,,,,,,,,,,,,,,0Q50WN,train_y,red_square,bottom_left,2025-09-13_10h12.14.557,HideSeek_v1,2022.2.5,59.89056798545768,
,0,3,0,8,0,5,11,,train_dim1_1,23,30,,,,2,0,2,0,,,,,,,,,0,0,0,0,0,22,22,22,3,0,3,0,,,,,,,,,,,,,,,,,,,,,,,,,,,,,,,,,,,,,,,,,,,,,,,,,,,,,,,,,,,,,,,,30,,,,,,,,624.9362119999714,624.9362119999714,624.9362119999714,624.9362119999714,624.9362119999714,,,,,up,0.2899114000611007,7,0,0,99,-0.16,0.16,up,0.20785510004498065,,,,,,,,,,,,,,,,,,,,,,,,,,,,,,,,,,,,,,,,,,,,,,,,,,,,,,,,0Q50WN,train_y,red_square,bottom_left,2025-09-13_10h12.14.557,HideSeek_v1,2022.2.5,59.89056798545768,
,0,3,0,8,0,5,11,,train_dim1_1,23,30,,,,2,0,2,0,,,,,,,,,0,0,0,0,0,22,22,22,4,0,4,0,,,,,,,,,,,,,,,,,,,,,,,,,,,,,,,,,,,,,,,,,,,,,,,,,,,,,,,,,,,,,,,,30,,,,,,,,625.2342761999462,625.2342761999462,625.2342761999462,625.2342761999462,625.2342761999462,,,,,up,1.0104136001318693,7,0,0,99,-0.16,0.24,up,0.9294231000822037,,,,,,,,,,,,,,,,,,,,,,,,,,,,,,,,,,,,,,,,,,,,,,,,,,,,,,,,0Q50WN,train_y,red_square,bottom_left,2025-09-13_10h12.14.557,HideSeek_v1,2022.2.5,59.89056798545768,
,0,3,0,8,0,5,11,,train_dim1_1,23,30,,,,2,0,2,0,,,,,,,,,0,0,0,0,0,22,22,22,5,0,5,0,,,,,,,,,,,,,,,,,,,,,,,,,,,,,,,,,,,,,,,,,,,,,,,,,,,,,,,,,,,,,,,,30,,,,,,,,626.2503110999241,626.2503110999241,626.2503110999241,626.2503110999241,626.2503110999241,42,1,-0.16,0.24,return,0.827157799853012,8,0,0,1,-0.16,0.24,return,0.7486569001339376,,,,,,,,,,,,,,,,,,,,,,,,,,,,,,,,,,,,,,,,,,,,,,,,,,,,,,,,0Q50WN,train_y,red_square,bottom_left,2025-09-13_10h12.14.557,HideSeek_v1,2022.2.5,59.89056798545768,
,3,2,3,2,0,0,16,,train_dim1_1,24,30,,,,2,0,2,0,,,,,,,,,0,0,0,0,0,23,23,23,0,0,0,0,,,,,,,,,,,,,,,,,,,,,,,,,stimuli/alien_stimuli/16.png,,,,,,,,,,,,,,,,,,,,,,,,,,,,,stimuli/alien_stimuli/11.png,11,0,25,,,,,,,30,,,,,,,,631.3322372999974,631.3322372999974,631.3322372999974,631.3322372999974,631.3322372999974,42,1,0.08,-0.24,return,2.872254200046882,9,0,0,1,0.08,-0.24,return,2.774676699889824,629.7678725000005,631.3322372999974,-0.16,0.24,0.4,0.0,0.039999999999999994,-0.16,-0.16,-0.16,0.24,628.6325329998508,628.6325329998508,628.6325329998508,628.6325329998508,628.6325329998508,628.6325329998508,628.6325329998508,628.6325329998508,628.633891439857,1.2375821999739856,return,1.1200874000787735,,,,,,,,,,,,,,,,,,,,,,,,,,,,,,,,,0Q50WN,train_y,red_square,bottom_left,2025-09-13_10h12.14.557,HideSeek_v1,2022.2.5,59.89056798545768,
,3,3,3,7,0,4,12,,train_dim1_1,25,30,,,,2,0,2,0,,,,,,,,,0,0,0,0,0,24,24,24,0,0,0,0,,,,,,,,,,,,,,,,,,,,,,,,,stimuli/alien_stimuli/12.png,,,,,,,,,,,,,,,,,,,,,,,,,,,,,stimuli/alien_stimuli/16.png,16,3,26,,,,,,,30,,,,,,,,638.4341374000069,638.4341374000069,638.4341374000069,638.4341374000069,638.4341374000069,,,,,up,2.555396000156179,9,0,0,99,0.08,-0.08,up,2.4618090998847038,636.8739471998997,638.4341374000069,0.08,-0.24,0.0,0.0,-0.24,0.08,0.08,0.08,-0.24,635.759994099848,635.759994099848,635.759994099848,635.759994099848,635.759994099848,635.759994099848,635.759994099848,635.759994099848,635.7564564399422,1.219891699962318,return,1.0929715000092983,,,,,,,,,,,,,,,,,,,,,,,,,,,,,,,,,0Q50WN,train_y,red_square,bottom_left,2025-09-13_10h12.14.557,HideSeek_v1,2022.2.5,59.89056798545768,
,3,3,3,7,0,4,12,,train_dim1_1,25,30,,,,2,0,2,0,,,,,,,,,0,0,0,0,0,24,24,24,1,0,1,0,,,,,,,,,,,,,,,,,,,,,,,,,,,,,,,,,,,,,,,,,,,,,,,,,,,,,,,,,,,,,,,,30,,,,,,,,640.9967548998538,640.9967548998538,640.9967548998538,640.9967548998538,640.9967548998538,,,,,up,1.0769044999033213,9,0,0,99,0.08,0.0,up,0.9942498998716474,,,,,,,,,,,,,,,,,,,,,,,,,,,,,,,,,,,,,,,,,,,,,,,,,,,,,,,,0Q50WN,train_y,red_square,bottom_left,2025-09-13_10h12.14.557,HideSeek_v1,2022.2.5,59.89056798545768,
,3,3,3,7,0,4,12,,train_dim1_1,25,30,,,,2,0,2,0,,,,,,,,,0,0,0,0,0,24,24,24,2,0,2,0,,,,,,,,,,,,,,,,,,,,,,,,,,,,,,,,,,,,,,,,,,,,,,,,,,,,,,,,,,,,,,,,30,,,,,,,,642.0806227999274,642.0806227999274,642.0806227999274,642.0806227999274,642.0806227999274,,,,,up,0.5933224000036716,9,0,0,99,0.08,0.08,up,0.5149101999122649,,,,,,,,,,,,,,,,,,,,,,,,,,,,,,,,,,,,,,,,,,,,,,,,,,,,,,,,0Q50WN,train_y,red_square,bottom_left,2025-09-13_10h12.14.557,HideSeek_v1,2022.2.5,59.89056798545768,
,3,3,3,7,0,4,12,,train_dim1_1,25,30,,,,2,0,2,0,,,,,,,,,0,0,0,0,0,24,24,24,3,0,3,0,,,,,,,,,,,,,,,,,,,,,,,,,,,,,,,,,,,,,,,,,,,,,,,,,,,,,,,,,,,,,,,,30,,,,,,,,642.6809852998704,642.6809852998704,642.6809852998704,642.6809852998704,642.6809852998704,,,,,up,0.5598925999365747,9,0,0,99,0.08,0.16,up,0.47193230013363063,,,,,,,,,,,,,,,,,,,,,,,,,,,,,,,,,,,,,,,,,,,,,,,,,,,,,,,,0Q50WN,train_y,red_square,bottom_left,2025-09-13_10h12.14.557,HideSeek_v1,2022.2.5,59.89056798545768,
,3,3,3,7,0,4,12,,train_dim1_1,25,30,,,,2,0,2,0,,,,,,,,,0,0,0,0,0,24,24,24,4,0,4,0,,,,,,,,,,,,,,,,,,,,,,,,,,,,,,,,,,,,,,,,,,,,,,,,,,,,,,,,,,,,,,,,30,,,,,,,,643.2475916999392,643.2475916999392,643.2475916999392,643.2475916999392,643.2475916999392,46,1,0.08,0.16,return,3.129018399864435,10,0,0,1,0.08,0.16,return,3.0482008999679238,,,,,,,,,,,,,,,,,,,,,,,,,,,,,,,,,,,,,,,,,,,,,,,,,,,,,,,,0Q50WN,train_y,red_square,bottom_left,2025-09-13_10h12.14.557,HideSeek_v1,2022.2.5,59.89056798545768,
,4,4,4,7,0,3,13,,train_dim1_1,26,30,,,,2,0,2,0,,,,,,,,,0,0,0,0,0,25,25,25,0,0,0,0,,,,,,,,,,,,,,,,,,,,,,,,,stimuli/alien_stimuli/13.png,,,,,,,,,,,,,,,,,,,,,,,,,,,,,stimuli/alien_stimuli/12.png,12,3,27,,,,,,,30,,,,,,,,650.8584390999749,650.8584390999749,650.8584390999749,650.8584390999749,650.8584390999749,,,,,up,5.008767999941483,10,0,0,99,0.16,0.0,up,4.9206153999548405,649.3012881998438,650.8584390999749,0.08,0.16,0.32,0.0,0.0,0.08,0.08,0.08,0.16,647.9520991998725,647.9520991998725,647.9520991998725,647.9520991998725,647.9520991998725,647.9520991998725,647.9520991998725,647.9520991998725,647.9498786599376,1.470073299948126,return,1.3240998999681324,,,,,,,,,,,,,,,,,,,,,,,,,,,,,,,,,0Q50WN,train_y,red_square,bottom_left,2025-09-13_10h12.14.557,HideSeek_v1,2022.2.5,59.89056798545768,
,4,4,4,7,0,3,13,,train_dim1_1,26,30,,,,2,0,2,0,,,,,,,,,0,0,0,0,0,25,25,25,1,0,1,0,,,,,,,,,,,,,,,,,,,,,,,,,,,,,,,,,,,,,,,,,,,,,,,,,,,,,,,,,,,,,,,,30,,,,,,,,655.8800401999615,655.8800401999615,655.8800401999615,655.8800401999615,655.8800401999615,,,,,up,0.30666769994422793,10,0,0,99,0.16,0.08,up,0.21956139989197254,,,,,,,,,,,,,,,,,,,,,,,,,,,,,,,,,,,,,,,,,,,,,,,,,,,,,,,,0Q50WN,train_y,red_square,bottom_left,2025-09-13_10h12.14.557,HideSeek_v1,2022.2.5,59.89056798545768,
,4,4,4,7,0,3,13,,train_dim1_1,26,30,,,,2,0,2,0,,,,,,,,,0,0,0,0,0,25,25,25,2,0,2,0,,,,,,,,,,,,,,,,,,,,,,,,,,,,,,,,,,,,,,,,,,,,,,,,,,,,,,,,,,,,,,,,30,,,,,,,,656.1912314998917,656.1912314998917,656.1912314998917,656.1912314998917,656.1912314998917,,,,,up,0.22652169992215931,10,0,0,99,0.16,0.16,up,0.14699339983053505,,,,,,,,,,,,,,,,,,,,,,,,,,,,,,,,,,,,,,,,,,,,,,,,,,,,,,,,0Q50WN,train_y,red_square,bottom_left,2025-09-13_10h12.14.557,HideSeek_v1,2022.2.5,59.89056798545768,
,4,4,4,7,0,3,13,,train_dim1_1,26,30,,,,2,0,2,0,,,,,,,,,0,0,0,0,0,25,25,25,3,0,3,0,,,,,,,,,,,,,,,,,,,,,,,,,,,,,,,,,,,,,,,,,,,,,,,,,,,,,,,,,,,,,,,,30,,,,,,,,656.4259329999331,656.4259329999331,656.4259329999331,656.4259329999331,656.4259329999331,49,1,0.16,0.16,return,0.8105059000663459,11,0,0,1,0.16,0.16,return,0.7315028999000788,,,,,,,,,,,,,,,,,,,,,,,,,,,,,,,,,,,,,,,,,,,,,,,,,,,,,,,,0Q50WN,train_y,red_square,bottom_left,2025-09-13_10h12.14.557,HideSeek_v1,2022.2.5,59.89056798545768,
,3,4,3,4,0,0,16,,train_dim1_1,27,30,,,,2,0,2,0,,,,,,,,,0,0,0,0,0,26,26,26,0,0,0,0,,,,,,,,,,,,,,,,,,,,,,,,,stimuli/alien_stimuli/16.png,,,,,,,,,,,,,,,,,,,,,,,,,,,,,stimuli/alien_stimuli/13.png,13,4,28,,,,,,,30,,,,,,,,661.8177640999202,661.8177640999202,661.8177640999202,661.8177640999202,661.8177640999202,49,1,0.08,-0.08,return,6.693771200021729,12,0,0,1,0.08,-0.08,return,6.606573700206354,660.2602162000258,661.8177640999202,0.16,0.16,0.24,0.0,0.04,0.16,0.16,0.16,0.16,658.8079798000399,658.8079798000399,658.8079798000399,658.8079798000399,658.8079798000399,658.8079798000399,658.8079798000399,658.8079798000399,658.8088590599597,1.5700676999986172,return,1.4221171999815851,,,,,,,,,,,,,,,,,,,,,,,,,,,,,,,,,0Q50WN,train_y,red_square,bottom_left,2025-09-13_10h12.14.557,HideSeek_v1,2022.2.5,59.89056798545768,
,4,1,4,6,0,5,11,,train_dim1_1,28,30,,,,2,0,2,0,,,,,,,,,0,0,0,0,0,27,27,27,0,0,0,0,,,,,,,,,,,,,,,,,,,,,,,,,stimuli/alien_stimuli/11.png,,,,,,,,,,,,,,,,,,,,,,,,,,,,,stimuli/alien_stimuli/16.png,16,3,29,,,,,,,30,,,,,,,,706.9413648999762,706.9413648999762,706.9413648999762,706.9413648999762,706.9413648999762,,,,,up,3.120285299839452,12,0,0,99,0.16,-0.24,up,3.017630700021982,705.3643590998836,706.9413648999762,0.08,-0.08,0.0,0.0,-0.08,0.08,0.08,0.08,-0.08,670.0850694999099,670.0850694999099,670.0850694999099,670.0850694999099,670.0850694999099,670.0850694999099,670.0850694999099,670.0850694999099,670.0848711600062,35.39829570008442,return,35.25221740012057,,,,,,,,,,,,,,,,,,,,,,,,,,,,,,,,,0Q50WN,train_y,red_square,bottom_left,2025-09-13_10h12.14.557,HideSeek_v1,2022.2.5,59.89056798545768,
,4,1,4,6,0,5,11,,train_dim1_1,28,30,,,,2,0,2,0,,,,,,,,,0,0,0,0,0,27,27,27,1,0,1,0,,,,,,,,,,,,,,,,,,,,,,,,,,,,,,,,,,,,,,,,,,,,,,,,,,,,,,,,,,,,,,,,30,,,,,,,,710.0536372000352,710.0536372000352,710.0536372000352,710.0536372000352,710.0536372000352,,,,,up,0.4096611998975277,12,0,0,99,0.16,-0.15999999999999998,up,0.3315284999553114,,,,,,,,,,,,,,,,,,,,,,,,,,,,,,,,,,,,,,,,,,,,,,,,,,,,,,,,0Q50WN,train_y,red_square,bottom_left,2025-09-13_10h12.14.557,HideSeek_v1,2022.2.5,59.89056798545768,
,4,1,4,6,0,5,11,,train_dim1_1,28,30,,,,2,0,2,0,,,,,,,,,0,0,0,0,0,27,27,27,2,0,2,0,,,,,,,,,,,,,,,,,,,,,,,,,,,,,,,,,,,,,,,,,,,,,,,,,,,,,,,,,,,,,,,,30,,,,,,,,710.475917799864,710.475917799864,710.475917799864,710.475917799864,710.475917799864,,,,,up,0.4715466999914497,12,0,0,99,0.16,-0.07999999999999997,up,0.39310689992271364,,,,,,,,,,,,,,,,,,,,,,,,,,,,,,,,,,,,,,,,,,,,,,,,,,,,,,,,0Q50WN,train_y,red_square,bottom_left,2025-09-13_10h12.14.557,HideSeek_v1,2022.2.5,59.89056798545768,
,4,1,4,6,0,5,11,,train_dim1_1,28,30,,,,2,0,2,0,,,,,,,,,0,0,0,0,0,27,27,27,3,0,3,0,,,,,,,,,,,,,,,,,,,,,,,,,,,,,,,,,,,,,,,,,,,,,,,,,,,,,,,,,,,,,,,,30,,,,,,,,710.953579199966,710.953579199966,710.953579199966,710.953579199966,710.953579199966,,,,,up,0.49350380012765527,12,0,0,99,0.16,2.7755575615628914e-17,up,0.3999210000038147,,,,,,,,,,,,,,,,,,,,,,,,,,,,,,,,,,,,,,,,,,,,,,,,,,,,,,,,0Q50WN,train_y,red_square,bottom_left,2025-09-13_10h12.14.557,HideSeek_v1,2022.2.5,59.89056798545768,
,4,1,4,6,0,5,11,,train_dim1_1,28,30,,,,2,0,2,0,,,,,,,,,0,0,0,0,0,27,27,27,4,0,4,0,,,,,,,,,,,,,,,,,,,,,,,,,,,,,,,,,,,,,,,,,,,,,,,,,,,,,,,,,,,,,,,,30,,,,,,,,711.4549265999813,711.4549265999813,711.4549265999813,711.4549265999813,711.4549265999813,,,,,up,0.4599737001117319,12,0,0,99,0.16,0.08000000000000003,up,0.3787126000970602,,,,,,,,,,,,,,,,,,,,,,,,,,,,,,,,,,,,,,,,,,,,,,,,,,,,,,,,0Q50WN,train_y,red_square,bottom_left,2025-09-13_10h12.14.557,HideSeek_v1,2022.2.5,59.89056798545768,
,4,1,4,6,0,5,11,,train_dim1_1,28,30,,,,2,0,2,0,,,,,,,,,0,0,0,0,0,27,27,27,5,0,5,0,,,,,,,,,,,,,,,,,,,,,,,,,,,,,,,,,,,,,,,,,,,,,,,,,,,,,,,,,,,,,,,,30,,,,,,,,711.921894100029,711.921894100029,711.921894100029,711.921894100029,711.921894100029,54,1,0.16,0.08000000000000003,return,0.6770580001175404,13,0,0,1,0.16,0.08000000000000003,return,0.5977356000803411,,,,,,,,,,,,,,,,,,,,,,,,,,,,,,,,,,,,,,,,,,,,,,,,,,,,,,,,0Q50WN,train_y,red_square,bottom_left,2025-09-13_10h12.14.557,HideSeek_v1,2022.2.5,59.89056798545768,
,2,2,2,6,0,4,12,,train_dim1_1,29,30,,,,2,0,2,0,,,,,,,,,0,0,0,0,0,28,28,28,0,0,0,0,,,,,,,,,,,,,,,,,,,,,,,,,stimuli/alien_stimuli/12.png,,,,,,,,,,,,,,,,,,,,,,,,,,,,,stimuli/alien_stimuli/11.png,11,4,30,,,,,,,30,,,,,,,,717.1656619999558,717.1656619999558,717.1656619999558,717.1656619999558,717.1656619999558,,,,,up,4.3399949001614,13,0,0,99,0,-0.15999999999999998,up,4.247264999896288,715.6062015998177,717.1656619999558,0.16,0.08,0.4,0.0,-0.12,0.16,0.16,0.16,0.08,714.1730051999912,714.1730051999912,714.1730051999912,714.1730051999912,714.1730051999912,714.1730051999912,714.1730051999912,714.1730051999912,714.1712847600226,1.553742499789223,return,1.4139394001103938,,,,,,,,,,,,,,,,,,,,,,,,,,,,,,,,,0Q50WN,train_y,red_square,bottom_left,2025-09-13_10h12.14.557,HideSeek_v1,2022.2.5,59.89056798545768,
,2,2,2,6,0,4,12,,train_dim1_1,29,30,,,,2,0,2,0,,,,,,,,,0,0,0,0,0,28,28,28,1,0,1,0,,,,,,,,,,,,,,,,,,,,,,,,,,,,,,,,,,,,,,,,,,,,,,,,,,,,,,,,,,,,,,,,30,,,,,,,,721.5149317998439,721.5149317998439,721.5149317998439,721.5149317998439,721.5149317998439,,,,,up,0.3929860000498593,13,0,0,99,0,-0.07999999999999997,up,0.30753590003587306,,,,,,,,,,,,,,,,,,,,,,,,,,,,,,,,,,,,,,,,,,,,,,,,,,,,,,,,0Q50WN,train_y,red_square,bottom_left,2025-09-13_10h12.14.557,HideSeek_v1,2022.2.5,59.89056798545768,
,2,2,2,6,0,4,12,,train_dim1_1,29,30,,,,2,0,2,0,,,,,,,,,0,0,0,0,0,28,28,28,2,0,2,0,,,,,,,,,,,,,,,,,,,,,,,,,,,,,,,,,,,,,,,,,,,,,,,,,,,,,,,,,,,,,,,,30,,,,,,,,721.9142091998365,721.9142091998365,721.9142091998365,721.9142091998365,721.9142091998365,,,,,up,0.6268278998322785,13,0,0,99,0,2.7755575615628914e-17,up,0.5453586000949144,,,,,,,,,,,,,,,,,,,,,,,,,,,,,,,,,,,,,,,,,,,,,,,,,,,,,,,,0Q50WN,train_y,red_square,bottom_left,2025-09-13_10h12.14.557,HideSeek_v1,2022.2.5,59.89056798545768,
,2,2,2,6,0,4,12,,train_dim1_1,29,30,,,,2,0,2,0,,,,,,,,,0,0,0,0,0,28,28,28,3,0,3,0,,,,,,,,,,,,,,,,,,,,,,,,,,,,,,,,,,,,,,,,,,,,,,,,,,,,,,,,,,,,,,,,30,,,,,,,,722.5510019999929,722.5510019999929,722.5510019999929,722.5510019999929,722.5510019999929,,,,,up,0.5071491000708193,13,0,0,99,0,0.08000000000000003,up,0.41548309987410903,,,,,,,,,,,,,,,,,,,,,,,,,,,,,,,,,,,,,,,,,,,,,,,,,,,,,,,,0Q50WN,train_y,red_square,bottom_left,2025-09-13_10h12.14.557,HideSeek_v1,2022.2.5,59.89056798545768,
,2,2,2,6,0,4,12,,train_dim1_1,29,30,,,,2,0,2,0,,,,,,,,,0,0,0,0,0,28,28,28,4,0,4,0,,,,,,,,,,,,,,,,,,,,,,,,,,,,,,,,,,,,,,,,,,,,,,,,,,,,,,,,,,,,,,,,30,,,,,,,,723.0650304998271,723.0650304998271,723.0650304998271,723.0650304998271,723.0650304998271,58,1,0,0.08000000000000003,return,0.6269046000670642,14,0,0,1,0,0.08000000000000003,return,0.5331041000317782,,,,,,,,,,,,,,,,,,,,,,,,,,,,,,,,,,,,,,,,,,,,,,,,,,,,,,,,0Q50WN,train_y,red_square,bottom_left,2025-09-13_10h12.14.557,HideSeek_v1,2022.2.5,59.89056798545768,
,0,1,0,2,0,1,15,,train_dim1_1,30,30,,,,2,0,2,0,,,,,,,,,0,0,0,0,0,29,29,29,0,0,0,0,,,,,,,,,,,,,,,,,,,,,,,,,stimuli/alien_stimuli/15.png,,,,,,,,,,,,,,,,,,,,,,,,,,,,,stimuli/alien_stimuli/12.png,12,2,31,,,,,,,30,,,,,,,,728.3448036999907,728.3448036999907,728.3448036999907,728.3448036999907,728.3448036999907,,,,,up,2.203467099927366,14,0,0,99,-0.16,-0.24,up,2.11637149984017,726.7818940000143,728.3448036999907,0,0.08,0.32,0.0,-0.07999999999999999,0,0.0,0,0.08,725.2651428999379,725.2651428999379,725.2651428999379,725.2651428999379,725.2651428999379,725.2651428999379,725.2651428999379,725.2651428999379,725.2642700599041,1.636477200081572,return,1.495640000095591,,,,,,,,,,,,,,,,,,,,,,,,,,,,,,,,,0Q50WN,train_y,red_square,bottom_left,2025-09-13_10h12.14.557,HideSeek_v1,2022.2.5,59.89056798545768,
,0,1,0,2,0,1,15,,train_dim1_1,30,30,,,,2,0,2,0,,,,,,,,,0,0,0,0,0,29,29,29,1,0,1,0,,,,,,,,,,,,,,,,,,,,,,,,,,,,,,,,,,,,,,,,,,,,,,,,,,,,,,,,,,,,,,,,30,,,,,,,,730.5540425998624,730.5540425998624,730.5540425998624,730.5540425998624,730.5540425998624,59,1,-0.16,-0.24,return,0.6762190998997539,15,0,0,1,-0.16,-0.24,return,0.5992221999913454,,,,,,,,,,,,,,,,,,,,,,,,,,,,,,,,,,,,,,,,,,,,,,,,,,,,,,,,0Q50WN,train_y,red_square,bottom_left,2025-09-13_10h12.14.557,HideSeek_v1,2022.2.5,59.89056798545768,
,,,,,,,,,,,30,,,,2,0,2,0,,,,,,,,,,,,,,,,,,,,,,,,,,,,,,,,,,,,,,,,,,,,,,,,,,,,,,,,,,,,,,,,,,,,,,,,,,stimuli/alien_stimuli/15.png,15,0,32,21,0.7,0.625,1,1,1,30,0,conditions/schedules/train_y_first/red_square_00/bottom_left/inputTrain_2.1.xlsx,99,1,2,1,0,,,,,,,,,,,,,,,1,,,,,733.7044147998095,735.265270399861,-0.16,-0.24,0.08,0.0,-0.28,-0.16,-0.16,-0.16,-0.24,732.7879733999725,732.7879733999725,732.7879733999725,732.7879733999725,732.7879733999725,732.7879733999725,732.7879733999725,732.7879733999725,732.7867780398578,1.0197786001954228,return,0.8912603999488056,0,0.9,0,1,15,,,,,,,,,,,,,,,,,,,,,,,,,,,,0Q50WN,train_y,red_square,bottom_left,2025-09-13_10h12.14.557,HideSeek_v1,2022.2.5,59.89056798545768,
,,,,,,,,,,,,,,,3,0,3,0,0,0,0,0,,,,,,,,,,,,,,,,,,,,,,,,,,,,,,,conditions/schedules/train_y_first/red_square_00/bottom_left/instructions/Slide17.png,conditions/schedules/train_y_first/red_square_00/bottom_left/instructions/Audio17.wav,735.265270399861,735.2559473800474,17,"[20.55779719981365, 17.454602600075305, 16.367915299953893, 18.785638900008053, 4.019145000027493, 4.386381699936464, 5.103291800012812, 11.271854999940842, 5.487834500148892, 6.566073399968445, 10.203315999824554, 13.548346000025049, 16.610204400029033, 16.93042270001024, 43.51690030004829, 21.277230200124905, 86.0592295001261]","[0.01438189996406436, 0.014326300006359816, 0.014614100102335215, 0.014365399954840541, 0.049508600030094385, 0.06569750001654029, 0.03073900006711483, 0.06684750015847385, 0.06421440001577139, 0.07940439996309578, 0.013901700032874942, 13.54835299984552, 0.08324029995128512, 16.93043259996921, 0.031011200044304132, 21.27723650005646, 86.05923740006983]",0,,,,,,,,,,,,,,,,,,,,,,,,,,,,,,,,,,,,,,,,,,,,,,,,,,,,,,,,,,,,,,,,,,,,,,,,,,,,,,,,,,,,,,,,,,,,,,,,,,,,,,,,,,,,,,,,,,,,,,,,,,,,0Q50WN,train_y,red_square,bottom_left,2025-09-13_10h12.14.557,HideSeek_v1,2022.2.5,59.89056798545768,
,,,,,,,,,,,,,,,3,0,3,0,1,0,1,0,,,,,,,,,,,,,,,,,,,,,,,,,,,,,,,conditions/schedules/train_y_first/red_square_00/bottom_left/instructions/Slide18.png,conditions/schedules/train_y_first/red_square_00/bottom_left/instructions/Audio18.wav,821.3934950998519,821.3936705999076,18,"[20.55779719981365, 17.454602600075305, 16.367915299953893, 18.785638900008053, 4.019145000027493, 4.386381699936464, 5.103291800012812, 11.271854999940842, 5.487834500148892, 6.566073399968445, 10.203315999824554, 13.548346000025049, 16.610204400029033, 16.93042270001024, 43.51690030004829, 21.277230200124905, 86.0592295001261, 23.28438279987313]","[0.01438189996406436, 0.014326300006359816, 0.014614100102335215, 0.014365399954840541, 0.049508600030094385, 0.06569750001654029, 0.03073900006711483, 0.06684750015847385, 0.06421440001577139, 0.07940439996309578, 0.013901700032874942, 13.54835299984552, 0.08324029995128512, 16.93043259996921, 0.031011200044304132, 21.27723650005646, 0.0002469997853040695, 23.284393099835142]",0,,,,,,,,,,,,,,,,,,,,,,,,,,,,,,,,,,,,,,,,,,,,,,,,,,,,,,,,,,,,,,,,,,,,,,,,,,,,,,,,,,,,,,,,,,,,,,,,,,,,,,,,,,,,,,,,,,,,,,,,,,,,0Q50WN,train_y,red_square,bottom_left,2025-09-13_10h12.14.557,HideSeek_v1,2022.2.5,59.89056798545768,
,,,,,,,,,,,,,,,3,0,3,0,2,0,2,0,,,,,,,,,,,,,,,,,,,,,,,,,,,,,,,conditions/schedules/train_y_first/red_square_00/bottom_left/instructions/Slide19.png,conditions/schedules/train_y_first/red_square_00/bottom_left/instructions/Audio19.wav,844.750055299839,844.7472085999325,19,"[20.55779719981365, 17.454602600075305, 16.367915299953893, 18.785638900008053, 4.019145000027493, 4.386381699936464, 5.103291800012812, 11.271854999940842, 5.487834500148892, 6.566073399968445, 10.203315999824554, 13.548346000025049, 16.610204400029033, 16.93042270001024, 43.51690030004829, 21.277230200124905, 86.0592295001261, 23.28438279987313, 10.052831699838862]","[0.01438189996406436, 0.014326300006359816, 0.014614100102335215, 0.014365399954840541, 0.049508600030094385, 0.06569750001654029, 0.03073900006711483, 0.06684750015847385, 0.06421440001577139, 0.07940439996309578, 0.013901700032874942, 13.54835299984552, 0.08324029995128512, 16.93043259996921, 0.031011200044304132, 21.27723650005646, 0.0002469997853040695, 0.0002093999646604061, 10.052838899893686]",0,,,,,,,,,,,,,,,,,,,,,,,,,,,,,,,,,,,,,,,,,,,,,,,,,,,,,,,,,,,,,,,,,,,,,,,,,,,,,,,,,,,,,,,,,,,,,,,,,,,,,,,,,,,,,,,,,,,,,,,,,,,,0Q50WN,train_y,red_square,bottom_left,2025-09-13_10h12.14.557,HideSeek_v1,2022.2.5,59.89056798545768,
,,,,,,,,,,,,,,,3,0,3,0,3,0,3,0,,,,,,,,,,,,,,,,,,,,,,,,,,,,,,,conditions/schedules/train_y_first/red_square_00/bottom_left/instructions/Slide20.png,conditions/schedules/train_y_first/red_square_00/bottom_left/instructions/Audio20.wav,854.8832568000071,854.8716779998504,20,"[20.55779719981365, 17.454602600075305, 16.367915299953893, 18.785638900008053, 4.019145000027493, 4.386381699936464, 5.103291800012812, 11.271854999940842, 5.487834500148892, 6.566073399968445, 10.203315999824554, 13.548346000025049, 16.610204400029033, 16.93042270001024, 43.51690030004829, 21.277230200124905, 86.0592295001261, 23.28438279987313, 10.052831699838862, 12.863943699980155]","[0.01438189996406436, 0.014326300006359816, 0.014614100102335215, 0.014365399954840541, 0.049508600030094385, 0.06569750001654029, 0.03073900006711483, 0.06684750015847385, 0.06421440001577139, 0.07940439996309578, 0.013901700032874942, 13.54835299984552, 0.08324029995128512, 16.93043259996921, 0.031011200044304132, 21.27723650005646, 0.0002469997853040695, 0.0002093999646604061, 0.0002951000351458788, 12.86395030003041]",0,,,,,,,,,,,,,,,,,,,,,,,,,,,,,,,,,,,,,,,,,,,,,,,,,,,,,,,,,,,,,,,,,,,,,,,,,,,,,,,,,,,,,,,,,,,,,,,,,,,,,,,,,,,,,,,,,,,,,,,,,,,,0Q50WN,train_y,red_square,bottom_left,2025-09-13_10h12.14.557,HideSeek_v1,2022.2.5,59.89056798545768,
1,3,2,8,2,5,0,66,2,instr_dim1_2,,,,,,3,0,3,0,,,,,0,0,0,0,,,,,,,,,,,,,,,,,,,,,,,,,,,,,,,,,,,,,stimuli/alien_stimuli/66.png,conditions/schedules/train_y_first/red_square_00/bottom_left/inputInstr_2.xlsx,stimuli/alien_stimuli/66.png,867.8555929998402,867.8555929998402,867.8555929998402,867.8555929998402,867.8492986400147,return,8.276084899902344,"[-0.16, -0.08, 0, 0.08, 0.16, 0.24, 0.32, 0.4, 0.48, 0.56]","[-0.4, -0.32, -0.24, -0.16, -0.08, 0, 0.08, 0.16, 0.24, 0.32]",2,2,8,3,0.0,0.4,876.2947786999866,876.2947786999866,876.2947786999866,876.2947786999866,876.2947786999866,876.2947786999866,876.2947786999866,876.2729156598449,7.47377649997361,return,7.313948399852961,stimuli/alien_stimuli/66.png,66,3,1,,,,,,,,,,,,,,,,,,,,,,,,,,,,,,,,,,,,,,,,,,,,,,,,,,,,,,,,,,,,,,,,,,,,,,,,,,,,,,,,,,,,,,,,,0Q50WN,train_y,red_square,bottom_left,2025-09-13_10h12.14.557,HideSeek_v1,2022.2.5,59.89056798545768,
,,,,,,,,,,,30,,,,3,0,3,0,,,,,,,,,,,,,,,,,,,,,,,,,,,,,,,,,,,,,,,,,,,,,,,,,,,,,,,,,,,,,,,,,,,,,,,,,,,,,,21,0.7,0.625,1,99,2,30,0,conditions/schedules/train_y_first/red_square_00/bottom_left/inputTrain_2.1.xlsx,99,1,2,1,0,,,,,,,,,,,,,,,,,,,,,,,,,,,,,,,,,,,,,,,,,,,,,,,,,,,,,,,,,,,,,,,,,,,,,,,,,,,0Q50WN,train_y,red_square,bottom_left,2025-09-13_10h12.14.557,HideSeek_v1,2022.2.5,59.89056798545768,
,,,,,,,,,,,,,,,4,0,4,0,0,0,0,0,,,,,,,,,,,,,,,,,,,,,,,,,,,,,,,conditions/schedules/train_y_first/red_square_00/bottom_left/instructions/Slide21.png,conditions/schedules/train_y_first/red_square_00/bottom_left/instructions/Audio21.wav,883.7968599998858,883.7956808200572,21,"[20.55779719981365, 17.454602600075305, 16.367915299953893, 18.785638900008053, 4.019145000027493, 4.386381699936464, 5.103291800012812, 11.271854999940842, 5.487834500148892, 6.566073399968445, 10.203315999824554, 13.548346000025049, 16.610204400029033, 16.93042270001024, 43.51690030004829, 21.277230200124905, 86.0592295001261, 23.28438279987313, 10.052831699838862, 12.863943699980155, 12.89127629995346]","[0.01438189996406436, 0.014326300006359816, 0.014614100102335215, 0.014365399954840541, 0.049508600030094385, 0.06569750001654029, 0.03073900006711483, 0.06684750015847385, 0.06421440001577139, 0.07940439996309578, 0.013901700032874942, 13.54835299984552, 0.08324029995128512, 16.93043259996921, 0.031011200044304132, 21.27723650005646, 0.0002469997853040695, 0.0002093999646604061, 0.0002951000351458788, 12.86395030003041, 12.89128279988654]",0,,,,,,,,,,,,,,,,,,,,,,,,,,,,,,,,,,,,,,,,,,,,,,,,,,,,,,,,,,,,,,,,,,,,,,,,,,,,,,,,,,,,,,,,,,,,,,,,,,,,,,,,,,,,,,,,,,,,,,,,,,,,0Q50WN,train_y,red_square,bottom_left,2025-09-13_10h12.14.557,HideSeek_v1,2022.2.5,59.89056798545768,
2,4,0,4,0,0,0,16,2,instr_dim1_2,,,,,,4,0,4,0,,,,,0,0,0,0,,,,,,,,,,,,,,,,,,,,,,,,,,,,,,,,,,,,,stimuli/alien_stimuli/16.png,conditions/schedules/train_y_first/red_square_00/bottom_left/inputInstr_2.xlsx,stimuli/alien_stimuli/16.png,896.789433500031,896.789433500031,896.789433500031,896.789433500031,896.7735987199005,return,6.466384100029245,"[-0.16, -0.08, 0, 0.08, 0.16, 0.24, 0.32, 0.4, 0.48, 0.56]","[-0.4, -0.32, -0.24, -0.16, -0.08, 0, 0.08, 0.16, 0.24, 0.32]",0,0,4,4,0.0,0.0,903.4198074999731,903.4198074999731,903.4198074999731,903.4198074999731,903.4198074999731,903.4198074999731,903.4198074999731,903.4117943800055,10.542916199890897,return,10.368537000147626,stimuli/alien_stimuli/16.png,16,4,2,,,,,,,,,,,,,,,,,,,,,,,,,,,,,,,,,,,,,,,,,,,,,,,,,,,,,,,,,,,,,,,,,,,,,,,,,,,,,,,,,,,,,,,,,0Q50WN,train_y,red_square,bottom_left,2025-09-13_10h12.14.557,HideSeek_v1,2022.2.5,59.89056798545768,
,,,,,,,,,,,30,,,,4,0,4,0,,,,,,,,,,,,,,,,,,,,,,,,,,,,,,,,,,,,,,,,,,,,,,,,,,,,,,,,,,,,,,,,,,,,,,,,,,,,,,21,0.7,0.625,1,99,2,30,0,conditions/schedules/train_y_first/red_square_00/bottom_left/inputTrain_2.1.xlsx,99,1,2,1,0,,,,,,,,,,,,,,,,,,,,,,,,,,,,,,,,,,,,,,,,,,,,,,,,,,,,,,,,,,,,,,,,,,,,,,,,,,,0Q50WN,train_y,red_square,bottom_left,2025-09-13_10h12.14.557,HideSeek_v1,2022.2.5,59.89056798545768,
,,,,,,,,,,,,,,,5,0,5,0,0,0,0,0,,,,,,,,,,,,,,,,,,,,,,,,,,,,,,,conditions/schedules/train_y_first/red_square_00/bottom_left/instructions/Slide22.png,conditions/schedules/train_y_first/red_square_00/bottom_left/instructions/Audio22.wav,914.0508098998107,914.037146080006,22,"[20.55779719981365, 17.454602600075305, 16.367915299953893, 18.785638900008053, 4.019145000027493, 4.386381699936464, 5.103291800012812, 11.271854999940842, 5.487834500148892, 6.566073399968445, 10.203315999824554, 13.548346000025049, 16.610204400029033, 16.93042270001024, 43.51690030004829, 21.277230200124905, 86.0592295001261, 23.28438279987313, 10.052831699838862, 12.863943699980155, 12.89127629995346, 29.725528599927202]","[0.01438189996406436, 0.014326300006359816, 0.014614100102335215, 0.014365399954840541, 0.049508600030094385, 0.06569750001654029, 0.03073900006711483, 0.06684750015847385, 0.06421440001577139, 0.07940439996309578, 0.013901700032874942, 13.54835299984552, 0.08324029995128512, 16.93043259996921, 0.031011200044304132, 21.27723650005646, 0.0002469997853040695, 0.0002093999646604061, 0.0002951000351458788, 12.86395030003041, 12.89128279988654, 29.725535299861804]",0,,,,,,,,,,,,,,,,,,,,,,,,,,,,,,,,,,,,,,,,,,,,,,,,,,,,,,,,,,,,,,,,,,,,,,,,,,,,,,,,,,,,,,,,,,,,,,,,,,,,,,,,,,,,,,,,,,,,,,,,,,,,0Q50WN,train_y,red_square,bottom_left,2025-09-13_10h12.14.557,HideSeek_v1,2022.2.5,59.89056798545768,
,2,1,5,1,3,0,46,,train_dim1_2,1,30,,,,5,0,5,0,,,,,,,,,0,0,0,0,0,0,0,0,0,0,0,0,,,,,,,,,,,,,,,,,,,,,,,,,stimuli/alien_stimuli/46.png,,,,,,,,,,,,,,,,,,,,,,,,,,,,,,,,,,,,,,,30,,,,,,,,943.8820446999744,943.8820446999744,943.8820446999744,943.8820446999744,943.8820446999744,59,1,0,-0.32,return,4.077351399930194,0,0,0,0,0,-0.32,return,3.9819068999495357,,,,,,,,,,,,,,,,,,,,,,,,,,,,,,,,,,,,,,,,,,,,,,,,,,,,,,,,0Q50WN,train_y,red_square,bottom_left,2025-09-13_10h12.14.557,HideSeek_v1,2022.2.5,59.89056798545768,
,2,4,2,4,0,0,16,,train_dim1_2,2,30,,,,5,0,5,0,,,,,,,,,0,0,0,0,0,1,1,1,0,0,0,0,,,,,,,,,,,,,,,,,,,,,,,,,stimuli/alien_stimuli/16.png,,,,,,,,,,,,,,,,,,,,,,,,,,,,,stimuli/alien_stimuli/46.png,46,2,3,,,,,,,30,,,,,,,,955.6095453999005,955.6095453999005,955.6095453999005,955.6095453999005,955.6095453999005,59,1,0,-0.08,return,1.753476900048554,1,0,0,1,0,-0.08,return,1.6520565999671817,954.0371633998584,955.6095453999005,0.24,-0.32,0.0,0.24,-0.32,0.24,0.12,0.24,-0.32,949.5267508998513,949.5267508998513,949.5267508998513,949.5267508998513,949.5267508998513,949.5267508998513,949.5267508998513,949.5267508998513,949.5168710599188,4.63943239999935,return,4.494658499956131,,,,,,,,,,,,,,,,,,,,,,,,,,,,,,,,,0Q50WN,train_y,red_square,bottom_left,2025-09-13_10h12.14.557,HideSeek_v1,2022.2.5,59.89056798545768,
,4,4,5,4,1,0,26,,train_dim1_2,3,30,,,,5,0,5,0,,,,,,,,,0,0,0,0,0,2,2,2,0,0,0,0,,,,,,,,,,,,,,,,,,,,,,,,,stimuli/alien_stimuli/26.png,,,,,,,,,,,,,,,,,,,,,,,,,,,,,stimuli/alien_stimuli/16.png,16,2,4,,,,,,,30,,,,,,,,962.4517830999102,962.4517830999102,962.4517830999102,962.4517830999102,962.4517830999102,59,1,0.16,-0.08,return,4.368842399911955,1,1,0,0,0.16,-0.08,return,4.263941700104624,960.8764314998407,962.4517830999102,0,-0.08,0.0,0.0,-0.08,0,0.0,0,-0.08,958.9436844999436,958.9436844999436,958.9436844999436,958.9436844999436,958.9436844999436,958.9436844999436,958.9436844999436,958.9436844999436,958.9245970599819,2.070308499969542,return,1.9116124000865966,,,,,,,,,,,,,,,,,,,,,,,,,,,,,,,,,0Q50WN,train_y,red_square,bottom_left,2025-09-13_10h12.14.557,HideSeek_v1,2022.2.5,59.89056798545768,
,2,3,6,3,4,0,56,,train_dim1_2,4,30,,,,5,0,5,0,,,,,,,,,0,0,0,0,0,3,3,3,0,0,0,0,,,,,,,,,,,,,,,,,,,,,,,,,stimuli/alien_stimuli/56.png,,,,,,,,,,,,,,,,,,,,,,,,,,,,,stimuli/alien_stimuli/26.png,26,4,5,,,,,,,30,,,,,,,,972.078616600018,972.078616600018,972.078616600018,972.078616600018,972.078616600018,,,,,right,3.8080569999292493,1,1,0,99,0.08,-0.16,right,3.7074510001111776,970.5008576998953,972.078616600018,0.24,-0.08,0.0,0.08,-0.08,0.24,0.2,0.24,-0.08,968.3818179999944,968.3818179999944,968.3818179999944,968.3818179999944,968.3818179999944,968.3818179999944,968.3818179999944,968.3818179999944,968.3654281400145,2.237514399923384,return,2.0948003998491913,,,,,,,,,,,,,,,,,,,,,,,,,,,,,,,,,0Q50WN,train_y,red_square,bottom_left,2025-09-13_10h12.14.557,HideSeek_v1,2022.2.5,59.89056798545768,
,2,3,6,3,4,0,56,,train_dim1_2,4,30,,,,5,0,5,0,,,,,,,,,0,0,0,0,0,3,3,3,1,0,1,0,,,,,,,,,,,,,,,,,,,,,,,,,,,,,,,,,,,,,,,,,,,,,,,,,,,,,,,,,,,,,,,,30,,,,,,,,975.8724874998443,975.8724874998443,975.8724874998443,975.8724874998443,975.8724874998443,,,,,right,1.1603040001355112,1,1,0,99,0.16,-0.16,right,1.071945199975744,,,,,,,,,,,,,,,,,,,,,,,,,,,,,,,,,,,,,,,,,,,,,,,,,,,,,,,,0Q50WN,train_y,red_square,bottom_left,2025-09-13_10h12.14.557,HideSeek_v1,2022.2.5,59.89056798545768,
,2,3,6,3,4,0,56,,train_dim1_2,4,30,,,,5,0,5,0,,,,,,,,,0,0,0,0,0,3,3,3,2,0,2,0,,,,,,,,,,,,,,,,,,,,,,,,,,,,,,,,,,,,,,,,,,,,,,,,,,,,,,,,,,,,,,,,30,,,,,,,,977.0393488998525,977.0393488998525,977.0393488998525,977.0393488998525,977.0393488998525,59,3,0.16,-0.16,return,0.7105326999444515,1,0,0,0,0.16,-0.16,return,0.629169899970293,,,,,,,,,,,,,,,,,,,,,,,,,,,,,,,,,,,,,,,,,,,,,,,,,,,,,,,,0Q50WN,train_y,red_square,bottom_left,2025-09-13_10h12.14.557,HideSeek_v1,2022.2.5,59.89056798545768,
,0,2,5,2,5,0,66,,train_dim1_2,5,30,,,,5,0,5,0,,,,,,,,,0,0,0,0,0,4,4,4,0,0,0,0,,,,,,,,,,,,,,,,,,,,,,,,,stimuli/alien_stimuli/66.png,,,,,,,,,,,,,,,,,,,,,,,,,,,,,stimuli/alien_stimuli/56.png,56,2,6,,,,,,,30,,,,,,,,982.534731999971,982.534731999971,982.534731999971,982.534731999971,982.534731999971,,,,,right,1.3717347998172045,1,0,0,99,-0.08,-0.24,right,1.2550220999401063,980.9427717998624,982.534731999971,0.32,-0.16,0.0,0.32,-0.16,0.32,0.16,0.32,-0.16,979.3311115000397,979.3311115000397,979.3311115000397,979.3311115000397,979.3311115000397,979.3311115000397,979.3311115000397,979.3311115000397,979.3080665400253,1.737072099931538,return,1.5846977999899536,,,,,,,,,,,,,,,,,,,,,,,,,,,,,,,,,0Q50WN,train_y,red_square,bottom_left,2025-09-13_10h12.14.557,HideSeek_v1,2022.2.5,59.89056798545768,
,0,2,5,2,5,0,66,,train_dim1_2,5,30,,,,5,0,5,0,,,,,,,,,0,0,0,0,0,4,4,4,1,0,1,0,,,,,,,,,,,,,,,,,,,,,,,,,,,,,,,,,,,,,,,,,,,,,,,,,,,,,,,,,,,,,,,,30,,,,,,,,983.8818059000187,983.8818059000187,983.8818059000187,983.8818059000187,983.8818059000187,,,,,right,0.39333139988593757,1,0,0,99,0.0,-0.24,right,0.3136058000382036,,,,,,,,,,,,,,,,,,,,,,,,,,,,,,,,,,,,,,,,,,,,,,,,,,,,,,,,0Q50WN,train_y,red_square,bottom_left,2025-09-13_10h12.14.557,HideSeek_v1,2022.2.5,59.89056798545768,
,0,2,5,2,5,0,66,,train_dim1_2,5,30,,,,5,0,5,0,,,,,,,,,0,0,0,0,0,4,4,4,2,0,2,0,,,,,,,,,,,,,,,,,,,,,,,,,,,,,,,,,,,,,,,,,,,,,,,,,,,,,,,,,,,,,,,,30,,,,,,,,984.2799199000001,984.2799199000001,984.2799199000001,984.2799199000001,984.2799199000001,,,,,right,0.2762372000142932,1,0,0,99,0.08,-0.24,right,0.1938108999747783,,,,,,,,,,,,,,,,,,,,,,,,,,,,,,,,,,,,,,,,,,,,,,,,,,,,,,,,0Q50WN,train_y,red_square,bottom_left,2025-09-13_10h12.14.557,HideSeek_v1,2022.2.5,59.89056798545768,
,0,2,5,2,5,0,66,,train_dim1_2,5,30,,,,5,0,5,0,,,,,,,,,0,0,0,0,0,4,4,4,3,0,3,0,,,,,,,,,,,,,,,,,,,,,,,,,,,,,,,,,,,,,,,,,,,,,,,,,,,,,,,,,,,,,,,,30,,,,,,,,984.5601880999748,984.5601880999748,984.5601880999748,984.5601880999748,984.5601880999748,59,6,0.08,-0.24,return,0.9935884000733495,1,0,0,0,0.08,-0.24,return,0.9133252999745309,,,,,,,,,,,,,,,,,,,,,,,,,,,,,,,,,,,,,,,,,,,,,,,,,,,,,,,,0Q50WN,train_y,red_square,bottom_left,2025-09-13_10h12.14.557,HideSeek_v1,2022.2.5,59.89056798545768,
,0,0,1,0,1,0,26,,train_dim1_2,6,30,,,,5,0,5,0,,,,,,,,,0,0,0,0,0,5,5,5,0,0,0,0,,,,,,,,,,,,,,,,,,,,,,,,,stimuli/alien_stimuli/26.png,,,,,,,,,,,,,,,,,,,,,,,,,,,,,stimuli/alien_stimuli/66.png,66,0,7,,,,,,,30,,,,,,,,991.9531931998208,991.9531931998208,991.9531931998208,991.9531931998208,991.9531931998208,59,6,-0.16,-0.4,return,2.1218916000798345,1,1,0,0,-0.16,-0.4,return,2.0221029000822455,990.3841417999938,991.9531931998208,0.24,-0.24,0.0,0.4,-0.24,0.24,0.039999999999999994,0.24,-0.24,987.1175116999075,987.1175116999075,987.1175116999075,987.1175116999075,987.1175116999075,987.1175116999075,987.1175116999075,987.1175116999075,987.0979498199188,3.3721022999379784,return,3.242074100067839,,,,,,,,,,,,,,,,,,,,,,,,,,,,,,,,,0Q50WN,train_y,red_square,bottom_left,2025-09-13_10h12.14.557,HideSeek_v1,2022.2.5,59.89056798545768,
,3,0,8,0,5,0,66,,train_dim1_2,7,30,,,,5,0,5,0,,,,,,,,,0,0,0,0,0,6,6,6,0,0,0,0,,,,,,,,,,,,,,,,,,,,,,,,,stimuli/alien_stimuli/66.png,,,,,,,,,,,,,,,,,,,,,,,,,,,,,stimuli/alien_stimuli/26.png,26,0,8,,,,,,,30,,,,,,,,998.6430491998326,998.6430491998326,998.6430491998326,998.6430491998326,998.6430491998326,,,,,right,2.1843412001617253,1,1,0,99,0.16,-0.4,right,2.0887605000752956,997.0730732998345,998.6430491998326,-0.08,-0.4,0.0,0.08,-0.4,-0.08,-0.12,-0.08,-0.4,995.6493752999231,995.6493752999231,995.6493752999231,995.6493752999231,995.6493752999231,995.6493752999231,995.6493752999231,995.6493752999231,995.6385450599715,1.5534858999308199,return,1.3997561000287533,,,,,,,,,,,,,,,,,,,,,,,,,,,,,,,,,0Q50WN,train_y,red_square,bottom_left,2025-09-13_10h12.14.557,HideSeek_v1,2022.2.5,59.89056798545768,
,3,0,8,0,5,0,66,,train_dim1_2,7,30,,,,5,0,5,0,,,,,,,,,0,0,0,0,0,6,6,6,1,0,1,0,,,,,,,,,,,,,,,,,,,,,,,,,,,,,,,,,,,,,,,,,,,,,,,,,,,,,,,,,,,,,,,,30,,,,,,,,1000.8269980000332,1000.8269980000332,1000.8269980000332,1000.8269980000332,1000.8269980000332,,,,,right,0.8095402999315411,1,1,0,99,0.24,-0.4,right,0.7265257998369634,,,,,,,,,,,,,,,,,,,,,,,,,,,,,,,,,,,,,,,,,,,,,,,,,,,,,,,,0Q50WN,train_y,red_square,bottom_left,2025-09-13_10h12.14.557,HideSeek_v1,2022.2.5,59.89056798545768,
,3,0,8,0,5,0,66,,train_dim1_2,7,30,,,,5,0,5,0,,,,,,,,,0,0,0,0,0,6,6,6,2,0,2,0,,,,,,,,,,,,,,,,,,,,,,,,,,,,,,,,,,,,,,,,,,,,,,,,,,,,,,,,,,,,,,,,30,,,,,,,,1001.6450404999778,1001.6450404999778,1001.6450404999778,1001.6450404999778,1001.6450404999778,,,,,right,0.6428741998970509,1,1,0,99,0.32,-0.4,right,0.5658901000861079,,,,,,,,,,,,,,,,,,,,,,,,,,,,,,,,,,,,,,,,,,,,,,,,,,,,,,,,0Q50WN,train_y,red_square,bottom_left,2025-09-13_10h12.14.557,HideSeek_v1,2022.2.5,59.89056798545768,
,3,0,8,0,5,0,66,,train_dim1_2,7,30,,,,5,0,5,0,,,,,,,,,0,0,0,0,0,6,6,6,3,0,3,0,,,,,,,,,,,,,,,,,,,,,,,,,,,,,,,,,,,,,,,,,,,,,,,,,,,,,,,,,,,,,,,,30,,,,,,,,1002.2941918999422,1002.2941918999422,1002.2941918999422,1002.2941918999422,1002.2941918999422,,,,,right,0.541409800061956,1,1,0,99,0.4,-0.4,right,0.45121699990704656,,,,,,,,,,,,,,,,,,,,,,,,,,,,,,,,,,,,,,,,,,,,,,,,,,,,,,,,0Q50WN,train_y,red_square,bottom_left,2025-09-13_10h12.14.557,HideSeek_v1,2022.2.5,59.89056798545768,
,3,0,8,0,5,0,66,,train_dim1_2,7,30,,,,5,0,5,0,,,,,,,,,0,0,0,0,0,6,6,6,4,0,4,0,,,,,,,,,,,,,,,,,,,,,,,,,,,,,,,,,,,,,,,,,,,,,,,,,,,,,,,,,,,,,,,,30,,,,,,,,1002.8441260999534,1002.8441260999534,1002.8441260999534,1002.8441260999534,1002.8441260999534,59,10,0.4,-0.4,return,3.9275385001674294,1,1,0,0,0.4,-0.4,return,3.848746299976483,,,,,,,,,,,,,,,,,,,,,,,,,,,,,,,,,,,,,,,,,,,,,,,,,,,,,,,,0Q50WN,train_y,red_square,bottom_left,2025-09-13_10h12.14.557,HideSeek_v1,2022.2.5,59.89056798545768,
