trialInstr,x_fixStart,y_fixStart,x_corrSteps,y_corrSteps,x_nrSteps,y_nrSteps,alienID,trialLength,version,trialTrain,praclen,testlen,trial_label,break_on_off,beforeExpLoop.thisRepN,beforeExpLoop.thisTrialN,beforeExpLoop.thisN,beforeExpLoop.thisIndex,mini_instr_trials.thisRepN,mini_instr_trials.thisTrialN,mini_instr_trials.thisN,mini_instr_trials.thisIndex,instrLoop.thisRepN,instrLoop.thisTrialN,instrLoop.thisN,instrLoop.thisIndex,repeat_prac.thisRepN,repeat_prac.thisTrialN,repeat_prac.thisN,repeat_prac.thisIndex,trainLoop.thisRepN,trainLoop.thisTrialN,trainLoop.thisN,trainLoop.thisIndex,moveLoop_train.thisRepN,moveLoop_train.thisTrialN,moveLoop_train.thisN,moveLoop_train.thisIndex,experiment.thisRepN,experiment.thisTrialN,experiment.thisN,experiment.thisIndex,moveLoop_test.thisRepN,moveLoop_test.thisTrialN,moveLoop_test.thisN,moveLoop_test.thisIndex,mini_instr2_trials.thisRepN,mini_instr2_trials.thisTrialN,mini_instr2_trials.thisN,mini_instr2_trials.thisIndex,start_all_time,url,slideStim,audioStim,slides.started,sounds.started,nextButton.numClicks,nextButton.timesOn,nextButton.timesOff,prev_but.numClicks,prev_but.timesOn,prev_but.timesOff,alienStim,instrFile,alienStim_instr,gridImage_instr.started,startPos_3.started,key_instr.started,alienImage_3.started,sounds_1.started,key_instr.keys,key_instr.rt,all_x,all_y,FBy_corrSteps,FBy_fixStart,FBx_corrSteps,FBx_fixStart,FBy_pathSize_check,FBx_pathSize_check,gridImage_9.started,alienImageFB_3.started,startPosFB_3.started,keyFB_3.started,pathLine_ydir_2.started,pathLine_xdir_2.started,alienFace_3.started,sounds_2.started,RTFB_instr,keyFB_3.keys,keyFB_3.rt,draw_alienStim,draw_alienID,test_x,nrepcount,perfthres,percthres,earlierperf,earlystop,nextPrac,fileidx,praclen,saveACC_train,pracFile,nextPrac_train,addNrep,fileidx_endr,repExp,showearly,gridImage_4.started,startPos.started,movePos.started,key_resp.started,alienImage.started,buttonPress_train,RTchoice_train,cumAcctrain,aCorr,saveACC_choice,corrAns,x_movePos_end,y_movePos_end,key_resp.keys,key_resp.rt,wLy_dir,wLx_dir,x_movePos,y_movePos,text_2.started,text_2.stopped,aft_x_corrPos,aft_y_corrPos,y_pathSize_check,x_pathSize_check,y_pathdirY,x_pathdirY,x_pathdirX,x_corrPos,y_corrPos,gridImage_6.started,alienImageFB_2.started,startPosFB_2.started,movePosFB_2.started,keyFB_2.started,pathLine_xdir.started,pathLine_ydir.started,alienFace.started,sounds_4.started,RT_FBtrain,keyFB_2.keys,keyFB_2.rt,saveACC_pre,ACC,within_saveACC_train,earlystop_wloop,cumAcctrain_check,gridImage_3.started,alienImage_test.started,startPos_test.started,movePos_test.started,key_resp_test.started,wLy_dir_test,wLx_dir_test,buttonPress_test,RTchoice_test,cumAcctest,corrAns_test,key_resp_test.keys,key_resp_test.rt,text_3.started,text_3.stopped,total_time,end_all_time,key_resp_3.keys,slides_2.started,sounds_3.started,nextButton_2.numClicks,nextButton_2.timesOn,nextButton_2.timesOff,prev_but_2.numClicks,prev_but_2.timesOn,prev_but_2.timesOff,bye.started,participant,train_first,00_coordinate,starting corner,date,expName,psychopyVersion,frameRate,
,,,,,,,,,,,,,,,0,0,0,0,0,0,0,0,,,,,,,,,,,,,,,,,,,,,,,,,,,,,start_all_time,testround,conditions/schedules/train_x_first/blue_star_00/bottom_right/instructions/Slide1.png,conditions/schedules/train_x_first/blue_star_00/bottom_right/instructions/Audio1.wav,74.38117109999985,74.3346880999934,1,[3.9804969000006167],[3.980504699999983],0,,,,,,,,,,,,,,,,,,,,,,,,,,,,,,,,,,,,,,,,,,,,,,,,,,,,,,,,,,,,,,,,,,,,,,,,,,,,,,,,,,,,,,,,,,,,,,,,,,,,,,,,,,,,,,,,,,,,,,,,,,,,0U0YR0,train_x,blue_star,bottom_right,2025-05-30_10h32.45.557,HideSeek_v1,2022.2.5,59.96217585951151,
,,,,,,,,,,,,,,,0,0,0,0,1,0,1,0,,,,,,,,,,,,,,,,,,,,,,,,,,,,,,,conditions/schedules/train_x_first/blue_star_00/bottom_right/instructions/Slide2.png,conditions/schedules/train_x_first/blue_star_00/bottom_right/instructions/Audio2.wav,78.3859382999999,78.38431750000018,2,"[3.9804969000006167, 18.578716400000303]","[0.014840900000308466, 18.57872370000041]",0,,,,,,,,,,,,,,,,,,,,,,,,,,,,,,,,,,,,,,,,,,,,,,,,,,,,,,,,,,,,,,,,,,,,,,,,,,,,,,,,,,,,,,,,,,,,,,,,,,,,,,,,,,,,,,,,,,,,,,,,,,,,0U0YR0,train_x,blue_star,bottom_right,2025-05-30_10h32.45.557,HideSeek_v1,2022.2.5,59.96217585951151,
,,,,,,,,,,,,,,,0,0,0,0,2,0,2,0,,,,,,,,,,,,,,,,,,,,,,,,,,,,,,,conditions/schedules/train_x_first/blue_star_00/bottom_right/instructions/Slide3.png,conditions/schedules/train_x_first/blue_star_00/bottom_right/instructions/Audio3.wav,97.04857889999948,97.04981807999957,3,"[3.9804969000006167, 18.578716400000303, 16.412002400000347]","[0.014840900000308466, 18.57872370000041, 16.412009200000284]",0,,,,,,,,,,,,,,,,,,,,,,,,,,,,,,,,,,,,,,,,,,,,,,,,,,,,,,,,,,,,,,,,,,,,,,,,,,,,,,,,,,,,,,,,,,,,,,,,,,,,,,,,,,,,,,,,,,,,,,,,,,,,0U0YR0,train_x,blue_star,bottom_right,2025-05-30_10h32.45.557,HideSeek_v1,2022.2.5,59.96217585951151,
,,,,,,,,,,,,,,,0,0,0,0,3,0,3,0,,,,,,,,,,,,,,,,,,,,,,,,,,,,,,,conditions/schedules/train_x_first/blue_star_00/bottom_right/instructions/Slide4.png,conditions/schedules/train_x_first/blue_star_00/bottom_right/instructions/Audio4.wav,113.53893100000005,113.52993259999948,4,"[3.9804969000006167, 18.578716400000303, 16.412002400000347, 20.288804700000583]","[0.014840900000308466, 18.57872370000041, 0.08856610000020737, 20.288811800000076]",0,,,,,,,,,,,,,,,,,,,,,,,,,,,,,,,,,,,,,,,,,,,,,,,,,,,,,,,,,,,,,,,,,,,,,,,,,,,,,,,,,,,,,,,,,,,,,,,,,,,,,,,,,,,,,,,,,,,,,,,,,,,,0U0YR0,train_x,blue_star,bottom_right,2025-05-30_10h32.45.557,HideSeek_v1,2022.2.5,59.96217585951151,
,,,,,,,,,,,,,,,0,0,0,0,4,0,4,0,,,,,,,,,,,,,,,,,,,,,,,,,,,,,,,conditions/schedules/train_x_first/blue_star_00/bottom_right/instructions/Slide5.png,conditions/schedules/train_x_first/blue_star_00/bottom_right/instructions/Audio5.wav,133.8903852000003,133.88015971999994,5,"[3.9804969000006167, 18.578716400000303, 16.412002400000347, 20.288804700000583, 4.641051100000368]","[0.014840900000308466, 18.57872370000041, 0.08856610000020737, 0.053901500000392844, 4.641058100000009]",0,,,,,,,,,,,,,,,,,,,,,,,,,,,,,,,,,,,,,,,,,,,,,,,,,,,,,,,,,,,,,,,,,,,,,,,,,,,,,,,,,,,,,,,,,,,,,,,,,,,,,,,,,,,,,,,,,,,,,,,,,,,,0U0YR0,train_x,blue_star,bottom_right,2025-05-30_10h32.45.557,HideSeek_v1,2022.2.5,59.96217585951151,
,,,,,,,,,,,,,,,0,0,0,0,5,0,5,0,,,,,,,,,,,,,,,,,,,,,,,,,,,,,,,conditions/schedules/train_x_first/blue_star_00/bottom_right/instructions/Slide6.png,conditions/schedules/train_x_first/blue_star_00/bottom_right/instructions/Audio6.wav,138.58419739999954,138.58416771999964,6,"[3.9804969000006167, 18.578716400000303, 16.412002400000347, 20.288804700000583, 4.641051100000368, 6.036132799999905]","[0.014840900000308466, 18.57872370000041, 0.08856610000020737, 0.053901500000392844, 4.641058100000009, 6.0361400000001595]",0,,,,,,,,,,,,,,,,,,,,,,,,,,,,,,,,,,,,,,,,,,,,,,,,,,,,,,,,,,,,,,,,,,,,,,,,,,,,,,,,,,,,,,,,,,,,,,,,,,,,,,,,,,,,,,,,,,,,,,,,,,,,0U0YR0,train_x,blue_star,bottom_right,2025-05-30_10h32.45.557,HideSeek_v1,2022.2.5,59.96217585951151,
,,,,,,,,,,,,,,,0,0,0,0,6,0,6,0,,,,,,,,,,,,,,,,,,,,,,,,,,,,,,,conditions/schedules/train_x_first/blue_star_00/bottom_right/instructions/Slide7.png,conditions/schedules/train_x_first/blue_star_00/bottom_right/instructions/Audio7.wav,144.6711035999997,144.67262071999994,7,"[3.9804969000006167, 18.578716400000303, 16.412002400000347, 20.288804700000583, 4.641051100000368, 6.036132799999905, 6.654440199999954]","[0.014840900000308466, 18.57872370000041, 0.08856610000020737, 0.053901500000392844, 4.641058100000009, 0.00027290000070934184, 6.654447400000208]",0,,,,,,,,,,,,,,,,,,,,,,,,,,,,,,,,,,,,,,,,,,,,,,,,,,,,,,,,,,,,,,,,,,,,,,,,,,,,,,,,,,,,,,,,,,,,,,,,,,,,,,,,,,,,,,,,,,,,,,,,,,,,0U0YR0,train_x,blue_star,bottom_right,2025-05-30_10h32.45.557,HideSeek_v1,2022.2.5,59.96217585951151,
,,,,,,,,,,,,,,,0,0,0,0,7,0,7,0,,,,,,,,,,,,,,,,,,,,,,,,,,,,,,,conditions/schedules/train_x_first/blue_star_00/bottom_right/instructions/Slide8.png,conditions/schedules/train_x_first/blue_star_00/bottom_right/instructions/Audio8.wav,151.37906419999945,151.37808181999935,8,"[3.9804969000006167, 18.578716400000303, 16.412002400000347, 20.288804700000583, 4.641051100000368, 6.036132799999905, 6.654440199999954, 11.889977199999521]","[0.014840900000308466, 18.57872370000041, 0.08856610000020737, 0.053901500000392844, 4.641058100000009, 0.00027290000070934184, 0.04710549999981595, 11.88998410000022]",0,,,,,,,,,,,,,,,,,,,,,,,,,,,,,,,,,,,,,,,,,,,,,,,,,,,,,,,,,,,,,,,,,,,,,,,,,,,,,,,,,,,,,,,,,,,,,,,,,,,,,,,,,,,,,,,,,,,,,,,,,,,,0U0YR0,train_x,blue_star,bottom_right,2025-05-30_10h32.45.557,HideSeek_v1,2022.2.5,59.96217585951151,
,,,,,,,,,,,,,,,0,0,0,0,8,0,8,0,,,,,,,,,,,,,,,,,,,,,,,,,,,,,,,conditions/schedules/train_x_first/blue_star_00/bottom_right/instructions/Slide9.png,conditions/schedules/train_x_first/blue_star_00/bottom_right/instructions/Audio9.wav,163.33521589999964,163.32154462000017,9,"[3.9804969000006167, 18.578716400000303, 16.412002400000347, 20.288804700000583, 4.641051100000368, 6.036132799999905, 6.654440199999954, 11.889977199999521, 5.671587300000283]","[0.014840900000308466, 18.57872370000041, 0.08856610000020737, 0.053901500000392844, 4.641058100000009, 0.00027290000070934184, 0.04710549999981595, 0.050384699999995064, 5.67159410000022]",0,,,,,,,,,,,,,,,,,,,,,,,,,,,,,,,,,,,,,,,,,,,,,,,,,,,,,,,,,,,,,,,,,,,,,,,,,,,,,,,,,,,,,,,,,,,,,,,,,,,,,,,,,,,,,,,,,,,,,,,,,,,,0U0YR0,train_x,blue_star,bottom_right,2025-05-30_10h32.45.557,HideSeek_v1,2022.2.5,59.96217585951151,
,,,,,,,,,,,,,,,0,0,0,0,9,0,9,0,,,,,,,,,,,,,,,,,,,,,,,,,,,,,,,conditions/schedules/train_x_first/blue_star_00/bottom_right/instructions/Slide10.png,conditions/schedules/train_x_first/blue_star_00/bottom_right/instructions/Audio10.wav,169.04528179999943,169.04279823999968,10,"[3.9804969000006167, 18.578716400000303, 16.412002400000347, 20.288804700000583, 4.641051100000368, 6.036132799999905, 6.654440199999954, 11.889977199999521, 5.671587300000283, 6.984255700000176]","[0.014840900000308466, 18.57872370000041, 0.08856610000020737, 0.053901500000392844, 4.641058100000009, 0.00027290000070934184, 0.04710549999981595, 0.050384699999995064, 0.047018600000228616, 6.9842625999999655]",0,,,,,,,,,,,,,,,,,,,,,,,,,,,,,,,,,,,,,,,,,,,,,,,,,,,,,,,,,,,,,,,,,,,,,,,,,,,,,,,,,,,,,,,,,,,,,,,,,,,,,,,,,,,,,,,,,,,,,,,,,,,,0U0YR0,train_x,blue_star,bottom_right,2025-05-30_10h32.45.557,HideSeek_v1,2022.2.5,59.96217585951151,
,,,,,,,,,,,,,,,0,0,0,0,10,0,10,0,,,,,,,,,,,,,,,,,,,,,,,,,,,,,,,conditions/schedules/train_x_first/blue_star_00/bottom_right/instructions/Slide11.png,conditions/schedules/train_x_first/blue_star_00/bottom_right/instructions/Audio11.wav,176.0832287000003,176.08203091999985,11,"[3.9804969000006167, 18.578716400000303, 16.412002400000347, 20.288804700000583, 4.641051100000368, 6.036132799999905, 6.654440199999954, 11.889977199999521, 5.671587300000283, 6.984255700000176, 9.470828299999994]","[0.014840900000308466, 18.57872370000041, 0.08856610000020737, 0.053901500000392844, 4.641058100000009, 0.00027290000070934184, 0.04710549999981595, 0.050384699999995064, 0.047018600000228616, 0.04642610000064451, 9.470835400000396]",0,,,,,,,,,,,,,,,,,,,,,,,,,,,,,,,,,,,,,,,,,,,,,,,,,,,,,,,,,,,,,,,,,,,,,,,,,,,,,,,,,,,,,,,,,,,,,,,,,,,,,,,,,,,,,,,,,,,,,,,,,,,,0U0YR0,train_x,blue_star,bottom_right,2025-05-30_10h32.45.557,HideSeek_v1,2022.2.5,59.96217585951151,
,,,,,,,,,,,,,,,0,0,0,0,11,0,11,0,,,,,,,,,,,,,,,,,,,,,,,,,,,,,,,conditions/schedules/train_x_first/blue_star_00/bottom_right/instructions/Slide12.png,conditions/schedules/train_x_first/blue_star_00/bottom_right/instructions/Audio12.wav,185.62735749999956,185.62331649999942,12,"[3.9804969000006167, 18.578716400000303, 16.412002400000347, 20.288804700000583, 4.641051100000368, 6.036132799999905, 6.654440199999954, 11.889977199999521, 5.671587300000283, 6.984255700000176, 9.470828299999994, 13.054527700000108]","[0.014840900000308466, 18.57872370000041, 0.08856610000020737, 0.053901500000392844, 4.641058100000009, 0.00027290000070934184, 0.04710549999981595, 0.050384699999995064, 0.047018600000228616, 0.04642610000064451, 0.014360600000145496, 13.054534700000659]",0,,,,,,,,,,,,,,,,,,,,,,,,,,,,,,,,,,,,,,,,,,,,,,,,,,,,,,,,,,,,,,,,,,,,,,,,,,,,,,,,,,,,,,,,,,,,,,,,,,,,,,,,,,,,,,,,,,,,,,,,,,,,0U0YR0,train_x,blue_star,bottom_right,2025-05-30_10h32.45.557,HideSeek_v1,2022.2.5,59.96217585951151,
1,9,0,4,0,-5,0,11,2,instr_dim1_1,,,,,,0,0,0,0,,,,,0,0,0,0,,,,,,,,,,,,,,,,,,,,,,,,,,,,,,,,,,,,,stimuli/alien_stimuli/11.png,conditions/schedules/train_x_first/blue_star_00/bottom_right/inputInstr_1.xlsx,stimuli/alien_stimuli/11.png,198.78595270000005,198.78595270000005,198.78595270000005,198.78595270000005,198.7841564599994,return,10.957250999999815,"[-0.16, -0.08, 0, 0.08, 0.16, 0.24, 0.32, 0.4, 0.48, 0.56]","[-0.4, -0.32, -0.24, -0.16, -0.08, 0, 0.08, 0.16, 0.24, 0.32]",0,0,4,9,0.0,0.4,209.90680249999969,209.90680249999969,209.90680249999969,209.90680249999969,209.90680249999969,209.90680249999969,209.90680249999969,209.89324721999947,10.992913199999748,return,10.81473890000052,stimuli/alien_stimuli/11.png,11,9,1,,,,,,,,,,,,,,,,,,,,,,,,,,,,,,,,,,,,,,,,,,,,,,,,,,,,,,,,,,,,,,,,,,,,,,,,,,,,,,,,,,,,,,,,,0U0YR0,train_x,blue_star,bottom_right,2025-05-30_10h32.45.557,HideSeek_v1,2022.2.5,59.96217585951151,
,,,,,,,,,,,30,,,,0,0,0,0,,,,,,,,,,,,,,,,,,,,,,,,,,,,,,,,,,,,,,,,,,,,,,,,,,,,,,,,,,,,,,,,,,,,,,,,,,,,,,21,0.7,0,0,99,1,30,0,conditions/schedules/train_x_first/blue_star_00/bottom_right/inputTrain_1.1.xlsx,99,1,1,1,0,,,,,,,,,,,,,,,,,,,,,,,,,,,,,,,,,,,,,,,,,,,,,,,,,,,,,,,,,,,,,,,,,,,,,,,,,,,0U0YR0,train_x,blue_star,bottom_right,2025-05-30_10h32.45.557,HideSeek_v1,2022.2.5,59.96217585951151,
,,,,,,,,,,,,,,,1,0,1,0,0,0,0,0,,,,,,,,,,,,,,,,,,,,,,,,,,,,,,,conditions/schedules/train_x_first/blue_star_00/bottom_right/instructions/Slide13.png,conditions/schedules/train_x_first/blue_star_00/bottom_right/instructions/Audio13.wav,220.91753749999953,220.91925017999984,13,"[3.9804969000006167, 18.578716400000303, 16.412002400000347, 20.288804700000583, 4.641051100000368, 6.036132799999905, 6.654440199999954, 11.889977199999521, 5.671587300000283, 6.984255700000176, 9.470828299999994, 13.054527700000108, 18.0968541000002]","[0.014840900000308466, 18.57872370000041, 0.08856610000020737, 0.053901500000392844, 4.641058100000009, 0.00027290000070934184, 0.04710549999981595, 0.050384699999995064, 0.047018600000228616, 0.04642610000064451, 0.014360600000145496, 13.054534700000659, 18.09686099999999]",0,,,,,,,,,,,,,,,,,,,,,,,,,,,,,,,,,,,,,,,,,,,,,,,,,,,,,,,,,,,,,,,,,,,,,,,,,,,,,,,,,,,,,,,,,,,,,,,,,,,,,,,,,,,,,,,,,,,,,,,,,,,,0U0YR0,train_x,blue_star,bottom_right,2025-05-30_10h32.45.557,HideSeek_v1,2022.2.5,59.96217585951151,
,,,,,,,,,,,,,,,1,0,1,0,1,0,1,0,,,,,,,,,,,,,,,,,,,,,,,,,,,,,,,conditions/schedules/train_x_first/blue_star_00/bottom_right/instructions/Slide14.png,conditions/schedules/train_x_first/blue_star_00/bottom_right/instructions/Audio14.wav,239.08065290000013,239.06772031999935,14,"[3.9804969000006167, 18.578716400000303, 16.412002400000347, 20.288804700000583, 4.641051100000368, 6.036132799999905, 6.654440199999954, 11.889977199999521, 5.671587300000283, 6.984255700000176, 9.470828299999994, 13.054527700000108, 18.0968541000002, 13.12866219999978]","[0.014840900000308466, 18.57872370000041, 0.08856610000020737, 0.053901500000392844, 4.641058100000009, 0.00027290000070934184, 0.04710549999981595, 0.050384699999995064, 0.047018600000228616, 0.04642610000064451, 0.014360600000145496, 13.054534700000659, 0.03473329999997077, 13.128669300000183]",0,,,,,,,,,,,,,,,,,,,,,,,,,,,,,,,,,,,,,,,,,,,,,,,,,,,,,,,,,,,,,,,,,,,,,,,,,,,,,,,,,,,,,,,,,,,,,,,,,,,,,,,,,,,,,,,,,,,,,,,,,,,,0U0YR0,train_x,blue_star,bottom_right,2025-05-30_10h32.45.557,HideSeek_v1,2022.2.5,59.96217585951151,
2,8,2,8,2,0,0,61,2,instr_dim1_1,,,,,,1,0,1,0,,,,,0,0,0,0,,,,,,,,,,,,,,,,,,,,,,,,,,,,,,,,,,,,,stimuli/alien_stimuli/61.png,conditions/schedules/train_x_first/blue_star_00/bottom_right/inputInstr_1.xlsx,stimuli/alien_stimuli/61.png,252.3064650999995,252.3064650999995,252.3064650999995,252.3064650999995,252.29517287999988,return,7.047125000000051,"[-0.16, -0.08, 0, 0.08, 0.16, 0.24, 0.32, 0.4, 0.48, 0.56]","[-0.4, -0.32, -0.24, -0.16, -0.08, 0, 0.08, 0.16, 0.24, 0.32]",2,2,8,8,0.0,0.0,259.51845969999977,259.51845969999977,259.51845969999977,259.51845969999977,259.51845969999977,259.51845969999977,259.51845969999977,259.50089733999994,7.407906599999478,return,7.2556384999998045,stimuli/alien_stimuli/61.png,61,8,2,,,,,,,,,,,,,,,,,,,,,,,,,,,,,,,,,,,,,,,,,,,,,,,,,,,,,,,,,,,,,,,,,,,,,,,,,,,,,,,,,,,,,,,,,0U0YR0,train_x,blue_star,bottom_right,2025-05-30_10h32.45.557,HideSeek_v1,2022.2.5,59.96217585951151,
,,,,,,,,,,,30,,,,1,0,1,0,,,,,,,,,,,,,,,,,,,,,,,,,,,,,,,,,,,,,,,,,,,,,,,,,,,,,,,,,,,,,,,,,,,,,,,,,,,,,,21,0.7,0,0,99,1,30,0,conditions/schedules/train_x_first/blue_star_00/bottom_right/inputTrain_1.1.xlsx,99,1,1,1,0,,,,,,,,,,,,,,,,,,,,,,,,,,,,,,,,,,,,,,,,,,,,,,,,,,,,,,,,,,,,,,,,,,,,,,,,,,,0U0YR0,train_x,blue_star,bottom_right,2025-05-30_10h32.45.557,HideSeek_v1,2022.2.5,59.96217585951151,
,,,,,,,,,,,,,,,2,0,2,0,0,0,0,0,,,,,,,,,,,,,,,,,,,,,,,,,,,,,,,conditions/schedules/train_x_first/blue_star_00/bottom_right/instructions/Slide15.png,conditions/schedules/train_x_first/blue_star_00/bottom_right/instructions/Audio15.wav,266.9517920999997,266.9409294999996,15,"[3.9804969000006167, 18.578716400000303, 16.412002400000347, 20.288804700000583, 4.641051100000368, 6.036132799999905, 6.654440199999954, 11.889977199999521, 5.671587300000283, 6.984255700000176, 9.470828299999994, 13.054527700000108, 18.0968541000002, 13.12866219999978, 30.844853200000216]","[0.014840900000308466, 18.57872370000041, 0.08856610000020737, 0.053901500000392844, 4.641058100000009, 0.00027290000070934184, 0.04710549999981595, 0.050384699999995064, 0.047018600000228616, 0.04642610000064451, 0.014360600000145496, 13.054534700000659, 0.03473329999997077, 13.128669300000183, 30.84486030000062]",0,,,,,,,,,,,,,,,,,,,,,,,,,,,,,,,,,,,,,,,,,,,,,,,,,,,,,,,,,,,,,,,,,,,,,,,,,,,,,,,,,,,,,,,,,,,,,,,,,,,,,,,,,,,,,,,,,,,,,,,,,,,,0U0YR0,train_x,blue_star,bottom_right,2025-05-30_10h32.45.557,HideSeek_v1,2022.2.5,59.96217585951151,
,,,,,,,,,,,,,,,2,0,2,0,1,0,1,0,,,,,,,,,,,,,,,,,,,,,,,,,,,,,,,conditions/schedules/train_x_first/blue_star_00/bottom_right/instructions/Slide16.png,conditions/schedules/train_x_first/blue_star_00/bottom_right/instructions/Audio16.wav,297.87158050000016,297.8662753999997,16,"[3.9804969000006167, 18.578716400000303, 16.412002400000347, 20.288804700000583, 4.641051100000368, 6.036132799999905, 6.654440199999954, 11.889977199999521, 5.671587300000283, 6.984255700000176, 9.470828299999994, 13.054527700000108, 18.0968541000002, 13.12866219999978, 30.844853200000216, 21.393149700000322]","[0.014840900000308466, 18.57872370000041, 0.08856610000020737, 0.053901500000392844, 4.641058100000009, 0.00027290000070934184, 0.04710549999981595, 0.050384699999995064, 0.047018600000228616, 0.04642610000064451, 0.014360600000145496, 13.054534700000659, 0.03473329999997077, 13.128669300000183, 0.030654000000140513, 21.393156699999963]",0,,,,,,,,,,,,,,,,,,,,,,,,,,,,,,,,,,,,,,,,,,,,,,,,,,,,,,,,,,,,,,,,,,,,,,,,,,,,,,,,,,,,,,,,,,,,,,,,,,,,,,,,,,,,,,,,,,,,,,,,,,,,0U0YR0,train_x,blue_star,bottom_right,2025-05-30_10h32.45.557,HideSeek_v1,2022.2.5,59.96217585951151,
,7,1,4,1,-3,0,31,,train_dim1_1,1,30,,,,2,0,2,0,,,,,,,,,0,0,0,0,0,0,0,0,0,0,0,0,,,,,,,,,,,,,,,,,,,,,,,,,stimuli/alien_stimuli/31.png,,,,,,,,,,,,,,,,,,,,,,,,,,,,,,,,,,,,,,,30,,,,,,,,319.36912440000015,319.36912440000015,319.36912440000015,319.36912440000015,319.36912440000015,left,6.063873900000544,0,0,0,99,0.32,-0.32,left,5.959935699999733,,,,,,,,,,,,,,,,,,,,,,,,,,,,,,,,,,,,,,,,,,,,,,,,,,,,,,,,,,,,0U0YR0,train_x,blue_star,bottom_right,2025-05-30_10h32.45.557,HideSeek_v1,2022.2.5,59.96217585951151,
,7,1,4,1,-3,0,31,,train_dim1_1,1,30,,,,2,0,2,0,,,,,,,,,0,0,0,0,0,0,0,0,1,0,1,0,,,,,,,,,,,,,,,,,,,,,,,,,,,,,,,,,,,,,,,,,,,,,,,,,,,,,,,,,,,,,,,,30,,,,,,,,325.42082519999985,325.42082519999985,325.42082519999985,325.42082519999985,325.42082519999985,left,0.8429448000006232,0,0,0,99,0.24,-0.32,left,0.7558175999993182,,,,,,,,,,,,,,,,,,,,,,,,,,,,,,,,,,,,,,,,,,,,,,,,,,,,,,,,,,,,0U0YR0,train_x,blue_star,bottom_right,2025-05-30_10h32.45.557,HideSeek_v1,2022.2.5,59.96217585951151,
,7,1,4,1,-3,0,31,,train_dim1_1,1,30,,,,2,0,2,0,,,,,,,,,0,0,0,0,0,0,0,0,2,0,2,0,,,,,,,,,,,,,,,,,,,,,,,,,,,,,,,,,,,,,,,,,,,,,,,,,,,,,,,,,,,,,,,,30,,,,,,,,326.26999329999944,326.26999329999944,326.26999329999944,326.26999329999944,326.26999329999944,left,1.4438417999999729,0,0,0,99,0.15999999999999998,-0.32,left,1.3664545999999973,,,,,,,,,,,,,,,,,,,,,,,,,,,,,,,,,,,,,,,,,,,,,,,,,,,,,,,,,,,,0U0YR0,train_x,blue_star,bottom_right,2025-05-30_10h32.45.557,HideSeek_v1,2022.2.5,59.96217585951151,
,7,1,4,1,-3,0,31,,train_dim1_1,1,30,,,,2,0,2,0,,,,,,,,,0,0,0,0,0,0,0,0,3,0,3,0,,,,,,,,,,,,,,,,,,,,,,,,,,,,,,,,,,,,,,,,,,,,,,,,,,,,,,,,,,,,,,,,30,,,,,,,,327.7208463999996,327.7208463999996,327.7208463999996,327.7208463999996,327.7208463999996,left,1.0773069999995641,0,0,0,99,0.07999999999999997,-0.32,left,0.9975218999998106,,,,,,,,,,,,,,,,,,,,,,,,,,,,,,,,,,,,,,,,,,,,,,,,,,,,,,,,,,,,0U0YR0,train_x,blue_star,bottom_right,2025-05-30_10h32.45.557,HideSeek_v1,2022.2.5,59.96217585951151,
,7,1,4,1,-3,0,31,,train_dim1_1,1,30,,,,2,0,2,0,,,,,,,,,0,0,0,0,0,0,0,0,4,0,4,0,,,,,,,,,,,,,,,,,,,,,,,,,,,,,,,,,,,,,,,,,,,,,,,,,,,,,,,,,,,,,,,,30,,,,,,,,328.8048007999996,328.8048007999996,328.8048007999996,328.8048007999996,328.8048007999996,return,1.0939171999998507,0,1,0,0,0.07999999999999997,-0.32,return,1.0058950999991794,0,-4,0.07999999999999997,-0.32,,,,,,,,,,,,,,,,,,,,,,,,,,,,,,,,,,,,,,,,,,,,,,,,,,,,,,,,0U0YR0,train_x,blue_star,bottom_right,2025-05-30_10h32.45.557,HideSeek_v1,2022.2.5,59.96217585951151,
,7,4,2,4,-5,0,11,,train_dim1_1,2,30,,,,2,0,2,0,,,,,,,,,0,0,0,0,0,1,1,1,0,0,0,0,,,,,,,,,,,,,,,,,,,,,,,,,stimuli/alien_stimuli/11.png,,,,,,,,,,,,,,,,,,,,,,,,,,,,,stimuli/alien_stimuli/31.png,31,7,3,,,,,,,30,,,,,,,,360.9540571999996,360.9540571999996,360.9540571999996,360.9540571999996,360.9540571999996,left,8.978911100000005,0,1,0,99,0.32,-0.08,left,8.87160379999932,,,,,359.36718889999975,360.9540571999996,0.16,-0.32,0.0,0.24,-0.32,0.16,0.28,0.16,-0.32,331.4753346999996,331.4753346999996,331.4753346999996,331.4753346999996,331.4753346999996,331.4753346999996,331.4753346999996,331.4753346999996,331.46082965999994,28.008589300000494,return,27.85983739999938,,,,,,,,,,,,,,,,,,,,,,,,,,,,,,,,,0U0YR0,train_x,blue_star,bottom_right,2025-05-30_10h32.45.557,HideSeek_v1,2022.2.5,59.96217585951151,
,7,4,2,4,-5,0,11,,train_dim1_1,2,30,,,,2,0,2,0,,,,,,,,,0,0,0,0,0,1,1,1,1,0,1,0,,,,,,,,,,,,,,,,,,,,,,,,,,,,,,,,,,,,,,,,,,,,,,,,,,,,,,,,,,,,,,,,30,,,,,,,,369.9101158000003,369.9101158000003,369.9101158000003,369.9101158000003,369.9101158000003,left,0.8765903000003163,0,1,0,99,0.24,-0.08,left,0.7918035999991844,,,,,,,,,,,,,,,,,,,,,,,,,,,,,,,,,,,,,,,,,,,,,,,,,,,,,,,,,,,,0U0YR0,train_x,blue_star,bottom_right,2025-05-30_10h32.45.557,HideSeek_v1,2022.2.5,59.96217585951151,
,7,4,2,4,-5,0,11,,train_dim1_1,2,30,,,,2,0,2,0,,,,,,,,,0,0,0,0,0,1,1,1,2,0,2,0,,,,,,,,,,,,,,,,,,,,,,,,,,,,,,,,,,,,,,,,,,,,,,,,,,,,,,,,,,,,,,,,30,,,,,,,,370.7945858000003,370.7945858000003,370.7945858000003,370.7945858000003,370.7945858000003,up,1.2274571999996624,0,1,0,99,0.24,0.0,up,1.1352577999996356,,,,,,,,,,,,,,,,,,,,,,,,,,,,,,,,,,,,,,,,,,,,,,,,,,,,,,,,,,,,0U0YR0,train_x,blue_star,bottom_right,2025-05-30_10h32.45.557,HideSeek_v1,2022.2.5,59.96217585951151,
,7,4,2,4,-5,0,11,,train_dim1_1,2,30,,,,2,0,2,0,,,,,,,,,0,0,0,0,0,1,1,1,3,0,3,0,,,,,,,,,,,,,,,,,,,,,,,,,,,,,,,,,,,,,,,,,,,,,,,,,,,,,,,,,,,,,,,,30,,,,,,,,372.0298750000002,372.0298750000002,372.0298750000002,372.0298750000002,372.0298750000002,down,4.630069699999694,0,1,0,99,0.24,-0.08,down,4.550141100000474,,,,,,,,,,,,,,,,,,,,,,,,,,,,,,,,,,,,,,,,,,,,,,,,,,,,,,,,,,,,0U0YR0,train_x,blue_star,bottom_right,2025-05-30_10h32.45.557,HideSeek_v1,2022.2.5,59.96217585951151,
,7,4,2,4,-5,0,11,,train_dim1_1,2,30,,,,2,0,2,0,,,,,,,,,0,0,0,0,0,1,1,1,4,0,4,0,,,,,,,,,,,,,,,,,,,,,,,,,,,,,,,,,,,,,,,,,,,,,,,,,,,,,,,,,,,,,,,,30,,,,,,,,376.66675119999945,376.66675119999945,376.66675119999945,376.66675119999945,376.66675119999945,left,0.7606195999996999,0,1,0,99,0.15999999999999998,-0.08,left,0.6811139999999796,,,,,,,,,,,,,,,,,,,,,,,,,,,,,,,,,,,,,,,,,,,,,,,,,,,,,,,,,,,,0U0YR0,train_x,blue_star,bottom_right,2025-05-30_10h32.45.557,HideSeek_v1,2022.2.5,59.96217585951151,
,7,4,2,4,-5,0,11,,train_dim1_1,2,30,,,,2,0,2,0,,,,,,,,,0,0,0,0,0,1,1,1,5,0,5,0,,,,,,,,,,,,,,,,,,,,,,,,,,,,,,,,,,,,,,,,,,,,,,,,,,,,,,,,,,,,,,,,30,,,,,,,,377.43355489999976,377.43355489999976,377.43355489999976,377.43355489999976,377.43355489999976,left,1.4601744999999937,0,1,0,99,0.07999999999999997,-0.08,left,1.3696349000001646,,,,,,,,,,,,,,,,,,,,,,,,,,,,,,,,,,,,,,,,,,,,,,,,,,,,,,,,,,,,0U0YR0,train_x,blue_star,bottom_right,2025-05-30_10h32.45.557,HideSeek_v1,2022.2.5,59.96217585951151,
,7,4,2,4,-5,0,11,,train_dim1_1,2,30,,,,2,0,2,0,,,,,,,,,0,0,0,0,0,1,1,1,6,0,6,0,,,,,,,,,,,,,,,,,,,,,,,,,,,,,,,,,,,,,,,,,,,,,,,,,,,,,,,,,,,,,,,,30,,,,,,,,378.90113049999945,378.90113049999945,378.90113049999945,378.90113049999945,378.90113049999945,return,0.8938591999994969,0,1,0,0,0.07999999999999997,-0.08,return,0.8154313999993974,0,-8,0.07999999999999997,-0.08,,,,,,,,,,,,,,,,,,,,,,,,,,,,,,,,,,,,,,,,,,,,,,,,,,,,,,,,0U0YR0,train_x,blue_star,bottom_right,2025-05-30_10h32.45.557,HideSeek_v1,2022.2.5,59.96217585951151,
,9,4,5,4,-4,0,21,,train_dim1_1,3,30,,,,2,0,2,0,,,,,,,,,0,0,0,0,0,2,2,2,0,0,0,0,,,,,,,,,,,,,,,,,,,,,,,,,stimuli/alien_stimuli/21.png,,,,,,,,,,,,,,,,,,,,,,,,,,,,,stimuli/alien_stimuli/11.png,11,7,4,,,,,,,30,,,,,,,,390.8558301000003,390.8558301000003,390.8558301000003,390.8558301000003,390.8558301000003,left,2.8900755999993635,0,1,0,99,0.48000000000000004,-0.08,left,2.7979005999995934,,,,,389.2919132999996,390.8558301000003,0,-0.08,0.0,0.4,-0.08,0,0.2,0,-0.08,381.3841874999998,381.3841874999998,381.3841874999998,381.3841874999998,381.3841874999998,381.3841874999998,381.3841874999998,381.3841874999998,381.3690393399993,8.042135500000768,return,7.88647999999921,,,,,,,,,,,,,,,,,,,,,,,,,,,,,,,,,0U0YR0,train_x,blue_star,bottom_right,2025-05-30_10h32.45.557,HideSeek_v1,2022.2.5,59.96217585951151,
,9,4,5,4,-4,0,21,,train_dim1_1,3,30,,,,2,0,2,0,,,,,,,,,0,0,0,0,0,2,2,2,1,0,1,0,,,,,,,,,,,,,,,,,,,,,,,,,,,,,,,,,,,,,,,,,,,,,,,,,,,,,,,,,,,,,,,,30,,,,,,,,393.7483978999999,393.7483978999999,393.7483978999999,393.7483978999999,393.7483978999999,left,0.5763600000000224,0,1,0,99,0.4,-0.08,left,0.4888115999992806,,,,,,,,,,,,,,,,,,,,,,,,,,,,,,,,,,,,,,,,,,,,,,,,,,,,,,,,,,,,0U0YR0,train_x,blue_star,bottom_right,2025-05-30_10h32.45.557,HideSeek_v1,2022.2.5,59.96217585951151,
,9,4,5,4,-4,0,21,,train_dim1_1,3,30,,,,2,0,2,0,,,,,,,,,0,0,0,0,0,2,2,2,2,0,2,0,,,,,,,,,,,,,,,,,,,,,,,,,,,,,,,,,,,,,,,,,,,,,,,,,,,,,,,,,,,,,,,,30,,,,,,,,394.3294366,394.3294366,394.3294366,394.3294366,394.3294366,left,0.5769583000001148,0,1,0,99,0.32,-0.08,left,0.4853382999999667,,,,,,,,,,,,,,,,,,,,,,,,,,,,,,,,,,,,,,,,,,,,,,,,,,,,,,,,,,,,0U0YR0,train_x,blue_star,bottom_right,2025-05-30_10h32.45.557,HideSeek_v1,2022.2.5,59.96217585951151,
,9,4,5,4,-4,0,21,,train_dim1_1,3,30,,,,2,0,2,0,,,,,,,,,0,0,0,0,0,2,2,2,3,0,3,0,,,,,,,,,,,,,,,,,,,,,,,,,,,,,,,,,,,,,,,,,,,,,,,,,,,,,,,,,,,,,,,,30,,,,,,,,394.91390779999983,394.91390779999983,394.91390779999983,394.91390779999983,394.91390779999983,left,0.660547299999962,0,1,0,99,0.24,-0.08,left,0.5692506999994293,,,,,,,,,,,,,,,,,,,,,,,,,,,,,,,,,,,,,,,,,,,,,,,,,,,,,,,,,,,,0U0YR0,train_x,blue_star,bottom_right,2025-05-30_10h32.45.557,HideSeek_v1,2022.2.5,59.96217585951151,
,9,4,5,4,-4,0,21,,train_dim1_1,3,30,,,,2,0,2,0,,,,,,,,,0,0,0,0,0,2,2,2,4,0,4,0,,,,,,,,,,,,,,,,,,,,,,,,,,,,,,,,,,,,,,,,,,,,,,,,,,,,,,,,,,,,,,,,30,,,,,,,,395.58063969999967,395.58063969999967,395.58063969999967,395.58063969999967,395.58063969999967,return,1.210633699999562,1,0,0,1,0.24,-0.08,return,1.1234319999994113,0,-12,0.24,-0.08,,,,,,,,,,,,,,,,,,,,,,,,,,,,,,,,,,,,,,,,,,,,,,,,,,,,,,,,0U0YR0,train_x,blue_star,bottom_right,2025-05-30_10h32.45.557,HideSeek_v1,2022.2.5,59.96217585951151,
,7,3,6,3,-1,0,51,,train_dim1_1,4,30,,,,2,0,2,0,,,,,,,,,0,0,0,0,0,3,3,3,0,0,0,0,,,,,,,,,,,,,,,,,,,,,,,,,stimuli/alien_stimuli/51.png,,,,,,,,,,,,,,,,,,,,,,,,,,,,,stimuli/alien_stimuli/21.png,21,9,5,,,,,,,30,,,,,,,,403.36375249999946,403.36375249999946,403.36375249999946,403.36375249999946,403.36375249999946,up,2.8900727999998708,1,0,0,99,0.4,-0.08,up,2.8085202000002027,,,,,401.80231660000027,403.36375249999946,0.24,-0.08,0.0,0.32,-0.08,0.24,0.4,0.24,-0.08,398.3717663999996,398.3717663999996,398.3717663999996,398.3717663999996,398.3717663999996,398.3717663999996,398.3717663999996,398.3717663999996,398.3495355599998,3.555430599999454,return,3.4147806000000855,,,,,,,,,,,,,,,,,,,,,,,,,,,,,,,,,0U0YR0,train_x,blue_star,bottom_right,2025-05-30_10h32.45.557,HideSeek_v1,2022.2.5,59.96217585951151,
,7,3,6,3,-1,0,51,,train_dim1_1,4,30,,,,2,0,2,0,,,,,,,,,0,0,0,0,0,3,3,3,1,0,1,0,,,,,,,,,,,,,,,,,,,,,,,,,,,,,,,,,,,,,,,,,,,,,,,,,,,,,,,,,,,,,,,,30,,,,,,,,406.2548128999997,406.2548128999997,406.2548128999997,406.2548128999997,406.2548128999997,up,0.8600868000003175,1,0,0,99,0.4,0.0,up,0.7803407000001243,,,,,,,,,,,,,,,,,,,,,,,,,,,,,,,,,,,,,,,,,,,,,,,,,,,,,,,,,,,,0U0YR0,train_x,blue_star,bottom_right,2025-05-30_10h32.45.557,HideSeek_v1,2022.2.5,59.96217585951151,
,7,3,6,3,-1,0,51,,train_dim1_1,4,30,,,,2,0,2,0,,,,,,,,,0,0,0,0,0,3,3,3,2,0,2,0,,,,,,,,,,,,,,,,,,,,,,,,,,,,,,,,,,,,,,,,,,,,,,,,,,,,,,,,,,,,,,,,30,,,,,,,,407.12172629999986,407.12172629999986,407.12172629999986,407.12172629999986,407.12172629999986,up,1.3111314000007042,1,0,0,99,0.4,0.08,up,1.2357484999993176,,,,,,,,,,,,,,,,,,,,,,,,,,,,,,,,,,,,,,,,,,,,,,,,,,,,,,,,,,,,0U0YR0,train_x,blue_star,bottom_right,2025-05-30_10h32.45.557,HideSeek_v1,2022.2.5,59.96217585951151,
,7,3,6,3,-1,0,51,,train_dim1_1,4,30,,,,2,0,2,0,,,,,,,,,0,0,0,0,0,3,3,3,3,0,3,0,,,,,,,,,,,,,,,,,,,,,,,,,,,,,,,,,,,,,,,,,,,,,,,,,,,,,,,,,,,,,,,,30,,,,,,,,408.4400522999995,408.4400522999995,408.4400522999995,408.4400522999995,408.4400522999995,down,2.3780044000004636,1,0,0,99,0.4,0.0,down,2.2960322999997516,,,,,,,,,,,,,,,,,,,,,,,,,,,,,,,,,,,,,,,,,,,,,,,,,,,,,,,,,,,,0U0YR0,train_x,blue_star,bottom_right,2025-05-30_10h32.45.557,HideSeek_v1,2022.2.5,59.96217585951151,
,7,3,6,3,-1,0,51,,train_dim1_1,4,30,,,,2,0,2,0,,,,,,,,,0,0,0,0,0,3,3,3,4,0,4,0,,,,,,,,,,,,,,,,,,,,,,,,,,,,,,,,,,,,,,,,,,,,,,,,,,,,,,,,,,,,,,,,30,,,,,,,,410.8267778999998,410.8267778999998,410.8267778999998,410.8267778999998,410.8267778999998,down,0.40999550000015006,1,0,0,99,0.4,-0.08,down,0.32622149999951944,,,,,,,,,,,,,,,,,,,,,,,,,,,,,,,,,,,,,,,,,,,,,,,,,,,,,,,,,,,,0U0YR0,train_x,blue_star,bottom_right,2025-05-30_10h32.45.557,HideSeek_v1,2022.2.5,59.96217585951151,
,7,3,6,3,-1,0,51,,train_dim1_1,4,30,,,,2,0,2,0,,,,,,,,,0,0,0,0,0,3,3,3,5,0,5,0,,,,,,,,,,,,,,,,,,,,,,,,,,,,,,,,,,,,,,,,,,,,,,,,,,,,,,,,,,,,,,,,30,,,,,,,,411.2421470999998,411.2421470999998,411.2421470999998,411.2421470999998,411.2421470999998,down,0.41023910000058095,1,0,0,99,0.4,-0.16,down,0.32433169999967504,,,,,,,,,,,,,,,,,,,,,,,,,,,,,,,,,,,,,,,,,,,,,,,,,,,,,,,,,,,,0U0YR0,train_x,blue_star,bottom_right,2025-05-30_10h32.45.557,HideSeek_v1,2022.2.5,59.96217585951151,
,7,3,6,3,-1,0,51,,train_dim1_1,4,30,,,,2,0,2,0,,,,,,,,,0,0,0,0,0,3,3,3,6,0,6,0,,,,,,,,,,,,,,,,,,,,,,,,,,,,,,,,,,,,,,,,,,,,,,,,,,,,,,,,,,,,,,,,30,,,,,,,,411.6596473999998,411.6596473999998,411.6596473999998,411.6596473999998,411.6596473999998,return,0.7601728999998159,1,1,0,0,0.4,-0.16,return,0.6832482999998319,0,-12,0.4,-0.16,,,,,,,,,,,,,,,,,,,,,,,,,,,,,,,,,,,,,,,,,,,,,,,,,,,,,,,,0U0YR0,train_x,blue_star,bottom_right,2025-05-30_10h32.45.557,HideSeek_v1,2022.2.5,59.96217585951151,
,5,2,5,2,0,0,61,,train_dim1_1,5,30,,,,2,0,2,0,,,,,,,,,0,0,0,0,0,4,4,4,0,0,0,0,,,,,,,,,,,,,,,,,,,,,,,,,stimuli/alien_stimuli/61.png,,,,,,,,,,,,,,,,,,,,,,,,,,,,,stimuli/alien_stimuli/51.png,51,7,6,,,,,,,30,,,,,,,,420.4432928999995,420.4432928999995,420.4432928999995,420.4432928999995,420.4432928999995,left,3.022940599999856,1,1,0,99,0.15999999999999998,-0.24,left,2.938572899999599,,,,,418.8837118000001,420.4432928999995,0.32,-0.16,0.0,0.08,-0.16,0.32,0.36,0.32,-0.16,414.0026091,414.0026091,414.0026091,414.0026091,414.0026091,414.0026091,414.0026091,414.0026091,413.99581493999995,5.006314799999927,return,4.857749299999341,,,,,,,,,,,,,,,,,,,,,,,,,,,,,,,,,0U0YR0,train_x,blue_star,bottom_right,2025-05-30_10h32.45.557,HideSeek_v1,2022.2.5,59.96217585951151,
,5,2,5,2,0,0,61,,train_dim1_1,5,30,,,,2,0,2,0,,,,,,,,,0,0,0,0,0,4,4,4,1,0,1,0,,,,,,,,,,,,,,,,,,,,,,,,,,,,,,,,,,,,,,,,,,,,,,,,,,,,,,,,,,,,,,,,30,,,,,,,,423.4670520999998,423.4670520999998,423.4670520999998,423.4670520999998,423.4670520999998,return,3.211982600000738,1,1,0,0,0.15999999999999998,-0.24,return,3.1240742999998474,0,-13,0.15999999999999998,-0.24,,,,,,,,,,,,,,,,,,,,,,,,,,,,,,,,,,,,,,,,,,,,,,,,,,,,,,,,0U0YR0,train_x,blue_star,bottom_right,2025-05-30_10h32.45.557,HideSeek_v1,2022.2.5,59.96217585951151,
,5,0,1,0,-4,0,21,,train_dim1_1,6,30,,,,2,0,2,0,,,,,,,,,0,0,0,0,0,5,5,5,0,0,0,0,,,,,,,,,,,,,,,,,,,,,,,,,stimuli/alien_stimuli/21.png,,,,,,,,,,,,,,,,,,,,,,,,,,,,,stimuli/alien_stimuli/61.png,61,5,7,,,,,,,30,,,,,,,,433.2412727000001,433.2412727000001,433.2412727000001,433.2412727000001,433.2412727000001,left,2.856594199999563,1,1,0,99,0.15999999999999998,-0.4,left,2.7599200999993627,,,,,431.6771179999996,433.2412727000001,0.24,-0.24,0.0,0.0,-0.24,0.24,0.24,0.24,-0.24,428.2675855999996,428.2675855999996,428.2675855999996,428.2675855999996,428.2675855999996,428.2675855999996,428.2675855999996,428.2675855999996,428.25789733999954,3.538122199999634,return,3.3863232000003336,,,,,,,,,,,,,,,,,,,,,,,,,,,,,,,,,0U0YR0,train_x,blue_star,bottom_right,2025-05-30_10h32.45.557,HideSeek_v1,2022.2.5,59.96217585951151,
,5,0,1,0,-4,0,21,,train_dim1_1,6,30,,,,2,0,2,0,,,,,,,,,0,0,0,0,0,5,5,5,1,0,1,0,,,,,,,,,,,,,,,,,,,,,,,,,,,,,,,,,,,,,,,,,,,,,,,,,,,,,,,,,,,,,,,,30,,,,,,,,436.09932089999984,436.09932089999984,436.09932089999984,436.09932089999984,436.09932089999984,left,0.5083620000004885,1,1,0,99,0.07999999999999997,-0.4,left,0.41644169999926817,,,,,,,,,,,,,,,,,,,,,,,,,,,,,,,,,,,,,,,,,,,,,,,,,,,,,,,,,,,,0U0YR0,train_x,blue_star,bottom_right,2025-05-30_10h32.45.557,HideSeek_v1,2022.2.5,59.96217585951151,
,5,0,1,0,-4,0,21,,train_dim1_1,6,30,,,,2,0,2,0,,,,,,,,,0,0,0,0,0,5,5,5,2,0,2,0,,,,,,,,,,,,,,,,,,,,,,,,,,,,,,,,,,,,,,,,,,,,,,,,,,,,,,,,,,,,,,,,30,,,,,,,,436.61531469999954,436.61531469999954,436.61531469999954,436.61531469999954,436.61531469999954,left,0.49332589999994525,1,1,0,99,-2.7755575615628914e-17,-0.4,left,0.4138945999993666,,,,,,,,,,,,,,,,,,,,,,,,,,,,,,,,,,,,,,,,,,,,,,,,,,,,,,,,,,,,0U0YR0,train_x,blue_star,bottom_right,2025-05-30_10h32.45.557,HideSeek_v1,2022.2.5,59.96217585951151,
,5,0,1,0,-4,0,21,,train_dim1_1,6,30,,,,2,0,2,0,,,,,,,,,0,0,0,0,0,5,5,5,3,0,3,0,,,,,,,,,,,,,,,,,,,,,,,,,,,,,,,,,,,,,,,,,,,,,,,,,,,,,,,,,,,,,,,,30,,,,,,,,437.1154365000002,437.1154365000002,437.1154365000002,437.1154365000002,437.1154365000002,left,0.5271467000002303,1,1,0,99,-0.08000000000000003,-0.4,left,0.4347805999996126,,,,,,,,,,,,,,,,,,,,,,,,,,,,,,,,,,,,,,,,,,,,,,,,,,,,,,,,,,,,0U0YR0,train_x,blue_star,bottom_right,2025-05-30_10h32.45.557,HideSeek_v1,2022.2.5,59.96217585951151,
,5,0,1,0,-4,0,21,,train_dim1_1,6,30,,,,2,0,2,0,,,,,,,,,0,0,0,0,0,5,5,5,4,0,4,0,,,,,,,,,,,,,,,,,,,,,,,,,,,,,,,,,,,,,,,,,,,,,,,,,,,,,,,,,,,,,,,,30,,,,,,,,437.64959610000005,437.64959610000005,437.64959610000005,437.64959610000005,437.64959610000005,return,2.128219500000341,2,0,0,1,-0.08000000000000003,-0.4,return,2.03828379999959,0,-17,-0.08000000000000003,-0.4,,,,,,,,,,,,,,,,,,,,,,,,,,,,,,,,,,,,,,,,,,,,,,,,,,,,,,,,0U0YR0,train_x,blue_star,bottom_right,2025-05-30_10h32.45.557,HideSeek_v1,2022.2.5,59.96217585951151,
,8,0,8,0,0,0,61,,train_dim1_1,7,30,,,,2,0,2,0,,,,,,,,,0,0,0,0,0,6,6,6,0,0,0,0,,,,,,,,,,,,,,,,,,,,,,,,,stimuli/alien_stimuli/61.png,,,,,,,,,,,,,,,,,,,,,,,,,,,,,stimuli/alien_stimuli/21.png,21,5,8,,,,,,,30,,,,,,,,445.63461480000024,445.63461480000024,445.63461480000024,445.63461480000024,445.63461480000024,down,0.23485749999963446,2,0,0,99,0.48,-0.48000000000000004,down,0.15401269999983924,,,,,444.0708775000003,445.63461480000024,-0.08,-0.4,0.0,0.32,-0.4,-0.08,0.07999999999999999,-0.08,-0.4,441.36409300000014,441.36409300000014,441.36409300000014,441.36409300000014,441.36409300000014,441.36409300000014,441.36409300000014,441.36409300000014,441.35180843999933,2.8379156000000876,return,2.6796299999996336,,,,,,,,,,,,,,,,,,,,,,,,,,,,,,,,,0U0YR0,train_x,blue_star,bottom_right,2025-05-30_10h32.45.557,HideSeek_v1,2022.2.5,59.96217585951151,
,8,0,8,0,0,0,61,,train_dim1_1,7,30,,,,2,0,2,0,,,,,,,,,0,0,0,0,0,6,6,6,1,0,1,0,,,,,,,,,,,,,,,,,,,,,,,,,,,,,,,,,,,,,,,,,,,,,,,,,,,,,,,,,,,,,,,,30,,,,,,,,445.8702701000002,445.8702701000002,445.8702701000002,445.8702701000002,445.8702701000002,up,2.160402299999987,2,0,0,99,0.48,-0.4,up,2.0805114000004323,,,,,,,,,,,,,,,,,,,,,,,,,,,,,,,,,,,,,,,,,,,,,,,,,,,,,,,,,,,,0U0YR0,train_x,blue_star,bottom_right,2025-05-30_10h32.45.557,HideSeek_v1,2022.2.5,59.96217585951151,
,8,0,8,0,0,0,61,,train_dim1_1,7,30,,,,2,0,2,0,,,,,,,,,0,0,0,0,0,6,6,6,2,0,2,0,,,,,,,,,,,,,,,,,,,,,,,,,,,,,,,,,,,,,,,,,,,,,,,,,,,,,,,,,,,,,,,,30,,,,,,,,448.03611790000014,448.03611790000014,448.03611790000014,448.03611790000014,448.03611790000014,left,1.9946023000002242,2,0,0,99,0.39999999999999997,-0.4,left,1.9181564000000435,,,,,,,,,,,,,,,,,,,,,,,,,,,,,,,,,,,,,,,,,,,,,,,,,,,,,,,,,,,,0U0YR0,train_x,blue_star,bottom_right,2025-05-30_10h32.45.557,HideSeek_v1,2022.2.5,59.96217585951151,
,8,0,8,0,0,0,61,,train_dim1_1,7,30,,,,2,0,2,0,,,,,,,,,0,0,0,0,0,6,6,6,3,0,3,0,,,,,,,,,,,,,,,,,,,,,,,,,,,,,,,,,,,,,,,,,,,,,,,,,,,,,,,,,,,,,,,,30,,,,,,,,450.0387883000003,450.0387883000003,450.0387883000003,450.0387883000003,450.0387883000003,return,0.7603736000000936,2,1,0,0,0.39999999999999997,-0.4,return,0.6801148999993529,0,-18,0.39999999999999997,-0.4,,,,,,,,,,,,,,,,,,,,,,,,,,,,,,,,,,,,,,,,,,,,,,,,,,,,,,,,0U0YR0,train_x,blue_star,bottom_right,2025-05-30_10h32.45.557,HideSeek_v1,2022.2.5,59.96217585951151,
,5,4,2,4,-3,0,31,,train_dim1_1,8,30,,,,2,0,2,0,,,,,,,,,0,0,0,0,0,7,7,7,0,0,0,0,,,,,,,,,,,,,,,,,,,,,,,,,stimuli/alien_stimuli/31.png,,,,,,,,,,,,,,,,,,,,,,,,,,,,,stimuli/alien_stimuli/61.png,61,8,9,,,,,,,30,,,,,,,,456.1027260999999,456.1027260999999,456.1027260999999,456.1027260999999,456.1027260999999,left,2.0370230999997148,2,1,0,99,0.15999999999999998,-0.08,left,1.9386450000001787,,,,,454.52949609999996,456.1027260999999,0.48,-0.4,0.0,0.0,-0.4,0.48,0.48,0.48,-0.4,452.37813819999974,452.37813819999974,452.37813819999974,452.37813819999974,452.37813819999974,452.37813819999974,452.37813819999974,452.37813819999974,452.36099875999935,2.2706758999993326,return,2.1265204999999696,,,,,,,,,,,,,,,,,,,,,,,,,,,,,,,,,0U0YR0,train_x,blue_star,bottom_right,2025-05-30_10h32.45.557,HideSeek_v1,2022.2.5,59.96217585951151,
,5,4,2,4,-3,0,31,,train_dim1_1,8,30,,,,2,0,2,0,,,,,,,,,0,0,0,0,0,7,7,7,1,0,1,0,,,,,,,,,,,,,,,,,,,,,,,,,,,,,,,,,,,,,,,,,,,,,,,,,,,,,,,,,,,,,,,,30,,,,,,,,458.13087600000017,458.13087600000017,458.13087600000017,458.13087600000017,458.13087600000017,left,0.509172099999887,2,1,0,99,0.07999999999999997,-0.08,left,0.4319270999994842,,,,,,,,,,,,,,,,,,,,,,,,,,,,,,,,,,,,,,,,,,,,,,,,,,,,,,,,,,,,0U0YR0,train_x,blue_star,bottom_right,2025-05-30_10h32.45.557,HideSeek_v1,2022.2.5,59.96217585951151,
,5,4,2,4,-3,0,31,,train_dim1_1,8,30,,,,2,0,2,0,,,,,,,,,0,0,0,0,0,7,7,7,2,0,2,0,,,,,,,,,,,,,,,,,,,,,,,,,,,,,,,,,,,,,,,,,,,,,,,,,,,,,,,,,,,,,,,,30,,,,,,,,458.64632489999985,458.64632489999985,458.64632489999985,458.64632489999985,458.64632489999985,left,0.5270927999999913,2,1,0,99,-2.7755575615628914e-17,-0.08,left,0.4421439999996437,,,,,,,,,,,,,,,,,,,,,,,,,,,,,,,,,,,,,,,,,,,,,,,,,,,,,,,,,,,,0U0YR0,train_x,blue_star,bottom_right,2025-05-30_10h32.45.557,HideSeek_v1,2022.2.5,59.96217585951151,
,5,4,2,4,-3,0,31,,train_dim1_1,8,30,,,,2,0,2,0,,,,,,,,,0,0,0,0,0,7,7,7,3,0,3,0,,,,,,,,,,,,,,,,,,,,,,,,,,,,,,,,,,,,,,,,,,,,,,,,,,,,,,,,,,,,,,,,30,,,,,,,,459.17950969999947,459.17950969999947,459.17950969999947,459.17950969999947,459.17950969999947,return,1.1106333000006998,3,0,0,1,-2.7755575615628914e-17,-0.08,return,1.0238553999997748,0,-21,-2.7755575615628914e-17,-0.08,,,,,,,,,,,,,,,,,,,,,,,,,,,,,,,,,,,,,,,,,,,,,,,,,,,,,,,,0U0YR0,train_x,blue_star,bottom_right,2025-05-30_10h32.45.557,HideSeek_v1,2022.2.5,59.96217585951151,
,6,0,5,0,-1,0,51,,train_dim1_1,9,30,,,,2,0,2,0,,,,,,,,,0,0,0,0,0,8,8,8,0,0,0,0,,,,,,,,,,,,,,,,,,,,,,,,,stimuli/alien_stimuli/51.png,,,,,,,,,,,,,,,,,,,,,,,,,,,,,stimuli/alien_stimuli/31.png,31,5,10,,,,,,,30,,,,,,,,466.33762409999963,466.33762409999963,466.33762409999963,466.33762409999963,466.33762409999963,left,2.520453500000258,3,0,0,99,0.24,-0.4,left,2.4351294999996753,,,,,464.7713883999995,466.33762409999963,0,-0.08,0.0,0.24,-0.08,0,0.12,0,-0.08,461.85641639999994,461.85641639999994,461.85641639999994,461.85641639999994,461.85641639999994,461.85641639999994,461.85641639999994,461.85641639999994,461.83570767999936,3.0213534000004074,return,2.891430499999842,,,,,,,,,,,,,,,,,,,,,,,,,,,,,,,,,0U0YR0,train_x,blue_star,bottom_right,2025-05-30_10h32.45.557,HideSeek_v1,2022.2.5,59.96217585951151,
,6,0,5,0,-1,0,51,,train_dim1_1,9,30,,,,2,0,2,0,,,,,,,,,0,0,0,0,0,8,8,8,1,0,1,0,,,,,,,,,,,,,,,,,,,,,,,,,,,,,,,,,,,,,,,,,,,,,,,,,,,,,,,,,,,,,,,,30,,,,,,,,468.8581164999996,468.8581164999996,468.8581164999996,468.8581164999996,468.8581164999996,return,0.7096240999999281,4,0,0,1,0.24,-0.4,return,0.6253885999994964,0,-22,0.24,-0.4,,,,,,,,,,,,,,,,,,,,,,,,,,,,,,,,,,,,,,,,,,,,,,,,,,,,,,,,0U0YR0,train_x,blue_star,bottom_right,2025-05-30_10h32.45.557,HideSeek_v1,2022.2.5,59.96217585951151,
,5,3,0,3,-5,0,11,,train_dim1_1,10,30,,,,2,0,2,0,,,,,,,,,0,0,0,0,0,9,9,9,0,0,0,0,,,,,,,,,,,,,,,,,,,,,,,,,stimuli/alien_stimuli/11.png,,,,,,,,,,,,,,,,,,,,,,,,,,,,,stimuli/alien_stimuli/51.png,51,6,11,,,,,,,30,,,,,,,,474.64174829999956,474.64174829999956,474.64174829999956,474.64174829999956,474.64174829999956,left,1.5346266000005926,4,0,0,99,0.15999999999999998,-0.16,left,1.4234959999994317,,,,,473.0615151000002,474.64174829999956,0.24,-0.4,0.0,0.08,-0.4,0.24,0.28,0.24,-0.4,471.1321275,471.1321275,471.1321275,471.1321275,471.1321275,471.1321275,471.1321275,471.1321275,471.12662245999945,2.0373532999992676,return,1.912816699999894,,,,,,,,,,,,,,,,,,,,,,,,,,,,,,,,,0U0YR0,train_x,blue_star,bottom_right,2025-05-30_10h32.45.557,HideSeek_v1,2022.2.5,59.96217585951151,
,5,3,0,3,-5,0,11,,train_dim1_1,10,30,,,,2,0,2,0,,,,,,,,,0,0,0,0,0,9,9,9,1,0,1,0,,,,,,,,,,,,,,,,,,,,,,,,,,,,,,,,,,,,,,,,,,,,,,,,,,,,,,,,,,,,,,,,30,,,,,,,,476.1653114999999,476.1653114999999,476.1653114999999,476.1653114999999,476.1653114999999,left,0.4595219000002544,4,0,0,99,0.07999999999999997,-0.16,left,0.38247299999966344,,,,,,,,,,,,,,,,,,,,,,,,,,,,,,,,,,,,,,,,,,,,,,,,,,,,,,,,,,,,0U0YR0,train_x,blue_star,bottom_right,2025-05-30_10h32.45.557,HideSeek_v1,2022.2.5,59.96217585951151,
,5,3,0,3,-5,0,11,,train_dim1_1,10,30,,,,2,0,2,0,,,,,,,,,0,0,0,0,0,9,9,9,2,0,2,0,,,,,,,,,,,,,,,,,,,,,,,,,,,,,,,,,,,,,,,,,,,,,,,,,,,,,,,,,,,,,,,,30,,,,,,,,476.6309222,476.6309222,476.6309222,476.6309222,476.6309222,left,0.4603429999997388,4,0,0,99,-2.7755575615628914e-17,-0.16,left,0.3798856999992495,,,,,,,,,,,,,,,,,,,,,,,,,,,,,,,,,,,,,,,,,,,,,,,,,,,,,,,,,,,,0U0YR0,train_x,blue_star,bottom_right,2025-05-30_10h32.45.557,HideSeek_v1,2022.2.5,59.96217585951151,
,5,3,0,3,-5,0,11,,train_dim1_1,10,30,,,,2,0,2,0,,,,,,,,,0,0,0,0,0,9,9,9,3,0,3,0,,,,,,,,,,,,,,,,,,,,,,,,,,,,,,,,,,,,,,,,,,,,,,,,,,,,,,,,,,,,,,,,30,,,,,,,,477.09827679999944,477.09827679999944,477.09827679999944,477.09827679999944,477.09827679999944,left,0.5434783000000607,4,0,0,99,-0.08000000000000003,-0.16,left,0.4543248999998468,,,,,,,,,,,,,,,,,,,,,,,,,,,,,,,,,,,,,,,,,,,,,,,,,,,,,,,,,,,,0U0YR0,train_x,blue_star,bottom_right,2025-05-30_10h32.45.557,HideSeek_v1,2022.2.5,59.96217585951151,
,5,3,0,3,-5,0,11,,train_dim1_1,10,30,,,,2,0,2,0,,,,,,,,,0,0,0,0,0,9,9,9,4,0,4,0,,,,,,,,,,,,,,,,,,,,,,,,,,,,,,,,,,,,,,,,,,,,,,,,,,,,,,,,,,,,,,,,30,,,,,,,,477.64846450000005,477.64846450000005,477.64846450000005,477.64846450000005,477.64846450000005,return,0.41000440000061644,4,1,0,0,-0.08000000000000003,-0.16,return,0.3261659999998301,0,-26,-0.08000000000000003,-0.16,,,,,,,,,,,,,,,,,,,,,,,,,,,,,,,,,,,,,,,,,,,,,,,,,,,,,,,,0U0YR0,train_x,blue_star,bottom_right,2025-05-30_10h32.45.557,HideSeek_v1,2022.2.5,59.96217585951151,
,7,2,4,2,-3,0,31,,train_dim1_1,11,30,,,,2,0,2,0,,,,,,,,,0,0,0,0,0,10,10,10,0,0,0,0,,,,,,,,,,,,,,,,,,,,,,,,,stimuli/alien_stimuli/31.png,,,,,,,,,,,,,,,,,,,,,,,,,,,,,stimuli/alien_stimuli/11.png,11,5,12,,,,,,,30,,,,,,,,484.21544360000007,484.21544360000007,484.21544360000007,484.21544360000007,484.21544360000007,left,1.65440370000033,4,1,0,99,0.32,-0.24,left,1.5586039999989225,,,,,482.6527718999996,484.21544360000007,-0.16,-0.16,0.0,0.4,-0.16,-0.16,0.039999999999999994,-0.16,-0.16,479.6251237999995,479.6251237999995,479.6251237999995,479.6251237999995,479.6251237999995,479.6251237999995,479.6251237999995,479.6251237999995,479.61699976,3.138390199999776,return,3.0084008999992875,,,,,,,,,,,,,,,,,,,,,,,,,,,,,,,,,0U0YR0,train_x,blue_star,bottom_right,2025-05-30_10h32.45.557,HideSeek_v1,2022.2.5,59.96217585951151,
,7,2,4,2,-3,0,31,,train_dim1_1,11,30,,,,2,0,2,0,,,,,,,,,0,0,0,0,0,10,10,10,1,0,1,0,,,,,,,,,,,,,,,,,,,,,,,,,,,,,,,,,,,,,,,,,,,,,,,,,,,,,,,,,,,,,,,,30,,,,,,,,485.8698865999995,485.8698865999995,485.8698865999995,485.8698865999995,485.8698865999995,left,0.47559110000020155,4,1,0,99,0.24,-0.24,left,0.3880124999996042,,,,,,,,,,,,,,,,,,,,,,,,,,,,,,,,,,,,,,,,,,,,,,,,,,,,,,,,,,,,0U0YR0,train_x,blue_star,bottom_right,2025-05-30_10h32.45.557,HideSeek_v1,2022.2.5,59.96217585951151,
,7,2,4,2,-3,0,31,,train_dim1_1,11,30,,,,2,0,2,0,,,,,,,,,0,0,0,0,0,10,10,10,2,0,2,0,,,,,,,,,,,,,,,,,,,,,,,,,,,,,,,,,,,,,,,,,,,,,,,,,,,,,,,,,,,,,,,,30,,,,,,,,486.35188969999945,486.35188969999945,486.35188969999945,486.35188969999945,486.35188969999945,left,0.4265393999994558,4,1,0,99,0.15999999999999998,-0.24,left,0.3408484999990833,,,,,,,,,,,,,,,,,,,,,,,,,,,,,,,,,,,,,,,,,,,,,,,,,,,,,,,,,,,,0U0YR0,train_x,blue_star,bottom_right,2025-05-30_10h32.45.557,HideSeek_v1,2022.2.5,59.96217585951151,
,7,2,4,2,-3,0,31,,train_dim1_1,11,30,,,,2,0,2,0,,,,,,,,,0,0,0,0,0,10,10,10,3,0,3,0,,,,,,,,,,,,,,,,,,,,,,,,,,,,,,,,,,,,,,,,,,,,,,,,,,,,,,,,,,,,,,,,30,,,,,,,,486.78604540000015,486.78604540000015,486.78604540000015,486.78604540000015,486.78604540000015,left,0.49336829999992915,4,1,0,99,0.07999999999999997,-0.24,left,0.41638269999930344,,,,,,,,,,,,,,,,,,,,,,,,,,,,,,,,,,,,,,,,,,,,,,,,,,,,,,,,,,,,0U0YR0,train_x,blue_star,bottom_right,2025-05-30_10h32.45.557,HideSeek_v1,2022.2.5,59.96217585951151,
,7,2,4,2,-3,0,31,,train_dim1_1,11,30,,,,2,0,2,0,,,,,,,,,0,0,0,0,0,10,10,10,4,0,4,0,,,,,,,,,,,,,,,,,,,,,,,,,,,,,,,,,,,,,,,,,,,,,,,,,,,,,,,,,,,,,,,,30,,,,,,,,487.2864939000001,487.2864939000001,487.2864939000001,487.2864939000001,487.2864939000001,return,0.4767973999996684,4,1,0,0,0.07999999999999997,-0.24,return,0.391230700000051,0,-30,0.07999999999999997,-0.24,,,,,,,,,,,,,,,,,,,,,,,,,,,,,,,,,,,,,,,,,,,,,,,,,,,,,,,,0U0YR0,train_x,blue_star,bottom_right,2025-05-30_10h32.45.557,HideSeek_v1,2022.2.5,59.96217585951151,
,5,0,1,0,-4,0,21,,train_dim1_1,12,30,,,,2,0,2,0,,,,,,,,,0,0,0,0,0,11,11,11,0,0,0,0,,,,,,,,,,,,,,,,,,,,,,,,,stimuli/alien_stimuli/21.png,,,,,,,,,,,,,,,,,,,,,,,,,,,,,stimuli/alien_stimuli/31.png,31,7,13,,,,,,,30,,,,,,,,497.7606840999997,497.7606840999997,497.7606840999997,497.7606840999997,497.7606840999997,left,1.80623420000029,4,1,0,99,0.15999999999999998,-0.4,left,1.71832379999978,,,,,496.1973412999996,497.7606840999997,0.16,-0.24,0.0,0.24,-0.24,0.16,0.28,0.16,-0.24,489.3249366,489.3249366,489.3249366,489.3249366,489.3249366,489.3249366,489.3249366,489.3249366,489.30810717999975,6.974746800000503,return,6.842047299999649,,,,,,,,,,,,,,,,,,,,,,,,,,,,,,,,,0U0YR0,train_x,blue_star,bottom_right,2025-05-30_10h32.45.557,HideSeek_v1,2022.2.5,59.96217585951151,
,5,0,1,0,-4,0,21,,train_dim1_1,12,30,,,,2,0,2,0,,,,,,,,,0,0,0,0,0,11,11,11,1,0,1,0,,,,,,,,,,,,,,,,,,,,,,,,,,,,,,,,,,,,,,,,,,,,,,,,,,,,,,,,,,,,,,,,30,,,,,,,,499.5720621999999,499.5720621999999,499.5720621999999,499.5720621999999,499.5720621999999,left,0.5571325999999317,4,1,0,99,0.07999999999999997,-0.4,left,0.47795139999925595,,,,,,,,,,,,,,,,,,,,,,,,,,,,,,,,,,,,,,,,,,,,,,,,,,,,,,,,,,,,0U0YR0,train_x,blue_star,bottom_right,2025-05-30_10h32.45.557,HideSeek_v1,2022.2.5,59.96217585951151,
,5,0,1,0,-4,0,21,,train_dim1_1,12,30,,,,2,0,2,0,,,,,,,,,0,0,0,0,0,11,11,11,2,0,2,0,,,,,,,,,,,,,,,,,,,,,,,,,,,,,,,,,,,,,,,,,,,,,,,,,,,,,,,,,,,,,,,,30,,,,,,,,500.13409479999973,500.13409479999973,500.13409479999973,500.13409479999973,500.13409479999973,left,0.5101088999999774,4,1,0,99,-2.7755575615628914e-17,-0.4,left,0.4277572000000873,,,,,,,,,,,,,,,,,,,,,,,,,,,,,,,,,,,,,,,,,,,,,,,,,,,,,,,,,,,,0U0YR0,train_x,blue_star,bottom_right,2025-05-30_10h32.45.557,HideSeek_v1,2022.2.5,59.96217585951151,
,5,0,1,0,-4,0,21,,train_dim1_1,12,30,,,,2,0,2,0,,,,,,,,,0,0,0,0,0,11,11,11,3,0,3,0,,,,,,,,,,,,,,,,,,,,,,,,,,,,,,,,,,,,,,,,,,,,,,,,,,,,,,,,,,,,,,,,30,,,,,,,,500.6506637000002,500.6506637000002,500.6506637000002,500.6506637000002,500.6506637000002,left,0.526707200000601,4,1,0,99,-0.08000000000000003,-0.4,left,0.43635939999967377,,,,,,,,,,,,,,,,,,,,,,,,,,,,,,,,,,,,,,,,,,,,,,,,,,,,,,,,,,,,0U0YR0,train_x,blue_star,bottom_right,2025-05-30_10h32.45.557,HideSeek_v1,2022.2.5,59.96217585951151,
,5,0,1,0,-4,0,21,,train_dim1_1,12,30,,,,2,0,2,0,,,,,,,,,0,0,0,0,0,11,11,11,4,0,4,0,,,,,,,,,,,,,,,,,,,,,,,,,,,,,,,,,,,,,,,,,,,,,,,,,,,,,,,,,,,,,,,,30,,,,,,,,501.1875723000003,501.1875723000003,501.1875723000003,501.1875723000003,501.1875723000003,left,0.4936459999998988,4,1,0,99,-0.16000000000000003,-0.4,left,0.40582240000003367,,,,,,,,,,,,,,,,,,,,,,,,,,,,,,,,,,,,,,,,,,,,,,,,,,,,,,,,,,,,0U0YR0,train_x,blue_star,bottom_right,2025-05-30_10h32.45.557,HideSeek_v1,2022.2.5,59.96217585951151,
,5,0,1,0,-4,0,21,,train_dim1_1,12,30,,,,2,0,2,0,,,,,,,,,0,0,0,0,0,11,11,11,5,0,5,0,,,,,,,,,,,,,,,,,,,,,,,,,,,,,,,,,,,,,,,,,,,,,,,,,,,,,,,,,,,,,,,,30,,,,,,,,501.6852861999996,501.6852861999996,501.6852861999996,501.6852861999996,501.6852861999996,return,0.7271012999999584,4,1,0,0,-0.16000000000000003,-0.4,return,0.6405008999990969,0,-35,-0.16000000000000003,-0.4,,,,,,,,,,,,,,,,,,,,,,,,,,,,,,,,,,,,,,,,,,,,,,,,,,,,,,,,0U0YR0,train_x,blue_star,bottom_right,2025-05-30_10h32.45.557,HideSeek_v1,2022.2.5,59.96217585951151,
,5,4,4,4,-1,0,51,,train_dim1_1,13,30,,,,2,0,2,0,,,,,,,,,0,0,0,0,0,12,12,12,0,0,0,0,,,,,,,,,,,,,,,,,,,,,,,,,stimuli/alien_stimuli/51.png,,,,,,,,,,,,,,,,,,,,,,,,,,,,,stimuli/alien_stimuli/21.png,21,5,14,,,,,,,30,,,,,,,,508.01281240000026,508.01281240000026,508.01281240000026,508.01281240000026,508.01281240000026,left,2.1719467000002624,4,1,0,99,0.15999999999999998,-0.08,left,2.0723471999999674,,,,,506.43916629999967,508.01281240000026,-0.08,-0.4,0.0,0.32,-0.4,-0.08,0.07999999999999999,-0.08,-0.4,503.9985423999997,503.9985423999997,503.9985423999997,503.9985423999997,503.9985423999997,503.9985423999997,503.9985423999997,503.9985423999997,503.98724304000007,2.570566299999882,return,2.4164529999998194,,,,,,,,,,,,,,,,,,,,,,,,,,,,,,,,,0U0YR0,train_x,blue_star,bottom_right,2025-05-30_10h32.45.557,HideSeek_v1,2022.2.5,59.96217585951151,
,5,4,4,4,-1,0,51,,train_dim1_1,13,30,,,,2,0,2,0,,,,,,,,,0,0,0,0,0,12,12,12,1,0,1,0,,,,,,,,,,,,,,,,,,,,,,,,,,,,,,,,,,,,,,,,,,,,,,,,,,,,,,,,,,,,,,,,30,,,,,,,,510.1748736999998,510.1748736999998,510.1748736999998,510.1748736999998,510.1748736999998,return,0.45962989999952697,5,0,0,1,0.15999999999999998,-0.08,return,0.382412299999487,0,-36,0.15999999999999998,-0.08,,,,,,,,,,,,,,,,,,,,,,,,,,,,,,,,,,,,,,,,,,,,,,,,,,,,,,,,0U0YR0,train_x,blue_star,bottom_right,2025-05-30_10h32.45.557,HideSeek_v1,2022.2.5,59.96217585951151,
,9,3,4,3,-5,0,11,,train_dim1_1,14,30,,,,2,0,2,0,,,,,,,,,0,0,0,0,0,13,13,13,0,0,0,0,,,,,,,,,,,,,,,,,,,,,,,,,stimuli/alien_stimuli/11.png,,,,,,,,,,,,,,,,,,,,,,,,,,,,,stimuli/alien_stimuli/51.png,51,5,15,,,,,,,30,,,,,,,,515.6330550000002,515.6330550000002,515.6330550000002,515.6330550000002,515.6330550000002,left,1.1211756000002424,5,0,0,99,0.48000000000000004,-0.16,left,0.9992895999994289,,,,,514.0454223999996,515.6330550000002,0.16,-0.08,0.0,0.08,-0.08,0.16,0.2,0.16,-0.08,512.2019347999994,512.2019347999994,512.2019347999994,512.2019347999994,512.2019347999994,512.2019347999994,512.2019347999994,512.2019347999994,512.1939009600001,1.9541574000004402,return,1.8222772999997687,,,,,,,,,,,,,,,,,,,,,,,,,,,,,,,,,0U0YR0,train_x,blue_star,bottom_right,2025-05-30_10h32.45.557,HideSeek_v1,2022.2.5,59.96217585951151,
,9,3,4,3,-5,0,11,,train_dim1_1,14,30,,,,2,0,2,0,,,,,,,,,0,0,0,0,0,13,13,13,1,0,1,0,,,,,,,,,,,,,,,,,,,,,,,,,,,,,,,,,,,,,,,,,,,,,,,,,,,,,,,,,,,,,,,,30,,,,,,,,516.7316645999999,516.7316645999999,516.7316645999999,516.7316645999999,516.7316645999999,left,0.3932976999994935,5,0,0,99,0.4,-0.16,left,0.3082862999999634,,,,,,,,,,,,,,,,,,,,,,,,,,,,,,,,,,,,,,,,,,,,,,,,,,,,,,,,,,,,0U0YR0,train_x,blue_star,bottom_right,2025-05-30_10h32.45.557,HideSeek_v1,2022.2.5,59.96217585951151,
,9,3,4,3,-5,0,11,,train_dim1_1,14,30,,,,2,0,2,0,,,,,,,,,0,0,0,0,0,13,13,13,2,0,2,0,,,,,,,,,,,,,,,,,,,,,,,,,,,,,,,,,,,,,,,,,,,,,,,,,,,,,,,,,,,,,,,,30,,,,,,,,517.1321636000002,517.1321636000002,517.1321636000002,517.1321636000002,517.1321636000002,left,0.42627189999984694,5,0,0,99,0.32,-0.16,left,0.3340044999995371,,,,,,,,,,,,,,,,,,,,,,,,,,,,,,,,,,,,,,,,,,,,,,,,,,,,,,,,,,,,0U0YR0,train_x,blue_star,bottom_right,2025-05-30_10h32.45.557,HideSeek_v1,2022.2.5,59.96217585951151,
,9,3,4,3,-5,0,11,,train_dim1_1,14,30,,,,2,0,2,0,,,,,,,,,0,0,0,0,0,13,13,13,3,0,3,0,,,,,,,,,,,,,,,,,,,,,,,,,,,,,,,,,,,,,,,,,,,,,,,,,,,,,,,,,,,,,,,,30,,,,,,,,517.5675382999998,517.5675382999998,517.5675382999998,517.5675382999998,517.5675382999998,left,0.4270408000002135,5,0,0,99,0.24,-0.16,left,0.33806509999976697,,,,,,,,,,,,,,,,,,,,,,,,,,,,,,,,,,,,,,,,,,,,,,,,,,,,,,,,,,,,0U0YR0,train_x,blue_star,bottom_right,2025-05-30_10h32.45.557,HideSeek_v1,2022.2.5,59.96217585951151,
,9,3,4,3,-5,0,11,,train_dim1_1,14,30,,,,2,0,2,0,,,,,,,,,0,0,0,0,0,13,13,13,4,0,4,0,,,,,,,,,,,,,,,,,,,,,,,,,,,,,,,,,,,,,,,,,,,,,,,,,,,,,,,,,,,,,,,,30,,,,,,,,517.9986971999997,517.9986971999997,517.9986971999997,517.9986971999997,517.9986971999997,return,0.5437848000001395,5,1,0,0,0.24,-0.16,return,0.4624259999991409,0,-40,0.24,-0.16,,,,,,,,,,,,,,,,,,,,,,,,,,,,,,,,,,,,,,,,,,,,,,,,,,,,,,,,0U0YR0,train_x,blue_star,bottom_right,2025-05-30_10h32.45.557,HideSeek_v1,2022.2.5,59.96217585951151,
,9,2,9,2,0,0,61,,train_dim1_1,15,30,,,,2,0,2,0,,,,,,,,,0,0,0,0,0,14,14,14,0,0,0,0,,,,,,,,,,,,,,,,,,,,,,,,,stimuli/alien_stimuli/61.png,,,,,,,,,,,,,,,,,,,,,,,,,,,,,stimuli/alien_stimuli/11.png,11,9,16,,,,,,,30,,,,,,,,524.4982914000002,524.4982914000002,524.4982914000002,524.4982914000002,524.4982914000002,right,2.254988499999854,5,1,0,99,0.64,-0.24,right,2.170882499999607,,,,,522.9362123999999,524.4982914000002,0.16,-0.16,0.0,0.4,-0.16,0.16,0.36000000000000004,0.16,-0.16,520.1066516000001,520.1066516000001,520.1066516000001,520.1066516000001,520.1066516000001,520.1066516000001,520.1066516000001,520.1066516000001,520.1008432600001,2.937592099999165,return,2.7995814999994764,,,,,,,,,,,,,,,,,,,,,,,,,,,,,,,,,0U0YR0,train_x,blue_star,bottom_right,2025-05-30_10h32.45.557,HideSeek_v1,2022.2.5,59.96217585951151,
,9,2,9,2,0,0,61,,train_dim1_1,15,30,,,,2,0,2,0,,,,,,,,,0,0,0,0,0,14,14,14,1,0,1,0,,,,,,,,,,,,,,,,,,,,,,,,,,,,,,,,,,,,,,,,,,,,,,,,,,,,,,,,,,,,,,,,30,,,,,,,,526.7538274999997,526.7538274999997,526.7538274999997,526.7538274999997,526.7538274999997,left,0.6096403999999893,5,1,0,99,0.56,-0.24,left,0.5242589999998017,,,,,,,,,,,,,,,,,,,,,,,,,,,,,,,,,,,,,,,,,,,,,,,,,,,,,,,,,,,,0U0YR0,train_x,blue_star,bottom_right,2025-05-30_10h32.45.557,HideSeek_v1,2022.2.5,59.96217585951151,
,9,2,9,2,0,0,61,,train_dim1_1,15,30,,,,2,0,2,0,,,,,,,,,0,0,0,0,0,14,14,14,2,0,2,0,,,,,,,,,,,,,,,,,,,,,,,,,,,,,,,,,,,,,,,,,,,,,,,,,,,,,,,,,,,,,,,,30,,,,,,,,527.3698684999999,527.3698684999999,527.3698684999999,527.3698684999999,527.3698684999999,return,0.5770690999997896,6,0,0,1,0.56,-0.24,return,0.48890379999920697,0,-40,0.56,-0.24,,,,,,,,,,,,,,,,,,,,,,,,,,,,,,,,,,,,,,,,,,,,,,,,,,,,,,,,0U0YR0,train_x,blue_star,bottom_right,2025-05-30_10h32.45.557,HideSeek_v1,2022.2.5,59.96217585951151,
,8,3,7,3,-1,0,51,,train_dim1_1,16,30,,,,2,0,2,0,,,,,,,,,0,0,0,0,0,15,15,15,0,0,0,0,,,,,,,,,,,,,,,,,,,,,,,,,stimuli/alien_stimuli/51.png,,,,,,,,,,,,,,,,,,,,,,,,,,,,,stimuli/alien_stimuli/61.png,61,9,17,,,,,,,30,,,,,,,,532.8085880999997,532.8085880999997,532.8085880999997,532.8085880999997,532.8085880999997,left,1.071299100000033,6,0,0,99,0.39999999999999997,-0.16,left,0.9690755000001445,,,,,531.2262825999996,532.8085880999997,0.56,-0.24,0.0,0.0,-0.24,0.56,0.56,0.56,-0.24,529.5099645,529.5099645,529.5099645,529.5099645,529.5099645,529.5099645,529.5099645,529.5099645,529.49162858,1.8201451999993878,return,1.692923000000519,,,,,,,,,,,,,,,,,,,,,,,,,,,,,,,,,0U0YR0,train_x,blue_star,bottom_right,2025-05-30_10h32.45.557,HideSeek_v1,2022.2.5,59.96217585951151,
,8,3,7,3,-1,0,51,,train_dim1_1,16,30,,,,2,0,2,0,,,,,,,,,0,0,0,0,0,15,15,15,1,0,1,0,,,,,,,,,,,,,,,,,,,,,,,,,,,,,,,,,,,,,,,,,,,,,,,,,,,,,,,,,,,,,,,,30,,,,,,,,533.8615210999997,533.8615210999997,533.8615210999997,533.8615210999997,533.8615210999997,return,0.44274330000007467,7,0,0,1,0.39999999999999997,-0.16,return,0.3561603999996805,0,-41,0.39999999999999997,-0.16,,,,,,,,,,,,,,,,,,,,,,,,,,,,,,,,,,,,,,,,,,,,,,,,,,,,,,,,0U0YR0,train_x,blue_star,bottom_right,2025-05-30_10h32.45.557,HideSeek_v1,2022.2.5,59.96217585951151,
,7,4,3,4,-4,0,21,,train_dim1_1,17,30,,,,2,0,2,0,,,,,,,,,0,0,0,0,0,16,16,16,0,0,0,0,,,,,,,,,,,,,,,,,,,,,,,,,stimuli/alien_stimuli/21.png,,,,,,,,,,,,,,,,,,,,,,,,,,,,,stimuli/alien_stimuli/51.png,51,8,18,,,,,,,30,,,,,,,,538.8948639,538.8948639,538.8948639,538.8948639,538.8948639,left,1.021713300000556,7,0,0,99,0.32,-0.08,left,0.938707099999192,,,,,537.3311615000002,538.8948639,0.4,-0.16,0.0,0.08,-0.16,0.4,0.44,0.4,-0.16,535.8701135000001,535.8701135000001,535.8701135000001,535.8701135000001,535.8701135000001,535.8701135000001,535.8701135000001,535.8701135000001,535.86375056,1.5698674999994182,return,1.4379734000003737,,,,,,,,,,,,,,,,,,,,,,,,,,,,,,,,,0U0YR0,train_x,blue_star,bottom_right,2025-05-30_10h32.45.557,HideSeek_v1,2022.2.5,59.96217585951151,
,7,4,3,4,-4,0,21,,train_dim1_1,17,30,,,,2,0,2,0,,,,,,,,,0,0,0,0,0,16,16,16,1,0,1,0,,,,,,,,,,,,,,,,,,,,,,,,,,,,,,,,,,,,,,,,,,,,,,,,,,,,,,,,,,,,,,,,30,,,,,,,,539.9188641000001,539.9188641000001,539.9188641000001,539.9188641000001,539.9188641000001,left,0.42621389999931125,7,0,0,99,0.24,-0.08,left,0.34314069999982166,,,,,,,,,,,,,,,,,,,,,,,,,,,,,,,,,,,,,,,,,,,,,,,,,,,,,,,,,,,,0U0YR0,train_x,blue_star,bottom_right,2025-05-30_10h32.45.557,HideSeek_v1,2022.2.5,59.96217585951151,
,7,4,3,4,-4,0,21,,train_dim1_1,17,30,,,,2,0,2,0,,,,,,,,,0,0,0,0,0,16,16,16,2,0,2,0,,,,,,,,,,,,,,,,,,,,,,,,,,,,,,,,,,,,,,,,,,,,,,,,,,,,,,,,,,,,,,,,30,,,,,,,,540.3516479999998,540.3516479999998,540.3516479999998,540.3516479999998,540.3516479999998,left,0.5100924999997005,7,0,0,99,0.15999999999999998,-0.08,left,0.4177820000004431,,,,,,,,,,,,,,,,,,,,,,,,,,,,,,,,,,,,,,,,,,,,,,,,,,,,,,,,,,,,0U0YR0,train_x,blue_star,bottom_right,2025-05-30_10h32.45.557,HideSeek_v1,2022.2.5,59.96217585951151,
,7,4,3,4,-4,0,21,,train_dim1_1,17,30,,,,2,0,2,0,,,,,,,,,0,0,0,0,0,16,16,16,3,0,3,0,,,,,,,,,,,,,,,,,,,,,,,,,,,,,,,,,,,,,,,,,,,,,,,,,,,,,,,,,,,,,,,,30,,,,,,,,540.8683653999997,540.8683653999997,540.8683653999997,540.8683653999997,540.8683653999997,return,2.8788294000005408,7,1,0,0,0.15999999999999998,-0.08,return,2.800186299999041,0,-44,0.15999999999999998,-0.08,,,,,,,,,,,,,,,,,,,,,,,,,,,,,,,,,,,,,,,,,,,,,,,,,,,,,,,,0U0YR0,train_x,blue_star,bottom_right,2025-05-30_10h32.45.557,HideSeek_v1,2022.2.5,59.96217585951151,
,7,1,7,1,0,0,61,,train_dim1_1,18,30,,,,2,0,2,0,,,,,,,,,0,0,0,0,0,17,17,17,0,0,0,0,,,,,,,,,,,,,,,,,,,,,,,,,stimuli/alien_stimuli/61.png,,,,,,,,,,,,,,,,,,,,,,,,,,,,,stimuli/alien_stimuli/21.png,21,7,19,,,,,,,30,,,,,,,,548.8535332000001,548.8535332000001,548.8535332000001,548.8535332000001,548.8535332000001,right,2.454651300000478,7,1,0,99,0.48000000000000004,-0.32,right,2.344919299999674,,,,,547.2729909999998,548.8535332000001,0.08,-0.08,0.0,0.32,-0.08,0.08,0.24000000000000002,0.08,-0.08,545.3156663,545.3156663,545.3156663,545.3156663,545.3156663,545.3156663,545.3156663,545.3156663,545.3047395599997,2.0706976999999824,return,1.9298990999996022,,,,,,,,,,,,,,,,,,,,,,,,,,,,,,,,,0U0YR0,train_x,blue_star,bottom_right,2025-05-30_10h32.45.557,HideSeek_v1,2022.2.5,59.96217585951151,
,7,1,7,1,0,0,61,,train_dim1_1,18,30,,,,2,0,2,0,,,,,,,,,0,0,0,0,0,17,17,17,1,0,1,0,,,,,,,,,,,,,,,,,,,,,,,,,,,,,,,,,,,,,,,,,,,,,,,,,,,,,,,,,,,,,,,,30,,,,,,,,551.2916464999998,551.2916464999998,551.2916464999998,551.2916464999998,551.2916464999998,left,1.009947600000487,7,1,0,99,0.4,-0.32,left,0.9340780000002269,,,,,,,,,,,,,,,,,,,,,,,,,,,,,,,,,,,,,,,,,,,,,,,,,,,,,,,,,,,,0U0YR0,train_x,blue_star,bottom_right,2025-05-30_10h32.45.557,HideSeek_v1,2022.2.5,59.96217585951151,
,7,1,7,1,0,0,61,,train_dim1_1,18,30,,,,2,0,2,0,,,,,,,,,0,0,0,0,0,17,17,17,2,0,2,0,,,,,,,,,,,,,,,,,,,,,,,,,,,,,,,,,,,,,,,,,,,,,,,,,,,,,,,,,,,,,,,,30,,,,,,,,552.3067845999994,552.3067845999994,552.3067845999994,552.3067845999994,552.3067845999994,return,1.210721100000228,8,0,0,1,0.4,-0.32,return,1.1316154999994978,0,-44,0.4,-0.32,,,,,,,,,,,,,,,,,,,,,,,,,,,,,,,,,,,,,,,,,,,,,,,,,,,,,,,,0U0YR0,train_x,blue_star,bottom_right,2025-05-30_10h32.45.557,HideSeek_v1,2022.2.5,59.96217585951151,
,5,3,2,3,-3,0,31,,train_dim1_1,19,30,,,,2,0,2,0,,,,,,,,,0,0,0,0,0,18,18,18,0,0,0,0,,,,,,,,,,,,,,,,,,,,,,,,,stimuli/alien_stimuli/31.png,,,,,,,,,,,,,,,,,,,,,,,,,,,,,stimuli/alien_stimuli/61.png,61,7,20,,,,,,,30,,,,,,,,557.9412941,557.9412941,557.9412941,557.9412941,557.9412941,left,1.355669399999897,8,0,0,99,0.15999999999999998,-0.16,left,1.2548829999996087,,,,,556.3638113999996,557.9412941,0.4,-0.32,0.0,0.0,-0.32,0.4,0.4,0.4,-0.32,555.0817919000001,555.0817919000001,555.0817919000001,555.0817919000001,555.0817919000001,555.0817919000001,555.0817919000001,555.0817919000001,555.0629355800002,1.3865568999999596,return,1.258481899999424,,,,,,,,,,,,,,,,,,,,,,,,,,,,,,,,,0U0YR0,train_x,blue_star,bottom_right,2025-05-30_10h32.45.557,HideSeek_v1,2022.2.5,59.96217585951151,
,5,3,2,3,-3,0,31,,train_dim1_1,19,30,,,,2,0,2,0,,,,,,,,,0,0,0,0,0,18,18,18,1,0,1,0,,,,,,,,,,,,,,,,,,,,,,,,,,,,,,,,,,,,,,,,,,,,,,,,,,,,,,,,,,,,,,,,30,,,,,,,,559.2797129999999,559.2797129999999,559.2797129999999,559.2797129999999,559.2797129999999,left,0.4424788999995144,8,0,0,99,0.07999999999999997,-0.16,left,0.3675124000001233,,,,,,,,,,,,,,,,,,,,,,,,,,,,,,,,,,,,,,,,,,,,,,,,,,,,,,,,,,,,0U0YR0,train_x,blue_star,bottom_right,2025-05-30_10h32.45.557,HideSeek_v1,2022.2.5,59.96217585951151,
,5,3,2,3,-3,0,31,,train_dim1_1,19,30,,,,2,0,2,0,,,,,,,,,0,0,0,0,0,18,18,18,2,0,2,0,,,,,,,,,,,,,,,,,,,,,,,,,,,,,,,,,,,,,,,,,,,,,,,,,,,,,,,,,,,,,,,,30,,,,,,,,559.7329283999998,559.7329283999998,559.7329283999998,559.7329283999998,559.7329283999998,left,0.543721000000005,8,0,0,99,-2.7755575615628914e-17,-0.16,left,0.46365269999932934,,,,,,,,,,,,,,,,,,,,,,,,,,,,,,,,,,,,,,,,,,,,,,,,,,,,,,,,,,,,0U0YR0,train_x,blue_star,bottom_right,2025-05-30_10h32.45.557,HideSeek_v1,2022.2.5,59.96217585951151,
,5,3,2,3,-3,0,31,,train_dim1_1,19,30,,,,2,0,2,0,,,,,,,,,0,0,0,0,0,18,18,18,3,0,3,0,,,,,,,,,,,,,,,,,,,,,,,,,,,,,,,,,,,,,,,,,,,,,,,,,,,,,,,,,,,,,,,,30,,,,,,,,560.2833171000002,560.2833171000002,560.2833171000002,560.2833171000002,560.2833171000002,return,0.4599901999999929,9,0,0,1,-2.7755575615628914e-17,-0.16,return,0.3742609999999331,0,-47,-2.7755575615628914e-17,-0.16,,,,,,,,,,,,,,,,,,,,,,,,,,,,,,,,,,,,,,,,,,,,,,,,,,,,,,,,0U0YR0,train_x,blue_star,bottom_right,2025-05-30_10h32.45.557,HideSeek_v1,2022.2.5,59.96217585951151,
,5,1,0,1,-5,0,11,,train_dim1_1,20,30,,,,2,0,2,0,,,,,,,,,0,0,0,0,0,19,19,19,0,0,0,0,,,,,,,,,,,,,,,,,,,,,,,,,stimuli/alien_stimuli/11.png,,,,,,,,,,,,,,,,,,,,,,,,,,,,,stimuli/alien_stimuli/31.png,31,5,21,,,,,,,30,,,,,,,,565.2484636999998,565.2484636999998,565.2484636999998,565.2484636999998,565.2484636999998,left,0.9061403999994582,9,0,0,99,0.15999999999999998,-0.32,left,0.8214874000004784,,,,,563.6867006000002,565.2484636999998,0,-0.16,0.0,0.24,-0.16,0,0.12,0,-0.16,562.3048681,562.3048681,562.3048681,562.3048681,562.3048681,562.3048681,562.3048681,562.3048681,562.2856105800001,1.4869635000004564,return,1.361539200000152,,,,,,,,,,,,,,,,,,,,,,,,,,,,,,,,,0U0YR0,train_x,blue_star,bottom_right,2025-05-30_10h32.45.557,HideSeek_v1,2022.2.5,59.96217585951151,
,5,1,0,1,-5,0,11,,train_dim1_1,20,30,,,,2,0,2,0,,,,,,,,,0,0,0,0,0,19,19,19,1,0,1,0,,,,,,,,,,,,,,,,,,,,,,,,,,,,,,,,,,,,,,,,,,,,,,,,,,,,,,,,,,,,,,,,30,,,,,,,,566.1589805000003,566.1589805000003,566.1589805000003,566.1589805000003,566.1589805000003,left,0.40989410000020143,9,0,0,99,0.07999999999999997,-0.32,left,0.32737899999938236,,,,,,,,,,,,,,,,,,,,,,,,,,,,,,,,,,,,,,,,,,,,,,,,,,,,,,,,,,,,0U0YR0,train_x,blue_star,bottom_right,2025-05-30_10h32.45.557,HideSeek_v1,2022.2.5,59.96217585951151,
,5,1,0,1,-5,0,11,,train_dim1_1,20,30,,,,2,0,2,0,,,,,,,,,0,0,0,0,0,19,19,19,2,0,2,0,,,,,,,,,,,,,,,,,,,,,,,,,,,,,,,,,,,,,,,,,,,,,,,,,,,,,,,,,,,,,,,,30,,,,,,,,566.5734376,566.5734376,566.5734376,566.5734376,566.5734376,left,0.4767299999994066,9,0,0,99,-2.7755575615628914e-17,-0.32,left,0.3871734000003926,,,,,,,,,,,,,,,,,,,,,,,,,,,,,,,,,,,,,,,,,,,,,,,,,,,,,,,,,,,,0U0YR0,train_x,blue_star,bottom_right,2025-05-30_10h32.45.557,HideSeek_v1,2022.2.5,59.96217585951151,
,5,1,0,1,-5,0,11,,train_dim1_1,20,30,,,,2,0,2,0,,,,,,,,,0,0,0,0,0,19,19,19,3,0,3,0,,,,,,,,,,,,,,,,,,,,,,,,,,,,,,,,,,,,,,,,,,,,,,,,,,,,,,,,,,,,,,,,30,,,,,,,,567.0562608999999,567.0562608999999,567.0562608999999,567.0562608999999,567.0562608999999,left,0.5268358000002991,9,0,0,99,-0.08000000000000003,-0.32,left,0.43920189999971626,,,,,,,,,,,,,,,,,,,,,,,,,,,,,,,,,,,,,,,,,,,,,,,,,,,,,,,,,,,,0U0YR0,train_x,blue_star,bottom_right,2025-05-30_10h32.45.557,HideSeek_v1,2022.2.5,59.96217585951151,
,5,1,0,1,-5,0,11,,train_dim1_1,20,30,,,,2,0,2,0,,,,,,,,,0,0,0,0,0,19,19,19,4,0,4,0,,,,,,,,,,,,,,,,,,,,,,,,,,,,,,,,,,,,,,,,,,,,,,,,,,,,,,,,,,,,,,,,30,,,,,,,,567.5918028999995,567.5918028999995,567.5918028999995,567.5918028999995,567.5918028999995,return,0.3922771000006833,9,1,0,0,-0.08000000000000003,-0.32,return,0.31490449999910197,0,-51,-0.08000000000000003,-0.32,,,,,,,,,,,,,,,,,,,,,,,,,,,,,,,,,,,,,,,,,,,,,,,,,,,,,,,,0U0YR0,train_x,blue_star,bottom_right,2025-05-30_10h32.45.557,HideSeek_v1,2022.2.5,59.96217585951151,
,9,2,6,2,-3,0,31,,train_dim1_1,21,30,,,,2,0,2,0,,,,,,,,,0,0,0,0,0,20,20,20,0,0,0,0,,,,,,,,,,,,,,,,,,,,,,,,,stimuli/alien_stimuli/31.png,,,,,,,,,,,,,,,,,,,,,,,,,,,,,stimuli/alien_stimuli/11.png,11,5,22,,,,,,,30,,,,,,,,572.6688480000003,572.6688480000003,572.6688480000003,572.6688480000003,572.6688480000003,left,1.3375800999992862,9,1,0,99,0.48000000000000004,-0.24,left,1.232556699998895,,,,,571.0928047999996,572.6688480000003,-0.16,-0.32,0.0,0.4,-0.32,-0.16,0.039999999999999994,-0.16,-0.32,569.5492938999996,569.5492938999996,569.5492938999996,569.5492938999996,569.5492938999996,569.5492938999996,569.5492938999996,569.5492938999996,569.5417509600002,1.6532807999992656,return,1.5225504,,,,,,,,,,,,,,,,,,,,,,,,,,,,,,,,,0U0YR0,train_x,blue_star,bottom_right,2025-05-30_10h32.45.557,HideSeek_v1,2022.2.5,59.96217585951151,
,9,2,6,2,-3,0,31,,train_dim1_1,21,30,,,,2,0,2,0,,,,,,,,,0,0,0,0,0,20,20,20,1,0,1,0,,,,,,,,,,,,,,,,,,,,,,,,,,,,,,,,,,,,,,,,,,,,,,,,,,,,,,,,,,,,,,,,30,,,,,,,,573.9926624,573.9926624,573.9926624,573.9926624,573.9926624,left,0.37603479999961564,9,1,0,99,0.4,-0.24,left,0.29548459999932675,,,,,,,,,,,,,,,,,,,,,,,,,,,,,,,,,,,,,,,,,,,,,,,,,,,,,,,,,,,,0U0YR0,train_x,blue_star,bottom_right,2025-05-30_10h32.45.557,HideSeek_v1,2022.2.5,59.96217585951151,
,9,2,6,2,-3,0,31,,train_dim1_1,21,30,,,,2,0,2,0,,,,,,,,,0,0,0,0,0,20,20,20,2,0,2,0,,,,,,,,,,,,,,,,,,,,,,,,,,,,,,,,,,,,,,,,,,,,,,,,,,,,,,,,,,,,,,,,30,,,,,,,,574.3750367000002,574.3750367000002,574.3750367000002,574.3750367000002,574.3750367000002,left,0.4268164999994042,9,1,0,99,0.32,-0.24,left,0.34961609999936627,,,,,,,,,,,,,,,,,,,,,,,,,,,,,,,,,,,,,,,,,,,,,,,,,,,,,,,,,,,,0U0YR0,train_x,blue_star,bottom_right,2025-05-30_10h32.45.557,HideSeek_v1,2022.2.5,59.96217585951151,
,9,2,6,2,-3,0,31,,train_dim1_1,21,30,,,,2,0,2,0,,,,,,,,,0,0,0,0,0,20,20,20,3,0,3,0,,,,,,,,,,,,,,,,,,,,,,,,,,,,,,,,,,,,,,,,,,,,,,,,,,,,,,,,,,,,,,,,30,,,,,,,,574.8088998000003,574.8088998000003,574.8088998000003,574.8088998000003,574.8088998000003,left,0.6102660000005926,9,1,0,99,0.24,-0.24,left,0.5275211999996827,,,,,,,,,,,,,,,,,,,,,,,,,,,,,,,,,,,,,,,,,,,,,,,,,,,,,,,,,,,,0U0YR0,train_x,blue_star,bottom_right,2025-05-30_10h32.45.557,HideSeek_v1,2022.2.5,59.96217585951151,
,9,2,6,2,-3,0,31,,train_dim1_1,21,30,,,,2,0,2,0,,,,,,,,,0,0,0,0,0,20,20,20,4,0,4,0,,,,,,,,,,,,,,,,,,,,,,,,,,,,,,,,,,,,,,,,,,,,,,,,,,,,,,,,,,,,,,,,30,,,,,,,,575.4264205,575.4264205,575.4264205,575.4264205,575.4264205,return,0.35994529999970837,9,1,0,0,0.24,-0.24,return,0.2802713999990374,0,-55,0.24,-0.24,,,,,,,,,,,,,,,,,,,,,,,,,,,,,,,,,,,,,,,,,,,,,,,,,,,,,,,,0U0YR0,train_x,blue_star,bottom_right,2025-05-30_10h32.45.557,HideSeek_v1,2022.2.5,59.96217585951151,
,6,0,2,0,-4,0,21,,train_dim1_1,22,30,,,,2,0,2,0,,,,,,,,,0,0,0,0,0,21,21,21,0,0,0,0,,,,,,,,,,,,,,,,,,,,,,,,,stimuli/alien_stimuli/21.png,,,,,,,,,,,,,,,,,,,,,,,,,,,,,stimuli/alien_stimuli/31.png,31,9,23,,,,,,,30,,,,,,,,581.5186247000001,581.5186247000001,581.5186247000001,581.5186247000001,581.5186247000001,left,1.6506647999995039,9,1,0,99,0.24,-0.4,left,1.543172599999707,,,,,579.9333142999994,581.5186247000001,0.32,-0.24,0.0,0.24,-0.24,0.32,0.44000000000000006,0.32,-0.24,577.3503510999999,577.3503510999999,577.3503510999999,577.3503510999999,577.3503510999999,577.3503510999999,577.3503510999999,577.3503510999999,577.3314624799996,2.687567100000706,return,2.555390200000147,,,,,,,,,,,,,,,,,,,,,,,,,,,,,,,,,0U0YR0,train_x,blue_star,bottom_right,2025-05-30_10h32.45.557,HideSeek_v1,2022.2.5,59.96217585951151,
,6,0,2,0,-4,0,21,,train_dim1_1,22,30,,,,2,0,2,0,,,,,,,,,0,0,0,0,0,21,21,21,1,0,1,0,,,,,,,,,,,,,,,,,,,,,,,,,,,,,,,,,,,,,,,,,,,,,,,,,,,,,,,,,,,,,,,,30,,,,,,,,583.1543799000001,583.1543799000001,583.1543799000001,583.1543799000001,583.1543799000001,left,0.6763185999998313,9,1,0,99,0.15999999999999998,-0.4,left,0.5868237999993653,,,,,,,,,,,,,,,,,,,,,,,,,,,,,,,,,,,,,,,,,,,,,,,,,,,,,,,,,,,,0U0YR0,train_x,blue_star,bottom_right,2025-05-30_10h32.45.557,HideSeek_v1,2022.2.5,59.96217585951151,
,6,0,2,0,-4,0,21,,train_dim1_1,22,30,,,,2,0,2,0,,,,,,,,,0,0,0,0,0,21,21,21,2,0,2,0,,,,,,,,,,,,,,,,,,,,,,,,,,,,,,,,,,,,,,,,,,,,,,,,,,,,,,,,,,,,,,,,30,,,,,,,,583.8369419999999,583.8369419999999,583.8369419999999,583.8369419999999,583.8369419999999,left,0.4933320999998614,9,1,0,99,0.07999999999999997,-0.4,left,0.40683420000004844,,,,,,,,,,,,,,,,,,,,,,,,,,,,,,,,,,,,,,,,,,,,,,,,,,,,,,,,,,,,0U0YR0,train_x,blue_star,bottom_right,2025-05-30_10h32.45.557,HideSeek_v1,2022.2.5,59.96217585951151,
,6,0,2,0,-4,0,21,,train_dim1_1,22,30,,,,2,0,2,0,,,,,,,,,0,0,0,0,0,21,21,21,3,0,3,0,,,,,,,,,,,,,,,,,,,,,,,,,,,,,,,,,,,,,,,,,,,,,,,,,,,,,,,,,,,,,,,,30,,,,,,,,584.3367530999994,584.3367530999994,584.3367530999994,584.3367530999994,584.3367530999994,left,0.7602743999996164,9,1,0,99,-2.7755575615628914e-17,-0.4,left,0.6766910999995162,,,,,,,,,,,,,,,,,,,,,,,,,,,,,,,,,,,,,,,,,,,,,,,,,,,,,,,,,,,,0U0YR0,train_x,blue_star,bottom_right,2025-05-30_10h32.45.557,HideSeek_v1,2022.2.5,59.96217585951151,
,6,0,2,0,-4,0,21,,train_dim1_1,22,30,,,,2,0,2,0,,,,,,,,,0,0,0,0,0,21,21,21,4,0,4,0,,,,,,,,,,,,,,,,,,,,,,,,,,,,,,,,,,,,,,,,,,,,,,,,,,,,,,,,,,,,,,,,30,,,,,,,,585.1053168999997,585.1053168999997,585.1053168999997,585.1053168999997,585.1053168999997,return,0.6102470000005269,10,0,0,1,-2.7755575615628914e-17,-0.4,return,0.5219922999995106,0,-59,-2.7755575615628914e-17,-0.4,,,,,,,,,,,,,,,,,,,,,,,,,,,,,,,,,,,,,,,,,,,,,,,,,,,,,,,,0U0YR0,train_x,blue_star,bottom_right,2025-05-30_10h32.45.557,HideSeek_v1,2022.2.5,59.96217585951151,
,7,1,7,1,0,0,61,,train_dim1_1,23,30,,,,2,0,2,0,,,,,,,,,0,0,0,0,0,22,22,22,0,0,0,0,,,,,,,,,,,,,,,,,,,,,,,,,stimuli/alien_stimuli/61.png,,,,,,,,,,,,,,,,,,,,,,,,,,,,,stimuli/alien_stimuli/21.png,21,6,24,,,,,,,30,,,,,,,,590.0330991999999,590.0330991999999,590.0330991999999,590.0330991999999,590.0330991999999,right,1.3892679000000498,10,0,0,99,0.48000000000000004,-0.32,right,1.2851091999991695,,,,,588.4568522,590.0330991999999,0,-0.4,0.0,0.32,-0.4,0,0.16,0,-0.4,587.2825170999995,587.2825170999995,587.2825170999995,587.2825170999995,587.2825170999995,587.2825170999995,587.2825170999995,587.2825170999995,587.2734404599996,1.2858205000002272,return,1.1424318999997922,,,,,,,,,,,,,,,,,,,,,,,,,,,,,,,,,0U0YR0,train_x,blue_star,bottom_right,2025-05-30_10h32.45.557,HideSeek_v1,2022.2.5,59.96217585951151,
,7,1,7,1,0,0,61,,train_dim1_1,23,30,,,,2,0,2,0,,,,,,,,,0,0,0,0,0,22,22,22,1,0,1,0,,,,,,,,,,,,,,,,,,,,,,,,,,,,,,,,,,,,,,,,,,,,,,,,,,,,,,,,,,,,,,,,30,,,,,,,,591.4085497999995,591.4085497999995,591.4085497999995,591.4085497999995,591.4085497999995,left,0.442969699999594,10,0,0,99,0.4,-0.32,left,0.36572349999914877,,,,,,,,,,,,,,,,,,,,,,,,,,,,,,,,,,,,,,,,,,,,,,,,,,,,,,,,,,,,0U0YR0,train_x,blue_star,bottom_right,2025-05-30_10h32.45.557,HideSeek_v1,2022.2.5,59.96217585951151,
,7,1,7,1,0,0,61,,train_dim1_1,23,30,,,,2,0,2,0,,,,,,,,,0,0,0,0,0,22,22,22,2,0,2,0,,,,,,,,,,,,,,,,,,,,,,,,,,,,,,,,,,,,,,,,,,,,,,,,,,,,,,,,,,,,,,,,30,,,,,,,,591.8572152999996,591.8572152999996,591.8572152999996,591.8572152999996,591.8572152999996,return,0.5768299999999726,11,0,0,1,0.4,-0.32,return,0.4907506999998077,0,-59,0.4,-0.32,,,,,,,,,,,,,,,,,,,,,,,,,,,,,,,,,,,,,,,,,,,,,,,,,,,,,,,,0U0YR0,train_x,blue_star,bottom_right,2025-05-30_10h32.45.557,HideSeek_v1,2022.2.5,59.96217585951151,
,9,4,8,4,-1,0,51,,train_dim1_1,24,30,,,,2,0,2,0,,,,,,,,,0,0,0,0,0,23,23,23,0,0,0,0,,,,,,,,,,,,,,,,,,,,,,,,,stimuli/alien_stimuli/51.png,,,,,,,,,,,,,,,,,,,,,,,,,,,,,stimuli/alien_stimuli/61.png,61,7,25,,,,,,,30,,,,,,,,597.2134645999995,597.2134645999995,597.2134645999995,597.2134645999995,597.2134645999995,left,1.0350797000000966,11,0,0,99,0.48000000000000004,-0.08,left,0.9517636000000493,,,,,595.6464006999995,597.2134645999995,0.4,-0.32,0.0,0.0,-0.32,0.4,0.4,0.4,-0.32,593.9985692,593.9985692,593.9985692,593.9985692,593.9985692,593.9985692,593.9985692,593.9985692,593.9785691799998,1.7534878999995271,return,1.629743999999846,,,,,,,,,,,,,,,,,,,,,,,,,,,,,,,,,0U0YR0,train_x,blue_star,bottom_right,2025-05-30_10h32.45.557,HideSeek_v1,2022.2.5,59.96217585951151,
,9,4,8,4,-1,0,51,,train_dim1_1,24,30,,,,2,0,2,0,,,,,,,,,0,0,0,0,0,23,23,23,1,0,1,0,,,,,,,,,,,,,,,,,,,,,,,,,,,,,,,,,,,,,,,,,,,,,,,,,,,,,,,,,,,,,,,,30,,,,,,,,598.2485243000001,598.2485243000001,598.2485243000001,598.2485243000001,598.2485243000001,return,0.5260288999998011,12,0,0,1,0.48000000000000004,-0.08,return,0.4435892999999851,0,-60,0.48000000000000004,-0.08,,,,,,,,,,,,,,,,,,,,,,,,,,,,,,,,,,,,,,,,,,,,,,,,,,,,,,,,0U0YR0,train_x,blue_star,bottom_right,2025-05-30_10h32.45.557,HideSeek_v1,2022.2.5,59.96217585951151,
,8,0,3,0,-5,0,11,,train_dim1_1,25,30,,,,2,0,2,0,,,,,,,,,0,0,0,0,0,24,24,24,0,0,0,0,,,,,,,,,,,,,,,,,,,,,,,,,stimuli/alien_stimuli/11.png,,,,,,,,,,,,,,,,,,,,,,,,,,,,,stimuli/alien_stimuli/51.png,51,9,26,,,,,,,30,,,,,,,,602.9817198000001,602.9817198000001,602.9817198000001,602.9817198000001,602.9817198000001,left,1.0210047000000486,12,0,0,99,0.39999999999999997,-0.4,left,0.931786999999531,,,,,601.4177274000003,602.9817198000001,0.48,-0.08,0.0,0.08,-0.08,0.48,0.52,0.48,-0.08,600.3402496999997,600.3402496999997,600.3402496999997,600.3402496999997,600.3402496999997,600.3402496999997,600.3402496999997,600.3402496999997,600.3171528799994,1.1866458999993483,return,1.0563025999999809,,,,,,,,,,,,,,,,,,,,,,,,,,,,,,,,,0U0YR0,train_x,blue_star,bottom_right,2025-05-30_10h32.45.557,HideSeek_v1,2022.2.5,59.96217585951151,
,8,0,3,0,-5,0,11,,train_dim1_1,25,30,,,,2,0,2,0,,,,,,,,,0,0,0,0,0,24,24,24,1,0,1,0,,,,,,,,,,,,,,,,,,,,,,,,,,,,,,,,,,,,,,,,,,,,,,,,,,,,,,,,,,,,,,,,30,,,,,,,,604.0045506999995,604.0045506999995,604.0045506999995,604.0045506999995,604.0045506999995,left,0.509700000000521,12,0,0,99,0.31999999999999995,-0.4,left,0.432343899999978,,,,,,,,,,,,,,,,,,,,,,,,,,,,,,,,,,,,,,,,,,,,,,,,,,,,,,,,,,,,0U0YR0,train_x,blue_star,bottom_right,2025-05-30_10h32.45.557,HideSeek_v1,2022.2.5,59.96217585951151,
,8,0,3,0,-5,0,11,,train_dim1_1,25,30,,,,2,0,2,0,,,,,,,,,0,0,0,0,0,24,24,24,2,0,2,0,,,,,,,,,,,,,,,,,,,,,,,,,,,,,,,,,,,,,,,,,,,,,,,,,,,,,,,,,,,,,,,,30,,,,,,,,604.5201256999999,604.5201256999999,604.5201256999999,604.5201256999999,604.5201256999999,left,0.42682889999923646,12,0,0,99,0.23999999999999994,-0.4,left,0.3429274999998597,,,,,,,,,,,,,,,,,,,,,,,,,,,,,,,,,,,,,,,,,,,,,,,,,,,,,,,,,,,,0U0YR0,train_x,blue_star,bottom_right,2025-05-30_10h32.45.557,HideSeek_v1,2022.2.5,59.96217585951151,
,8,0,3,0,-5,0,11,,train_dim1_1,25,30,,,,2,0,2,0,,,,,,,,,0,0,0,0,0,24,24,24,3,0,3,0,,,,,,,,,,,,,,,,,,,,,,,,,,,,,,,,,,,,,,,,,,,,,,,,,,,,,,,,,,,,,,,,30,,,,,,,,604.9549543000003,604.9549543000003,604.9549543000003,604.9549543000003,604.9549543000003,left,1.0604617999997572,12,0,0,99,0.15999999999999992,-0.4,left,0.9831955999998172,,,,,,,,,,,,,,,,,,,,,,,,,,,,,,,,,,,,,,,,,,,,,,,,,,,,,,,,,,,,0U0YR0,train_x,blue_star,bottom_right,2025-05-30_10h32.45.557,HideSeek_v1,2022.2.5,59.96217585951151,
,8,0,3,0,-5,0,11,,train_dim1_1,25,30,,,,2,0,2,0,,,,,,,,,0,0,0,0,0,24,24,24,4,0,4,0,,,,,,,,,,,,,,,,,,,,,,,,,,,,,,,,,,,,,,,,,,,,,,,,,,,,,,,,,,,,,,,,30,,,,,,,,606.0214365000002,606.0214365000002,606.0214365000002,606.0214365000002,606.0214365000002,left,0.41029530000014347,12,0,0,99,0.07999999999999992,-0.4,left,0.32983409999997093,,,,,,,,,,,,,,,,,,,,,,,,,,,,,,,,,,,,,,,,,,,,,,,,,,,,,,,,,,,,0U0YR0,train_x,blue_star,bottom_right,2025-05-30_10h32.45.557,HideSeek_v1,2022.2.5,59.96217585951151,
,8,0,3,0,-5,0,11,,train_dim1_1,25,30,,,,2,0,2,0,,,,,,,,,0,0,0,0,0,24,24,24,5,0,5,0,,,,,,,,,,,,,,,,,,,,,,,,,,,,,,,,,,,,,,,,,,,,,,,,,,,,,,,,,,,,,,,,30,,,,,,,,606.4394643999995,606.4394643999995,606.4394643999995,606.4394643999995,606.4394643999995,return,0.36003419999997277,13,0,0,1,0.07999999999999992,-0.4,return,0.27998659999957454,0,-65,0.07999999999999992,-0.4,,,,,,,,,,,,,,,,,,,,,,,,,,,,,,,,,,,,,,,,,,,,,,,,,,,,,,,,0U0YR0,train_x,blue_star,bottom_right,2025-05-30_10h32.45.557,HideSeek_v1,2022.2.5,59.96217585951151,
,6,1,6,1,0,0,61,,train_dim1_1,26,30,,,,2,0,2,0,,,,,,,,,0,0,0,0,0,25,25,25,0,0,0,0,,,,,,,,,,,,,,,,,,,,,,,,,stimuli/alien_stimuli/61.png,,,,,,,,,,,,,,,,,,,,,,,,,,,,,stimuli/alien_stimuli/11.png,11,8,27,,,,,,,30,,,,,,,,610.9491755999998,610.9491755999998,610.9491755999998,610.9491755999998,610.9491755999998,right,2.0052121999997325,13,0,0,99,0.4,-0.32,right,1.9100177999998778,,,,,609.3745020999995,610.9491755999998,0.08,-0.4,0.0,0.4,-0.4,0.08,0.27999999999999997,0.08,-0.4,608.3650349999998,608.3650349999998,608.3650349999998,608.3650349999998,608.3650349999998,608.3650349999998,608.3650349999998,608.3650349999998,608.3570363600002,1.119826799999828,return,0.9869283999996696,,,,,,,,,,,,,,,,,,,,,,,,,,,,,,,,,0U0YR0,train_x,blue_star,bottom_right,2025-05-30_10h32.45.557,HideSeek_v1,2022.2.5,59.96217585951151,
,6,1,6,1,0,0,61,,train_dim1_1,26,30,,,,2,0,2,0,,,,,,,,,0,0,0,0,0,25,25,25,1,0,1,0,,,,,,,,,,,,,,,,,,,,,,,,,,,,,,,,,,,,,,,,,,,,,,,,,,,,,,,,,,,,,,,,30,,,,,,,,612.9404704999997,612.9404704999997,612.9404704999997,612.9404704999997,612.9404704999997,left,0.8602983000000677,13,0,0,99,0.32,-0.32,left,0.7866400000002614,,,,,,,,,,,,,,,,,,,,,,,,,,,,,,,,,,,,,,,,,,,,,,,,,,,,,,,,,,,,0U0YR0,train_x,blue_star,bottom_right,2025-05-30_10h32.45.557,HideSeek_v1,2022.2.5,59.96217585951151,
,6,1,6,1,0,0,61,,train_dim1_1,26,30,,,,2,0,2,0,,,,,,,,,0,0,0,0,0,25,25,25,2,0,2,0,,,,,,,,,,,,,,,,,,,,,,,,,,,,,,,,,,,,,,,,,,,,,,,,,,,,,,,,,,,,,,,,30,,,,,,,,613.8092134999997,613.8092134999997,613.8092134999997,613.8092134999997,613.8092134999997,return,1.0260159999997995,14,0,0,1,0.32,-0.32,return,0.9425529000000097,0,-65,0.32,-0.32,,,,,,,,,,,,,,,,,,,,,,,,,,,,,,,,,,,,,,,,,,,,,,,,,,,,,,,,0U0YR0,train_x,blue_star,bottom_right,2025-05-30_10h32.45.557,HideSeek_v1,2022.2.5,59.96217585951151,
,5,1,2,1,-3,0,31,,train_dim1_1,27,30,,,,2,0,2,0,,,,,,,,,0,0,0,0,0,26,26,26,0,0,0,0,,,,,,,,,,,,,,,,,,,,,,,,,stimuli/alien_stimuli/31.png,,,,,,,,,,,,,,,,,,,,,,,,,,,,,stimuli/alien_stimuli/61.png,61,6,28,,,,,,,30,,,,,,,,620.2738969000002,620.2738969000002,620.2738969000002,620.2738969000002,620.2738969000002,left,0.8550068999993528,14,0,0,99,0.15999999999999998,-0.32,left,0.7577444999997169,,,,,618.6989248999998,620.2738969000002,0.32,-0.32,0.0,0.0,-0.32,0.32,0.32,0.32,-0.32,616.4000700999995,616.4000700999995,616.4000700999995,616.4000700999995,616.4000700999995,616.4000700999995,616.4000700999995,616.4000700999995,616.3803923799996,2.404059999999845,return,2.2773182999999335,,,,,,,,,,,,,,,,,,,,,,,,,,,,,,,,,0U0YR0,train_x,blue_star,bottom_right,2025-05-30_10h32.45.557,HideSeek_v1,2022.2.5,59.96217585951151,
,5,1,2,1,-3,0,31,,train_dim1_1,27,30,,,,2,0,2,0,,,,,,,,,0,0,0,0,0,26,26,26,1,0,1,0,,,,,,,,,,,,,,,,,,,,,,,,,,,,,,,,,,,,,,,,,,,,,,,,,,,,,,,,,,,,,,,,30,,,,,,,,621.1150116999997,621.1150116999997,621.1150116999997,621.1150116999997,621.1150116999997,left,0.40957609999986744,14,0,0,99,0.07999999999999997,-0.32,left,0.3251885999998194,,,,,,,,,,,,,,,,,,,,,,,,,,,,,,,,,,,,,,,,,,,,,,,,,,,,,,,,,,,,0U0YR0,train_x,blue_star,bottom_right,2025-05-30_10h32.45.557,HideSeek_v1,2022.2.5,59.96217585951151,
,5,1,2,1,-3,0,31,,train_dim1_1,27,30,,,,2,0,2,0,,,,,,,,,0,0,0,0,0,26,26,26,2,0,2,0,,,,,,,,,,,,,,,,,,,,,,,,,,,,,,,,,,,,,,,,,,,,,,,,,,,,,,,,,,,,,,,,30,,,,,,,,621.5300607999998,621.5300607999998,621.5300607999998,621.5300607999998,621.5300607999998,left,0.44348809999974037,14,0,0,99,-2.7755575615628914e-17,-0.32,left,0.36411950000001525,,,,,,,,,,,,,,,,,,,,,,,,,,,,,,,,,,,,,,,,,,,,,,,,,,,,,,,,,,,,0U0YR0,train_x,blue_star,bottom_right,2025-05-30_10h32.45.557,HideSeek_v1,2022.2.5,59.96217585951151,
,5,1,2,1,-3,0,31,,train_dim1_1,27,30,,,,2,0,2,0,,,,,,,,,0,0,0,0,0,26,26,26,3,0,3,0,,,,,,,,,,,,,,,,,,,,,,,,,,,,,,,,,,,,,,,,,,,,,,,,,,,,,,,,,,,,,,,,30,,,,,,,,621.9817026999999,621.9817026999999,621.9817026999999,621.9817026999999,621.9817026999999,return,0.7105400000000373,15,0,0,1,-2.7755575615628914e-17,-0.32,return,0.6251084999994418,0,-68,-2.7755575615628914e-17,-0.32,,,,,,,,,,,,,,,,,,,,,,,,,,,,,,,,,,,,,,,,,,,,,,,,,,,,,,,,0U0YR0,train_x,blue_star,bottom_right,2025-05-30_10h32.45.557,HideSeek_v1,2022.2.5,59.96217585951151,
,8,1,4,1,-4,0,21,,train_dim1_1,28,30,,,,2,0,2,0,,,,,,,,,0,0,0,0,0,27,27,27,0,0,0,0,,,,,,,,,,,,,,,,,,,,,,,,,stimuli/alien_stimuli/21.png,,,,,,,,,,,,,,,,,,,,,,,,,,,,,stimuli/alien_stimuli/31.png,31,5,29,,,,,,,30,,,,,,,,626.6725999,626.6725999,626.6725999,626.6725999,626.6725999,left,1.1213923000004797,15,0,0,99,0.39999999999999997,-0.32,left,1.005129099999067,,,,,625.0877584,626.6725999,0,-0.32,0.0,0.24,-0.32,0,0.12,0,-0.32,624.2549367000001,624.2549367000001,624.2549367000001,624.2549367000001,624.2549367000001,624.2549367000001,624.2549367000001,624.2549367000001,624.2369721799996,0.9362811999999394,return,0.8147234999996726,,,,,,,,,,,,,,,,,,,,,,,,,,,,,,,,,0U0YR0,train_x,blue_star,bottom_right,2025-05-30_10h32.45.557,HideSeek_v1,2022.2.5,59.96217585951151,
,8,1,4,1,-4,0,21,,train_dim1_1,28,30,,,,2,0,2,0,,,,,,,,,0,0,0,0,0,27,27,27,1,0,1,0,,,,,,,,,,,,,,,,,,,,,,,,,,,,,,,,,,,,,,,,,,,,,,,,,,,,,,,,,,,,,,,,30,,,,,,,,627.7750951999997,627.7750951999997,627.7750951999997,627.7750951999997,627.7750951999997,left,0.6093974999994316,15,0,0,99,0.31999999999999995,-0.32,left,0.5226507999996102,,,,,,,,,,,,,,,,,,,,,,,,,,,,,,,,,,,,,,,,,,,,,,,,,,,,,,,,,,,,0U0YR0,train_x,blue_star,bottom_right,2025-05-30_10h32.45.557,HideSeek_v1,2022.2.5,59.96217585951151,
,8,1,4,1,-4,0,21,,train_dim1_1,28,30,,,,2,0,2,0,,,,,,,,,0,0,0,0,0,27,27,27,2,0,2,0,,,,,,,,,,,,,,,,,,,,,,,,,,,,,,,,,,,,,,,,,,,,,,,,,,,,,,,,,,,,,,,,30,,,,,,,,628.3906661000001,628.3906661000001,628.3906661000001,628.3906661000001,628.3906661000001,left,0.5935422000002291,15,0,0,99,0.23999999999999994,-0.32,left,0.5088615999993635,,,,,,,,,,,,,,,,,,,,,,,,,,,,,,,,,,,,,,,,,,,,,,,,,,,,,,,,,,,,0U0YR0,train_x,blue_star,bottom_right,2025-05-30_10h32.45.557,HideSeek_v1,2022.2.5,59.96217585951151,
,8,1,4,1,-4,0,21,,train_dim1_1,28,30,,,,2,0,2,0,,,,,,,,,0,0,0,0,0,27,27,27,3,0,3,0,,,,,,,,,,,,,,,,,,,,,,,,,,,,,,,,,,,,,,,,,,,,,,,,,,,,,,,,,,,,,,,,30,,,,,,,,628.9929329999995,628.9929329999995,628.9929329999995,628.9929329999995,628.9929329999995,left,1.2437107999994623,15,0,0,99,0.15999999999999992,-0.32,left,1.1653004999989207,,,,,,,,,,,,,,,,,,,,,,,,,,,,,,,,,,,,,,,,,,,,,,,,,,,,,,,,,,,,0U0YR0,train_x,blue_star,bottom_right,2025-05-30_10h32.45.557,HideSeek_v1,2022.2.5,59.96217585951151,
,8,1,4,1,-4,0,21,,train_dim1_1,28,30,,,,2,0,2,0,,,,,,,,,0,0,0,0,0,27,27,27,4,0,4,0,,,,,,,,,,,,,,,,,,,,,,,,,,,,,,,,,,,,,,,,,,,,,,,,,,,,,,,,,,,,,,,,30,,,,,,,,630.2424281000003,630.2424281000003,630.2424281000003,630.2424281000003,630.2424281000003,left,1.5942705999996178,15,0,0,99,0.07999999999999992,-0.32,left,1.5064802999995663,,,,,,,,,,,,,,,,,,,,,,,,,,,,,,,,,,,,,,,,,,,,,,,,,,,,,,,,,,,,0U0YR0,train_x,blue_star,bottom_right,2025-05-30_10h32.45.557,HideSeek_v1,2022.2.5,59.96217585951151,
,8,1,4,1,-4,0,21,,train_dim1_1,28,30,,,,2,0,2,0,,,,,,,,,0,0,0,0,0,27,27,27,5,0,5,0,,,,,,,,,,,,,,,,,,,,,,,,,,,,,,,,,,,,,,,,,,,,,,,,,,,,,,,,,,,,,,,,30,,,,,,,,631.8445150999996,631.8445150999996,631.8445150999996,631.8445150999996,631.8445150999996,return,0.34358720000000176,15,1,0,0,0.07999999999999992,-0.32,return,0.25107649999972637,0,-73,0.07999999999999992,-0.32,,,,,,,,,,,,,,,,,,,,,,,,,,,,,,,,,,,,,,,,,,,,,,,,,,,,,,,,0U0YR0,train_x,blue_star,bottom_right,2025-05-30_10h32.45.557,HideSeek_v1,2022.2.5,59.96217585951151,
,9,0,8,0,-1,0,51,,train_dim1_1,29,30,,,,2,0,2,0,,,,,,,,,0,0,0,0,0,28,28,28,0,0,0,0,,,,,,,,,,,,,,,,,,,,,,,,,stimuli/alien_stimuli/51.png,,,,,,,,,,,,,,,,,,,,,,,,,,,,,stimuli/alien_stimuli/21.png,21,8,30,,,,,,,30,,,,,,,,636.6537797000001,636.6537797000001,636.6537797000001,636.6537797000001,636.6537797000001,left,1.172229900000275,15,1,0,99,0.48000000000000004,-0.4,left,1.0731608000005508,,,,,635.0791760000002,636.6537797000001,0.16,-0.32,0.0,0.32,-0.32,0.16,0.32,0.16,-0.32,633.7568060000003,633.7568060000003,633.7568060000003,633.7568060000003,633.7568060000003,633.7568060000003,633.7568060000003,633.7568060000003,633.7447877599998,1.4366791000002195,return,1.2947635000000446,,,,,,,,,,,,,,,,,,,,,,,,,,,,,,,,,0U0YR0,train_x,blue_star,bottom_right,2025-05-30_10h32.45.557,HideSeek_v1,2022.2.5,59.96217585951151,
,9,0,8,0,-1,0,51,,train_dim1_1,29,30,,,,2,0,2,0,,,,,,,,,0,0,0,0,0,28,28,28,1,0,1,0,,,,,,,,,,,,,,,,,,,,,,,,,,,,,,,,,,,,,,,,,,,,,,,,,,,,,,,,,,,,,,,,30,,,,,,,,637.8141040999999,637.8141040999999,637.8141040999999,637.8141040999999,637.8141040999999,return,0.49307780000071944,16,0,0,1,0.48000000000000004,-0.4,return,0.40418809999937366,0,-74,0.48000000000000004,-0.4,,,,,,,,,,,,,,,,,,,,,,,,,,,,,,,,,,,,,,,,,,,,,,,,,,,,,,,,0U0YR0,train_x,blue_star,bottom_right,2025-05-30_10h32.45.557,HideSeek_v1,2022.2.5,59.96217585951151,
,7,2,2,2,-5,0,11,,train_dim1_1,30,30,,,,2,0,2,0,,,,,,,,,0,0,0,0,0,29,29,29,0,0,0,0,,,,,,,,,,,,,,,,,,,,,,,,,stimuli/alien_stimuli/11.png,,,,,,,,,,,,,,,,,,,,,,,,,,,,,stimuli/alien_stimuli/51.png,51,9,31,,,,,,,30,,,,,,,,642.2832607,642.2832607,642.2832607,642.2832607,642.2832607,left,0.8530657000001156,16,0,0,99,0.32,-0.24,left,0.7577236999995876,,,,,640.7171941999995,642.2832607,0.48,-0.4,0.0,0.08,-0.4,0.48,0.52,0.48,-0.4,639.8719547999999,639.8719547999999,639.8719547999999,639.8719547999999,639.8719547999999,639.8719547999999,639.8719547999999,639.8719547999999,639.8499404799995,0.9528932000002897,return,0.8228343999999197,,,,,,,,,,,,,,,,,,,,,,,,,,,,,,,,,0U0YR0,train_x,blue_star,bottom_right,2025-05-30_10h32.45.557,HideSeek_v1,2022.2.5,59.96217585951151,
,7,2,2,2,-5,0,11,,train_dim1_1,30,30,,,,2,0,2,0,,,,,,,,,0,0,0,0,0,29,29,29,1,0,1,0,,,,,,,,,,,,,,,,,,,,,,,,,,,,,,,,,,,,,,,,,,,,,,,,,,,,,,,,,,,,,,,,30,,,,,,,,643.1373760999995,643.1373760999995,643.1373760999995,643.1373760999995,643.1373760999995,left,0.4096518999995169,16,0,0,99,0.24,-0.24,left,0.320706199999222,,,,,,,,,,,,,,,,,,,,,,,,,,,,,,,,,,,,,,,,,,,,,,,,,,,,,,,,,,,,0U0YR0,train_x,blue_star,bottom_right,2025-05-30_10h32.45.557,HideSeek_v1,2022.2.5,59.96217585951151,
,7,2,2,2,-5,0,11,,train_dim1_1,30,30,,,,2,0,2,0,,,,,,,,,0,0,0,0,0,29,29,29,2,0,2,0,,,,,,,,,,,,,,,,,,,,,,,,,,,,,,,,,,,,,,,,,,,,,,,,,,,,,,,,,,,,,,,,30,,,,,,,,643.553594,643.553594,643.553594,643.553594,643.553594,left,0.5603434000004199,16,0,0,99,0.15999999999999998,-0.24,left,0.4785331999992195,,,,,,,,,,,,,,,,,,,,,,,,,,,,,,,,,,,,,,,,,,,,,,,,,,,,,,,,,,,,0U0YR0,train_x,blue_star,bottom_right,2025-05-30_10h32.45.557,HideSeek_v1,2022.2.5,59.96217585951151,
,7,2,2,2,-5,0,11,,train_dim1_1,30,30,,,,2,0,2,0,,,,,,,,,0,0,0,0,0,29,29,29,3,0,3,0,,,,,,,,,,,,,,,,,,,,,,,,,,,,,,,,,,,,,,,,,,,,,,,,,,,,,,,,,,,,,,,,30,,,,,,,,644.1201285999996,644.1201285999996,644.1201285999996,644.1201285999996,644.1201285999996,left,0.5934769000004962,16,0,0,99,0.07999999999999997,-0.24,left,0.5039200999999593,,,,,,,,,,,,,,,,,,,,,,,,,,,,,,,,,,,,,,,,,,,,,,,,,,,,,,,,,,,,0U0YR0,train_x,blue_star,bottom_right,2025-05-30_10h32.45.557,HideSeek_v1,2022.2.5,59.96217585951151,
,7,2,2,2,-5,0,11,,train_dim1_1,30,30,,,,2,0,2,0,,,,,,,,,0,0,0,0,0,29,29,29,4,0,4,0,,,,,,,,,,,,,,,,,,,,,,,,,,,,,,,,,,,,,,,,,,,,,,,,,,,,,,,,,,,,,,,,30,,,,,,,,644.7205972000002,644.7205972000002,644.7205972000002,644.7205972000002,644.7205972000002,return,0.9436732000003758,16,1,0,0,0.07999999999999997,-0.24,return,0.8654276999996,0,-78,0.07999999999999997,-0.24,,,,,,,,,,,,,,,,,,,,,,,,,,,,,,,,,,,,,,,,,,,,,,,,,,,,,,,,0U0YR0,train_x,blue_star,bottom_right,2025-05-30_10h32.45.557,HideSeek_v1,2022.2.5,59.96217585951151,
,,,,,,,,,,,30,,,,2,0,2,0,,,,,,,,,,,,,,,,,,,,,,,,,,,,,,,,,,,,,,,,,,,,,,,,,,,,,,,,,,,,,,,,,,,,,,,,,,stimuli/alien_stimuli/11.png,11,7,32,21,0.7,0.6666666666666667,1,1,1,30,0,conditions/schedules/train_x_first/blue_star_00/bottom_right/inputTrain_2.1.xlsx,99,1,2,1,0,,,,,,,,,,,0,,,,,,,,,649.6078213000001,651.1707375999995,0,-0.24,0.0,0.4,-0.24,0,0.2,0,-0.24,647.2296745000003,647.2296745000003,647.2296745000003,647.2296745000003,647.2296745000003,647.2296745000003,647.2296745000003,647.2296745000003,647.2226962599998,2.487641600000643,return,2.3527337999994415,0,0.9,0,1,16,,,,,,,,,,,,,,,,,,,,,,,,,,,,0U0YR0,train_x,blue_star,bottom_right,2025-05-30_10h32.45.557,HideSeek_v1,2022.2.5,59.96217585951151,
,,,,,,,,,,,,,,,3,0,3,0,0,0,0,0,,,,,,,,,,,,,,,,,,,,,,,,,,,,,,,conditions/schedules/train_x_first/blue_star_00/bottom_right/instructions/Slide17.png,conditions/schedules/train_x_first/blue_star_00/bottom_right/instructions/Audio17.wav,651.1707375999995,651.1590710199998,17,"[3.9804969000006167, 18.578716400000303, 16.412002400000347, 20.288804700000583, 4.641051100000368, 6.036132799999905, 6.654440199999954, 11.889977199999521, 5.671587300000283, 6.984255700000176, 9.470828299999994, 13.054527700000108, 18.0968541000002, 13.12866219999978, 30.844853200000216, 21.393149700000322, 64.7732786000006]","[0.014840900000308466, 18.57872370000041, 0.08856610000020737, 0.053901500000392844, 4.641058100000009, 0.00027290000070934184, 0.04710549999981595, 0.050384699999995064, 0.047018600000228616, 0.04642610000064451, 0.014360600000145496, 13.054534700000659, 0.03473329999997077, 13.128669300000183, 0.030654000000140513, 21.393156699999963, 64.77328580000085]",0,,,,,,,,,,,,,,,,,,,,,,,,,,,,,,,,,,,,,,,,,,,,,,,,,,,,,,,,,,,,,,,,,,,,,,,,,,,,,,,,,,,,,,,,,,,,,,,,,,,,,,,,,,,,,,,,,,,,,,,,,,,,0U0YR0,train_x,blue_star,bottom_right,2025-05-30_10h32.45.557,HideSeek_v1,2022.2.5,59.96217585951151,
,,,,,,,,,,,,,,,3,0,3,0,1,0,1,0,,,,,,,,,,,,,,,,,,,,,,,,,,,,,,,conditions/schedules/train_x_first/blue_star_00/bottom_right/instructions/Slide18.png,conditions/schedules/train_x_first/blue_star_00/bottom_right/instructions/Audio18.wav,716.0133125000002,716.0131043000001,18,"[3.9804969000006167, 18.578716400000303, 16.412002400000347, 20.288804700000583, 4.641051100000368, 6.036132799999905, 6.654440199999954, 11.889977199999521, 5.671587300000283, 6.984255700000176, 9.470828299999994, 13.054527700000108, 18.0968541000002, 13.12866219999978, 30.844853200000216, 21.393149700000322, 64.7732786000006, 6.718897000000652]","[0.014840900000308466, 18.57872370000041, 0.08856610000020737, 0.053901500000392844, 4.641058100000009, 0.00027290000070934184, 0.04710549999981595, 0.050384699999995064, 0.047018600000228616, 0.04642610000064451, 0.014360600000145496, 13.054534700000659, 0.03473329999997077, 13.128669300000183, 0.030654000000140513, 21.393156699999963, 0.00022179999996296829, 6.7189037000007374]",0,,,,,,,,,,,,,,,,,,,,,,,,,,,,,,,,,,,,,,,,,,,,,,,,,,,,,,,,,,,,,,,,,,,,,,,,,,,,,,,,,,,,,,,,,,,,,,,,,,,,,,,,,,,,,,,,,,,,,,,,,,,,0U0YR0,train_x,blue_star,bottom_right,2025-05-30_10h32.45.557,HideSeek_v1,2022.2.5,59.96217585951151,
,,,,,,,,,,,,,,,3,0,3,0,2,0,2,0,,,,,,,,,,,,,,,,,,,,,,,,,,,,,,,conditions/schedules/train_x_first/blue_star_00/bottom_right/instructions/Slide19.png,conditions/schedules/train_x_first/blue_star_00/bottom_right/instructions/Audio19.wav,722.7717875999997,722.7685489400001,19,"[3.9804969000006167, 18.578716400000303, 16.412002400000347, 20.288804700000583, 4.641051100000368, 6.036132799999905, 6.654440199999954, 11.889977199999521, 5.671587300000283, 6.984255700000176, 9.470828299999994, 13.054527700000108, 18.0968541000002, 13.12866219999978, 30.844853200000216, 21.393149700000322, 64.7732786000006, 6.718897000000652, 10.58623549999993]","[0.014840900000308466, 18.57872370000041, 0.08856610000020737, 0.053901500000392844, 4.641058100000009, 0.00027290000070934184, 0.04710549999981595, 0.050384699999995064, 0.047018600000228616, 0.04642610000064451, 0.014360600000145496, 13.054534700000659, 0.03473329999997077, 13.128669300000183, 0.030654000000140513, 21.393156699999963, 0.00022179999996296829, 0.01389629999994213, 10.586242399999719]",0,,,,,,,,,,,,,,,,,,,,,,,,,,,,,,,,,,,,,,,,,,,,,,,,,,,,,,,,,,,,,,,,,,,,,,,,,,,,,,,,,,,,,,,,,,,,,,,,,,,,,,,,,,,,,,,,,,,,,,,,,,,,0U0YR0,train_x,blue_star,bottom_right,2025-05-30_10h32.45.557,HideSeek_v1,2022.2.5,59.96217585951151,
,,,,,,,,,,,,,,,3,0,3,0,3,0,3,0,,,,,,,,,,,,,,,,,,,,,,,,,,,,,,,conditions/schedules/train_x_first/blue_star_00/bottom_right/instructions/Slide20.png,conditions/schedules/train_x_first/blue_star_00/bottom_right/instructions/Audio20.wav,733.4292156000001,733.4276425999997,20,"[3.9804969000006167, 18.578716400000303, 16.412002400000347, 20.288804700000583, 4.641051100000368, 6.036132799999905, 6.654440199999954, 11.889977199999521, 5.671587300000283, 6.984255700000176, 9.470828299999994, 13.054527700000108, 18.0968541000002, 13.12866219999978, 30.844853200000216, 21.393149700000322, 64.7732786000006, 6.718897000000652, 10.58623549999993, 14.774412999999186]","[0.014840900000308466, 18.57872370000041, 0.08856610000020737, 0.053901500000392844, 4.641058100000009, 0.00027290000070934184, 0.04710549999981595, 0.050384699999995064, 0.047018600000228616, 0.04642610000064451, 0.014360600000145496, 13.054534700000659, 0.03473329999997077, 13.128669300000183, 0.030654000000140513, 21.393156699999963, 0.00022179999996296829, 0.01389629999994213, 0.046796599999652244, 14.774419999999736]",0,,,,,,,,,,,,,,,,,,,,,,,,,,,,,,,,,,,,,,,,,,,,,,,,,,,,,,,,,,,,,,,,,,,,,,,,,,,,,,,,,,,,,,,,,,,,,,,,,,,,,,,,,,,,,,,,,,,,,,,,,,,,0U0YR0,train_x,blue_star,bottom_right,2025-05-30_10h32.45.557,HideSeek_v1,2022.2.5,59.96217585951151,
1,5,3,5,8,0,5,66,2,instr_dim1_2,,,,,,3,0,3,0,,,,,0,0,0,0,,,,,,,,,,,,,,,,,,,,,,,,,,,,,,,,,,,,,stimuli/alien_stimuli/66.png,conditions/schedules/train_x_first/blue_star_00/bottom_right/inputInstr_2.xlsx,stimuli/alien_stimuli/66.png,748.2999724000001,748.2999724000001,748.2999724000001,748.2999724000001,748.2898594799999,return,6.469484600000214,"[-0.16, -0.08, 0, 0.08, 0.16, 0.24, 0.32, 0.4, 0.48, 0.56]","[-0.4, -0.32, -0.24, -0.16, -0.08, 0, 0.08, 0.16, 0.24, 0.32]",8,3,5,5,0.4,0.0,754.9174358,754.9174358,754.9174358,754.9174358,754.9174358,754.9174358,754.9174358,754.9119116399997,6.139777499999582,return,5.999144700000215,stimuli/alien_stimuli/66.png,66,5,1,,,,,,,,,,,,,,,,,,,,,,,,,,,,,,,,,,,,,,,,,,,,,,,,,,,,,,,,,,,,,,,,,,,,,,,,,,,,,,,,,,,,,,,,,0U0YR0,train_x,blue_star,bottom_right,2025-05-30_10h32.45.557,HideSeek_v1,2022.2.5,59.96217585951151,
,,,,,,,,,,,30,,,,3,0,3,0,,,,,,,,,,,,,,,,,,,,,,,,,,,,,,,,,,,,,,,,,,,,,,,,,,,,,,,,,,,,,,,,,,,,,,,,,,,,,,21,0.7,0.6666666666666667,1,99,2,30,0,conditions/schedules/train_x_first/blue_star_00/bottom_right/inputTrain_2.1.xlsx,99,1,2,1,0,,,,,,,,,,,,,,,,,,,,,,,,,,,,,,,,,,,,,,,,,,,,,,,,,,,,,,,,,,,,,,,,,,,,,,,,,,,0U0YR0,train_x,blue_star,bottom_right,2025-05-30_10h32.45.557,HideSeek_v1,2022.2.5,59.96217585951151,
,,,,,,,,,,,,,,,4,0,4,0,0,0,0,0,,,,,,,,,,,,,,,,,,,,,,,,,,,,,,,conditions/schedules/train_x_first/blue_star_00/bottom_right/instructions/Slide21.png,conditions/schedules/train_x_first/blue_star_00/bottom_right/instructions/Audio21.wav,761.1021736000002,761.1004299799997,21,"[3.9804969000006167, 18.578716400000303, 16.412002400000347, 20.288804700000583, 4.641051100000368, 6.036132799999905, 6.654440199999954, 11.889977199999521, 5.671587300000283, 6.984255700000176, 9.470828299999994, 13.054527700000108, 18.0968541000002, 13.12866219999978, 30.844853200000216, 21.393149700000322, 64.7732786000006, 6.718897000000652, 10.58623549999993, 14.774412999999186, 16.709561399999984]","[0.014840900000308466, 18.57872370000041, 0.08856610000020737, 0.053901500000392844, 4.641058100000009, 0.00027290000070934184, 0.04710549999981595, 0.050384699999995064, 0.047018600000228616, 0.04642610000064451, 0.014360600000145496, 13.054534700000659, 0.03473329999997077, 13.128669300000183, 0.030654000000140513, 21.393156699999963, 0.00022179999996296829, 0.01389629999994213, 0.046796599999652244, 14.774419999999736, 16.70956810000007]",0,,,,,,,,,,,,,,,,,,,,,,,,,,,,,,,,,,,,,,,,,,,,,,,,,,,,,,,,,,,,,,,,,,,,,,,,,,,,,,,,,,,,,,,,,,,,,,,,,,,,,,,,,,,,,,,,,,,,,,,,,,,,0U0YR0,train_x,blue_star,bottom_right,2025-05-30_10h32.45.557,HideSeek_v1,2022.2.5,59.96217585951151,
2,7,3,7,3,0,0,61,2,instr_dim1_2,,,,,,4,0,4,0,,,,,0,0,0,0,,,,,,,,,,,,,,,,,,,,,,,,,,,,,,,,,,,,,stimuli/alien_stimuli/61.png,conditions/schedules/train_x_first/blue_star_00/bottom_right/inputInstr_2.xlsx,stimuli/alien_stimuli/61.png,777.9077508999999,777.9077508999999,777.9077508999999,777.9077508999999,777.8977456799994,return,6.466871299999184,"[-0.16, -0.08, 0, 0.08, 0.16, 0.24, 0.32, 0.4, 0.48, 0.56]","[-0.4, -0.32, -0.24, -0.16, -0.08, 0, 0.08, 0.16, 0.24, 0.32]",3,3,7,7,0.0,0.0,784.5281703,784.5281703,784.5281703,784.5281703,784.5281703,784.5281703,784.5281703,784.51981024,6.756473000000369,return,6.603640500000438,stimuli/alien_stimuli/61.png,61,7,2,,,,,,,,,,,,,,,,,,,,,,,,,,,,,,,,,,,,,,,,,,,,,,,,,,,,,,,,,,,,,,,,,,,,,,,,,,,,,,,,,,,,,,,,,0U0YR0,train_x,blue_star,bottom_right,2025-05-30_10h32.45.557,HideSeek_v1,2022.2.5,59.96217585951151,
,,,,,,,,,,,30,,,,4,0,4,0,,,,,,,,,,,,,,,,,,,,,,,,,,,,,,,,,,,,,,,,,,,,,,,,,,,,,,,,,,,,,,,,,,,,,,,,,,,,,,21,0.7,0.6666666666666667,1,99,2,30,0,conditions/schedules/train_x_first/blue_star_00/bottom_right/inputTrain_2.1.xlsx,99,1,2,1,0,,,,,,,,,,,,,,,,,,,,,,,,,,,,,,,,,,,,,,,,,,,,,,,,,,,,,,,,,,,,,,,,,,,,,,,,,,,0U0YR0,train_x,blue_star,bottom_right,2025-05-30_10h32.45.557,HideSeek_v1,2022.2.5,59.96217585951151,
