trialInstr,x_fixStart,y_fixStart,x_corrSteps,y_corrSteps,x_nrSteps,y_nrSteps,alienID,trialLength,version,trialTrain,praclen,testlen,trial_label,break_on_off,beforeExpLoop.thisRepN,beforeExpLoop.thisTrialN,beforeExpLoop.thisN,beforeExpLoop.thisIndex,mini_instr_trials.thisRepN,mini_instr_trials.thisTrialN,mini_instr_trials.thisN,mini_instr_trials.thisIndex,instrLoop.thisRepN,instrLoop.thisTrialN,instrLoop.thisN,instrLoop.thisIndex,repeat_prac.thisRepN,repeat_prac.thisTrialN,repeat_prac.thisN,repeat_prac.thisIndex,trainLoop.thisRepN,trainLoop.thisTrialN,trainLoop.thisN,trainLoop.thisIndex,moveLoop_train.thisRepN,moveLoop_train.thisTrialN,moveLoop_train.thisN,moveLoop_train.thisIndex,experiment.thisRepN,experiment.thisTrialN,experiment.thisN,experiment.thisIndex,moveLoop_test.thisRepN,moveLoop_test.thisTrialN,moveLoop_test.thisN,moveLoop_test.thisIndex,mini_instr2_trials.thisRepN,mini_instr2_trials.thisTrialN,mini_instr2_trials.thisN,mini_instr2_trials.thisIndex,start_all_time,url,slideStim,audioStim,slides.started,sounds.started,nextButton.numClicks,nextButton.timesOn,nextButton.timesOff,prev_but.numClicks,prev_but.timesOn,prev_but.timesOff,alienStim,instrFile,alienStim_instr,gridImage_instr.started,startPos_3.started,key_instr.started,alienImage_3.started,sounds_1.started,key_instr.keys,key_instr.rt,all_x,all_y,FBy_corrSteps,FBy_fixStart,FBx_corrSteps,FBx_fixStart,FBy_pathSize_check,FBx_pathSize_check,gridImage_9.started,alienImageFB_3.started,startPosFB_3.started,keyFB_3.started,pathLine_ydir_2.started,pathLine_xdir_2.started,alienFace_3.started,sounds_2.started,RTFB_instr,keyFB_3.keys,keyFB_3.rt,draw_alienStim,draw_alienID,test_x,nrepcount,perfthres,percthres,earlierperf,earlystop,nextPrac,fileidx,praclen,saveACC_train,pracFile,nextPrac_train,addNrep,fileidx_endr,repExp,showearly,gridImage_4.started,startPos.started,movePos.started,key_resp.started,alienImage.started,buttonPress_train,RTchoice_train,cumAcctrain,aCorr,saveACC_choice,corrAns,x_movePos_end,y_movePos_end,key_resp.keys,key_resp.rt,wLy_dir,wLx_dir,x_movePos,y_movePos,text_2.started,text_2.stopped,aft_x_corrPos,aft_y_corrPos,y_pathSize_check,x_pathSize_check,y_pathdirY,x_pathdirY,x_pathdirX,x_corrPos,y_corrPos,gridImage_6.started,alienImageFB_2.started,startPosFB_2.started,movePosFB_2.started,keyFB_2.started,pathLine_xdir.started,pathLine_ydir.started,alienFace.started,sounds_4.started,RT_FBtrain,keyFB_2.keys,keyFB_2.rt,saveACC_pre,ACC,within_saveACC_train,earlystop_wloop,cumAcctrain_check,gridImage_3.started,alienImage_test.started,startPos_test.started,movePos_test.started,key_resp_test.started,wLy_dir_test,wLx_dir_test,buttonPress_test,RTchoice_test,cumAcctest,corrAns_test,key_resp_test.keys,key_resp_test.rt,text_3.started,text_3.stopped,total_time,end_all_time,key_resp_3.keys,slides_2.started,sounds_3.started,nextButton_2.numClicks,nextButton_2.timesOn,nextButton_2.timesOff,prev_but_2.numClicks,prev_but_2.timesOn,prev_but_2.timesOff,bye.started,participant,train_first,00_coordinate,starting corner,date,expName,psychopyVersion,frameRate,
,,,,,,,,,,,,,,,0,0,0,0,0,0,0,0,,,,,,,,,,,,,,,,,,,,,,,,,,,,,start_all_time,testround,conditions/schedules/train_x_first/red_square_00/top_right/instructions/Slide1.png,conditions/schedules/train_x_first/red_square_00/top_right/instructions/Audio1.wav,58.45354899999984,58.399633099993665,1,[3.3860342999996647],[3.3860426999999618],0,,,,,,,,,,,,,,,,,,,,,,,,,,,,,,,,,,,,,,,,,,,,,,,,,,,,,,,,,,,,,,,,,,,,,,,,,,,,,,,,,,,,,,,,,,,,,,,,,,,,,,,,,,,,,,,,,,,,,,,,,,,,0UGR16,train_x,red_square,top_right,2025-06-14_13h41.42.378,HideSeek_v1,2022.2.5,59.99098935331685,
,,,,,,,,,,,,,,,0,0,0,0,1,0,1,0,,,,,,,,,,,,,,,,,,,,,,,,,,,,,,,conditions/schedules/train_x_first/red_square_00/top_right/instructions/Slide2.png,conditions/schedules/train_x_first/red_square_00/top_right/instructions/Audio2.wav,61.856671199999255,61.84763429999912,2,"[3.3860342999996647, 19.02097270000013]","[0.03427670000019134, 19.020979500000976]",0,,,,,,,,,,,,,,,,,,,,,,,,,,,,,,,,,,,,,,,,,,,,,,,,,,,,,,,,,,,,,,,,,,,,,,,,,,,,,,,,,,,,,,,,,,,,,,,,,,,,,,,,,,,,,,,,,,,,,,,,,,,,0UGR16,train_x,red_square,top_right,2025-06-14_13h41.42.378,HideSeek_v1,2022.2.5,59.99098935331685,
,,,,,,,,,,,,,,,0,0,0,0,2,0,2,0,,,,,,,,,,,,,,,,,,,,,,,,,,,,,,,conditions/schedules/train_x_first/red_square_00/top_right/instructions/Slide3.png,conditions/schedules/train_x_first/red_square_00/top_right/instructions/Audio3.wav,80.94717049999963,80.94717215000037,3,"[3.3860342999996647, 19.02097270000013, 16.711811999999554]","[0.03427670000019134, 0.014822600000115926, 16.711819399999513]",0,,,,,,,,,,,,,,,,,,,,,,,,,,,,,,,,,,,,,,,,,,,,,,,,,,,,,,,,,,,,,,,,,,,,,,,,,,,,,,,,,,,,,,,,,,,,,,,,,,,,,,,,,,,,,,,,,,,,,,,,,,,,0UGR16,train_x,red_square,top_right,2025-06-14_13h41.42.378,HideSeek_v1,2022.2.5,59.99098935331685,
,,,,,,,,,,,,,,,0,0,0,0,3,0,3,0,,,,,,,,,,,,,,,,,,,,,,,,,,,,,,,conditions/schedules/train_x_first/red_square_00/top_right/instructions/Slide4.png,conditions/schedules/train_x_first/red_square_00/top_right/instructions/Audio4.wav,97.7391606000001,97.72733355000037,4,"[3.3860342999996647, 19.02097270000013, 16.711811999999554, 19.284667699999773]","[0.03427670000019134, 0.014822600000115926, 0.014282699999967008, 19.284674399999858]",0,,,,,,,,,,,,,,,,,,,,,,,,,,,,,,,,,,,,,,,,,,,,,,,,,,,,,,,,,,,,,,,,,,,,,,,,,,,,,,,,,,,,,,,,,,,,,,,,,,,,,,,,,,,,,,,,,,,,,,,,,,,,0UGR16,train_x,red_square,top_right,2025-06-14_13h41.42.378,HideSeek_v1,2022.2.5,59.99098935331685,
,,,,,,,,,,,,,,,0,0,0,0,4,0,4,0,,,,,,,,,,,,,,,,,,,,,,,,,,,,,,,conditions/schedules/train_x_first/red_square_00/top_right/instructions/Slide5.png,conditions/schedules/train_x_first/red_square_00/top_right/instructions/Audio5.wav,117.09041230000003,117.09335154999917,5,"[3.3860342999996647, 19.02097270000013, 16.711811999999554, 19.284667699999773, 4.386944800000492]","[0.03427670000019134, 0.014822600000115926, 0.014282699999967008, 0.013720599999942351, 4.386951700000282]",0,,,,,,,,,,,,,,,,,,,,,,,,,,,,,,,,,,,,,,,,,,,,,,,,,,,,,,,,,,,,,,,,,,,,,,,,,,,,,,,,,,,,,,,,,,,,,,,,,,,,,,,,,,,,,,,,,,,,,,,,,,,,0UGR16,train_x,red_square,top_right,2025-06-14_13h41.42.378,HideSeek_v1,2022.2.5,59.99098935331685,
,,,,,,,,,,,,,,,0,0,0,0,5,0,5,0,,,,,,,,,,,,,,,,,,,,,,,,,,,,,,,conditions/schedules/train_x_first/red_square_00/top_right/instructions/Slide6.png,conditions/schedules/train_x_first/red_square_00/top_right/instructions/Audio6.wav,121.52646950000053,121.5137104499996,6,"[3.3860342999996647, 19.02097270000013, 16.711811999999554, 19.284667699999773, 4.386944800000492, 4.504716600000393]","[0.03427670000019134, 0.014822600000115926, 0.014282699999967008, 0.013720599999942351, 0.06773720000091998, 4.504723100000774]",0,,,,,,,,,,,,,,,,,,,,,,,,,,,,,,,,,,,,,,,,,,,,,,,,,,,,,,,,,,,,,,,,,,,,,,,,,,,,,,,,,,,,,,,,,,,,,,,,,,,,,,,,,,,,,,,,,,,,,,,,,,,,0UGR16,train_x,red_square,top_right,2025-06-14_13h41.42.378,HideSeek_v1,2022.2.5,59.99098935331685,
,,,,,,,,,,,,,,,0,0,0,0,6,0,6,0,,,,,,,,,,,,,,,,,,,,,,,,,,,,,,,conditions/schedules/train_x_first/red_square_00/top_right/instructions/Slide7.png,conditions/schedules/train_x_first/red_square_00/top_right/instructions/Audio7.wav,126.08006000000023,126.06736744999999,7,"[3.3860342999996647, 19.02097270000013, 16.711811999999554, 19.284667699999773, 4.386944800000492, 4.504716600000393, 5.505751899998359]","[0.03427670000019134, 0.014822600000115926, 0.014282699999967008, 0.013720599999942351, 0.06773720000091998, 0.0681269999986398, 5.50575839999874]",0,,,,,,,,,,,,,,,,,,,,,,,,,,,,,,,,,,,,,,,,,,,,,,,,,,,,,,,,,,,,,,,,,,,,,,,,,,,,,,,,,,,,,,,,,,,,,,,,,,,,,,,,,,,,,,,,,,,,,,,,,,,,0UGR16,train_x,red_square,top_right,2025-06-14_13h41.42.378,HideSeek_v1,2022.2.5,59.99098935331685,
,,,,,,,,,,,,,,,0,0,0,0,7,0,7,0,,,,,,,,,,,,,,,,,,,,,,,,,,,,,,,conditions/schedules/train_x_first/red_square_00/top_right/instructions/Slide8.png,conditions/schedules/train_x_first/red_square_00/top_right/instructions/Audio8.wav,131.6357705999999,131.63870209999985,8,"[3.3860342999996647, 19.02097270000013, 16.711811999999554, 19.284667699999773, 4.386944800000492, 4.504716600000393, 5.505751899998359, 12.12733709999884]","[0.03427670000019134, 0.014822600000115926, 0.014282699999967008, 0.013720599999942351, 0.06773720000091998, 0.0681269999986398, 0.08373410000058357, 12.127347100000406]",0,,,,,,,,,,,,,,,,,,,,,,,,,,,,,,,,,,,,,,,,,,,,,,,,,,,,,,,,,,,,,,,,,,,,,,,,,,,,,,,,,,,,,,,,,,,,,,,,,,,,,,,,,,,,,,,,,,,,,,,,,,,,0UGR16,train_x,red_square,top_right,2025-06-14_13h41.42.378,HideSeek_v1,2022.2.5,59.99098935331685,
,,,,,,,,,,,,,,,0,0,0,0,8,0,8,0,,,,,,,,,,,,,,,,,,,,,,,,,,,,,,,conditions/schedules/train_x_first/red_square_00/top_right/instructions/Slide9.png,conditions/schedules/train_x_first/red_square_00/top_right/instructions/Audio9.wav,143.8317979000003,143.8324886500004,9,"[3.3860342999996647, 19.02097270000013, 16.711811999999554, 19.284667699999773, 4.386944800000492, 4.504716600000393, 5.505751899998359, 12.12733709999884, 6.152658899998642]","[0.03427670000019134, 0.014822600000115926, 0.014282699999967008, 0.013720599999942351, 0.06773720000091998, 0.0681269999986398, 0.08373410000058357, 0.04800299999988056, 6.152665699999488]",0,,,,,,,,,,,,,,,,,,,,,,,,,,,,,,,,,,,,,,,,,,,,,,,,,,,,,,,,,,,,,,,,,,,,,,,,,,,,,,,,,,,,,,,,,,,,,,,,,,,,,,,,,,,,,,,,,,,,,,,,,,,,0UGR16,train_x,red_square,top_right,2025-06-14_13h41.42.378,HideSeek_v1,2022.2.5,59.99098935331685,
,,,,,,,,,,,,,,,0,0,0,0,9,0,9,0,,,,,,,,,,,,,,,,,,,,,,,,,,,,,,,conditions/schedules/train_x_first/red_square_00/top_right/instructions/Slide10.png,conditions/schedules/train_x_first/red_square_00/top_right/instructions/Audio10.wav,150.02002379999976,150.02052774999956,10,"[3.3860342999996647, 19.02097270000013, 16.711811999999554, 19.284667699999773, 4.386944800000492, 4.504716600000393, 5.505751899998359, 12.12733709999884, 6.152658899998642, 6.987178199999107]","[0.03427670000019134, 0.014822600000115926, 0.014282699999967008, 0.013720599999942351, 0.06773720000091998, 0.0681269999986398, 0.08373410000058357, 0.04800299999988056, 0.11479839999992691, 6.987184499999785]",0,,,,,,,,,,,,,,,,,,,,,,,,,,,,,,,,,,,,,,,,,,,,,,,,,,,,,,,,,,,,,,,,,,,,,,,,,,,,,,,,,,,,,,,,,,,,,,,,,,,,,,,,,,,,,,,,,,,,,,,,,,,,0UGR16,train_x,red_square,top_right,2025-06-14_13h41.42.378,HideSeek_v1,2022.2.5,59.99098935331685,
,,,,,,,,,,,,,,,0,0,0,0,10,0,10,0,,,,,,,,,,,,,,,,,,,,,,,,,,,,,,,conditions/schedules/train_x_first/red_square_00/top_right/instructions/Slide11.png,conditions/schedules/train_x_first/red_square_00/top_right/instructions/Audio11.wav,157.0724539999992,157.05991539999994,11,"[3.3860342999996647, 19.02097270000013, 16.711811999999554, 19.284667699999773, 4.386944800000492, 4.504716600000393, 5.505751899998359, 12.12733709999884, 6.152658899998642, 6.987178199999107, 9.92693060000056]","[0.03427670000019134, 0.014822600000115926, 0.014282699999967008, 0.013720599999942351, 0.06773720000091998, 0.0681269999986398, 0.08373410000058357, 0.04800299999988056, 0.11479839999992691, 0.0352392000004329, 9.926937700000053]",0,,,,,,,,,,,,,,,,,,,,,,,,,,,,,,,,,,,,,,,,,,,,,,,,,,,,,,,,,,,,,,,,,,,,,,,,,,,,,,,,,,,,,,,,,,,,,,,,,,,,,,,,,,,,,,,,,,,,,,,,,,,,0UGR16,train_x,red_square,top_right,2025-06-14_13h41.42.378,HideSeek_v1,2022.2.5,59.99098935331685,
,,,,,,,,,,,,,,,0,0,0,0,11,0,11,0,,,,,,,,,,,,,,,,,,,,,,,,,,,,,,,conditions/schedules/train_x_first/red_square_00/top_right/instructions/Slide12.png,conditions/schedules/train_x_first/red_square_00/top_right/instructions/Audio12.wav,167.05047749999903,167.0518104999999,12,"[3.3860342999996647, 19.02097270000013, 16.711811999999554, 19.284667699999773, 4.386944800000492, 4.504716600000393, 5.505751899998359, 12.12733709999884, 6.152658899998642, 6.987178199999107, 9.92693060000056, 18.547178000000713]","[0.03427670000019134, 0.014822600000115926, 0.014282699999967008, 0.013720599999942351, 0.06773720000091998, 0.0681269999986398, 0.08373410000058357, 0.04800299999988056, 0.11479839999992691, 0.0352392000004329, 0.06513340000128665, 18.547184600000037]",0,,,,,,,,,,,,,,,,,,,,,,,,,,,,,,,,,,,,,,,,,,,,,,,,,,,,,,,,,,,,,,,,,,,,,,,,,,,,,,,,,,,,,,,,,,,,,,,,,,,,,,,,,,,,,,,,,,,,,,,,,,,,0UGR16,train_x,red_square,top_right,2025-06-14_13h41.42.378,HideSeek_v1,2022.2.5,59.99098935331685,
1,8,7,3,7,-5,0,66,2,instr_dim1_1,,,,,,0,0,0,0,,,,,0,0,0,0,,,,,,,,,,,,,,,,,,,,,,,,,,,,,,,,,,,,,stimuli/alien_stimuli/66.png,conditions/schedules/train_x_first/red_square_00/top_right/inputInstr_1.xlsx,stimuli/alien_stimuli/66.png,185.69825519999904,185.69825519999904,185.69825519999904,185.69825519999904,185.70056425000018,return,15.024763000001258,"[-0.16, -0.08, 0, 0.08, 0.16, 0.24, 0.32, 0.4, 0.48, 0.56]","[-0.4, -0.32, -0.24, -0.16, -0.08, 0, 0.08, 0.16, 0.24, 0.32]",7,7,3,8,0.0,0.4,200.8886079999993,200.8886079999993,200.8886079999993,200.8886079999993,200.8886079999993,200.8886079999993,200.8886079999993,200.8801531499992,11.86042819999966,return,11.684730000000854,stimuli/alien_stimuli/66.png,66,8,1,,,,,,,,,,,,,,,,,,,,,,,,,,,,,,,,,,,,,,,,,,,,,,,,,,,,,,,,,,,,,,,,,,,,,,,,,,,,,,,,,,,,,,,,,0UGR16,train_x,red_square,top_right,2025-06-14_13h41.42.378,HideSeek_v1,2022.2.5,59.99098935331685,
,,,,,,,,,,,30,,,,0,0,0,0,,,,,,,,,,,,,,,,,,,,,,,,,,,,,,,,,,,,,,,,,,,,,,,,,,,,,,,,,,,,,,,,,,,,,,,,,,,,,,21,0.7,0,0,99,1,30,0,conditions/schedules/train_x_first/red_square_00/top_right/inputTrain_1.1.xlsx,99,1,1,1,0,,,,,,,,,,,,,,,,,,,,,,,,,,,,,,,,,,,,,,,,,,,,,,,,,,,,,,,,,,,,,,,,,,,,,,,,,,,0UGR16,train_x,red_square,top_right,2025-06-14_13h41.42.378,HideSeek_v1,2022.2.5,59.99098935331685,
,,,,,,,,,,,,,,,1,0,1,0,0,0,0,0,,,,,,,,,,,,,,,,,,,,,,,,,,,,,,,conditions/schedules/train_x_first/red_square_00/top_right/instructions/Slide13.png,conditions/schedules/train_x_first/red_square_00/top_right/instructions/Audio13.wav,212.74549520000073,212.73955865000042,13,"[3.3860342999996647, 19.02097270000013, 16.711811999999554, 19.284667699999773, 4.386944800000492, 4.504716600000393, 5.505751899998359, 12.12733709999884, 6.152658899998642, 6.987178199999107, 9.92693060000056, 18.547178000000713, 20.25934100000086]","[0.03427670000019134, 0.014822600000115926, 0.014282699999967008, 0.013720599999942351, 0.06773720000091998, 0.0681269999986398, 0.08373410000058357, 0.04800299999988056, 0.11479839999992691, 0.0352392000004329, 0.06513340000128665, 18.547184600000037, 20.25934970000162]",0,,,,,,,,,,,,,,,,,,,,,,,,,,,,,,,,,,,,,,,,,,,,,,,,,,,,,,,,,,,,,,,,,,,,,,,,,,,,,,,,,,,,,,,,,,,,,,,,,,,,,,,,,,,,,,,,,,,,,,,,,,,,0UGR16,train_x,red_square,top_right,2025-06-14_13h41.42.378,HideSeek_v1,2022.2.5,59.99098935331685,
,,,,,,,,,,,,,,,1,0,1,0,1,0,1,0,,,,,,,,,,,,,,,,,,,,,,,,,,,,,,,conditions/schedules/train_x_first/red_square_00/top_right/instructions/Slide14.png,conditions/schedules/train_x_first/red_square_00/top_right/instructions/Audio14.wav,233.06916490000003,233.05627949999942,14,"[3.3860342999996647, 19.02097270000013, 16.711811999999554, 19.284667699999773, 4.386944800000492, 4.504716600000393, 5.505751899998359, 12.12733709999884, 6.152658899998642, 6.987178199999107, 9.92693060000056, 18.547178000000713, 20.25934100000086, 13.912626600000294]","[0.03427670000019134, 0.014822600000115926, 0.014282699999967008, 0.013720599999942351, 0.06773720000091998, 0.0681269999986398, 0.08373410000058357, 0.04800299999988056, 0.11479839999992691, 0.0352392000004329, 0.06513340000128665, 18.547184600000037, 0.0002113999998982763, 13.912633399999322]",0,,,,,,,,,,,,,,,,,,,,,,,,,,,,,,,,,,,,,,,,,,,,,,,,,,,,,,,,,,,,,,,,,,,,,,,,,,,,,,,,,,,,,,,,,,,,,,,,,,,,,,,,,,,,,,,,,,,,,,,,,,,,0UGR16,train_x,red_square,top_right,2025-06-14_13h41.42.378,HideSeek_v1,2022.2.5,59.99098935331685,
2,9,5,9,5,0,0,16,2,instr_dim1_1,,,,,,1,0,1,0,,,,,0,0,0,0,,,,,,,,,,,,,,,,,,,,,,,,,,,,,,,,,,,,,stimuli/alien_stimuli/16.png,conditions/schedules/train_x_first/red_square_00/top_right/inputInstr_1.xlsx,stimuli/alien_stimuli/16.png,247.08451349999996,247.08451349999996,247.08451349999996,247.08451349999996,247.08463074999906,return,7.676369700002397,"[-0.16, -0.08, 0, 0.08, 0.16, 0.24, 0.32, 0.4, 0.48, 0.56]","[-0.4, -0.32, -0.24, -0.16, -0.08, 0, 0.08, 0.16, 0.24, 0.32]",5,5,9,9,0.0,0.0,254.9286123999991,254.9286123999991,254.9286123999991,254.9286123999991,254.9286123999991,254.9286123999991,254.9286123999991,254.90803639999976,11.644281200000478,return,11.484454100000221,stimuli/alien_stimuli/16.png,16,9,2,,,,,,,,,,,,,,,,,,,,,,,,,,,,,,,,,,,,,,,,,,,,,,,,,,,,,,,,,,,,,,,,,,,,,,,,,,,,,,,,,,,,,,,,,0UGR16,train_x,red_square,top_right,2025-06-14_13h41.42.378,HideSeek_v1,2022.2.5,59.99098935331685,
,,,,,,,,,,,30,,,,1,0,1,0,,,,,,,,,,,,,,,,,,,,,,,,,,,,,,,,,,,,,,,,,,,,,,,,,,,,,,,,,,,,,,,,,,,,,,,,,,,,,,21,0.7,0,0,99,1,30,0,conditions/schedules/train_x_first/red_square_00/top_right/inputTrain_1.1.xlsx,99,1,1,1,0,,,,,,,,,,,,,,,,,,,,,,,,,,,,,,,,,,,,,,,,,,,,,,,,,,,,,,,,,,,,,,,,,,,,,,,,,,,0UGR16,train_x,red_square,top_right,2025-06-14_13h41.42.378,HideSeek_v1,2022.2.5,59.99098935331685,
,,,,,,,,,,,,,,,2,0,2,0,0,0,0,0,,,,,,,,,,,,,,,,,,,,,,,,,,,,,,,conditions/schedules/train_x_first/red_square_00/top_right/instructions/Slide15.png,conditions/schedules/train_x_first/red_square_00/top_right/instructions/Audio15.wav,266.57856059999904,266.5677579500005,15,"[3.3860342999996647, 19.02097270000013, 16.711811999999554, 19.284667699999773, 4.386944800000492, 4.504716600000393, 5.505751899998359, 12.12733709999884, 6.152658899998642, 6.987178199999107, 9.92693060000056, 18.547178000000713, 20.25934100000086, 13.912626600000294, 32.913974600000074]","[0.03427670000019134, 0.014822600000115926, 0.014282699999967008, 0.013720599999942351, 0.06773720000091998, 0.0681269999986398, 0.08373410000058357, 0.04800299999988056, 0.11479839999992691, 0.0352392000004329, 0.06513340000128665, 18.547184600000037, 0.0002113999998982763, 13.912633399999322, 32.913984299999356]",0,,,,,,,,,,,,,,,,,,,,,,,,,,,,,,,,,,,,,,,,,,,,,,,,,,,,,,,,,,,,,,,,,,,,,,,,,,,,,,,,,,,,,,,,,,,,,,,,,,,,,,,,,,,,,,,,,,,,,,,,,,,,0UGR16,train_x,red_square,top_right,2025-06-14_13h41.42.378,HideSeek_v1,2022.2.5,59.99098935331685,
,,,,,,,,,,,,,,,2,0,2,0,1,0,1,0,,,,,,,,,,,,,,,,,,,,,,,,,,,,,,,conditions/schedules/train_x_first/red_square_00/top_right/instructions/Slide16.png,conditions/schedules/train_x_first/red_square_00/top_right/instructions/Audio16.wav,299.56196590000036,299.5612565500005,16,"[3.3860342999996647, 19.02097270000013, 16.711811999999554, 19.284667699999773, 4.386944800000492, 4.504716600000393, 5.505751899998359, 12.12733709999884, 6.152658899998642, 6.987178199999107, 9.92693060000056, 18.547178000000713, 20.25934100000086, 13.912626600000294, 32.913974600000074, 24.534755799999402]","[0.03427670000019134, 0.014822600000115926, 0.014282699999967008, 0.013720599999942351, 0.06773720000091998, 0.0681269999986398, 0.08373410000058357, 0.04800299999988056, 0.11479839999992691, 0.0352392000004329, 0.06513340000128665, 18.547184600000037, 0.0002113999998982763, 13.912633399999322, 0.014341099999001017, 24.534761900000376]",0,,,,,,,,,,,,,,,,,,,,,,,,,,,,,,,,,,,,,,,,,,,,,,,,,,,,,,,,,,,,,,,,,,,,,,,,,,,,,,,,,,,,,,,,,,,,,,,,,,,,,,,,,,,,,,,,,,,,,,,,,,,,0UGR16,train_x,red_square,top_right,2025-06-14_13h41.42.378,HideSeek_v1,2022.2.5,59.99098935331685,
,7,6,4,6,-3,0,46,,train_dim1_1,1,30,,,,2,0,2,0,,,,,,,,,0,0,0,0,0,0,0,0,0,0,0,0,,,,,,,,,,,,,,,,,,,,,,,,,stimuli/alien_stimuli/46.png,,,,,,,,,,,,,,,,,,,,,,,,,,,,,,,,,,,,,,,30,,,,,,,,324.1946742,324.1946742,324.1946742,324.1946742,324.1946742,right,14.473417400000471,0,0,0,99,0.48000000000000004,0.08,right,14.37693180000133,,,,,,,,,,,,,,,,,,,,,,,,,,,,,,,,,,,,,,,,,,,,,,,,,,,,,,,,,,,,0UGR16,train_x,red_square,top_right,2025-06-14_13h41.42.378,HideSeek_v1,2022.2.5,59.99098935331685,
,7,6,4,6,-3,0,46,,train_dim1_1,1,30,,,,2,0,2,0,,,,,,,,,0,0,0,0,0,0,0,0,1,0,1,0,,,,,,,,,,,,,,,,,,,,,,,,,,,,,,,,,,,,,,,,,,,,,,,,,,,,,,,,,,,,,,,,30,,,,,,,,338.67316500000015,338.67316500000015,338.67316500000015,338.67316500000015,338.67316500000015,up,2.0775484000005235,0,0,0,99,0.48000000000000004,0.16,up,1.9840833000016573,,,,,,,,,,,,,,,,,,,,,,,,,,,,,,,,,,,,,,,,,,,,,,,,,,,,,,,,,,,,0UGR16,train_x,red_square,top_right,2025-06-14_13h41.42.378,HideSeek_v1,2022.2.5,59.99098935331685,
,7,6,4,6,-3,0,46,,train_dim1_1,1,30,,,,2,0,2,0,,,,,,,,,0,0,0,0,0,0,0,0,2,0,2,0,,,,,,,,,,,,,,,,,,,,,,,,,,,,,,,,,,,,,,,,,,,,,,,,,,,,,,,,,,,,,,,,30,,,,,,,,340.7419178,340.7419178,340.7419178,340.7419178,340.7419178,return,0.6434018999989348,0,0,0,0,0.48000000000000004,0.16,return,0.5552478000008705,1,1,0.48000000000000004,0.16,,,,,,,,,,,,,,,,,,,,,,,,,,,,,,,,,,,,,,,,,,,,,,,,,,,,,,,,0UGR16,train_x,red_square,top_right,2025-06-14_13h41.42.378,HideSeek_v1,2022.2.5,59.99098935331685,
,7,9,7,9,0,0,16,,train_dim1_1,2,30,,,,2,0,2,0,,,,,,,,,0,0,0,0,0,1,1,1,0,0,0,0,,,,,,,,,,,,,,,,,,,,,,,,,stimuli/alien_stimuli/16.png,,,,,,,,,,,,,,,,,,,,,,,,,,,,,stimuli/alien_stimuli/46.png,46,7,3,,,,,,,30,,,,,,,,376.68361600000026,376.68361600000026,376.68361600000026,376.68361600000026,376.68361600000026,right,3.4410024999997404,0,0,0,99,0.48000000000000004,0.32,right,3.3440019999998185,,,,,375.1070505000007,376.68361600000026,0.16,0.08,0.0,0.24,0.08,0.16,0.28,0.16,0.08,342.9530295000004,342.9530295000004,342.9530295000004,342.9530295000004,342.9530295000004,342.9530295000004,342.9530295000004,342.9530295000004,342.94736864999993,32.2627889000014,return,32.13647910000145,,,,,,,,,,,,,,,,,,,,,,,,,,,,,,,,,0UGR16,train_x,red_square,top_right,2025-06-14_13h41.42.378,HideSeek_v1,2022.2.5,59.99098935331685,
,7,9,7,9,0,0,16,,train_dim1_1,2,30,,,,2,0,2,0,,,,,,,,,0,0,0,0,0,1,1,1,1,0,1,0,,,,,,,,,,,,,,,,,,,,,,,,,,,,,,,,,,,,,,,,,,,,,,,,,,,,,,,,,,,,,,,,30,,,,,,,,380.11274070000036,380.11274070000036,380.11274070000036,380.11274070000036,380.11274070000036,right,3.3279294000003574,0,0,0,99,0.56,0.32,right,3.242096000001766,,,,,,,,,,,,,,,,,,,,,,,,,,,,,,,,,,,,,,,,,,,,,,,,,,,,,,,,,,,,0UGR16,train_x,red_square,top_right,2025-06-14_13h41.42.378,HideSeek_v1,2022.2.5,59.99098935331685,
,7,9,7,9,0,0,16,,train_dim1_1,2,30,,,,2,0,2,0,,,,,,,,,0,0,0,0,0,1,1,1,2,0,2,0,,,,,,,,,,,,,,,,,,,,,,,,,,,,,,,,,,,,,,,,,,,,,,,,,,,,,,,,,,,,,,,,30,,,,,,,,383.4474897,383.4474897,383.4474897,383.4474897,383.4474897,return,2.160969300000943,0,0,0,0,0.56,0.32,return,2.07772660000046,1,3,0.56,0.32,,,,,,,,,,,,,,,,,,,,,,,,,,,,,,,,,,,,,,,,,,,,,,,,,,,,,,,,0UGR16,train_x,red_square,top_right,2025-06-14_13h41.42.378,HideSeek_v1,2022.2.5,59.99098935331685,
,9,9,8,9,-1,0,26,,train_dim1_1,3,30,,,,2,0,2,0,,,,,,,,,0,0,0,0,0,2,2,2,0,0,0,0,,,,,,,,,,,,,,,,,,,,,,,,,stimuli/alien_stimuli/26.png,,,,,,,,,,,,,,,,,,,,,,,,,,,,,stimuli/alien_stimuli/16.png,16,7,4,,,,,,,30,,,,,,,,394.67199040000014,394.67199040000014,394.67199040000014,394.67199040000014,394.67199040000014,left,2.021227799999906,0,0,0,99,0.48000000000000004,0.32,left,1.9274490000007063,,,,,393.105460499999,394.67199040000014,0.4,0.32,0.0,0.0,0.32,0.4,0.4,0.4,0.32,387.185440199999,387.185440199999,387.185440199999,387.185440199999,387.185440199999,387.185440199999,387.185440199999,387.185440199999,387.1676782499993,6.040686500000447,return,5.902117499999804,,,,,,,,,,,,,,,,,,,,,,,,,,,,,,,,,0UGR16,train_x,red_square,top_right,2025-06-14_13h41.42.378,HideSeek_v1,2022.2.5,59.99098935331685,
,9,9,8,9,-1,0,26,,train_dim1_1,3,30,,,,2,0,2,0,,,,,,,,,0,0,0,0,0,2,2,2,1,0,1,0,,,,,,,,,,,,,,,,,,,,,,,,,,,,,,,,,,,,,,,,,,,,,,,,,,,,,,,,,,,,,,,,30,,,,,,,,396.6931984999992,396.6931984999992,396.6931984999992,396.6931984999992,396.6931984999992,left,0.810055599999032,0,0,0,99,0.4,0.32,left,0.7276586000007228,,,,,,,,,,,,,,,,,,,,,,,,,,,,,,,,,,,,,,,,,,,,,,,,,,,,,,,,,,,,0UGR16,train_x,red_square,top_right,2025-06-14_13h41.42.378,HideSeek_v1,2022.2.5,59.99098935331685,
,9,9,8,9,-1,0,26,,train_dim1_1,3,30,,,,2,0,2,0,,,,,,,,,0,0,0,0,0,2,2,2,2,0,2,0,,,,,,,,,,,,,,,,,,,,,,,,,,,,,,,,,,,,,,,,,,,,,,,,,,,,,,,,,,,,,,,,30,,,,,,,,397.509630999999,397.509630999999,397.509630999999,397.509630999999,397.509630999999,left,0.6432401000001846,0,0,0,99,0.32,0.32,left,0.5595906000016839,,,,,,,,,,,,,,,,,,,,,,,,,,,,,,,,,,,,,,,,,,,,,,,,,,,,,,,,,,,,0UGR16,train_x,red_square,top_right,2025-06-14_13h41.42.378,HideSeek_v1,2022.2.5,59.99098935331685,
,9,9,8,9,-1,0,26,,train_dim1_1,3,30,,,,2,0,2,0,,,,,,,,,0,0,0,0,0,2,2,2,3,0,3,0,,,,,,,,,,,,,,,,,,,,,,,,,,,,,,,,,,,,,,,,,,,,,,,,,,,,,,,,,,,,,,,,30,,,,,,,,398.15956220000044,398.15956220000044,398.15956220000044,398.15956220000044,398.15956220000044,left,0.7100892999987991,0,0,0,99,0.24,0.32,left,0.6208033000020805,,,,,,,,,,,,,,,,,,,,,,,,,,,,,,,,,,,,,,,,,,,,,,,,,,,,,,,,,,,,0UGR16,train_x,red_square,top_right,2025-06-14_13h41.42.378,HideSeek_v1,2022.2.5,59.99098935331685,
,9,9,8,9,-1,0,26,,train_dim1_1,3,30,,,,2,0,2,0,,,,,,,,,0,0,0,0,0,2,2,2,4,0,4,0,,,,,,,,,,,,,,,,,,,,,,,,,,,,,,,,,,,,,,,,,,,,,,,,,,,,,,,,,,,,,,,,30,,,,,,,,398.8762939999997,398.8762939999997,398.8762939999997,398.8762939999997,398.8762939999997,left,1.3939977999998518,0,0,0,99,0.15999999999999998,0.32,left,1.3147554000006494,,,,,,,,,,,,,,,,,,,,,,,,,,,,,,,,,,,,,,,,,,,,,,,,,,,,,,,,,,,,0UGR16,train_x,red_square,top_right,2025-06-14_13h41.42.378,HideSeek_v1,2022.2.5,59.99098935331685,
,9,9,8,9,-1,0,26,,train_dim1_1,3,30,,,,2,0,2,0,,,,,,,,,0,0,0,0,0,2,2,2,5,0,5,0,,,,,,,,,,,,,,,,,,,,,,,,,,,,,,,,,,,,,,,,,,,,,,,,,,,,,,,,,,,,,,,,30,,,,,,,,400.2783273999994,400.2783273999994,400.2783273999994,400.2783273999994,400.2783273999994,right,2.3446937999997317,0,0,0,99,0.24,0.32,right,2.2654759000015474,,,,,,,,,,,,,,,,,,,,,,,,,,,,,,,,,,,,,,,,,,,,,,,,,,,,,,,,,,,,0UGR16,train_x,red_square,top_right,2025-06-14_13h41.42.378,HideSeek_v1,2022.2.5,59.99098935331685,
,9,9,8,9,-1,0,26,,train_dim1_1,3,30,,,,2,0,2,0,,,,,,,,,0,0,0,0,0,2,2,2,6,0,6,0,,,,,,,,,,,,,,,,,,,,,,,,,,,,,,,,,,,,,,,,,,,,,,,,,,,,,,,,,,,,,,,,30,,,,,,,,402.62960399999974,402.62960399999974,402.62960399999974,402.62960399999974,402.62960399999974,right,2.6951736000009987,0,0,0,99,0.32,0.32,right,2.605225100000098,,,,,,,,,,,,,,,,,,,,,,,,,,,,,,,,,,,,,,,,,,,,,,,,,,,,,,,,,,,,0UGR16,train_x,red_square,top_right,2025-06-14_13h41.42.378,HideSeek_v1,2022.2.5,59.99098935331685,
,9,9,8,9,-1,0,26,,train_dim1_1,3,30,,,,2,0,2,0,,,,,,,,,0,0,0,0,0,2,2,2,7,0,7,0,,,,,,,,,,,,,,,,,,,,,,,,,,,,,,,,,,,,,,,,,,,,,,,,,,,,,,,,,,,,,,,,30,,,,,,,,405.33246060000056,405.33246060000056,405.33246060000056,405.33246060000056,405.33246060000056,return,0.9101672000015242,0,0,0,0,0.32,0.32,return,0.8181481000010535,1,0,0.32,0.32,,,,,,,,,,,,,,,,,,,,,,,,,,,,,,,,,,,,,,,,,,,,,,,,,,,,,,,,0UGR16,train_x,red_square,top_right,2025-06-14_13h41.42.378,HideSeek_v1,2022.2.5,59.99098935331685,
,7,8,3,8,-4,0,56,,train_dim1_1,4,30,,,,2,0,2,0,,,,,,,,,0,0,0,0,0,3,3,3,0,0,0,0,,,,,,,,,,,,,,,,,,,,,,,,,stimuli/alien_stimuli/56.png,,,,,,,,,,,,,,,,,,,,,,,,,,,,,stimuli/alien_stimuli/26.png,26,9,5,,,,,,,30,,,,,,,,441.6694176000001,441.6694176000001,441.6694176000001,441.6694176000001,441.6694176000001,right,2.1383872000005795,0,0,0,99,0.48000000000000004,0.24,right,2.0348988000023382,,,,,440.09422090000044,441.6694176000001,0.48,0.32,0.0,0.08,0.32,0.48,0.52,0.48,0.32,407.8291623999994,407.8291623999994,407.8291623999994,407.8291623999994,407.8291623999994,407.8291623999994,407.8291623999994,407.8291623999994,407.81813879999896,32.39544769999884,return,32.23991830000159,,,,,,,,,,,,,,,,,,,,,,,,,,,,,,,,,0UGR16,train_x,red_square,top_right,2025-06-14_13h41.42.378,HideSeek_v1,2022.2.5,59.99098935331685,
,7,8,3,8,-4,0,56,,train_dim1_1,4,30,,,,2,0,2,0,,,,,,,,,0,0,0,0,0,3,3,3,1,0,1,0,,,,,,,,,,,,,,,,,,,,,,,,,,,,,,,,,,,,,,,,,,,,,,,,,,,,,,,,,,,,,,,,30,,,,,,,,443.7980800000005,443.7980800000005,443.7980800000005,443.7980800000005,443.7980800000005,right,2.54473759999928,0,0,0,99,0.56,0.24,right,2.4585476000011113,,,,,,,,,,,,,,,,,,,,,,,,,,,,,,,,,,,,,,,,,,,,,,,,,,,,,,,,,,,,0UGR16,train_x,red_square,top_right,2025-06-14_13h41.42.378,HideSeek_v1,2022.2.5,59.99098935331685,
,7,8,3,8,-4,0,56,,train_dim1_1,4,30,,,,2,0,2,0,,,,,,,,,0,0,0,0,0,3,3,3,2,0,2,0,,,,,,,,,,,,,,,,,,,,,,,,,,,,,,,,,,,,,,,,,,,,,,,,,,,,,,,,,,,,,,,,30,,,,,,,,446.347651099999,446.347651099999,446.347651099999,446.347651099999,446.347651099999,return,3.3960360000000946,0,0,0,0,0.56,0.24,return,3.315056800000093,1,2,0.56,0.24,,,,,,,,,,,,,,,,,,,,,,,,,,,,,,,,,,,,,,,,,,,,,,,,,,,,,,,,0UGR16,train_x,red_square,top_right,2025-06-14_13h41.42.378,HideSeek_v1,2022.2.5,59.99098935331685,
,5,7,0,7,-5,0,66,,train_dim1_1,5,30,,,,2,0,2,0,,,,,,,,,0,0,0,0,0,4,4,4,0,0,0,0,,,,,,,,,,,,,,,,,,,,,,,,,stimuli/alien_stimuli/66.png,,,,,,,,,,,,,,,,,,,,,,,,,,,,,stimuli/alien_stimuli/56.png,56,7,6,,,,,,,30,,,,,,,,457.9364638999996,457.9364638999996,457.9364638999996,457.9364638999996,457.9364638999996,right,2.755986000000121,0,0,0,99,0.32,0.16,right,2.668163900001673,,,,,456.3745842999997,457.9364638999996,0.08,0.24,0.0,0.32,0.24,0.08,0.24000000000000002,0.08,0.24,451.32636300000013,451.32636300000013,451.32636300000013,451.32636300000013,451.32636300000013,451.32636300000013,451.32636300000013,451.32636300000013,451.3039071500001,5.172960299998522,return,5.019723500001419,,,,,,,,,,,,,,,,,,,,,,,,,,,,,,,,,0UGR16,train_x,red_square,top_right,2025-06-14_13h41.42.378,HideSeek_v1,2022.2.5,59.99098935331685,
,5,7,0,7,-5,0,66,,train_dim1_1,5,30,,,,2,0,2,0,,,,,,,,,0,0,0,0,0,4,4,4,1,0,1,0,,,,,,,,,,,,,,,,,,,,,,,,,,,,,,,,,,,,,,,,,,,,,,,,,,,,,,,,,,,,,,,,30,,,,,,,,460.69091169999956,460.69091169999956,460.69091169999956,460.69091169999956,460.69091169999956,left,1.5770566999999573,0,0,0,99,0.24,0.16,left,1.5034429999996064,,,,,,,,,,,,,,,,,,,,,,,,,,,,,,,,,,,,,,,,,,,,,,,,,,,,,,,,,,,,0UGR16,train_x,red_square,top_right,2025-06-14_13h41.42.378,HideSeek_v1,2022.2.5,59.99098935331685,
,5,7,0,7,-5,0,66,,train_dim1_1,5,30,,,,2,0,2,0,,,,,,,,,0,0,0,0,0,4,4,4,2,0,2,0,,,,,,,,,,,,,,,,,,,,,,,,,,,,,,,,,,,,,,,,,,,,,,,,,,,,,,,,,,,,,,,,30,,,,,,,,462.2759581999999,462.2759581999999,462.2759581999999,462.2759581999999,462.2759581999999,left,0.8436605000006239,0,0,0,99,0.15999999999999998,0.16,left,0.7655456000011327,,,,,,,,,,,,,,,,,,,,,,,,,,,,,,,,,,,,,,,,,,,,,,,,,,,,,,,,,,,,0UGR16,train_x,red_square,top_right,2025-06-14_13h41.42.378,HideSeek_v1,2022.2.5,59.99098935331685,
,5,7,0,7,-5,0,66,,train_dim1_1,5,30,,,,2,0,2,0,,,,,,,,,0,0,0,0,0,4,4,4,3,0,3,0,,,,,,,,,,,,,,,,,,,,,,,,,,,,,,,,,,,,,,,,,,,,,,,,,,,,,,,,,,,,,,,,30,,,,,,,,463.1256133000006,463.1256133000006,463.1256133000006,463.1256133000006,463.1256133000006,left,0.759720500000185,0,0,0,99,0.07999999999999997,0.16,left,0.6784138000020903,,,,,,,,,,,,,,,,,,,,,,,,,,,,,,,,,,,,,,,,,,,,,,,,,,,,,,,,,,,,0UGR16,train_x,red_square,top_right,2025-06-14_13h41.42.378,HideSeek_v1,2022.2.5,59.99098935331685,
,5,7,0,7,-5,0,66,,train_dim1_1,5,30,,,,2,0,2,0,,,,,,,,,0,0,0,0,0,4,4,4,4,0,4,0,,,,,,,,,,,,,,,,,,,,,,,,,,,,,,,,,,,,,,,,,,,,,,,,,,,,,,,,,,,,,,,,30,,,,,,,,463.8964166000005,463.8964166000005,463.8964166000005,463.8964166000005,463.8964166000005,left,0.6437126999990141,0,0,0,99,-2.7755575615628914e-17,0.16,left,0.5552325999997265,,,,,,,,,,,,,,,,,,,,,,,,,,,,,,,,,,,,,,,,,,,,,,,,,,,,,,,,,,,,0UGR16,train_x,red_square,top_right,2025-06-14_13h41.42.378,HideSeek_v1,2022.2.5,59.99098935331685,
,5,7,0,7,-5,0,66,,train_dim1_1,5,30,,,,2,0,2,0,,,,,,,,,0,0,0,0,0,4,4,4,5,0,5,0,,,,,,,,,,,,,,,,,,,,,,,,,,,,,,,,,,,,,,,,,,,,,,,,,,,,,,,,,,,,,,,,30,,,,,,,,464.5462630000002,464.5462630000002,464.5462630000002,464.5462630000002,464.5462630000002,left,0.491998199999216,0,0,0,99,-0.08000000000000003,0.16,left,0.4118188000011287,,,,,,,,,,,,,,,,,,,,,,,,,,,,,,,,,,,,,,,,,,,,,,,,,,,,,,,,,,,,0UGR16,train_x,red_square,top_right,2025-06-14_13h41.42.378,HideSeek_v1,2022.2.5,59.99098935331685,
,5,7,0,7,-5,0,66,,train_dim1_1,5,30,,,,2,0,2,0,,,,,,,,,0,0,0,0,0,4,4,4,6,0,6,0,,,,,,,,,,,,,,,,,,,,,,,,,,,,,,,,,,,,,,,,,,,,,,,,,,,,,,,,,,,,,,,,30,,,,,,,,465.04413190000014,465.04413190000014,465.04413190000014,465.04413190000014,465.04413190000014,return,0.8273895000002085,0,1,0,0,-0.08000000000000003,0.16,return,0.7437952000018413,1,-2,-0.08000000000000003,0.16,,,,,,,,,,,,,,,,,,,,,,,,,,,,,,,,,,,,,,,,,,,,,,,,,,,,,,,,0UGR16,train_x,red_square,top_right,2025-06-14_13h41.42.378,HideSeek_v1,2022.2.5,59.99098935331685,
,5,5,4,5,-1,0,26,,train_dim1_1,6,30,,,,2,0,2,0,,,,,,,,,0,0,0,0,0,5,5,5,0,0,0,0,,,,,,,,,,,,,,,,,,,,,,,,,stimuli/alien_stimuli/26.png,,,,,,,,,,,,,,,,,,,,,,,,,,,,,stimuli/alien_stimuli/66.png,66,5,7,,,,,,,30,,,,,,,,481.12732329999926,481.12732329999926,481.12732329999926,481.12732329999926,481.12732329999926,right,1.7203001999987464,0,1,0,99,0.32,0,right,1.6184688000012102,,,,,479.543463,481.12732329999926,-0.16,0.16,0.0,0.4,0.16,-0.16,0.039999999999999994,-0.16,0.16,467.45395570000073,467.45395570000073,467.45395570000073,467.45395570000073,467.45395570000073,467.45395570000073,467.45395570000073,467.45395570000073,467.43399454999906,12.21208950000073,return,12.072650100000828,,,,,,,,,,,,,,,,,,,,,,,,,,,,,,,,,0UGR16,train_x,red_square,top_right,2025-06-14_13h41.42.378,HideSeek_v1,2022.2.5,59.99098935331685,
,5,5,4,5,-1,0,26,,train_dim1_1,6,30,,,,2,0,2,0,,,,,,,,,0,0,0,0,0,5,5,5,1,0,1,0,,,,,,,,,,,,,,,,,,,,,,,,,,,,,,,,,,,,,,,,,,,,,,,,,,,,,,,,,,,,,,,,30,,,,,,,,482.8311021999998,482.8311021999998,482.8311021999998,482.8311021999998,482.8311021999998,right,3.6117489999996906,0,1,0,99,0.4,0,right,3.5313473000005615,,,,,,,,,,,,,,,,,,,,,,,,,,,,,,,,,,,,,,,,,,,,,,,,,,,,,,,,,,,,0UGR16,train_x,red_square,top_right,2025-06-14_13h41.42.378,HideSeek_v1,2022.2.5,59.99098935331685,
,5,5,4,5,-1,0,26,,train_dim1_1,6,30,,,,2,0,2,0,,,,,,,,,0,0,0,0,0,5,5,5,2,0,2,0,,,,,,,,,,,,,,,,,,,,,,,,,,,,,,,,,,,,,,,,,,,,,,,,,,,,,,,,,,,,,,,,30,,,,,,,,486.449599399999,486.449599399999,486.449599399999,486.449599399999,486.449599399999,return,0.6593711000004987,0,0,0,0,0.4,0,return,0.5697401000015816,1,0,0.4,0,,,,,,,,,,,,,,,,,,,,,,,,,,,,,,,,,,,,,,,,,,,,,,,,,,,,,,,,0UGR16,train_x,red_square,top_right,2025-06-14_13h41.42.378,HideSeek_v1,2022.2.5,59.99098935331685,
,8,5,3,5,-5,0,66,,train_dim1_1,7,30,,,,2,0,2,0,,,,,,,,,0,0,0,0,0,6,6,6,0,0,0,0,,,,,,,,,,,,,,,,,,,,,,,,,stimuli/alien_stimuli/66.png,,,,,,,,,,,,,,,,,,,,,,,,,,,,,stimuli/alien_stimuli/26.png,26,5,8,,,,,,,30,,,,,,,,493.81252479999966,493.81252479999966,493.81252479999966,493.81252479999966,493.81252479999966,right,1.8070659000004525,0,0,0,99,0.5599999999999999,0,right,1.725794500001939,,,,,492.2539252000006,493.81252479999966,0.16,0,0.0,0.08,0.0,0.16,0.2,0.16,0,488.69199370000024,488.69199370000024,488.69199370000024,488.69199370000024,488.69199370000024,488.69199370000024,488.69199370000024,488.69199370000024,488.6848709999991,3.6886279999998806,return,3.54027540000061,,,,,,,,,,,,,,,,,,,,,,,,,,,,,,,,,0UGR16,train_x,red_square,top_right,2025-06-14_13h41.42.378,HideSeek_v1,2022.2.5,59.99098935331685,
,8,5,3,5,-5,0,66,,train_dim1_1,7,30,,,,2,0,2,0,,,,,,,,,0,0,0,0,0,6,6,6,1,0,1,0,,,,,,,,,,,,,,,,,,,,,,,,,,,,,,,,,,,,,,,,,,,,,,,,,,,,,,,,,,,,,,,,30,,,,,,,,495.62027470000066,495.62027470000066,495.62027470000066,495.62027470000066,495.62027470000066,left,1.3271179999992455,0,0,0,99,0.4799999999999999,0,left,1.2537978000018484,,,,,,,,,,,,,,,,,,,,,,,,,,,,,,,,,,,,,,,,,,,,,,,,,,,,,,,,,,,,0UGR16,train_x,red_square,top_right,2025-06-14_13h41.42.378,HideSeek_v1,2022.2.5,59.99098935331685,
,8,5,3,5,-5,0,66,,train_dim1_1,7,30,,,,2,0,2,0,,,,,,,,,0,0,0,0,0,6,6,6,2,0,2,0,,,,,,,,,,,,,,,,,,,,,,,,,,,,,,,,,,,,,,,,,,,,,,,,,,,,,,,,,,,,,,,,30,,,,,,,,496.9537608999999,496.9537608999999,496.9537608999999,496.9537608999999,496.9537608999999,left,0.6100766999988991,0,0,0,99,0.3999999999999999,0,left,0.5335284000011598,,,,,,,,,,,,,,,,,,,,,,,,,,,,,,,,,,,,,,,,,,,,,,,,,,,,,,,,,,,,0UGR16,train_x,red_square,top_right,2025-06-14_13h41.42.378,HideSeek_v1,2022.2.5,59.99098935331685,
,8,5,3,5,-5,0,66,,train_dim1_1,7,30,,,,2,0,2,0,,,,,,,,,0,0,0,0,0,6,6,6,3,0,3,0,,,,,,,,,,,,,,,,,,,,,,,,,,,,,,,,,,,,,,,,,,,,,,,,,,,,,,,,,,,,,,,,30,,,,,,,,497.57210440000017,497.57210440000017,497.57210440000017,497.57210440000017,497.57210440000017,left,0.7265743000007205,0,0,0,99,0.3199999999999999,0,left,0.6501587000002473,,,,,,,,,,,,,,,,,,,,,,,,,,,,,,,,,,,,,,,,,,,,,,,,,,,,,,,,,,,,0UGR16,train_x,red_square,top_right,2025-06-14_13h41.42.378,HideSeek_v1,2022.2.5,59.99098935331685,
,8,5,3,5,-5,0,66,,train_dim1_1,7,30,,,,2,0,2,0,,,,,,,,,0,0,0,0,0,6,6,6,4,0,4,0,,,,,,,,,,,,,,,,,,,,,,,,,,,,,,,,,,,,,,,,,,,,,,,,,,,,,,,,,,,,,,,,30,,,,,,,,498.30563299999994,498.30563299999994,498.30563299999994,498.30563299999994,498.30563299999994,left,0.7935514000000694,0,0,0,99,0.23999999999999988,0,left,0.7062094000011712,,,,,,,,,,,,,,,,,,,,,,,,,,,,,,,,,,,,,,,,,,,,,,,,,,,,,,,,,,,,0UGR16,train_x,red_square,top_right,2025-06-14_13h41.42.378,HideSeek_v1,2022.2.5,59.99098935331685,
,8,5,3,5,-5,0,66,,train_dim1_1,7,30,,,,2,0,2,0,,,,,,,,,0,0,0,0,0,6,6,6,5,0,5,0,,,,,,,,,,,,,,,,,,,,,,,,,,,,,,,,,,,,,,,,,,,,,,,,,,,,,,,,,,,,,,,,30,,,,,,,,499.1046979999992,499.1046979999992,499.1046979999992,499.1046979999992,499.1046979999992,left,0.493502699999226,0,0,0,99,0.15999999999999986,0,left,0.4145382000024256,,,,,,,,,,,,,,,,,,,,,,,,,,,,,,,,,,,,,,,,,,,,,,,,,,,,,,,,,,,,0UGR16,train_x,red_square,top_right,2025-06-14_13h41.42.378,HideSeek_v1,2022.2.5,59.99098935331685,
,8,5,3,5,-5,0,66,,train_dim1_1,7,30,,,,2,0,2,0,,,,,,,,,0,0,0,0,0,6,6,6,6,0,6,0,,,,,,,,,,,,,,,,,,,,,,,,,,,,,,,,,,,,,,,,,,,,,,,,,,,,,,,,,,,,,,,,30,,,,,,,,499.6074776000005,499.6074776000005,499.6074776000005,499.6074776000005,499.6074776000005,left,0.8766895000007935,0,0,0,99,0.07999999999999986,0,left,0.7889700000014273,,,,,,,,,,,,,,,,,,,,,,,,,,,,,,,,,,,,,,,,,,,,,,,,,,,,,,,,,,,,0UGR16,train_x,red_square,top_right,2025-06-14_13h41.42.378,HideSeek_v1,2022.2.5,59.99098935331685,
,8,5,3,5,-5,0,66,,train_dim1_1,7,30,,,,2,0,2,0,,,,,,,,,0,0,0,0,0,6,6,6,7,0,7,0,,,,,,,,,,,,,,,,,,,,,,,,,,,,,,,,,,,,,,,,,,,,,,,,,,,,,,,,,,,,,,,,30,,,,,,,,500.4904456000004,500.4904456000004,500.4904456000004,500.4904456000004,500.4904456000004,return,0.7437308999997185,1,0,0,1,0.07999999999999986,0,return,0.669381900001099,1,-5,0.07999999999999986,0,,,,,,,,,,,,,,,,,,,,,,,,,,,,,,,,,,,,,,,,,,,,,,,,,,,,,,,,0UGR16,train_x,red_square,top_right,2025-06-14_13h41.42.378,HideSeek_v1,2022.2.5,59.99098935331685,
,5,9,2,9,-3,0,46,,train_dim1_1,8,30,,,,2,0,2,0,,,,,,,,,0,0,0,0,0,7,7,7,0,0,0,0,,,,,,,,,,,,,,,,,,,,,,,,,stimuli/alien_stimuli/46.png,,,,,,,,,,,,,,,,,,,,,,,,,,,,,stimuli/alien_stimuli/66.png,66,8,9,,,,,,,30,,,,,,,,507.29334759999983,507.29334759999983,507.29334759999983,507.29334759999983,507.29334759999983,down,1.8219535999996879,1,0,0,99,0.24,0.24,down,1.7282974000008835,,,,,505.7317000000003,507.29334759999983,0.08,0,0.0,0.4,0.0,0.08,0.27999999999999997,0.08,0,502.8171316000007,502.8171316000007,502.8171316000007,502.8171316000007,502.8171316000007,502.8171316000007,502.8171316000007,502.8171316000007,502.79665704999877,3.038173499999175,return,2.8909989000003407,,,,,,,,,,,,,,,,,,,,,,,,,,,,,,,,,0UGR16,train_x,red_square,top_right,2025-06-14_13h41.42.378,HideSeek_v1,2022.2.5,59.99098935331685,
,5,9,2,9,-3,0,46,,train_dim1_1,8,30,,,,2,0,2,0,,,,,,,,,0,0,0,0,0,7,7,7,1,0,1,0,,,,,,,,,,,,,,,,,,,,,,,,,,,,,,,,,,,,,,,,,,,,,,,,,,,,,,,,,,,,,,,,30,,,,,,,,509.1144325999994,509.1144325999994,509.1144325999994,509.1144325999994,509.1144325999994,left,3.8789493999993283,1,0,0,99,0.15999999999999998,0.24,left,3.7984362999995938,,,,,,,,,,,,,,,,,,,,,,,,,,,,,,,,,,,,,,,,,,,,,,,,,,,,,,,,,,,,0UGR16,train_x,red_square,top_right,2025-06-14_13h41.42.378,HideSeek_v1,2022.2.5,59.99098935331685,
,5,9,2,9,-3,0,46,,train_dim1_1,8,30,,,,2,0,2,0,,,,,,,,,0,0,0,0,0,7,7,7,2,0,2,0,,,,,,,,,,,,,,,,,,,,,,,,,,,,,,,,,,,,,,,,,,,,,,,,,,,,,,,,,,,,,,,,30,,,,,,,,513.0005096000004,513.0005096000004,513.0005096000004,513.0005096000004,513.0005096000004,up,1.4608114000002388,1,0,0,99,0.15999999999999998,0.32,up,1.3738070000017615,,,,,,,,,,,,,,,,,,,,,,,,,,,,,,,,,,,,,,,,,,,,,,,,,,,,,,,,,,,,0UGR16,train_x,red_square,top_right,2025-06-14_13h41.42.378,HideSeek_v1,2022.2.5,59.99098935331685,
,5,9,2,9,-3,0,46,,train_dim1_1,8,30,,,,2,0,2,0,,,,,,,,,0,0,0,0,0,7,7,7,3,0,3,0,,,,,,,,,,,,,,,,,,,,,,,,,,,,,,,,,,,,,,,,,,,,,,,,,,,,,,,,,,,,,,,,30,,,,,,,,514.4679372999999,514.4679372999999,514.4679372999999,514.4679372999999,514.4679372999999,return,1.1107133999994403,1,0,0,0,0.15999999999999998,0.32,return,1.0303783000017575,1,-6,0.15999999999999998,0.32,,,,,,,,,,,,,,,,,,,,,,,,,,,,,,,,,,,,,,,,,,,,,,,,,,,,,,,,0UGR16,train_x,red_square,top_right,2025-06-14_13h41.42.378,HideSeek_v1,2022.2.5,59.99098935331685,
,6,5,2,5,-4,0,56,,train_dim1_1,9,30,,,,2,0,2,0,,,,,,,,,0,0,0,0,0,8,8,8,0,0,0,0,,,,,,,,,,,,,,,,,,,,,,,,,stimuli/alien_stimuli/56.png,,,,,,,,,,,,,,,,,,,,,,,,,,,,,stimuli/alien_stimuli/46.png,46,5,10,,,,,,,30,,,,,,,,523.2059143999995,523.2059143999995,523.2059143999995,523.2059143999995,523.2059143999995,right,1.5894748999999138,1,0,0,99,0.4,0,right,1.5036046000004717,,,,,521.6452315000006,523.2059143999995,0,0.32,0.0,0.24,0.32,0,0.12,0,0.32,517.1633182000005,517.1633182000005,517.1633182000005,517.1633182000005,517.1633182000005,517.1633182000005,517.1633182000005,517.1633182000005,517.1419054499997,4.605967299999975,return,4.460575200000676,,,,,,,,,,,,,,,,,,,,,,,,,,,,,,,,,0UGR16,train_x,red_square,top_right,2025-06-14_13h41.42.378,HideSeek_v1,2022.2.5,59.99098935331685,
,6,5,2,5,-4,0,56,,train_dim1_1,9,30,,,,2,0,2,0,,,,,,,,,0,0,0,0,0,8,8,8,1,0,1,0,,,,,,,,,,,,,,,,,,,,,,,,,,,,,,,,,,,,,,,,,,,,,,,,,,,,,,,,,,,,,,,,30,,,,,,,,524.7968707,524.7968707,524.7968707,524.7968707,524.7968707,up,2.04440969999996,1,0,0,99,0.4,0.08,up,1.968300200000158,,,,,,,,,,,,,,,,,,,,,,,,,,,,,,,,,,,,,,,,,,,,,,,,,,,,,,,,,,,,0UGR16,train_x,red_square,top_right,2025-06-14_13h41.42.378,HideSeek_v1,2022.2.5,59.99098935331685,
,6,5,2,5,-4,0,56,,train_dim1_1,9,30,,,,2,0,2,0,,,,,,,,,0,0,0,0,0,8,8,8,2,0,2,0,,,,,,,,,,,,,,,,,,,,,,,,,,,,,,,,,,,,,,,,,,,,,,,,,,,,,,,,,,,,,,,,30,,,,,,,,526.8487597999992,526.8487597999992,526.8487597999992,526.8487597999992,526.8487597999992,left,1.6600927999988926,1,0,0,99,0.32,0.08,left,1.5836042000009911,,,,,,,,,,,,,,,,,,,,,,,,,,,,,,,,,,,,,,,,,,,,,,,,,,,,,,,,,,,,0UGR16,train_x,red_square,top_right,2025-06-14_13h41.42.378,HideSeek_v1,2022.2.5,59.99098935331685,
,6,5,2,5,-4,0,56,,train_dim1_1,9,30,,,,2,0,2,0,,,,,,,,,0,0,0,0,0,8,8,8,3,0,3,0,,,,,,,,,,,,,,,,,,,,,,,,,,,,,,,,,,,,,,,,,,,,,,,,,,,,,,,,,,,,,,,,30,,,,,,,,528.5157127999992,528.5157127999992,528.5157127999992,528.5157127999992,528.5157127999992,up,1.1941607000007934,1,0,0,99,0.32,0.16,up,1.1127881000011257,,,,,,,,,,,,,,,,,,,,,,,,,,,,,,,,,,,,,,,,,,,,,,,,,,,,,,,,,,,,0UGR16,train_x,red_square,top_right,2025-06-14_13h41.42.378,HideSeek_v1,2022.2.5,59.99098935331685,
,6,5,2,5,-4,0,56,,train_dim1_1,9,30,,,,2,0,2,0,,,,,,,,,0,0,0,0,0,8,8,8,4,0,4,0,,,,,,,,,,,,,,,,,,,,,,,,,,,,,,,,,,,,,,,,,,,,,,,,,,,,,,,,,,,,,,,,30,,,,,,,,529.7167737,529.7167737,529.7167737,529.7167737,529.7167737,up,0.6768068000001222,1,0,0,99,0.32,0.24,up,0.6011610000023211,,,,,,,,,,,,,,,,,,,,,,,,,,,,,,,,,,,,,,,,,,,,,,,,,,,,,,,,,,,,0UGR16,train_x,red_square,top_right,2025-06-14_13h41.42.378,HideSeek_v1,2022.2.5,59.99098935331685,
,6,5,2,5,-4,0,56,,train_dim1_1,9,30,,,,2,0,2,0,,,,,,,,,0,0,0,0,0,8,8,8,5,0,5,0,,,,,,,,,,,,,,,,,,,,,,,,,,,,,,,,,,,,,,,,,,,,,,,,,,,,,,,,,,,,,,,,30,,,,,,,,530.4018221999995,530.4018221999995,530.4018221999995,530.4018221999995,530.4018221999995,down,1.6102551999993011,1,0,0,99,0.32,0.15999999999999998,down,1.5330722000016976,,,,,,,,,,,,,,,,,,,,,,,,,,,,,,,,,,,,,,,,,,,,,,,,,,,,,,,,,,,,0UGR16,train_x,red_square,top_right,2025-06-14_13h41.42.378,HideSeek_v1,2022.2.5,59.99098935331685,
,6,5,2,5,-4,0,56,,train_dim1_1,9,30,,,,2,0,2,0,,,,,,,,,0,0,0,0,0,8,8,8,6,0,6,0,,,,,,,,,,,,,,,,,,,,,,,,,,,,,,,,,,,,,,,,,,,,,,,,,,,,,,,,,,,,,,,,30,,,,,,,,532.0192864,532.0192864,532.0192864,532.0192864,532.0192864,down,0.44311410000045726,1,0,0,99,0.32,0.07999999999999997,down,0.35991030000150204,,,,,,,,,,,,,,,,,,,,,,,,,,,,,,,,,,,,,,,,,,,,,,,,,,,,,,,,,,,,0UGR16,train_x,red_square,top_right,2025-06-14_13h41.42.378,HideSeek_v1,2022.2.5,59.99098935331685,
,6,5,2,5,-4,0,56,,train_dim1_1,9,30,,,,2,0,2,0,,,,,,,,,0,0,0,0,0,8,8,8,7,0,7,0,,,,,,,,,,,,,,,,,,,,,,,,,,,,,,,,,,,,,,,,,,,,,,,,,,,,,,,,,,,,,,,,30,,,,,,,,532.4690647999996,532.4690647999996,532.4690647999996,532.4690647999996,532.4690647999996,down,0.4765177000008407,1,0,0,99,0.32,-2.7755575615628914e-17,down,0.3949056000001292,,,,,,,,,,,,,,,,,,,,,,,,,,,,,,,,,,,,,,,,,,,,,,,,,,,,,,,,,,,,0UGR16,train_x,red_square,top_right,2025-06-14_13h41.42.378,HideSeek_v1,2022.2.5,59.99098935331685,
,6,5,2,5,-4,0,56,,train_dim1_1,9,30,,,,2,0,2,0,,,,,,,,,0,0,0,0,0,8,8,8,8,0,8,0,,,,,,,,,,,,,,,,,,,,,,,,,,,,,,,,,,,,,,,,,,,,,,,,,,,,,,,,,,,,,,,,30,,,,,,,,532.9531473999996,532.9531473999996,532.9531473999996,532.9531473999996,532.9531473999996,left,1.4106009999995877,1,0,0,99,0.24,-2.7755575615628914e-17,left,1.3260368000010203,,,,,,,,,,,,,,,,,,,,,,,,,,,,,,,,,,,,,,,,,,,,,,,,,,,,,,,,,,,,0UGR16,train_x,red_square,top_right,2025-06-14_13h41.42.378,HideSeek_v1,2022.2.5,59.99098935331685,
,6,5,2,5,-4,0,56,,train_dim1_1,9,30,,,,2,0,2,0,,,,,,,,,0,0,0,0,0,8,8,8,9,0,9,0,,,,,,,,,,,,,,,,,,,,,,,,,,,,,,,,,,,,,,,,,,,,,,,,,,,,,,,,,,,,,,,,30,,,,,,,,534.3719461000001,534.3719461000001,534.3719461000001,534.3719461000001,534.3719461000001,left,0.7260819000002812,1,0,0,99,0.15999999999999998,-2.7755575615628914e-17,left,0.6473187999999936,,,,,,,,,,,,,,,,,,,,,,,,,,,,,,,,,,,,,,,,,,,,,,,,,,,,,,,,,,,,0UGR16,train_x,red_square,top_right,2025-06-14_13h41.42.378,HideSeek_v1,2022.2.5,59.99098935331685,
,6,5,2,5,-4,0,56,,train_dim1_1,9,30,,,,2,0,2,0,,,,,,,,,0,0,0,0,0,8,8,8,10,0,10,0,,,,,,,,,,,,,,,,,,,,,,,,,,,,,,,,,,,,,,,,,,,,,,,,,,,,,,,,,,,,,,,,30,,,,,,,,535.1068605,535.1068605,535.1068605,535.1068605,535.1068605,left,0.6914735999998811,1,0,0,99,0.07999999999999997,-2.7755575615628914e-17,left,0.6097706000018661,,,,,,,,,,,,,,,,,,,,,,,,,,,,,,,,,,,,,,,,,,,,,,,,,,,,,,,,,,,,0UGR16,train_x,red_square,top_right,2025-06-14_13h41.42.378,HideSeek_v1,2022.2.5,59.99098935331685,
,6,5,2,5,-4,0,56,,train_dim1_1,9,30,,,,2,0,2,0,,,,,,,,,0,0,0,0,0,8,8,8,11,0,11,0,,,,,,,,,,,,,,,,,,,,,,,,,,,,,,,,,,,,,,,,,,,,,,,,,,,,,,,,,,,,,,,,30,,,,,,,,535.8054479999992,535.8054479999992,535.8054479999992,535.8054479999992,535.8054479999992,left,0.6433207000009133,1,0,0,99,-2.7755575615628914e-17,-2.7755575615628914e-17,left,0.5636989000013273,,,,,,,,,,,,,,,,,,,,,,,,,,,,,,,,,,,,,,,,,,,,,,,,,,,,,,,,,,,,0UGR16,train_x,red_square,top_right,2025-06-14_13h41.42.378,HideSeek_v1,2022.2.5,59.99098935331685,
,6,5,2,5,-4,0,56,,train_dim1_1,9,30,,,,2,0,2,0,,,,,,,,,0,0,0,0,0,8,8,8,12,0,12,0,,,,,,,,,,,,,,,,,,,,,,,,,,,,,,,,,,,,,,,,,,,,,,,,,,,,,,,,,,,,,,,,30,,,,,,,,536.4556708,536.4556708,536.4556708,536.4556708,536.4556708,left,0.8100930999989941,1,0,0,99,-0.08000000000000003,-2.7755575615628914e-17,left,0.7330047000014019,,,,,,,,,,,,,,,,,,,,,,,,,,,,,,,,,,,,,,,,,,,,,,,,,,,,,,,,,,,,0UGR16,train_x,red_square,top_right,2025-06-14_13h41.42.378,HideSeek_v1,2022.2.5,59.99098935331685,
,6,5,2,5,-4,0,56,,train_dim1_1,9,30,,,,2,0,2,0,,,,,,,,,0,0,0,0,0,8,8,8,13,0,13,0,,,,,,,,,,,,,,,,,,,,,,,,,,,,,,,,,,,,,,,,,,,,,,,,,,,,,,,,,,,,,,,,30,,,,,,,,537.2731564000005,537.2731564000005,537.2731564000005,537.2731564000005,537.2731564000005,left,0.4267409999993106,1,0,0,99,-0.16000000000000003,-2.7755575615628914e-17,left,0.33785200000238547,,,,,,,,,,,,,,,,,,,,,,,,,,,,,,,,,,,,,,,,,,,,,,,,,,,,,,,,,,,,0UGR16,train_x,red_square,top_right,2025-06-14_13h41.42.378,HideSeek_v1,2022.2.5,59.99098935331685,
,6,5,2,5,-4,0,56,,train_dim1_1,9,30,,,,2,0,2,0,,,,,,,,,0,0,0,0,0,8,8,8,14,0,14,0,,,,,,,,,,,,,,,,,,,,,,,,,,,,,,,,,,,,,,,,,,,,,,,,,,,,,,,,,,,,,,,,30,,,,,,,,537.7069578999999,537.7069578999999,537.7069578999999,537.7069578999999,537.7069578999999,return,0.8269373000002815,1,0,0,0,-0.16000000000000003,-2.7755575615628914e-17,return,0.7397510000009788,1,-12,-0.16000000000000003,-2.7755575615628914e-17,,,,,,,,,,,,,,,,,,,,,,,,,,,,,,,,,,,,,,,,,,,,,,,,,,,,,,,,0UGR16,train_x,red_square,top_right,2025-06-14_13h41.42.378,HideSeek_v1,2022.2.5,59.99098935331685,
,5,8,5,8,0,0,16,,train_dim1_1,10,30,,,,2,0,2,0,,,,,,,,,0,0,0,0,0,9,9,9,0,0,0,0,,,,,,,,,,,,,,,,,,,,,,,,,stimuli/alien_stimuli/16.png,,,,,,,,,,,,,,,,,,,,,,,,,,,,,stimuli/alien_stimuli/56.png,56,6,11,,,,,,,30,,,,,,,,545.0935073,545.0935073,545.0935073,545.0935073,545.0935073,down,2.7063168000004225,1,0,0,99,0.24,0.15999999999999998,down,2.619353300002331,,,,,543.5302429999992,545.0935073,0,0,0.0,0.32,0.0,0,0.16,0,0,540.1113182999998,540.1113182999998,540.1113182999998,540.1113182999998,540.1113182999998,540.1113182999998,540.1113182999998,540.1113182999998,540.0939917499995,3.538875199999893,return,3.392671800000244,,,,,,,,,,,,,,,,,,,,,,,,,,,,,,,,,0UGR16,train_x,red_square,top_right,2025-06-14_13h41.42.378,HideSeek_v1,2022.2.5,59.99098935331685,
,5,8,5,8,0,0,16,,train_dim1_1,10,30,,,,2,0,2,0,,,,,,,,,0,0,0,0,0,9,9,9,1,0,1,0,,,,,,,,,,,,,,,,,,,,,,,,,,,,,,,,,,,,,,,,,,,,,,,,,,,,,,,,,,,,,,,,30,,,,,,,,547.8007158,547.8007158,547.8007158,547.8007158,547.8007158,down,3.3118299000016123,1,0,0,99,0.24,0.07999999999999997,down,3.2310312000008707,,,,,,,,,,,,,,,,,,,,,,,,,,,,,,,,,,,,,,,,,,,,,,,,,,,,,,,,,,,,0UGR16,train_x,red_square,top_right,2025-06-14_13h41.42.378,HideSeek_v1,2022.2.5,59.99098935331685,
,5,8,5,8,0,0,16,,train_dim1_1,10,30,,,,2,0,2,0,,,,,,,,,0,0,0,0,0,9,9,9,2,0,2,0,,,,,,,,,,,,,,,,,,,,,,,,,,,,,,,,,,,,,,,,,,,,,,,,,,,,,,,,,,,,,,,,30,,,,,,,,551.1194008000002,551.1194008000002,551.1194008000002,551.1194008000002,551.1194008000002,down,2.6119553000007727,1,0,0,99,0.24,-2.7755575615628914e-17,down,2.5315811000000394,,,,,,,,,,,,,,,,,,,,,,,,,,,,,,,,,,,,,,,,,,,,,,,,,,,,,,,,,,,,0UGR16,train_x,red_square,top_right,2025-06-14_13h41.42.378,HideSeek_v1,2022.2.5,59.99098935331685,
,5,8,5,8,0,0,16,,train_dim1_1,10,30,,,,2,0,2,0,,,,,,,,,0,0,0,0,0,9,9,9,3,0,3,0,,,,,,,,,,,,,,,,,,,,,,,,,,,,,,,,,,,,,,,,,,,,,,,,,,,,,,,,,,,,,,,,30,,,,,,,,553.7395109999998,553.7395109999998,553.7395109999998,553.7395109999998,553.7395109999998,return,1.1259826999994402,1,0,0,0,0.24,-2.7755575615628914e-17,return,1.0480240000015328,-2,-12,0.24,-2.7755575615628914e-17,,,,,,,,,,,,,,,,,,,,,,,,,,,,,,,,,,,,,,,,,,,,,,,,,,,,,,,,0UGR16,train_x,red_square,top_right,2025-06-14_13h41.42.378,HideSeek_v1,2022.2.5,59.99098935331685,
,7,7,4,7,-3,0,46,,train_dim1_1,11,30,,,,2,0,2,0,,,,,,,,,0,0,0,0,0,10,10,10,0,0,0,0,,,,,,,,,,,,,,,,,,,,,,,,,stimuli/alien_stimuli/46.png,,,,,,,,,,,,,,,,,,,,,,,,,,,,,stimuli/alien_stimuli/16.png,16,5,12,,,,,,,30,,,,,,,,563.5902150000002,563.5902150000002,563.5902150000002,563.5902150000002,563.5902150000002,right,1.8882581999987451,1,0,0,99,0.48000000000000004,0.16,right,1.8079450000022916,,,,,562.0284940000001,563.5902150000002,0.24,0.24,0.0,0.0,0.24,0.24,0.24,0.24,0.24,556.4448941999999,556.4448941999999,556.4448941999999,556.4448941999999,556.4448941999999,556.4448941999999,556.4448941999999,556.4448941999999,556.4243761499997,5.707023599999957,return,5.567011200000707,,,,,,,,,,,,,,,,,,,,,,,,,,,,,,,,,0UGR16,train_x,red_square,top_right,2025-06-14_13h41.42.378,HideSeek_v1,2022.2.5,59.99098935331685,
,7,7,4,7,-3,0,46,,train_dim1_1,11,30,,,,2,0,2,0,,,,,,,,,0,0,0,0,0,10,10,10,1,0,1,0,,,,,,,,,,,,,,,,,,,,,,,,,,,,,,,,,,,,,,,,,,,,,,,,,,,,,,,,,,,,,,,,30,,,,,,,,565.4783556000002,565.4783556000002,565.4783556000002,565.4783556000002,565.4783556000002,down,3.845698799999809,1,0,0,99,0.48000000000000004,0.08,down,3.773860400000558,,,,,,,,,,,,,,,,,,,,,,,,,,,,,,,,,,,,,,,,,,,,,,,,,,,,,,,,,,,,0UGR16,train_x,red_square,top_right,2025-06-14_13h41.42.378,HideSeek_v1,2022.2.5,59.99098935331685,
,7,7,4,7,-3,0,46,,train_dim1_1,11,30,,,,2,0,2,0,,,,,,,,,0,0,0,0,0,10,10,10,2,0,2,0,,,,,,,,,,,,,,,,,,,,,,,,,,,,,,,,,,,,,,,,,,,,,,,,,,,,,,,,,,,,,,,,30,,,,,,,,569.3333566000001,569.3333566000001,569.3333566000001,569.3333566000001,569.3333566000001,left,1.0264014999993378,1,0,0,99,0.4,0.08,left,0.9456318000011379,,,,,,,,,,,,,,,,,,,,,,,,,,,,,,,,,,,,,,,,,,,,,,,,,,,,,,,,,,,,0UGR16,train_x,red_square,top_right,2025-06-14_13h41.42.378,HideSeek_v1,2022.2.5,59.99098935331685,
,7,7,4,7,-3,0,46,,train_dim1_1,11,30,,,,2,0,2,0,,,,,,,,,0,0,0,0,0,10,10,10,3,0,3,0,,,,,,,,,,,,,,,,,,,,,,,,,,,,,,,,,,,,,,,,,,,,,,,,,,,,,,,,,,,,,,,,30,,,,,,,,570.3657827999996,570.3657827999996,570.3657827999996,570.3657827999996,570.3657827999996,down,1.9112165000005916,1,0,0,99,0.4,0.0,down,1.8372643000002427,,,,,,,,,,,,,,,,,,,,,,,,,,,,,,,,,,,,,,,,,,,,,,,,,,,,,,,,,,,,0UGR16,train_x,red_square,top_right,2025-06-14_13h41.42.378,HideSeek_v1,2022.2.5,59.99098935331685,
,7,7,4,7,-3,0,46,,train_dim1_1,11,30,,,,2,0,2,0,,,,,,,,,0,0,0,0,0,10,10,10,4,0,4,0,,,,,,,,,,,,,,,,,,,,,,,,,,,,,,,,,,,,,,,,,,,,,,,,,,,,,,,,,,,,,,,,30,,,,,,,,572.2827949999992,572.2827949999992,572.2827949999992,572.2827949999992,572.2827949999992,down,1.194132599999648,1,0,0,99,0.4,-0.08,down,1.1099150000009104,,,,,,,,,,,,,,,,,,,,,,,,,,,,,,,,,,,,,,,,,,,,,,,,,,,,,,,,,,,,0UGR16,train_x,red_square,top_right,2025-06-14_13h41.42.378,HideSeek_v1,2022.2.5,59.99098935331685,
,7,7,4,7,-3,0,46,,train_dim1_1,11,30,,,,2,0,2,0,,,,,,,,,0,0,0,0,0,10,10,10,5,0,5,0,,,,,,,,,,,,,,,,,,,,,,,,,,,,,,,,,,,,,,,,,,,,,,,,,,,,,,,,,,,,,,,,30,,,,,,,,573.4838866999999,573.4838866999999,573.4838866999999,573.4838866999999,573.4838866999999,down,1.1605992000004335,1,0,0,99,0.4,-0.16,down,1.08798520000164,,,,,,,,,,,,,,,,,,,,,,,,,,,,,,,,,,,,,,,,,,,,,,,,,,,,,,,,,,,,0UGR16,train_x,red_square,top_right,2025-06-14_13h41.42.378,HideSeek_v1,2022.2.5,59.99098935331685,
,7,7,4,7,-3,0,46,,train_dim1_1,11,30,,,,2,0,2,0,,,,,,,,,0,0,0,0,0,10,10,10,6,0,6,0,,,,,,,,,,,,,,,,,,,,,,,,,,,,,,,,,,,,,,,,,,,,,,,,,,,,,,,,,,,,,,,,30,,,,,,,,574.6520693000002,574.6520693000002,574.6520693000002,574.6520693000002,574.6520693000002,down,1.077089000000342,1,0,0,99,0.4,-0.24,down,0.9944243999998434,,,,,,,,,,,,,,,,,,,,,,,,,,,,,,,,,,,,,,,,,,,,,,,,,,,,,,,,,,,,0UGR16,train_x,red_square,top_right,2025-06-14_13h41.42.378,HideSeek_v1,2022.2.5,59.99098935331685,
,7,7,4,7,-3,0,46,,train_dim1_1,11,30,,,,2,0,2,0,,,,,,,,,0,0,0,0,0,10,10,10,7,0,7,0,,,,,,,,,,,,,,,,,,,,,,,,,,,,,,,,,,,,,,,,,,,,,,,,,,,,,,,,,,,,,,,,30,,,,,,,,575.7366378000006,575.7366378000006,575.7366378000006,575.7366378000006,575.7366378000006,down,4.2797681000010925,1,0,0,99,0.4,-0.32,down,4.205728300001283,,,,,,,,,,,,,,,,,,,,,,,,,,,,,,,,,,,,,,,,,,,,,,,,,,,,,,,,,,,,0UGR16,train_x,red_square,top_right,2025-06-14_13h41.42.378,HideSeek_v1,2022.2.5,59.99098935331685,
,7,7,4,7,-3,0,46,,train_dim1_1,11,30,,,,2,0,2,0,,,,,,,,,0,0,0,0,0,10,10,10,8,0,8,0,,,,,,,,,,,,,,,,,,,,,,,,,,,,,,,,,,,,,,,,,,,,,,,,,,,,,,,,,,,,,,,,30,,,,,,,,580.023210899999,580.023210899999,580.023210899999,580.023210899999,580.023210899999,return,0.6436173000001872,1,0,0,0,0.4,-0.32,return,0.5634651000000304,-8,-12,0.4,-0.32,,,,,,,,,,,,,,,,,,,,,,,,,,,,,,,,,,,,,,,,,,,,,,,,,,,,,,,,0UGR16,train_x,red_square,top_right,2025-06-14_13h41.42.378,HideSeek_v1,2022.2.5,59.99098935331685,
,5,5,4,5,-1,0,26,,train_dim1_1,12,30,,,,2,0,2,0,,,,,,,,,0,0,0,0,0,11,11,11,0,0,0,0,,,,,,,,,,,,,,,,,,,,,,,,,stimuli/alien_stimuli/26.png,,,,,,,,,,,,,,,,,,,,,,,,,,,,,stimuli/alien_stimuli/46.png,46,7,13,,,,,,,30,,,,,,,,588.0978178999994,588.0978178999994,588.0978178999994,588.0978178999994,588.0978178999994,right,2.821007799999279,1,0,0,99,0.32,0,right,2.7296697000019776,,,,,586.5324259999998,588.0978178999994,0.16,0.16,0.0,0.24,0.16,0.16,0.28,0.16,0.16,582.2406525000006,582.2406525000006,582.2406525000006,582.2406525000006,582.2406525000006,582.2406525000006,582.2406525000006,582.2406525000006,582.2289819499997,4.406294200000048,return,4.274665000000823,,,,,,,,,,,,,,,,,,,,,,,,,,,,,,,,,0UGR16,train_x,red_square,top_right,2025-06-14_13h41.42.378,HideSeek_v1,2022.2.5,59.99098935331685,
,5,5,4,5,-1,0,26,,train_dim1_1,12,30,,,,2,0,2,0,,,,,,,,,0,0,0,0,0,11,11,11,1,0,1,0,,,,,,,,,,,,,,,,,,,,,,,,,,,,,,,,,,,,,,,,,,,,,,,,,,,,,,,,,,,,,,,,30,,,,,,,,590.9195598000006,590.9195598000006,590.9195598000006,590.9195598000006,590.9195598000006,up,2.311205299998619,1,0,0,99,0.32,0.08,up,2.21903470000143,,,,,,,,,,,,,,,,,,,,,,,,,,,,,,,,,,,,,,,,,,,,,,,,,,,,,,,,,,,,0UGR16,train_x,red_square,top_right,2025-06-14_13h41.42.378,HideSeek_v1,2022.2.5,59.99098935331685,
,5,5,4,5,-1,0,26,,train_dim1_1,12,30,,,,2,0,2,0,,,,,,,,,0,0,0,0,0,11,11,11,2,0,2,0,,,,,,,,,,,,,,,,,,,,,,,,,,,,,,,,,,,,,,,,,,,,,,,,,,,,,,,,,,,,,,,,30,,,,,,,,593.2377142999994,593.2377142999994,593.2377142999994,593.2377142999994,593.2377142999994,left,1.1605059999983496,1,0,0,99,0.24,0.08,left,1.0774610999997094,,,,,,,,,,,,,,,,,,,,,,,,,,,,,,,,,,,,,,,,,,,,,,,,,,,,,,,,,,,,0UGR16,train_x,red_square,top_right,2025-06-14_13h41.42.378,HideSeek_v1,2022.2.5,59.99098935331685,
,5,5,4,5,-1,0,26,,train_dim1_1,12,30,,,,2,0,2,0,,,,,,,,,0,0,0,0,0,11,11,11,3,0,3,0,,,,,,,,,,,,,,,,,,,,,,,,,,,,,,,,,,,,,,,,,,,,,,,,,,,,,,,,,,,,,,,,30,,,,,,,,594.4061194000005,594.4061194000005,594.4061194000005,594.4061194000005,594.4061194000005,up,1.3771732000004704,1,0,0,99,0.24,0.16,up,1.2928319000020565,,,,,,,,,,,,,,,,,,,,,,,,,,,,,,,,,,,,,,,,,,,,,,,,,,,,,,,,,,,,0UGR16,train_x,red_square,top_right,2025-06-14_13h41.42.378,HideSeek_v1,2022.2.5,59.99098935331685,
,5,5,4,5,-1,0,26,,train_dim1_1,12,30,,,,2,0,2,0,,,,,,,,,0,0,0,0,0,11,11,11,4,0,4,0,,,,,,,,,,,,,,,,,,,,,,,,,,,,,,,,,,,,,,,,,,,,,,,,,,,,,,,,,,,,,,,,30,,,,,,,,595.7896777999995,595.7896777999995,595.7896777999995,595.7896777999995,595.7896777999995,left,1.3779615000003105,1,0,0,99,0.15999999999999998,0.16,left,1.294529100001455,,,,,,,,,,,,,,,,,,,,,,,,,,,,,,,,,,,,,,,,,,,,,,,,,,,,,,,,,,,,0UGR16,train_x,red_square,top_right,2025-06-14_13h41.42.378,HideSeek_v1,2022.2.5,59.99098935331685,
,5,5,4,5,-1,0,26,,train_dim1_1,12,30,,,,2,0,2,0,,,,,,,,,0,0,0,0,0,11,11,11,5,0,5,0,,,,,,,,,,,,,,,,,,,,,,,,,,,,,,,,,,,,,,,,,,,,,,,,,,,,,,,,,,,,,,,,30,,,,,,,,597.1763346999996,597.1763346999996,597.1763346999996,597.1763346999996,597.1763346999996,left,0.49154180000005,1,0,0,99,0.07999999999999997,0.16,left,0.4067655000017112,,,,,,,,,,,,,,,,,,,,,,,,,,,,,,,,,,,,,,,,,,,,,,,,,,,,,,,,,,,,0UGR16,train_x,red_square,top_right,2025-06-14_13h41.42.378,HideSeek_v1,2022.2.5,59.99098935331685,
,5,5,4,5,-1,0,26,,train_dim1_1,12,30,,,,2,0,2,0,,,,,,,,,0,0,0,0,0,11,11,11,6,0,6,0,,,,,,,,,,,,,,,,,,,,,,,,,,,,,,,,,,,,,,,,,,,,,,,,,,,,,,,,,,,,,,,,30,,,,,,,,597.6766248999993,597.6766248999993,597.6766248999993,597.6766248999993,597.6766248999993,down,1.026667300000554,1,0,0,99,0.07999999999999997,0.08,down,0.9425113000015699,,,,,,,,,,,,,,,,,,,,,,,,,,,,,,,,,,,,,,,,,,,,,,,,,,,,,,,,,,,,0UGR16,train_x,red_square,top_right,2025-06-14_13h41.42.378,HideSeek_v1,2022.2.5,59.99098935331685,
,5,5,4,5,-1,0,26,,train_dim1_1,12,30,,,,2,0,2,0,,,,,,,,,0,0,0,0,0,11,11,11,7,0,7,0,,,,,,,,,,,,,,,,,,,,,,,,,,,,,,,,,,,,,,,,,,,,,,,,,,,,,,,,,,,,,,,,30,,,,,,,,598.7086906999994,598.7086906999994,598.7086906999994,598.7086906999994,598.7086906999994,down,0.40991890000077547,1,0,0,99,0.07999999999999997,0.0,down,0.3191673000001174,,,,,,,,,,,,,,,,,,,,,,,,,,,,,,,,,,,,,,,,,,,,,,,,,,,,,,,,,,,,0UGR16,train_x,red_square,top_right,2025-06-14_13h41.42.378,HideSeek_v1,2022.2.5,59.99098935331685,
,5,5,4,5,-1,0,26,,train_dim1_1,12,30,,,,2,0,2,0,,,,,,,,,0,0,0,0,0,11,11,11,8,0,8,0,,,,,,,,,,,,,,,,,,,,,,,,,,,,,,,,,,,,,,,,,,,,,,,,,,,,,,,,,,,,,,,,30,,,,,,,,599.1261988999995,599.1261988999995,599.1261988999995,599.1261988999995,599.1261988999995,right,3.929787799999758,1,0,0,99,0.15999999999999998,0.0,right,3.840287000000899,,,,,,,,,,,,,,,,,,,,,,,,,,,,,,,,,,,,,,,,,,,,,,,,,,,,,,,,,,,,0UGR16,train_x,red_square,top_right,2025-06-14_13h41.42.378,HideSeek_v1,2022.2.5,59.99098935331685,
,5,5,4,5,-1,0,26,,train_dim1_1,12,30,,,,2,0,2,0,,,,,,,,,0,0,0,0,0,11,11,11,9,0,9,0,,,,,,,,,,,,,,,,,,,,,,,,,,,,,,,,,,,,,,,,,,,,,,,,,,,,,,,,,,,,,,,,30,,,,,,,,603.0629081000006,603.0629081000006,603.0629081000006,603.0629081000006,603.0629081000006,return,1.8607091000012588,2,0,0,1,0.15999999999999998,0.0,return,1.7839592000018456,-8,-13,0.15999999999999998,0.0,,,,,,,,,,,,,,,,,,,,,,,,,,,,,,,,,,,,,,,,,,,,,,,,,,,,,,,,0UGR16,train_x,red_square,top_right,2025-06-14_13h41.42.378,HideSeek_v1,2022.2.5,59.99098935331685,
,5,9,1,9,-4,0,56,,train_dim1_1,13,30,,,,2,0,2,0,,,,,,,,,0,0,0,0,0,12,12,12,0,0,0,0,,,,,,,,,,,,,,,,,,,,,,,,,stimuli/alien_stimuli/56.png,,,,,,,,,,,,,,,,,,,,,,,,,,,,,stimuli/alien_stimuli/26.png,26,5,14,,,,,,,30,,,,,,,,611.1961616999997,611.1961616999997,611.1961616999997,611.1961616999997,611.1961616999997,right,1.9550228000007337,2,0,0,99,0.32,0.32,right,1.8658924000010302,,,,,609.6348830999996,611.1961616999997,0.16,0,0.0,0.08,0.0,0.16,0.2,0.16,0,606.5056688000004,606.5056688000004,606.5056688000004,606.5056688000004,606.5056688000004,606.5056688000004,606.5056688000004,606.5056688000004,606.4994619000005,3.254720000000816,return,3.097744300001068,,,,,,,,,,,,,,,,,,,,,,,,,,,,,,,,,0UGR16,train_x,red_square,top_right,2025-06-14_13h41.42.378,HideSeek_v1,2022.2.5,59.99098935331685,
,5,9,1,9,-4,0,56,,train_dim1_1,13,30,,,,2,0,2,0,,,,,,,,,0,0,0,0,0,12,12,12,1,0,1,0,,,,,,,,,,,,,,,,,,,,,,,,,,,,,,,,,,,,,,,,,,,,,,,,,,,,,,,,,,,,,,,,30,,,,,,,,613.1534608999991,613.1534608999991,613.1534608999991,613.1534608999991,613.1534608999991,down,3.0781334999992396,2,0,0,99,0.32,0.24,down,2.9977849000006245,,,,,,,,,,,,,,,,,,,,,,,,,,,,,,,,,,,,,,,,,,,,,,,,,,,,,,,,,,,,0UGR16,train_x,red_square,top_right,2025-06-14_13h41.42.378,HideSeek_v1,2022.2.5,59.99098935331685,
,5,9,1,9,-4,0,56,,train_dim1_1,13,30,,,,2,0,2,0,,,,,,,,,0,0,0,0,0,12,12,12,2,0,2,0,,,,,,,,,,,,,,,,,,,,,,,,,,,,,,,,,,,,,,,,,,,,,,,,,,,,,,,,,,,,,,,,30,,,,,,,,616.2394452999997,616.2394452999997,616.2394452999997,616.2394452999997,616.2394452999997,left,1.1436360999996396,2,0,0,99,0.24,0.24,left,1.0559732000001532,,,,,,,,,,,,,,,,,,,,,,,,,,,,,,,,,,,,,,,,,,,,,,,,,,,,,,,,,,,,0UGR16,train_x,red_square,top_right,2025-06-14_13h41.42.378,HideSeek_v1,2022.2.5,59.99098935331685,
,5,9,1,9,-4,0,56,,train_dim1_1,13,30,,,,2,0,2,0,,,,,,,,,0,0,0,0,0,12,12,12,3,0,3,0,,,,,,,,,,,,,,,,,,,,,,,,,,,,,,,,,,,,,,,,,,,,,,,,,,,,,,,,,,,,,,,,30,,,,,,,,617.3892598999992,617.3892598999992,617.3892598999992,617.3892598999992,617.3892598999992,up,2.328760599999441,2,0,0,99,0.24,0.32,up,2.2520071000017197,,,,,,,,,,,,,,,,,,,,,,,,,,,,,,,,,,,,,,,,,,,,,,,,,,,,,,,,,,,,0UGR16,train_x,red_square,top_right,2025-06-14_13h41.42.378,HideSeek_v1,2022.2.5,59.99098935331685,
,5,9,1,9,-4,0,56,,train_dim1_1,13,30,,,,2,0,2,0,,,,,,,,,0,0,0,0,0,12,12,12,4,0,4,0,,,,,,,,,,,,,,,,,,,,,,,,,,,,,,,,,,,,,,,,,,,,,,,,,,,,,,,,,,,,,,,,30,,,,,,,,619.7249429000003,619.7249429000003,619.7249429000003,619.7249429000003,619.7249429000003,left,0.7267647000007855,2,0,0,99,0.15999999999999998,0.32,left,0.6470398000001296,,,,,,,,,,,,,,,,,,,,,,,,,,,,,,,,,,,,,,,,,,,,,,,,,,,,,,,,,,,,0UGR16,train_x,red_square,top_right,2025-06-14_13h41.42.378,HideSeek_v1,2022.2.5,59.99098935331685,
,5,9,1,9,-4,0,56,,train_dim1_1,13,30,,,,2,0,2,0,,,,,,,,,0,0,0,0,0,12,12,12,5,0,5,0,,,,,,,,,,,,,,,,,,,,,,,,,,,,,,,,,,,,,,,,,,,,,,,,,,,,,,,,,,,,,,,,30,,,,,,,,620.4585050000005,620.4585050000005,620.4585050000005,620.4585050000005,620.4585050000005,return,4.245851699999548,2,0,0,0,0.15999999999999998,0.32,return,4.168437000002086,-8,-14,0.15999999999999998,0.32,,,,,,,,,,,,,,,,,,,,,,,,,,,,,,,,,,,,,,,,,,,,,,,,,,,,,,,,0UGR16,train_x,red_square,top_right,2025-06-14_13h41.42.378,HideSeek_v1,2022.2.5,59.99098935331685,
,9,8,9,8,0,0,16,,train_dim1_1,14,30,,,,2,0,2,0,,,,,,,,,0,0,0,0,0,13,13,13,0,0,0,0,,,,,,,,,,,,,,,,,,,,,,,,,stimuli/alien_stimuli/16.png,,,,,,,,,,,,,,,,,,,,,,,,,,,,,stimuli/alien_stimuli/56.png,56,5,15,,,,,,,30,,,,,,,,634.7177506000007,634.7177506000007,634.7177506000007,634.7177506000007,634.7177506000007,right,2.1561922000000777,2,0,0,99,0.64,0.24,right,2.0703227000012703,,,,,633.154508399999,634.7177506000007,-0.08,0.32,0.0,0.32,0.32,-0.08,0.07999999999999999,-0.08,0.32,626.282428999999,626.282428999999,626.282428999999,626.282428999999,626.282428999999,626.282428999999,626.282428999999,626.282428999999,626.2657720500006,6.991256699999212,return,6.846053700000994,,,,,,,,,,,,,,,,,,,,,,,,,,,,,,,,,0UGR16,train_x,red_square,top_right,2025-06-14_13h41.42.378,HideSeek_v1,2022.2.5,59.99098935331685,
,9,8,9,8,0,0,16,,train_dim1_1,14,30,,,,2,0,2,0,,,,,,,,,0,0,0,0,0,13,13,13,1,0,1,0,,,,,,,,,,,,,,,,,,,,,,,,,,,,,,,,,,,,,,,,,,,,,,,,,,,,,,,,,,,,,,,,30,,,,,,,,636.8746585999997,636.8746585999997,636.8746585999997,636.8746585999997,636.8746585999997,up,3.8290552999987995,2,0,0,99,0.64,0.32,up,3.737633200000346,,,,,,,,,,,,,,,,,,,,,,,,,,,,,,,,,,,,,,,,,,,,,,,,,,,,,,,,,,,,0UGR16,train_x,red_square,top_right,2025-06-14_13h41.42.378,HideSeek_v1,2022.2.5,59.99098935331685,
,9,8,9,8,0,0,16,,train_dim1_1,14,30,,,,2,0,2,0,,,,,,,,,0,0,0,0,0,13,13,13,2,0,2,0,,,,,,,,,,,,,,,,,,,,,,,,,,,,,,,,,,,,,,,,,,,,,,,,,,,,,,,,,,,,,,,,30,,,,,,,,640.7100788999996,640.7100788999996,640.7100788999996,640.7100788999996,640.7100788999996,left,1.110373299999992,2,0,0,99,0.56,0.32,left,1.0354511000005004,,,,,,,,,,,,,,,,,,,,,,,,,,,,,,,,,,,,,,,,,,,,,,,,,,,,,,,,,,,,0UGR16,train_x,red_square,top_right,2025-06-14_13h41.42.378,HideSeek_v1,2022.2.5,59.99098935331685,
,9,8,9,8,0,0,16,,train_dim1_1,14,30,,,,2,0,2,0,,,,,,,,,0,0,0,0,0,13,13,13,3,0,3,0,,,,,,,,,,,,,,,,,,,,,,,,,,,,,,,,,,,,,,,,,,,,,,,,,,,,,,,,,,,,,,,,30,,,,,,,,641.8279641999998,641.8279641999998,641.8279641999998,641.8279641999998,641.8279641999998,left,3.4962321000002703,2,0,0,99,0.48000000000000004,0.32,left,3.4141913000003115,,,,,,,,,,,,,,,,,,,,,,,,,,,,,,,,,,,,,,,,,,,,,,,,,,,,,,,,,,,,0UGR16,train_x,red_square,top_right,2025-06-14_13h41.42.378,HideSeek_v1,2022.2.5,59.99098935331685,
,9,8,9,8,0,0,16,,train_dim1_1,14,30,,,,2,0,2,0,,,,,,,,,0,0,0,0,0,13,13,13,4,0,4,0,,,,,,,,,,,,,,,,,,,,,,,,,,,,,,,,,,,,,,,,,,,,,,,,,,,,,,,,,,,,,,,,30,,,,,,,,645.3311587000007,645.3311587000007,645.3311587000007,645.3311587000007,645.3311587000007,down,1.5270400000008522,2,0,0,99,0.48000000000000004,0.24,down,1.4513517000013962,,,,,,,,,,,,,,,,,,,,,,,,,,,,,,,,,,,,,,,,,,,,,,,,,,,,,,,,,,,,0UGR16,train_x,red_square,top_right,2025-06-14_13h41.42.378,HideSeek_v1,2022.2.5,59.99098935331685,
,9,8,9,8,0,0,16,,train_dim1_1,14,30,,,,2,0,2,0,,,,,,,,,0,0,0,0,0,13,13,13,5,0,5,0,,,,,,,,,,,,,,,,,,,,,,,,,,,,,,,,,,,,,,,,,,,,,,,,,,,,,,,,,,,,,,,,30,,,,,,,,646.8666532999996,646.8666532999996,646.8666532999996,646.8666532999996,646.8666532999996,left,1.2940181000012672,2,0,0,99,0.4,0.24,left,1.2158579000006284,,,,,,,,,,,,,,,,,,,,,,,,,,,,,,,,,,,,,,,,,,,,,,,,,,,,,,,,,,,,0UGR16,train_x,red_square,top_right,2025-06-14_13h41.42.378,HideSeek_v1,2022.2.5,59.99098935331685,
,9,8,9,8,0,0,16,,train_dim1_1,14,30,,,,2,0,2,0,,,,,,,,,0,0,0,0,0,13,13,13,6,0,6,0,,,,,,,,,,,,,,,,,,,,,,,,,,,,,,,,,,,,,,,,,,,,,,,,,,,,,,,,,,,,,,,,30,,,,,,,,648.1716971999995,648.1716971999995,648.1716971999995,648.1716971999995,648.1716971999995,right,4.543821799999932,2,0,0,99,0.48000000000000004,0.24,right,4.457902600001034,,,,,,,,,,,,,,,,,,,,,,,,,,,,,,,,,,,,,,,,,,,,,,,,,,,,,,,,,,,,0UGR16,train_x,red_square,top_right,2025-06-14_13h41.42.378,HideSeek_v1,2022.2.5,59.99098935331685,
,9,8,9,8,0,0,16,,train_dim1_1,14,30,,,,2,0,2,0,,,,,,,,,0,0,0,0,0,13,13,13,7,0,7,0,,,,,,,,,,,,,,,,,,,,,,,,,,,,,,,,,,,,,,,,,,,,,,,,,,,,,,,,,,,,,,,,30,,,,,,,,652.7209203000002,652.7209203000002,652.7209203000002,652.7209203000002,652.7209203000002,right,1.3776168999993388,2,0,0,99,0.56,0.24,right,1.293274499999825,,,,,,,,,,,,,,,,,,,,,,,,,,,,,,,,,,,,,,,,,,,,,,,,,,,,,,,,,,,,0UGR16,train_x,red_square,top_right,2025-06-14_13h41.42.378,HideSeek_v1,2022.2.5,59.99098935331685,
,9,8,9,8,0,0,16,,train_dim1_1,14,30,,,,2,0,2,0,,,,,,,,,0,0,0,0,0,13,13,13,8,0,8,0,,,,,,,,,,,,,,,,,,,,,,,,,,,,,,,,,,,,,,,,,,,,,,,,,,,,,,,,,,,,,,,,30,,,,,,,,654.1047956999992,654.1047956999992,654.1047956999992,654.1047956999992,654.1047956999992,left,1.3439925999991829,2,0,0,99,0.48000000000000004,0.24,left,1.264797300002101,,,,,,,,,,,,,,,,,,,,,,,,,,,,,,,,,,,,,,,,,,,,,,,,,,,,,,,,,,,,0UGR16,train_x,red_square,top_right,2025-06-14_13h41.42.378,HideSeek_v1,2022.2.5,59.99098935331685,
,9,8,9,8,0,0,16,,train_dim1_1,14,30,,,,2,0,2,0,,,,,,,,,0,0,0,0,0,13,13,13,9,0,9,0,,,,,,,,,,,,,,,,,,,,,,,,,,,,,,,,,,,,,,,,,,,,,,,,,,,,,,,,,,,,,,,,30,,,,,,,,655.4574099000001,655.4574099000001,655.4574099000001,655.4574099000001,655.4574099000001,return,0.5427428999992117,2,1,0,0,0.48000000000000004,0.24,return,0.46212910000213014,-8,-15,0.48000000000000004,0.24,,,,,,,,,,,,,,,,,,,,,,,,,,,,,,,,,,,,,,,,,,,,,,,,,,,,,,,,0UGR16,train_x,red_square,top_right,2025-06-14_13h41.42.378,HideSeek_v1,2022.2.5,59.99098935331685,
,9,7,4,7,-5,0,66,,train_dim1_1,15,30,,,,2,0,2,0,,,,,,,,,0,0,0,0,0,14,14,14,0,0,0,0,,,,,,,,,,,,,,,,,,,,,,,,,stimuli/alien_stimuli/66.png,,,,,,,,,,,,,,,,,,,,,,,,,,,,,stimuli/alien_stimuli/16.png,16,9,16,,,,,,,30,,,,,,,,662.6877633999993,662.6877633999993,662.6877633999993,662.6877633999993,662.6877633999993,right,2.089795600000798,2,1,0,99,0.64,0.16,right,2.0092836000021634,,,,,661.1276324999999,662.6877633999993,0.56,0.24,0.0,0.0,0.24,0.56,0.56,0.56,0.24,657.5790383000003,657.5790383000003,657.5790383000003,657.5790383000003,657.5790383000003,657.5790383000003,657.5790383000003,657.5790383000003,657.5582208499995,3.6720943999989686,return,3.5191308000012214,,,,,,,,,,,,,,,,,,,,,,,,,,,,,,,,,0UGR16,train_x,red_square,top_right,2025-06-14_13h41.42.378,HideSeek_v1,2022.2.5,59.99098935331685,
,9,7,4,7,-5,0,66,,train_dim1_1,15,30,,,,2,0,2,0,,,,,,,,,0,0,0,0,0,14,14,14,1,0,1,0,,,,,,,,,,,,,,,,,,,,,,,,,,,,,,,,,,,,,,,,,,,,,,,,,,,,,,,,,,,,,,,,30,,,,,,,,664.7773718999997,664.7773718999997,664.7773718999997,664.7773718999997,664.7773718999997,left,0.9595826000004308,2,1,0,99,0.56,0.16,left,0.8855310000017198,,,,,,,,,,,,,,,,,,,,,,,,,,,,,,,,,,,,,,,,,,,,,,,,,,,,,,,,,,,,0UGR16,train_x,red_square,top_right,2025-06-14_13h41.42.378,HideSeek_v1,2022.2.5,59.99098935331685,
,9,7,4,7,-5,0,66,,train_dim1_1,15,30,,,,2,0,2,0,,,,,,,,,0,0,0,0,0,14,14,14,2,0,2,0,,,,,,,,,,,,,,,,,,,,,,,,,,,,,,,,,,,,,,,,,,,,,,,,,,,,,,,,,,,,,,,,30,,,,,,,,665.7443810000004,665.7443810000004,665.7443810000004,665.7443810000004,665.7443810000004,left,2.0945344000010664,2,1,0,99,0.48000000000000004,0.16,left,2.013404900000751,,,,,,,,,,,,,,,,,,,,,,,,,,,,,,,,,,,,,,,,,,,,,,,,,,,,,,,,,,,,0UGR16,train_x,red_square,top_right,2025-06-14_13h41.42.378,HideSeek_v1,2022.2.5,59.99098935331685,
,9,7,4,7,-5,0,66,,train_dim1_1,15,30,,,,2,0,2,0,,,,,,,,,0,0,0,0,0,14,14,14,3,0,3,0,,,,,,,,,,,,,,,,,,,,,,,,,,,,,,,,,,,,,,,,,,,,,,,,,,,,,,,,,,,,,,,,30,,,,,,,,667.8463190000002,667.8463190000002,667.8463190000002,667.8463190000002,667.8463190000002,left,4.41326780000054,2,1,0,99,0.4,0.16,left,4.32659010000134,,,,,,,,,,,,,,,,,,,,,,,,,,,,,,,,,,,,,,,,,,,,,,,,,,,,,,,,,,,,0UGR16,train_x,red_square,top_right,2025-06-14_13h41.42.378,HideSeek_v1,2022.2.5,59.99098935331685,
,9,7,4,7,-5,0,66,,train_dim1_1,15,30,,,,2,0,2,0,,,,,,,,,0,0,0,0,0,14,14,14,4,0,4,0,,,,,,,,,,,,,,,,,,,,,,,,,,,,,,,,,,,,,,,,,,,,,,,,,,,,,,,,,,,,,,,,30,,,,,,,,672.2680211999996,672.2680211999996,672.2680211999996,672.2680211999996,672.2680211999996,return,2.9616373000008025,2,0,0,0,0.4,0.16,return,2.872362600000997,-8,-17,0.4,0.16,,,,,,,,,,,,,,,,,,,,,,,,,,,,,,,,,,,,,,,,,,,,,,,,,,,,,,,,0UGR16,train_x,red_square,top_right,2025-06-14_13h41.42.378,HideSeek_v1,2022.2.5,59.99098935331685,
,8,8,4,8,-4,0,56,,train_dim1_1,16,30,,,,2,0,2,0,,,,,,,,,0,0,0,0,0,15,15,15,0,0,0,0,,,,,,,,,,,,,,,,,,,,,,,,,stimuli/alien_stimuli/56.png,,,,,,,,,,,,,,,,,,,,,,,,,,,,,stimuli/alien_stimuli/66.png,66,9,17,,,,,,,30,,,,,,,,684.5248575999995,684.5248575999995,684.5248575999995,684.5248575999995,684.5248575999995,right,2.9221957000008842,2,0,0,99,0.5599999999999999,0.24,right,2.8406481000019994,,,,,682.962383099999,684.5248575999995,0.16,0.16,0.0,0.4,0.16,0.16,0.36000000000000004,0.16,0.16,676.8033070000001,676.8033070000001,676.8033070000001,676.8033070000001,676.8033070000001,676.8033070000001,676.8033070000001,676.8033070000001,676.79069295,6.2742983999996795,return,6.12994560000152,,,,,,,,,,,,,,,,,,,,,,,,,,,,,,,,,0UGR16,train_x,red_square,top_right,2025-06-14_13h41.42.378,HideSeek_v1,2022.2.5,59.99098935331685,
,8,8,4,8,-4,0,56,,train_dim1_1,16,30,,,,2,0,2,0,,,,,,,,,0,0,0,0,0,15,15,15,1,0,1,0,,,,,,,,,,,,,,,,,,,,,,,,,,,,,,,,,,,,,,,,,,,,,,,,,,,,,,,,,,,,,,,,30,,,,,,,,687.4483794000007,687.4483794000007,687.4483794000007,687.4483794000007,687.4483794000007,left,1.9273921999993036,2,0,0,99,0.4799999999999999,0.24,left,1.8431913000003988,,,,,,,,,,,,,,,,,,,,,,,,,,,,,,,,,,,,,,,,,,,,,,,,,,,,,,,,,,,,0UGR16,train_x,red_square,top_right,2025-06-14_13h41.42.378,HideSeek_v1,2022.2.5,59.99098935331685,
,8,8,4,8,-4,0,56,,train_dim1_1,16,30,,,,2,0,2,0,,,,,,,,,0,0,0,0,0,15,15,15,2,0,2,0,,,,,,,,,,,,,,,,,,,,,,,,,,,,,,,,,,,,,,,,,,,,,,,,,,,,,,,,,,,,,,,,30,,,,,,,,689.3821601,689.3821601,689.3821601,689.3821601,689.3821601,left,2.1780646000006527,2,0,0,99,0.3999999999999999,0.24,left,2.1002703000012843,,,,,,,,,,,,,,,,,,,,,,,,,,,,,,,,,,,,,,,,,,,,,,,,,,,,,,,,,,,,0UGR16,train_x,red_square,top_right,2025-06-14_13h41.42.378,HideSeek_v1,2022.2.5,59.99098935331685,
,8,8,4,8,-4,0,56,,train_dim1_1,16,30,,,,2,0,2,0,,,,,,,,,0,0,0,0,0,15,15,15,3,0,3,0,,,,,,,,,,,,,,,,,,,,,,,,,,,,,,,,,,,,,,,,,,,,,,,,,,,,,,,,,,,,,,,,30,,,,,,,,691.5672061999994,691.5672061999994,691.5672061999994,691.5672061999994,691.5672061999994,left,0.777269599999272,2,0,0,99,0.3199999999999999,0.24,left,0.7024872000001778,,,,,,,,,,,,,,,,,,,,,,,,,,,,,,,,,,,,,,,,,,,,,,,,,,,,,,,,,,,,0UGR16,train_x,red_square,top_right,2025-06-14_13h41.42.378,HideSeek_v1,2022.2.5,59.99098935331685,
,8,8,4,8,-4,0,56,,train_dim1_1,16,30,,,,2,0,2,0,,,,,,,,,0,0,0,0,0,15,15,15,4,0,4,0,,,,,,,,,,,,,,,,,,,,,,,,,,,,,,,,,,,,,,,,,,,,,,,,,,,,,,,,,,,,,,,,30,,,,,,,,692.3523958000005,692.3523958000005,692.3523958000005,692.3523958000005,692.3523958000005,left,0.6097358999995777,2,0,0,99,0.23999999999999988,0.24,left,0.5202484000019467,,,,,,,,,,,,,,,,,,,,,,,,,,,,,,,,,,,,,,,,,,,,,,,,,,,,,,,,,,,,0UGR16,train_x,red_square,top_right,2025-06-14_13h41.42.378,HideSeek_v1,2022.2.5,59.99098935331685,
,8,8,4,8,-4,0,56,,train_dim1_1,16,30,,,,2,0,2,0,,,,,,,,,0,0,0,0,0,15,15,15,5,0,5,0,,,,,,,,,,,,,,,,,,,,,,,,,,,,,,,,,,,,,,,,,,,,,,,,,,,,,,,,,,,,,,,,30,,,,,,,,692.9691729999995,692.9691729999995,692.9691729999995,692.9691729999995,692.9691729999995,left,3.0784951000005094,2,0,0,99,0.15999999999999986,0.24,left,3.0033090000015363,,,,,,,,,,,,,,,,,,,,,,,,,,,,,,,,,,,,,,,,,,,,,,,,,,,,,,,,,,,,0UGR16,train_x,red_square,top_right,2025-06-14_13h41.42.378,HideSeek_v1,2022.2.5,59.99098935331685,
,8,8,4,8,-4,0,56,,train_dim1_1,16,30,,,,2,0,2,0,,,,,,,,,0,0,0,0,0,15,15,15,6,0,6,0,,,,,,,,,,,,,,,,,,,,,,,,,,,,,,,,,,,,,,,,,,,,,,,,,,,,,,,,,,,,,,,,30,,,,,,,,696.0550265000002,696.0550265000002,696.0550265000002,696.0550265000002,696.0550265000002,left,0.5768864000001486,2,0,0,99,0.07999999999999986,0.24,left,0.4864618000010523,,,,,,,,,,,,,,,,,,,,,,,,,,,,,,,,,,,,,,,,,,,,,,,,,,,,,,,,,,,,0UGR16,train_x,red_square,top_right,2025-06-14_13h41.42.378,HideSeek_v1,2022.2.5,59.99098935331685,
,8,8,4,8,-4,0,56,,train_dim1_1,16,30,,,,2,0,2,0,,,,,,,,,0,0,0,0,0,15,15,15,7,0,7,0,,,,,,,,,,,,,,,,,,,,,,,,,,,,,,,,,,,,,,,,,,,,,,,,,,,,,,,,,,,,,,,,30,,,,,,,,696.6381872000002,696.6381872000002,696.6381872000002,696.6381872000002,696.6381872000002,return,1.2774138000004314,2,1,0,0,0.07999999999999986,0.24,return,1.1988780000010593,-8,-22,0.07999999999999986,0.24,,,,,,,,,,,,,,,,,,,,,,,,,,,,,,,,,,,,,,,,,,,,,,,,,,,,,,,,0UGR16,train_x,red_square,top_right,2025-06-14_13h41.42.378,HideSeek_v1,2022.2.5,59.99098935331685,
,7,9,6,9,-1,0,26,,train_dim1_1,17,30,,,,2,0,2,0,,,,,,,,,0,0,0,0,0,16,16,16,0,0,0,0,,,,,,,,,,,,,,,,,,,,,,,,,stimuli/alien_stimuli/26.png,,,,,,,,,,,,,,,,,,,,,,,,,,,,,stimuli/alien_stimuli/56.png,56,8,18,,,,,,,30,,,,,,,,706.1592966999997,706.1592966999997,706.1592966999997,706.1592966999997,706.1592966999997,down,2.1728865999994014,2,1,0,99,0.4,0.24,down,2.090748900000108,,,,,704.5968092999992,706.1592966999997,0.16,0.24,0.0,0.32,0.24,0.16,0.32,0.16,0.24,699.4929900999996,699.4929900999996,699.4929900999996,699.4929900999996,699.4929900999996,699.4929900999996,699.4929900999996,699.4929900999996,699.4766291499996,5.22298629999932,return,5.074532900000122,,,,,,,,,,,,,,,,,,,,,,,,,,,,,,,,,0UGR16,train_x,red_square,top_right,2025-06-14_13h41.42.378,HideSeek_v1,2022.2.5,59.99098935331685,
,7,9,6,9,-1,0,26,,train_dim1_1,17,30,,,,2,0,2,0,,,,,,,,,0,0,0,0,0,16,16,16,1,0,1,0,,,,,,,,,,,,,,,,,,,,,,,,,,,,,,,,,,,,,,,,,,,,,,,,,,,,,,,,,,,,,,,,30,,,,,,,,708.3336522999998,708.3336522999998,708.3336522999998,708.3336522999998,708.3336522999998,down,4.879875099999481,2,1,0,99,0.4,0.15999999999999998,down,4.791345100002218,,,,,,,,,,,,,,,,,,,,,,,,,,,,,,,,,,,,,,,,,,,,,,,,,,,,,,,,,,,,0UGR16,train_x,red_square,top_right,2025-06-14_13h41.42.378,HideSeek_v1,2022.2.5,59.99098935331685,
,7,9,6,9,-1,0,26,,train_dim1_1,17,30,,,,2,0,2,0,,,,,,,,,0,0,0,0,0,16,16,16,2,0,2,0,,,,,,,,,,,,,,,,,,,,,,,,,,,,,,,,,,,,,,,,,,,,,,,,,,,,,,,,,,,,,,,,30,,,,,,,,713.220551299999,713.220551299999,713.220551299999,713.220551299999,713.220551299999,return,1.3608779000005597,2,0,0,0,0.4,0.15999999999999998,return,1.2802059000005102,-10,-22,0.4,0.15999999999999998,,,,,,,,,,,,,,,,,,,,,,,,,,,,,,,,,,,,,,,,,,,,,,,,,,,,,,,,0UGR16,train_x,red_square,top_right,2025-06-14_13h41.42.378,HideSeek_v1,2022.2.5,59.99098935331685,
,7,6,2,6,-5,0,66,,train_dim1_1,18,30,,,,2,0,2,0,,,,,,,,,0,0,0,0,0,17,17,17,0,0,0,0,,,,,,,,,,,,,,,,,,,,,,,,,stimuli/alien_stimuli/66.png,,,,,,,,,,,,,,,,,,,,,,,,,,,,,stimuli/alien_stimuli/26.png,26,7,19,,,,,,,30,,,,,,,,721.0859934,721.0859934,721.0859934,721.0859934,721.0859934,right,2.238658200001737,2,0,0,99,0.48000000000000004,0.08,right,2.14642350000031,,,,,719.5259874999992,721.0859934,0.32,0.32,0.0,0.08,0.32,0.32,0.36,0.32,0.32,716.1630193000001,716.1630193000001,716.1630193000001,716.1630193000001,716.1630193000001,716.1630193000001,716.1630193000001,716.1630193000001,716.1569467999994,3.488330700000006,return,3.3415783000000374,,,,,,,,,,,,,,,,,,,,,,,,,,,,,,,,,0UGR16,train_x,red_square,top_right,2025-06-14_13h41.42.378,HideSeek_v1,2022.2.5,59.99098935331685,
,7,6,2,6,-5,0,66,,train_dim1_1,18,30,,,,2,0,2,0,,,,,,,,,0,0,0,0,0,17,17,17,1,0,1,0,,,,,,,,,,,,,,,,,,,,,,,,,,,,,,,,,,,,,,,,,,,,,,,,,,,,,,,,,,,,,,,,30,,,,,,,,723.3257954000001,723.3257954000001,723.3257954000001,723.3257954000001,723.3257954000001,left,5.3135059000014735,2,0,0,99,0.4,0.08,left,5.2259471000015765,,,,,,,,,,,,,,,,,,,,,,,,,,,,,,,,,,,,,,,,,,,,,,,,,,,,,,,,,,,,0UGR16,train_x,red_square,top_right,2025-06-14_13h41.42.378,HideSeek_v1,2022.2.5,59.99098935331685,
,7,6,2,6,-5,0,66,,train_dim1_1,18,30,,,,2,0,2,0,,,,,,,,,0,0,0,0,0,17,17,17,2,0,2,0,,,,,,,,,,,,,,,,,,,,,,,,,,,,,,,,,,,,,,,,,,,,,,,,,,,,,,,,,,,,,,,,30,,,,,,,,728.6465786999997,728.6465786999997,728.6465786999997,728.6465786999997,728.6465786999997,left,1.1601866000000882,2,0,0,99,0.32,0.08,left,1.0872238000010839,,,,,,,,,,,,,,,,,,,,,,,,,,,,,,,,,,,,,,,,,,,,,,,,,,,,,,,,,,,,0UGR16,train_x,red_square,top_right,2025-06-14_13h41.42.378,HideSeek_v1,2022.2.5,59.99098935331685,
,7,6,2,6,-5,0,66,,train_dim1_1,18,30,,,,2,0,2,0,,,,,,,,,0,0,0,0,0,17,17,17,3,0,3,0,,,,,,,,,,,,,,,,,,,,,,,,,,,,,,,,,,,,,,,,,,,,,,,,,,,,,,,,,,,,,,,,30,,,,,,,,729.8136931999998,729.8136931999998,729.8136931999998,729.8136931999998,729.8136931999998,left,0.9942353000005824,2,0,0,99,0.24,0.08,left,0.9062055000013061,,,,,,,,,,,,,,,,,,,,,,,,,,,,,,,,,,,,,,,,,,,,,,,,,,,,,,,,,,,,0UGR16,train_x,red_square,top_right,2025-06-14_13h41.42.378,HideSeek_v1,2022.2.5,59.99098935331685,
,7,6,2,6,-5,0,66,,train_dim1_1,18,30,,,,2,0,2,0,,,,,,,,,0,0,0,0,0,17,17,17,4,0,4,0,,,,,,,,,,,,,,,,,,,,,,,,,,,,,,,,,,,,,,,,,,,,,,,,,,,,,,,,,,,,,,,,30,,,,,,,,730.8145416999996,730.8145416999996,730.8145416999996,730.8145416999996,730.8145416999996,left,1.493900899999062,2,0,0,99,0.15999999999999998,0.08,left,1.406438200001503,,,,,,,,,,,,,,,,,,,,,,,,,,,,,,,,,,,,,,,,,,,,,,,,,,,,,,,,,,,,0UGR16,train_x,red_square,top_right,2025-06-14_13h41.42.378,HideSeek_v1,2022.2.5,59.99098935331685,
,7,6,2,6,-5,0,66,,train_dim1_1,18,30,,,,2,0,2,0,,,,,,,,,0,0,0,0,0,17,17,17,5,0,5,0,,,,,,,,,,,,,,,,,,,,,,,,,,,,,,,,,,,,,,,,,,,,,,,,,,,,,,,,,,,,,,,,30,,,,,,,,732.3154259999992,732.3154259999992,732.3154259999992,732.3154259999992,732.3154259999992,left,0.8102364000005764,2,0,0,99,0.07999999999999997,0.08,left,0.7307555000006687,,,,,,,,,,,,,,,,,,,,,,,,,,,,,,,,,,,,,,,,,,,,,,,,,,,,,,,,,,,,0UGR16,train_x,red_square,top_right,2025-06-14_13h41.42.378,HideSeek_v1,2022.2.5,59.99098935331685,
,7,6,2,6,-5,0,66,,train_dim1_1,18,30,,,,2,0,2,0,,,,,,,,,0,0,0,0,0,17,17,17,6,0,6,0,,,,,,,,,,,,,,,,,,,,,,,,,,,,,,,,,,,,,,,,,,,,,,,,,,,,,,,,,,,,,,,,30,,,,,,,,733.1330842999996,733.1330842999996,733.1330842999996,733.1330842999996,733.1330842999996,left,0.8435664000007819,2,0,0,99,-2.7755575615628914e-17,0.08,left,0.7559629999996105,,,,,,,,,,,,,,,,,,,,,,,,,,,,,,,,,,,,,,,,,,,,,,,,,,,,,,,,,,,,0UGR16,train_x,red_square,top_right,2025-06-14_13h41.42.378,HideSeek_v1,2022.2.5,59.99098935331685,
,7,6,2,6,-5,0,66,,train_dim1_1,18,30,,,,2,0,2,0,,,,,,,,,0,0,0,0,0,17,17,17,7,0,7,0,,,,,,,,,,,,,,,,,,,,,,,,,,,,,,,,,,,,,,,,,,,,,,,,,,,,,,,,,,,,,,,,30,,,,,,,,733.984758999999,733.984758999999,733.984758999999,733.984758999999,733.984758999999,return,0.8432419999990088,3,0,0,1,-2.7755575615628914e-17,0.08,return,0.7581995000000461,-10,-27,-2.7755575615628914e-17,0.08,,,,,,,,,,,,,,,,,,,,,,,,,,,,,,,,,,,,,,,,,,,,,,,,,,,,,,,,0UGR16,train_x,red_square,top_right,2025-06-14_13h41.42.378,HideSeek_v1,2022.2.5,59.99098935331685,
,5,8,2,8,-3,0,46,,train_dim1_1,19,30,,,,2,0,2,0,,,,,,,,,0,0,0,0,0,18,18,18,0,0,0,0,,,,,,,,,,,,,,,,,,,,,,,,,stimuli/alien_stimuli/46.png,,,,,,,,,,,,,,,,,,,,,,,,,,,,,stimuli/alien_stimuli/66.png,66,7,20,,,,,,,30,,,,,,,,745.7541927000002,745.7541927000002,745.7541927000002,745.7541927000002,745.7541927000002,down,4.709257000000434,3,0,0,99,0.24,0.15999999999999998,down,4.616187800000262,,,,,744.1964212000003,745.7541927000002,0,0.08,0.0,0.4,0.08,0,0.2,0,0.08,736.4094616000002,736.4094616000002,736.4094616000002,736.4094616000002,736.4094616000002,736.4094616000002,736.4094616000002,736.4094616000002,736.3903367500002,7.9091434000001755,return,7.767998600002102,,,,,,,,,,,,,,,,,,,,,,,,,,,,,,,,,0UGR16,train_x,red_square,top_right,2025-06-14_13h41.42.378,HideSeek_v1,2022.2.5,59.99098935331685,
,5,8,2,8,-3,0,46,,train_dim1_1,19,30,,,,2,0,2,0,,,,,,,,,0,0,0,0,0,18,18,18,1,0,1,0,,,,,,,,,,,,,,,,,,,,,,,,,,,,,,,,,,,,,,,,,,,,,,,,,,,,,,,,,,,,,,,,30,,,,,,,,750.4649351999997,750.4649351999997,750.4649351999997,750.4649351999997,750.4649351999997,down,1.2438898000000336,3,0,0,99,0.24,0.07999999999999997,down,1.161143200000879,,,,,,,,,,,,,,,,,,,,,,,,,,,,,,,,,,,,,,,,,,,,,,,,,,,,,,,,,,,,0UGR16,train_x,red_square,top_right,2025-06-14_13h41.42.378,HideSeek_v1,2022.2.5,59.99098935331685,
,5,8,2,8,-3,0,46,,train_dim1_1,19,30,,,,2,0,2,0,,,,,,,,,0,0,0,0,0,18,18,18,2,0,2,0,,,,,,,,,,,,,,,,,,,,,,,,,,,,,,,,,,,,,,,,,,,,,,,,,,,,,,,,,,,,,,,,30,,,,,,,,751.7153469999994,751.7153469999994,751.7153469999994,751.7153469999994,751.7153469999994,down,1.3771954999992886,3,0,0,99,0.24,-2.7755575615628914e-17,down,1.3035110000000714,,,,,,,,,,,,,,,,,,,,,,,,,,,,,,,,,,,,,,,,,,,,,,,,,,,,,,,,,,,,0UGR16,train_x,red_square,top_right,2025-06-14_13h41.42.378,HideSeek_v1,2022.2.5,59.99098935331685,
,5,8,2,8,-3,0,46,,train_dim1_1,19,30,,,,2,0,2,0,,,,,,,,,0,0,0,0,0,18,18,18,3,0,3,0,,,,,,,,,,,,,,,,,,,,,,,,,,,,,,,,,,,,,,,,,,,,,,,,,,,,,,,,,,,,,,,,30,,,,,,,,753.0994570999992,753.0994570999992,753.0994570999992,753.0994570999992,753.0994570999992,return,2.5617347000006703,3,0,0,0,0.24,-2.7755575615628914e-17,return,2.4850565000015195,-13,-27,0.24,-2.7755575615628914e-17,,,,,,,,,,,,,,,,,,,,,,,,,,,,,,,,,,,,,,,,,,,,,,,,,,,,,,,,0UGR16,train_x,red_square,top_right,2025-06-14_13h41.42.378,HideSeek_v1,2022.2.5,59.99098935331685,
,5,6,5,6,0,0,16,,train_dim1_1,20,30,,,,2,0,2,0,,,,,,,,,0,0,0,0,0,19,19,19,0,0,0,0,,,,,,,,,,,,,,,,,,,,,,,,,stimuli/alien_stimuli/16.png,,,,,,,,,,,,,,,,,,,,,,,,,,,,,stimuli/alien_stimuli/46.png,46,5,21,,,,,,,30,,,,,,,,763.0731025999994,763.0731025999994,763.0731025999994,763.0731025999994,763.0731025999994,left,7.445260800001051,3,0,0,99,0.15999999999999998,0.08,left,7.354545700001836,,,,,761.5108232000002,763.0731025999994,0,0.24,0.0,0.24,0.24,0,0.12,0,0.24,757.234872699999,757.234872699999,757.234872699999,757.234872699999,757.234872699999,757.234872699999,757.234872699999,757.234872699999,757.2242088500002,4.389447300000029,return,4.249075300002005,,,,,,,,,,,,,,,,,,,,,,,,,,,,,,,,,0UGR16,train_x,red_square,top_right,2025-06-14_13h41.42.378,HideSeek_v1,2022.2.5,59.99098935331685,
,5,6,5,6,0,0,16,,train_dim1_1,20,30,,,,2,0,2,0,,,,,,,,,0,0,0,0,0,19,19,19,1,0,1,0,,,,,,,,,,,,,,,,,,,,,,,,,,,,,,,,,,,,,,,,,,,,,,,,,,,,,,,,,,,,,,,,30,,,,,,,,770.5206213000001,770.5206213000001,770.5206213000001,770.5206213000001,770.5206213000001,left,5.246550199999547,3,0,0,99,0.07999999999999997,0.08,left,5.159278400002222,,,,,,,,,,,,,,,,,,,,,,,,,,,,,,,,,,,,,,,,,,,,,,,,,,,,,,,,,,,,0UGR16,train_x,red_square,top_right,2025-06-14_13h41.42.378,HideSeek_v1,2022.2.5,59.99098935331685,
,5,6,5,6,0,0,16,,train_dim1_1,20,30,,,,2,0,2,0,,,,,,,,,0,0,0,0,0,19,19,19,2,0,2,0,,,,,,,,,,,,,,,,,,,,,,,,,,,,,,,,,,,,,,,,,,,,,,,,,,,,,,,,,,,,,,,,30,,,,,,,,775.7737694999996,775.7737694999996,775.7737694999996,775.7737694999996,775.7737694999996,left,3.8793101999999635,3,0,0,99,-2.7755575615628914e-17,0.08,left,3.786930199999915,,,,,,,,,,,,,,,,,,,,,,,,,,,,,,,,,,,,,,,,,,,,,,,,,,,,,,,,,,,,0UGR16,train_x,red_square,top_right,2025-06-14_13h41.42.378,HideSeek_v1,2022.2.5,59.99098935331685,
,5,6,5,6,0,0,16,,train_dim1_1,20,30,,,,2,0,2,0,,,,,,,,,0,0,0,0,0,19,19,19,3,0,3,0,,,,,,,,,,,,,,,,,,,,,,,,,,,,,,,,,,,,,,,,,,,,,,,,,,,,,,,,,,,,,,,,30,,,,,,,,779.6593037999992,779.6593037999992,779.6593037999992,779.6593037999992,779.6593037999992,left,0.8768767999990814,3,0,0,99,-0.08000000000000003,0.08,left,0.7913655000011204,,,,,,,,,,,,,,,,,,,,,,,,,,,,,,,,,,,,,,,,,,,,,,,,,,,,,,,,,,,,0UGR16,train_x,red_square,top_right,2025-06-14_13h41.42.378,HideSeek_v1,2022.2.5,59.99098935331685,
,5,6,5,6,0,0,16,,train_dim1_1,20,30,,,,2,0,2,0,,,,,,,,,0,0,0,0,0,19,19,19,4,0,4,0,,,,,,,,,,,,,,,,,,,,,,,,,,,,,,,,,,,,,,,,,,,,,,,,,,,,,,,,,,,,,,,,30,,,,,,,,780.5433565000003,780.5433565000003,780.5433565000003,780.5433565000003,780.5433565000003,right,6.6654459000001225,3,0,0,99,-2.7755575615628914e-17,0.08,right,6.58390220000183,,,,,,,,,,,,,,,,,,,,,,,,,,,,,,,,,,,,,,,,,,,,,,,,,,,,,,,,,,,,0UGR16,train_x,red_square,top_right,2025-06-14_13h41.42.378,HideSeek_v1,2022.2.5,59.99098935331685,
,5,6,5,6,0,0,16,,train_dim1_1,20,30,,,,2,0,2,0,,,,,,,,,0,0,0,0,0,19,19,19,5,0,5,0,,,,,,,,,,,,,,,,,,,,,,,,,,,,,,,,,,,,,,,,,,,,,,,,,,,,,,,,,,,,,,,,30,,,,,,,,787.2162736999999,787.2162736999999,787.2162736999999,787.2162736999999,787.2162736999999,left,3.5455316999996285,3,0,0,99,-0.08000000000000003,0.08,left,3.4635467999996763,,,,,,,,,,,,,,,,,,,,,,,,,,,,,,,,,,,,,,,,,,,,,,,,,,,,,,,,,,,,0UGR16,train_x,red_square,top_right,2025-06-14_13h41.42.378,HideSeek_v1,2022.2.5,59.99098935331685,
,5,6,5,6,0,0,16,,train_dim1_1,20,30,,,,2,0,2,0,,,,,,,,,0,0,0,0,0,19,19,19,6,0,6,0,,,,,,,,,,,,,,,,,,,,,,,,,,,,,,,,,,,,,,,,,,,,,,,,,,,,,,,,,,,,,,,,30,,,,,,,,790.7683901,790.7683901,790.7683901,790.7683901,790.7683901,return,0.6930630999995628,3,0,0,0,-0.08000000000000003,0.08,return,0.6023090000016964,-13,-31,-0.08000000000000003,0.08,,,,,,,,,,,,,,,,,,,,,,,,,,,,,,,,,,,,,,,,,,,,,,,,,,,,,,,,0UGR16,train_x,red_square,top_right,2025-06-14_13h41.42.378,HideSeek_v1,2022.2.5,59.99098935331685,
,9,7,6,7,-3,0,46,,train_dim1_1,21,30,,,,2,0,2,0,,,,,,,,,0,0,0,0,0,20,20,20,0,0,0,0,,,,,,,,,,,,,,,,,,,,,,,,,stimuli/alien_stimuli/46.png,,,,,,,,,,,,,,,,,,,,,,,,,,,,,stimuli/alien_stimuli/16.png,16,5,22,,,,,,,30,,,,,,,,797.9301095999999,797.9301095999999,797.9301095999999,797.9301095999999,797.9301095999999,right,2.357951400001184,3,0,0,99,0.64,0.16,right,2.2691592000010132,,,,,796.3730118000003,797.9301095999999,0.24,0.08,0.0,0.0,0.08,0.24,0.24,0.24,0.08,793.0464405000002,793.0464405000002,793.0464405000002,793.0464405000002,793.0464405000002,793.0464405000002,793.0464405000002,793.0464405000002,793.0376377999997,3.4551249999985885,return,3.309489700000995,,,,,,,,,,,,,,,,,,,,,,,,,,,,,,,,,0UGR16,train_x,red_square,top_right,2025-06-14_13h41.42.378,HideSeek_v1,2022.2.5,59.99098935331685,
,9,7,6,7,-3,0,46,,train_dim1_1,21,30,,,,2,0,2,0,,,,,,,,,0,0,0,0,0,20,20,20,1,0,1,0,,,,,,,,,,,,,,,,,,,,,,,,,,,,,,,,,,,,,,,,,,,,,,,,,,,,,,,,,,,,,,,,30,,,,,,,,800.2901696999998,800.2901696999998,800.2901696999998,800.2901696999998,800.2901696999998,left,1.2268165000004956,3,0,0,99,0.56,0.16,left,1.149942000001829,,,,,,,,,,,,,,,,,,,,,,,,,,,,,,,,,,,,,,,,,,,,,,,,,,,,,,,,,,,,0UGR16,train_x,red_square,top_right,2025-06-14_13h41.42.378,HideSeek_v1,2022.2.5,59.99098935331685,
,9,7,6,7,-3,0,46,,train_dim1_1,21,30,,,,2,0,2,0,,,,,,,,,0,0,0,0,0,20,20,20,2,0,2,0,,,,,,,,,,,,,,,,,,,,,,,,,,,,,,,,,,,,,,,,,,,,,,,,,,,,,,,,,,,,,,,,30,,,,,,,,801.5232687999996,801.5232687999996,801.5232687999996,801.5232687999996,801.5232687999996,left,3.6126204000011057,3,0,0,99,0.48000000000000004,0.16,left,3.5256396000004315,,,,,,,,,,,,,,,,,,,,,,,,,,,,,,,,,,,,,,,,,,,,,,,,,,,,,,,,,,,,0UGR16,train_x,red_square,top_right,2025-06-14_13h41.42.378,HideSeek_v1,2022.2.5,59.99098935331685,
,9,7,6,7,-3,0,46,,train_dim1_1,21,30,,,,2,0,2,0,,,,,,,,,0,0,0,0,0,20,20,20,3,0,3,0,,,,,,,,,,,,,,,,,,,,,,,,,,,,,,,,,,,,,,,,,,,,,,,,,,,,,,,,,,,,,,,,30,,,,,,,,805.1434981999992,805.1434981999992,805.1434981999992,805.1434981999992,805.1434981999992,return,1.6941284000004089,3,0,0,0,0.48000000000000004,0.16,return,1.6172896000025503,-13,-32,0.48000000000000004,0.16,,,,,,,,,,,,,,,,,,,,,,,,,,,,,,,,,,,,,,,,,,,,,,,,,,,,,,,,0UGR16,train_x,red_square,top_right,2025-06-14_13h41.42.378,HideSeek_v1,2022.2.5,59.99098935331685,
,6,5,5,5,-1,0,26,,train_dim1_1,22,30,,,,2,0,2,0,,,,,,,,,0,0,0,0,0,21,21,21,0,0,0,0,,,,,,,,,,,,,,,,,,,,,,,,,stimuli/alien_stimuli/26.png,,,,,,,,,,,,,,,,,,,,,,,,,,,,,stimuli/alien_stimuli/46.png,46,9,23,,,,,,,30,,,,,,,,818.5209933000006,818.5209933000006,818.5209933000006,818.5209933000006,818.5209933000006,up,4.390996899999664,3,0,0,99,0.32,0.08,up,4.302982400000474,,,,,816.9568958,818.5209933000006,0.32,0.16,0.0,0.24,0.16,0.32,0.44000000000000006,0.32,0.16,808.415130899999,808.415130899999,808.415130899999,808.415130899999,808.415130899999,808.415130899999,808.415130899999,808.415130899999,808.4004369499994,8.659084799999619,return,8.513412200001767,,,,,,,,,,,,,,,,,,,,,,,,,,,,,,,,,0UGR16,train_x,red_square,top_right,2025-06-14_13h41.42.378,HideSeek_v1,2022.2.5,59.99098935331685,
,6,5,5,5,-1,0,26,,train_dim1_1,22,30,,,,2,0,2,0,,,,,,,,,0,0,0,0,0,21,21,21,1,0,1,0,,,,,,,,,,,,,,,,,,,,,,,,,,,,,,,,,,,,,,,,,,,,,,,,,,,,,,,,,,,,,,,,30,,,,,,,,822.9122088000004,822.9122088000004,822.9122088000004,822.9122088000004,822.9122088000004,up,14.620957899998757,3,0,0,99,0.32,0.16,up,14.52990950000094,,,,,,,,,,,,,,,,,,,,,,,,,,,,,,,,,,,,,,,,,,,,,,,,,,,,,,,,,,,,0UGR16,train_x,red_square,top_right,2025-06-14_13h41.42.378,HideSeek_v1,2022.2.5,59.99098935331685,
,6,5,5,5,-1,0,26,,train_dim1_1,22,30,,,,2,0,2,0,,,,,,,,,0,0,0,0,0,21,21,21,2,0,2,0,,,,,,,,,,,,,,,,,,,,,,,,,,,,,,,,,,,,,,,,,,,,,,,,,,,,,,,,,,,,,,,,30,,,,,,,,837.5613505000001,837.5613505000001,837.5613505000001,837.5613505000001,837.5613505000001,down,6.915334100000109,3,0,0,99,0.32,0.08,down,6.8105379000007815,,,,,,,,,,,,,,,,,,,,,,,,,,,,,,,,,,,,,,,,,,,,,,,,,,,,,,,,,,,,0UGR16,train_x,red_square,top_right,2025-06-14_13h41.42.378,HideSeek_v1,2022.2.5,59.99098935331685,
,6,5,5,5,-1,0,26,,train_dim1_1,22,30,,,,2,0,2,0,,,,,,,,,0,0,0,0,0,21,21,21,3,0,3,0,,,,,,,,,,,,,,,,,,,,,,,,,,,,,,,,,,,,,,,,,,,,,,,,,,,,,,,,,,,,,,,,30,,,,,,,,844.4639451000003,844.4639451000003,844.4639451000003,844.4639451000003,844.4639451000003,down,1.8775120999998762,3,0,0,99,0.32,0.0,down,1.7980184000007284,,,,,,,,,,,,,,,,,,,,,,,,,,,,,,,,,,,,,,,,,,,,,,,,,,,,,,,,,,,,0UGR16,train_x,red_square,top_right,2025-06-14_13h41.42.378,HideSeek_v1,2022.2.5,59.99098935331685,
,6,5,5,5,-1,0,26,,train_dim1_1,22,30,,,,2,0,2,0,,,,,,,,,0,0,0,0,0,21,21,21,4,0,4,0,,,,,,,,,,,,,,,,,,,,,,,,,,,,,,,,,,,,,,,,,,,,,,,,,,,,,,,,,,,,,,,,30,,,,,,,,846.3473481000001,846.3473481000001,846.3473481000001,846.3473481000001,846.3473481000001,return,1.7779336999992665,3,1,0,0,0.32,0.0,return,1.702266400001463,-13,-32,0.32,0.0,,,,,,,,,,,,,,,,,,,,,,,,,,,,,,,,,,,,,,,,,,,,,,,,,,,,,,,,0UGR16,train_x,red_square,top_right,2025-06-14_13h41.42.378,HideSeek_v1,2022.2.5,59.99098935331685,
,7,6,2,6,-5,0,66,,train_dim1_1,23,30,,,,2,0,2,0,,,,,,,,,0,0,0,0,0,22,22,22,0,0,0,0,,,,,,,,,,,,,,,,,,,,,,,,,stimuli/alien_stimuli/66.png,,,,,,,,,,,,,,,,,,,,,,,,,,,,,stimuli/alien_stimuli/26.png,26,6,24,,,,,,,30,,,,,,,,857.6630091999996,857.6630091999996,857.6630091999996,857.6630091999996,857.6630091999996,left,3.942469699999492,3,1,0,99,0.32,0.08,left,3.8646004000020184,,,,,856.1060777000002,857.6630091999996,0.24,0,0.0,0.08,0.0,0.24,0.28,0.24,0,849.7035887999991,849.7035887999991,849.7035887999991,849.7035887999991,849.7035887999991,849.7035887999991,849.7035887999991,849.7035887999991,849.68399155,6.524922900000092,return,6.3813771000004635,,,,,,,,,,,,,,,,,,,,,,,,,,,,,,,,,0UGR16,train_x,red_square,top_right,2025-06-14_13h41.42.378,HideSeek_v1,2022.2.5,59.99098935331685,
,7,6,2,6,-5,0,66,,train_dim1_1,23,30,,,,2,0,2,0,,,,,,,,,0,0,0,0,0,22,22,22,1,0,1,0,,,,,,,,,,,,,,,,,,,,,,,,,,,,,,,,,,,,,,,,,,,,,,,,,,,,,,,,,,,,,,,,30,,,,,,,,861.6064012999996,861.6064012999996,861.6064012999996,861.6064012999996,861.6064012999996,left,1.310063999999329,3,1,0,99,0.24,0.08,left,1.2318328000001202,,,,,,,,,,,,,,,,,,,,,,,,,,,,,,,,,,,,,,,,,,,,,,,,,,,,,,,,,,,,0UGR16,train_x,red_square,top_right,2025-06-14_13h41.42.378,HideSeek_v1,2022.2.5,59.99098935331685,
,7,6,2,6,-5,0,66,,train_dim1_1,23,30,,,,2,0,2,0,,,,,,,,,0,0,0,0,0,22,22,22,2,0,2,0,,,,,,,,,,,,,,,,,,,,,,,,,,,,,,,,,,,,,,,,,,,,,,,,,,,,,,,,,,,,,,,,30,,,,,,,,862.9245711000003,862.9245711000003,862.9245711000003,862.9245711000003,862.9245711000003,return,6.531213800000842,3,0,0,0,0.24,0.08,return,6.450573300000542,-13,-34,0.24,0.08,,,,,,,,,,,,,,,,,,,,,,,,,,,,,,,,,,,,,,,,,,,,,,,,,,,,,,,,0UGR16,train_x,red_square,top_right,2025-06-14_13h41.42.378,HideSeek_v1,2022.2.5,59.99098935331685,
,9,9,5,9,-4,0,56,,train_dim1_1,24,30,,,,2,0,2,0,,,,,,,,,0,0,0,0,0,23,23,23,0,0,0,0,,,,,,,,,,,,,,,,,,,,,,,,,stimuli/alien_stimuli/56.png,,,,,,,,,,,,,,,,,,,,,,,,,,,,,stimuli/alien_stimuli/66.png,66,7,25,,,,,,,30,,,,,,,,880.1862775999998,880.1862775999998,880.1862775999998,880.1862775999998,880.1862775999998,down,3.990914199999679,3,0,0,99,0.56,0.24,down,3.9084104000012303,,,,,878.6246680999993,880.1862775999998,0,0.08,0.0,0.4,0.08,0,0.2,0,0.08,871.0348130000002,871.0348130000002,871.0348130000002,871.0348130000002,871.0348130000002,871.0348130000002,871.0348130000002,871.0348130000002,871.0185211500007,7.7087331999991875,return,7.558560999999827,,,,,,,,,,,,,,,,,,,,,,,,,,,,,,,,,0UGR16,train_x,red_square,top_right,2025-06-14_13h41.42.378,HideSeek_v1,2022.2.5,59.99098935331685,
,9,9,5,9,-4,0,56,,train_dim1_1,24,30,,,,2,0,2,0,,,,,,,,,0,0,0,0,0,23,23,23,1,0,1,0,,,,,,,,,,,,,,,,,,,,,,,,,,,,,,,,,,,,,,,,,,,,,,,,,,,,,,,,,,,,,,,,30,,,,,,,,884.1774416999997,884.1774416999997,884.1774416999997,884.1774416999997,884.1774416999997,down,7.181660999998712,3,0,0,99,0.56,0.15999999999999998,down,7.094610800002556,,,,,,,,,,,,,,,,,,,,,,,,,,,,,,,,,,,,,,,,,,,,,,,,,,,,,,,,,,,,0UGR16,train_x,red_square,top_right,2025-06-14_13h41.42.378,HideSeek_v1,2022.2.5,59.99098935331685,
,9,9,5,9,-4,0,56,,train_dim1_1,24,30,,,,2,0,2,0,,,,,,,,,0,0,0,0,0,23,23,23,2,0,2,0,,,,,,,,,,,,,,,,,,,,,,,,,,,,,,,,,,,,,,,,,,,,,,,,,,,,,,,,,,,,,,,,30,,,,,,,,891.3838245999996,891.3838245999996,891.3838245999996,891.3838245999996,891.3838245999996,up,5.164200499999424,3,0,0,99,0.56,0.24,up,5.067959800000608,,,,,,,,,,,,,,,,,,,,,,,,,,,,,,,,,,,,,,,,,,,,,,,,,,,,,,,,,,,,0UGR16,train_x,red_square,top_right,2025-06-14_13h41.42.378,HideSeek_v1,2022.2.5,59.99098935331685,
,9,9,5,9,-4,0,56,,train_dim1_1,24,30,,,,2,0,2,0,,,,,,,,,0,0,0,0,0,23,23,23,3,0,3,0,,,,,,,,,,,,,,,,,,,,,,,,,,,,,,,,,,,,,,,,,,,,,,,,,,,,,,,,,,,,,,,,30,,,,,,,,896.5388550000007,896.5388550000007,896.5388550000007,896.5388550000007,896.5388550000007,return,0.8103823000001285,3,0,0,0,0.56,0.24,return,0.7237787000012759,-14,-34,0.56,0.24,,,,,,,,,,,,,,,,,,,,,,,,,,,,,,,,,,,,,,,,,,,,,,,,,,,,,,,,0UGR16,train_x,red_square,top_right,2025-06-14_13h41.42.378,HideSeek_v1,2022.2.5,59.99098935331685,
,8,5,8,5,0,0,16,,train_dim1_1,25,30,,,,2,0,2,0,,,,,,,,,0,0,0,0,0,24,24,24,0,0,0,0,,,,,,,,,,,,,,,,,,,,,,,,,stimuli/alien_stimuli/16.png,,,,,,,,,,,,,,,,,,,,,,,,,,,,,stimuli/alien_stimuli/56.png,56,9,26,,,,,,,30,,,,,,,,907.2103781000005,907.2103781000005,907.2103781000005,907.2103781000005,907.2103781000005,right,32.01431749999938,3,0,0,99,0.5599999999999999,0,right,31.927148300001136,,,,,905.6470534,907.2103781000005,0.24,0.32,0.0,0.32,0.32,0.24,0.4,0.24,0.32,898.9242259999992,898.9242259999992,898.9242259999992,898.9242259999992,898.9242259999992,898.9242259999992,898.9242259999992,898.9242259999992,898.9087260499996,6.840851400000247,return,6.705644300000131,,,,,,,,,,,,,,,,,,,,,,,,,,,,,,,,,0UGR16,train_x,red_square,top_right,2025-06-14_13h41.42.378,HideSeek_v1,2022.2.5,59.99098935331685,
,8,5,8,5,0,0,16,,train_dim1_1,25,30,,,,2,0,2,0,,,,,,,,,0,0,0,0,0,24,24,24,1,0,1,0,,,,,,,,,,,,,,,,,,,,,,,,,,,,,,,,,,,,,,,,,,,,,,,,,,,,,,,,,,,,,,,,30,,,,,,,,939.2351275000001,939.2351275000001,939.2351275000001,939.2351275000001,939.2351275000001,up,3.8125729999992473,3,0,0,99,0.5599999999999999,0.08,up,3.7207245000008697,,,,,,,,,,,,,,,,,,,,,,,,,,,,,,,,,,,,,,,,,,,,,,,,,,,,,,,,,,,,0UGR16,train_x,red_square,top_right,2025-06-14_13h41.42.378,HideSeek_v1,2022.2.5,59.99098935331685,
,8,5,8,5,0,0,16,,train_dim1_1,25,30,,,,2,0,2,0,,,,,,,,,0,0,0,0,0,24,24,24,2,0,2,0,,,,,,,,,,,,,,,,,,,,,,,,,,,,,,,,,,,,,,,,,,,,,,,,,,,,,,,,,,,,,,,,30,,,,,,,,943.0455015000007,943.0455015000007,943.0455015000007,943.0455015000007,943.0455015000007,left,1.3941147000005003,3,0,0,99,0.4799999999999999,0.08,left,1.3050676000020758,,,,,,,,,,,,,,,,,,,,,,,,,,,,,,,,,,,,,,,,,,,,,,,,,,,,,,,,,,,,0UGR16,train_x,red_square,top_right,2025-06-14_13h41.42.378,HideSeek_v1,2022.2.5,59.99098935331685,
,8,5,8,5,0,0,16,,train_dim1_1,25,30,,,,2,0,2,0,,,,,,,,,0,0,0,0,0,24,24,24,3,0,3,0,,,,,,,,,,,,,,,,,,,,,,,,,,,,,,,,,,,,,,,,,,,,,,,,,,,,,,,,,,,,,,,,30,,,,,,,,944.4492186999996,944.4492186999996,944.4492186999996,944.4492186999996,944.4492186999996,left,6.078588500000478,3,0,0,99,0.3999999999999999,0.08,left,5.995289200000116,,,,,,,,,,,,,,,,,,,,,,,,,,,,,,,,,,,,,,,,,,,,,,,,,,,,,,,,,,,,0UGR16,train_x,red_square,top_right,2025-06-14_13h41.42.378,HideSeek_v1,2022.2.5,59.99098935331685,
,8,5,8,5,0,0,16,,train_dim1_1,25,30,,,,2,0,2,0,,,,,,,,,0,0,0,0,0,24,24,24,4,0,4,0,,,,,,,,,,,,,,,,,,,,,,,,,,,,,,,,,,,,,,,,,,,,,,,,,,,,,,,,,,,,,,,,30,,,,,,,,950.5352703999997,950.5352703999997,950.5352703999997,950.5352703999997,950.5352703999997,down,1.460668399999122,3,0,0,99,0.3999999999999999,0.0,down,1.3832026000000042,,,,,,,,,,,,,,,,,,,,,,,,,,,,,,,,,,,,,,,,,,,,,,,,,,,,,,,,,,,,0UGR16,train_x,red_square,top_right,2025-06-14_13h41.42.378,HideSeek_v1,2022.2.5,59.99098935331685,
,8,5,8,5,0,0,16,,train_dim1_1,25,30,,,,2,0,2,0,,,,,,,,,0,0,0,0,0,24,24,24,5,0,5,0,,,,,,,,,,,,,,,,,,,,,,,,,,,,,,,,,,,,,,,,,,,,,,,,,,,,,,,,,,,,,,,,30,,,,,,,,952.0024632999994,952.0024632999994,952.0024632999994,952.0024632999994,952.0024632999994,left,7.715975900000558,3,0,0,99,0.3199999999999999,0.0,left,7.6268799000008585,,,,,,,,,,,,,,,,,,,,,,,,,,,,,,,,,,,,,,,,,,,,,,,,,,,,,,,,,,,,0UGR16,train_x,red_square,top_right,2025-06-14_13h41.42.378,HideSeek_v1,2022.2.5,59.99098935331685,
,8,5,8,5,0,0,16,,train_dim1_1,25,30,,,,2,0,2,0,,,,,,,,,0,0,0,0,0,24,24,24,6,0,6,0,,,,,,,,,,,,,,,,,,,,,,,,,,,,,,,,,,,,,,,,,,,,,,,,,,,,,,,,,,,,,,,,30,,,,,,,,959.725527999999,959.725527999999,959.725527999999,959.725527999999,959.725527999999,left,3.762682599999607,3,0,0,99,0.23999999999999988,0.0,left,3.673474900000656,,,,,,,,,,,,,,,,,,,,,,,,,,,,,,,,,,,,,,,,,,,,,,,,,,,,,,,,,,,,0UGR16,train_x,red_square,top_right,2025-06-14_13h41.42.378,HideSeek_v1,2022.2.5,59.99098935331685,
,8,5,8,5,0,0,16,,train_dim1_1,25,30,,,,2,0,2,0,,,,,,,,,0,0,0,0,0,24,24,24,7,0,7,0,,,,,,,,,,,,,,,,,,,,,,,,,,,,,,,,,,,,,,,,,,,,,,,,,,,,,,,,,,,,,,,,30,,,,,,,,963.4945855000005,963.4945855000005,963.4945855000005,963.4945855000005,963.4945855000005,left,1.2607287999999244,3,0,0,99,0.15999999999999986,0.0,left,1.1821338000008836,,,,,,,,,,,,,,,,,,,,,,,,,,,,,,,,,,,,,,,,,,,,,,,,,,,,,,,,,,,,0UGR16,train_x,red_square,top_right,2025-06-14_13h41.42.378,HideSeek_v1,2022.2.5,59.99098935331685,
