trialInstr,x_fixStart,y_fixStart,x_corrSteps,y_corrSteps,x_nrSteps,y_nrSteps,alienID,trialLength,version,trialTrain,praclen,testlen,trial_label,break_on_off,beforeExpLoop.thisRepN,beforeExpLoop.thisTrialN,beforeExpLoop.thisN,beforeExpLoop.thisIndex,mini_instr_trials.thisRepN,mini_instr_trials.thisTrialN,mini_instr_trials.thisN,mini_instr_trials.thisIndex,instrLoop.thisRepN,instrLoop.thisTrialN,instrLoop.thisN,instrLoop.thisIndex,repeat_prac.thisRepN,repeat_prac.thisTrialN,repeat_prac.thisN,repeat_prac.thisIndex,trainLoop.thisRepN,trainLoop.thisTrialN,trainLoop.thisN,trainLoop.thisIndex,moveLoop_train.thisRepN,moveLoop_train.thisTrialN,moveLoop_train.thisN,moveLoop_train.thisIndex,experiment.thisRepN,experiment.thisTrialN,experiment.thisN,experiment.thisIndex,moveLoop_test.thisRepN,moveLoop_test.thisTrialN,moveLoop_test.thisN,moveLoop_test.thisIndex,mini_instr2_trials.thisRepN,mini_instr2_trials.thisTrialN,mini_instr2_trials.thisN,mini_instr2_trials.thisIndex,start_all_time,url,slideStim,audioStim,slides.started,sounds.started,nextButton.numClicks,nextButton.timesOn,nextButton.timesOff,prev_but.numClicks,prev_but.timesOn,prev_but.timesOff,alienStim,instrFile,alienStim_instr,gridImage_instr.started,startPos_3.started,key_instr.started,alienImage_3.started,sounds_1.started,key_instr.keys,key_instr.rt,all_x,all_y,FBy_corrSteps,FBy_fixStart,FBx_corrSteps,FBx_fixStart,FBy_pathSize_check,FBx_pathSize_check,gridImage_9.started,alienImageFB_3.started,startPosFB_3.started,keyFB_3.started,pathLine_ydir_2.started,pathLine_xdir_2.started,alienFace_3.started,sounds_2.started,RTFB_instr,keyFB_3.keys,keyFB_3.rt,draw_alienStim,draw_alienID,test_x,nrepcount,perfthres,percthres,earlierperf,earlystop,nextPrac,fileidx,praclen,saveACC_train,pracFile,nextPrac_train,addNrep,fileidx_endr,repExp,showearly,gridImage_4.started,startPos.started,movePos.started,key_resp.started,alienImage.started,buttonPress_train,RTchoice_train,cumAcctrain,aCorr,saveACC_choice,corrAns,x_movePos_end,y_movePos_end,key_resp.keys,key_resp.rt,wLy_dir,wLx_dir,x_movePos,y_movePos,text_2.started,text_2.stopped,aft_x_corrPos,aft_y_corrPos,y_pathSize_check,x_pathSize_check,y_pathdirY,x_pathdirY,x_pathdirX,x_corrPos,y_corrPos,gridImage_6.started,alienImageFB_2.started,startPosFB_2.started,movePosFB_2.started,keyFB_2.started,pathLine_xdir.started,pathLine_ydir.started,alienFace.started,sounds_4.started,RT_FBtrain,keyFB_2.keys,keyFB_2.rt,saveACC_pre,ACC,within_saveACC_train,earlystop_wloop,cumAcctrain_check,gridImage_3.started,alienImage_test.started,startPos_test.started,movePos_test.started,key_resp_test.started,wLy_dir_test,wLx_dir_test,buttonPress_test,RTchoice_test,cumAcctest,corrAns_test,key_resp_test.keys,key_resp_test.rt,text_3.started,text_3.stopped,total_time,end_all_time,key_resp_3.keys,slides_2.started,sounds_3.started,nextButton_2.numClicks,nextButton_2.timesOn,nextButton_2.timesOff,prev_but_2.numClicks,prev_but_2.timesOn,prev_but_2.timesOff,bye.started,participant,train_first,00_coordinate,starting corner,date,expName,psychopyVersion,frameRate,
,,,,,,,,,,,,,,,0,0,0,0,0,0,0,0,,,,,,,,,,,,,,,,,,,,,,,,,,,,,start_all_time,testround,conditions/schedules/train_x_first/blue_star_00/bottom_left/instructions/Slide1.png,conditions/schedules/train_x_first/blue_star_00/bottom_left/instructions/Audio1.wav,47.088557000039145,47.03826294990722,1,[2.877273299964145],[2.877284500049427],0,,,,,,,,,,,,,,,,,,,,,,,,,,,,,,,,,,,,,,,,,,,,,,,,,,,,,,,,,,,,,,,,,,,,,,,,,,,,,,,,,,,,,,,,,,,,,,,,,,,,,,,,,,,,,,,,,,,,,,,,,,,,0VPN6V,train_x,blue_star,bottom_left,2025-08-19_15h05.16.833,HideSeek_v1,2022.2.5,59.94761777749353,
,,,,,,,,,,,,,,,0,0,0,0,1,0,1,0,,,,,,,,,,,,,,,,,,,,,,,,,,,,,,,conditions/schedules/train_x_first/blue_star_00/bottom_left/instructions/Slide2.png,conditions/schedules/train_x_first/blue_star_00/bottom_left/instructions/Audio2.wav,49.99266470014118,49.98618364997674,2,"[2.877273299964145, 17.14969260012731]","[2.877284500049427, 17.14969899994321]",0,,,,,,,,,,,,,,,,,,,,,,,,,,,,,,,,,,,,,,,,,,,,,,,,,,,,,,,,,,,,,,,,,,,,,,,,,,,,,,,,,,,,,,,,,,,,,,,,,,,,,,,,,,,,,,,,,,,,,,,,,,,,0VPN6V,train_x,blue_star,bottom_left,2025-08-19_15h05.16.833,HideSeek_v1,2022.2.5,59.94761777749353,
,,,,,,,,,,,,,,,0,0,0,0,2,0,2,0,,,,,,,,,,,,,,,,,,,,,,,,,,,,,,,conditions/schedules/train_x_first/blue_star_00/bottom_left/instructions/Slide3.png,conditions/schedules/train_x_first/blue_star_00/bottom_left/instructions/Audio3.wav,67.22216170001775,67.21144095005002,3,"[2.877273299964145, 17.14969260012731, 16.166463299887255]","[2.877284500049427, 0.014136499958112836, 16.16646940005012]",0,,,,,,,,,,,,,,,,,,,,,,,,,,,,,,,,,,,,,,,,,,,,,,,,,,,,,,,,,,,,,,,,,,,,,,,,,,,,,,,,,,,,,,,,,,,,,,,,,,,,,,,,,,,,,,,,,,,,,,,,,,,,0VPN6V,train_x,blue_star,bottom_left,2025-08-19_15h05.16.833,HideSeek_v1,2022.2.5,59.94761777749353,
,,,,,,,,,,,,,,,0,0,0,0,3,0,3,0,,,,,,,,,,,,,,,,,,,,,,,,,,,,,,,conditions/schedules/train_x_first/blue_star_00/bottom_left/instructions/Slide4.png,conditions/schedules/train_x_first/blue_star_00/bottom_left/instructions/Audio4.wav,83.46076870011166,83.4578343500616,4,"[2.877273299964145, 17.14969260012731, 16.166463299887255, 18.82675420003943]","[2.877284500049427, 0.014136499958112836, 0.04569569998420775, 18.82676300010644]",0,,,,,,,,,,,,,,,,,,,,,,,,,,,,,,,,,,,,,,,,,,,,,,,,,,,,,,,,,,,,,,,,,,,,,,,,,,,,,,,,,,,,,,,,,,,,,,,,,,,,,,,,,,,,,,,,,,,,,,,,,,,,0VPN6V,train_x,blue_star,bottom_left,2025-08-19_15h05.16.833,HideSeek_v1,2022.2.5,59.94761777749353,
,,,,,,,,,,,,,,,0,0,0,0,4,0,4,0,,,,,,,,,,,,,,,,,,,,,,,,,,,,,,,conditions/schedules/train_x_first/blue_star_00/bottom_left/instructions/Slide5.png,conditions/schedules/train_x_first/blue_star_00/bottom_left/instructions/Audio5.wav,102.35746089997701,102.3572842500871,5,"[2.877273299964145, 17.14969260012731, 16.166463299887255, 18.82675420003943, 3.9010074001271278]","[2.877284500049427, 0.014136499958112836, 0.04569569998420775, 0.00022210017777979374, 3.901015200186521]",0,,,,,,,,,,,,,,,,,,,,,,,,,,,,,,,,,,,,,,,,,,,,,,,,,,,,,,,,,,,,,,,,,,,,,,,,,,,,,,,,,,,,,,,,,,,,,,,,,,,,,,,,,,,,,,,,,,,,,,,,,,,,0VPN6V,train_x,blue_star,bottom_left,2025-08-19_15h05.16.833,HideSeek_v1,2022.2.5,59.94761777749353,
,,,,,,,,,,,,,,,0,0,0,0,5,0,5,0,,,,,,,,,,,,,,,,,,,,,,,,,,,,,,,conditions/schedules/train_x_first/blue_star_00/bottom_left/instructions/Slide6.png,conditions/schedules/train_x_first/blue_star_00/bottom_left/instructions/Audio6.wav,106.30967009998858,106.31044074017554,6,"[2.877273299964145, 17.14969260012731, 16.166463299887255, 18.82675420003943, 3.9010074001271278, 4.452091499930248]","[2.877284500049427, 0.014136499958112836, 0.04569569998420775, 0.00022210017777979374, 0.048697999911382794, 4.4520979998633265]",0,,,,,,,,,,,,,,,,,,,,,,,,,,,,,,,,,,,,,,,,,,,,,,,,,,,,,,,,,,,,,,,,,,,,,,,,,,,,,,,,,,,,,,,,,,,,,,,,,,,,,,,,,,,,,,,,,,,,,,,,,,,,0VPN6V,train_x,blue_star,bottom_left,2025-08-19_15h05.16.833,HideSeek_v1,2022.2.5,59.94761777749353,
,,,,,,,,,,,,,,,0,0,0,0,6,0,6,0,,,,,,,,,,,,,,,,,,,,,,,,,,,,,,,conditions/schedules/train_x_first/blue_star_00/bottom_left/instructions/Slide7.png,conditions/schedules/train_x_first/blue_star_00/bottom_left/instructions/Audio7.wav,110.81364349997602,110.8142057399731,7,"[2.877273299964145, 17.14969260012731, 16.166463299887255, 18.82675420003943, 3.9010074001271278, 4.452091499930248, 5.019246899988502]","[2.877284500049427, 0.014136499958112836, 0.04569569998420775, 0.00022210017777979374, 0.048697999911382794, 0.014099600026383996, 5.019253399921581]",0,,,,,,,,,,,,,,,,,,,,,,,,,,,,,,,,,,,,,,,,,,,,,,,,,,,,,,,,,,,,,,,,,,,,,,,,,,,,,,,,,,,,,,,,,,,,,,,,,,,,,,,,,,,,,,,,,,,,,,,,,,,,0VPN6V,train_x,blue_star,bottom_left,2025-08-19_15h05.16.833,HideSeek_v1,2022.2.5,59.94761777749353,
,,,,,,,,,,,,,,,0,0,0,0,7,0,7,0,,,,,,,,,,,,,,,,,,,,,,,,,,,,,,,conditions/schedules/train_x_first/blue_star_00/bottom_left/instructions/Slide8.png,conditions/schedules/train_x_first/blue_star_00/bottom_left/instructions/Audio8.wav,115.88638429995626,115.88514393996446,8,"[2.877273299964145, 17.14969260012731, 16.166463299887255, 18.82675420003943, 3.9010074001271278, 4.452091499930248, 5.019246899988502, 11.689748700009659]","[2.877284500049427, 0.014136499958112836, 0.04569569998420775, 0.00022210017777979374, 0.048697999911382794, 0.014099600026383996, 0.06382400006987154, 11.689755900064483]",0,,,,,,,,,,,,,,,,,,,,,,,,,,,,,,,,,,,,,,,,,,,,,,,,,,,,,,,,,,,,,,,,,,,,,,,,,,,,,,,,,,,,,,,,,,,,,,,,,,,,,,,,,,,,,,,,,,,,,,,,,,,,0VPN6V,train_x,blue_star,bottom_left,2025-08-19_15h05.16.833,HideSeek_v1,2022.2.5,59.94761777749353,
,,,,,,,,,,,,,,,0,0,0,0,8,0,8,0,,,,,,,,,,,,,,,,,,,,,,,,,,,,,,,conditions/schedules/train_x_first/blue_star_00/bottom_left/instructions/Slide9.png,conditions/schedules/train_x_first/blue_star_00/bottom_left/instructions/Audio9.wav,127.64701940002851,127.64501774997916,9,"[2.877273299964145, 17.14969260012731, 16.166463299887255, 18.82675420003943, 3.9010074001271278, 4.452091499930248, 5.019246899988502, 11.689748700009659, 6.150513699976727]","[2.877284500049427, 0.014136499958112836, 0.04569569998420775, 0.00022210017777979374, 0.048697999911382794, 0.014099600026383996, 0.06382400006987154, 11.689755900064483, 6.150520199909806]",0,,,,,,,,,,,,,,,,,,,,,,,,,,,,,,,,,,,,,,,,,,,,,,,,,,,,,,,,,,,,,,,,,,,,,,,,,,,,,,,,,,,,,,,,,,,,,,,,,,,,,,,,,,,,,,,,,,,,,,,,,,,,0VPN6V,train_x,blue_star,bottom_left,2025-08-19_15h05.16.833,HideSeek_v1,2022.2.5,59.94761777749353,
,,,,,,,,,,,,,,,0,0,0,0,9,0,9,0,,,,,,,,,,,,,,,,,,,,,,,,,,,,,,,conditions/schedules/train_x_first/blue_star_00/bottom_left/instructions/Slide10.png,conditions/schedules/train_x_first/blue_star_00/bottom_left/instructions/Audio10.wav,133.8367786000017,133.83340513014699,10,"[2.877273299964145, 17.14969260012731, 16.166463299887255, 18.82675420003943, 3.9010074001271278, 4.452091499930248, 5.019246899988502, 11.689748700009659, 6.150513699976727, 6.549850700190291]","[2.877284500049427, 0.014136499958112836, 0.04569569998420775, 0.00022210017777979374, 0.048697999911382794, 0.014099600026383996, 0.06382400006987154, 11.689755900064483, 0.06445679999887943, 6.549857000121847]",0,,,,,,,,,,,,,,,,,,,,,,,,,,,,,,,,,,,,,,,,,,,,,,,,,,,,,,,,,,,,,,,,,,,,,,,,,,,,,,,,,,,,,,,,,,,,,,,,,,,,,,,,,,,,,,,,,,,,,,,,,,,,0VPN6V,train_x,blue_star,bottom_left,2025-08-19_15h05.16.833,HideSeek_v1,2022.2.5,59.94761777749353,
,,,,,,,,,,,,,,,0,0,0,0,10,0,10,0,,,,,,,,,,,,,,,,,,,,,,,,,,,,,,,conditions/schedules/train_x_first/blue_star_00/bottom_left/instructions/Slide11.png,conditions/schedules/train_x_first/blue_star_00/bottom_left/instructions/Audio11.wav,140.45565010001883,140.4555200500181,11,"[2.877273299964145, 17.14969260012731, 16.166463299887255, 18.82675420003943, 3.9010074001271278, 4.452091499930248, 5.019246899988502, 11.689748700009659, 6.150513699976727, 6.549850700190291, 8.955156499985605]","[2.877284500049427, 0.014136499958112836, 0.04569569998420775, 0.00022210017777979374, 0.048697999911382794, 0.014099600026383996, 0.06382400006987154, 11.689755900064483, 0.06445679999887943, 0.04780039982870221, 8.955162899801508]",0,,,,,,,,,,,,,,,,,,,,,,,,,,,,,,,,,,,,,,,,,,,,,,,,,,,,,,,,,,,,,,,,,,,,,,,,,,,,,,,,,,,,,,,,,,,,,,,,,,,,,,,,,,,,,,,,,,,,,,,,,,,,0VPN6V,train_x,blue_star,bottom_left,2025-08-19_15h05.16.833,HideSeek_v1,2022.2.5,59.94761777749353,
,,,,,,,,,,,,,,,0,0,0,0,11,0,11,0,,,,,,,,,,,,,,,,,,,,,,,,,,,,,,,conditions/schedules/train_x_first/blue_star_00/bottom_left/instructions/Slide12.png,conditions/schedules/train_x_first/blue_star_00/bottom_left/instructions/Audio12.wav,149.4802010001149,149.4796674499521,12,"[2.877273299964145, 17.14969260012731, 16.166463299887255, 18.82675420003943, 3.9010074001271278, 4.452091499930248, 5.019246899988502, 11.689748700009659, 6.150513699976727, 6.549850700190291, 8.955156499985605, 13.057937700068578]","[2.877284500049427, 0.014136499958112836, 0.04569569998420775, 0.00022210017777979374, 0.048697999911382794, 0.014099600026383996, 0.06382400006987154, 11.689755900064483, 0.06445679999887943, 0.04780039982870221, 8.955162899801508, 13.057945100124925]",0,,,,,,,,,,,,,,,,,,,,,,,,,,,,,,,,,,,,,,,,,,,,,,,,,,,,,,,,,,,,,,,,,,,,,,,,,,,,,,,,,,,,,,,,,,,,,,,,,,,,,,,,,,,,,,,,,,,,,,,,,,,,0VPN6V,train_x,blue_star,bottom_left,2025-08-19_15h05.16.833,HideSeek_v1,2022.2.5,59.94761777749353,
1,4,0,9,0,5,0,11,2,instr_dim1_1,,,,,,0,0,0,0,,,,,0,0,0,0,,,,,,,,,,,,,,,,,,,,,,,,,,,,,,,,,,,,,stimuli/alien_stimuli/11.png,conditions/schedules/train_x_first/blue_star_00/bottom_left/inputInstr_1.xlsx,stimuli/alien_stimuli/11.png,162.641896400135,162.641896400135,162.641896400135,162.641896400135,162.6405160701135,return,9.37219460005872,"[-0.16, -0.08, 0, 0.08, 0.16, 0.24, 0.32, 0.4, 0.48, 0.56]","[-0.4, -0.32, -0.24, -0.16, -0.08, 0, 0.08, 0.16, 0.24, 0.32]",0,0,9,4,0.0,0.4,172.1675204001367,172.1675204001367,172.1675204001367,172.1675204001367,172.1675204001367,172.1675204001367,172.1675204001367,172.16478969014716,8.64124230016023,return,8.485622600186616,stimuli/alien_stimuli/11.png,11,4,1,,,,,,,,,,,,,,,,,,,,,,,,,,,,,,,,,,,,,,,,,,,,,,,,,,,,,,,,,,,,,,,,,,,,,,,,,,,,,,,,,,,,,,,,,0VPN6V,train_x,blue_star,bottom_left,2025-08-19_15h05.16.833,HideSeek_v1,2022.2.5,59.94761777749353,
,,,,,,,,,,,30,,,,0,0,0,0,,,,,,,,,,,,,,,,,,,,,,,,,,,,,,,,,,,,,,,,,,,,,,,,,,,,,,,,,,,,,,,,,,,,,,,,,,,,,,21,0.7,0,0,99,1,30,0,conditions/schedules/train_x_first/blue_star_00/bottom_left/inputTrain_1.1.xlsx,99,1,1,1,0,,,,,,,,,,,,,,,,,,,,,,,,,,,,,,,,,,,,,,,,,,,,,,,,,,,,,,,,,,,,,,,,,,,,,,,,,,,0VPN6V,train_x,blue_star,bottom_left,2025-08-19_15h05.16.833,HideSeek_v1,2022.2.5,59.94761777749353,
,,,,,,,,,,,,,,,1,0,1,0,0,0,0,0,,,,,,,,,,,,,,,,,,,,,,,,,,,,,,,conditions/schedules/train_x_first/blue_star_00/bottom_left/instructions/Slide13.png,conditions/schedules/train_x_first/blue_star_00/bottom_left/instructions/Audio13.wav,180.81617809995078,180.80520888997708,13,"[2.877273299964145, 17.14969260012731, 16.166463299887255, 18.82675420003943, 3.9010074001271278, 4.452091499930248, 5.019246899988502, 11.689748700009659, 6.150513699976727, 6.549850700190291, 8.955156499985605, 13.057937700068578, 16.851211600005627]","[2.877284500049427, 0.014136499958112836, 0.04569569998420775, 0.00022210017777979374, 0.048697999911382794, 0.014099600026383996, 0.06382400006987154, 11.689755900064483, 0.06445679999887943, 0.04780039982870221, 8.955162899801508, 13.057945100124925, 16.851219299947843]",0,,,,,,,,,,,,,,,,,,,,,,,,,,,,,,,,,,,,,,,,,,,,,,,,,,,,,,,,,,,,,,,,,,,,,,,,,,,,,,,,,,,,,,,,,,,,,,,,,,,,,,,,,,,,,,,,,,,,,,,,,,,,0VPN6V,train_x,blue_star,bottom_left,2025-08-19_15h05.16.833,HideSeek_v1,2022.2.5,59.94761777749353,
,,,,,,,,,,,,,,,1,0,1,0,1,0,1,0,,,,,,,,,,,,,,,,,,,,,,,,,,,,,,,conditions/schedules/train_x_first/blue_star_00/bottom_left/instructions/Slide14.png,conditions/schedules/train_x_first/blue_star_00/bottom_left/instructions/Audio14.wav,197.7415909001138,197.73618384997826,14,"[2.877273299964145, 17.14969260012731, 16.166463299887255, 18.82675420003943, 3.9010074001271278, 4.452091499930248, 5.019246899988502, 11.689748700009659, 6.150513699976727, 6.549850700190291, 8.955156499985605, 13.057937700068578, 16.851211600005627, 13.637349599972367]","[2.877284500049427, 0.014136499958112836, 0.04569569998420775, 0.00022210017777979374, 0.048697999911382794, 0.014099600026383996, 0.06382400006987154, 11.689755900064483, 0.06445679999887943, 0.04780039982870221, 8.955162899801508, 13.057945100124925, 0.03085109987296164, 13.637355899903923]",0,,,,,,,,,,,,,,,,,,,,,,,,,,,,,,,,,,,,,,,,,,,,,,,,,,,,,,,,,,,,,,,,,,,,,,,,,,,,,,,,,,,,,,,,,,,,,,,,,,,,,,,,,,,,,,,,,,,,,,,,,,,,0VPN6V,train_x,blue_star,bottom_left,2025-08-19_15h05.16.833,HideSeek_v1,2022.2.5,59.94761777749353,
2,3,2,3,2,0,0,61,2,instr_dim1_1,,,,,,1,0,1,0,,,,,0,0,0,0,,,,,,,,,,,,,,,,,,,,,,,,,,,,,,,,,,,,,stimuli/alien_stimuli/61.png,conditions/schedules/train_x_first/blue_star_00/bottom_left/inputInstr_1.xlsx,stimuli/alien_stimuli/61.png,211.47882700012997,211.47882700012997,211.47882700012997,211.47882700012997,211.4645035601221,return,7.543607299914584,"[-0.16, -0.08, 0, 0.08, 0.16, 0.24, 0.32, 0.4, 0.48, 0.56]","[-0.4, -0.32, -0.24, -0.16, -0.08, 0, 0.08, 0.16, 0.24, 0.32]",2,2,3,3,0.0,0.0,219.18942019995302,219.18942019995302,219.18942019995302,219.18942019995302,219.18942019995302,219.18942019995302,219.18942019995302,219.17075798003933,5.372131099924445,return,5.211670699995011,stimuli/alien_stimuli/61.png,61,3,2,,,,,,,,,,,,,,,,,,,,,,,,,,,,,,,,,,,,,,,,,,,,,,,,,,,,,,,,,,,,,,,,,,,,,,,,,,,,,,,,,,,,,,,,,0VPN6V,train_x,blue_star,bottom_left,2025-08-19_15h05.16.833,HideSeek_v1,2022.2.5,59.94761777749353,
,,,,,,,,,,,30,,,,1,0,1,0,,,,,,,,,,,,,,,,,,,,,,,,,,,,,,,,,,,,,,,,,,,,,,,,,,,,,,,,,,,,,,,,,,,,,,,,,,,,,,21,0.7,0,0,99,1,30,0,conditions/schedules/train_x_first/blue_star_00/bottom_left/inputTrain_1.1.xlsx,99,1,1,1,0,,,,,,,,,,,,,,,,,,,,,,,,,,,,,,,,,,,,,,,,,,,,,,,,,,,,,,,,,,,,,,,,,,,,,,,,,,,0VPN6V,train_x,blue_star,bottom_left,2025-08-19_15h05.16.833,HideSeek_v1,2022.2.5,59.94761777749353,
,,,,,,,,,,,,,,,2,0,2,0,0,0,0,0,,,,,,,,,,,,,,,,,,,,,,,,,,,,,,,conditions/schedules/train_x_first/blue_star_00/bottom_left/instructions/Slide15.png,conditions/schedules/train_x_first/blue_star_00/bottom_left/instructions/Audio15.wav,224.5628087001387,224.55854719013442,15,"[2.877273299964145, 17.14969260012731, 16.166463299887255, 18.82675420003943, 3.9010074001271278, 4.452091499930248, 5.019246899988502, 11.689748700009659, 6.150513699976727, 6.549850700190291, 8.955156499985605, 13.057937700068578, 16.851211600005627, 13.637349599972367, 30.80245770001784]","[2.877284500049427, 0.014136499958112836, 0.04569569998420775, 0.00022210017777979374, 0.048697999911382794, 0.014099600026383996, 0.06382400006987154, 11.689755900064483, 0.06445679999887943, 0.04780039982870221, 8.955162899801508, 13.057945100124925, 0.03085109987296164, 13.637355899903923, 30.802463999949396]",0,,,,,,,,,,,,,,,,,,,,,,,,,,,,,,,,,,,,,,,,,,,,,,,,,,,,,,,,,,,,,,,,,,,,,,,,,,,,,,,,,,,,,,,,,,,,,,,,,,,,,,,,,,,,,,,,,,,,,,,,,,,,0VPN6V,train_x,blue_star,bottom_left,2025-08-19_15h05.16.833,HideSeek_v1,2022.2.5,59.94761777749353,
,,,,,,,,,,,,,,,2,0,2,0,1,0,1,0,,,,,,,,,,,,,,,,,,,,,,,,,,,,,,,conditions/schedules/train_x_first/blue_star_00/bottom_left/instructions/Slide16.png,conditions/schedules/train_x_first/blue_star_00/bottom_left/instructions/Audio16.wav,255.4264638000168,255.41772543997504,16,"[2.877273299964145, 17.14969260012731, 16.166463299887255, 18.82675420003943, 3.9010074001271278, 4.452091499930248, 5.019246899988502, 11.689748700009659, 6.150513699976727, 6.549850700190291, 8.955156499985605, 13.057937700068578, 16.851211600005627, 13.637349599972367, 30.80245770001784, 22.073491199873388]","[2.877284500049427, 0.014136499958112836, 0.04569569998420775, 0.00022210017777979374, 0.048697999911382794, 0.014099600026383996, 0.06382400006987154, 11.689755900064483, 0.06445679999887943, 0.04780039982870221, 8.955162899801508, 13.057945100124925, 0.03085109987296164, 13.637355899903923, 0.03483420005068183, 22.073497999925166]",0,,,,,,,,,,,,,,,,,,,,,,,,,,,,,,,,,,,,,,,,,,,,,,,,,,,,,,,,,,,,,,,,,,,,,,,,,,,,,,,,,,,,,,,,,,,,,,,,,,,,,,,,,,,,,,,,,,,,,,,,,,,,0VPN6V,train_x,blue_star,bottom_left,2025-08-19_15h05.16.833,HideSeek_v1,2022.2.5,59.94761777749353,
,2,1,5,1,3,0,31,,train_dim1_1,1,30,,,,2,0,2,0,,,,,,,,,0,0,0,0,0,0,0,0,0,0,0,0,,,,,,,,,,,,,,,,,,,,,,,,,stimuli/alien_stimuli/31.png,,,,,,,,,,,,,,,,,,,,,,,,,,,,,,,,,,,,,,,30,,,,,,,,277.6024505000096,277.6024505000096,277.6024505000096,277.6024505000096,277.6024505000096,up,15.725121000083163,0,0,0,99,0,-0.24,up,15.627992799971253,,,,,,,,,,,,,,,,,,,,,,,,,,,,,,,,,,,,,,,,,,,,,,,,,,,,,,,,,,,,0VPN6V,train_x,blue_star,bottom_left,2025-08-19_15h05.16.833,HideSeek_v1,2022.2.5,59.94761777749353,
,2,1,5,1,3,0,31,,train_dim1_1,1,30,,,,2,0,2,0,,,,,,,,,0,0,0,0,0,0,0,0,1,0,1,0,,,,,,,,,,,,,,,,,,,,,,,,,,,,,,,,,,,,,,,,,,,,,,,,,,,,,,,,,,,,,,,,30,,,,,,,,293.32936029997654,293.32936029997654,293.32936029997654,293.32936029997654,293.32936029997654,up,6.8799804002046585,0,0,0,99,0,-0.15999999999999998,up,6.777355200145394,,,,,,,,,,,,,,,,,,,,,,,,,,,,,,,,,,,,,,,,,,,,,,,,,,,,,,,,,,,,0VPN6V,train_x,blue_star,bottom_left,2025-08-19_15h05.16.833,HideSeek_v1,2022.2.5,59.94761777749353,
,2,1,5,1,3,0,31,,train_dim1_1,1,30,,,,2,0,2,0,,,,,,,,,0,0,0,0,0,0,0,0,2,0,2,0,,,,,,,,,,,,,,,,,,,,,,,,,,,,,,,,,,,,,,,,,,,,,,,,,,,,,,,,,,,,,,,,30,,,,,,,,300.20303770015016,300.20303770015016,300.20303770015016,300.20303770015016,300.20303770015016,up,0.8605800000950694,0,0,0,99,0,-0.07999999999999997,up,0.7782499000895768,,,,,,,,,,,,,,,,,,,,,,,,,,,,,,,,,,,,,,,,,,,,,,,,,,,,,,,,,,,,0VPN6V,train_x,blue_star,bottom_left,2025-08-19_15h05.16.833,HideSeek_v1,2022.2.5,59.94761777749353,
,2,1,5,1,3,0,31,,train_dim1_1,1,30,,,,2,0,2,0,,,,,,,,,0,0,0,0,0,0,0,0,3,0,3,0,,,,,,,,,,,,,,,,,,,,,,,,,,,,,,,,,,,,,,,,,,,,,,,,,,,,,,,,,,,,,,,,30,,,,,,,,301.06884080008604,301.06884080008604,301.06884080008604,301.06884080008604,301.06884080008604,down,3.262499599950388,0,0,0,99,0,-0.15999999999999998,down,3.181575500173494,,,,,,,,,,,,,,,,,,,,,,,,,,,,,,,,,,,,,,,,,,,,,,,,,,,,,,,,,,,,0VPN6V,train_x,blue_star,bottom_left,2025-08-19_15h05.16.833,HideSeek_v1,2022.2.5,59.94761777749353,
,2,1,5,1,3,0,31,,train_dim1_1,1,30,,,,2,0,2,0,,,,,,,,,0,0,0,0,0,0,0,0,4,0,4,0,,,,,,,,,,,,,,,,,,,,,,,,,,,,,,,,,,,,,,,,,,,,,,,,,,,,,,,,,,,,,,,,30,,,,,,,,304.3398099001497,304.3398099001497,304.3398099001497,304.3398099001497,304.3398099001497,down,0.5428428000304848,0,0,0,99,0,-0.24,down,0.46044839988462627,,,,,,,,,,,,,,,,,,,,,,,,,,,,,,,,,,,,,,,,,,,,,,,,,,,,,,,,,,,,0VPN6V,train_x,blue_star,bottom_left,2025-08-19_15h05.16.833,HideSeek_v1,2022.2.5,59.94761777749353,
,2,1,5,1,3,0,31,,train_dim1_1,1,30,,,,2,0,2,0,,,,,,,,,0,0,0,0,0,0,0,0,5,0,5,0,,,,,,,,,,,,,,,,,,,,,,,,,,,,,,,,,,,,,,,,,,,,,,,,,,,,,,,,,,,,,,,,30,,,,,,,,304.8891857000999,304.8891857000999,304.8891857000999,304.8891857000999,304.8891857000999,down,0.4932128000073135,0,0,0,99,0,-0.32,down,0.4195263001602143,,,,,,,,,,,,,,,,,,,,,,,,,,,,,,,,,,,,,,,,,,,,,,,,,,,,,,,,,,,,0VPN6V,train_x,blue_star,bottom_left,2025-08-19_15h05.16.833,HideSeek_v1,2022.2.5,59.94761777749353,
,2,1,5,1,3,0,31,,train_dim1_1,1,30,,,,2,0,2,0,,,,,,,,,0,0,0,0,0,0,0,0,6,0,6,0,,,,,,,,,,,,,,,,,,,,,,,,,,,,,,,,,,,,,,,,,,,,,,,,,,,,,,,,,,,,,,,,30,,,,,,,,305.3902887001168,305.3902887001168,305.3902887001168,305.3902887001168,305.3902887001168,right,4.646735199959949,0,0,0,99,0.08,-0.32,right,4.565237400121987,,,,,,,,,,,,,,,,,,,,,,,,,,,,,,,,,,,,,,,,,,,,,,,,,,,,,,,,,,,,0VPN6V,train_x,blue_star,bottom_left,2025-08-19_15h05.16.833,HideSeek_v1,2022.2.5,59.94761777749353,
,2,1,5,1,3,0,31,,train_dim1_1,1,30,,,,2,0,2,0,,,,,,,,,0,0,0,0,0,0,0,0,7,0,7,0,,,,,,,,,,,,,,,,,,,,,,,,,,,,,,,,,,,,,,,,,,,,,,,,,,,,,,,,,,,,,,,,30,,,,,,,,310.05136100016534,310.05136100016534,310.05136100016534,310.05136100016534,310.05136100016534,right,0.5269767001736909,0,0,0,99,0.16,-0.32,right,0.43306039995513856,,,,,,,,,,,,,,,,,,,,,,,,,,,,,,,,,,,,,,,,,,,,,,,,,,,,,,,,,,,,0VPN6V,train_x,blue_star,bottom_left,2025-08-19_15h05.16.833,HideSeek_v1,2022.2.5,59.94761777749353,
,2,1,5,1,3,0,31,,train_dim1_1,1,30,,,,2,0,2,0,,,,,,,,,0,0,0,0,0,0,0,0,8,0,8,0,,,,,,,,,,,,,,,,,,,,,,,,,,,,,,,,,,,,,,,,,,,,,,,,,,,,,,,,,,,,,,,,30,,,,,,,,310.5814368999563,310.5814368999563,310.5814368999563,310.5814368999563,310.5814368999563,right,3.276274099946022,0,0,0,99,0.24,-0.32,right,3.199718799907714,,,,,,,,,,,,,,,,,,,,,,,,,,,,,,,,,,,,,,,,,,,,,,,,,,,,,,,,,,,,0VPN6V,train_x,blue_star,bottom_left,2025-08-19_15h05.16.833,HideSeek_v1,2022.2.5,59.94761777749353,
,2,1,5,1,3,0,31,,train_dim1_1,1,30,,,,2,0,2,0,,,,,,,,,0,0,0,0,0,0,0,0,9,0,9,0,,,,,,,,,,,,,,,,,,,,,,,,,,,,,,,,,,,,,,,,,,,,,,,,,,,,,,,,,,,,,,,,30,,,,,,,,313.8628065001685,313.8628065001685,313.8628065001685,313.8628065001685,313.8628065001685,right,0.6102018000092357,0,0,0,99,0.32,-0.32,right,0.5223600999452174,,,,,,,,,,,,,,,,,,,,,,,,,,,,,,,,,,,,,,,,,,,,,,,,,,,,,,,,,,,,0VPN6V,train_x,blue_star,bottom_left,2025-08-19_15h05.16.833,HideSeek_v1,2022.2.5,59.94761777749353,
,2,1,5,1,3,0,31,,train_dim1_1,1,30,,,,2,0,2,0,,,,,,,,,0,0,0,0,0,0,0,0,10,0,10,0,,,,,,,,,,,,,,,,,,,,,,,,,,,,,,,,,,,,,,,,,,,,,,,,,,,,,,,,,,,,,,,,30,,,,,,,,314.48076150007546,314.48076150007546,314.48076150007546,314.48076150007546,314.48076150007546,return,4.329792799893767,0,1,0,0,0.32,-0.32,return,4.245936300139874,0,4,0.32,-0.32,,,,,,,,,,,,,,,,,,,,,,,,,,,,,,,,,,,,,,,,,,,,,,,,,,,,,,,,0VPN6V,train_x,blue_star,bottom_left,2025-08-19_15h05.16.833,HideSeek_v1,2022.2.5,59.94761777749353,
,2,4,7,4,5,0,11,,train_dim1_1,2,30,,,,2,0,2,0,,,,,,,,,0,0,0,0,0,1,1,1,0,0,0,0,,,,,,,,,,,,,,,,,,,,,,,,,stimuli/alien_stimuli/11.png,,,,,,,,,,,,,,,,,,,,,,,,,,,,,stimuli/alien_stimuli/31.png,31,2,3,,,,,,,30,,,,,,,,336.8998549999669,336.8998549999669,336.8998549999669,336.8998549999669,336.8998549999669,right,6.541312900139019,0,1,0,99,0.08,-0.08,right,6.429116199957207,,,,,335.3173802001402,336.8998549999669,0.24,-0.32,0.0,0.24,-0.32,0.24,0.12,0.24,-0.32,320.38751760008745,320.38751760008745,320.38751760008745,320.38751760008745,320.38751760008745,320.38751760008745,320.38751760008745,320.38751760008745,320.3716566701653,15.047880100086331,return,14.898324799956754,,,,,,,,,,,,,,,,,,,,,,,,,,,,,,,,,0VPN6V,train_x,blue_star,bottom_left,2025-08-19_15h05.16.833,HideSeek_v1,2022.2.5,59.94761777749353,
,2,4,7,4,5,0,11,,train_dim1_1,2,30,,,,2,0,2,0,,,,,,,,,0,0,0,0,0,1,1,1,1,0,1,0,,,,,,,,,,,,,,,,,,,,,,,,,,,,,,,,,,,,,,,,,,,,,,,,,,,,,,,,,,,,,,,,30,,,,,,,,343.4261419000104,343.4261419000104,343.4261419000104,343.4261419000104,343.4261419000104,right,1.2767797999549657,0,1,0,99,0.16,-0.08,right,1.1940363000612706,,,,,,,,,,,,,,,,,,,,,,,,,,,,,,,,,,,,,,,,,,,,,,,,,,,,,,,,,,,,0VPN6V,train_x,blue_star,bottom_left,2025-08-19_15h05.16.833,HideSeek_v1,2022.2.5,59.94761777749353,
,2,4,7,4,5,0,11,,train_dim1_1,2,30,,,,2,0,2,0,,,,,,,,,0,0,0,0,0,1,1,1,2,0,2,0,,,,,,,,,,,,,,,,,,,,,,,,,,,,,,,,,,,,,,,,,,,,,,,,,,,,,,,,,,,,,,,,30,,,,,,,,344.70892580016516,344.70892580016516,344.70892580016516,344.70892580016516,344.70892580016516,return,3.9295071000233293,0,0,0,0,0.16,-0.08,return,3.847273699939251,0,6,0.16,-0.08,,,,,,,,,,,,,,,,,,,,,,,,,,,,,,,,,,,,,,,,,,,,,,,,,,,,,,,,0VPN6V,train_x,blue_star,bottom_left,2025-08-19_15h05.16.833,HideSeek_v1,2022.2.5,59.94761777749353,
,4,4,8,4,4,0,21,,train_dim1_1,3,30,,,,2,0,2,0,,,,,,,,,0,0,0,0,0,2,2,2,0,0,0,0,,,,,,,,,,,,,,,,,,,,,,,,,stimuli/alien_stimuli/21.png,,,,,,,,,,,,,,,,,,,,,,,,,,,,,stimuli/alien_stimuli/11.png,11,2,4,,,,,,,30,,,,,,,,362.9798724001739,362.9798724001739,362.9798724001739,362.9798724001739,362.9798724001739,right,7.425503599923104,0,0,0,99,0.24,-0.08,right,7.319729499984533,,,,,361.40596970007755,362.9798724001739,0.4,-0.08,0.0,0.4,-0.08,0.4,0.2,0.4,-0.08,350.2270896001719,350.2270896001719,350.2270896001719,350.2270896001719,350.2270896001719,350.2270896001719,350.2270896001719,350.2270896001719,350.2130117800087,11.312330899992958,return,11.163237300002947,,,,,,,,,,,,,,,,,,,,,,,,,,,,,,,,,0VPN6V,train_x,blue_star,bottom_left,2025-08-19_15h05.16.833,HideSeek_v1,2022.2.5,59.94761777749353,
,4,4,8,4,4,0,21,,train_dim1_1,3,30,,,,2,0,2,0,,,,,,,,,0,0,0,0,0,2,2,2,1,0,1,0,,,,,,,,,,,,,,,,,,,,,,,,,,,,,,,,,,,,,,,,,,,,,,,,,,,,,,,,,,,,,,,,30,,,,,,,,370.4039555999916,370.4039555999916,370.4039555999916,370.4039555999916,370.4039555999916,right,0.4711677001323551,0,0,0,99,0.32,-0.08,right,0.3924171000253409,,,,,,,,,,,,,,,,,,,,,,,,,,,,,,,,,,,,,,,,,,,,,,,,,,,,,,,,,,,,0VPN6V,train_x,blue_star,bottom_left,2025-08-19_15h05.16.833,HideSeek_v1,2022.2.5,59.94761777749353,
,4,4,8,4,4,0,21,,train_dim1_1,3,30,,,,2,0,2,0,,,,,,,,,0,0,0,0,0,2,2,2,2,0,2,0,,,,,,,,,,,,,,,,,,,,,,,,,,,,,,,,,,,,,,,,,,,,,,,,,,,,,,,,,,,,,,,,30,,,,,,,,370.88176250015385,370.88176250015385,370.88176250015385,370.88176250015385,370.88176250015385,right,0.5599177998956293,0,0,0,99,0.4,-0.08,right,0.4723682999610901,,,,,,,,,,,,,,,,,,,,,,,,,,,,,,,,,,,,,,,,,,,,,,,,,,,,,,,,,,,,0VPN6V,train_x,blue_star,bottom_left,2025-08-19_15h05.16.833,HideSeek_v1,2022.2.5,59.94761777749353,
,4,4,8,4,4,0,21,,train_dim1_1,3,30,,,,2,0,2,0,,,,,,,,,0,0,0,0,0,2,2,2,3,0,3,0,,,,,,,,,,,,,,,,,,,,,,,,,,,,,,,,,,,,,,,,,,,,,,,,,,,,,,,,,,,,,,,,30,,,,,,,,371.44791390001774,371.44791390001774,371.44791390001774,371.44791390001774,371.44791390001774,right,0.5601355999242514,0,0,0,99,0.48000000000000004,-0.08,right,0.48216129979118705,,,,,,,,,,,,,,,,,,,,,,,,,,,,,,,,,,,,,,,,,,,,,,,,,,,,,,,,,,,,0VPN6V,train_x,blue_star,bottom_left,2025-08-19_15h05.16.833,HideSeek_v1,2022.2.5,59.94761777749353,
,4,4,8,4,4,0,21,,train_dim1_1,3,30,,,,2,0,2,0,,,,,,,,,0,0,0,0,0,2,2,2,4,0,4,0,,,,,,,,,,,,,,,,,,,,,,,,,,,,,,,,,,,,,,,,,,,,,,,,,,,,,,,,,,,,,,,,30,,,,,,,,372.01546270004474,372.01546270004474,372.01546270004474,372.01546270004474,372.01546270004474,left,2.395029400009662,0,0,0,99,0.4,-0.08,left,2.316819000057876,,,,,,,,,,,,,,,,,,,,,,,,,,,,,,,,,,,,,,,,,,,,,,,,,,,,,,,,,,,,0VPN6V,train_x,blue_star,bottom_left,2025-08-19_15h05.16.833,HideSeek_v1,2022.2.5,59.94761777749353,
,4,4,8,4,4,0,21,,train_dim1_1,3,30,,,,2,0,2,0,,,,,,,,,0,0,0,0,0,2,2,2,5,0,5,0,,,,,,,,,,,,,,,,,,,,,,,,,,,,,,,,,,,,,,,,,,,,,,,,,,,,,,,,,,,,,,,,30,,,,,,,,374.4182347001042,374.4182347001042,374.4182347001042,374.4182347001042,374.4182347001042,return,1.3774389000609517,0,1,0,0,0.4,-0.08,return,1.298571800114587,0,9,0.4,-0.08,,,,,,,,,,,,,,,,,,,,,,,,,,,,,,,,,,,,,,,,,,,,,,,,,,,,,,,,0VPN6V,train_x,blue_star,bottom_left,2025-08-19_15h05.16.833,HideSeek_v1,2022.2.5,59.94761777749353,
,2,3,3,3,1,0,51,,train_dim1_1,4,30,,,,2,0,2,0,,,,,,,,,0,0,0,0,0,3,3,3,0,0,0,0,,,,,,,,,,,,,,,,,,,,,,,,,stimuli/alien_stimuli/51.png,,,,,,,,,,,,,,,,,,,,,,,,,,,,,stimuli/alien_stimuli/21.png,21,4,5,,,,,,,30,,,,,,,,384.92513380013406,384.92513380013406,384.92513380013406,384.92513380013406,384.92513380013406,right,8.507898800075054,0,1,0,99,0.08,-0.16,right,8.414859500015154,,,,,383.35734230000526,384.92513380013406,0.48,-0.08,0.0,0.32,-0.08,0.48,0.32,0.48,-0.08,377.38121629995294,377.38121629995294,377.38121629995294,377.38121629995294,377.38121629995294,377.38121629995294,377.38121629995294,377.38121629995294,377.3688431800809,6.107278699986637,return,5.954009499866515,,,,,,,,,,,,,,,,,,,,,,,,,,,,,,,,,0VPN6V,train_x,blue_star,bottom_left,2025-08-19_15h05.16.833,HideSeek_v1,2022.2.5,59.94761777749353,
,2,3,3,3,1,0,51,,train_dim1_1,4,30,,,,2,0,2,0,,,,,,,,,0,0,0,0,0,3,3,3,1,0,1,0,,,,,,,,,,,,,,,,,,,,,,,,,,,,,,,,,,,,,,,,,,,,,,,,,,,,,,,,,,,,,,,,30,,,,,,,,393.4391459999606,393.4391459999606,393.4391459999606,393.4391459999606,393.4391459999606,right,1.222995099844411,0,1,0,99,0.16,-0.16,right,1.1440375000238419,,,,,,,,,,,,,,,,,,,,,,,,,,,,,,,,,,,,,,,,,,,,,,,,,,,,,,,,,,,,0VPN6V,train_x,blue_star,bottom_left,2025-08-19_15h05.16.833,HideSeek_v1,2022.2.5,59.94761777749353,
,2,3,3,3,1,0,51,,train_dim1_1,4,30,,,,2,0,2,0,,,,,,,,,0,0,0,0,0,3,3,3,2,0,2,0,,,,,,,,,,,,,,,,,,,,,,,,,,,,,,,,,,,,,,,,,,,,,,,,,,,,,,,,,,,,,,,,30,,,,,,,,394.6671325999778,394.6671325999778,394.6671325999778,394.6671325999778,394.6671325999778,up,3.261409599799663,0,1,0,99,0.16,-0.08,up,3.1839710001368076,,,,,,,,,,,,,,,,,,,,,,,,,,,,,,,,,,,,,,,,,,,,,,,,,,,,,,,,,,,,0VPN6V,train_x,blue_star,bottom_left,2025-08-19_15h05.16.833,HideSeek_v1,2022.2.5,59.94761777749353,
,2,3,3,3,1,0,51,,train_dim1_1,4,30,,,,2,0,2,0,,,,,,,,,0,0,0,0,0,3,3,3,3,0,3,0,,,,,,,,,,,,,,,,,,,,,,,,,,,,,,,,,,,,,,,,,,,,,,,,,,,,,,,,,,,,,,,,30,,,,,,,,397.93640450015664,397.93640450015664,397.93640450015664,397.93640450015664,397.93640450015664,down,1.9942888000514358,0,1,0,99,0.16,-0.16,down,1.9126910998020321,,,,,,,,,,,,,,,,,,,,,,,,,,,,,,,,,,,,,,,,,,,,,,,,,,,,,,,,,,,,0VPN6V,train_x,blue_star,bottom_left,2025-08-19_15h05.16.833,HideSeek_v1,2022.2.5,59.94761777749353,
,2,3,3,3,1,0,51,,train_dim1_1,4,30,,,,2,0,2,0,,,,,,,,,0,0,0,0,0,3,3,3,4,0,4,0,,,,,,,,,,,,,,,,,,,,,,,,,,,,,,,,,,,,,,,,,,,,,,,,,,,,,,,,,,,,,,,,30,,,,,,,,399.9376591001637,399.9376591001637,399.9376591001637,399.9376591001637,399.9376591001637,right,4.1122888000682,0,1,0,99,0.24,-0.16,right,4.022333500208333,,,,,,,,,,,,,,,,,,,,,,,,,,,,,,,,,,,,,,,,,,,,,,,,,,,,,,,,,,,,0VPN6V,train_x,blue_star,bottom_left,2025-08-19_15h05.16.833,HideSeek_v1,2022.2.5,59.94761777749353,
,2,3,3,3,1,0,51,,train_dim1_1,4,30,,,,2,0,2,0,,,,,,,,,0,0,0,0,0,3,3,3,5,0,5,0,,,,,,,,,,,,,,,,,,,,,,,,,,,,,,,,,,,,,,,,,,,,,,,,,,,,,,,,,,,,,,,,30,,,,,,,,404.0575336001348,404.0575336001348,404.0575336001348,404.0575336001348,404.0575336001348,right,0.9268369998317212,0,1,0,99,0.32,-0.16,right,0.8436060000676662,,,,,,,,,,,,,,,,,,,,,,,,,,,,,,,,,,,,,,,,,,,,,,,,,,,,,,,,,,,,0VPN6V,train_x,blue_star,bottom_left,2025-08-19_15h05.16.833,HideSeek_v1,2022.2.5,59.94761777749353,
,2,3,3,3,1,0,51,,train_dim1_1,4,30,,,,2,0,2,0,,,,,,,,,0,0,0,0,0,3,3,3,6,0,6,0,,,,,,,,,,,,,,,,,,,,,,,,,,,,,,,,,,,,,,,,,,,,,,,,,,,,,,,,,,,,,,,,30,,,,,,,,404.9915229000617,404.9915229000617,404.9915229000617,404.9915229000617,404.9915229000617,return,0.893087400123477,0,0,0,0,0.32,-0.16,return,0.8119388001505286,0,13,0.32,-0.16,,,,,,,,,,,,,,,,,,,,,,,,,,,,,,,,,,,,,,,,,,,,,,,,,,,,,,,,0VPN6V,train_x,blue_star,bottom_left,2025-08-19_15h05.16.833,HideSeek_v1,2022.2.5,59.94761777749353,
,0,2,0,2,0,0,61,,train_dim1_1,5,30,,,,2,0,2,0,,,,,,,,,0,0,0,0,0,4,4,4,0,0,0,0,,,,,,,,,,,,,,,,,,,,,,,,,stimuli/alien_stimuli/61.png,,,,,,,,,,,,,,,,,,,,,,,,,,,,,stimuli/alien_stimuli/51.png,51,2,6,,,,,,,30,,,,,,,,413.8592374001164,413.8592374001164,413.8592374001164,413.8592374001164,413.8592374001164,right,2.6215727999806404,0,0,0,99,-0.08,-0.24,right,2.5311756001319736,,,,,412.29811940016225,413.8592374001164,0.08,-0.16,0.0,0.08,-0.16,0.08,0.04,0.08,-0.16,407.4698441999499,407.4698441999499,407.4698441999499,407.4698441999499,407.4698441999499,407.4698441999499,407.4698441999499,407.4698441999499,407.4608870800119,4.956096800044179,return,4.8108425999525934,,,,,,,,,,,,,,,,,,,,,,,,,,,,,,,,,0VPN6V,train_x,blue_star,bottom_left,2025-08-19_15h05.16.833,HideSeek_v1,2022.2.5,59.94761777749353,
,0,2,0,2,0,0,61,,train_dim1_1,5,30,,,,2,0,2,0,,,,,,,,,0,0,0,0,0,4,4,4,1,0,1,0,,,,,,,,,,,,,,,,,,,,,,,,,,,,,,,,,,,,,,,,,,,,,,,,,,,,,,,,,,,,,,,,30,,,,,,,,416.48681260016747,416.48681260016747,416.48681260016747,416.48681260016747,416.48681260016747,return,0.7552387998439372,0,1,0,0,-0.08,-0.24,return,0.6683630000334233,0,14,-0.08,-0.24,,,,,,,,,,,,,,,,,,,,,,,,,,,,,,,,,,,,,,,,,,,,,,,,,,,,,,,,0VPN6V,train_x,blue_star,bottom_left,2025-08-19_15h05.16.833,HideSeek_v1,2022.2.5,59.94761777749353,
,0,0,4,0,4,0,21,,train_dim1_1,6,30,,,,2,0,2,0,,,,,,,,,0,0,0,0,0,5,5,5,0,0,0,0,,,,,,,,,,,,,,,,,,,,,,,,,stimuli/alien_stimuli/21.png,,,,,,,,,,,,,,,,,,,,,,,,,,,,,stimuli/alien_stimuli/61.png,61,0,7,,,,,,,30,,,,,,,,425.74282409995794,425.74282409995794,425.74282409995794,425.74282409995794,425.74282409995794,right,3.072390700224787,0,1,0,99,-0.08,-0.4,right,2.9826247999444604,,,,,424.17462930013426,425.74282409995794,-0.16,-0.24,0.0,0.0,-0.24,-0.16,-0.16,-0.16,-0.24,418.82113749999553,418.82113749999553,418.82113749999553,418.82113749999553,418.82113749999553,418.82113749999553,418.82113749999553,418.82113749999553,418.80336827009455,5.473490299889818,return,5.330028099939227,,,,,,,,,,,,,,,,,,,,,,,,,,,,,,,,,0VPN6V,train_x,blue_star,bottom_left,2025-08-19_15h05.16.833,HideSeek_v1,2022.2.5,59.94761777749353,
,0,0,4,0,4,0,21,,train_dim1_1,6,30,,,,2,0,2,0,,,,,,,,,0,0,0,0,0,5,5,5,1,0,1,0,,,,,,,,,,,,,,,,,,,,,,,,,,,,,,,,,,,,,,,,,,,,,,,,,,,,,,,,,,,,,,,,30,,,,,,,,428.8130481999833,428.8130481999833,428.8130481999833,428.8130481999833,428.8130481999833,right,0.5429074999410659,0,1,0,99,0.0,-0.4,right,0.45649350015446544,,,,,,,,,,,,,,,,,,,,,,,,,,,,,,,,,,,,,,,,,,,,,,,,,,,,,,,,,,,,0VPN6V,train_x,blue_star,bottom_left,2025-08-19_15h05.16.833,HideSeek_v1,2022.2.5,59.94761777749353,
,0,0,4,0,4,0,21,,train_dim1_1,6,30,,,,2,0,2,0,,,,,,,,,0,0,0,0,0,5,5,5,2,0,2,0,,,,,,,,,,,,,,,,,,,,,,,,,,,,,,,,,,,,,,,,,,,,,,,,,,,,,,,,,,,,,,,,30,,,,,,,,429.3628660000395,429.3628660000395,429.3628660000395,429.3628660000395,429.3628660000395,right,0.6435475000180304,0,1,0,99,0.08,-0.4,right,0.5581269999966025,,,,,,,,,,,,,,,,,,,,,,,,,,,,,,,,,,,,,,,,,,,,,,,,,,,,,,,,,,,,0VPN6V,train_x,blue_star,bottom_left,2025-08-19_15h05.16.833,HideSeek_v1,2022.2.5,59.94761777749353,
,0,0,4,0,4,0,21,,train_dim1_1,6,30,,,,2,0,2,0,,,,,,,,,0,0,0,0,0,5,5,5,3,0,3,0,,,,,,,,,,,,,,,,,,,,,,,,,,,,,,,,,,,,,,,,,,,,,,,,,,,,,,,,,,,,,,,,30,,,,,,,,430.01356860017404,430.01356860017404,430.01356860017404,430.01356860017404,430.01356860017404,right,0.6603083999361843,0,1,0,99,0.16,-0.4,right,0.5793943000026047,,,,,,,,,,,,,,,,,,,,,,,,,,,,,,,,,,,,,,,,,,,,,,,,,,,,,,,,,,,,0VPN6V,train_x,blue_star,bottom_left,2025-08-19_15h05.16.833,HideSeek_v1,2022.2.5,59.94761777749353,
,0,0,4,0,4,0,21,,train_dim1_1,6,30,,,,2,0,2,0,,,,,,,,,0,0,0,0,0,5,5,5,4,0,4,0,,,,,,,,,,,,,,,,,,,,,,,,,,,,,,,,,,,,,,,,,,,,,,,,,,,,,,,,,,,,,,,,30,,,,,,,,430.68164520012215,430.68164520012215,430.68164520012215,430.68164520012215,430.68164520012215,right,0.9604549999348819,0,1,0,99,0.24,-0.4,right,0.8742299000732601,,,,,,,,,,,,,,,,,,,,,,,,,,,,,,,,,,,,,,,,,,,,,,,,,,,,,,,,,,,,0VPN6V,train_x,blue_star,bottom_left,2025-08-19_15h05.16.833,HideSeek_v1,2022.2.5,59.94761777749353,
,0,0,4,0,4,0,21,,train_dim1_1,6,30,,,,2,0,2,0,,,,,,,,,0,0,0,0,0,5,5,5,5,0,5,0,,,,,,,,,,,,,,,,,,,,,,,,,,,,,,,,,,,,,,,,,,,,,,,,,,,,,,,,,,,,,,,,30,,,,,,,,431.6479087001644,431.6479087001644,431.6479087001644,431.6479087001644,431.6479087001644,return,1.7444139998406172,0,1,0,0,0.24,-0.4,return,1.6576471999287605,0,19,0.24,-0.4,,,,,,,,,,,,,,,,,,,,,,,,,,,,,,,,,,,,,,,,,,,,,,,,,,,,,,,,0VPN6V,train_x,blue_star,bottom_left,2025-08-19_15h05.16.833,HideSeek_v1,2022.2.5,59.94761777749353,
,3,0,3,0,0,0,61,,train_dim1_1,7,30,,,,2,0,2,0,,,,,,,,,0,0,0,0,0,6,6,6,0,0,0,0,,,,,,,,,,,,,,,,,,,,,,,,,stimuli/alien_stimuli/61.png,,,,,,,,,,,,,,,,,,,,,,,,,,,,,stimuli/alien_stimuli/21.png,21,0,8,,,,,,,30,,,,,,,,441.367461200105,441.367461200105,441.367461200105,441.367461200105,441.367461200105,return,2.870555999921635,1,0,0,1,0.08,-0.4,return,2.787848599953577,0,19,0.08,-0.4,439.8042945000343,441.367461200105,0.16,-0.4,0.0,0.32,-0.4,0.16,0.0,0.16,-0.4,434.96451269998215,434.96451269998215,434.96451269998215,434.96451269998215,434.96451269998215,434.96451269998215,434.96451269998215,434.96451269998215,434.95037106999666,4.955797099974006,return,4.814895699964836,,,,,,,,,,,,,,,,,,,,,,,,,,,,,,,,,0VPN6V,train_x,blue_star,bottom_left,2025-08-19_15h05.16.833,HideSeek_v1,2022.2.5,59.94761777749353,
,0,4,3,4,3,0,31,,train_dim1_1,8,30,,,,2,0,2,0,,,,,,,,,0,0,0,0,0,7,7,7,0,0,0,0,,,,,,,,,,,,,,,,,,,,,,,,,stimuli/alien_stimuli/31.png,,,,,,,,,,,,,,,,,,,,,,,,,,,,,stimuli/alien_stimuli/61.png,61,3,9,,,,,,,30,,,,,,,,450.55744490004145,450.55744490004145,450.55744490004145,450.55744490004145,450.55744490004145,right,4.273468100000173,1,0,0,99,-0.08,-0.08,right,4.188597399974242,,,,,448.99526360002346,450.55744490004145,0.08,-0.4,0.0,0.0,-0.4,0.08,0.08,0.08,-0.4,445.81881409999914,445.81881409999914,445.81881409999914,445.81881409999914,445.81881409999914,445.81881409999914,445.81881409999914,445.81881409999914,445.80905057997444,3.3052319001872092,return,3.156576099805534,,,,,,,,,,,,,,,,,,,,,,,,,,,,,,,,,0VPN6V,train_x,blue_star,bottom_left,2025-08-19_15h05.16.833,HideSeek_v1,2022.2.5,59.94761777749353,
,0,4,3,4,3,0,31,,train_dim1_1,8,30,,,,2,0,2,0,,,,,,,,,0,0,0,0,0,7,7,7,1,0,1,0,,,,,,,,,,,,,,,,,,,,,,,,,,,,,,,,,,,,,,,,,,,,,,,,,,,,,,,,,,,,,,,,30,,,,,,,,454.83227590005845,454.83227590005845,454.83227590005845,454.83227590005845,454.83227590005845,right,1.093301499960944,1,0,0,99,0.0,-0.08,right,1.0094700001645833,,,,,,,,,,,,,,,,,,,,,,,,,,,,,,,,,,,,,,,,,,,,,,,,,,,,,,,,,,,,0VPN6V,train_x,blue_star,bottom_left,2025-08-19_15h05.16.833,HideSeek_v1,2022.2.5,59.94761777749353,
,0,4,3,4,3,0,31,,train_dim1_1,8,30,,,,2,0,2,0,,,,,,,,,0,0,0,0,0,7,7,7,2,0,2,0,,,,,,,,,,,,,,,,,,,,,,,,,,,,,,,,,,,,,,,,,,,,,,,,,,,,,,,,,,,,,,,,30,,,,,,,,455.9329772000201,455.9329772000201,455.9329772000201,455.9329772000201,455.9329772000201,right,2.227833000011742,1,0,0,99,0.08,-0.08,right,2.151938899885863,,,,,,,,,,,,,,,,,,,,,,,,,,,,,,,,,,,,,,,,,,,,,,,,,,,,,,,,,,,,0VPN6V,train_x,blue_star,bottom_left,2025-08-19_15h05.16.833,HideSeek_v1,2022.2.5,59.94761777749353,
,0,4,3,4,3,0,31,,train_dim1_1,8,30,,,,2,0,2,0,,,,,,,,,0,0,0,0,0,7,7,7,3,0,3,0,,,,,,,,,,,,,,,,,,,,,,,,,,,,,,,,,,,,,,,,,,,,,,,,,,,,,,,,,,,,,,,,30,,,,,,,,458.16753170010634,458.16753170010634,458.16753170010634,458.16753170010634,458.16753170010634,return,2.9955136000644416,2,0,0,1,0.08,-0.08,return,2.9167845000047237,0,22,0.08,-0.08,,,,,,,,,,,,,,,,,,,,,,,,,,,,,,,,,,,,,,,,,,,,,,,,,,,,,,,,0VPN6V,train_x,blue_star,bottom_left,2025-08-19_15h05.16.833,HideSeek_v1,2022.2.5,59.94761777749353,
,1,0,2,0,1,0,51,,train_dim1_1,9,30,,,,2,0,2,0,,,,,,,,,0,0,0,0,0,8,8,8,0,0,0,0,,,,,,,,,,,,,,,,,,,,,,,,,stimuli/alien_stimuli/51.png,,,,,,,,,,,,,,,,,,,,,,,,,,,,,stimuli/alien_stimuli/31.png,31,0,10,,,,,,,30,,,,,,,,466.98862960003316,466.98862960003316,466.98862960003316,466.98862960003316,466.98862960003316,right,3.789487199857831,2,0,0,99,0.0,-0.4,right,3.7079125999007374,,,,,465.4255657000467,466.98862960003316,0.08,-0.08,0.0,0.24,-0.08,0.08,-0.04,0.08,-0.08,462.7451389001217,462.7451389001217,462.7451389001217,462.7451389001217,462.7451389001217,462.7451389001217,462.7451389001217,462.7451389001217,462.7232196700527,2.804578199982643,return,2.649352799868211,,,,,,,,,,,,,,,,,,,,,,,,,,,,,,,,,0VPN6V,train_x,blue_star,bottom_left,2025-08-19_15h05.16.833,HideSeek_v1,2022.2.5,59.94761777749353,
,1,0,2,0,1,0,51,,train_dim1_1,9,30,,,,2,0,2,0,,,,,,,,,0,0,0,0,0,8,8,8,1,0,1,0,,,,,,,,,,,,,,,,,,,,,,,,,,,,,,,,,,,,,,,,,,,,,,,,,,,,,,,,,,,,,,,,30,,,,,,,,470.78102710004896,470.78102710004896,470.78102710004896,470.78102710004896,470.78102710004896,return,1.910037999972701,3,0,0,1,0.0,-0.4,return,1.833052600035444,0,23,0.0,-0.4,,,,,,,,,,,,,,,,,,,,,,,,,,,,,,,,,,,,,,,,,,,,,,,,,,,,,,,,0VPN6V,train_x,blue_star,bottom_left,2025-08-19_15h05.16.833,HideSeek_v1,2022.2.5,59.94761777749353,
,0,3,5,3,5,0,11,,train_dim1_1,10,30,,,,2,0,2,0,,,,,,,,,0,0,0,0,0,9,9,9,0,0,0,0,,,,,,,,,,,,,,,,,,,,,,,,,stimuli/alien_stimuli/11.png,,,,,,,,,,,,,,,,,,,,,,,,,,,,,stimuli/alien_stimuli/51.png,51,1,11,,,,,,,30,,,,,,,,478.47277930006385,478.47277930006385,478.47277930006385,478.47277930006385,478.47277930006385,right,1.853245500009507,3,0,0,99,-0.08,-0.16,right,1.7647700000088662,,,,,476.90170720010065,478.47277930006385,0,-0.4,0.0,0.08,-0.4,0,-0.04,0,-0.4,474.27664509997703,474.27664509997703,474.27664509997703,474.27664509997703,474.27664509997703,474.27664509997703,474.27664509997703,474.27664509997703,474.26620118012653,2.7540541000198573,return,2.607011599931866,,,,,,,,,,,,,,,,,,,,,,,,,,,,,,,,,0VPN6V,train_x,blue_star,bottom_left,2025-08-19_15h05.16.833,HideSeek_v1,2022.2.5,59.94761777749353,
,0,3,5,3,5,0,11,,train_dim1_1,10,30,,,,2,0,2,0,,,,,,,,,0,0,0,0,0,9,9,9,1,0,1,0,,,,,,,,,,,,,,,,,,,,,,,,,,,,,,,,,,,,,,,,,,,,,,,,,,,,,,,,,,,,,,,,30,,,,,,,,480.32455520005897,480.32455520005897,480.32455520005897,480.32455520005897,480.32455520005897,right,0.4921689999755472,3,0,0,99,0.0,-0.16,right,0.40530959982424974,,,,,,,,,,,,,,,,,,,,,,,,,,,,,,,,,,,,,,,,,,,,,,,,,,,,,,,,,,,,0VPN6V,train_x,blue_star,bottom_left,2025-08-19_15h05.16.833,HideSeek_v1,2022.2.5,59.94761777749353,
,0,3,5,3,5,0,11,,train_dim1_1,10,30,,,,2,0,2,0,,,,,,,,,0,0,0,0,0,9,9,9,2,0,2,0,,,,,,,,,,,,,,,,,,,,,,,,,,,,,,,,,,,,,,,,,,,,,,,,,,,,,,,,,,,,,,,,30,,,,,,,,480.8224916001782,480.8224916001782,480.8224916001782,480.8224916001782,480.8224916001782,right,0.543432499980554,3,0,0,99,0.08,-0.16,right,0.465943300165236,,,,,,,,,,,,,,,,,,,,,,,,,,,,,,,,,,,,,,,,,,,,,,,,,,,,,,,,,,,,0VPN6V,train_x,blue_star,bottom_left,2025-08-19_15h05.16.833,HideSeek_v1,2022.2.5,59.94761777749353,
,0,3,5,3,5,0,11,,train_dim1_1,10,30,,,,2,0,2,0,,,,,,,,,0,0,0,0,0,9,9,9,3,0,3,0,,,,,,,,,,,,,,,,,,,,,,,,,,,,,,,,,,,,,,,,,,,,,,,,,,,,,,,,,,,,,,,,30,,,,,,,,481.373190500075,481.373190500075,481.373190500075,481.373190500075,481.373190500075,right,0.5767115000635386,3,0,0,99,0.16,-0.16,right,0.49618680006824434,,,,,,,,,,,,,,,,,,,,,,,,,,,,,,,,,,,,,,,,,,,,,,,,,,,,,,,,,,,,0VPN6V,train_x,blue_star,bottom_left,2025-08-19_15h05.16.833,HideSeek_v1,2022.2.5,59.94761777749353,
,0,3,5,3,5,0,11,,train_dim1_1,10,30,,,,2,0,2,0,,,,,,,,,0,0,0,0,0,9,9,9,4,0,4,0,,,,,,,,,,,,,,,,,,,,,,,,,,,,,,,,,,,,,,,,,,,,,,,,,,,,,,,,,,,,,,,,30,,,,,,,,481.9572777999565,481.9572777999565,481.9572777999565,481.9572777999565,481.9572777999565,right,0.6934811999090016,3,0,0,99,0.24,-0.16,right,0.6091449002269655,,,,,,,,,,,,,,,,,,,,,,,,,,,,,,,,,,,,,,,,,,,,,,,,,,,,,,,,,,,,0VPN6V,train_x,blue_star,bottom_left,2025-08-19_15h05.16.833,HideSeek_v1,2022.2.5,59.94761777749353,
,0,3,5,3,5,0,11,,train_dim1_1,10,30,,,,2,0,2,0,,,,,,,,,0,0,0,0,0,9,9,9,5,0,5,0,,,,,,,,,,,,,,,,,,,,,,,,,,,,,,,,,,,,,,,,,,,,,,,,,,,,,,,,,,,,,,,,30,,,,,,,,482.65688330004923,482.65688330004923,482.65688330004923,482.65688330004923,482.65688330004923,return,0.7269431001041085,4,0,0,1,0.24,-0.16,return,0.6409155998844653,0,28,0.24,-0.16,,,,,,,,,,,,,,,,,,,,,,,,,,,,,,,,,,,,,,,,,,,,,,,,,,,,,,,,0VPN6V,train_x,blue_star,bottom_left,2025-08-19_15h05.16.833,HideSeek_v1,2022.2.5,59.94761777749353,
,2,2,5,2,3,0,31,,train_dim1_1,11,30,,,,2,0,2,0,,,,,,,,,0,0,0,0,0,10,10,10,0,0,0,0,,,,,,,,,,,,,,,,,,,,,,,,,stimuli/alien_stimuli/31.png,,,,,,,,,,,,,,,,,,,,,,,,,,,,,stimuli/alien_stimuli/11.png,11,0,12,,,,,,,30,,,,,,,,489.50801860005595,489.50801860005595,489.50801860005595,489.50801860005595,489.50801860005595,right,3.4375352000351995,4,0,0,99,0.08,-0.24,right,3.3568264998029917,,,,,487.94432140002027,489.50801860005595,0.24,-0.16,0.0,0.4,-0.16,0.24,0.039999999999999994,0.24,-0.16,484.97794300015084,484.97794300015084,484.97794300015084,484.97794300015084,484.97794300015084,484.97794300015084,484.97794300015084,484.97794300015084,484.95855228016154,3.104160600109026,return,2.9392588001210243,,,,,,,,,,,,,,,,,,,,,,,,,,,,,,,,,0VPN6V,train_x,blue_star,bottom_left,2025-08-19_15h05.16.833,HideSeek_v1,2022.2.5,59.94761777749353,
,2,2,5,2,3,0,31,,train_dim1_1,11,30,,,,2,0,2,0,,,,,,,,,0,0,0,0,0,10,10,10,1,0,1,0,,,,,,,,,,,,,,,,,,,,,,,,,,,,,,,,,,,,,,,,,,,,,,,,,,,,,,,,,,,,,,,,30,,,,,,,,492.94771079998463,492.94771079998463,492.94771079998463,492.94771079998463,492.94771079998463,right,0.6089652001392096,4,0,0,99,0.16,-0.24,right,0.5200489000417292,,,,,,,,,,,,,,,,,,,,,,,,,,,,,,,,,,,,,,,,,,,,,,,,,,,,,,,,,,,,0VPN6V,train_x,blue_star,bottom_left,2025-08-19_15h05.16.833,HideSeek_v1,2022.2.5,59.94761777749353,
,2,2,5,2,3,0,31,,train_dim1_1,11,30,,,,2,0,2,0,,,,,,,,,0,0,0,0,0,10,10,10,2,0,2,0,,,,,,,,,,,,,,,,,,,,,,,,,,,,,,,,,,,,,,,,,,,,,,,,,,,,,,,,,,,,,,,,30,,,,,,,,493.56313360016793,493.56313360016793,493.56313360016793,493.56313360016793,493.56313360016793,right,0.6101074998732656,4,0,0,99,0.24,-0.24,right,0.5259333001449704,,,,,,,,,,,,,,,,,,,,,,,,,,,,,,,,,,,,,,,,,,,,,,,,,,,,,,,,,,,,0VPN6V,train_x,blue_star,bottom_left,2025-08-19_15h05.16.833,HideSeek_v1,2022.2.5,59.94761777749353,
,2,2,5,2,3,0,31,,train_dim1_1,11,30,,,,2,0,2,0,,,,,,,,,0,0,0,0,0,10,10,10,3,0,3,0,,,,,,,,,,,,,,,,,,,,,,,,,,,,,,,,,,,,,,,,,,,,,,,,,,,,,,,,,,,,,,,,30,,,,,,,,494.1795256000478,494.1795256000478,494.1795256000478,494.1795256000478,494.1795256000478,return,0.5435548000968993,5,0,0,1,0.24,-0.24,return,0.46891109994612634,0,31,0.24,-0.24,,,,,,,,,,,,,,,,,,,,,,,,,,,,,,,,,,,,,,,,,,,,,,,,,,,,,,,,0VPN6V,train_x,blue_star,bottom_left,2025-08-19_15h05.16.833,HideSeek_v1,2022.2.5,59.94761777749353,
,0,0,4,0,4,0,21,,train_dim1_1,12,30,,,,2,0,2,0,,,,,,,,,0,0,0,0,0,11,11,11,0,0,0,0,,,,,,,,,,,,,,,,,,,,,,,,,stimuli/alien_stimuli/21.png,,,,,,,,,,,,,,,,,,,,,,,,,,,,,stimuli/alien_stimuli/31.png,31,2,13,,,,,,,30,,,,,,,,500.5581144001335,500.5581144001335,500.5581144001335,500.5581144001335,500.5581144001335,right,2.3680326999165118,5,0,0,99,-0.08,-0.4,right,2.2815400999970734,,,,,498.9866224001162,500.5581144001335,0.24,-0.24,0.0,0.24,-0.24,0.24,0.12,0.24,-0.24,496.31195610016584,496.31195610016584,496.31195610016584,496.31195610016584,496.31195610016584,496.31195610016584,496.31195610016584,496.31195610016584,496.30121638015845,2.8040495000313967,return,2.6495517999865115,,,,,,,,,,,,,,,,,,,,,,,,,,,,,,,,,0VPN6V,train_x,blue_star,bottom_left,2025-08-19_15h05.16.833,HideSeek_v1,2022.2.5,59.94761777749353,
,0,0,4,0,4,0,21,,train_dim1_1,12,30,,,,2,0,2,0,,,,,,,,,0,0,0,0,0,11,11,11,1,0,1,0,,,,,,,,,,,,,,,,,,,,,,,,,,,,,,,,,,,,,,,,,,,,,,,,,,,,,,,,,,,,,,,,30,,,,,,,,502.9252400000114,502.9252400000114,502.9252400000114,502.9252400000114,502.9252400000114,right,0.5262307999655604,5,0,0,99,0.0,-0.4,right,0.44952349993400276,,,,,,,,,,,,,,,,,,,,,,,,,,,,,,,,,,,,,,,,,,,,,,,,,,,,,,,,,,,,0VPN6V,train_x,blue_star,bottom_left,2025-08-19_15h05.16.833,HideSeek_v1,2022.2.5,59.94761777749353,
,0,0,4,0,4,0,21,,train_dim1_1,12,30,,,,2,0,2,0,,,,,,,,,0,0,0,0,0,11,11,11,2,0,2,0,,,,,,,,,,,,,,,,,,,,,,,,,,,,,,,,,,,,,,,,,,,,,,,,,,,,,,,,,,,,,,,,30,,,,,,,,503.4629440000281,503.4629440000281,503.4629440000281,503.4629440000281,503.4629440000281,right,0.5256393998861313,5,0,0,99,0.08,-0.4,right,0.4348865000065416,,,,,,,,,,,,,,,,,,,,,,,,,,,,,,,,,,,,,,,,,,,,,,,,,,,,,,,,,,,,0VPN6V,train_x,blue_star,bottom_left,2025-08-19_15h05.16.833,HideSeek_v1,2022.2.5,59.94761777749353,
,0,0,4,0,4,0,21,,train_dim1_1,12,30,,,,2,0,2,0,,,,,,,,,0,0,0,0,0,11,11,11,3,0,3,0,,,,,,,,,,,,,,,,,,,,,,,,,,,,,,,,,,,,,,,,,,,,,,,,,,,,,,,,,,,,,,,,30,,,,,,,,503.9910705999937,503.9910705999937,503.9910705999937,503.9910705999937,503.9910705999937,right,0.5443341000936925,5,0,0,99,0.16,-0.4,right,0.4517905998509377,,,,,,,,,,,,,,,,,,,,,,,,,,,,,,,,,,,,,,,,,,,,,,,,,,,,,,,,,,,,0VPN6V,train_x,blue_star,bottom_left,2025-08-19_15h05.16.833,HideSeek_v1,2022.2.5,59.94761777749353,
,0,0,4,0,4,0,21,,train_dim1_1,12,30,,,,2,0,2,0,,,,,,,,,0,0,0,0,0,11,11,11,4,0,4,0,,,,,,,,,,,,,,,,,,,,,,,,,,,,,,,,,,,,,,,,,,,,,,,,,,,,,,,,,,,,,,,,30,,,,,,,,504.5430700001307,504.5430700001307,504.5430700001307,504.5430700001307,504.5430700001307,return,0.5594592997804284,6,0,0,1,0.16,-0.4,return,0.4667295999825001,0,35,0.16,-0.4,,,,,,,,,,,,,,,,,,,,,,,,,,,,,,,,,,,,,,,,,,,,,,,,,,,,,,,,0VPN6V,train_x,blue_star,bottom_left,2025-08-19_15h05.16.833,HideSeek_v1,2022.2.5,59.94761777749353,
,0,4,1,4,1,0,51,,train_dim1_1,13,30,,,,2,0,2,0,,,,,,,,,0,0,0,0,0,12,12,12,0,0,0,0,,,,,,,,,,,,,,,,,,,,,,,,,stimuli/alien_stimuli/51.png,,,,,,,,,,,,,,,,,,,,,,,,,,,,,stimuli/alien_stimuli/21.png,21,0,14,,,,,,,30,,,,,,,,510.75658889999613,510.75658889999613,510.75658889999613,510.75658889999613,510.75658889999613,right,1.8829830999020487,6,0,0,99,-0.08,-0.08,right,1.7923602000810206,,,,,509.1785771001596,510.75658889999613,0.16,-0.4,0.0,0.32,-0.4,0.16,0.0,0.16,-0.4,506.69145740009844,506.69145740009844,506.69145740009844,506.69145740009844,506.69145740009844,506.69145740009844,506.69145740009844,506.69145740009844,506.67661088001915,2.6206590000074357,return,2.4553479999303818,,,,,,,,,,,,,,,,,,,,,,,,,,,,,,,,,0VPN6V,train_x,blue_star,bottom_left,2025-08-19_15h05.16.833,HideSeek_v1,2022.2.5,59.94761777749353,
,0,4,1,4,1,0,51,,train_dim1_1,13,30,,,,2,0,2,0,,,,,,,,,0,0,0,0,0,12,12,12,1,0,1,0,,,,,,,,,,,,,,,,,,,,,,,,,,,,,,,,,,,,,,,,,,,,,,,,,,,,,,,,,,,,,,,,30,,,,,,,,512.6324557000771,512.6324557000771,512.6324557000771,512.6324557000771,512.6324557000771,return,0.5255861999467015,7,0,0,1,-0.08,-0.08,return,0.4403661999385804,0,36,-0.08,-0.08,,,,,,,,,,,,,,,,,,,,,,,,,,,,,,,,,,,,,,,,,,,,,,,,,,,,,,,,0VPN6V,train_x,blue_star,bottom_left,2025-08-19_15h05.16.833,HideSeek_v1,2022.2.5,59.94761777749353,
,4,3,9,3,5,0,11,,train_dim1_1,14,30,,,,2,0,2,0,,,,,,,,,0,0,0,0,0,13,13,13,0,0,0,0,,,,,,,,,,,,,,,,,,,,,,,,,stimuli/alien_stimuli/11.png,,,,,,,,,,,,,,,,,,,,,,,,,,,,,stimuli/alien_stimuli/51.png,51,0,15,,,,,,,30,,,,,,,,517.5328166000545,517.5328166000545,517.5328166000545,517.5328166000545,517.5328166000545,right,1.2358023000415415,7,0,0,99,0.24,-0.16,right,1.1359794000163674,,,,,515.9507812999655,517.5328166000545,-0.08,-0.08,0.0,0.08,-0.08,-0.08,-0.12,-0.08,-0.08,514.7282567999791,514.7282567999791,514.7282567999791,514.7282567999791,514.7282567999791,514.7282567999791,514.7282567999791,514.7282567999791,514.716511469963,1.3362541999667883,return,1.1962731000967324,,,,,,,,,,,,,,,,,,,,,,,,,,,,,,,,,0VPN6V,train_x,blue_star,bottom_left,2025-08-19_15h05.16.833,HideSeek_v1,2022.2.5,59.94761777749353,
,4,3,9,3,5,0,11,,train_dim1_1,14,30,,,,2,0,2,0,,,,,,,,,0,0,0,0,0,13,13,13,1,0,1,0,,,,,,,,,,,,,,,,,,,,,,,,,,,,,,,,,,,,,,,,,,,,,,,,,,,,,,,,,,,,,,,,30,,,,,,,,518.7552657001652,518.7552657001652,518.7552657001652,518.7552657001652,518.7552657001652,right,0.5099867000244558,7,0,0,99,0.32,-0.16,right,0.42265440011397004,,,,,,,,,,,,,,,,,,,,,,,,,,,,,,,,,,,,,,,,,,,,,,,,,,,,,,,,,,,,0VPN6V,train_x,blue_star,bottom_left,2025-08-19_15h05.16.833,HideSeek_v1,2022.2.5,59.94761777749353,
,4,3,9,3,5,0,11,,train_dim1_1,14,30,,,,2,0,2,0,,,,,,,,,0,0,0,0,0,13,13,13,2,0,2,0,,,,,,,,,,,,,,,,,,,,,,,,,,,,,,,,,,,,,,,,,,,,,,,,,,,,,,,,,,,,,,,,30,,,,,,,,519.2720415999647,519.2720415999647,519.2720415999647,519.2720415999647,519.2720415999647,right,0.5100175000261515,7,0,0,99,0.4,-0.16,right,0.4328927001915872,,,,,,,,,,,,,,,,,,,,,,,,,,,,,,,,,,,,,,,,,,,,,,,,,,,,,,,,,,,,0VPN6V,train_x,blue_star,bottom_left,2025-08-19_15h05.16.833,HideSeek_v1,2022.2.5,59.94761777749353,
,4,3,9,3,5,0,11,,train_dim1_1,14,30,,,,2,0,2,0,,,,,,,,,0,0,0,0,0,13,13,13,3,0,3,0,,,,,,,,,,,,,,,,,,,,,,,,,,,,,,,,,,,,,,,,,,,,,,,,,,,,,,,,,,,,,,,,30,,,,,,,,519.7886584000662,519.7886584000662,519.7886584000662,519.7886584000662,519.7886584000662,right,0.5265528000891209,7,0,0,99,0.48000000000000004,-0.16,right,0.4397400999441743,,,,,,,,,,,,,,,,,,,,,,,,,,,,,,,,,,,,,,,,,,,,,,,,,,,,,,,,,,,,0VPN6V,train_x,blue_star,bottom_left,2025-08-19_15h05.16.833,HideSeek_v1,2022.2.5,59.94761777749353,
,4,3,9,3,5,0,11,,train_dim1_1,14,30,,,,2,0,2,0,,,,,,,,,0,0,0,0,0,13,13,13,4,0,4,0,,,,,,,,,,,,,,,,,,,,,,,,,,,,,,,,,,,,,,,,,,,,,,,,,,,,,,,,,,,,,,,,30,,,,,,,,520.3219948001206,520.3219948001206,520.3219948001206,520.3219948001206,520.3219948001206,right,1.043802300002426,7,0,0,99,0.56,-0.16,right,0.9651736000087112,,,,,,,,,,,,,,,,,,,,,,,,,,,,,,,,,,,,,,,,,,,,,,,,,,,,,,,,,,,,0VPN6V,train_x,blue_star,bottom_left,2025-08-19_15h05.16.833,HideSeek_v1,2022.2.5,59.94761777749353,
,4,3,9,3,5,0,11,,train_dim1_1,14,30,,,,2,0,2,0,,,,,,,,,0,0,0,0,0,13,13,13,5,0,5,0,,,,,,,,,,,,,,,,,,,,,,,,,,,,,,,,,,,,,,,,,,,,,,,,,,,,,,,,,,,,,,,,30,,,,,,,,521.3737912001088,521.3737912001088,521.3737912001088,521.3737912001088,521.3737912001088,return,0.5763555001467466,8,0,0,1,0.56,-0.16,return,0.48976370017044246,0,41,0.56,-0.16,,,,,,,,,,,,,,,,,,,,,,,,,,,,,,,,,,,,,,,,,,,,,,,,,,,,,,,,0VPN6V,train_x,blue_star,bottom_left,2025-08-19_15h05.16.833,HideSeek_v1,2022.2.5,59.94761777749353,
,4,2,4,2,0,0,61,,train_dim1_1,15,30,,,,2,0,2,0,,,,,,,,,0,0,0,0,0,14,14,14,0,0,0,0,,,,,,,,,,,,,,,,,,,,,,,,,stimuli/alien_stimuli/61.png,,,,,,,,,,,,,,,,,,,,,,,,,,,,,stimuli/alien_stimuli/11.png,11,4,16,,,,,,,30,,,,,,,,527.2230775000062,527.2230775000062,527.2230775000062,527.2230775000062,527.2230775000062,return,1.8037040999624878,9,0,0,1,0.16,-0.24,return,1.705042300047353,0,41,0.16,-0.24,525.642235300038,527.2230775000062,0.56,-0.16,0.0,0.4,-0.16,0.56,0.36000000000000004,0.56,-0.16,523.5225347999949,523.5225347999949,523.5225347999949,523.5225347999949,523.5225347999949,523.5225347999949,523.5225347999949,523.5225347999949,523.5071389700054,2.236940999981016,return,2.091259599896148,,,,,,,,,,,,,,,,,,,,,,,,,,,,,,,,,0VPN6V,train_x,blue_star,bottom_left,2025-08-19_15h05.16.833,HideSeek_v1,2022.2.5,59.94761777749353,
,3,3,4,3,1,0,51,,train_dim1_1,16,30,,,,2,0,2,0,,,,,,,,,0,0,0,0,0,15,15,15,0,0,0,0,,,,,,,,,,,,,,,,,,,,,,,,,stimuli/alien_stimuli/51.png,,,,,,,,,,,,,,,,,,,,,,,,,,,,,stimuli/alien_stimuli/61.png,61,4,17,,,,,,,30,,,,,,,,536.3678629000206,536.3678629000206,536.3678629000206,536.3678629000206,536.3678629000206,right,1.5851573999971151,9,0,0,99,0.16,-0.16,right,1.5012715000193566,,,,,534.7998893000185,536.3678629000206,0.16,-0.24,0.0,0.0,-0.24,0.16,0.16,0.16,-0.24,530.5708555001765,530.5708555001765,530.5708555001765,530.5708555001765,530.5708555001765,530.5708555001765,530.5708555001765,530.5708555001765,530.5630182699999,4.339343599975109,return,4.213298599934205,,,,,,,,,,,,,,,,,,,,,,,,,,,,,,,,,0VPN6V,train_x,blue_star,bottom_left,2025-08-19_15h05.16.833,HideSeek_v1,2022.2.5,59.94761777749353,
,3,3,4,3,1,0,51,,train_dim1_1,16,30,,,,2,0,2,0,,,,,,,,,0,0,0,0,0,15,15,15,1,0,1,0,,,,,,,,,,,,,,,,,,,,,,,,,,,,,,,,,,,,,,,,,,,,,,,,,,,,,,,,,,,,,,,,30,,,,,,,,537.9574281000532,537.9574281000532,537.9574281000532,537.9574281000532,537.9574281000532,return,0.5398270001169294,10,0,0,1,0.16,-0.16,return,0.4501398999709636,0,42,0.16,-0.16,,,,,,,,,,,,,,,,,,,,,,,,,,,,,,,,,,,,,,,,,,,,,,,,,,,,,,,,0VPN6V,train_x,blue_star,bottom_left,2025-08-19_15h05.16.833,HideSeek_v1,2022.2.5,59.94761777749353,
,2,4,6,4,4,0,21,,train_dim1_1,17,30,,,,2,0,2,0,,,,,,,,,0,0,0,0,0,16,16,16,0,0,0,0,,,,,,,,,,,,,,,,,,,,,,,,,stimuli/alien_stimuli/21.png,,,,,,,,,,,,,,,,,,,,,,,,,,,,,stimuli/alien_stimuli/51.png,51,3,18,,,,,,,30,,,,,,,,544.3037237001117,544.3037237001117,544.3037237001117,544.3037237001117,544.3037237001117,return,1.1215629000216722,10,0,0,0,0,-0.08,return,1.0366958000231534,0,42,0,-0.08,542.7396810001228,544.3037237001117,0.16,-0.16,0.0,0.08,-0.16,0.16,0.12,0.16,-0.16,540.0670419000089,540.0670419000089,540.0670419000089,540.0670419000089,540.0670419000089,540.0670419000089,540.0670419000089,540.0670419000089,540.0542876701104,2.7875487999990582,return,2.648323400178924,,,,,,,,,,,,,,,,,,,,,,,,,,,,,,,,,0VPN6V,train_x,blue_star,bottom_left,2025-08-19_15h05.16.833,HideSeek_v1,2022.2.5,59.94761777749353,
,2,1,2,1,0,0,61,,train_dim1_1,18,30,,,,2,0,2,0,,,,,,,,,0,0,0,0,0,17,17,17,0,0,0,0,,,,,,,,,,,,,,,,,,,,,,,,,stimuli/alien_stimuli/61.png,,,,,,,,,,,,,,,,,,,,,,,,,,,,,stimuli/alien_stimuli/21.png,21,2,19,,,,,,,30,,,,,,,,552.9896263000555,552.9896263000555,552.9896263000555,552.9896263000555,552.9896263000555,return,1.723596200114116,11,0,0,1,0,-0.32,return,1.6351819999981672,0,42,0,-0.32,551.4326128000394,552.9896263000555,0.32,-0.08,0.0,0.32,-0.08,0.32,0.16,0.32,-0.08,547.0111658000387,547.0111658000387,547.0111658000387,547.0111658000387,547.0111658000387,547.0111658000387,547.0111658000387,547.0111658000387,546.9934115800542,4.559839199995622,return,4.392431899905205,,,,,,,,,,,,,,,,,,,,,,,,,,,,,,,,,0VPN6V,train_x,blue_star,bottom_left,2025-08-19_15h05.16.833,HideSeek_v1,2022.2.5,59.94761777749353,
,0,3,3,3,3,0,31,,train_dim1_1,19,30,,,,2,0,2,0,,,,,,,,,0,0,0,0,0,18,18,18,0,0,0,0,,,,,,,,,,,,,,,,,,,,,,,,,stimuli/alien_stimuli/31.png,,,,,,,,,,,,,,,,,,,,,,,,,,,,,stimuli/alien_stimuli/61.png,61,2,20,,,,,,,30,,,,,,,,560.1800898001529,560.1800898001529,560.1800898001529,560.1800898001529,560.1800898001529,right,1.2711352000478655,11,0,0,99,-0.08,-0.16,right,1.1598697998560965,,,,,558.602978900075,560.1800898001529,0,-0.32,0.0,0.0,-0.32,0,0.0,0,-0.32,556.2874436001293,556.2874436001293,556.2874436001293,556.2874436001293,556.2874436001293,556.2874436001293,556.2874436001293,556.2874436001293,556.2674916700228,2.4374198999721557,return,2.284072699956596,,,,,,,,,,,,,,,,,,,,,,,,,,,,,,,,,0VPN6V,train_x,blue_star,bottom_left,2025-08-19_15h05.16.833,HideSeek_v1,2022.2.5,59.94761777749353,
,0,3,3,3,3,0,31,,train_dim1_1,19,30,,,,2,0,2,0,,,,,,,,,0,0,0,0,0,18,18,18,1,0,1,0,,,,,,,,,,,,,,,,,,,,,,,,,,,,,,,,,,,,,,,,,,,,,,,,,,,,,,,,,,,,,,,,30,,,,,,,,561.4362538000569,561.4362538000569,561.4362538000569,561.4362538000569,561.4362538000569,right,0.5935893000569195,11,0,0,99,0.0,-0.16,right,0.5131677999161184,,,,,,,,,,,,,,,,,,,,,,,,,,,,,,,,,,,,,,,,,,,,,,,,,,,,,,,,,,,,0VPN6V,train_x,blue_star,bottom_left,2025-08-19_15h05.16.833,HideSeek_v1,2022.2.5,59.94761777749353,
,0,3,3,3,3,0,31,,train_dim1_1,19,30,,,,2,0,2,0,,,,,,,,,0,0,0,0,0,18,18,18,2,0,2,0,,,,,,,,,,,,,,,,,,,,,,,,,,,,,,,,,,,,,,,,,,,,,,,,,,,,,,,,,,,,,,,,30,,,,,,,,562.03666790016,562.03666790016,562.03666790016,562.03666790016,562.03666790016,right,3.029011700069532,11,0,0,99,0.08,-0.16,right,2.9406242000404745,,,,,,,,,,,,,,,,,,,,,,,,,,,,,,,,,,,,,,,,,,,,,,,,,,,,,,,,,,,,0VPN6V,train_x,blue_star,bottom_left,2025-08-19_15h05.16.833,HideSeek_v1,2022.2.5,59.94761777749353,
,0,3,3,3,3,0,31,,train_dim1_1,19,30,,,,2,0,2,0,,,,,,,,,0,0,0,0,0,18,18,18,3,0,3,0,,,,,,,,,,,,,,,,,,,,,,,,,,,,,,,,,,,,,,,,,,,,,,,,,,,,,,,,,,,,,,,,30,,,,,,,,565.0740581999999,565.0740581999999,565.0740581999999,565.0740581999999,565.0740581999999,right,0.3588743000291288,11,0,0,99,0.16,-0.16,right,0.2720562999602407,,,,,,,,,,,,,,,,,,,,,,,,,,,,,,,,,,,,,,,,,,,,,,,,,,,,,,,,,,,,0VPN6V,train_x,blue_star,bottom_left,2025-08-19_15h05.16.833,HideSeek_v1,2022.2.5,59.94761777749353,
,0,3,3,3,3,0,31,,train_dim1_1,19,30,,,,2,0,2,0,,,,,,,,,0,0,0,0,0,18,18,18,4,0,4,0,,,,,,,,,,,,,,,,,,,,,,,,,,,,,,,,,,,,,,,,,,,,,,,,,,,,,,,,,,,,,,,,30,,,,,,,,565.4389300001785,565.4389300001785,565.4389300001785,565.4389300001785,565.4389300001785,return,1.1939632000867277,11,1,0,0,0.16,-0.16,return,1.1150952000170946,0,46,0.16,-0.16,,,,,,,,,,,,,,,,,,,,,,,,,,,,,,,,,,,,,,,,,,,,,,,,,,,,,,,,0VPN6V,train_x,blue_star,bottom_left,2025-08-19_15h05.16.833,HideSeek_v1,2022.2.5,59.94761777749353,
,0,1,5,1,5,0,11,,train_dim1_1,20,30,,,,2,0,2,0,,,,,,,,,0,0,0,0,0,19,19,19,0,0,0,0,,,,,,,,,,,,,,,,,,,,,,,,,stimuli/alien_stimuli/11.png,,,,,,,,,,,,,,,,,,,,,,,,,,,,,stimuli/alien_stimuli/31.png,31,0,21,,,,,,,30,,,,,,,,574.1508005999494,574.1508005999494,574.1508005999494,574.1508005999494,574.1508005999494,right,1.835496800020337,11,1,0,99,-0.08,-0.32,right,1.7410426998976618,,,,,572.5811642999761,574.1508005999494,0.08,-0.16,0.0,0.24,-0.16,0.08,-0.04,0.08,-0.16,568.2219932000153,568.2219932000153,568.2219932000153,568.2219932000153,568.2219932000153,568.2219932000153,568.2219932000153,568.2219932000153,568.2110931800679,4.488776799989864,return,4.332835600012913,,,,,,,,,,,,,,,,,,,,,,,,,,,,,,,,,0VPN6V,train_x,blue_star,bottom_left,2025-08-19_15h05.16.833,HideSeek_v1,2022.2.5,59.94761777749353,
,0,1,5,1,5,0,11,,train_dim1_1,20,30,,,,2,0,2,0,,,,,,,,,0,0,0,0,0,19,19,19,1,0,1,0,,,,,,,,,,,,,,,,,,,,,,,,,,,,,,,,,,,,,,,,,,,,,,,,,,,,,,,,,,,,,,,,30,,,,,,,,575.9875408001244,575.9875408001244,575.9875408001244,575.9875408001244,575.9875408001244,right,0.4413529001176357,11,1,0,99,0.0,-0.32,right,0.3587873999495059,,,,,,,,,,,,,,,,,,,,,,,,,,,,,,,,,,,,,,,,,,,,,,,,,,,,,,,,,,,,0VPN6V,train_x,blue_star,bottom_left,2025-08-19_15h05.16.833,HideSeek_v1,2022.2.5,59.94761777749353,
,0,1,5,1,5,0,11,,train_dim1_1,20,30,,,,2,0,2,0,,,,,,,,,0,0,0,0,0,19,19,19,2,0,2,0,,,,,,,,,,,,,,,,,,,,,,,,,,,,,,,,,,,,,,,,,,,,,,,,,,,,,,,,,,,,,,,,30,,,,,,,,576.4358926999848,576.4358926999848,576.4358926999848,576.4358926999848,576.4358926999848,right,0.4766372998710722,11,1,0,99,0.08,-0.32,right,0.39390660007484257,,,,,,,,,,,,,,,,,,,,,,,,,,,,,,,,,,,,,,,,,,,,,,,,,,,,,,,,,,,,0VPN6V,train_x,blue_star,bottom_left,2025-08-19_15h05.16.833,HideSeek_v1,2022.2.5,59.94761777749353,
,0,1,5,1,5,0,11,,train_dim1_1,20,30,,,,2,0,2,0,,,,,,,,,0,0,0,0,0,19,19,19,3,0,3,0,,,,,,,,,,,,,,,,,,,,,,,,,,,,,,,,,,,,,,,,,,,,,,,,,,,,,,,,,,,,,,,,30,,,,,,,,576.9309648000635,576.9309648000635,576.9309648000635,576.9309648000635,576.9309648000635,right,0.46016199979931116,11,1,0,99,0.16,-0.32,right,0.3608036998193711,,,,,,,,,,,,,,,,,,,,,,,,,,,,,,,,,,,,,,,,,,,,,,,,,,,,,,,,,,,,0VPN6V,train_x,blue_star,bottom_left,2025-08-19_15h05.16.833,HideSeek_v1,2022.2.5,59.94761777749353,
,0,1,5,1,5,0,11,,train_dim1_1,20,30,,,,2,0,2,0,,,,,,,,,0,0,0,0,0,19,19,19,4,0,4,0,,,,,,,,,,,,,,,,,,,,,,,,,,,,,,,,,,,,,,,,,,,,,,,,,,,,,,,,,,,,,,,,30,,,,,,,,577.3981753999833,577.3981753999833,577.3981753999833,577.3981753999833,577.3981753999833,right,0.4751273998990655,11,1,0,99,0.24,-0.32,right,0.38419830007478595,,,,,,,,,,,,,,,,,,,,,,,,,,,,,,,,,,,,,,,,,,,,,,,,,,,,,,,,,,,,0VPN6V,train_x,blue_star,bottom_left,2025-08-19_15h05.16.833,HideSeek_v1,2022.2.5,59.94761777749353,
,0,1,5,1,5,0,11,,train_dim1_1,20,30,,,,2,0,2,0,,,,,,,,,0,0,0,0,0,19,19,19,5,0,5,0,,,,,,,,,,,,,,,,,,,,,,,,,,,,,,,,,,,,,,,,,,,,,,,,,,,,,,,,,,,,,,,,30,,,,,,,,577.870450100163,577.870450100163,577.870450100163,577.870450100163,577.870450100163,return,0.5435872999951243,12,0,0,1,0.24,-0.32,return,0.4664111998863518,0,51,0.24,-0.32,,,,,,,,,,,,,,,,,,,,,,,,,,,,,,,,,,,,,,,,,,,,,,,,,,,,,,,,0VPN6V,train_x,blue_star,bottom_left,2025-08-19_15h05.16.833,HideSeek_v1,2022.2.5,59.94761777749353,
,4,2,7,2,3,0,31,,train_dim1_1,21,30,,,,2,0,2,0,,,,,,,,,0,0,0,0,0,20,20,20,0,0,0,0,,,,,,,,,,,,,,,,,,,,,,,,,stimuli/alien_stimuli/31.png,,,,,,,,,,,,,,,,,,,,,,,,,,,,,stimuli/alien_stimuli/11.png,11,0,22,,,,,,,30,,,,,,,,585.3021617999766,585.3021617999766,585.3021617999766,585.3021617999766,585.3021617999766,return,1.3048523999750614,12,0,0,0,0.16,-0.24,return,1.2095663000363857,0,51,0.16,-0.24,583.7405434001703,585.3021617999766,0.24,-0.32,0.0,0.4,-0.32,0.24,0.039999999999999994,0.24,-0.32,580.0014039999805,580.0014039999805,580.0014039999805,580.0014039999805,580.0014039999805,580.0014039999805,580.0014039999805,580.0014039999805,579.9875087800436,3.8718449999578297,return,3.7171169999055564,,,,,,,,,,,,,,,,,,,,,,,,,,,,,,,,,0VPN6V,train_x,blue_star,bottom_left,2025-08-19_15h05.16.833,HideSeek_v1,2022.2.5,59.94761777749353,
,1,0,5,0,4,0,21,,train_dim1_1,22,30,,,,2,0,2,0,,,,,,,,,0,0,0,0,0,21,21,21,0,0,0,0,,,,,,,,,,,,,,,,,,,,,,,,,stimuli/alien_stimuli/21.png,,,,,,,,,,,,,,,,,,,,,,,,,,,,,stimuli/alien_stimuli/31.png,31,4,23,,,,,,,30,,,,,,,,592.5623641000129,592.5623641000129,592.5623641000129,592.5623641000129,592.5623641000129,right,1.5911810998804867,12,0,0,99,0.0,-0.4,right,1.4936338998377323,,,,,590.9964676999953,592.5623641000129,0.4,-0.24,0.0,0.24,-0.24,0.4,0.28,0.4,-0.24,588.1692274999805,588.1692274999805,588.1692274999805,588.1692274999805,588.1692274999805,588.1692274999805,588.1692274999805,588.1692274999805,588.1608433699469,2.937609100015834,return,2.8041350001003593,,,,,,,,,,,,,,,,,,,,,,,,,,,,,,,,,0VPN6V,train_x,blue_star,bottom_left,2025-08-19_15h05.16.833,HideSeek_v1,2022.2.5,59.94761777749353,
,1,0,5,0,4,0,21,,train_dim1_1,22,30,,,,2,0,2,0,,,,,,,,,0,0,0,0,0,21,21,21,1,0,1,0,,,,,,,,,,,,,,,,,,,,,,,,,,,,,,,,,,,,,,,,,,,,,,,,,,,,,,,,,,,,,,,,30,,,,,,,,594.1522421000991,594.1522421000991,594.1522421000991,594.1522421000991,594.1522421000991,right,0.5251641999930143,12,0,0,99,0.08,-0.4,right,0.4327325001358986,,,,,,,,,,,,,,,,,,,,,,,,,,,,,,,,,,,,,,,,,,,,,,,,,,,,,,,,,,,,0VPN6V,train_x,blue_star,bottom_left,2025-08-19_15h05.16.833,HideSeek_v1,2022.2.5,59.94761777749353,
,1,0,5,0,4,0,21,,train_dim1_1,22,30,,,,2,0,2,0,,,,,,,,,0,0,0,0,0,21,21,21,2,0,2,0,,,,,,,,,,,,,,,,,,,,,,,,,,,,,,,,,,,,,,,,,,,,,,,,,,,,,,,,,,,,,,,,30,,,,,,,,594.6836598000955,594.6836598000955,594.6836598000955,594.6836598000955,594.6836598000955,right,0.47695770021528006,12,0,0,99,0.16,-0.4,right,0.39896390005014837,,,,,,,,,,,,,,,,,,,,,,,,,,,,,,,,,,,,,,,,,,,,,,,,,,,,,,,,,,,,0VPN6V,train_x,blue_star,bottom_left,2025-08-19_15h05.16.833,HideSeek_v1,2022.2.5,59.94761777749353,
,1,0,5,0,4,0,21,,train_dim1_1,22,30,,,,2,0,2,0,,,,,,,,,0,0,0,0,0,21,21,21,3,0,3,0,,,,,,,,,,,,,,,,,,,,,,,,,,,,,,,,,,,,,,,,,,,,,,,,,,,,,,,,,,,,,,,,30,,,,,,,,595.1673359000124,595.1673359000124,595.1673359000124,595.1673359000124,595.1673359000124,right,0.5267916999291629,12,0,0,99,0.24,-0.4,right,0.43730479991063476,,,,,,,,,,,,,,,,,,,,,,,,,,,,,,,,,,,,,,,,,,,,,,,,,,,,,,,,,,,,0VPN6V,train_x,blue_star,bottom_left,2025-08-19_15h05.16.833,HideSeek_v1,2022.2.5,59.94761777749353,
,1,0,5,0,4,0,21,,train_dim1_1,22,30,,,,2,0,2,0,,,,,,,,,0,0,0,0,0,21,21,21,4,0,4,0,,,,,,,,,,,,,,,,,,,,,,,,,,,,,,,,,,,,,,,,,,,,,,,,,,,,,,,,,,,,,,,,30,,,,,,,,595.7009996999986,595.7009996999986,595.7009996999986,595.7009996999986,595.7009996999986,return,0.6768829000648111,13,0,0,1,0.24,-0.4,return,0.5955918000545353,0,55,0.24,-0.4,,,,,,,,,,,,,,,,,,,,,,,,,,,,,,,,,,,,,,,,,,,,,,,,,,,,,,,,0VPN6V,train_x,blue_star,bottom_left,2025-08-19_15h05.16.833,HideSeek_v1,2022.2.5,59.94761777749353,
,2,1,2,1,0,0,61,,train_dim1_1,23,30,,,,2,0,2,0,,,,,,,,,0,0,0,0,0,22,22,22,0,0,0,0,,,,,,,,,,,,,,,,,,,,,,,,,stimuli/alien_stimuli/61.png,,,,,,,,,,,,,,,,,,,,,,,,,,,,,stimuli/alien_stimuli/21.png,21,1,24,,,,,,,30,,,,,,,,601.3166200001724,601.3166200001724,601.3166200001724,601.3166200001724,601.3166200001724,return,1.6027576001361012,14,0,0,1,0,-0.32,return,1.4999847998842597,0,55,0,-0.32,599.7372779001016,601.3166200001724,0.24,-0.4,0.0,0.32,-0.4,0.24,0.07999999999999999,0.24,-0.4,597.9663494999986,597.9663494999986,597.9663494999986,597.9663494999986,597.9663494999986,597.9663494999986,597.9663494999986,597.9663494999986,597.9523769800552,1.9037133001256734,return,1.7434259001165628,,,,,,,,,,,,,,,,,,,,,,,,,,,,,,,,,0VPN6V,train_x,blue_star,bottom_left,2025-08-19_15h05.16.833,HideSeek_v1,2022.2.5,59.94761777749353,
,4,4,5,4,1,0,51,,train_dim1_1,24,30,,,,2,0,2,0,,,,,,,,,0,0,0,0,0,23,23,23,0,0,0,0,,,,,,,,,,,,,,,,,,,,,,,,,stimuli/alien_stimuli/51.png,,,,,,,,,,,,,,,,,,,,,,,,,,,,,stimuli/alien_stimuli/61.png,61,2,25,,,,,,,30,,,,,,,,609.1551902000792,609.1551902000792,609.1551902000792,609.1551902000792,609.1551902000792,right,1.4697511999402195,14,0,0,99,0.24,-0.08,right,1.3700119000859559,,,,,607.5770740001462,609.1551902000792,0,-0.32,0.0,0.0,-0.32,0,0.0,0,-0.32,604.4635910999496,604.4635910999496,604.4635910999496,604.4635910999496,604.4635910999496,604.4635910999496,604.4635910999496,604.4635910999496,604.441011060169,3.2215097998268902,return,3.095008400036022,,,,,,,,,,,,,,,,,,,,,,,,,,,,,,,,,0VPN6V,train_x,blue_star,bottom_left,2025-08-19_15h05.16.833,HideSeek_v1,2022.2.5,59.94761777749353,
,4,4,5,4,1,0,51,,train_dim1_1,24,30,,,,2,0,2,0,,,,,,,,,0,0,0,0,0,23,23,23,1,0,1,0,,,,,,,,,,,,,,,,,,,,,,,,,,,,,,,,,,,,,,,,,,,,,,,,,,,,,,,,,,,,,,,,30,,,,,,,,610.6153840001207,610.6153840001207,610.6153840001207,610.6153840001207,610.6153840001207,return,0.6582151998300105,15,0,0,1,0.24,-0.08,return,0.5731960001867265,0,56,0.24,-0.08,,,,,,,,,,,,,,,,,,,,,,,,,,,,,,,,,,,,,,,,,,,,,,,,,,,,,,,,0VPN6V,train_x,blue_star,bottom_left,2025-08-19_15h05.16.833,HideSeek_v1,2022.2.5,59.94761777749353,
,3,0,8,0,5,0,11,,train_dim1_1,25,30,,,,2,0,2,0,,,,,,,,,0,0,0,0,0,24,24,24,0,0,0,0,,,,,,,,,,,,,,,,,,,,,,,,,stimuli/alien_stimuli/11.png,,,,,,,,,,,,,,,,,,,,,,,,,,,,,stimuli/alien_stimuli/51.png,51,4,26,,,,,,,30,,,,,,,,615.4678543000482,615.4678543000482,615.4678543000482,615.4678543000482,615.4678543000482,right,2.168228599941358,15,0,0,99,0.16,-0.4,right,2.0621213999111205,,,,,613.8821990001015,615.4678543000482,0.24,-0.08,0.0,0.08,-0.08,0.24,0.2,0.24,-0.08,612.8456999999471,612.8456999999471,612.8456999999471,612.8456999999471,612.8456999999471,612.8456999999471,612.8456999999471,612.8456999999471,612.8313311700942,1.1528458001557738,return,1.0050314001273364,,,,,,,,,,,,,,,,,,,,,,,,,,,,,,,,,0VPN6V,train_x,blue_star,bottom_left,2025-08-19_15h05.16.833,HideSeek_v1,2022.2.5,59.94761777749353,
,3,0,8,0,5,0,11,,train_dim1_1,25,30,,,,2,0,2,0,,,,,,,,,0,0,0,0,0,24,24,24,1,0,1,0,,,,,,,,,,,,,,,,,,,,,,,,,,,,,,,,,,,,,,,,,,,,,,,,,,,,,,,,,,,,,,,,30,,,,,,,,617.6348439999856,617.6348439999856,617.6348439999856,617.6348439999856,617.6348439999856,right,0.3762552000116557,15,0,0,99,0.24,-0.4,right,0.28394069988280535,,,,,,,,,,,,,,,,,,,,,,,,,,,,,,,,,,,,,,,,,,,,,,,,,,,,,,,,,,,,0VPN6V,train_x,blue_star,bottom_left,2025-08-19_15h05.16.833,HideSeek_v1,2022.2.5,59.94761777749353,
,3,0,8,0,5,0,11,,train_dim1_1,25,30,,,,2,0,2,0,,,,,,,,,0,0,0,0,0,24,24,24,2,0,2,0,,,,,,,,,,,,,,,,,,,,,,,,,,,,,,,,,,,,,,,,,,,,,,,,,,,,,,,,,,,,,,,,30,,,,,,,,618.0169114000164,618.0169114000164,618.0169114000164,618.0169114000164,618.0169114000164,right,0.3931348999030888,15,0,0,99,0.32,-0.4,right,0.2899068999104202,,,,,,,,,,,,,,,,,,,,,,,,,,,,,,,,,,,,,,,,,,,,,,,,,,,,,,,,,,,,0VPN6V,train_x,blue_star,bottom_left,2025-08-19_15h05.16.833,HideSeek_v1,2022.2.5,59.94761777749353,
,3,0,8,0,5,0,11,,train_dim1_1,25,30,,,,2,0,2,0,,,,,,,,,0,0,0,0,0,24,24,24,3,0,3,0,,,,,,,,,,,,,,,,,,,,,,,,,,,,,,,,,,,,,,,,,,,,,,,,,,,,,,,,,,,,,,,,30,,,,,,,,618.4036572000477,618.4036572000477,618.4036572000477,618.4036572000477,618.4036572000477,right,0.41004240000620484,15,0,0,99,0.4,-0.4,right,0.3230699999257922,,,,,,,,,,,,,,,,,,,,,,,,,,,,,,,,,,,,,,,,,,,,,,,,,,,,,,,,,,,,0VPN6V,train_x,blue_star,bottom_left,2025-08-19_15h05.16.833,HideSeek_v1,2022.2.5,59.94761777749353,
,3,0,8,0,5,0,11,,train_dim1_1,25,30,,,,2,0,2,0,,,,,,,,,0,0,0,0,0,24,24,24,4,0,4,0,,,,,,,,,,,,,,,,,,,,,,,,,,,,,,,,,,,,,,,,,,,,,,,,,,,,,,,,,,,,,,,,30,,,,,,,,618.8204987000208,618.8204987000208,618.8204987000208,618.8204987000208,618.8204987000208,right,0.3932181999552995,15,0,0,99,0.48000000000000004,-0.4,right,0.3079295000061393,,,,,,,,,,,,,,,,,,,,,,,,,,,,,,,,,,,,,,,,,,,,,,,,,,,,,,,,,,,,0VPN6V,train_x,blue_star,bottom_left,2025-08-19_15h05.16.833,HideSeek_v1,2022.2.5,59.94761777749353,
,3,0,8,0,5,0,11,,train_dim1_1,25,30,,,,2,0,2,0,,,,,,,,,0,0,0,0,0,24,24,24,5,0,5,0,,,,,,,,,,,,,,,,,,,,,,,,,,,,,,,,,,,,,,,,,,,,,,,,,,,,,,,,,,,,,,,,30,,,,,,,,619.2213418001775,619.2213418001775,619.2213418001775,619.2213418001775,619.2213418001775,return,0.5434944999869913,16,0,0,1,0.48000000000000004,-0.4,return,0.46149669983424246,0,61,0.48000000000000004,-0.4,,,,,,,,,,,,,,,,,,,,,,,,,,,,,,,,,,,,,,,,,,,,,,,,,,,,,,,,0VPN6V,train_x,blue_star,bottom_left,2025-08-19_15h05.16.833,HideSeek_v1,2022.2.5,59.94761777749353,
,1,1,1,1,0,0,61,,train_dim1_1,26,30,,,,2,0,2,0,,,,,,,,,0,0,0,0,0,25,25,25,0,0,0,0,,,,,,,,,,,,,,,,,,,,,,,,,stimuli/alien_stimuli/61.png,,,,,,,,,,,,,,,,,,,,,,,,,,,,,stimuli/alien_stimuli/11.png,11,3,27,,,,,,,30,,,,,,,,624.5720014001708,624.5720014001708,624.5720014001708,624.5720014001708,624.5720014001708,return,1.3521388000808656,17,0,0,1,-0.08,-0.32,return,1.239331599790603,0,61,-0.08,-0.32,622.9896740999538,624.5720014001708,0.48,-0.4,0.0,0.4,-0.4,0.48,0.27999999999999997,0.48,-0.4,621.3307233999949,621.3307233999949,621.3307233999949,621.3307233999949,621.3307233999949,621.3307233999949,621.3307233999949,621.3307233999949,621.321641870006,1.770043200114742,return,1.627474500099197,,,,,,,,,,,,,,,,,,,,,,,,,,,,,,,,,0VPN6V,train_x,blue_star,bottom_left,2025-08-19_15h05.16.833,HideSeek_v1,2022.2.5,59.94761777749353,
,0,1,3,1,3,0,31,,train_dim1_1,27,30,,,,2,0,2,0,,,,,,,,,0,0,0,0,0,26,26,26,0,0,0,0,,,,,,,,,,,,,,,,,,,,,,,,,stimuli/alien_stimuli/31.png,,,,,,,,,,,,,,,,,,,,,,,,,,,,,stimuli/alien_stimuli/61.png,61,1,28,,,,,,,30,,,,,,,,629.8727675001137,629.8727675001137,629.8727675001137,629.8727675001137,629.8727675001137,right,1.0881722001358867,17,0,0,99,-0.08,-0.32,right,0.9981094000395387,,,,,628.3109250001144,629.8727675001137,-0.08,-0.32,0.0,0.0,-0.32,-0.08,-0.08,-0.08,-0.32,627.461877600057,627.461877600057,627.461877600057,627.461877600057,627.461877600057,627.461877600057,627.461877600057,627.461877600057,627.4435700600967,0.9527056000661105,return,0.8320700998883694,,,,,,,,,,,,,,,,,,,,,,,,,,,,,,,,,0VPN6V,train_x,blue_star,bottom_left,2025-08-19_15h05.16.833,HideSeek_v1,2022.2.5,59.94761777749353,
,0,1,3,1,3,0,31,,train_dim1_1,27,30,,,,2,0,2,0,,,,,,,,,0,0,0,0,0,26,26,26,1,0,1,0,,,,,,,,,,,,,,,,,,,,,,,,,,,,,,,,,,,,,,,,,,,,,,,,,,,,,,,,,,,,,,,,30,,,,,,,,630.9605191999581,630.9605191999581,630.9605191999581,630.9605191999581,630.9605191999581,right,0.47625950002111495,17,0,0,99,0.0,-0.32,right,0.38787620002403855,,,,,,,,,,,,,,,,,,,,,,,,,,,,,,,,,,,,,,,,,,,,,,,,,,,,,,,,,,,,0VPN6V,train_x,blue_star,bottom_left,2025-08-19_15h05.16.833,HideSeek_v1,2022.2.5,59.94761777749353,
,0,1,3,1,3,0,31,,train_dim1_1,27,30,,,,2,0,2,0,,,,,,,,,0,0,0,0,0,26,26,26,2,0,2,0,,,,,,,,,,,,,,,,,,,,,,,,,,,,,,,,,,,,,,,,,,,,,,,,,,,,,,,,,,,,,,,,30,,,,,,,,631.4445613001008,631.4445613001008,631.4445613001008,631.4445613001008,631.4445613001008,right,0.44289800012484193,17,0,0,99,0.08,-0.32,right,0.3542543000075966,,,,,,,,,,,,,,,,,,,,,,,,,,,,,,,,,,,,,,,,,,,,,,,,,,,,,,,,,,,,0VPN6V,train_x,blue_star,bottom_left,2025-08-19_15h05.16.833,HideSeek_v1,2022.2.5,59.94761777749353,
,0,1,3,1,3,0,31,,train_dim1_1,27,30,,,,2,0,2,0,,,,,,,,,0,0,0,0,0,26,26,26,3,0,3,0,,,,,,,,,,,,,,,,,,,,,,,,,,,,,,,,,,,,,,,,,,,,,,,,,,,,,,,,,,,,,,,,30,,,,,,,,631.894869599957,631.894869599957,631.894869599957,631.894869599957,631.894869599957,return,0.7945065998937935,18,0,0,1,0.08,-0.32,return,0.7180730998516083,0,64,0.08,-0.32,,,,,,,,,,,,,,,,,,,,,,,,,,,,,,,,,,,,,,,,,,,,,,,,,,,,,,,,0VPN6V,train_x,blue_star,bottom_left,2025-08-19_15h05.16.833,HideSeek_v1,2022.2.5,59.94761777749353,
,3,1,7,1,4,0,21,,train_dim1_1,28,30,,,,2,0,2,0,,,,,,,,,0,0,0,0,0,27,27,27,0,0,0,0,,,,,,,,,,,,,,,,,,,,,,,,,stimuli/alien_stimuli/21.png,,,,,,,,,,,,,,,,,,,,,,,,,,,,,stimuli/alien_stimuli/31.png,31,0,29,,,,,,,30,,,,,,,,636.6686756000854,636.6686756000854,636.6686756000854,636.6686756000854,636.6686756000854,right,1.1540792000014335,18,0,0,99,0.16,-0.32,right,1.0354166000615805,,,,,635.083102799952,636.6686756000854,0.08,-0.32,0.0,0.24,-0.32,0.08,-0.04,0.08,-0.32,634.2528077000752,634.2528077000752,634.2528077000752,634.2528077000752,634.2528077000752,634.2528077000752,634.2528077000752,634.2528077000752,634.2324725600425,0.9360751998610795,return,0.8110149002168328,,,,,,,,,,,,,,,,,,,,,,,,,,,,,,,,,0VPN6V,train_x,blue_star,bottom_left,2025-08-19_15h05.16.833,HideSeek_v1,2022.2.5,59.94761777749353,
,3,1,7,1,4,0,21,,train_dim1_1,28,30,,,,2,0,2,0,,,,,,,,,0,0,0,0,0,27,27,27,1,0,1,0,,,,,,,,,,,,,,,,,,,,,,,,,,,,,,,,,,,,,,,,,,,,,,,,,,,,,,,,,,,,,,,,30,,,,,,,,637.8097371000331,637.8097371000331,637.8097371000331,637.8097371000331,637.8097371000331,right,0.3875953999813646,18,0,0,99,0.24,-0.32,right,0.30676819989457726,,,,,,,,,,,,,,,,,,,,,,,,,,,,,,,,,,,,,,,,,,,,,,,,,,,,,,,,,,,,0VPN6V,train_x,blue_star,bottom_left,2025-08-19_15h05.16.833,HideSeek_v1,2022.2.5,59.94761777749353,
,3,1,7,1,4,0,21,,train_dim1_1,28,30,,,,2,0,2,0,,,,,,,,,0,0,0,0,0,27,27,27,2,0,2,0,,,,,,,,,,,,,,,,,,,,,,,,,,,,,,,,,,,,,,,,,,,,,,,,,,,,,,,,,,,,,,,,30,,,,,,,,638.2042311001569,638.2042311001569,638.2042311001569,638.2042311001569,638.2042311001569,right,0.40943680005148053,18,0,0,99,0.32,-0.32,right,0.3182102998252958,,,,,,,,,,,,,,,,,,,,,,,,,,,,,,,,,,,,,,,,,,,,,,,,,,,,,,,,,,,,0VPN6V,train_x,blue_star,bottom_left,2025-08-19_15h05.16.833,HideSeek_v1,2022.2.5,59.94761777749353,
,3,1,7,1,4,0,21,,train_dim1_1,28,30,,,,2,0,2,0,,,,,,,,,0,0,0,0,0,27,27,27,3,0,3,0,,,,,,,,,,,,,,,,,,,,,,,,,,,,,,,,,,,,,,,,,,,,,,,,,,,,,,,,,,,,,,,,30,,,,,,,,638.6223854999989,638.6223854999989,638.6223854999989,638.6223854999989,638.6223854999989,right,0.3768684999085963,18,0,0,99,0.4,-0.32,right,0.2857222999446094,,,,,,,,,,,,,,,,,,,,,,,,,,,,,,,,,,,,,,,,,,,,,,,,,,,,,,,,,,,,0VPN6V,train_x,blue_star,bottom_left,2025-08-19_15h05.16.833,HideSeek_v1,2022.2.5,59.94761777749353,
,3,1,7,1,4,0,21,,train_dim1_1,28,30,,,,2,0,2,0,,,,,,,,,0,0,0,0,0,27,27,27,4,0,4,0,,,,,,,,,,,,,,,,,,,,,,,,,,,,,,,,,,,,,,,,,,,,,,,,,,,,,,,,,,,,,,,,30,,,,,,,,639.0031560000498,639.0031560000498,639.0031560000498,639.0031560000498,639.0031560000498,return,0.47681079991161823,19,0,0,1,0.4,-0.32,return,0.38496970012784004,0,68,0.4,-0.32,,,,,,,,,,,,,,,,,,,,,,,,,,,,,,,,,,,,,,,,,,,,,,,,,,,,,,,,0VPN6V,train_x,blue_star,bottom_left,2025-08-19_15h05.16.833,HideSeek_v1,2022.2.5,59.94761777749353,
,4,0,5,0,1,0,51,,train_dim1_1,29,30,,,,2,0,2,0,,,,,,,,,0,0,0,0,0,28,28,28,0,0,0,0,,,,,,,,,,,,,,,,,,,,,,,,,stimuli/alien_stimuli/51.png,,,,,,,,,,,,,,,,,,,,,,,,,,,,,stimuli/alien_stimuli/21.png,21,3,30,,,,,,,30,,,,,,,,643.4159040001687,643.4159040001687,643.4159040001687,643.4159040001687,643.4159040001687,right,0.9568952999543399,19,0,0,99,0.24,-0.4,right,0.8740411000326276,,,,,641.8550478999969,643.4159040001687,0.4,-0.32,0.0,0.32,-0.32,0.4,0.24000000000000002,0.4,-0.32,641.0473317999858,641.0473317999858,641.0473317999858,641.0473317999858,641.0473317999858,641.0473317999858,641.0473317999858,641.0473317999858,641.0380364699988,0.9191602999344468,return,0.7757815001532435,,,,,,,,,,,,,,,,,,,,,,,,,,,,,,,,,0VPN6V,train_x,blue_star,bottom_left,2025-08-19_15h05.16.833,HideSeek_v1,2022.2.5,59.94761777749353,
,4,0,5,0,1,0,51,,train_dim1_1,29,30,,,,2,0,2,0,,,,,,,,,0,0,0,0,0,28,28,28,1,0,1,0,,,,,,,,,,,,,,,,,,,,,,,,,,,,,,,,,,,,,,,,,,,,,,,,,,,,,,,,,,,,,,,,30,,,,,,,,644.3738222999964,644.3738222999964,644.3738222999964,644.3738222999964,644.3738222999964,return,0.49300439981743693,20,0,0,1,0.24,-0.4,return,0.41566399997100234,0,69,0.24,-0.4,,,,,,,,,,,,,,,,,,,,,,,,,,,,,,,,,,,,,,,,,,,,,,,,,,,,,,,,0VPN6V,train_x,blue_star,bottom_left,2025-08-19_15h05.16.833,HideSeek_v1,2022.2.5,59.94761777749353,
,2,2,7,2,5,0,11,,train_dim1_1,30,30,,,,2,0,2,0,,,,,,,,,0,0,0,0,0,29,29,29,0,0,0,0,,,,,,,,,,,,,,,,,,,,,,,,,stimuli/alien_stimuli/11.png,,,,,,,,,,,,,,,,,,,,,,,,,,,,,stimuli/alien_stimuli/51.png,51,4,31,,,,,,,30,,,,,,,,648.5915735999588,648.5915735999588,648.5915735999588,648.5915735999588,648.5915735999588,right,2.088804400060326,20,0,0,99,0.08,-0.24,right,2.0054087000899017,,,,,647.0264489999972,648.5915735999588,0.24,-0.4,0.0,0.08,-0.4,0.24,0.2,0.24,-0.4,646.4394159000367,646.4394159000367,646.4394159000367,646.4394159000367,646.4394159000367,646.4394159000367,646.4394159000367,646.4394159000367,646.4260193700204,0.702298799995333,return,0.5600785000715405,,,,,,,,,,,,,,,,,,,,,,,,,,,,,,,,,0VPN6V,train_x,blue_star,bottom_left,2025-08-19_15h05.16.833,HideSeek_v1,2022.2.5,59.94761777749353,
,2,2,7,2,5,0,11,,train_dim1_1,30,30,,,,2,0,2,0,,,,,,,,,0,0,0,0,0,29,29,29,1,0,1,0,,,,,,,,,,,,,,,,,,,,,,,,,,,,,,,,,,,,,,,,,,,,,,,,,,,,,,,,,,,,,,,,30,,,,,,,,650.6824097000062,650.6824097000062,650.6824097000062,650.6824097000062,650.6824097000062,right,0.45866860006935894,20,0,0,99,0.16,-0.24,right,0.38000370003283024,,,,,,,,,,,,,,,,,,,,,,,,,,,,,,,,,,,,,,,,,,,,,,,,,,,,,,,,,,,,0VPN6V,train_x,blue_star,bottom_left,2025-08-19_15h05.16.833,HideSeek_v1,2022.2.5,59.94761777749353,
,2,2,7,2,5,0,11,,train_dim1_1,30,30,,,,2,0,2,0,,,,,,,,,0,0,0,0,0,29,29,29,2,0,2,0,,,,,,,,,,,,,,,,,,,,,,,,,,,,,,,,,,,,,,,,,,,,,,,,,,,,,,,,,,,,,,,,30,,,,,,,,651.1570735001005,651.1570735001005,651.1570735001005,651.1570735001005,651.1570735001005,right,0.7941252000164241,20,0,0,99,0.24,-0.24,right,0.69352460000664,,,,,,,,,,,,,,,,,,,,,,,,,,,,,,,,,,,,,,,,,,,,,,,,,,,,,,,,,,,,0VPN6V,train_x,blue_star,bottom_left,2025-08-19_15h05.16.833,HideSeek_v1,2022.2.5,59.94761777749353,
,2,2,7,2,5,0,11,,train_dim1_1,30,30,,,,2,0,2,0,,,,,,,,,0,0,0,0,0,29,29,29,3,0,3,0,,,,,,,,,,,,,,,,,,,,,,,,,,,,,,,,,,,,,,,,,,,,,,,,,,,,,,,,,,,,,,,,30,,,,,,,,651.948483500164,651.948483500164,651.948483500164,651.948483500164,651.948483500164,right,0.40949290012940764,20,0,0,99,0.32,-0.24,right,0.3223562999628484,,,,,,,,,,,,,,,,,,,,,,,,,,,,,,,,,,,,,,,,,,,,,,,,,,,,,,,,,,,,0VPN6V,train_x,blue_star,bottom_left,2025-08-19_15h05.16.833,HideSeek_v1,2022.2.5,59.94761777749353,
,2,2,7,2,5,0,11,,train_dim1_1,30,30,,,,2,0,2,0,,,,,,,,,0,0,0,0,0,29,29,29,4,0,4,0,,,,,,,,,,,,,,,,,,,,,,,,,,,,,,,,,,,,,,,,,,,,,,,,,,,,,,,,,,,,,,,,30,,,,,,,,652.3662558000069,652.3662558000069,652.3662558000069,652.3662558000069,652.3662558000069,right,0.44306700001470745,20,0,0,99,0.4,-0.24,right,0.35321159986779094,,,,,,,,,,,,,,,,,,,,,,,,,,,,,,,,,,,,,,,,,,,,,,,,,,,,,,,,,,,,0VPN6V,train_x,blue_star,bottom_left,2025-08-19_15h05.16.833,HideSeek_v1,2022.2.5,59.94761777749353,
,2,2,7,2,5,0,11,,train_dim1_1,30,30,,,,2,0,2,0,,,,,,,,,0,0,0,0,0,29,29,29,5,0,5,0,,,,,,,,,,,,,,,,,,,,,,,,,,,,,,,,,,,,,,,,,,,,,,,,,,,,,,,,,,,,,,,,30,,,,,,,,652.816558000166,652.816558000166,652.816558000166,652.816558000166,652.816558000166,return,0.6104494999162853,21,0,0,1,0.4,-0.24,return,0.5273812999948859,0,74,0.4,-0.24,,,,,,,,,,,,,,,,,,,,,,,,,,,,,,,,,,,,,,,,,,,,,,,,,,,,,,,,0VPN6V,train_x,blue_star,bottom_left,2025-08-19_15h05.16.833,HideSeek_v1,2022.2.5,59.94761777749353,
,,,,,,,,,,,30,,,,2,0,2,0,,,,,,,,,,,,,,,,,,,,,,,,,,,,,,,,,,,,,,,,,,,,,,,,,,,,,,,,,,,,,,,,,,,,,,,,,,stimuli/alien_stimuli/11.png,11,2,32,21,0.7,0.875,1,1,1,30,0,conditions/schedules/train_x_first/blue_star_00/bottom_left/inputTrain_2.1.xlsx,99,1,2,1,0,,,,,,,,,,,1,,,,,,,,,655.8170567001216,657.3786143001635,0.4,-0.24,0.0,0.4,-0.24,0.4,0.2,0.4,-0.24,654.9944064000156,654.9944064000156,654.9944064000156,654.9944064000156,654.9944064000156,654.9944064000156,654.9944064000156,654.9944064000156,654.9829207699979,0.9359915999229997,return,0.7903791000135243,0,0.9,0,1,21,,,,,,,,,,,,,,,,,,,,,,,,,,,,0VPN6V,train_x,blue_star,bottom_left,2025-08-19_15h05.16.833,HideSeek_v1,2022.2.5,59.94761777749353,
,,,,,,,,,,,,,,,3,0,3,0,0,0,0,0,,,,,,,,,,,,,,,,,,,,,,,,,,,,,,,conditions/schedules/train_x_first/blue_star_00/bottom_left/instructions/Slide17.png,conditions/schedules/train_x_first/blue_star_00/bottom_left/instructions/Audio17.wav,657.3786143001635,657.3680488400627,17,"[2.877273299964145, 17.14969260012731, 16.166463299887255, 18.82675420003943, 3.9010074001271278, 4.452091499930248, 5.019246899988502, 11.689748700009659, 6.150513699976727, 6.549850700190291, 8.955156499985605, 13.057937700068578, 16.851211600005627, 13.637349599972367, 30.80245770001784, 22.073491199873388, 41.72127499990165]","[2.877284500049427, 0.014136499958112836, 0.04569569998420775, 0.00022210017777979374, 0.048697999911382794, 0.014099600026383996, 0.06382400006987154, 11.689755900064483, 0.06445679999887943, 0.04780039982870221, 8.955162899801508, 13.057945100124925, 0.03085109987296164, 13.637355899903923, 0.03483420005068183, 22.073497999925166, 41.72128129983321]",0,,,,,,,,,,,,,,,,,,,,,,,,,,,,,,,,,,,,,,,,,,,,,,,,,,,,,,,,,,,,,,,,,,,,,,,,,,,,,,,,,,,,,,,,,,,,,,,,,,,,,,,,,,,,,,,,,,,,,,,,,,,,0VPN6V,train_x,blue_star,bottom_left,2025-08-19_15h05.16.833,HideSeek_v1,2022.2.5,59.94761777749353,
,,,,,,,,,,,,,,,3,0,3,0,1,0,1,0,,,,,,,,,,,,,,,,,,,,,,,,,,,,,,,conditions/schedules/train_x_first/blue_star_00/bottom_left/instructions/Slide18.png,conditions/schedules/train_x_first/blue_star_00/bottom_left/instructions/Audio18.wav,699.1576882000081,699.1530083400197,18,"[2.877273299964145, 17.14969260012731, 16.166463299887255, 18.82675420003943, 3.9010074001271278, 4.452091499930248, 5.019246899988502, 11.689748700009659, 6.150513699976727, 6.549850700190291, 8.955156499985605, 13.057937700068578, 16.851211600005627, 13.637349599972367, 30.80245770001784, 22.073491199873388, 41.72127499990165, 5.9480022001080215]","[2.877284500049427, 0.014136499958112836, 0.04569569998420775, 0.00022210017777979374, 0.048697999911382794, 0.014099600026383996, 0.06382400006987154, 11.689755900064483, 0.06445679999887943, 0.04780039982870221, 8.955162899801508, 13.057945100124925, 0.03085109987296164, 13.637355899903923, 0.03483420005068183, 22.073497999925166, 0.031156999990344048, 5.948009700048715]",0,,,,,,,,,,,,,,,,,,,,,,,,,,,,,,,,,,,,,,,,,,,,,,,,,,,,,,,,,,,,,,,,,,,,,,,,,,,,,,,,,,,,,,,,,,,,,,,,,,,,,,,,,,,,,,,,,,,,,,,,,,,,0VPN6V,train_x,blue_star,bottom_left,2025-08-19_15h05.16.833,HideSeek_v1,2022.2.5,59.94761777749353,
,,,,,,,,,,,,,,,3,0,3,0,2,0,2,0,,,,,,,,,,,,,,,,,,,,,,,,,,,,,,,conditions/schedules/train_x_first/blue_star_00/bottom_left/instructions/Slide19.png,conditions/schedules/train_x_first/blue_star_00/bottom_left/instructions/Audio19.wav,705.1457329001278,705.1415348300478,19,"[2.877273299964145, 17.14969260012731, 16.166463299887255, 18.82675420003943, 3.9010074001271278, 4.452091499930248, 5.019246899988502, 11.689748700009659, 6.150513699976727, 6.549850700190291, 8.955156499985605, 13.057937700068578, 16.851211600005627, 13.637349599972367, 30.80245770001784, 22.073491199873388, 41.72127499990165, 5.9480022001080215, 10.302130699856207]","[2.877284500049427, 0.014136499958112836, 0.04569569998420775, 0.00022210017777979374, 0.048697999911382794, 0.014099600026383996, 0.06382400006987154, 11.689755900064483, 0.06445679999887943, 0.04780039982870221, 8.955162899801508, 13.057945100124925, 0.03085109987296164, 13.637355899903923, 0.03483420005068183, 22.073497999925166, 0.031156999990344048, 0.06372500001452863, 10.302138299914077]",0,,,,,,,,,,,,,,,,,,,,,,,,,,,,,,,,,,,,,,,,,,,,,,,,,,,,,,,,,,,,,,,,,,,,,,,,,,,,,,,,,,,,,,,,,,,,,,,,,,,,,,,,,,,,,,,,,,,,,,,,,,,,0VPN6V,train_x,blue_star,bottom_left,2025-08-19_15h05.16.833,HideSeek_v1,2022.2.5,59.94761777749353,
,,,,,,,,,,,,,,,3,0,3,0,3,0,3,0,,,,,,,,,,,,,,,,,,,,,,,,,,,,,,,conditions/schedules/train_x_first/blue_star_00/bottom_left/instructions/Slide20.png,conditions/schedules/train_x_first/blue_star_00/bottom_left/instructions/Audio20.wav,715.518289900152,715.5166366499616,20,"[2.877273299964145, 17.14969260012731, 16.166463299887255, 18.82675420003943, 3.9010074001271278, 4.452091499930248, 5.019246899988502, 11.689748700009659, 6.150513699976727, 6.549850700190291, 8.955156499985605, 13.057937700068578, 16.851211600005627, 13.637349599972367, 30.80245770001784, 22.073491199873388, 41.72127499990165, 5.9480022001080215, 10.302130699856207, 14.174426599871367]","[2.877284500049427, 0.014136499958112836, 0.04569569998420775, 0.00022210017777979374, 0.048697999911382794, 0.014099600026383996, 0.06382400006987154, 11.689755900064483, 0.06445679999887943, 0.04780039982870221, 8.955162899801508, 13.057945100124925, 0.03085109987296164, 13.637355899903923, 0.03483420005068183, 22.073497999925166, 0.031156999990344048, 0.06372500001452863, 0.00023199990391731262, 14.1744333000388]",0,,,,,,,,,,,,,,,,,,,,,,,,,,,,,,,,,,,,,,,,,,,,,,,,,,,,,,,,,,,,,,,,,,,,,,,,,,,,,,,,,,,,,,,,,,,,,,,,,,,,,,,,,,,,,,,,,,,,,,,,,,,,0VPN6V,train_x,blue_star,bottom_left,2025-08-19_15h05.16.833,HideSeek_v1,2022.2.5,59.94761777749353,
1,0,3,0,8,0,5,66,2,instr_dim1_2,,,,,,3,0,3,0,,,,,0,0,0,0,,,,,,,,,,,,,,,,,,,,,,,,,,,,,,,,,,,,,stimuli/alien_stimuli/66.png,conditions/schedules/train_x_first/blue_star_00/bottom_left/inputInstr_2.xlsx,stimuli/alien_stimuli/66.png,729.7888987001497,729.7888987001497,729.7888987001497,729.7888987001497,729.7785117599648,return,7.738249399932101,"[-0.16, -0.08, 0, 0.08, 0.16, 0.24, 0.32, 0.4, 0.48, 0.56]","[-0.4, -0.32, -0.24, -0.16, -0.08, 0, 0.08, 0.16, 0.24, 0.32]",8,3,0,0,0.4,0.0,737.6765640000813,737.6765640000813,737.6765640000813,737.6765640000813,737.6765640000813,737.6765640000813,737.6765640000813,737.6683587801643,7.540383200161159,return,7.3873976999893785,stimuli/alien_stimuli/66.png,66,0,1,,,,,,,,,,,,,,,,,,,,,,,,,,,,,,,,,,,,,,,,,,,,,,,,,,,,,,,,,,,,,,,,,,,,,,,,,,,,,,,,,,,,,,,,,0VPN6V,train_x,blue_star,bottom_left,2025-08-19_15h05.16.833,HideSeek_v1,2022.2.5,59.94761777749353,
,,,,,,,,,,,30,,,,3,0,3,0,,,,,,,,,,,,,,,,,,,,,,,,,,,,,,,,,,,,,,,,,,,,,,,,,,,,,,,,,,,,,,,,,,,,,,,,,,,,,,21,0.7,0.875,1,99,2,30,0,conditions/schedules/train_x_first/blue_star_00/bottom_left/inputTrain_2.1.xlsx,99,1,2,1,0,,,,,,,,,,,,,,,,,,,,,,,,,,,,,,,,,,,,,,,,,,,,,,,,,,,,,,,,,,,,,,,,,,,,,,,,,,,0VPN6V,train_x,blue_star,bottom_left,2025-08-19_15h05.16.833,HideSeek_v1,2022.2.5,59.94761777749353,
,,,,,,,,,,,,,,,4,0,4,0,0,0,0,0,,,,,,,,,,,,,,,,,,,,,,,,,,,,,,,conditions/schedules/train_x_first/blue_star_00/bottom_left/instructions/Slide21.png,conditions/schedules/train_x_first/blue_star_00/bottom_left/instructions/Audio21.wav,745.2426171000116,745.2412164001726,21,"[2.877273299964145, 17.14969260012731, 16.166463299887255, 18.82675420003943, 3.9010074001271278, 4.452091499930248, 5.019246899988502, 11.689748700009659, 6.150513699976727, 6.549850700190291, 8.955156499985605, 13.057937700068578, 16.851211600005627, 13.637349599972367, 30.80245770001784, 22.073491199873388, 41.72127499990165, 5.9480022001080215, 10.302130699856207, 14.174426599871367, 17.894595500081778]","[2.877284500049427, 0.014136499958112836, 0.04569569998420775, 0.00022210017777979374, 0.048697999911382794, 0.014099600026383996, 0.06382400006987154, 11.689755900064483, 0.06445679999887943, 0.04780039982870221, 8.955162899801508, 13.057945100124925, 0.03085109987296164, 13.637355899903923, 0.03483420005068183, 22.073497999925166, 0.031156999990344048, 0.06372500001452863, 0.00023199990391731262, 14.1744333000388, 17.894602300133556]",0,,,,,,,,,,,,,,,,,,,,,,,,,,,,,,,,,,,,,,,,,,,,,,,,,,,,,,,,,,,,,,,,,,,,,,,,,,,,,,,,,,,,,,,,,,,,,,,,,,,,,,,,,,,,,,,,,,,,,,,,,,,,0VPN6V,train_x,blue_star,bottom_left,2025-08-19_15h05.16.833,HideSeek_v1,2022.2.5,59.94761777749353,
2,2,3,2,3,0,0,61,2,instr_dim1_2,,,,,,4,0,4,0,,,,,0,0,0,0,,,,,,,,,,,,,,,,,,,,,,,,,,,,,,,,,,,,,stimuli/alien_stimuli/61.png,conditions/schedules/train_x_first/blue_star_00/bottom_left/inputInstr_2.xlsx,stimuli/alien_stimuli/61.png,763.2303965000901,763.2303965000901,763.2303965000901,763.2303965000901,763.2229225599673,return,7.040917100152001,"[-0.16, -0.08, 0, 0.08, 0.16, 0.24, 0.32, 0.4, 0.48, 0.56]","[-0.4, -0.32, -0.24, -0.16, -0.08, 0, 0.08, 0.16, 0.24, 0.32]",3,3,2,2,0.0,0.0,770.4164104999509,770.4164104999509,770.4164104999509,770.4164104999509,770.4164104999509,770.4164104999509,770.4164104999509,770.4120974801016,9.008535499917343,return,8.858710499946028,stimuli/alien_stimuli/61.png,61,2,2,,,,,,,,,,,,,,,,,,,,,,,,,,,,,,,,,,,,,,,,,,,,,,,,,,,,,,,,,,,,,,,,,,,,,,,,,,,,,,,,,,,,,,,,,0VPN6V,train_x,blue_star,bottom_left,2025-08-19_15h05.16.833,HideSeek_v1,2022.2.5,59.94761777749353,
,,,,,,,,,,,30,,,,4,0,4,0,,,,,,,,,,,,,,,,,,,,,,,,,,,,,,,,,,,,,,,,,,,,,,,,,,,,,,,,,,,,,,,,,,,,,,,,,,,,,,21,0.7,0.875,1,99,2,30,0,conditions/schedules/train_x_first/blue_star_00/bottom_left/inputTrain_2.1.xlsx,99,1,2,1,0,,,,,,,,,,,,,,,,,,,,,,,,,,,,,,,,,,,,,,,,,,,,,,,,,,,,,,,,,,,,,,,,,,,,,,,,,,,0VPN6V,train_x,blue_star,bottom_left,2025-08-19_15h05.16.833,HideSeek_v1,2022.2.5,59.94761777749353,
,,,,,,,,,,,,,,,5,0,5,0,0,0,0,0,,,,,,,,,,,,,,,,,,,,,,,,,,,,,,,conditions/schedules/train_x_first/blue_star_00/bottom_left/instructions/Slide22.png,conditions/schedules/train_x_first/blue_star_00/bottom_left/instructions/Audio22.wav,779.4616348000709,779.4529732000083,22,"[2.877273299964145, 17.14969260012731, 16.166463299887255, 18.82675420003943, 3.9010074001271278, 4.452091499930248, 5.019246899988502, 11.689748700009659, 6.150513699976727, 6.549850700190291, 8.955156499985605, 13.057937700068578, 16.851211600005627, 13.637349599972367, 30.80245770001784, 22.073491199873388, 41.72127499990165, 5.9480022001080215, 10.302130699856207, 14.174426599871367, 17.894595500081778, 44.175340899964795]","[2.877284500049427, 0.014136499958112836, 0.04569569998420775, 0.00022210017777979374, 0.048697999911382794, 0.014099600026383996, 0.06382400006987154, 11.689755900064483, 0.06445679999887943, 0.04780039982870221, 8.955162899801508, 13.057945100124925, 0.03085109987296164, 13.637355899903923, 0.03483420005068183, 22.073497999925166, 0.031156999990344048, 0.06372500001452863, 0.00023199990391731262, 14.1744333000388, 17.894602300133556, 44.17534799990244]",0,,,,,,,,,,,,,,,,,,,,,,,,,,,,,,,,,,,,,,,,,,,,,,,,,,,,,,,,,,,,,,,,,,,,,,,,,,,,,,,,,,,,,,,,,,,,,,,,,,,,,,,,,,,,,,,,,,,,,,,,,,,,0VPN6V,train_x,blue_star,bottom_left,2025-08-19_15h05.16.833,HideSeek_v1,2022.2.5,59.94761777749353,
,0,0,0,4,0,4,65,,train_dim1_2,1,30,,,,5,0,5,0,,,,,,,,,0,0,0,0,0,0,0,0,0,0,0,0,,,,,,,,,,,,,,,,,,,,,,,,,stimuli/alien_stimuli/65.png,,,,,,,,,,,,,,,,,,,,,,,,,,,,,,,,,,,,,,,30,,,,,,,,823.7437031001318,823.7437031001318,823.7437031001318,823.7437031001318,823.7437031001318,up,3.0133772001136094,0,0,0,99,-0.16,-0.32,up,2.9054020999465138,,,,,,,,,,,,,,,,,,,,,,,,,,,,,,,,,,,,,,,,,,,,,,,,,,,,,,,,,,,,0VPN6V,train_x,blue_star,bottom_left,2025-08-19_15h05.16.833,HideSeek_v1,2022.2.5,59.94761777749353,
,0,0,0,4,0,4,65,,train_dim1_2,1,30,,,,5,0,5,0,,,,,,,,,0,0,0,0,0,0,0,0,1,0,1,0,,,,,,,,,,,,,,,,,,,,,,,,,,,,,,,,,,,,,,,,,,,,,,,,,,,,,,,,,,,,,,,,30,,,,,,,,826.7392492999788,826.7392492999788,826.7392492999788,826.7392492999788,826.7392492999788,up,0.49301269999705255,0,0,0,99,-0.16,-0.24,up,0.4151033000089228,,,,,,,,,,,,,,,,,,,,,,,,,,,,,,,,,,,,,,,,,,,,,,,,,,,,,,,,,,,,0VPN6V,train_x,blue_star,bottom_left,2025-08-19_15h05.16.833,HideSeek_v1,2022.2.5,59.94761777749353,
,0,0,0,4,0,4,65,,train_dim1_2,1,30,,,,5,0,5,0,,,,,,,,,0,0,0,0,0,0,0,0,2,0,2,0,,,,,,,,,,,,,,,,,,,,,,,,,,,,,,,,,,,,,,,,,,,,,,,,,,,,,,,,,,,,,,,,30,,,,,,,,827.2405201001093,827.2405201001093,827.2405201001093,827.2405201001093,827.2405201001093,up,0.47588440007530153,0,0,0,99,-0.16,-0.15999999999999998,up,0.402644099900499,,,,,,,,,,,,,,,,,,,,,,,,,,,,,,,,,,,,,,,,,,,,,,,,,,,,,,,,,,,,0VPN6V,train_x,blue_star,bottom_left,2025-08-19_15h05.16.833,HideSeek_v1,2022.2.5,59.94761777749353,
,0,0,0,4,0,4,65,,train_dim1_2,1,30,,,,5,0,5,0,,,,,,,,,0,0,0,0,0,0,0,0,3,0,3,0,,,,,,,,,,,,,,,,,,,,,,,,,,,,,,,,,,,,,,,,,,,,,,,,,,,,,,,,,,,,,,,,30,,,,,,,,827.7351141001564,827.7351141001564,827.7351141001564,827.7351141001564,827.7351141001564,up,0.4932564999908209,0,0,0,99,-0.16,-0.07999999999999997,up,0.4062491999939084,,,,,,,,,,,,,,,,,,,,,,,,,,,,,,,,,,,,,,,,,,,,,,,,,,,,,,,,,,,,0VPN6V,train_x,blue_star,bottom_left,2025-08-19_15h05.16.833,HideSeek_v1,2022.2.5,59.94761777749353,
,0,0,0,4,0,4,65,,train_dim1_2,1,30,,,,5,0,5,0,,,,,,,,,0,0,0,0,0,0,0,0,4,0,4,0,,,,,,,,,,,,,,,,,,,,,,,,,,,,,,,,,,,,,,,,,,,,,,,,,,,,,,,,,,,,,,,,30,,,,,,,,828.2236560999881,828.2236560999881,828.2236560999881,828.2236560999881,828.2236560999881,up,0.49338919995352626,0,0,0,99,-0.16,2.7755575615628914e-17,up,0.41641529998742044,,,,,,,,,,,,,,,,,,,,,,,,,,,,,,,,,,,,,,,,,,,,,,,,,,,,,,,,,,,,0VPN6V,train_x,blue_star,bottom_left,2025-08-19_15h05.16.833,HideSeek_v1,2022.2.5,59.94761777749353,
,0,0,0,4,0,4,65,,train_dim1_2,1,30,,,,5,0,5,0,,,,,,,,,0,0,0,0,0,0,0,0,5,0,5,0,,,,,,,,,,,,,,,,,,,,,,,,,,,,,,,,,,,,,,,,,,,,,,,,,,,,,,,,,,,,,,,,30,,,,,,,,828.7331213001162,828.7331213001162,828.7331213001162,828.7331213001162,828.7331213001162,return,1.76141869998537,0,1,0,0,-0.16,2.7755575615628914e-17,return,1.6768054000567645,5,74,-0.16,2.7755575615628914e-17,,,,,,,,,,,,,,,,,,,,,,,,,,,,,,,,,,,,,,,,,,,,,,,,,,,,,,,,0VPN6V,train_x,blue_star,bottom_left,2025-08-19_15h05.16.833,HideSeek_v1,2022.2.5,59.94761777749353,
,3,2,3,7,0,5,66,,train_dim1_2,2,30,,,,5,0,5,0,,,,,,,,,0,0,0,0,0,1,1,1,0,0,0,0,,,,,,,,,,,,,,,,,,,,,,,,,stimuli/alien_stimuli/66.png,,,,,,,,,,,,,,,,,,,,,,,,,,,,,stimuli/alien_stimuli/65.png,65,0,3,,,,,,,30,,,,,,,,842.2171591001097,842.2171591001097,842.2171591001097,842.2171591001097,842.2171591001097,return,2.733079999918118,0,0,0,0,0.08,-0.24,return,2.656801200006157,5,74,0.08,-0.24,840.6540375000332,842.2171591001097,-0.16,-0.08,0.32,0.0,-0.24000000000000002,-0.16,-0.16,-0.16,-0.08,832.0705512000713,832.0705512000713,832.0705512000713,832.0705512000713,832.0705512000713,832.0705512000713,832.0705512000713,832.0705512000713,832.063499980094,8.708880200050771,return,8.556152400095016,,,,,,,,,,,,,,,,,,,,,,,,,,,,,,,,,0VPN6V,train_x,blue_star,bottom_left,2025-08-19_15h05.16.833,HideSeek_v1,2022.2.5,59.94761777749353,
,2,3,2,6,0,3,64,,train_dim1_2,3,30,,,,5,0,5,0,,,,,,,,,0,0,0,0,0,2,2,2,0,0,0,0,,,,,,,,,,,,,,,,,,,,,,,,,stimuli/alien_stimuli/64.png,,,,,,,,,,,,,,,,,,,,,,,,,,,,,stimuli/alien_stimuli/66.png,66,3,4,,,,,,,30,,,,,,,,851.6171344001777,851.6171344001777,851.6171344001777,851.6171344001777,851.6171344001777,up,4.357345399912447,0,0,0,99,0,-0.08,up,4.282001199899241,,,,,850.0617452999577,851.6171344001777,0.08,0.16,0.4,0.0,-0.039999999999999994,0.08,0.08,0.08,0.16,846.5221309000626,846.5221309000626,846.5221309000626,846.5221309000626,846.5221309000626,846.5221309000626,846.5221309000626,846.5221309000626,846.508812870062,3.655150700127706,return,3.5195192999672145,,,,,,,,,,,,,,,,,,,,,,,,,,,,,,,,,0VPN6V,train_x,blue_star,bottom_left,2025-08-19_15h05.16.833,HideSeek_v1,2022.2.5,59.94761777749353,
,2,3,2,6,0,3,64,,train_dim1_2,3,30,,,,5,0,5,0,,,,,,,,,0,0,0,0,0,2,2,2,1,0,1,0,,,,,,,,,,,,,,,,,,,,,,,,,,,,,,,,,,,,,,,,,,,,,,,,,,,,,,,,,,,,,,,,30,,,,,,,,855.9829841000028,855.9829841000028,855.9829841000028,855.9829841000028,855.9829841000028,up,0.8081799000501633,0,0,0,99,0,0.0,up,0.7300017999950796,,,,,,,,,,,,,,,,,,,,,,,,,,,,,,,,,,,,,,,,,,,,,,,,,,,,,,,,,,,,0VPN6V,train_x,blue_star,bottom_left,2025-08-19_15h05.16.833,HideSeek_v1,2022.2.5,59.94761777749353,
,2,3,2,6,0,3,64,,train_dim1_2,3,30,,,,5,0,5,0,,,,,,,,,0,0,0,0,0,2,2,2,2,0,2,0,,,,,,,,,,,,,,,,,,,,,,,,,,,,,,,,,,,,,,,,,,,,,,,,,,,,,,,,,,,,,,,,30,,,,,,,,856.7968687999528,856.7968687999528,856.7968687999528,856.7968687999528,856.7968687999528,up,0.9604190001264215,0,0,0,99,0,0.08,up,0.8724594002123922,,,,,,,,,,,,,,,,,,,,,,,,,,,,,,,,,,,,,,,,,,,,,,,,,,,,,,,,,,,,0VPN6V,train_x,blue_star,bottom_left,2025-08-19_15h05.16.833,HideSeek_v1,2022.2.5,59.94761777749353,
