trialInstr,x_fixStart,y_fixStart,x_corrSteps,y_corrSteps,x_nrSteps,y_nrSteps,alienID,trialLength,version,trialTrain,praclen,testlen,trial_label,break_on_off,beforeExpLoop.thisRepN,beforeExpLoop.thisTrialN,beforeExpLoop.thisN,beforeExpLoop.thisIndex,mini_instr_trials.thisRepN,mini_instr_trials.thisTrialN,mini_instr_trials.thisN,mini_instr_trials.thisIndex,instrLoop.thisRepN,instrLoop.thisTrialN,instrLoop.thisN,instrLoop.thisIndex,repeat_prac.thisRepN,repeat_prac.thisTrialN,repeat_prac.thisN,repeat_prac.thisIndex,trainLoop.thisRepN,trainLoop.thisTrialN,trainLoop.thisN,trainLoop.thisIndex,moveLoop_train.thisRepN,moveLoop_train.thisTrialN,moveLoop_train.thisN,moveLoop_train.thisIndex,experiment.thisRepN,experiment.thisTrialN,experiment.thisN,experiment.thisIndex,moveLoop_test.thisRepN,moveLoop_test.thisTrialN,moveLoop_test.thisN,moveLoop_test.thisIndex,mini_instr2_trials.thisRepN,mini_instr2_trials.thisTrialN,mini_instr2_trials.thisN,mini_instr2_trials.thisIndex,start_all_time,url,slideStim,audioStim,slides.started,sounds.started,nextButton.numClicks,nextButton.timesOn,nextButton.timesOff,prev_but.numClicks,prev_but.timesOn,prev_but.timesOff,alienStim,instrFile,alienStim_instr,gridImage_instr.started,startPos_3.started,key_instr.started,alienImage_3.started,sounds_1.started,key_instr.keys,key_instr.rt,all_x,all_y,FBy_corrSteps,FBy_fixStart,FBx_corrSteps,FBx_fixStart,FBy_pathSize_check,FBx_pathSize_check,gridImage_9.started,alienImageFB_3.started,startPosFB_3.started,keyFB_3.started,pathLine_ydir_2.started,pathLine_xdir_2.started,alienFace_3.started,sounds_2.started,RTFB_instr,keyFB_3.keys,keyFB_3.rt,draw_alienStim,draw_alienID,test_x,nrepcount,perfthres,percthres,earlierperf,earlystop,nextPrac,fileidx,praclen,saveACC_train,pracFile,nextPrac_train,addNrep,fileidx_endr,repExp,showearly,gridImage_4.started,startPos.started,movePos.started,key_resp.started,alienImage.started,buttonPress_train,RTchoice_train,cumAcctrain,aCorr,saveACC_choice,corrAns,x_movePos_end,y_movePos_end,key_resp.keys,key_resp.rt,wLy_dir,wLx_dir,x_movePos,y_movePos,text_2.started,text_2.stopped,aft_x_corrPos,aft_y_corrPos,y_pathSize_check,x_pathSize_check,y_pathdirY,x_pathdirY,x_pathdirX,x_corrPos,y_corrPos,gridImage_6.started,alienImageFB_2.started,startPosFB_2.started,movePosFB_2.started,keyFB_2.started,pathLine_xdir.started,pathLine_ydir.started,alienFace.started,sounds_4.started,RT_FBtrain,keyFB_2.keys,keyFB_2.rt,saveACC_pre,ACC,within_saveACC_train,earlystop_wloop,cumAcctrain_check,gridImage_3.started,alienImage_test.started,startPos_test.started,movePos_test.started,key_resp_test.started,wLy_dir_test,wLx_dir_test,buttonPress_test,RTchoice_test,cumAcctest,corrAns_test,key_resp_test.keys,key_resp_test.rt,text_3.started,text_3.stopped,total_time,end_all_time,key_resp_3.keys,slides_2.started,sounds_3.started,nextButton_2.numClicks,nextButton_2.timesOn,nextButton_2.timesOff,prev_but_2.numClicks,prev_but_2.timesOn,prev_but_2.timesOff,bye.started,participant,train_first,00_coordinate,starting corner,date,expName,psychopyVersion,frameRate,
,,,,,,,,,,,,,,,0,0,0,0,0,0,0,0,,,,,,,,,,,,,,,,,,,,,,,,,,,,,start_all_time,testround,conditions/schedules/train_x_first/red_square_00/top_left/instructions/Slide1.png,conditions/schedules/train_x_first/red_square_00/top_left/instructions/Audio1.wav,102.59369339991827,102.53541410189355,1,[10.84812530002091],[10.848134999978356],0,,,,,,,,,,,,,,,,,,,,,,,,,,,,,,,,,,,,,,,,,,,,,,,,,,,,,,,,,,,,,,,,,,,,,,,,,,,,,,,,,,,,,,,,,,,,,,,,,,,,,,,,,,,,,,,,,,,,,,,,,,,,0YPYKJ,train_x,red_square,top_left,2025-05-22_15h04.18.649,HideSeek_v1,2022.2.5,59.93676671805206,
,,,,,,,,,,,,,,,0,0,0,0,1,0,1,0,,,,,,,,,,,,,,,,,,,,,,,,,,,,,,,conditions/schedules/train_x_first/red_square_00/top_left/instructions/Slide2.png,conditions/schedules/train_x_first/red_square_00/top_left/instructions/Audio2.wav,113.47087069996633,113.46096090000356,2,"[10.84812530002091, 18.50339919992257]","[10.848134999978356, 18.503405799972825]",0,,,,,,,,,,,,,,,,,,,,,,,,,,,,,,,,,,,,,,,,,,,,,,,,,,,,,,,,,,,,,,,,,,,,,,,,,,,,,,,,,,,,,,,,,,,,,,,,,,,,,,,,,,,,,,,,,,,,,,,,,,,,0YPYKJ,train_x,red_square,top_left,2025-05-22_15h04.18.649,HideSeek_v1,2022.2.5,59.93676671805206,
,,,,,,,,,,,,,,,0,0,0,0,2,0,2,0,,,,,,,,,,,,,,,,,,,,,,,,,,,,,,,conditions/schedules/train_x_first/red_square_00/top_left/instructions/Slide3.png,conditions/schedules/train_x_first/red_square_00/top_left/instructions/Audio3.wav,132.0576856000116,132.0598045999417,3,"[10.84812530002091, 18.50339919992257, 16.479988200007938]","[10.848134999978356, 18.503405799972825, 16.4799949999433]",0,,,,,,,,,,,,,,,,,,,,,,,,,,,,,,,,,,,,,,,,,,,,,,,,,,,,,,,,,,,,,,,,,,,,,,,,,,,,,,,,,,,,,,,,,,,,,,,,,,,,,,,,,,,,,,,,,,,,,,,,,,,,0YPYKJ,train_x,red_square,top_left,2025-05-22_15h04.18.649,HideSeek_v1,2022.2.5,59.93676671805206,
,,,,,,,,,,,,,,,0,0,0,0,3,0,3,0,,,,,,,,,,,,,,,,,,,,,,,,,,,,,,,conditions/schedules/train_x_first/red_square_00/top_left/instructions/Slide4.png,conditions/schedules/train_x_first/red_square_00/top_left/instructions/Audio4.wav,148.62210929999128,148.62363729996142,4,"[10.84812530002091, 18.50339919992257, 16.479988200007938, 19.130866400082596]","[10.848134999978356, 18.503405799972825, 0.013843100052326918, 19.130873000016436]",0,,,,,,,,,,,,,,,,,,,,,,,,,,,,,,,,,,,,,,,,,,,,,,,,,,,,,,,,,,,,,,,,,,,,,,,,,,,,,,,,,,,,,,,,,,,,,,,,,,,,,,,,,,,,,,,,,,,,,,,,,,,,0YPYKJ,train_x,red_square,top_left,2025-05-22_15h04.18.649,HideSeek_v1,2022.2.5,59.93676671805206,
,,,,,,,,,,,,,,,0,0,0,0,4,0,4,0,,,,,,,,,,,,,,,,,,,,,,,,,,,,,,,conditions/schedules/train_x_first/red_square_00/top_left/instructions/Slide5.png,conditions/schedules/train_x_first/red_square_00/top_left/instructions/Audio5.wav,167.8198388000019,167.80583959994837,5,"[10.84812530002091, 18.50339919992257, 16.479988200007938, 19.130866400082596, 5.0219909000443295]","[10.848134999978356, 18.503405799972825, 0.013843100052326918, 0.0343170000705868, 5.021997400093824]",0,,,,,,,,,,,,,,,,,,,,,,,,,,,,,,,,,,,,,,,,,,,,,,,,,,,,,,,,,,,,,,,,,,,,,,,,,,,,,,,,,,,,,,,,,,,,,,,,,,,,,,,,,,,,,,,,,,,,,,,,,,,,0YPYKJ,train_x,red_square,top_left,2025-05-22_15h04.18.649,HideSeek_v1,2022.2.5,59.93676671805206,
,,,,,,,,,,,,,,,0,0,0,0,5,0,5,0,,,,,,,,,,,,,,,,,,,,,,,,,,,,,,,conditions/schedules/train_x_first/red_square_00/top_left/instructions/Slide6.png,conditions/schedules/train_x_first/red_square_00/top_left/instructions/Audio6.wav,172.89251439995132,172.8940039000241,6,"[10.84812530002091, 18.50339919992257, 16.479988200007938, 19.130866400082596, 5.0219909000443295, 4.803032099967822]","[10.848134999978356, 18.503405799972825, 0.013843100052326918, 0.0343170000705868, 0.013816099963150918, 4.803039700025693]",0,,,,,,,,,,,,,,,,,,,,,,,,,,,,,,,,,,,,,,,,,,,,,,,,,,,,,,,,,,,,,,,,,,,,,,,,,,,,,,,,,,,,,,,,,,,,,,,,,,,,,,,,,,,,,,,,,,,,,,,,,,,,0YPYKJ,train_x,red_square,top_left,2025-05-22_15h04.18.649,HideSeek_v1,2022.2.5,59.93676671805206,
,,,,,,,,,,,,,,,0,0,0,0,6,0,6,0,,,,,,,,,,,,,,,,,,,,,,,,,,,,,,,conditions/schedules/train_x_first/red_square_00/top_left/instructions/Slide7.png,conditions/schedules/train_x_first/red_square_00/top_left/instructions/Audio7.wav,177.74748289992567,177.74794439997058,7,"[10.84812530002091, 18.50339919992257, 16.479988200007938, 19.130866400082596, 5.0219909000443295, 4.803032099967822, 5.6186814999673516]","[10.848134999978356, 18.503405799972825, 0.013843100052326918, 0.0343170000705868, 0.013816099963150918, 0.0304366999771446, 5.6186886000214145]",0,,,,,,,,,,,,,,,,,,,,,,,,,,,,,,,,,,,,,,,,,,,,,,,,,,,,,,,,,,,,,,,,,,,,,,,,,,,,,,,,,,,,,,,,,,,,,,,,,,,,,,,,,,,,,,,,,,,,,,,,,,,,0YPYKJ,train_x,red_square,top_left,2025-05-22_15h04.18.649,HideSeek_v1,2022.2.5,59.93676671805206,
,,,,,,,,,,,,,,,0,0,0,0,7,0,7,0,,,,,,,,,,,,,,,,,,,,,,,,,,,,,,,conditions/schedules/train_x_first/red_square_00/top_left/instructions/Slide8.png,conditions/schedules/train_x_first/red_square_00/top_left/instructions/Audio8.wav,183.41955409990624,183.41912230001762,8,"[10.84812530002091, 18.50339919992257, 16.479988200007938, 19.130866400082596, 5.0219909000443295, 4.803032099967822, 5.6186814999673516, 11.389776999945752]","[10.848134999978356, 18.503405799972825, 0.013843100052326918, 0.0343170000705868, 0.013816099963150918, 0.0304366999771446, 0.04697609995491803, 11.389783399994485]",0,,,,,,,,,,,,,,,,,,,,,,,,,,,,,,,,,,,,,,,,,,,,,,,,,,,,,,,,,,,,,,,,,,,,,,,,,,,,,,,,,,,,,,,,,,,,,,,,,,,,,,,,,,,,,,,,,,,,,,,,,,,,0YPYKJ,train_x,red_square,top_left,2025-05-22_15h04.18.649,HideSeek_v1,2022.2.5,59.93676671805206,
,,,,,,,,,,,,,,,0,0,0,0,8,0,8,0,,,,,,,,,,,,,,,,,,,,,,,,,,,,,,,conditions/schedules/train_x_first/red_square_00/top_left/instructions/Slide9.png,conditions/schedules/train_x_first/red_square_00/top_left/instructions/Audio9.wav,194.8738959999755,194.86198559999465,9,"[10.84812530002091, 18.50339919992257, 16.479988200007938, 19.130866400082596, 5.0219909000443295, 4.803032099967822, 5.6186814999673516, 11.389776999945752, 5.640782399917953]","[10.848134999978356, 18.503405799972825, 0.013843100052326918, 0.0343170000705868, 0.013816099963150918, 0.0304366999771446, 0.04697609995491803, 0.06869599991478026, 5.640790199977346]",0,,,,,,,,,,,,,,,,,,,,,,,,,,,,,,,,,,,,,,,,,,,,,,,,,,,,,,,,,,,,,,,,,,,,,,,,,,,,,,,,,,,,,,,,,,,,,,,,,,,,,,,,,,,,,,,,,,,,,,,,,,,,0YPYKJ,train_x,red_square,top_left,2025-05-22_15h04.18.649,HideSeek_v1,2022.2.5,59.93676671805206,
,,,,,,,,,,,,,,,0,0,0,0,9,0,9,0,,,,,,,,,,,,,,,,,,,,,,,,,,,,,,,conditions/schedules/train_x_first/red_square_00/top_left/instructions/Slide10.png,conditions/schedules/train_x_first/red_square_00/top_left/instructions/Audio10.wav,200.56140080001205,200.54984700003408,10,"[10.84812530002091, 18.50339919992257, 16.479988200007938, 19.130866400082596, 5.0219909000443295, 4.803032099967822, 5.6186814999673516, 11.389776999945752, 5.640782399917953, 6.908730400027707]","[10.848134999978356, 18.503405799972825, 0.013843100052326918, 0.0343170000705868, 0.013816099963150918, 0.0304366999771446, 0.04697609995491803, 0.06869599991478026, 0.1194603000767529, 6.908737099962309]",0,,,,,,,,,,,,,,,,,,,,,,,,,,,,,,,,,,,,,,,,,,,,,,,,,,,,,,,,,,,,,,,,,,,,,,,,,,,,,,,,,,,,,,,,,,,,,,,,,,,,,,,,,,,,,,,,,,,,,,,,,,,,0YPYKJ,train_x,red_square,top_left,2025-05-22_15h04.18.649,HideSeek_v1,2022.2.5,59.93676671805206,
,,,,,,,,,,,,,,,0,0,0,0,10,0,10,0,,,,,,,,,,,,,,,,,,,,,,,,,,,,,,,conditions/schedules/train_x_first/red_square_00/top_left/instructions/Slide11.png,conditions/schedules/train_x_first/red_square_00/top_left/instructions/Audio11.wav,207.5248128999956,207.5226203999715,11,"[10.84812530002091, 18.50339919992257, 16.479988200007938, 19.130866400082596, 5.0219909000443295, 4.803032099967822, 5.6186814999673516, 11.389776999945752, 5.640782399917953, 6.908730400027707, 9.519539700006135]","[10.848134999978356, 18.503405799972825, 0.013843100052326918, 0.0343170000705868, 0.013816099963150918, 0.0304366999771446, 0.04697609995491803, 0.06869599991478026, 0.1194603000767529, 0.03002149995882064, 9.519546199939214]",0,,,,,,,,,,,,,,,,,,,,,,,,,,,,,,,,,,,,,,,,,,,,,,,,,,,,,,,,,,,,,,,,,,,,,,,,,,,,,,,,,,,,,,,,,,,,,,,,,,,,,,,,,,,,,,,,,,,,,,,,,,,,0YPYKJ,train_x,red_square,top_left,2025-05-22_15h04.18.649,HideSeek_v1,2022.2.5,59.93676671805206,
,,,,,,,,,,,,,,,0,0,0,0,11,0,11,0,,,,,,,,,,,,,,,,,,,,,,,,,,,,,,,conditions/schedules/train_x_first/red_square_00/top_left/instructions/Slide12.png,conditions/schedules/train_x_first/red_square_00/top_left/instructions/Audio12.wav,217.09855339990463,217.09704499996732,12,"[10.84812530002091, 18.50339919992257, 16.479988200007938, 19.130866400082596, 5.0219909000443295, 4.803032099967822, 5.6186814999673516, 11.389776999945752, 5.640782399917953, 6.908730400027707, 9.519539700006135, 12.723474099999294]","[10.848134999978356, 18.503405799972825, 0.013843100052326918, 0.0343170000705868, 0.013816099963150918, 0.0304366999771446, 0.04697609995491803, 0.06869599991478026, 0.1194603000767529, 0.03002149995882064, 0.01386169996112585, 12.723481499939226]",0,,,,,,,,,,,,,,,,,,,,,,,,,,,,,,,,,,,,,,,,,,,,,,,,,,,,,,,,,,,,,,,,,,,,,,,,,,,,,,,,,,,,,,,,,,,,,,,,,,,,,,,,,,,,,,,,,,,,,,,,,,,,0YPYKJ,train_x,red_square,top_left,2025-05-22_15h04.18.649,HideSeek_v1,2022.2.5,59.93676671805206,
1,3,7,8,7,5,0,66,2,instr_dim1_1,,,,,,0,0,0,0,,,,,0,0,0,0,,,,,,,,,,,,,,,,,,,,,,,,,,,,,,,,,,,,,stimuli/alien_stimuli/66.png,conditions/schedules/train_x_first/red_square_00/top_left/inputInstr_1.xlsx,stimuli/alien_stimuli/66.png,229.92502219998278,229.92502219998278,229.92502219998278,229.92502219998278,229.9246117000119,return,6.691425499971956,"[-0.16, -0.08, 0, 0.08, 0.16, 0.24, 0.32, 0.4, 0.48, 0.56]","[-0.4, -0.32, -0.24, -0.16, -0.08, 0, 0.08, 0.16, 0.24, 0.32]",7,7,8,3,0.0,0.4,236.77591019996908,236.77591019996908,236.77591019996908,236.77591019996908,236.77591019996908,236.77591019996908,236.77591019996908,236.7632906999672,0.2513825000496581,return,0.09979579993523657,stimuli/alien_stimuli/66.png,66,3,1,,,,,,,,,,,,,,,,,,,,,,,,,,,,,,,,,,,,,,,,,,,,,,,,,,,,,,,,,,,,,,,,,,,,,,,,,,,,,,,,,,,,,,,,,0YPYKJ,train_x,red_square,top_left,2025-05-22_15h04.18.649,HideSeek_v1,2022.2.5,59.93676671805206,
,,,,,,,,,,,30,,,,0,0,0,0,,,,,,,,,,,,,,,,,,,,,,,,,,,,,,,,,,,,,,,,,,,,,,,,,,,,,,,,,,,,,,,,,,,,,,,,,,,,,,21,0.7,0,0,99,1,30,0,conditions/schedules/train_x_first/red_square_00/top_left/inputTrain_1.1.xlsx,99,1,1,1,0,,,,,,,,,,,,,,,,,,,,,,,,,,,,,,,,,,,,,,,,,,,,,,,,,,,,,,,,,,,,,,,,,,,,,,,,,,,0YPYKJ,train_x,red_square,top_left,2025-05-22_15h04.18.649,HideSeek_v1,2022.2.5,59.93676671805206,
,,,,,,,,,,,,,,,1,0,1,0,0,0,0,0,,,,,,,,,,,,,,,,,,,,,,,,,,,,,,,conditions/schedules/train_x_first/red_square_00/top_left/instructions/Slide13.png,conditions/schedules/train_x_first/red_square_00/top_left/instructions/Audio13.wav,237.04542390001006,237.04685990000144,12,"[10.84812530002091, 18.50339919992257, 16.479988200007938, 19.130866400082596, 5.0219909000443295, 4.803032099967822, 5.6186814999673516, 11.389776999945752, 5.640782399917953, 6.908730400027707, 9.519539700006135, 12.723474099999294]","[10.848134999978356, 18.503405799972825, 0.013843100052326918, 0.0343170000705868, 0.013816099963150918, 0.0304366999771446, 0.04697609995491803, 0.06869599991478026, 0.1194603000767529, 0.03002149995882064, 0.01386169996112585, 12.723481499939226]",1,[3.1175824999809265],[3.117589500034228],,,,,,,,,,,,,,,,,,,,,,,,,,,,,,,,,,,,,,,,,,,,,,,,,,,,,,,,,,,,,,,,,,,,,,,,,,,,,,,,,,,,,,,,,,,,,,,,,,,,,,,,,,,,,,,,,,,,,,,,,,0YPYKJ,train_x,red_square,top_left,2025-05-22_15h04.18.649,HideSeek_v1,2022.2.5,59.93676671805206,
,,,,,,,,,,,,,,,1,0,1,0,1,0,1,0,,,,,,,,,,,,,,,,,,,,,,,,,,,,,,,conditions/schedules/train_x_first/red_square_00/top_left/instructions/Slide12.png,conditions/schedules/train_x_first/red_square_00/top_left/instructions/Audio12.wav,240.21648960001767,240.21630200000945,13,"[10.84812530002091, 18.50339919992257, 16.479988200007938, 19.130866400082596, 5.0219909000443295, 4.803032099967822, 5.6186814999673516, 11.389776999945752, 5.640782399917953, 6.908730400027707, 9.519539700006135, 12.723474099999294, 12.357958199921995]","[10.848134999978356, 18.503405799972825, 0.013843100052326918, 0.0343170000705868, 0.013816099963150918, 0.0304366999771446, 0.04697609995491803, 0.06869599991478026, 0.1194603000767529, 0.03002149995882064, 0.01386169996112585, 12.723481499939226, 12.357964999973774]",1,[3.1175824999809265],[0.014195800060406327],,,,,,,,,,,,,,,,,,,,,,,,,,,,,,,,,,,,,,,,,,,,,,,,,,,,,,,,,,,,,,,,,,,,,,,,,,,,,,,,,,,,,,,,,,,,,,,,,,,,,,,,,,,,,,,,,,,,,,,,,,0YPYKJ,train_x,red_square,top_left,2025-05-22_15h04.18.649,HideSeek_v1,2022.2.5,59.93676671805206,
,,,,,,,,,,,,,,,1,0,1,0,2,0,2,0,,,,,,,,,,,,,,,,,,,,,,,,,,,,,,,conditions/schedules/train_x_first/red_square_00/top_left/instructions/Slide13.png,conditions/schedules/train_x_first/red_square_00/top_left/instructions/Audio13.wav,252.64329489995725,252.6433495999663,14,"[10.84812530002091, 18.50339919992257, 16.479988200007938, 19.130866400082596, 5.0219909000443295, 4.803032099967822, 5.6186814999673516, 11.389776999945752, 5.640782399917953, 6.908730400027707, 9.519539700006135, 12.723474099999294, 12.357958199921995, 46.18580059998203]","[10.848134999978356, 18.503405799972825, 0.013843100052326918, 0.0343170000705868, 0.013816099963150918, 0.0304366999771446, 0.04697609995491803, 0.06869599991478026, 0.1194603000767529, 0.03002149995882064, 0.01386169996112585, 12.723481499939226, 0.00024399999529123306, 46.18580849992577]",1,[3.1175824999809265],[0.014195800060406327],,,,,,,,,,,,,,,,,,,,,,,,,,,,,,,,,,,,,,,,,,,,,,,,,,,,,,,,,,,,,,,,,,,,,,,,,,,,,,,,,,,,,,,,,,,,,,,,,,,,,,,,,,,,,,,,,,,,,,,,,,0YPYKJ,train_x,red_square,top_left,2025-05-22_15h04.18.649,HideSeek_v1,2022.2.5,59.93676671805206,
,,,,,,,,,,,,,,,1,0,1,0,3,0,3,0,,,,,,,,,,,,,,,,,,,,,,,,,,,,,,,conditions/schedules/train_x_first/red_square_00/top_left/instructions/Slide14.png,conditions/schedules/train_x_first/red_square_00/top_left/instructions/Audio14.wav,298.8974552999716,298.8980273999623,15,"[10.84812530002091, 18.50339919992257, 16.479988200007938, 19.130866400082596, 5.0219909000443295, 4.803032099967822, 5.6186814999673516, 11.389776999945752, 5.640782399917953, 6.908730400027707, 9.519539700006135, 12.723474099999294, 12.357958199921995, 46.18580059998203, 13.342933499952778]","[10.848134999978356, 18.503405799972825, 0.013843100052326918, 0.0343170000705868, 0.013816099963150918, 0.0304366999771446, 0.04697609995491803, 0.06869599991478026, 0.1194603000767529, 0.03002149995882064, 0.01386169996112585, 12.723481499939226, 0.00024399999529123306, 0.00021689990535378456, 13.342940999893472]",1,[3.1175824999809265],[0.014195800060406327],,,,,,,,,,,,,,,,,,,,,,,,,,,,,,,,,,,,,,,,,,,,,,,,,,,,,,,,,,,,,,,,,,,,,,,,,,,,,,,,,,,,,,,,,,,,,,,,,,,,,,,,,,,,,,,,,,,,,,,,,,0YPYKJ,train_x,red_square,top_left,2025-05-22_15h04.18.649,HideSeek_v1,2022.2.5,59.93676671805206,
2,4,5,4,5,0,0,16,2,instr_dim1_1,,,,,,1,0,1,0,,,,,0,0,0,0,,,,,,,,,,,,,,,,,,,,,,,,,,,,,,,,,,,,,stimuli/alien_stimuli/16.png,conditions/schedules/train_x_first/red_square_00/top_left/inputInstr_1.xlsx,stimuli/alien_stimuli/16.png,312.3498084999155,312.3498084999155,312.3498084999155,312.3498084999155,312.34273429996097,return,6.968012000084855,"[-0.16, -0.08, 0, 0.08, 0.16, 0.24, 0.32, 0.4, 0.48, 0.56]","[-0.4, -0.32, -0.24, -0.16, -0.08, 0, 0.08, 0.16, 0.24, 0.32]",5,5,4,4,0.0,0.0,319.4922952000052,319.4922952000052,319.4922952000052,319.4922952000052,319.4922952000052,319.4922952000052,319.4922952000052,319.4821801000158,7.840575300040655,return,7.671584699884988,stimuli/alien_stimuli/16.png,16,4,2,,,,,,,,,,,,,,,,,,,,,,,,,,,,,,,,,,,,,,,,,,,,,,,,,,,,,,,,,,,,,,,,,,,,,,,,,,,,,,,,,,,,,,,,,0YPYKJ,train_x,red_square,top_left,2025-05-22_15h04.18.649,HideSeek_v1,2022.2.5,59.93676671805206,
,,,,,,,,,,,30,,,,1,0,1,0,,,,,,,,,,,,,,,,,,,,,,,,,,,,,,,,,,,,,,,,,,,,,,,,,,,,,,,,,,,,,,,,,,,,,,,,,,,,,,21,0.7,0,0,99,1,30,0,conditions/schedules/train_x_first/red_square_00/top_left/inputTrain_1.1.xlsx,99,1,1,1,0,,,,,,,,,,,,,,,,,,,,,,,,,,,,,,,,,,,,,,,,,,,,,,,,,,,,,,,,,,,,,,,,,,,,,,,,,,,0YPYKJ,train_x,red_square,top_left,2025-05-22_15h04.18.649,HideSeek_v1,2022.2.5,59.93676671805206,
,,,,,,,,,,,,,,,2,0,2,0,0,0,0,0,,,,,,,,,,,,,,,,,,,,,,,,,,,,,,,conditions/schedules/train_x_first/red_square_00/top_left/instructions/Slide15.png,conditions/schedules/train_x_first/red_square_00/top_left/instructions/Audio15.wav,327.32514819991775,327.3218568999669,16,"[10.84812530002091, 18.50339919992257, 16.479988200007938, 19.130866400082596, 5.0219909000443295, 4.803032099967822, 5.6186814999673516, 11.389776999945752, 5.640782399917953, 6.908730400027707, 9.519539700006135, 12.723474099999294, 12.357958199921995, 46.18580059998203, 13.342933499952778, 30.202654199907556]","[10.848134999978356, 18.503405799972825, 0.013843100052326918, 0.0343170000705868, 0.013816099963150918, 0.0304366999771446, 0.04697609995491803, 0.06869599991478026, 0.1194603000767529, 0.03002149995882064, 0.01386169996112585, 12.723481499939226, 0.00024399999529123306, 0.00021689990535378456, 13.342940999893472, 30.202661499963142]",1,[3.1175824999809265],[0.014195800060406327],,,,,,,,,,,,,,,,,,,,,,,,,,,,,,,,,,,,,,,,,,,,,,,,,,,,,,,,,,,,,,,,,,,,,,,,,,,,,,,,,,,,,,,,,,,,,,,,,,,,,,,,,,,,,,,,,,,,,,,,,,0YPYKJ,train_x,red_square,top_left,2025-05-22_15h04.18.649,HideSeek_v1,2022.2.5,59.93676671805206,
,,,,,,,,,,,,,,,2,0,2,0,1,0,1,0,,,,,,,,,,,,,,,,,,,,,,,,,,,,,,,conditions/schedules/train_x_first/red_square_00/top_left/instructions/Slide16.png,conditions/schedules/train_x_first/red_square_00/top_left/instructions/Audio16.wav,357.59272770001553,357.580303099961,17,"[10.84812530002091, 18.50339919992257, 16.479988200007938, 19.130866400082596, 5.0219909000443295, 4.803032099967822, 5.6186814999673516, 11.389776999945752, 5.640782399917953, 6.908730400027707, 9.519539700006135, 12.723474099999294, 12.357958199921995, 46.18580059998203, 13.342933499952778, 30.202654199907556, 21.419221199932508]","[10.848134999978356, 18.503405799972825, 0.013843100052326918, 0.0343170000705868, 0.013816099963150918, 0.0304366999771446, 0.04697609995491803, 0.06869599991478026, 0.1194603000767529, 0.03002149995882064, 0.01386169996112585, 12.723481499939226, 0.00024399999529123306, 0.00021689990535378456, 13.342940999893472, 0.03478799993172288, 21.419227999984287]",1,[3.1175824999809265],[0.014195800060406327],,,,,,,,,,,,,,,,,,,,,,,,,,,,,,,,,,,,,,,,,,,,,,,,,,,,,,,,,,,,,,,,,,,,,,,,,,,,,,,,,,,,,,,,,,,,,,,,,,,,,,,,,,,,,,,,,,,,,,,,,,0YPYKJ,train_x,red_square,top_left,2025-05-22_15h04.18.649,HideSeek_v1,2022.2.5,59.93676671805206,
,2,6,5,6,3,0,46,,train_dim1_1,1,30,,,,2,0,2,0,,,,,,,,,0,0,0,0,0,0,0,0,0,0,0,0,,,,,,,,,,,,,,,,,,,,,,,,,stimuli/alien_stimuli/46.png,,,,,,,,,,,,,,,,,,,,,,,,,,,,,,,,,,,,,,,30,,,,,,,,379.11264209996443,379.11264209996443,379.11264209996443,379.11264209996443,379.11264209996443,right,66.53266010002699,0,0,0,99,0.08,0.08,right,66.42741530004423,,,,,,,,,,,,,,,,,,,,,,,,,,,,,,,,,,,,,,,,,,,,,,,,,,,,,,,,,,,,0YPYKJ,train_x,red_square,top_left,2025-05-22_15h04.18.649,HideSeek_v1,2022.2.5,59.93676671805206,
,2,6,5,6,3,0,46,,train_dim1_1,1,30,,,,2,0,2,0,,,,,,,,,0,0,0,0,0,0,0,0,1,0,1,0,,,,,,,,,,,,,,,,,,,,,,,,,,,,,,,,,,,,,,,,,,,,,,,,,,,,,,,,,,,,,,,,30,,,,,,,,445.6503281999612,445.6503281999612,445.6503281999612,445.6503281999612,445.6503281999612,right,0.7931369999423623,0,0,0,99,0.16,0.08,right,0.6972547000041232,,,,,,,,,,,,,,,,,,,,,,,,,,,,,,,,,,,,,,,,,,,,,,,,,,,,,,,,,,,,0YPYKJ,train_x,red_square,top_left,2025-05-22_15h04.18.649,HideSeek_v1,2022.2.5,59.93676671805206,
,2,6,5,6,3,0,46,,train_dim1_1,1,30,,,,2,0,2,0,,,,,,,,,0,0,0,0,0,0,0,0,2,0,2,0,,,,,,,,,,,,,,,,,,,,,,,,,,,,,,,,,,,,,,,,,,,,,,,,,,,,,,,,,,,,,,,,30,,,,,,,,446.43394939997233,446.43394939997233,446.43394939997233,446.43394939997233,446.43394939997233,right,3.062359100091271,0,0,0,99,0.24,0.08,right,2.984343699994497,,,,,,,,,,,,,,,,,,,,,,,,,,,,,,,,,,,,,,,,,,,,,,,,,,,,,,,,,,,,0YPYKJ,train_x,red_square,top_left,2025-05-22_15h04.18.649,HideSeek_v1,2022.2.5,59.93676671805206,
,2,6,5,6,3,0,46,,train_dim1_1,1,30,,,,2,0,2,0,,,,,,,,,0,0,0,0,0,0,0,0,3,0,3,0,,,,,,,,,,,,,,,,,,,,,,,,,,,,,,,,,,,,,,,,,,,,,,,,,,,,,,,,,,,,,,,,30,,,,,,,,449.5051734999288,449.5051734999288,449.5051734999288,449.5051734999288,449.5051734999288,return,9.933017099974677,1,0,0,1,0.24,0.08,return,9.86045669997111,0,3,0.24,0.08,,,,,,,,,,,,,,,,,,,,,,,,,,,,,,,,,,,,,,,,,,,,,,,,,,,,,,,,0YPYKJ,train_x,red_square,top_left,2025-05-22_15h04.18.649,HideSeek_v1,2022.2.5,59.93676671805206,
,2,9,2,9,0,0,16,,train_dim1_1,2,30,,,,2,0,2,0,,,,,,,,,0,0,0,0,0,1,1,1,0,0,0,0,,,,,,,,,,,,,,,,,,,,,,,,,stimuli/alien_stimuli/16.png,,,,,,,,,,,,,,,,,,,,,,,,,,,,,stimuli/alien_stimuli/46.png,46,2,3,,,,,,,30,,,,,,,,503.02390099992044,503.02390099992044,503.02390099992044,503.02390099992044,503.02390099992044,down,3.6896339000668377,1,0,0,99,0,0.24,down,3.590141399996355,,,,,501.44952469994314,503.02390099992044,0.24,0.08,0.0,0.24,0.08,0.24,0.12,0.24,0.08,461.0206209999742,461.0206209999742,461.0206209999742,461.0206209999742,461.0206209999742,461.0206209999742,461.0206209999742,461.0206209999742,461.0162523000501,40.55197480006609,return,40.39683500002138,,,,,,,,,,,,,,,,,,,,,,,,,,,,,,,,,0YPYKJ,train_x,red_square,top_left,2025-05-22_15h04.18.649,HideSeek_v1,2022.2.5,59.93676671805206,
,2,9,2,9,0,0,16,,train_dim1_1,2,30,,,,2,0,2,0,,,,,,,,,0,0,0,0,0,1,1,1,1,0,1,0,,,,,,,,,,,,,,,,,,,,,,,,,,,,,,,,,,,,,,,,,,,,,,,,,,,,,,,,,,,,,,,,30,,,,,,,,506.705083000008,506.705083000008,506.705083000008,506.705083000008,506.705083000008,up,1.0599176000105217,1,0,0,99,0,0.32,up,0.9784426999976858,,,,,,,,,,,,,,,,,,,,,,,,,,,,,,,,,,,,,,,,,,,,,,,,,,,,,,,,,,,,0YPYKJ,train_x,red_square,top_left,2025-05-22_15h04.18.649,HideSeek_v1,2022.2.5,59.93676671805206,
,2,9,2,9,0,0,16,,train_dim1_1,2,30,,,,2,0,2,0,,,,,,,,,0,0,0,0,0,1,1,1,2,0,2,0,,,,,,,,,,,,,,,,,,,,,,,,,,,,,,,,,,,,,,,,,,,,,,,,,,,,,,,,,,,,,,,,30,,,,,,,,507.7719600999262,507.7719600999262,507.7719600999262,507.7719600999262,507.7719600999262,return,0.9939375999383628,2,0,0,1,0,0.32,return,0.913159399991855,0,3,0,0.32,,,,,,,,,,,,,,,,,,,,,,,,,,,,,,,,,,,,,,,,,,,,,,,,,,,,,,,,0YPYKJ,train_x,red_square,top_left,2025-05-22_15h04.18.649,HideSeek_v1,2022.2.5,59.93676671805206,
,4,9,5,9,1,0,26,,train_dim1_1,3,30,,,,2,0,2,0,,,,,,,,,0,0,0,0,0,2,2,2,0,0,0,0,,,,,,,,,,,,,,,,,,,,,,,,,stimuli/alien_stimuli/26.png,,,,,,,,,,,,,,,,,,,,,,,,,,,,,stimuli/alien_stimuli/16.png,16,2,4,,,,,,,30,,,,,,,,516.1925625000149,516.1925625000149,516.1925625000149,516.1925625000149,516.1925625000149,down,2.6567010999424383,2,0,0,99,0.16,0.24,down,2.56069309997838,,,,,514.627324400004,516.1925625000149,0,0.32,0.0,0.0,0.32,0,0.0,0,0.32,510.350646100007,510.350646100007,510.350646100007,510.350646100007,510.350646100007,510.350646100007,510.350646100007,510.350646100007,510.34035220001823,4.4058326000813395,return,4.251237699994817,,,,,,,,,,,,,,,,,,,,,,,,,,,,,,,,,0YPYKJ,train_x,red_square,top_left,2025-05-22_15h04.18.649,HideSeek_v1,2022.2.5,59.93676671805206,
,4,9,5,9,1,0,26,,train_dim1_1,3,30,,,,2,0,2,0,,,,,,,,,0,0,0,0,0,2,2,2,1,0,1,0,,,,,,,,,,,,,,,,,,,,,,,,,,,,,,,,,,,,,,,,,,,,,,,,,,,,,,,,,,,,,,,,30,,,,,,,,518.8576936000027,518.8576936000027,518.8576936000027,518.8576936000027,518.8576936000027,up,0.604730200022459,2,0,0,99,0.16,0.32,up,0.5143634000560269,,,,,,,,,,,,,,,,,,,,,,,,,,,,,,,,,,,,,,,,,,,,,,,,,,,,,,,,,,,,0YPYKJ,train_x,red_square,top_left,2025-05-22_15h04.18.649,HideSeek_v1,2022.2.5,59.93676671805206,
,4,9,5,9,1,0,26,,train_dim1_1,3,30,,,,2,0,2,0,,,,,,,,,0,0,0,0,0,2,2,2,2,0,2,0,,,,,,,,,,,,,,,,,,,,,,,,,,,,,,,,,,,,,,,,,,,,,,,,,,,,,,,,,,,,,,,,30,,,,,,,,519.4666781999404,519.4666781999404,519.4666781999404,519.4666781999404,519.4666781999404,return,0.8433541000122204,2,1,0,0,0.16,0.32,return,0.7507284000748768,0,3,0.16,0.32,,,,,,,,,,,,,,,,,,,,,,,,,,,,,,,,,,,,,,,,,,,,,,,,,,,,,,,,0YPYKJ,train_x,red_square,top_left,2025-05-22_15h04.18.649,HideSeek_v1,2022.2.5,59.93676671805206,
,2,8,6,8,4,0,56,,train_dim1_1,4,30,,,,2,0,2,0,,,,,,,,,0,0,0,0,0,3,3,3,0,0,0,0,,,,,,,,,,,,,,,,,,,,,,,,,stimuli/alien_stimuli/56.png,,,,,,,,,,,,,,,,,,,,,,,,,,,,,stimuli/alien_stimuli/26.png,26,4,5,,,,,,,30,,,,,,,,546.1178293999983,546.1178293999983,546.1178293999983,546.1178293999983,546.1178293999983,right,2.5554196999873966,2,1,0,99,0.08,0.24,right,2.4500549000222236,,,,,544.5352836999809,546.1178293999983,0.24,0.32,0.0,0.08,0.32,0.24,0.2,0.24,0.32,521.8905985999154,521.8905985999154,521.8905985999154,521.8905985999154,521.8905985999154,521.8905985999154,521.8905985999154,521.8905985999154,521.8831239999737,22.771256100037135,return,22.61230170005001,,,,,,,,,,,,,,,,,,,,,,,,,,,,,,,,,0YPYKJ,train_x,red_square,top_left,2025-05-22_15h04.18.649,HideSeek_v1,2022.2.5,59.93676671805206,
,2,8,6,8,4,0,56,,train_dim1_1,4,30,,,,2,0,2,0,,,,,,,,,0,0,0,0,0,3,3,3,1,0,1,0,,,,,,,,,,,,,,,,,,,,,,,,,,,,,,,,,,,,,,,,,,,,,,,,,,,,,,,,,,,,,,,,30,,,,,,,,548.6605817999225,548.6605817999225,548.6605817999225,548.6605817999225,548.6605817999225,right,0.47158719995059073,2,1,0,99,0.16,0.24,right,0.3835290001006797,,,,,,,,,,,,,,,,,,,,,,,,,,,,,,,,,,,,,,,,,,,,,,,,,,,,,,,,,,,,0YPYKJ,train_x,red_square,top_left,2025-05-22_15h04.18.649,HideSeek_v1,2022.2.5,59.93676671805206,
,2,8,6,8,4,0,56,,train_dim1_1,4,30,,,,2,0,2,0,,,,,,,,,0,0,0,0,0,3,3,3,2,0,2,0,,,,,,,,,,,,,,,,,,,,,,,,,,,,,,,,,,,,,,,,,,,,,,,,,,,,,,,,,,,,,,,,30,,,,,,,,549.1382242999971,549.1382242999971,549.1382242999971,549.1382242999971,549.1382242999971,right,0.7599800999742001,2,1,0,99,0.24,0.24,right,0.6786932999966666,,,,,,,,,,,,,,,,,,,,,,,,,,,,,,,,,,,,,,,,,,,,,,,,,,,,,,,,,,,,0YPYKJ,train_x,red_square,top_left,2025-05-22_15h04.18.649,HideSeek_v1,2022.2.5,59.93676671805206,
,2,8,6,8,4,0,56,,train_dim1_1,4,30,,,,2,0,2,0,,,,,,,,,0,0,0,0,0,3,3,3,3,0,3,0,,,,,,,,,,,,,,,,,,,,,,,,,,,,,,,,,,,,,,,,,,,,,,,,,,,,,,,,,,,,,,,,30,,,,,,,,549.9049458999652,549.9049458999652,549.9049458999652,549.9049458999652,549.9049458999652,right,1.5610101000638679,2,1,0,99,0.32,0.24,right,1.482435500016436,,,,,,,,,,,,,,,,,,,,,,,,,,,,,,,,,,,,,,,,,,,,,,,,,,,,,,,,,,,,0YPYKJ,train_x,red_square,top_left,2025-05-22_15h04.18.649,HideSeek_v1,2022.2.5,59.93676671805206,
,2,8,6,8,4,0,56,,train_dim1_1,4,30,,,,2,0,2,0,,,,,,,,,0,0,0,0,0,3,3,3,4,0,4,0,,,,,,,,,,,,,,,,,,,,,,,,,,,,,,,,,,,,,,,,,,,,,,,,,,,,,,,,,,,,,,,,30,,,,,,,,551.4735232999083,551.4735232999083,551.4735232999083,551.4735232999083,551.4735232999083,return,1.7101163000334054,3,0,0,1,0.32,0.24,return,1.626807399909012,0,7,0.32,0.24,,,,,,,,,,,,,,,,,,,,,,,,,,,,,,,,,,,,,,,,,,,,,,,,,,,,,,,,0YPYKJ,train_x,red_square,top_left,2025-05-22_15h04.18.649,HideSeek_v1,2022.2.5,59.93676671805206,
,0,7,5,7,5,0,66,,train_dim1_1,5,30,,,,2,0,2,0,,,,,,,,,0,0,0,0,0,4,4,4,0,0,0,0,,,,,,,,,,,,,,,,,,,,,,,,,stimuli/alien_stimuli/66.png,,,,,,,,,,,,,,,,,,,,,,,,,,,,,stimuli/alien_stimuli/56.png,56,2,6,,,,,,,30,,,,,,,,559.326064899913,559.326064899913,559.326064899913,559.326064899913,559.326064899913,right,3.954982400056906,3,0,0,99,-0.08,0.16,right,3.870409599971026,,,,,557.7629644999979,559.326064899913,0.32,0.24,0.0,0.32,0.24,0.32,0.16,0.32,0.24,554.7620162999956,554.7620162999956,554.7620162999956,554.7620162999956,554.7620162999956,554.7620162999956,554.7620162999956,554.7620162999956,554.7437189000309,3.1213740999810398,return,2.9739206000231206,,,,,,,,,,,,,,,,,,,,,,,,,,,,,,,,,0YPYKJ,train_x,red_square,top_left,2025-05-22_15h04.18.649,HideSeek_v1,2022.2.5,59.93676671805206,
,0,7,5,7,5,0,66,,train_dim1_1,5,30,,,,2,0,2,0,,,,,,,,,0,0,0,0,0,4,4,4,1,0,1,0,,,,,,,,,,,,,,,,,,,,,,,,,,,,,,,,,,,,,,,,,,,,,,,,,,,,,,,,,,,,,,,,30,,,,,,,,563.280809000018,563.280809000018,563.280809000018,563.280809000018,563.280809000018,right,0.609519400051795,3,0,0,99,0.0,0.16,right,0.5300540999742225,,,,,,,,,,,,,,,,,,,,,,,,,,,,,,,,,,,,,,,,,,,,,,,,,,,,,,,,,,,,0YPYKJ,train_x,red_square,top_left,2025-05-22_15h04.18.649,HideSeek_v1,2022.2.5,59.93676671805206,
,0,7,5,7,5,0,66,,train_dim1_1,5,30,,,,2,0,2,0,,,,,,,,,0,0,0,0,0,4,4,4,2,0,2,0,,,,,,,,,,,,,,,,,,,,,,,,,,,,,,,,,,,,,,,,,,,,,,,,,,,,,,,,,,,,,,,,30,,,,,,,,563.897120699985,563.897120699985,563.897120699985,563.897120699985,563.897120699985,right,0.8103537000715733,3,0,0,99,0.08,0.16,right,0.7373991999775171,,,,,,,,,,,,,,,,,,,,,,,,,,,,,,,,,,,,,,,,,,,,,,,,,,,,,,,,,,,,0YPYKJ,train_x,red_square,top_left,2025-05-22_15h04.18.649,HideSeek_v1,2022.2.5,59.93676671805206,
,0,7,5,7,5,0,66,,train_dim1_1,5,30,,,,2,0,2,0,,,,,,,,,0,0,0,0,0,4,4,4,3,0,3,0,,,,,,,,,,,,,,,,,,,,,,,,,,,,,,,,,,,,,,,,,,,,,,,,,,,,,,,,,,,,,,,,30,,,,,,,,564.7142655999633,564.7142655999633,564.7142655999633,564.7142655999633,564.7142655999633,right,4.01309740007855,3,0,0,99,0.16,0.16,right,3.9322759000351653,,,,,,,,,,,,,,,,,,,,,,,,,,,,,,,,,,,,,,,,,,,,,,,,,,,,,,,,,,,,0YPYKJ,train_x,red_square,top_left,2025-05-22_15h04.18.649,HideSeek_v1,2022.2.5,59.93676671805206,
,0,7,5,7,5,0,66,,train_dim1_1,5,30,,,,2,0,2,0,,,,,,,,,0,0,0,0,0,4,4,4,4,0,4,0,,,,,,,,,,,,,,,,,,,,,,,,,,,,,,,,,,,,,,,,,,,,,,,,,,,,,,,,,,,,,,,,30,,,,,,,,568.7345828999532,568.7345828999532,568.7345828999532,568.7345828999532,568.7345828999532,return,3.0121394000016153,3,1,0,0,0.16,0.16,return,2.929567900020629,0,11,0.16,0.16,,,,,,,,,,,,,,,,,,,,,,,,,,,,,,,,,,,,,,,,,,,,,,,,,,,,,,,,0YPYKJ,train_x,red_square,top_left,2025-05-22_15h04.18.649,HideSeek_v1,2022.2.5,59.93676671805206,
,0,5,1,5,1,0,26,,train_dim1_1,6,30,,,,2,0,2,0,,,,,,,,,0,0,0,0,0,5,5,5,0,0,0,0,,,,,,,,,,,,,,,,,,,,,,,,,stimuli/alien_stimuli/26.png,,,,,,,,,,,,,,,,,,,,,,,,,,,,,stimuli/alien_stimuli/66.png,66,0,7,,,,,,,30,,,,,,,,577.8284789000172,577.8284789000172,577.8284789000172,577.8284789000172,577.8284789000172,right,3.6398517000488937,3,1,0,99,-0.08,0,right,3.539377599954605,,,,,576.2616125999484,577.8284789000172,0.24,0.16,0.0,0.4,0.16,0.24,0.039999999999999994,0.24,0.16,573.3396566999145,573.3396566999145,573.3396566999145,573.3396566999145,573.3396566999145,573.3396566999145,573.3396566999145,573.3396566999145,573.3258724000071,3.0545232000295073,return,2.9052654000697657,,,,,,,,,,,,,,,,,,,,,,,,,,,,,,,,,0YPYKJ,train_x,red_square,top_left,2025-05-22_15h04.18.649,HideSeek_v1,2022.2.5,59.93676671805206,
,0,5,1,5,1,0,26,,train_dim1_1,6,30,,,,2,0,2,0,,,,,,,,,0,0,0,0,0,5,5,5,1,0,1,0,,,,,,,,,,,,,,,,,,,,,,,,,,,,,,,,,,,,,,,,,,,,,,,,,,,,,,,,,,,,,,,,30,,,,,,,,581.4662122000009,581.4662122000009,581.4662122000009,581.4662122000009,581.4662122000009,left,0.7431235999101773,3,1,0,99,-0.16,0,left,0.6666675999294966,,,,,,,,,,,,,,,,,,,,,,,,,,,,,,,,,,,,,,,,,,,,,,,,,,,,,,,,,,,,0YPYKJ,train_x,red_square,top_left,2025-05-22_15h04.18.649,HideSeek_v1,2022.2.5,59.93676671805206,
,0,5,1,5,1,0,26,,train_dim1_1,6,30,,,,2,0,2,0,,,,,,,,,0,0,0,0,0,5,5,5,2,0,2,0,,,,,,,,,,,,,,,,,,,,,,,,,,,,,,,,,,,,,,,,,,,,,,,,,,,,,,,,,,,,,,,,30,,,,,,,,582.2166664999677,582.2166664999677,582.2166664999677,582.2166664999677,582.2166664999677,return,0.6437999000772834,3,1,0,0,-0.16,0,return,0.5665837000124156,0,11,-0.16,0,,,,,,,,,,,,,,,,,,,,,,,,,,,,,,,,,,,,,,,,,,,,,,,,,,,,,,,,0YPYKJ,train_x,red_square,top_left,2025-05-22_15h04.18.649,HideSeek_v1,2022.2.5,59.93676671805206,
,3,5,8,5,5,0,66,,train_dim1_1,7,30,,,,2,0,2,0,,,,,,,,,0,0,0,0,0,6,6,6,0,0,0,0,,,,,,,,,,,,,,,,,,,,,,,,,stimuli/alien_stimuli/66.png,,,,,,,,,,,,,,,,,,,,,,,,,,,,,stimuli/alien_stimuli/26.png,26,0,8,,,,,,,30,,,,,,,,590.6160795999458,590.6160795999458,590.6160795999458,590.6160795999458,590.6160795999458,right,1.688399099977687,3,1,0,99,0.16,0,right,1.6021046000532806,,,,,589.0555629999144,590.6160795999458,-0.08,0,0.0,0.08,0.0,-0.08,-0.12,-0.08,0,584.4426066000015,584.4426066000015,584.4426066000015,584.4426066000015,584.4426066000015,584.4426066000015,584.4426066000015,584.4426066000015,584.4350447999778,4.739561200025491,return,4.595968500012532,,,,,,,,,,,,,,,,,,,,,,,,,,,,,,,,,0YPYKJ,train_x,red_square,top_left,2025-05-22_15h04.18.649,HideSeek_v1,2022.2.5,59.93676671805206,
,3,5,8,5,5,0,66,,train_dim1_1,7,30,,,,2,0,2,0,,,,,,,,,0,0,0,0,0,6,6,6,1,0,1,0,,,,,,,,,,,,,,,,,,,,,,,,,,,,,,,,,,,,,,,,,,,,,,,,,,,,,,,,,,,,,,,,30,,,,,,,,592.3088687999407,592.3088687999407,592.3088687999407,592.3088687999407,592.3088687999407,right,1.9411557000130415,3,1,0,99,0.24,0,right,1.862639700062573,,,,,,,,,,,,,,,,,,,,,,,,,,,,,,,,,,,,,,,,,,,,,,,,,,,,,,,,,,,,0YPYKJ,train_x,red_square,top_left,2025-05-22_15h04.18.649,HideSeek_v1,2022.2.5,59.93676671805206,
,3,5,8,5,5,0,66,,train_dim1_1,7,30,,,,2,0,2,0,,,,,,,,,0,0,0,0,0,6,6,6,2,0,2,0,,,,,,,,,,,,,,,,,,,,,,,,,,,,,,,,,,,,,,,,,,,,,,,,,,,,,,,,,,,,,,,,30,,,,,,,,594.2560416000197,594.2560416000197,594.2560416000197,594.2560416000197,594.2560416000197,right,0.6603238000534475,3,1,0,99,0.32,0,right,0.5720062999753281,,,,,,,,,,,,,,,,,,,,,,,,,,,,,,,,,,,,,,,,,,,,,,,,,,,,,,,,,,,,0YPYKJ,train_x,red_square,top_left,2025-05-22_15h04.18.649,HideSeek_v1,2022.2.5,59.93676671805206,
,3,5,8,5,5,0,66,,train_dim1_1,7,30,,,,2,0,2,0,,,,,,,,,0,0,0,0,0,6,6,6,3,0,3,0,,,,,,,,,,,,,,,,,,,,,,,,,,,,,,,,,,,,,,,,,,,,,,,,,,,,,,,,,,,,,,,,30,,,,,,,,594.9230167999631,594.9230167999631,594.9230167999631,594.9230167999631,594.9230167999631,right,0.6599963000044227,3,1,0,99,0.4,0,right,0.5730807000072673,,,,,,,,,,,,,,,,,,,,,,,,,,,,,,,,,,,,,,,,,,,,,,,,,,,,,,,,,,,,0YPYKJ,train_x,red_square,top_left,2025-05-22_15h04.18.649,HideSeek_v1,2022.2.5,59.93676671805206,
,3,5,8,5,5,0,66,,train_dim1_1,7,30,,,,2,0,2,0,,,,,,,,,0,0,0,0,0,6,6,6,4,0,4,0,,,,,,,,,,,,,,,,,,,,,,,,,,,,,,,,,,,,,,,,,,,,,,,,,,,,,,,,,,,,,,,,30,,,,,,,,595.5902197000105,595.5902197000105,595.5902197000105,595.5902197000105,595.5902197000105,right,0.6102354000322521,3,1,0,99,0.48000000000000004,0,right,0.5367571999086067,,,,,,,,,,,,,,,,,,,,,,,,,,,,,,,,,,,,,,,,,,,,,,,,,,,,,,,,,,,,0YPYKJ,train_x,red_square,top_left,2025-05-22_15h04.18.649,HideSeek_v1,2022.2.5,59.93676671805206,
,3,5,8,5,5,0,66,,train_dim1_1,7,30,,,,2,0,2,0,,,,,,,,,0,0,0,0,0,6,6,6,5,0,5,0,,,,,,,,,,,,,,,,,,,,,,,,,,,,,,,,,,,,,,,,,,,,,,,,,,,,,,,,,,,,,,,,30,,,,,,,,596.209581199917,596.209581199917,596.209581199917,596.209581199917,596.209581199917,return,0.5601735000964254,4,0,0,1,0.48000000000000004,0,return,0.474484600010328,0,16,0.48000000000000004,0,,,,,,,,,,,,,,,,,,,,,,,,,,,,,,,,,,,,,,,,,,,,,,,,,,,,,,,,0YPYKJ,train_x,red_square,top_left,2025-05-22_15h04.18.649,HideSeek_v1,2022.2.5,59.93676671805206,
,0,9,3,9,3,0,46,,train_dim1_1,8,30,,,,2,0,2,0,,,,,,,,,0,0,0,0,0,7,7,7,0,0,0,0,,,,,,,,,,,,,,,,,,,,,,,,,stimuli/alien_stimuli/46.png,,,,,,,,,,,,,,,,,,,,,,,,,,,,,stimuli/alien_stimuli/66.png,66,3,9,,,,,,,30,,,,,,,,602.2200395999243,602.2200395999243,602.2200395999243,602.2200395999243,602.2200395999243,right,6.874513900023885,4,0,0,99,-0.08,0.32,right,6.772460400010459,,,,,600.6484384000069,602.2200395999243,0.48,0,0.0,0.4,0.0,0.48,0.27999999999999997,0.48,0,598.3436626999173,598.3436626999173,598.3436626999173,598.3436626999173,598.3436626999173,598.3436626999173,598.3436626999173,598.3436626999173,598.3298950999858,2.4208740999456495,return,2.276255500037223,,,,,,,,,,,,,,,,,,,,,,,,,,,,,,,,,0YPYKJ,train_x,red_square,top_left,2025-05-22_15h04.18.649,HideSeek_v1,2022.2.5,59.93676671805206,
,0,9,3,9,3,0,46,,train_dim1_1,8,30,,,,2,0,2,0,,,,,,,,,0,0,0,0,0,7,7,7,1,0,1,0,,,,,,,,,,,,,,,,,,,,,,,,,,,,,,,,,,,,,,,,,,,,,,,,,,,,,,,,,,,,,,,,30,,,,,,,,609.0871006000089,609.0871006000089,609.0871006000089,609.0871006000089,609.0871006000089,right,1.6941087000304833,4,0,0,99,0.0,0.32,right,1.6207449999637902,,,,,,,,,,,,,,,,,,,,,,,,,,,,,,,,,,,,,,,,,,,,,,,,,,,,,,,,,,,,0YPYKJ,train_x,red_square,top_left,2025-05-22_15h04.18.649,HideSeek_v1,2022.2.5,59.93676671805206,
,0,9,3,9,3,0,46,,train_dim1_1,8,30,,,,2,0,2,0,,,,,,,,,0,0,0,0,0,7,7,7,2,0,2,0,,,,,,,,,,,,,,,,,,,,,,,,,,,,,,,,,,,,,,,,,,,,,,,,,,,,,,,,,,,,,,,,30,,,,,,,,610.7867587999208,610.7867587999208,610.7867587999208,610.7867587999208,610.7867587999208,right,0.827571599977091,4,0,0,99,0.08,0.32,right,0.7437193000223488,,,,,,,,,,,,,,,,,,,,,,,,,,,,,,,,,,,,,,,,,,,,,,,,,,,,,,,,,,,,0YPYKJ,train_x,red_square,top_left,2025-05-22_15h04.18.649,HideSeek_v1,2022.2.5,59.93676671805206,
,0,9,3,9,3,0,46,,train_dim1_1,8,30,,,,2,0,2,0,,,,,,,,,0,0,0,0,0,7,7,7,3,0,3,0,,,,,,,,,,,,,,,,,,,,,,,,,,,,,,,,,,,,,,,,,,,,,,,,,,,,,,,,,,,,,,,,30,,,,,,,,611.620900799986,611.620900799986,611.620900799986,611.620900799986,611.620900799986,return,2.3777606999501586,5,0,0,1,0.08,0.32,return,2.292220800067298,0,19,0.08,0.32,,,,,,,,,,,,,,,,,,,,,,,,,,,,,,,,,,,,,,,,,,,,,,,,,,,,,,,,0YPYKJ,train_x,red_square,top_left,2025-05-22_15h04.18.649,HideSeek_v1,2022.2.5,59.93676671805206,
,1,5,5,5,4,0,56,,train_dim1_1,9,30,,,,2,0,2,0,,,,,,,,,0,0,0,0,0,8,8,8,0,0,0,0,,,,,,,,,,,,,,,,,,,,,,,,,stimuli/alien_stimuli/56.png,,,,,,,,,,,,,,,,,,,,,,,,,,,,,stimuli/alien_stimuli/46.png,46,0,10,,,,,,,30,,,,,,,,618.1008967999369,618.1008967999369,618.1008967999369,618.1008967999369,618.1008967999369,right,6.12471980007831,5,0,0,99,0.0,0,right,6.02324020001106,,,,,616.5285239999648,618.1008967999369,0.08,0.32,0.0,0.24,0.32,0.08,-0.04,0.08,0.32,615.5810612000059,615.5810612000059,615.5810612000059,615.5810612000059,615.5810612000059,615.5810612000059,615.5810612000059,615.5810612000059,615.5607457000413,1.0701213999418542,return,0.9179073999403045,,,,,,,,,,,,,,,,,,,,,,,,,,,,,,,,,0YPYKJ,train_x,red_square,top_left,2025-05-22_15h04.18.649,HideSeek_v1,2022.2.5,59.93676671805206,
,1,5,5,5,4,0,56,,train_dim1_1,9,30,,,,2,0,2,0,,,,,,,,,0,0,0,0,0,8,8,8,1,0,1,0,,,,,,,,,,,,,,,,,,,,,,,,,,,,,,,,,,,,,,,,,,,,,,,,,,,,,,,,,,,,,,,,30,,,,,,,,624.2183787999675,624.2183787999675,624.2183787999675,624.2183787999675,624.2183787999675,right,0.4758530999533832,5,0,0,99,0.08,0,right,0.39269280002918094,,,,,,,,,,,,,,,,,,,,,,,,,,,,,,,,,,,,,,,,,,,,,,,,,,,,,,,,,,,,0YPYKJ,train_x,red_square,top_left,2025-05-22_15h04.18.649,HideSeek_v1,2022.2.5,59.93676671805206,
,1,5,5,5,4,0,56,,train_dim1_1,9,30,,,,2,0,2,0,,,,,,,,,0,0,0,0,0,8,8,8,2,0,2,0,,,,,,,,,,,,,,,,,,,,,,,,,,,,,,,,,,,,,,,,,,,,,,,,,,,,,,,,,,,,,,,,30,,,,,,,,624.6999139999971,624.6999139999971,624.6999139999971,624.6999139999971,624.6999139999971,right,0.526789200026542,5,0,0,99,0.16,0,right,0.44535300007555634,,,,,,,,,,,,,,,,,,,,,,,,,,,,,,,,,,,,,,,,,,,,,,,,,,,,,,,,,,,,0YPYKJ,train_x,red_square,top_left,2025-05-22_15h04.18.649,HideSeek_v1,2022.2.5,59.93676671805206,
,1,5,5,5,4,0,56,,train_dim1_1,9,30,,,,2,0,2,0,,,,,,,,,0,0,0,0,0,8,8,8,3,0,3,0,,,,,,,,,,,,,,,,,,,,,,,,,,,,,,,,,,,,,,,,,,,,,,,,,,,,,,,,,,,,,,,,30,,,,,,,,625.235018700012,625.235018700012,625.235018700012,625.235018700012,625.235018700012,right,0.742784500005655,5,0,0,99,0.24,0,right,0.6628771999385208,,,,,,,,,,,,,,,,,,,,,,,,,,,,,,,,,,,,,,,,,,,,,,,,,,,,,,,,,,,,0YPYKJ,train_x,red_square,top_left,2025-05-22_15h04.18.649,HideSeek_v1,2022.2.5,59.93676671805206,
,1,5,5,5,4,0,56,,train_dim1_1,9,30,,,,2,0,2,0,,,,,,,,,0,0,0,0,0,8,8,8,4,0,4,0,,,,,,,,,,,,,,,,,,,,,,,,,,,,,,,,,,,,,,,,,,,,,,,,,,,,,,,,,,,,,,,,30,,,,,,,,625.9838053999702,625.9838053999702,625.9838053999702,625.9838053999702,625.9838053999702,return,0.46029239997733384,6,0,0,1,0.24,0,return,0.38535969995427877,0,23,0.24,0,,,,,,,,,,,,,,,,,,,,,,,,,,,,,,,,,,,,,,,,,,,,,,,,,,,,,,,,0YPYKJ,train_x,red_square,top_left,2025-05-22_15h04.18.649,HideSeek_v1,2022.2.5,59.93676671805206,
,0,8,0,8,0,0,16,,train_dim1_1,10,30,,,,2,0,2,0,,,,,,,,,0,0,0,0,0,9,9,9,0,0,0,0,,,,,,,,,,,,,,,,,,,,,,,,,stimuli/alien_stimuli/16.png,,,,,,,,,,,,,,,,,,,,,,,,,,,,,stimuli/alien_stimuli/56.png,56,1,11,,,,,,,30,,,,,,,,630.0463740999112,630.0463740999112,630.0463740999112,630.0463740999112,630.0463740999112,right,2.4573321999050677,6,0,0,99,-0.08,0.24,right,2.357601399999112,,,,,628.4717561999569,630.0463740999112,0.24,0,0.0,0.32,0.0,0.24,0.07999999999999999,0.24,0,628.0053757999558,628.0053757999558,628.0053757999558,628.0053757999558,628.0053757999558,628.0053757999558,628.0053757999558,628.0053757999558,627.9877782000461,0.5705237999791279,return,0.4452371000079438,,,,,,,,,,,,,,,,,,,,,,,,,,,,,,,,,0YPYKJ,train_x,red_square,top_left,2025-05-22_15h04.18.649,HideSeek_v1,2022.2.5,59.93676671805206,
,0,8,0,8,0,0,16,,train_dim1_1,10,30,,,,2,0,2,0,,,,,,,,,0,0,0,0,0,9,9,9,1,0,1,0,,,,,,,,,,,,,,,,,,,,,,,,,,,,,,,,,,,,,,,,,,,,,,,,,,,,,,,,,,,,,,,,30,,,,,,,,632.4927447999362,632.4927447999362,632.4927447999362,632.4927447999362,632.4927447999362,left,0.39280279993545264,6,0,0,99,-0.16,0.24,left,0.31264709995593876,,,,,,,,,,,,,,,,,,,,,,,,,,,,,,,,,,,,,,,,,,,,,,,,,,,,,,,,,,,,0YPYKJ,train_x,red_square,top_left,2025-05-22_15h04.18.649,HideSeek_v1,2022.2.5,59.93676671805206,
,0,8,0,8,0,0,16,,train_dim1_1,10,30,,,,2,0,2,0,,,,,,,,,0,0,0,0,0,9,9,9,2,0,2,0,,,,,,,,,,,,,,,,,,,,,,,,,,,,,,,,,,,,,,,,,,,,,,,,,,,,,,,,,,,,,,,,30,,,,,,,,632.89241640002,632.89241640002,632.89241640002,632.89241640002,632.89241640002,return,0.46001790009904653,7,0,0,1,-0.16,0.24,return,0.37572460004594177,0,23,-0.16,0.24,,,,,,,,,,,,,,,,,,,,,,,,,,,,,,,,,,,,,,,,,,,,,,,,,,,,,,,,0YPYKJ,train_x,red_square,top_left,2025-05-22_15h04.18.649,HideSeek_v1,2022.2.5,59.93676671805206,
,2,7,5,7,3,0,46,,train_dim1_1,11,30,,,,2,0,2,0,,,,,,,,,0,0,0,0,0,10,10,10,0,0,0,0,,,,,,,,,,,,,,,,,,,,,,,,,stimuli/alien_stimuli/46.png,,,,,,,,,,,,,,,,,,,,,,,,,,,,,stimuli/alien_stimuli/16.png,16,0,12,,,,,,,30,,,,,,,,638.0891062999144,638.0891062999144,638.0891062999144,638.0891062999144,638.0891062999144,right,1.9227492000209168,7,0,0,99,0.08,0.16,right,1.8378663000185043,,,,,636.5282902999315,638.0891062999144,-0.16,0.24,0.0,0.0,0.24,-0.16,-0.16,-0.16,0.24,634.9204569999129,634.9204569999129,634.9204569999129,634.9204569999129,634.9204569999129,634.9204569999129,634.9204569999129,634.9204569999129,634.9104207999887,1.7200265999417752,return,1.581956500071101,,,,,,,,,,,,,,,,,,,,,,,,,,,,,,,,,0YPYKJ,train_x,red_square,top_left,2025-05-22_15h04.18.649,HideSeek_v1,2022.2.5,59.93676671805206,
,2,7,5,7,3,0,46,,train_dim1_1,11,30,,,,2,0,2,0,,,,,,,,,0,0,0,0,0,10,10,10,1,0,1,0,,,,,,,,,,,,,,,,,,,,,,,,,,,,,,,,,,,,,,,,,,,,,,,,,,,,,,,,,,,,,,,,30,,,,,,,,640.0112373000011,640.0112373000011,640.0112373000011,640.0112373000011,640.0112373000011,right,2.244315000018105,7,0,0,99,0.16,0.16,right,2.163374700001441,,,,,,,,,,,,,,,,,,,,,,,,,,,,,,,,,,,,,,,,,,,,,,,,,,,,,,,,,,,,0YPYKJ,train_x,red_square,top_left,2025-05-22_15h04.18.649,HideSeek_v1,2022.2.5,59.93676671805206,
,2,7,5,7,3,0,46,,train_dim1_1,11,30,,,,2,0,2,0,,,,,,,,,0,0,0,0,0,10,10,10,2,0,2,0,,,,,,,,,,,,,,,,,,,,,,,,,,,,,,,,,,,,,,,,,,,,,,,,,,,,,,,,,,,,,,,,30,,,,,,,,642.2621422999073,642.2621422999073,642.2621422999073,642.2621422999073,642.2621422999073,right,1.3108112999470904,7,0,0,99,0.24,0.16,right,1.2289956000167876,,,,,,,,,,,,,,,,,,,,,,,,,,,,,,,,,,,,,,,,,,,,,,,,,,,,,,,,,,,,0YPYKJ,train_x,red_square,top_left,2025-05-22_15h04.18.649,HideSeek_v1,2022.2.5,59.93676671805206,
,2,7,5,7,3,0,46,,train_dim1_1,11,30,,,,2,0,2,0,,,,,,,,,0,0,0,0,0,10,10,10,3,0,3,0,,,,,,,,,,,,,,,,,,,,,,,,,,,,,,,,,,,,,,,,,,,,,,,,,,,,,,,,,,,,,,,,30,,,,,,,,643.5804319999879,643.5804319999879,643.5804319999879,643.5804319999879,643.5804319999879,return,0.8438940999330953,8,0,0,1,0.24,0.16,return,0.7672191000310704,0,26,0.24,0.16,,,,,,,,,,,,,,,,,,,,,,,,,,,,,,,,,,,,,,,,,,,,,,,,,,,,,,,,0YPYKJ,train_x,red_square,top_left,2025-05-22_15h04.18.649,HideSeek_v1,2022.2.5,59.93676671805206,
,0,5,1,5,1,0,26,,train_dim1_1,12,30,,,,2,0,2,0,,,,,,,,,0,0,0,0,0,11,11,11,0,0,0,0,,,,,,,,,,,,,,,,,,,,,,,,,stimuli/alien_stimuli/26.png,,,,,,,,,,,,,,,,,,,,,,,,,,,,,stimuli/alien_stimuli/46.png,46,2,13,,,,,,,30,,,,,,,,648.1765427999198,648.1765427999198,648.1765427999198,648.1765427999198,648.1765427999198,right,3.0915240000467747,8,0,0,99,-0.08,0,right,2.9928479999070987,,,,,646.603364199982,648.1765427999198,0.24,0.16,0.0,0.24,0.16,0.24,0.12,0.24,0.16,646.0011700999457,646.0011700999457,646.0011700999457,646.0011700999457,646.0011700999457,646.0011700999457,646.0011700999457,646.0011700999457,645.9860449000378,0.7200333999935538,return,0.570198200060986,,,,,,,,,,,,,,,,,,,,,,,,,,,,,,,,,0YPYKJ,train_x,red_square,top_left,2025-05-22_15h04.18.649,HideSeek_v1,2022.2.5,59.93676671805206,
,0,5,1,5,1,0,26,,train_dim1_1,12,30,,,,2,0,2,0,,,,,,,,,0,0,0,0,0,11,11,11,1,0,1,0,,,,,,,,,,,,,,,,,,,,,,,,,,,,,,,,,,,,,,,,,,,,,,,,,,,,,,,,,,,,,,,,30,,,,,,,,651.2583841999294,651.2583841999294,651.2583841999294,651.2583841999294,651.2583841999294,return,0.5264588000718504,9,0,0,1,-0.08,0,return,0.44528920005541295,0,27,-0.08,0,,,,,,,,,,,,,,,,,,,,,,,,,,,,,,,,,,,,,,,,,,,,,,,,,,,,,,,,0YPYKJ,train_x,red_square,top_left,2025-05-22_15h04.18.649,HideSeek_v1,2022.2.5,59.93676671805206,
,0,9,4,9,4,0,45,,train_dim1_1,13,30,,,,2,0,2,0,,,,,,,,,0,0,0,0,0,12,12,12,0,0,0,0,,,,,,,,,,,,,,,,,,,,,,,,,stimuli/alien_stimuli/45.png,,,,,,,,,,,,,,,,,,,,,,,,,,,,,stimuli/alien_stimuli/26.png,26,0,14,,,,,,,30,,,,,,,,656.1327173999744,656.1327173999744,656.1327173999744,656.1327173999744,656.1327173999744,right,1.7071755999932066,9,0,0,99,-0.08,0.32,right,1.6187395000597462,,,,,654.5764909000136,656.1327173999744,-0.08,0,0.0,0.08,0.0,-0.08,-0.12,-0.08,0,653.3557724999264,653.3557724999264,653.3557724999264,653.3557724999264,653.3557724999264,653.3557724999264,653.3557724999264,653.3557724999264,653.3425205999636,1.3362893000012264,return,1.1934926999965683,,,,,,,,,,,,,,,,,,,,,,,,,,,,,,,,,0YPYKJ,train_x,red_square,top_left,2025-05-22_15h04.18.649,HideSeek_v1,2022.2.5,59.93676671805206,
,0,9,4,9,4,0,45,,train_dim1_1,13,30,,,,2,0,2,0,,,,,,,,,0,0,0,0,0,12,12,12,1,0,1,0,,,,,,,,,,,,,,,,,,,,,,,,,,,,,,,,,,,,,,,,,,,,,,,,,,,,,,,,,,,,,,,,30,,,,,,,,657.8418521999847,657.8418521999847,657.8418521999847,657.8418521999847,657.8418521999847,right,0.6929701999761164,9,0,0,99,0.0,0.32,right,0.6133058000123128,,,,,,,,,,,,,,,,,,,,,,,,,,,,,,,,,,,,,,,,,,,,,,,,,,,,,,,,,,,,0YPYKJ,train_x,red_square,top_left,2025-05-22_15h04.18.649,HideSeek_v1,2022.2.5,59.93676671805206,
,0,9,4,9,4,0,45,,train_dim1_1,13,30,,,,2,0,2,0,,,,,,,,,0,0,0,0,0,12,12,12,2,0,2,0,,,,,,,,,,,,,,,,,,,,,,,,,,,,,,,,,,,,,,,,,,,,,,,,,,,,,,,,,,,,,,,,30,,,,,,,,658.5405705999583,658.5405705999583,658.5405705999583,658.5405705999583,658.5405705999583,right,0.6271077999845147,9,0,0,99,0.08,0.32,right,0.544669899973087,,,,,,,,,,,,,,,,,,,,,,,,,,,,,,,,,,,,,,,,,,,,,,,,,,,,,,,,,,,,0YPYKJ,train_x,red_square,top_left,2025-05-22_15h04.18.649,HideSeek_v1,2022.2.5,59.93676671805206,
,0,9,4,9,4,0,45,,train_dim1_1,13,30,,,,2,0,2,0,,,,,,,,,0,0,0,0,0,12,12,12,3,0,3,0,,,,,,,,,,,,,,,,,,,,,,,,,,,,,,,,,,,,,,,,,,,,,,,,,,,,,,,,,,,,,,,,30,,,,,,,,659.174363499973,659.174363499973,659.174363499973,659.174363499973,659.174363499973,right,0.5599454999901354,9,0,0,99,0.16,0.32,right,0.4905948000960052,,,,,,,,,,,,,,,,,,,,,,,,,,,,,,,,,,,,,,,,,,,,,,,,,,,,,,,,,,,,0YPYKJ,train_x,red_square,top_left,2025-05-22_15h04.18.649,HideSeek_v1,2022.2.5,59.93676671805206,
,0,9,4,9,4,0,45,,train_dim1_1,13,30,,,,2,0,2,0,,,,,,,,,0,0,0,0,0,12,12,12,4,0,4,0,,,,,,,,,,,,,,,,,,,,,,,,,,,,,,,,,,,,,,,,,,,,,,,,,,,,,,,,,,,,,,,,30,,,,,,,,659.7428854999598,659.7428854999598,659.7428854999598,659.7428854999598,659.7428854999598,return,0.49323939997702837,10,0,0,1,0.16,0.32,return,0.4110695000272244,0,31,0.16,0.32,,,,,,,,,,,,,,,,,,,,,,,,,,,,,,,,,,,,,,,,,,,,,,,,,,,,,,,,0YPYKJ,train_x,red_square,top_left,2025-05-22_15h04.18.649,HideSeek_v1,2022.2.5,59.93676671805206,
,4,8,4,8,0,0,16,,train_dim1_1,14,30,,,,2,0,2,0,,,,,,,,,0,0,0,0,0,13,13,13,0,0,0,0,,,,,,,,,,,,,,,,,,,,,,,,,stimuli/alien_stimuli/16.png,,,,,,,,,,,,,,,,,,,,,,,,,,,,,stimuli/alien_stimuli/45.png,45,0,15,,,,,,,30,,,,,,,,664.3296764999395,664.3296764999395,664.3296764999395,664.3296764999395,664.3296764999395,right,1.4714824999682605,10,0,0,99,0.24,0.24,right,1.3686658000806347,,,,,662.7499412000179,664.3296764999395,0.16,0.32,0.0,0.32,0.32,0.16,0.0,0.16,0.32,661.7962032000069,661.7962032000069,661.7962032000069,661.7962032000069,661.7962032000069,661.7962032000069,661.7962032000069,661.7962032000069,661.7826304000104,1.0527788000181317,return,0.9267775000771508,,,,,,,,,,,,,,,,,,,,,,,,,,,,,,,,,0YPYKJ,train_x,red_square,top_left,2025-05-22_15h04.18.649,HideSeek_v1,2022.2.5,59.93676671805206,
,4,8,4,8,0,0,16,,train_dim1_1,14,30,,,,2,0,2,0,,,,,,,,,0,0,0,0,0,13,13,13,1,0,1,0,,,,,,,,,,,,,,,,,,,,,,,,,,,,,,,,,,,,,,,,,,,,,,,,,,,,,,,,,,,,,,,,30,,,,,,,,665.7872494999319,665.7872494999319,665.7872494999319,665.7872494999319,665.7872494999319,left,0.3925818999996409,10,0,0,99,0.15999999999999998,0.24,left,0.30007280001882464,,,,,,,,,,,,,,,,,,,,,,,,,,,,,,,,,,,,,,,,,,,,,,,,,,,,,,,,,,,,0YPYKJ,train_x,red_square,top_left,2025-05-22_15h04.18.649,HideSeek_v1,2022.2.5,59.93676671805206,
,4,8,4,8,0,0,16,,train_dim1_1,14,30,,,,2,0,2,0,,,,,,,,,0,0,0,0,0,13,13,13,2,0,2,0,,,,,,,,,,,,,,,,,,,,,,,,,,,,,,,,,,,,,,,,,,,,,,,,,,,,,,,,,,,,,,,,30,,,,,,,,666.1871194000123,666.1871194000123,666.1871194000123,666.1871194000123,666.1871194000123,return,0.47681850008666515,11,0,0,1,0.15999999999999998,0.24,return,0.38783050002530217,0,31,0.15999999999999998,0.24,,,,,,,,,,,,,,,,,,,,,,,,,,,,,,,,,,,,,,,,,,,,,,,,,,,,,,,,0YPYKJ,train_x,red_square,top_left,2025-05-22_15h04.18.649,HideSeek_v1,2022.2.5,59.93676671805206,
,4,7,9,7,5,0,66,,train_dim1_1,15,30,,,,2,0,2,0,,,,,,,,,0,0,0,0,0,14,14,14,0,0,0,0,,,,,,,,,,,,,,,,,,,,,,,,,stimuli/alien_stimuli/66.png,,,,,,,,,,,,,,,,,,,,,,,,,,,,,stimuli/alien_stimuli/16.png,16,4,16,,,,,,,30,,,,,,,,672.3002298999345,672.3002298999345,672.3002298999345,672.3002298999345,672.3002298999345,right,2.522443800000474,11,0,0,99,0.24,0.16,right,2.435725999996066,,,,,670.7398686999222,672.3002298999345,0.16,0.24,0.0,0.0,0.24,0.16,0.16,0.16,0.24,668.2290909999283,668.2290909999283,668.2290909999283,668.2290909999283,668.2290909999283,668.2290909999283,668.2290909999283,668.2290909999283,668.2212950999499,2.6208512999583036,return,2.488110800040886,,,,,,,,,,,,,,,,,,,,,,,,,,,,,,,,,0YPYKJ,train_x,red_square,top_left,2025-05-22_15h04.18.649,HideSeek_v1,2022.2.5,59.93676671805206,
,4,7,9,7,5,0,66,,train_dim1_1,15,30,,,,2,0,2,0,,,,,,,,,0,0,0,0,0,14,14,14,1,0,1,0,,,,,,,,,,,,,,,,,,,,,,,,,,,,,,,,,,,,,,,,,,,,,,,,,,,,,,,,,,,,,,,,30,,,,,,,,674.8232250999426,674.8232250999426,674.8232250999426,674.8232250999426,674.8232250999426,right,0.5262468999717385,11,0,0,99,0.32,0.16,right,0.44729230005759746,,,,,,,,,,,,,,,,,,,,,,,,,,,,,,,,,,,,,,,,,,,,,,,,,,,,,,,,,,,,0YPYKJ,train_x,red_square,top_left,2025-05-22_15h04.18.649,HideSeek_v1,2022.2.5,59.93676671805206,
,4,7,9,7,5,0,66,,train_dim1_1,15,30,,,,2,0,2,0,,,,,,,,,0,0,0,0,0,14,14,14,2,0,2,0,,,,,,,,,,,,,,,,,,,,,,,,,,,,,,,,,,,,,,,,,,,,,,,,,,,,,,,,,,,,,,,,30,,,,,,,,675.3560145999072,675.3560145999072,675.3560145999072,675.3560145999072,675.3560145999072,right,0.5268503999104723,11,0,0,99,0.4,0.16,right,0.44239209999796003,,,,,,,,,,,,,,,,,,,,,,,,,,,,,,,,,,,,,,,,,,,,,,,,,,,,,,,,,,,,0YPYKJ,train_x,red_square,top_left,2025-05-22_15h04.18.649,HideSeek_v1,2022.2.5,59.93676671805206,
,4,7,9,7,5,0,66,,train_dim1_1,15,30,,,,2,0,2,0,,,,,,,,,0,0,0,0,0,14,14,14,3,0,3,0,,,,,,,,,,,,,,,,,,,,,,,,,,,,,,,,,,,,,,,,,,,,,,,,,,,,,,,,,,,,,,,,30,,,,,,,,675.8911915000062,675.8911915000062,675.8911915000062,675.8911915000062,675.8911915000062,right,0.5934341000393033,11,0,0,99,0.48000000000000004,0.16,right,0.5106450999155641,,,,,,,,,,,,,,,,,,,,,,,,,,,,,,,,,,,,,,,,,,,,,,,,,,,,,,,,,,,,0YPYKJ,train_x,red_square,top_left,2025-05-22_15h04.18.649,HideSeek_v1,2022.2.5,59.93676671805206,
,4,7,9,7,5,0,66,,train_dim1_1,15,30,,,,2,0,2,0,,,,,,,,,0,0,0,0,0,14,14,14,4,0,4,0,,,,,,,,,,,,,,,,,,,,,,,,,,,,,,,,,,,,,,,,,,,,,,,,,,,,,,,,,,,,,,,,30,,,,,,,,676.4918652999913,676.4918652999913,676.4918652999913,676.4918652999913,676.4918652999913,right,1.0271815999876708,11,0,0,99,0.56,0.16,right,0.9441114000510424,,,,,,,,,,,,,,,,,,,,,,,,,,,,,,,,,,,,,,,,,,,,,,,,,,,,,,,,,,,,0YPYKJ,train_x,red_square,top_left,2025-05-22_15h04.18.649,HideSeek_v1,2022.2.5,59.93676671805206,
,4,7,9,7,5,0,66,,train_dim1_1,15,30,,,,2,0,2,0,,,,,,,,,0,0,0,0,0,14,14,14,5,0,5,0,,,,,,,,,,,,,,,,,,,,,,,,,,,,,,,,,,,,,,,,,,,,,,,,,,,,,,,,,,,,,,,,30,,,,,,,,677.5245343999704,677.5245343999704,677.5245343999704,677.5245343999704,677.5245343999704,left,2.478330499958247,11,0,0,99,0.48000000000000004,0.16,left,2.3983651000307873,,,,,,,,,,,,,,,,,,,,,,,,,,,,,,,,,,,,,,,,,,,,,,,,,,,,,,,,,,,,0YPYKJ,train_x,red_square,top_left,2025-05-22_15h04.18.649,HideSeek_v1,2022.2.5,59.93676671805206,
,4,7,9,7,5,0,66,,train_dim1_1,15,30,,,,2,0,2,0,,,,,,,,,0,0,0,0,0,14,14,14,6,0,6,0,,,,,,,,,,,,,,,,,,,,,,,,,,,,,,,,,,,,,,,,,,,,,,,,,,,,,,,,,,,,,,,,30,,,,,,,,680.0100740999915,680.0100740999915,680.0100740999915,680.0100740999915,680.0100740999915,left,0.3101806999184191,11,0,0,99,0.4,0.16,left,0.2374721000669524,,,,,,,,,,,,,,,,,,,,,,,,,,,,,,,,,,,,,,,,,,,,,,,,,,,,,,,,,,,,0YPYKJ,train_x,red_square,top_left,2025-05-22_15h04.18.649,HideSeek_v1,2022.2.5,59.93676671805206,
,4,7,9,7,5,0,66,,train_dim1_1,15,30,,,,2,0,2,0,,,,,,,,,0,0,0,0,0,14,14,14,7,0,7,0,,,,,,,,,,,,,,,,,,,,,,,,,,,,,,,,,,,,,,,,,,,,,,,,,,,,,,,,,,,,,,,,30,,,,,,,,680.3269803000148,680.3269803000148,680.3269803000148,680.3269803000148,680.3269803000148,left,0.2768096000654623,11,0,0,99,0.32,0.16,left,0.20038939989171922,,,,,,,,,,,,,,,,,,,,,,,,,,,,,,,,,,,,,,,,,,,,,,,,,,,,,,,,,,,,0YPYKJ,train_x,red_square,top_left,2025-05-22_15h04.18.649,HideSeek_v1,2022.2.5,59.93676671805206,
,4,7,9,7,5,0,66,,train_dim1_1,15,30,,,,2,0,2,0,,,,,,,,,0,0,0,0,0,14,14,14,8,0,8,0,,,,,,,,,,,,,,,,,,,,,,,,,,,,,,,,,,,,,,,,,,,,,,,,,,,,,,,,,,,,,,,,30,,,,,,,,680.6110342999455,680.6110342999455,680.6110342999455,680.6110342999455,680.6110342999455,left,0.259530600043945,11,0,0,99,0.24,0.16,left,0.18312170007266104,,,,,,,,,,,,,,,,,,,,,,,,,,,,,,,,,,,,,,,,,,,,,,,,,,,,,,,,,,,,0YPYKJ,train_x,red_square,top_left,2025-05-22_15h04.18.649,HideSeek_v1,2022.2.5,59.93676671805206,
,4,7,9,7,5,0,66,,train_dim1_1,15,30,,,,2,0,2,0,,,,,,,,,0,0,0,0,0,14,14,14,9,0,9,0,,,,,,,,,,,,,,,,,,,,,,,,,,,,,,,,,,,,,,,,,,,,,,,,,,,,,,,,,,,,,,,,30,,,,,,,,680.877894599922,680.877894599922,680.877894599922,680.877894599922,680.877894599922,left,0.5603825999423862,11,0,0,99,0.15999999999999998,0.16,left,0.4830585999879986,,,,,,,,,,,,,,,,,,,,,,,,,,,,,,,,,,,,,,,,,,,,,,,,,,,,,,,,,,,,0YPYKJ,train_x,red_square,top_left,2025-05-22_15h04.18.649,HideSeek_v1,2022.2.5,59.93676671805206,
,4,7,9,7,5,0,66,,train_dim1_1,15,30,,,,2,0,2,0,,,,,,,,,0,0,0,0,0,14,14,14,10,0,10,0,,,,,,,,,,,,,,,,,,,,,,,,,,,,,,,,,,,,,,,,,,,,,,,,,,,,,,,,,,,,,,,,30,,,,,,,,681.4452241999097,681.4452241999097,681.4452241999097,681.4452241999097,681.4452241999097,right,0.7937095999950543,11,0,0,99,0.24,0.16,right,0.717454299912788,,,,,,,,,,,,,,,,,,,,,,,,,,,,,,,,,,,,,,,,,,,,,,,,,,,,,,,,,,,,0YPYKJ,train_x,red_square,top_left,2025-05-22_15h04.18.649,HideSeek_v1,2022.2.5,59.93676671805206,
,4,7,9,7,5,0,66,,train_dim1_1,15,30,,,,2,0,2,0,,,,,,,,,0,0,0,0,0,14,14,14,11,0,11,0,,,,,,,,,,,,,,,,,,,,,,,,,,,,,,,,,,,,,,,,,,,,,,,,,,,,,,,,,,,,,,,,30,,,,,,,,682.2454930999083,682.2454930999083,682.2454930999083,682.2454930999083,682.2454930999083,right,0.6932999000418931,11,0,0,99,0.32,0.16,right,0.6093764000106603,,,,,,,,,,,,,,,,,,,,,,,,,,,,,,,,,,,,,,,,,,,,,,,,,,,,,,,,,,,,0YPYKJ,train_x,red_square,top_left,2025-05-22_15h04.18.649,HideSeek_v1,2022.2.5,59.93676671805206,
,4,7,9,7,5,0,66,,train_dim1_1,15,30,,,,2,0,2,0,,,,,,,,,0,0,0,0,0,14,14,14,12,0,12,0,,,,,,,,,,,,,,,,,,,,,,,,,,,,,,,,,,,,,,,,,,,,,,,,,,,,,,,,,,,,,,,,30,,,,,,,,682.946249499917,682.946249499917,682.946249499917,682.946249499917,682.946249499917,right,0.5434511000057682,11,0,0,99,0.4,0.16,right,0.4660953999264166,,,,,,,,,,,,,,,,,,,,,,,,,,,,,,,,,,,,,,,,,,,,,,,,,,,,,,,,,,,,0YPYKJ,train_x,red_square,top_left,2025-05-22_15h04.18.649,HideSeek_v1,2022.2.5,59.93676671805206,
,4,7,9,7,5,0,66,,train_dim1_1,15,30,,,,2,0,2,0,,,,,,,,,0,0,0,0,0,14,14,14,13,0,13,0,,,,,,,,,,,,,,,,,,,,,,,,,,,,,,,,,,,,,,,,,,,,,,,,,,,,,,,,,,,,,,,,30,,,,,,,,683.4963069999358,683.4963069999358,683.4963069999358,683.4963069999358,683.4963069999358,right,0.576660200022161,11,0,0,99,0.48000000000000004,0.16,right,0.4897726000053808,,,,,,,,,,,,,,,,,,,,,,,,,,,,,,,,,,,,,,,,,,,,,,,,,,,,,,,,,,,,0YPYKJ,train_x,red_square,top_left,2025-05-22_15h04.18.649,HideSeek_v1,2022.2.5,59.93676671805206,
,4,7,9,7,5,0,66,,train_dim1_1,15,30,,,,2,0,2,0,,,,,,,,,0,0,0,0,0,14,14,14,14,0,14,0,,,,,,,,,,,,,,,,,,,,,,,,,,,,,,,,,,,,,,,,,,,,,,,,,,,,,,,,,,,,,,,,30,,,,,,,,684.0802671000129,684.0802671000129,684.0802671000129,684.0802671000129,684.0802671000129,right,0.5602995000081137,11,0,0,99,0.56,0.16,right,0.48883109993766993,,,,,,,,,,,,,,,,,,,,,,,,,,,,,,,,,,,,,,,,,,,,,,,,,,,,,,,,,,,,0YPYKJ,train_x,red_square,top_left,2025-05-22_15h04.18.649,HideSeek_v1,2022.2.5,59.93676671805206,
,4,7,9,7,5,0,66,,train_dim1_1,15,30,,,,2,0,2,0,,,,,,,,,0,0,0,0,0,14,14,14,15,0,15,0,,,,,,,,,,,,,,,,,,,,,,,,,,,,,,,,,,,,,,,,,,,,,,,,,,,,,,,,,,,,,,,,30,,,,,,,,684.6475551999174,684.6475551999174,684.6475551999174,684.6475551999174,684.6475551999174,return,0.5103473000926897,12,0,0,1,0.56,0.16,return,0.42306549998465925,0,36,0.56,0.16,,,,,,,,,,,,,,,,,,,,,,,,,,,,,,,,,,,,,,,,,,,,,,,,,,,,,,,,0YPYKJ,train_x,red_square,top_left,2025-05-22_15h04.18.649,HideSeek_v1,2022.2.5,59.93676671805206,
,3,8,7,8,4,0,56,,train_dim1_1,16,30,,,,2,0,2,0,,,,,,,,,0,0,0,0,0,15,15,15,0,0,0,0,,,,,,,,,,,,,,,,,,,,,,,,,stimuli/alien_stimuli/56.png,,,,,,,,,,,,,,,,,,,,,,,,,,,,,stimuli/alien_stimuli/66.png,66,4,17,,,,,,,30,,,,,,,,689.2572069999296,689.2572069999296,689.2572069999296,689.2572069999296,689.2572069999296,right,3.4253382000606507,12,0,0,99,0.16,0.24,right,3.333736400003545,,,,,687.6875005000038,689.2572069999296,0.56,0.16,0.0,0.4,0.16,0.56,0.36000000000000004,0.56,0.16,686.7381244999124,686.7381244999124,686.7381244999124,686.7381244999124,686.7381244999124,686.7381244999124,686.7381244999124,686.7381244999124,686.7201194999623,1.0693406000500545,return,0.9294558999827132,,,,,,,,,,,,,,,,,,,,,,,,,,,,,,,,,0YPYKJ,train_x,red_square,top_left,2025-05-22_15h04.18.649,HideSeek_v1,2022.2.5,59.93676671805206,
,3,8,7,8,4,0,56,,train_dim1_1,16,30,,,,2,0,2,0,,,,,,,,,0,0,0,0,0,15,15,15,1,0,1,0,,,,,,,,,,,,,,,,,,,,,,,,,,,,,,,,,,,,,,,,,,,,,,,,,,,,,,,,,,,,,,,,30,,,,,,,,692.6733807999408,692.6733807999408,692.6733807999408,692.6733807999408,692.6733807999408,right,1.2103864999953657,12,0,0,99,0.24,0.24,right,1.128535799914971,,,,,,,,,,,,,,,,,,,,,,,,,,,,,,,,,,,,,,,,,,,,,,,,,,,,,,,,,,,,0YPYKJ,train_x,red_square,top_left,2025-05-22_15h04.18.649,HideSeek_v1,2022.2.5,59.93676671805206,
,3,8,7,8,4,0,56,,train_dim1_1,16,30,,,,2,0,2,0,,,,,,,,,0,0,0,0,0,15,15,15,2,0,2,0,,,,,,,,,,,,,,,,,,,,,,,,,,,,,,,,,,,,,,,,,,,,,,,,,,,,,,,,,,,,,,,,30,,,,,,,,693.890692899935,693.890692899935,693.890692899935,693.890692899935,693.890692899935,right,2.2283640999812633,12,0,0,99,0.32,0.24,right,2.1491155000403523,,,,,,,,,,,,,,,,,,,,,,,,,,,,,,,,,,,,,,,,,,,,,,,,,,,,,,,,,,,,0YPYKJ,train_x,red_square,top_left,2025-05-22_15h04.18.649,HideSeek_v1,2022.2.5,59.93676671805206,
,3,8,7,8,4,0,56,,train_dim1_1,16,30,,,,2,0,2,0,,,,,,,,,0,0,0,0,0,15,15,15,3,0,3,0,,,,,,,,,,,,,,,,,,,,,,,,,,,,,,,,,,,,,,,,,,,,,,,,,,,,,,,,,,,,,,,,30,,,,,,,,696.1262975999853,696.1262975999853,696.1262975999853,696.1262975999853,696.1262975999853,right,2.328383699990809,12,0,0,99,0.4,0.24,right,2.240749299991876,,,,,,,,,,,,,,,,,,,,,,,,,,,,,,,,,,,,,,,,,,,,,,,,,,,,,,,,,,,,0YPYKJ,train_x,red_square,top_left,2025-05-22_15h04.18.649,HideSeek_v1,2022.2.5,59.93676671805206,
,3,8,7,8,4,0,56,,train_dim1_1,16,30,,,,2,0,2,0,,,,,,,,,0,0,0,0,0,15,15,15,4,0,4,0,,,,,,,,,,,,,,,,,,,,,,,,,,,,,,,,,,,,,,,,,,,,,,,,,,,,,,,,,,,,,,,,30,,,,,,,,698.461909799953,698.461909799953,698.461909799953,698.461909799953,698.461909799953,return,0.9935260999482125,13,0,0,1,0.4,0.24,return,0.9148988999659196,0,40,0.4,0.24,,,,,,,,,,,,,,,,,,,,,,,,,,,,,,,,,,,,,,,,,,,,,,,,,,,,,,,,0YPYKJ,train_x,red_square,top_left,2025-05-22_15h04.18.649,HideSeek_v1,2022.2.5,59.93676671805206,
,2,9,3,9,1,0,26,,train_dim1_1,17,30,,,,2,0,2,0,,,,,,,,,0,0,0,0,0,16,16,16,0,0,0,0,,,,,,,,,,,,,,,,,,,,,,,,,stimuli/alien_stimuli/26.png,,,,,,,,,,,,,,,,,,,,,,,,,,,,,stimuli/alien_stimuli/56.png,56,3,18,,,,,,,30,,,,,,,,703.3849048999837,703.3849048999837,703.3849048999837,703.3849048999837,703.3849048999837,right,1.453482500044629,13,0,0,99,0.08,0.32,right,1.3446263999212533,,,,,701.7873237999156,701.0352035999531,0.4,0.24,0.0,0.32,0.24,0.4,0.24000000000000002,0.4,0.24,701.0352035999531,701.0352035999531,701.0352035999531,701.0352035999531,701.0352035999531,701.0352035999531,701.0352035999531,701.0352035999531,701.0148490000399,0.8760569000151008,return,0.7233150999527425,,,,,,,,,,,,,,,,,,,,,,,,,,,,,,,,,0YPYKJ,train_x,red_square,top_left,2025-05-22_15h04.18.649,HideSeek_v1,2022.2.5,59.93676671805206,
,2,9,3,9,1,0,26,,train_dim1_1,17,30,,,,2,0,2,0,,,,,,,,,0,0,0,0,0,16,16,16,1,0,1,0,,,,,,,,,,,,,,,,,,,,,,,,,,,,,,,,,,,,,,,,,,,,,,,,,,,,,,,,,,,,,,,,30,,,,,,,,704.8225813999306,704.8225813999306,704.8225813999306,704.8225813999306,704.8225813999306,return,0.6251909000566229,14,0,0,1,0.08,0.32,return,0.5411870999960229,0,41,0.08,0.32,,,,,,,,,,,,,,,,,,,,,,,,,,,,,,,,,,,,,,,,,,,,,,,,,,,,,,,,0YPYKJ,train_x,red_square,top_left,2025-05-22_15h04.18.649,HideSeek_v1,2022.2.5,59.93676671805206,
,2,6,7,6,5,0,66,,train_dim1_1,18,30,,,,2,0,2,0,,,,,,,,,0,0,0,0,0,17,17,17,0,0,0,0,,,,,,,,,,,,,,,,,,,,,,,,,stimuli/alien_stimuli/66.png,,,,,,,,,,,,,,,,,,,,,,,,,,,,,stimuli/alien_stimuli/26.png,26,2,19,,,,,,,30,,,,,,,,709.1993250999367,709.1993250999367,709.1993250999367,709.1993250999367,709.1993250999367,right,3.024269500048831,14,0,0,99,0.08,0.08,right,2.9423852999461815,,,,,707.6375255999155,709.1993250999367,0.08,0.32,0.0,0.08,0.32,0.08,0.04,0.08,0.32,707.0115879999939,707.0115879999939,707.0115879999939,707.0115879999939,707.0115879999939,707.0115879999939,707.0115879999939,707.0115879999939,707.0033951000194,0.7359177999896929,return,0.6048545999219641,,,,,,,,,,,,,,,,,,,,,,,,,,,,,,,,,0YPYKJ,train_x,red_square,top_left,2025-05-22_15h04.18.649,HideSeek_v1,2022.2.5,59.93676671805206,
,2,6,7,6,5,0,66,,train_dim1_1,18,30,,,,2,0,2,0,,,,,,,,,0,0,0,0,0,17,17,17,1,0,1,0,,,,,,,,,,,,,,,,,,,,,,,,,,,,,,,,,,,,,,,,,,,,,,,,,,,,,,,,,,,,,,,,30,,,,,,,,712.2241071999306,712.2241071999306,712.2241071999306,712.2241071999306,712.2241071999306,right,0.6564132999628782,14,0,0,99,0.16,0.08,right,0.582517100032419,,,,,,,,,,,,,,,,,,,,,,,,,,,,,,,,,,,,,,,,,,,,,,,,,,,,,,,,,,,,0YPYKJ,train_x,red_square,top_left,2025-05-22_15h04.18.649,HideSeek_v1,2022.2.5,59.93676671805206,
,2,6,7,6,5,0,66,,train_dim1_1,18,30,,,,2,0,2,0,,,,,,,,,0,0,0,0,0,17,17,17,2,0,2,0,,,,,,,,,,,,,,,,,,,,,,,,,,,,,,,,,,,,,,,,,,,,,,,,,,,,,,,,,,,,,,,,30,,,,,,,,712.8880384999793,712.8880384999793,712.8880384999793,712.8880384999793,712.8880384999793,right,0.5595348000060767,14,0,0,99,0.24,0.08,right,0.47645630000624806,,,,,,,,,,,,,,,,,,,,,,,,,,,,,,,,,,,,,,,,,,,,,,,,,,,,,,,,,,,,0YPYKJ,train_x,red_square,top_left,2025-05-22_15h04.18.649,HideSeek_v1,2022.2.5,59.93676671805206,
,2,6,7,6,5,0,66,,train_dim1_1,18,30,,,,2,0,2,0,,,,,,,,,0,0,0,0,0,17,17,17,3,0,3,0,,,,,,,,,,,,,,,,,,,,,,,,,,,,,,,,,,,,,,,,,,,,,,,,,,,,,,,,,,,,,,,,30,,,,,,,,713.4567453999771,713.4567453999771,713.4567453999771,713.4567453999771,713.4567453999771,right,0.6240534998942167,14,0,0,99,0.32,0.08,right,0.5481683000689372,,,,,,,,,,,,,,,,,,,,,,,,,,,,,,,,,,,,,,,,,,,,,,,,,,,,,,,,,,,,0YPYKJ,train_x,red_square,top_left,2025-05-22_15h04.18.649,HideSeek_v1,2022.2.5,59.93676671805206,
,2,6,7,6,5,0,66,,train_dim1_1,18,30,,,,2,0,2,0,,,,,,,,,0,0,0,0,0,17,17,17,4,0,4,0,,,,,,,,,,,,,,,,,,,,,,,,,,,,,,,,,,,,,,,,,,,,,,,,,,,,,,,,,,,,,,,,30,,,,,,,,714.0881032999605,714.0881032999605,714.0881032999605,714.0881032999605,714.0881032999605,right,0.5767524000257254,14,0,0,99,0.4,0.08,right,0.4999816999770701,,,,,,,,,,,,,,,,,,,,,,,,,,,,,,,,,,,,,,,,,,,,,,,,,,,,,,,,,,,,0YPYKJ,train_x,red_square,top_left,2025-05-22_15h04.18.649,HideSeek_v1,2022.2.5,59.93676671805206,
,2,6,7,6,5,0,66,,train_dim1_1,18,30,,,,2,0,2,0,,,,,,,,,0,0,0,0,0,17,17,17,5,0,5,0,,,,,,,,,,,,,,,,,,,,,,,,,,,,,,,,,,,,,,,,,,,,,,,,,,,,,,,,,,,,,,,,30,,,,,,,,714.6715903999284,714.6715903999284,714.6715903999284,714.6715903999284,714.6715903999284,return,0.6269166999263689,15,0,0,1,0.4,0.08,return,0.5547211000230163,0,46,0.4,0.08,,,,,,,,,,,,,,,,,,,,,,,,,,,,,,,,,,,,,,,,,,,,,,,,,,,,,,,,0YPYKJ,train_x,red_square,top_left,2025-05-22_15h04.18.649,HideSeek_v1,2022.2.5,59.93676671805206,
,0,8,3,8,3,0,46,,train_dim1_1,19,30,,,,2,0,2,0,,,,,,,,,0,0,0,0,0,18,18,18,0,0,0,0,,,,,,,,,,,,,,,,,,,,,,,,,stimuli/alien_stimuli/46.png,,,,,,,,,,,,,,,,,,,,,,,,,,,,,stimuli/alien_stimuli/66.png,66,2,20,,,,,,,30,,,,,,,,719.1033081999049,719.1033081999049,719.1033081999049,719.1033081999049,719.1033081999049,right,24.20702460000757,15,0,0,99,-0.08,0.24,right,24.106145500089042,,,,,717.5167233999819,716.8616211999906,0.4,0.08,0.0,0.4,0.08,0.4,0.2,0.4,0.08,716.8616211999906,716.8616211999906,716.8616211999906,716.8616211999906,716.8616211999906,716.8616211999906,716.8616211999906,716.8616211999906,716.8448530999943,0.7585507000330836,return,0.6284538999898359,,,,,,,,,,,,,,,,,,,,,,,,,,,,,,,,,0YPYKJ,train_x,red_square,top_left,2025-05-22_15h04.18.649,HideSeek_v1,2022.2.5,59.93676671805206,
,0,8,3,8,3,0,46,,train_dim1_1,19,30,,,,2,0,2,0,,,,,,,,,0,0,0,0,0,18,18,18,1,0,1,0,,,,,,,,,,,,,,,,,,,,,,,,,,,,,,,,,,,,,,,,,,,,,,,,,,,,,,,,,,,,,,,,30,,,,,,,,743.3183035999537,743.3183035999537,743.3183035999537,743.3183035999537,743.3183035999537,right,0.8099508999148384,15,0,0,99,0.0,0.24,right,0.7064779000356793,,,,,,,,,,,,,,,,,,,,,,,,,,,,,,,,,,,,,,,,,,,,,,,,,,,,,,,,,,,,0YPYKJ,train_x,red_square,top_left,2025-05-22_15h04.18.649,HideSeek_v1,2022.2.5,59.93676671805206,
,0,8,3,8,3,0,46,,train_dim1_1,19,30,,,,2,0,2,0,,,,,,,,,0,0,0,0,0,18,18,18,2,0,2,0,,,,,,,,,,,,,,,,,,,,,,,,,,,,,,,,,,,,,,,,,,,,,,,,,,,,,,,,,,,,,,,,30,,,,,,,,744.1143469999079,744.1143469999079,744.1143469999079,744.1143469999079,744.1143469999079,right,0.4933366000186652,15,0,0,99,0.08,0.24,right,0.407997400034219,,,,,,,,,,,,,,,,,,,,,,,,,,,,,,,,,,,,,,,,,,,,,,,,,,,,,,,,,,,,0YPYKJ,train_x,red_square,top_left,2025-05-22_15h04.18.649,HideSeek_v1,2022.2.5,59.93676671805206,
,0,8,3,8,3,0,46,,train_dim1_1,19,30,,,,2,0,2,0,,,,,,,,,0,0,0,0,0,18,18,18,3,0,3,0,,,,,,,,,,,,,,,,,,,,,,,,,,,,,,,,,,,,,,,,,,,,,,,,,,,,,,,,,,,,,,,,30,,,,,,,,744.6148590999655,744.6148590999655,744.6148590999655,744.6148590999655,744.6148590999655,right,1.5106482999399304,15,0,0,99,0.16,0.24,right,1.4264770000008866,,,,,,,,,,,,,,,,,,,,,,,,,,,,,,,,,,,,,,,,,,,,,,,,,,,,,,,,,,,,0YPYKJ,train_x,red_square,top_left,2025-05-22_15h04.18.649,HideSeek_v1,2022.2.5,59.93676671805206,
,0,8,3,8,3,0,46,,train_dim1_1,19,30,,,,2,0,2,0,,,,,,,,,0,0,0,0,0,18,18,18,4,0,4,0,,,,,,,,,,,,,,,,,,,,,,,,,,,,,,,,,,,,,,,,,,,,,,,,,,,,,,,,,,,,,,,,30,,,,,,,,746.1327392999083,746.1327392999083,746.1327392999083,746.1327392999083,746.1327392999083,left,1.560519100050442,15,0,0,99,0.08,0.24,left,1.481178699992597,,,,,,,,,,,,,,,,,,,,,,,,,,,,,,,,,,,,,,,,,,,,,,,,,,,,,,,,,,,,0YPYKJ,train_x,red_square,top_left,2025-05-22_15h04.18.649,HideSeek_v1,2022.2.5,59.93676671805206,
,0,8,3,8,3,0,46,,train_dim1_1,19,30,,,,2,0,2,0,,,,,,,,,0,0,0,0,0,18,18,18,5,0,5,0,,,,,,,,,,,,,,,,,,,,,,,,,,,,,,,,,,,,,,,,,,,,,,,,,,,,,,,,,,,,,,,,30,,,,,,,,747.7016199999489,747.7016199999489,747.7016199999489,747.7016199999489,747.7016199999489,return,1.0764332000399008,16,0,0,1,0.08,0.24,return,0.9880023000296205,0,49,0.08,0.24,,,,,,,,,,,,,,,,,,,,,,,,,,,,,,,,,,,,,,,,,,,,,,,,,,,,,,,,0YPYKJ,train_x,red_square,top_left,2025-05-22_15h04.18.649,HideSeek_v1,2022.2.5,59.93676671805206,
,0,6,0,6,0,0,16,,train_dim1_1,20,30,,,,2,0,2,0,,,,,,,,,0,0,0,0,0,19,19,19,0,0,0,0,,,,,,,,,,,,,,,,,,,,,,,,,stimuli/alien_stimuli/16.png,,,,,,,,,,,,,,,,,,,,,,,,,,,,,stimuli/alien_stimuli/46.png,46,0,21,,,,,,,30,,,,,,,,752.4093772999477,752.4093772999477,752.4093772999477,752.4093772999477,752.4093772999477,right,1.3555022000800818,16,0,0,99,-0.08,0.08,right,1.2451081000035629,,,,,750.8230790999951,752.4093772999477,0.08,0.24,0.0,0.24,0.24,0.08,-0.04,0.08,0.24,750.3594885999337,750.3594885999337,750.3594885999337,750.3594885999337,750.3594885999337,750.3594885999337,750.3594885999337,750.3594885999337,750.339267199987,0.5859847000101581,return,0.4375229999423027,,,,,,,,,,,,,,,,,,,,,,,,,,,,,,,,,0YPYKJ,train_x,red_square,top_left,2025-05-22_15h04.18.649,HideSeek_v1,2022.2.5,59.93676671805206,
,0,6,0,6,0,0,16,,train_dim1_1,20,30,,,,2,0,2,0,,,,,,,,,0,0,0,0,0,19,19,19,1,0,1,0,,,,,,,,,,,,,,,,,,,,,,,,,,,,,,,,,,,,,,,,,,,,,,,,,,,,,,,,,,,,,,,,30,,,,,,,,753.7433506000089,753.7433506000089,753.7433506000089,753.7433506000089,753.7433506000089,left,0.5930080000543967,16,0,0,99,-0.16,0.08,left,0.5088052999926731,,,,,,,,,,,,,,,,,,,,,,,,,,,,,,,,,,,,,,,,,,,,,,,,,,,,,,,,,,,,0YPYKJ,train_x,red_square,top_left,2025-05-22_15h04.18.649,HideSeek_v1,2022.2.5,59.93676671805206,
,0,6,0,6,0,0,16,,train_dim1_1,20,30,,,,2,0,2,0,,,,,,,,,0,0,0,0,0,19,19,19,2,0,2,0,,,,,,,,,,,,,,,,,,,,,,,,,,,,,,,,,,,,,,,,,,,,,,,,,,,,,,,,,,,,,,,,30,,,,,,,,754.3425857999828,754.3425857999828,754.3425857999828,754.3425857999828,754.3425857999828,return,0.46002160001080483,17,0,0,1,-0.16,0.08,return,0.38140569999814034,0,49,-0.16,0.08,,,,,,,,,,,,,,,,,,,,,,,,,,,,,,,,,,,,,,,,,,,,,,,,,,,,,,,,0YPYKJ,train_x,red_square,top_left,2025-05-22_15h04.18.649,HideSeek_v1,2022.2.5,59.93676671805206,
,4,7,7,7,3,0,46,,train_dim1_1,21,30,,,,2,0,2,0,,,,,,,,,0,0,0,0,0,20,20,20,0,0,0,0,,,,,,,,,,,,,,,,,,,,,,,,,stimuli/alien_stimuli/46.png,,,,,,,,,,,,,,,,,,,,,,,,,,,,,stimuli/alien_stimuli/16.png,16,0,22,,,,,,,30,,,,,,,,759.6227990000043,759.6227990000043,759.6227990000043,759.6227990000043,759.6227990000043,right,1.3232447999762371,17,0,0,99,0.24,0.16,right,1.2291871999623254,,,,,758.0623786000069,759.6227990000043,-0.16,0.08,0.0,0.0,0.08,-0.16,-0.16,-0.16,0.08,756.3704161999049,756.3704161999049,756.3704161999049,756.3704161999049,756.3704161999049,756.3704161999049,756.3704161999049,756.3704161999049,756.3609954000101,1.8035562000004575,return,1.661382499965839,,,,,,,,,,,,,,,,,,,,,,,,,,,,,,,,,0YPYKJ,train_x,red_square,top_left,2025-05-22_15h04.18.649,HideSeek_v1,2022.2.5,59.93676671805206,
,4,7,7,7,3,0,46,,train_dim1_1,21,30,,,,2,0,2,0,,,,,,,,,0,0,0,0,0,20,20,20,1,0,1,0,,,,,,,,,,,,,,,,,,,,,,,,,,,,,,,,,,,,,,,,,,,,,,,,,,,,,,,,,,,,,,,,30,,,,,,,,760.9452869999222,760.9452869999222,760.9452869999222,760.9452869999222,760.9452869999222,right,1.027077200007625,17,0,0,99,0.32,0.16,right,0.939217200037092,,,,,,,,,,,,,,,,,,,,,,,,,,,,,,,,,,,,,,,,,,,,,,,,,,,,,,,,,,,,0YPYKJ,train_x,red_square,top_left,2025-05-22_15h04.18.649,HideSeek_v1,2022.2.5,59.93676671805206,
,4,7,7,7,3,0,46,,train_dim1_1,21,30,,,,2,0,2,0,,,,,,,,,0,0,0,0,0,20,20,20,2,0,2,0,,,,,,,,,,,,,,,,,,,,,,,,,,,,,,,,,,,,,,,,,,,,,,,,,,,,,,,,,,,,,,,,30,,,,,,,,761.9785364000127,761.9785364000127,761.9785364000127,761.9785364000127,761.9785364000127,right,0.893407900002785,17,0,0,99,0.4,0.16,right,0.8125471000093967,,,,,,,,,,,,,,,,,,,,,,,,,,,,,,,,,,,,,,,,,,,,,,,,,,,,,,,,,,,,0YPYKJ,train_x,red_square,top_left,2025-05-22_15h04.18.649,HideSeek_v1,2022.2.5,59.93676671805206,
,4,7,7,7,3,0,46,,train_dim1_1,21,30,,,,2,0,2,0,,,,,,,,,0,0,0,0,0,20,20,20,3,0,3,0,,,,,,,,,,,,,,,,,,,,,,,,,,,,,,,,,,,,,,,,,,,,,,,,,,,,,,,,,,,,,,,,30,,,,,,,,762.8808969999664,762.8808969999664,762.8808969999664,762.8808969999664,762.8808969999664,return,2.8455026999581605,18,0,0,1,0.4,0.16,return,2.7618230000371113,0,52,0.4,0.16,,,,,,,,,,,,,,,,,,,,,,,,,,,,,,,,,,,,,,,,,,,,,,,,,,,,,,,,0YPYKJ,train_x,red_square,top_left,2025-05-22_15h04.18.649,HideSeek_v1,2022.2.5,59.93676671805206,
,1,5,2,5,1,0,26,,train_dim1_1,22,30,,,,2,0,2,0,,,,,,,,,0,0,0,0,0,21,21,21,0,0,0,0,,,,,,,,,,,,,,,,,,,,,,,,,stimuli/alien_stimuli/26.png,,,,,,,,,,,,,,,,,,,,,,,,,,,,,stimuli/alien_stimuli/46.png,46,4,23,,,,,,,30,,,,,,,,769.4633959999774,769.4633959999774,769.4633959999774,769.4633959999774,769.4633959999774,right,1.5889251999324188,18,0,0,99,0.0,0,right,1.4914016999537125,,,,,767.8874323999044,769.4633959999774,0.4,0.16,0.0,0.24,0.16,0.4,0.28,0.4,0.16,767.3041227000067,767.3041227000067,767.3041227000067,767.3041227000067,767.3041227000067,767.3041227000067,767.3041227000067,767.3041227000067,767.2872458000318,0.7024599999422207,return,0.5655825999565423,,,,,,,,,,,,,,,,,,,,,,,,,,,,,,,,,0YPYKJ,train_x,red_square,top_left,2025-05-22_15h04.18.649,HideSeek_v1,2022.2.5,59.93676671805206,
,1,5,2,5,1,0,26,,train_dim1_1,22,30,,,,2,0,2,0,,,,,,,,,0,0,0,0,0,21,21,21,1,0,1,0,,,,,,,,,,,,,,,,,,,,,,,,,,,,,,,,,,,,,,,,,,,,,,,,,,,,,,,,,,,,,,,,30,,,,,,,,771.0410424999427,771.0410424999427,771.0410424999427,771.0410424999427,771.0410424999427,return,1.0602821999927983,19,0,0,1,0.0,0,return,0.9745835000649095,0,53,0.0,0,,,,,,,,,,,,,,,,,,,,,,,,,,,,,,,,,,,,,,,,,,,,,,,,,,,,,,,,0YPYKJ,train_x,red_square,top_left,2025-05-22_15h04.18.649,HideSeek_v1,2022.2.5,59.93676671805206,
,2,6,7,6,5,0,66,,train_dim1_1,23,30,,,,2,0,2,0,,,,,,,,,0,0,0,0,0,22,22,22,0,0,0,0,,,,,,,,,,,,,,,,,,,,,,,,,stimuli/alien_stimuli/66.png,,,,,,,,,,,,,,,,,,,,,,,,,,,,,stimuli/alien_stimuli/26.png,26,1,24,,,,,,,30,,,,,,,,778.6234906999161,778.6234906999161,778.6234906999161,778.6234906999161,778.6234906999161,right,1.2539959999267012,19,0,0,99,0.08,0.08,right,1.1715817999793217,,,,,777.0615009999601,778.6234906999161,0,0,0.0,0.08,0.0,0,-0.04,0,0,773.6690746999811,773.6690746999811,773.6690746999811,773.6690746999811,773.6690746999811,773.6690746999811,773.6690746999811,773.6690746999811,773.6590397999505,3.504452900029719,return,3.364123599953018,,,,,,,,,,,,,,,,,,,,,,,,,,,,,,,,,0YPYKJ,train_x,red_square,top_left,2025-05-22_15h04.18.649,HideSeek_v1,2022.2.5,59.93676671805206,
,2,6,7,6,5,0,66,,train_dim1_1,23,30,,,,2,0,2,0,,,,,,,,,0,0,0,0,0,22,22,22,1,0,1,0,,,,,,,,,,,,,,,,,,,,,,,,,,,,,,,,,,,,,,,,,,,,,,,,,,,,,,,,,,,,,,,,30,,,,,,,,779.8774056999246,779.8774056999246,779.8774056999246,779.8774056999246,779.8774056999246,right,0.4931483999826014,19,0,0,99,0.16,0.08,right,0.4060346999904141,,,,,,,,,,,,,,,,,,,,,,,,,,,,,,,,,,,,,,,,,,,,,,,,,,,,,,,,,,,,0YPYKJ,train_x,red_square,top_left,2025-05-22_15h04.18.649,HideSeek_v1,2022.2.5,59.93676671805206,
,2,6,7,6,5,0,66,,train_dim1_1,23,30,,,,2,0,2,0,,,,,,,,,0,0,0,0,0,22,22,22,2,0,2,0,,,,,,,,,,,,,,,,,,,,,,,,,,,,,,,,,,,,,,,,,,,,,,,,,,,,,,,,,,,,,,,,30,,,,,,,,780.3781331999926,780.3781331999926,780.3781331999926,780.3781331999926,780.3781331999926,right,0.6932104000588879,19,0,0,99,0.24,0.08,right,0.6150198000250384,,,,,,,,,,,,,,,,,,,,,,,,,,,,,,,,,,,,,,,,,,,,,,,,,,,,,,,,,,,,0YPYKJ,train_x,red_square,top_left,2025-05-22_15h04.18.649,HideSeek_v1,2022.2.5,59.93676671805206,
,2,6,7,6,5,0,66,,train_dim1_1,23,30,,,,2,0,2,0,,,,,,,,,0,0,0,0,0,22,22,22,3,0,3,0,,,,,,,,,,,,,,,,,,,,,,,,,,,,,,,,,,,,,,,,,,,,,,,,,,,,,,,,,,,,,,,,30,,,,,,,,781.0776890999405,781.0776890999405,781.0776890999405,781.0776890999405,781.0776890999405,right,0.5100519999396056,19,0,0,99,0.32,0.08,right,0.4326451999368146,,,,,,,,,,,,,,,,,,,,,,,,,,,,,,,,,,,,,,,,,,,,,,,,,,,,,,,,,,,,0YPYKJ,train_x,red_square,top_left,2025-05-22_15h04.18.649,HideSeek_v1,2022.2.5,59.93676671805206,
,2,6,7,6,5,0,66,,train_dim1_1,23,30,,,,2,0,2,0,,,,,,,,,0,0,0,0,0,22,22,22,4,0,4,0,,,,,,,,,,,,,,,,,,,,,,,,,,,,,,,,,,,,,,,,,,,,,,,,,,,,,,,,,,,,,,,,30,,,,,,,,781.5936380999628,781.5936380999628,781.5936380999628,781.5936380999628,781.5936380999628,right,0.5268437000922859,19,0,0,99,0.4,0.08,right,0.451114600058645,,,,,,,,,,,,,,,,,,,,,,,,,,,,,,,,,,,,,,,,,,,,,,,,,,,,,,,,,,,,0YPYKJ,train_x,red_square,top_left,2025-05-22_15h04.18.649,HideSeek_v1,2022.2.5,59.93676671805206,
,2,6,7,6,5,0,66,,train_dim1_1,23,30,,,,2,0,2,0,,,,,,,,,0,0,0,0,0,22,22,22,5,0,5,0,,,,,,,,,,,,,,,,,,,,,,,,,,,,,,,,,,,,,,,,,,,,,,,,,,,,,,,,,,,,,,,,30,,,,,,,,782.1279854999157,782.1279854999157,782.1279854999157,782.1279854999157,782.1279854999157,return,0.37696779996622354,20,0,0,1,0.4,0.08,return,0.29583429999183863,0,58,0.4,0.08,,,,,,,,,,,,,,,,,,,,,,,,,,,,,,,,,,,,,,,,,,,,,,,,,,,,,,,,0YPYKJ,train_x,red_square,top_left,2025-05-22_15h04.18.649,HideSeek_v1,2022.2.5,59.93676671805206,
,4,9,8,9,4,0,56,,train_dim1_1,24,30,,,,2,0,2,0,,,,,,,,,0,0,0,0,0,23,23,23,0,0,0,0,,,,,,,,,,,,,,,,,,,,,,,,,stimuli/alien_stimuli/56.png,,,,,,,,,,,,,,,,,,,,,,,,,,,,,stimuli/alien_stimuli/66.png,66,2,25,,,,,,,30,,,,,,,,786.4772157999687,786.4772157999687,786.4772157999687,786.4772157999687,786.4772157999687,down,11.397649799939245,20,0,0,99,0.16,0.24,down,11.291316200047731,,,,,784.9013669999549,786.4772157999687,0.4,0.08,0.0,0.4,0.08,0.4,0.2,0.4,0.08,784.0864044999471,784.0864044999471,784.0864044999471,784.0864044999471,784.0864044999471,784.0864044999471,784.0864044999471,784.0864044999471,784.0673779000178,0.9362517999252304,return,0.7870212000561878,,,,,,,,,,,,,,,,,,,,,,,,,,,,,,,,,0YPYKJ,train_x,red_square,top_left,2025-05-22_15h04.18.649,HideSeek_v1,2022.2.5,59.93676671805206,
,4,9,8,9,4,0,56,,train_dim1_1,24,30,,,,2,0,2,0,,,,,,,,,0,0,0,0,0,23,23,23,1,0,1,0,,,,,,,,,,,,,,,,,,,,,,,,,,,,,,,,,,,,,,,,,,,,,,,,,,,,,,,,,,,,,,,,30,,,,,,,,797.8774988999357,797.8774988999357,797.8774988999357,797.8774988999357,797.8774988999357,down,2.9950993000529706,20,0,0,99,0.16,0.15999999999999998,down,2.888724800082855,,,,,,,,,,,,,,,,,,,,,,,,,,,,,,,,,,,,,,,,,,,,,,,,,,,,,,,,,,,,0YPYKJ,train_x,red_square,top_left,2025-05-22_15h04.18.649,HideSeek_v1,2022.2.5,59.93676671805206,
,4,9,8,9,4,0,56,,train_dim1_1,24,30,,,,2,0,2,0,,,,,,,,,0,0,0,0,0,23,23,23,2,0,2,0,,,,,,,,,,,,,,,,,,,,,,,,,,,,,,,,,,,,,,,,,,,,,,,,,,,,,,,,,,,,,,,,30,,,,,,,,800.8641826999374,800.8641826999374,800.8641826999374,800.8641826999374,800.8641826999374,down,1.3267712000524625,20,0,0,99,0.16,0.07999999999999997,down,1.239634900004603,,,,,,,,,,,,,,,,,,,,,,,,,,,,,,,,,,,,,,,,,,,,,,,,,,,,,,,,,,,,0YPYKJ,train_x,red_square,top_left,2025-05-22_15h04.18.649,HideSeek_v1,2022.2.5,59.93676671805206,
,4,9,8,9,4,0,56,,train_dim1_1,24,30,,,,2,0,2,0,,,,,,,,,0,0,0,0,0,23,23,23,3,0,3,0,,,,,,,,,,,,,,,,,,,,,,,,,,,,,,,,,,,,,,,,,,,,,,,,,,,,,,,,,,,,,,,,30,,,,,,,,802.1977618999081,802.1977618999081,802.1977618999081,802.1977618999081,802.1977618999081,down,1.6941601999569684,20,0,0,99,0.16,-2.7755575615628914e-17,down,1.617497400031425,,,,,,,,,,,,,,,,,,,,,,,,,,,,,,,,,,,,,,,,,,,,,,,,,,,,,,,,,,,,0YPYKJ,train_x,red_square,top_left,2025-05-22_15h04.18.649,HideSeek_v1,2022.2.5,59.93676671805206,
,4,9,8,9,4,0,56,,train_dim1_1,24,30,,,,2,0,2,0,,,,,,,,,0,0,0,0,0,23,23,23,4,0,4,0,,,,,,,,,,,,,,,,,,,,,,,,,,,,,,,,,,,,,,,,,,,,,,,,,,,,,,,,,,,,,,,,30,,,,,,,,803.8995244000107,803.8995244000107,803.8995244000107,803.8995244000107,803.8995244000107,return,0.4269914999604225,20,0,0,0,0.16,-2.7755575615628914e-17,return,0.3465090999379754,-4,58,0.16,-2.7755575615628914e-17,,,,,,,,,,,,,,,,,,,,,,,,,,,,,,,,,,,,,,,,,,,,,,,,,,,,,,,,0YPYKJ,train_x,red_square,top_left,2025-05-22_15h04.18.649,HideSeek_v1,2022.2.5,59.93676671805206,
,3,5,3,5,0,0,16,,train_dim1_1,25,30,,,,2,0,2,0,,,,,,,,,0,0,0,0,0,24,24,24,0,0,0,0,,,,,,,,,,,,,,,,,,,,,,,,,stimuli/alien_stimuli/16.png,,,,,,,,,,,,,,,,,,,,,,,,,,,,,stimuli/alien_stimuli/56.png,56,4,26,,,,,,,30,,,,,,,,814.287570699933,814.287570699933,814.287570699933,814.287570699933,814.287570699933,right,2.073390100034885,20,0,0,99,0.16,0,right,1.9746353999944404,,,,,812.7242456999375,814.287570699933,0.48,0.32,0.0,0.32,0.32,0.48,0.32,0.48,0.32,805.9050427000038,805.9050427000038,805.9050427000038,805.9050427000038,805.9050427000038,805.9050427000038,805.9050427000038,805.9050427000038,805.8853939999942,6.941221399931237,return,6.787268900079653,,,,,,,,,,,,,,,,,,,,,,,,,,,,,,,,,0YPYKJ,train_x,red_square,top_left,2025-05-22_15h04.18.649,HideSeek_v1,2022.2.5,59.93676671805206,
,3,5,3,5,0,0,16,,train_dim1_1,25,30,,,,2,0,2,0,,,,,,,,,0,0,0,0,0,24,24,24,1,0,1,0,,,,,,,,,,,,,,,,,,,,,,,,,,,,,,,,,,,,,,,,,,,,,,,,,,,,,,,,,,,,,,,,30,,,,,,,,816.3613305999897,816.3613305999897,816.3613305999897,816.3613305999897,816.3613305999897,return,0.5765462000854313,20,1,0,0,0.16,0,return,0.4843558999709785,-4,59,0.16,0,,,,,,,,,,,,,,,,,,,,,,,,,,,,,,,,,,,,,,,,,,,,,,,,,,,,,,,,0YPYKJ,train_x,red_square,top_left,2025-05-22_15h04.18.649,HideSeek_v1,2022.2.5,59.93676671805206,
,1,6,6,6,5,0,66,,train_dim1_1,26,30,,,,2,0,2,0,,,,,,,,,0,0,0,0,0,25,25,25,0,0,0,0,,,,,,,,,,,,,,,,,,,,,,,,,stimuli/alien_stimuli/66.png,,,,,,,,,,,,,,,,,,,,,,,,,,,,,stimuli/alien_stimuli/16.png,16,3,27,,,,,,,30,,,,,,,,823.9901051999768,823.9901051999768,823.9901051999768,823.9901051999768,823.9901051999768,right,1.5403723999625072,20,1,0,99,0.0,0.08,right,1.4558894999790937,,,,,822.4326179999625,823.9901051999768,0.08,0,0.0,0.0,0.0,0.08,0.08,0.08,0,818.5186817999929,818.5186817999929,818.5186817999929,818.5186817999929,818.5186817999929,818.5186817999929,818.5186817999929,818.5186817999929,818.5124320000642,4.038906899979338,return,3.8886226000031456,,,,,,,,,,,,,,,,,,,,,,,,,,,,,,,,,0YPYKJ,train_x,red_square,top_left,2025-05-22_15h04.18.649,HideSeek_v1,2022.2.5,59.93676671805206,
,1,6,6,6,5,0,66,,train_dim1_1,26,30,,,,2,0,2,0,,,,,,,,,0,0,0,0,0,25,25,25,1,0,1,0,,,,,,,,,,,,,,,,,,,,,,,,,,,,,,,,,,,,,,,,,,,,,,,,,,,,,,,,,,,,,,,,30,,,,,,,,825.5312230999116,825.5312230999116,825.5312230999116,825.5312230999116,825.5312230999116,right,0.9931569999316707,20,1,0,99,0.08,0.08,right,0.9065461000427604,,,,,,,,,,,,,,,,,,,,,,,,,,,,,,,,,,,,,,,,,,,,,,,,,,,,,,,,,,,,0YPYKJ,train_x,red_square,top_left,2025-05-22_15h04.18.649,HideSeek_v1,2022.2.5,59.93676671805206,
,1,6,6,6,5,0,66,,train_dim1_1,26,30,,,,2,0,2,0,,,,,,,,,0,0,0,0,0,25,25,25,2,0,2,0,,,,,,,,,,,,,,,,,,,,,,,,,,,,,,,,,,,,,,,,,,,,,,,,,,,,,,,,,,,,,,,,30,,,,,,,,826.5317521999823,826.5317521999823,826.5317521999823,826.5317521999823,826.5317521999823,right,0.4433112000115216,20,1,0,99,0.16,0.08,right,0.3721299000317231,,,,,,,,,,,,,,,,,,,,,,,,,,,,,,,,,,,,,,,,,,,,,,,,,,,,,,,,,,,,0YPYKJ,train_x,red_square,top_left,2025-05-22_15h04.18.649,HideSeek_v1,2022.2.5,59.93676671805206,
,1,6,6,6,5,0,66,,train_dim1_1,26,30,,,,2,0,2,0,,,,,,,,,0,0,0,0,0,25,25,25,3,0,3,0,,,,,,,,,,,,,,,,,,,,,,,,,,,,,,,,,,,,,,,,,,,,,,,,,,,,,,,,,,,,,,,,30,,,,,,,,826.9840045999736,826.9840045999736,826.9840045999736,826.9840045999736,826.9840045999736,right,0.49337390006985515,20,1,0,99,0.24,0.08,right,0.41880440001841635,,,,,,,,,,,,,,,,,,,,,,,,,,,,,,,,,,,,,,,,,,,,,,,,,,,,,,,,,,,,0YPYKJ,train_x,red_square,top_left,2025-05-22_15h04.18.649,HideSeek_v1,2022.2.5,59.93676671805206,
,1,6,6,6,5,0,66,,train_dim1_1,26,30,,,,2,0,2,0,,,,,,,,,0,0,0,0,0,25,25,25,4,0,4,0,,,,,,,,,,,,,,,,,,,,,,,,,,,,,,,,,,,,,,,,,,,,,,,,,,,,,,,,,,,,,,,,30,,,,,,,,827.4828087999485,827.4828087999485,827.4828087999485,827.4828087999485,827.4828087999485,right,0.6936322000110522,20,1,0,99,0.32,0.08,right,0.6213121999753639,,,,,,,,,,,,,,,,,,,,,,,,,,,,,,,,,,,,,,,,,,,,,,,,,,,,,,,,,,,,0YPYKJ,train_x,red_square,top_left,2025-05-22_15h04.18.649,HideSeek_v1,2022.2.5,59.93676671805206,
,1,6,6,6,5,0,66,,train_dim1_1,26,30,,,,2,0,2,0,,,,,,,,,0,0,0,0,0,25,25,25,5,0,5,0,,,,,,,,,,,,,,,,,,,,,,,,,,,,,,,,,,,,,,,,,,,,,,,,,,,,,,,,,,,,,,,,30,,,,,,,,828.182852900005,828.182852900005,828.182852900005,828.182852900005,828.182852900005,return,0.46010499994736165,21,0,0,1,0.32,0.08,return,0.3805794999934733,-4,64,0.32,0.08,,,,,,,,,,,,,,,,,,,,,,,,,,,,,,,,,,,,,,,,,,,,,,,,,,,,,,,,0YPYKJ,train_x,red_square,top_left,2025-05-22_15h04.18.649,HideSeek_v1,2022.2.5,59.93676671805206,
,0,6,3,6,3,0,46,,train_dim1_1,27,30,,,,2,0,2,0,,,,,,,,,0,0,0,0,0,26,26,26,0,0,0,0,,,,,,,,,,,,,,,,,,,,,,,,,stimuli/alien_stimuli/46.png,,,,,,,,,,,,,,,,,,,,,,,,,,,,,stimuli/alien_stimuli/66.png,66,1,28,,,,,,,30,,,,,,,,832.1462139999494,832.1462139999494,832.1462139999494,832.1462139999494,832.1462139999494,right,1.0734679999295622,21,0,0,99,-0.08,0.08,right,0.9648040999891236,,,,,830.5726145999506,832.1462139999494,0.32,0.08,0.0,0.4,0.08,0.32,0.12,0.32,0.08,830.2225567999994,830.2225567999994,830.2225567999994,830.2225567999994,830.2225567999994,830.2225567999994,830.2225567999994,830.2225567999994,830.2055329999537,0.46911639999598265,return,0.3214367999462411,,,,,,,,,,,,,,,,,,,,,,,,,,,,,,,,,0YPYKJ,train_x,red_square,top_left,2025-05-22_15h04.18.649,HideSeek_v1,2022.2.5,59.93676671805206,
,0,6,3,6,3,0,46,,train_dim1_1,27,30,,,,2,0,2,0,,,,,,,,,0,0,0,0,0,26,26,26,1,0,1,0,,,,,,,,,,,,,,,,,,,,,,,,,,,,,,,,,,,,,,,,,,,,,,,,,,,,,,,,,,,,,,,,30,,,,,,,,833.2059463999467,833.2059463999467,833.2059463999467,833.2059463999467,833.2059463999467,right,0.8428381999256089,21,0,0,99,0.0,0.08,right,0.7627336999867111,,,,,,,,,,,,,,,,,,,,,,,,,,,,,,,,,,,,,,,,,,,,,,,,,,,,,,,,,,,,0YPYKJ,train_x,red_square,top_left,2025-05-22_15h04.18.649,HideSeek_v1,2022.2.5,59.93676671805206,
,0,6,3,6,3,0,46,,train_dim1_1,27,30,,,,2,0,2,0,,,,,,,,,0,0,0,0,0,26,26,26,2,0,2,0,,,,,,,,,,,,,,,,,,,,,,,,,,,,,,,,,,,,,,,,,,,,,,,,,,,,,,,,,,,,,,,,30,,,,,,,,834.0563650999684,834.0563650999684,834.0563650999684,834.0563650999684,834.0563650999684,right,0.860293100005947,21,0,0,99,0.08,0.08,right,0.7766435999656096,,,,,,,,,,,,,,,,,,,,,,,,,,,,,,,,,,,,,,,,,,,,,,,,,,,,,,,,,,,,0YPYKJ,train_x,red_square,top_left,2025-05-22_15h04.18.649,HideSeek_v1,2022.2.5,59.93676671805206,
,0,6,3,6,3,0,46,,train_dim1_1,27,30,,,,2,0,2,0,,,,,,,,,0,0,0,0,0,26,26,26,3,0,3,0,,,,,,,,,,,,,,,,,,,,,,,,,,,,,,,,,,,,,,,,,,,,,,,,,,,,,,,,,,,,,,,,30,,,,,,,,834.9230869999155,834.9230869999155,834.9230869999155,834.9230869999155,834.9230869999155,return,1.593923700042069,22,0,0,1,0.08,0.08,return,1.5115084999706596,-4,67,0.08,0.08,,,,,,,,,,,,,,,,,,,,,,,,,,,,,,,,,,,,,,,,,,,,,,,,,,,,,,,,0YPYKJ,train_x,red_square,top_left,2025-05-22_15h04.18.649,HideSeek_v1,2022.2.5,59.93676671805206,
,3,6,4,6,1,0,26,,train_dim1_1,28,30,,,,2,0,2,0,,,,,,,,,0,0,0,0,0,27,27,27,0,0,0,0,,,,,,,,,,,,,,,,,,,,,,,,,stimuli/alien_stimuli/26.png,,,,,,,,,,,,,,,,,,,,,,,,,,,,,stimuli/alien_stimuli/46.png,46,0,29,,,,,,,30,,,,,,,,840.7134791999124,840.7134791999124,840.7134791999124,840.7134791999124,840.7134791999124,right,0.6539202999556437,22,0,0,99,0.16,0.08,right,0.5557682000799105,,,,,839.1463018999202,840.7134791999124,0.08,0.08,0.0,0.24,0.08,0.08,-0.04,0.08,0.08,838.0811393000185,838.0811393000185,838.0811393000185,838.0811393000185,838.0811393000185,838.0811393000185,838.0811393000185,838.0811393000185,838.0619274000404,1.1697967000072822,return,1.038888799957931,,,,,,,,,,,,,,,,,,,,,,,,,,,,,,,,,0YPYKJ,train_x,red_square,top_left,2025-05-22_15h04.18.649,HideSeek_v1,2022.2.5,59.93676671805206,
,3,6,4,6,1,0,26,,train_dim1_1,28,30,,,,2,0,2,0,,,,,,,,,0,0,0,0,0,27,27,27,1,0,1,0,,,,,,,,,,,,,,,,,,,,,,,,,,,,,,,,,,,,,,,,,,,,,,,,,,,,,,,,,,,,,,,,30,,,,,,,,841.3662165999413,841.3662165999413,841.3662165999413,841.3662165999413,841.3662165999413,return,0.9935175999999046,23,0,0,1,0.16,0.08,return,0.9086194999981672,-4,68,0.16,0.08,,,,,,,,,,,,,,,,,,,,,,,,,,,,,,,,,,,,,,,,,,,,,,,,,,,,,,,,0YPYKJ,train_x,red_square,top_left,2025-05-22_15h04.18.649,HideSeek_v1,2022.2.5,59.93676671805206,
,4,5,8,5,4,0,56,,train_dim1_1,29,30,,,,2,0,2,0,,,,,,,,,0,0,0,0,0,28,28,28,0,0,0,0,,,,,,,,,,,,,,,,,,,,,,,,,stimuli/alien_stimuli/56.png,,,,,,,,,,,,,,,,,,,,,,,,,,,,,stimuli/alien_stimuli/26.png,26,3,30,,,,,,,30,,,,,,,,845.7801954000024,845.7801954000024,845.7801954000024,845.7801954000024,845.7801954000024,right,1.7715731000062078,23,0,0,99,0.24,0,right,1.6781836999580264,,,,,844.2171737999888,845.7801954000024,0.16,0.08,0.0,0.08,0.08,0.16,0.12,0.16,0.08,843.923999199993,843.923999199993,843.923999199993,843.923999199993,843.923999199993,843.923999199993,843.923999199993,843.923999199993,843.9168045000522,0.4027353000128642,return,0.2743639999534935,,,,,,,,,,,,,,,,,,,,,,,,,,,,,,,,,0YPYKJ,train_x,red_square,top_left,2025-05-22_15h04.18.649,HideSeek_v1,2022.2.5,59.93676671805206,
,4,5,8,5,4,0,56,,train_dim1_1,29,30,,,,2,0,2,0,,,,,,,,,0,0,0,0,0,28,28,28,1,0,1,0,,,,,,,,,,,,,,,,,,,,,,,,,,,,,,,,,,,,,,,,,,,,,,,,,,,,,,,,,,,,,,,,30,,,,,,,,847.5524091999978,847.5524091999978,847.5524091999978,847.5524091999978,847.5524091999978,right,1.9439061000011861,23,0,0,99,0.32,0,right,1.856960800010711,,,,,,,,,,,,,,,,,,,,,,,,,,,,,,,,,,,,,,,,,,,,,,,,,,,,,,,,,,,,0YPYKJ,train_x,red_square,top_left,2025-05-22_15h04.18.649,HideSeek_v1,2022.2.5,59.93676671805206,
,4,5,8,5,4,0,56,,train_dim1_1,29,30,,,,2,0,2,0,,,,,,,,,0,0,0,0,0,28,28,28,2,0,2,0,,,,,,,,,,,,,,,,,,,,,,,,,,,,,,,,,,,,,,,,,,,,,,,,,,,,,,,,,,,,,,,,30,,,,,,,,849.5047879000194,849.5047879000194,849.5047879000194,849.5047879000194,849.5047879000194,right,0.809934200020507,23,0,0,99,0.4,0,right,0.7350495000137016,,,,,,,,,,,,,,,,,,,,,,,,,,,,,,,,,,,,,,,,,,,,,,,,,,,,,,,,,,,,0YPYKJ,train_x,red_square,top_left,2025-05-22_15h04.18.649,HideSeek_v1,2022.2.5,59.93676671805206,
,4,5,8,5,4,0,56,,train_dim1_1,29,30,,,,2,0,2,0,,,,,,,,,0,0,0,0,0,28,28,28,3,0,3,0,,,,,,,,,,,,,,,,,,,,,,,,,,,,,,,,,,,,,,,,,,,,,,,,,,,,,,,,,,,,,,,,30,,,,,,,,850.3221359999152,850.3221359999152,850.3221359999152,850.3221359999152,850.3221359999152,right,0.8103777000214905,23,0,0,99,0.48000000000000004,0,right,0.7188339000567794,,,,,,,,,,,,,,,,,,,,,,,,,,,,,,,,,,,,,,,,,,,,,,,,,,,,,,,,,,,,0YPYKJ,train_x,red_square,top_left,2025-05-22_15h04.18.649,HideSeek_v1,2022.2.5,59.93676671805206,
,4,5,8,5,4,0,56,,train_dim1_1,29,30,,,,2,0,2,0,,,,,,,,,0,0,0,0,0,28,28,28,4,0,4,0,,,,,,,,,,,,,,,,,,,,,,,,,,,,,,,,,,,,,,,,,,,,,,,,,,,,,,,,,,,,,,,,30,,,,,,,,851.1379414999392,851.1379414999392,851.1379414999392,851.1379414999392,851.1379414999392,return,0.7934331999858841,24,0,0,1,0.48000000000000004,0,return,0.7189614999806508,-4,72,0.48000000000000004,0,,,,,,,,,,,,,,,,,,,,,,,,,,,,,,,,,,,,,,,,,,,,,,,,,,,,,,,,0YPYKJ,train_x,red_square,top_left,2025-05-22_15h04.18.649,HideSeek_v1,2022.2.5,59.93676671805206,
,2,7,2,7,0,0,16,,train_dim1_1,30,30,,,,2,0,2,0,,,,,,,,,0,0,0,0,0,29,29,29,0,0,0,0,,,,,,,,,,,,,,,,,,,,,,,,,stimuli/alien_stimuli/16.png,,,,,,,,,,,,,,,,,,,,,,,,,,,,,stimuli/alien_stimuli/56.png,56,4,31,,,,,,,30,,,,,,,,856.2689629999222,856.2689629999222,856.2689629999222,856.2689629999222,856.2689629999222,right,1.171972000040114,24,0,0,99,0.08,0.16,right,1.0688873000908643,,,,,854.692052999977,856.2689629999222,0.48,0,0.0,0.32,0.0,0.48,0.32,0.48,0,853.4995565999998,853.4995565999998,853.4995565999998,853.4995565999998,853.4995565999998,853.4995565999998,853.4995565999998,853.4995565999998,853.4916293999529,1.303366299951449,return,1.1756192999891937,,,,,,,,,,,,,,,,,,,,,,,,,,,,,,,,,0YPYKJ,train_x,red_square,top_left,2025-05-22_15h04.18.649,HideSeek_v1,2022.2.5,59.93676671805206,
,2,7,2,7,0,0,16,,train_dim1_1,30,30,,,,2,0,2,0,,,,,,,,,0,0,0,0,0,29,29,29,1,0,1,0,,,,,,,,,,,,,,,,,,,,,,,,,,,,,,,,,,,,,,,,,,,,,,,,,,,,,,,,,,,,,,,,30,,,,,,,,857.4328546000179,857.4328546000179,857.4328546000179,857.4328546000179,857.4328546000179,left,0.407106600003317,24,0,0,99,0.0,0.16,left,0.31683679996058345,,,,,,,,,,,,,,,,,,,,,,,,,,,,,,,,,,,,,,,,,,,,,,,,,,,,,,,,,,,,0YPYKJ,train_x,red_square,top_left,2025-05-22_15h04.18.649,HideSeek_v1,2022.2.5,59.93676671805206,
,2,7,2,7,0,0,16,,train_dim1_1,30,30,,,,2,0,2,0,,,,,,,,,0,0,0,0,0,29,29,29,2,0,2,0,,,,,,,,,,,,,,,,,,,,,,,,,,,,,,,,,,,,,,,,,,,,,,,,,,,,,,,,,,,,,,,,30,,,,,,,,857.846011799993,857.846011799993,857.846011799993,857.846011799993,857.846011799993,return,0.39337210007943213,25,0,0,1,0.0,0.16,return,0.30079429992474616,-4,72,0.0,0.16,,,,,,,,,,,,,,,,,,,,,,,,,,,,,,,,,,,,,,,,,,,,,,,,,,,,,,,,0YPYKJ,train_x,red_square,top_left,2025-05-22_15h04.18.649,HideSeek_v1,2022.2.5,59.93676671805206,
,,,,,,,,,,,30,,,,2,0,2,0,,,,,,,,,,,,,,,,,,,,,,,,,,,,,,,,,,,,,,,,,,,,,,,,,,,,,,,,,,,,,,,,,,,,,,,,,,stimuli/alien_stimuli/16.png,16,2,32,21,0.7,1.0416666666666667,1,1,1,30,0,conditions/schedules/train_x_first/red_square_00/top_left/inputTrain_2.1.xlsx,99,1,2,1,0,,,,,,,,,,,1,,,,,,,,,861.0806733999634,862.624939500005,0,0.16,0.0,0.0,0.16,0,0.0,0,0.16,859.8077796999132,859.8077796999132,859.8077796999132,859.8077796999132,859.8077796999132,859.8077796999132,859.8077796999132,859.8077796999132,859.7969767999718,1.3861073000589386,return,1.2459532999200746,0,0.9,0,1,25,,,,,,,,,,,,,,,,,,,,,,,,,,,,0YPYKJ,train_x,red_square,top_left,2025-05-22_15h04.18.649,HideSeek_v1,2022.2.5,59.93676671805206,
,,,,,,,,,,,,,,,3,0,3,0,0,0,0,0,,,,,,,,,,,,,,,,,,,,,,,,,,,,,,,conditions/schedules/train_x_first/red_square_00/top_left/instructions/Slide17.png,conditions/schedules/train_x_first/red_square_00/top_left/instructions/Audio17.wav,862.624939500005,862.6157978000002,18,"[10.84812530002091, 18.50339919992257, 16.479988200007938, 19.130866400082596, 5.0219909000443295, 4.803032099967822, 5.6186814999673516, 11.389776999945752, 5.640782399917953, 6.908730400027707, 9.519539700006135, 12.723474099999294, 12.357958199921995, 46.18580059998203, 13.342933499952778, 30.202654199907556, 21.419221199932508, 55.36760470003355]","[10.848134999978356, 18.503405799972825, 0.013843100052326918, 0.0343170000705868, 0.013816099963150918, 0.0304366999771446, 0.04697609995491803, 0.06869599991478026, 0.1194603000767529, 0.03002149995882064, 0.01386169996112585, 12.723481499939226, 0.00024399999529123306, 0.00021689990535378456, 13.342940999893472, 0.03478799993172288, 21.419227999984287, 55.367611700086854]",1,[3.1175824999809265],[0.014195800060406327],,,,,,,,,,,,,,,,,,,,,,,,,,,,,,,,,,,,,,,,,,,,,,,,,,,,,,,,,,,,,,,,,,,,,,,,,,,,,,,,,,,,,,,,,,,,,,,,,,,,,,,,,,,,,,,,,,,,,,,,,,0YPYKJ,train_x,red_square,top_left,2025-05-22_15h04.18.649,HideSeek_v1,2022.2.5,59.93676671805206,
,,,,,,,,,,,,,,,3,0,3,0,1,0,1,0,,,,,,,,,,,,,,,,,,,,,,,,,,,,,,,conditions/schedules/train_x_first/red_square_00/top_left/instructions/Slide18.png,conditions/schedules/train_x_first/red_square_00/top_left/instructions/Audio18.wav,918.0675563999685,918.0619754000218,19,"[10.84812530002091, 18.50339919992257, 16.479988200007938, 19.130866400082596, 5.0219909000443295, 4.803032099967822, 5.6186814999673516, 11.389776999945752, 5.640782399917953, 6.908730400027707, 9.519539700006135, 12.723474099999294, 12.357958199921995, 46.18580059998203, 13.342933499952778, 30.202654199907556, 21.419221199932508, 55.36760470003355, 7.215277599985711]","[10.848134999978356, 18.503405799972825, 0.013843100052326918, 0.0343170000705868, 0.013816099963150918, 0.0304366999771446, 0.04697609995491803, 0.06869599991478026, 0.1194603000767529, 0.03002149995882064, 0.01386169996112585, 12.723481499939226, 0.00024399999529123306, 0.00021689990535378456, 13.342940999893472, 0.03478799993172288, 21.419227999984287, 55.367611700086854, 7.21528510004282]",1,[3.1175824999809265],[0.014195800060406327],,,,,,,,,,,,,,,,,,,,,,,,,,,,,,,,,,,,,,,,,,,,,,,,,,,,,,,,,,,,,,,,,,,,,,,,,,,,,,,,,,,,,,,,,,,,,,,,,,,,,,,,,,,,,,,,,,,,,,,,,,0YPYKJ,train_x,red_square,top_left,2025-05-22_15h04.18.649,HideSeek_v1,2022.2.5,59.93676671805206,
,,,,,,,,,,,,,,,3,0,3,0,2,0,2,0,,,,,,,,,,,,,,,,,,,,,,,,,,,,,,,conditions/schedules/train_x_first/red_square_00/top_left/instructions/Slide19.png,conditions/schedules/train_x_first/red_square_00/top_left/instructions/Audio19.wav,925.3215038999915,925.3182015999802,20,"[10.84812530002091, 18.50339919992257, 16.479988200007938, 19.130866400082596, 5.0219909000443295, 4.803032099967822, 5.6186814999673516, 11.389776999945752, 5.640782399917953, 6.908730400027707, 9.519539700006135, 12.723474099999294, 12.357958199921995, 46.18580059998203, 13.342933499952778, 30.202654199907556, 21.419221199932508, 55.36760470003355, 7.215277599985711, 10.368840100010857]","[10.848134999978356, 18.503405799972825, 0.013843100052326918, 0.0343170000705868, 0.013816099963150918, 0.0304366999771446, 0.04697609995491803, 0.06869599991478026, 0.1194603000767529, 0.03002149995882064, 0.01386169996112585, 12.723481499939226, 0.00024399999529123306, 0.00021689990535378456, 13.342940999893472, 0.03478799993172288, 21.419227999984287, 55.367611700086854, 0.013669100007973611, 10.36884650005959]",1,[3.1175824999809265],[0.014195800060406327],,,,,,,,,,,,,,,,,,,,,,,,,,,,,,,,,,,,,,,,,,,,,,,,,,,,,,,,,,,,,,,,,,,,,,,,,,,,,,,,,,,,,,,,,,,,,,,,,,,,,,,,,,,,,,,,,,,,,,,,,,0YPYKJ,train_x,red_square,top_left,2025-05-22_15h04.18.649,HideSeek_v1,2022.2.5,59.93676671805206,
,,,,,,,,,,,,,,,3,0,3,0,3,0,3,0,,,,,,,,,,,,,,,,,,,,,,,,,,,,,,,conditions/schedules/train_x_first/red_square_00/top_left/instructions/Slide20.png,conditions/schedules/train_x_first/red_square_00/top_left/instructions/Audio20.wav,935.7631573999533,935.7600511999917,21,"[10.84812530002091, 18.50339919992257, 16.479988200007938, 19.130866400082596, 5.0219909000443295, 4.803032099967822, 5.6186814999673516, 11.389776999945752, 5.640782399917953, 6.908730400027707, 9.519539700006135, 12.723474099999294, 12.357958199921995, 46.18580059998203, 13.342933499952778, 30.202654199907556, 21.419221199932508, 55.36760470003355, 7.215277599985711, 10.368840100010857, 13.88952289998997]","[10.848134999978356, 18.503405799972825, 0.013843100052326918, 0.0343170000705868, 0.013816099963150918, 0.0304366999771446, 0.04697609995491803, 0.06869599991478026, 0.1194603000767529, 0.03002149995882064, 0.01386169996112585, 12.723481499939226, 0.00024399999529123306, 0.00021689990535378456, 13.342940999893472, 0.03478799993172288, 21.419227999984287, 55.367611700086854, 0.013669100007973611, 10.36884650005959, 13.889529500040226]",1,[3.1175824999809265],[0.014195800060406327],,,,,,,,,,,,,,,,,,,,,,,,,,,,,,,,,,,,,,,,,,,,,,,,,,,,,,,,,,,,,,,,,,,,,,,,,,,,,,,,,,,,,,,,,,,,,,,,,,,,,,,,,,,,,,,,,,,,,,,,,,0YPYKJ,train_x,red_square,top_left,2025-05-22_15h04.18.649,HideSeek_v1,2022.2.5,59.93676671805206,
