trialInstr,x_fixStart,y_fixStart,x_corrSteps,y_corrSteps,x_nrSteps,y_nrSteps,alienID,trialLength,version,trialTrain,praclen,testlen,trial_label,break_on_off,beforeExpLoop.thisRepN,beforeExpLoop.thisTrialN,beforeExpLoop.thisN,beforeExpLoop.thisIndex,mini_instr_trials.thisRepN,mini_instr_trials.thisTrialN,mini_instr_trials.thisN,mini_instr_trials.thisIndex,instrLoop.thisRepN,instrLoop.thisTrialN,instrLoop.thisN,instrLoop.thisIndex,repeat_prac.thisRepN,repeat_prac.thisTrialN,repeat_prac.thisN,repeat_prac.thisIndex,trainLoop.thisRepN,trainLoop.thisTrialN,trainLoop.thisN,trainLoop.thisIndex,moveLoop_train.thisRepN,moveLoop_train.thisTrialN,moveLoop_train.thisN,moveLoop_train.thisIndex,experiment.thisRepN,experiment.thisTrialN,experiment.thisN,experiment.thisIndex,moveLoop_test.thisRepN,moveLoop_test.thisTrialN,moveLoop_test.thisN,moveLoop_test.thisIndex,mini_instr2_trials.thisRepN,mini_instr2_trials.thisTrialN,mini_instr2_trials.thisN,mini_instr2_trials.thisIndex,start_all_time,url,slideStim,audioStim,slides.started,sounds.started,nextButton.numClicks,nextButton.timesOn,nextButton.timesOff,prev_but.numClicks,prev_but.timesOn,prev_but.timesOff,alienStim,instrFile,alienStim_instr,gridImage_instr.started,startPos_3.started,key_instr.started,alienImage_3.started,sounds_1.started,key_instr.keys,key_instr.rt,all_x,all_y,FBy_corrSteps,FBy_fixStart,FBx_corrSteps,FBx_fixStart,FBy_pathSize_check,FBx_pathSize_check,gridImage_9.started,alienImageFB_3.started,startPosFB_3.started,keyFB_3.started,pathLine_ydir_2.started,pathLine_xdir_2.started,alienFace_3.started,sounds_2.started,RTFB_instr,keyFB_3.keys,keyFB_3.rt,draw_alienStim,draw_alienID,test_x,nrepcount,perfthres,percthres,earlierperf,earlystop,nextPrac,fileidx,praclen,saveACC_train,pracFile,nextPrac_train,addNrep,fileidx_endr,repExp,showearly,gridImage_4.started,startPos.started,movePos.started,key_resp.started,alienImage.started,wLy_dir,wLx_dir,x_movePos,y_movePos,buttonPress_train,RTchoice_train,cumAcctrain,aCorr,saveACC_choice,corrAns,x_movePos_end,y_movePos_end,key_resp.keys,key_resp.rt,text_2.started,text_2.stopped,aft_x_corrPos,aft_y_corrPos,y_pathSize_check,x_pathSize_check,y_pathdirY,x_pathdirY,x_pathdirX,x_corrPos,y_corrPos,gridImage_6.started,alienImageFB_2.started,startPosFB_2.started,movePosFB_2.started,keyFB_2.started,pathLine_xdir.started,pathLine_ydir.started,alienFace.started,sounds_4.started,RT_FBtrain,keyFB_2.keys,keyFB_2.rt,saveACC_pre,ACC,within_saveACC_train,earlystop_wloop,cumAcctrain_check,gridImage_3.started,alienImage_test.started,startPos_test.started,movePos_test.started,key_resp_test.started,wLy_dir_test,wLx_dir_test,buttonPress_test,RTchoice_test,cumAcctest,corrAns_test,key_resp_test.keys,key_resp_test.rt,text_3.started,text_3.stopped,total_time,end_all_time,key_resp_3.keys,slides_2.started,sounds_3.started,nextButton_2.numClicks,nextButton_2.timesOn,nextButton_2.timesOff,prev_but_2.numClicks,prev_but_2.timesOn,prev_but_2.timesOff,bye.started,participant,train_first,00_coordinate,starting corner,date,expName,psychopyVersion,frameRate,
,,,,,,,,,,,,,,,0,0,0,0,0,0,0,0,,,,,,,,,,,,,,,,,,,,,,,,,,,,,start_all_time,testround,conditions/schedules/train_y_first/blue_star_00/top_right/instructions/Slide1.png,conditions/schedules/train_y_first/blue_star_00/top_right/instructions/Audio1.wav,729.7047750998754,729.6560769348405,1,[7.435866000130773],[7.435883100144565],0,,,,,,,,,,,,,,,,,,,,,,,,,,,,,,,,,,,,,,,,,,,,,,,,,,,,,,,,,,,,,,,,,,,,,,,,,,,,,,,,,,,,,,,,,,,,,,,,,,,,,,,,,,,,,,,,,,,,,,,,,,,,1P4PJG,train_y,blue_star,top_right,2025-08-27_16h31.04.529,HideSeek_v1,2022.2.5,59.924016382544394,
,,,,,,,,,,,,,,,0,0,0,0,1,0,1,0,,,,,,,,,,,,,,,,,,,,,,,,,,,,,,,conditions/schedules/train_y_first/blue_star_00/top_right/instructions/Slide2.png,conditions/schedules/train_y_first/blue_star_00/top_right/instructions/Audio2.wav,737.1633642998058,737.1615187997231,2,"[7.435866000130773, 18.9293742000591]","[0.00020459992811083794, 18.92938149999827]",0,,,,,,,,,,,,,,,,,,,,,,,,,,,,,,,,,,,,,,,,,,,,,,,,,,,,,,,,,,,,,,,,,,,,,,,,,,,,,,,,,,,,,,,,,,,,,,,,,,,,,,,,,,,,,,,,,,,,,,,,,,,,1P4PJG,train_y,blue_star,top_right,2025-08-27_16h31.04.529,HideSeek_v1,2022.2.5,59.924016382544394,
,,,,,,,,,,,,,,,0,0,0,0,2,0,2,0,,,,,,,,,,,,,,,,,,,,,,,,,,,,,,,conditions/schedules/train_y_first/blue_star_00/top_right/instructions/Slide3.png,conditions/schedules/train_y_first/blue_star_00/top_right/instructions/Audio3.wav,756.1606840998866,756.1609342998127,3,"[7.435866000130773, 18.9293742000591, 16.7799751998391]","[0.00020459992811083794, 18.92938149999827, 16.779982399893925]",0,,,,,,,,,,,,,,,,,,,,,,,,,,,,,,,,,,,,,,,,,,,,,,,,,,,,,,,,,,,,,,,,,,,,,,,,,,,,,,,,,,,,,,,,,,,,,,,,,,,,,,,,,,,,,,,,,,,,,,,,,,,,1P4PJG,train_y,blue_star,top_right,2025-08-27_16h31.04.529,HideSeek_v1,2022.2.5,59.924016382544394,
,,,,,,,,,,,,,,,0,0,0,0,3,0,3,0,,,,,,,,,,,,,,,,,,,,,,,,,,,,,,,conditions/schedules/train_y_first/blue_star_00/top_right/instructions/Slide4.png,conditions/schedules/train_y_first/blue_star_00/top_right/instructions/Audio4.wav,773.0216741999611,773.008339699707,4,"[7.435866000130773, 18.9293742000591, 16.7799751998391, 19.700495900120586]","[0.00020459992811083794, 18.92938149999827, 0.03492469992488623, 19.700502200052142]",0,,,,,,,,,,,,,,,,,,,,,,,,,,,,,,,,,,,,,,,,,,,,,,,,,,,,,,,,,,,,,,,,,,,,,,,,,,,,,,,,,,,,,,,,,,,,,,,,,,,,,,,,,,,,,,,,,,,,,,,,,,,,1P4PJG,train_y,blue_star,top_right,2025-08-27_16h31.04.529,HideSeek_v1,2022.2.5,59.924016382544394,
,,,,,,,,,,,,,,,0,0,0,0,4,0,4,0,,,,,,,,,,,,,,,,,,,,,,,,,,,,,,,conditions/schedules/train_y_first/blue_star_00/top_right/instructions/Slide5.png,conditions/schedules/train_y_first/blue_star_00/top_right/instructions/Audio5.wav,792.7892430999782,792.7913387998706,5,"[7.435866000130773, 18.9293742000591, 16.7799751998391, 19.700495900120586, 5.221211299998686]","[0.00020459992811083794, 18.92938149999827, 0.03492469992488623, 0.03386439988389611, 5.22121850005351]",0,,,,,,,,,,,,,,,,,,,,,,,,,,,,,,,,,,,,,,,,,,,,,,,,,,,,,,,,,,,,,,,,,,,,,,,,,,,,,,,,,,,,,,,,,,,,,,,,,,,,,,,,,,,,,,,,,,,,,,,,,,,,1P4PJG,train_y,blue_star,top_right,2025-08-27_16h31.04.529,HideSeek_v1,2022.2.5,59.924016382544394,
,,,,,,,,,,,,,,,0,0,0,0,5,0,5,0,,,,,,,,,,,,,,,,,,,,,,,,,,,,,,,conditions/schedules/train_y_first/blue_star_00/top_right/instructions/Slide6.png,conditions/schedules/train_y_first/blue_star_00/top_right/instructions/Audio6.wav,798.0609736999031,798.0628174798563,6,"[7.435866000130773, 18.9293742000591, 16.7799751998391, 19.700495900120586, 5.221211299998686, 5.653741399990395]","[0.00020459992811083794, 18.92938149999827, 0.03492469992488623, 0.03386439988389611, 0.049141300143674016, 5.653747899923474]",0,,,,,,,,,,,,,,,,,,,,,,,,,,,,,,,,,,,,,,,,,,,,,,,,,,,,,,,,,,,,,,,,,,,,,,,,,,,,,,,,,,,,,,,,,,,,,,,,,,,,,,,,,,,,,,,,,,,,,,,,,,,,1P4PJG,train_y,blue_star,top_right,2025-08-27_16h31.04.529,HideSeek_v1,2022.2.5,59.924016382544394,
,,,,,,,,,,,,,,,0,0,0,0,6,0,6,0,,,,,,,,,,,,,,,,,,,,,,,,,,,,,,,conditions/schedules/train_y_first/blue_star_00/top_right/instructions/Slide7.png,conditions/schedules/train_y_first/blue_star_00/top_right/instructions/Audio7.wav,803.7849299998488,803.7839946997119,7,"[7.435866000130773, 18.9293742000591, 16.7799751998391, 19.700495900120586, 5.221211299998686, 5.653741399990395, 5.868268999969587]","[0.00020459992811083794, 18.92938149999827, 0.03492469992488623, 0.03386439988389611, 0.049141300143674016, 0.031072800047695637, 5.868275499902666]",0,,,,,,,,,,,,,,,,,,,,,,,,,,,,,,,,,,,,,,,,,,,,,,,,,,,,,,,,,,,,,,,,,,,,,,,,,,,,,,,,,,,,,,,,,,,,,,,,,,,,,,,,,,,,,,,,,,,,,,,,,,,,1P4PJG,train_y,blue_star,top_right,2025-08-27_16h31.04.529,HideSeek_v1,2022.2.5,59.924016382544394,
,,,,,,,,,,,,,,,0,0,0,0,7,0,7,0,,,,,,,,,,,,,,,,,,,,,,,,,,,,,,,conditions/schedules/train_y_first/blue_star_00/top_right/instructions/Slide8.png,conditions/schedules/train_y_first/blue_star_00/top_right/instructions/Audio8.wav,809.7078891999554,809.7056319798809,8,"[7.435866000130773, 18.9293742000591, 16.7799751998391, 19.700495900120586, 5.221211299998686, 5.653741399990395, 5.868268999969587, 11.971898700110614]","[0.00020459992811083794, 18.92938149999827, 0.03492469992488623, 0.03386439988389611, 0.049141300143674016, 0.031072800047695637, 0.00021610013209283352, 11.971905200043693]",0,,,,,,,,,,,,,,,,,,,,,,,,,,,,,,,,,,,,,,,,,,,,,,,,,,,,,,,,,,,,,,,,,,,,,,,,,,,,,,,,,,,,,,,,,,,,,,,,,,,,,,,,,,,,,,,,,,,,,,,,,,,,1P4PJG,train_y,blue_star,top_right,2025-08-27_16h31.04.529,HideSeek_v1,2022.2.5,59.924016382544394,
,,,,,,,,,,,,,,,0,0,0,0,8,0,8,0,,,,,,,,,,,,,,,,,,,,,,,,,,,,,,,conditions/schedules/train_y_first/blue_star_00/top_right/instructions/Slide9.png,conditions/schedules/train_y_first/blue_star_00/top_right/instructions/Audio9.wav,821.7524798999075,821.7487059998093,9,"[7.435866000130773, 18.9293742000591, 16.7799751998391, 19.700495900120586, 5.221211299998686, 5.653741399990395, 5.868268999969587, 11.971898700110614, 6.449141699820757]","[0.00020459992811083794, 18.92938149999827, 0.03492469992488623, 0.03386439988389611, 0.049141300143674016, 0.031072800047695637, 0.00021610013209283352, 0.014111899770796299, 6.449147799983621]",0,,,,,,,,,,,,,,,,,,,,,,,,,,,,,,,,,,,,,,,,,,,,,,,,,,,,,,,,,,,,,,,,,,,,,,,,,,,,,,,,,,,,,,,,,,,,,,,,,,,,,,,,,,,,,,,,,,,,,,,,,,,,1P4PJG,train_y,blue_star,top_right,2025-08-27_16h31.04.529,HideSeek_v1,2022.2.5,59.924016382544394,
,,,,,,,,,,,,,,,0,0,0,0,9,0,9,0,,,,,,,,,,,,,,,,,,,,,,,,,,,,,,,conditions/schedules/train_y_first/blue_star_00/top_right/instructions/Slide10.png,conditions/schedules/train_y_first/blue_star_00/top_right/instructions/Audio10.wav,828.2542864999268,828.2542610798497,10,"[7.435866000130773, 18.9293742000591, 16.7799751998391, 19.700495900120586, 5.221211299998686, 5.653741399990395, 5.868268999969587, 11.971898700110614, 6.449141699820757, 7.2877561000641435]","[0.00020459992811083794, 18.92938149999827, 0.03492469992488623, 0.03386439988389611, 0.049141300143674016, 0.031072800047695637, 0.00021610013209283352, 0.014111899770796299, 0.04794050008058548, 7.287763400003314]",0,,,,,,,,,,,,,,,,,,,,,,,,,,,,,,,,,,,,,,,,,,,,,,,,,,,,,,,,,,,,,,,,,,,,,,,,,,,,,,,,,,,,,,,,,,,,,,,,,,,,,,,,,,,,,,,,,,,,,,,,,,,,1P4PJG,train_y,blue_star,top_right,2025-08-27_16h31.04.529,HideSeek_v1,2022.2.5,59.924016382544394,
,,,,,,,,,,,,,,,0,0,0,0,10,0,10,0,,,,,,,,,,,,,,,,,,,,,,,,,,,,,,,conditions/schedules/train_y_first/blue_star_00/top_right/instructions/Slide11.png,conditions/schedules/train_y_first/blue_star_00/top_right/instructions/Audio11.wav,835.5806221999228,835.5770419597858,11,"[7.435866000130773, 18.9293742000591, 16.7799751998391, 19.700495900120586, 5.221211299998686, 5.653741399990395, 5.868268999969587, 11.971898700110614, 6.449141699820757, 7.2877561000641435, 10.30267889983952]","[0.00020459992811083794, 18.92938149999827, 0.03492469992488623, 0.03386439988389611, 0.049141300143674016, 0.031072800047695637, 0.00021610013209283352, 0.014111899770796299, 0.04794050008058548, 0.06471519987098873, 10.302685499889776]",0,,,,,,,,,,,,,,,,,,,,,,,,,,,,,,,,,,,,,,,,,,,,,,,,,,,,,,,,,,,,,,,,,,,,,,,,,,,,,,,,,,,,,,,,,,,,,,,,,,,,,,,,,,,,,,,,,,,,,,,,,,,,1P4PJG,train_y,blue_star,top_right,2025-08-27_16h31.04.529,HideSeek_v1,2022.2.5,59.924016382544394,
,,,,,,,,,,,,,,,0,0,0,0,11,0,11,0,,,,,,,,,,,,,,,,,,,,,,,,,,,,,,,conditions/schedules/train_y_first/blue_star_00/top_right/instructions/Slide12.png,conditions/schedules/train_y_first/blue_star_00/top_right/instructions/Audio12.wav,845.9521748998668,845.9524467998417,12,"[7.435866000130773, 18.9293742000591, 16.7799751998391, 19.700495900120586, 5.221211299998686, 5.653741399990395, 5.868268999969587, 11.971898700110614, 6.449141699820757, 7.2877561000641435, 10.30267889983952, 14.259581100195646]","[0.00020459992811083794, 18.92938149999827, 0.03492469992488623, 0.03386439988389611, 0.049141300143674016, 0.031072800047695637, 0.00021610013209283352, 0.014111899770796299, 0.04794050008058548, 0.06471519987098873, 0.01403140020556748, 14.259587800130248]",0,,,,,,,,,,,,,,,,,,,,,,,,,,,,,,,,,,,,,,,,,,,,,,,,,,,,,,,,,,,,,,,,,,,,,,,,,,,,,,,,,,,,,,,,,,,,,,,,,,,,,,,,,,,,,,,,,,,,,,,,,,,,1P4PJG,train_y,blue_star,top_right,2025-08-27_16h31.04.529,HideSeek_v1,2022.2.5,59.924016382544394,
1,5,8,5,3,0,-5,66,2,instr_dim1_1,,,,,,0,0,0,0,,,,,0,0,0,0,,,,,,,,,,,,,,,,,,,,,,,,,,,,,,,,,,,,,stimuli/alien_stimuli/66.png,conditions/schedules/train_y_first/blue_star_00/top_right/inputInstr_1.xlsx,stimuli/alien_stimuli/66.png,860.3123786998913,860.3123786998913,860.3123786998913,860.3123786998913,860.3142993397312,return,11.45246859989129,"[-0.16, -0.08, 0, 0.08, 0.16, 0.24, 0.32, 0.4, 0.48, 0.56]","[-0.4, -0.32, -0.24, -0.16, -0.08, 0, 0.08, 0.16, 0.24, 0.32]",3,8,5,5,0.4,0.0,871.9227429998573,871.9227429998573,871.9227429998573,871.9227429998573,871.9227429998573,871.9227429998573,871.9227429998573,871.9072746597695,6.456503200111911,return,6.295220299856737,stimuli/alien_stimuli/66.png,66,5,1,,,,,,,,,,,,,,,,,,,,,,,,,,,,,,,,,,,,,,,,,,,,,,,,,,,,,,,,,,,,,,,,,,,,,,,,,,,,,,,,,,,,,,,,,1P4PJG,train_y,blue_star,top_right,2025-08-27_16h31.04.529,HideSeek_v1,2022.2.5,59.924016382544394,
,,,,,,,,,,,30,,,,0,0,0,0,,,,,,,,,,,,,,,,,,,,,,,,,,,,,,,,,,,,,,,,,,,,,,,,,,,,,,,,,,,,,,,,,,,,,,,,,,,,,,21,0.7,0,0,99,1,30,0,conditions/schedules/train_y_first/blue_star_00/top_right/inputTrain_1.1.xlsx,99,1,1,1,0,,,,,,,,,,,,,,,,,,,,,,,,,,,,,,,,,,,,,,,,,,,,,,,,,,,,,,,,,,,,,,,,,,,,,,,,,,,1P4PJG,train_y,blue_star,top_right,2025-08-27_16h31.04.529,HideSeek_v1,2022.2.5,59.924016382544394,
,,,,,,,,,,,,,,,1,0,1,0,0,0,0,0,,,,,,,,,,,,,,,,,,,,,,,,,,,,,,,conditions/schedules/train_y_first/blue_star_00/top_right/instructions/Slide13.png,conditions/schedules/train_y_first/blue_star_00/top_right/instructions/Audio13.wav,878.3922047999222,878.3792589798337,13,"[7.435866000130773, 18.9293742000591, 16.7799751998391, 19.700495900120586, 5.221211299998686, 5.653741399990395, 5.868268999969587, 11.971898700110614, 6.449141699820757, 7.2877561000641435, 10.30267889983952, 14.259581100195646, 17.200259000062943]","[0.00020459992811083794, 18.92938149999827, 0.03492469992488623, 0.03386439988389611, 0.049141300143674016, 0.031072800047695637, 0.00021610013209283352, 0.014111899770796299, 0.04794050008058548, 0.06471519987098873, 0.01403140020556748, 14.259587800130248, 17.200265599880368]",0,,,,,,,,,,,,,,,,,,,,,,,,,,,,,,,,,,,,,,,,,,,,,,,,,,,,,,,,,,,,,,,,,,,,,,,,,,,,,,,,,,,,,,,,,,,,,,,,,,,,,,,,,,,,,,,,,,,,,,,,,,,,1P4PJG,train_y,blue_star,top_right,2025-08-27_16h31.04.529,HideSeek_v1,2022.2.5,59.924016382544394,
,,,,,,,,,,,,,,,1,0,1,0,1,0,1,0,,,,,,,,,,,,,,,,,,,,,,,,,,,,,,,conditions/schedules/train_y_first/blue_star_00/top_right/instructions/Slide14.png,conditions/schedules/train_y_first/blue_star_00/top_right/instructions/Audio14.wav,895.6528723000083,895.6450523798354,14,"[7.435866000130773, 18.9293742000591, 16.7799751998391, 19.700495900120586, 5.221211299998686, 5.653741399990395, 5.868268999969587, 11.971898700110614, 6.449141699820757, 7.2877561000641435, 10.30267889983952, 14.259581100195646, 17.200259000062943, 17.102677900111303]","[0.00020459992811083794, 18.92938149999827, 0.03492469992488623, 0.03386439988389611, 0.049141300143674016, 0.031072800047695637, 0.00021610013209283352, 0.014111899770796299, 0.04794050008058548, 0.06471519987098873, 0.01403140020556748, 14.259587800130248, 0.05480449995957315, 17.102684499928728]",0,,,,,,,,,,,,,,,,,,,,,,,,,,,,,,,,,,,,,,,,,,,,,,,,,,,,,,,,,,,,,,,,,,,,,,,,,,,,,,,,,,,,,,,,,,,,,,,,,,,,,,,,,,,,,,,,,,,,,,,,,,,,1P4PJG,train_y,blue_star,top_right,2025-08-27_16h31.04.529,HideSeek_v1,2022.2.5,59.924016382544394,
2,7,8,7,8,0,0,61,2,instr_dim1_1,,,,,,1,0,1,0,,,,,0,0,0,0,,,,,,,,,,,,,,,,,,,,,,,,,,,,,,,,,,,,,stimuli/alien_stimuli/61.png,conditions/schedules/train_y_first/blue_star_00/top_right/inputInstr_1.xlsx,stimuli/alien_stimuli/61.png,912.8496902999468,912.8496902999468,912.8496902999468,912.8496902999468,912.841339019686,return,7.895290700020269,"[-0.16, -0.08, 0, 0.08, 0.16, 0.24, 0.32, 0.4, 0.48, 0.56]","[-0.4, -0.32, -0.24, -0.16, -0.08, 0, 0.08, 0.16, 0.24, 0.32]",8,8,7,7,0.0,0.0,920.8839817999396,920.8839817999396,920.8839817999396,920.8839817999396,920.8839817999396,920.8839817999396,920.8839817999396,920.8813602596521,6.089188599959016,return,5.946017700014636,stimuli/alien_stimuli/61.png,61,7,2,,,,,,,,,,,,,,,,,,,,,,,,,,,,,,,,,,,,,,,,,,,,,,,,,,,,,,,,,,,,,,,,,,,,,,,,,,,,,,,,,,,,,,,,,1P4PJG,train_y,blue_star,top_right,2025-08-27_16h31.04.529,HideSeek_v1,2022.2.5,59.924016382544394,
,,,,,,,,,,,30,,,,1,0,1,0,,,,,,,,,,,,,,,,,,,,,,,,,,,,,,,,,,,,,,,,,,,,,,,,,,,,,,,,,,,,,,,,,,,,,,,,,,,,,,21,0.7,0,0,99,1,30,0,conditions/schedules/train_y_first/blue_star_00/top_right/inputTrain_1.1.xlsx,99,1,1,1,0,,,,,,,,,,,,,,,,,,,,,,,,,,,,,,,,,,,,,,,,,,,,,,,,,,,,,,,,,,,,,,,,,,,,,,,,,,,1P4PJG,train_y,blue_star,top_right,2025-08-27_16h31.04.529,HideSeek_v1,2022.2.5,59.924016382544394,
,,,,,,,,,,,,,,,2,0,2,0,0,0,0,0,,,,,,,,,,,,,,,,,,,,,,,,,,,,,,,conditions/schedules/train_y_first/blue_star_00/top_right/instructions/Slide15.png,conditions/schedules/train_y_first/blue_star_00/top_right/instructions/Audio15.wav,927.0062038998585,927.0030309997965,15,"[7.435866000130773, 18.9293742000591, 16.7799751998391, 19.700495900120586, 5.221211299998686, 5.653741399990395, 5.868268999969587, 11.971898700110614, 6.449141699820757, 7.2877561000641435, 10.30267889983952, 14.259581100195646, 17.200259000062943, 17.102677900111303, 44.048643899848685]","[0.00020459992811083794, 18.92938149999827, 0.03492469992488623, 0.03386439988389611, 0.049141300143674016, 0.031072800047695637, 0.00021610013209283352, 0.014111899770796299, 0.04794050008058548, 0.06471519987098873, 0.01403140020556748, 14.259587800130248, 0.05480449995957315, 17.102684499928728, 44.04865129990503]",0,,,,,,,,,,,,,,,,,,,,,,,,,,,,,,,,,,,,,,,,,,,,,,,,,,,,,,,,,,,,,,,,,,,,,,,,,,,,,,,,,,,,,,,,,,,,,,,,,,,,,,,,,,,,,,,,,,,,,,,,,,,,1P4PJG,train_y,blue_star,top_right,2025-08-27_16h31.04.529,HideSeek_v1,2022.2.5,59.924016382544394,
,,,,,,,,,,,,,,,2,0,2,0,1,0,1,0,,,,,,,,,,,,,,,,,,,,,,,,,,,,,,,conditions/schedules/train_y_first/blue_star_00/top_right/instructions/Slide16.png,conditions/schedules/train_y_first/blue_star_00/top_right/instructions/Audio16.wav,971.1248035999015,971.1233738997253,16,"[7.435866000130773, 18.9293742000591, 16.7799751998391, 19.700495900120586, 5.221211299998686, 5.653741399990395, 5.868268999969587, 11.971898700110614, 6.449141699820757, 7.2877561000641435, 10.30267889983952, 14.259581100195646, 17.200259000062943, 17.102677900111303, 44.048643899848685, 22.197084299987182]","[0.00020459992811083794, 18.92938149999827, 0.03492469992488623, 0.03386439988389611, 0.049141300143674016, 0.031072800047695637, 0.00021610013209283352, 0.014111899770796299, 0.04794050008058548, 0.06471519987098873, 0.01403140020556748, 14.259587800130248, 0.05480449995957315, 17.102684499928728, 0.030331799993291497, 22.197090599918738]",0,,,,,,,,,,,,,,,,,,,,,,,,,,,,,,,,,,,,,,,,,,,,,,,,,,,,,,,,,,,,,,,,,,,,,,,,,,,,,,,,,,,,,,,,,,,,,,,,,,,,,,,,,,,,,,,,,,,,,,,,,,,,1P4PJG,train_y,blue_star,top_right,2025-08-27_16h31.04.529,HideSeek_v1,2022.2.5,59.924016382544394,
,5,5,5,1,0,-4,65,,train_dim1_1,1,30,,,,2,0,2,0,,,,,,,,,0,0,0,0,0,0,0,0,0,0,0,0,,,,,,,,,,,,,,,,,,,,,,,,,stimuli/alien_stimuli/65.png,,,,,,,,,,,,,,,,,,,,,,,,,,,,,,,,,,,,,,,30,,,,,,,,993.4263718998991,993.4263718998991,993.4263718998991,993.4263718998991,993.4263718998991,0,0,0.24,0,return,0.16025319998152554,0,0,0,0,0.24,0,return,0.06253690016455948,,,,,,,,,,,,,,,,,,,,,,,,,,,,,,,,,,,,,,,,,,,,,,,,,,,,,,,,1P4PJG,train_y,blue_star,top_right,2025-08-27_16h31.04.529,HideSeek_v1,2022.2.5,59.924016382544394,
,8,7,8,2,0,-5,66,,train_dim1_1,2,30,,,,2,0,2,0,,,,,,,,,0,0,0,0,0,1,1,1,0,0,0,0,,,,,,,,,,,,,,,,,,,,,,,,,stimuli/alien_stimuli/66.png,,,,,,,,,,,,,,,,,,,,,,,,,,,,,stimuli/alien_stimuli/65.png,65,5,3,,,,,,,30,,,,,,,,1003.3712950998452,1003.3712950998452,1003.3712950998452,1003.3712950998452,1003.3712950998452,,,,,down,5.623993300134316,0,0,0,99,0.48,0.08,down,5.534875100012869,1001.815018999856,1003.3712950998452,0.24,-0.32,0.32,0.0,-0.16,0.24,0.24,0.24,-0.32,995.1462927998509,995.1462927998509,995.1462927998509,995.1462927998509,995.1462927998509,995.1462927998509,995.1462927998509,995.1462927998509,995.1263770396588,6.791148399934173,return,6.651421300135553,,,,,,,,,,,,,,,,,,,,,,,,,,,,,,,,,1P4PJG,train_y,blue_star,top_right,2025-08-27_16h31.04.529,HideSeek_v1,2022.2.5,59.924016382544394,
,8,7,8,2,0,-5,66,,train_dim1_1,2,30,,,,2,0,2,0,,,,,,,,,0,0,0,0,0,1,1,1,1,0,1,0,,,,,,,,,,,,,,,,,,,,,,,,,,,,,,,,,,,,,,,,,,,,,,,,,,,,,,,,,,,,,,,,30,,,,,,,,1009.0101503999904,1009.0101503999904,1009.0101503999904,1009.0101503999904,1009.0101503999904,,,,,down,1.3217420000582933,0,0,0,99,0.48,0.0,down,1.2334890998899937,,,,,,,,,,,,,,,,,,,,,,,,,,,,,,,,,,,,,,,,,,,,,,,,,,,,,,,,1P4PJG,train_y,blue_star,top_right,2025-08-27_16h31.04.529,HideSeek_v1,2022.2.5,59.924016382544394,
,8,7,8,2,0,-5,66,,train_dim1_1,2,30,,,,2,0,2,0,,,,,,,,,0,0,0,0,0,1,1,1,2,0,2,0,,,,,,,,,,,,,,,,,,,,,,,,,,,,,,,,,,,,,,,,,,,,,,,,,,,,,,,,,,,,,,,,30,,,,,,,,1010.3355504998472,1010.3355504998472,1010.3355504998472,1010.3355504998472,1010.3355504998472,,,,,down,1.0761318998411298,0,0,0,99,0.48,-0.08,down,0.9993624000344425,,,,,,,,,,,,,,,,,,,,,,,,,,,,,,,,,,,,,,,,,,,,,,,,,,,,,,,,1P4PJG,train_y,blue_star,top_right,2025-08-27_16h31.04.529,HideSeek_v1,2022.2.5,59.924016382544394,
,8,7,8,2,0,-5,66,,train_dim1_1,2,30,,,,2,0,2,0,,,,,,,,,0,0,0,0,0,1,1,1,3,0,3,0,,,,,,,,,,,,,,,,,,,,,,,,,,,,,,,,,,,,,,,,,,,,,,,,,,,,,,,,,,,,,,,,30,,,,,,,,1011.4205334999133,1011.4205334999133,1011.4205334999133,1011.4205334999133,1011.4205334999133,,,,,down,4.580230800202116,0,0,0,99,0.48,-0.16,down,4.495389700168744,,,,,,,,,,,,,,,,,,,,,,,,,,,,,,,,,,,,,,,,,,,,,,,,,,,,,,,,1P4PJG,train_y,blue_star,top_right,2025-08-27_16h31.04.529,HideSeek_v1,2022.2.5,59.924016382544394,
,8,7,8,2,0,-5,66,,train_dim1_1,2,30,,,,2,0,2,0,,,,,,,,,0,0,0,0,0,1,1,1,4,0,4,0,,,,,,,,,,,,,,,,,,,,,,,,,,,,,,,,,,,,,,,,,,,,,,,,,,,,,,,,,,,,,,,,30,,,,,,,,1016.0106412000023,1016.0106412000023,1016.0106412000023,1016.0106412000023,1016.0106412000023,,,,,down,0.9413165999576449,0,0,0,99,0.48,-0.24,down,0.8571001999080181,,,,,,,,,,,,,,,,,,,,,,,,,,,,,,,,,,,,,,,,,,,,,,,,,,,,,,,,1P4PJG,train_y,blue_star,top_right,2025-08-27_16h31.04.529,HideSeek_v1,2022.2.5,59.924016382544394,
,8,7,8,2,0,-5,66,,train_dim1_1,2,30,,,,2,0,2,0,,,,,,,,,0,0,0,0,0,1,1,1,5,0,5,0,,,,,,,,,,,,,,,,,,,,,,,,,,,,,,,,,,,,,,,,,,,,,,,,,,,,,,,,,,,,,,,,30,,,,,,,,1016.9578452999704,1016.9578452999704,1016.9578452999704,1016.9578452999704,1016.9578452999704,-5,0,0.48,-0.24,return,0.9605107998941094,1,0,0,1,0.48,-0.24,return,0.8776134001091123,,,,,,,,,,,,,,,,,,,,,,,,,,,,,,,,,,,,,,,,,,,,,,,,,,,,,,,,1P4PJG,train_y,blue_star,top_right,2025-08-27_16h31.04.529,HideSeek_v1,2022.2.5,59.924016382544394,
,7,8,7,5,0,-3,64,,train_dim1_1,3,30,,,,2,0,2,0,,,,,,,,,0,0,0,0,0,2,2,2,0,0,0,0,,,,,,,,,,,,,,,,,,,,,,,,,stimuli/alien_stimuli/64.png,,,,,,,,,,,,,,,,,,,,,,,,,,,,,stimuli/alien_stimuli/66.png,66,8,4,,,,,,,30,,,,,,,,1025.0747693998273,1025.0747693998273,1025.0747693998273,1025.0747693998273,1025.0747693998273,,,,,left,8.857772400137037,1,0,0,99,0.32,0.24,left,8.772710500052199,1023.5164827997796,1025.0747693998273,0.48,-0.24,0.4,0.0,-0.039999999999999994,0.48,0.48,0.48,-0.24,1019.4890917998273,1019.4890917998273,1019.4890917998273,1019.4890917998273,1019.4890917998273,1019.4890917998273,1019.4890917998273,1019.4890917998273,1019.4796753398375,4.139196800068021,return,4.005098600173369,,,,,,,,,,,,,,,,,,,,,,,,,,,,,,,,,1P4PJG,train_y,blue_star,top_right,2025-08-27_16h31.04.529,HideSeek_v1,2022.2.5,59.924016382544394,
,7,8,7,5,0,-3,64,,train_dim1_1,3,30,,,,2,0,2,0,,,,,,,,,0,0,0,0,0,2,2,2,1,0,1,0,,,,,,,,,,,,,,,,,,,,,,,,,,,,,,,,,,,,,,,,,,,,,,,,,,,,,,,,,,,,,,,,30,,,,,,,,1033.9420939998236,1033.9420939998236,1033.9420939998236,1033.9420939998236,1033.9420939998236,,,,,left,1.0416759999934584,1,0,0,99,0.24,0.24,left,0.9654444998595864,,,,,,,,,,,,,,,,,,,,,,,,,,,,,,,,,,,,,,,,,,,,,,,,,,,,,,,,1P4PJG,train_y,blue_star,top_right,2025-08-27_16h31.04.529,HideSeek_v1,2022.2.5,59.924016382544394,
,7,8,7,5,0,-3,64,,train_dim1_1,3,30,,,,2,0,2,0,,,,,,,,,0,0,0,0,0,2,2,2,2,0,2,0,,,,,,,,,,,,,,,,,,,,,,,,,,,,,,,,,,,,,,,,,,,,,,,,,,,,,,,,,,,,,,,,30,,,,,,,,1034.988480999833,1034.988480999833,1034.988480999833,1034.988480999833,1034.988480999833,,,,,left,0.6602371002081782,1,0,0,99,0.15999999999999998,0.24,left,0.5834357000421733,,,,,,,,,,,,,,,,,,,,,,,,,,,,,,,,,,,,,,,,,,,,,,,,,,,,,,,,1P4PJG,train_y,blue_star,top_right,2025-08-27_16h31.04.529,HideSeek_v1,2022.2.5,59.924016382544394,
,7,8,7,5,0,-3,64,,train_dim1_1,3,30,,,,2,0,2,0,,,,,,,,,0,0,0,0,0,2,2,2,3,0,3,0,,,,,,,,,,,,,,,,,,,,,,,,,,,,,,,,,,,,,,,,,,,,,,,,,,,,,,,,,,,,,,,,30,,,,,,,,1035.6573727999348,1035.6573727999348,1035.6573727999348,1035.6573727999348,1035.6573727999348,,,,,left,0.5599764999933541,1,0,0,99,0.07999999999999997,0.24,left,0.48329939995892346,,,,,,,,,,,,,,,,,,,,,,,,,,,,,,,,,,,,,,,,,,,,,,,,,,,,,,,,1P4PJG,train_y,blue_star,top_right,2025-08-27_16h31.04.529,HideSeek_v1,2022.2.5,59.924016382544394,
,7,8,7,5,0,-3,64,,train_dim1_1,3,30,,,,2,0,2,0,,,,,,,,,0,0,0,0,0,2,2,2,4,0,4,0,,,,,,,,,,,,,,,,,,,,,,,,,,,,,,,,,,,,,,,,,,,,,,,,,,,,,,,,,,,,,,,,30,,,,,,,,1036.225208999822,1036.225208999822,1036.225208999822,1036.225208999822,1036.225208999822,,,,,left,0.526595399947837,1,0,0,99,-2.7755575615628914e-17,0.24,left,0.44408709998242557,,,,,,,,,,,,,,,,,,,,,,,,,,,,,,,,,,,,,,,,,,,,,,,,,,,,,,,,1P4PJG,train_y,blue_star,top_right,2025-08-27_16h31.04.529,HideSeek_v1,2022.2.5,59.924016382544394,
,7,8,7,5,0,-3,64,,train_dim1_1,3,30,,,,2,0,2,0,,,,,,,,,0,0,0,0,0,2,2,2,5,0,5,0,,,,,,,,,,,,,,,,,,,,,,,,,,,,,,,,,,,,,,,,,,,,,,,,,,,,,,,,,,,,,,,,30,,,,,,,,1036.7584319999442,1036.7584319999442,1036.7584319999442,1036.7584319999442,1036.7584319999442,-5,-5,-2.7755575615628914e-17,0.24,return,0.7433515000157058,1,0,0,0,-2.7755575615628914e-17,0.24,return,0.6590074000414461,,,,,,,,,,,,,,,,,,,,,,,,,,,,,,,,,,,,,,,,,,,,,,,,,,,,,,,,1P4PJG,train_y,blue_star,top_right,2025-08-27_16h31.04.529,HideSeek_v1,2022.2.5,59.924016382544394,
,5,6,5,5,0,-1,62,,train_dim1_1,4,30,,,,2,0,2,0,,,,,,,,,0,0,0,0,0,3,3,3,0,0,0,0,,,,,,,,,,,,,,,,,,,,,,,,,stimuli/alien_stimuli/62.png,,,,,,,,,,,,,,,,,,,,,,,,,,,,,stimuli/alien_stimuli/64.png,64,7,5,,,,,,,30,,,,,,,,1046.2927881998476,1046.2927881998476,1046.2927881998476,1046.2927881998476,1046.2927881998476,-5,-5,0.24,0.08,return,3.489474300062284,1,1,0,0,0.24,0.08,return,3.4025177999865264,1044.7341125998646,1046.2927881998476,0.4,0,0.24,0.0,0.12,0.4,0.4,0.4,0,1039.0703175999224,1039.0703175999224,1039.0703175999224,1039.0703175999224,1039.0703175999224,1039.0703175999224,1039.0703175999224,1039.0703175999224,1039.0630581398264,5.773191399872303,return,5.637469100067392,,,,,,,,,,,,,,,,,,,,,,,,,,,,,,,,,1P4PJG,train_y,blue_star,top_right,2025-08-27_16h31.04.529,HideSeek_v1,2022.2.5,59.924016382544394,
,8,8,8,8,0,0,61,,train_dim1_1,5,30,,,,2,0,2,0,,,,,,,,,0,0,0,0,0,4,4,4,0,0,0,0,,,,,,,,,,,,,,,,,,,,,,,,,stimuli/alien_stimuli/61.png,,,,,,,,,,,,,,,,,,,,,,,,,,,,,stimuli/alien_stimuli/62.png,62,5,6,,,,,,,30,,,,,,,,1062.4812443999108,1062.4812443999108,1062.4812443999108,1062.4812443999108,1062.4812443999108,-5,-5,0.48,0.24,return,8.546963199973106,2,0,0,1,0.48,0.24,return,8.45639230008237,1060.9139038999565,1062.4812443999108,0.24,0,0.08,0.0,0.04,0.24,0.24,0.24,0,1051.3701659999788,1051.3701659999788,1051.3701659999788,1051.3701659999788,1051.3701659999788,1051.3701659999788,1051.3701659999788,1051.3701659999788,1051.3567136398751,9.660034599946812,return,9.515062000136822,,,,,,,,,,,,,,,,,,,,,,,,,,,,,,,,,1P4PJG,train_y,blue_star,top_right,2025-08-27_16h31.04.529,HideSeek_v1,2022.2.5,59.924016382544394,
,6,9,6,8,0,-1,62,,train_dim1_1,6,30,,,,2,0,2,0,,,,,,,,,0,0,0,0,0,5,5,5,0,0,0,0,,,,,,,,,,,,,,,,,,,,,,,,,stimuli/alien_stimuli/62.png,,,,,,,,,,,,,,,,,,,,,,,,,,,,,stimuli/alien_stimuli/61.png,61,8,7,,,,,,,30,,,,,,,,1076.282352599781,1076.282352599781,1076.282352599781,1076.282352599781,1076.282352599781,,,,,down,2.204068200197071,2,0,0,99,0.32,0.24,down,2.1296681000385433,1074.7255497998558,1076.282352599781,0.48,0.24,0.0,0.0,0.24,0.48,0.48,0.48,0.24,1072.5897121999878,1072.5897121999878,1072.5897121999878,1072.5897121999878,1072.5897121999878,1072.5897121999878,1072.5897121999878,1072.5897121999878,1072.5906522598118,2.253749500028789,return,2.1063594000879675,,,,,,,,,,,,,,,,,,,,,,,,,,,,,,,,,1P4PJG,train_y,blue_star,top_right,2025-08-27_16h31.04.529,HideSeek_v1,2022.2.5,59.924016382544394,
,6,9,6,8,0,-1,62,,train_dim1_1,6,30,,,,2,0,2,0,,,,,,,,,0,0,0,0,0,5,5,5,1,0,1,0,,,,,,,,,,,,,,,,,,,,,,,,,,,,,,,,,,,,,,,,,,,,,,,,,,,,,,,,,,,,,,,,30,,,,,,,,1078.4962401997764,1078.4962401997764,1078.4962401997764,1078.4962401997764,1078.4962401997764,-6,-5,0.32,0.24,return,0.809211099985987,3,0,0,1,0.32,0.24,return,0.7316195999737829,,,,,,,,,,,,,,,,,,,,,,,,,,,,,,,,,,,,,,,,,,,,,,,,,,,,,,,,1P4PJG,train_y,blue_star,top_right,2025-08-27_16h31.04.529,HideSeek_v1,2022.2.5,59.924016382544394,
,6,8,6,5,0,-3,64,,train_dim1_1,7,30,,,,2,0,2,0,,,,,,,,,0,0,0,0,0,6,6,6,0,0,0,0,,,,,,,,,,,,,,,,,,,,,,,,,stimuli/alien_stimuli/64.png,,,,,,,,,,,,,,,,,,,,,,,,,,,,,stimuli/alien_stimuli/62.png,62,6,8,,,,,,,30,,,,,,,,1084.1860116999596,1084.1860116999596,1084.1860116999596,1084.1860116999596,1084.1860116999596,,,,,left,1.6883894000202417,3,0,0,99,0.24,0.24,left,1.608403000049293,1082.6323559999,1084.1860116999596,0.32,0.24,0.08,0.0,0.28,0.32,0.32,0.32,0.24,1080.861536399927,1080.861536399927,1080.861536399927,1080.861536399927,1080.861536399927,1080.861536399927,1080.861536399927,1080.861536399927,1080.8476371197962,1.8700868000742048,return,1.7443980001844466,,,,,,,,,,,,,,,,,,,,,,,,,,,,,,,,,1P4PJG,train_y,blue_star,top_right,2025-08-27_16h31.04.529,HideSeek_v1,2022.2.5,59.924016382544394,
,6,8,6,5,0,-3,64,,train_dim1_1,7,30,,,,2,0,2,0,,,,,,,,,0,0,0,0,0,6,6,6,1,0,1,0,,,,,,,,,,,,,,,,,,,,,,,,,,,,,,,,,,,,,,,,,,,,,,,,,,,,,,,,,,,,,,,,30,,,,,,,,1085.8851869998034,1085.8851869998034,1085.8851869998034,1085.8851869998034,1085.8851869998034,,,,,left,0.39277229993604124,3,0,0,99,0.15999999999999998,0.24,left,0.30718140001408756,,,,,,,,,,,,,,,,,,,,,,,,,,,,,,,,,,,,,,,,,,,,,,,,,,,,,,,,1P4PJG,train_y,blue_star,top_right,2025-08-27_16h31.04.529,HideSeek_v1,2022.2.5,59.924016382544394,
,6,8,6,5,0,-3,64,,train_dim1_1,7,30,,,,2,0,2,0,,,,,,,,,0,0,0,0,0,6,6,6,2,0,2,0,,,,,,,,,,,,,,,,,,,,,,,,,,,,,,,,,,,,,,,,,,,,,,,,,,,,,,,,,,,,,,,,30,,,,,,,,1086.2835976998322,1086.2835976998322,1086.2835976998322,1086.2835976998322,1086.2835976998322,,,,,left,0.3766145999543369,3,0,0,99,0.07999999999999997,0.24,left,0.2975043000187725,,,,,,,,,,,,,,,,,,,,,,,,,,,,,,,,,,,,,,,,,,,,,,,,,,,,,,,,1P4PJG,train_y,blue_star,top_right,2025-08-27_16h31.04.529,HideSeek_v1,2022.2.5,59.924016382544394,
,6,8,6,5,0,-3,64,,train_dim1_1,7,30,,,,2,0,2,0,,,,,,,,,0,0,0,0,0,6,6,6,3,0,3,0,,,,,,,,,,,,,,,,,,,,,,,,,,,,,,,,,,,,,,,,,,,,,,,,,,,,,,,,,,,,,,,,30,,,,,,,,1086.674917700002,1086.674917700002,1086.674917700002,1086.674917700002,1086.674917700002,-6,-8,0.07999999999999997,0.24,return,1.1107061998918653,3,0,0,0,0.07999999999999997,0.24,return,1.0161123999860138,,,,,,,,,,,,,,,,,,,,,,,,,,,,,,,,,,,,,,,,,,,,,,,,,,,,,,,,1P4PJG,train_y,blue_star,top_right,2025-08-27_16h31.04.529,HideSeek_v1,2022.2.5,59.924016382544394,
,9,7,9,7,0,0,61,,train_dim1_1,8,30,,,,2,0,2,0,,,,,,,,,0,0,0,0,0,7,7,7,0,0,0,0,,,,,,,,,,,,,,,,,,,,,,,,,stimuli/alien_stimuli/61.png,,,,,,,,,,,,,,,,,,,,,,,,,,,,,stimuli/alien_stimuli/64.png,64,6,9,,,,,,,30,,,,,,,,1093.194939599838,1093.194939599838,1093.194939599838,1093.194939599838,1093.194939599838,,,,,up,3.8894954998977482,3,0,0,99,0.56,0.24,up,3.815417099976912,1091.6398870998528,1093.194939599838,0.32,0,0.24,0.0,0.12,0.32,0.32,0.32,0,1089.3330869998317,1089.3330869998317,1089.3330869998317,1089.3330869998317,1089.3330869998317,1089.3330869998317,1089.3330869998317,1089.3330869998317,1089.321043419745,2.4043382999952883,return,2.278831400210038,,,,,,,,,,,,,,,,,,,,,,,,,,,,,,,,,1P4PJG,train_y,blue_star,top_right,2025-08-27_16h31.04.529,HideSeek_v1,2022.2.5,59.924016382544394,
,9,7,9,7,0,0,61,,train_dim1_1,8,30,,,,2,0,2,0,,,,,,,,,0,0,0,0,0,7,7,7,1,0,1,0,,,,,,,,,,,,,,,,,,,,,,,,,,,,,,,,,,,,,,,,,,,,,,,,,,,,,,,,,,,,,,,,30,,,,,,,,1097.0924189998768,1097.0924189998768,1097.0924189998768,1097.0924189998768,1097.0924189998768,-5,-8,0.56,0.24,return,0.5099225000012666,3,1,0,0,0.56,0.24,return,0.41981670004315674,,,,,,,,,,,,,,,,,,,,,,,,,,,,,,,,,,,,,,,,,,,,,,,,,,,,,,,,1P4PJG,train_y,blue_star,top_right,2025-08-27_16h31.04.529,HideSeek_v1,2022.2.5,59.924016382544394,
,9,8,9,4,0,-4,65,,train_dim1_1,9,30,,,,2,0,2,0,,,,,,,,,0,0,0,0,0,8,8,8,0,0,0,0,,,,,,,,,,,,,,,,,,,,,,,,,stimuli/alien_stimuli/65.png,,,,,,,,,,,,,,,,,,,,,,,,,,,,,stimuli/alien_stimuli/61.png,61,9,10,,,,,,,30,,,,,,,,1102.8663644997869,1102.8663644997869,1102.8663644997869,1102.8663644997869,1102.8663644997869,,,,,down,2.8914520998951048,3,1,0,99,0.56,0.15999999999999998,down,2.8168285000137985,1101.3144054999575,1102.8663644997869,0.56,0.16,0.0,0.0,0.16,0.56,0.56,0.56,0.16,1099.1562937998679,1099.1562937998679,1099.1562937998679,1099.1562937998679,1099.1562937998679,1099.1562937998679,1099.1562937998679,1099.1562937998679,1099.1464414197021,2.2533586998470128,return,2.127668699948117,,,,,,,,,,,,,,,,,,,,,,,,,,,,,,,,,1P4PJG,train_y,blue_star,top_right,2025-08-27_16h31.04.529,HideSeek_v1,2022.2.5,59.924016382544394,
,9,8,9,4,0,-4,65,,train_dim1_1,9,30,,,,2,0,2,0,,,,,,,,,0,0,0,0,0,8,8,8,1,0,1,0,,,,,,,,,,,,,,,,,,,,,,,,,,,,,,,,,,,,,,,,,,,,,,,,,,,,,,,,,,,,,,,,30,,,,,,,,1105.7674628999084,1105.7674628999084,1105.7674628999084,1105.7674628999084,1105.7674628999084,,,,,down,0.39296560012735426,3,1,0,99,0.56,0.07999999999999997,down,0.31442900002002716,,,,,,,,,,,,,,,,,,,,,,,,,,,,,,,,,,,,,,,,,,,,,,,,,,,,,,,,1P4PJG,train_y,blue_star,top_right,2025-08-27_16h31.04.529,HideSeek_v1,2022.2.5,59.924016382544394,
,9,8,9,4,0,-4,65,,train_dim1_1,9,30,,,,2,0,2,0,,,,,,,,,0,0,0,0,0,8,8,8,2,0,2,0,,,,,,,,,,,,,,,,,,,,,,,,,,,,,,,,,,,,,,,,,,,,,,,,,,,,,,,,,,,,,,,,30,,,,,,,,1106.1672886998858,1106.1672886998858,1106.1672886998858,1106.1672886998858,1106.1672886998858,,,,,down,0.34351049992255867,3,1,0,99,0.56,-2.7755575615628914e-17,down,0.26784910005517304,,,,,,,,,,,,,,,,,,,,,,,,,,,,,,,,,,,,,,,,,,,,,,,,,,,,,,,,1P4PJG,train_y,blue_star,top_right,2025-08-27_16h31.04.529,HideSeek_v1,2022.2.5,59.924016382544394,
,9,8,9,4,0,-4,65,,train_dim1_1,9,30,,,,2,0,2,0,,,,,,,,,0,0,0,0,0,8,8,8,3,0,3,0,,,,,,,,,,,,,,,,,,,,,,,,,,,,,,,,,,,,,,,,,,,,,,,,,,,,,,,,,,,,,,,,30,,,,,,,,1106.5165061999578,1106.5165061999578,1106.5165061999578,1106.5165061999578,1106.5165061999578,,,,,down,0.4928653999231756,3,1,0,99,0.56,-0.08000000000000003,down,0.41393559984862804,,,,,,,,,,,,,,,,,,,,,,,,,,,,,,,,,,,,,,,,,,,,,,,,,,,,,,,,1P4PJG,train_y,blue_star,top_right,2025-08-27_16h31.04.529,HideSeek_v1,2022.2.5,59.924016382544394,
,9,8,9,4,0,-4,65,,train_dim1_1,9,30,,,,2,0,2,0,,,,,,,,,0,0,0,0,0,8,8,8,4,0,4,0,,,,,,,,,,,,,,,,,,,,,,,,,,,,,,,,,,,,,,,,,,,,,,,,,,,,,,,,,,,,,,,,30,,,,,,,,1107.017569199903,1107.017569199903,1107.017569199903,1107.017569199903,1107.017569199903,,,,,down,0.3766350999940187,3,1,0,99,0.56,-0.16000000000000003,down,0.2952288999222219,,,,,,,,,,,,,,,,,,,,,,,,,,,,,,,,,,,,,,,,,,,,,,,,,,,,,,,,1P4PJG,train_y,blue_star,top_right,2025-08-27_16h31.04.529,HideSeek_v1,2022.2.5,59.924016382544394,
,9,8,9,4,0,-4,65,,train_dim1_1,9,30,,,,2,0,2,0,,,,,,,,,0,0,0,0,0,8,8,8,5,0,5,0,,,,,,,,,,,,,,,,,,,,,,,,,,,,,,,,,,,,,,,,,,,,,,,,,,,,,,,,,,,,,,,,30,,,,,,,,1107.4014457999729,1107.4014457999729,1107.4014457999729,1107.4014457999729,1107.4014457999729,-10,-8,0.56,-0.16000000000000003,return,0.5933453999459743,3,1,0,0,0.56,-0.16000000000000003,return,0.5076556999702007,,,,,,,,,,,,,,,,,,,,,,,,,,,,,,,,,,,,,,,,,,,,,,,,,,,,,,,,1P4PJG,train_y,blue_star,top_right,2025-08-27_16h31.04.529,HideSeek_v1,2022.2.5,59.924016382544394,
,7,7,7,2,0,-5,66,,train_dim1_1,10,30,,,,2,0,2,0,,,,,,,,,0,0,0,0,0,9,9,9,0,0,0,0,,,,,,,,,,,,,,,,,,,,,,,,,stimuli/alien_stimuli/66.png,,,,,,,,,,,,,,,,,,,,,,,,,,,,,stimuli/alien_stimuli/65.png,65,9,11,,,,,,,30,,,,,,,,1113.5669114999473,1113.5669114999473,1113.5669114999473,1113.5669114999473,1113.5669114999473,,,,,right,2.185237400000915,3,1,0,99,0.48000000000000004,0.16,right,2.107002899982035,1112.0067940999288,1113.5669114999473,0.56,-0.08,0.32,0.0,0.07999999999999999,0.56,0.56,0.56,-0.08,1109.5796555997804,1109.5796555997804,1109.5796555997804,1109.5796555997804,1109.5796555997804,1109.5796555997804,1109.5796555997804,1109.5796555997804,1109.5711748598144,2.5544563999865204,return,2.397356500150636,,,,,,,,,,,,,,,,,,,,,,,,,,,,,,,,,1P4PJG,train_y,blue_star,top_right,2025-08-27_16h31.04.529,HideSeek_v1,2022.2.5,59.924016382544394,
,7,7,7,2,0,-5,66,,train_dim1_1,10,30,,,,2,0,2,0,,,,,,,,,0,0,0,0,0,9,9,9,1,0,1,0,,,,,,,,,,,,,,,,,,,,,,,,,,,,,,,,,,,,,,,,,,,,,,,,,,,,,,,,,,,,,,,,30,,,,,,,,1115.7588573999237,1115.7588573999237,1115.7588573999237,1115.7588573999237,1115.7588573999237,,,,,right,0.29267299990169704,3,1,0,99,0.56,0.16,right,0.20599479996599257,,,,,,,,,,,,,,,,,,,,,,,,,,,,,,,,,,,,,,,,,,,,,,,,,,,,,,,,1P4PJG,train_y,blue_star,top_right,2025-08-27_16h31.04.529,HideSeek_v1,2022.2.5,59.924016382544394,
,7,7,7,2,0,-5,66,,train_dim1_1,10,30,,,,2,0,2,0,,,,,,,,,0,0,0,0,0,9,9,9,2,0,2,0,,,,,,,,,,,,,,,,,,,,,,,,,,,,,,,,,,,,,,,,,,,,,,,,,,,,,,,,,,,,,,,,30,,,,,,,,1116.0604417999275,1116.0604417999275,1116.0604417999275,1116.0604417999275,1116.0604417999275,-10,-6,0.56,0.16,return,0.4100377999711782,3,0,0,0,0.56,0.16,return,0.31947039999067783,,,,,,,,,,,,,,,,,,,,,,,,,,,,,,,,,,,,,,,,,,,,,,,,,,,,,,,,1P4PJG,train_y,blue_star,top_right,2025-08-27_16h31.04.529,HideSeek_v1,2022.2.5,59.924016382544394,
,9,6,9,2,0,-4,65,,train_dim1_1,11,30,,,,2,0,2,0,,,,,,,,,0,0,0,0,0,10,10,10,0,0,0,0,,,,,,,,,,,,,,,,,,,,,,,,,stimuli/alien_stimuli/65.png,,,,,,,,,,,,,,,,,,,,,,,,,,,,,stimuli/alien_stimuli/66.png,66,7,12,,,,,,,30,,,,,,,,1122.7357990997843,1122.7357990997843,1122.7357990997843,1122.7357990997843,1122.7357990997843,,,,,down,2.872880999930203,3,0,0,99,0.56,0.0,down,2.7917543000075966,1121.1812106999569,1122.7357990997843,0.4,-0.24,0.4,0.0,-0.039999999999999994,0.4,0.4,0.4,-0.24,1118.02032029978,1118.02032029978,1118.02032029978,1118.02032029978,1118.02032029978,1118.02032029978,1118.02032029978,1118.02032029978,1118.0117145197933,3.2552365998271853,return,3.132434699917212,,,,,,,,,,,,,,,,,,,,,,,,,,,,,,,,,1P4PJG,train_y,blue_star,top_right,2025-08-27_16h31.04.529,HideSeek_v1,2022.2.5,59.924016382544394,
,9,6,9,2,0,-4,65,,train_dim1_1,11,30,,,,2,0,2,0,,,,,,,,,0,0,0,0,0,10,10,10,1,0,1,0,,,,,,,,,,,,,,,,,,,,,,,,,,,,,,,,,,,,,,,,,,,,,,,,,,,,,,,,,,,,,,,,30,,,,,,,,1125.6157410999294,1125.6157410999294,1125.6157410999294,1125.6157410999294,1125.6157410999294,,,,,up,1.9600517000071704,3,0,0,99,0.56,0.08,up,1.8747626999393106,,,,,,,,,,,,,,,,,,,,,,,,,,,,,,,,,,,,,,,,,,,,,,,,,,,,,,,,1P4PJG,train_y,blue_star,top_right,2025-08-27_16h31.04.529,HideSeek_v1,2022.2.5,59.924016382544394,
,9,6,9,2,0,-4,65,,train_dim1_1,11,30,,,,2,0,2,0,,,,,,,,,0,0,0,0,0,10,10,10,2,0,2,0,,,,,,,,,,,,,,,,,,,,,,,,,,,,,,,,,,,,,,,,,,,,,,,,,,,,,,,,,,,,,,,,30,,,,,,,,1127.5831316998228,1127.5831316998228,1127.5831316998228,1127.5831316998228,1127.5831316998228,,,,,left,1.2773617999628186,3,0,0,99,0.48000000000000004,0.08,left,1.2030861000530422,,,,,,,,,,,,,,,,,,,,,,,,,,,,,,,,,,,,,,,,,,,,,,,,,,,,,,,,1P4PJG,train_y,blue_star,top_right,2025-08-27_16h31.04.529,HideSeek_v1,2022.2.5,59.924016382544394,
,9,6,9,2,0,-4,65,,train_dim1_1,11,30,,,,2,0,2,0,,,,,,,,,0,0,0,0,0,10,10,10,3,0,3,0,,,,,,,,,,,,,,,,,,,,,,,,,,,,,,,,,,,,,,,,,,,,,,,,,,,,,,,,,,,,,,,,30,,,,,,,,1128.867795899976,1128.867795899976,1128.867795899976,1128.867795899976,1128.867795899976,,,,,left,0.44310849998146296,3,0,0,99,0.4,0.08,left,0.35978309996426105,,,,,,,,,,,,,,,,,,,,,,,,,,,,,,,,,,,,,,,,,,,,,,,,,,,,,,,,1P4PJG,train_y,blue_star,top_right,2025-08-27_16h31.04.529,HideSeek_v1,2022.2.5,59.924016382544394,
,9,6,9,2,0,-4,65,,train_dim1_1,11,30,,,,2,0,2,0,,,,,,,,,0,0,0,0,0,10,10,10,4,0,4,0,,,,,,,,,,,,,,,,,,,,,,,,,,,,,,,,,,,,,,,,,,,,,,,,,,,,,,,,,,,,,,,,30,,,,,,,,1129.3195022998843,1129.3195022998843,1129.3195022998843,1129.3195022998843,1129.3195022998843,,,,,left,0.6768018000293523,3,0,0,99,0.32,0.08,left,0.5991104000713676,,,,,,,,,,,,,,,,,,,,,,,,,,,,,,,,,,,,,,,,,,,,,,,,,,,,,,,,1P4PJG,train_y,blue_star,top_right,2025-08-27_16h31.04.529,HideSeek_v1,2022.2.5,59.924016382544394,
,9,6,9,2,0,-4,65,,train_dim1_1,11,30,,,,2,0,2,0,,,,,,,,,0,0,0,0,0,10,10,10,5,0,5,0,,,,,,,,,,,,,,,,,,,,,,,,,,,,,,,,,,,,,,,,,,,,,,,,,,,,,,,,,,,,,,,,30,,,,,,,,1130.0027997998986,1130.0027997998986,1130.0027997998986,1130.0027997998986,1130.0027997998986,-10,-9,0.32,0.08,return,2.2106733999680728,3,0,0,0,0.32,0.08,return,2.124765000073239,,,,,,,,,,,,,,,,,,,,,,,,,,,,,,,,,,,,,,,,,,,,,,,,,,,,,,,,1P4PJG,train_y,blue_star,top_right,2025-08-27_16h31.04.529,HideSeek_v1,2022.2.5,59.924016382544394,
,5,5,5,5,0,0,61,,train_dim1_1,12,30,,,,2,0,2,0,,,,,,,,,0,0,0,0,0,11,11,11,0,0,0,0,,,,,,,,,,,,,,,,,,,,,,,,,stimuli/alien_stimuli/61.png,,,,,,,,,,,,,,,,,,,,,,,,,,,,,stimuli/alien_stimuli/65.png,65,9,13,,,,,,,30,,,,,,,,1137.163951399969,1137.163951399969,1137.163951399969,1137.163951399969,1137.163951399969,-10,-9,0.24,0,return,1.5708177001215518,4,0,0,1,0.24,0,return,1.4826487998943776,1135.6096757999621,1137.163951399969,0.56,-0.24,0.32,0.0,-0.07999999999999999,0.56,0.56,0.56,-0.24,1133.7814096999355,1133.7814096999355,1133.7814096999355,1133.7814096999355,1133.7814096999355,1133.7814096999355,1133.7814096999355,1133.7814096999355,1133.7748318396743,1.937044199788943,return,1.7983547998592257,,,,,,,,,,,,,,,,,,,,,,,,,,,,,,,,,1P4PJG,train_y,blue_star,top_right,2025-08-27_16h31.04.529,HideSeek_v1,2022.2.5,59.924016382544394,
,9,8,9,7,0,-1,62,,train_dim1_1,13,30,,,,2,0,2,0,,,,,,,,,0,0,0,0,0,12,12,12,0,0,0,0,,,,,,,,,,,,,,,,,,,,,,,,,stimuli/alien_stimuli/62.png,,,,,,,,,,,,,,,,,,,,,,,,,,,,,stimuli/alien_stimuli/61.png,61,5,14,,,,,,,30,,,,,,,,1143.1848305999301,1143.1848305999301,1143.1848305999301,1143.1848305999301,1143.1848305999301,-10,-9,0.56,0.24,return,1.5879041999578476,4,1,0,0,0.56,0.24,return,1.5095087001100183,1141.6317131998949,1143.1848305999301,0.24,0,0.0,0.0,0.0,0.24,0.24,0.24,0,1140.2936579999514,1140.2936579999514,1140.2936579999514,1140.2936579999514,1140.2936579999514,1140.2936579999514,1140.2936579999514,1140.2936579999514,1140.2803625197616,1.43683599983342,return,1.3072738000191748,,,,,,,,,,,,,,,,,,,,,,,,,,,,,,,,,1P4PJG,train_y,blue_star,top_right,2025-08-27_16h31.04.529,HideSeek_v1,2022.2.5,59.924016382544394,
,7,7,7,2,0,-5,66,,train_dim1_1,14,30,,,,2,0,2,0,,,,,,,,,0,0,0,0,0,13,13,13,0,0,0,0,,,,,,,,,,,,,,,,,,,,,,,,,stimuli/alien_stimuli/66.png,,,,,,,,,,,,,,,,,,,,,,,,,,,,,stimuli/alien_stimuli/62.png,62,9,15,,,,,,,30,,,,,,,,1149.6915199998766,1149.6915199998766,1149.6915199998766,1149.6915199998766,1149.6915199998766,,,,,down,3.155520800035447,4,1,0,99,0.4,0.08,down,3.074890799820423,1148.1366907998454,1149.6915199998766,0.56,0.16,0.08,0.0,0.2,0.56,0.56,0.56,0.16,1146.329634899972,1146.329634899972,1146.329634899972,1146.329634899972,1146.329634899972,1146.329634899972,1146.329634899972,1146.329634899972,1146.3185287198053,1.903785599861294,return,1.7872940998058766,,,,,,,,,,,,,,,,,,,,,,,,,,,,,,,,,1P4PJG,train_y,blue_star,top_right,2025-08-27_16h31.04.529,HideSeek_v1,2022.2.5,59.924016382544394,
,7,7,7,2,0,-5,66,,train_dim1_1,14,30,,,,2,0,2,0,,,,,,,,,0,0,0,0,0,13,13,13,1,0,1,0,,,,,,,,,,,,,,,,,,,,,,,,,,,,,,,,,,,,,,,,,,,,,,,,,,,,,,,,,,,,,,,,30,,,,,,,,1152.8553092000075,1152.8553092000075,1152.8553092000075,1152.8553092000075,1152.8553092000075,,,,,down,0.3429525000974536,4,1,0,99,0.4,0.0,down,0.25896459980867803,,,,,,,,,,,,,,,,,,,,,,,,,,,,,,,,,,,,,,,,,,,,,,,,,,,,,,,,1P4PJG,train_y,blue_star,top_right,2025-08-27_16h31.04.529,HideSeek_v1,2022.2.5,59.924016382544394,
,7,7,7,2,0,-5,66,,train_dim1_1,14,30,,,,2,0,2,0,,,,,,,,,0,0,0,0,0,13,13,13,2,0,2,0,,,,,,,,,,,,,,,,,,,,,,,,,,,,,,,,,,,,,,,,,,,,,,,,,,,,,,,,,,,,,,,,30,,,,,,,,1153.204909299966,1153.204909299966,1153.204909299966,1153.204909299966,1153.204909299966,,,,,down,0.41017229994758964,4,1,0,99,0.4,-0.08,down,0.3213125001639128,,,,,,,,,,,,,,,,,,,,,,,,,,,,,,,,,,,,,,,,,,,,,,,,,,,,,,,,1P4PJG,train_y,blue_star,top_right,2025-08-27_16h31.04.529,HideSeek_v1,2022.2.5,59.924016382544394,
,7,7,7,2,0,-5,66,,train_dim1_1,14,30,,,,2,0,2,0,,,,,,,,,0,0,0,0,0,13,13,13,3,0,3,0,,,,,,,,,,,,,,,,,,,,,,,,,,,,,,,,,,,,,,,,,,,,,,,,,,,,,,,,,,,,,,,,30,,,,,,,,1153.6230761997867,1153.6230761997867,1153.6230761997867,1153.6230761997867,1153.6230761997867,,,,,down,0.3931261000689119,4,1,0,99,0.4,-0.16,down,0.3083903999067843,,,,,,,,,,,,,,,,,,,,,,,,,,,,,,,,,,,,,,,,,,,,,,,,,,,,,,,,1P4PJG,train_y,blue_star,top_right,2025-08-27_16h31.04.529,HideSeek_v1,2022.2.5,59.924016382544394,
,7,7,7,2,0,-5,66,,train_dim1_1,14,30,,,,2,0,2,0,,,,,,,,,0,0,0,0,0,13,13,13,4,0,4,0,,,,,,,,,,,,,,,,,,,,,,,,,,,,,,,,,,,,,,,,,,,,,,,,,,,,,,,,,,,,,,,,30,,,,,,,,1154.0246906999964,1154.0246906999964,1154.0246906999964,1154.0246906999964,1154.0246906999964,,,,,down,0.34327650000341237,4,1,0,99,0.4,-0.24,down,0.2632049999665469,,,,,,,,,,,,,,,,,,,,,,,,,,,,,,,,,,,,,,,,,,,,,,,,,,,,,,,,1P4PJG,train_y,blue_star,top_right,2025-08-27_16h31.04.529,HideSeek_v1,2022.2.5,59.924016382544394,
,7,7,7,2,0,-5,66,,train_dim1_1,14,30,,,,2,0,2,0,,,,,,,,,0,0,0,0,0,13,13,13,5,0,5,0,,,,,,,,,,,,,,,,,,,,,,,,,,,,,,,,,,,,,,,,,,,,,,,,,,,,,,,,,,,,,,,,30,,,,,,,,1154.3719586997759,1154.3719586997759,1154.3719586997759,1154.3719586997759,1154.3719586997759,-15,-9,0.4,-0.24,return,0.5768833998590708,5,0,0,1,0.4,-0.24,return,0.49902920005843043,,,,,,,,,,,,,,,,,,,,,,,,,,,,,,,,,,,,,,,,,,,,,,,,,,,,,,,,1P4PJG,train_y,blue_star,top_right,2025-08-27_16h31.04.529,HideSeek_v1,2022.2.5,59.924016382544394,
,6,9,6,6,0,-3,64,,train_dim1_1,15,30,,,,2,0,2,0,,,,,,,,,0,0,0,0,0,14,14,14,0,0,0,0,,,,,,,,,,,,,,,,,,,,,,,,,stimuli/alien_stimuli/64.png,,,,,,,,,,,,,,,,,,,,,,,,,,,,,stimuli/alien_stimuli/66.png,66,7,16,,,,,,,30,,,,,,,,1159.2142744997982,1159.2142744997982,1159.2142744997982,1159.2142744997982,1159.2142744997982,,,,,left,1.4385693999938667,5,0,0,99,0.24,0.32,left,1.3581693000160158,1157.6612925999798,1159.2142744997982,0.4,-0.24,0.4,0.0,-0.039999999999999994,0.4,0.4,0.4,-0.24,1156.506833099993,1156.506833099993,1156.506833099993,1156.506833099993,1156.506833099993,1156.506833099993,1156.506833099993,1156.506833099993,1156.4939648197965,1.2527690997812897,return,1.1249186999630183,,,,,,,,,,,,,,,,,,,,,,,,,,,,,,,,,1P4PJG,train_y,blue_star,top_right,2025-08-27_16h31.04.529,HideSeek_v1,2022.2.5,59.924016382544394,
,6,9,6,6,0,-3,64,,train_dim1_1,15,30,,,,2,0,2,0,,,,,,,,,0,0,0,0,0,14,14,14,1,0,1,0,,,,,,,,,,,,,,,,,,,,,,,,,,,,,,,,,,,,,,,,,,,,,,,,,,,,,,,,,,,,,,,,30,,,,,,,,1160.6607934997883,1160.6607934997883,1160.6607934997883,1160.6607934997883,1160.6607934997883,,,,,left,0.34302400005981326,5,0,0,99,0.15999999999999998,0.32,left,0.26450019981712103,,,,,,,,,,,,,,,,,,,,,,,,,,,,,,,,,,,,,,,,,,,,,,,,,,,,,,,,1P4PJG,train_y,blue_star,top_right,2025-08-27_16h31.04.529,HideSeek_v1,2022.2.5,59.924016382544394,
,6,9,6,6,0,-3,64,,train_dim1_1,15,30,,,,2,0,2,0,,,,,,,,,0,0,0,0,0,14,14,14,2,0,2,0,,,,,,,,,,,,,,,,,,,,,,,,,,,,,,,,,,,,,,,,,,,,,,,,,,,,,,,,,,,,,,,,30,,,,,,,,1161.025246599922,1161.025246599922,1161.025246599922,1161.025246599922,1161.025246599922,,,,,left,0.42662569996900856,5,0,0,99,0.07999999999999997,0.32,left,0.33103070012293756,,,,,,,,,,,,,,,,,,,,,,,,,,,,,,,,,,,,,,,,,,,,,,,,,,,,,,,,1P4PJG,train_y,blue_star,top_right,2025-08-27_16h31.04.529,HideSeek_v1,2022.2.5,59.924016382544394,
,6,9,6,6,0,-3,64,,train_dim1_1,15,30,,,,2,0,2,0,,,,,,,,,0,0,0,0,0,14,14,14,3,0,3,0,,,,,,,,,,,,,,,,,,,,,,,,,,,,,,,,,,,,,,,,,,,,,,,,,,,,,,,,,,,,,,,,30,,,,,,,,1161.4441666000057,1161.4441666000057,1161.4441666000057,1161.4441666000057,1161.4441666000057,-15,-12,0.07999999999999997,0.32,return,0.8105339000467211,5,0,0,0,0.07999999999999997,0.32,return,0.724408800015226,,,,,,,,,,,,,,,,,,,,,,,,,,,,,,,,,,,,,,,,,,,,,,,,,,,,,,,,1P4PJG,train_y,blue_star,top_right,2025-08-27_16h31.04.529,HideSeek_v1,2022.2.5,59.924016382544394,
,9,5,9,1,0,-4,65,,train_dim1_1,16,30,,,,2,0,2,0,,,,,,,,,0,0,0,0,0,15,15,15,0,0,0,0,,,,,,,,,,,,,,,,,,,,,,,,,stimuli/alien_stimuli/65.png,,,,,,,,,,,,,,,,,,,,,,,,,,,,,stimuli/alien_stimuli/64.png,64,6,17,,,,,,,30,,,,,,,,1167.3487191000022,1167.3487191000022,1167.3487191000022,1167.3487191000022,1167.3487191000022,,,,,down,5.356639399891719,5,0,0,99,0.56,-0.08,down,5.262813200009987,1165.773777099792,1163.8095225999132,0.32,0.08,0.24,0.0,0.2,0.32,0.32,0.32,0.08,1163.8095225999132,1163.8095225999132,1163.8095225999132,1163.8095225999132,1163.8095225999132,1163.8095225999132,1163.8095225999132,1163.8095225999132,1163.7997443197296,2.06014689989388,return,1.944003000156954,,,,,,,,,,,,,,,,,,,,,,,,,,,,,,,,,1P4PJG,train_y,blue_star,top_right,2025-08-27_16h31.04.529,HideSeek_v1,2022.2.5,59.924016382544394,
,9,5,9,1,0,-4,65,,train_dim1_1,16,30,,,,2,0,2,0,,,,,,,,,0,0,0,0,0,15,15,15,1,0,1,0,,,,,,,,,,,,,,,,,,,,,,,,,,,,,,,,,,,,,,,,,,,,,,,,,,,,,,,,,,,,,,,,30,,,,,,,,1172.7179336999543,1172.7179336999543,1172.7179336999543,1172.7179336999543,1172.7179336999543,,,,,down,0.5264364001341164,5,0,0,99,0.56,-0.16,down,0.42507990007288754,,,,,,,,,,,,,,,,,,,,,,,,,,,,,,,,,,,,,,,,,,,,,,,,,,,,,,,,1P4PJG,train_y,blue_star,top_right,2025-08-27_16h31.04.529,HideSeek_v1,2022.2.5,59.924016382544394,
,9,5,9,1,0,-4,65,,train_dim1_1,16,30,,,,2,0,2,0,,,,,,,,,0,0,0,0,0,15,15,15,2,0,2,0,,,,,,,,,,,,,,,,,,,,,,,,,,,,,,,,,,,,,,,,,,,,,,,,,,,,,,,,,,,,,,,,30,,,,,,,,1173.241604299983,1173.241604299983,1173.241604299983,1173.241604299983,1173.241604299983,,,,,down,0.5596983002033085,5,0,0,99,0.56,-0.24,down,0.4730622998904437,,,,,,,,,,,,,,,,,,,,,,,,,,,,,,,,,,,,,,,,,,,,,,,,,,,,,,,,1P4PJG,train_y,blue_star,top_right,2025-08-27_16h31.04.529,HideSeek_v1,2022.2.5,59.924016382544394,
,9,5,9,1,0,-4,65,,train_dim1_1,16,30,,,,2,0,2,0,,,,,,,,,0,0,0,0,0,15,15,15,3,0,3,0,,,,,,,,,,,,,,,,,,,,,,,,,,,,,,,,,,,,,,,,,,,,,,,,,,,,,,,,,,,,,,,,30,,,,,,,,1173.8159045998473,1173.8159045998473,1173.8159045998473,1173.8159045998473,1173.8159045998473,,,,,down,1.077411999925971,5,0,0,99,0.56,-0.32,down,0.9839068001601845,,,,,,,,,,,,,,,,,,,,,,,,,,,,,,,,,,,,,,,,,,,,,,,,,,,,,,,,1P4PJG,train_y,blue_star,top_right,2025-08-27_16h31.04.529,HideSeek_v1,2022.2.5,59.924016382544394,
,9,5,9,1,0,-4,65,,train_dim1_1,16,30,,,,2,0,2,0,,,,,,,,,0,0,0,0,0,15,15,15,4,0,4,0,,,,,,,,,,,,,,,,,,,,,,,,,,,,,,,,,,,,,,,,,,,,,,,,,,,,,,,,,,,,,,,,30,,,,,,,,1174.9027346998919,1174.9027346998919,1174.9027346998919,1174.9027346998919,1174.9027346998919,,,,,down,0.3236618998926133,5,0,0,99,0.56,-0.4,down,0.2398520999122411,,,,,,,,,,,,,,,,,,,,,,,,,,,,,,,,,,,,,,,,,,,,,,,,,,,,,,,,1P4PJG,train_y,blue_star,top_right,2025-08-27_16h31.04.529,HideSeek_v1,2022.2.5,59.924016382544394,
,9,5,9,1,0,-4,65,,train_dim1_1,16,30,,,,2,0,2,0,,,,,,,,,0,0,0,0,0,15,15,15,5,0,5,0,,,,,,,,,,,,,,,,,,,,,,,,,,,,,,,,,,,,,,,,,,,,,,,,,,,,,,,,,,,,,,,,30,,,,,,,,1175.229254100006,1175.229254100006,1175.229254100006,1175.229254100006,1175.229254100006,-20,-12,0.56,-0.4,return,0.40941360010765493,5,1,0,0,0.56,-0.4,return,0.32348960009403527,,,,,,,,,,,,,,,,,,,,,,,,,,,,,,,,,,,,,,,,,,,,,,,,,,,,,,,,1P4PJG,train_y,blue_star,top_right,2025-08-27_16h31.04.529,HideSeek_v1,2022.2.5,59.924016382544394,
,8,8,8,5,0,-3,64,,train_dim1_1,17,30,,,,2,0,2,0,,,,,,,,,0,0,0,0,0,16,16,16,0,0,0,0,,,,,,,,,,,,,,,,,,,,,,,,,stimuli/alien_stimuli/64.png,,,,,,,,,,,,,,,,,,,,,,,,,,,,,stimuli/alien_stimuli/65.png,65,9,18,,,,,,,30,,,,,,,,1180.2915732997935,1180.2915732997935,1180.2915732997935,1180.2915732997935,1180.2915732997935,,,,,left,1.7383764998521656,5,1,0,99,0.39999999999999997,0.24,left,1.6508931000716984,1178.7287083999254,1180.2915732997935,0.56,-0.32,0.32,0.0,-0.16,0.56,0.56,0.56,-0.32,1177.2089826997835,1177.2089826997835,1177.2089826997835,1177.2089826997835,1177.2089826997835,1177.2089826997835,1177.2089826997835,1177.2089826997835,1177.2105484598317,1.6381514000240713,return,1.4994077000301331,,,,,,,,,,,,,,,,,,,,,,,,,,,,,,,,,1P4PJG,train_y,blue_star,top_right,2025-08-27_16h31.04.529,HideSeek_v1,2022.2.5,59.924016382544394,
,8,8,8,5,0,-3,64,,train_dim1_1,17,30,,,,2,0,2,0,,,,,,,,,0,0,0,0,0,16,16,16,1,0,1,0,,,,,,,,,,,,,,,,,,,,,,,,,,,,,,,,,,,,,,,,,,,,,,,,,,,,,,,,,,,,,,,,30,,,,,,,,1182.047310899943,1182.047310899943,1182.047310899943,1182.047310899943,1182.047310899943,,,,,left,0.4258301998488605,5,1,0,99,0.31999999999999995,0.24,left,0.32505099987611175,,,,,,,,,,,,,,,,,,,,,,,,,,,,,,,,,,,,,,,,,,,,,,,,,,,,,,,,1P4PJG,train_y,blue_star,top_right,2025-08-27_16h31.04.529,HideSeek_v1,2022.2.5,59.924016382544394,
,8,8,8,5,0,-3,64,,train_dim1_1,17,30,,,,2,0,2,0,,,,,,,,,0,0,0,0,0,16,16,16,2,0,2,0,,,,,,,,,,,,,,,,,,,,,,,,,,,,,,,,,,,,,,,,,,,,,,,,,,,,,,,,,,,,,,,,30,,,,,,,,1182.4663385997992,1182.4663385997992,1182.4663385997992,1182.4663385997992,1182.4663385997992,,,,,left,0.30965359997935593,5,1,0,99,0.23999999999999994,0.24,left,0.22007580008357763,,,,,,,,,,,,,,,,,,,,,,,,,,,,,,,,,,,,,,,,,,,,,,,,,,,,,,,,1P4PJG,train_y,blue_star,top_right,2025-08-27_16h31.04.529,HideSeek_v1,2022.2.5,59.924016382544394,
,8,8,8,5,0,-3,64,,train_dim1_1,17,30,,,,2,0,2,0,,,,,,,,,0,0,0,0,0,16,16,16,3,0,3,0,,,,,,,,,,,,,,,,,,,,,,,,,,,,,,,,,,,,,,,,,,,,,,,,,,,,,,,,,,,,,,,,30,,,,,,,,1182.785870899912,1182.785870899912,1182.785870899912,1182.785870899912,1182.785870899912,-20,-15,0.23999999999999994,0.24,return,0.42708589998073876,5,0,0,0,0.23999999999999994,0.24,return,0.33108039991930127,,,,,,,,,,,,,,,,,,,,,,,,,,,,,,,,,,,,,,,,,,,,,,,,,,,,,,,,1P4PJG,train_y,blue_star,top_right,2025-08-27_16h31.04.529,HideSeek_v1,2022.2.5,59.924016382544394,
,7,6,7,6,0,0,61,,train_dim1_1,18,30,,,,2,0,2,0,,,,,,,,,0,0,0,0,0,17,17,17,0,0,0,0,,,,,,,,,,,,,,,,,,,,,,,,,stimuli/alien_stimuli/61.png,,,,,,,,,,,,,,,,,,,,,,,,,,,,,stimuli/alien_stimuli/64.png,64,8,19,,,,,,,30,,,,,,,,1188.5893260999583,1188.5893260999583,1188.5893260999583,1188.5893260999583,1188.5893260999583,-20,-15,0.4,0.08,return,1.0716849002055824,6,0,0,1,0.4,0.08,return,0.9942248000297695,1187.0350740998983,1188.5893260999583,0.48,0,0.24,0.0,0.12,0.48,0.48,0.48,0,1184.7760216000024,1184.7760216000024,1184.7760216000024,1184.7760216000024,1184.7760216000024,1184.7760216000024,1184.7760216000024,1184.7760216000024,1184.7670672396898,2.3705196999944746,return,2.2383799999952316,,,,,,,,,,,,,,,,,,,,,,,,,,,,,,,,,1P4PJG,train_y,blue_star,top_right,2025-08-27_16h31.04.529,HideSeek_v1,2022.2.5,59.924016382544394,
,5,9,5,8,0,-1,62,,train_dim1_1,19,30,,,,2,0,2,0,,,,,,,,,0,0,0,0,0,18,18,18,0,0,0,0,,,,,,,,,,,,,,,,,,,,,,,,,stimuli/alien_stimuli/62.png,,,,,,,,,,,,,,,,,,,,,,,,,,,,,stimuli/alien_stimuli/61.png,61,7,20,,,,,,,30,,,,,,,,1193.775489699794,1193.775489699794,1193.775489699794,1193.775489699794,1193.775489699794,-20,-15,0.24,0.32,return,0.9863046000245959,6,1,0,0,0.24,0.32,return,0.8880688000936061,1192.206401999807,1193.775489699794,0.4,0.08,0.0,0.0,0.08,0.4,0.4,0.4,0.08,1191.2153979998548,1191.2153979998548,1191.2153979998548,1191.2153979998548,1191.2153979998548,1191.2153979998548,1191.2153979998548,1191.2153979998548,1191.2059275196866,1.0861312998458743,return,0.9663837000261992,,,,,,,,,,,,,,,,,,,,,,,,,,,,,,,,,1P4PJG,train_y,blue_star,top_right,2025-08-27_16h31.04.529,HideSeek_v1,2022.2.5,59.924016382544394,
,7,5,7,0,0,-5,66,,train_dim1_1,20,30,,,,2,0,2,0,,,,,,,,,0,0,0,0,0,19,19,19,0,0,0,0,,,,,,,,,,,,,,,,,,,,,,,,,stimuli/alien_stimuli/66.png,,,,,,,,,,,,,,,,,,,,,,,,,,,,,stimuli/alien_stimuli/62.png,62,5,21,,,,,,,30,,,,,,,,1198.8627642998472,1198.8627642998472,1198.8627642998472,1198.8627642998472,1198.8627642998472,,,,,down,2.8582504000514746,6,1,0,99,0.4,-0.08,down,2.778793300036341,1197.3109531998634,1198.8627642998472,0.24,0.24,0.08,0.0,0.28,0.24,0.24,0.24,0.24,1196.299818099942,1196.299818099942,1196.299818099942,1196.299818099942,1196.299818099942,1196.299818099942,1196.299818099942,1196.299818099942,1196.2935989197344,1.102900399826467,return,0.9797171999234706,,,,,,,,,,,,,,,,,,,,,,,,,,,,,,,,,1P4PJG,train_y,blue_star,top_right,2025-08-27_16h31.04.529,HideSeek_v1,2022.2.5,59.924016382544394,
,7,5,7,0,0,-5,66,,train_dim1_1,20,30,,,,2,0,2,0,,,,,,,,,0,0,0,0,0,19,19,19,1,0,1,0,,,,,,,,,,,,,,,,,,,,,,,,,,,,,,,,,,,,,,,,,,,,,,,,,,,,,,,,,,,,,,,,30,,,,,,,,1201.7279451999348,1201.7279451999348,1201.7279451999348,1201.7279451999348,1201.7279451999348,,,,,down,0.6430702998768538,6,1,0,99,0.4,-0.16,down,0.5696294000372291,,,,,,,,,,,,,,,,,,,,,,,,,,,,,,,,,,,,,,,,,,,,,,,,,,,,,,,,1P4PJG,train_y,blue_star,top_right,2025-08-27_16h31.04.529,HideSeek_v1,2022.2.5,59.924016382544394,
,7,5,7,0,0,-5,66,,train_dim1_1,20,30,,,,2,0,2,0,,,,,,,,,0,0,0,0,0,19,19,19,2,0,2,0,,,,,,,,,,,,,,,,,,,,,,,,,,,,,,,,,,,,,,,,,,,,,,,,,,,,,,,,,,,,,,,,30,,,,,,,,1202.3786543000024,1202.3786543000024,1202.3786543000024,1202.3786543000024,1202.3786543000024,,,,,down,0.44351039989851415,6,1,0,99,0.4,-0.24,down,0.3552812000270933,,,,,,,,,,,,,,,,,,,,,,,,,,,,,,,,,,,,,,,,,,,,,,,,,,,,,,,,1P4PJG,train_y,blue_star,top_right,2025-08-27_16h31.04.529,HideSeek_v1,2022.2.5,59.924016382544394,
,7,5,7,0,0,-5,66,,train_dim1_1,20,30,,,,2,0,2,0,,,,,,,,,0,0,0,0,0,19,19,19,3,0,3,0,,,,,,,,,,,,,,,,,,,,,,,,,,,,,,,,,,,,,,,,,,,,,,,,,,,,,,,,,,,,,,,,30,,,,,,,,1202.8289087999146,1202.8289087999146,1202.8289087999146,1202.8289087999146,1202.8289087999146,,,,,down,0.47638659994117916,6,1,0,99,0.4,-0.32,down,0.3888489999808371,,,,,,,,,,,,,,,,,,,,,,,,,,,,,,,,,,,,,,,,,,,,,,,,,,,,,,,,1P4PJG,train_y,blue_star,top_right,2025-08-27_16h31.04.529,HideSeek_v1,2022.2.5,59.924016382544394,
,7,5,7,0,0,-5,66,,train_dim1_1,20,30,,,,2,0,2,0,,,,,,,,,0,0,0,0,0,19,19,19,4,0,4,0,,,,,,,,,,,,,,,,,,,,,,,,,,,,,,,,,,,,,,,,,,,,,,,,,,,,,,,,,,,,,,,,30,,,,,,,,1203.3135175998323,1203.3135175998323,1203.3135175998323,1203.3135175998323,1203.3135175998323,,,,,down,0.4936673000920564,6,1,0,99,0.4,-0.4,down,0.4110105999279767,,,,,,,,,,,,,,,,,,,,,,,,,,,,,,,,,,,,,,,,,,,,,,,,,,,,,,,,1P4PJG,train_y,blue_star,top_right,2025-08-27_16h31.04.529,HideSeek_v1,2022.2.5,59.924016382544394,
,7,5,7,0,0,-5,66,,train_dim1_1,20,30,,,,2,0,2,0,,,,,,,,,0,0,0,0,0,19,19,19,5,0,5,0,,,,,,,,,,,,,,,,,,,,,,,,,,,,,,,,,,,,,,,,,,,,,,,,,,,,,,,,,,,,,,,,30,,,,,,,,1203.8137997000013,1203.8137997000013,1203.8137997000013,1203.8137997000013,1203.8137997000013,-25,-15,0.4,-0.4,return,0.4266076998319477,7,0,0,1,0.4,-0.4,return,0.35330180008895695,,,,,,,,,,,,,,,,,,,,,,,,,,,,,,,,,,,,,,,,,,,,,,,,,,,,,,,,1P4PJG,train_y,blue_star,top_right,2025-08-27_16h31.04.529,HideSeek_v1,2022.2.5,59.924016382544394,
,7,9,7,5,0,-4,65,,train_dim1_1,21,30,,,,2,0,2,0,,,,,,,,,0,0,0,0,0,20,20,20,0,0,0,0,,,,,,,,,,,,,,,,,,,,,,,,,stimuli/alien_stimuli/65.png,,,,,,,,,,,,,,,,,,,,,,,,,,,,,stimuli/alien_stimuli/66.png,66,7,22,,,,,,,30,,,,,,,,1208.4888582997955,1208.4888582997955,1208.4888582997955,1208.4888582997955,1208.4888582997955,,,,,down,2.1563335000537336,7,0,0,99,0.4,0.24,down,2.072332700015977,1206.9356107998174,1208.4888582997955,0.4,-0.4,0.4,0.0,-0.2,0.4,0.4,0.4,-0.4,1205.7977012000047,1205.7977012000047,1205.7977012000047,1205.7977012000047,1205.7977012000047,1205.7977012000047,1205.7977012000047,1205.7977012000047,1205.7847951197532,1.2363958999048918,return,1.1203809999860823,,,,,,,,,,,,,,,,,,,,,,,,,,,,,,,,,1P4PJG,train_y,blue_star,top_right,2025-08-27_16h31.04.529,HideSeek_v1,2022.2.5,59.924016382544394,
,7,9,7,5,0,-4,65,,train_dim1_1,21,30,,,,2,0,2,0,,,,,,,,,0,0,0,0,0,20,20,20,1,0,1,0,,,,,,,,,,,,,,,,,,,,,,,,,,,,,,,,,,,,,,,,,,,,,,,,,,,,,,,,,,,,,,,,30,,,,,,,,1210.6532665998675,1210.6532665998675,1210.6532665998675,1210.6532665998675,1210.6532665998675,,,,,down,0.35881919995881617,7,0,0,99,0.4,0.15999999999999998,down,0.28006720007397234,,,,,,,,,,,,,,,,,,,,,,,,,,,,,,,,,,,,,,,,,,,,,,,,,,,,,,,,1P4PJG,train_y,blue_star,top_right,2025-08-27_16h31.04.529,HideSeek_v1,2022.2.5,59.924016382544394,
,7,9,7,5,0,-4,65,,train_dim1_1,21,30,,,,2,0,2,0,,,,,,,,,0,0,0,0,0,20,20,20,2,0,2,0,,,,,,,,,,,,,,,,,,,,,,,,,,,,,,,,,,,,,,,,,,,,,,,,,,,,,,,,,,,,,,,,30,,,,,,,,1211.0195228999946,1211.0195228999946,1211.0195228999946,1211.0195228999946,1211.0195228999946,,,,,down,0.3598799000028521,7,0,0,99,0.4,0.07999999999999997,down,0.27692600013688207,,,,,,,,,,,,,,,,,,,,,,,,,,,,,,,,,,,,,,,,,,,,,,,,,,,,,,,,1P4PJG,train_y,blue_star,top_right,2025-08-27_16h31.04.529,HideSeek_v1,2022.2.5,59.924016382544394,
,7,9,7,5,0,-4,65,,train_dim1_1,21,30,,,,2,0,2,0,,,,,,,,,0,0,0,0,0,20,20,20,3,0,3,0,,,,,,,,,,,,,,,,,,,,,,,,,,,,,,,,,,,,,,,,,,,,,,,,,,,,,,,,,,,,,,,,30,,,,,,,,1211.3860679999925,1211.3860679999925,1211.3860679999925,1211.3860679999925,1211.3860679999925,,,,,down,0.37673790007829666,7,0,0,99,0.4,-2.7755575615628914e-17,down,0.29170849989168346,,,,,,,,,,,,,,,,,,,,,,,,,,,,,,,,,,,,,,,,,,,,,,,,,,,,,,,,1P4PJG,train_y,blue_star,top_right,2025-08-27_16h31.04.529,HideSeek_v1,2022.2.5,59.924016382544394,
,7,9,7,5,0,-4,65,,train_dim1_1,21,30,,,,2,0,2,0,,,,,,,,,0,0,0,0,0,20,20,20,4,0,4,0,,,,,,,,,,,,,,,,,,,,,,,,,,,,,,,,,,,,,,,,,,,,,,,,,,,,,,,,,,,,,,,,30,,,,,,,,1211.7696803999133,1211.7696803999133,1211.7696803999133,1211.7696803999133,1211.7696803999133,,,,,down,0.35970519995316863,7,0,0,99,0.4,-0.08000000000000003,down,0.2802571998909116,,,,,,,,,,,,,,,,,,,,,,,,,,,,,,,,,,,,,,,,,,,,,,,,,,,,,,,,1P4PJG,train_y,blue_star,top_right,2025-08-27_16h31.04.529,HideSeek_v1,2022.2.5,59.924016382544394,
,7,9,7,5,0,-4,65,,train_dim1_1,21,30,,,,2,0,2,0,,,,,,,,,0,0,0,0,0,20,20,20,5,0,5,0,,,,,,,,,,,,,,,,,,,,,,,,,,,,,,,,,,,,,,,,,,,,,,,,,,,,,,,,,,,,,,,,30,,,,,,,,1212.1362281998154,1212.1362281998154,1212.1362281998154,1212.1362281998154,1212.1362281998154,-30,-15,0.4,-0.08000000000000003,return,0.5978576999623328,7,1,0,0,0.4,-0.08000000000000003,return,0.5203664998989552,,,,,,,,,,,,,,,,,,,,,,,,,,,,,,,,,,,,,,,,,,,,,,,,,,,,,,,,1P4PJG,train_y,blue_star,top_right,2025-08-27_16h31.04.529,HideSeek_v1,2022.2.5,59.924016382544394,
,5,7,5,4,0,-3,64,,train_dim1_1,22,30,,,,2,0,2,0,,,,,,,,,0,0,0,0,0,21,21,21,0,0,0,0,,,,,,,,,,,,,,,,,,,,,,,,,stimuli/alien_stimuli/64.png,,,,,,,,,,,,,,,,,,,,,,,,,,,,,stimuli/alien_stimuli/65.png,65,7,23,,,,,,,30,,,,,,,,1217.080976899946,1217.080976899946,1217.080976899946,1217.080976899946,1217.080976899946,,,,,down,2.3240791000425816,7,1,0,99,0.24,0.08,down,2.241524599958211,1215.5259285999928,1217.080976899946,0.4,0,0.32,0.0,0.16,0.4,0.4,0.4,0,1214.3016686998308,1214.3016686998308,1214.3016686998308,1214.3016686998308,1214.3016686998308,1214.3016686998308,1214.3016686998308,1214.3016686998308,1214.2915913198144,1.3205775001551956,return,1.2062679999507964,,,,,,,,,,,,,,,,,,,,,,,,,,,,,,,,,1P4PJG,train_y,blue_star,top_right,2025-08-27_16h31.04.529,HideSeek_v1,2022.2.5,59.924016382544394,
,5,7,5,4,0,-3,64,,train_dim1_1,22,30,,,,2,0,2,0,,,,,,,,,0,0,0,0,0,21,21,21,1,0,1,0,,,,,,,,,,,,,,,,,,,,,,,,,,,,,,,,,,,,,,,,,,,,,,,,,,,,,,,,,,,,,,,,30,,,,,,,,1219.4100329999346,1219.4100329999346,1219.4100329999346,1219.4100329999346,1219.4100329999346,,,,,down,0.24292250000871718,7,1,0,99,0.24,0.0,down,0.1679299999959767,,,,,,,,,,,,,,,,,,,,,,,,,,,,,,,,,,,,,,,,,,,,,,,,,,,,,,,,1P4PJG,train_y,blue_star,top_right,2025-08-27_16h31.04.529,HideSeek_v1,2022.2.5,59.924016382544394,
,5,7,5,4,0,-3,64,,train_dim1_1,22,30,,,,2,0,2,0,,,,,,,,,0,0,0,0,0,21,21,21,2,0,2,0,,,,,,,,,,,,,,,,,,,,,,,,,,,,,,,,,,,,,,,,,,,,,,,,,,,,,,,,,,,,,,,,30,,,,,,,,1219.6588264999446,1219.6588264999446,1219.6588264999446,1219.6588264999446,1219.6588264999446,,,,,down,0.2426096999552101,7,1,0,99,0.24,-0.08,down,0.16070350003428757,,,,,,,,,,,,,,,,,,,,,,,,,,,,,,,,,,,,,,,,,,,,,,,,,,,,,,,,1P4PJG,train_y,blue_star,top_right,2025-08-27_16h31.04.529,HideSeek_v1,2022.2.5,59.924016382544394,
,5,7,5,4,0,-3,64,,train_dim1_1,22,30,,,,2,0,2,0,,,,,,,,,0,0,0,0,0,21,21,21,3,0,3,0,,,,,,,,,,,,,,,,,,,,,,,,,,,,,,,,,,,,,,,,,,,,,,,,,,,,,,,,,,,,,,,,30,,,,,,,,1219.9100169998128,1219.9100169998128,1219.9100169998128,1219.9100169998128,1219.9100169998128,-33,-15,0.24,-0.08,return,0.2938628999982029,8,0,0,1,0.24,-0.08,return,0.21309570013545454,,,,,,,,,,,,,,,,,,,,,,,,,,,,,,,,,,,,,,,,,,,,,,,,,,,,,,,,1P4PJG,train_y,blue_star,top_right,2025-08-27_16h31.04.529,HideSeek_v1,2022.2.5,59.924016382544394,
,5,8,5,8,0,0,61,,train_dim1_1,23,30,,,,2,0,2,0,,,,,,,,,0,0,0,0,0,22,22,22,0,0,0,0,,,,,,,,,,,,,,,,,,,,,,,,,stimuli/alien_stimuli/61.png,,,,,,,,,,,,,,,,,,,,,,,,,,,,,stimuli/alien_stimuli/64.png,64,5,24,,,,,,,30,,,,,,,,1224.418329199776,1224.418329199776,1224.418329199776,1224.418329199776,1224.418329199776,-33,-15,0.24,0.24,return,0.856185499811545,9,0,0,1,0.24,0.24,return,0.7685225999448448,1222.8651894999202,1224.418329199776,0.24,-0.08,0.24,0.0,0.04,0.24,0.24,0.24,-0.08,1221.7542145999614,1221.7542145999614,1221.7542145999614,1221.7542145999614,1221.7542145999614,1221.7542145999614,1221.7542145999614,1221.7542145999614,1221.7477021197324,1.2030250001698732,return,1.091092700138688,,,,,,,,,,,,,,,,,,,,,,,,,,,,,,,,,1P4PJG,train_y,blue_star,top_right,2025-08-27_16h31.04.529,HideSeek_v1,2022.2.5,59.924016382544394,
,8,7,8,2,0,-5,66,,train_dim1_1,24,30,,,,2,0,2,0,,,,,,,,,0,0,0,0,0,23,23,23,0,0,0,0,,,,,,,,,,,,,,,,,,,,,,,,,stimuli/alien_stimuli/66.png,,,,,,,,,,,,,,,,,,,,,,,,,,,,,stimuli/alien_stimuli/61.png,61,5,25,,,,,,,30,,,,,,,,1229.592493499862,1229.592493499862,1229.592493499862,1229.592493499862,1229.592493499862,,,,,down,3.1711061999667436,9,0,0,99,0.48,0.08,down,3.088945899857208,1228.036439999938,1229.592493499862,0.24,0.24,0.0,0.0,0.24,0.24,0.24,0.24,0.24,1226.8326672997791,1226.8326672997791,1226.8326672997791,1226.8326672997791,1226.8326672997791,1226.8326672997791,1226.8326672997791,1226.8326672997791,1226.81888051969,1.302754099946469,return,1.180612799944356,,,,,,,,,,,,,,,,,,,,,,,,,,,,,,,,,1P4PJG,train_y,blue_star,top_right,2025-08-27_16h31.04.529,HideSeek_v1,2022.2.5,59.924016382544394,
,8,7,8,2,0,-5,66,,train_dim1_1,24,30,,,,2,0,2,0,,,,,,,,,0,0,0,0,0,23,23,23,1,0,1,0,,,,,,,,,,,,,,,,,,,,,,,,,,,,,,,,,,,,,,,,,,,,,,,,,,,,,,,,,,,,,,,,30,,,,,,,,1232.7711292998865,1232.7711292998865,1232.7711292998865,1232.7711292998865,1232.7711292998865,,,,,down,0.24264169996604323,9,0,0,99,0.48,0.0,down,0.15700650005601346,,,,,,,,,,,,,,,,,,,,,,,,,,,,,,,,,,,,,,,,,,,,,,,,,,,,,,,,1P4PJG,train_y,blue_star,top_right,2025-08-27_16h31.04.529,HideSeek_v1,2022.2.5,59.924016382544394,
,8,7,8,2,0,-5,66,,train_dim1_1,24,30,,,,2,0,2,0,,,,,,,,,0,0,0,0,0,23,23,23,2,0,2,0,,,,,,,,,,,,,,,,,,,,,,,,,,,,,,,,,,,,,,,,,,,,,,,,,,,,,,,,,,,,,,,,30,,,,,,,,1233.0212873998098,1233.0212873998098,1233.0212873998098,1233.0212873998098,1233.0212873998098,,,,,down,0.25962359993718565,9,0,0,99,0.48,-0.08,down,0.17664010007865727,,,,,,,,,,,,,,,,,,,,,,,,,,,,,,,,,,,,,,,,,,,,,,,,,,,,,,,,1P4PJG,train_y,blue_star,top_right,2025-08-27_16h31.04.529,HideSeek_v1,2022.2.5,59.924016382544394,
,8,7,8,2,0,-5,66,,train_dim1_1,24,30,,,,2,0,2,0,,,,,,,,,0,0,0,0,0,23,23,23,3,0,3,0,,,,,,,,,,,,,,,,,,,,,,,,,,,,,,,,,,,,,,,,,,,,,,,,,,,,,,,,,,,,,,,,30,,,,,,,,1233.2889308999293,1233.2889308999293,1233.2889308999293,1233.2889308999293,1233.2889308999293,-36,-15,0.48,-0.08,return,0.46009439998306334,9,0,0,0,0.48,-0.08,return,0.38639210001565516,,,,,,,,,,,,,,,,,,,,,,,,,,,,,,,,,,,,,,,,,,,,,,,,,,,,,,,,1P4PJG,train_y,blue_star,top_right,2025-08-27_16h31.04.529,HideSeek_v1,2022.2.5,59.924016382544394,
,8,8,8,7,0,-1,62,,train_dim1_1,25,30,,,,2,0,2,0,,,,,,,,,0,0,0,0,0,24,24,24,0,0,0,0,,,,,,,,,,,,,,,,,,,,,,,,,stimuli/alien_stimuli/62.png,,,,,,,,,,,,,,,,,,,,,,,,,,,,,stimuli/alien_stimuli/66.png,66,8,26,,,,,,,30,,,,,,,,1238.651574799791,1238.651574799791,1238.651574799791,1238.651574799791,1238.651574799791,-36,-15,0.48,0.24,return,1.0363197000697255,9,1,0,0,0.48,0.24,return,0.9497990999370813,1237.094080099836,1238.651574799791,0.48,-0.24,0.4,0.0,-0.039999999999999994,0.48,0.48,0.48,-0.24,1235.2981044999324,1235.2981044999324,1235.2981044999324,1235.2981044999324,1235.2981044999324,1235.2981044999324,1235.2981044999324,1235.2981044999324,1235.292402219819,1.887247100006789,return,1.774091999977827,,,,,,,,,,,,,,,,,,,,,,,,,,,,,,,,,1P4PJG,train_y,blue_star,top_right,2025-08-27_16h31.04.529,HideSeek_v1,2022.2.5,59.924016382544394,
,9,9,9,6,0,-3,64,,train_dim1_1,26,30,,,,2,0,2,0,,,,,,,,,0,0,0,0,0,25,25,25,0,0,0,0,,,,,,,,,,,,,,,,,,,,,,,,,stimuli/alien_stimuli/64.png,,,,,,,,,,,,,,,,,,,,,,,,,,,,,stimuli/alien_stimuli/62.png,62,8,27,,,,,,,30,,,,,,,,1243.6668512998149,1243.6668512998149,1243.6668512998149,1243.6668512998149,1243.6668512998149,,,,,left,1.673210599925369,9,1,0,99,0.48000000000000004,0.32,left,1.5901428998913616,1242.1148932999931,1243.6668512998149,0.48,0.16,0.08,0.0,0.2,0.48,0.48,0.48,0.16,1241.2487114998512,1241.2487114998512,1241.2487114998512,1241.2487114998512,1241.2487114998512,1241.2487114998512,1241.2487114998512,1241.2487114998512,1241.2473902398024,0.9695270000956953,return,0.8346311000641435,,,,,,,,,,,,,,,,,,,,,,,,,,,,,,,,,1P4PJG,train_y,blue_star,top_right,2025-08-27_16h31.04.529,HideSeek_v1,2022.2.5,59.924016382544394,
,9,9,9,6,0,-3,64,,train_dim1_1,26,30,,,,2,0,2,0,,,,,,,,,0,0,0,0,0,25,25,25,1,0,1,0,,,,,,,,,,,,,,,,,,,,,,,,,,,,,,,,,,,,,,,,,,,,,,,,,,,,,,,,,,,,,,,,30,,,,,,,,1245.3474897998385,1245.3474897998385,1245.3474897998385,1245.3474897998385,1245.3474897998385,,,,,left,0.2926610999274999,9,1,0,99,0.4,0.32,left,0.21519539994187653,,,,,,,,,,,,,,,,,,,,,,,,,,,,,,,,,,,,,,,,,,,,,,,,,,,,,,,,1P4PJG,train_y,blue_star,top_right,2025-08-27_16h31.04.529,HideSeek_v1,2022.2.5,59.924016382544394,
,9,9,9,6,0,-3,64,,train_dim1_1,26,30,,,,2,0,2,0,,,,,,,,,0,0,0,0,0,25,25,25,2,0,2,0,,,,,,,,,,,,,,,,,,,,,,,,,,,,,,,,,,,,,,,,,,,,,,,,,,,,,,,,,,,,,,,,30,,,,,,,,1245.648000799818,1245.648000799818,1245.648000799818,1245.648000799818,1245.648000799818,,,,,left,0.2652153999079019,9,1,0,99,0.32,0.32,left,0.18172620004042983,,,,,,,,,,,,,,,,,,,,,,,,,,,,,,,,,,,,,,,,,,,,,,,,,,,,,,,,1P4PJG,train_y,blue_star,top_right,2025-08-27_16h31.04.529,HideSeek_v1,2022.2.5,59.924016382544394,
,9,9,9,6,0,-3,64,,train_dim1_1,26,30,,,,2,0,2,0,,,,,,,,,0,0,0,0,0,25,25,25,3,0,3,0,,,,,,,,,,,,,,,,,,,,,,,,,,,,,,,,,,,,,,,,,,,,,,,,,,,,,,,,,,,,,,,,30,,,,,,,,1245.9286490997765,1245.9286490997765,1245.9286490997765,1245.9286490997765,1245.9286490997765,-36,-18,0.32,0.32,return,0.3308787001296878,9,0,0,0,0.32,0.32,return,0.2491198000498116,,,,,,,,,,,,,,,,,,,,,,,,,,,,,,,,,,,,,,,,,,,,,,,,,,,,,,,,1P4PJG,train_y,blue_star,top_right,2025-08-27_16h31.04.529,HideSeek_v1,2022.2.5,59.924016382544394,
,8,9,8,4,0,-5,66,,train_dim1_1,27,30,,,,2,0,2,0,,,,,,,,,0,0,0,0,0,26,26,26,0,0,0,0,,,,,,,,,,,,,,,,,,,,,,,,,stimuli/alien_stimuli/66.png,,,,,,,,,,,,,,,,,,,,,,,,,,,,,stimuli/alien_stimuli/64.png,64,9,28,,,,,,,30,,,,,,,,1251.3419684998225,1251.3419684998225,1251.3419684998225,1251.3419684998225,1251.3419684998225,,,,,down,2.7551806999836117,9,0,0,99,0.48,0.24,down,2.6710294999647886,1249.7876806999557,1251.3419684998225,0.56,0.08,0.24,0.0,0.2,0.56,0.56,0.56,0.08,1247.8095566998236,1247.8095566998236,1247.8095566998236,1247.8095566998236,1247.8095566998236,1247.8095566998236,1247.8095566998236,1247.8095566998236,1247.8029394197279,2.0705291000194848,return,1.9482587999664247,,,,,,,,,,,,,,,,,,,,,,,,,,,,,,,,,1P4PJG,train_y,blue_star,top_right,2025-08-27_16h31.04.529,HideSeek_v1,2022.2.5,59.924016382544394,
,8,9,8,4,0,-5,66,,train_dim1_1,27,30,,,,2,0,2,0,,,,,,,,,0,0,0,0,0,26,26,26,1,0,1,0,,,,,,,,,,,,,,,,,,,,,,,,,,,,,,,,,,,,,,,,,,,,,,,,,,,,,,,,,,,,,,,,30,,,,,,,,1254.1044618999586,1254.1044618999586,1254.1044618999586,1254.1044618999586,1254.1044618999586,,,,,down,0.3764391001313925,9,0,0,99,0.48,0.15999999999999998,down,0.2935055000707507,,,,,,,,,,,,,,,,,,,,,,,,,,,,,,,,,,,,,,,,,,,,,,,,,,,,,,,,1P4PJG,train_y,blue_star,top_right,2025-08-27_16h31.04.529,HideSeek_v1,2022.2.5,59.924016382544394,
,8,9,8,4,0,-5,66,,train_dim1_1,27,30,,,,2,0,2,0,,,,,,,,,0,0,0,0,0,26,26,26,2,0,2,0,,,,,,,,,,,,,,,,,,,,,,,,,,,,,,,,,,,,,,,,,,,,,,,,,,,,,,,,,,,,,,,,30,,,,,,,,1254.4890777999535,1254.4890777999535,1254.4890777999535,1254.4890777999535,1254.4890777999535,,,,,down,0.30946699995547533,9,0,0,99,0.48,0.07999999999999997,down,0.23129679984413087,,,,,,,,,,,,,,,,,,,,,,,,,,,,,,,,,,,,,,,,,,,,,,,,,,,,,,,,1P4PJG,train_y,blue_star,top_right,2025-08-27_16h31.04.529,HideSeek_v1,2022.2.5,59.924016382544394,
,8,9,8,4,0,-5,66,,train_dim1_1,27,30,,,,2,0,2,0,,,,,,,,,0,0,0,0,0,26,26,26,3,0,3,0,,,,,,,,,,,,,,,,,,,,,,,,,,,,,,,,,,,,,,,,,,,,,,,,,,,,,,,,,,,,,,,,30,,,,,,,,1254.8064790999051,1254.8064790999051,1254.8064790999051,1254.8064790999051,1254.8064790999051,-39,-18,0.48,0.07999999999999997,return,0.3431499998550862,9,0,0,0,0.48,0.07999999999999997,return,0.2652732999995351,,,,,,,,,,,,,,,,,,,,,,,,,,,,,,,,,,,,,,,,,,,,,,,,,,,,,,,,1P4PJG,train_y,blue_star,top_right,2025-08-27_16h31.04.529,HideSeek_v1,2022.2.5,59.924016382544394,
,9,6,9,6,0,0,61,,train_dim1_1,28,30,,,,2,0,2,0,,,,,,,,,0,0,0,0,0,27,27,27,0,0,0,0,,,,,,,,,,,,,,,,,,,,,,,,,stimuli/alien_stimuli/61.png,,,,,,,,,,,,,,,,,,,,,,,,,,,,,stimuli/alien_stimuli/66.png,66,8,29,,,,,,,30,,,,,,,,1261.502951100003,1261.502951100003,1261.502951100003,1261.502951100003,1261.502951100003,-39,-18,0.56,0.08,return,1.40340940002352,10,0,0,1,0.56,0.08,return,1.321087900083512,1259.9461370999925,1261.502951100003,0.48,-0.08,0.4,0.0,0.12,0.48,0.48,0.48,-0.08,1256.706562699983,1256.706562699983,1256.706562699983,1256.706562699983,1256.706562699983,1256.706562699983,1256.706562699983,1256.706562699983,1256.693704219861,3.3381483999546617,return,3.21448739990592,,,,,,,,,,,,,,,,,,,,,,,,,,,,,,,,,1P4PJG,train_y,blue_star,top_right,2025-08-27_16h31.04.529,HideSeek_v1,2022.2.5,59.924016382544394,
,7,7,7,6,0,-1,62,,train_dim1_1,29,30,,,,2,0,2,0,,,,,,,,,0,0,0,0,0,28,28,28,0,0,0,0,,,,,,,,,,,,,,,,,,,,,,,,,stimuli/alien_stimuli/62.png,,,,,,,,,,,,,,,,,,,,,,,,,,,,,stimuli/alien_stimuli/61.png,61,9,30,,,,,,,30,,,,,,,,1267.0098227998242,1267.0098227998242,1267.0098227998242,1267.0098227998242,1267.0098227998242,,,,,left,1.5686909998767078,10,0,0,99,0.32,0.16,left,1.4919541000854224,1265.45086049987,1267.0098227998242,0.56,0.08,0.0,0.0,0.08,0.56,0.56,0.56,0.08,1264.457441299921,1264.457441299921,1264.457441299921,1264.457441299921,1264.457441299921,1264.457441299921,1264.457441299921,1264.457441299921,1264.450206019776,1.0860471001360565,return,0.9663060999009758,,,,,,,,,,,,,,,,,,,,,,,,,,,,,,,,,1P4PJG,train_y,blue_star,top_right,2025-08-27_16h31.04.529,HideSeek_v1,2022.2.5,59.924016382544394,
,7,7,7,6,0,-1,62,,train_dim1_1,29,30,,,,2,0,2,0,,,,,,,,,0,0,0,0,0,28,28,28,1,0,1,0,,,,,,,,,,,,,,,,,,,,,,,,,,,,,,,,,,,,,,,,,,,,,,,,,,,,,,,,,,,,,,,,30,,,,,,,,1268.584034799831,1268.584034799831,1268.584034799831,1268.584034799831,1268.584034799831,-39,-19,0.32,0.16,return,0.2597817999776453,10,0,0,0,0.32,0.16,return,0.18425559997558594,,,,,,,,,,,,,,,,,,,,,,,,,,,,,,,,,,,,,,,,,,,,,,,,,,,,,,,,1P4PJG,train_y,blue_star,top_right,2025-08-27_16h31.04.529,HideSeek_v1,2022.2.5,59.924016382544394,
,5,6,5,2,0,-4,65,,train_dim1_1,30,30,,,,2,0,2,0,,,,,,,,,0,0,0,0,0,29,29,29,0,0,0,0,,,,,,,,,,,,,,,,,,,,,,,,,stimuli/alien_stimuli/65.png,,,,,,,,,,,,,,,,,,,,,,,,,,,,,stimuli/alien_stimuli/62.png,62,7,31,,,,,,,30,,,,,,,,1274.154653799953,1274.154653799953,1274.154653799953,1274.154653799953,1274.154653799953,,,,,down,2.9147075000219047,10,0,0,99,0.24,0.0,down,2.8279637000523508,1272.5903459999245,1274.154653799953,0.4,0.08,0.08,0.0,0.12,0.4,0.4,0.4,0.08,1270.4004433997907,1270.4004433997907,1270.4004433997907,1270.4004433997907,1270.4004433997907,1270.4004433997907,1270.4004433997907,1270.4004433997907,1270.3883162197658,2.2875661000143737,return,2.167038300074637,,,,,,,,,,,,,,,,,,,,,,,,,,,,,,,,,1P4PJG,train_y,blue_star,top_right,2025-08-27_16h31.04.529,HideSeek_v1,2022.2.5,59.924016382544394,
,5,6,5,2,0,-4,65,,train_dim1_1,30,30,,,,2,0,2,0,,,,,,,,,0,0,0,0,0,29,29,29,1,0,1,0,,,,,,,,,,,,,,,,,,,,,,,,,,,,,,,,,,,,,,,,,,,,,,,,,,,,,,,,,,,,,,,,30,,,,,,,,1277.074793299893,1277.074793299893,1277.074793299893,1277.074793299893,1277.074793299893,,,,,down,0.25904810009524226,10,0,0,99,0.24,-0.08,down,0.18689479981549084,,,,,,,,,,,,,,,,,,,,,,,,,,,,,,,,,,,,,,,,,,,,,,,,,,,,,,,,1P4PJG,train_y,blue_star,top_right,2025-08-27_16h31.04.529,HideSeek_v1,2022.2.5,59.924016382544394,
,5,6,5,2,0,-4,65,,train_dim1_1,30,30,,,,2,0,2,0,,,,,,,,,0,0,0,0,0,29,29,29,2,0,2,0,,,,,,,,,,,,,,,,,,,,,,,,,,,,,,,,,,,,,,,,,,,,,,,,,,,,,,,,,,,,,,,,30,,,,,,,,1277.3411315998528,1277.3411315998528,1277.3411315998528,1277.3411315998528,1277.3411315998528,,,,,down,0.3096470001619309,10,0,0,99,0.24,-0.16,down,0.22143279993906617,,,,,,,,,,,,,,,,,,,,,,,,,,,,,,,,,,,,,,,,,,,,,,,,,,,,,,,,1P4PJG,train_y,blue_star,top_right,2025-08-27_16h31.04.529,HideSeek_v1,2022.2.5,59.924016382544394,
,5,6,5,2,0,-4,65,,train_dim1_1,30,30,,,,2,0,2,0,,,,,,,,,0,0,0,0,0,29,29,29,3,0,3,0,,,,,,,,,,,,,,,,,,,,,,,,,,,,,,,,,,,,,,,,,,,,,,,,,,,,,,,,,,,,,,,,30,,,,,,,,1277.6587298999075,1277.6587298999075,1277.6587298999075,1277.6587298999075,1277.6587298999075,,,,,down,0.29957909998483956,10,0,0,99,0.24,-0.24,down,0.21523019997403026,,,,,,,,,,,,,,,,,,,,,,,,,,,,,,,,,,,,,,,,,,,,,,,,,,,,,,,,1P4PJG,train_y,blue_star,top_right,2025-08-27_16h31.04.529,HideSeek_v1,2022.2.5,59.924016382544394,
,5,6,5,2,0,-4,65,,train_dim1_1,30,30,,,,2,0,2,0,,,,,,,,,0,0,0,0,0,29,29,29,4,0,4,0,,,,,,,,,,,,,,,,,,,,,,,,,,,,,,,,,,,,,,,,,,,,,,,,,,,,,,,,,,,,,,,,30,,,,,,,,1277.9708916998934,1277.9708916998934,1277.9708916998934,1277.9708916998934,1277.9708916998934,,,,,down,0.2802634001709521,10,0,0,99,0.24,-0.32,down,0.19653939991258085,,,,,,,,,,,,,,,,,,,,,,,,,,,,,,,,,,,,,,,,,,,,,,,,,,,,,,,,1P4PJG,train_y,blue_star,top_right,2025-08-27_16h31.04.529,HideSeek_v1,2022.2.5,59.924016382544394,
,5,6,5,2,0,-4,65,,train_dim1_1,30,30,,,,2,0,2,0,,,,,,,,,0,0,0,0,0,29,29,29,5,0,5,0,,,,,,,,,,,,,,,,,,,,,,,,,,,,,,,,,,,,,,,,,,,,,,,,,,,,,,,,,,,,,,,,30,,,,,,,,1278.2632961999625,1278.2632961999625,1278.2632961999625,1278.2632961999625,1278.2632961999625,-44,-19,0.24,-0.32,return,0.40596280014142394,10,1,0,0,0.24,-0.32,return,0.317290399922058,,,,,,,,,,,,,,,,,,,,,,,,,,,,,,,,,,,,,,,,,,,,,,,,,,,,,,,,1P4PJG,train_y,blue_star,top_right,2025-08-27_16h31.04.529,HideSeek_v1,2022.2.5,59.924016382544394,
,,,,,,,,,,,30,,,,2,0,2,0,,,,,,,,,,,,,,,,,,,,,,,,,,,,,,,,,,,,,,,,,,,,,,,,,,,,,,,,,,,,,,,,,,,,,,,,,,stimuli/alien_stimuli/65.png,65,5,32,21,0.7,0.41666666666666674,1,1,1,30,0,conditions/schedules/train_y_first/blue_star_00/top_right/inputTrain_2.1.xlsx,99,1,2,1,0,,,,,,,,,,,,,,,0,,,,,1283.1656382998917,1284.7254115999676,0.24,-0.24,0.32,0.0,-0.07999999999999999,0.24,0.24,0.24,-0.24,1280.2203047999647,1280.2203047999647,1280.2203047999647,1280.2203047999647,1280.2203047999647,1280.2203047999647,1280.2203047999647,1280.2203047999647,1280.2131777197123,3.037761100102216,return,2.9208258998114616,0,0.9,0,1,10,,,,,,,,,,,,,,,,,,,,,,,,,,,,1P4PJG,train_y,blue_star,top_right,2025-08-27_16h31.04.529,HideSeek_v1,2022.2.5,59.924016382544394,
,,,,,,,,,,,,,,,3,0,3,0,0,0,0,0,,,,,,,,,,,,,,,,,,,,,,,,,,,,,,,conditions/schedules/train_y_first/blue_star_00/top_right/instructions/Slide17.png,conditions/schedules/train_y_first/blue_star_00/top_right/instructions/Audio17.wav,1284.7254115999676,1284.7170532798862,17,"[7.435866000130773, 18.9293742000591, 16.7799751998391, 19.700495900120586, 5.221211299998686, 5.653741399990395, 5.868268999969587, 11.971898700110614, 6.449141699820757, 7.2877561000641435, 10.30267889983952, 14.259581100195646, 17.200259000062943, 17.102677900111303, 44.048643899848685, 22.197084299987182, 31.215157200116664]","[0.00020459992811083794, 18.92938149999827, 0.03492469992488623, 0.03386439988389611, 0.049141300143674016, 0.031072800047695637, 0.00021610013209283352, 0.014111899770796299, 0.04794050008058548, 0.06471519987098873, 0.01403140020556748, 14.259587800130248, 0.05480449995957315, 17.102684499928728, 0.030331799993291497, 22.197090599918738, 31.21516459994018]",0,,,,,,,,,,,,,,,,,,,,,,,,,,,,,,,,,,,,,,,,,,,,,,,,,,,,,,,,,,,,,,,,,,,,,,,,,,,,,,,,,,,,,,,,,,,,,,,,,,,,,,,,,,,,,,,,,,,,,,,,,,,,1P4PJG,train_y,blue_star,top_right,2025-08-27_16h31.04.529,HideSeek_v1,2022.2.5,59.924016382544394,
,,,,,,,,,,,,,,,3,0,3,0,1,0,1,0,,,,,,,,,,,,,,,,,,,,,,,,,,,,,,,conditions/schedules/train_y_first/blue_star_00/top_right/instructions/Slide18.png,conditions/schedules/train_y_first/blue_star_00/top_right/instructions/Audio18.wav,1316.0126217999496,1316.0097578997957,18,"[7.435866000130773, 18.9293742000591, 16.7799751998391, 19.700495900120586, 5.221211299998686, 5.653741399990395, 5.868268999969587, 11.971898700110614, 6.449141699820757, 7.2877561000641435, 10.30267889983952, 14.259581100195646, 17.200259000062943, 17.102677900111303, 44.048643899848685, 22.197084299987182, 31.215157200116664, 6.483073699986562]","[0.00020459992811083794, 18.92938149999827, 0.03492469992488623, 0.03386439988389611, 0.049141300143674016, 0.031072800047695637, 0.00021610013209283352, 0.014111899770796299, 0.04794050008058548, 0.06471519987098873, 0.01403140020556748, 14.259587800130248, 0.05480449995957315, 17.102684499928728, 0.030331799993291497, 22.197090599918738, 0.0002478999085724354, 6.483080199919641]",0,,,,,,,,,,,,,,,,,,,,,,,,,,,,,,,,,,,,,,,,,,,,,,,,,,,,,,,,,,,,,,,,,,,,,,,,,,,,,,,,,,,,,,,,,,,,,,,,,,,,,,,,,,,,,,,,,,,,,,,,,,,,1P4PJG,train_y,blue_star,top_right,2025-08-27_16h31.04.529,HideSeek_v1,2022.2.5,59.924016382544394,
,,,,,,,,,,,,,,,3,0,3,0,2,0,2,0,,,,,,,,,,,,,,,,,,,,,,,,,,,,,,,conditions/schedules/train_y_first/blue_star_00/top_right/instructions/Slide19.png,conditions/schedules/train_y_first/blue_star_00/top_right/instructions/Audio19.wav,1322.5505010997877,1322.5482057797724,19,"[7.435866000130773, 18.9293742000591, 16.7799751998391, 19.700495900120586, 5.221211299998686, 5.653741399990395, 5.868268999969587, 11.971898700110614, 6.449141699820757, 7.2877561000641435, 10.30267889983952, 14.259581100195646, 17.200259000062943, 17.102677900111303, 44.048643899848685, 22.197084299987182, 31.215157200116664, 6.483073699986562, 10.187352600041777]","[0.00020459992811083794, 18.92938149999827, 0.03492469992488623, 0.03386439988389611, 0.049141300143674016, 0.031072800047695637, 0.00021610013209283352, 0.014111899770796299, 0.04794050008058548, 0.06471519987098873, 0.01403140020556748, 14.259587800130248, 0.05480449995957315, 17.102684499928728, 0.030331799993291497, 22.197090599918738, 0.0002478999085724354, 0.014316899934783578, 10.187359299976379]",0,,,,,,,,,,,,,,,,,,,,,,,,,,,,,,,,,,,,,,,,,,,,,,,,,,,,,,,,,,,,,,,,,,,,,,,,,,,,,,,,,,,,,,,,,,,,,,,,,,,,,,,,,,,,,,,,,,,,,,,,,,,,1P4PJG,train_y,blue_star,top_right,2025-08-27_16h31.04.529,HideSeek_v1,2022.2.5,59.924016382544394,
,,,,,,,,,,,,,,,3,0,3,0,3,0,3,0,,,,,,,,,,,,,,,,,,,,,,,,,,,,,,,conditions/schedules/train_y_first/blue_star_00/top_right/instructions/Slide20.png,conditions/schedules/train_y_first/blue_star_00/top_right/instructions/Audio20.wav,1332.8077214998193,1332.8067590998253,20,"[7.435866000130773, 18.9293742000591, 16.7799751998391, 19.700495900120586, 5.221211299998686, 5.653741399990395, 5.868268999969587, 11.971898700110614, 6.449141699820757, 7.2877561000641435, 10.30267889983952, 14.259581100195646, 17.200259000062943, 17.102677900111303, 44.048643899848685, 22.197084299987182, 31.215157200116664, 6.483073699986562, 10.187352600041777, 12.923985299887136]","[0.00020459992811083794, 18.92938149999827, 0.03492469992488623, 0.03386439988389611, 0.049141300143674016, 0.031072800047695637, 0.00021610013209283352, 0.014111899770796299, 0.04794050008058548, 0.06471519987098873, 0.01403140020556748, 14.259587800130248, 0.05480449995957315, 17.102684499928728, 0.030331799993291497, 22.197090599918738, 0.0002478999085724354, 0.014316899934783578, 0.04673569998703897, 12.923991699935868]",0,,,,,,,,,,,,,,,,,,,,,,,,,,,,,,,,,,,,,,,,,,,,,,,,,,,,,,,,,,,,,,,,,,,,,,,,,,,,,,,,,,,,,,,,,,,,,,,,,,,,,,,,,,,,,,,,,,,,,,,,,,,,1P4PJG,train_y,blue_star,top_right,2025-08-27_16h31.04.529,HideSeek_v1,2022.2.5,59.924016382544394,
1,9,5,4,5,-5,0,11,2,instr_dim1_2,,,,,,3,0,3,0,,,,,0,0,0,0,,,,,,,,,,,,,,,,,,,,,,,,,,,,,,,,,,,,,stimuli/alien_stimuli/11.png,conditions/schedules/train_y_first/blue_star_00/top_right/inputInstr_2.xlsx,stimuli/alien_stimuli/11.png,1345.8436863999814,1345.8436863999814,1345.8436863999814,1345.8436863999814,1345.8342975397363,return,6.87173240003176,"[-0.16, -0.08, 0, 0.08, 0.16, 0.24, 0.32, 0.4, 0.48, 0.56]","[-0.4, -0.32, -0.24, -0.16, -0.08, 0, 0.08, 0.16, 0.24, 0.32]",5,5,4,9,0.0,0.4,1352.882503299974,1352.882503299974,1352.882503299974,1352.882503299974,1352.882503299974,1352.882503299974,1352.882503299974,1352.8734690796352,7.206890000030398,return,7.041773400036618,stimuli/alien_stimuli/11.png,11,9,1,,,,,,,,,,,,,,,,,,,,,,,,,,,,,,,,,,,,,,,,,,,,,,,,,,,,,,,,,,,,,,,,,,,,,,,,,,,,,,,,,,,,,,,,,1P4PJG,train_y,blue_star,top_right,2025-08-27_16h31.04.529,HideSeek_v1,2022.2.5,59.924016382544394,
,,,,,,,,,,,30,,,,3,0,3,0,,,,,,,,,,,,,,,,,,,,,,,,,,,,,,,,,,,,,,,,,,,,,,,,,,,,,,,,,,,,,,,,,,,,,,,,,,,,,,21,0.7,0.41666666666666674,1,99,2,30,0,conditions/schedules/train_y_first/blue_star_00/top_right/inputTrain_2.1.xlsx,99,1,2,1,0,,,,,,,,,,,,,,,,,,,,,,,,,,,,,,,,,,,,,,,,,,,,,,,,,,,,,,,,,,,,,,,,,,,,,,,,,,,1P4PJG,train_y,blue_star,top_right,2025-08-27_16h31.04.529,HideSeek_v1,2022.2.5,59.924016382544394,
,,,,,,,,,,,,,,,4,0,4,0,0,0,0,0,,,,,,,,,,,,,,,,,,,,,,,,,,,,,,,conditions/schedules/train_y_first/blue_star_00/top_right/instructions/Slide21.png,conditions/schedules/train_y_first/blue_star_00/top_right/instructions/Audio21.wav,1360.084843599936,1360.079722979828,21,"[7.435866000130773, 18.9293742000591, 16.7799751998391, 19.700495900120586, 5.221211299998686, 5.653741399990395, 5.868268999969587, 11.971898700110614, 6.449141699820757, 7.2877561000641435, 10.30267889983952, 14.259581100195646, 17.200259000062943, 17.102677900111303, 44.048643899848685, 22.197084299987182, 31.215157200116664, 6.483073699986562, 10.187352600041777, 12.923985299887136, 13.47263879980892]","[0.00020459992811083794, 18.92938149999827, 0.03492469992488623, 0.03386439988389611, 0.049141300143674016, 0.031072800047695637, 0.00021610013209283352, 0.014111899770796299, 0.04794050008058548, 0.06471519987098873, 0.01403140020556748, 14.259587800130248, 0.05480449995957315, 17.102684499928728, 0.030331799993291497, 22.197090599918738, 0.0002478999085724354, 0.014316899934783578, 0.04673569998703897, 12.923991699935868, 13.472646299982443]",0,,,,,,,,,,,,,,,,,,,,,,,,,,,,,,,,,,,,,,,,,,,,,,,,,,,,,,,,,,,,,,,,,,,,,,,,,,,,,,,,,,,,,,,,,,,,,,,,,,,,,,,,,,,,,,,,,,,,,,,,,,,,1P4PJG,train_y,blue_star,top_right,2025-08-27_16h31.04.529,HideSeek_v1,2022.2.5,59.924016382544394,
2,8,7,8,7,0,0,61,2,instr_dim1_2,,,,,,4,0,4,0,,,,,0,0,0,0,,,,,,,,,,,,,,,,,,,,,,,,,,,,,,,,,,,,,stimuli/alien_stimuli/61.png,conditions/schedules/train_y_first/blue_star_00/top_right/inputInstr_2.xlsx,stimuli/alien_stimuli/61.png,1373.6474662998226,1373.6474662998226,1373.6474662998226,1373.6474662998226,1373.640644919686,return,6.447935400065035,"[-0.16, -0.08, 0, 0.08, 0.16, 0.24, 0.32, 0.4, 0.48, 0.56]","[-0.4, -0.32, -0.24, -0.16, -0.08, 0, 0.08, 0.16, 0.24, 0.32]",7,7,8,8,0.0,0.0,1380.2326242998242,1380.2326242998242,1380.2326242998242,1380.2326242998242,1380.2326242998242,1380.2326242998242,1380.2326242998242,1380.2128575398356,6.089180999901146,return,5.946958600077778,stimuli/alien_stimuli/61.png,61,8,2,,,,,,,,,,,,,,,,,,,,,,,,,,,,,,,,,,,,,,,,,,,,,,,,,,,,,,,,,,,,,,,,,,,,,,,,,,,,,,,,,,,,,,,,,1P4PJG,train_y,blue_star,top_right,2025-08-27_16h31.04.529,HideSeek_v1,2022.2.5,59.924016382544394,
,,,,,,,,,,,30,,,,4,0,4,0,,,,,,,,,,,,,,,,,,,,,,,,,,,,,,,,,,,,,,,,,,,,,,,,,,,,,,,,,,,,,,,,,,,,,,,,,,,,,,21,0.7,0.41666666666666674,1,99,2,30,0,conditions/schedules/train_y_first/blue_star_00/top_right/inputTrain_2.1.xlsx,99,1,2,1,0,,,,,,,,,,,,,,,,,,,,,,,,,,,,,,,,,,,,,,,,,,,,,,,,,,,,,,,,,,,,,,,,,,,,,,,,,,,1P4PJG,train_y,blue_star,top_right,2025-08-27_16h31.04.529,HideSeek_v1,2022.2.5,59.924016382544394,
,,,,,,,,,,,,,,,5,0,5,0,0,0,0,0,,,,,,,,,,,,,,,,,,,,,,,,,,,,,,,conditions/schedules/train_y_first/blue_star_00/top_right/instructions/Slide22.png,conditions/schedules/train_y_first/blue_star_00/top_right/instructions/Audio22.wav,1386.3391444999725,1386.3345571798507,22,"[7.435866000130773, 18.9293742000591, 16.7799751998391, 19.700495900120586, 5.221211299998686, 5.653741399990395, 5.868268999969587, 11.971898700110614, 6.449141699820757, 7.2877561000641435, 10.30267889983952, 14.259581100195646, 17.200259000062943, 17.102677900111303, 44.048643899848685, 22.197084299987182, 31.215157200116664, 6.483073699986562, 10.187352600041777, 12.923985299887136, 13.47263879980892, 30.3515461999923]","[0.00020459992811083794, 18.92938149999827, 0.03492469992488623, 0.03386439988389611, 0.049141300143674016, 0.031072800047695637, 0.00021610013209283352, 0.014111899770796299, 0.04794050008058548, 0.06471519987098873, 0.01403140020556748, 14.259587800130248, 0.05480449995957315, 17.102684499928728, 0.030331799993291497, 22.197090599918738, 0.0002478999085724354, 0.014316899934783578, 0.04673569998703897, 12.923991699935868, 13.472646299982443, 30.351553099928424]",0,,,,,,,,,,,,,,,,,,,,,,,,,,,,,,,,,,,,,,,,,,,,,,,,,,,,,,,,,,,,,,,,,,,,,,,,,,,,,,,,,,,,,,,,,,,,,,,,,,,,,,,,,,,,,,,,,,,,,,,,,,,,1P4PJG,train_y,blue_star,top_right,2025-08-27_16h31.04.529,HideSeek_v1,2022.2.5,59.924016382544394,
,7,6,4,6,-3,0,31,,train_dim1_2,1,30,,,,5,0,5,0,,,,,,,,,0,0,0,0,0,0,0,0,0,0,0,0,,,,,,,,,,,,,,,,,,,,,,,,,stimuli/alien_stimuli/31.png,,,,,,,,,,,,,,,,,,,,,,,,,,,,,,,,,,,,,,,30,,,,,,,,1416.784736200003,1416.784736200003,1416.784736200003,1416.784736200003,1416.784736200003,-44,-19,0.4,0.08,return,6.46489020017907,0,0,0,0,0.4,0.08,return,6.374694099882618,,,,,,,,,,,,,,,,,,,,,,,,,,,,,,,,,,,,,,,,,,,,,,,,,,,,,,,,1P4PJG,train_y,blue_star,top_right,2025-08-27_16h31.04.529,HideSeek_v1,2022.2.5,59.924016382544394,
,7,9,2,9,-5,0,11,,train_dim1_2,2,30,,,,5,0,5,0,,,,,,,,,0,0,0,0,0,1,1,1,0,0,0,0,,,,,,,,,,,,,,,,,,,,,,,,,stimuli/alien_stimuli/11.png,,,,,,,,,,,,,,,,,,,,,,,,,,,,,stimuli/alien_stimuli/31.png,31,7,3,,,,,,,30,,,,,,,,1428.220589599805,1428.220589599805,1428.220589599805,1428.220589599805,1428.220589599805,,,,,left,2.2057143999263644,0,0,0,99,0.32,0.32,left,2.0992821999825537,1426.634810099844,1428.220589599805,0.16,0.08,0.0,0.24,0.08,0.16,0.28,0.16,0.08,1424.8232454999816,1424.8232454999816,1424.8232454999816,1424.8232454999816,1424.8232454999816,1424.8232454999816,1424.8232454999816,1424.8232454999816,1424.8166109598708,1.9371366000268608,return,1.7801004000939429,,,,,,,,,,,,,,,,,,,,,,,,,,,,,,,,,1P4PJG,train_y,blue_star,top_right,2025-08-27_16h31.04.529,HideSeek_v1,2022.2.5,59.924016382544394,
,7,9,2,9,-5,0,11,,train_dim1_2,2,30,,,,5,0,5,0,,,,,,,,,0,0,0,0,0,1,1,1,1,0,1,0,,,,,,,,,,,,,,,,,,,,,,,,,,,,,,,,,,,,,,,,,,,,,,,,,,,,,,,,,,,,,,,,30,,,,,,,,1430.41229989985,1430.41229989985,1430.41229989985,1430.41229989985,1430.41229989985,,,,,left,0.22114180005155504,0,0,0,99,0.24,0.32,left,0.12961910013109446,,,,,,,,,,,,,,,,,,,,,,,,,,,,,,,,,,,,,,,,,,,,,,,,,,,,,,,,1P4PJG,train_y,blue_star,top_right,2025-08-27_16h31.04.529,HideSeek_v1,2022.2.5,59.924016382544394,
,7,9,2,9,-5,0,11,,train_dim1_2,2,30,,,,5,0,5,0,,,,,,,,,0,0,0,0,0,1,1,1,2,0,2,0,,,,,,,,,,,,,,,,,,,,,,,,,,,,,,,,,,,,,,,,,,,,,,,,,,,,,,,,,,,,,,,,30,,,,,,,,1430.6437965999357,1430.6437965999357,1430.6437965999357,1430.6437965999357,1430.6437965999357,,,,,left,0.20999110001139343,0,0,0,99,0.15999999999999998,0.32,left,0.11663500010035932,,,,,,,,,,,,,,,,,,,,,,,,,,,,,,,,,,,,,,,,,,,,,,,,,,,,,,,,1P4PJG,train_y,blue_star,top_right,2025-08-27_16h31.04.529,HideSeek_v1,2022.2.5,59.924016382544394,
,7,9,2,9,-5,0,11,,train_dim1_2,2,30,,,,5,0,5,0,,,,,,,,,0,0,0,0,0,1,1,1,3,0,3,0,,,,,,,,,,,,,,,,,,,,,,,,,,,,,,,,,,,,,,,,,,,,,,,,,,,,,,,,,,,,,,,,30,,,,,,,,1430.8584919997957,1430.8584919997957,1430.8584919997957,1430.8584919997957,1430.8584919997957,-44,-22,0.15999999999999998,0.32,return,0.4098229000810534,0,0,0,0,0.15999999999999998,0.32,return,0.31689819996245205,,,,,,,,,,,,,,,,,,,,,,,,,,,,,,,,,,,,,,,,,,,,,,,,,,,,,,,,1P4PJG,train_y,blue_star,top_right,2025-08-27_16h31.04.529,HideSeek_v1,2022.2.5,59.924016382544394,
,9,9,5,9,-4,0,21,,train_dim1_2,3,30,,,,5,0,5,0,,,,,,,,,0,0,0,0,0,2,2,2,0,0,0,0,,,,,,,,,,,,,,,,,,,,,,,,,stimuli/alien_stimuli/21.png,,,,,,,,,,,,,,,,,,,,,,,,,,,,,stimuli/alien_stimuli/11.png,11,7,4,,,,,,,30,,,,,,,,1436.7755589999724,1436.7755589999724,1436.7755589999724,1436.7755589999724,1436.7755589999724,-44,-22,0.56,0.32,return,4.641331700142473,0,0,0,0,0.56,0.32,return,4.52978549990803,1435.1919236998074,1436.7755589999724,0,0.32,0.0,0.4,0.32,0,0.2,0,0.32,1432.8348650999833,1432.8348650999833,1432.8348650999833,1432.8348650999833,1432.8348650999833,1432.8348650999833,1432.8348650999833,1432.8348650999833,1432.8234953396723,2.470357700018212,return,2.3274713000282645,,,,,,,,,,,,,,,,,,,,,,,,,,,,,,,,,1P4PJG,train_y,blue_star,top_right,2025-08-27_16h31.04.529,HideSeek_v1,2022.2.5,59.924016382544394,
,7,8,6,8,-1,0,51,,train_dim1_2,4,30,,,,5,0,5,0,,,,,,,,,0,0,0,0,0,3,3,3,0,0,0,0,,,,,,,,,,,,,,,,,,,,,,,,,stimuli/alien_stimuli/51.png,,,,,,,,,,,,,,,,,,,,,,,,,,,,,stimuli/alien_stimuli/21.png,21,9,5,,,,,,,30,,,,,,,,1446.0905945999548,1446.0905945999548,1446.0905945999548,1446.0905945999548,1446.0905945999548,,,,,up,3.8074341998435557,0,0,0,99,0.4,0.32,up,3.711206499952823,1444.516518099932,1446.0905945999548,0.24,0.32,0.0,0.32,0.32,0.24,0.4,0.24,0.32,1442.9697564998642,1442.9697564998642,1442.9697564998642,1442.9697564998642,1442.9697564998642,1442.9697564998642,1442.9697564998642,1442.9697564998642,1442.9485152397074,1.6701410999521613,return,1.5278723000083119,,,,,,,,,,,,,,,,,,,,,,,,,,,,,,,,,1P4PJG,train_y,blue_star,top_right,2025-08-27_16h31.04.529,HideSeek_v1,2022.2.5,59.924016382544394,
,7,8,6,8,-1,0,51,,train_dim1_2,4,30,,,,5,0,5,0,,,,,,,,,0,0,0,0,0,3,3,3,1,0,1,0,,,,,,,,,,,,,,,,,,,,,,,,,,,,,,,,,,,,,,,,,,,,,,,,,,,,,,,,,,,,,,,,30,,,,,,,,1449.888740699971,1449.888740699971,1449.888740699971,1449.888740699971,1449.888740699971,-43,-22,0.4,0.32,return,0.40939579997211695,0,0,0,0,0.4,0.32,return,0.33008249988779426,,,,,,,,,,,,,,,,,,,,,,,,,,,,,,,,,,,,,,,,,,,,,,,,,,,,,,,,1P4PJG,train_y,blue_star,top_right,2025-08-27_16h31.04.529,HideSeek_v1,2022.2.5,59.924016382544394,
,5,7,5,7,0,0,61,,train_dim1_2,5,30,,,,5,0,5,0,,,,,,,,,0,0,0,0,0,4,4,4,0,0,0,0,,,,,,,,,,,,,,,,,,,,,,,,,stimuli/alien_stimuli/61.png,,,,,,,,,,,,,,,,,,,,,,,,,,,,,stimuli/alien_stimuli/51.png,51,7,6,,,,,,,30,,,,,,,,1455.4795212999452,1455.4795212999452,1455.4795212999452,1455.4795212999452,1455.4795212999452,-43,-22,0.24,0.16,return,1.603103500092402,1,0,0,1,0.24,0.16,return,1.4922281000763178,1453.890824199887,1455.4795212999452,0.32,0.24,0.0,0.08,0.24,0.32,0.36,0.32,0.24,1451.8720204997808,1451.8720204997808,1451.8720204997808,1451.8720204997808,1451.8720204997808,1451.8720204997808,1451.8720204997808,1451.8720204997808,1451.8559378397886,2.1373131000436842,return,1.9961649000179023,,,,,,,,,,,,,,,,,,,,,,,,,,,,,,,,,1P4PJG,train_y,blue_star,top_right,2025-08-27_16h31.04.529,HideSeek_v1,2022.2.5,59.924016382544394,
,5,5,1,5,-4,0,21,,train_dim1_2,6,30,,,,5,0,5,0,,,,,,,,,0,0,0,0,0,5,5,5,0,0,0,0,,,,,,,,,,,,,,,,,,,,,,,,,stimuli/alien_stimuli/21.png,,,,,,,,,,,,,,,,,,,,,,,,,,,,,stimuli/alien_stimuli/61.png,61,5,7,,,,,,,30,,,,,,,,1461.795534499921,1461.795534499921,1461.795534499921,1461.795534499921,1461.795534499921,,,,,left,2.4050855999812484,1,0,0,99,0.15999999999999998,0,left,2.3129529000725597,1460.229481499875,1461.795534499921,0.24,0.16,0.0,0.0,0.16,0.24,0.24,0.24,0.16,1458.6231979997829,1458.6231979997829,1458.6231979997829,1458.6231979997829,1458.6231979997829,1458.6231979997829,1458.6231979997829,1458.6231979997829,1458.6117021397922,1.7196639999747276,return,1.5831986998673528,,,,,,,,,,,,,,,,,,,,,,,,,,,,,,,,,1P4PJG,train_y,blue_star,top_right,2025-08-27_16h31.04.529,HideSeek_v1,2022.2.5,59.924016382544394,
,5,5,1,5,-4,0,21,,train_dim1_2,6,30,,,,5,0,5,0,,,,,,,,,0,0,0,0,0,5,5,5,1,0,1,0,,,,,,,,,,,,,,,,,,,,,,,,,,,,,,,,,,,,,,,,,,,,,,,,,,,,,,,,,,,,,,,,30,,,,,,,,1464.2055765998084,1464.2055765998084,1464.2055765998084,1464.2055765998084,1464.2055765998084,,,,,left,0.25953170005232096,1,0,0,99,0.07999999999999997,0,left,0.17823159997351468,,,,,,,,,,,,,,,,,,,,,,,,,,,,,,,,,,,,,,,,,,,,,,,,,,,,,,,,1P4PJG,train_y,blue_star,top_right,2025-08-27_16h31.04.529,HideSeek_v1,2022.2.5,59.924016382544394,
,5,5,1,5,-4,0,21,,train_dim1_2,6,30,,,,5,0,5,0,,,,,,,,,0,0,0,0,0,5,5,5,2,0,2,0,,,,,,,,,,,,,,,,,,,,,,,,,,,,,,,,,,,,,,,,,,,,,,,,,,,,,,,,,,,,,,,,30,,,,,,,,1464.47036139993,1464.47036139993,1464.47036139993,1464.47036139993,1464.47036139993,,,,,left,0.3434243998490274,1,0,0,99,-2.7755575615628914e-17,0,left,0.24816949991509318,,,,,,,,,,,,,,,,,,,,,,,,,,,,,,,,,,,,,,,,,,,,,,,,,,,,,,,,1P4PJG,train_y,blue_star,top_right,2025-08-27_16h31.04.529,HideSeek_v1,2022.2.5,59.924016382544394,
,5,5,1,5,-4,0,21,,train_dim1_2,6,30,,,,5,0,5,0,,,,,,,,,0,0,0,0,0,5,5,5,3,0,3,0,,,,,,,,,,,,,,,,,,,,,,,,,,,,,,,,,,,,,,,,,,,,,,,,,,,,,,,,,,,,,,,,30,,,,,,,,1464.819947999902,1464.819947999902,1464.819947999902,1464.819947999902,1464.819947999902,,,,,left,0.3432072000578046,1,0,0,99,-0.08000000000000003,0,left,0.25544789992272854,,,,,,,,,,,,,,,,,,,,,,,,,,,,,,,,,,,,,,,,,,,,,,,,,,,,,,,,1P4PJG,train_y,blue_star,top_right,2025-08-27_16h31.04.529,HideSeek_v1,2022.2.5,59.924016382544394,
,5,5,1,5,-4,0,21,,train_dim1_2,6,30,,,,5,0,5,0,,,,,,,,,0,0,0,0,0,5,5,5,4,0,4,0,,,,,,,,,,,,,,,,,,,,,,,,,,,,,,,,,,,,,,,,,,,,,,,,,,,,,,,,,,,,,,,,30,,,,,,,,1465.1732312999666,1465.1732312999666,1465.1732312999666,1465.1732312999666,1465.1732312999666,,,,,left,0.3433113999199122,1,0,0,99,-0.16000000000000003,0,left,0.24518590001389384,,,,,,,,,,,,,,,,,,,,,,,,,,,,,,,,,,,,,,,,,,,,,,,,,,,,,,,,1P4PJG,train_y,blue_star,top_right,2025-08-27_16h31.04.529,HideSeek_v1,2022.2.5,59.924016382544394,
,5,5,1,5,-4,0,21,,train_dim1_2,6,30,,,,5,0,5,0,,,,,,,,,0,0,0,0,0,5,5,5,5,0,5,0,,,,,,,,,,,,,,,,,,,,,,,,,,,,,,,,,,,,,,,,,,,,,,,,,,,,,,,,,,,,,,,,30,,,,,,,,1465.5239394998644,1465.5239394998644,1465.5239394998644,1465.5239394998644,1465.5239394998644,-43,-27,-0.16000000000000003,0,return,0.7599884001538157,1,1,0,0,-0.16000000000000003,0,return,0.6704964998643845,,,,,,,,,,,,,,,,,,,,,,,,,,,,,,,,,,,,,,,,,,,,,,,,,,,,,,,,1P4PJG,train_y,blue_star,top_right,2025-08-27_16h31.04.529,HideSeek_v1,2022.2.5,59.924016382544394,
,8,5,8,5,0,0,61,,train_dim1_2,7,30,,,,5,0,5,0,,,,,,,,,0,0,0,0,0,6,6,6,0,0,0,0,,,,,,,,,,,,,,,,,,,,,,,,,stimuli/alien_stimuli/61.png,,,,,,,,,,,,,,,,,,,,,,,,,,,,,stimuli/alien_stimuli/21.png,21,5,8,,,,,,,30,,,,,,,,1472.346988499863,1472.346988499863,1472.346988499863,1472.346988499863,1472.346988499863,-43,-27,0.48,0,return,1.1402645998168737,2,0,0,1,0.48,0,return,1.0595885999500751,1470.7880892998073,1472.346988499863,-0.08,0,0.0,0.32,0.0,-0.08,0.07999999999999999,-0.08,0,1467.854799399851,1467.854799399851,1467.854799399851,1467.854799399851,1467.854799399851,1467.854799399851,1467.854799399851,1467.854799399851,1467.8358064397007,3.0543829000089318,return,2.9110679000150412,,,,,,,,,,,,,,,,,,,,,,,,,,,,,,,,,1P4PJG,train_y,blue_star,top_right,2025-08-27_16h31.04.529,HideSeek_v1,2022.2.5,59.924016382544394,
,5,9,2,9,-3,0,31,,train_dim1_2,8,30,,,,5,0,5,0,,,,,,,,,0,0,0,0,0,7,7,7,0,0,0,0,,,,,,,,,,,,,,,,,,,,,,,,,stimuli/alien_stimuli/31.png,,,,,,,,,,,,,,,,,,,,,,,,,,,,,stimuli/alien_stimuli/61.png,61,8,9,,,,,,,30,,,,,,,,1477.6389250999782,1477.6389250999782,1477.6389250999782,1477.6389250999782,1477.6389250999782,,,,,left,3.523051399970427,2,0,0,99,0.15999999999999998,0.32,left,3.430372199974954,1476.075985999778,1477.6389250999782,0.48,0,0.0,0.0,0.0,0.48,0.48,0.48,0,1475.0688600998838,1475.0688600998838,1475.0688600998838,1475.0688600998838,1475.0688600998838,1475.0688600998838,1475.0688600998838,1475.0688600998838,1475.0584835596849,1.1357879000715911,return,0.9809733000583947,,,,,,,,,,,,,,,,,,,,,,,,,,,,,,,,,1P4PJG,train_y,blue_star,top_right,2025-08-27_16h31.04.529,HideSeek_v1,2022.2.5,59.924016382544394,
,5,9,2,9,-3,0,31,,train_dim1_2,8,30,,,,5,0,5,0,,,,,,,,,0,0,0,0,0,7,7,7,1,0,1,0,,,,,,,,,,,,,,,,,,,,,,,,,,,,,,,,,,,,,,,,,,,,,,,,,,,,,,,,,,,,,,,,30,,,,,,,,1481.1650098999962,1481.1650098999962,1481.1650098999962,1481.1650098999962,1481.1650098999962,,,,,left,0.2588248997926712,2,0,0,99,0.07999999999999997,0.32,left,0.17838880000635982,,,,,,,,,,,,,,,,,,,,,,,,,,,,,,,,,,,,,,,,,,,,,,,,,,,,,,,,1P4PJG,train_y,blue_star,top_right,2025-08-27_16h31.04.529,HideSeek_v1,2022.2.5,59.924016382544394,
