trialInstr,x_fixStart,y_fixStart,x_corrSteps,y_corrSteps,x_nrSteps,y_nrSteps,alienID,trialLength,version,trialTrain,praclen,testlen,trial_label,break_on_off,beforeExpLoop.thisRepN,beforeExpLoop.thisTrialN,beforeExpLoop.thisN,beforeExpLoop.thisIndex,mini_instr_trials.thisRepN,mini_instr_trials.thisTrialN,mini_instr_trials.thisN,mini_instr_trials.thisIndex,instrLoop.thisRepN,instrLoop.thisTrialN,instrLoop.thisN,instrLoop.thisIndex,repeat_prac.thisRepN,repeat_prac.thisTrialN,repeat_prac.thisN,repeat_prac.thisIndex,trainLoop.thisRepN,trainLoop.thisTrialN,trainLoop.thisN,trainLoop.thisIndex,moveLoop_train.thisRepN,moveLoop_train.thisTrialN,moveLoop_train.thisN,moveLoop_train.thisIndex,experiment.thisRepN,experiment.thisTrialN,experiment.thisN,experiment.thisIndex,moveLoop_test.thisRepN,moveLoop_test.thisTrialN,moveLoop_test.thisN,moveLoop_test.thisIndex,mini_instr2_trials.thisRepN,mini_instr2_trials.thisTrialN,mini_instr2_trials.thisN,mini_instr2_trials.thisIndex,start_all_time,url,slideStim,audioStim,slides.started,sounds.started,nextButton.numClicks,nextButton.timesOn,nextButton.timesOff,prev_but.numClicks,prev_but.timesOn,prev_but.timesOff,alienStim,instrFile,alienStim_instr,gridImage_instr.started,startPos_3.started,key_instr.started,alienImage_3.started,sounds_1.started,key_instr.keys,key_instr.rt,all_x,all_y,FBy_corrSteps,FBy_fixStart,FBx_corrSteps,FBx_fixStart,FBy_pathSize_check,FBx_pathSize_check,gridImage_9.started,alienImageFB_3.started,startPosFB_3.started,keyFB_3.started,pathLine_ydir_2.started,pathLine_xdir_2.started,alienFace_3.started,sounds_2.started,RTFB_instr,keyFB_3.keys,keyFB_3.rt,draw_alienStim,draw_alienID,test_x,nrepcount,perfthres,percthres,earlierperf,earlystop,nextPrac,fileidx,praclen,saveACC_train,pracFile,nextPrac_train,addNrep,fileidx_endr,repExp,showearly,gridImage_4.started,startPos.started,movePos.started,key_resp.started,alienImage.started,buttonPress_train,RTchoice_train,cumAcctrain,aCorr,saveACC_choice,corrAns,x_movePos_end,y_movePos_end,key_resp.keys,key_resp.rt,wLy_dir,wLx_dir,x_movePos,y_movePos,text_2.started,text_2.stopped,aft_x_corrPos,aft_y_corrPos,y_pathSize_check,x_pathSize_check,y_pathdirY,x_pathdirY,x_pathdirX,x_corrPos,y_corrPos,gridImage_6.started,alienImageFB_2.started,startPosFB_2.started,movePosFB_2.started,keyFB_2.started,pathLine_xdir.started,pathLine_ydir.started,alienFace.started,sounds_4.started,RT_FBtrain,keyFB_2.keys,keyFB_2.rt,saveACC_pre,ACC,within_saveACC_train,earlystop_wloop,cumAcctrain_check,gridImage_3.started,alienImage_test.started,startPos_test.started,movePos_test.started,key_resp_test.started,wLy_dir_test,wLx_dir_test,buttonPress_test,RTchoice_test,cumAcctest,corrAns_test,key_resp_test.keys,key_resp_test.rt,text_3.started,text_3.stopped,total_time,end_all_time,key_resp_3.keys,slides_2.started,sounds_3.started,nextButton_2.numClicks,nextButton_2.timesOn,nextButton_2.timesOff,prev_but_2.numClicks,prev_but_2.timesOn,prev_but_2.timesOff,bye.started,participant,train_first,00_coordinate,starting corner,date,expName,psychopyVersion,frameRate,
,,,,,,,,,,,,,,,0,0,0,0,0,0,0,0,,,,,,,,,,,,,,,,,,,,,,,,,,,,,start_all_time,testround,conditions/schedules/train_y_first/red_square_00/top_left/instructions/Slide1.png,conditions/schedules/train_y_first/red_square_00/top_left/instructions/Audio1.wav,1645.834423399996,1645.7776941809802,1,[6.795444499934092],[6.795455399900675],0,,,,,,,,,,,,,,,,,,,,,,,,,,,,,,,,,,,,,,,,,,,,,,,,,,,,,,,,,,,,,,,,,,,,,,,,,,,,,,,,,,,,,,,,,,,,,,,,,,,,,,,,,,,,,,,,,,,,,,,,,,,,25CYHR,train_y,red_square,top_left,2025-02-12_14h30.27.508,HideSeek_v1,2022.2.5,59.93435991947311,
,,,,,,,,,,,,,,,0,0,0,0,1,0,1,0,,,,,,,,,,,,,,,,,,,,,,,,,,,,,,,conditions/schedules/train_y_first/red_square_00/top_left/instructions/Slide2.png,conditions/schedules/train_y_first/red_square_00/top_left/instructions/Audio2.wav,1652.6461414999794,1652.6466566500021,2,"[6.795444499934092, 18.280292900046334]","[0.00022249994799494743, 18.280299599980935]",0,,,,,,,,,,,,,,,,,,,,,,,,,,,,,,,,,,,,,,,,,,,,,,,,,,,,,,,,,,,,,,,,,,,,,,,,,,,,,,,,,,,,,,,,,,,,,,,,,,,,,,,,,,,,,,,,,,,,,,,,,,,,25CYHR,train_y,red_square,top_left,2025-02-12_14h30.27.508,HideSeek_v1,2022.2.5,59.93435991947311,
,,,,,,,,,,,,,,,0,0,0,0,2,0,2,0,,,,,,,,,,,,,,,,,,,,,,,,,,,,,,,conditions/schedules/train_y_first/red_square_00/top_left/instructions/Slide3.png,conditions/schedules/train_y_first/red_square_00/top_left/instructions/Audio3.wav,1671.0017257998697,1670.9950399500085,3,"[6.795444499934092, 18.280292900046334, 17.022041599964723]","[0.00022249994799494743, 0.03768279985524714, 17.022048000013456]",0,,,,,,,,,,,,,,,,,,,,,,,,,,,,,,,,,,,,,,,,,,,,,,,,,,,,,,,,,,,,,,,,,,,,,,,,,,,,,,,,,,,,,,,,,,,,,,,,,,,,,,,,,,,,,,,,,,,,,,,,,,,,25CYHR,train_y,red_square,top_left,2025-02-12_14h30.27.508,HideSeek_v1,2022.2.5,59.93435991947311,
,,,,,,,,,,,,,,,0,0,0,0,3,0,3,0,,,,,,,,,,,,,,,,,,,,,,,,,,,,,,,conditions/schedules/train_y_first/red_square_00/top_left/instructions/Slide4.png,conditions/schedules/train_y_first/red_square_00/top_left/instructions/Audio4.wav,1688.1010020999238,1688.0928211499704,4,"[6.795444499934092, 18.280292900046334, 17.022041599964723, 19.571942399954423]","[0.00022249994799494743, 0.03768279985524714, 0.03545750002376735, 19.57194840000011]",0,,,,,,,,,,,,,,,,,,,,,,,,,,,,,,,,,,,,,,,,,,,,,,,,,,,,,,,,,,,,,,,,,,,,,,,,,,,,,,,,,,,,,,,,,,,,,,,,,,,,,,,,,,,,,,,,,,,,,,,,,,,,25CYHR,train_y,red_square,top_left,2025-02-12_14h30.27.508,HideSeek_v1,2022.2.5,59.93435991947311,
,,,,,,,,,,,,,,,0,0,0,0,4,0,4,0,,,,,,,,,,,,,,,,,,,,,,,,,,,,,,,conditions/schedules/train_y_first/red_square_00/top_left/instructions/Slide5.png,conditions/schedules/train_y_first/red_square_00/top_left/instructions/Audio5.wav,1707.7422736999579,1707.7421482499922,5,"[6.795444499934092, 18.280292900046334, 17.022041599964723, 19.571942399954423, 4.668013199931011]","[0.00022249994799494743, 0.03768279985524714, 0.03545750002376735, 0.030973099870607257, 4.668019899865612]",0,,,,,,,,,,,,,,,,,,,,,,,,,,,,,,,,,,,,,,,,,,,,,,,,,,,,,,,,,,,,,,,,,,,,,,,,,,,,,,,,,,,,,,,,,,,,,,,,,,,,,,,,,,,,,,,,,,,,,,,,,,,,25CYHR,train_y,red_square,top_left,2025-02-12_14h30.27.508,HideSeek_v1,2022.2.5,59.93435991947311,
,,,,,,,,,,,,,,,0,0,0,0,5,0,5,0,,,,,,,,,,,,,,,,,,,,,,,,,,,,,,,conditions/schedules/train_y_first/red_square_00/top_left/instructions/Slide6.png,conditions/schedules/train_y_first/red_square_00/top_left/instructions/Audio6.wav,1712.4645040999167,1712.4628931198733,6,"[6.795444499934092, 18.280292900046334, 17.022041599964723, 19.571942399954423, 4.668013199931011, 4.833247999893501]","[0.00022249994799494743, 0.03768279985524714, 0.03545750002376735, 0.030973099870607257, 0.07900299993343651, 4.833254700060934]",0,,,,,,,,,,,,,,,,,,,,,,,,,,,,,,,,,,,,,,,,,,,,,,,,,,,,,,,,,,,,,,,,,,,,,,,,,,,,,,,,,,,,,,,,,,,,,,,,,,,,,,,,,,,,,,,,,,,,,,,,,,,,25CYHR,train_y,red_square,top_left,2025-02-12_14h30.27.508,HideSeek_v1,2022.2.5,59.93435991947311,
,,,,,,,,,,,,,,,0,0,0,0,6,0,6,0,,,,,,,,,,,,,,,,,,,,,,,,,,,,,,,conditions/schedules/train_y_first/red_square_00/top_left/instructions/Slide7.png,conditions/schedules/train_y_first/red_square_00/top_left/instructions/Audio7.wav,1717.348875500029,1717.3501536199822,7,"[6.795444499934092, 18.280292900046334, 17.022041599964723, 19.571942399954423, 4.668013199931011, 4.833247999893501, 5.703601300017908]","[0.00022249994799494743, 0.03768279985524714, 0.03545750002376735, 0.030973099870607257, 0.07900299993343651, 0.09897409984841943, 5.70360830007121]",0,,,,,,,,,,,,,,,,,,,,,,,,,,,,,,,,,,,,,,,,,,,,,,,,,,,,,,,,,,,,,,,,,,,,,,,,,,,,,,,,,,,,,,,,,,,,,,,,,,,,,,,,,,,,,,,,,,,,,,,,,,,,25CYHR,train_y,red_square,top_left,2025-02-12_14h30.27.508,HideSeek_v1,2022.2.5,59.93435991947311,
,,,,,,,,,,,,,,,0,0,0,0,7,0,7,0,,,,,,,,,,,,,,,,,,,,,,,,,,,,,,,conditions/schedules/train_y_first/red_square_00/top_left/instructions/Slide8.png,conditions/schedules/train_y_first/red_square_00/top_left/instructions/Audio8.wav,1723.105039200047,1723.1051162200513,8,"[6.795444499934092, 18.280292900046334, 17.022041599964723, 19.571942399954423, 4.668013199931011, 4.833247999893501, 5.703601300017908, 12.300016599940136]","[0.00022249994799494743, 0.03768279985524714, 0.03545750002376735, 0.030973099870607257, 0.07900299993343651, 0.09897409984841943, 0.06482149986550212, 12.300030099926516]",0,,,,,,,,,,,,,,,,,,,,,,,,,,,,,,,,,,,,,,,,,,,,,,,,,,,,,,,,,,,,,,,,,,,,,,,,,,,,,,,,,,,,,,,,,,,,,,,,,,,,,,,,,,,,,,,,,,,,,,,,,,,,25CYHR,train_y,red_square,top_left,2025-02-12_14h30.27.508,HideSeek_v1,2022.2.5,59.93435991947311,
,,,,,,,,,,,,,,,0,0,0,0,8,0,8,0,,,,,,,,,,,,,,,,,,,,,,,,,,,,,,,conditions/schedules/train_y_first/red_square_00/top_left/instructions/Slide9.png,conditions/schedules/train_y_first/red_square_00/top_left/instructions/Audio9.wav,1735.4824816999026,1735.4739399499958,9,"[6.795444499934092, 18.280292900046334, 17.022041599964723, 19.571942399954423, 4.668013199931011, 4.833247999893501, 5.703601300017908, 12.300016599940136, 6.018839100142941]","[0.00022249994799494743, 0.03768279985524714, 0.03545750002376735, 0.030973099870607257, 0.07900299993343651, 0.09897409984841943, 0.06482149986550212, 0.06389610003679991, 6.018846099963412]",0,,,,,,,,,,,,,,,,,,,,,,,,,,,,,,,,,,,,,,,,,,,,,,,,,,,,,,,,,,,,,,,,,,,,,,,,,,,,,,,,,,,,,,,,,,,,,,,,,,,,,,,,,,,,,,,,,,,,,,,,,,,,25CYHR,train_y,red_square,top_left,2025-02-12_14h30.27.508,HideSeek_v1,2022.2.5,59.93435991947311,
,,,,,,,,,,,,,,,0,0,0,0,9,0,9,0,,,,,,,,,,,,,,,,,,,,,,,,,,,,,,,conditions/schedules/train_y_first/red_square_00/top_left/instructions/Slide10.png,conditions/schedules/train_y_first/red_square_00/top_left/instructions/Audio10.wav,1741.5394278999884,1741.5370492898626,10,"[6.795444499934092, 18.280292900046334, 17.022041599964723, 19.571942399954423, 4.668013199931011, 4.833247999893501, 5.703601300017908, 12.300016599940136, 6.018839100142941, 6.900608600117266]","[0.00022249994799494743, 0.03768279985524714, 0.03545750002376735, 0.030973099870607257, 0.07900299993343651, 0.09897409984841943, 0.06482149986550212, 0.06389610003679991, 0.09729810012504458, 6.900615100050345]",0,,,,,,,,,,,,,,,,,,,,,,,,,,,,,,,,,,,,,,,,,,,,,,,,,,,,,,,,,,,,,,,,,,,,,,,,,,,,,,,,,,,,,,,,,,,,,,,,,,,,,,,,,,,,,,,,,,,,,,,,,,,,25CYHR,train_y,red_square,top_left,2025-02-12_14h30.27.508,HideSeek_v1,2022.2.5,59.93435991947311,
,,,,,,,,,,,,,,,0,0,0,0,10,0,10,0,,,,,,,,,,,,,,,,,,,,,,,,,,,,,,,conditions/schedules/train_y_first/red_square_00/top_left/instructions/Slide11.png,conditions/schedules/train_y_first/red_square_00/top_left/instructions/Audio11.wav,1748.4780565998517,1748.4760461899684,11,"[6.795444499934092, 18.280292900046334, 17.022041599964723, 19.571942399954423, 4.668013199931011, 4.833247999893501, 5.703601300017908, 12.300016599940136, 6.018839100142941, 6.900608600117266, 10.655036199837923]","[0.00022249994799494743, 0.03768279985524714, 0.03545750002376735, 0.030973099870607257, 0.07900299993343651, 0.09897409984841943, 0.06482149986550212, 0.06389610003679991, 0.09729810012504458, 0.06281209993176162, 10.655043799895793]",0,,,,,,,,,,,,,,,,,,,,,,,,,,,,,,,,,,,,,,,,,,,,,,,,,,,,,,,,,,,,,,,,,,,,,,,,,,,,,,,,,,,,,,,,,,,,,,,,,,,,,,,,,,,,,,,,,,,,,,,,,,,,25CYHR,train_y,red_square,top_left,2025-02-12_14h30.27.508,HideSeek_v1,2022.2.5,59.93435991947311,
,,,,,,,,,,,,,,,0,0,0,0,11,0,11,0,,,,,,,,,,,,,,,,,,,,,,,,,,,,,,,conditions/schedules/train_y_first/red_square_00/top_left/instructions/Slide12.png,conditions/schedules/train_y_first/red_square_00/top_left/instructions/Audio12.wav,1759.2059936998412,1759.2016634499887,12,"[6.795444499934092, 18.280292900046334, 17.022041599964723, 19.571942399954423, 4.668013199931011, 4.833247999893501, 5.703601300017908, 12.300016599940136, 6.018839100142941, 6.900608600117266, 10.655036199837923, 13.687764500034973]","[0.00022249994799494743, 0.03768279985524714, 0.03545750002376735, 0.030973099870607257, 0.07900299993343651, 0.09897409984841943, 0.06482149986550212, 0.06389610003679991, 0.09729810012504458, 0.06281209993176162, 0.08036909997463226, 13.687770599965006]",0,,,,,,,,,,,,,,,,,,,,,,,,,,,,,,,,,,,,,,,,,,,,,,,,,,,,,,,,,,,,,,,,,,,,,,,,,,,,,,,,,,,,,,,,,,,,,,,,,,,,,,,,,,,,,,,,,,,,,,,,,,,,25CYHR,train_y,red_square,top_left,2025-02-12_14h30.27.508,HideSeek_v1,2022.2.5,59.93435991947311,
1,2,8,2,3,0,-5,11,2,instr_dim1_1,,,,,,0,0,0,0,,,,,0,0,0,0,,,,,,,,,,,,,,,,,,,,,,,,,,,,,,,,,,,,,stimuli/alien_stimuli/11.png,conditions/schedules/train_y_first/red_square_00/top_left/inputInstr_1.xlsx,stimuli/alien_stimuli/11.png,1772.999171699863,1772.999171699863,1772.999171699863,1772.999171699863,1772.9964764098868,return,30.5399485998787,"[-0.16, -0.08, 0, 0.08, 0.16, 0.24, 0.32, 0.4, 0.48, 0.56]","[-0.4, -0.32, -0.24, -0.16, -0.08, 0, 0.08, 0.16, 0.24, 0.32]",3,8,2,2,0.4,0.0,1803.7140617999248,1803.7140617999248,1803.7140617999248,1803.7140617999248,1803.7140617999248,1803.7140617999248,1803.7140617999248,1803.7051051698857,8.89195440011099,return,8.731315900105983,stimuli/alien_stimuli/11.png,11,2,1,,,,,,,,,,,,,,,,,,,,,,,,,,,,,,,,,,,,,,,,,,,,,,,,,,,,,,,,,,,,,,,,,,,,,,,,,,,,,,,,,,,,,,,,,25CYHR,train_y,red_square,top_left,2025-02-12_14h30.27.508,HideSeek_v1,2022.2.5,59.93435991947311,
,,,,,,,,,,,30,,,,0,0,0,0,,,,,,,,,,,,,,,,,,,,,,,,,,,,,,,,,,,,,,,,,,,,,,,,,,,,,,,,,,,,,,,,,,,,,,,,,,,,,,21,0.7,0,0,99,1,30,0,conditions/schedules/train_y_first/red_square_00/top_left/inputTrain_1.1.xlsx,99,1,1,1,0,,,,,,,,,,,,,,,,,,,,,,,,,,,,,,,,,,,,,,,,,,,,,,,,,,,,,,,,,,,,,,,,,,,,,,,,,,,25CYHR,train_y,red_square,top_left,2025-02-12_14h30.27.508,HideSeek_v1,2022.2.5,59.93435991947311,
,,,,,,,,,,,,,,,1,0,1,0,0,0,0,0,,,,,,,,,,,,,,,,,,,,,,,,,,,,,,,conditions/schedules/train_y_first/red_square_00/top_left/instructions/Slide13.png,conditions/schedules/train_y_first/red_square_00/top_left/instructions/Audio13.wav,1812.5921717998572,1812.5791766398586,13,"[6.795444499934092, 18.280292900046334, 17.022041599964723, 19.571942399954423, 4.668013199931011, 4.833247999893501, 5.703601300017908, 12.300016599940136, 6.018839100142941, 6.900608600117266, 10.655036199837923, 13.687764500034973, 18.182620499981567]","[0.00022249994799494743, 0.03768279985524714, 0.03545750002376735, 0.030973099870607257, 0.07900299993343651, 0.09897409984841943, 0.06482149986550212, 0.06389610003679991, 0.09729810012504458, 0.06281209993176162, 0.08036909997463226, 13.687770599965006, 18.182627300033346]",0,,,,,,,,,,,,,,,,,,,,,,,,,,,,,,,,,,,,,,,,,,,,,,,,,,,,,,,,,,,,,,,,,,,,,,,,,,,,,,,,,,,,,,,,,,,,,,,,,,,,,,,,,,,,,,,,,,,,,,,,,,,,25CYHR,train_y,red_square,top_left,2025-02-12_14h30.27.508,HideSeek_v1,2022.2.5,59.93435991947311,
,,,,,,,,,,,,,,,1,0,1,0,1,0,1,0,,,,,,,,,,,,,,,,,,,,,,,,,,,,,,,conditions/schedules/train_y_first/red_square_00/top_left/instructions/Slide14.png,conditions/schedules/train_y_first/red_square_00/top_left/instructions/Audio14.wav,1830.846546899993,1830.844351149979,14,"[6.795444499934092, 18.280292900046334, 17.022041599964723, 19.571942399954423, 4.668013199931011, 4.833247999893501, 5.703601300017908, 12.300016599940136, 6.018839100142941, 6.900608600117266, 10.655036199837923, 13.687764500034973, 18.182620499981567, 16.67736000008881]","[0.00022249994799494743, 0.03768279985524714, 0.03545750002376735, 0.030973099870607257, 0.07900299993343651, 0.09897409984841943, 0.06482149986550212, 0.06389610003679991, 0.09729810012504458, 0.06281209993176162, 0.08036909997463226, 13.687770599965006, 0.014342400012537837, 16.677367700031027]",0,,,,,,,,,,,,,,,,,,,,,,,,,,,,,,,,,,,,,,,,,,,,,,,,,,,,,,,,,,,,,,,,,,,,,,,,,,,,,,,,,,,,,,,,,,,,,,,,,,,,,,,,,,,,,,,,,,,,,,,,,,,,25CYHR,train_y,red_square,top_left,2025-02-12_14h30.27.508,HideSeek_v1,2022.2.5,59.93435991947311,
2,0,8,0,8,0,0,16,2,instr_dim1_1,,,,,,1,0,1,0,,,,,0,0,0,0,,,,,,,,,,,,,,,,,,,,,,,,,,,,,,,,,,,,,stimuli/alien_stimuli/16.png,conditions/schedules/train_y_first/red_square_00/top_left/inputInstr_1.xlsx,stimuli/alien_stimuli/16.png,1847.6243274000008,1847.6243274000008,1847.6243274000008,1847.6243274000008,1847.6249947100177,return,29.529454699950293,"[-0.16, -0.08, 0, 0.08, 0.16, 0.24, 0.32, 0.4, 0.48, 0.56]","[-0.4, -0.32, -0.24, -0.16, -0.08, 0, 0.08, 0.16, 0.24, 0.32]",8,8,0,0,0.0,0.0,1877.3335561000276,1877.3335561000276,1877.3335561000276,1877.3335561000276,1877.3335561000276,1877.3335561000276,1877.3335561000276,1877.3327025999315,8.17454109992832,return,7.995631499914452,stimuli/alien_stimuli/16.png,16,0,2,,,,,,,,,,,,,,,,,,,,,,,,,,,,,,,,,,,,,,,,,,,,,,,,,,,,,,,,,,,,,,,,,,,,,,,,,,,,,,,,,,,,,,,,,25CYHR,train_y,red_square,top_left,2025-02-12_14h30.27.508,HideSeek_v1,2022.2.5,59.93435991947311,
,,,,,,,,,,,30,,,,1,0,1,0,,,,,,,,,,,,,,,,,,,,,,,,,,,,,,,,,,,,,,,,,,,,,,,,,,,,,,,,,,,,,,,,,,,,,,,,,,,,,,21,0.7,0,0,99,1,30,0,conditions/schedules/train_y_first/red_square_00/top_left/inputTrain_1.1.xlsx,99,1,1,1,0,,,,,,,,,,,,,,,,,,,,,,,,,,,,,,,,,,,,,,,,,,,,,,,,,,,,,,,,,,,,,,,,,,,,,,,,,,,25CYHR,train_y,red_square,top_left,2025-02-12_14h30.27.508,HideSeek_v1,2022.2.5,59.93435991947311,
,,,,,,,,,,,,,,,2,0,2,0,0,0,0,0,,,,,,,,,,,,,,,,,,,,,,,,,,,,,,,conditions/schedules/train_y_first/red_square_00/top_left/instructions/Slide15.png,conditions/schedules/train_y_first/red_square_00/top_left/instructions/Audio15.wav,1885.5109559998382,1885.506266299868,15,"[6.795444499934092, 18.280292900046334, 17.022041599964723, 19.571942399954423, 4.668013199931011, 4.833247999893501, 5.703601300017908, 12.300016599940136, 6.018839100142941, 6.900608600117266, 10.655036199837923, 13.687764500034973, 18.182620499981567, 16.67736000008881, 43.24534099991433]","[0.00022249994799494743, 0.03768279985524714, 0.03545750002376735, 0.030973099870607257, 0.07900299993343651, 0.09897409984841943, 0.06482149986550212, 0.06389610003679991, 0.09729810012504458, 0.06281209993176162, 0.08036909997463226, 13.687770599965006, 0.014342400012537837, 16.677367700031027, 43.245348799973726]",0,,,,,,,,,,,,,,,,,,,,,,,,,,,,,,,,,,,,,,,,,,,,,,,,,,,,,,,,,,,,,,,,,,,,,,,,,,,,,,,,,,,,,,,,,,,,,,,,,,,,,,,,,,,,,,,,,,,,,,,,,,,,25CYHR,train_y,red_square,top_left,2025-02-12_14h30.27.508,HideSeek_v1,2022.2.5,59.93435991947311,
,,,,,,,,,,,,,,,2,0,2,0,1,0,1,0,,,,,,,,,,,,,,,,,,,,,,,,,,,,,,,conditions/schedules/train_y_first/red_square_00/top_left/instructions/Slide16.png,conditions/schedules/train_y_first/red_square_00/top_left/instructions/Audio16.wav,1928.8278701000381,1928.8254595500184,16,"[6.795444499934092, 18.280292900046334, 17.022041599964723, 19.571942399954423, 4.668013199931011, 4.833247999893501, 5.703601300017908, 12.300016599940136, 6.018839100142941, 6.900608600117266, 10.655036199837923, 13.687764500034973, 18.182620499981567, 16.67736000008881, 43.24534099991433, 22.113683600211516]","[0.00022249994799494743, 0.03768279985524714, 0.03545750002376735, 0.030973099870607257, 0.07900299993343651, 0.09897409984841943, 0.06482149986550212, 0.06389610003679991, 0.09729810012504458, 0.06281209993176162, 0.08036909997463226, 13.687770599965006, 0.014342400012537837, 16.677367700031027, 0.07889310014434159, 22.113690300146118]",0,,,,,,,,,,,,,,,,,,,,,,,,,,,,,,,,,,,,,,,,,,,,,,,,,,,,,,,,,,,,,,,,,,,,,,,,,,,,,,,,,,,,,,,,,,,,,,,,,,,,,,,,,,,,,,,,,,,,,,,,,,,,25CYHR,train_y,red_square,top_left,2025-02-12_14h30.27.508,HideSeek_v1,2022.2.5,59.93435991947311,
,0,5,0,4,0,-1,15,,train_dim1_1,1,30,,,,2,0,2,0,,,,,,,,,0,0,0,0,0,0,0,0,0,0,0,0,,,,,,,,,,,,,,,,,,,,,,,,,stimuli/alien_stimuli/15.png,,,,,,,,,,,,,,,,,,,,,,,,,,,,,,,,,,,,,,,30,,,,,,,,1951.0501826999243,1951.0501826999243,1951.0501826999243,1951.0501826999243,1951.0501826999243,right,6.599324499955401,0,0,0,99,-0.08,0,right,6.4920165000949055,,,,,,,,,,,,,,,,,,,,,,,,,,,,,,,,,,,,,,,,,,,,,,,,,,,,,,,,,,,,25CYHR,train_y,red_square,top_left,2025-02-12_14h30.27.508,HideSeek_v1,2022.2.5,59.93435991947311,
,0,5,0,4,0,-1,15,,train_dim1_1,1,30,,,,2,0,2,0,,,,,,,,,0,0,0,0,0,0,0,0,1,0,1,0,,,,,,,,,,,,,,,,,,,,,,,,,,,,,,,,,,,,,,,,,,,,,,,,,,,,,,,,,,,,,,,,30,,,,,,,,1957.6355520000216,1957.6355520000216,1957.6355520000216,1957.6355520000216,1957.6355520000216,left,0.5765943999867886,0,0,0,99,-0.16,0,left,0.4921685999725014,,,,,,,,,,,,,,,,,,,,,,,,,,,,,,,,,,,,,,,,,,,,,,,,,,,,,,,,,,,,25CYHR,train_y,red_square,top_left,2025-02-12_14h30.27.508,HideSeek_v1,2022.2.5,59.93435991947311,
,0,5,0,4,0,-1,15,,train_dim1_1,1,30,,,,2,0,2,0,,,,,,,,,0,0,0,0,0,0,0,0,2,0,2,0,,,,,,,,,,,,,,,,,,,,,,,,,,,,,,,,,,,,,,,,,,,,,,,,,,,,,,,,,,,,,,,,30,,,,,,,,1958.220241499832,1958.220241499832,1958.220241499832,1958.220241499832,1958.220241499832,return,9.965211799833924,0,1,0,0,-0.16,0,return,9.874177600024268,0,0,-0.16,0,,,,,,,,,,,,,,,,,,,,,,,,,,,,,,,,,,,,,,,,,,,,,,,,,,,,,,,,25CYHR,train_y,red_square,top_left,2025-02-12_14h30.27.508,HideSeek_v1,2022.2.5,59.93435991947311,
,3,7,3,7,0,0,16,,train_dim1_1,2,30,,,,2,0,2,0,,,,,,,,,0,0,0,0,0,1,1,1,0,0,0,0,,,,,,,,,,,,,,,,,,,,,,,,,stimuli/alien_stimuli/16.png,,,,,,,,,,,,,,,,,,,,,,,,,,,,,stimuli/alien_stimuli/15.png,15,0,3,,,,,,,30,,,,,,,,2002.3986597999465,2002.3986597999465,2002.3986597999465,2002.3986597999465,2002.3986597999465,down,4.355768600013107,0,1,0,99,0.08,0.08,down,4.243049600161612,,,,,2000.818480399903,2002.3986597999465,-0.16,-0.08,0.08,0.0,-0.04,-0.16,-0.16,-0.16,-0.08,1969.7859887999948,1969.7859887999948,1969.7859887999948,1969.7859887999948,1969.7859887999948,1969.7859887999948,1969.7859887999948,1969.7859887999948,1969.7763234700308,31.177879099966958,return,31.004256299929693,,,,,,,,,,,,,,,,,,,,,,,,,,,,,,,,,25CYHR,train_y,red_square,top_left,2025-02-12_14h30.27.508,HideSeek_v1,2022.2.5,59.93435991947311,
,3,7,3,7,0,0,16,,train_dim1_1,2,30,,,,2,0,2,0,,,,,,,,,0,0,0,0,0,1,1,1,1,0,1,0,,,,,,,,,,,,,,,,,,,,,,,,,,,,,,,,,,,,,,,,,,,,,,,,,,,,,,,,,,,,,,,,30,,,,,,,,2006.742081000004,2006.742081000004,2006.742081000004,2006.742081000004,2006.742081000004,down,0.2593905997928232,0,1,0,99,0.08,0.0,down,0.16816950007341802,,,,,,,,,,,,,,,,,,,,,,,,,,,,,,,,,,,,,,,,,,,,,,,,,,,,,,,,,,,,25CYHR,train_y,red_square,top_left,2025-02-12_14h30.27.508,HideSeek_v1,2022.2.5,59.93435991947311,
,3,7,3,7,0,0,16,,train_dim1_1,2,30,,,,2,0,2,0,,,,,,,,,0,0,0,0,0,1,1,1,2,0,2,0,,,,,,,,,,,,,,,,,,,,,,,,,,,,,,,,,,,,,,,,,,,,,,,,,,,,,,,,,,,,,,,,30,,,,,,,,2007.008923899848,2007.008923899848,2007.008923899848,2007.008923899848,2007.008923899848,up,1.7942411999683827,0,1,0,99,0.08,0.08,up,1.7161461000796407,,,,,,,,,,,,,,,,,,,,,,,,,,,,,,,,,,,,,,,,,,,,,,,,,,,,,,,,,,,,25CYHR,train_y,red_square,top_left,2025-02-12_14h30.27.508,HideSeek_v1,2022.2.5,59.93435991947311,
,3,7,3,7,0,0,16,,train_dim1_1,2,30,,,,2,0,2,0,,,,,,,,,0,0,0,0,0,1,1,1,3,0,3,0,,,,,,,,,,,,,,,,,,,,,,,,,,,,,,,,,,,,,,,,,,,,,,,,,,,,,,,,,,,,,,,,30,,,,,,,,2008.811456499854,2008.811456499854,2008.811456499854,2008.811456499854,2008.811456499854,up,0.35863699996843934,0,1,0,99,0.08,0.16,up,0.27631149999797344,,,,,,,,,,,,,,,,,,,,,,,,,,,,,,,,,,,,,,,,,,,,,,,,,,,,,,,,,,,,25CYHR,train_y,red_square,top_left,2025-02-12_14h30.27.508,HideSeek_v1,2022.2.5,59.93435991947311,
,3,7,3,7,0,0,16,,train_dim1_1,2,30,,,,2,0,2,0,,,,,,,,,0,0,0,0,0,1,1,1,4,0,4,0,,,,,,,,,,,,,,,,,,,,,,,,,,,,,,,,,,,,,,,,,,,,,,,,,,,,,,,,,,,,,,,,30,,,,,,,,2009.1760982999112,2009.1760982999112,2009.1760982999112,2009.1760982999112,2009.1760982999112,right,1.043593600159511,0,1,0,99,0.16,0.16,right,0.9597684999462217,,,,,,,,,,,,,,,,,,,,,,,,,,,,,,,,,,,,,,,,,,,,,,,,,,,,,,,,,,,,25CYHR,train_y,red_square,top_left,2025-02-12_14h30.27.508,HideSeek_v1,2022.2.5,59.93435991947311,
,3,7,3,7,0,0,16,,train_dim1_1,2,30,,,,2,0,2,0,,,,,,,,,0,0,0,0,0,1,1,1,5,0,5,0,,,,,,,,,,,,,,,,,,,,,,,,,,,,,,,,,,,,,,,,,,,,,,,,,,,,,,,,,,,,,,,,30,,,,,,,,2010.2273570999969,2010.2273570999969,2010.2273570999969,2010.2273570999969,2010.2273570999969,right,0.1596040001604706,0,1,0,99,0.24,0.16,right,0.07551479991525412,,,,,,,,,,,,,,,,,,,,,,,,,,,,,,,,,,,,,,,,,,,,,,,,,,,,,,,,,,,,25CYHR,train_y,red_square,top_left,2025-02-12_14h30.27.508,HideSeek_v1,2022.2.5,59.93435991947311,
,3,7,3,7,0,0,16,,train_dim1_1,2,30,,,,2,0,2,0,,,,,,,,,0,0,0,0,0,1,1,1,6,0,6,0,,,,,,,,,,,,,,,,,,,,,,,,,,,,,,,,,,,,,,,,,,,,,,,,,,,,,,,,,,,,,,,,30,,,,,,,,2010.3945587000344,2010.3945587000344,2010.3945587000344,2010.3945587000344,2010.3945587000344,left,1.293717300053686,0,1,0,99,0.15999999999999998,0.16,left,1.2066675999667495,,,,,,,,,,,,,,,,,,,,,,,,,,,,,,,,,,,,,,,,,,,,,,,,,,,,,,,,,,,,25CYHR,train_y,red_square,top_left,2025-02-12_14h30.27.508,HideSeek_v1,2022.2.5,59.93435991947311,
,3,7,3,7,0,0,16,,train_dim1_1,2,30,,,,2,0,2,0,,,,,,,,,0,0,0,0,0,1,1,1,7,0,7,0,,,,,,,,,,,,,,,,,,,,,,,,,,,,,,,,,,,,,,,,,,,,,,,,,,,,,,,,,,,,,,,,30,,,,,,,,2011.6970664998516,2011.6970664998516,2011.6970664998516,2011.6970664998516,2011.6970664998516,left,0.2092505998443812,0,1,0,99,0.07999999999999997,0.16,left,0.12125750002451241,,,,,,,,,,,,,,,,,,,,,,,,,,,,,,,,,,,,,,,,,,,,,,,,,,,,,,,,,,,,25CYHR,train_y,red_square,top_left,2025-02-12_14h30.27.508,HideSeek_v1,2022.2.5,59.93435991947311,
,3,7,3,7,0,0,16,,train_dim1_1,2,30,,,,2,0,2,0,,,,,,,,,0,0,0,0,0,1,1,1,8,0,8,0,,,,,,,,,,,,,,,,,,,,,,,,,,,,,,,,,,,,,,,,,,,,,,,,,,,,,,,,,,,,,,,,30,,,,,,,,2011.9119669999927,2011.9119669999927,2011.9119669999927,2011.9119669999927,2011.9119669999927,left,0.39284710003994405,0,1,0,99,-2.7755575615628914e-17,0.16,left,0.31130099995061755,,,,,,,,,,,,,,,,,,,,,,,,,,,,,,,,,,,,,,,,,,,,,,,,,,,,,,,,,,,,25CYHR,train_y,red_square,top_left,2025-02-12_14h30.27.508,HideSeek_v1,2022.2.5,59.93435991947311,
,3,7,3,7,0,0,16,,train_dim1_1,2,30,,,,2,0,2,0,,,,,,,,,0,0,0,0,0,1,1,1,9,0,9,0,,,,,,,,,,,,,,,,,,,,,,,,,,,,,,,,,,,,,,,,,,,,,,,,,,,,,,,,,,,,,,,,30,,,,,,,,2012.3114614000078,2012.3114614000078,2012.3114614000078,2012.3114614000078,2012.3114614000078,right,2.6117757000029087,0,1,0,99,0.07999999999999997,0.16,right,2.5238682001363486,,,,,,,,,,,,,,,,,,,,,,,,,,,,,,,,,,,,,,,,,,,,,,,,,,,,,,,,,,,,25CYHR,train_y,red_square,top_left,2025-02-12_14h30.27.508,HideSeek_v1,2022.2.5,59.93435991947311,
,3,7,3,7,0,0,16,,train_dim1_1,2,30,,,,2,0,2,0,,,,,,,,,0,0,0,0,0,1,1,1,10,0,10,0,,,,,,,,,,,,,,,,,,,,,,,,,,,,,,,,,,,,,,,,,,,,,,,,,,,,,,,,,,,,,,,,30,,,,,,,,2014.931192500051,2014.931192500051,2014.931192500051,2014.931192500051,2014.931192500051,right,0.20967100001871586,0,1,0,99,0.15999999999999998,0.16,right,0.132099200040102,,,,,,,,,,,,,,,,,,,,,,,,,,,,,,,,,,,,,,,,,,,,,,,,,,,,,,,,,,,,25CYHR,train_y,red_square,top_left,2025-02-12_14h30.27.508,HideSeek_v1,2022.2.5,59.93435991947311,
,3,7,3,7,0,0,16,,train_dim1_1,2,30,,,,2,0,2,0,,,,,,,,,0,0,0,0,0,1,1,1,11,0,11,0,,,,,,,,,,,,,,,,,,,,,,,,,,,,,,,,,,,,,,,,,,,,,,,,,,,,,,,,,,,,,,,,30,,,,,,,,2015.1478819998447,2015.1478819998447,2015.1478819998447,2015.1478819998447,2015.1478819998447,right,0.2763372999615967,0,1,0,99,0.24,0.16,right,0.18548390013165772,,,,,,,,,,,,,,,,,,,,,,,,,,,,,,,,,,,,,,,,,,,,,,,,,,,,,,,,,,,,25CYHR,train_y,red_square,top_left,2025-02-12_14h30.27.508,HideSeek_v1,2022.2.5,59.93435991947311,
,3,7,3,7,0,0,16,,train_dim1_1,2,30,,,,2,0,2,0,,,,,,,,,0,0,0,0,0,1,1,1,12,0,12,0,,,,,,,,,,,,,,,,,,,,,,,,,,,,,,,,,,,,,,,,,,,,,,,,,,,,,,,,,,,,,,,,30,,,,,,,,2015.4328274000436,2015.4328274000436,2015.4328274000436,2015.4328274000436,2015.4328274000436,return,0.6428392000962049,0,0,0,0,0.24,0.16,return,0.5640360999386758,0,2,0.24,0.16,,,,,,,,,,,,,,,,,,,,,,,,,,,,,,,,,,,,,,,,,,,,,,,,,,,,,,,,25CYHR,train_y,red_square,top_left,2025-02-12_14h30.27.508,HideSeek_v1,2022.2.5,59.93435991947311,
,2,8,2,5,0,-3,13,,train_dim1_1,3,30,,,,2,0,2,0,,,,,,,,,0,0,0,0,0,2,2,2,0,0,0,0,,,,,,,,,,,,,,,,,,,,,,,,,stimuli/alien_stimuli/13.png,,,,,,,,,,,,,,,,,,,,,,,,,,,,,stimuli/alien_stimuli/16.png,16,3,4,,,,,,,30,,,,,,,,2028.3183303000405,2028.3183303000405,2028.3183303000405,2028.3183303000405,2028.3183303000405,down,3.790363500127569,0,0,0,99,0,0.15999999999999998,down,3.677396100014448,,,,,2026.7400417998433,2028.3183303000405,0.08,0.16,0.0,0.0,0.16,0.08,0.08,0.08,0.16,2017.6572783999145,2017.6572783999145,2017.6572783999145,2017.6572783999145,2017.6572783999145,2017.6572783999145,2017.6572783999145,2017.6572783999145,2017.6492850400507,9.210245700087398,return,9.059461700031534,,,,,,,,,,,,,,,,,,,,,,,,,,,,,,,,,25CYHR,train_y,red_square,top_left,2025-02-12_14h30.27.508,HideSeek_v1,2022.2.5,59.93435991947311,
,2,8,2,5,0,-3,13,,train_dim1_1,3,30,,,,2,0,2,0,,,,,,,,,0,0,0,0,0,2,2,2,1,0,1,0,,,,,,,,,,,,,,,,,,,,,,,,,,,,,,,,,,,,,,,,,,,,,,,,,,,,,,,,,,,,,,,,30,,,,,,,,2032.0970298000611,2032.0970298000611,2032.0970298000611,2032.0970298000611,2032.0970298000611,down,0.35965809994377196,0,0,0,99,0,0.07999999999999997,down,0.2745844000019133,,,,,,,,,,,,,,,,,,,,,,,,,,,,,,,,,,,,,,,,,,,,,,,,,,,,,,,,,,,,25CYHR,train_y,red_square,top_left,2025-02-12_14h30.27.508,HideSeek_v1,2022.2.5,59.93435991947311,
,2,8,2,5,0,-3,13,,train_dim1_1,3,30,,,,2,0,2,0,,,,,,,,,0,0,0,0,0,2,2,2,2,0,2,0,,,,,,,,,,,,,,,,,,,,,,,,,,,,,,,,,,,,,,,,,,,,,,,,,,,,,,,,,,,,,,,,30,,,,,,,,2032.462474500062,2032.462474500062,2032.462474500062,2032.462474500062,2032.462474500062,right,1.8443738999776542,0,0,0,99,0.08,0.07999999999999997,right,1.7629265000578016,,,,,,,,,,,,,,,,,,,,,,,,,,,,,,,,,,,,,,,,,,,,,,,,,,,,,,,,,,,,25CYHR,train_y,red_square,top_left,2025-02-12_14h30.27.508,HideSeek_v1,2022.2.5,59.93435991947311,
,2,8,2,5,0,-3,13,,train_dim1_1,3,30,,,,2,0,2,0,,,,,,,,,0,0,0,0,0,2,2,2,3,0,3,0,,,,,,,,,,,,,,,,,,,,,,,,,,,,,,,,,,,,,,,,,,,,,,,,,,,,,,,,,,,,,,,,30,,,,,,,,2034.3197277998552,2034.3197277998552,2034.3197277998552,2034.3197277998552,2034.3197277998552,right,0.18863450014032423,0,0,0,99,0.16,0.07999999999999997,right,0.10583069990389049,,,,,,,,,,,,,,,,,,,,,,,,,,,,,,,,,,,,,,,,,,,,,,,,,,,,,,,,,,,,25CYHR,train_y,red_square,top_left,2025-02-12_14h30.27.508,HideSeek_v1,2022.2.5,59.93435991947311,
,2,8,2,5,0,-3,13,,train_dim1_1,3,30,,,,2,0,2,0,,,,,,,,,0,0,0,0,0,2,2,2,4,0,4,0,,,,,,,,,,,,,,,,,,,,,,,,,,,,,,,,,,,,,,,,,,,,,,,,,,,,,,,,,,,,,,,,30,,,,,,,,2034.514845199883,2034.514845199883,2034.514845199883,2034.514845199883,2034.514845199883,return,1.877418200019747,0,0,0,0,0.16,0.07999999999999997,return,1.784721199888736,-2,4,0.16,0.07999999999999997,,,,,,,,,,,,,,,,,,,,,,,,,,,,,,,,,,,,,,,,,,,,,,,,,,,,,,,,25CYHR,train_y,red_square,top_left,2025-02-12_14h30.27.508,HideSeek_v1,2022.2.5,59.93435991947311,
,0,6,0,2,0,-4,12,,train_dim1_1,4,30,,,,2,0,2,0,,,,,,,,,0,0,0,0,0,3,3,3,0,0,0,0,,,,,,,,,,,,,,,,,,,,,,,,,stimuli/alien_stimuli/12.png,,,,,,,,,,,,,,,,,,,,,,,,,,,,,stimuli/alien_stimuli/13.png,13,2,5,,,,,,,30,,,,,,,,2042.8790328998584,2042.8790328998584,2042.8790328998584,2042.8790328998584,2042.8790328998584,right,2.1891862999182194,0,0,0,99,-0.08,0.08,right,2.103186500025913,,,,,2041.3187004998326,2042.8790328998584,0,0,0.24,0.0,0.12,0,0.0,0,0,2037.9655794999562,2037.9655794999562,2037.9655794999562,2037.9655794999562,2037.9655794999562,2037.9655794999562,2037.9655794999562,2037.9655794999562,2037.9662706399802,3.4717393000610173,return,3.331644000019878,,,,,,,,,,,,,,,,,,,,,,,,,,,,,,,,,25CYHR,train_y,red_square,top_left,2025-02-12_14h30.27.508,HideSeek_v1,2022.2.5,59.93435991947311,
,0,6,0,2,0,-4,12,,train_dim1_1,4,30,,,,2,0,2,0,,,,,,,,,0,0,0,0,0,3,3,3,1,0,1,0,,,,,,,,,,,,,,,,,,,,,,,,,,,,,,,,,,,,,,,,,,,,,,,,,,,,,,,,,,,,,,,,30,,,,,,,,2045.0749391999561,2045.0749391999561,2045.0749391999561,2045.0749391999561,2045.0749391999561,right,0.2082107998430729,0,0,0,99,0.0,0.08,right,0.12817790010012686,,,,,,,,,,,,,,,,,,,,,,,,,,,,,,,,,,,,,,,,,,,,,,,,,,,,,,,,,,,,25CYHR,train_y,red_square,top_left,2025-02-12_14h30.27.508,HideSeek_v1,2022.2.5,59.93435991947311,
,0,6,0,2,0,-4,12,,train_dim1_1,4,30,,,,2,0,2,0,,,,,,,,,0,0,0,0,0,3,3,3,2,0,2,0,,,,,,,,,,,,,,,,,,,,,,,,,,,,,,,,,,,,,,,,,,,,,,,,,,,,,,,,,,,,,,,,30,,,,,,,,2045.2912109000608,2045.2912109000608,2045.2912109000608,2045.2912109000608,2045.2912109000608,right,2.628186499932781,0,0,0,99,0.08,0.08,right,2.5433985001873225,,,,,,,,,,,,,,,,,,,,,,,,,,,,,,,,,,,,,,,,,,,,,,,,,,,,,,,,,,,,25CYHR,train_y,red_square,top_left,2025-02-12_14h30.27.508,HideSeek_v1,2022.2.5,59.93435991947311,
,0,6,0,2,0,-4,12,,train_dim1_1,4,30,,,,2,0,2,0,,,,,,,,,0,0,0,0,0,3,3,3,3,0,3,0,,,,,,,,,,,,,,,,,,,,,,,,,,,,,,,,,,,,,,,,,,,,,,,,,,,,,,,,,,,,,,,,30,,,,,,,,2047.9272487000562,2047.9272487000562,2047.9272487000562,2047.9272487000562,2047.9272487000562,return,0.8430126998573542,0,0,0,0,0.08,0.08,return,0.7622215000446886,-2,7,0.08,0.08,,,,,,,,,,,,,,,,,,,,,,,,,,,,,,,,,,,,,,,,,,,,,,,,,,,,,,,,25CYHR,train_y,red_square,top_left,2025-02-12_14h30.27.508,HideSeek_v1,2022.2.5,59.93435991947311,
,3,8,3,3,0,-5,11,,train_dim1_1,5,30,,,,2,0,2,0,,,,,,,,,0,0,0,0,0,4,4,4,0,0,0,0,,,,,,,,,,,,,,,,,,,,,,,,,stimuli/alien_stimuli/11.png,,,,,,,,,,,,,,,,,,,,,,,,,,,,,stimuli/alien_stimuli/12.png,12,0,6,,,,,,,30,,,,,,,,2058.841024499852,2058.841024499852,2058.841024499852,2058.841024499852,2058.841024499852,down,2.8730917999055237,0,0,0,99,0.08,0.15999999999999998,down,2.7814587000757456,,,,,2057.282040099846,2058.841024499852,-0.16,-0.24,0.32,0.0,-0.07999999999999999,-0.16,-0.16,-0.16,-0.24,2050.349953699857,2050.349953699857,2050.349953699857,2050.349953699857,2050.349953699857,2050.349953699857,2050.349953699857,2050.349953699857,2050.3430353400295,7.058074299944565,return,6.910294499946758,,,,,,,,,,,,,,,,,,,,,,,,,,,,,,,,,25CYHR,train_y,red_square,top_left,2025-02-12_14h30.27.508,HideSeek_v1,2022.2.5,59.93435991947311,
,3,8,3,3,0,-5,11,,train_dim1_1,5,30,,,,2,0,2,0,,,,,,,,,0,0,0,0,0,4,4,4,1,0,1,0,,,,,,,,,,,,,,,,,,,,,,,,,,,,,,,,,,,,,,,,,,,,,,,,,,,,,,,,,,,,,,,,30,,,,,,,,2061.7198481999803,2061.7198481999803,2061.7198481999803,2061.7198481999803,2061.7198481999803,down,0.2592313999775797,0,0,0,99,0.08,0.07999999999999997,down,0.1755250000860542,,,,,,,,,,,,,,,,,,,,,,,,,,,,,,,,,,,,,,,,,,,,,,,,,,,,,,,,,,,,25CYHR,train_y,red_square,top_left,2025-02-12_14h30.27.508,HideSeek_v1,2022.2.5,59.93435991947311,
,3,8,3,3,0,-5,11,,train_dim1_1,5,30,,,,2,0,2,0,,,,,,,,,0,0,0,0,0,4,4,4,2,0,2,0,,,,,,,,,,,,,,,,,,,,,,,,,,,,,,,,,,,,,,,,,,,,,,,,,,,,,,,,,,,,,,,,30,,,,,,,,2061.9872667000163,2061.9872667000163,2061.9872667000163,2061.9872667000163,2061.9872667000163,down,1.9778809000272304,0,0,0,99,0.08,-2.7755575615628914e-17,down,1.8963391999714077,,,,,,,,,,,,,,,,,,,,,,,,,,,,,,,,,,,,,,,,,,,,,,,,,,,,,,,,,,,,25CYHR,train_y,red_square,top_left,2025-02-12_14h30.27.508,HideSeek_v1,2022.2.5,59.93435991947311,
,3,8,3,3,0,-5,11,,train_dim1_1,5,30,,,,2,0,2,0,,,,,,,,,0,0,0,0,0,4,4,4,3,0,3,0,,,,,,,,,,,,,,,,,,,,,,,,,,,,,,,,,,,,,,,,,,,,,,,,,,,,,,,,,,,,,,,,30,,,,,,,,2063.9719000998884,2063.9719000998884,2063.9719000998884,2063.9719000998884,2063.9719000998884,return,2.9786203000694513,0,0,0,0,0.08,-2.7755575615628914e-17,return,2.8867152999155223,-5,7,0.08,-2.7755575615628914e-17,,,,,,,,,,,,,,,,,,,,,,,,,,,,,,,,,,,,,,,,,,,,,,,,,,,,,,,,25CYHR,train_y,red_square,top_left,2025-02-12_14h30.27.508,HideSeek_v1,2022.2.5,59.93435991947311,
,1,9,1,5,0,-4,12,,train_dim1_1,6,30,,,,2,0,2,0,,,,,,,,,0,0,0,0,0,5,5,5,0,0,0,0,,,,,,,,,,,,,,,,,,,,,,,,,stimuli/alien_stimuli/12.png,,,,,,,,,,,,,,,,,,,,,,,,,,,,,stimuli/alien_stimuli/11.png,11,3,7,,,,,,,30,,,,,,,,2080.3863512000535,2080.3863512000535,2080.3863512000535,2080.3863512000535,2080.3863512000535,down,2.4161498001776636,0,0,0,99,-0.08,0.24,down,2.3162322000134736,,,,,2078.7996545999777,2080.3863512000535,0.08,-0.16,0.4,0.0,0.039999999999999994,0.08,0.08,0.08,-0.16,2068.5293409998994,2068.5293409998994,2068.5293409998994,2068.5293409998994,2068.5293409998994,2068.5293409998994,2068.5293409998994,2068.5293409998994,2068.524730740068,10.393952899845317,return,10.245308799901977,,,,,,,,,,,,,,,,,,,,,,,,,,,,,,,,,25CYHR,train_y,red_square,top_left,2025-02-12_14h30.27.508,HideSeek_v1,2022.2.5,59.93435991947311,
,1,9,1,5,0,-4,12,,train_dim1_1,6,30,,,,2,0,2,0,,,,,,,,,0,0,0,0,0,5,5,5,1,0,1,0,,,,,,,,,,,,,,,,,,,,,,,,,,,,,,,,,,,,,,,,,,,,,,,,,,,,,,,,,,,,,,,,30,,,,,,,,2082.7890385999344,2082.7890385999344,2082.7890385999344,2082.7890385999344,2082.7890385999344,down,0.2927993999328464,0,0,0,99,-0.08,0.15999999999999998,down,0.21022269991226494,,,,,,,,,,,,,,,,,,,,,,,,,,,,,,,,,,,,,,,,,,,,,,,,,,,,,,,,,,,,25CYHR,train_y,red_square,top_left,2025-02-12_14h30.27.508,HideSeek_v1,2022.2.5,59.93435991947311,
,1,9,1,5,0,-4,12,,train_dim1_1,6,30,,,,2,0,2,0,,,,,,,,,0,0,0,0,0,5,5,5,2,0,2,0,,,,,,,,,,,,,,,,,,,,,,,,,,,,,,,,,,,,,,,,,,,,,,,,,,,,,,,,,,,,,,,,30,,,,,,,,2083.088778599864,2083.088778599864,2083.088778599864,2083.088778599864,2083.088778599864,down,0.6433455001097172,0,0,0,99,-0.08,0.07999999999999997,down,0.5623268999624997,,,,,,,,,,,,,,,,,,,,,,,,,,,,,,,,,,,,,,,,,,,,,,,,,,,,,,,,,,,,25CYHR,train_y,red_square,top_left,2025-02-12_14h30.27.508,HideSeek_v1,2022.2.5,59.93435991947311,
,1,9,1,5,0,-4,12,,train_dim1_1,6,30,,,,2,0,2,0,,,,,,,,,0,0,0,0,0,5,5,5,3,0,3,0,,,,,,,,,,,,,,,,,,,,,,,,,,,,,,,,,,,,,,,,,,,,,,,,,,,,,,,,,,,,,,,,30,,,,,,,,2083.7382930000313,2083.7382930000313,2083.7382930000313,2083.7382930000313,2083.7382930000313,return,3.445176900131628,0,1,0,0,-0.08,0.07999999999999997,return,3.361439400119707,-8,7,-0.08,0.07999999999999997,,,,,,,,,,,,,,,,,,,,,,,,,,,,,,,,,,,,,,,,,,,,,,,,,,,,,,,,25CYHR,train_y,red_square,top_left,2025-02-12_14h30.27.508,HideSeek_v1,2022.2.5,59.93435991947311,
,1,8,1,5,0,-3,13,,train_dim1_1,7,30,,,,2,0,2,0,,,,,,,,,0,0,0,0,0,6,6,6,0,0,0,0,,,,,,,,,,,,,,,,,,,,,,,,,stimuli/alien_stimuli/13.png,,,,,,,,,,,,,,,,,,,,,,,,,,,,,stimuli/alien_stimuli/12.png,12,1,8,,,,,,,30,,,,,,,,2100.7784696999006,2100.7784696999006,2100.7784696999006,2100.7784696999006,2100.7784696999006,right,2.170167500153184,0,1,0,99,0.0,0.24,right,2.0701318001374602,,,,,2099.2000602998305,2100.7784696999006,-0.08,0,0.32,0.0,0.16,-0.08,-0.08,-0.08,0,2088.7663747998886,2088.7663747998886,2088.7663747998886,2088.7663747998886,2088.7663747998886,2088.7663747998886,2088.7663747998886,2088.7663747998886,2088.758268239861,10.560647299978882,return,10.404774100054055,,,,,,,,,,,,,,,,,,,,,,,,,,,,,,,,,25CYHR,train_y,red_square,top_left,2025-02-12_14h30.27.508,HideSeek_v1,2022.2.5,59.93435991947311,
,1,8,1,5,0,-3,13,,train_dim1_1,7,30,,,,2,0,2,0,,,,,,,,,0,0,0,0,0,6,6,6,1,0,1,0,,,,,,,,,,,,,,,,,,,,,,,,,,,,,,,,,,,,,,,,,,,,,,,,,,,,,,,,,,,,,,,,30,,,,,,,,2102.939072399866,2102.939072399866,2102.939072399866,2102.939072399866,2102.939072399866,right,0.2596531000453979,0,1,0,99,0.08,0.24,right,0.17343139997683465,,,,,,,,,,,,,,,,,,,,,,,,,,,,,,,,,,,,,,,,,,,,,,,,,,,,,,,,,,,,25CYHR,train_y,red_square,top_left,2025-02-12_14h30.27.508,HideSeek_v1,2022.2.5,59.93435991947311,
,1,8,1,5,0,-3,13,,train_dim1_1,7,30,,,,2,0,2,0,,,,,,,,,0,0,0,0,0,6,6,6,2,0,2,0,,,,,,,,,,,,,,,,,,,,,,,,,,,,,,,,,,,,,,,,,,,,,,,,,,,,,,,,,,,,,,,,30,,,,,,,,2103.2036435999908,2103.2036435999908,2103.2036435999908,2103.2036435999908,2103.2036435999908,right,1.2107311999425292,0,1,0,99,0.16,0.24,right,1.1328070000745356,,,,,,,,,,,,,,,,,,,,,,,,,,,,,,,,,,,,,,,,,,,,,,,,,,,,,,,,,,,,25CYHR,train_y,red_square,top_left,2025-02-12_14h30.27.508,HideSeek_v1,2022.2.5,59.93435991947311,
,1,8,1,5,0,-3,13,,train_dim1_1,7,30,,,,2,0,2,0,,,,,,,,,0,0,0,0,0,6,6,6,3,0,3,0,,,,,,,,,,,,,,,,,,,,,,,,,,,,,,,,,,,,,,,,,,,,,,,,,,,,,,,,,,,,,,,,30,,,,,,,,2104.4215625999495,2104.4215625999495,2104.4215625999495,2104.4215625999495,2104.4215625999495,right,0.4262546000536531,0,1,0,99,0.24,0.24,right,0.33592680003494024,,,,,,,,,,,,,,,,,,,,,,,,,,,,,,,,,,,,,,,,,,,,,,,,,,,,,,,,,,,,25CYHR,train_y,red_square,top_left,2025-02-12_14h30.27.508,HideSeek_v1,2022.2.5,59.93435991947311,
,1,8,1,5,0,-3,13,,train_dim1_1,7,30,,,,2,0,2,0,,,,,,,,,0,0,0,0,0,6,6,6,4,0,4,0,,,,,,,,,,,,,,,,,,,,,,,,,,,,,,,,,,,,,,,,,,,,,,,,,,,,,,,,,,,,,,,,30,,,,,,,,2104.8549530999735,2104.8549530999735,2104.8549530999735,2104.8549530999735,2104.8549530999735,return,0.6269283001311123,0,0,0,0,0.24,0.24,return,0.5357053999323398,-8,11,0.24,0.24,,,,,,,,,,,,,,,,,,,,,,,,,,,,,,,,,,,,,,,,,,,,,,,,,,,,,,,,25CYHR,train_y,red_square,top_left,2025-02-12_14h30.27.508,HideSeek_v1,2022.2.5,59.93435991947311,
,4,7,4,2,0,-5,11,,train_dim1_1,8,30,,,,2,0,2,0,,,,,,,,,0,0,0,0,0,7,7,7,0,0,0,0,,,,,,,,,,,,,,,,,,,,,,,,,stimuli/alien_stimuli/11.png,,,,,,,,,,,,,,,,,,,,,,,,,,,,,stimuli/alien_stimuli/13.png,13,1,9,,,,,,,30,,,,,,,,2110.653962200042,2110.653962200042,2110.653962200042,2110.653962200042,2110.653962200042,left,4.372177600162104,0,0,0,99,0.08,0.16,left,4.280915800016373,,,,,2109.091645000037,2110.653962200042,-0.08,0,0.24,0.0,0.12,-0.08,-0.08,-0.08,0,2107.0560492000077,2107.0560492000077,2107.0560492000077,2107.0560492000077,2107.0560492000077,2107.0560492000077,2107.0560492000077,2107.0560492000077,2107.056925740046,2.153435999993235,return,2.0143614998087287,,,,,,,,,,,,,,,,,,,,,,,,,,,,,,,,,25CYHR,train_y,red_square,top_left,2025-02-12_14h30.27.508,HideSeek_v1,2022.2.5,59.93435991947311,
,4,7,4,2,0,-5,11,,train_dim1_1,8,30,,,,2,0,2,0,,,,,,,,,0,0,0,0,0,7,7,7,1,0,1,0,,,,,,,,,,,,,,,,,,,,,,,,,,,,,,,,,,,,,,,,,,,,,,,,,,,,,,,,,,,,,,,,30,,,,,,,,2115.0325145998504,2115.0325145998504,2115.0325145998504,2115.0325145998504,2115.0325145998504,left,0.24223410012200475,0,0,0,99,0.0,0.16,left,0.16170430020429194,,,,,,,,,,,,,,,,,,,,,,,,,,,,,,,,,,,,,,,,,,,,,,,,,,,,,,,,,,,,25CYHR,train_y,red_square,top_left,2025-02-12_14h30.27.508,HideSeek_v1,2022.2.5,59.93435991947311,
,4,7,4,2,0,-5,11,,train_dim1_1,8,30,,,,2,0,2,0,,,,,,,,,0,0,0,0,0,7,7,7,2,0,2,0,,,,,,,,,,,,,,,,,,,,,,,,,,,,,,,,,,,,,,,,,,,,,,,,,,,,,,,,,,,,,,,,30,,,,,,,,2115.2832440000493,2115.2832440000493,2115.2832440000493,2115.2832440000493,2115.2832440000493,left,0.29249100014567375,0,0,0,99,-0.08,0.16,left,0.20989619987085462,,,,,,,,,,,,,,,,,,,,,,,,,,,,,,,,,,,,,,,,,,,,,,,,,,,,,,,,,,,,25CYHR,train_y,red_square,top_left,2025-02-12_14h30.27.508,HideSeek_v1,2022.2.5,59.93435991947311,
,4,7,4,2,0,-5,11,,train_dim1_1,8,30,,,,2,0,2,0,,,,,,,,,0,0,0,0,0,7,7,7,3,0,3,0,,,,,,,,,,,,,,,,,,,,,,,,,,,,,,,,,,,,,,,,,,,,,,,,,,,,,,,,,,,,,,,,30,,,,,,,,2115.581024999963,2115.581024999963,2115.581024999963,2115.581024999963,2115.581024999963,right,1.2607253000605851,0,0,0,99,0.0,0.16,right,1.168460600078106,,,,,,,,,,,,,,,,,,,,,,,,,,,,,,,,,,,,,,,,,,,,,,,,,,,,,,,,,,,,25CYHR,train_y,red_square,top_left,2025-02-12_14h30.27.508,HideSeek_v1,2022.2.5,59.93435991947311,
,4,7,4,2,0,-5,11,,train_dim1_1,8,30,,,,2,0,2,0,,,,,,,,,0,0,0,0,0,7,7,7,4,0,4,0,,,,,,,,,,,,,,,,,,,,,,,,,,,,,,,,,,,,,,,,,,,,,,,,,,,,,,,,,,,,,,,,30,,,,,,,,2116.8510012999177,2116.8510012999177,2116.8510012999177,2116.8510012999177,2116.8510012999177,right,0.2748583999928087,0,0,0,99,0.08,0.16,right,0.1865082997828722,,,,,,,,,,,,,,,,,,,,,,,,,,,,,,,,,,,,,,,,,,,,,,,,,,,,,,,,,,,,25CYHR,train_y,red_square,top_left,2025-02-12_14h30.27.508,HideSeek_v1,2022.2.5,59.93435991947311,
,4,7,4,2,0,-5,11,,train_dim1_1,8,30,,,,2,0,2,0,,,,,,,,,0,0,0,0,0,7,7,7,5,0,5,0,,,,,,,,,,,,,,,,,,,,,,,,,,,,,,,,,,,,,,,,,,,,,,,,,,,,,,,,,,,,,,,,30,,,,,,,,2117.1331014998723,2117.1331014998723,2117.1331014998723,2117.1331014998723,2117.1331014998723,right,0.2597139999270439,0,0,0,99,0.16,0.16,right,0.16770870005711913,,,,,,,,,,,,,,,,,,,,,,,,,,,,,,,,,,,,,,,,,,,,,,,,,,,,,,,,,,,,25CYHR,train_y,red_square,top_left,2025-02-12_14h30.27.508,HideSeek_v1,2022.2.5,59.93435991947311,
,4,7,4,2,0,-5,11,,train_dim1_1,8,30,,,,2,0,2,0,,,,,,,,,0,0,0,0,0,7,7,7,6,0,6,0,,,,,,,,,,,,,,,,,,,,,,,,,,,,,,,,,,,,,,,,,,,,,,,,,,,,,,,,,,,,,,,,30,,,,,,,,2117.4000498999376,2117.4000498999376,2117.4000498999376,2117.4000498999376,2117.4000498999376,right,0.8942340000066906,0,0,0,99,0.24,0.16,right,0.8044326999224722,,,,,,,,,,,,,,,,,,,,,,,,,,,,,,,,,,,,,,,,,,,,,,,,,,,,,,,,,,,,25CYHR,train_y,red_square,top_left,2025-02-12_14h30.27.508,HideSeek_v1,2022.2.5,59.93435991947311,
,4,7,4,2,0,-5,11,,train_dim1_1,8,30,,,,2,0,2,0,,,,,,,,,0,0,0,0,0,7,7,7,7,0,7,0,,,,,,,,,,,,,,,,,,,,,,,,,,,,,,,,,,,,,,,,,,,,,,,,,,,,,,,,,,,,,,,,30,,,,,,,,2118.3011938999407,2118.3011938999407,2118.3011938999407,2118.3011938999407,2118.3011938999407,left,3.2282360999379307,0,0,0,99,0.15999999999999998,0.16,left,3.13706719991751,,,,,,,,,,,,,,,,,,,,,,,,,,,,,,,,,,,,,,,,,,,,,,,,,,,,,,,,,,,,25CYHR,train_y,red_square,top_left,2025-02-12_14h30.27.508,HideSeek_v1,2022.2.5,59.93435991947311,
,4,7,4,2,0,-5,11,,train_dim1_1,8,30,,,,2,0,2,0,,,,,,,,,0,0,0,0,0,7,7,7,8,0,8,0,,,,,,,,,,,,,,,,,,,,,,,,,,,,,,,,,,,,,,,,,,,,,,,,,,,,,,,,,,,,,,,,30,,,,,,,,2121.5355721998494,2121.5355721998494,2121.5355721998494,2121.5355721998494,2121.5355721998494,right,0.6432268000207841,0,0,0,99,0.24,0.16,right,0.5650791001971811,,,,,,,,,,,,,,,,,,,,,,,,,,,,,,,,,,,,,,,,,,,,,,,,,,,,,,,,,,,,25CYHR,train_y,red_square,top_left,2025-02-12_14h30.27.508,HideSeek_v1,2022.2.5,59.93435991947311,
,4,7,4,2,0,-5,11,,train_dim1_1,8,30,,,,2,0,2,0,,,,,,,,,0,0,0,0,0,7,7,7,9,0,9,0,,,,,,,,,,,,,,,,,,,,,,,,,,,,,,,,,,,,,,,,,,,,,,,,,,,,,,,,,,,,,,,,30,,,,,,,,2122.187246500049,2122.187246500049,2122.187246500049,2122.187246500049,2122.187246500049,right,0.1933718000072986,0,0,0,99,0.32,0.16,right,0.10982999997213483,,,,,,,,,,,,,,,,,,,,,,,,,,,,,,,,,,,,,,,,,,,,,,,,,,,,,,,,,,,,25CYHR,train_y,red_square,top_left,2025-02-12_14h30.27.508,HideSeek_v1,2022.2.5,59.93435991947311,
,4,7,4,2,0,-5,11,,train_dim1_1,8,30,,,,2,0,2,0,,,,,,,,,0,0,0,0,0,7,7,7,10,0,10,0,,,,,,,,,,,,,,,,,,,,,,,,,,,,,,,,,,,,,,,,,,,,,,,,,,,,,,,,,,,,,,,,30,,,,,,,,2122.3866194,2122.3866194,2122.3866194,2122.3866194,2122.3866194,right,0.24289370002225041,0,0,0,99,0.4,0.16,right,0.16250610002316535,,,,,,,,,,,,,,,,,,,,,,,,,,,,,,,,,,,,,,,,,,,,,,,,,,,,,,,,,,,,25CYHR,train_y,red_square,top_left,2025-02-12_14h30.27.508,HideSeek_v1,2022.2.5,59.93435991947311,
,4,7,4,2,0,-5,11,,train_dim1_1,8,30,,,,2,0,2,0,,,,,,,,,0,0,0,0,0,7,7,7,11,0,11,0,,,,,,,,,,,,,,,,,,,,,,,,,,,,,,,,,,,,,,,,,,,,,,,,,,,,,,,,,,,,,,,,30,,,,,,,,2122.637043699855,2122.637043699855,2122.637043699855,2122.637043699855,2122.637043699855,right,0.49324919981881976,0,0,0,99,0.48000000000000004,0.16,right,0.4159919999074191,,,,,,,,,,,,,,,,,,,,,,,,,,,,,,,,,,,,,,,,,,,,,,,,,,,,,,,,,,,,25CYHR,train_y,red_square,top_left,2025-02-12_14h30.27.508,HideSeek_v1,2022.2.5,59.93435991947311,
,4,7,4,2,0,-5,11,,train_dim1_1,8,30,,,,2,0,2,0,,,,,,,,,0,0,0,0,0,7,7,7,12,0,12,0,,,,,,,,,,,,,,,,,,,,,,,,,,,,,,,,,,,,,,,,,,,,,,,,,,,,,,,,,,,,,,,,30,,,,,,,,2123.1384044999722,2123.1384044999722,2123.1384044999722,2123.1384044999722,2123.1384044999722,return,1.8613577000796795,0,0,0,0,0.48000000000000004,0.16,return,1.7766464999876916,-8,15,0.48000000000000004,0.16,,,,,,,,,,,,,,,,,,,,,,,,,,,,,,,,,,,,,,,,,,,,,,,,,,,,,,,,25CYHR,train_y,red_square,top_left,2025-02-12_14h30.27.508,HideSeek_v1,2022.2.5,59.93435991947311,
,4,8,4,7,0,-1,15,,train_dim1_1,9,30,,,,2,0,2,0,,,,,,,,,0,0,0,0,0,8,8,8,0,0,0,0,,,,,,,,,,,,,,,,,,,,,,,,,stimuli/alien_stimuli/15.png,,,,,,,,,,,,,,,,,,,,,,,,,,,,,stimuli/alien_stimuli/11.png,11,4,10,,,,,,,30,,,,,,,,2130.131804399891,2130.131804399891,2130.131804399891,2130.131804399891,2130.131804399891,down,2.3899903998244554,0,0,0,99,0.16,0.15999999999999998,down,2.302507600048557,,,,,2128.5744942999445,2130.131804399891,0.16,-0.24,0.4,0.0,-0.039999999999999994,0.16,0.16,0.16,-0.24,2126.576857100008,2126.576857100008,2126.576857100008,2126.576857100008,2126.576857100008,2126.576857100008,2126.576857100008,2126.576857100008,2126.573139939876,2.1202663998119533,return,1.9676115999463946,,,,,,,,,,,,,,,,,,,,,,,,,,,,,,,,,25CYHR,train_y,red_square,top_left,2025-02-12_14h30.27.508,HideSeek_v1,2022.2.5,59.93435991947311,
,4,8,4,7,0,-1,15,,train_dim1_1,9,30,,,,2,0,2,0,,,,,,,,,0,0,0,0,0,8,8,8,1,0,1,0,,,,,,,,,,,,,,,,,,,,,,,,,,,,,,,,,,,,,,,,,,,,,,,,,,,,,,,,,,,,,,,,30,,,,,,,,2132.5397606999613,2132.5397606999613,2132.5397606999613,2132.5397606999613,2132.5397606999613,down,0.25908059999346733,0,0,0,99,0.16,0.07999999999999997,down,0.16348759992979467,,,,,,,,,,,,,,,,,,,,,,,,,,,,,,,,,,,,,,,,,,,,,,,,,,,,,,,,,,,,25CYHR,train_y,red_square,top_left,2025-02-12_14h30.27.508,HideSeek_v1,2022.2.5,59.93435991947311,
,4,8,4,7,0,-1,15,,train_dim1_1,9,30,,,,2,0,2,0,,,,,,,,,0,0,0,0,0,8,8,8,2,0,2,0,,,,,,,,,,,,,,,,,,,,,,,,,,,,,,,,,,,,,,,,,,,,,,,,,,,,,,,,,,,,,,,,30,,,,,,,,2132.7970598998945,2132.7970598998945,2132.7970598998945,2132.7970598998945,2132.7970598998945,down,0.24302290007472038,0,0,0,99,0.16,-2.7755575615628914e-17,down,0.15635069995187223,,,,,,,,,,,,,,,,,,,,,,,,,,,,,,,,,,,,,,,,,,,,,,,,,,,,,,,,,,,,25CYHR,train_y,red_square,top_left,2025-02-12_14h30.27.508,HideSeek_v1,2022.2.5,59.93435991947311,
,4,8,4,7,0,-1,15,,train_dim1_1,9,30,,,,2,0,2,0,,,,,,,,,0,0,0,0,0,8,8,8,3,0,3,0,,,,,,,,,,,,,,,,,,,,,,,,,,,,,,,,,,,,,,,,,,,,,,,,,,,,,,,,,,,,,,,,30,,,,,,,,2133.0467729000375,2133.0467729000375,2133.0467729000375,2133.0467729000375,2133.0467729000375,down,0.29308099998161197,0,0,0,99,0.16,-0.08000000000000003,down,0.20320579991675913,,,,,,,,,,,,,,,,,,,,,,,,,,,,,,,,,,,,,,,,,,,,,,,,,,,,,,,,,,,,25CYHR,train_y,red_square,top_left,2025-02-12_14h30.27.508,HideSeek_v1,2022.2.5,59.93435991947311,
,4,8,4,7,0,-1,15,,train_dim1_1,9,30,,,,2,0,2,0,,,,,,,,,0,0,0,0,0,8,8,8,4,0,4,0,,,,,,,,,,,,,,,,,,,,,,,,,,,,,,,,,,,,,,,,,,,,,,,,,,,,,,,,,,,,,,,,30,,,,,,,,2133.346528899856,2133.346528899856,2133.346528899856,2133.346528899856,2133.346528899856,down,0.6765497999731451,0,0,0,99,0.16,-0.16000000000000003,down,0.5873702000826597,,,,,,,,,,,,,,,,,,,,,,,,,,,,,,,,,,,,,,,,,,,,,,,,,,,,,,,,,,,,25CYHR,train_y,red_square,top_left,2025-02-12_14h30.27.508,HideSeek_v1,2022.2.5,59.93435991947311,
,4,8,4,7,0,-1,15,,train_dim1_1,9,30,,,,2,0,2,0,,,,,,,,,0,0,0,0,0,8,8,8,5,0,5,0,,,,,,,,,,,,,,,,,,,,,,,,,,,,,,,,,,,,,,,,,,,,,,,,,,,,,,,,,,,,,,,,30,,,,,,,,2134.031012899941,2134.031012899941,2134.031012899941,2134.031012899941,2134.031012899941,down,0.7272729999385774,0,0,0,99,0.16,-0.24000000000000005,down,0.6461857000831515,,,,,,,,,,,,,,,,,,,,,,,,,,,,,,,,,,,,,,,,,,,,,,,,,,,,,,,,,,,,25CYHR,train_y,red_square,top_left,2025-02-12_14h30.27.508,HideSeek_v1,2022.2.5,59.93435991947311,
,4,8,4,7,0,-1,15,,train_dim1_1,9,30,,,,2,0,2,0,,,,,,,,,0,0,0,0,0,8,8,8,6,0,6,0,,,,,,,,,,,,,,,,,,,,,,,,,,,,,,,,,,,,,,,,,,,,,,,,,,,,,,,,,,,,,,,,30,,,,,,,,2134.764376200037,2134.764376200037,2134.764376200037,2134.764376200037,2134.764376200037,return,0.42643560003489256,0,0,0,0,0.16,-0.24000000000000005,return,0.33573550009168684,-14,15,0.16,-0.24000000000000005,,,,,,,,,,,,,,,,,,,,,,,,,,,,,,,,,,,,,,,,,,,,,,,,,,,,,,,,25CYHR,train_y,red_square,top_left,2025-02-12_14h30.27.508,HideSeek_v1,2022.2.5,59.93435991947311,
,2,7,2,7,0,0,16,,train_dim1_1,10,30,,,,2,0,2,0,,,,,,,,,0,0,0,0,0,9,9,9,0,0,0,0,,,,,,,,,,,,,,,,,,,,,,,,,stimuli/alien_stimuli/16.png,,,,,,,,,,,,,,,,,,,,,,,,,,,,,stimuli/alien_stimuli/15.png,15,4,11,,,,,,,30,,,,,,,,2141.7301298999228,2141.7301298999228,2141.7301298999228,2141.7301298999228,2141.7301298999228,down,1.9851140999235213,0,0,0,99,0,0.08,down,1.9038362998981029,,,,,2140.1675023999996,2141.7301298999228,0.16,0.16,0.08,0.0,0.2,0.16,0.16,0.16,0.16,2136.7755880998448,2136.7755880998448,2136.7755880998448,2136.7755880998448,2136.7755880998448,2136.7755880998448,2136.7755880998448,2136.7755880998448,2136.7648221400564,3.5215301997959614,return,3.364087500143796,,,,,,,,,,,,,,,,,,,,,,,,,,,,,,,,,25CYHR,train_y,red_square,top_left,2025-02-12_14h30.27.508,HideSeek_v1,2022.2.5,59.93435991947311,
,2,7,2,7,0,0,16,,train_dim1_1,10,30,,,,2,0,2,0,,,,,,,,,0,0,0,0,0,9,9,9,1,0,1,0,,,,,,,,,,,,,,,,,,,,,,,,,,,,,,,,,,,,,,,,,,,,,,,,,,,,,,,,,,,,,,,,30,,,,,,,,2143.72213619994,2143.72213619994,2143.72213619994,2143.72213619994,2143.72213619994,right,0.9600412000436336,0,0,0,99,0.08,0.08,right,0.8739161000121385,,,,,,,,,,,,,,,,,,,,,,,,,,,,,,,,,,,,,,,,,,,,,,,,,,,,,,,,,,,,25CYHR,train_y,red_square,top_left,2025-02-12_14h30.27.508,HideSeek_v1,2022.2.5,59.93435991947311,
,2,7,2,7,0,0,16,,train_dim1_1,10,30,,,,2,0,2,0,,,,,,,,,0,0,0,0,0,9,9,9,2,0,2,0,,,,,,,,,,,,,,,,,,,,,,,,,,,,,,,,,,,,,,,,,,,,,,,,,,,,,,,,,,,,,,,,30,,,,,,,,2144.6886491000187,2144.6886491000187,2144.6886491000187,2144.6886491000187,2144.6886491000187,down,0.676810699980706,0,0,0,99,0.08,0.0,down,0.5898008998483419,,,,,,,,,,,,,,,,,,,,,,,,,,,,,,,,,,,,,,,,,,,,,,,,,,,,,,,,,,,,25CYHR,train_y,red_square,top_left,2025-02-12_14h30.27.508,HideSeek_v1,2022.2.5,59.93435991947311,
,2,7,2,7,0,0,16,,train_dim1_1,10,30,,,,2,0,2,0,,,,,,,,,0,0,0,0,0,9,9,9,3,0,3,0,,,,,,,,,,,,,,,,,,,,,,,,,,,,,,,,,,,,,,,,,,,,,,,,,,,,,,,,,,,,,,,,30,,,,,,,,2145.3722264999524,2145.3722264999524,2145.3722264999524,2145.3722264999524,2145.3722264999524,up,1.3606485000345856,0,0,0,99,0.08,0.08,up,1.282915199873969,,,,,,,,,,,,,,,,,,,,,,,,,,,,,,,,,,,,,,,,,,,,,,,,,,,,,,,,,,,,25CYHR,train_y,red_square,top_left,2025-02-12_14h30.27.508,HideSeek_v1,2022.2.5,59.93435991947311,
,2,7,2,7,0,0,16,,train_dim1_1,10,30,,,,2,0,2,0,,,,,,,,,0,0,0,0,0,9,9,9,4,0,4,0,,,,,,,,,,,,,,,,,,,,,,,,,,,,,,,,,,,,,,,,,,,,,,,,,,,,,,,,,,,,,,,,30,,,,,,,,2146.739984399872,2146.739984399872,2146.739984399872,2146.739984399872,2146.739984399872,up,0.24345230008475482,0,0,0,99,0.08,0.16,up,0.15129259997047484,,,,,,,,,,,,,,,,,,,,,,,,,,,,,,,,,,,,,,,,,,,,,,,,,,,,,,,,,,,,25CYHR,train_y,red_square,top_left,2025-02-12_14h30.27.508,HideSeek_v1,2022.2.5,59.93435991947311,
,2,7,2,7,0,0,16,,train_dim1_1,10,30,,,,2,0,2,0,,,,,,,,,0,0,0,0,0,9,9,9,5,0,5,0,,,,,,,,,,,,,,,,,,,,,,,,,,,,,,,,,,,,,,,,,,,,,,,,,,,,,,,,,,,,,,,,30,,,,,,,,2146.9906243998557,2146.9906243998557,2146.9906243998557,2146.9906243998557,2146.9906243998557,right,0.6097020001616329,0,0,0,99,0.16,0.16,right,0.518796700052917,,,,,,,,,,,,,,,,,,,,,,,,,,,,,,,,,,,,,,,,,,,,,,,,,,,,,,,,,,,,25CYHR,train_y,red_square,top_left,2025-02-12_14h30.27.508,HideSeek_v1,2022.2.5,59.93435991947311,
,2,7,2,7,0,0,16,,train_dim1_1,10,30,,,,2,0,2,0,,,,,,,,,0,0,0,0,0,9,9,9,6,0,6,0,,,,,,,,,,,,,,,,,,,,,,,,,,,,,,,,,,,,,,,,,,,,,,,,,,,,,,,,,,,,,,,,30,,,,,,,,2147.607756299898,2147.607756299898,2147.607756299898,2147.607756299898,2147.607756299898,return,0.3101099000778049,0,0,0,0,0.16,0.16,return,0.22678599995560944,-14,17,0.16,0.16,,,,,,,,,,,,,,,,,,,,,,,,,,,,,,,,,,,,,,,,,,,,,,,,,,,,,,,,25CYHR,train_y,red_square,top_left,2025-02-12_14h30.27.508,HideSeek_v1,2022.2.5,59.93435991947311,
,4,6,4,5,0,-1,15,,train_dim1_1,11,30,,,,2,0,2,0,,,,,,,,,0,0,0,0,0,10,10,10,0,0,0,0,,,,,,,,,,,,,,,,,,,,,,,,,stimuli/alien_stimuli/15.png,,,,,,,,,,,,,,,,,,,,,,,,,,,,,stimuli/alien_stimuli/16.png,16,2,12,,,,,,,30,,,,,,,,2153.52272979985,2153.52272979985,2153.52272979985,2153.52272979985,2153.52272979985,down,1.6905875001102686,0,0,0,99,0.16,0.0,down,1.5951880000066012,,,,,2151.960637500044,2153.52272979985,0,0.16,0.0,0.0,0.16,0,0.0,0,0.16,2149.4931701999158,2149.4931701999158,2149.4931701999158,2149.4931701999158,2149.4931701999158,2149.4931701999158,2149.4931701999158,2149.4931701999158,2149.491865839995,2.5877288999035954,return,2.4433073000982404,,,,,,,,,,,,,,,,,,,,,,,,,,,,,,,,,25CYHR,train_y,red_square,top_left,2025-02-12_14h30.27.508,HideSeek_v1,2022.2.5,59.93435991947311,
,4,6,4,5,0,-1,15,,train_dim1_1,11,30,,,,2,0,2,0,,,,,,,,,0,0,0,0,0,10,10,10,1,0,1,0,,,,,,,,,,,,,,,,,,,,,,,,,,,,,,,,,,,,,,,,,,,,,,,,,,,,,,,,,,,,,,,,30,,,,,,,,2155.215606600046,2155.215606600046,2155.215606600046,2155.215606600046,2155.215606600046,return,0.5926737999543548,1,0,0,1,0.16,0.0,return,0.5113403999712318,-15,17,0.16,0.0,,,,,,,,,,,,,,,,,,,,,,,,,,,,,,,,,,,,,,,,,,,,,,,,,,,,,,,,25CYHR,train_y,red_square,top_left,2025-02-12_14h30.27.508,HideSeek_v1,2022.2.5,59.93435991947311,
,0,5,0,0,0,-5,11,,train_dim1_1,12,30,,,,2,0,2,0,,,,,,,,,0,0,0,0,0,11,11,11,0,0,0,0,,,,,,,,,,,,,,,,,,,,,,,,,stimuli/alien_stimuli/11.png,,,,,,,,,,,,,,,,,,,,,,,,,,,,,stimuli/alien_stimuli/15.png,15,4,13,,,,,,,30,,,,,,,,2167.113244100008,2167.113244100008,2167.113244100008,2167.113244100008,2167.113244100008,right,1.605932299979031,1,0,0,99,-0.08,0,right,1.5178785999305546,,,,,2165.554857299896,2167.113244100008,0.16,0,0.08,0.0,0.04,0.16,0.16,0.16,0,2157.366597099928,2157.366597099928,2157.366597099928,2157.366597099928,2157.366597099928,2157.366597099928,2157.366597099928,2157.366597099928,2157.3651191100244,8.292070799972862,return,8.171212499961257,,,,,,,,,,,,,,,,,,,,,,,,,,,,,,,,,25CYHR,train_y,red_square,top_left,2025-02-12_14h30.27.508,HideSeek_v1,2022.2.5,59.93435991947311,
,0,5,0,0,0,-5,11,,train_dim1_1,12,30,,,,2,0,2,0,,,,,,,,,0,0,0,0,0,11,11,11,1,0,1,0,,,,,,,,,,,,,,,,,,,,,,,,,,,,,,,,,,,,,,,,,,,,,,,,,,,,,,,,,,,,,,,,30,,,,,,,,2168.7302317998838,2168.7302317998838,2168.7302317998838,2168.7302317998838,2168.7302317998838,right,0.2057799999602139,1,0,0,99,0.0,0,right,0.11274770018644631,,,,,,,,,,,,,,,,,,,,,,,,,,,,,,,,,,,,,,,,,,,,,,,,,,,,,,,,,,,,25CYHR,train_y,red_square,top_left,2025-02-12_14h30.27.508,HideSeek_v1,2022.2.5,59.93435991947311,
,0,5,0,0,0,-5,11,,train_dim1_1,12,30,,,,2,0,2,0,,,,,,,,,0,0,0,0,0,11,11,11,2,0,2,0,,,,,,,,,,,,,,,,,,,,,,,,,,,,,,,,,,,,,,,,,,,,,,,,,,,,,,,,,,,,,,,,30,,,,,,,,2168.9422824999783,2168.9422824999783,2168.9422824999783,2168.9422824999783,2168.9422824999783,right,0.19325249991379678,1,0,0,99,0.08,0,right,0.10480699990876019,,,,,,,,,,,,,,,,,,,,,,,,,,,,,,,,,,,,,,,,,,,,,,,,,,,,,,,,,,,,25CYHR,train_y,red_square,top_left,2025-02-12_14h30.27.508,HideSeek_v1,2022.2.5,59.93435991947311,
,0,5,0,0,0,-5,11,,train_dim1_1,12,30,,,,2,0,2,0,,,,,,,,,0,0,0,0,0,11,11,11,3,0,3,0,,,,,,,,,,,,,,,,,,,,,,,,,,,,,,,,,,,,,,,,,,,,,,,,,,,,,,,,,,,,,,,,30,,,,,,,,2169.1426343000494,2169.1426343000494,2169.1426343000494,2169.1426343000494,2169.1426343000494,return,2.0111325001344085,1,0,0,0,0.08,0,return,1.925388399977237,-15,20,0.08,0,,,,,,,,,,,,,,,,,,,,,,,,,,,,,,,,,,,,,,,,,,,,,,,,,,,,,,,,25CYHR,train_y,red_square,top_left,2025-02-12_14h30.27.508,HideSeek_v1,2022.2.5,59.93435991947311,
,4,8,4,4,0,-4,12,,train_dim1_1,13,30,,,,2,0,2,0,,,,,,,,,0,0,0,0,0,12,12,12,0,0,0,0,,,,,,,,,,,,,,,,,,,,,,,,,stimuli/alien_stimuli/12.png,,,,,,,,,,,,,,,,,,,,,,,,,,,,,stimuli/alien_stimuli/11.png,11,0,14,,,,,,,30,,,,,,,,2180.4334276998416,2180.4334276998416,2180.4334276998416,2180.4334276998416,2180.4334276998416,down,1.7309240000322461,1,0,0,99,0.16,0.15999999999999998,down,1.6426852000877261,,,,,2178.866311999969,2180.4334276998416,-0.16,-0.4,0.4,0.0,-0.2,-0.16,-0.16,-0.16,-0.4,2172.7318819998764,2172.7318819998764,2172.7318819998764,2172.7318819998764,2172.7318819998764,2172.7318819998764,2172.7318819998764,2172.7318819998764,2172.7277360399717,6.257414899999276,return,6.103278799913824,,,,,,,,,,,,,,,,,,,,,,,,,,,,,,,,,25CYHR,train_y,red_square,top_left,2025-02-12_14h30.27.508,HideSeek_v1,2022.2.5,59.93435991947311,
,4,8,4,4,0,-4,12,,train_dim1_1,13,30,,,,2,0,2,0,,,,,,,,,0,0,0,0,0,12,12,12,1,0,1,0,,,,,,,,,,,,,,,,,,,,,,,,,,,,,,,,,,,,,,,,,,,,,,,,,,,,,,,,,,,,,,,,30,,,,,,,,2182.169341499917,2182.169341499917,2182.169341499917,2182.169341499917,2182.169341499917,down,0.1934515000320971,1,0,0,99,0.16,0.07999999999999997,down,0.10261090006679296,,,,,,,,,,,,,,,,,,,,,,,,,,,,,,,,,,,,,,,,,,,,,,,,,,,,,,,,,,,,25CYHR,train_y,red_square,top_left,2025-02-12_14h30.27.508,HideSeek_v1,2022.2.5,59.93435991947311,
,4,8,4,4,0,-4,12,,train_dim1_1,13,30,,,,2,0,2,0,,,,,,,,,0,0,0,0,0,12,12,12,2,0,2,0,,,,,,,,,,,,,,,,,,,,,,,,,,,,,,,,,,,,,,,,,,,,,,,,,,,,,,,,,,,,,,,,30,,,,,,,,2182.3705642998684,2182.3705642998684,2182.3705642998684,2182.3705642998684,2182.3705642998684,down,0.1758411000482738,1,0,0,99,0.16,-2.7755575615628914e-17,down,0.0886152999009937,,,,,,,,,,,,,,,,,,,,,,,,,,,,,,,,,,,,,,,,,,,,,,,,,,,,,,,,,,,,25CYHR,train_y,red_square,top_left,2025-02-12_14h30.27.508,HideSeek_v1,2022.2.5,59.93435991947311,
,4,8,4,4,0,-4,12,,train_dim1_1,13,30,,,,2,0,2,0,,,,,,,,,0,0,0,0,0,12,12,12,3,0,3,0,,,,,,,,,,,,,,,,,,,,,,,,,,,,,,,,,,,,,,,,,,,,,,,,,,,,,,,,,,,,,,,,30,,,,,,,,2182.5538903998677,2182.5538903998677,2182.5538903998677,2182.5538903998677,2182.5538903998677,down,0.6929337999317795,1,0,0,99,0.16,-0.08000000000000003,down,0.6083792001008987,,,,,,,,,,,,,,,,,,,,,,,,,,,,,,,,,,,,,,,,,,,,,,,,,,,,,,,,,,,,25CYHR,train_y,red_square,top_left,2025-02-12_14h30.27.508,HideSeek_v1,2022.2.5,59.93435991947311,
,4,8,4,4,0,-4,12,,train_dim1_1,13,30,,,,2,0,2,0,,,,,,,,,0,0,0,0,0,12,12,12,4,0,4,0,,,,,,,,,,,,,,,,,,,,,,,,,,,,,,,,,,,,,,,,,,,,,,,,,,,,,,,,,,,,,,,,30,,,,,,,,2183.253728899872,2183.253728899872,2183.253728899872,2183.253728899872,2183.253728899872,return,0.8601353000849485,2,0,0,1,0.16,-0.08000000000000003,return,0.7682077998761088,-19,20,0.16,-0.08000000000000003,,,,,,,,,,,,,,,,,,,,,,,,,,,,,,,,,,,,,,,,,,,,,,,,,,,,,,,,25CYHR,train_y,red_square,top_left,2025-02-12_14h30.27.508,HideSeek_v1,2022.2.5,59.93435991947311,
,2,7,2,7,0,0,16,,train_dim1_1,14,30,,,,2,0,2,0,,,,,,,,,0,0,0,0,0,13,13,13,0,0,0,0,,,,,,,,,,,,,,,,,,,,,,,,,stimuli/alien_stimuli/16.png,,,,,,,,,,,,,,,,,,,,,,,,,,,,,stimuli/alien_stimuli/12.png,12,4,15,,,,,,,30,,,,,,,,2189.315365999937,2189.315365999937,2189.315365999937,2189.315365999937,2189.315365999937,right,2.288848599884659,2,0,0,99,0.08,0.16,right,2.1962416998576373,,,,,2187.7567320999224,2189.315365999937,0.16,-0.08,0.32,0.0,0.07999999999999999,0.16,0.16,0.16,-0.08,2185.6895917998627,2185.6895917998627,2185.6895917998627,2185.6895917998627,2185.6895917998627,2185.6895917998627,2185.6895917998627,2185.6895917998627,2185.688678940013,2.187284199986607,return,2.0358166000805795,,,,,,,,,,,,,,,,,,,,,,,,,,,,,,,,,25CYHR,train_y,red_square,top_left,2025-02-12_14h30.27.508,HideSeek_v1,2022.2.5,59.93435991947311,
,2,7,2,7,0,0,16,,train_dim1_1,14,30,,,,2,0,2,0,,,,,,,,,0,0,0,0,0,13,13,13,1,0,1,0,,,,,,,,,,,,,,,,,,,,,,,,,,,,,,,,,,,,,,,,,,,,,,,,,,,,,,,,,,,,,,,,30,,,,,,,,2191.6111967999022,2191.6111967999022,2191.6111967999022,2191.6111967999022,2191.6111967999022,left,0.4264385001733899,2,0,0,99,0.0,0.16,left,0.3417997001670301,,,,,,,,,,,,,,,,,,,,,,,,,,,,,,,,,,,,,,,,,,,,,,,,,,,,,,,,,,,,25CYHR,train_y,red_square,top_left,2025-02-12_14h30.27.508,HideSeek_v1,2022.2.5,59.93435991947311,
,2,7,2,7,0,0,16,,train_dim1_1,14,30,,,,2,0,2,0,,,,,,,,,0,0,0,0,0,13,13,13,2,0,2,0,,,,,,,,,,,,,,,,,,,,,,,,,,,,,,,,,,,,,,,,,,,,,,,,,,,,,,,,,,,,,,,,30,,,,,,,,2192.0453937998973,2192.0453937998973,2192.0453937998973,2192.0453937998973,2192.0453937998973,return,0.4263269000221044,3,0,0,1,0.0,0.16,return,0.3419987999368459,-19,20,0.0,0.16,,,,,,,,,,,,,,,,,,,,,,,,,,,,,,,,,,,,,,,,,,,,,,,,,,,,,,,,25CYHR,train_y,red_square,top_left,2025-02-12_14h30.27.508,HideSeek_v1,2022.2.5,59.93435991947311,
,1,9,1,6,0,-3,13,,train_dim1_1,15,30,,,,2,0,2,0,,,,,,,,,0,0,0,0,0,14,14,14,0,0,0,0,,,,,,,,,,,,,,,,,,,,,,,,,stimuli/alien_stimuli/13.png,,,,,,,,,,,,,,,,,,,,,,,,,,,,,stimuli/alien_stimuli/16.png,16,2,16,,,,,,,30,,,,,,,,2197.0541713000275,2197.0541713000275,2197.0541713000275,2197.0541713000275,2197.0541713000275,down,1.7573447001632303,3,0,0,99,-0.08,0.24,down,1.6760299000889063,,,,,2195.4966196999885,2197.0541713000275,0,0.16,0.0,0.0,0.16,0,0.0,0,0.16,2194.0312828999013,2194.0312828999013,2194.0312828999013,2194.0312828999013,2194.0312828999013,2194.0312828999013,2194.0312828999013,2194.0312828999013,2194.028980710008,1.56973069999367,return,1.4366836999543011,,,,,,,,,,,,,,,,,,,,,,,,,,,,,,,,,25CYHR,train_y,red_square,top_left,2025-02-12_14h30.27.508,HideSeek_v1,2022.2.5,59.93435991947311,
,1,9,1,6,0,-3,13,,train_dim1_1,15,30,,,,2,0,2,0,,,,,,,,,0,0,0,0,0,14,14,14,1,0,1,0,,,,,,,,,,,,,,,,,,,,,,,,,,,,,,,,,,,,,,,,,,,,,,,,,,,,,,,,,,,,,,,,30,,,,,,,,2198.816523999907,2198.816523999907,2198.816523999907,2198.816523999907,2198.816523999907,down,0.17593439994379878,3,0,0,99,-0.08,0.15999999999999998,down,0.0906980000436306,,,,,,,,,,,,,,,,,,,,,,,,,,,,,,,,,,,,,,,,,,,,,,,,,,,,,,,,,,,,25CYHR,train_y,red_square,top_left,2025-02-12_14h30.27.508,HideSeek_v1,2022.2.5,59.93435991947311,
,1,9,1,6,0,-3,13,,train_dim1_1,15,30,,,,2,0,2,0,,,,,,,,,0,0,0,0,0,14,14,14,2,0,2,0,,,,,,,,,,,,,,,,,,,,,,,,,,,,,,,,,,,,,,,,,,,,,,,,,,,,,,,,,,,,,,,,30,,,,,,,,2199.00043809996,2199.00043809996,2199.00043809996,2199.00043809996,2199.00043809996,down,0.1763671999797225,3,0,0,99,-0.08,0.07999999999999997,down,0.09687000000849366,,,,,,,,,,,,,,,,,,,,,,,,,,,,,,,,,,,,,,,,,,,,,,,,,,,,,,,,,,,,25CYHR,train_y,red_square,top_left,2025-02-12_14h30.27.508,HideSeek_v1,2022.2.5,59.93435991947311,
,1,9,1,6,0,-3,13,,train_dim1_1,15,30,,,,2,0,2,0,,,,,,,,,0,0,0,0,0,14,14,14,3,0,3,0,,,,,,,,,,,,,,,,,,,,,,,,,,,,,,,,,,,,,,,,,,,,,,,,,,,,,,,,,,,,,,,,30,,,,,,,,2199.1847616999876,2199.1847616999876,2199.1847616999876,2199.1847616999876,2199.1847616999876,down,1.0102202999405563,3,0,0,99,-0.08,-2.7755575615628914e-17,down,0.9277563998475671,,,,,,,,,,,,,,,,,,,,,,,,,,,,,,,,,,,,,,,,,,,,,,,,,,,,,,,,,,,,25CYHR,train_y,red_square,top_left,2025-02-12_14h30.27.508,HideSeek_v1,2022.2.5,59.93435991947311,
,1,9,1,6,0,-3,13,,train_dim1_1,15,30,,,,2,0,2,0,,,,,,,,,0,0,0,0,0,14,14,14,4,0,4,0,,,,,,,,,,,,,,,,,,,,,,,,,,,,,,,,,,,,,,,,,,,,,,,,,,,,,,,,,,,,,,,,30,,,,,,,,2200.2023907999974,2200.2023907999974,2200.2023907999974,2200.2023907999974,2200.2023907999974,return,0.20925930002704263,3,1,0,0,-0.08,-2.7755575615628914e-17,return,0.12458089995197952,-23,20,-0.08,-2.7755575615628914e-17,,,,,,,,,,,,,,,,,,,,,,,,,,,,,,,,,,,,,,,,,,,,,,,,,,,,,,,,25CYHR,train_y,red_square,top_left,2025-02-12_14h30.27.508,HideSeek_v1,2022.2.5,59.93435991947311,
,4,5,4,4,0,-1,15,,train_dim1_1,16,30,,,,2,0,2,0,,,,,,,,,0,0,0,0,0,15,15,15,0,0,0,0,,,,,,,,,,,,,,,,,,,,,,,,,stimuli/alien_stimuli/15.png,,,,,,,,,,,,,,,,,,,,,,,,,,,,,stimuli/alien_stimuli/13.png,13,1,17,,,,,,,30,,,,,,,,2205.245374399936,2205.245374399936,2205.245374399936,2205.245374399936,2205.245374399936,right,2.0056272000074387,3,1,0,99,0.24,0,right,1.9193420000374317,,,,,2203.686693100026,2205.245374399936,-0.08,0.08,0.24,0.0,0.2,-0.08,-0.08,-0.08,0.08,2201.994687499944,2201.994687499944,2201.994687499944,2201.994687499944,2201.994687499944,2201.994687499944,2201.994687499944,2201.994687499944,2201.9855228398924,1.8201842000707984,return,1.6751393000595272,,,,,,,,,,,,,,,,,,,,,,,,,,,,,,,,,25CYHR,train_y,red_square,top_left,2025-02-12_14h30.27.508,HideSeek_v1,2022.2.5,59.93435991947311,
,4,5,4,4,0,-1,15,,train_dim1_1,16,30,,,,2,0,2,0,,,,,,,,,0,0,0,0,0,15,15,15,1,0,1,0,,,,,,,,,,,,,,,,,,,,,,,,,,,,,,,,,,,,,,,,,,,,,,,,,,,,,,,,,,,,,,,,30,,,,,,,,2207.2587843998335,2207.2587843998335,2207.2587843998335,2207.2587843998335,2207.2587843998335,right,0.19263179996050894,3,1,0,99,0.32,0,right,0.10080639994703233,,,,,,,,,,,,,,,,,,,,,,,,,,,,,,,,,,,,,,,,,,,,,,,,,,,,,,,,,,,,25CYHR,train_y,red_square,top_left,2025-02-12_14h30.27.508,HideSeek_v1,2022.2.5,59.93435991947311,
,4,5,4,4,0,-1,15,,train_dim1_1,16,30,,,,2,0,2,0,,,,,,,,,0,0,0,0,0,15,15,15,2,0,2,0,,,,,,,,,,,,,,,,,,,,,,,,,,,,,,,,,,,,,,,,,,,,,,,,,,,,,,,,,,,,,,,,30,,,,,,,,2207.458942200057,2207.458942200057,2207.458942200057,2207.458942200057,2207.458942200057,right,0.15968749998137355,3,1,0,99,0.4,0,right,0.08064269996248186,,,,,,,,,,,,,,,,,,,,,,,,,,,,,,,,,,,,,,,,,,,,,,,,,,,,,,,,,,,,25CYHR,train_y,red_square,top_left,2025-02-12_14h30.27.508,HideSeek_v1,2022.2.5,59.93435991947311,
,4,5,4,4,0,-1,15,,train_dim1_1,16,30,,,,2,0,2,0,,,,,,,,,0,0,0,0,0,15,15,15,3,0,3,0,,,,,,,,,,,,,,,,,,,,,,,,,,,,,,,,,,,,,,,,,,,,,,,,,,,,,,,,,,,,,,,,30,,,,,,,,2207.6239135998767,2207.6239135998767,2207.6239135998767,2207.6239135998767,2207.6239135998767,return,1.360762899974361,3,0,0,0,0.4,0,return,1.282640099991113,-23,23,0.4,0,,,,,,,,,,,,,,,,,,,,,,,,,,,,,,,,,,,,,,,,,,,,,,,,,,,,,,,,25CYHR,train_y,red_square,top_left,2025-02-12_14h30.27.508,HideSeek_v1,2022.2.5,59.93435991947311,
,3,8,3,5,0,-3,13,,train_dim1_1,17,30,,,,2,0,2,0,,,,,,,,,0,0,0,0,0,16,16,16,0,0,0,0,,,,,,,,,,,,,,,,,,,,,,,,,stimuli/alien_stimuli/13.png,,,,,,,,,,,,,,,,,,,,,,,,,,,,,stimuli/alien_stimuli/15.png,15,4,18,,,,,,,30,,,,,,,,2213.9006131999195,2213.9006131999195,2213.9006131999195,2213.9006131999195,2213.9006131999195,down,1.5387014001607895,3,0,0,99,0.08,0.15999999999999998,down,1.448904399992898,,,,,2212.343934699893,2213.9006131999195,0.16,-0.08,0.08,0.0,-0.04,0.16,0.16,0.16,-0.08,2210.544185000006,2210.544185000006,2210.544185000006,2210.544185000006,2210.544185000006,2210.544185000006,2210.544185000006,2210.544185000006,2210.542540409998,1.9035696000792086,return,1.7674241999629885,,,,,,,,,,,,,,,,,,,,,,,,,,,,,,,,,25CYHR,train_y,red_square,top_left,2025-02-12_14h30.27.508,HideSeek_v1,2022.2.5,59.93435991947311,
,3,8,3,5,0,-3,13,,train_dim1_1,17,30,,,,2,0,2,0,,,,,,,,,0,0,0,0,0,16,16,16,1,0,1,0,,,,,,,,,,,,,,,,,,,,,,,,,,,,,,,,,,,,,,,,,,,,,,,,,,,,,,,,,,,,,,,,30,,,,,,,,2215.4487029998563,2215.4487029998563,2215.4487029998563,2215.4487029998563,2215.4487029998563,down,0.19232750008814037,3,0,0,99,0.08,0.07999999999999997,down,0.10333500010892749,,,,,,,,,,,,,,,,,,,,,,,,,,,,,,,,,,,,,,,,,,,,,,,,,,,,,,,,,,,,25CYHR,train_y,red_square,top_left,2025-02-12_14h30.27.508,HideSeek_v1,2022.2.5,59.93435991947311,
,3,8,3,5,0,-3,13,,train_dim1_1,17,30,,,,2,0,2,0,,,,,,,,,0,0,0,0,0,16,16,16,2,0,2,0,,,,,,,,,,,,,,,,,,,,,,,,,,,,,,,,,,,,,,,,,,,,,,,,,,,,,,,,,,,,,,,,30,,,,,,,,2215.648775199894,2215.648775199894,2215.648775199894,2215.648775199894,2215.648775199894,down,0.1595475000794977,3,0,0,99,0.08,-2.7755575615628914e-17,down,0.06730109988711774,,,,,,,,,,,,,,,,,,,,,,,,,,,,,,,,,,,,,,,,,,,,,,,,,,,,,,,,,,,,25CYHR,train_y,red_square,top_left,2025-02-12_14h30.27.508,HideSeek_v1,2022.2.5,59.93435991947311,
,3,8,3,5,0,-3,13,,train_dim1_1,17,30,,,,2,0,2,0,,,,,,,,,0,0,0,0,0,16,16,16,3,0,3,0,,,,,,,,,,,,,,,,,,,,,,,,,,,,,,,,,,,,,,,,,,,,,,,,,,,,,,,,,,,,,,,,30,,,,,,,,2215.8140867999755,2215.8140867999755,2215.8140867999755,2215.8140867999755,2215.8140867999755,down,0.9269505999982357,3,0,0,99,0.08,-0.08000000000000003,down,0.8353144999127835,,,,,,,,,,,,,,,,,,,,,,,,,,,,,,,,,,,,,,,,,,,,,,,,,,,,,,,,,,,,25CYHR,train_y,red_square,top_left,2025-02-12_14h30.27.508,HideSeek_v1,2022.2.5,59.93435991947311,
,3,8,3,5,0,-3,13,,train_dim1_1,17,30,,,,2,0,2,0,,,,,,,,,0,0,0,0,0,16,16,16,4,0,4,0,,,,,,,,,,,,,,,,,,,,,,,,,,,,,,,,,,,,,,,,,,,,,,,,,,,,,,,,,,,,,,,,30,,,,,,,,2216.7490009998437,2216.7490009998437,2216.7490009998437,2216.7490009998437,2216.7490009998437,return,0.1757205999456346,3,1,0,0,0.08,-0.08000000000000003,return,0.08318240009248257,-27,23,0.08,-0.08000000000000003,,,,,,,,,,,,,,,,,,,,,,,,,,,,,,,,,,,,,,,,,,,,,,,,,,,,,,,,25CYHR,train_y,red_square,top_left,2025-02-12_14h30.27.508,HideSeek_v1,2022.2.5,59.93435991947311,
,2,6,2,1,0,-5,11,,train_dim1_1,18,30,,,,2,0,2,0,,,,,,,,,0,0,0,0,0,17,17,17,0,0,0,0,,,,,,,,,,,,,,,,,,,,,,,,,stimuli/alien_stimuli/11.png,,,,,,,,,,,,,,,,,,,,,,,,,,,,,stimuli/alien_stimuli/13.png,13,3,19,,,,,,,30,,,,,,,,2221.309162899852,2221.309162899852,2221.309162899852,2221.309162899852,2221.309162899852,right,0.8039078000001609,3,1,0,99,0.08,0.08,right,0.7137193998787552,,,,,2219.749815599993,2221.309162899852,0.08,0,0.24,0.0,0.12,0.08,0.08,0.08,0,2218.4789080000482,2218.4789080000482,2218.4789080000482,2218.4789080000482,2218.4789080000482,2218.4789080000482,2218.4789080000482,2218.4789080000482,2218.465494980011,1.370357400039211,return,1.2545961998403072,,,,,,,,,,,,,,,,,,,,,,,,,,,,,,,,,25CYHR,train_y,red_square,top_left,2025-02-12_14h30.27.508,HideSeek_v1,2022.2.5,59.93435991947311,
,2,6,2,1,0,-5,11,,train_dim1_1,18,30,,,,2,0,2,0,,,,,,,,,0,0,0,0,0,17,17,17,1,0,1,0,,,,,,,,,,,,,,,,,,,,,,,,,,,,,,,,,,,,,,,,,,,,,,,,,,,,,,,,,,,,,,,,30,,,,,,,,2222.120185500011,2222.120185500011,2222.120185500011,2222.120185500011,2222.120185500011,right,0.1920924000442028,3,1,0,99,0.16,0.08,right,0.1065136999823153,,,,,,,,,,,,,,,,,,,,,,,,,,,,,,,,,,,,,,,,,,,,,,,,,,,,,,,,,,,,25CYHR,train_y,red_square,top_left,2025-02-12_14h30.27.508,HideSeek_v1,2022.2.5,59.93435991947311,
,2,6,2,1,0,-5,11,,train_dim1_1,18,30,,,,2,0,2,0,,,,,,,,,0,0,0,0,0,17,17,17,2,0,2,0,,,,,,,,,,,,,,,,,,,,,,,,,,,,,,,,,,,,,,,,,,,,,,,,,,,,,,,,,,,,,,,,30,,,,,,,,2222.320031199837,2222.320031199837,2222.320031199837,2222.320031199837,2222.320031199837,right,0.1928683000151068,3,1,0,99,0.24,0.08,right,0.1007589001674205,,,,,,,,,,,,,,,,,,,,,,,,,,,,,,,,,,,,,,,,,,,,,,,,,,,,,,,,,,,,25CYHR,train_y,red_square,top_left,2025-02-12_14h30.27.508,HideSeek_v1,2022.2.5,59.93435991947311,
,2,6,2,1,0,-5,11,,train_dim1_1,18,30,,,,2,0,2,0,,,,,,,,,0,0,0,0,0,17,17,17,3,0,3,0,,,,,,,,,,,,,,,,,,,,,,,,,,,,,,,,,,,,,,,,,,,,,,,,,,,,,,,,,,,,,,,,30,,,,,,,,2222.5216560000554,2222.5216560000554,2222.5216560000554,2222.5216560000554,2222.5216560000554,return,0.642324100015685,3,0,0,0,0.24,0.08,return,0.5548237999901175,-27,26,0.24,0.08,,,,,,,,,,,,,,,,,,,,,,,,,,,,,,,,,,,,,,,,,,,,,,,,,,,,,,,,25CYHR,train_y,red_square,top_left,2025-02-12_14h30.27.508,HideSeek_v1,2022.2.5,59.93435991947311,
,0,9,0,5,0,-4,12,,train_dim1_1,19,30,,,,2,0,2,0,,,,,,,,,0,0,0,0,0,18,18,18,0,0,0,0,,,,,,,,,,,,,,,,,,,,,,,,,stimuli/alien_stimuli/12.png,,,,,,,,,,,,,,,,,,,,,,,,,,,,,stimuli/alien_stimuli/11.png,11,2,20,,,,,,,30,,,,,,,,2228.5486041998956,2228.5486041998956,2228.5486041998956,2228.5486041998956,2228.5486041998956,down,1.037693299818784,3,0,0,99,-0.16,0.24,down,0.9590661998372525,,,,,2226.989251199877,2228.5486041998956,0,-0.32,0.4,0.0,-0.12,0,0.0,0,-0.32,2224.720387399895,2224.720387399895,2224.720387399895,2224.720387399895,2224.720387399895,2224.720387399895,2224.720387399895,2224.720387399895,2224.7209179100346,2.3708879000041634,return,2.2403561000246555,,,,,,,,,,,,,,,,,,,,,,,,,,,,,,,,,25CYHR,train_y,red_square,top_left,2025-02-12_14h30.27.508,HideSeek_v1,2022.2.5,59.93435991947311,
,0,9,0,5,0,-4,12,,train_dim1_1,19,30,,,,2,0,2,0,,,,,,,,,0,0,0,0,0,18,18,18,1,0,1,0,,,,,,,,,,,,,,,,,,,,,,,,,,,,,,,,,,,,,,,,,,,,,,,,,,,,,,,,,,,,,,,,30,,,,,,,,2229.592805400025,2229.592805400025,2229.592805400025,2229.592805400025,2229.592805400025,down,0.29262869991362095,3,0,0,99,-0.16,0.15999999999999998,down,0.19999080011621118,,,,,,,,,,,,,,,,,,,,,,,,,,,,,,,,,,,,,,,,,,,,,,,,,,,,,,,,,,,,25CYHR,train_y,red_square,top_left,2025-02-12_14h30.27.508,HideSeek_v1,2022.2.5,59.93435991947311,
,0,9,0,5,0,-4,12,,train_dim1_1,19,30,,,,2,0,2,0,,,,,,,,,0,0,0,0,0,18,18,18,2,0,2,0,,,,,,,,,,,,,,,,,,,,,,,,,,,,,,,,,,,,,,,,,,,,,,,,,,,,,,,,,,,,,,,,30,,,,,,,,2229.895181,2229.895181,2229.895181,2229.895181,2229.895181,down,0.2927983000408858,3,0,0,99,-0.16,0.07999999999999997,down,0.2018051000777632,,,,,,,,,,,,,,,,,,,,,,,,,,,,,,,,,,,,,,,,,,,,,,,,,,,,,,,,,,,,25CYHR,train_y,red_square,top_left,2025-02-12_14h30.27.508,HideSeek_v1,2022.2.5,59.93435991947311,
,0,9,0,5,0,-4,12,,train_dim1_1,19,30,,,,2,0,2,0,,,,,,,,,0,0,0,0,0,18,18,18,3,0,3,0,,,,,,,,,,,,,,,,,,,,,,,,,,,,,,,,,,,,,,,,,,,,,,,,,,,,,,,,,,,,,,,,30,,,,,,,,2230.192841500044,2230.192841500044,2230.192841500044,2230.192841500044,2230.192841500044,down,0.2934236000292003,3,0,0,99,-0.16,-2.7755575615628914e-17,down,0.2070035000797361,,,,,,,,,,,,,,,,,,,,,,,,,,,,,,,,,,,,,,,,,,,,,,,,,,,,,,,,,,,,25CYHR,train_y,red_square,top_left,2025-02-12_14h30.27.508,HideSeek_v1,2022.2.5,59.93435991947311,
,0,9,0,5,0,-4,12,,train_dim1_1,19,30,,,,2,0,2,0,,,,,,,,,0,0,0,0,0,18,18,18,4,0,4,0,,,,,,,,,,,,,,,,,,,,,,,,,,,,,,,,,,,,,,,,,,,,,,,,,,,,,,,,,,,,,,,,30,,,,,,,,2230.49444020004,2230.49444020004,2230.49444020004,2230.49444020004,2230.49444020004,return,1.0100734001025558,4,0,0,1,-0.16,-2.7755575615628914e-17,return,0.9169788002036512,-31,26,-0.16,-2.7755575615628914e-17,,,,,,,,,,,,,,,,,,,,,,,,,,,,,,,,,,,,,,,,,,,,,,,,,,,,,,,,25CYHR,train_y,red_square,top_left,2025-02-12_14h30.27.508,HideSeek_v1,2022.2.5,59.93435991947311,
,2,5,2,5,0,0,16,,train_dim1_1,20,30,,,,2,0,2,0,,,,,,,,,0,0,0,0,0,19,19,19,0,0,0,0,,,,,,,,,,,,,,,,,,,,,,,,,stimuli/alien_stimuli/16.png,,,,,,,,,,,,,,,,,,,,,,,,,,,,,stimuli/alien_stimuli/12.png,12,0,21,,,,,,,30,,,,,,,,2235.9020485999063,2235.9020485999063,2235.9020485999063,2235.9020485999063,2235.9020485999063,return,2.723562699975446,5,0,0,1,0,0,return,2.631885200040415,-31,26,0,0,2234.345503399847,2235.9020485999063,-0.16,0,0.32,0.0,0.16,-0.16,-0.16,-0.16,0,2233.064459499903,2233.064459499903,2233.064459499903,2233.064459499903,2233.064459499903,2233.064459499903,2233.064459499903,2233.064459499903,2233.0612889099166,1.3862825999967754,return,1.2493016000371426,,,,,,,,,,,,,,,,,,,,,,,,,,,,,,,,,25CYHR,train_y,red_square,top_left,2025-02-12_14h30.27.508,HideSeek_v1,2022.2.5,59.93435991947311,
,2,9,2,8,0,-1,15,,train_dim1_1,21,30,,,,2,0,2,0,,,,,,,,,0,0,0,0,0,20,20,20,0,0,0,0,,,,,,,,,,,,,,,,,,,,,,,,,stimuli/alien_stimuli/15.png,,,,,,,,,,,,,,,,,,,,,,,,,,,,,stimuli/alien_stimuli/16.png,16,2,22,,,,,,,30,,,,,,,,2243.311573599931,2243.311573599931,2243.311573599931,2243.311573599931,2243.311573599931,down,1.220154699869454,5,0,0,99,0,0.24,down,1.1424062000587583,,,,,2241.751518599922,2243.311573599931,0,0,0.0,0.0,0.0,0,0.0,0,0,2240.1872294999193,2240.1872294999193,2240.1872294999193,2240.1872294999193,2240.1872294999193,2240.1872294999193,2240.1872294999193,2240.1872294999193,2240.1838335100792,1.6699045998975635,return,1.532306700013578,,,,,,,,,,,,,,,,,,,,,,,,,,,,,,,,,25CYHR,train_y,red_square,top_left,2025-02-12_14h30.27.508,HideSeek_v1,2022.2.5,59.93435991947311,
,2,9,2,8,0,-1,15,,train_dim1_1,21,30,,,,2,0,2,0,,,,,,,,,0,0,0,0,0,20,20,20,1,0,1,0,,,,,,,,,,,,,,,,,,,,,,,,,,,,,,,,,,,,,,,,,,,,,,,,,,,,,,,,,,,,,,,,30,,,,,,,,2244.5388803000096,2244.5388803000096,2244.5388803000096,2244.5388803000096,2244.5388803000096,return,0.4598932999651879,6,0,0,1,0,0.24,return,0.3705353999976069,-32,26,0,0.24,,,,,,,,,,,,,,,,,,,,,,,,,,,,,,,,,,,,,,,,,,,,,,,,,,,,,,,,25CYHR,train_y,red_square,top_left,2025-02-12_14h30.27.508,HideSeek_v1,2022.2.5,59.93435991947311,
,0,7,0,4,0,-3,13,,train_dim1_1,22,30,,,,2,0,2,0,,,,,,,,,0,0,0,0,0,21,21,21,0,0,0,0,,,,,,,,,,,,,,,,,,,,,,,,,stimuli/alien_stimuli/13.png,,,,,,,,,,,,,,,,,,,,,,,,,,,,,stimuli/alien_stimuli/15.png,15,2,23,,,,,,,30,,,,,,,,2249.015207899967,2249.015207899967,2249.015207899967,2249.015207899967,2249.015207899967,right,1.2203405001200736,6,0,0,99,-0.08,0.16,right,1.1339218998327851,,,,,2247.456340899924,2249.015207899967,0,0.24,0.08,0.0,0.28,0,0.0,0,0.24,2246.555427500047,2246.555427500047,2246.555427500047,2246.555427500047,2246.555427500047,2246.555427500047,2246.555427500047,2246.555427500047,2246.5557851099175,1.0027270999271423,return,0.8689159001223743,,,,,,,,,,,,,,,,,,,,,,,,,,,,,,,,,25CYHR,train_y,red_square,top_left,2025-02-12_14h30.27.508,HideSeek_v1,2022.2.5,59.93435991947311,
,0,7,0,4,0,-3,13,,train_dim1_1,22,30,,,,2,0,2,0,,,,,,,,,0,0,0,0,0,21,21,21,1,0,1,0,,,,,,,,,,,,,,,,,,,,,,,,,,,,,,,,,,,,,,,,,,,,,,,,,,,,,,,,,,,,,,,,30,,,,,,,,2250.2418980000075,2250.2418980000075,2250.2418980000075,2250.2418980000075,2250.2418980000075,right,0.24245229992084205,6,0,0,99,0.0,0.16,right,0.1665874000173062,,,,,,,,,,,,,,,,,,,,,,,,,,,,,,,,,,,,,,,,,,,,,,,,,,,,,,,,,,,,25CYHR,train_y,red_square,top_left,2025-02-12_14h30.27.508,HideSeek_v1,2022.2.5,59.93435991947311,
,0,7,0,4,0,-3,13,,train_dim1_1,22,30,,,,2,0,2,0,,,,,,,,,0,0,0,0,0,21,21,21,2,0,2,0,,,,,,,,,,,,,,,,,,,,,,,,,,,,,,,,,,,,,,,,,,,,,,,,,,,,,,,,,,,,,,,,30,,,,,,,,2250.4936703999992,2250.4936703999992,2250.4936703999992,2250.4936703999992,2250.4936703999992,right,0.34331850009039044,6,0,0,99,0.08,0.16,right,0.2562675999943167,,,,,,,,,,,,,,,,,,,,,,,,,,,,,,,,,,,,,,,,,,,,,,,,,,,,,,,,,,,,25CYHR,train_y,red_square,top_left,2025-02-12_14h30.27.508,HideSeek_v1,2022.2.5,59.93435991947311,
,0,7,0,4,0,-3,13,,train_dim1_1,22,30,,,,2,0,2,0,,,,,,,,,0,0,0,0,0,21,21,21,3,0,3,0,,,,,,,,,,,,,,,,,,,,,,,,,,,,,,,,,,,,,,,,,,,,,,,,,,,,,,,,,,,,,,,,30,,,,,,,,2250.8424024998676,2250.8424024998676,2250.8424024998676,2250.8424024998676,2250.8424024998676,right,0.5431240000762045,6,0,0,99,0.16,0.16,right,0.4584931000135839,,,,,,,,,,,,,,,,,,,,,,,,,,,,,,,,,,,,,,,,,,,,,,,,,,,,,,,,,,,,25CYHR,train_y,red_square,top_left,2025-02-12_14h30.27.508,HideSeek_v1,2022.2.5,59.93435991947311,
,0,7,0,4,0,-3,13,,train_dim1_1,22,30,,,,2,0,2,0,,,,,,,,,0,0,0,0,0,21,21,21,4,0,4,0,,,,,,,,,,,,,,,,,,,,,,,,,,,,,,,,,,,,,,,,,,,,,,,,,,,,,,,,,,,,,,,,30,,,,,,,,2251.3939357998315,2251.3939357998315,2251.3939357998315,2251.3939357998315,2251.3939357998315,right,0.5430207999888808,6,0,0,99,0.24,0.16,right,0.46622930001467466,,,,,,,,,,,,,,,,,,,,,,,,,,,,,,,,,,,,,,,,,,,,,,,,,,,,,,,,,,,,25CYHR,train_y,red_square,top_left,2025-02-12_14h30.27.508,HideSeek_v1,2022.2.5,59.93435991947311,
,0,7,0,4,0,-3,13,,train_dim1_1,22,30,,,,2,0,2,0,,,,,,,,,0,0,0,0,0,21,21,21,5,0,5,0,,,,,,,,,,,,,,,,,,,,,,,,,,,,,,,,,,,,,,,,,,,,,,,,,,,,,,,,,,,,,,,,30,,,,,,,,2251.944140800042,2251.944140800042,2251.944140800042,2251.944140800042,2251.944140800042,left,1.7775541001465172,6,0,0,99,0.15999999999999998,0.16,left,1.6988709999714047,,,,,,,,,,,,,,,,,,,,,,,,,,,,,,,,,,,,,,,,,,,,,,,,,,,,,,,,,,,,25CYHR,train_y,red_square,top_left,2025-02-12_14h30.27.508,HideSeek_v1,2022.2.5,59.93435991947311,
,0,7,0,4,0,-3,13,,train_dim1_1,22,30,,,,2,0,2,0,,,,,,,,,0,0,0,0,0,21,21,21,6,0,6,0,,,,,,,,,,,,,,,,,,,,,,,,,,,,,,,,,,,,,,,,,,,,,,,,,,,,,,,,,,,,,,,,30,,,,,,,,2253.7304680000525,2253.7304680000525,2253.7304680000525,2253.7304680000525,2253.7304680000525,return,0.2417193001601845,6,0,0,0,0.15999999999999998,0.16,return,0.15492299990728498,-32,30,0.15999999999999998,0.16,,,,,,,,,,,,,,,,,,,,,,,,,,,,,,,,,,,,,,,,,,,,,,,,,,,,,,,,25CYHR,train_y,red_square,top_left,2025-02-12_14h30.27.508,HideSeek_v1,2022.2.5,59.93435991947311,
,0,8,0,3,0,-5,11,,train_dim1_1,23,30,,,,2,0,2,0,,,,,,,,,0,0,0,0,0,22,22,22,0,0,0,0,,,,,,,,,,,,,,,,,,,,,,,,,stimuli/alien_stimuli/11.png,,,,,,,,,,,,,,,,,,,,,,,,,,,,,stimuli/alien_stimuli/13.png,13,0,24,,,,,,,30,,,,,,,,2258.8058745998424,2258.8058745998424,2258.8058745998424,2258.8058745998424,2258.8058745998424,down,2.2054677000269294,6,0,0,99,-0.16,0.15999999999999998,down,2.1133556000422686,,,,,2257.2479303998407,2258.8058745998424,-0.16,-0.08,0.24,0.0,0.04,-0.16,-0.16,-0.16,-0.08,2255.5283931999,2255.5283931999,2255.5283931999,2255.5283931999,2255.5283931999,2255.5283931999,2255.5283931999,2255.5283931999,2255.513005080074,1.8205240000970662,return,1.6935626999475062,,,,,,,,,,,,,,,,,,,,,,,,,,,,,,,,,25CYHR,train_y,red_square,top_left,2025-02-12_14h30.27.508,HideSeek_v1,2022.2.5,59.93435991947311,
,0,8,0,3,0,-5,11,,train_dim1_1,23,30,,,,2,0,2,0,,,,,,,,,0,0,0,0,0,22,22,22,1,0,1,0,,,,,,,,,,,,,,,,,,,,,,,,,,,,,,,,,,,,,,,,,,,,,,,,,,,,,,,,,,,,,,,,30,,,,,,,,2261.0198746998794,2261.0198746998794,2261.0198746998794,2261.0198746998794,2261.0198746998794,down,0.7928532999940217,6,0,0,99,-0.16,0.07999999999999997,down,0.7099093000870198,,,,,,,,,,,,,,,,,,,,,,,,,,,,,,,,,,,,,,,,,,,,,,,,,,,,,,,,,,,,25CYHR,train_y,red_square,top_left,2025-02-12_14h30.27.508,HideSeek_v1,2022.2.5,59.93435991947311,
,0,8,0,3,0,-5,11,,train_dim1_1,23,30,,,,2,0,2,0,,,,,,,,,0,0,0,0,0,22,22,22,2,0,2,0,,,,,,,,,,,,,,,,,,,,,,,,,,,,,,,,,,,,,,,,,,,,,,,,,,,,,,,,,,,,,,,,30,,,,,,,,2261.8192745998967,2261.8192745998967,2261.8192745998967,2261.8192745998967,2261.8192745998967,down,1.5939382000360638,6,0,0,99,-0.16,-2.7755575615628914e-17,down,1.5162080000154674,,,,,,,,,,,,,,,,,,,,,,,,,,,,,,,,,,,,,,,,,,,,,,,,,,,,,,,,,,,,25CYHR,train_y,red_square,top_left,2025-02-12_14h30.27.508,HideSeek_v1,2022.2.5,59.93435991947311,
,0,8,0,3,0,-5,11,,train_dim1_1,23,30,,,,2,0,2,0,,,,,,,,,0,0,0,0,0,22,22,22,3,0,3,0,,,,,,,,,,,,,,,,,,,,,,,,,,,,,,,,,,,,,,,,,,,,,,,,,,,,,,,,,,,,,,,,30,,,,,,,,2263.420855500037,2263.420855500037,2263.420855500037,2263.420855500037,2263.420855500037,right,0.37696810020133853,6,0,0,99,-0.08,-2.7755575615628914e-17,right,0.29479479999281466,,,,,,,,,,,,,,,,,,,,,,,,,,,,,,,,,,,,,,,,,,,,,,,,,,,,,,,,,,,,25CYHR,train_y,red_square,top_left,2025-02-12_14h30.27.508,HideSeek_v1,2022.2.5,59.93435991947311,
,0,8,0,3,0,-5,11,,train_dim1_1,23,30,,,,2,0,2,0,,,,,,,,,0,0,0,0,0,22,22,22,4,0,4,0,,,,,,,,,,,,,,,,,,,,,,,,,,,,,,,,,,,,,,,,,,,,,,,,,,,,,,,,,,,,,,,,30,,,,,,,,2263.8045198000036,2263.8045198000036,2263.8045198000036,2263.8045198000036,2263.8045198000036,left,0.7765289000235498,6,0,0,99,-0.16,-2.7755575615628914e-17,left,0.6843442998360842,,,,,,,,,,,,,,,,,,,,,,,,,,,,,,,,,,,,,,,,,,,,,,,,,,,,,,,,,,,,25CYHR,train_y,red_square,top_left,2025-02-12_14h30.27.508,HideSeek_v1,2022.2.5,59.93435991947311,
,0,8,0,3,0,-5,11,,train_dim1_1,23,30,,,,2,0,2,0,,,,,,,,,0,0,0,0,0,22,22,22,5,0,5,0,,,,,,,,,,,,,,,,,,,,,,,,,,,,,,,,,,,,,,,,,,,,,,,,,,,,,,,,,,,,,,,,30,,,,,,,,2264.5880640000105,2264.5880640000105,2264.5880640000105,2264.5880640000105,2264.5880640000105,return,0.7935032001696527,6,0,0,0,-0.16,-2.7755575615628914e-17,return,0.716677299933508,-35,30,-0.16,-2.7755575615628914e-17,,,,,,,,,,,,,,,,,,,,,,,,,,,,,,,,,,,,,,,,,,,,,,,,,,,,,,,,25CYHR,train_y,red_square,top_left,2025-02-12_14h30.27.508,HideSeek_v1,2022.2.5,59.93435991947311,
,3,7,3,7,0,0,16,,train_dim1_1,24,30,,,,2,0,2,0,,,,,,,,,0,0,0,0,0,23,23,23,0,0,0,0,,,,,,,,,,,,,,,,,,,,,,,,,stimuli/alien_stimuli/16.png,,,,,,,,,,,,,,,,,,,,,,,,,,,,,stimuli/alien_stimuli/11.png,11,0,25,,,,,,,30,,,,,,,,2271.3168980998453,2271.3168980998453,2271.3168980998453,2271.3168980998453,2271.3168980998453,return,1.7882918999530375,7,0,0,1,0.08,0.16,return,1.7037005999591202,-35,30,0.08,0.16,2269.7580802999437,2271.3168980998453,-0.16,-0.16,0.4,0.0,0.039999999999999994,-0.16,-0.16,-0.16,-0.16,2266.954270699993,2266.954270699993,2266.954270699993,2266.954270699993,2266.954270699993,2266.954270699993,2266.954270699993,2266.954270699993,2266.939341409993,2.921226599952206,return,2.7754408000037074,,,,,,,,,,,,,,,,,,,,,,,,,,,,,,,,,25CYHR,train_y,red_square,top_left,2025-02-12_14h30.27.508,HideSeek_v1,2022.2.5,59.93435991947311,
,3,8,3,4,0,-4,12,,train_dim1_1,25,30,,,,2,0,2,0,,,,,,,,,0,0,0,0,0,24,24,24,0,0,0,0,,,,,,,,,,,,,,,,,,,,,,,,,stimuli/alien_stimuli/12.png,,,,,,,,,,,,,,,,,,,,,,,,,,,,,stimuli/alien_stimuli/16.png,16,3,26,,,,,,,30,,,,,,,,2281.8597109999973,2281.8597109999973,2281.8597109999973,2281.8597109999973,2281.8597109999973,down,1.237689800094813,7,0,0,99,0.08,0.15999999999999998,down,1.1455300999805331,,,,,2280.3004361998755,2281.8597109999973,0.08,0.16,0.0,0.0,0.16,0.08,0.08,0.08,0.16,2274.66330939997,2274.66330939997,2274.66330939997,2274.66330939997,2274.66330939997,2274.66330939997,2274.66330939997,2274.66330939997,2274.6622812099986,5.740086300065741,return,5.6085654001217335,,,,,,,,,,,,,,,,,,,,,,,,,,,,,,,,,25CYHR,train_y,red_square,top_left,2025-02-12_14h30.27.508,HideSeek_v1,2022.2.5,59.93435991947311,
,3,8,3,4,0,-4,12,,train_dim1_1,25,30,,,,2,0,2,0,,,,,,,,,0,0,0,0,0,24,24,24,1,0,1,0,,,,,,,,,,,,,,,,,,,,,,,,,,,,,,,,,,,,,,,,,,,,,,,,,,,,,,,,,,,,,,,,30,,,,,,,,2283.1048695000354,2283.1048695000354,2283.1048695000354,2283.1048695000354,2283.1048695000354,down,0.17586059984751046,7,0,0,99,0.08,0.07999999999999997,down,0.09813479986041784,,,,,,,,,,,,,,,,,,,,,,,,,,,,,,,,,,,,,,,,,,,,,,,,,,,,,,,,,,,,25CYHR,train_y,red_square,top_left,2025-02-12_14h30.27.508,HideSeek_v1,2022.2.5,59.93435991947311,
,3,8,3,4,0,-4,12,,train_dim1_1,25,30,,,,2,0,2,0,,,,,,,,,0,0,0,0,0,24,24,24,2,0,2,0,,,,,,,,,,,,,,,,,,,,,,,,,,,,,,,,,,,,,,,,,,,,,,,,,,,,,,,,,,,,,,,,30,,,,,,,,2283.2876909999177,2283.2876909999177,2283.2876909999177,2283.2876909999177,2283.2876909999177,right,1.6440246000420302,7,0,0,99,0.16,0.07999999999999997,right,1.559142000041902,,,,,,,,,,,,,,,,,,,,,,,,,,,,,,,,,,,,,,,,,,,,,,,,,,,,,,,,,,,,25CYHR,train_y,red_square,top_left,2025-02-12_14h30.27.508,HideSeek_v1,2022.2.5,59.93435991947311,
,3,8,3,4,0,-4,12,,train_dim1_1,25,30,,,,2,0,2,0,,,,,,,,,0,0,0,0,0,24,24,24,3,0,3,0,,,,,,,,,,,,,,,,,,,,,,,,,,,,,,,,,,,,,,,,,,,,,,,,,,,,,,,,,,,,,,,,30,,,,,,,,2284.9386032999028,2284.9386032999028,2284.9386032999028,2284.9386032999028,2284.9386032999028,right,0.15990790002979338,7,0,0,99,0.24,0.07999999999999997,right,0.07874579983763397,,,,,,,,,,,,,,,,,,,,,,,,,,,,,,,,,,,,,,,,,,,,,,,,,,,,,,,,,,,,25CYHR,train_y,red_square,top_left,2025-02-12_14h30.27.508,HideSeek_v1,2022.2.5,59.93435991947311,
,3,8,3,4,0,-4,12,,train_dim1_1,25,30,,,,2,0,2,0,,,,,,,,,0,0,0,0,0,24,24,24,4,0,4,0,,,,,,,,,,,,,,,,,,,,,,,,,,,,,,,,,,,,,,,,,,,,,,,,,,,,,,,,,,,,,,,,30,,,,,,,,2285.106371899834,2285.106371899834,2285.106371899834,2285.106371899834,2285.106371899834,right,0.17574300011619925,7,0,0,99,0.32,0.07999999999999997,right,0.090204699896276,,,,,,,,,,,,,,,,,,,,,,,,,,,,,,,,,,,,,,,,,,,,,,,,,,,,,,,,,,,,25CYHR,train_y,red_square,top_left,2025-02-12_14h30.27.508,HideSeek_v1,2022.2.5,59.93435991947311,
,3,8,3,4,0,-4,12,,train_dim1_1,25,30,,,,2,0,2,0,,,,,,,,,0,0,0,0,0,24,24,24,5,0,5,0,,,,,,,,,,,,,,,,,,,,,,,,,,,,,,,,,,,,,,,,,,,,,,,,,,,,,,,,,,,,,,,,30,,,,,,,,2285.290316700004,2285.290316700004,2285.290316700004,2285.290316700004,2285.290316700004,right,0.9600140999536961,7,0,0,99,0.4,0.07999999999999997,right,0.8660069000907242,,,,,,,,,,,,,,,,,,,,,,,,,,,,,,,,,,,,,,,,,,,,,,,,,,,,,,,,,,,,25CYHR,train_y,red_square,top_left,2025-02-12_14h30.27.508,HideSeek_v1,2022.2.5,59.93435991947311,
,3,8,3,4,0,-4,12,,train_dim1_1,25,30,,,,2,0,2,0,,,,,,,,,0,0,0,0,0,24,24,24,6,0,6,0,,,,,,,,,,,,,,,,,,,,,,,,,,,,,,,,,,,,,,,,,,,,,,,,,,,,,,,,,,,,,,,,30,,,,,,,,2286.2568763999734,2286.2568763999734,2286.2568763999734,2286.2568763999734,2286.2568763999734,up,0.8768523000180721,7,0,0,99,0.4,0.15999999999999998,up,0.7989495999645442,,,,,,,,,,,,,,,,,,,,,,,,,,,,,,,,,,,,,,,,,,,,,,,,,,,,,,,,,,,,25CYHR,train_y,red_square,top_left,2025-02-12_14h30.27.508,HideSeek_v1,2022.2.5,59.93435991947311,
,3,8,3,4,0,-4,12,,train_dim1_1,25,30,,,,2,0,2,0,,,,,,,,,0,0,0,0,0,24,24,24,7,0,7,0,,,,,,,,,,,,,,,,,,,,,,,,,,,,,,,,,,,,,,,,,,,,,,,,,,,,,,,,,,,,,,,,30,,,,,,,,2287.140096700052,2287.140096700052,2287.140096700052,2287.140096700052,2287.140096700052,left,0.4597241999581456,7,0,0,99,0.32,0.15999999999999998,left,0.36881269980221987,,,,,,,,,,,,,,,,,,,,,,,,,,,,,,,,,,,,,,,,,,,,,,,,,,,,,,,,,,,,25CYHR,train_y,red_square,top_left,2025-02-12_14h30.27.508,HideSeek_v1,2022.2.5,59.93435991947311,
,3,8,3,4,0,-4,12,,train_dim1_1,25,30,,,,2,0,2,0,,,,,,,,,0,0,0,0,0,24,24,24,8,0,8,0,,,,,,,,,,,,,,,,,,,,,,,,,,,,,,,,,,,,,,,,,,,,,,,,,,,,,,,,,,,,,,,,30,,,,,,,,2287.6084561999887,2287.6084561999887,2287.6084561999887,2287.6084561999887,2287.6084561999887,up,0.6599281998351216,7,0,0,99,0.32,0.24,up,0.5766616999171674,,,,,,,,,,,,,,,,,,,,,,,,,,,,,,,,,,,,,,,,,,,,,,,,,,,,,,,,,,,,25CYHR,train_y,red_square,top_left,2025-02-12_14h30.27.508,HideSeek_v1,2022.2.5,59.93435991947311,
,3,8,3,4,0,-4,12,,train_dim1_1,25,30,,,,2,0,2,0,,,,,,,,,0,0,0,0,0,24,24,24,9,0,9,0,,,,,,,,,,,,,,,,,,,,,,,,,,,,,,,,,,,,,,,,,,,,,,,,,,,,,,,,,,,,,,,,30,,,,,,,,2288.277137099998,2288.277137099998,2288.277137099998,2288.277137099998,2288.277137099998,return,0.7766697001643479,7,0,0,0,0.32,0.24,return,0.6944248999934644,-35,33,0.32,0.24,,,,,,,,,,,,,,,,,,,,,,,,,,,,,,,,,,,,,,,,,,,,,,,,,,,,,,,,25CYHR,train_y,red_square,top_left,2025-02-12_14h30.27.508,HideSeek_v1,2022.2.5,59.93435991947311,
,4,9,4,6,0,-3,13,,train_dim1_1,26,30,,,,2,0,2,0,,,,,,,,,0,0,0,0,0,25,25,25,0,0,0,0,,,,,,,,,,,,,,,,,,,,,,,,,stimuli/alien_stimuli/13.png,,,,,,,,,,,,,,,,,,,,,,,,,,,,,stimuli/alien_stimuli/12.png,12,3,27,,,,,,,30,,,,,,,,2293.681472999975,2293.681472999975,2293.681472999975,2293.681472999975,2293.681472999975,down,1.207307399949059,7,0,0,99,0.16,0.24,down,1.1267484999261796,,,,,2292.126852599904,2293.681472999975,0.08,-0.08,0.32,0.0,0.07999999999999999,0.08,0.08,0.08,-0.08,2290.6291960000526,2290.6291960000526,2290.6291960000526,2290.6291960000526,2290.6291960000526,2290.6291960000526,2290.6291960000526,2290.6291960000526,2290.625443039881,1.620381799992174,return,1.471441299887374,,,,,,,,,,,,,,,,,,,,,,,,,,,,,,,,,25CYHR,train_y,red_square,top_left,2025-02-12_14h30.27.508,HideSeek_v1,2022.2.5,59.93435991947311,
,4,9,4,6,0,-3,13,,train_dim1_1,26,30,,,,2,0,2,0,,,,,,,,,0,0,0,0,0,25,25,25,1,0,1,0,,,,,,,,,,,,,,,,,,,,,,,,,,,,,,,,,,,,,,,,,,,,,,,,,,,,,,,,,,,,,,,,30,,,,,,,,2294.8966520999093,2294.8966520999093,2294.8966520999093,2294.8966520999093,2294.8966520999093,down,0.1758280999492854,7,0,0,99,0.16,0.15999999999999998,down,0.09234079997986555,,,,,,,,,,,,,,,,,,,,,,,,,,,,,,,,,,,,,,,,,,,,,,,,,,,,,,,,,,,,25CYHR,train_y,red_square,top_left,2025-02-12_14h30.27.508,HideSeek_v1,2022.2.5,59.93435991947311,
,4,9,4,6,0,-3,13,,train_dim1_1,26,30,,,,2,0,2,0,,,,,,,,,0,0,0,0,0,25,25,25,2,0,2,0,,,,,,,,,,,,,,,,,,,,,,,,,,,,,,,,,,,,,,,,,,,,,,,,,,,,,,,,,,,,,,,,30,,,,,,,,2295.0792616999242,2295.0792616999242,2295.0792616999242,2295.0792616999242,2295.0792616999242,down,0.1431456001009792,7,0,0,99,0.16,0.07999999999999997,down,0.0534769999794662,,,,,,,,,,,,,,,,,,,,,,,,,,,,,,,,,,,,,,,,,,,,,,,,,,,,,,,,,,,,25CYHR,train_y,red_square,top_left,2025-02-12_14h30.27.508,HideSeek_v1,2022.2.5,59.93435991947311,
,4,9,4,6,0,-3,13,,train_dim1_1,26,30,,,,2,0,2,0,,,,,,,,,0,0,0,0,0,25,25,25,3,0,3,0,,,,,,,,,,,,,,,,,,,,,,,,,,,,,,,,,,,,,,,,,,,,,,,,,,,,,,,,,,,,,,,,30,,,,,,,,2295.2301584999077,2295.2301584999077,2295.2301584999077,2295.2301584999077,2295.2301584999077,down,0.5266225000377744,7,0,0,99,0.16,-2.7755575615628914e-17,down,0.4503687000833452,,,,,,,,,,,,,,,,,,,,,,,,,,,,,,,,,,,,,,,,,,,,,,,,,,,,,,,,,,,,25CYHR,train_y,red_square,top_left,2025-02-12_14h30.27.508,HideSeek_v1,2022.2.5,59.93435991947311,
,4,9,4,6,0,-3,13,,train_dim1_1,26,30,,,,2,0,2,0,,,,,,,,,0,0,0,0,0,25,25,25,4,0,4,0,,,,,,,,,,,,,,,,,,,,,,,,,,,,,,,,,,,,,,,,,,,,,,,,,,,,,,,,,,,,,,,,30,,,,,,,,2295.7623338999692,2295.7623338999692,2295.7623338999692,2295.7623338999692,2295.7623338999692,return,0.543016100069508,7,1,0,0,0.16,-2.7755575615628914e-17,return,0.4619189999066293,-39,33,0.16,-2.7755575615628914e-17,,,,,,,,,,,,,,,,,,,,,,,,,,,,,,,,,,,,,,,,,,,,,,,,,,,,,,,,25CYHR,train_y,red_square,top_left,2025-02-12_14h30.27.508,HideSeek_v1,2022.2.5,59.93435991947311,
,3,9,3,9,0,0,16,,train_dim1_1,27,30,,,,2,0,2,0,,,,,,,,,0,0,0,0,0,26,26,26,0,0,0,0,,,,,,,,,,,,,,,,,,,,,,,,,stimuli/alien_stimuli/16.png,,,,,,,,,,,,,,,,,,,,,,,,,,,,,stimuli/alien_stimuli/13.png,13,4,28,,,,,,,30,,,,,,,,2300.4002387998626,2300.4002387998626,2300.4002387998626,2300.4002387998626,2300.4002387998626,return,1.2284329000394791,8,0,0,1,0.08,0.32,return,1.140059500001371,-39,33,0.08,0.32,2298.8322780998424,2300.4002387998626,0.16,0.08,0.24,0.0,0.2,0.16,0.16,0.16,0.08,2297.8850084999576,2297.8850084999576,2297.8850084999576,2297.8850084999576,2297.8850084999576,2297.8850084999576,2297.8850084999576,2297.8850084999576,2297.881589339999,1.0693859001621604,return,0.9220916000194848,,,,,,,,,,,,,,,,,,,,,,,,,,,,,,,,,25CYHR,train_y,red_square,top_left,2025-02-12_14h30.27.508,HideSeek_v1,2022.2.5,59.93435991947311,
,4,6,4,1,0,-5,11,,train_dim1_1,28,30,,,,2,0,2,0,,,,,,,,,0,0,0,0,0,27,27,27,0,0,0,0,,,,,,,,,,,,,,,,,,,,,,,,,stimuli/alien_stimuli/11.png,,,,,,,,,,,,,,,,,,,,,,,,,,,,,stimuli/alien_stimuli/16.png,16,3,29,,,,,,,30,,,,,,,,2306.4501298000105,2306.4501298000105,2306.4501298000105,2306.4501298000105,2306.4501298000105,right,1.8685639000032097,8,0,0,99,0.24,0.08,right,1.7876145998016,,,,,2304.88738989993,2306.4501298000105,0.08,0.32,0.0,0.0,0.32,0.08,0.08,0.08,0.32,2303.1861169999465,2303.1861169999465,2303.1861169999465,2303.1861169999465,2303.1861169999465,2303.1861169999465,2303.1861169999465,2303.1861169999465,2303.1860107098937,1.8034070001449436,return,1.6688964001368731,,,,,,,,,,,,,,,,,,,,,,,,,,,,,,,,,25CYHR,train_y,red_square,top_left,2025-02-12_14h30.27.508,HideSeek_v1,2022.2.5,59.93435991947311,
,4,6,4,1,0,-5,11,,train_dim1_1,28,30,,,,2,0,2,0,,,,,,,,,0,0,0,0,0,27,27,27,1,0,1,0,,,,,,,,,,,,,,,,,,,,,,,,,,,,,,,,,,,,,,,,,,,,,,,,,,,,,,,,,,,,,,,,30,,,,,,,,2308.325654400047,2308.325654400047,2308.325654400047,2308.325654400047,2308.325654400047,right,0.4254985998850316,8,0,0,99,0.32,0.08,right,0.3483498999848962,,,,,,,,,,,,,,,,,,,,,,,,,,,,,,,,,,,,,,,,,,,,,,,,,,,,,,,,,,,,25CYHR,train_y,red_square,top_left,2025-02-12_14h30.27.508,HideSeek_v1,2022.2.5,59.93435991947311,
,4,6,4,1,0,-5,11,,train_dim1_1,28,30,,,,2,0,2,0,,,,,,,,,0,0,0,0,0,27,27,27,2,0,2,0,,,,,,,,,,,,,,,,,,,,,,,,,,,,,,,,,,,,,,,,,,,,,,,,,,,,,,,,,,,,,,,,30,,,,,,,,2308.7583379000425,2308.7583379000425,2308.7583379000425,2308.7583379000425,2308.7583379000425,right,0.4266959000378847,8,0,0,99,0.4,0.08,right,0.33671169984154403,,,,,,,,,,,,,,,,,,,,,,,,,,,,,,,,,,,,,,,,,,,,,,,,,,,,,,,,,,,,25CYHR,train_y,red_square,top_left,2025-02-12_14h30.27.508,HideSeek_v1,2022.2.5,59.93435991947311,
,4,6,4,1,0,-5,11,,train_dim1_1,28,30,,,,2,0,2,0,,,,,,,,,0,0,0,0,0,27,27,27,3,0,3,0,,,,,,,,,,,,,,,,,,,,,,,,,,,,,,,,,,,,,,,,,,,,,,,,,,,,,,,,,,,,,,,,30,,,,,,,,2309.1920847999863,2309.1920847999863,2309.1920847999863,2309.1920847999863,2309.1920847999863,right,0.3428283999674022,8,0,0,99,0.48000000000000004,0.08,right,0.26071009994484484,,,,,,,,,,,,,,,,,,,,,,,,,,,,,,,,,,,,,,,,,,,,,,,,,,,,,,,,,,,,25CYHR,train_y,red_square,top_left,2025-02-12_14h30.27.508,HideSeek_v1,2022.2.5,59.93435991947311,
,4,6,4,1,0,-5,11,,train_dim1_1,28,30,,,,2,0,2,0,,,,,,,,,0,0,0,0,0,27,27,27,4,0,4,0,,,,,,,,,,,,,,,,,,,,,,,,,,,,,,,,,,,,,,,,,,,,,,,,,,,,,,,,,,,,,,,,30,,,,,,,,2309.543105199933,2309.543105199933,2309.543105199933,2309.543105199933,2309.543105199933,right,0.2764089999254793,8,0,0,99,0.56,0.08,right,0.19122350006364286,,,,,,,,,,,,,,,,,,,,,,,,,,,,,,,,,,,,,,,,,,,,,,,,,,,,,,,,,,,,25CYHR,train_y,red_square,top_left,2025-02-12_14h30.27.508,HideSeek_v1,2022.2.5,59.93435991947311,
,4,6,4,1,0,-5,11,,train_dim1_1,28,30,,,,2,0,2,0,,,,,,,,,0,0,0,0,0,27,27,27,5,0,5,0,,,,,,,,,,,,,,,,,,,,,,,,,,,,,,,,,,,,,,,,,,,,,,,,,,,,,,,,,,,,,,,,30,,,,,,,,2309.825743299909,2309.825743299909,2309.825743299909,2309.825743299909,2309.825743299909,return,0.22628539986908436,8,0,0,0,0.56,0.08,return,0.14238250022754073,-39,38,0.56,0.08,,,,,,,,,,,,,,,,,,,,,,,,,,,,,,,,,,,,,,,,,,,,,,,,,,,,,,,,25CYHR,train_y,red_square,top_left,2025-02-12_14h30.27.508,HideSeek_v1,2022.2.5,59.93435991947311,
,2,7,2,3,0,-4,12,,train_dim1_1,29,30,,,,2,0,2,0,,,,,,,,,0,0,0,0,0,28,28,28,0,0,0,0,,,,,,,,,,,,,,,,,,,,,,,,,stimuli/alien_stimuli/12.png,,,,,,,,,,,,,,,,,,,,,,,,,,,,,stimuli/alien_stimuli/11.png,11,4,30,,,,,,,30,,,,,,,,2314.420767799951,2314.420767799951,2314.420767799951,2314.420767799951,2314.420767799951,right,3.721497000195086,8,0,0,99,0.08,0.16,right,3.636253000004217,,,,,2312.8612063999753,2314.420767799951,0.16,-0.32,0.4,0.0,-0.12,0.16,0.16,0.16,-0.32,2311.61377369985,2311.61377369985,2311.61377369985,2311.61377369985,2311.61377369985,2311.61377369985,2311.61377369985,2311.61377369985,2311.6098547099855,1.3549742999020964,return,1.2301301998086274,,,,,,,,,,,,,,,,,,,,,,,,,,,,,,,,,25CYHR,train_y,red_square,top_left,2025-02-12_14h30.27.508,HideSeek_v1,2022.2.5,59.93435991947311,
,2,7,2,3,0,-4,12,,train_dim1_1,29,30,,,,2,0,2,0,,,,,,,,,0,0,0,0,0,28,28,28,1,0,1,0,,,,,,,,,,,,,,,,,,,,,,,,,,,,,,,,,,,,,,,,,,,,,,,,,,,,,,,,,,,,,,,,30,,,,,,,,2318.1499520998914,2318.1499520998914,2318.1499520998914,2318.1499520998914,2318.1499520998914,right,0.2092588001396507,8,0,0,99,0.16,0.16,right,0.12969109998084605,,,,,,,,,,,,,,,,,,,,,,,,,,,,,,,,,,,,,,,,,,,,,,,,,,,,,,,,,,,,25CYHR,train_y,red_square,top_left,2025-02-12_14h30.27.508,HideSeek_v1,2022.2.5,59.93435991947311,
,2,7,2,3,0,-4,12,,train_dim1_1,29,30,,,,2,0,2,0,,,,,,,,,0,0,0,0,0,28,28,28,2,0,2,0,,,,,,,,,,,,,,,,,,,,,,,,,,,,,,,,,,,,,,,,,,,,,,,,,,,,,,,,,,,,,,,,30,,,,,,,,2318.3661336000077,2318.3661336000077,2318.3661336000077,2318.3661336000077,2318.3661336000077,right,0.19282569992356002,8,0,0,99,0.24,0.16,right,0.11561360000632703,,,,,,,,,,,,,,,,,,,,,,,,,,,,,,,,,,,,,,,,,,,,,,,,,,,,,,,,,,,,25CYHR,train_y,red_square,top_left,2025-02-12_14h30.27.508,HideSeek_v1,2022.2.5,59.93435991947311,
,2,7,2,3,0,-4,12,,train_dim1_1,29,30,,,,2,0,2,0,,,,,,,,,0,0,0,0,0,28,28,28,3,0,3,0,,,,,,,,,,,,,,,,,,,,,,,,,,,,,,,,,,,,,,,,,,,,,,,,,,,,,,,,,,,,,,,,30,,,,,,,,2318.5664651000407,2318.5664651000407,2318.5664651000407,2318.5664651000407,2318.5664651000407,right,0.22635540016926825,8,0,0,99,0.32,0.16,right,0.14466849993914366,,,,,,,,,,,,,,,,,,,,,,,,,,,,,,,,,,,,,,,,,,,,,,,,,,,,,,,,,,,,25CYHR,train_y,red_square,top_left,2025-02-12_14h30.27.508,HideSeek_v1,2022.2.5,59.93435991947311,
,2,7,2,3,0,-4,12,,train_dim1_1,29,30,,,,2,0,2,0,,,,,,,,,0,0,0,0,0,28,28,28,4,0,4,0,,,,,,,,,,,,,,,,,,,,,,,,,,,,,,,,,,,,,,,,,,,,,,,,,,,,,,,,,,,,,,,,30,,,,,,,,2318.7995800999925,2318.7995800999925,2318.7995800999925,2318.7995800999925,2318.7995800999925,right,0.17665470018982887,8,0,0,99,0.4,0.16,right,0.09442570013925433,,,,,,,,,,,,,,,,,,,,,,,,,,,,,,,,,,,,,,,,,,,,,,,,,,,,,,,,,,,,25CYHR,train_y,red_square,top_left,2025-02-12_14h30.27.508,HideSeek_v1,2022.2.5,59.93435991947311,
,2,7,2,3,0,-4,12,,train_dim1_1,29,30,,,,2,0,2,0,,,,,,,,,0,0,0,0,0,28,28,28,5,0,5,0,,,,,,,,,,,,,,,,,,,,,,,,,,,,,,,,,,,,,,,,,,,,,,,,,,,,,,,,,,,,,,,,30,,,,,,,,2318.983353700023,2318.983353700023,2318.983353700023,2318.983353700023,2318.983353700023,return,0.4432031000033021,8,0,0,0,0.4,0.16,return,0.36454310012049973,-39,43,0.4,0.16,,,,,,,,,,,,,,,,,,,,,,,,,,,,,,,,,,,,,,,,,,,,,,,,,,,,,,,,25CYHR,train_y,red_square,top_left,2025-02-12_14h30.27.508,HideSeek_v1,2022.2.5,59.93435991947311,
