trialInstr,x_fixStart,y_fixStart,x_corrSteps,y_corrSteps,x_nrSteps,y_nrSteps,alienID,trialLength,version,trialTrain,praclen,testlen,trial_label,break_on_off,beforeExpLoop.thisRepN,beforeExpLoop.thisTrialN,beforeExpLoop.thisN,beforeExpLoop.thisIndex,mini_instr_trials.thisRepN,mini_instr_trials.thisTrialN,mini_instr_trials.thisN,mini_instr_trials.thisIndex,instrLoop.thisRepN,instrLoop.thisTrialN,instrLoop.thisN,instrLoop.thisIndex,repeat_prac.thisRepN,repeat_prac.thisTrialN,repeat_prac.thisN,repeat_prac.thisIndex,trainLoop.thisRepN,trainLoop.thisTrialN,trainLoop.thisN,trainLoop.thisIndex,moveLoop_train.thisRepN,moveLoop_train.thisTrialN,moveLoop_train.thisN,moveLoop_train.thisIndex,experiment.thisRepN,experiment.thisTrialN,experiment.thisN,experiment.thisIndex,moveLoop_test.thisRepN,moveLoop_test.thisTrialN,moveLoop_test.thisN,moveLoop_test.thisIndex,mini_instr2_trials.thisRepN,mini_instr2_trials.thisTrialN,mini_instr2_trials.thisN,mini_instr2_trials.thisIndex,start_all_time,url,slideStim,audioStim,slides.started,sounds.started,nextButton.numClicks,nextButton.timesOn,nextButton.timesOff,prev_but.numClicks,prev_but.timesOn,prev_but.timesOff,alienStim,instrFile,alienStim_instr,gridImage_instr.started,startPos_3.started,key_instr.started,alienImage_3.started,sounds_1.started,key_instr.keys,key_instr.rt,all_x,all_y,FBy_corrSteps,FBy_fixStart,FBx_corrSteps,FBx_fixStart,FBy_pathSize_check,FBx_pathSize_check,gridImage_9.started,alienImageFB_3.started,startPosFB_3.started,keyFB_3.started,pathLine_ydir_2.started,pathLine_xdir_2.started,alienFace_3.started,sounds_2.started,RTFB_instr,keyFB_3.keys,keyFB_3.rt,draw_alienStim,draw_alienID,test_x,nrepcount,perfthres,percthres,earlierperf,earlystop,nextPrac,fileidx,praclen,saveACC_train,pracFile,nextPrac_train,addNrep,fileidx_endr,repExp,showearly,gridImage_4.started,startPos.started,movePos.started,key_resp.started,alienImage.started,buttonPress_train,RTchoice_train,cumAcctrain,aCorr,saveACC_choice,corrAns,x_movePos_end,y_movePos_end,key_resp.keys,key_resp.rt,wLy_dir,wLx_dir,x_movePos,y_movePos,text_2.started,text_2.stopped,aft_x_corrPos,aft_y_corrPos,y_pathSize_check,x_pathSize_check,y_pathdirY,x_pathdirY,x_pathdirX,x_corrPos,y_corrPos,gridImage_6.started,alienImageFB_2.started,startPosFB_2.started,movePosFB_2.started,keyFB_2.started,pathLine_xdir.started,pathLine_ydir.started,alienFace.started,sounds_4.started,RT_FBtrain,keyFB_2.keys,keyFB_2.rt,saveACC_pre,ACC,within_saveACC_train,earlystop_wloop,cumAcctrain_check,gridImage_3.started,alienImage_test.started,startPos_test.started,movePos_test.started,key_resp_test.started,wLy_dir_test,wLx_dir_test,buttonPress_test,RTchoice_test,cumAcctest,corrAns_test,key_resp_test.keys,key_resp_test.rt,text_3.started,text_3.stopped,total_time,end_all_time,key_resp_3.keys,slides_2.started,sounds_3.started,nextButton_2.numClicks,nextButton_2.timesOn,nextButton_2.timesOff,prev_but_2.numClicks,prev_but_2.timesOn,prev_but_2.timesOff,bye.started,participant,train_first,00_coordinate,starting corner,date,expName,psychopyVersion,frameRate,
,,,,,,,,,,,,,,,0,0,0,0,0,0,0,0,,,,,,,,,,,,,,,,,,,,,,,,,,,,,start_all_time,testround,conditions/schedules/train_y_first/blue_star_00/bottom_left/instructions/Slide1.png,conditions/schedules/train_y_first/blue_star_00/bottom_left/instructions/Audio1.wav,2146.060558000114,2146.007249994064,1,[7.5545187999960035],[7.5545328999869525],0,,,,,,,,,,,,,,,,,,,,,,,,,,,,,,,,,,,,,,,,,,,,,,,,,,,,,,,,,,,,,,,,,,,,,,,,,,,,,,,,,,,,,,,,,,,,,,,,,,,,,,,,,,,,,,,,,,,,,,,,,,,,2LPX8K,train_y,blue_star,bottom_left,2025-09-15_16h16.33.662,HideSeek_v1,2022.2.5,59.99426453257514,
,,,,,,,,,,,,,,,0,0,0,0,1,0,1,0,,,,,,,,,,,,,,,,,,,,,,,,,,,,,,,conditions/schedules/train_y_first/blue_star_00/bottom_left/instructions/Slide2.png,conditions/schedules/train_y_first/blue_star_00/bottom_left/instructions/Audio2.wav,2153.6338081001304,2153.631560250069,2,"[7.5545187999960035, 18.377544400049374]","[0.03088870015926659, 18.37755100009963]",0,,,,,,,,,,,,,,,,,,,,,,,,,,,,,,,,,,,,,,,,,,,,,,,,,,,,,,,,,,,,,,,,,,,,,,,,,,,,,,,,,,,,,,,,,,,,,,,,,,,,,,,,,,,,,,,,,,,,,,,,,,,,2LPX8K,train_y,blue_star,bottom_left,2025-09-15_16h16.33.662,HideSeek_v1,2022.2.5,59.99426453257514,
,,,,,,,,,,,,,,,0,0,0,0,2,0,2,0,,,,,,,,,,,,,,,,,,,,,,,,,,,,,,,conditions/schedules/train_y_first/blue_star_00/bottom_left/instructions/Slide3.png,conditions/schedules/train_y_first/blue_star_00/bottom_left/instructions/Audio3.wav,2172.0838216999546,2172.0800186499255,3,"[7.5545187999960035, 18.377544400049374, 16.6082483001519]","[0.03088870015926659, 0.014629400102421641, 16.60825529997237]",0,,,,,,,,,,,,,,,,,,,,,,,,,,,,,,,,,,,,,,,,,,,,,,,,,,,,,,,,,,,,,,,,,,,,,,,,,,,,,,,,,,,,,,,,,,,,,,,,,,,,,,,,,,,,,,,,,,,,,,,,,,,,2LPX8K,train_y,blue_star,bottom_left,2025-09-15_16h16.33.662,HideSeek_v1,2022.2.5,59.99426453257514,
,,,,,,,,,,,,,,,0,0,0,0,3,0,3,0,,,,,,,,,,,,,,,,,,,,,,,,,,,,,,,conditions/schedules/train_y_first/blue_star_00/bottom_left/instructions/Slide4.png,conditions/schedules/train_y_first/blue_star_00/bottom_left/instructions/Audio4.wav,2188.7677420000546,2188.760597650078,4,"[7.5545187999960035, 18.377544400049374, 16.6082483001519, 19.690456700045615]","[0.03088870015926659, 0.014629400102421641, 0.014301900053396821, 19.690463700098917]",0,,,,,,,,,,,,,,,,,,,,,,,,,,,,,,,,,,,,,,,,,,,,,,,,,,,,,,,,,,,,,,,,,,,,,,,,,,,,,,,,,,,,,,,,,,,,,,,,,,,,,,,,,,,,,,,,,,,,,,,,,,,,2LPX8K,train_y,blue_star,bottom_left,2025-09-15_16h16.33.662,HideSeek_v1,2022.2.5,59.99426453257514,
,,,,,,,,,,,,,,,0,0,0,0,4,0,4,0,,,,,,,,,,,,,,,,,,,,,,,,,,,,,,,conditions/schedules/train_y_first/blue_star_00/bottom_left/instructions/Slide5.png,conditions/schedules/train_y_first/blue_star_00/bottom_left/instructions/Audio5.wav,2208.527971799951,2208.5270356499823,5,"[7.5545187999960035, 18.377544400049374, 16.6082483001519, 19.690456700045615, 5.317902699811384]","[0.03088870015926659, 0.014629400102421641, 0.014301900053396821, 0.030819099862128496, 5.317910399986431]",0,,,,,,,,,,,,,,,,,,,,,,,,,,,,,,,,,,,,,,,,,,,,,,,,,,,,,,,,,,,,,,,,,,,,,,,,,,,,,,,,,,,,,,,,,,,,,,,,,,,,,,,,,,,,,,,,,,,,,,,,,,,,2LPX8K,train_y,blue_star,bottom_left,2025-09-15_16h16.33.662,HideSeek_v1,2022.2.5,59.99426453257514,
,,,,,,,,,,,,,,,0,0,0,0,5,0,5,0,,,,,,,,,,,,,,,,,,,,,,,,,,,,,,,conditions/schedules/train_y_first/blue_star_00/bottom_left/instructions/Slide6.png,conditions/schedules/train_y_first/blue_star_00/bottom_left/instructions/Audio6.wav,2213.897644000128,2213.8981519000604,6,"[7.5545187999960035, 18.377544400049374, 16.6082483001519, 19.690456700045615, 5.317902699811384, 5.486195300007239]","[0.03088870015926659, 0.014629400102421641, 0.014301900053396821, 0.030819099862128496, 0.048827100079506636, 5.486203100066632]",0,,,,,,,,,,,,,,,,,,,,,,,,,,,,,,,,,,,,,,,,,,,,,,,,,,,,,,,,,,,,,,,,,,,,,,,,,,,,,,,,,,,,,,,,,,,,,,,,,,,,,,,,,,,,,,,,,,,,,,,,,,,,2LPX8K,train_y,blue_star,bottom_left,2025-09-15_16h16.33.662,HideSeek_v1,2022.2.5,59.99426453257514,
,,,,,,,,,,,,,,,0,0,0,0,6,0,6,0,,,,,,,,,,,,,,,,,,,,,,,,,,,,,,,conditions/schedules/train_y_first/blue_star_00/bottom_left/instructions/Slide7.png,conditions/schedules/train_y_first/blue_star_00/bottom_left/instructions/Audio7.wav,2219.4503454000223,2219.452789550065,7,"[7.5545187999960035, 18.377544400049374, 16.6082483001519, 19.690456700045615, 5.317902699811384, 5.486195300007239, 6.48894719989039]","[0.03088870015926659, 0.014629400102421641, 0.014301900053396821, 0.030819099862128496, 0.048827100079506636, 0.06715419981628656, 6.488953699823469]",0,,,,,,,,,,,,,,,,,,,,,,,,,,,,,,,,,,,,,,,,,,,,,,,,,,,,,,,,,,,,,,,,,,,,,,,,,,,,,,,,,,,,,,,,,,,,,,,,,,,,,,,,,,,,,,,,,,,,,,,,,,,,2LPX8K,train_y,blue_star,bottom_left,2025-09-15_16h16.33.662,HideSeek_v1,2022.2.5,59.99426453257514,
,,,,,,,,,,,,,,,0,0,0,0,7,0,7,0,,,,,,,,,,,,,,,,,,,,,,,,,,,,,,,conditions/schedules/train_y_first/blue_star_00/bottom_left/instructions/Slide8.png,conditions/schedules/train_y_first/blue_star_00/bottom_left/instructions/Audio8.wav,2225.991954999976,2225.9915025999303,8,"[7.5545187999960035, 18.377544400049374, 16.6082483001519, 19.690456700045615, 5.317902699811384, 5.486195300007239, 6.48894719989039, 11.973408099962398]","[0.03088870015926659, 0.014629400102421641, 0.014301900053396821, 0.030819099862128496, 0.048827100079506636, 0.06715419981628656, 0.04754599998705089, 11.973414300009608]",0,,,,,,,,,,,,,,,,,,,,,,,,,,,,,,,,,,,,,,,,,,,,,,,,,,,,,,,,,,,,,,,,,,,,,,,,,,,,,,,,,,,,,,,,,,,,,,,,,,,,,,,,,,,,,,,,,,,,,,,,,,,,2LPX8K,train_y,blue_star,bottom_left,2025-09-15_16h16.33.662,HideSeek_v1,2022.2.5,59.99426453257514,
,,,,,,,,,,,,,,,0,0,0,0,8,0,8,0,,,,,,,,,,,,,,,,,,,,,,,,,,,,,,,conditions/schedules/train_y_first/blue_star_00/bottom_left/instructions/Slide9.png,conditions/schedules/train_y_first/blue_star_00/bottom_left/instructions/Audio9.wav,2238.0364994001575,2238.034654149902,9,"[7.5545187999960035, 18.377544400049374, 16.6082483001519, 19.690456700045615, 5.317902699811384, 5.486195300007239, 6.48894719989039, 11.973408099962398, 6.23438120004721]","[0.03088870015926659, 0.014629400102421641, 0.014301900053396821, 0.030819099862128496, 0.048827100079506636, 0.06715419981628656, 0.04754599998705089, 0.0629602000117302, 6.2343878000974655]",0,,,,,,,,,,,,,,,,,,,,,,,,,,,,,,,,,,,,,,,,,,,,,,,,,,,,,,,,,,,,,,,,,,,,,,,,,,,,,,,,,,,,,,,,,,,,,,,,,,,,,,,,,,,,,,,,,,,,,,,,,,,,2LPX8K,train_y,blue_star,bottom_left,2025-09-15_16h16.33.662,HideSeek_v1,2022.2.5,59.99426453257514,
,,,,,,,,,,,,,,,0,0,0,0,9,0,9,0,,,,,,,,,,,,,,,,,,,,,,,,,,,,,,,conditions/schedules/train_y_first/blue_star_00/bottom_left/instructions/Slide10.png,conditions/schedules/train_y_first/blue_star_00/bottom_left/instructions/Audio10.wav,2244.325362900039,2244.3233257000334,10,"[7.5545187999960035, 18.377544400049374, 16.6082483001519, 19.690456700045615, 5.317902699811384, 5.486195300007239, 6.48894719989039, 11.973408099962398, 6.23438120004721, 7.436908299801871]","[0.03088870015926659, 0.014629400102421641, 0.014301900053396821, 0.030819099862128496, 0.048827100079506636, 0.06715419981628656, 0.04754599998705089, 0.0629602000117302, 0.03044090000912547, 7.436917699873447]",0,,,,,,,,,,,,,,,,,,,,,,,,,,,,,,,,,,,,,,,,,,,,,,,,,,,,,,,,,,,,,,,,,,,,,,,,,,,,,,,,,,,,,,,,,,,,,,,,,,,,,,,,,,,,,,,,,,,,,,,,,,,,2LPX8K,train_y,blue_star,bottom_left,2025-09-15_16h16.33.662,HideSeek_v1,2022.2.5,59.99426453257514,
,,,,,,,,,,,,,,,0,0,0,0,10,0,10,0,,,,,,,,,,,,,,,,,,,,,,,,,,,,,,,conditions/schedules/train_y_first/blue_star_00/bottom_left/instructions/Slide11.png,conditions/schedules/train_y_first/blue_star_00/bottom_left/instructions/Audio11.wav,2251.801084900042,2251.7967927499444,11,"[7.5545187999960035, 18.377544400049374, 16.6082483001519, 19.690456700045615, 5.317902699811384, 5.486195300007239, 6.48894719989039, 11.973408099962398, 6.23438120004721, 7.436908299801871, 10.335484200157225]","[0.03088870015926659, 0.014629400102421641, 0.014301900053396821, 0.030819099862128496, 0.048827100079506636, 0.06715419981628656, 0.04754599998705089, 0.0629602000117302, 0.03044090000912547, 0.12942110002040863, 10.335490999976173]",0,,,,,,,,,,,,,,,,,,,,,,,,,,,,,,,,,,,,,,,,,,,,,,,,,,,,,,,,,,,,,,,,,,,,,,,,,,,,,,,,,,,,,,,,,,,,,,,,,,,,,,,,,,,,,,,,,,,,,,,,,,,,2LPX8K,train_y,blue_star,bottom_left,2025-09-15_16h16.33.662,HideSeek_v1,2022.2.5,59.99426453257514,
,,,,,,,,,,,,,,,0,0,0,0,11,0,11,0,,,,,,,,,,,,,,,,,,,,,,,,,,,,,,,conditions/schedules/train_y_first/blue_star_00/bottom_left/instructions/Slide12.png,conditions/schedules/train_y_first/blue_star_00/bottom_left/instructions/Audio12.wav,2262.2089603000786,2262.2053576499457,12,"[7.5545187999960035, 18.377544400049374, 16.6082483001519, 19.690456700045615, 5.317902699811384, 5.486195300007239, 6.48894719989039, 11.973408099962398, 6.23438120004721, 7.436908299801871, 10.335484200157225, 14.255313100060448]","[0.03088870015926659, 0.014629400102421641, 0.014301900053396821, 0.030819099862128496, 0.048827100079506636, 0.06715419981628656, 0.04754599998705089, 0.0629602000117302, 0.03044090000912547, 0.12942110002040863, 0.04746320005506277, 14.255319699877873]",0,,,,,,,,,,,,,,,,,,,,,,,,,,,,,,,,,,,,,,,,,,,,,,,,,,,,,,,,,,,,,,,,,,,,,,,,,,,,,,,,,,,,,,,,,,,,,,,,,,,,,,,,,,,,,,,,,,,,,,,,,,,,2LPX8K,train_y,blue_star,bottom_left,2025-09-15_16h16.33.662,HideSeek_v1,2022.2.5,59.99426453257514,
1,0,3,0,8,0,5,66,2,instr_dim1_1,,,,,,0,0,0,0,,,,,0,0,0,0,,,,,,,,,,,,,,,,,,,,,,,,,,,,,,,,,,,,,stimuli/alien_stimuli/66.png,conditions/schedules/train_y_first/blue_star_00/bottom_left/inputInstr_1.xlsx,stimuli/alien_stimuli/66.png,2276.554687200114,2276.554687200114,2276.554687200114,2276.554687200114,2276.5501336998773,return,10.137812400003895,"[-0.16, -0.08, 0, 0.08, 0.16, 0.24, 0.32, 0.4, 0.48, 0.56]","[-0.4, -0.32, -0.24, -0.16, -0.08, 0, 0.08, 0.16, 0.24, 0.32]",8,3,0,0,0.4,0.0,2286.8629436001647,2286.8629436001647,2286.8629436001647,2286.8629436001647,2286.8629436001647,2286.8629436001647,2286.8629436001647,2286.8586981499334,8.708130500046536,return,8.537232900038362,stimuli/alien_stimuli/66.png,66,0,1,,,,,,,,,,,,,,,,,,,,,,,,,,,,,,,,,,,,,,,,,,,,,,,,,,,,,,,,,,,,,,,,,,,,,,,,,,,,,,,,,,,,,,,,,2LPX8K,train_y,blue_star,bottom_left,2025-09-15_16h16.33.662,HideSeek_v1,2022.2.5,59.99426453257514,
,,,,,,,,,,,30,,,,0,0,0,0,,,,,,,,,,,,,,,,,,,,,,,,,,,,,,,,,,,,,,,,,,,,,,,,,,,,,,,,,,,,,,,,,,,,,,,,,,,,,,21,0.7,0,0,99,1,30,0,conditions/schedules/train_y_first/blue_star_00/bottom_left/inputTrain_1.1.xlsx,99,1,1,1,0,,,,,,,,,,,,,,,,,,,,,,,,,,,,,,,,,,,,,,,,,,,,,,,,,,,,,,,,,,,,,,,,,,,,,,,,,,,2LPX8K,train_y,blue_star,bottom_left,2025-09-15_16h16.33.662,HideSeek_v1,2022.2.5,59.99426453257514,
,,,,,,,,,,,,,,,1,0,1,0,0,0,0,0,,,,,,,,,,,,,,,,,,,,,,,,,,,,,,,conditions/schedules/train_y_first/blue_star_00/bottom_left/instructions/Slide13.png,conditions/schedules/train_y_first/blue_star_00/bottom_left/instructions/Audio13.wav,2295.588760799961,2295.582474099938,13,"[7.5545187999960035, 18.377544400049374, 16.6082483001519, 19.690456700045615, 5.317902699811384, 5.486195300007239, 6.48894719989039, 11.973408099962398, 6.23438120004721, 7.436908299801871, 10.335484200157225, 14.255313100060448, 17.672488200012594]","[0.03088870015926659, 0.014629400102421641, 0.014301900053396821, 0.030819099862128496, 0.048827100079506636, 0.06715419981628656, 0.04754599998705089, 0.0629602000117302, 0.03044090000912547, 0.12942110002040863, 0.04746320005506277, 14.255319699877873, 17.672495500184596]",0,,,,,,,,,,,,,,,,,,,,,,,,,,,,,,,,,,,,,,,,,,,,,,,,,,,,,,,,,,,,,,,,,,,,,,,,,,,,,,,,,,,,,,,,,,,,,,,,,,,,,,,,,,,,,,,,,,,,,,,,,,,,2LPX8K,train_y,blue_star,bottom_left,2025-09-15_16h16.33.662,HideSeek_v1,2022.2.5,59.99426453257514,
,,,,,,,,,,,,,,,1,0,1,0,1,0,1,0,,,,,,,,,,,,,,,,,,,,,,,,,,,,,,,conditions/schedules/train_y_first/blue_star_00/bottom_left/instructions/Slide14.png,conditions/schedules/train_y_first/blue_star_00/bottom_left/instructions/Audio14.wav,2313.3259894000366,2313.313968500029,14,"[7.5545187999960035, 18.377544400049374, 16.6082483001519, 19.690456700045615, 5.317902699811384, 5.486195300007239, 6.48894719989039, 11.973408099962398, 6.23438120004721, 7.436908299801871, 10.335484200157225, 14.255313100060448, 17.672488200012594, 17.16611750004813]","[0.03088870015926659, 0.014629400102421641, 0.014301900053396821, 0.030819099862128496, 0.048827100079506636, 0.06715419981628656, 0.04754599998705089, 0.0629602000117302, 0.03044090000912547, 0.12942110002040863, 0.04746320005506277, 14.255319699877873, 0.034902799874544144, 17.166124099865556]",0,,,,,,,,,,,,,,,,,,,,,,,,,,,,,,,,,,,,,,,,,,,,,,,,,,,,,,,,,,,,,,,,,,,,,,,,,,,,,,,,,,,,,,,,,,,,,,,,,,,,,,,,,,,,,,,,,,,,,,,,,,,,2LPX8K,train_y,blue_star,bottom_left,2025-09-15_16h16.33.662,HideSeek_v1,2022.2.5,59.99426453257514,
2,2,3,2,3,0,0,61,2,instr_dim1_1,,,,,,1,0,1,0,,,,,0,0,0,0,,,,,,,,,,,,,,,,,,,,,,,,,,,,,,,,,,,,,stimuli/alien_stimuli/61.png,conditions/schedules/train_y_first/blue_star_00/bottom_left/inputInstr_1.xlsx,stimuli/alien_stimuli/61.png,2330.5912144000176,2330.5912144000176,2330.5912144000176,2330.5912144000176,2330.595002049883,return,8.836932400008664,"[-0.16, -0.08, 0, 0.08, 0.16, 0.24, 0.32, 0.4, 0.48, 0.56]","[-0.4, -0.32, -0.24, -0.16, -0.08, 0, 0.08, 0.16, 0.24, 0.32]",3,3,2,2,0.0,0.0,2339.5721246001776,2339.5721246001776,2339.5721246001776,2339.5721246001776,2339.5721246001776,2339.5721246001776,2339.5721246001776,2339.569038099889,7.1902648999821395,return,7.040430099936202,stimuli/alien_stimuli/61.png,61,2,2,,,,,,,,,,,,,,,,,,,,,,,,,,,,,,,,,,,,,,,,,,,,,,,,,,,,,,,,,,,,,,,,,,,,,,,,,,,,,,,,,,,,,,,,,2LPX8K,train_y,blue_star,bottom_left,2025-09-15_16h16.33.662,HideSeek_v1,2022.2.5,59.99426453257514,
,,,,,,,,,,,30,,,,1,0,1,0,,,,,,,,,,,,,,,,,,,,,,,,,,,,,,,,,,,,,,,,,,,,,,,,,,,,,,,,,,,,,,,,,,,,,,,,,,,,,,21,0.7,0,0,99,1,30,0,conditions/schedules/train_y_first/blue_star_00/bottom_left/inputTrain_1.1.xlsx,99,1,1,1,0,,,,,,,,,,,,,,,,,,,,,,,,,,,,,,,,,,,,,,,,,,,,,,,,,,,,,,,,,,,,,,,,,,,,,,,,,,,2LPX8K,train_y,blue_star,bottom_left,2025-09-15_16h16.33.662,HideSeek_v1,2022.2.5,59.99426453257514,
,,,,,,,,,,,,,,,2,0,2,0,0,0,0,0,,,,,,,,,,,,,,,,,,,,,,,,,,,,,,,conditions/schedules/train_y_first/blue_star_00/bottom_left/instructions/Slide15.png,conditions/schedules/train_y_first/blue_star_00/bottom_left/instructions/Audio15.wav,2346.8291840001475,2346.8250367997216,15,"[7.5545187999960035, 18.377544400049374, 16.6082483001519, 19.690456700045615, 5.317902699811384, 5.486195300007239, 6.48894719989039, 11.973408099962398, 6.23438120004721, 7.436908299801871, 10.335484200157225, 14.255313100060448, 17.672488200012594, 17.16611750004813, 43.529739500023425]","[0.03088870015926659, 0.014629400102421641, 0.014301900053396821, 0.030819099862128496, 0.048827100079506636, 0.06715419981628656, 0.04754599998705089, 0.0629602000117302, 0.03044090000912547, 0.12942110002040863, 0.04746320005506277, 14.255319699877873, 0.034902799874544144, 17.166124099865556, 43.529746799962595]",0,,,,,,,,,,,,,,,,,,,,,,,,,,,,,,,,,,,,,,,,,,,,,,,,,,,,,,,,,,,,,,,,,,,,,,,,,,,,,,,,,,,,,,,,,,,,,,,,,,,,,,,,,,,,,,,,,,,,,,,,,,,,2LPX8K,train_y,blue_star,bottom_left,2025-09-15_16h16.33.662,HideSeek_v1,2022.2.5,59.99426453257514,
,,,,,,,,,,,,,,,2,0,2,0,1,0,1,0,,,,,,,,,,,,,,,,,,,,,,,,,,,,,,,conditions/schedules/train_y_first/blue_star_00/bottom_left/instructions/Slide16.png,conditions/schedules/train_y_first/blue_star_00/bottom_left/instructions/Audio16.wav,2390.4249813000206,2390.4113325999583,16,"[7.5545187999960035, 18.377544400049374, 16.6082483001519, 19.690456700045615, 5.317902699811384, 5.486195300007239, 6.48894719989039, 11.973408099962398, 6.23438120004721, 7.436908299801871, 10.335484200157225, 14.255313100060448, 17.672488200012594, 17.16611750004813, 43.529739500023425, 21.6350508001633]","[0.03088870015926659, 0.014629400102421641, 0.014301900053396821, 0.030819099862128496, 0.048827100079506636, 0.06715419981628656, 0.04754599998705089, 0.0629602000117302, 0.03044090000912547, 0.12942110002040863, 0.04746320005506277, 14.255319699877873, 0.034902799874544144, 17.166124099865556, 0.03396919998340309, 21.635057300096378]",0,,,,,,,,,,,,,,,,,,,,,,,,,,,,,,,,,,,,,,,,,,,,,,,,,,,,,,,,,,,,,,,,,,,,,,,,,,,,,,,,,,,,,,,,,,,,,,,,,,,,,,,,,,,,,,,,,,,,,,,,,,,,2LPX8K,train_y,blue_star,bottom_left,2025-09-15_16h16.33.662,HideSeek_v1,2022.2.5,59.99426453257514,
,0,0,0,4,0,4,65,,train_dim1_1,1,30,,,,2,0,2,0,,,,,,,,,0,0,0,0,0,0,0,0,0,0,0,0,,,,,,,,,,,,,,,,,,,,,,,,,stimuli/alien_stimuli/65.png,,,,,,,,,,,,,,,,,,,,,,,,,,,,,,,,,,,,,,,30,,,,,,,,2412.165398800047,2412.165398800047,2412.165398800047,2412.165398800047,2412.165398800047,right,5.580986799905077,0,0,0,99,-0.08,-0.4,right,5.477600099984556,,,,,,,,,,,,,,,,,,,,,,,,,,,,,,,,,,,,,,,,,,,,,,,,,,,,,,,,,,,,2LPX8K,train_y,blue_star,bottom_left,2025-09-15_16h16.33.662,HideSeek_v1,2022.2.5,59.99426453257514,
,0,0,0,4,0,4,65,,train_dim1_1,1,30,,,,2,0,2,0,,,,,,,,,0,0,0,0,0,0,0,0,1,0,1,0,,,,,,,,,,,,,,,,,,,,,,,,,,,,,,,,,,,,,,,,,,,,,,,,,,,,,,,,,,,,,,,,30,,,,,,,,2417.7327660999727,2417.7327660999727,2417.7327660999727,2417.7327660999727,2417.7327660999727,right,0.7930649998597801,0,0,0,99,0.0,-0.4,right,0.7114651999436319,,,,,,,,,,,,,,,,,,,,,,,,,,,,,,,,,,,,,,,,,,,,,,,,,,,,,,,,,,,,2LPX8K,train_y,blue_star,bottom_left,2025-09-15_16h16.33.662,HideSeek_v1,2022.2.5,59.99426453257514,
,0,0,0,4,0,4,65,,train_dim1_1,1,30,,,,2,0,2,0,,,,,,,,,0,0,0,0,0,0,0,0,2,0,2,0,,,,,,,,,,,,,,,,,,,,,,,,,,,,,,,,,,,,,,,,,,,,,,,,,,,,,,,,,,,,,,,,30,,,,,,,,2418.5342166000046,2418.5342166000046,2418.5342166000046,2418.5342166000046,2418.5342166000046,left,0.825033700093627,0,0,0,99,-0.08,-0.4,left,0.7428310001268983,,,,,,,,,,,,,,,,,,,,,,,,,,,,,,,,,,,,,,,,,,,,,,,,,,,,,,,,,,,,2LPX8K,train_y,blue_star,bottom_left,2025-09-15_16h16.33.662,HideSeek_v1,2022.2.5,59.99426453257514,
,0,0,0,4,0,4,65,,train_dim1_1,1,30,,,,2,0,2,0,,,,,,,,,0,0,0,0,0,0,0,0,3,0,3,0,,,,,,,,,,,,,,,,,,,,,,,,,,,,,,,,,,,,,,,,,,,,,,,,,,,,,,,,,,,,,,,,30,,,,,,,,2419.365156200016,2419.365156200016,2419.365156200016,2419.365156200016,2419.365156200016,left,0.35961619997397065,0,0,0,99,-0.16,-0.4,left,0.2783149001188576,,,,,,,,,,,,,,,,,,,,,,,,,,,,,,,,,,,,,,,,,,,,,,,,,,,,,,,,,,,,2LPX8K,train_y,blue_star,bottom_left,2025-09-15_16h16.33.662,HideSeek_v1,2022.2.5,59.99426453257514,
,0,0,0,4,0,4,65,,train_dim1_1,1,30,,,,2,0,2,0,,,,,,,,,0,0,0,0,0,0,0,0,4,0,4,0,,,,,,,,,,,,,,,,,,,,,,,,,,,,,,,,,,,,,,,,,,,,,,,,,,,,,,,,,,,,,,,,30,,,,,,,,2419.731524999952,2419.731524999952,2419.731524999952,2419.731524999952,2419.731524999952,right,17.357825399842113,0,0,0,99,-0.08,-0.4,right,17.285047800047323,,,,,,,,,,,,,,,,,,,,,,,,,,,,,,,,,,,,,,,,,,,,,,,,,,,,,,,,,,,,2LPX8K,train_y,blue_star,bottom_left,2025-09-15_16h16.33.662,HideSeek_v1,2022.2.5,59.99426453257514,
,0,0,0,4,0,4,65,,train_dim1_1,1,30,,,,2,0,2,0,,,,,,,,,0,0,0,0,0,0,0,0,5,0,5,0,,,,,,,,,,,,,,,,,,,,,,,,,,,,,,,,,,,,,,,,,,,,,,,,,,,,,,,,,,,,,,,,30,,,,,,,,2437.119839800056,2437.119839800056,2437.119839800056,2437.119839800056,2437.119839800056,up,2.2581160999834538,0,0,0,99,-0.08,-0.32,up,2.166296800132841,,,,,,,,,,,,,,,,,,,,,,,,,,,,,,,,,,,,,,,,,,,,,,,,,,,,,,,,,,,,2LPX8K,train_y,blue_star,bottom_left,2025-09-15_16h16.33.662,HideSeek_v1,2022.2.5,59.99426453257514,
,0,0,0,4,0,4,65,,train_dim1_1,1,30,,,,2,0,2,0,,,,,,,,,0,0,0,0,0,0,0,0,6,0,6,0,,,,,,,,,,,,,,,,,,,,,,,,,,,,,,,,,,,,,,,,,,,,,,,,,,,,,,,,,,,,,,,,30,,,,,,,,2439.3658481000457,2439.3658481000457,2439.3658481000457,2439.3658481000457,2439.3658481000457,right,1.1930339999962598,0,0,0,99,0.0,-0.32,right,1.104594400152564,,,,,,,,,,,,,,,,,,,,,,,,,,,,,,,,,,,,,,,,,,,,,,,,,,,,,,,,,,,,2LPX8K,train_y,blue_star,bottom_left,2025-09-15_16h16.33.662,HideSeek_v1,2022.2.5,59.99426453257514,
,0,0,0,4,0,4,65,,train_dim1_1,1,30,,,,2,0,2,0,,,,,,,,,0,0,0,0,0,0,0,0,7,0,7,0,,,,,,,,,,,,,,,,,,,,,,,,,,,,,,,,,,,,,,,,,,,,,,,,,,,,,,,,,,,,,,,,30,,,,,,,,2440.567093800055,2440.567093800055,2440.567093800055,2440.567093800055,2440.567093800055,up,0.5260081000160426,0,0,0,99,0.0,-0.24,up,0.43803269998170435,,,,,,,,,,,,,,,,,,,,,,,,,,,,,,,,,,,,,,,,,,,,,,,,,,,,,,,,,,,,2LPX8K,train_y,blue_star,bottom_left,2025-09-15_16h16.33.662,HideSeek_v1,2022.2.5,59.99426453257514,
,0,0,0,4,0,4,65,,train_dim1_1,1,30,,,,2,0,2,0,,,,,,,,,0,0,0,0,0,0,0,0,8,0,8,0,,,,,,,,,,,,,,,,,,,,,,,,,,,,,,,,,,,,,,,,,,,,,,,,,,,,,,,,,,,,,,,,30,,,,,,,,2441.1072196001187,2441.1072196001187,2441.1072196001187,2441.1072196001187,2441.1072196001187,right,0.775138400029391,0,0,0,99,0.08,-0.24,right,0.6915941000916064,,,,,,,,,,,,,,,,,,,,,,,,,,,,,,,,,,,,,,,,,,,,,,,,,,,,,,,,,,,,2LPX8K,train_y,blue_star,bottom_left,2025-09-15_16h16.33.662,HideSeek_v1,2022.2.5,59.99426453257514,
,0,0,0,4,0,4,65,,train_dim1_1,1,30,,,,2,0,2,0,,,,,,,,,0,0,0,0,0,0,0,0,9,0,9,0,,,,,,,,,,,,,,,,,,,,,,,,,,,,,,,,,,,,,,,,,,,,,,,,,,,,,,,,,,,,,,,,30,,,,,,,,2441.8914241001476,2441.8914241001476,2441.8914241001476,2441.8914241001476,2441.8914241001476,right,0.4365779999643564,0,0,0,99,0.16,-0.24,right,0.34866919997148216,,,,,,,,,,,,,,,,,,,,,,,,,,,,,,,,,,,,,,,,,,,,,,,,,,,,,,,,,,,,2LPX8K,train_y,blue_star,bottom_left,2025-09-15_16h16.33.662,HideSeek_v1,2022.2.5,59.99426453257514,
,0,0,0,4,0,4,65,,train_dim1_1,1,30,,,,2,0,2,0,,,,,,,,,0,0,0,0,0,0,0,0,10,0,10,0,,,,,,,,,,,,,,,,,,,,,,,,,,,,,,,,,,,,,,,,,,,,,,,,,,,,,,,,,,,,,,,,30,,,,,,,,2442.3369500001427,2442.3369500001427,2442.3369500001427,2442.3369500001427,2442.3369500001427,up,0.9251331998966634,0,0,0,99,0.16,-0.15999999999999998,up,0.8517206001561135,,,,,,,,,,,,,,,,,,,,,,,,,,,,,,,,,,,,,,,,,,,,,,,,,,,,,,,,,,,,2LPX8K,train_y,blue_star,bottom_left,2025-09-15_16h16.33.662,HideSeek_v1,2022.2.5,59.99426453257514,
,0,0,0,4,0,4,65,,train_dim1_1,1,30,,,,2,0,2,0,,,,,,,,,0,0,0,0,0,0,0,0,11,0,11,0,,,,,,,,,,,,,,,,,,,,,,,,,,,,,,,,,,,,,,,,,,,,,,,,,,,,,,,,,,,,,,,,30,,,,,,,,2443.2692760000937,2443.2692760000937,2443.2692760000937,2443.2692760000937,2443.2692760000937,right,0.6931195000652224,0,0,0,99,0.24,-0.15999999999999998,right,0.6075803998392075,,,,,,,,,,,,,,,,,,,,,,,,,,,,,,,,,,,,,,,,,,,,,,,,,,,,,,,,,,,,2LPX8K,train_y,blue_star,bottom_left,2025-09-15_16h16.33.662,HideSeek_v1,2022.2.5,59.99426453257514,
,0,0,0,4,0,4,65,,train_dim1_1,1,30,,,,2,0,2,0,,,,,,,,,0,0,0,0,0,0,0,0,12,0,12,0,,,,,,,,,,,,,,,,,,,,,,,,,,,,,,,,,,,,,,,,,,,,,,,,,,,,,,,,,,,,,,,,30,,,,,,,,2443.9705612000544,2443.9705612000544,2443.9705612000544,2443.9705612000544,2443.9705612000544,up,0.5594164999201894,0,0,0,99,0.24,-0.07999999999999997,up,0.4790616000536829,,,,,,,,,,,,,,,,,,,,,,,,,,,,,,,,,,,,,,,,,,,,,,,,,,,,,,,,,,,,2LPX8K,train_y,blue_star,bottom_left,2025-09-15_16h16.33.662,HideSeek_v1,2022.2.5,59.99426453257514,
,0,0,0,4,0,4,65,,train_dim1_1,1,30,,,,2,0,2,0,,,,,,,,,0,0,0,0,0,0,0,0,13,0,13,0,,,,,,,,,,,,,,,,,,,,,,,,,,,,,,,,,,,,,,,,,,,,,,,,,,,,,,,,,,,,,,,,30,,,,,,,,2444.536133600166,2444.536133600166,2444.536133600166,2444.536133600166,2444.536133600166,left,1.2441541000735015,0,0,0,99,0.15999999999999998,-0.07999999999999997,left,1.1591882999055088,,,,,,,,,,,,,,,,,,,,,,,,,,,,,,,,,,,,,,,,,,,,,,,,,,,,,,,,,,,,2LPX8K,train_y,blue_star,bottom_left,2025-09-15_16h16.33.662,HideSeek_v1,2022.2.5,59.99426453257514,
,0,0,0,4,0,4,65,,train_dim1_1,1,30,,,,2,0,2,0,,,,,,,,,0,0,0,0,0,0,0,0,14,0,14,0,,,,,,,,,,,,,,,,,,,,,,,,,,,,,,,,,,,,,,,,,,,,,,,,,,,,,,,,,,,,,,,,30,,,,,,,,2445.7921017000917,2445.7921017000917,2445.7921017000917,2445.7921017000917,2445.7921017000917,up,0.5902464999817312,0,0,0,99,0.15999999999999998,2.7755575615628914e-17,up,0.5140058998949826,,,,,,,,,,,,,,,,,,,,,,,,,,,,,,,,,,,,,,,,,,,,,,,,,,,,,,,,,,,,2LPX8K,train_y,blue_star,bottom_left,2025-09-15_16h16.33.662,HideSeek_v1,2022.2.5,59.99426453257514,
,0,0,0,4,0,4,65,,train_dim1_1,1,30,,,,2,0,2,0,,,,,,,,,0,0,0,0,0,0,0,0,15,0,15,0,,,,,,,,,,,,,,,,,,,,,,,,,,,,,,,,,,,,,,,,,,,,,,,,,,,,,,,,,,,,,,,,30,,,,,,,,2446.3900654001627,2446.3900654001627,2446.3900654001627,2446.3900654001627,2446.3900654001627,up,0.49122549989260733,0,0,0,99,0.15999999999999998,0.08000000000000003,up,0.41054020007140934,,,,,,,,,,,,,,,,,,,,,,,,,,,,,,,,,,,,,,,,,,,,,,,,,,,,,,,,,,,,2LPX8K,train_y,blue_star,bottom_left,2025-09-15_16h16.33.662,HideSeek_v1,2022.2.5,59.99426453257514,
,0,0,0,4,0,4,65,,train_dim1_1,1,30,,,,2,0,2,0,,,,,,,,,0,0,0,0,0,0,0,0,16,0,16,0,,,,,,,,,,,,,,,,,,,,,,,,,,,,,,,,,,,,,,,,,,,,,,,,,,,,,,,,,,,,,,,,30,,,,,,,,2446.889396100072,2446.889396100072,2446.889396100072,2446.889396100072,2446.889396100072,right,0.8433338000904769,0,0,0,99,0.24,0.08000000000000003,right,0.7686925001908094,,,,,,,,,,,,,,,,,,,,,,,,,,,,,,,,,,,,,,,,,,,,,,,,,,,,,,,,,,,,2LPX8K,train_y,blue_star,bottom_left,2025-09-15_16h16.33.662,HideSeek_v1,2022.2.5,59.99426453257514,
,0,0,0,4,0,4,65,,train_dim1_1,1,30,,,,2,0,2,0,,,,,,,,,0,0,0,0,0,0,0,0,17,0,17,0,,,,,,,,,,,,,,,,,,,,,,,,,,,,,,,,,,,,,,,,,,,,,,,,,,,,,,,,,,,,,,,,30,,,,,,,,2447.740330700064,2447.740330700064,2447.740330700064,2447.740330700064,2447.740330700064,return,2.927570299943909,0,0,0,0,0.24,0.08000000000000003,return,2.8403914000373334,6,5,0.24,0.08000000000000003,,,,,,,,,,,,,,,,,,,,,,,,,,,,,,,,,,,,,,,,,,,,,,,,,,,,,,,,2LPX8K,train_y,blue_star,bottom_left,2025-09-15_16h16.33.662,HideSeek_v1,2022.2.5,59.99426453257514,
,3,2,3,7,0,5,66,,train_dim1_1,2,30,,,,2,0,2,0,,,,,,,,,0,0,0,0,0,1,1,1,0,0,0,0,,,,,,,,,,,,,,,,,,,,,,,,,stimuli/alien_stimuli/66.png,,,,,,,,,,,,,,,,,,,,,,,,,,,,,stimuli/alien_stimuli/65.png,65,0,3,,,,,,,30,,,,,,,,2468.422064700164,2468.422064700164,2468.422064700164,2468.422064700164,2468.422064700164,return,2.8744802000001073,0,0,0,0,0.08,-0.24,return,2.775848099961877,6,5,0.08,-0.24,2466.858034300152,2468.422064700164,-0.16,-0.08,0.32,0.0,-0.24000000000000002,-0.16,-0.16,-0.16,-0.08,2452.248816800071,2452.248816800071,2452.248816800071,2452.248816800071,2452.248816800071,2452.248816800071,2452.248816800071,2452.248816800071,2452.2457970998253,14.73125969991088,return,14.590458899969235,,,,,,,,,,,,,,,,,,,,,,,,,,,,,,,,,2LPX8K,train_y,blue_star,bottom_left,2025-09-15_16h16.33.662,HideSeek_v1,2022.2.5,59.99426453257514,
,2,3,2,6,0,3,64,,train_dim1_1,3,30,,,,2,0,2,0,,,,,,,,,0,0,0,0,0,2,2,2,0,0,0,0,,,,,,,,,,,,,,,,,,,,,,,,,stimuli/alien_stimuli/64.png,,,,,,,,,,,,,,,,,,,,,,,,,,,,,stimuli/alien_stimuli/66.png,66,3,4,,,,,,,30,,,,,,,,2485.073750599986,2485.073750599986,2485.073750599986,2485.073750599986,2485.073750599986,up,1.338869099970907,0,0,0,99,0,-0.08,up,1.2419356999453157,,,,,2483.5053024000954,2485.073750599986,0.08,0.16,0.4,0.0,-0.039999999999999994,0.08,0.08,0.08,0.16,2472.851603700081,2472.851603700081,2472.851603700081,2472.851603700081,2472.851603700081,2472.851603700081,2472.851603700081,2472.851603700081,2472.8463446498617,10.761082699988037,return,10.629109000088647,,,,,,,,,,,,,,,,,,,,,,,,,,,,,,,,,2LPX8K,train_y,blue_star,bottom_left,2025-09-15_16h16.33.662,HideSeek_v1,2022.2.5,59.99426453257514,
,2,3,2,6,0,3,64,,train_dim1_1,3,30,,,,2,0,2,0,,,,,,,,,0,0,0,0,0,2,2,2,1,0,1,0,,,,,,,,,,,,,,,,,,,,,,,,,,,,,,,,,,,,,,,,,,,,,,,,,,,,,,,,,,,,,,,,30,,,,,,,,2486.4052746000234,2486.4052746000234,2486.4052746000234,2486.4052746000234,2486.4052746000234,up,0.8262610000092536,0,0,0,99,0,0.0,up,0.749232399975881,,,,,,,,,,,,,,,,,,,,,,,,,,,,,,,,,,,,,,,,,,,,,,,,,,,,,,,,,,,,2LPX8K,train_y,blue_star,bottom_left,2025-09-15_16h16.33.662,HideSeek_v1,2022.2.5,59.99426453257514,
,2,3,2,6,0,3,64,,train_dim1_1,3,30,,,,2,0,2,0,,,,,,,,,0,0,0,0,0,2,2,2,2,0,2,0,,,,,,,,,,,,,,,,,,,,,,,,,,,,,,,,,,,,,,,,,,,,,,,,,,,,,,,,,,,,,,,,30,,,,,,,,2487.238379100105,2487.238379100105,2487.238379100105,2487.238379100105,2487.238379100105,up,0.6763846999965608,0,0,0,99,0,0.08,up,0.5890802999492735,,,,,,,,,,,,,,,,,,,,,,,,,,,,,,,,,,,,,,,,,,,,,,,,,,,,,,,,,,,,2LPX8K,train_y,blue_star,bottom_left,2025-09-15_16h16.33.662,HideSeek_v1,2022.2.5,59.99426453257514,
,2,3,2,6,0,3,64,,train_dim1_1,3,30,,,,2,0,2,0,,,,,,,,,0,0,0,0,0,2,2,2,3,0,3,0,,,,,,,,,,,,,,,,,,,,,,,,,,,,,,,,,,,,,,,,,,,,,,,,,,,,,,,,,,,,,,,,30,,,,,,,,2487.9240270999726,2487.9240270999726,2487.9240270999726,2487.9240270999726,2487.9240270999726,up,3.443672199966386,0,0,0,99,0,0.16,up,3.3666749999392778,,,,,,,,,,,,,,,,,,,,,,,,,,,,,,,,,,,,,,,,,,,,,,,,,,,,,,,,,,,,2LPX8K,train_y,blue_star,bottom_left,2025-09-15_16h16.33.662,HideSeek_v1,2022.2.5,59.99426453257514,
,2,3,2,6,0,3,64,,train_dim1_1,3,30,,,,2,0,2,0,,,,,,,,,0,0,0,0,0,2,2,2,4,0,4,0,,,,,,,,,,,,,,,,,,,,,,,,,,,,,,,,,,,,,,,,,,,,,,,,,,,,,,,,,,,,,,,,30,,,,,,,,2491.3785133999772,2491.3785133999772,2491.3785133999772,2491.3785133999772,2491.3785133999772,return,2.77488819998689,0,1,0,0,0,0.16,return,2.7000693001318723,10,5,0,0.16,,,,,,,,,,,,,,,,,,,,,,,,,,,,,,,,,,,,,,,,,,,,,,,,,,,,,,,,2LPX8K,train_y,blue_star,bottom_left,2025-09-15_16h16.33.662,HideSeek_v1,2022.2.5,59.99426453257514,
,0,1,0,2,0,1,62,,train_dim1_1,4,30,,,,2,0,2,0,,,,,,,,,0,0,0,0,0,3,3,3,0,0,0,0,,,,,,,,,,,,,,,,,,,,,,,,,stimuli/alien_stimuli/62.png,,,,,,,,,,,,,,,,,,,,,,,,,,,,,stimuli/alien_stimuli/64.png,64,2,5,,,,,,,30,,,,,,,,2513.7160949001554,2513.7160949001554,2513.7160949001554,2513.7160949001554,2513.7160949001554,right,2.7558276001363993,0,1,0,99,-0.08,-0.32,right,2.6563180999364704,,,,,2512.1456363000907,2513.7160949001554,0,0.08,0.24,0.0,-0.04,0,0.0,0,0.08,2495.7249390999787,2495.7249390999787,2495.7249390999787,2495.7249390999787,2495.7249390999787,2495.7249390999787,2495.7249390999787,2495.7249390999787,2495.715199049865,16.532492600148544,return,16.392989200074226,,,,,,,,,,,,,,,,,,,,,,,,,,,,,,,,,2LPX8K,train_y,blue_star,bottom_left,2025-09-15_16h16.33.662,HideSeek_v1,2022.2.5,59.99426453257514,
,0,1,0,2,0,1,62,,train_dim1_1,4,30,,,,2,0,2,0,,,,,,,,,0,0,0,0,0,3,3,3,1,0,1,0,,,,,,,,,,,,,,,,,,,,,,,,,,,,,,,,,,,,,,,,,,,,,,,,,,,,,,,,,,,,,,,,30,,,,,,,,2516.464400100056,2516.464400100056,2516.464400100056,2516.464400100056,2516.464400100056,right,0.592252500122413,0,1,0,99,0.0,-0.32,right,0.5165394998621196,,,,,,,,,,,,,,,,,,,,,,,,,,,,,,,,,,,,,,,,,,,,,,,,,,,,,,,,,,,,2LPX8K,train_y,blue_star,bottom_left,2025-09-15_16h16.33.662,HideSeek_v1,2022.2.5,59.99426453257514,
,0,1,0,2,0,1,62,,train_dim1_1,4,30,,,,2,0,2,0,,,,,,,,,0,0,0,0,0,3,3,3,2,0,2,0,,,,,,,,,,,,,,,,,,,,,,,,,,,,,,,,,,,,,,,,,,,,,,,,,,,,,,,,,,,,,,,,30,,,,,,,,2517.0663807000965,2517.0663807000965,2517.0663807000965,2517.0663807000965,2517.0663807000965,right,0.5099891000427306,0,1,0,99,0.08,-0.32,right,0.4270717999897897,,,,,,,,,,,,,,,,,,,,,,,,,,,,,,,,,,,,,,,,,,,,,,,,,,,,,,,,,,,,2LPX8K,train_y,blue_star,bottom_left,2025-09-15_16h16.33.662,HideSeek_v1,2022.2.5,59.99426453257514,
,0,1,0,2,0,1,62,,train_dim1_1,4,30,,,,2,0,2,0,,,,,,,,,0,0,0,0,0,3,3,3,3,0,3,0,,,,,,,,,,,,,,,,,,,,,,,,,,,,,,,,,,,,,,,,,,,,,,,,,,,,,,,,,,,,,,,,30,,,,,,,,2517.581037600059,2517.581037600059,2517.581037600059,2517.581037600059,2517.581037600059,right,0.4430988999083638,0,1,0,99,0.16,-0.32,right,0.355259699979797,,,,,,,,,,,,,,,,,,,,,,,,,,,,,,,,,,,,,,,,,,,,,,,,,,,,,,,,,,,,2LPX8K,train_y,blue_star,bottom_left,2025-09-15_16h16.33.662,HideSeek_v1,2022.2.5,59.99426453257514,
,0,1,0,2,0,1,62,,train_dim1_1,4,30,,,,2,0,2,0,,,,,,,,,0,0,0,0,0,3,3,3,4,0,4,0,,,,,,,,,,,,,,,,,,,,,,,,,,,,,,,,,,,,,,,,,,,,,,,,,,,,,,,,,,,,,,,,30,,,,,,,,2518.029937900137,2518.029937900137,2518.029937900137,2518.029937900137,2518.029937900137,return,1.1606256999075413,0,0,0,0,0.16,-0.32,return,1.080161300022155,10,9,0.16,-0.32,,,,,,,,,,,,,,,,,,,,,,,,,,,,,,,,,,,,,,,,,,,,,,,,,,,,,,,,2LPX8K,train_y,blue_star,bottom_left,2025-09-15_16h16.33.662,HideSeek_v1,2022.2.5,59.99426453257514,
,3,3,3,3,0,0,61,,train_dim1_1,5,30,,,,2,0,2,0,,,,,,,,,0,0,0,0,0,4,4,4,0,0,0,0,,,,,,,,,,,,,,,,,,,,,,,,,stimuli/alien_stimuli/61.png,,,,,,,,,,,,,,,,,,,,,,,,,,,,,stimuli/alien_stimuli/62.png,62,0,6,,,,,,,30,,,,,,,,2524.989429499954,2524.989429499954,2524.989429499954,2524.989429499954,2524.989429499954,up,2.707179900025949,0,0,0,99,0.08,-0.08,up,2.618619400076568,,,,,2523.4216386000626,2524.989429499954,-0.16,-0.24,0.08,0.0,-0.28,-0.16,-0.16,-0.16,-0.24,2520.7636194999795,2520.7636194999795,2520.7636194999795,2520.7636194999795,2520.7636194999795,2520.7636194999795,2520.7636194999795,2520.7636194999795,2520.7526690499626,2.7706945999525487,return,2.6261849999427795,,,,,,,,,,,,,,,,,,,,,,,,,,,,,,,,,2LPX8K,train_y,blue_star,bottom_left,2025-09-15_16h16.33.662,HideSeek_v1,2022.2.5,59.99426453257514,
,3,3,3,3,0,0,61,,train_dim1_1,5,30,,,,2,0,2,0,,,,,,,,,0,0,0,0,0,4,4,4,1,0,1,0,,,,,,,,,,,,,,,,,,,,,,,,,,,,,,,,,,,,,,,,,,,,,,,,,,,,,,,,,,,,,,,,30,,,,,,,,2527.6905914000235,2527.6905914000235,2527.6905914000235,2527.6905914000235,2527.6905914000235,return,0.525956799974665,0,1,0,0,0.08,-0.08,return,0.43650930002331734,11,9,0.08,-0.08,,,,,,,,,,,,,,,,,,,,,,,,,,,,,,,,,,,,,,,,,,,,,,,,,,,,,,,,2LPX8K,train_y,blue_star,bottom_left,2025-09-15_16h16.33.662,HideSeek_v1,2022.2.5,59.99426453257514,
,1,4,1,5,0,1,62,,train_dim1_1,6,30,,,,2,0,2,0,,,,,,,,,0,0,0,0,0,5,5,5,0,0,0,0,,,,,,,,,,,,,,,,,,,,,,,,,stimuli/alien_stimuli/62.png,,,,,,,,,,,,,,,,,,,,,,,,,,,,,stimuli/alien_stimuli/61.png,61,3,7,,,,,,,30,,,,,,,,2534.62214890006,2534.62214890006,2534.62214890006,2534.62214890006,2534.62214890006,right,2.2901329998858273,0,1,0,99,0.0,-0.08,right,2.2033728999085724,,,,,2533.0458870001603,2534.62214890006,0.08,-0.16,0.0,0.0,-0.16,0.08,0.08,0.08,-0.16,2529.772270699963,2529.772270699963,2529.772270699963,2529.772270699963,2529.772270699963,2529.772270699963,2529.772270699963,2529.772270699963,2529.760042099841,3.3716653999872506,return,3.2554939000401646,,,,,,,,,,,,,,,,,,,,,,,,,,,,,,,,,2LPX8K,train_y,blue_star,bottom_left,2025-09-15_16h16.33.662,HideSeek_v1,2022.2.5,59.99426453257514,
,1,4,1,5,0,1,62,,train_dim1_1,6,30,,,,2,0,2,0,,,,,,,,,0,0,0,0,0,5,5,5,1,0,1,0,,,,,,,,,,,,,,,,,,,,,,,,,,,,,,,,,,,,,,,,,,,,,,,,,,,,,,,,,,,,,,,,30,,,,,,,,2536.9136547001544,2536.9136547001544,2536.9136547001544,2536.9136547001544,2536.9136547001544,return,0.5428116999100894,0,0,0,0,0.0,-0.08,return,0.4542266000062227,11,10,0.0,-0.08,,,,,,,,,,,,,,,,,,,,,,,,,,,,,,,,,,,,,,,,,,,,,,,,,,,,,,,,2LPX8K,train_y,blue_star,bottom_left,2025-09-15_16h16.33.662,HideSeek_v1,2022.2.5,59.99426453257514,
,1,3,1,6,0,3,64,,train_dim1_1,7,30,,,,2,0,2,0,,,,,,,,,0,0,0,0,0,6,6,6,0,0,0,0,,,,,,,,,,,,,,,,,,,,,,,,,stimuli/alien_stimuli/64.png,,,,,,,,,,,,,,,,,,,,,,,,,,,,,stimuli/alien_stimuli/62.png,62,1,8,,,,,,,30,,,,,,,,2543.461901300121,2543.461901300121,2543.461901300121,2543.461901300121,2543.461901300121,return,2.6859941000584513,0,0,0,0,-0.08,-0.16,up,2.62080439995043,11,10,-0.08,-0.16,2541.903585199965,2543.461901300121,-0.08,0,0.08,0.0,-0.04,-0.08,-0.08,-0.08,0,2539.010261400137,2539.010261400137,2539.010261400137,2539.010261400137,2539.010261400137,2539.010261400137,2539.010261400137,2539.010261400137,2539.0011534999126,2.9878978999331594,return,2.874430499970913,,,,,,,,,,,,,,,,,,,,,,,,,,,,,,,,,2LPX8K,train_y,blue_star,bottom_left,2025-09-15_16h16.33.662,HideSeek_v1,2022.2.5,59.99426453257514,
,4,2,4,2,0,0,61,,train_dim1_1,8,30,,,,2,0,2,0,,,,,,,,,0,0,0,0,0,7,7,7,0,0,0,0,,,,,,,,,,,,,,,,,,,,,,,,,stimuli/alien_stimuli/61.png,,,,,,,,,,,,,,,,,,,,,,,,,,,,,stimuli/alien_stimuli/64.png,64,1,9,,,,,,,30,,,,,,,,2553.318408400053,2553.318408400053,2553.318408400053,2553.318408400053,2553.318408400053,up,2.837943899910897,0,0,0,99,0.16,-0.15999999999999998,up,2.7587165001314133,,,,,2551.7615008000284,2553.318408400053,-0.08,0.08,0.24,0.0,-0.04,-0.08,-0.08,-0.08,0.08,2547.7111708000302,2547.7111708000302,2547.7111708000302,2547.7111708000302,2547.7111708000302,2547.7111708000302,2547.7111708000302,2547.7111708000302,2547.708674749895,4.154818099923432,return,4.033527699997649,,,,,,,,,,,,,,,,,,,,,,,,,,,,,,,,,2LPX8K,train_y,blue_star,bottom_left,2025-09-15_16h16.33.662,HideSeek_v1,2022.2.5,59.99426453257514,
,4,2,4,2,0,0,61,,train_dim1_1,8,30,,,,2,0,2,0,,,,,,,,,0,0,0,0,0,7,7,7,1,0,1,0,,,,,,,,,,,,,,,,,,,,,,,,,,,,,,,,,,,,,,,,,,,,,,,,,,,,,,,,,,,,,,,,30,,,,,,,,2556.163723600097,2556.163723600097,2556.163723600097,2556.163723600097,2556.163723600097,up,0.7587808999232948,0,0,0,99,0.16,-0.07999999999999997,up,0.677224799990654,,,,,,,,,,,,,,,,,,,,,,,,,,,,,,,,,,,,,,,,,,,,,,,,,,,,,,,,,,,,2LPX8K,train_y,blue_star,bottom_left,2025-09-15_16h16.33.662,HideSeek_v1,2022.2.5,59.99426453257514,
,4,2,4,2,0,0,61,,train_dim1_1,8,30,,,,2,0,2,0,,,,,,,,,0,0,0,0,0,7,7,7,2,0,2,0,,,,,,,,,,,,,,,,,,,,,,,,,,,,,,,,,,,,,,,,,,,,,,,,,,,,,,,,,,,,,,,,30,,,,,,,,2556.931745900074,2556.931745900074,2556.931745900074,2556.931745900074,2556.931745900074,up,1.9262240999378264,0,0,0,99,0.16,2.7755575615628914e-17,up,1.8453881000168622,,,,,,,,,,,,,,,,,,,,,,,,,,,,,,,,,,,,,,,,,,,,,,,,,,,,,,,,,,,,2LPX8K,train_y,blue_star,bottom_left,2025-09-15_16h16.33.662,HideSeek_v1,2022.2.5,59.99426453257514,
,4,2,4,2,0,0,61,,train_dim1_1,8,30,,,,2,0,2,0,,,,,,,,,0,0,0,0,0,7,7,7,3,0,3,0,,,,,,,,,,,,,,,,,,,,,,,,,,,,,,,,,,,,,,,,,,,,,,,,,,,,,,,,,,,,,,,,30,,,,,,,,2558.86966950004,2558.86966950004,2558.86966950004,2558.86966950004,2558.86966950004,up,0.9925869000144303,0,0,0,99,0.16,0.08000000000000003,up,0.906096899881959,,,,,,,,,,,,,,,,,,,,,,,,,,,,,,,,,,,,,,,,,,,,,,,,,,,,,,,,,,,,2LPX8K,train_y,blue_star,bottom_left,2025-09-15_16h16.33.662,HideSeek_v1,2022.2.5,59.99426453257514,
,4,2,4,2,0,0,61,,train_dim1_1,8,30,,,,2,0,2,0,,,,,,,,,0,0,0,0,0,7,7,7,4,0,4,0,,,,,,,,,,,,,,,,,,,,,,,,,,,,,,,,,,,,,,,,,,,,,,,,,,,,,,,,,,,,,,,,30,,,,,,,,2559.8672629001085,2559.8672629001085,2559.8672629001085,2559.8672629001085,2559.8672629001085,up,0.6084573001135141,0,0,0,99,0.16,0.16000000000000003,up,0.5208997000008821,,,,,,,,,,,,,,,,,,,,,,,,,,,,,,,,,,,,,,,,,,,,,,,,,,,,,,,,,,,,2LPX8K,train_y,blue_star,bottom_left,2025-09-15_16h16.33.662,HideSeek_v1,2022.2.5,59.99426453257514,
,4,2,4,2,0,0,61,,train_dim1_1,8,30,,,,2,0,2,0,,,,,,,,,0,0,0,0,0,7,7,7,5,0,5,0,,,,,,,,,,,,,,,,,,,,,,,,,,,,,,,,,,,,,,,,,,,,,,,,,,,,,,,,,,,,,,,,30,,,,,,,,2560.483035700163,2560.483035700163,2560.483035700163,2560.483035700163,2560.483035700163,return,4.2798669000621885,0,0,0,0,0.16,0.16000000000000003,return,4.201579299988225,16,10,0.16,0.16000000000000003,,,,,,,,,,,,,,,,,,,,,,,,,,,,,,,,,,,,,,,,,,,,,,,,,,,,,,,,2LPX8K,train_y,blue_star,bottom_left,2025-09-15_16h16.33.662,HideSeek_v1,2022.2.5,59.99426453257514,
,4,3,4,7,0,4,65,,train_dim1_1,9,30,,,,2,0,2,0,,,,,,,,,0,0,0,0,0,8,8,8,0,0,0,0,,,,,,,,,,,,,,,,,,,,,,,,,stimuli/alien_stimuli/65.png,,,,,,,,,,,,,,,,,,,,,,,,,,,,,stimuli/alien_stimuli/61.png,61,4,10,,,,,,,30,,,,,,,,2570.8396501999814,2570.8396501999814,2570.8396501999814,2570.8396501999814,2570.8396501999814,up,4.104215400060639,0,0,0,99,0.16,-0.08,up,4.016488499939442,,,,,2569.27623710013,2570.8396501999814,0.16,-0.24,0.0,0.0,-0.24,0.16,0.16,0.16,-0.24,2566.3353252001107,2566.3353252001107,2566.3353252001107,2566.3353252001107,2566.3353252001107,2566.3353252001107,2566.3353252001107,2566.3353252001107,2566.323722849903,3.0546563998796046,return,2.915955299977213,,,,,,,,,,,,,,,,,,,,,,,,,,,,,,,,,2LPX8K,train_y,blue_star,bottom_left,2025-09-15_16h16.33.662,HideSeek_v1,2022.2.5,59.99426453257514,
,4,3,4,7,0,4,65,,train_dim1_1,9,30,,,,2,0,2,0,,,,,,,,,0,0,0,0,0,8,8,8,1,0,1,0,,,,,,,,,,,,,,,,,,,,,,,,,,,,,,,,,,,,,,,,,,,,,,,,,,,,,,,,,,,,,,,,30,,,,,,,,2574.9454139000736,2574.9454139000736,2574.9454139000736,2574.9454139000736,2574.9454139000736,up,0.3926547998562455,0,0,0,99,0.16,0.0,up,0.30683070002123713,,,,,,,,,,,,,,,,,,,,,,,,,,,,,,,,,,,,,,,,,,,,,,,,,,,,,,,,,,,,2LPX8K,train_y,blue_star,bottom_left,2025-09-15_16h16.33.662,HideSeek_v1,2022.2.5,59.99426453257514,
,4,3,4,7,0,4,65,,train_dim1_1,9,30,,,,2,0,2,0,,,,,,,,,0,0,0,0,0,8,8,8,2,0,2,0,,,,,,,,,,,,,,,,,,,,,,,,,,,,,,,,,,,,,,,,,,,,,,,,,,,,,,,,,,,,,,,,30,,,,,,,,2575.3470406001434,2575.3470406001434,2575.3470406001434,2575.3470406001434,2575.3470406001434,return,1.0604630999732763,0,0,0,0,0.16,0.0,return,0.9842823999933898,18,10,0.16,0.0,,,,,,,,,,,,,,,,,,,,,,,,,,,,,,,,,,,,,,,,,,,,,,,,,,,,,,,,2LPX8K,train_y,blue_star,bottom_left,2025-09-15_16h16.33.662,HideSeek_v1,2022.2.5,59.99426453257514,
,2,2,2,7,0,5,66,,train_dim1_1,10,30,,,,2,0,2,0,,,,,,,,,0,0,0,0,0,9,9,9,0,0,0,0,,,,,,,,,,,,,,,,,,,,,,,,,stimuli/alien_stimuli/66.png,,,,,,,,,,,,,,,,,,,,,,,,,,,,,stimuli/alien_stimuli/65.png,65,4,11,,,,,,,30,,,,,,,,2581.9288590000942,2581.9288590000942,2581.9288590000942,2581.9288590000942,2581.9288590000942,return,1.6349665999878198,0,0,0,0,0,-0.24,return,1.5590387000702322,18,10,0,-0.24,2580.3689059000462,2581.9288590000942,0.16,0.16,0.32,0.0,0.0,0.16,0.16,0.16,0.16,2577.9712762001436,2577.9712762001436,2577.9712762001436,2577.9712762001436,2577.9712762001436,2577.9712762001436,2577.9712762001436,2577.9712762001436,2577.966620749864,2.5045119000133127,return,2.3734535998664796,,,,,,,,,,,,,,,,,,,,,,,,,,,,,,,,,2LPX8K,train_y,blue_star,bottom_left,2025-09-15_16h16.33.662,HideSeek_v1,2022.2.5,59.99426453257514,
,4,1,4,5,0,4,65,,train_dim1_1,11,30,,,,2,0,2,0,,,,,,,,,0,0,0,0,0,10,10,10,0,0,0,0,,,,,,,,,,,,,,,,,,,,,,,,,stimuli/alien_stimuli/65.png,,,,,,,,,,,,,,,,,,,,,,,,,,,,,stimuli/alien_stimuli/66.png,66,2,12,,,,,,,30,,,,,,,,2588.420951300068,2588.420951300068,2588.420951300068,2588.420951300068,2588.420951300068,up,2.6297609999310225,0,0,0,99,0.16,-0.24,up,2.550583900185302,,,,,2586.857552600093,2588.420951300068,0,0.16,0.4,0.0,-0.039999999999999994,0,0.0,0,0.16,2585.11458449997,2585.11458449997,2585.11458449997,2585.11458449997,2585.11458449997,2585.11458449997,2585.11458449997,2585.11458449997,2585.1058645000217,1.8376631999853998,return,1.7272501001134515,,,,,,,,,,,,,,,,,,,,,,,,,,,,,,,,,2LPX8K,train_y,blue_star,bottom_left,2025-09-15_16h16.33.662,HideSeek_v1,2022.2.5,59.99426453257514,
,4,1,4,5,0,4,65,,train_dim1_1,11,30,,,,2,0,2,0,,,,,,,,,0,0,0,0,0,10,10,10,1,0,1,0,,,,,,,,,,,,,,,,,,,,,,,,,,,,,,,,,,,,,,,,,,,,,,,,,,,,,,,,,,,,,,,,30,,,,,,,,2591.0585625001695,2591.0585625001695,2591.0585625001695,2591.0585625001695,2591.0585625001695,up,0.40943150012753904,0,0,0,99,0.16,-0.15999999999999998,up,0.3205810999497771,,,,,,,,,,,,,,,,,,,,,,,,,,,,,,,,,,,,,,,,,,,,,,,,,,,,,,,,,,,,2LPX8K,train_y,blue_star,bottom_left,2025-09-15_16h16.33.662,HideSeek_v1,2022.2.5,59.99426453257514,
,4,1,4,5,0,4,65,,train_dim1_1,11,30,,,,2,0,2,0,,,,,,,,,0,0,0,0,0,10,10,10,2,0,2,0,,,,,,,,,,,,,,,,,,,,,,,,,,,,,,,,,,,,,,,,,,,,,,,,,,,,,,,,,,,,,,,,30,,,,,,,,2591.474883200135,2591.474883200135,2591.474883200135,2591.474883200135,2591.474883200135,up,0.3766308999620378,0,0,0,99,0.16,-0.07999999999999997,up,0.28816410014405847,,,,,,,,,,,,,,,,,,,,,,,,,,,,,,,,,,,,,,,,,,,,,,,,,,,,,,,,,,,,2LPX8K,train_y,blue_star,bottom_left,2025-09-15_16h16.33.662,HideSeek_v1,2022.2.5,59.99426453257514,
,4,1,4,5,0,4,65,,train_dim1_1,11,30,,,,2,0,2,0,,,,,,,,,0,0,0,0,0,10,10,10,3,0,3,0,,,,,,,,,,,,,,,,,,,,,,,,,,,,,,,,,,,,,,,,,,,,,,,,,,,,,,,,,,,,,,,,30,,,,,,,,2591.8580100000836,2591.8580100000836,2591.8580100000836,2591.8580100000836,2591.8580100000836,return,0.6769473000895232,0,1,0,0,0.16,-0.07999999999999997,return,0.6023808000609279,21,10,0.16,-0.07999999999999997,,,,,,,,,,,,,,,,,,,,,,,,,,,,,,,,,,,,,,,,,,,,,,,,,,,,,,,,2LPX8K,train_y,blue_star,bottom_left,2025-09-15_16h16.33.662,HideSeek_v1,2022.2.5,59.99426453257514,
,0,0,0,0,0,0,61,,train_dim1_1,12,30,,,,2,0,2,0,,,,,,,,,0,0,0,0,0,11,11,11,0,0,0,0,,,,,,,,,,,,,,,,,,,,,,,,,stimuli/alien_stimuli/61.png,,,,,,,,,,,,,,,,,,,,,,,,,,,,,stimuli/alien_stimuli/65.png,65,4,13,,,,,,,30,,,,,,,,2597.220100400038,2597.220100400038,2597.220100400038,2597.220100400038,2597.220100400038,right,2.3550621999893337,0,1,0,99,-0.08,-0.4,right,2.2765125001315027,,,,,2595.6648824999575,2597.220100400038,0.16,0,0.32,0.0,-0.16,0.16,0.16,0.16,0,2594.088943999959,2594.088943999959,2594.088943999959,2594.088943999959,2594.088943999959,2594.088943999959,2594.088943999959,2594.088943999959,2594.0800044998527,1.6704749998170882,return,1.5552374001126736,,,,,,,,,,,,,,,,,,,,,,,,,,,,,,,,,2LPX8K,train_y,blue_star,bottom_left,2025-09-15_16h16.33.662,HideSeek_v1,2022.2.5,59.99426453257514,
,0,0,0,0,0,0,61,,train_dim1_1,12,30,,,,2,0,2,0,,,,,,,,,0,0,0,0,0,11,11,11,1,0,1,0,,,,,,,,,,,,,,,,,,,,,,,,,,,,,,,,,,,,,,,,,,,,,,,,,,,,,,,,,,,,,,,,30,,,,,,,,2599.5840201999526,2599.5840201999526,2599.5840201999526,2599.5840201999526,2599.5840201999526,up,1.0753492000512779,0,1,0,99,-0.08,-0.32,up,0.9971096999943256,,,,,,,,,,,,,,,,,,,,,,,,,,,,,,,,,,,,,,,,,,,,,,,,,,,,,,,,,,,,2LPX8K,train_y,blue_star,bottom_left,2025-09-15_16h16.33.662,HideSeek_v1,2022.2.5,59.99426453257514,
,0,0,0,0,0,0,61,,train_dim1_1,12,30,,,,2,0,2,0,,,,,,,,,0,0,0,0,0,11,11,11,2,0,2,0,,,,,,,,,,,,,,,,,,,,,,,,,,,,,,,,,,,,,,,,,,,,,,,,,,,,,,,,,,,,,,,,30,,,,,,,,2600.665710499976,2600.665710499976,2600.665710499976,2600.665710499976,2600.665710499976,up,0.46005139988847077,0,1,0,99,-0.08,-0.24,up,0.37554160016588867,,,,,,,,,,,,,,,,,,,,,,,,,,,,,,,,,,,,,,,,,,,,,,,,,,,,,,,,,,,,2LPX8K,train_y,blue_star,bottom_left,2025-09-15_16h16.33.662,HideSeek_v1,2022.2.5,59.99426453257514,
,0,0,0,0,0,0,61,,train_dim1_1,12,30,,,,2,0,2,0,,,,,,,,,0,0,0,0,0,11,11,11,3,0,3,0,,,,,,,,,,,,,,,,,,,,,,,,,,,,,,,,,,,,,,,,,,,,,,,,,,,,,,,,,,,,,,,,30,,,,,,,,2601.136119700037,2601.136119700037,2601.136119700037,2601.136119700037,2601.136119700037,up,0.4905511001124978,0,1,0,99,-0.08,-0.15999999999999998,up,0.40744069986976683,,,,,,,,,,,,,,,,,,,,,,,,,,,,,,,,,,,,,,,,,,,,,,,,,,,,,,,,,,,,2LPX8K,train_y,blue_star,bottom_left,2025-09-15_16h16.33.662,HideSeek_v1,2022.2.5,59.99426453257514,
,0,0,0,0,0,0,61,,train_dim1_1,12,30,,,,2,0,2,0,,,,,,,,,0,0,0,0,0,11,11,11,4,0,4,0,,,,,,,,,,,,,,,,,,,,,,,,,,,,,,,,,,,,,,,,,,,,,,,,,,,,,,,,,,,,,,,,30,,,,,,,,2601.634872500086,2601.634872500086,2601.634872500086,2601.634872500086,2601.634872500086,return,0.5762751000002027,0,0,0,0,-0.08,-0.15999999999999998,return,0.4934608999174088,24,11,-0.08,-0.15999999999999998,,,,,,,,,,,,,,,,,,,,,,,,,,,,,,,,,,,,,,,,,,,,,,,,,,,,,,,,2LPX8K,train_y,blue_star,bottom_left,2025-09-15_16h16.33.662,HideSeek_v1,2022.2.5,59.99426453257514,
,4,3,4,4,0,1,62,,train_dim1_1,13,30,,,,2,0,2,0,,,,,,,,,0,0,0,0,0,12,12,12,0,0,0,0,,,,,,,,,,,,,,,,,,,,,,,,,stimuli/alien_stimuli/62.png,,,,,,,,,,,,,,,,,,,,,,,,,,,,,stimuli/alien_stimuli/61.png,61,0,14,,,,,,,30,,,,,,,,2606.7260424001142,2606.7260424001142,2606.7260424001142,2606.7260424001142,2606.7260424001142,return,1.6229771999642253,0,1,0,0,0.16,-0.16,return,1.5442949999123812,24,11,0.16,-0.16,2605.172849399969,2606.7260424001142,-0.16,-0.4,0.0,0.0,-0.4,-0.16,-0.16,-0.16,-0.4,2603.7663571999874,2603.7663571999874,2603.7663571999874,2603.7663571999874,2603.7663571999874,2603.7663571999874,2603.7663571999874,2603.7663571999874,2603.755002800003,1.5034644999541342,return,1.38760230015032,,,,,,,,,,,,,,,,,,,,,,,,,,,,,,,,,2LPX8K,train_y,blue_star,bottom_left,2025-09-15_16h16.33.662,HideSeek_v1,2022.2.5,59.99426453257514,
,2,2,2,7,0,5,66,,train_dim1_1,14,30,,,,2,0,2,0,,,,,,,,,0,0,0,0,0,13,13,13,0,0,0,0,,,,,,,,,,,,,,,,,,,,,,,,,stimuli/alien_stimuli/66.png,,,,,,,,,,,,,,,,,,,,,,,,,,,,,stimuli/alien_stimuli/62.png,62,4,15,,,,,,,30,,,,,,,,2613.651221500011,2613.651221500011,2613.651221500011,2613.651221500011,2613.651221500011,up,3.154997699894011,0,1,0,99,0,-0.15999999999999998,up,3.070175499888137,,,,,2612.0956566000823,2613.651221500011,0.16,-0.08,0.08,0.0,-0.12,0.16,0.16,0.16,-0.08,2609.917204800062,2609.917204800062,2609.917204800062,2609.917204800062,2609.917204800062,2609.917204800062,2609.917204800062,2609.917204800062,2609.9098176000175,2.2718042000196874,return,2.1484793999698013,,,,,,,,,,,,,,,,,,,,,,,,,,,,,,,,,2LPX8K,train_y,blue_star,bottom_left,2025-09-15_16h16.33.662,HideSeek_v1,2022.2.5,59.99426453257514,
,2,2,2,7,0,5,66,,train_dim1_1,14,30,,,,2,0,2,0,,,,,,,,,0,0,0,0,0,13,13,13,1,0,1,0,,,,,,,,,,,,,,,,,,,,,,,,,,,,,,,,,,,,,,,,,,,,,,,,,,,,,,,,,,,,,,,,30,,,,,,,,2616.8136587000918,2616.8136587000918,2616.8136587000918,2616.8136587000918,2616.8136587000918,up,1.3935001001227647,0,1,0,99,0,-0.07999999999999997,up,1.3062520001549274,,,,,,,,,,,,,,,,,,,,,,,,,,,,,,,,,,,,,,,,,,,,,,,,,,,,,,,,,,,,2LPX8K,train_y,blue_star,bottom_left,2025-09-15_16h16.33.662,HideSeek_v1,2022.2.5,59.99426453257514,
,2,2,2,7,0,5,66,,train_dim1_1,14,30,,,,2,0,2,0,,,,,,,,,0,0,0,0,0,13,13,13,2,0,2,0,,,,,,,,,,,,,,,,,,,,,,,,,,,,,,,,,,,,,,,,,,,,,,,,,,,,,,,,,,,,,,,,30,,,,,,,,2618.213385500014,2618.213385500014,2618.213385500014,2618.213385500014,2618.213385500014,up,0.5935047999955714,0,1,0,99,0,2.7755575615628914e-17,up,0.5053653998766094,,,,,,,,,,,,,,,,,,,,,,,,,,,,,,,,,,,,,,,,,,,,,,,,,,,,,,,,,,,,2LPX8K,train_y,blue_star,bottom_left,2025-09-15_16h16.33.662,HideSeek_v1,2022.2.5,59.99426453257514,
,2,2,2,7,0,5,66,,train_dim1_1,14,30,,,,2,0,2,0,,,,,,,,,0,0,0,0,0,13,13,13,3,0,3,0,,,,,,,,,,,,,,,,,,,,,,,,,,,,,,,,,,,,,,,,,,,,,,,,,,,,,,,,,,,,,,,,30,,,,,,,,2618.814878300065,2618.814878300065,2618.814878300065,2618.814878300065,2618.814878300065,up,4.095977799966931,0,1,0,99,0,0.08000000000000003,up,4.008015499915928,,,,,,,,,,,,,,,,,,,,,,,,,,,,,,,,,,,,,,,,,,,,,,,,,,,,,,,,,,,,2LPX8K,train_y,blue_star,bottom_left,2025-09-15_16h16.33.662,HideSeek_v1,2022.2.5,59.99426453257514,
,2,2,2,7,0,5,66,,train_dim1_1,14,30,,,,2,0,2,0,,,,,,,,,0,0,0,0,0,13,13,13,4,0,4,0,,,,,,,,,,,,,,,,,,,,,,,,,,,,,,,,,,,,,,,,,,,,,,,,,,,,,,,,,,,,,,,,30,,,,,,,,2622.922792900121,2622.922792900121,2622.922792900121,2622.922792900121,2622.922792900121,up,0.6720070999581367,0,1,0,99,0,0.16000000000000003,up,0.5879176000598818,,,,,,,,,,,,,,,,,,,,,,,,,,,,,,,,,,,,,,,,,,,,,,,,,,,,,,,,,,,,2LPX8K,train_y,blue_star,bottom_left,2025-09-15_16h16.33.662,HideSeek_v1,2022.2.5,59.99426453257514,
,2,2,2,7,0,5,66,,train_dim1_1,14,30,,,,2,0,2,0,,,,,,,,,0,0,0,0,0,13,13,13,5,0,5,0,,,,,,,,,,,,,,,,,,,,,,,,,,,,,,,,,,,,,,,,,,,,,,,,,,,,,,,,,,,,,,,,30,,,,,,,,2623.6078467001207,2623.6078467001207,2623.6078467001207,2623.6078467001207,2623.6078467001207,return,0.6102877000812441,1,0,0,1,0,0.16000000000000003,return,0.5194548000581563,29,11,0,0.16000000000000003,,,,,,,,,,,,,,,,,,,,,,,,,,,,,,,,,,,,,,,,,,,,,,,,,,,,,,,,2LPX8K,train_y,blue_star,bottom_left,2025-09-15_16h16.33.662,HideSeek_v1,2022.2.5,59.99426453257514,
,1,4,1,7,0,3,64,,train_dim1_1,15,30,,,,2,0,2,0,,,,,,,,,0,0,0,0,0,14,14,14,0,0,0,0,,,,,,,,,,,,,,,,,,,,,,,,,stimuli/alien_stimuli/64.png,,,,,,,,,,,,,,,,,,,,,,,,,,,,,stimuli/alien_stimuli/66.png,66,2,16,,,,,,,30,,,,,,,,2630.6160854001064,2630.6160854001064,2630.6160854001064,2630.6160854001064,2630.6160854001064,up,4.070823799818754,1,0,0,99,-0.08,0.0,up,3.9953972999937832,,,,,2629.059308400145,2630.6160854001064,0,0.16,0.4,0.0,-0.039999999999999994,0,0.0,0,0.16,2625.781087800162,2625.781087800162,2625.781087800162,2625.781087800162,2625.781087800162,2625.781087800162,2625.781087800162,2625.781087800162,2625.773044449813,3.388184200040996,return,3.2569808000698686,,,,,,,,,,,,,,,,,,,,,,,,,,,,,,,,,2LPX8K,train_y,blue_star,bottom_left,2025-09-15_16h16.33.662,HideSeek_v1,2022.2.5,59.99426453257514,
,1,4,1,7,0,3,64,,train_dim1_1,15,30,,,,2,0,2,0,,,,,,,,,0,0,0,0,0,14,14,14,1,0,1,0,,,,,,,,,,,,,,,,,,,,,,,,,,,,,,,,,,,,,,,,,,,,,,,,,,,,,,,,,,,,,,,,30,,,,,,,,2634.69442620012,2634.69442620012,2634.69442620012,2634.69442620012,2634.69442620012,return,0.5429812998045236,1,0,0,0,-0.08,0.0,return,0.4576163999736309,30,11,-0.08,0.0,,,,,,,,,,,,,,,,,,,,,,,,,,,,,,,,,,,,,,,,,,,,,,,,,,,,,,,,2LPX8K,train_y,blue_star,bottom_left,2025-09-15_16h16.33.662,HideSeek_v1,2022.2.5,59.99426453257514,
,4,0,4,4,0,4,65,,train_dim1_1,16,30,,,,2,0,2,0,,,,,,,,,0,0,0,0,0,15,15,15,0,0,0,0,,,,,,,,,,,,,,,,,,,,,,,,,stimuli/alien_stimuli/65.png,,,,,,,,,,,,,,,,,,,,,,,,,,,,,stimuli/alien_stimuli/64.png,64,1,17,,,,,,,30,,,,,,,,2640.588378000073,2640.588378000073,2640.588378000073,2640.588378000073,2640.588378000073,up,2.3673741000238806,1,0,0,99,0.16,-0.32,up,2.2817519002128392,,,,,2639.0172522000503,2640.588378000073,-0.08,0.16,0.24,0.0,0.04,-0.08,-0.08,-0.08,0.16,2636.80544929998,2636.80544929998,2636.80544929998,2636.80544929998,2636.80544929998,2636.80544929998,2636.80544929998,2636.80544929998,2636.7987711500145,2.320605600019917,return,2.187425300013274,,,,,,,,,,,,,,,,,,,,,,,,,,,,,,,,,2LPX8K,train_y,blue_star,bottom_left,2025-09-15_16h16.33.662,HideSeek_v1,2022.2.5,59.99426453257514,
,4,0,4,4,0,4,65,,train_dim1_1,16,30,,,,2,0,2,0,,,,,,,,,0,0,0,0,0,15,15,15,1,0,1,0,,,,,,,,,,,,,,,,,,,,,,,,,,,,,,,,,,,,,,,,,,,,,,,,,,,,,,,,,,,,,,,,30,,,,,,,,2642.9516116001178,2642.9516116001178,2642.9516116001178,2642.9516116001178,2642.9516116001178,up,0.49247809988446534,1,0,0,99,0.16,-0.24,up,0.42021739995107055,,,,,,,,,,,,,,,,,,,,,,,,,,,,,,,,,,,,,,,,,,,,,,,,,,,,,,,,,,,,2LPX8K,train_y,blue_star,bottom_left,2025-09-15_16h16.33.662,HideSeek_v1,2022.2.5,59.99426453257514,
,4,0,4,4,0,4,65,,train_dim1_1,16,30,,,,2,0,2,0,,,,,,,,,0,0,0,0,0,15,15,15,2,0,2,0,,,,,,,,,,,,,,,,,,,,,,,,,,,,,,,,,,,,,,,,,,,,,,,,,,,,,,,,,,,,,,,,30,,,,,,,,2643.4539040999953,2643.4539040999953,2643.4539040999953,2643.4539040999953,2643.4539040999953,up,0.8915897000115365,1,0,0,99,0.16,-0.15999999999999998,up,0.8172135998029262,,,,,,,,,,,,,,,,,,,,,,,,,,,,,,,,,,,,,,,,,,,,,,,,,,,,,,,,,,,,2LPX8K,train_y,blue_star,bottom_left,2025-09-15_16h16.33.662,HideSeek_v1,2022.2.5,59.99426453257514,
,4,0,4,4,0,4,65,,train_dim1_1,16,30,,,,2,0,2,0,,,,,,,,,0,0,0,0,0,15,15,15,3,0,3,0,,,,,,,,,,,,,,,,,,,,,,,,,,,,,,,,,,,,,,,,,,,,,,,,,,,,,,,,,,,,,,,,30,,,,,,,,2644.351806699997,2644.351806699997,2644.351806699997,2644.351806699997,2644.351806699997,return,0.34309109998866916,1,1,0,0,0.16,-0.15999999999999998,return,0.2688080999068916,33,11,0.16,-0.15999999999999998,,,,,,,,,,,,,,,,,,,,,,,,,,,,,,,,,,,,,,,,,,,,,,,,,,,,,,,,2LPX8K,train_y,blue_star,bottom_left,2025-09-15_16h16.33.662,HideSeek_v1,2022.2.5,59.99426453257514,
,3,3,3,6,0,3,64,,train_dim1_1,17,30,,,,2,0,2,0,,,,,,,,,0,0,0,0,0,16,16,16,0,0,0,0,,,,,,,,,,,,,,,,,,,,,,,,,stimuli/alien_stimuli/64.png,,,,,,,,,,,,,,,,,,,,,,,,,,,,,stimuli/alien_stimuli/65.png,65,4,18,,,,,,,30,,,,,,,,2653.6830166999716,2653.6830166999716,2653.6830166999716,2653.6830166999716,2653.6830166999716,up,3.2066252001095563,1,1,0,99,0.08,-0.08,up,3.1300359999295324,,,,,2652.1290013000835,2653.6830166999716,0.16,-0.08,0.32,0.0,-0.24000000000000002,0.16,0.16,0.16,-0.08,2646.26528599998,2646.26528599998,2646.26528599998,2646.26528599998,2646.26528599998,2646.26528599998,2646.26528599998,2646.26528599998,2646.2565468499206,5.973950400017202,return,5.834207399981096,,,,,,,,,,,,,,,,,,,,,,,,,,,,,,,,,2LPX8K,train_y,blue_star,bottom_left,2025-09-15_16h16.33.662,HideSeek_v1,2022.2.5,59.99426453257514,
,3,3,3,6,0,3,64,,train_dim1_1,17,30,,,,2,0,2,0,,,,,,,,,0,0,0,0,0,16,16,16,1,0,1,0,,,,,,,,,,,,,,,,,,,,,,,,,,,,,,,,,,,,,,,,,,,,,,,,,,,,,,,,,,,,,,,,30,,,,,,,,2656.9012162999716,2656.9012162999716,2656.9012162999716,2656.9012162999716,2656.9012162999716,up,0.6907444999087602,1,1,0,99,0.08,0.0,up,0.6133016999810934,,,,,,,,,,,,,,,,,,,,,,,,,,,,,,,,,,,,,,,,,,,,,,,,,,,,,,,,,,,,2LPX8K,train_y,blue_star,bottom_left,2025-09-15_16h16.33.662,HideSeek_v1,2022.2.5,59.99426453257514,
,3,3,3,6,0,3,64,,train_dim1_1,17,30,,,,2,0,2,0,,,,,,,,,0,0,0,0,0,16,16,16,2,0,2,0,,,,,,,,,,,,,,,,,,,,,,,,,,,,,,,,,,,,,,,,,,,,,,,,,,,,,,,,,,,,,,,,30,,,,,,,,2657.59746249998,2657.59746249998,2657.59746249998,2657.59746249998,2657.59746249998,return,0.3928159000352025,1,1,0,0,0.08,0.0,return,0.30462530022487044,35,11,0.08,0.0,,,,,,,,,,,,,,,,,,,,,,,,,,,,,,,,,,,,,,,,,,,,,,,,,,,,,,,,2LPX8K,train_y,blue_star,bottom_left,2025-09-15_16h16.33.662,HideSeek_v1,2022.2.5,59.99426453257514,
,2,1,2,1,0,0,61,,train_dim1_1,18,30,,,,2,0,2,0,,,,,,,,,0,0,0,0,0,17,17,17,0,0,0,0,,,,,,,,,,,,,,,,,,,,,,,,,stimuli/alien_stimuli/61.png,,,,,,,,,,,,,,,,,,,,,,,,,,,,,stimuli/alien_stimuli/64.png,64,3,19,,,,,,,30,,,,,,,,2662.444127100054,2662.444127100054,2662.444127100054,2662.444127100054,2662.444127100054,return,1.634592399932444,2,0,0,1,0,-0.32,return,1.5615266000386328,35,11,0,-0.32,2660.8856671999674,2662.444127100054,0.08,0.08,0.24,0.0,-0.04,0.08,0.08,0.08,0.08,2659.560000800062,2659.560000800062,2659.560000800062,2659.560000800062,2659.560000800062,2659.560000800062,2659.560000800062,2659.560000800062,2659.5512473500103,1.4366321000270545,return,1.3074781000614166,,,,,,,,,,,,,,,,,,,,,,,,,,,,,,,,,2LPX8K,train_y,blue_star,bottom_left,2025-09-15_16h16.33.662,HideSeek_v1,2022.2.5,59.99426453257514,
,0,4,0,5,0,1,62,,train_dim1_1,19,30,,,,2,0,2,0,,,,,,,,,0,0,0,0,0,18,18,18,0,0,0,0,,,,,,,,,,,,,,,,,,,,,,,,,stimuli/alien_stimuli/62.png,,,,,,,,,,,,,,,,,,,,,,,,,,,,,stimuli/alien_stimuli/61.png,61,2,20,,,,,,,30,,,,,,,,2669.194878600072,2669.194878600072,2669.194878600072,2669.194878600072,2669.194878600072,return,1.5555902000050992,2,1,0,0,-0.16,-0.08,return,1.4779632000718266,35,11,-0.16,-0.08,2667.6412989001255,2669.194878600072,0,-0.32,0.0,0.0,-0.32,0,0.0,0,-0.32,2665.631650000112,2665.631650000112,2665.631650000112,2665.631650000112,2665.631650000112,2665.631650000112,2665.631650000112,2665.631650000112,2665.622654500045,2.1041228000540286,return,1.9916940999682993,,,,,,,,,,,,,,,,,,,,,,,,,,,,,,,,,2LPX8K,train_y,blue_star,bottom_left,2025-09-15_16h16.33.662,HideSeek_v1,2022.2.5,59.99426453257514,
,2,0,2,5,0,5,66,,train_dim1_1,20,30,,,,2,0,2,0,,,,,,,,,0,0,0,0,0,19,19,19,0,0,0,0,,,,,,,,,,,,,,,,,,,,,,,,,stimuli/alien_stimuli/66.png,,,,,,,,,,,,,,,,,,,,,,,,,,,,,stimuli/alien_stimuli/62.png,62,0,21,,,,,,,30,,,,,,,,2674.7820980001707,2674.7820980001707,2674.7820980001707,2674.7820980001707,2674.7820980001707,up,2.406835899921134,2,1,0,99,0,-0.32,up,2.329107200028375,,,,,2673.229169700062,2674.7820980001707,-0.16,0,0.08,0.0,-0.04,-0.16,-0.16,-0.16,0,2672.324077700032,2672.324077700032,2672.324077700032,2672.324077700032,2672.324077700032,2672.324077700032,2672.324077700032,2672.324077700032,2672.311656299839,1.0036030998453498,return,0.8775585999246687,,,,,,,,,,,,,,,,,,,,,,,,,,,,,,,,,2LPX8K,train_y,blue_star,bottom_left,2025-09-15_16h16.33.662,HideSeek_v1,2022.2.5,59.99426453257514,
,2,0,2,5,0,5,66,,train_dim1_1,20,30,,,,2,0,2,0,,,,,,,,,0,0,0,0,0,19,19,19,1,0,1,0,,,,,,,,,,,,,,,,,,,,,,,,,,,,,,,,,,,,,,,,,,,,,,,,,,,,,,,,,,,,,,,,30,,,,,,,,2677.1968170001637,2677.1968170001637,2677.1968170001637,2677.1968170001637,2677.1968170001637,up,1.5938673000782728,2,1,0,99,0,-0.24,up,1.5157405000645667,,,,,,,,,,,,,,,,,,,,,,,,,,,,,,,,,,,,,,,,,,,,,,,,,,,,,,,,,,,,2LPX8K,train_y,blue_star,bottom_left,2025-09-15_16h16.33.662,HideSeek_v1,2022.2.5,59.99426453257514,
,2,0,2,5,0,5,66,,train_dim1_1,20,30,,,,2,0,2,0,,,,,,,,,0,0,0,0,0,19,19,19,2,0,2,0,,,,,,,,,,,,,,,,,,,,,,,,,,,,,,,,,,,,,,,,,,,,,,,,,,,,,,,,,,,,,,,,30,,,,,,,,2678.8046163001563,2678.8046163001563,2678.8046163001563,2678.8046163001563,2678.8046163001563,up,2.1277237001340836,2,1,0,99,0,-0.15999999999999998,up,2.043422300135717,,,,,,,,,,,,,,,,,,,,,,,,,,,,,,,,,,,,,,,,,,,,,,,,,,,,,,,,,,,,2LPX8K,train_y,blue_star,bottom_left,2025-09-15_16h16.33.662,HideSeek_v1,2022.2.5,59.99426453257514,
,2,0,2,5,0,5,66,,train_dim1_1,20,30,,,,2,0,2,0,,,,,,,,,0,0,0,0,0,19,19,19,3,0,3,0,,,,,,,,,,,,,,,,,,,,,,,,,,,,,,,,,,,,,,,,,,,,,,,,,,,,,,,,,,,,,,,,30,,,,,,,,2680.9332282000687,2680.9332282000687,2680.9332282000687,2680.9332282000687,2680.9332282000687,up,0.944180800113827,2,1,0,99,0,-0.07999999999999997,up,0.8612031999509782,,,,,,,,,,,,,,,,,,,,,,,,,,,,,,,,,,,,,,,,,,,,,,,,,,,,,,,,,,,,2LPX8K,train_y,blue_star,bottom_left,2025-09-15_16h16.33.662,HideSeek_v1,2022.2.5,59.99426453257514,
,2,0,2,5,0,5,66,,train_dim1_1,20,30,,,,2,0,2,0,,,,,,,,,0,0,0,0,0,19,19,19,4,0,4,0,,,,,,,,,,,,,,,,,,,,,,,,,,,,,,,,,,,,,,,,,,,,,,,,,,,,,,,,,,,,,,,,30,,,,,,,,2681.8956755001564,2681.8956755001564,2681.8956755001564,2681.8956755001564,2681.8956755001564,up,0.9486659998074174,2,1,0,99,0,2.7755575615628914e-17,up,0.8650434999726713,,,,,,,,,,,,,,,,,,,,,,,,,,,,,,,,,,,,,,,,,,,,,,,,,,,,,,,,,,,,2LPX8K,train_y,blue_star,bottom_left,2025-09-15_16h16.33.662,HideSeek_v1,2022.2.5,59.99426453257514,
,2,0,2,5,0,5,66,,train_dim1_1,20,30,,,,2,0,2,0,,,,,,,,,0,0,0,0,0,19,19,19,5,0,5,0,,,,,,,,,,,,,,,,,,,,,,,,,,,,,,,,,,,,,,,,,,,,,,,,,,,,,,,,,,,,,,,,30,,,,,,,,2682.8531996000092,2682.8531996000092,2682.8531996000092,2682.8531996000092,2682.8531996000092,return,3.5435444000177085,3,0,0,1,0,2.7755575615628914e-17,return,3.456791900098324,40,11,0,2.7755575615628914e-17,,,,,,,,,,,,,,,,,,,,,,,,,,,,,,,,,,,,,,,,,,,,,,,,,,,,,,,,2LPX8K,train_y,blue_star,bottom_left,2025-09-15_16h16.33.662,HideSeek_v1,2022.2.5,59.99426453257514,
,2,4,2,8,0,4,65,,train_dim1_1,21,30,,,,2,0,2,0,,,,,,,,,0,0,0,0,0,20,20,20,0,0,0,0,,,,,,,,,,,,,,,,,,,,,,,,,stimuli/alien_stimuli/65.png,,,,,,,,,,,,,,,,,,,,,,,,,,,,,stimuli/alien_stimuli/66.png,66,2,22,,,,,,,30,,,,,,,,2690.716378699988,2690.716378699988,2690.716378699988,2690.716378699988,2690.716378699988,up,2.6686513999011368,3,0,0,99,0,0.0,up,2.596244700020179,,,,,2689.159209500067,2690.716378699988,0,0,0.4,0.0,-0.2,0,0.0,0,0,2687.970005800016,2687.970005800016,2687.970005800016,2687.970005800016,2687.970005800016,2687.970005800016,2687.970005800016,2687.970005800016,2687.9579660499703,1.3034587998408824,return,1.1689285000320524,,,,,,,,,,,,,,,,,,,,,,,,,,,,,,,,,2LPX8K,train_y,blue_star,bottom_left,2025-09-15_16h16.33.662,HideSeek_v1,2022.2.5,59.99426453257514,
,2,4,2,8,0,4,65,,train_dim1_1,21,30,,,,2,0,2,0,,,,,,,,,0,0,0,0,0,20,20,20,1,0,1,0,,,,,,,,,,,,,,,,,,,,,,,,,,,,,,,,,,,,,,,,,,,,,,,,,,,,,,,,,,,,,,,,30,,,,,,,,2693.3926965000574,2693.3926965000574,2693.3926965000574,2693.3926965000574,2693.3926965000574,up,0.8598934998735785,3,0,0,99,0,0.08,up,0.7723548000212759,,,,,,,,,,,,,,,,,,,,,,,,,,,,,,,,,,,,,,,,,,,,,,,,,,,,,,,,,,,,2LPX8K,train_y,blue_star,bottom_left,2025-09-15_16h16.33.662,HideSeek_v1,2022.2.5,59.99426453257514,
,2,4,2,8,0,4,65,,train_dim1_1,21,30,,,,2,0,2,0,,,,,,,,,0,0,0,0,0,20,20,20,2,0,2,0,,,,,,,,,,,,,,,,,,,,,,,,,,,,,,,,,,,,,,,,,,,,,,,,,,,,,,,,,,,,,,,,30,,,,,,,,2694.259529300034,2694.259529300034,2694.259529300034,2694.259529300034,2694.259529300034,up,0.6767943000886589,3,0,0,99,0,0.16,up,0.5962783000431955,,,,,,,,,,,,,,,,,,,,,,,,,,,,,,,,,,,,,,,,,,,,,,,,,,,,,,,,,,,,2LPX8K,train_y,blue_star,bottom_left,2025-09-15_16h16.33.662,HideSeek_v1,2022.2.5,59.99426453257514,
,2,4,2,8,0,4,65,,train_dim1_1,21,30,,,,2,0,2,0,,,,,,,,,0,0,0,0,0,20,20,20,3,0,3,0,,,,,,,,,,,,,,,,,,,,,,,,,,,,,,,,,,,,,,,,,,,,,,,,,,,,,,,,,,,,,,,,30,,,,,,,,2694.9458286999725,2694.9458286999725,2694.9458286999725,2694.9458286999725,2694.9458286999725,up,1.4093945000786334,3,0,0,99,0,0.24,up,1.32716350001283,,,,,,,,,,,,,,,,,,,,,,,,,,,,,,,,,,,,,,,,,,,,,,,,,,,,,,,,,,,,2LPX8K,train_y,blue_star,bottom_left,2025-09-15_16h16.33.662,HideSeek_v1,2022.2.5,59.99426453257514,
,2,4,2,8,0,4,65,,train_dim1_1,21,30,,,,2,0,2,0,,,,,,,,,0,0,0,0,0,20,20,20,4,0,4,0,,,,,,,,,,,,,,,,,,,,,,,,,,,,,,,,,,,,,,,,,,,,,,,,,,,,,,,,,,,,,,,,30,,,,,,,,2696.364843199961,2696.364843199961,2696.364843199961,2696.364843199961,2696.364843199961,return,0.30722080008126795,4,0,0,1,0,0.24,return,0.2215899999719113,44,11,0,0.24,,,,,,,,,,,,,,,,,,,,,,,,,,,,,,,,,,,,,,,,,,,,,,,,,,,,,,,,2LPX8K,train_y,blue_star,bottom_left,2025-09-15_16h16.33.662,HideSeek_v1,2022.2.5,59.99426453257514,
,0,2,0,5,0,3,64,,train_dim1_1,22,30,,,,2,0,2,0,,,,,,,,,0,0,0,0,0,21,21,21,0,0,0,0,,,,,,,,,,,,,,,,,,,,,,,,,stimuli/alien_stimuli/64.png,,,,,,,,,,,,,,,,,,,,,,,,,,,,,stimuli/alien_stimuli/65.png,65,2,23,,,,,,,30,,,,,,,,2700.7437309001107,2700.7437309001107,2700.7437309001107,2700.7437309001107,2700.7437309001107,up,2.9341253999155015,4,0,0,99,-0.16,-0.15999999999999998,up,2.8563798000104725,,,,,2699.1837079001125,2700.7437309001107,0,0.24,0.32,0.0,0.07999999999999999,0,0.0,0,0.24,2698.242869199952,2698.242869199952,2698.242869199952,2698.242869199952,2698.242869199952,2698.242869199952,2698.242869199952,2698.242869199952,2698.233084249846,1.0527132998686284,return,0.9199602000880986,,,,,,,,,,,,,,,,,,,,,,,,,,,,,,,,,2LPX8K,train_y,blue_star,bottom_left,2025-09-15_16h16.33.662,HideSeek_v1,2022.2.5,59.99426453257514,
,0,2,0,5,0,3,64,,train_dim1_1,22,30,,,,2,0,2,0,,,,,,,,,0,0,0,0,0,21,21,21,1,0,1,0,,,,,,,,,,,,,,,,,,,,,,,,,,,,,,,,,,,,,,,,,,,,,,,,,,,,,,,,,,,,,,,,30,,,,,,,,2703.6865626999643,2703.6865626999643,2703.6865626999643,2703.6865626999643,2703.6865626999643,up,0.42468619998544455,4,0,0,99,-0.16,-0.07999999999999997,up,0.3448521001264453,,,,,,,,,,,,,,,,,,,,,,,,,,,,,,,,,,,,,,,,,,,,,,,,,,,,,,,,,,,,2LPX8K,train_y,blue_star,bottom_left,2025-09-15_16h16.33.662,HideSeek_v1,2022.2.5,59.99426453257514,
,0,2,0,5,0,3,64,,train_dim1_1,22,30,,,,2,0,2,0,,,,,,,,,0,0,0,0,0,21,21,21,2,0,2,0,,,,,,,,,,,,,,,,,,,,,,,,,,,,,,,,,,,,,,,,,,,,,,,,,,,,,,,,,,,,,,,,30,,,,,,,,2704.1176186001394,2704.1176186001394,2704.1176186001394,2704.1176186001394,2704.1176186001394,up,0.36040690005756915,4,0,0,99,-0.16,2.7755575615628914e-17,up,0.2841267001349479,,,,,,,,,,,,,,,,,,,,,,,,,,,,,,,,,,,,,,,,,,,,,,,,,,,,,,,,,,,,2LPX8K,train_y,blue_star,bottom_left,2025-09-15_16h16.33.662,HideSeek_v1,2022.2.5,59.99426453257514,
,0,2,0,5,0,3,64,,train_dim1_1,22,30,,,,2,0,2,0,,,,,,,,,0,0,0,0,0,21,21,21,3,0,3,0,,,,,,,,,,,,,,,,,,,,,,,,,,,,,,,,,,,,,,,,,,,,,,,,,,,,,,,,,,,,,,,,30,,,,,,,,2704.484867700143,2704.484867700143,2704.484867700143,2704.484867700143,2704.484867700143,return,0.8599876000080258,5,0,0,1,-0.16,2.7755575615628914e-17,return,0.7836011999752373,47,11,-0.16,2.7755575615628914e-17,,,,,,,,,,,,,,,,,,,,,,,,,,,,,,,,,,,,,,,,,,,,,,,,,,,,,,,,2LPX8K,train_y,blue_star,bottom_left,2025-09-15_16h16.33.662,HideSeek_v1,2022.2.5,59.99426453257514,
,0,3,0,3,0,0,61,,train_dim1_1,23,30,,,,2,0,2,0,,,,,,,,,0,0,0,0,0,22,22,22,0,0,0,0,,,,,,,,,,,,,,,,,,,,,,,,,stimuli/alien_stimuli/61.png,,,,,,,,,,,,,,,,,,,,,,,,,,,,,stimuli/alien_stimuli/64.png,64,0,24,,,,,,,30,,,,,,,,2710.663694200106,2710.663694200106,2710.663694200106,2710.663694200106,2710.663694200106,return,1.587834700010717,6,0,0,1,-0.16,-0.16,return,1.5035866999533027,47,11,-0.16,-0.16,2709.1091183000244,2710.663694200106,-0.16,0,0.24,0.0,-0.12,-0.16,-0.16,-0.16,0,2706.915579300141,2706.915579300141,2706.915579300141,2706.915579300141,2706.915579300141,2706.915579300141,2706.915579300141,2706.915579300141,2706.906961549842,2.3042824000585824,return,2.172667299862951,,,,,,,,,,,,,,,,,,,,,,,,,,,,,,,,,2LPX8K,train_y,blue_star,bottom_left,2025-09-15_16h16.33.662,HideSeek_v1,2022.2.5,59.99426453257514,
,3,2,3,7,0,5,66,,train_dim1_1,24,30,,,,2,0,2,0,,,,,,,,,0,0,0,0,0,23,23,23,0,0,0,0,,,,,,,,,,,,,,,,,,,,,,,,,stimuli/alien_stimuli/66.png,,,,,,,,,,,,,,,,,,,,,,,,,,,,,stimuli/alien_stimuli/61.png,61,0,25,,,,,,,30,,,,,,,,2716.052482600091,2716.052482600091,2716.052482600091,2716.052482600091,2716.052482600091,up,1.6204327999148518,6,0,0,99,0.08,-0.15999999999999998,up,1.5424181001726538,,,,,2714.4968183001038,2716.052482600091,-0.16,-0.16,0.0,0.0,-0.16,-0.16,-0.16,-0.16,-0.16,2713.823460899992,2713.823460899992,2713.823460899992,2713.823460899992,2713.823460899992,2713.823460899992,2713.823460899992,2713.823460899992,2713.8131583999843,0.7694266999606043,return,0.6449634998571128,,,,,,,,,,,,,,,,,,,,,,,,,,,,,,,,,2LPX8K,train_y,blue_star,bottom_left,2025-09-15_16h16.33.662,HideSeek_v1,2022.2.5,59.99426453257514,
,3,2,3,7,0,5,66,,train_dim1_1,24,30,,,,2,0,2,0,,,,,,,,,0,0,0,0,0,23,23,23,1,0,1,0,,,,,,,,,,,,,,,,,,,,,,,,,,,,,,,,,,,,,,,,,,,,,,,,,,,,,,,,,,,,,,,,30,,,,,,,,2717.6825809001457,2717.6825809001457,2717.6825809001457,2717.6825809001457,2717.6825809001457,up,0.7080366001464427,6,0,0,99,0.08,-0.07999999999999997,up,0.6331644998863339,,,,,,,,,,,,,,,,,,,,,,,,,,,,,,,,,,,,,,,,,,,,,,,,,,,,,,,,,,,,2LPX8K,train_y,blue_star,bottom_left,2025-09-15_16h16.33.662,HideSeek_v1,2022.2.5,59.99426453257514,
,3,2,3,7,0,5,66,,train_dim1_1,24,30,,,,2,0,2,0,,,,,,,,,0,0,0,0,0,23,23,23,2,0,2,0,,,,,,,,,,,,,,,,,,,,,,,,,,,,,,,,,,,,,,,,,,,,,,,,,,,,,,,,,,,,,,,,30,,,,,,,,2718.3974454000127,2718.3974454000127,2718.3974454000127,2718.3974454000127,2718.3974454000127,up,0.7265465001109987,6,0,0,99,0.08,2.7755575615628914e-17,up,0.639570500003174,,,,,,,,,,,,,,,,,,,,,,,,,,,,,,,,,,,,,,,,,,,,,,,,,,,,,,,,,,,,2LPX8K,train_y,blue_star,bottom_left,2025-09-15_16h16.33.662,HideSeek_v1,2022.2.5,59.99426453257514,
,3,2,3,7,0,5,66,,train_dim1_1,24,30,,,,2,0,2,0,,,,,,,,,0,0,0,0,0,23,23,23,3,0,3,0,,,,,,,,,,,,,,,,,,,,,,,,,,,,,,,,,,,,,,,,,,,,,,,,,,,,,,,,,,,,,,,,30,,,,,,,,2719.1302021001466,2719.1302021001466,2719.1302021001466,2719.1302021001466,2719.1302021001466,up,0.6267992998473346,6,0,0,99,0.08,0.08000000000000003,up,0.5538914001081139,,,,,,,,,,,,,,,,,,,,,,,,,,,,,,,,,,,,,,,,,,,,,,,,,,,,,,,,,,,,2LPX8K,train_y,blue_star,bottom_left,2025-09-15_16h16.33.662,HideSeek_v1,2022.2.5,59.99426453257514,
,3,2,3,7,0,5,66,,train_dim1_1,24,30,,,,2,0,2,0,,,,,,,,,0,0,0,0,0,23,23,23,4,0,4,0,,,,,,,,,,,,,,,,,,,,,,,,,,,,,,,,,,,,,,,,,,,,,,,,,,,,,,,,,,,,,,,,30,,,,,,,,2719.76587620005,2719.76587620005,2719.76587620005,2719.76587620005,2719.76587620005,up,5.246618000091985,6,0,0,99,0.08,0.16000000000000003,up,5.162218999816105,,,,,,,,,,,,,,,,,,,,,,,,,,,,,,,,,,,,,,,,,,,,,,,,,,,,,,,,,,,,2LPX8K,train_y,blue_star,bottom_left,2025-09-15_16h16.33.662,HideSeek_v1,2022.2.5,59.99426453257514,
,3,2,3,7,0,5,66,,train_dim1_1,24,30,,,,2,0,2,0,,,,,,,,,0,0,0,0,0,23,23,23,5,0,5,0,,,,,,,,,,,,,,,,,,,,,,,,,,,,,,,,,,,,,,,,,,,,,,,,,,,,,,,,,,,,,,,,30,,,,,,,,2725.021635300014,2725.021635300014,2725.021635300014,2725.021635300014,2725.021635300014,return,0.5419814998749644,7,0,0,1,0.08,0.16000000000000003,return,0.46760460012592375,52,11,0.08,0.16000000000000003,,,,,,,,,,,,,,,,,,,,,,,,,,,,,,,,,,,,,,,,,,,,,,,,,,,,,,,,2LPX8K,train_y,blue_star,bottom_left,2025-09-15_16h16.33.662,HideSeek_v1,2022.2.5,59.99426453257514,
,3,3,3,4,0,1,62,,train_dim1_1,25,30,,,,2,0,2,0,,,,,,,,,0,0,0,0,0,24,24,24,0,0,0,0,,,,,,,,,,,,,,,,,,,,,,,,,stimuli/alien_stimuli/62.png,,,,,,,,,,,,,,,,,,,,,,,,,,,,,stimuli/alien_stimuli/66.png,66,3,26,,,,,,,30,,,,,,,,2729.9966317999642,2729.9966317999642,2729.9966317999642,2729.9966317999642,2729.9966317999642,return,1.321783300023526,7,1,0,0,0.08,-0.16,return,1.2484772999305278,52,11,0.08,-0.16,2728.4415913999546,2729.9966317999642,0.08,0.16,0.4,0.0,-0.039999999999999994,0.08,0.08,0.08,0.16,2727.1157255000435,2727.1157255000435,2727.1157255000435,2727.1157255000435,2727.1157255000435,2727.1157255000435,2727.1157255000435,2727.1157255000435,2727.107154699834,1.4200408000033349,return,1.2992038999218494,,,,,,,,,,,,,,,,,,,,,,,,,,,,,,,,,2LPX8K,train_y,blue_star,bottom_left,2025-09-15_16h16.33.662,HideSeek_v1,2022.2.5,59.99426453257514,
,4,4,4,7,0,3,64,,train_dim1_1,26,30,,,,2,0,2,0,,,,,,,,,0,0,0,0,0,25,25,25,0,0,0,0,,,,,,,,,,,,,,,,,,,,,,,,,stimuli/alien_stimuli/64.png,,,,,,,,,,,,,,,,,,,,,,,,,,,,,stimuli/alien_stimuli/62.png,62,3,27,,,,,,,30,,,,,,,,2736.0527537001763,2736.0527537001763,2736.0527537001763,2736.0527537001763,2736.0527537001763,up,2.336448400048539,7,1,0,99,0.16,0.0,up,2.2486231001093984,,,,,2734.4968815001193,2736.0527537001763,0.08,-0.08,0.08,0.0,-0.12,0.08,0.08,0.08,-0.08,2732.8694846001454,2732.8694846001454,2732.8694846001454,2732.8694846001454,2732.8694846001454,2732.8694846001454,2732.8694846001454,2732.8694846001454,2732.8619097998367,1.7207896001636982,return,1.6113191000185907,,,,,,,,,,,,,,,,,,,,,,,,,,,,,,,,,2LPX8K,train_y,blue_star,bottom_left,2025-09-15_16h16.33.662,HideSeek_v1,2022.2.5,59.99426453257514,
,4,4,4,7,0,3,64,,train_dim1_1,26,30,,,,2,0,2,0,,,,,,,,,0,0,0,0,0,25,25,25,1,0,1,0,,,,,,,,,,,,,,,,,,,,,,,,,,,,,,,,,,,,,,,,,,,,,,,,,,,,,,,,,,,,,,,,30,,,,,,,,2738.3988209001254,2738.3988209001254,2738.3988209001254,2738.3988209001254,2738.3988209001254,up,0.7745574000291526,7,1,0,99,0.16,0.08,up,0.6983194998465478,,,,,,,,,,,,,,,,,,,,,,,,,,,,,,,,,,,,,,,,,,,,,,,,,,,,,,,,,,,,2LPX8K,train_y,blue_star,bottom_left,2025-09-15_16h16.33.662,HideSeek_v1,2022.2.5,59.99426453257514,
,4,4,4,7,0,3,64,,train_dim1_1,26,30,,,,2,0,2,0,,,,,,,,,0,0,0,0,0,25,25,25,2,0,2,0,,,,,,,,,,,,,,,,,,,,,,,,,,,,,,,,,,,,,,,,,,,,,,,,,,,,,,,,,,,,,,,,30,,,,,,,,2739.179150799988,2739.179150799988,2739.179150799988,2739.179150799988,2739.179150799988,up,0.577034599846229,7,1,0,99,0.16,0.16,up,0.4900443002115935,,,,,,,,,,,,,,,,,,,,,,,,,,,,,,,,,,,,,,,,,,,,,,,,,,,,,,,,,,,,2LPX8K,train_y,blue_star,bottom_left,2025-09-15_16h16.33.662,HideSeek_v1,2022.2.5,59.99426453257514,
,4,4,4,7,0,3,64,,train_dim1_1,26,30,,,,2,0,2,0,,,,,,,,,0,0,0,0,0,25,25,25,3,0,3,0,,,,,,,,,,,,,,,,,,,,,,,,,,,,,,,,,,,,,,,,,,,,,,,,,,,,,,,,,,,,,,,,30,,,,,,,,2739.7644501000177,2739.7644501000177,2739.7644501000177,2739.7644501000177,2739.7644501000177,up,1.7611475999001414,7,1,0,99,0.16,0.24,up,1.6829576999880373,,,,,,,,,,,,,,,,,,,,,,,,,,,,,,,,,,,,,,,,,,,,,,,,,,,,,,,,,,,,2LPX8K,train_y,blue_star,bottom_left,2025-09-15_16h16.33.662,HideSeek_v1,2022.2.5,59.99426453257514,
,4,4,4,7,0,3,64,,train_dim1_1,26,30,,,,2,0,2,0,,,,,,,,,0,0,0,0,0,25,25,25,4,0,4,0,,,,,,,,,,,,,,,,,,,,,,,,,,,,,,,,,,,,,,,,,,,,,,,,,,,,,,,,,,,,,,,,30,,,,,,,,2741.5322040000465,2741.5322040000465,2741.5322040000465,2741.5322040000465,2741.5322040000465,return,0.3932388999965042,7,1,0,0,0.16,0.24,return,0.32176740001887083,56,11,0.16,0.24,,,,,,,,,,,,,,,,,,,,,,,,,,,,,,,,,,,,,,,,,,,,,,,,,,,,,,,,2LPX8K,train_y,blue_star,bottom_left,2025-09-15_16h16.33.662,HideSeek_v1,2022.2.5,59.99426453257514,
,3,4,3,9,0,5,66,,train_dim1_1,27,30,,,,2,0,2,0,,,,,,,,,0,0,0,0,0,26,26,26,0,0,0,0,,,,,,,,,,,,,,,,,,,,,,,,,stimuli/alien_stimuli/66.png,,,,,,,,,,,,,,,,,,,,,,,,,,,,,stimuli/alien_stimuli/64.png,64,4,28,,,,,,,30,,,,,,,,2746.9416135000065,2746.9416135000065,2746.9416135000065,2746.9416135000065,2746.9416135000065,up,1.973952200030908,7,1,0,99,0.08,0.0,up,1.8908263000193983,,,,,2745.3888874000404,2746.9416135000065,0.16,0.16,0.24,0.0,0.04,0.16,0.16,0.16,0.16,2743.49432840012,2743.49432840012,2743.49432840012,2743.49432840012,2743.49432840012,2743.49432840012,2743.49432840012,2743.49432840012,2743.487396449852,2.003885299898684,return,1.8635534001514316,,,,,,,,,,,,,,,,,,,,,,,,,,,,,,,,,2LPX8K,train_y,blue_star,bottom_left,2025-09-15_16h16.33.662,HideSeek_v1,2022.2.5,59.99426453257514,
,3,4,3,9,0,5,66,,train_dim1_1,27,30,,,,2,0,2,0,,,,,,,,,0,0,0,0,0,26,26,26,1,0,1,0,,,,,,,,,,,,,,,,,,,,,,,,,,,,,,,,,,,,,,,,,,,,,,,,,,,,,,,,,,,,,,,,30,,,,,,,,2748.921995300101,2748.921995300101,2748.921995300101,2748.921995300101,2748.921995300101,up,1.2767956999596208,7,1,0,99,0.08,0.08,up,1.1983473000582308,,,,,,,,,,,,,,,,,,,,,,,,,,,,,,,,,,,,,,,,,,,,,,,,,,,,,,,,,,,,2LPX8K,train_y,blue_star,bottom_left,2025-09-15_16h16.33.662,HideSeek_v1,2022.2.5,59.99426453257514,
,3,4,3,9,0,5,66,,train_dim1_1,27,30,,,,2,0,2,0,,,,,,,,,0,0,0,0,0,26,26,26,2,0,2,0,,,,,,,,,,,,,,,,,,,,,,,,,,,,,,,,,,,,,,,,,,,,,,,,,,,,,,,,,,,,,,,,30,,,,,,,,2750.2064714001026,2750.2064714001026,2750.2064714001026,2750.2064714001026,2750.2064714001026,up,0.6437004001345485,7,1,0,99,0.08,0.16,up,0.5558288001921028,,,,,,,,,,,,,,,,,,,,,,,,,,,,,,,,,,,,,,,,,,,,,,,,,,,,,,,,,,,,2LPX8K,train_y,blue_star,bottom_left,2025-09-15_16h16.33.662,HideSeek_v1,2022.2.5,59.99426453257514,
,3,4,3,9,0,5,66,,train_dim1_1,27,30,,,,2,0,2,0,,,,,,,,,0,0,0,0,0,26,26,26,3,0,3,0,,,,,,,,,,,,,,,,,,,,,,,,,,,,,,,,,,,,,,,,,,,,,,,,,,,,,,,,,,,,,,,,30,,,,,,,,2750.8605252001435,2750.8605252001435,2750.8605252001435,2750.8605252001435,2750.8605252001435,up,0.540749300038442,7,1,0,99,0.08,0.24,up,0.4578619999811053,,,,,,,,,,,,,,,,,,,,,,,,,,,,,,,,,,,,,,,,,,,,,,,,,,,,,,,,,,,,2LPX8K,train_y,blue_star,bottom_left,2025-09-15_16h16.33.662,HideSeek_v1,2022.2.5,59.99426453257514,
,3,4,3,9,0,5,66,,train_dim1_1,27,30,,,,2,0,2,0,,,,,,,,,0,0,0,0,0,26,26,26,4,0,4,0,,,,,,,,,,,,,,,,,,,,,,,,,,,,,,,,,,,,,,,,,,,,,,,,,,,,,,,,,,,,,,,,30,,,,,,,,2751.417665200075,2751.417665200075,2751.417665200075,2751.417665200075,2751.417665200075,up,2.7950575998984277,7,1,0,99,0.08,0.32,up,2.7074166999664158,,,,,,,,,,,,,,,,,,,,,,,,,,,,,,,,,,,,,,,,,,,,,,,,,,,,,,,,,,,,2LPX8K,train_y,blue_star,bottom_left,2025-09-15_16h16.33.662,HideSeek_v1,2022.2.5,59.99426453257514,
,3,4,3,9,0,5,66,,train_dim1_1,27,30,,,,2,0,2,0,,,,,,,,,0,0,0,0,0,26,26,26,5,0,5,0,,,,,,,,,,,,,,,,,,,,,,,,,,,,,,,,,,,,,,,,,,,,,,,,,,,,,,,,,,,,,,,,30,,,,,,,,2754.2101082999725,2754.2101082999725,2754.2101082999725,2754.2101082999725,2754.2101082999725,return,1.3105881998781115,8,0,0,1,0.08,0.32,return,1.2225820999592543,61,11,0.08,0.32,,,,,,,,,,,,,,,,,,,,,,,,,,,,,,,,,,,,,,,,,,,,,,,,,,,,,,,,2LPX8K,train_y,blue_star,bottom_left,2025-09-15_16h16.33.662,HideSeek_v1,2022.2.5,59.99426453257514,
,4,1,4,1,0,0,61,,train_dim1_1,28,30,,,,2,0,2,0,,,,,,,,,0,0,0,0,0,27,27,27,0,0,0,0,,,,,,,,,,,,,,,,,,,,,,,,,stimuli/alien_stimuli/61.png,,,,,,,,,,,,,,,,,,,,,,,,,,,,,stimuli/alien_stimuli/66.png,66,3,29,,,,,,,30,,,,,,,,2761.8596431000624,2761.8596431000624,2761.8596431000624,2761.8596431000624,2761.8596431000624,return,1.8686322001740336,9,0,0,1,0.16,-0.32,return,1.7864729999564588,61,11,0.16,-0.32,2760.3013747001532,2761.8596431000624,0.08,0.32,0.4,0.0,0.12,0.08,0.08,0.08,0.32,2757.0859362001065,2757.0859362001065,2757.0859362001065,2757.0859362001065,2757.0859362001065,2757.0859362001065,2757.0859362001065,2757.0859362001065,2757.082084250008,3.321496899938211,return,3.193743099924177,,,,,,,,,,,,,,,,,,,,,,,,,,,,,,,,,2LPX8K,train_y,blue_star,bottom_left,2025-09-15_16h16.33.662,HideSeek_v1,2022.2.5,59.99426453257514,
,2,2,2,3,0,1,62,,train_dim1_1,29,30,,,,2,0,2,0,,,,,,,,,0,0,0,0,0,28,28,28,0,0,0,0,,,,,,,,,,,,,,,,,,,,,,,,,stimuli/alien_stimuli/62.png,,,,,,,,,,,,,,,,,,,,,,,,,,,,,stimuli/alien_stimuli/61.png,61,4,30,,,,,,,30,,,,,,,,2770.4654161999933,2770.4654161999933,2770.4654161999933,2770.4654161999933,2770.4654161999933,up,2.069591199979186,9,0,0,99,0,-0.15999999999999998,up,1.9971075998619199,,,,,2768.9083032000344,2770.4654161999933,0.16,-0.32,0.0,0.0,-0.32,0.16,0.16,0.16,-0.32,2765.2954808999784,2765.2954808999784,2765.2954808999784,2765.2954808999784,2765.2954808999784,2765.2954808999784,2765.2954808999784,2765.2954808999784,2765.2890990498245,3.721714199986309,return,3.5822570000309497,,,,,,,,,,,,,,,,,,,,,,,,,,,,,,,,,2LPX8K,train_y,blue_star,bottom_left,2025-09-15_16h16.33.662,HideSeek_v1,2022.2.5,59.99426453257514,
,2,2,2,3,0,1,62,,train_dim1_1,29,30,,,,2,0,2,0,,,,,,,,,0,0,0,0,0,28,28,28,1,0,1,0,,,,,,,,,,,,,,,,,,,,,,,,,,,,,,,,,,,,,,,,,,,,,,,,,,,,,,,,,,,,,,,,30,,,,,,,,2772.541675900109,2772.541675900109,2772.541675900109,2772.541675900109,2772.541675900109,return,0.8271606001071632,10,0,0,1,0,-0.15999999999999998,return,0.7466730999294668,62,11,0,-0.15999999999999998,,,,,,,,,,,,,,,,,,,,,,,,,,,,,,,,,,,,,,,,,,,,,,,,,,,,,,,,2LPX8K,train_y,blue_star,bottom_left,2025-09-15_16h16.33.662,HideSeek_v1,2022.2.5,59.99426453257514,
,0,1,0,5,0,4,65,,train_dim1_1,30,30,,,,2,0,2,0,,,,,,,,,0,0,0,0,0,29,29,29,0,0,0,0,,,,,,,,,,,,,,,,,,,,,,,,,stimuli/alien_stimuli/65.png,,,,,,,,,,,,,,,,,,,,,,,,,,,,,stimuli/alien_stimuli/62.png,62,2,31,,,,,,,30,,,,,,,,2779.3864375001285,2779.3864375001285,2779.3864375001285,2779.3864375001285,2779.3864375001285,up,2.206286800093949,10,0,0,99,-0.16,-0.24,up,2.1293260999955237,,,,,2777.832874099957,2779.3864375001285,0,-0.16,0.08,0.0,-0.2,0,0.0,0,-0.16,2774.9250821000896,2774.9250821000896,2774.9250821000896,2774.9250821000896,2774.9250821000896,2774.9250821000896,2774.9250821000896,2774.9250821000896,2774.9137306000107,3.004149700049311,return,2.8864861999172717,,,,,,,,,,,,,,,,,,,,,,,,,,,,,,,,,2LPX8K,train_y,blue_star,bottom_left,2025-09-15_16h16.33.662,HideSeek_v1,2022.2.5,59.99426453257514,
,0,1,0,5,0,4,65,,train_dim1_1,30,30,,,,2,0,2,0,,,,,,,,,0,0,0,0,0,29,29,29,1,0,1,0,,,,,,,,,,,,,,,,,,,,,,,,,,,,,,,,,,,,,,,,,,,,,,,,,,,,,,,,,,,,,,,,30,,,,,,,,2781.598396500107,2781.598396500107,2781.598396500107,2781.598396500107,2781.598396500107,up,0.3599177000578493,10,0,0,99,-0.16,-0.15999999999999998,up,0.2884739001747221,,,,,,,,,,,,,,,,,,,,,,,,,,,,,,,,,,,,,,,,,,,,,,,,,,,,,,,,,,,,2LPX8K,train_y,blue_star,bottom_left,2025-09-15_16h16.33.662,HideSeek_v1,2022.2.5,59.99426453257514,
,0,1,0,5,0,4,65,,train_dim1_1,30,30,,,,2,0,2,0,,,,,,,,,0,0,0,0,0,29,29,29,2,0,2,0,,,,,,,,,,,,,,,,,,,,,,,,,,,,,,,,,,,,,,,,,,,,,,,,,,,,,,,,,,,,,,,,30,,,,,,,,2781.9664833999705,2781.9664833999705,2781.9664833999705,2781.9664833999705,2781.9664833999705,up,0.2760904000606388,10,0,0,99,-0.16,-0.07999999999999997,up,0.19717299984768033,,,,,,,,,,,,,,,,,,,,,,,,,,,,,,,,,,,,,,,,,,,,,,,,,,,,,,,,,,,,2LPX8K,train_y,blue_star,bottom_left,2025-09-15_16h16.33.662,HideSeek_v1,2022.2.5,59.99426453257514,
,0,1,0,5,0,4,65,,train_dim1_1,30,30,,,,2,0,2,0,,,,,,,,,0,0,0,0,0,29,29,29,3,0,3,0,,,,,,,,,,,,,,,,,,,,,,,,,,,,,,,,,,,,,,,,,,,,,,,,,,,,,,,,,,,,,,,,30,,,,,,,,2782.249217200093,2782.249217200093,2782.249217200093,2782.249217200093,2782.249217200093,up,0.8774317000061274,10,0,0,99,-0.16,2.7755575615628914e-17,up,0.7970968000590801,,,,,,,,,,,,,,,,,,,,,,,,,,,,,,,,,,,,,,,,,,,,,,,,,,,,,,,,,,,,2LPX8K,train_y,blue_star,bottom_left,2025-09-15_16h16.33.662,HideSeek_v1,2022.2.5,59.99426453257514,
,0,1,0,5,0,4,65,,train_dim1_1,30,30,,,,2,0,2,0,,,,,,,,,0,0,0,0,0,29,29,29,4,0,4,0,,,,,,,,,,,,,,,,,,,,,,,,,,,,,,,,,,,,,,,,,,,,,,,,,,,,,,,,,,,,,,,,30,,,,,,,,2783.133412500145,2783.133412500145,2783.133412500145,2783.133412500145,2783.133412500145,return,0.3432263999711722,11,0,0,1,-0.16,2.7755575615628914e-17,return,0.255325400037691,66,11,-0.16,2.7755575615628914e-17,,,,,,,,,,,,,,,,,,,,,,,,,,,,,,,,,,,,,,,,,,,,,,,,,,,,,,,,2LPX8K,train_y,blue_star,bottom_left,2025-09-15_16h16.33.662,HideSeek_v1,2022.2.5,59.99426453257514,
,,,,,,,,,,,30,,,,2,0,2,0,,,,,,,,,,,,,,,,,,,,,,,,,,,,,,,,,,,,,,,,,,,,,,,,,,,,,,,,,,,,,,,,,,,,,,,,,,stimuli/alien_stimuli/65.png,65,0,32,21,0.7,0.45833333333333337,1,1,1,30,0,conditions/schedules/train_y_first/blue_star_00/bottom_left/inputTrain_2.1.xlsx,99,1,2,1,0,,,,,,,,,,,1,,,,,,,,,2787.1402676000725,2788.700094500091,-0.16,0,0.32,0.0,-0.16,-0.16,-0.16,-0.16,0,2785.028310700087,2785.028310700087,2785.028310700087,2785.028310700087,2785.028310700087,2785.028310700087,2785.028310700087,2785.028310700087,2785.0218093999197,2.2041117001790553,return,2.09507490019314,0,0.9,0,1,11,,,,,,,,,,,,,,,,,,,,,,,,,,,,2LPX8K,train_y,blue_star,bottom_left,2025-09-15_16h16.33.662,HideSeek_v1,2022.2.5,59.99426453257514,
,,,,,,,,,,,,,,,3,0,3,0,0,0,0,0,,,,,,,,,,,,,,,,,,,,,,,,,,,,,,,conditions/schedules/train_y_first/blue_star_00/bottom_left/instructions/Slide17.png,conditions/schedules/train_y_first/blue_star_00/bottom_left/instructions/Audio17.wav,2788.700094500091,2788.691684099985,17,"[7.5545187999960035, 18.377544400049374, 16.6082483001519, 19.690456700045615, 5.317902699811384, 5.486195300007239, 6.48894719989039, 11.973408099962398, 6.23438120004721, 7.436908299801871, 10.335484200157225, 14.255313100060448, 17.672488200012594, 17.16611750004813, 43.529739500023425, 21.6350508001633, 32.78274040017277]","[0.03088870015926659, 0.014629400102421641, 0.014301900053396821, 0.030819099862128496, 0.048827100079506636, 0.06715419981628656, 0.04754599998705089, 0.0629602000117302, 0.03044090000912547, 0.12942110002040863, 0.04746320005506277, 14.255319699877873, 0.034902799874544144, 17.166124099865556, 0.03396919998340309, 21.635057300096378, 32.78274799999781]",0,,,,,,,,,,,,,,,,,,,,,,,,,,,,,,,,,,,,,,,,,,,,,,,,,,,,,,,,,,,,,,,,,,,,,,,,,,,,,,,,,,,,,,,,,,,,,,,,,,,,,,,,,,,,,,,,,,,,,,,,,,,,2LPX8K,train_y,blue_star,bottom_left,2025-09-15_16h16.33.662,HideSeek_v1,2022.2.5,59.99426453257514,
,,,,,,,,,,,,,,,3,0,3,0,1,0,1,0,,,,,,,,,,,,,,,,,,,,,,,,,,,,,,,conditions/schedules/train_y_first/blue_star_00/bottom_left/instructions/Slide18.png,conditions/schedules/train_y_first/blue_star_00/bottom_left/instructions/Audio18.wav,2821.559886000119,2821.552195449942,18,"[7.5545187999960035, 18.377544400049374, 16.6082483001519, 19.690456700045615, 5.317902699811384, 5.486195300007239, 6.48894719989039, 11.973408099962398, 6.23438120004721, 7.436908299801871, 10.335484200157225, 14.255313100060448, 17.672488200012594, 17.16611750004813, 43.529739500023425, 21.6350508001633, 32.78274040017277, 6.712429400067776]","[0.03088870015926659, 0.014629400102421641, 0.014301900053396821, 0.030819099862128496, 0.048827100079506636, 0.06715419981628656, 0.04754599998705089, 0.0629602000117302, 0.03044090000912547, 0.12942110002040863, 0.04746320005506277, 14.255319699877873, 0.034902799874544144, 17.166124099865556, 0.03396919998340309, 21.635057300096378, 0.00020050001330673695, 6.712436500005424]",0,,,,,,,,,,,,,,,,,,,,,,,,,,,,,,,,,,,,,,,,,,,,,,,,,,,,,,,,,,,,,,,,,,,,,,,,,,,,,,,,,,,,,,,,,,,,,,,,,,,,,,,,,,,,,,,,,,,,,,,,,,,,2LPX8K,train_y,blue_star,bottom_left,2025-09-15_16h16.33.662,HideSeek_v1,2022.2.5,59.99426453257514,
,,,,,,,,,,,,,,,3,0,3,0,2,0,2,0,,,,,,,,,,,,,,,,,,,,,,,,,,,,,,,conditions/schedules/train_y_first/blue_star_00/bottom_left/instructions/Slide19.png,conditions/schedules/train_y_first/blue_star_00/bottom_left/instructions/Audio19.wav,2828.3280923001003,2828.3249394000973,19,"[7.5545187999960035, 18.377544400049374, 16.6082483001519, 19.690456700045615, 5.317902699811384, 5.486195300007239, 6.48894719989039, 11.973408099962398, 6.23438120004721, 7.436908299801871, 10.335484200157225, 14.255313100060448, 17.672488200012594, 17.16611750004813, 43.529739500023425, 21.6350508001633, 32.78274040017277, 6.712429400067776, 10.36908970004879]","[0.03088870015926659, 0.014629400102421641, 0.014301900053396821, 0.030819099862128496, 0.048827100079506636, 0.06715419981628656, 0.04754599998705089, 0.0629602000117302, 0.03044090000912547, 0.12942110002040863, 0.04746320005506277, 14.255319699877873, 0.034902799874544144, 17.166124099865556, 0.03396919998340309, 21.635057300096378, 0.00020050001330673695, 0.03087510005570948, 10.369099900126457]",0,,,,,,,,,,,,,,,,,,,,,,,,,,,,,,,,,,,,,,,,,,,,,,,,,,,,,,,,,,,,,,,,,,,,,,,,,,,,,,,,,,,,,,,,,,,,,,,,,,,,,,,,,,,,,,,,,,,,,,,,,,,,2LPX8K,train_y,blue_star,bottom_left,2025-09-15_16h16.33.662,HideSeek_v1,2022.2.5,59.99426453257514,
,,,,,,,,,,,,,,,3,0,3,0,3,0,3,0,,,,,,,,,,,,,,,,,,,,,,,,,,,,,,,conditions/schedules/train_y_first/blue_star_00/bottom_left/instructions/Slide20.png,conditions/schedules/train_y_first/blue_star_00/bottom_left/instructions/Audio20.wav,2838.7728506999556,2838.7665359500097,20,"[7.5545187999960035, 18.377544400049374, 16.6082483001519, 19.690456700045615, 5.317902699811384, 5.486195300007239, 6.48894719989039, 11.973408099962398, 6.23438120004721, 7.436908299801871, 10.335484200157225, 14.255313100060448, 17.672488200012594, 17.16611750004813, 43.529739500023425, 21.6350508001633, 32.78274040017277, 6.712429400067776, 10.36908970004879, 12.98621469992213]","[0.03088870015926659, 0.014629400102421641, 0.014301900053396821, 0.030819099862128496, 0.048827100079506636, 0.06715419981628656, 0.04754599998705089, 0.0629602000117302, 0.03044090000912547, 0.12942110002040863, 0.04746320005506277, 14.255319699877873, 0.034902799874544144, 17.166124099865556, 0.03396919998340309, 21.635057300096378, 0.00020050001330673695, 0.03087510005570948, 0.00022700009867548943, 12.986221699975431]",0,,,,,,,,,,,,,,,,,,,,,,,,,,,,,,,,,,,,,,,,,,,,,,,,,,,,,,,,,,,,,,,,,,,,,,,,,,,,,,,,,,,,,,,,,,,,,,,,,,,,,,,,,,,,,,,,,,,,,,,,,,,,2LPX8K,train_y,blue_star,bottom_left,2025-09-15_16h16.33.662,HideSeek_v1,2022.2.5,59.99426453257514,
1,4,0,9,0,5,0,11,2,instr_dim1_2,,,,,,3,0,3,0,,,,,0,0,0,0,,,,,,,,,,,,,,,,,,,,,,,,,,,,,,,,,,,,,stimuli/alien_stimuli/11.png,conditions/schedules/train_y_first/blue_star_00/bottom_left/inputInstr_2.xlsx,stimuli/alien_stimuli/11.png,2851.8678212000523,2851.8678212000523,2851.8678212000523,2851.8678212000523,2851.8606879499976,return,9.859706599963829,"[-0.16, -0.08, 0, 0.08, 0.16, 0.24, 0.32, 0.4, 0.48, 0.56]","[-0.4, -0.32, -0.24, -0.16, -0.08, 0, 0.08, 0.16, 0.24, 0.32]",0,0,9,4,0.0,0.4,2861.875993200112,2861.875993200112,2861.875993200112,2861.875993200112,2861.875993200112,2861.875993200112,2861.875993200112,2861.8688322999983,6.156289100181311,return,6.00584700005129,stimuli/alien_stimuli/11.png,11,4,1,,,,,,,,,,,,,,,,,,,,,,,,,,,,,,,,,,,,,,,,,,,,,,,,,,,,,,,,,,,,,,,,,,,,,,,,,,,,,,,,,,,,,,,,,2LPX8K,train_y,blue_star,bottom_left,2025-09-15_16h16.33.662,HideSeek_v1,2022.2.5,59.99426453257514,
,,,,,,,,,,,30,,,,3,0,3,0,,,,,,,,,,,,,,,,,,,,,,,,,,,,,,,,,,,,,,,,,,,,,,,,,,,,,,,,,,,,,,,,,,,,,,,,,,,,,,21,0.7,0.45833333333333337,1,99,2,30,0,conditions/schedules/train_y_first/blue_star_00/bottom_left/inputTrain_2.1.xlsx,99,1,2,1,0,,,,,,,,,,,,,,,,,,,,,,,,,,,,,,,,,,,,,,,,,,,,,,,,,,,,,,,,,,,,,,,,,,,,,,,,,,,2LPX8K,train_y,blue_star,bottom_left,2025-09-15_16h16.33.662,HideSeek_v1,2022.2.5,59.99426453257514,
,,,,,,,,,,,,,,,4,0,4,0,0,0,0,0,,,,,,,,,,,,,,,,,,,,,,,,,,,,,,,conditions/schedules/train_y_first/blue_star_00/bottom_left/instructions/Slide21.png,conditions/schedules/train_y_first/blue_star_00/bottom_left/instructions/Audio21.wav,2868.0655119000003,2868.0575176998973,21,"[7.5545187999960035, 18.377544400049374, 16.6082483001519, 19.690456700045615, 5.317902699811384, 5.486195300007239, 6.48894719989039, 11.973408099962398, 6.23438120004721, 7.436908299801871, 10.335484200157225, 14.255313100060448, 17.672488200012594, 17.16611750004813, 43.529739500023425, 21.6350508001633, 32.78274040017277, 6.712429400067776, 10.36908970004879, 12.98621469992213, 13.433968000113964]","[0.03088870015926659, 0.014629400102421641, 0.014301900053396821, 0.030819099862128496, 0.048827100079506636, 0.06715419981628656, 0.04754599998705089, 0.0629602000117302, 0.03044090000912547, 0.12942110002040863, 0.04746320005506277, 14.255319699877873, 0.034902799874544144, 17.166124099865556, 0.03396919998340309, 21.635057300096378, 0.00020050001330673695, 0.03087510005570948, 0.00022700009867548943, 12.986221699975431, 13.433975100051612]",0,,,,,,,,,,,,,,,,,,,,,,,,,,,,,,,,,,,,,,,,,,,,,,,,,,,,,,,,,,,,,,,,,,,,,,,,,,,,,,,,,,,,,,,,,,,,,,,,,,,,,,,,,,,,,,,,,,,,,,,,,,,,2LPX8K,train_y,blue_star,bottom_left,2025-09-15_16h16.33.662,HideSeek_v1,2022.2.5,59.99426453257514,
2,3,2,3,2,0,0,61,2,instr_dim1_2,,,,,,4,0,4,0,,,,,0,0,0,0,,,,,,,,,,,,,,,,,,,,,,,,,,,,,,,,,,,,,stimuli/alien_stimuli/61.png,conditions/schedules/train_y_first/blue_star_00/bottom_left/inputInstr_2.xlsx,stimuli/alien_stimuli/61.png,2881.5884492001496,2881.5884492001496,2881.5884492001496,2881.5884492001496,2881.5852313999553,return,7.230841800104827,"[-0.16, -0.08, 0, 0.08, 0.16, 0.24, 0.32, 0.4, 0.48, 0.56]","[-0.4, -0.32, -0.24, -0.16, -0.08, 0, 0.08, 0.16, 0.24, 0.32]",2,2,3,3,0.0,0.0,2888.9767212001607,2888.9767212001607,2888.9767212001607,2888.9767212001607,2888.9767212001607,2888.9767212001607,2888.9767212001607,2888.958060499793,6.456396299879998,return,6.288221700116992,stimuli/alien_stimuli/61.png,61,3,2,,,,,,,,,,,,,,,,,,,,,,,,,,,,,,,,,,,,,,,,,,,,,,,,,,,,,,,,,,,,,,,,,,,,,,,,,,,,,,,,,,,,,,,,,2LPX8K,train_y,blue_star,bottom_left,2025-09-15_16h16.33.662,HideSeek_v1,2022.2.5,59.99426453257514,
,,,,,,,,,,,30,,,,4,0,4,0,,,,,,,,,,,,,,,,,,,,,,,,,,,,,,,,,,,,,,,,,,,,,,,,,,,,,,,,,,,,,,,,,,,,,,,,,,,,,,21,0.7,0.45833333333333337,1,99,2,30,0,conditions/schedules/train_y_first/blue_star_00/bottom_left/inputTrain_2.1.xlsx,99,1,2,1,0,,,,,,,,,,,,,,,,,,,,,,,,,,,,,,,,,,,,,,,,,,,,,,,,,,,,,,,,,,,,,,,,,,,,,,,,,,,2LPX8K,train_y,blue_star,bottom_left,2025-09-15_16h16.33.662,HideSeek_v1,2022.2.5,59.99426453257514,
,,,,,,,,,,,,,,,5,0,5,0,0,0,0,0,,,,,,,,,,,,,,,,,,,,,,,,,,,,,,,conditions/schedules/train_y_first/blue_star_00/bottom_left/instructions/Slide22.png,conditions/schedules/train_y_first/blue_star_00/bottom_left/instructions/Audio22.wav,2895.453340700129,2895.4467420999426,22,"[7.5545187999960035, 18.377544400049374, 16.6082483001519, 19.690456700045615, 5.317902699811384, 5.486195300007239, 6.48894719989039, 11.973408099962398, 6.23438120004721, 7.436908299801871, 10.335484200157225, 14.255313100060448, 17.672488200012594, 17.16611750004813, 43.529739500023425, 21.6350508001633, 32.78274040017277, 6.712429400067776, 10.36908970004879, 12.98621469992213, 13.433968000113964, 30.516216499963775]","[0.03088870015926659, 0.014629400102421641, 0.014301900053396821, 0.030819099862128496, 0.048827100079506636, 0.06715419981628656, 0.04754599998705089, 0.0629602000117302, 0.03044090000912547, 0.12942110002040863, 0.04746320005506277, 14.255319699877873, 0.034902799874544144, 17.166124099865556, 0.03396919998340309, 21.635057300096378, 0.00020050001330673695, 0.03087510005570948, 0.00022700009867548943, 12.986221699975431, 13.433975100051612, 30.51622419990599]",0,,,,,,,,,,,,,,,,,,,,,,,,,,,,,,,,,,,,,,,,,,,,,,,,,,,,,,,,,,,,,,,,,,,,,,,,,,,,,,,,,,,,,,,,,,,,,,,,,,,,,,,,,,,,,,,,,,,,,,,,,,,,2LPX8K,train_y,blue_star,bottom_left,2025-09-15_16h16.33.662,HideSeek_v1,2022.2.5,59.99426453257514,
,2,1,5,1,3,0,31,,train_dim1_2,1,30,,,,5,0,5,0,,,,,,,,,0,0,0,0,0,0,0,0,0,0,0,0,,,,,,,,,,,,,,,,,,,,,,,,,stimuli/alien_stimuli/31.png,,,,,,,,,,,,,,,,,,,,,,,,,,,,,,,,,,,,,,,30,,,,,,,,2926.0650853000116,2926.0650853000116,2926.0650853000116,2926.0650853000116,2926.0650853000116,up,3.7610838001128286,0,0,0,99,0,-0.24,up,3.662369400030002,,,,,,,,,,,,,,,,,,,,,,,,,,,,,,,,,,,,,,,,,,,,,,,,,,,,,,,,,,,,2LPX8K,train_y,blue_star,bottom_left,2025-09-15_16h16.33.662,HideSeek_v1,2022.2.5,59.99426453257514,
,2,1,5,1,3,0,31,,train_dim1_2,1,30,,,,5,0,5,0,,,,,,,,,0,0,0,0,0,0,0,0,1,0,1,0,,,,,,,,,,,,,,,,,,,,,,,,,,,,,,,,,,,,,,,,,,,,,,,,,,,,,,,,,,,,,,,,30,,,,,,,,2929.822754400084,2929.822754400084,2929.822754400084,2929.822754400084,2929.822754400084,up,1.3438997000921518,0,0,0,99,0,-0.15999999999999998,up,1.2666082999203354,,,,,,,,,,,,,,,,,,,,,,,,,,,,,,,,,,,,,,,,,,,,,,,,,,,,,,,,,,,,2LPX8K,train_y,blue_star,bottom_left,2025-09-15_16h16.33.662,HideSeek_v1,2022.2.5,59.99426453257514,
,2,1,5,1,3,0,31,,train_dim1_2,1,30,,,,5,0,5,0,,,,,,,,,0,0,0,0,0,0,0,0,2,0,2,0,,,,,,,,,,,,,,,,,,,,,,,,,,,,,,,,,,,,,,,,,,,,,,,,,,,,,,,,,,,,,,,,30,,,,,,,,2931.173529200023,2931.173529200023,2931.173529200023,2931.173529200023,2931.173529200023,up,0.6936009998898953,0,0,0,99,0,-0.07999999999999997,up,0.6090623999480158,,,,,,,,,,,,,,,,,,,,,,,,,,,,,,,,,,,,,,,,,,,,,,,,,,,,,,,,,,,,2LPX8K,train_y,blue_star,bottom_left,2025-09-15_16h16.33.662,HideSeek_v1,2022.2.5,59.99426453257514,
,2,1,5,1,3,0,31,,train_dim1_2,1,30,,,,5,0,5,0,,,,,,,,,0,0,0,0,0,0,0,0,3,0,3,0,,,,,,,,,,,,,,,,,,,,,,,,,,,,,,,,,,,,,,,,,,,,,,,,,,,,,,,,,,,,,,,,30,,,,,,,,2931.874344300013,2931.874344300013,2931.874344300013,2931.874344300013,2931.874344300013,up,0.4434852001722902,0,0,0,99,0,2.7755575615628914e-17,up,0.3676143998745829,,,,,,,,,,,,,,,,,,,,,,,,,,,,,,,,,,,,,,,,,,,,,,,,,,,,,,,,,,,,2LPX8K,train_y,blue_star,bottom_left,2025-09-15_16h16.33.662,HideSeek_v1,2022.2.5,59.99426453257514,
,2,1,5,1,3,0,31,,train_dim1_2,1,30,,,,5,0,5,0,,,,,,,,,0,0,0,0,0,0,0,0,4,0,4,0,,,,,,,,,,,,,,,,,,,,,,,,,,,,,,,,,,,,,,,,,,,,,,,,,,,,,,,,,,,,,,,,30,,,,,,,,2932.324455199996,2932.324455199996,2932.324455199996,2932.324455199996,2932.324455199996,up,1.327614099951461,0,0,0,99,0,0.08000000000000003,up,1.249697000021115,,,,,,,,,,,,,,,,,,,,,,,,,,,,,,,,,,,,,,,,,,,,,,,,,,,,,,,,,,,,2LPX8K,train_y,blue_star,bottom_left,2025-09-15_16h16.33.662,HideSeek_v1,2022.2.5,59.99426453257514,
,2,1,5,1,3,0,31,,train_dim1_2,1,30,,,,5,0,5,0,,,,,,,,,0,0,0,0,0,0,0,0,5,0,5,0,,,,,,,,,,,,,,,,,,,,,,,,,,,,,,,,,,,,,,,,,,,,,,,,,,,,,,,,,,,,,,,,30,,,,,,,,2933.6685482000466,2933.6685482000466,2933.6685482000466,2933.6685482000466,2933.6685482000466,return,0.3927272998262197,0,0,0,0,0,0.08000000000000003,return,0.30848619993776083,71,11,0,0.08000000000000003,,,,,,,,,,,,,,,,,,,,,,,,,,,,,,,,,,,,,,,,,,,,,,,,,,,,,,,,2LPX8K,train_y,blue_star,bottom_left,2025-09-15_16h16.33.662,HideSeek_v1,2022.2.5,59.99426453257514,
,2,4,7,4,5,0,11,,train_dim1_2,2,30,,,,5,0,5,0,,,,,,,,,0,0,0,0,0,1,1,1,0,0,0,0,,,,,,,,,,,,,,,,,,,,,,,,,stimuli/alien_stimuli/11.png,,,,,,,,,,,,,,,,,,,,,,,,,,,,,stimuli/alien_stimuli/31.png,31,2,3,,,,,,,30,,,,,,,,2939.984671600163,2939.984671600163,2939.984671600163,2939.984671600163,2939.984671600163,right,11.346267699962482,0,0,0,99,0.08,-0.08,right,11.248835999984294,,,,,2938.4158050001133,2939.984671600163,0.24,-0.32,0.0,0.24,-0.32,0.24,0.12,0.24,-0.32,2935.634844199987,2935.634844199987,2935.634844199987,2935.634844199987,2935.634844199987,2935.634844199987,2935.634844199987,2935.634844199987,2935.6135920498755,2.90462759998627,return,2.763267299858853,,,,,,,,,,,,,,,,,,,,,,,,,,,,,,,,,2LPX8K,train_y,blue_star,bottom_left,2025-09-15_16h16.33.662,HideSeek_v1,2022.2.5,59.99426453257514,
,2,4,7,4,5,0,11,,train_dim1_2,2,30,,,,5,0,5,0,,,,,,,,,0,0,0,0,0,1,1,1,1,0,1,0,,,,,,,,,,,,,,,,,,,,,,,,,,,,,,,,,,,,,,,,,,,,,,,,,,,,,,,,,,,,,,,,30,,,,,,,,2951.3344756001607,2951.3344756001607,2951.3344756001607,2951.3344756001607,2951.3344756001607,right,0.3922196999192238,0,0,0,99,0.16,-0.08,right,0.29375299997627735,,,,,,,,,,,,,,,,,,,,,,,,,,,,,,,,,,,,,,,,,,,,,,,,,,,,,,,,,,,,2LPX8K,train_y,blue_star,bottom_left,2025-09-15_16h16.33.662,HideSeek_v1,2022.2.5,59.99426453257514,
,2,4,7,4,5,0,11,,train_dim1_2,2,30,,,,5,0,5,0,,,,,,,,,0,0,0,0,0,1,1,1,2,0,2,0,,,,,,,,,,,,,,,,,,,,,,,,,,,,,,,,,,,,,,,,,,,,,,,,,,,,,,,,,,,,,,,,30,,,,,,,,2951.7291761001106,2951.7291761001106,2951.7291761001106,2951.7291761001106,2951.7291761001106,right,0.3597212000750005,0,0,0,99,0.24,-0.08,right,0.27493020007386804,,,,,,,,,,,,,,,,,,,,,,,,,,,,,,,,,,,,,,,,,,,,,,,,,,,,,,,,,,,,2LPX8K,train_y,blue_star,bottom_left,2025-09-15_16h16.33.662,HideSeek_v1,2022.2.5,59.99426453257514,
,2,4,7,4,5,0,11,,train_dim1_2,2,30,,,,5,0,5,0,,,,,,,,,0,0,0,0,0,1,1,1,3,0,3,0,,,,,,,,,,,,,,,,,,,,,,,,,,,,,,,,,,,,,,,,,,,,,,,,,,,,,,,,,,,,,,,,30,,,,,,,,2952.096900400007,2952.096900400007,2952.096900400007,2952.096900400007,2952.096900400007,right,0.36000260012224317,0,0,0,99,0.32,-0.08,right,0.2767273997887969,,,,,,,,,,,,,,,,,,,,,,,,,,,,,,,,,,,,,,,,,,,,,,,,,,,,,,,,,,,,2LPX8K,train_y,blue_star,bottom_left,2025-09-15_16h16.33.662,HideSeek_v1,2022.2.5,59.99426453257514,
