trialInstr,x_fixStart,y_fixStart,x_corrSteps,y_corrSteps,x_nrSteps,y_nrSteps,alienID,trialLength,version,trialTrain,praclen,testlen,trial_label,break_on_off,beforeExpLoop.thisRepN,beforeExpLoop.thisTrialN,beforeExpLoop.thisN,beforeExpLoop.thisIndex,mini_instr_trials.thisRepN,mini_instr_trials.thisTrialN,mini_instr_trials.thisN,mini_instr_trials.thisIndex,instrLoop.thisRepN,instrLoop.thisTrialN,instrLoop.thisN,instrLoop.thisIndex,repeat_prac.thisRepN,repeat_prac.thisTrialN,repeat_prac.thisN,repeat_prac.thisIndex,trainLoop.thisRepN,trainLoop.thisTrialN,trainLoop.thisN,trainLoop.thisIndex,moveLoop_train.thisRepN,moveLoop_train.thisTrialN,moveLoop_train.thisN,moveLoop_train.thisIndex,experiment.thisRepN,experiment.thisTrialN,experiment.thisN,experiment.thisIndex,moveLoop_test.thisRepN,moveLoop_test.thisTrialN,moveLoop_test.thisN,moveLoop_test.thisIndex,mini_instr2_trials.thisRepN,mini_instr2_trials.thisTrialN,mini_instr2_trials.thisN,mini_instr2_trials.thisIndex,start_all_time,url,slideStim,audioStim,slides.started,sounds.started,nextButton.numClicks,nextButton.timesOn,nextButton.timesOff,prev_but.numClicks,prev_but.timesOn,prev_but.timesOff,alienStim,instrFile,alienStim_instr,gridImage_instr.started,startPos_3.started,key_instr.started,alienImage_3.started,sounds_1.started,key_instr.keys,key_instr.rt,all_x,all_y,FBy_corrSteps,FBy_fixStart,FBx_corrSteps,FBx_fixStart,FBy_pathSize_check,FBx_pathSize_check,gridImage_9.started,alienImageFB_3.started,startPosFB_3.started,keyFB_3.started,pathLine_ydir_2.started,pathLine_xdir_2.started,alienFace_3.started,sounds_2.started,RTFB_instr,keyFB_3.keys,keyFB_3.rt,draw_alienStim,draw_alienID,test_x,nrepcount,perfthres,percthres,earlierperf,earlystop,nextPrac,fileidx,praclen,saveACC_train,pracFile,nextPrac_train,addNrep,fileidx_endr,repExp,showearly,gridImage_4.started,startPos.started,movePos.started,key_resp.started,alienImage.started,buttonPress_train,RTchoice_train,cumAcctrain,aCorr,saveACC_choice,corrAns,x_movePos_end,y_movePos_end,key_resp.keys,key_resp.rt,wLy_dir,wLx_dir,x_movePos,y_movePos,text_2.started,text_2.stopped,aft_x_corrPos,aft_y_corrPos,y_pathSize_check,x_pathSize_check,y_pathdirY,x_pathdirY,x_pathdirX,x_corrPos,y_corrPos,gridImage_6.started,alienImageFB_2.started,startPosFB_2.started,movePosFB_2.started,keyFB_2.started,pathLine_xdir.started,pathLine_ydir.started,alienFace.started,sounds_4.started,RT_FBtrain,keyFB_2.keys,keyFB_2.rt,saveACC_pre,ACC,within_saveACC_train,earlystop_wloop,cumAcctrain_check,gridImage_3.started,alienImage_test.started,startPos_test.started,movePos_test.started,key_resp_test.started,wLy_dir_test,wLx_dir_test,buttonPress_test,RTchoice_test,cumAcctest,corrAns_test,key_resp_test.keys,key_resp_test.rt,text_3.started,text_3.stopped,total_time,end_all_time,key_resp_3.keys,slides_2.started,sounds_3.started,nextButton_2.numClicks,nextButton_2.timesOn,nextButton_2.timesOff,prev_but_2.numClicks,prev_but_2.timesOn,prev_but_2.timesOff,bye.started,participant,train_first,00_coordinate,starting corner,date,expName,psychopyVersion,frameRate,
,,,,,,,,,,,,,,,0,0,0,0,0,0,0,0,,,,,,,,,,,,,,,,,,,,,,,,,,,,,start_all_time,testround,conditions/schedules/train_y_first/blue_star_00/bottom_right/instructions/Slide1.png,conditions/schedules/train_y_first/blue_star_00/bottom_right/instructions/Audio1.wav,3775.1203711999115,3775.0694465179463,1,[2.8477567001245916],[2.847770000109449],0,,,,,,,,,,,,,,,,,,,,,,,,,,,,,,,,,,,,,,,,,,,,,,,,,,,,,,,,,,,,,,,,,,,,,,,,,,,,,,,,,,,,,,,,,,,,,,,,,,,,,,,,,,,,,,,,,,,,,,,,,,,,2VNL50,train_y,blue_star,bottom_right,2025-09-16_16h35.41.149,HideSeek_v1,2022.2.5,59.9868868365216,
,,,,,,,,,,,,,,,0,0,0,0,1,0,1,0,,,,,,,,,,,,,,,,,,,,,,,,,,,,,,,conditions/schedules/train_y_first/blue_star_00/bottom_right/instructions/Slide2.png,conditions/schedules/train_y_first/blue_star_00/bottom_right/instructions/Audio2.wav,3777.9879546000157,3777.9880368000595,2,"[2.8477567001245916, 17.328987800050527]","[0.00022760010324418545, 17.328996500000358]",0,,,,,,,,,,,,,,,,,,,,,,,,,,,,,,,,,,,,,,,,,,,,,,,,,,,,,,,,,,,,,,,,,,,,,,,,,,,,,,,,,,,,,,,,,,,,,,,,,,,,,,,,,,,,,,,,,,,,,,,,,,,,2VNL50,train_y,blue_star,bottom_right,2025-09-16_16h35.41.149,HideSeek_v1,2022.2.5,59.9868868365216,
,,,,,,,,,,,,,,,0,0,0,0,2,0,2,0,,,,,,,,,,,,,,,,,,,,,,,,,,,,,,,conditions/schedules/train_y_first/blue_star_00/bottom_right/instructions/Slide3.png,conditions/schedules/train_y_first/blue_star_00/bottom_right/instructions/Audio3.wav,3795.4038414000534,3795.402308640024,3,"[2.8477567001245916, 17.328987800050527, 16.243173300055787]","[0.00022760010324418545, 0.0141569001134485, 16.243183200014755]",0,,,,,,,,,,,,,,,,,,,,,,,,,,,,,,,,,,,,,,,,,,,,,,,,,,,,,,,,,,,,,,,,,,,,,,,,,,,,,,,,,,,,,,,,,,,,,,,,,,,,,,,,,,,,,,,,,,,,,,,,,,,,2VNL50,train_y,blue_star,bottom_right,2025-09-16_16h35.41.149,HideSeek_v1,2022.2.5,59.9868868365216,
,,,,,,,,,,,,,,,0,0,0,0,3,0,3,0,,,,,,,,,,,,,,,,,,,,,,,,,,,,,,,conditions/schedules/train_y_first/blue_star_00/bottom_right/instructions/Slide4.png,conditions/schedules/train_y_first/blue_star_00/bottom_right/instructions/Audio4.wav,3811.7331524000037,3811.7330022400247,4,"[2.8477567001245916, 17.328987800050527, 16.243173300055787, 19.329763500019908]","[0.00022760010324418545, 0.0141569001134485, 0.00020819995552301407, 19.32977219996974]",0,,,,,,,,,,,,,,,,,,,,,,,,,,,,,,,,,,,,,,,,,,,,,,,,,,,,,,,,,,,,,,,,,,,,,,,,,,,,,,,,,,,,,,,,,,,,,,,,,,,,,,,,,,,,,,,,,,,,,,,,,,,,2VNL50,train_y,blue_star,bottom_right,2025-09-16_16h35.41.149,HideSeek_v1,2022.2.5,59.9868868365216,
,,,,,,,,,,,,,,,0,0,0,0,4,0,4,0,,,,,,,,,,,,,,,,,,,,,,,,,,,,,,,conditions/schedules/train_y_first/blue_star_00/bottom_right/instructions/Slide5.png,conditions/schedules/train_y_first/blue_star_00/bottom_right/instructions/Audio5.wav,3831.126183500048,3831.1152255600787,5,"[2.8477567001245916, 17.328987800050527, 16.243173300055787, 19.329763500019908, 4.340830100001767]","[0.00022760010324418545, 0.0141569001134485, 0.00020819995552301407, 0.014629499986767769, 4.340839199954644]",0,,,,,,,,,,,,,,,,,,,,,,,,,,,,,,,,,,,,,,,,,,,,,,,,,,,,,,,,,,,,,,,,,,,,,,,,,,,,,,,,,,,,,,,,,,,,,,,,,,,,,,,,,,,,,,,,,,,,,,,,,,,,2VNL50,train_y,blue_star,bottom_right,2025-09-16_16h35.41.149,HideSeek_v1,2022.2.5,59.9868868365216,
,,,,,,,,,,,,,,,0,0,0,0,5,0,5,0,,,,,,,,,,,,,,,,,,,,,,,,,,,,,,,conditions/schedules/train_y_first/blue_star_00/bottom_right/instructions/Slide6.png,conditions/schedules/train_y_first/blue_star_00/bottom_right/instructions/Audio6.wav,3835.537899499992,3835.535624500015,6,"[2.8477567001245916, 17.328987800050527, 16.243173300055787, 19.329763500019908, 4.340830100001767, 4.432354700053111]","[0.00022760010324418545, 0.0141569001134485, 0.00020819995552301407, 0.014629499986767769, 4.340839199954644, 4.432364100124687]",0,,,,,,,,,,,,,,,,,,,,,,,,,,,,,,,,,,,,,,,,,,,,,,,,,,,,,,,,,,,,,,,,,,,,,,,,,,,,,,,,,,,,,,,,,,,,,,,,,,,,,,,,,,,,,,,,,,,,,,,,,,,,2VNL50,train_y,blue_star,bottom_right,2025-09-16_16h35.41.149,HideSeek_v1,2022.2.5,59.9868868365216,
,,,,,,,,,,,,,,,0,0,0,0,6,0,6,0,,,,,,,,,,,,,,,,,,,,,,,,,,,,,,,conditions/schedules/train_y_first/blue_star_00/bottom_right/instructions/Slide7.png,conditions/schedules/train_y_first/blue_star_00/bottom_right/instructions/Audio7.wav,3840.021506899968,3840.0226872598755,7,"[2.8477567001245916, 17.328987800050527, 16.243173300055787, 19.329763500019908, 4.340830100001767, 4.432354700053111, 4.969654900021851]","[0.00022760010324418545, 0.0141569001134485, 0.00020819995552301407, 0.014629499986767769, 4.340839199954644, 0.014352299971506, 4.969663599971682]",0,,,,,,,,,,,,,,,,,,,,,,,,,,,,,,,,,,,,,,,,,,,,,,,,,,,,,,,,,,,,,,,,,,,,,,,,,,,,,,,,,,,,,,,,,,,,,,,,,,,,,,,,,,,,,,,,,,,,,,,,,,,,2VNL50,train_y,blue_star,bottom_right,2025-09-16_16h35.41.149,HideSeek_v1,2022.2.5,59.9868868365216,
,,,,,,,,,,,,,,,0,0,0,0,7,0,7,0,,,,,,,,,,,,,,,,,,,,,,,,,,,,,,,conditions/schedules/train_y_first/blue_star_00/bottom_right/instructions/Slide8.png,conditions/schedules/train_y_first/blue_star_00/bottom_right/instructions/Audio8.wav,3845.0439015999436,3845.043541059876,8,"[2.8477567001245916, 17.328987800050527, 16.243173300055787, 19.329763500019908, 4.340830100001767, 4.432354700053111, 4.969654900021851, 11.306384900119156]","[0.00022760010324418545, 0.0141569001134485, 0.00020819995552301407, 0.014629499986767769, 4.340839199954644, 0.014352299971506, 0.0002142000012099743, 11.306395100196823]",0,,,,,,,,,,,,,,,,,,,,,,,,,,,,,,,,,,,,,,,,,,,,,,,,,,,,,,,,,,,,,,,,,,,,,,,,,,,,,,,,,,,,,,,,,,,,,,,,,,,,,,,,,,,,,,,,,,,,,,,,,,,,2VNL50,train_y,blue_star,bottom_right,2025-09-16_16h35.41.149,HideSeek_v1,2022.2.5,59.9868868365216,
,,,,,,,,,,,,,,,0,0,0,0,8,0,8,0,,,,,,,,,,,,,,,,,,,,,,,,,,,,,,,conditions/schedules/train_y_first/blue_star_00/bottom_right/instructions/Slide9.png,conditions/schedules/train_y_first/blue_star_00/bottom_right/instructions/Audio9.wav,3856.4143119000364,3856.4028475599366,9,"[2.8477567001245916, 17.328987800050527, 16.243173300055787, 19.329763500019908, 4.340830100001767, 4.432354700053111, 4.969654900021851, 11.306384900119156, 6.075363100040704]","[0.00022760010324418545, 0.0141569001134485, 0.00020819995552301407, 0.014629499986767769, 4.340839199954644, 0.014352299971506, 0.0002142000012099743, 0.00021059997379779816, 6.075371999992058]",0,,,,,,,,,,,,,,,,,,,,,,,,,,,,,,,,,,,,,,,,,,,,,,,,,,,,,,,,,,,,,,,,,,,,,,,,,,,,,,,,,,,,,,,,,,,,,,,,,,,,,,,,,,,,,,,,,,,,,,,,,,,,2VNL50,train_y,blue_star,bottom_right,2025-09-16_16h35.41.149,HideSeek_v1,2022.2.5,59.9868868365216,
,,,,,,,,,,,,,,,0,0,0,0,9,0,9,0,,,,,,,,,,,,,,,,,,,,,,,,,,,,,,,conditions/schedules/train_y_first/blue_star_00/bottom_right/instructions/Slide10.png,conditions/schedules/train_y_first/blue_star_00/bottom_right/instructions/Audio10.wav,3862.5269540001173,3862.5247048199876,10,"[2.8477567001245916, 17.328987800050527, 16.243173300055787, 19.329763500019908, 4.340830100001767, 4.432354700053111, 4.969654900021851, 11.306384900119156, 6.075363100040704, 6.86750189983286]","[0.00022760010324418545, 0.0141569001134485, 0.00020819995552301407, 0.014629499986767769, 4.340839199954644, 0.014352299971506, 0.0002142000012099743, 0.00021059997379779816, 0.04619189980439842, 6.867510699899867]",0,,,,,,,,,,,,,,,,,,,,,,,,,,,,,,,,,,,,,,,,,,,,,,,,,,,,,,,,,,,,,,,,,,,,,,,,,,,,,,,,,,,,,,,,,,,,,,,,,,,,,,,,,,,,,,,,,,,,,,,,,,,,2VNL50,train_y,blue_star,bottom_right,2025-09-16_16h35.41.149,HideSeek_v1,2022.2.5,59.9868868365216,
,,,,,,,,,,,,,,,0,0,0,0,10,0,10,0,,,,,,,,,,,,,,,,,,,,,,,,,,,,,,,conditions/schedules/train_y_first/blue_star_00/bottom_right/instructions/Slide11.png,conditions/schedules/train_y_first/blue_star_00/bottom_right/instructions/Audio11.wav,3869.451841000002,3869.4470015599395,11,"[2.8477567001245916, 17.328987800050527, 16.243173300055787, 19.329763500019908, 4.340830100001767, 4.432354700053111, 4.969654900021851, 11.306384900119156, 6.075363100040704, 6.86750189983286, 10.101395899895579]","[0.00022760010324418545, 0.0141569001134485, 0.00020819995552301407, 0.014629499986767769, 4.340839199954644, 0.014352299971506, 0.0002142000012099743, 0.00021059997379779816, 0.04619189980439842, 0.04889579978771508, 10.101405099965632]",0,,,,,,,,,,,,,,,,,,,,,,,,,,,,,,,,,,,,,,,,,,,,,,,,,,,,,,,,,,,,,,,,,,,,,,,,,,,,,,,,,,,,,,,,,,,,,,,,,,,,,,,,,,,,,,,,,,,,,,,,,,,,2VNL50,train_y,blue_star,bottom_right,2025-09-16_16h35.41.149,HideSeek_v1,2022.2.5,59.9868868365216,
,,,,,,,,,,,,,,,0,0,0,0,11,0,11,0,,,,,,,,,,,,,,,,,,,,,,,,,,,,,,,conditions/schedules/train_y_first/blue_star_00/bottom_right/instructions/Slide12.png,conditions/schedules/train_y_first/blue_star_00/bottom_right/instructions/Audio12.wav,3879.620061099995,3879.6221317000454,12,"[2.8477567001245916, 17.328987800050527, 16.243173300055787, 19.329763500019908, 4.340830100001767, 4.432354700053111, 4.969654900021851, 11.306384900119156, 6.075363100040704, 6.86750189983286, 10.101395899895579, 13.678575800033286]","[0.00022760010324418545, 0.0141569001134485, 0.00020819995552301407, 0.014629499986767769, 4.340839199954644, 0.014352299971506, 0.0002142000012099743, 0.00021059997379779816, 0.04619189980439842, 0.04889579978771508, 0.014809199841693044, 13.678584999870509]",0,,,,,,,,,,,,,,,,,,,,,,,,,,,,,,,,,,,,,,,,,,,,,,,,,,,,,,,,,,,,,,,,,,,,,,,,,,,,,,,,,,,,,,,,,,,,,,,,,,,,,,,,,,,,,,,,,,,,,,,,,,,,2VNL50,train_y,blue_star,bottom_right,2025-09-16_16h35.41.149,HideSeek_v1,2022.2.5,59.9868868365216,
1,5,3,5,8,0,5,66,2,instr_dim1_1,,,,,,0,0,0,0,,,,,0,0,0,0,,,,,,,,,,,,,,,,,,,,,,,,,,,,,,,,,,,,,stimuli/alien_stimuli/66.png,conditions/schedules/train_y_first/blue_star_00/bottom_right/inputInstr_1.xlsx,stimuli/alien_stimuli/66.png,3893.4034929999616,3893.4034929999616,3893.4034929999616,3893.4034929999616,3893.4002722800014,return,13.700626600068063,"[-0.16, -0.08, 0, 0.08, 0.16, 0.24, 0.32, 0.4, 0.48, 0.56]","[-0.4, -0.32, -0.24, -0.16, -0.08, 0, 0.08, 0.16, 0.24, 0.32]",8,3,5,5,0.4,0.0,3907.2663517999463,3907.2663517999463,3907.2663517999463,3907.2663517999463,3907.2663517999463,3907.2663517999463,3907.2663517999463,3907.2614914599576,7.8746696000453085,return,7.7096803998574615,stimuli/alien_stimuli/66.png,66,5,1,,,,,,,,,,,,,,,,,,,,,,,,,,,,,,,,,,,,,,,,,,,,,,,,,,,,,,,,,,,,,,,,,,,,,,,,,,,,,,,,,,,,,,,,,2VNL50,train_y,blue_star,bottom_right,2025-09-16_16h35.41.149,HideSeek_v1,2022.2.5,59.9868868365216,
,,,,,,,,,,,30,,,,0,0,0,0,,,,,,,,,,,,,,,,,,,,,,,,,,,,,,,,,,,,,,,,,,,,,,,,,,,,,,,,,,,,,,,,,,,,,,,,,,,,,,21,0.7,0,0,99,1,30,0,conditions/schedules/train_y_first/blue_star_00/bottom_right/inputTrain_1.1.xlsx,99,1,1,1,0,,,,,,,,,,,,,,,,,,,,,,,,,,,,,,,,,,,,,,,,,,,,,,,,,,,,,,,,,,,,,,,,,,,,,,,,,,,2VNL50,train_y,blue_star,bottom_right,2025-09-16_16h35.41.149,HideSeek_v1,2022.2.5,59.9868868365216,
,,,,,,,,,,,,,,,1,0,1,0,0,0,0,0,,,,,,,,,,,,,,,,,,,,,,,,,,,,,,,conditions/schedules/train_y_first/blue_star_00/bottom_right/instructions/Slide13.png,conditions/schedules/train_y_first/blue_star_00/bottom_right/instructions/Audio13.wav,3915.161691199988,3915.1517606000416,13,"[2.8477567001245916, 17.328987800050527, 16.243173300055787, 19.329763500019908, 4.340830100001767, 4.432354700053111, 4.969654900021851, 11.306384900119156, 6.075363100040704, 6.86750189983286, 10.101395899895579, 13.678575800033286, 17.151363199809566]","[0.00022760010324418545, 0.0141569001134485, 0.00020819995552301407, 0.014629499986767769, 4.340839199954644, 0.014352299971506, 0.0002142000012099743, 0.00021059997379779816, 0.04619189980439842, 0.04889579978771508, 0.014809199841693044, 13.678584999870509, 17.151371999876574]",0,,,,,,,,,,,,,,,,,,,,,,,,,,,,,,,,,,,,,,,,,,,,,,,,,,,,,,,,,,,,,,,,,,,,,,,,,,,,,,,,,,,,,,,,,,,,,,,,,,,,,,,,,,,,,,,,,,,,,,,,,,,,2VNL50,train_y,blue_star,bottom_right,2025-09-16_16h35.41.149,HideSeek_v1,2022.2.5,59.9868868365216,
,,,,,,,,,,,,,,,1,0,1,0,1,0,1,0,,,,,,,,,,,,,,,,,,,,,,,,,,,,,,,conditions/schedules/train_y_first/blue_star_00/bottom_right/instructions/Slide14.png,conditions/schedules/train_y_first/blue_star_00/bottom_right/instructions/Audio14.wav,3932.3797321999446,3932.3658765599134,14,"[2.8477567001245916, 17.328987800050527, 16.243173300055787, 19.329763500019908, 4.340830100001767, 4.432354700053111, 4.969654900021851, 11.306384900119156, 6.075363100040704, 6.86750189983286, 10.101395899895579, 13.678575800033286, 17.151363199809566, 16.46459859982133]","[0.00022760010324418545, 0.0141569001134485, 0.00020819995552301407, 0.014629499986767769, 4.340839199954644, 0.014352299971506, 0.0002142000012099743, 0.00021059997379779816, 0.04619189980439842, 0.04889579978771508, 0.014809199841693044, 13.678584999870509, 0.014639499830082059, 16.464614699827507]",0,,,,,,,,,,,,,,,,,,,,,,,,,,,,,,,,,,,,,,,,,,,,,,,,,,,,,,,,,,,,,,,,,,,,,,,,,,,,,,,,,,,,,,,,,,,,,,,,,,,,,,,,,,,,,,,,,,,,,,,,,,,,2VNL50,train_y,blue_star,bottom_right,2025-09-16_16h35.41.149,HideSeek_v1,2022.2.5,59.9868868365216,
2,7,3,7,3,0,0,61,2,instr_dim1_1,,,,,,1,0,1,0,,,,,0,0,0,0,,,,,,,,,,,,,,,,,,,,,,,,,,,,,,,,,,,,,stimuli/alien_stimuli/61.png,conditions/schedules/train_y_first/blue_star_00/bottom_right/inputInstr_1.xlsx,stimuli/alien_stimuli/61.png,3948.940926699899,3948.940926699899,3948.940926699899,3948.940926699899,3948.946254780074,return,5.99862669990398,"[-0.16, -0.08, 0, 0.08, 0.16, 0.24, 0.32, 0.4, 0.48, 0.56]","[-0.4, -0.32, -0.24, -0.16, -0.08, 0, 0.08, 0.16, 0.24, 0.32]",3,3,7,7,0.0,0.0,3955.0861812999938,3955.0861812999938,3955.0861812999938,3955.0861812999938,3955.0861812999938,3955.0861812999938,3955.0861812999938,3955.084454419883,8.424840099876747,return,8.280764600029215,stimuli/alien_stimuli/61.png,61,7,2,,,,,,,,,,,,,,,,,,,,,,,,,,,,,,,,,,,,,,,,,,,,,,,,,,,,,,,,,,,,,,,,,,,,,,,,,,,,,,,,,,,,,,,,,2VNL50,train_y,blue_star,bottom_right,2025-09-16_16h35.41.149,HideSeek_v1,2022.2.5,59.9868868365216,
,,,,,,,,,,,30,,,,1,0,1,0,,,,,,,,,,,,,,,,,,,,,,,,,,,,,,,,,,,,,,,,,,,,,,,,,,,,,,,,,,,,,,,,,,,,,,,,,,,,,,21,0.7,0,0,99,1,30,0,conditions/schedules/train_y_first/blue_star_00/bottom_right/inputTrain_1.1.xlsx,99,1,1,1,0,,,,,,,,,,,,,,,,,,,,,,,,,,,,,,,,,,,,,,,,,,,,,,,,,,,,,,,,,,,,,,,,,,,,,,,,,,,2VNL50,train_y,blue_star,bottom_right,2025-09-16_16h35.41.149,HideSeek_v1,2022.2.5,59.9868868365216,
,,,,,,,,,,,,,,,2,0,2,0,0,0,0,0,,,,,,,,,,,,,,,,,,,,,,,,,,,,,,,conditions/schedules/train_y_first/blue_star_00/bottom_right/instructions/Slide15.png,conditions/schedules/train_y_first/blue_star_00/bottom_right/instructions/Audio15.wav,3963.5745280000847,3963.5750908799473,15,"[2.8477567001245916, 17.328987800050527, 16.243173300055787, 19.329763500019908, 4.340830100001767, 4.432354700053111, 4.969654900021851, 11.306384900119156, 6.075363100040704, 6.86750189983286, 10.101395899895579, 13.678575800033286, 17.151363199809566, 16.46459859982133, 44.66949829994701]","[0.00022760010324418545, 0.0141569001134485, 0.00020819995552301407, 0.014629499986767769, 4.340839199954644, 0.014352299971506, 0.0002142000012099743, 0.00021059997379779816, 0.04619189980439842, 0.04889579978771508, 0.014809199841693044, 13.678584999870509, 0.014639499830082059, 16.464614699827507, 44.66950690001249]",0,,,,,,,,,,,,,,,,,,,,,,,,,,,,,,,,,,,,,,,,,,,,,,,,,,,,,,,,,,,,,,,,,,,,,,,,,,,,,,,,,,,,,,,,,,,,,,,,,,,,,,,,,,,,,,,,,,,,,,,,,,,,2VNL50,train_y,blue_star,bottom_right,2025-09-16_16h35.41.149,HideSeek_v1,2022.2.5,59.9868868365216,
,,,,,,,,,,,,,,,2,0,2,0,1,0,1,0,,,,,,,,,,,,,,,,,,,,,,,,,,,,,,,conditions/schedules/train_y_first/blue_star_00/bottom_right/instructions/Slide16.png,conditions/schedules/train_y_first/blue_star_00/bottom_right/instructions/Audio16.wav,4008.3182409000583,4008.3129456999013,16,"[2.8477567001245916, 17.328987800050527, 16.243173300055787, 19.329763500019908, 4.340830100001767, 4.432354700053111, 4.969654900021851, 11.306384900119156, 6.075363100040704, 6.86750189983286, 10.101395899895579, 13.678575800033286, 17.151363199809566, 16.46459859982133, 44.66949829994701, 22.41038370016031]","[0.00022760010324418545, 0.0141569001134485, 0.00020819995552301407, 0.014629499986767769, 4.340839199954644, 0.014352299971506, 0.0002142000012099743, 0.00021059997379779816, 0.04619189980439842, 0.04889579978771508, 0.014809199841693044, 13.678584999870509, 0.014639499830082059, 16.464614699827507, 44.66950690001249, 22.41039210022427]",0,,,,,,,,,,,,,,,,,,,,,,,,,,,,,,,,,,,,,,,,,,,,,,,,,,,,,,,,,,,,,,,,,,,,,,,,,,,,,,,,,,,,,,,,,,,,,,,,,,,,,,,,,,,,,,,,,,,,,,,,,,,,2VNL50,train_y,blue_star,bottom_right,2025-09-16_16h35.41.149,HideSeek_v1,2022.2.5,59.9868868365216,
,5,0,5,4,0,4,65,,train_dim1_1,1,30,,,,2,0,2,0,,,,,,,,,0,0,0,0,0,0,0,0,0,0,0,0,,,,,,,,,,,,,,,,,,,,,,,,,stimuli/alien_stimuli/65.png,,,,,,,,,,,,,,,,,,,,,,,,,,,,,,,,,,,,,,,30,,,,,,,,4030.8335150999483,4030.8335150999483,4030.8335150999483,4030.8335150999483,4030.8335150999483,up,7.048324799863622,0,0,0,99,0.24,-0.32,up,6.9540253998711705,,,,,,,,,,,,,,,,,,,,,,,,,,,,,,,,,,,,,,,,,,,,,,,,,,,,,,,,,,,,2VNL50,train_y,blue_star,bottom_right,2025-09-16_16h35.41.149,HideSeek_v1,2022.2.5,59.9868868365216,
,5,0,5,4,0,4,65,,train_dim1_1,1,30,,,,2,0,2,0,,,,,,,,,0,0,0,0,0,0,0,0,1,0,1,0,,,,,,,,,,,,,,,,,,,,,,,,,,,,,,,,,,,,,,,,,,,,,,,,,,,,,,,,,,,,,,,,30,,,,,,,,4037.8670836000238,4037.8670836000238,4037.8670836000238,4037.8670836000238,4037.8670836000238,up,0.876812299946323,0,0,0,99,0.24,-0.24,up,0.7995070000179112,,,,,,,,,,,,,,,,,,,,,,,,,,,,,,,,,,,,,,,,,,,,,,,,,,,,,,,,,,,,2VNL50,train_y,blue_star,bottom_right,2025-09-16_16h35.41.149,HideSeek_v1,2022.2.5,59.9868868365216,
,5,0,5,4,0,4,65,,train_dim1_1,1,30,,,,2,0,2,0,,,,,,,,,0,0,0,0,0,0,0,0,2,0,2,0,,,,,,,,,,,,,,,,,,,,,,,,,,,,,,,,,,,,,,,,,,,,,,,,,,,,,,,,,,,,,,,,30,,,,,,,,4038.7511402000673,4038.7511402000673,4038.7511402000673,4038.7511402000673,4038.7511402000673,up,0.893030600156635,0,0,0,99,0.24,-0.15999999999999998,up,0.8186065000481904,,,,,,,,,,,,,,,,,,,,,,,,,,,,,,,,,,,,,,,,,,,,,,,,,,,,,,,,,,,,2VNL50,train_y,blue_star,bottom_right,2025-09-16_16h35.41.149,HideSeek_v1,2022.2.5,59.9868868365216,
,5,0,5,4,0,4,65,,train_dim1_1,1,30,,,,2,0,2,0,,,,,,,,,0,0,0,0,0,0,0,0,3,0,3,0,,,,,,,,,,,,,,,,,,,,,,,,,,,,,,,,,,,,,,,,,,,,,,,,,,,,,,,,,,,,,,,,30,,,,,,,,4039.6516138999723,4039.6516138999723,4039.6516138999723,4039.6516138999723,4039.6516138999723,up,0.9594523999840021,0,0,0,99,0.24,-0.07999999999999997,up,0.8718934000935405,,,,,,,,,,,,,,,,,,,,,,,,,,,,,,,,,,,,,,,,,,,,,,,,,,,,,,,,,,,,2VNL50,train_y,blue_star,bottom_right,2025-09-16_16h35.41.149,HideSeek_v1,2022.2.5,59.9868868365216,
,5,0,5,4,0,4,65,,train_dim1_1,1,30,,,,2,0,2,0,,,,,,,,,0,0,0,0,0,0,0,0,4,0,4,0,,,,,,,,,,,,,,,,,,,,,,,,,,,,,,,,,,,,,,,,,,,,,,,,,,,,,,,,,,,,,,,,30,,,,,,,,4040.6190786000807,4040.6190786000807,4040.6190786000807,4040.6190786000807,4040.6190786000807,up,0.7596921001095325,0,0,0,99,0.24,2.7755575615628914e-17,up,0.6717482998501509,,,,,,,,,,,,,,,,,,,,,,,,,,,,,,,,,,,,,,,,,,,,,,,,,,,,,,,,,,,,2VNL50,train_y,blue_star,bottom_right,2025-09-16_16h35.41.149,HideSeek_v1,2022.2.5,59.9868868365216,
,5,0,5,4,0,4,65,,train_dim1_1,1,30,,,,2,0,2,0,,,,,,,,,0,0,0,0,0,0,0,0,5,0,5,0,,,,,,,,,,,,,,,,,,,,,,,,,,,,,,,,,,,,,,,,,,,,,,,,,,,,,,,,,,,,,,,,30,,,,,,,,4041.385279699927,4041.385279699927,4041.385279699927,4041.385279699927,4041.385279699927,return,0.7439466000068933,0,1,0,0,0.24,2.7755575615628914e-17,return,0.6585804000496864,5,0,0.24,2.7755575615628914e-17,,,,,,,,,,,,,,,,,,,,,,,,,,,,,,,,,,,,,,,,,,,,,,,,,,,,,,,,2VNL50,train_y,blue_star,bottom_right,2025-09-16_16h35.41.149,HideSeek_v1,2022.2.5,59.9868868365216,
,8,2,8,7,0,5,66,,train_dim1_1,2,30,,,,2,0,2,0,,,,,,,,,0,0,0,0,0,1,1,1,0,0,0,0,,,,,,,,,,,,,,,,,,,,,,,,,stimuli/alien_stimuli/66.png,,,,,,,,,,,,,,,,,,,,,,,,,,,,,stimuli/alien_stimuli/65.png,65,5,3,,,,,,,30,,,,,,,,4060.559070199961,4060.559070199961,4060.559070199961,4060.559070199961,4060.559070199961,up,3.1902932999655604,0,1,0,99,0.48,-0.15999999999999998,up,3.0906195000279695,,,,,4058.987759999931,4060.559070199961,0.24,-0.08,0.32,0.0,-0.24000000000000002,0.24,0.24,0.24,-0.08,4043.705542499898,4043.705542499898,4043.705542499898,4043.705542499898,4043.705542499898,4043.705542499898,4043.705542499898,4043.705542499898,4043.6915962798757,15.39813069999218,return,15.264784700004384,,,,,,,,,,,,,,,,,,,,,,,,,,,,,,,,,2VNL50,train_y,blue_star,bottom_right,2025-09-16_16h35.41.149,HideSeek_v1,2022.2.5,59.9868868365216,
,8,2,8,7,0,5,66,,train_dim1_1,2,30,,,,2,0,2,0,,,,,,,,,0,0,0,0,0,1,1,1,1,0,1,0,,,,,,,,,,,,,,,,,,,,,,,,,,,,,,,,,,,,,,,,,,,,,,,,,,,,,,,,,,,,,,,,30,,,,,,,,4063.7424620999955,4063.7424620999955,4063.7424620999955,4063.7424620999955,4063.7424620999955,up,0.3055896998848766,0,1,0,99,0.48,-0.07999999999999997,up,0.22781069995835423,,,,,,,,,,,,,,,,,,,,,,,,,,,,,,,,,,,,,,,,,,,,,,,,,,,,,,,,,,,,2VNL50,train_y,blue_star,bottom_right,2025-09-16_16h35.41.149,HideSeek_v1,2022.2.5,59.9868868365216,
,8,2,8,7,0,5,66,,train_dim1_1,2,30,,,,2,0,2,0,,,,,,,,,0,0,0,0,0,1,1,1,2,0,2,0,,,,,,,,,,,,,,,,,,,,,,,,,,,,,,,,,,,,,,,,,,,,,,,,,,,,,,,,,,,,,,,,30,,,,,,,,4064.0544002000242,4064.0544002000242,4064.0544002000242,4064.0544002000242,4064.0544002000242,up,0.24320130003616214,0,1,0,99,0.48,2.7755575615628914e-17,up,0.16625490016303957,,,,,,,,,,,,,,,,,,,,,,,,,,,,,,,,,,,,,,,,,,,,,,,,,,,,,,,,,,,,2VNL50,train_y,blue_star,bottom_right,2025-09-16_16h35.41.149,HideSeek_v1,2022.2.5,59.9868868365216,
,8,2,8,7,0,5,66,,train_dim1_1,2,30,,,,2,0,2,0,,,,,,,,,0,0,0,0,0,1,1,1,3,0,3,0,,,,,,,,,,,,,,,,,,,,,,,,,,,,,,,,,,,,,,,,,,,,,,,,,,,,,,,,,,,,,,,,30,,,,,,,,4064.304800099926,4064.304800099926,4064.304800099926,4064.304800099926,4064.304800099926,up,0.22692560008727014,0,1,0,99,0.48,0.08000000000000003,up,0.15091510000638664,,,,,,,,,,,,,,,,,,,,,,,,,,,,,,,,,,,,,,,,,,,,,,,,,,,,,,,,,,,,2VNL50,train_y,blue_star,bottom_right,2025-09-16_16h35.41.149,HideSeek_v1,2022.2.5,59.9868868365216,
,8,2,8,7,0,5,66,,train_dim1_1,2,30,,,,2,0,2,0,,,,,,,,,0,0,0,0,0,1,1,1,4,0,4,0,,,,,,,,,,,,,,,,,,,,,,,,,,,,,,,,,,,,,,,,,,,,,,,,,,,,,,,,,,,,,,,,30,,,,,,,,4064.539841199992,4064.539841199992,4064.539841199992,4064.539841199992,4064.539841199992,up,2.59436669992283,0,1,0,99,0.48,0.16000000000000003,up,2.5099816999863833,,,,,,,,,,,,,,,,,,,,,,,,,,,,,,,,,,,,,,,,,,,,,,,,,,,,,,,,,,,,2VNL50,train_y,blue_star,bottom_right,2025-09-16_16h35.41.149,HideSeek_v1,2022.2.5,59.9868868365216,
,8,2,8,7,0,5,66,,train_dim1_1,2,30,,,,2,0,2,0,,,,,,,,,0,0,0,0,0,1,1,1,5,0,5,0,,,,,,,,,,,,,,,,,,,,,,,,,,,,,,,,,,,,,,,,,,,,,,,,,,,,,,,,,,,,,,,,30,,,,,,,,4067.1405736999586,4067.1405736999586,4067.1405736999586,4067.1405736999586,4067.1405736999586,return,1.8446318998467177,1,0,0,1,0.48,0.16000000000000003,return,1.772649300051853,10,0,0.48,0.16000000000000003,,,,,,,,,,,,,,,,,,,,,,,,,,,,,,,,,,,,,,,,,,,,,,,,,,,,,,,,2VNL50,train_y,blue_star,bottom_right,2025-09-16_16h35.41.149,HideSeek_v1,2022.2.5,59.9868868365216,
,7,3,7,6,0,3,64,,train_dim1_1,3,30,,,,2,0,2,0,,,,,,,,,0,0,0,0,0,2,2,2,0,0,0,0,,,,,,,,,,,,,,,,,,,,,,,,,stimuli/alien_stimuli/64.png,,,,,,,,,,,,,,,,,,,,,,,,,,,,,stimuli/alien_stimuli/66.png,66,8,4,,,,,,,30,,,,,,,,4078.4256388999056,4078.4256388999056,4078.4256388999056,4078.4256388999056,4078.4256388999056,left,3.6874891999177635,1,0,0,99,0.32,-0.16,left,3.6033165000844747,,,,,4076.869135899935,4078.4256388999056,0.48,0.16,0.4,0.0,-0.039999999999999994,0.48,0.48,0.48,0.16,4070.55543139996,4070.55543139996,4070.55543139996,4070.55543139996,4070.55543139996,4070.55543139996,4070.55543139996,4070.55543139996,4070.547281780071,6.42371749994345,return,6.283085000002757,,,,,,,,,,,,,,,,,,,,,,,,,,,,,,,,,2VNL50,train_y,blue_star,bottom_right,2025-09-16_16h35.41.149,HideSeek_v1,2022.2.5,59.9868868365216,
,7,3,7,6,0,3,64,,train_dim1_1,3,30,,,,2,0,2,0,,,,,,,,,0,0,0,0,0,2,2,2,1,0,1,0,,,,,,,,,,,,,,,,,,,,,,,,,,,,,,,,,,,,,,,,,,,,,,,,,,,,,,,,,,,,,,,,30,,,,,,,,4082.120594399981,4082.120594399981,4082.120594399981,4082.120594399981,4082.120594399981,left,0.32581750000827014,1,0,0,99,0.24,-0.16,left,0.24064520001411438,,,,,,,,,,,,,,,,,,,,,,,,,,,,,,,,,,,,,,,,,,,,,,,,,,,,,,,,,,,,2VNL50,train_y,blue_star,bottom_right,2025-09-16_16h35.41.149,HideSeek_v1,2022.2.5,59.9868868365216,
,7,3,7,6,0,3,64,,train_dim1_1,3,30,,,,2,0,2,0,,,,,,,,,0,0,0,0,0,2,2,2,2,0,2,0,,,,,,,,,,,,,,,,,,,,,,,,,,,,,,,,,,,,,,,,,,,,,,,,,,,,,,,,,,,,,,,,30,,,,,,,,4082.456858499907,4082.456858499907,4082.456858499907,4082.456858499907,4082.456858499907,left,0.27459130017086864,1,0,0,99,0.15999999999999998,-0.16,left,0.19924430013634264,,,,,,,,,,,,,,,,,,,,,,,,,,,,,,,,,,,,,,,,,,,,,,,,,,,,,,,,,,,,2VNL50,train_y,blue_star,bottom_right,2025-09-16_16h35.41.149,HideSeek_v1,2022.2.5,59.9868868365216,
,7,3,7,6,0,3,64,,train_dim1_1,3,30,,,,2,0,2,0,,,,,,,,,0,0,0,0,0,2,2,2,3,0,3,0,,,,,,,,,,,,,,,,,,,,,,,,,,,,,,,,,,,,,,,,,,,,,,,,,,,,,,,,,,,,,,,,30,,,,,,,,4082.7362691001035,4082.7362691001035,4082.7362691001035,4082.7362691001035,4082.7362691001035,return,1.4606009998824447,1,0,0,0,0.15999999999999998,-0.16,return,1.3821918999310583,10,-3,0.15999999999999998,-0.16,,,,,,,,,,,,,,,,,,,,,,,,,,,,,,,,,,,,,,,,,,,,,,,,,,,,,,,,2VNL50,train_y,blue_star,bottom_right,2025-09-16_16h35.41.149,HideSeek_v1,2022.2.5,59.9868868365216,
,5,1,5,2,0,1,62,,train_dim1_1,4,30,,,,2,0,2,0,,,,,,,,,0,0,0,0,0,3,3,3,0,0,0,0,,,,,,,,,,,,,,,,,,,,,,,,,stimuli/alien_stimuli/62.png,,,,,,,,,,,,,,,,,,,,,,,,,,,,,stimuli/alien_stimuli/64.png,64,7,5,,,,,,,30,,,,,,,,4090.402000900125,4090.402000900125,4090.402000900125,4090.402000900125,4090.402000900125,up,4.456691100029275,1,0,0,99,0.24,-0.24,up,4.374147600028664,,,,,4088.8455831001047,4090.402000900125,0.4,0.08,0.24,0.0,-0.04,0.4,0.4,0.4,0.08,4085.767327700043,4085.767327700043,4085.767327700043,4085.767327700043,4085.767327700043,4085.767327700043,4085.767327700043,4085.767327700043,4085.7597395798894,3.1880693999119103,return,3.055826500058174,,,,,,,,,,,,,,,,,,,,,,,,,,,,,,,,,2VNL50,train_y,blue_star,bottom_right,2025-09-16_16h35.41.149,HideSeek_v1,2022.2.5,59.9868868365216,
,5,1,5,2,0,1,62,,train_dim1_1,4,30,,,,2,0,2,0,,,,,,,,,0,0,0,0,0,3,3,3,1,0,1,0,,,,,,,,,,,,,,,,,,,,,,,,,,,,,,,,,,,,,,,,,,,,,,,,,,,,,,,,,,,,,,,,30,,,,,,,,4094.865106200101,4094.865106200101,4094.865106200101,4094.865106200101,4094.865106200101,up,0.6265988999512047,1,0,0,99,0.24,-0.15999999999999998,up,0.5449230999220163,,,,,,,,,,,,,,,,,,,,,,,,,,,,,,,,,,,,,,,,,,,,,,,,,,,,,,,,,,,,2VNL50,train_y,blue_star,bottom_right,2025-09-16_16h35.41.149,HideSeek_v1,2022.2.5,59.9868868365216,
,5,1,5,2,0,1,62,,train_dim1_1,4,30,,,,2,0,2,0,,,,,,,,,0,0,0,0,0,3,3,3,2,0,2,0,,,,,,,,,,,,,,,,,,,,,,,,,,,,,,,,,,,,,,,,,,,,,,,,,,,,,,,,,,,,,,,,30,,,,,,,,4095.498519799905,4095.498519799905,4095.498519799905,4095.498519799905,4095.498519799905,up,1.293529000133276,1,0,0,99,0.24,-0.07999999999999997,up,1.2132295002229512,,,,,,,,,,,,,,,,,,,,,,,,,,,,,,,,,,,,,,,,,,,,,,,,,,,,,,,,,,,,2VNL50,train_y,blue_star,bottom_right,2025-09-16_16h35.41.149,HideSeek_v1,2022.2.5,59.9868868365216,
,5,1,5,2,0,1,62,,train_dim1_1,4,30,,,,2,0,2,0,,,,,,,,,0,0,0,0,0,3,3,3,3,0,3,0,,,,,,,,,,,,,,,,,,,,,,,,,,,,,,,,,,,,,,,,,,,,,,,,,,,,,,,,,,,,,,,,30,,,,,,,,4096.800593700027,4096.800593700027,4096.800593700027,4096.800593700027,4096.800593700027,up,1.3428168999962509,1,0,0,99,0.24,2.7755575615628914e-17,up,1.2541751000098884,,,,,,,,,,,,,,,,,,,,,,,,,,,,,,,,,,,,,,,,,,,,,,,,,,,,,,,,,,,,2VNL50,train_y,blue_star,bottom_right,2025-09-16_16h35.41.149,HideSeek_v1,2022.2.5,59.9868868365216,
,5,1,5,2,0,1,62,,train_dim1_1,4,30,,,,2,0,2,0,,,,,,,,,0,0,0,0,0,3,3,3,4,0,4,0,,,,,,,,,,,,,,,,,,,,,,,,,,,,,,,,,,,,,,,,,,,,,,,,,,,,,,,,,,,,,,,,30,,,,,,,,4098.150971600087,4098.150971600087,4098.150971600087,4098.150971600087,4098.150971600087,return,0.4758325999137014,1,0,0,0,0.24,2.7755575615628914e-17,return,0.3943936999421567,14,-3,0.24,2.7755575615628914e-17,,,,,,,,,,,,,,,,,,,,,,,,,,,,,,,,,,,,,,,,,,,,,,,,,,,,,,,,2VNL50,train_y,blue_star,bottom_right,2025-09-16_16h35.41.149,HideSeek_v1,2022.2.5,59.9868868365216,
,8,3,8,3,0,0,61,,train_dim1_1,5,30,,,,2,0,2,0,,,,,,,,,0,0,0,0,0,4,4,4,0,0,0,0,,,,,,,,,,,,,,,,,,,,,,,,,stimuli/alien_stimuli/61.png,,,,,,,,,,,,,,,,,,,,,,,,,,,,,stimuli/alien_stimuli/62.png,62,5,6,,,,,,,30,,,,,,,,4105.946801400045,4105.946801400045,4105.946801400045,4105.946801400045,4105.946801400045,up,3.0216829001437873,1,0,0,99,0.48,-0.08,up,2.9393656000029296,,,,,4104.391986100003,4105.946801400045,0.24,-0.24,0.08,0.0,-0.28,0.24,0.24,0.24,-0.24,4100.197858799947,4100.197858799947,4100.197858799947,4100.197858799947,4100.197858799947,4100.197858799947,4100.197858799947,4100.197858799947,4100.188419079897,4.30590010015294,return,4.173850800143555,,,,,,,,,,,,,,,,,,,,,,,,,,,,,,,,,2VNL50,train_y,blue_star,bottom_right,2025-09-16_16h35.41.149,HideSeek_v1,2022.2.5,59.9868868365216,
,8,3,8,3,0,0,61,,train_dim1_1,5,30,,,,2,0,2,0,,,,,,,,,0,0,0,0,0,4,4,4,1,0,1,0,,,,,,,,,,,,,,,,,,,,,,,,,,,,,,,,,,,,,,,,,,,,,,,,,,,,,,,,,,,,,,,,30,,,,,,,,4108.975354599999,4108.975354599999,4108.975354599999,4108.975354599999,4108.975354599999,return,0.8935042999219149,1,1,0,0,0.48,-0.08,return,0.8109434000216424,15,-3,0.48,-0.08,,,,,,,,,,,,,,,,,,,,,,,,,,,,,,,,,,,,,,,,,,,,,,,,,,,,,,,,2VNL50,train_y,blue_star,bottom_right,2025-09-16_16h35.41.149,HideSeek_v1,2022.2.5,59.9868868365216,
,6,4,6,5,0,1,62,,train_dim1_1,6,30,,,,2,0,2,0,,,,,,,,,0,0,0,0,0,5,5,5,0,0,0,0,,,,,,,,,,,,,,,,,,,,,,,,,stimuli/alien_stimuli/62.png,,,,,,,,,,,,,,,,,,,,,,,,,,,,,stimuli/alien_stimuli/61.png,61,8,7,,,,,,,30,,,,,,,,4118.8062142001,4118.8062142001,4118.8062142001,4118.8062142001,4118.8062142001,return,5.692718000151217,1,1,0,0,0.32,-0.08,return,5.614906799979508,15,-3,0.32,-0.08,4117.252431600122,4118.8062142001,0.48,-0.16,0.0,0.0,-0.16,0.48,0.48,0.48,-0.16,4111.435591999907,4111.435591999907,4111.435591999907,4111.435591999907,4111.435591999907,4111.435591999907,4111.435591999907,4111.435591999907,4111.430765280058,5.923941699787974,return,5.790727100102231,,,,,,,,,,,,,,,,,,,,,,,,,,,,,,,,,2VNL50,train_y,blue_star,bottom_right,2025-09-16_16h35.41.149,HideSeek_v1,2022.2.5,59.9868868365216,
,6,3,6,6,0,3,64,,train_dim1_1,7,30,,,,2,0,2,0,,,,,,,,,0,0,0,0,0,6,6,6,0,0,0,0,,,,,,,,,,,,,,,,,,,,,,,,,stimuli/alien_stimuli/64.png,,,,,,,,,,,,,,,,,,,,,,,,,,,,,stimuli/alien_stimuli/62.png,62,6,8,,,,,,,30,,,,,,,,4130.73636380001,4130.73636380001,4130.73636380001,4130.73636380001,4130.73636380001,up,4.637194399954751,1,1,0,99,0.32,-0.08,up,4.5496977001894265,,,,,4129.179200100014,4130.73636380001,0.32,0,0.08,0.0,-0.04,0.32,0.32,0.32,0,4126.083594700089,4126.083594700089,4126.083594700089,4126.083594700089,4126.083594700089,4126.083594700089,4126.083594700089,4126.083594700089,4126.076885179873,3.2047607998829335,return,3.078328900039196,,,,,,,,,,,,,,,,,,,,,,,,,,,,,,,,,2VNL50,train_y,blue_star,bottom_right,2025-09-16_16h35.41.149,HideSeek_v1,2022.2.5,59.9868868365216,
,6,3,6,6,0,3,64,,train_dim1_1,7,30,,,,2,0,2,0,,,,,,,,,0,0,0,0,0,6,6,6,1,0,1,0,,,,,,,,,,,,,,,,,,,,,,,,,,,,,,,,,,,,,,,,,,,,,,,,,,,,,,,,,,,,,,,,30,,,,,,,,4135.383071199991,4135.383071199991,4135.383071199991,4135.383071199991,4135.383071199991,up,0.7417903000023216,1,1,0,99,0.32,0.0,up,0.6650122001301497,,,,,,,,,,,,,,,,,,,,,,,,,,,,,,,,,,,,,,,,,,,,,,,,,,,,,,,,,,,,2VNL50,train_y,blue_star,bottom_right,2025-09-16_16h35.41.149,HideSeek_v1,2022.2.5,59.9868868365216,
,6,3,6,6,0,3,64,,train_dim1_1,7,30,,,,2,0,2,0,,,,,,,,,0,0,0,0,0,6,6,6,2,0,2,0,,,,,,,,,,,,,,,,,,,,,,,,,,,,,,,,,,,,,,,,,,,,,,,,,,,,,,,,,,,,,,,,30,,,,,,,,4136.129839400062,4136.129839400062,4136.129839400062,4136.129839400062,4136.129839400062,up,0.593412300106138,1,1,0,99,0.32,0.08,up,0.5133895000908524,,,,,,,,,,,,,,,,,,,,,,,,,,,,,,,,,,,,,,,,,,,,,,,,,,,,,,,,,,,,2VNL50,train_y,blue_star,bottom_right,2025-09-16_16h35.41.149,HideSeek_v1,2022.2.5,59.9868868365216,
,6,3,6,6,0,3,64,,train_dim1_1,7,30,,,,2,0,2,0,,,,,,,,,0,0,0,0,0,6,6,6,3,0,3,0,,,,,,,,,,,,,,,,,,,,,,,,,,,,,,,,,,,,,,,,,,,,,,,,,,,,,,,,,,,,,,,,30,,,,,,,,4136.732950600097,4136.732950600097,4136.732950600097,4136.732950600097,4136.732950600097,up,0.5752046001143754,1,1,0,99,0.32,0.16,up,0.4881492001004517,,,,,,,,,,,,,,,,,,,,,,,,,,,,,,,,,,,,,,,,,,,,,,,,,,,,,,,,,,,,2VNL50,train_y,blue_star,bottom_right,2025-09-16_16h35.41.149,HideSeek_v1,2022.2.5,59.9868868365216,
,6,3,6,6,0,3,64,,train_dim1_1,7,30,,,,2,0,2,0,,,,,,,,,0,0,0,0,0,6,6,6,4,0,4,0,,,,,,,,,,,,,,,,,,,,,,,,,,,,,,,,,,,,,,,,,,,,,,,,,,,,,,,,,,,,,,,,30,,,,,,,,4137.3152489999775,4137.3152489999775,4137.3152489999775,4137.3152489999775,4137.3152489999775,return,0.7270456999540329,1,1,0,0,0.32,0.16,return,0.6426941000390798,19,-3,0.32,0.16,,,,,,,,,,,,,,,,,,,,,,,,,,,,,,,,,,,,,,,,,,,,,,,,,,,,,,,,2VNL50,train_y,blue_star,bottom_right,2025-09-16_16h35.41.149,HideSeek_v1,2022.2.5,59.9868868365216,
,9,2,9,2,0,0,61,,train_dim1_1,8,30,,,,2,0,2,0,,,,,,,,,0,0,0,0,0,7,7,7,0,0,0,0,,,,,,,,,,,,,,,,,,,,,,,,,stimuli/alien_stimuli/61.png,,,,,,,,,,,,,,,,,,,,,,,,,,,,,stimuli/alien_stimuli/64.png,64,6,9,,,,,,,30,,,,,,,,4144.195209200028,4144.195209200028,4144.195209200028,4144.195209200028,4144.195209200028,return,3.238409199984744,2,0,0,1,0.56,-0.24,return,3.1515838000923395,19,-3,0.56,-0.24,4142.64017509995,4144.195209200028,0.32,0.08,0.24,0.0,-0.04,0.32,0.32,0.32,0.08,4139.612454100046,4139.612454100046,4139.612454100046,4139.612454100046,4139.612454100046,4139.612454100046,4139.612454100046,4139.612454100046,4139.604431079957,3.138204500079155,return,3.0053989000152797,,,,,,,,,,,,,,,,,,,,,,,,,,,,,,,,,2VNL50,train_y,blue_star,bottom_right,2025-09-16_16h35.41.149,HideSeek_v1,2022.2.5,59.9868868365216,
,9,3,9,7,0,4,65,,train_dim1_1,9,30,,,,2,0,2,0,,,,,,,,,0,0,0,0,0,8,8,8,0,0,0,0,,,,,,,,,,,,,,,,,,,,,,,,,stimuli/alien_stimuli/65.png,,,,,,,,,,,,,,,,,,,,,,,,,,,,,stimuli/alien_stimuli/61.png,61,9,10,,,,,,,30,,,,,,,,4155.120386699913,4155.120386699913,4155.120386699913,4155.120386699913,4155.120386699913,up,2.2402447999920696,2,0,0,99,0.56,-0.08,up,2.1506240000016987,,,,,4153.565561499912,4155.120386699913,0.56,-0.24,0.0,0.0,-0.24,0.56,0.56,0.56,-0.24,4148.9882076000795,4148.9882076000795,4148.9882076000795,4148.9882076000795,4148.9882076000795,4148.9882076000795,4148.9882076000795,4148.9882076000795,4148.978568840027,4.672633199952543,return,4.546299600042403,,,,,,,,,,,,,,,,,,,,,,,,,,,,,,,,,2VNL50,train_y,blue_star,bottom_right,2025-09-16_16h35.41.149,HideSeek_v1,2022.2.5,59.9868868365216,
,9,3,9,7,0,4,65,,train_dim1_1,9,30,,,,2,0,2,0,,,,,,,,,0,0,0,0,0,8,8,8,1,0,1,0,,,,,,,,,,,,,,,,,,,,,,,,,,,,,,,,,,,,,,,,,,,,,,,,,,,,,,,,,,,,,,,,30,,,,,,,,4157.366266800091,4157.366266800091,4157.366266800091,4157.366266800091,4157.366266800091,up,0.25933839986100793,2,0,0,99,0.56,0.0,up,0.17634580004960299,,,,,,,,,,,,,,,,,,,,,,,,,,,,,,,,,,,,,,,,,,,,,,,,,,,,,,,,,,,,2VNL50,train_y,blue_star,bottom_right,2025-09-16_16h35.41.149,HideSeek_v1,2022.2.5,59.9868868365216,
,9,3,9,7,0,4,65,,train_dim1_1,9,30,,,,2,0,2,0,,,,,,,,,0,0,0,0,0,8,8,8,2,0,2,0,,,,,,,,,,,,,,,,,,,,,,,,,,,,,,,,,,,,,,,,,,,,,,,,,,,,,,,,,,,,,,,,30,,,,,,,,4157.635346600087,4157.635346600087,4157.635346600087,4157.635346600087,4157.635346600087,up,3.0765015000943094,2,0,0,99,0.56,0.08,up,3.002787899924442,,,,,,,,,,,,,,,,,,,,,,,,,,,,,,,,,,,,,,,,,,,,,,,,,,,,,,,,,,,,2VNL50,train_y,blue_star,bottom_right,2025-09-16_16h35.41.149,HideSeek_v1,2022.2.5,59.9868868365216,
,9,3,9,7,0,4,65,,train_dim1_1,9,30,,,,2,0,2,0,,,,,,,,,0,0,0,0,0,8,8,8,3,0,3,0,,,,,,,,,,,,,,,,,,,,,,,,,,,,,,,,,,,,,,,,,,,,,,,,,,,,,,,,,,,,,,,,30,,,,,,,,4160.720591299934,4160.720591299934,4160.720591299934,4160.720591299934,4160.720591299934,up,0.7249539999756962,2,0,0,99,0.56,0.16,up,0.6428612000308931,,,,,,,,,,,,,,,,,,,,,,,,,,,,,,,,,,,,,,,,,,,,,,,,,,,,,,,,,,,,2VNL50,train_y,blue_star,bottom_right,2025-09-16_16h35.41.149,HideSeek_v1,2022.2.5,59.9868868365216,
,9,3,9,7,0,4,65,,train_dim1_1,9,30,,,,2,0,2,0,,,,,,,,,0,0,0,0,0,8,8,8,4,0,4,0,,,,,,,,,,,,,,,,,,,,,,,,,,,,,,,,,,,,,,,,,,,,,,,,,,,,,,,,,,,,,,,,30,,,,,,,,4161.453404899919,4161.453404899919,4161.453404899919,4161.453404899919,4161.453404899919,up,0.6590633001178503,2,0,0,99,0.56,0.24,up,0.582622799789533,,,,,,,,,,,,,,,,,,,,,,,,,,,,,,,,,,,,,,,,,,,,,,,,,,,,,,,,,,,,2VNL50,train_y,blue_star,bottom_right,2025-09-16_16h35.41.149,HideSeek_v1,2022.2.5,59.9868868365216,
,9,3,9,7,0,4,65,,train_dim1_1,9,30,,,,2,0,2,0,,,,,,,,,0,0,0,0,0,8,8,8,5,0,5,0,,,,,,,,,,,,,,,,,,,,,,,,,,,,,,,,,,,,,,,,,,,,,,,,,,,,,,,,,,,,,,,,30,,,,,,,,4162.11916760006,4162.11916760006,4162.11916760006,4162.11916760006,4162.11916760006,return,0.7101087998598814,2,1,0,0,0.56,0.24,return,0.6284153000451624,24,-3,0.56,0.24,,,,,,,,,,,,,,,,,,,,,,,,,,,,,,,,,,,,,,,,,,,,,,,,,,,,,,,,2VNL50,train_y,blue_star,bottom_right,2025-09-16_16h35.41.149,HideSeek_v1,2022.2.5,59.9868868365216,
,7,2,7,7,0,5,66,,train_dim1_1,10,30,,,,2,0,2,0,,,,,,,,,0,0,0,0,0,9,9,9,0,0,0,0,,,,,,,,,,,,,,,,,,,,,,,,,stimuli/alien_stimuli/66.png,,,,,,,,,,,,,,,,,,,,,,,,,,,,,stimuli/alien_stimuli/65.png,65,9,11,,,,,,,30,,,,,,,,4168.536604099907,4168.536604099907,4168.536604099907,4168.536604099907,4168.536604099907,right,3.41761999996379,2,1,0,99,0.48000000000000004,-0.24,right,3.3314900000113994,,,,,4166.977361399913,4168.536604099907,0.56,0.16,0.32,0.0,0.0,0.56,0.56,0.56,0.16,4164.399801600026,4164.399801600026,4164.399801600026,4164.399801600026,4164.399801600026,4164.399801600026,4164.399801600026,4164.399801600026,4164.391678979877,2.6876530000008643,return,2.555665099993348,,,,,,,,,,,,,,,,,,,,,,,,,,,,,,,,,2VNL50,train_y,blue_star,bottom_right,2025-09-16_16h35.41.149,HideSeek_v1,2022.2.5,59.9868868365216,
,7,2,7,7,0,5,66,,train_dim1_1,10,30,,,,2,0,2,0,,,,,,,,,0,0,0,0,0,9,9,9,1,0,1,0,,,,,,,,,,,,,,,,,,,,,,,,,,,,,,,,,,,,,,,,,,,,,,,,,,,,,,,,,,,,,,,,30,,,,,,,,4171.960790300043,4171.960790300043,4171.960790300043,4171.960790300043,4171.960790300043,right,0.5433832998387516,2,1,0,99,0.56,-0.24,right,0.46384660014882684,,,,,,,,,,,,,,,,,,,,,,,,,,,,,,,,,,,,,,,,,,,,,,,,,,,,,,,,,,,,2VNL50,train_y,blue_star,bottom_right,2025-09-16_16h35.41.149,HideSeek_v1,2022.2.5,59.9868868365216,
,7,2,7,7,0,5,66,,train_dim1_1,10,30,,,,2,0,2,0,,,,,,,,,0,0,0,0,0,9,9,9,2,0,2,0,,,,,,,,,,,,,,,,,,,,,,,,,,,,,,,,,,,,,,,,,,,,,,,,,,,,,,,,,,,,,,,,30,,,,,,,,4172.511274999939,4172.511274999939,4172.511274999939,4172.511274999939,4172.511274999939,left,1.1274909998755902,2,1,0,99,0.48000000000000004,-0.24,left,1.0453894999809563,,,,,,,,,,,,,,,,,,,,,,,,,,,,,,,,,,,,,,,,,,,,,,,,,,,,,,,,,,,,2VNL50,train_y,blue_star,bottom_right,2025-09-16_16h35.41.149,HideSeek_v1,2022.2.5,59.9868868365216,
,7,2,7,7,0,5,66,,train_dim1_1,10,30,,,,2,0,2,0,,,,,,,,,0,0,0,0,0,9,9,9,3,0,3,0,,,,,,,,,,,,,,,,,,,,,,,,,,,,,,,,,,,,,,,,,,,,,,,,,,,,,,,,,,,,,,,,30,,,,,,,,4173.651970899897,4173.651970899897,4173.651970899897,4173.651970899897,4173.651970899897,left,0.7210852999705821,2,1,0,99,0.4,-0.24,left,0.6470182999037206,,,,,,,,,,,,,,,,,,,,,,,,,,,,,,,,,,,,,,,,,,,,,,,,,,,,,,,,,,,,2VNL50,train_y,blue_star,bottom_right,2025-09-16_16h35.41.149,HideSeek_v1,2022.2.5,59.9868868365216,
,7,2,7,7,0,5,66,,train_dim1_1,10,30,,,,2,0,2,0,,,,,,,,,0,0,0,0,0,9,9,9,4,0,4,0,,,,,,,,,,,,,,,,,,,,,,,,,,,,,,,,,,,,,,,,,,,,,,,,,,,,,,,,,,,,,,,,30,,,,,,,,4174.38300650008,4174.38300650008,4174.38300650008,4174.38300650008,4174.38300650008,up,1.1415087000932544,2,1,0,99,0.4,-0.15999999999999998,up,1.052312299842015,,,,,,,,,,,,,,,,,,,,,,,,,,,,,,,,,,,,,,,,,,,,,,,,,,,,,,,,,,,,2VNL50,train_y,blue_star,bottom_right,2025-09-16_16h35.41.149,HideSeek_v1,2022.2.5,59.9868868365216,
,7,2,7,7,0,5,66,,train_dim1_1,10,30,,,,2,0,2,0,,,,,,,,,0,0,0,0,0,9,9,9,5,0,5,0,,,,,,,,,,,,,,,,,,,,,,,,,,,,,,,,,,,,,,,,,,,,,,,,,,,,,,,,,,,,,,,,30,,,,,,,,4175.533135599922,4175.533135599922,4175.533135599922,4175.533135599922,4175.533135599922,up,0.7403447001706809,2,1,0,99,0.4,-0.07999999999999997,up,0.6550650000572205,,,,,,,,,,,,,,,,,,,,,,,,,,,,,,,,,,,,,,,,,,,,,,,,,,,,,,,,,,,,2VNL50,train_y,blue_star,bottom_right,2025-09-16_16h35.41.149,HideSeek_v1,2022.2.5,59.9868868365216,
,7,2,7,7,0,5,66,,train_dim1_1,10,30,,,,2,0,2,0,,,,,,,,,0,0,0,0,0,9,9,9,6,0,6,0,,,,,,,,,,,,,,,,,,,,,,,,,,,,,,,,,,,,,,,,,,,,,,,,,,,,,,,,,,,,,,,,30,,,,,,,,4176.2811928999145,4176.2811928999145,4176.2811928999145,4176.2811928999145,4176.2811928999145,up,0.5433219999540597,2,1,0,99,0.4,2.7755575615628914e-17,up,0.46447460004128516,,,,,,,,,,,,,,,,,,,,,,,,,,,,,,,,,,,,,,,,,,,,,,,,,,,,,,,,,,,,2VNL50,train_y,blue_star,bottom_right,2025-09-16_16h35.41.149,HideSeek_v1,2022.2.5,59.9868868365216,
,7,2,7,7,0,5,66,,train_dim1_1,10,30,,,,2,0,2,0,,,,,,,,,0,0,0,0,0,9,9,9,7,0,7,0,,,,,,,,,,,,,,,,,,,,,,,,,,,,,,,,,,,,,,,,,,,,,,,,,,,,,,,,,,,,,,,,30,,,,,,,,4176.831499400083,4176.831499400083,4176.831499400083,4176.831499400083,4176.831499400083,up,0.9105185999069363,2,1,0,99,0.4,0.08000000000000003,up,0.8331871998962015,,,,,,,,,,,,,,,,,,,,,,,,,,,,,,,,,,,,,,,,,,,,,,,,,,,,,,,,,,,,2VNL50,train_y,blue_star,bottom_right,2025-09-16_16h35.41.149,HideSeek_v1,2022.2.5,59.9868868365216,
,7,2,7,7,0,5,66,,train_dim1_1,10,30,,,,2,0,2,0,,,,,,,,,0,0,0,0,0,9,9,9,8,0,8,0,,,,,,,,,,,,,,,,,,,,,,,,,,,,,,,,,,,,,,,,,,,,,,,,,,,,,,,,,,,,,,,,30,,,,,,,,4177.748928799992,4177.748928799992,4177.748928799992,4177.748928799992,4177.748928799992,return,0.5101195001043379,2,1,0,0,0.4,0.08000000000000003,return,0.43020429997704923,28,-3,0.4,0.08000000000000003,,,,,,,,,,,,,,,,,,,,,,,,,,,,,,,,,,,,,,,,,,,,,,,,,,,,,,,,2VNL50,train_y,blue_star,bottom_right,2025-09-16_16h35.41.149,HideSeek_v1,2022.2.5,59.9868868365216,
,9,1,9,5,0,4,65,,train_dim1_1,11,30,,,,2,0,2,0,,,,,,,,,0,0,0,0,0,10,10,10,0,0,0,0,,,,,,,,,,,,,,,,,,,,,,,,,stimuli/alien_stimuli/65.png,,,,,,,,,,,,,,,,,,,,,,,,,,,,,stimuli/alien_stimuli/66.png,66,7,12,,,,,,,30,,,,,,,,4183.977104299935,4183.977104299935,4183.977104299935,4183.977104299935,4183.977104299935,up,2.306206100154668,2,1,0,99,0.56,-0.24,up,2.2207406000234187,,,,,4182.423245599959,4183.977104299935,0.4,0.16,0.4,0.0,-0.039999999999999994,0.4,0.4,0.4,0.16,4179.825934499968,4179.825934499968,4179.825934499968,4179.825934499968,4179.825934499968,4179.825934499968,4179.825934499968,4179.825934499968,4179.8211980799915,2.704272900009528,return,2.5783873999025673,,,,,,,,,,,,,,,,,,,,,,,,,,,,,,,,,2VNL50,train_y,blue_star,bottom_right,2025-09-16_16h35.41.149,HideSeek_v1,2022.2.5,59.9868868365216,
,9,1,9,5,0,4,65,,train_dim1_1,11,30,,,,2,0,2,0,,,,,,,,,0,0,0,0,0,10,10,10,1,0,1,0,,,,,,,,,,,,,,,,,,,,,,,,,,,,,,,,,,,,,,,,,,,,,,,,,,,,,,,,,,,,,,,,30,,,,,,,,4186.29467480001,4186.29467480001,4186.29467480001,4186.29467480001,4186.29467480001,up,0.20564639987424016,2,1,0,99,0.56,-0.15999999999999998,up,0.12883739988319576,,,,,,,,,,,,,,,,,,,,,,,,,,,,,,,,,,,,,,,,,,,,,,,,,,,,,,,,,,,,2VNL50,train_y,blue_star,bottom_right,2025-09-16_16h35.41.149,HideSeek_v1,2022.2.5,59.9868868365216,
,9,1,9,5,0,4,65,,train_dim1_1,11,30,,,,2,0,2,0,,,,,,,,,0,0,0,0,0,10,10,10,2,0,2,0,,,,,,,,,,,,,,,,,,,,,,,,,,,,,,,,,,,,,,,,,,,,,,,,,,,,,,,,,,,,,,,,30,,,,,,,,4186.506246200064,4186.506246200064,4186.506246200064,4186.506246200064,4186.506246200064,up,0.2100530001334846,2,1,0,99,0.56,-0.07999999999999997,up,0.1329189999960363,,,,,,,,,,,,,,,,,,,,,,,,,,,,,,,,,,,,,,,,,,,,,,,,,,,,,,,,,,,,2VNL50,train_y,blue_star,bottom_right,2025-09-16_16h35.41.149,HideSeek_v1,2022.2.5,59.9868868365216,
,9,1,9,5,0,4,65,,train_dim1_1,11,30,,,,2,0,2,0,,,,,,,,,0,0,0,0,0,10,10,10,3,0,3,0,,,,,,,,,,,,,,,,,,,,,,,,,,,,,,,,,,,,,,,,,,,,,,,,,,,,,,,,,,,,,,,,30,,,,,,,,4186.7253173000645,4186.7253173000645,4186.7253173000645,4186.7253173000645,4186.7253173000645,up,0.27401060005649924,2,1,0,99,0.56,2.7755575615628914e-17,up,0.19016170012764633,,,,,,,,,,,,,,,,,,,,,,,,,,,,,,,,,,,,,,,,,,,,,,,,,,,,,,,,,,,,2VNL50,train_y,blue_star,bottom_right,2025-09-16_16h35.41.149,HideSeek_v1,2022.2.5,59.9868868365216,
,9,1,9,5,0,4,65,,train_dim1_1,11,30,,,,2,0,2,0,,,,,,,,,0,0,0,0,0,10,10,10,4,0,4,0,,,,,,,,,,,,,,,,,,,,,,,,,,,,,,,,,,,,,,,,,,,,,,,,,,,,,,,,,,,,,,,,30,,,,,,,,4187.009970899904,4187.009970899904,4187.009970899904,4187.009970899904,4187.009970899904,return,1.0748992001172155,3,0,0,1,0.56,2.7755575615628914e-17,return,0.9898926001042128,32,-3,0.56,2.7755575615628914e-17,,,,,,,,,,,,,,,,,,,,,,,,,,,,,,,,,,,,,,,,,,,,,,,,,,,,,,,,2VNL50,train_y,blue_star,bottom_right,2025-09-16_16h35.41.149,HideSeek_v1,2022.2.5,59.9868868365216,
,5,0,5,0,0,0,61,,train_dim1_1,12,30,,,,2,0,2,0,,,,,,,,,0,0,0,0,0,11,11,11,0,0,0,0,,,,,,,,,,,,,,,,,,,,,,,,,stimuli/alien_stimuli/61.png,,,,,,,,,,,,,,,,,,,,,,,,,,,,,stimuli/alien_stimuli/65.png,65,9,13,,,,,,,30,,,,,,,,4193.517225600081,4193.517225600081,4193.517225600081,4193.517225600081,4193.517225600081,return,2.2062553998548537,4,0,0,1,0.24,-0.4,return,2.1192800998687744,32,-3,0.24,-0.4,4191.964699600125,4193.517225600081,0.56,0,0.32,0.0,-0.16,0.56,0.56,0.56,0,4189.635437000077,4189.635437000077,4189.635437000077,4189.635437000077,4189.635437000077,4189.635437000077,4189.635437000077,4189.635437000077,4189.629334839946,2.4206795999780297,return,2.3066590998787433,,,,,,,,,,,,,,,,,,,,,,,,,,,,,,,,,2VNL50,train_y,blue_star,bottom_right,2025-09-16_16h35.41.149,HideSeek_v1,2022.2.5,59.9868868365216,
,9,3,9,4,0,1,62,,train_dim1_1,13,30,,,,2,0,2,0,,,,,,,,,0,0,0,0,0,12,12,12,0,0,0,0,,,,,,,,,,,,,,,,,,,,,,,,,stimuli/alien_stimuli/62.png,,,,,,,,,,,,,,,,,,,,,,,,,,,,,stimuli/alien_stimuli/61.png,61,5,14,,,,,,,30,,,,,,,,4200.529410500079,4200.529410500079,4200.529410500079,4200.529410500079,4200.529410500079,return,1.486207699868828,4,1,0,0,0.56,-0.16,return,1.4054592000320554,32,-3,0.56,-0.16,4198.97047280008,4200.529410500079,0.24,-0.4,0.0,0.0,-0.4,0.24,0.24,0.24,-0.4,4197.293818900129,4197.293818900129,4197.293818900129,4197.293818900129,4197.293818900129,4197.293818900129,4197.293818900129,4197.293818900129,4197.285589739867,1.7705484998878092,return,1.6459730002097785,,,,,,,,,,,,,,,,,,,,,,,,,,,,,,,,,2VNL50,train_y,blue_star,bottom_right,2025-09-16_16h35.41.149,HideSeek_v1,2022.2.5,59.9868868365216,
,7,2,7,7,0,5,66,,train_dim1_1,14,30,,,,2,0,2,0,,,,,,,,,0,0,0,0,0,13,13,13,0,0,0,0,,,,,,,,,,,,,,,,,,,,,,,,,stimuli/alien_stimuli/66.png,,,,,,,,,,,,,,,,,,,,,,,,,,,,,stimuli/alien_stimuli/62.png,62,9,15,,,,,,,30,,,,,,,,4209.949487800011,4209.949487800011,4209.949487800011,4209.949487800011,4209.949487800011,left,3.6064844999928027,4,1,0,99,0.32,-0.24,left,3.5193674000911415,,,,,4208.394908099901,4209.949487800011,0.56,-0.08,0.08,0.0,-0.12,0.56,0.56,0.56,-0.08,4203.571934900014,4203.571934900014,4203.571934900014,4203.571934900014,4203.571934900014,4203.571934900014,4203.571934900014,4203.571934900014,4203.557682339987,4.922416600165889,return,4.797145300079137,,,,,,,,,,,,,,,,,,,,,,,,,,,,,,,,,2VNL50,train_y,blue_star,bottom_right,2025-09-16_16h35.41.149,HideSeek_v1,2022.2.5,59.9868868365216,
,7,2,7,7,0,5,66,,train_dim1_1,14,30,,,,2,0,2,0,,,,,,,,,0,0,0,0,0,13,13,13,1,0,1,0,,,,,,,,,,,,,,,,,,,,,,,,,,,,,,,,,,,,,,,,,,,,,,,,,,,,,,,,,,,,,,,,30,,,,,,,,4213.563872599974,4213.563872599974,4213.563872599974,4213.563872599974,4213.563872599974,left,0.4085962001699954,4,1,0,99,0.24,-0.24,left,0.3258301999885589,,,,,,,,,,,,,,,,,,,,,,,,,,,,,,,,,,,,,,,,,,,,,,,,,,,,,,,,,,,,2VNL50,train_y,blue_star,bottom_right,2025-09-16_16h35.41.149,HideSeek_v1,2022.2.5,59.9868868365216,
,7,2,7,7,0,5,66,,train_dim1_1,14,30,,,,2,0,2,0,,,,,,,,,0,0,0,0,0,13,13,13,2,0,2,0,,,,,,,,,,,,,,,,,,,,,,,,,,,,,,,,,,,,,,,,,,,,,,,,,,,,,,,,,,,,,,,,30,,,,,,,,4213.9792057999875,4213.9792057999875,4213.9792057999875,4213.9792057999875,4213.9792057999875,left,0.3271403000690043,4,1,0,99,0.15999999999999998,-0.24,left,0.23837180016562343,,,,,,,,,,,,,,,,,,,,,,,,,,,,,,,,,,,,,,,,,,,,,,,,,,,,,,,,,,,,2VNL50,train_y,blue_star,bottom_right,2025-09-16_16h35.41.149,HideSeek_v1,2022.2.5,59.9868868365216,
,7,2,7,7,0,5,66,,train_dim1_1,14,30,,,,2,0,2,0,,,,,,,,,0,0,0,0,0,13,13,13,3,0,3,0,,,,,,,,,,,,,,,,,,,,,,,,,,,,,,,,,,,,,,,,,,,,,,,,,,,,,,,,,,,,,,,,30,,,,,,,,4214.31260220008,4214.31260220008,4214.31260220008,4214.31260220008,4214.31260220008,left,0.5096642998978496,4,1,0,99,0.07999999999999997,-0.24,left,0.42815300007350743,,,,,,,,,,,,,,,,,,,,,,,,,,,,,,,,,,,,,,,,,,,,,,,,,,,,,,,,,,,,2VNL50,train_y,blue_star,bottom_right,2025-09-16_16h35.41.149,HideSeek_v1,2022.2.5,59.9868868365216,
,7,2,7,7,0,5,66,,train_dim1_1,14,30,,,,2,0,2,0,,,,,,,,,0,0,0,0,0,13,13,13,4,0,4,0,,,,,,,,,,,,,,,,,,,,,,,,,,,,,,,,,,,,,,,,,,,,,,,,,,,,,,,,,,,,,,,,30,,,,,,,,4214.8295183999,4214.8295183999,4214.8295183999,4214.8295183999,4214.8295183999,return,0.8445975999347866,4,0,0,0,0.07999999999999997,-0.24,return,0.7640376000199467,32,-7,0.07999999999999997,-0.24,,,,,,,,,,,,,,,,,,,,,,,,,,,,,,,,,,,,,,,,,,,,,,,,,,,,,,,,2VNL50,train_y,blue_star,bottom_right,2025-09-16_16h35.41.149,HideSeek_v1,2022.2.5,59.9868868365216,
,6,4,6,7,0,3,64,,train_dim1_1,15,30,,,,2,0,2,0,,,,,,,,,0,0,0,0,0,14,14,14,0,0,0,0,,,,,,,,,,,,,,,,,,,,,,,,,stimuli/alien_stimuli/64.png,,,,,,,,,,,,,,,,,,,,,,,,,,,,,stimuli/alien_stimuli/66.png,66,7,16,,,,,,,30,,,,,,,,4222.994402599987,4222.994402599987,4222.994402599987,4222.994402599987,4222.994402599987,up,4.388351500034332,4,0,0,99,0.32,0.0,up,4.309327899944037,,,,,4221.438911499921,4222.994402599987,0.4,0.16,0.4,0.0,-0.039999999999999994,0.4,0.4,0.4,0.16,4217.227739199996,4217.227739199996,4217.227739199996,4217.227739199996,4217.227739199996,4217.227739199996,4217.227739199996,4217.227739199996,4217.218989439961,4.305578100029379,return,4.193461999995634,,,,,,,,,,,,,,,,,,,,,,,,,,,,,,,,,2VNL50,train_y,blue_star,bottom_right,2025-09-16_16h35.41.149,HideSeek_v1,2022.2.5,59.9868868365216,
,6,4,6,7,0,3,64,,train_dim1_1,15,30,,,,2,0,2,0,,,,,,,,,0,0,0,0,0,14,14,14,1,0,1,0,,,,,,,,,,,,,,,,,,,,,,,,,,,,,,,,,,,,,,,,,,,,,,,,,,,,,,,,,,,,,,,,30,,,,,,,,4227.393000199925,4227.393000199925,4227.393000199925,4227.393000199925,4227.393000199925,up,0.22465929994359612,4,0,0,99,0.32,0.08,up,0.14128559990786016,,,,,,,,,,,,,,,,,,,,,,,,,,,,,,,,,,,,,,,,,,,,,,,,,,,,,,,,,,,,2VNL50,train_y,blue_star,bottom_right,2025-09-16_16h35.41.149,HideSeek_v1,2022.2.5,59.9868868365216,
,6,4,6,7,0,3,64,,train_dim1_1,15,30,,,,2,0,2,0,,,,,,,,,0,0,0,0,0,14,14,14,2,0,2,0,,,,,,,,,,,,,,,,,,,,,,,,,,,,,,,,,,,,,,,,,,,,,,,,,,,,,,,,,,,,,,,,30,,,,,,,,4227.623334300006,4227.623334300006,4227.623334300006,4227.623334300006,4227.623334300006,up,0.2098107999190688,4,0,0,99,0.32,0.16,up,0.13301340001635253,,,,,,,,,,,,,,,,,,,,,,,,,,,,,,,,,,,,,,,,,,,,,,,,,,,,,,,,,,,,2VNL50,train_y,blue_star,bottom_right,2025-09-16_16h35.41.149,HideSeek_v1,2022.2.5,59.9868868365216,
,6,4,6,7,0,3,64,,train_dim1_1,15,30,,,,2,0,2,0,,,,,,,,,0,0,0,0,0,14,14,14,3,0,3,0,,,,,,,,,,,,,,,,,,,,,,,,,,,,,,,,,,,,,,,,,,,,,,,,,,,,,,,,,,,,,,,,30,,,,,,,,4227.843537699897,4227.843537699897,4227.843537699897,4227.843537699897,4227.843537699897,up,0.22302479995414615,4,0,0,99,0.32,0.24,up,0.1388471000827849,,,,,,,,,,,,,,,,,,,,,,,,,,,,,,,,,,,,,,,,,,,,,,,,,,,,,,,,,,,,2VNL50,train_y,blue_star,bottom_right,2025-09-16_16h35.41.149,HideSeek_v1,2022.2.5,59.9868868365216,
,6,4,6,7,0,3,64,,train_dim1_1,15,30,,,,2,0,2,0,,,,,,,,,0,0,0,0,0,14,14,14,4,0,4,0,,,,,,,,,,,,,,,,,,,,,,,,,,,,,,,,,,,,,,,,,,,,,,,,,,,,,,,,,,,,,,,,30,,,,,,,,4228.074091600021,4228.074091600021,4228.074091600021,4228.074091600021,4228.074091600021,return,1.1273320999462157,4,1,0,0,0.32,0.24,return,1.0499962999019772,36,-7,0.32,0.24,,,,,,,,,,,,,,,,,,,,,,,,,,,,,,,,,,,,,,,,,,,,,,,,,,,,,,,,2VNL50,train_y,blue_star,bottom_right,2025-09-16_16h35.41.149,HideSeek_v1,2022.2.5,59.9868868365216,
,9,0,9,4,0,4,65,,train_dim1_1,16,30,,,,2,0,2,0,,,,,,,,,0,0,0,0,0,15,15,15,0,0,0,0,,,,,,,,,,,,,,,,,,,,,,,,,stimuli/alien_stimuli/65.png,,,,,,,,,,,,,,,,,,,,,,,,,,,,,stimuli/alien_stimuli/64.png,64,6,17,,,,,,,30,,,,,,,,4234.459083500085,4234.459083500085,4234.459083500085,4234.459083500085,4234.459083500085,up,3.4492105999961495,4,1,0,99,0.56,-0.32,up,3.3657315000891685,,,,,4232.89862140012,4234.459083500085,0.32,0.16,0.24,0.0,0.04,0.32,0.32,0.32,0.16,4230.764030399965,4230.764030399965,4230.764030399965,4230.764030399965,4230.764030399965,4230.764030399965,4230.764030399965,4230.764030399965,4230.763291880046,2.2374307001009583,return,2.102273200172931,,,,,,,,,,,,,,,,,,,,,,,,,,,,,,,,,2VNL50,train_y,blue_star,bottom_right,2025-09-16_16h35.41.149,HideSeek_v1,2022.2.5,59.9868868365216,
,9,0,9,4,0,4,65,,train_dim1_1,16,30,,,,2,0,2,0,,,,,,,,,0,0,0,0,0,15,15,15,1,0,1,0,,,,,,,,,,,,,,,,,,,,,,,,,,,,,,,,,,,,,,,,,,,,,,,,,,,,,,,,,,,,,,,,30,,,,,,,,4237.9148291000165,4237.9148291000165,4237.9148291000165,4237.9148291000165,4237.9148291000165,up,0.5932517999317497,4,1,0,99,0.56,-0.24,up,0.5120097000617534,,,,,,,,,,,,,,,,,,,,,,,,,,,,,,,,,,,,,,,,,,,,,,,,,,,,,,,,,,,,2VNL50,train_y,blue_star,bottom_right,2025-09-16_16h35.41.149,HideSeek_v1,2022.2.5,59.9868868365216,
,9,0,9,4,0,4,65,,train_dim1_1,16,30,,,,2,0,2,0,,,,,,,,,0,0,0,0,0,15,15,15,2,0,2,0,,,,,,,,,,,,,,,,,,,,,,,,,,,,,,,,,,,,,,,,,,,,,,,,,,,,,,,,,,,,,,,,30,,,,,,,,4238.515774199972,4238.515774199972,4238.515774199972,4238.515774199972,4238.515774199972,up,0.9931501999963075,4,1,0,99,0.56,-0.15999999999999998,up,0.9098227999638766,,,,,,,,,,,,,,,,,,,,,,,,,,,,,,,,,,,,,,,,,,,,,,,,,,,,,,,,,,,,2VNL50,train_y,blue_star,bottom_right,2025-09-16_16h35.41.149,HideSeek_v1,2022.2.5,59.9868868365216,
,9,0,9,4,0,4,65,,train_dim1_1,16,30,,,,2,0,2,0,,,,,,,,,0,0,0,0,0,15,15,15,3,0,3,0,,,,,,,,,,,,,,,,,,,,,,,,,,,,,,,,,,,,,,,,,,,,,,,,,,,,,,,,,,,,,,,,30,,,,,,,,4239.519240000052,4239.519240000052,4239.519240000052,4239.519240000052,4239.519240000052,up,0.5908744998741895,4,1,0,99,0.56,-0.07999999999999997,up,0.508034799946472,,,,,,,,,,,,,,,,,,,,,,,,,,,,,,,,,,,,,,,,,,,,,,,,,,,,,,,,,,,,2VNL50,train_y,blue_star,bottom_right,2025-09-16_16h35.41.149,HideSeek_v1,2022.2.5,59.9868868365216,
,9,0,9,4,0,4,65,,train_dim1_1,16,30,,,,2,0,2,0,,,,,,,,,0,0,0,0,0,15,15,15,4,0,4,0,,,,,,,,,,,,,,,,,,,,,,,,,,,,,,,,,,,,,,,,,,,,,,,,,,,,,,,,,,,,,,,,30,,,,,,,,4240.120776700089,4240.120776700089,4240.120776700089,4240.120776700089,4240.120776700089,return,0.6395173000637442,5,0,0,1,0.56,-0.07999999999999997,return,0.5571941998787224,40,-7,0.56,-0.07999999999999997,,,,,,,,,,,,,,,,,,,,,,,,,,,,,,,,,,,,,,,,,,,,,,,,,,,,,,,,2VNL50,train_y,blue_star,bottom_right,2025-09-16_16h35.41.149,HideSeek_v1,2022.2.5,59.9868868365216,
,8,3,8,6,0,3,64,,train_dim1_1,17,30,,,,2,0,2,0,,,,,,,,,0,0,0,0,0,16,16,16,0,0,0,0,,,,,,,,,,,,,,,,,,,,,,,,,stimuli/alien_stimuli/64.png,,,,,,,,,,,,,,,,,,,,,,,,,,,,,stimuli/alien_stimuli/65.png,65,9,18,,,,,,,30,,,,,,,,4245.529989199946,4245.529989199946,4245.529989199946,4245.529989199946,4245.529989199946,up,3.8711548999417573,5,0,0,99,0.48,-0.08,up,3.7901620999909937,,,,,4243.974399399944,4245.529989199946,0.56,-0.08,0.32,0.0,-0.24000000000000002,0.56,0.56,0.56,-0.08,4242.335939000128,4242.335939000128,4242.335939000128,4242.335939000128,4242.335939000128,4242.335939000128,4242.335939000128,4242.335939000128,4242.32288437991,1.7535266000777483,return,1.6113684000447392,,,,,,,,,,,,,,,,,,,,,,,,,,,,,,,,,2VNL50,train_y,blue_star,bottom_right,2025-09-16_16h35.41.149,HideSeek_v1,2022.2.5,59.9868868365216,
,8,3,8,6,0,3,64,,train_dim1_1,17,30,,,,2,0,2,0,,,,,,,,,0,0,0,0,0,16,16,16,1,0,1,0,,,,,,,,,,,,,,,,,,,,,,,,,,,,,,,,,,,,,,,,,,,,,,,,,,,,,,,,,,,,,,,,30,,,,,,,,4249.409315499943,4249.409315499943,4249.409315499943,4249.409315499943,4249.409315499943,up,0.5924788999836892,5,0,0,99,0.48,0.0,up,0.5123457000590861,,,,,,,,,,,,,,,,,,,,,,,,,,,,,,,,,,,,,,,,,,,,,,,,,,,,,,,,,,,,2VNL50,train_y,blue_star,bottom_right,2025-09-16_16h35.41.149,HideSeek_v1,2022.2.5,59.9868868365216,
,8,3,8,6,0,3,64,,train_dim1_1,17,30,,,,2,0,2,0,,,,,,,,,0,0,0,0,0,16,16,16,2,0,2,0,,,,,,,,,,,,,,,,,,,,,,,,,,,,,,,,,,,,,,,,,,,,,,,,,,,,,,,,,,,,,,,,30,,,,,,,,4250.008243500022,4250.008243500022,4250.008243500022,4250.008243500022,4250.008243500022,up,0.5931196000892669,5,0,0,99,0.48,0.08,up,0.5147767001762986,,,,,,,,,,,,,,,,,,,,,,,,,,,,,,,,,,,,,,,,,,,,,,,,,,,,,,,,,,,,2VNL50,train_y,blue_star,bottom_right,2025-09-16_16h35.41.149,HideSeek_v1,2022.2.5,59.9868868365216,
,8,3,8,6,0,3,64,,train_dim1_1,17,30,,,,2,0,2,0,,,,,,,,,0,0,0,0,0,16,16,16,3,0,3,0,,,,,,,,,,,,,,,,,,,,,,,,,,,,,,,,,,,,,,,,,,,,,,,,,,,,,,,,,,,,,,,,30,,,,,,,,4250.608653600095,4250.608653600095,4250.608653600095,4250.608653600095,4250.608653600095,return,0.5938404998742044,6,0,0,1,0.48,0.08,return,0.5125069001223892,43,-7,0.48,0.08,,,,,,,,,,,,,,,,,,,,,,,,,,,,,,,,,,,,,,,,,,,,,,,,,,,,,,,,2VNL50,train_y,blue_star,bottom_right,2025-09-16_16h35.41.149,HideSeek_v1,2022.2.5,59.9868868365216,
,7,1,7,1,0,0,61,,train_dim1_1,18,30,,,,2,0,2,0,,,,,,,,,0,0,0,0,0,17,17,17,0,0,0,0,,,,,,,,,,,,,,,,,,,,,,,,,stimuli/alien_stimuli/61.png,,,,,,,,,,,,,,,,,,,,,,,,,,,,,stimuli/alien_stimuli/64.png,64,8,19,,,,,,,30,,,,,,,,4255.6203159000725,4255.6203159000725,4255.6203159000725,4255.6203159000725,4255.6203159000725,return,2.755250899819657,7,0,0,1,0.4,-0.32,return,2.6731572998687625,43,-7,0.4,-0.32,4254.06599500007,4255.6203159000725,0.48,0.08,0.24,0.0,-0.04,0.48,0.48,0.48,0.08,4252.771659000078,4252.771659000078,4252.771659000078,4252.771659000078,4252.771659000078,4252.771659000078,4252.771659000078,4252.771659000078,4252.764785280009,1.4033806000370532,return,1.2729704999364913,,,,,,,,,,,,,,,,,,,,,,,,,,,,,,,,,2VNL50,train_y,blue_star,bottom_right,2025-09-16_16h35.41.149,HideSeek_v1,2022.2.5,59.9868868365216,
,5,4,5,5,0,1,62,,train_dim1_1,19,30,,,,2,0,2,0,,,,,,,,,0,0,0,0,0,18,18,18,0,0,0,0,,,,,,,,,,,,,,,,,,,,,,,,,stimuli/alien_stimuli/62.png,,,,,,,,,,,,,,,,,,,,,,,,,,,,,stimuli/alien_stimuli/61.png,61,7,20,,,,,,,30,,,,,,,,4264.47848749999,4264.47848749999,4264.47848749999,4264.47848749999,4264.47848749999,return,1.120646300027147,7,1,0,0,0.24,-0.08,return,1.0343722999095917,43,-7,0.24,-0.08,4262.9234949999955,4264.47848749999,0.4,-0.32,0.0,0.0,-0.32,0.4,0.4,0.4,-0.32,4259.928780999966,4259.928780999966,4259.928780999966,4259.928780999966,4259.928780999966,4259.928780999966,4259.928780999966,4259.928780999966,4259.920987939881,3.087911600014195,return,2.973247499903664,,,,,,,,,,,,,,,,,,,,,,,,,,,,,,,,,2VNL50,train_y,blue_star,bottom_right,2025-09-16_16h35.41.149,HideSeek_v1,2022.2.5,59.9868868365216,
,7,0,7,5,0,5,66,,train_dim1_1,20,30,,,,2,0,2,0,,,,,,,,,0,0,0,0,0,19,19,19,0,0,0,0,,,,,,,,,,,,,,,,,,,,,,,,,stimuli/alien_stimuli/66.png,,,,,,,,,,,,,,,,,,,,,,,,,,,,,stimuli/alien_stimuli/62.png,62,5,21,,,,,,,30,,,,,,,,4271.234709799988,4271.234709799988,4271.234709799988,4271.234709799988,4271.234709799988,up,2.686938799917698,7,1,0,99,0.4,-0.32,up,2.6037623998709023,,,,,4269.678757000016,4271.234709799988,0.24,0,0.08,0.0,-0.04,0.24,0.24,0.24,0,4267.150453200098,4267.150453200098,4267.150453200098,4267.150453200098,4267.150453200098,4267.150453200098,4267.150453200098,4267.150453200098,4267.143731439905,2.620631800033152,return,2.504519899841398,,,,,,,,,,,,,,,,,,,,,,,,,,,,,,,,,2VNL50,train_y,blue_star,bottom_right,2025-09-16_16h35.41.149,HideSeek_v1,2022.2.5,59.9868868365216,
,7,0,7,5,0,5,66,,train_dim1_1,20,30,,,,2,0,2,0,,,,,,,,,0,0,0,0,0,19,19,19,1,0,1,0,,,,,,,,,,,,,,,,,,,,,,,,,,,,,,,,,,,,,,,,,,,,,,,,,,,,,,,,,,,,,,,,30,,,,,,,,4273.93074500002,4273.93074500002,4273.93074500002,4273.93074500002,4273.93074500002,up,0.24226110009476542,7,1,0,99,0.4,-0.24,up,0.16375800012610853,,,,,,,,,,,,,,,,,,,,,,,,,,,,,,,,,,,,,,,,,,,,,,,,,,,,,,,,,,,,2VNL50,train_y,blue_star,bottom_right,2025-09-16_16h35.41.149,HideSeek_v1,2022.2.5,59.9868868365216,
,7,0,7,5,0,5,66,,train_dim1_1,20,30,,,,2,0,2,0,,,,,,,,,0,0,0,0,0,19,19,19,2,0,2,0,,,,,,,,,,,,,,,,,,,,,,,,,,,,,,,,,,,,,,,,,,,,,,,,,,,,,,,,,,,,,,,,30,,,,,,,,4274.180073299911,4274.180073299911,4274.180073299911,4274.180073299911,4274.180073299911,up,0.1928888000547886,7,1,0,99,0.4,-0.15999999999999998,up,0.11218579998239875,,,,,,,,,,,,,,,,,,,,,,,,,,,,,,,,,,,,,,,,,,,,,,,,,,,,,,,,,,,,2VNL50,train_y,blue_star,bottom_right,2025-09-16_16h35.41.149,HideSeek_v1,2022.2.5,59.9868868365216,
,7,0,7,5,0,5,66,,train_dim1_1,20,30,,,,2,0,2,0,,,,,,,,,0,0,0,0,0,19,19,19,3,0,3,0,,,,,,,,,,,,,,,,,,,,,,,,,,,,,,,,,,,,,,,,,,,,,,,,,,,,,,,,,,,,,,,,30,,,,,,,,4274.380161599955,4274.380161599955,4274.380161599955,4274.380161599955,4274.380161599955,up,0.2097491999156773,7,1,0,99,0.4,-0.07999999999999997,up,0.13496900000609457,,,,,,,,,,,,,,,,,,,,,,,,,,,,,,,,,,,,,,,,,,,,,,,,,,,,,,,,,,,,2VNL50,train_y,blue_star,bottom_right,2025-09-16_16h35.41.149,HideSeek_v1,2022.2.5,59.9868868365216,
,7,0,7,5,0,5,66,,train_dim1_1,20,30,,,,2,0,2,0,,,,,,,,,0,0,0,0,0,19,19,19,4,0,4,0,,,,,,,,,,,,,,,,,,,,,,,,,,,,,,,,,,,,,,,,,,,,,,,,,,,,,,,,,,,,,,,,30,,,,,,,,4274.596496900078,4274.596496900078,4274.596496900078,4274.596496900078,4274.596496900078,return,1.060831499984488,7,1,0,0,0.4,-0.07999999999999997,return,0.9831249001435935,47,-7,0.4,-0.07999999999999997,,,,,,,,,,,,,,,,,,,,,,,,,,,,,,,,,,,,,,,,,,,,,,,,,,,,,,,,2VNL50,train_y,blue_star,bottom_right,2025-09-16_16h35.41.149,HideSeek_v1,2022.2.5,59.9868868365216,
,7,4,7,8,0,4,65,,train_dim1_1,21,30,,,,2,0,2,0,,,,,,,,,0,0,0,0,0,20,20,20,0,0,0,0,,,,,,,,,,,,,,,,,,,,,,,,,stimuli/alien_stimuli/65.png,,,,,,,,,,,,,,,,,,,,,,,,,,,,,stimuli/alien_stimuli/66.png,66,7,22,,,,,,,30,,,,,,,,4281.248049899936,4281.248049899936,4281.248049899936,4281.248049899936,4281.248049899936,up,2.1640516999177635,7,1,0,99,0.4,0.0,up,2.087466500001028,,,,,4279.68769089994,4281.248049899936,0.4,0,0.4,0.0,-0.2,0.4,0.4,0.4,0,4277.227333199931,4277.227333199931,4277.227333199931,4277.227333199931,4277.227333199931,4277.227333199931,4277.227333199931,4277.227333199931,4277.218664079928,2.5711111000273377,return,2.439760899869725,,,,,,,,,,,,,,,,,,,,,,,,,,,,,,,,,2VNL50,train_y,blue_star,bottom_right,2025-09-16_16h35.41.149,HideSeek_v1,2022.2.5,59.9868868365216,
,7,4,7,8,0,4,65,,train_dim1_1,21,30,,,,2,0,2,0,,,,,,,,,0,0,0,0,0,20,20,20,1,0,1,0,,,,,,,,,,,,,,,,,,,,,,,,,,,,,,,,,,,,,,,,,,,,,,,,,,,,,,,,,,,,,,,,30,,,,,,,,4283.420241900021,4283.420241900021,4283.420241900021,4283.420241900021,4283.420241900021,up,0.24265450006350875,7,1,0,99,0.4,0.08,up,0.16347239981405437,,,,,,,,,,,,,,,,,,,,,,,,,,,,,,,,,,,,,,,,,,,,,,,,,,,,,,,,,,,,2VNL50,train_y,blue_star,bottom_right,2025-09-16_16h35.41.149,HideSeek_v1,2022.2.5,59.9868868365216,
,7,4,7,8,0,4,65,,train_dim1_1,21,30,,,,2,0,2,0,,,,,,,,,0,0,0,0,0,20,20,20,2,0,2,0,,,,,,,,,,,,,,,,,,,,,,,,,,,,,,,,,,,,,,,,,,,,,,,,,,,,,,,,,,,,,,,,30,,,,,,,,4283.670704900054,4283.670704900054,4283.670704900054,4283.670704900054,4283.670704900054,up,0.192881700117141,7,1,0,99,0.4,0.16,up,0.11653929995372891,,,,,,,,,,,,,,,,,,,,,,,,,,,,,,,,,,,,,,,,,,,,,,,,,,,,,,,,,,,,2VNL50,train_y,blue_star,bottom_right,2025-09-16_16h35.41.149,HideSeek_v1,2022.2.5,59.9868868365216,
,7,4,7,8,0,4,65,,train_dim1_1,21,30,,,,2,0,2,0,,,,,,,,,0,0,0,0,0,20,20,20,3,0,3,0,,,,,,,,,,,,,,,,,,,,,,,,,,,,,,,,,,,,,,,,,,,,,,,,,,,,,,,,,,,,,,,,30,,,,,,,,4283.869759700028,4283.869759700028,4283.869759700028,4283.869759700028,4283.869759700028,up,0.21037289989180863,7,1,0,99,0.4,0.24,up,0.12851410009898245,,,,,,,,,,,,,,,,,,,,,,,,,,,,,,,,,,,,,,,,,,,,,,,,,,,,,,,,,,,,2VNL50,train_y,blue_star,bottom_right,2025-09-16_16h35.41.149,HideSeek_v1,2022.2.5,59.9868868365216,
,7,4,7,8,0,4,65,,train_dim1_1,21,30,,,,2,0,2,0,,,,,,,,,0,0,0,0,0,20,20,20,4,0,4,0,,,,,,,,,,,,,,,,,,,,,,,,,,,,,,,,,,,,,,,,,,,,,,,,,,,,,,,,,,,,,,,,30,,,,,,,,4284.087913200026,4284.087913200026,4284.087913200026,4284.087913200026,4284.087913200026,up,0.20996899995952845,7,1,0,99,0.4,0.32,up,0.12918089982122183,,,,,,,,,,,,,,,,,,,,,,,,,,,,,,,,,,,,,,,,,,,,,,,,,,,,,,,,,,,,2VNL50,train_y,blue_star,bottom_right,2025-09-16_16h35.41.149,HideSeek_v1,2022.2.5,59.9868868365216,
,7,4,7,8,0,4,65,,train_dim1_1,21,30,,,,2,0,2,0,,,,,,,,,0,0,0,0,0,20,20,20,5,0,5,0,,,,,,,,,,,,,,,,,,,,,,,,,,,,,,,,,,,,,,,,,,,,,,,,,,,,,,,,,,,,,,,,30,,,,,,,,4284.303903700085,4284.303903700085,4284.303903700085,4284.303903700085,4284.303903700085,return,0.7269933999050409,7,1,0,0,0.4,0.32,return,0.6437093999702483,52,-7,0.4,0.32,,,,,,,,,,,,,,,,,,,,,,,,,,,,,,,,,,,,,,,,,,,,,,,,,,,,,,,,2VNL50,train_y,blue_star,bottom_right,2025-09-16_16h35.41.149,HideSeek_v1,2022.2.5,59.9868868365216,
,5,2,5,5,0,3,64,,train_dim1_1,22,30,,,,2,0,2,0,,,,,,,,,0,0,0,0,0,21,21,21,0,0,0,0,,,,,,,,,,,,,,,,,,,,,,,,,stimuli/alien_stimuli/64.png,,,,,,,,,,,,,,,,,,,,,,,,,,,,,stimuli/alien_stimuli/65.png,65,7,23,,,,,,,30,,,,,,,,4290.1986577000935,4290.1986577000935,4290.1986577000935,4290.1986577000935,4290.1986577000935,up,3.5393280999269336,7,1,0,99,0.24,-0.15999999999999998,up,3.4655065000988543,,,,,4288.644599599997,4290.1986577000935,0.4,0.24,0.32,0.0,0.07999999999999999,0.4,0.4,0.4,0.24,4286.582877800101,4286.582877800101,4286.582877800101,4286.582877800101,4286.582877800101,4286.582877800101,4286.582877800101,4286.582877800101,4286.576305539999,2.154031000100076,return,2.0346528999507427,,,,,,,,,,,,,,,,,,,,,,,,,,,,,,,,,2VNL50,train_y,blue_star,bottom_right,2025-09-16_16h35.41.149,HideSeek_v1,2022.2.5,59.9868868365216,
,5,2,5,5,0,3,64,,train_dim1_1,22,30,,,,2,0,2,0,,,,,,,,,0,0,0,0,0,21,21,21,1,0,1,0,,,,,,,,,,,,,,,,,,,,,,,,,,,,,,,,,,,,,,,,,,,,,,,,,,,,,,,,,,,,,,,,30,,,,,,,,4293.74529589992,4293.74529589992,4293.74529589992,4293.74529589992,4293.74529589992,up,0.559629799798131,7,1,0,99,0.24,-0.07999999999999997,up,0.48324990016408265,,,,,,,,,,,,,,,,,,,,,,,,,,,,,,,,,,,,,,,,,,,,,,,,,,,,,,,,,,,,2VNL50,train_y,blue_star,bottom_right,2025-09-16_16h35.41.149,HideSeek_v1,2022.2.5,59.9868868365216,
,5,2,5,5,0,3,64,,train_dim1_1,22,30,,,,2,0,2,0,,,,,,,,,0,0,0,0,0,21,21,21,2,0,2,0,,,,,,,,,,,,,,,,,,,,,,,,,,,,,,,,,,,,,,,,,,,,,,,,,,,,,,,,,,,,,,,,30,,,,,,,,4294.311847599922,4294.311847599922,4294.311847599922,4294.311847599922,4294.311847599922,up,0.6106306000147015,7,1,0,99,0.24,2.7755575615628914e-17,up,0.5359559999778867,,,,,,,,,,,,,,,,,,,,,,,,,,,,,,,,,,,,,,,,,,,,,,,,,,,,,,,,,,,,2VNL50,train_y,blue_star,bottom_right,2025-09-16_16h35.41.149,HideSeek_v1,2022.2.5,59.9868868365216,
,5,2,5,5,0,3,64,,train_dim1_1,22,30,,,,2,0,2,0,,,,,,,,,0,0,0,0,0,21,21,21,3,0,3,0,,,,,,,,,,,,,,,,,,,,,,,,,,,,,,,,,,,,,,,,,,,,,,,,,,,,,,,,,,,,,,,,30,,,,,,,,4294.931205699919,4294.931205699919,4294.931205699919,4294.931205699919,4294.931205699919,return,0.6759995999746025,8,0,0,1,0.24,2.7755575615628914e-17,return,0.5929666999727488,55,-7,0.24,2.7755575615628914e-17,,,,,,,,,,,,,,,,,,,,,,,,,,,,,,,,,,,,,,,,,,,,,,,,,,,,,,,,2VNL50,train_y,blue_star,bottom_right,2025-09-16_16h35.41.149,HideSeek_v1,2022.2.5,59.9868868365216,
,5,3,5,3,0,0,61,,train_dim1_1,23,30,,,,2,0,2,0,,,,,,,,,0,0,0,0,0,22,22,22,0,0,0,0,,,,,,,,,,,,,,,,,,,,,,,,,stimuli/alien_stimuli/61.png,,,,,,,,,,,,,,,,,,,,,,,,,,,,,stimuli/alien_stimuli/64.png,64,5,24,,,,,,,30,,,,,,,,4299.993338400032,4299.993338400032,4299.993338400032,4299.993338400032,4299.993338400032,return,2.002887299982831,9,0,0,1,0.24,-0.16,return,1.9240916999988258,55,-7,0.24,-0.16,4298.436020999914,4299.993338400032,0.24,0,0.24,0.0,-0.12,0.24,0.24,0.24,0,4297.1776143999305,4297.1776143999305,4297.1776143999305,4297.1776143999305,4297.1776143999305,4297.1776143999305,4297.1776143999305,4297.1776143999305,4297.168381080055,1.3701992998830974,return,1.2342144001740962,,,,,,,,,,,,,,,,,,,,,,,,,,,,,,,,,2VNL50,train_y,blue_star,bottom_right,2025-09-16_16h35.41.149,HideSeek_v1,2022.2.5,59.9868868365216,
,8,2,8,7,0,5,66,,train_dim1_1,24,30,,,,2,0,2,0,,,,,,,,,0,0,0,0,0,23,23,23,0,0,0,0,,,,,,,,,,,,,,,,,,,,,,,,,stimuli/alien_stimuli/66.png,,,,,,,,,,,,,,,,,,,,,,,,,,,,,stimuli/alien_stimuli/61.png,61,5,25,,,,,,,30,,,,,,,,4307.43060959992,4307.43060959992,4307.43060959992,4307.43060959992,4307.43060959992,up,3.121226000133902,9,0,0,99,0.48,-0.15999999999999998,up,3.039284999947995,,,,,4305.875807600096,4307.43060959992,0.24,-0.16,0.0,0.0,-0.16,0.24,0.24,0.24,-0.16,4303.549027400091,4303.549027400091,4303.549027400091,4303.549027400091,4303.549027400091,4303.549027400091,4303.549027400091,4303.549027400091,4303.540342240082,2.4210755999665707,return,2.2994828999508172,,,,,,,,,,,,,,,,,,,,,,,,,,,,,,,,,2VNL50,train_y,blue_star,bottom_right,2025-09-16_16h35.41.149,HideSeek_v1,2022.2.5,59.9868868365216,
,8,2,8,7,0,5,66,,train_dim1_1,24,30,,,,2,0,2,0,,,,,,,,,0,0,0,0,0,23,23,23,1,0,1,0,,,,,,,,,,,,,,,,,,,,,,,,,,,,,,,,,,,,,,,,,,,,,,,,,,,,,,,,,,,,,,,,30,,,,,,,,4310.561009200057,4310.561009200057,4310.561009200057,4310.561009200057,4310.561009200057,up,0.42593739996664226,9,0,0,99,0.48,-0.07999999999999997,up,0.3400030001066625,,,,,,,,,,,,,,,,,,,,,,,,,,,,,,,,,,,,,,,,,,,,,,,,,,,,,,,,,,,,2VNL50,train_y,blue_star,bottom_right,2025-09-16_16h35.41.149,HideSeek_v1,2022.2.5,59.9868868365216,
,8,2,8,7,0,5,66,,train_dim1_1,24,30,,,,2,0,2,0,,,,,,,,,0,0,0,0,0,23,23,23,2,0,2,0,,,,,,,,,,,,,,,,,,,,,,,,,,,,,,,,,,,,,,,,,,,,,,,,,,,,,,,,,,,,,,,,30,,,,,,,,4310.993259599898,4310.993259599898,4310.993259599898,4310.993259599898,4310.993259599898,up,0.2930942999664694,9,0,0,99,0.48,2.7755575615628914e-17,up,0.21075760014355183,,,,,,,,,,,,,,,,,,,,,,,,,,,,,,,,,,,,,,,,,,,,,,,,,,,,,,,,,,,,2VNL50,train_y,blue_star,bottom_right,2025-09-16_16h35.41.149,HideSeek_v1,2022.2.5,59.9868868365216,
,8,2,8,7,0,5,66,,train_dim1_1,24,30,,,,2,0,2,0,,,,,,,,,0,0,0,0,0,23,23,23,3,0,3,0,,,,,,,,,,,,,,,,,,,,,,,,,,,,,,,,,,,,,,,,,,,,,,,,,,,,,,,,,,,,,,,,30,,,,,,,,4311.293209099909,4311.293209099909,4311.293209099909,4311.293209099909,4311.293209099909,up,0.27650459995493293,9,0,0,99,0.48,0.08000000000000003,up,0.19936159998178482,,,,,,,,,,,,,,,,,,,,,,,,,,,,,,,,,,,,,,,,,,,,,,,,,,,,,,,,,,,,2VNL50,train_y,blue_star,bottom_right,2025-09-16_16h35.41.149,HideSeek_v1,2022.2.5,59.9868868365216,
,8,2,8,7,0,5,66,,train_dim1_1,24,30,,,,2,0,2,0,,,,,,,,,0,0,0,0,0,23,23,23,4,0,4,0,,,,,,,,,,,,,,,,,,,,,,,,,,,,,,,,,,,,,,,,,,,,,,,,,,,,,,,,,,,,,,,,30,,,,,,,,4311.576305499999,4311.576305499999,4311.576305499999,4311.576305499999,4311.576305499999,return,0.8105228999629617,9,1,0,0,0.48,0.08000000000000003,return,0.7370186999905854,59,-7,0.48,0.08000000000000003,,,,,,,,,,,,,,,,,,,,,,,,,,,,,,,,,,,,,,,,,,,,,,,,,,,,,,,,2VNL50,train_y,blue_star,bottom_right,2025-09-16_16h35.41.149,HideSeek_v1,2022.2.5,59.9868868365216,
,8,3,8,4,0,1,62,,train_dim1_1,25,30,,,,2,0,2,0,,,,,,,,,0,0,0,0,0,24,24,24,0,0,0,0,,,,,,,,,,,,,,,,,,,,,,,,,stimuli/alien_stimuli/62.png,,,,,,,,,,,,,,,,,,,,,,,,,,,,,stimuli/alien_stimuli/66.png,66,8,26,,,,,,,30,,,,,,,,4324.11420670012,4324.11420670012,4324.11420670012,4324.11420670012,4324.11420670012,up,4.137951999902725,9,1,0,99,0.48,-0.08,up,4.0606035001110286,,,,,4322.556355899898,4324.11420670012,0.48,0.16,0.4,0.0,-0.039999999999999994,0.48,0.48,0.48,0.16,4313.951135900104,4313.951135900104,4313.951135900104,4313.951135900104,4313.951135900104,4313.951135900104,4313.951135900104,4313.951135900104,4313.948856479978,8.709710699971765,return,8.573035599896684,,,,,,,,,,,,,,,,,,,,,,,,,,,,,,,,,2VNL50,train_y,blue_star,bottom_right,2025-09-16_16h35.41.149,HideSeek_v1,2022.2.5,59.9868868365216,
,8,3,8,4,0,1,62,,train_dim1_1,25,30,,,,2,0,2,0,,,,,,,,,0,0,0,0,0,24,24,24,1,0,1,0,,,,,,,,,,,,,,,,,,,,,,,,,,,,,,,,,,,,,,,,,,,,,,,,,,,,,,,,,,,,,,,,30,,,,,,,,4328.259578499943,4328.259578499943,4328.259578499943,4328.259578499943,4328.259578499943,return,0.7435354001354426,10,0,0,1,0.48,-0.08,return,0.6624510001856834,60,-7,0.48,-0.08,,,,,,,,,,,,,,,,,,,,,,,,,,,,,,,,,,,,,,,,,,,,,,,,,,,,,,,,2VNL50,train_y,blue_star,bottom_right,2025-09-16_16h35.41.149,HideSeek_v1,2022.2.5,59.9868868365216,
,9,4,9,7,0,3,64,,train_dim1_1,26,30,,,,2,0,2,0,,,,,,,,,0,0,0,0,0,25,25,25,0,0,0,0,,,,,,,,,,,,,,,,,,,,,,,,,stimuli/alien_stimuli/64.png,,,,,,,,,,,,,,,,,,,,,,,,,,,,,stimuli/alien_stimuli/62.png,62,8,27,,,,,,,30,,,,,,,,4337.306699200068,4337.306699200068,4337.306699200068,4337.306699200068,4337.306699200068,up,10.109450199874118,10,0,0,99,0.56,0.0,up,10.026048500090837,,,,,4335.751182399923,4337.306699200068,0.48,-0.08,0.08,0.0,-0.12,0.48,0.48,0.48,-0.08,4330.572499100119,4330.572499100119,4330.572499100119,4330.572499100119,4330.572499100119,4330.572499100119,4330.572499100119,4330.572499100119,4330.563003779878,5.2906834001187235,return,5.1574933000374585,,,,,,,,,,,,,,,,,,,,,,,,,,,,,,,,,2VNL50,train_y,blue_star,bottom_right,2025-09-16_16h35.41.149,HideSeek_v1,2022.2.5,59.9868868365216,
,9,4,9,7,0,3,64,,train_dim1_1,26,30,,,,2,0,2,0,,,,,,,,,0,0,0,0,0,25,25,25,1,0,1,0,,,,,,,,,,,,,,,,,,,,,,,,,,,,,,,,,,,,,,,,,,,,,,,,,,,,,,,,,,,,,,,,30,,,,,,,,4347.441821099957,4347.441821099957,4347.441821099957,4347.441821099957,4347.441821099957,up,0.49142590002156794,10,0,0,99,0.56,0.08,up,0.39435499999672174,,,,,,,,,,,,,,,,,,,,,,,,,,,,,,,,,,,,,,,,,,,,,,,,,,,,,,,,,,,,2VNL50,train_y,blue_star,bottom_right,2025-09-16_16h35.41.149,HideSeek_v1,2022.2.5,59.9868868365216,
,9,4,9,7,0,3,64,,train_dim1_1,26,30,,,,2,0,2,0,,,,,,,,,0,0,0,0,0,25,25,25,2,0,2,0,,,,,,,,,,,,,,,,,,,,,,,,,,,,,,,,,,,,,,,,,,,,,,,,,,,,,,,,,,,,,,,,30,,,,,,,,4347.923762700055,4347.923762700055,4347.923762700055,4347.923762700055,4347.923762700055,up,0.5096902998629957,10,0,0,99,0.56,0.16,up,0.43008600012399256,,,,,,,,,,,,,,,,,,,,,,,,,,,,,,,,,,,,,,,,,,,,,,,,,,,,,,,,,,,,2VNL50,train_y,blue_star,bottom_right,2025-09-16_16h35.41.149,HideSeek_v1,2022.2.5,59.9868868365216,
,9,4,9,7,0,3,64,,train_dim1_1,26,30,,,,2,0,2,0,,,,,,,,,0,0,0,0,0,25,25,25,3,0,3,0,,,,,,,,,,,,,,,,,,,,,,,,,,,,,,,,,,,,,,,,,,,,,,,,,,,,,,,,,,,,,,,,30,,,,,,,,4348.439648800064,4348.439648800064,4348.439648800064,4348.439648800064,4348.439648800064,return,0.8775404999032617,11,0,0,1,0.56,0.16,return,0.7939766000490636,63,-7,0.56,0.16,,,,,,,,,,,,,,,,,,,,,,,,,,,,,,,,,,,,,,,,,,,,,,,,,,,,,,,,2VNL50,train_y,blue_star,bottom_right,2025-09-16_16h35.41.149,HideSeek_v1,2022.2.5,59.9868868365216,
,8,4,8,9,0,5,66,,train_dim1_1,27,30,,,,2,0,2,0,,,,,,,,,0,0,0,0,0,26,26,26,0,0,0,0,,,,,,,,,,,,,,,,,,,,,,,,,stimuli/alien_stimuli/66.png,,,,,,,,,,,,,,,,,,,,,,,,,,,,,stimuli/alien_stimuli/64.png,64,9,28,,,,,,,30,,,,,,,,4356.07123370003,4356.07123370003,4356.07123370003,4356.07123370003,4356.07123370003,up,5.607487800065428,11,0,0,99,0.48,0.0,up,5.5340005999896675,,,,,4354.515871499898,4356.07123370003,0.56,0.16,0.24,0.0,0.04,0.56,0.56,0.56,0.16,4350.887304400094,4350.887304400094,4350.887304400094,4350.887304400094,4350.887304400094,4350.887304400094,4350.887304400094,4350.887304400094,4350.879634779902,3.7386044000741094,return,3.5966501000802964,,,,,,,,,,,,,,,,,,,,,,,,,,,,,,,,,2VNL50,train_y,blue_star,bottom_right,2025-09-16_16h35.41.149,HideSeek_v1,2022.2.5,59.9868868365216,
,8,4,8,9,0,5,66,,train_dim1_1,27,30,,,,2,0,2,0,,,,,,,,,0,0,0,0,0,26,26,26,1,0,1,0,,,,,,,,,,,,,,,,,,,,,,,,,,,,,,,,,,,,,,,,,,,,,,,,,,,,,,,,,,,,,,,,30,,,,,,,,4361.685844599968,4361.685844599968,4361.685844599968,4361.685844599968,4361.685844599968,up,0.8925000999588519,11,0,0,99,0.48,0.08,up,0.8079022001475096,,,,,,,,,,,,,,,,,,,,,,,,,,,,,,,,,,,,,,,,,,,,,,,,,,,,,,,,,,,,2VNL50,train_y,blue_star,bottom_right,2025-09-16_16h35.41.149,HideSeek_v1,2022.2.5,59.9868868365216,
,8,4,8,9,0,5,66,,train_dim1_1,27,30,,,,2,0,2,0,,,,,,,,,0,0,0,0,0,26,26,26,2,0,2,0,,,,,,,,,,,,,,,,,,,,,,,,,,,,,,,,,,,,,,,,,,,,,,,,,,,,,,,,,,,,,,,,30,,,,,,,,4362.584589600097,4362.584589600097,4362.584589600097,4362.584589600097,4362.584589600097,up,1.044208499835804,11,0,0,99,0.48,0.16,up,0.9705641998443753,,,,,,,,,,,,,,,,,,,,,,,,,,,,,,,,,,,,,,,,,,,,,,,,,,,,,,,,,,,,2VNL50,train_y,blue_star,bottom_right,2025-09-16_16h35.41.149,HideSeek_v1,2022.2.5,59.9868868365216,
,8,4,8,9,0,5,66,,train_dim1_1,27,30,,,,2,0,2,0,,,,,,,,,0,0,0,0,0,26,26,26,3,0,3,0,,,,,,,,,,,,,,,,,,,,,,,,,,,,,,,,,,,,,,,,,,,,,,,,,,,,,,,,,,,,,,,,30,,,,,,,,4363.63596069999,4363.63596069999,4363.63596069999,4363.63596069999,4363.63596069999,up,0.8602822001557797,11,0,0,99,0.48,0.24,up,0.7803576001897454,,,,,,,,,,,,,,,,,,,,,,,,,,,,,,,,,,,,,,,,,,,,,,,,,,,,,,,,,,,,2VNL50,train_y,blue_star,bottom_right,2025-09-16_16h35.41.149,HideSeek_v1,2022.2.5,59.9868868365216,
,8,4,8,9,0,5,66,,train_dim1_1,27,30,,,,2,0,2,0,,,,,,,,,0,0,0,0,0,26,26,26,4,0,4,0,,,,,,,,,,,,,,,,,,,,,,,,,,,,,,,,,,,,,,,,,,,,,,,,,,,,,,,,,,,,,,,,30,,,,,,,,4364.5038825999945,4364.5038825999945,4364.5038825999945,4364.5038825999945,4364.5038825999945,return,1.1942829000763595,11,1,0,0,0.48,0.24,return,1.111721099819988,67,-7,0.48,0.24,,,,,,,,,,,,,,,,,,,,,,,,,,,,,,,,,,,,,,,,,,,,,,,,,,,,,,,,2VNL50,train_y,blue_star,bottom_right,2025-09-16_16h35.41.149,HideSeek_v1,2022.2.5,59.9868868365216,
,9,1,9,1,0,0,61,,train_dim1_1,28,30,,,,2,0,2,0,,,,,,,,,0,0,0,0,0,27,27,27,0,0,0,0,,,,,,,,,,,,,,,,,,,,,,,,,stimuli/alien_stimuli/61.png,,,,,,,,,,,,,,,,,,,,,,,,,,,,,stimuli/alien_stimuli/66.png,66,8,29,,,,,,,30,,,,,,,,4370.986054700101,4370.986054700101,4370.986054700101,4370.986054700101,4370.986054700101,return,1.8682736000046134,12,0,0,1,0.56,-0.32,return,1.7837604999076575,67,-7,0.56,-0.32,4369.428567300085,4370.986054700101,0.48,0.32,0.4,0.0,0.12,0.48,0.48,0.48,0.32,4367.264953000005,4367.264953000005,4367.264953000005,4367.264953000005,4367.264953000005,4367.264953000005,4367.264953000005,4367.264953000005,4367.260158079933,2.2704300000332296,return,2.1356221998576075,,,,,,,,,,,,,,,,,,,,,,,,,,,,,,,,,2VNL50,train_y,blue_star,bottom_right,2025-09-16_16h35.41.149,HideSeek_v1,2022.2.5,59.9868868365216,
,7,2,7,3,0,1,62,,train_dim1_1,29,30,,,,2,0,2,0,,,,,,,,,0,0,0,0,0,28,28,28,0,0,0,0,,,,,,,,,,,,,,,,,,,,,,,,,stimuli/alien_stimuli/62.png,,,,,,,,,,,,,,,,,,,,,,,,,,,,,stimuli/alien_stimuli/61.png,61,9,30,,,,,,,30,,,,,,,,4378.392757999944,4378.392757999944,4378.392757999944,4378.392757999944,4378.392757999944,up,1.801562299951911,12,0,0,99,0.4,-0.15999999999999998,up,1.712983600096777,,,,,4376.834679699969,4378.392757999944,0.56,-0.32,0.0,0.0,-0.32,0.56,0.56,0.56,-0.32,4374.4286958999,4374.4286958999,4374.4286958999,4374.4286958999,4374.4286958999,4374.4286958999,4374.4286958999,4374.4286958999,4374.416117379931,2.520501999882981,return,2.3795006999280304,,,,,,,,,,,,,,,,,,,,,,,,,,,,,,,,,2VNL50,train_y,blue_star,bottom_right,2025-09-16_16h35.41.149,HideSeek_v1,2022.2.5,59.9868868365216,
,7,2,7,3,0,1,62,,train_dim1_1,29,30,,,,2,0,2,0,,,,,,,,,0,0,0,0,0,28,28,28,1,0,1,0,,,,,,,,,,,,,,,,,,,,,,,,,,,,,,,,,,,,,,,,,,,,,,,,,,,,,,,,,,,,,,,,30,,,,,,,,4380.201043799985,4380.201043799985,4380.201043799985,4380.201043799985,4380.201043799985,return,0.45984719996340573,13,0,0,1,0.4,-0.15999999999999998,return,0.37494809995405376,68,-7,0.4,-0.15999999999999998,,,,,,,,,,,,,,,,,,,,,,,,,,,,,,,,,,,,,,,,,,,,,,,,,,,,,,,,2VNL50,train_y,blue_star,bottom_right,2025-09-16_16h35.41.149,HideSeek_v1,2022.2.5,59.9868868365216,
,5,1,5,5,0,4,65,,train_dim1_1,30,30,,,,2,0,2,0,,,,,,,,,0,0,0,0,0,29,29,29,0,0,0,0,,,,,,,,,,,,,,,,,,,,,,,,,stimuli/alien_stimuli/65.png,,,,,,,,,,,,,,,,,,,,,,,,,,,,,stimuli/alien_stimuli/62.png,62,7,31,,,,,,,30,,,,,,,,4388.5976845000405,4388.5976845000405,4388.5976845000405,4388.5976845000405,4388.5976845000405,up,2.9717858999501914,13,0,0,99,0.24,-0.24,up,2.8835394999478012,,,,,4387.0432188001,4388.5976845000405,0.4,-0.16,0.08,0.0,-0.2,0.4,0.4,0.4,-0.16,4382.231103400001,4382.231103400001,4382.231103400001,4382.231103400001,4382.231103400001,4382.231103400001,4382.231103400001,4382.231103400001,4382.222427440062,4.908883299911395,return,4.7890230000484735,,,,,,,,,,,,,,,,,,,,,,,,,,,,,,,,,2VNL50,train_y,blue_star,bottom_right,2025-09-16_16h35.41.149,HideSeek_v1,2022.2.5,59.9868868365216,
,5,1,5,5,0,4,65,,train_dim1_1,30,30,,,,2,0,2,0,,,,,,,,,0,0,0,0,0,29,29,29,1,0,1,0,,,,,,,,,,,,,,,,,,,,,,,,,,,,,,,,,,,,,,,,,,,,,,,,,,,,,,,,,,,,,,,,30,,,,,,,,4391.580365699949,4391.580365699949,4391.580365699949,4391.580365699949,4391.580365699949,up,0.22302070003934205,13,0,0,99,0.24,-0.15999999999999998,up,0.13500309991650283,,,,,,,,,,,,,,,,,,,,,,,,,,,,,,,,,,,,,,,,,,,,,,,,,,,,,,,,,,,,2VNL50,train_y,blue_star,bottom_right,2025-09-16_16h35.41.149,HideSeek_v1,2022.2.5,59.9868868365216,
,5,1,5,5,0,4,65,,train_dim1_1,30,30,,,,2,0,2,0,,,,,,,,,0,0,0,0,0,29,29,29,2,0,2,0,,,,,,,,,,,,,,,,,,,,,,,,,,,,,,,,,,,,,,,,,,,,,,,,,,,,,,,,,,,,,,,,30,,,,,,,,4391.811031100107,4391.811031100107,4391.811031100107,4391.811031100107,4391.811031100107,up,0.22613000008277595,13,0,0,99,0.24,-0.07999999999999997,up,0.14814570010639727,,,,,,,,,,,,,,,,,,,,,,,,,,,,,,,,,,,,,,,,,,,,,,,,,,,,,,,,,,,,2VNL50,train_y,blue_star,bottom_right,2025-09-16_16h35.41.149,HideSeek_v1,2022.2.5,59.9868868365216,
,5,1,5,5,0,4,65,,train_dim1_1,30,30,,,,2,0,2,0,,,,,,,,,0,0,0,0,0,29,29,29,3,0,3,0,,,,,,,,,,,,,,,,,,,,,,,,,,,,,,,,,,,,,,,,,,,,,,,,,,,,,,,,,,,,,,,,30,,,,,,,,4392.043607299915,4392.043607299915,4392.043607299915,4392.043607299915,4392.043607299915,up,1.077355100074783,13,0,0,99,0.24,2.7755575615628914e-17,up,1.0052066000644118,,,,,,,,,,,,,,,,,,,,,,,,,,,,,,,,,,,,,,,,,,,,,,,,,,,,,,,,,,,,2VNL50,train_y,blue_star,bottom_right,2025-09-16_16h35.41.149,HideSeek_v1,2022.2.5,59.9868868365216,
,5,1,5,5,0,4,65,,train_dim1_1,30,30,,,,2,0,2,0,,,,,,,,,0,0,0,0,0,29,29,29,4,0,4,0,,,,,,,,,,,,,,,,,,,,,,,,,,,,,,,,,,,,,,,,,,,,,,,,,,,,,,,,,,,,,,,,30,,,,,,,,4393.1276899001095,4393.1276899001095,4393.1276899001095,4393.1276899001095,4393.1276899001095,up,0.4269781999755651,13,0,0,99,0.24,0.08000000000000003,up,0.33871069992892444,,,,,,,,,,,,,,,,,,,,,,,,,,,,,,,,,,,,,,,,,,,,,,,,,,,,,,,,,,,,2VNL50,train_y,blue_star,bottom_right,2025-09-16_16h35.41.149,HideSeek_v1,2022.2.5,59.9868868365216,
,5,1,5,5,0,4,65,,train_dim1_1,30,30,,,,2,0,2,0,,,,,,,,,0,0,0,0,0,29,29,29,5,0,5,0,,,,,,,,,,,,,,,,,,,,,,,,,,,,,,,,,,,,,,,,,,,,,,,,,,,,,,,,,,,,,,,,30,,,,,,,,4393.563042799942,4393.563042799942,4393.563042799942,4393.563042799942,4393.563042799942,return,0.6920123999007046,13,1,0,0,0.24,0.08000000000000003,return,0.6051119000185281,73,-7,0.24,0.08000000000000003,,,,,,,,,,,,,,,,,,,,,,,,,,,,,,,,,,,,,,,,,,,,,,,,,,,,,,,,2VNL50,train_y,blue_star,bottom_right,2025-09-16_16h35.41.149,HideSeek_v1,2022.2.5,59.9868868365216,
,,,,,,,,,,,30,,,,2,0,2,0,,,,,,,,,,,,,,,,,,,,,,,,,,,,,,,,,,,,,,,,,,,,,,,,,,,,,,,,,,,,,,,,,,,,,,,,,,stimuli/alien_stimuli/65.png,65,5,32,21,0.7,0.5416666666666667,1,1,1,30,0,conditions/schedules/train_y_first/blue_star_00/bottom_right/inputTrain_2.1.xlsx,99,1,2,1,0,,,,,,,,,,,0,,,,,,,,,4397.935277400073,4399.493574399967,0.24,0,0.32,0.0,-0.16,0.24,0.24,0.24,0,4395.826691600028,4395.826691600028,4395.826691600028,4395.826691600028,4395.826691600028,4395.826691600028,4395.826691600028,4395.826691600028,4395.816868479853,2.2207528001163155,return,2.0824432999361306,0,0.9,0,1,13,,,,,,,,,,,,,,,,,,,,,,,,,,,,2VNL50,train_y,blue_star,bottom_right,2025-09-16_16h35.41.149,HideSeek_v1,2022.2.5,59.9868868365216,
,,,,,,,,,,,,,,,3,0,3,0,0,0,0,0,,,,,,,,,,,,,,,,,,,,,,,,,,,,,,,conditions/schedules/train_y_first/blue_star_00/bottom_right/instructions/Slide17.png,conditions/schedules/train_y_first/blue_star_00/bottom_right/instructions/Audio17.wav,4399.493574399967,4399.486829560064,17,"[2.8477567001245916, 17.328987800050527, 16.243173300055787, 19.329763500019908, 4.340830100001767, 4.432354700053111, 4.969654900021851, 11.306384900119156, 6.075363100040704, 6.86750189983286, 10.101395899895579, 13.678575800033286, 17.151363199809566, 16.46459859982133, 44.66949829994701, 22.41038370016031, 44.51158839999698]","[0.00022760010324418545, 0.0141569001134485, 0.00020819995552301407, 0.014629499986767769, 4.340839199954644, 0.014352299971506, 0.0002142000012099743, 0.00021059997379779816, 0.04619189980439842, 0.04889579978771508, 0.014809199841693044, 13.678584999870509, 0.014639499830082059, 16.464614699827507, 44.66950690001249, 22.41039210022427, 44.5115964000579]",0,,,,,,,,,,,,,,,,,,,,,,,,,,,,,,,,,,,,,,,,,,,,,,,,,,,,,,,,,,,,,,,,,,,,,,,,,,,,,,,,,,,,,,,,,,,,,,,,,,,,,,,,,,,,,,,,,,,,,,,,,,,,2VNL50,train_y,blue_star,bottom_right,2025-09-16_16h35.41.149,HideSeek_v1,2022.2.5,59.9868868365216,
,,,,,,,,,,,,,,,3,0,3,0,1,0,1,0,,,,,,,,,,,,,,,,,,,,,,,,,,,,,,,conditions/schedules/train_y_first/blue_star_00/bottom_right/instructions/Slide18.png,conditions/schedules/train_y_first/blue_star_00/bottom_right/instructions/Audio18.wav,4444.074121400015,4444.073812399874,18,"[2.8477567001245916, 17.328987800050527, 16.243173300055787, 19.329763500019908, 4.340830100001767, 4.432354700053111, 4.969654900021851, 11.306384900119156, 6.075363100040704, 6.86750189983286, 10.101395899895579, 13.678575800033286, 17.151363199809566, 16.46459859982133, 44.66949829994701, 22.41038370016031, 44.51158839999698, 5.68479899992235]","[0.00022760010324418545, 0.0141569001134485, 0.00020819995552301407, 0.014629499986767769, 4.340839199954644, 0.014352299971506, 0.0002142000012099743, 0.00021059997379779816, 0.04619189980439842, 0.04889579978771508, 0.014809199841693044, 13.678584999870509, 0.014639499830082059, 16.464614699827507, 44.66950690001249, 22.41039210022427, 0.0139508000575006, 5.6848122999072075]",0,,,,,,,,,,,,,,,,,,,,,,,,,,,,,,,,,,,,,,,,,,,,,,,,,,,,,,,,,,,,,,,,,,,,,,,,,,,,,,,,,,,,,,,,,,,,,,,,,,,,,,,,,,,,,,,,,,,,,,,,,,,,2VNL50,train_y,blue_star,bottom_right,2025-09-16_16h35.41.149,HideSeek_v1,2022.2.5,59.9868868365216,
,,,,,,,,,,,,,,,3,0,3,0,2,0,2,0,,,,,,,,,,,,,,,,,,,,,,,,,,,,,,,conditions/schedules/train_y_first/blue_star_00/bottom_right/instructions/Slide19.png,conditions/schedules/train_y_first/blue_star_00/bottom_right/instructions/Audio19.wav,4449.815152700059,4449.811700860085,19,"[2.8477567001245916, 17.328987800050527, 16.243173300055787, 19.329763500019908, 4.340830100001767, 4.432354700053111, 4.969654900021851, 11.306384900119156, 6.075363100040704, 6.86750189983286, 10.101395899895579, 13.678575800033286, 17.151363199809566, 16.46459859982133, 44.66949829994701, 22.41038370016031, 44.51158839999698, 5.68479899992235, 9.184870700119063]","[0.00022760010324418545, 0.0141569001134485, 0.00020819995552301407, 0.014629499986767769, 4.340839199954644, 0.014352299971506, 0.0002142000012099743, 0.00021059997379779816, 0.04619189980439842, 0.04889579978771508, 0.014809199841693044, 13.678584999870509, 0.014639499830082059, 16.464614699827507, 44.66950690001249, 22.41039210022427, 0.0139508000575006, 0.04764700005762279, 9.184880000073463]",0,,,,,,,,,,,,,,,,,,,,,,,,,,,,,,,,,,,,,,,,,,,,,,,,,,,,,,,,,,,,,,,,,,,,,,,,,,,,,,,,,,,,,,,,,,,,,,,,,,,,,,,,,,,,,,,,,,,,,,,,,,,,2VNL50,train_y,blue_star,bottom_right,2025-09-16_16h35.41.149,HideSeek_v1,2022.2.5,59.9868868365216,
,,,,,,,,,,,,,,,3,0,3,0,3,0,3,0,,,,,,,,,,,,,,,,,,,,,,,,,,,,,,,conditions/schedules/train_y_first/blue_star_00/bottom_right/instructions/Slide20.png,conditions/schedules/train_y_first/blue_star_00/bottom_right/instructions/Audio20.wav,4459.0579047999345,4459.0527527600525,20,"[2.8477567001245916, 17.328987800050527, 16.243173300055787, 19.329763500019908, 4.340830100001767, 4.432354700053111, 4.969654900021851, 11.306384900119156, 6.075363100040704, 6.86750189983286, 10.101395899895579, 13.678575800033286, 17.151363199809566, 16.46459859982133, 44.66949829994701, 22.41038370016031, 44.51158839999698, 5.68479899992235, 9.184870700119063, 12.38597850012593]","[0.00022760010324418545, 0.0141569001134485, 0.00020819995552301407, 0.014629499986767769, 4.340839199954644, 0.014352299971506, 0.0002142000012099743, 0.00021059997379779816, 0.04619189980439842, 0.04889579978771508, 0.014809199841693044, 13.678584999870509, 0.014639499830082059, 16.464614699827507, 44.66950690001249, 22.41039210022427, 0.0139508000575006, 0.04764700005762279, 0.030252200085669756, 12.385987400077283]",0,,,,,,,,,,,,,,,,,,,,,,,,,,,,,,,,,,,,,,,,,,,,,,,,,,,,,,,,,,,,,,,,,,,,,,,,,,,,,,,,,,,,,,,,,,,,,,,,,,,,,,,,,,,,,,,,,,,,,,,,,,,,2VNL50,train_y,blue_star,bottom_right,2025-09-16_16h35.41.149,HideSeek_v1,2022.2.5,59.9868868365216,
1,9,0,4,0,-5,0,11,2,instr_dim1_2,,,,,,3,0,3,0,,,,,0,0,0,0,,,,,,,,,,,,,,,,,,,,,,,,,,,,,,,,,,,,,stimuli/alien_stimuli/11.png,conditions/schedules/train_y_first/blue_star_00/bottom_right/inputInstr_2.xlsx,stimuli/alien_stimuli/11.png,4471.551859400002,4471.551859400002,4471.551859400002,4471.551859400002,4471.546584379883,return,7.236418499844149,"[-0.16, -0.08, 0, 0.08, 0.16, 0.24, 0.32, 0.4, 0.48, 0.56]","[-0.4, -0.32, -0.24, -0.16, -0.08, 0, 0.08, 0.16, 0.24, 0.32]",0,0,4,9,0.0,0.4,4478.966434099944,4478.966434099944,4478.966434099944,4478.966434099944,4478.966434099944,4478.966434099944,4478.966434099944,4478.952497459878,7.006938100093976,return,6.8264125001151115,stimuli/alien_stimuli/11.png,11,9,1,,,,,,,,,,,,,,,,,,,,,,,,,,,,,,,,,,,,,,,,,,,,,,,,,,,,,,,,,,,,,,,,,,,,,,,,,,,,,,,,,,,,,,,,,2VNL50,train_y,blue_star,bottom_right,2025-09-16_16h35.41.149,HideSeek_v1,2022.2.5,59.9868868365216,
,,,,,,,,,,,30,,,,3,0,3,0,,,,,,,,,,,,,,,,,,,,,,,,,,,,,,,,,,,,,,,,,,,,,,,,,,,,,,,,,,,,,,,,,,,,,,,,,,,,,,21,0.7,0.5416666666666667,1,99,2,30,0,conditions/schedules/train_y_first/blue_star_00/bottom_right/inputTrain_2.1.xlsx,99,1,2,1,0,,,,,,,,,,,,,,,,,,,,,,,,,,,,,,,,,,,,,,,,,,,,,,,,,,,,,,,,,,,,,,,,,,,,,,,,,,,2VNL50,train_y,blue_star,bottom_right,2025-09-16_16h35.41.149,HideSeek_v1,2022.2.5,59.9868868365216,
,,,,,,,,,,,,,,,4,0,4,0,0,0,0,0,,,,,,,,,,,,,,,,,,,,,,,,,,,,,,,conditions/schedules/train_y_first/blue_star_00/bottom_right/instructions/Slide21.png,conditions/schedules/train_y_first/blue_star_00/bottom_right/instructions/Audio21.wav,4485.98084069998,4485.975252799923,21,"[2.8477567001245916, 17.328987800050527, 16.243173300055787, 19.329763500019908, 4.340830100001767, 4.432354700053111, 4.969654900021851, 11.306384900119156, 6.075363100040704, 6.86750189983286, 10.101395899895579, 13.678575800033286, 17.151363199809566, 16.46459859982133, 44.66949829994701, 22.41038370016031, 44.51158839999698, 5.68479899992235, 9.184870700119063, 12.38597850012593, 13.869762900052592]","[0.00022760010324418545, 0.0141569001134485, 0.00020819995552301407, 0.014629499986767769, 4.340839199954644, 0.014352299971506, 0.0002142000012099743, 0.00021059997379779816, 0.04619189980439842, 0.04889579978771508, 0.014809199841693044, 13.678584999870509, 0.014639499830082059, 16.464614699827507, 44.66950690001249, 22.41039210022427, 0.0139508000575006, 0.04764700005762279, 0.030252200085669756, 12.385987400077283, 13.869770900113508]",0,,,,,,,,,,,,,,,,,,,,,,,,,,,,,,,,,,,,,,,,,,,,,,,,,,,,,,,,,,,,,,,,,,,,,,,,,,,,,,,,,,,,,,,,,,,,,,,,,,,,,,,,,,,,,,,,,,,,,,,,,,,,2VNL50,train_y,blue_star,bottom_right,2025-09-16_16h35.41.149,HideSeek_v1,2022.2.5,59.9868868365216,
2,8,2,8,2,0,0,61,2,instr_dim1_2,,,,,,4,0,4,0,,,,,0,0,0,0,,,,,,,,,,,,,,,,,,,,,,,,,,,,,,,,,,,,,stimuli/alien_stimuli/61.png,conditions/schedules/train_y_first/blue_star_00/bottom_right/inputInstr_2.xlsx,stimuli/alien_stimuli/61.png,4499.948682700051,4499.948682700051,4499.948682700051,4499.948682700051,4499.936608540081,return,2.5555533999577165,"[-0.16, -0.08, 0, 0.08, 0.16, 0.24, 0.32, 0.4, 0.48, 0.56]","[-0.4, -0.32, -0.24, -0.16, -0.08, 0, 0.08, 0.16, 0.24, 0.32]",2,2,8,8,0.0,0.0,4502.6533842000645,4502.6533842000645,4502.6533842000645,4502.6533842000645,4502.6533842000645,4502.6533842000645,4502.6533842000645,4502.638796520047,5.822277199942619,return,5.661296000005677,stimuli/alien_stimuli/61.png,61,8,2,,,,,,,,,,,,,,,,,,,,,,,,,,,,,,,,,,,,,,,,,,,,,,,,,,,,,,,,,,,,,,,,,,,,,,,,,,,,,,,,,,,,,,,,,2VNL50,train_y,blue_star,bottom_right,2025-09-16_16h35.41.149,HideSeek_v1,2022.2.5,59.9868868365216,
,,,,,,,,,,,30,,,,4,0,4,0,,,,,,,,,,,,,,,,,,,,,,,,,,,,,,,,,,,,,,,,,,,,,,,,,,,,,,,,,,,,,,,,,,,,,,,,,,,,,,21,0.7,0.5416666666666667,1,99,2,30,0,conditions/schedules/train_y_first/blue_star_00/bottom_right/inputTrain_2.1.xlsx,99,1,2,1,0,,,,,,,,,,,,,,,,,,,,,,,,,,,,,,,,,,,,,,,,,,,,,,,,,,,,,,,,,,,,,,,,,,,,,,,,,,,2VNL50,train_y,blue_star,bottom_right,2025-09-16_16h35.41.149,HideSeek_v1,2022.2.5,59.9868868365216,
,,,,,,,,,,,,,,,5,0,5,0,0,0,0,0,,,,,,,,,,,,,,,,,,,,,,,,,,,,,,,conditions/schedules/train_y_first/blue_star_00/bottom_right/instructions/Slide22.png,conditions/schedules/train_y_first/blue_star_00/bottom_right/instructions/Audio22.wav,4508.504020699998,4508.493660900043,22,"[2.8477567001245916, 17.328987800050527, 16.243173300055787, 19.329763500019908, 4.340830100001767, 4.432354700053111, 4.969654900021851, 11.306384900119156, 6.075363100040704, 6.86750189983286, 10.101395899895579, 13.678575800033286, 17.151363199809566, 16.46459859982133, 44.66949829994701, 22.41038370016031, 44.51158839999698, 5.68479899992235, 9.184870700119063, 12.38597850012593, 13.869762900052592, 31.197123599937186]","[0.00022760010324418545, 0.0141569001134485, 0.00020819995552301407, 0.014629499986767769, 4.340839199954644, 0.014352299971506, 0.0002142000012099743, 0.00021059997379779816, 0.04619189980439842, 0.04889579978771508, 0.014809199841693044, 13.678584999870509, 0.014639499830082059, 16.464614699827507, 44.66950690001249, 22.41039210022427, 0.0139508000575006, 0.04764700005762279, 0.030252200085669756, 12.385987400077283, 13.869770900113508, 31.19713189988397]",0,,,,,,,,,,,,,,,,,,,,,,,,,,,,,,,,,,,,,,,,,,,,,,,,,,,,,,,,,,,,,,,,,,,,,,,,,,,,,,,,,,,,,,,,,,,,,,,,,,,,,,,,,,,,,,,,,,,,,,,,,,,,2VNL50,train_y,blue_star,bottom_right,2025-09-16_16h35.41.149,HideSeek_v1,2022.2.5,59.9868868365216,
,7,1,4,1,-3,0,31,,train_dim1_2,1,30,,,,5,0,5,0,,,,,,,,,0,0,0,0,0,0,0,0,0,0,0,0,,,,,,,,,,,,,,,,,,,,,,,,,stimuli/alien_stimuli/31.png,,,,,,,,,,,,,,,,,,,,,,,,,,,,,,,,,,,,,,,30,,,,,,,,4539.812324899947,4539.812324899947,4539.812324899947,4539.812324899947,4539.812324899947,up,3.4582169998902828,0,1,0,99,0.4,-0.24,up,3.3561497998889536,,,,,,,,,,,,,,,,,,,,,,,,,,,,,,,,,,,,,,,,,,,,,,,,,,,,,,,,,,,,2VNL50,train_y,blue_star,bottom_right,2025-09-16_16h35.41.149,HideSeek_v1,2022.2.5,59.9868868365216,
,7,1,4,1,-3,0,31,,train_dim1_2,1,30,,,,5,0,5,0,,,,,,,,,0,0,0,0,0,0,0,0,1,0,1,0,,,,,,,,,,,,,,,,,,,,,,,,,,,,,,,,,,,,,,,,,,,,,,,,,,,,,,,,,,,,,,,,30,,,,,,,,4543.254366799956,4543.254366799956,4543.254366799956,4543.254366799956,4543.254366799956,up,2.977277399972081,0,1,0,99,0.4,-0.15999999999999998,up,2.8901436999440193,,,,,,,,,,,,,,,,,,,,,,,,,,,,,,,,,,,,,,,,,,,,,,,,,,,,,,,,,,,,2VNL50,train_y,blue_star,bottom_right,2025-09-16_16h35.41.149,HideSeek_v1,2022.2.5,59.9868868365216,
,7,1,4,1,-3,0,31,,train_dim1_2,1,30,,,,5,0,5,0,,,,,,,,,0,0,0,0,0,0,0,0,2,0,2,0,,,,,,,,,,,,,,,,,,,,,,,,,,,,,,,,,,,,,,,,,,,,,,,,,,,,,,,,,,,,,,,,30,,,,,,,,4546.242210000055,4546.242210000055,4546.242210000055,4546.242210000055,4546.242210000055,up,0.5066579999402165,0,1,0,99,0.4,-0.07999999999999997,up,0.4251973999198526,,,,,,,,,,,,,,,,,,,,,,,,,,,,,,,,,,,,,,,,,,,,,,,,,,,,,,,,,,,,2VNL50,train_y,blue_star,bottom_right,2025-09-16_16h35.41.149,HideSeek_v1,2022.2.5,59.9868868365216,
,7,1,4,1,-3,0,31,,train_dim1_2,1,30,,,,5,0,5,0,,,,,,,,,0,0,0,0,0,0,0,0,3,0,3,0,,,,,,,,,,,,,,,,,,,,,,,,,,,,,,,,,,,,,,,,,,,,,,,,,,,,,,,,,,,,,,,,30,,,,,,,,4546.755492799915,4546.755492799915,4546.755492799915,4546.755492799915,4546.755492799915,up,0.4100379999727011,0,1,0,99,0.4,2.7755575615628914e-17,up,0.3303602999076247,,,,,,,,,,,,,,,,,,,,,,,,,,,,,,,,,,,,,,,,,,,,,,,,,,,,,,,,,,,,2VNL50,train_y,blue_star,bottom_right,2025-09-16_16h35.41.149,HideSeek_v1,2022.2.5,59.9868868365216,
,7,1,4,1,-3,0,31,,train_dim1_2,1,30,,,,5,0,5,0,,,,,,,,,0,0,0,0,0,0,0,0,4,0,4,0,,,,,,,,,,,,,,,,,,,,,,,,,,,,,,,,,,,,,,,,,,,,,,,,,,,,,,,,,,,,,,,,30,,,,,,,,4547.173733700067,4547.173733700067,4547.173733700067,4547.173733700067,4547.173733700067,return,0.7761736998800188,0,0,0,0,0.4,2.7755575615628914e-17,return,0.6879855999723077,77,-7,0.4,2.7755575615628914e-17,,,,,,,,,,,,,,,,,,,,,,,,,,,,,,,,,,,,,,,,,,,,,,,,,,,,,,,,2VNL50,train_y,blue_star,bottom_right,2025-09-16_16h35.41.149,HideSeek_v1,2022.2.5,59.9868868365216,
,7,4,2,4,-5,0,11,,train_dim1_2,2,30,,,,5,0,5,0,,,,,,,,,0,0,0,0,0,1,1,1,0,0,0,0,,,,,,,,,,,,,,,,,,,,,,,,,stimuli/alien_stimuli/11.png,,,,,,,,,,,,,,,,,,,,,,,,,,,,,stimuli/alien_stimuli/31.png,31,7,3,,,,,,,30,,,,,,,,4555.3327647999395,4555.3327647999395,4555.3327647999395,4555.3327647999395,4555.3327647999395,left,3.6193888999987394,0,0,0,99,0.32,-0.08,left,3.531110499985516,,,,,4553.764622200048,4555.3327647999395,0.16,-0.32,0.0,0.24,-0.32,0.16,0.28,0.16,-0.32,4549.527224499965,4549.527224499965,4549.527224499965,4549.527224499965,4549.527224499965,4549.527224499965,4549.527224499965,4549.527224499965,4549.511224079901,4.355721799889579,return,4.21578950015828,,,,,,,,,,,,,,,,,,,,,,,,,,,,,,,,,2VNL50,train_y,blue_star,bottom_right,2025-09-16_16h35.41.149,HideSeek_v1,2022.2.5,59.9868868365216,
,7,4,2,4,-5,0,11,,train_dim1_2,2,30,,,,5,0,5,0,,,,,,,,,0,0,0,0,0,1,1,1,1,0,1,0,,,,,,,,,,,,,,,,,,,,,,,,,,,,,,,,,,,,,,,,,,,,,,,,,,,,,,,,,,,,,,,,30,,,,,,,,4558.955595500069,4558.955595500069,4558.955595500069,4558.955595500069,4558.955595500069,left,0.5414477000012994,0,0,0,99,0.24,-0.08,left,0.44863510015420616,,,,,,,,,,,,,,,,,,,,,,,,,,,,,,,,,,,,,,,,,,,,,,,,,,,,,,,,,,,,2VNL50,train_y,blue_star,bottom_right,2025-09-16_16h35.41.149,HideSeek_v1,2022.2.5,59.9868868365216,
,7,4,2,4,-5,0,11,,train_dim1_2,2,30,,,,5,0,5,0,,,,,,,,,0,0,0,0,0,1,1,1,2,0,2,0,,,,,,,,,,,,,,,,,,,,,,,,,,,,,,,,,,,,,,,,,,,,,,,,,,,,,,,,,,,,,,,,30,,,,,,,,4559.503627700033,4559.503627700033,4559.503627700033,4559.503627700033,4559.503627700033,left,0.7271956999320537,0,0,0,99,0.15999999999999998,-0.08,left,0.6471675999928266,,,,,,,,,,,,,,,,,,,,,,,,,,,,,,,,,,,,,,,,,,,,,,,,,,,,,,,,,,,,2VNL50,train_y,blue_star,bottom_right,2025-09-16_16h35.41.149,HideSeek_v1,2022.2.5,59.9868868365216,
,7,4,2,4,-5,0,11,,train_dim1_2,2,30,,,,5,0,5,0,,,,,,,,,0,0,0,0,0,1,1,1,3,0,3,0,,,,,,,,,,,,,,,,,,,,,,,,,,,,,,,,,,,,,,,,,,,,,,,,,,,,,,,,,,,,,,,,30,,,,,,,,4560.237141499994,4560.237141499994,4560.237141499994,4560.237141499994,4560.237141499994,left,0.7268991000019014,0,0,0,99,0.07999999999999997,-0.08,left,0.645564200123772,,,,,,,,,,,,,,,,,,,,,,,,,,,,,,,,,,,,,,,,,,,,,,,,,,,,,,,,,,,,2VNL50,train_y,blue_star,bottom_right,2025-09-16_16h35.41.149,HideSeek_v1,2022.2.5,59.9868868365216,
,7,4,2,4,-5,0,11,,train_dim1_2,2,30,,,,5,0,5,0,,,,,,,,,0,0,0,0,0,1,1,1,4,0,4,0,,,,,,,,,,,,,,,,,,,,,,,,,,,,,,,,,,,,,,,,,,,,,,,,,,,,,,,,,,,,,,,,30,,,,,,,,4560.97197850002,4560.97197850002,4560.97197850002,4560.97197850002,4560.97197850002,left,0.5098941999021918,0,0,0,99,-2.7755575615628914e-17,-0.08,left,0.43189639993943274,,,,,,,,,,,,,,,,,,,,,,,,,,,,,,,,,,,,,,,,,,,,,,,,,,,,,,,,,,,,2VNL50,train_y,blue_star,bottom_right,2025-09-16_16h35.41.149,HideSeek_v1,2022.2.5,59.9868868365216,
