trialInstr,x_fixStart,y_fixStart,x_corrSteps,y_corrSteps,x_nrSteps,y_nrSteps,alienID,trialLength,version,trialTrain,praclen,testlen,trial_label,break_on_off,beforeExpLoop.thisRepN,beforeExpLoop.thisTrialN,beforeExpLoop.thisN,beforeExpLoop.thisIndex,mini_instr_trials.thisRepN,mini_instr_trials.thisTrialN,mini_instr_trials.thisN,mini_instr_trials.thisIndex,instrLoop.thisRepN,instrLoop.thisTrialN,instrLoop.thisN,instrLoop.thisIndex,repeat_prac.thisRepN,repeat_prac.thisTrialN,repeat_prac.thisN,repeat_prac.thisIndex,trainLoop.thisRepN,trainLoop.thisTrialN,trainLoop.thisN,trainLoop.thisIndex,moveLoop_train.thisRepN,moveLoop_train.thisTrialN,moveLoop_train.thisN,moveLoop_train.thisIndex,experiment.thisRepN,experiment.thisTrialN,experiment.thisN,experiment.thisIndex,moveLoop_test.thisRepN,moveLoop_test.thisTrialN,moveLoop_test.thisN,moveLoop_test.thisIndex,mini_instr2_trials.thisRepN,mini_instr2_trials.thisTrialN,mini_instr2_trials.thisN,mini_instr2_trials.thisIndex,start_all_time,url,slideStim,audioStim,slides.started,sounds.started,nextButton.numClicks,nextButton.timesOn,nextButton.timesOff,prev_but.numClicks,prev_but.timesOn,prev_but.timesOff,alienStim,instrFile,alienStim_instr,gridImage_instr.started,startPos_3.started,key_instr.started,alienImage_3.started,sounds_1.started,key_instr.keys,key_instr.rt,all_x,all_y,FBy_corrSteps,FBy_fixStart,FBx_corrSteps,FBx_fixStart,FBy_pathSize_check,FBx_pathSize_check,gridImage_9.started,alienImageFB_3.started,startPosFB_3.started,keyFB_3.started,pathLine_ydir_2.started,pathLine_xdir_2.started,alienFace_3.started,sounds_2.started,RTFB_instr,keyFB_3.keys,keyFB_3.rt,draw_alienStim,draw_alienID,test_x,nrepcount,perfthres,percthres,earlierperf,earlystop,nextPrac,fileidx,praclen,saveACC_train,pracFile,nextPrac_train,addNrep,fileidx_endr,repExp,showearly,gridImage_4.started,startPos.started,movePos.started,key_resp.started,alienImage.started,buttonPress_train,RTchoice_train,cumAcctrain,aCorr,saveACC_choice,corrAns,x_movePos_end,y_movePos_end,key_resp.keys,key_resp.rt,wLy_dir,wLx_dir,x_movePos,y_movePos,text_2.started,aft_x_corrPos,aft_y_corrPos,y_pathSize_check,x_pathSize_check,y_pathdirY,x_pathdirY,x_pathdirX,x_corrPos,y_corrPos,gridImage_6.started,alienImageFB_2.started,startPosFB_2.started,movePosFB_2.started,keyFB_2.started,pathLine_xdir.started,pathLine_ydir.started,alienFace.started,sounds_4.started,RT_FBtrain,keyFB_2.keys,keyFB_2.rt,text_2.stopped,saveACC_pre,ACC,within_saveACC_train,earlystop_wloop,cumAcctrain_check,gridImage_3.started,alienImage_test.started,startPos_test.started,movePos_test.started,key_resp_test.started,wLy_dir_test,wLx_dir_test,buttonPress_test,RTchoice_test,cumAcctest,corrAns_test,key_resp_test.keys,key_resp_test.rt,text_3.started,text_3.stopped,total_time,end_all_time,key_resp_3.keys,slides_2.started,sounds_3.started,nextButton_2.numClicks,nextButton_2.timesOn,nextButton_2.timesOff,prev_but_2.numClicks,prev_but_2.timesOn,prev_but_2.timesOff,bye.started,participant,train_first,00_coordinate,starting corner,date,expName,psychopyVersion,frameRate,
,,,,,,,,,,,,,,,0,0,0,0,0,0,0,0,,,,,,,,,,,,,,,,,,,,,,,,,,,,,start_all_time,testround,conditions/schedules/train_y_first/red_square_00/top_left/instructions/Slide1.png,conditions/schedules/train_y_first/red_square_00/top_left/instructions/Audio1.wav,45.52599220001139,45.46780076838331,1,[2.6538260000525042],[2.6538323999848217],0,,,,,,,,,,,,,,,,,,,,,,,,,,,,,,,,,,,,,,,,,,,,,,,,,,,,,,,,,,,,,,,,,,,,,,,,,,,,,,,,,,,,,,,,,,,,,,,,,,,,,,,,,,,,,,,,,,,,,,,,,,,,32DEYU,train_y,red_square,top_left,2025-09-08_16h24.55.642,HideSeek_v1,2022.2.5,59.98969376197217,
,,,,,,,,,,,,,,,0,0,0,0,1,0,1,0,,,,,,,,,,,,,,,,,,,,,,,,,,,,,,,conditions/schedules/train_y_first/red_square_00/top_left/instructions/Slide2.png,conditions/schedules/train_y_first/red_square_00/top_left/instructions/Audio2.wav,48.19831410003826,48.19997154996963,2,"[2.6538260000525042, 17.396916799945757]","[0.013718999922275543, 17.396923599997535]",0,,,,,,,,,,,,,,,,,,,,,,,,,,,,,,,,,,,,,,,,,,,,,,,,,,,,,,,,,,,,,,,,,,,,,,,,,,,,,,,,,,,,,,,,,,,,,,,,,,,,,,,,,,,,,,,,,,,,,,,,,,,,32DEYU,train_y,red_square,top_left,2025-09-08_16h24.55.642,HideSeek_v1,2022.2.5,59.98969376197217,
,,,,,,,,,,,,,,,0,0,0,0,2,0,2,0,,,,,,,,,,,,,,,,,,,,,,,,,,,,,,,conditions/schedules/train_y_first/red_square_00/top_left/instructions/Slide3.png,conditions/schedules/train_y_first/red_square_00/top_left/instructions/Audio3.wav,65.66765379998833,65.66423175000818,3,"[2.6538260000525042, 17.396916799945757, 16.224772500107065]","[0.013718999922275543, 0.014079800108447671, 16.224778900039382]",0,,,,,,,,,,,,,,,,,,,,,,,,,,,,,,,,,,,,,,,,,,,,,,,,,,,,,,,,,,,,,,,,,,,,,,,,,,,,,,,,,,,,,,,,,,,,,,,,,,,,,,,,,,,,,,,,,,,,,,,,,,,,32DEYU,train_y,red_square,top_left,2025-09-08_16h24.55.642,HideSeek_v1,2022.2.5,59.98969376197217,
,,,,,,,,,,,,,,,0,0,0,0,3,0,3,0,,,,,,,,,,,,,,,,,,,,,,,,,,,,,,,conditions/schedules/train_y_first/red_square_00/top_left/instructions/Slide4.png,conditions/schedules/train_y_first/red_square_00/top_left/instructions/Audio4.wav,81.96975829999428,81.96124645002419,4,"[2.6538260000525042, 17.396916799945757, 16.224772500107065, 20.0400867999997]","[0.013718999922275543, 0.014079800108447671, 0.0002207999350503087, 20.040103500010446]",0,,,,,,,,,,,,,,,,,,,,,,,,,,,,,,,,,,,,,,,,,,,,,,,,,,,,,,,,,,,,,,,,,,,,,,,,,,,,,,,,,,,,,,,,,,,,,,,,,,,,,,,,,,,,,,,,,,,,,,,,,,,,32DEYU,train_y,red_square,top_left,2025-09-08_16h24.55.642,HideSeek_v1,2022.2.5,59.98969376197217,
,,,,,,,,,,,,,,,0,0,0,0,4,0,4,0,,,,,,,,,,,,,,,,,,,,,,,,,,,,,,,conditions/schedules/train_y_first/red_square_00/top_left/instructions/Slide5.png,conditions/schedules/train_y_first/red_square_00/top_left/instructions/Audio5.wav,102.07532599999104,102.07799594994867,5,"[2.6538260000525042, 17.396916799945757, 16.224772500107065, 20.0400867999997, 4.020628900034353]","[0.013718999922275543, 0.014079800108447671, 0.0002207999350503087, 0.034006400033831596, 4.020635899971239]",0,,,,,,,,,,,,,,,,,,,,,,,,,,,,,,,,,,,,,,,,,,,,,,,,,,,,,,,,,,,,,,,,,,,,,,,,,,,,,,,,,,,,,,,,,,,,,,,,,,,,,,,,,,,,,,,,,,,,,,,,,,,,32DEYU,train_y,red_square,top_left,2025-09-08_16h24.55.642,HideSeek_v1,2022.2.5,59.98969376197217,
,,,,,,,,,,,,,,,0,0,0,0,5,0,5,0,,,,,,,,,,,,,,,,,,,,,,,,,,,,,,,conditions/schedules/train_y_first/red_square_00/top_left/instructions/Slide6.png,conditions/schedules/train_y_first/red_square_00/top_left/instructions/Audio6.wav,106.14712760003749,106.14795821998268,6,"[2.6538260000525042, 17.396916799945757, 16.224772500107065, 20.0400867999997, 4.020628900034353, 5.4202477999497205]","[0.013718999922275543, 0.014079800108447671, 0.0002207999350503087, 0.034006400033831596, 0.04901019996032119, 5.420254800003022]",0,,,,,,,,,,,,,,,,,,,,,,,,,,,,,,,,,,,,,,,,,,,,,,,,,,,,,,,,,,,,,,,,,,,,,,,,,,,,,,,,,,,,,,,,,,,,,,,,,,,,,,,,,,,,,,,,,,,,,,,,,,,,32DEYU,train_y,red_square,top_left,2025-09-08_16h24.55.642,HideSeek_v1,2022.2.5,59.98969376197217,
,,,,,,,,,,,,,,,0,0,0,0,6,0,6,0,,,,,,,,,,,,,,,,,,,,,,,,,,,,,,,conditions/schedules/train_y_first/red_square_00/top_left/instructions/Slide7.png,conditions/schedules/train_y_first/red_square_00/top_left/instructions/Audio7.wav,111.62292170000728,111.61928691994399,7,"[2.6538260000525042, 17.396916799945757, 16.224772500107065, 20.0400867999997, 4.020628900034353, 5.4202477999497205, 5.315404699998908]","[0.013718999922275543, 0.014079800108447671, 0.0002207999350503087, 0.034006400033831596, 0.04901019996032119, 0.014449900016188622, 5.315411300049163]",0,,,,,,,,,,,,,,,,,,,,,,,,,,,,,,,,,,,,,,,,,,,,,,,,,,,,,,,,,,,,,,,,,,,,,,,,,,,,,,,,,,,,,,,,,,,,,,,,,,,,,,,,,,,,,,,,,,,,,,,,,,,,32DEYU,train_y,red_square,top_left,2025-09-08_16h24.55.642,HideSeek_v1,2022.2.5,59.98969376197217,
,,,,,,,,,,,,,,,0,0,0,0,7,0,7,0,,,,,,,,,,,,,,,,,,,,,,,,,,,,,,,conditions/schedules/train_y_first/red_square_00/top_left/instructions/Slide8.png,conditions/schedules/train_y_first/red_square_00/top_left/instructions/Audio8.wav,116.99131199996918,116.99027011997532,8,"[2.6538260000525042, 17.396916799945757, 16.224772500107065, 20.0400867999997, 4.020628900034353, 5.4202477999497205, 5.315404699998908, 11.30614240001887]","[0.013718999922275543, 0.014079800108447671, 0.0002207999350503087, 0.034006400033831596, 0.04901019996032119, 0.014449900016188622, 5.315411300049163, 11.30614860006608]",0,,,,,,,,,,,,,,,,,,,,,,,,,,,,,,,,,,,,,,,,,,,,,,,,,,,,,,,,,,,,,,,,,,,,,,,,,,,,,,,,,,,,,,,,,,,,,,,,,,,,,,,,,,,,,,,,,,,,,,,,,,,,32DEYU,train_y,red_square,top_left,2025-09-08_16h24.55.642,HideSeek_v1,2022.2.5,59.98969376197217,
,,,,,,,,,,,,,,,0,0,0,0,8,0,8,0,,,,,,,,,,,,,,,,,,,,,,,,,,,,,,,conditions/schedules/train_y_first/red_square_00/top_left/instructions/Slide9.png,conditions/schedules/train_y_first/red_square_00/top_left/instructions/Audio9.wav,128.35904859995935,128.34965751995333,9,"[2.6538260000525042, 17.396916799945757, 16.224772500107065, 20.0400867999997, 4.020628900034353, 5.4202477999497205, 5.315404699998908, 11.30614240001887, 5.62729129998479]","[0.013718999922275543, 0.014079800108447671, 0.0002207999350503087, 0.034006400033831596, 0.04901019996032119, 0.014449900016188622, 5.315411300049163, 0.03546359995380044, 5.6272982999216765]",0,,,,,,,,,,,,,,,,,,,,,,,,,,,,,,,,,,,,,,,,,,,,,,,,,,,,,,,,,,,,,,,,,,,,,,,,,,,,,,,,,,,,,,,,,,,,,,,,,,,,,,,,,,,,,,,,,,,,,,,,,,,,32DEYU,train_y,red_square,top_left,2025-09-08_16h24.55.642,HideSeek_v1,2022.2.5,59.98969376197217,
,,,,,,,,,,,,,,,0,0,0,0,9,0,9,0,,,,,,,,,,,,,,,,,,,,,,,,,,,,,,,conditions/schedules/train_y_first/red_square_00/top_left/instructions/Slide10.png,conditions/schedules/train_y_first/red_square_00/top_left/instructions/Audio10.wav,134.02303060004488,134.0211308899452,10,"[2.6538260000525042, 17.396916799945757, 16.224772500107065, 20.0400867999997, 4.020628900034353, 5.4202477999497205, 5.315404699998908, 11.30614240001887, 5.62729129998479, 6.501346800010651]","[0.013718999922275543, 0.014079800108447671, 0.0002207999350503087, 0.034006400033831596, 0.04901019996032119, 0.014449900016188622, 5.315411300049163, 0.03546359995380044, 0.11238290008623153, 6.5013535000616685]",0,,,,,,,,,,,,,,,,,,,,,,,,,,,,,,,,,,,,,,,,,,,,,,,,,,,,,,,,,,,,,,,,,,,,,,,,,,,,,,,,,,,,,,,,,,,,,,,,,,,,,,,,,,,,,,,,,,,,,,,,,,,,32DEYU,train_y,red_square,top_left,2025-09-08_16h24.55.642,HideSeek_v1,2022.2.5,59.98969376197217,
,,,,,,,,,,,,,,,0,0,0,0,10,0,10,0,,,,,,,,,,,,,,,,,,,,,,,,,,,,,,,conditions/schedules/train_y_first/red_square_00/top_left/instructions/Slide11.png,conditions/schedules/train_y_first/red_square_00/top_left/instructions/Audio11.wav,140.56346750003286,140.56010158994468,11,"[2.6538260000525042, 17.396916799945757, 16.224772500107065, 20.0400867999997, 4.020628900034353, 5.4202477999497205, 5.315404699998908, 11.30614240001887, 5.62729129998479, 6.501346800010651, 9.802279699943028]","[0.013718999922275543, 0.014079800108447671, 0.0002207999350503087, 0.034006400033831596, 0.04901019996032119, 0.014449900016188622, 5.315411300049163, 0.03546359995380044, 0.11238290008623153, 0.06172070000320673, 9.802286399994045]",0,,,,,,,,,,,,,,,,,,,,,,,,,,,,,,,,,,,,,,,,,,,,,,,,,,,,,,,,,,,,,,,,,,,,,,,,,,,,,,,,,,,,,,,,,,,,,,,,,,,,,,,,,,,,,,,,,,,,,,,,,,,,32DEYU,train_y,red_square,top_left,2025-09-08_16h24.55.642,HideSeek_v1,2022.2.5,59.98969376197217,
,,,,,,,,,,,,,,,0,0,0,0,11,0,11,0,,,,,,,,,,,,,,,,,,,,,,,,,,,,,,,conditions/schedules/train_y_first/red_square_00/top_left/instructions/Slide12.png,conditions/schedules/train_y_first/red_square_00/top_left/instructions/Audio12.wav,150.4243496999843,150.41792832000647,12,"[2.6538260000525042, 17.396916799945757, 16.224772500107065, 20.0400867999997, 4.020628900034353, 5.4202477999497205, 5.315404699998908, 11.30614240001887, 5.62729129998479, 6.501346800010651, 9.802279699943028, 13.55279420001898]","[0.013718999922275543, 0.014079800108447671, 0.0002207999350503087, 0.034006400033831596, 0.04901019996032119, 0.014449900016188622, 5.315411300049163, 0.03546359995380044, 0.11238290008623153, 0.06172070000320673, 0.014065499999560416, 13.552800899953581]",0,,,,,,,,,,,,,,,,,,,,,,,,,,,,,,,,,,,,,,,,,,,,,,,,,,,,,,,,,,,,,,,,,,,,,,,,,,,,,,,,,,,,,,,,,,,,,,,,,,,,,,,,,,,,,,,,,,,,,,,,,,,,32DEYU,train_y,red_square,top_left,2025-09-08_16h24.55.642,HideSeek_v1,2022.2.5,59.98969376197217,
1,2,8,2,3,0,-5,11,2,instr_dim1_1,,,,,,0,0,0,0,,,,,0,0,0,0,,,,,,,,,,,,,,,,,,,,,,,,,,,,,,,,,,,,,stimuli/alien_stimuli/11.png,conditions/schedules/train_y_first/red_square_00/top_left/inputInstr_1.xlsx,stimuli/alien_stimuli/11.png,164.07774890004657,164.07774890004657,164.07774890004657,164.07774890004657,164.0791188099538,return,9.46878450002987,"[-0.16, -0.08, 0, 0.08, 0.16, 0.24, 0.32, 0.4, 0.48, 0.56]","[-0.4, -0.32, -0.24, -0.16, -0.08, 0, 0.08, 0.16, 0.24, 0.32]",3,8,2,2,0.4,0.0,173.6952279000543,173.6952279000543,173.6952279000543,173.6952279000543,173.6952279000543,173.6952279000543,173.6952279000543,173.68729473999701,9.77561060001608,return,9.630148399970494,stimuli/alien_stimuli/11.png,11,2,1,,,,,,,,,,,,,,,,,,,,,,,,,,,,,,,,,,,,,,,,,,,,,,,,,,,,,,,,,,,,,,,,,,,,,,,,,,,,,,,,,,,,,,,,,32DEYU,train_y,red_square,top_left,2025-09-08_16h24.55.642,HideSeek_v1,2022.2.5,59.98969376197217,
,,,,,,,,,,,30,,,,0,0,0,0,,,,,,,,,,,,,,,,,,,,,,,,,,,,,,,,,,,,,,,,,,,,,,,,,,,,,,,,,,,,,,,,,,,,,,,,,,,,,,21,0.7,0,0,99,1,30,0,conditions/schedules/train_y_first/red_square_00/top_left/inputTrain_1.1.xlsx,99,1,1,1,0,,,,,,,,,,,,,,,,,,,,,,,,,,,,,,,,,,,,,,,,,,,,,,,,,,,,,,,,,,,,,,,,,,,,,,,,,,,32DEYU,train_y,red_square,top_left,2025-09-08_16h24.55.642,HideSeek_v1,2022.2.5,59.98969376197217,
,,,,,,,,,,,,,,,1,0,1,0,0,0,0,0,,,,,,,,,,,,,,,,,,,,,,,,,,,,,,,conditions/schedules/train_y_first/red_square_00/top_left/instructions/Slide13.png,conditions/schedules/train_y_first/red_square_00/top_left/instructions/Audio13.wav,183.4817474000156,183.47842396999476,13,"[2.6538260000525042, 17.396916799945757, 16.224772500107065, 20.0400867999997, 4.020628900034353, 5.4202477999497205, 5.315404699998908, 11.30614240001887, 5.62729129998479, 6.501346800010651, 9.802279699943028, 13.55279420001898, 17.743034600047395]","[0.013718999922275543, 0.014079800108447671, 0.0002207999350503087, 0.034006400033831596, 0.04901019996032119, 0.014449900016188622, 5.315411300049163, 0.03546359995380044, 0.11238290008623153, 0.06172070000320673, 0.014065499999560416, 13.552800899953581, 17.743041899986565]",0,,,,,,,,,,,,,,,,,,,,,,,,,,,,,,,,,,,,,,,,,,,,,,,,,,,,,,,,,,,,,,,,,,,,,,,,,,,,,,,,,,,,,,,,,,,,,,,,,,,,,,,,,,,,,,,,,,,,,,,,,,,,32DEYU,train_y,red_square,top_left,2025-09-08_16h24.55.642,HideSeek_v1,2022.2.5,59.98969376197217,
,,,,,,,,,,,,,,,1,0,1,0,1,0,1,0,,,,,,,,,,,,,,,,,,,,,,,,,,,,,,,conditions/schedules/train_y_first/red_square_00/top_left/instructions/Slide14.png,conditions/schedules/train_y_first/red_square_00/top_left/instructions/Audio14.wav,201.28964810003527,201.27718402002938,14,"[2.6538260000525042, 17.396916799945757, 16.224772500107065, 20.0400867999997, 4.020628900034353, 5.4202477999497205, 5.315404699998908, 11.30614240001887, 5.62729129998479, 6.501346800010651, 9.802279699943028, 13.55279420001898, 17.743034600047395, 19.469260400044732]","[0.013718999922275543, 0.014079800108447671, 0.0002207999350503087, 0.034006400033831596, 0.04901019996032119, 0.014449900016188622, 5.315411300049163, 0.03546359995380044, 0.11238290008623153, 0.06172070000320673, 0.014065499999560416, 13.552800899953581, 0.014065299998037517, 19.469267600099556]",0,,,,,,,,,,,,,,,,,,,,,,,,,,,,,,,,,,,,,,,,,,,,,,,,,,,,,,,,,,,,,,,,,,,,,,,,,,,,,,,,,,,,,,,,,,,,,,,,,,,,,,,,,,,,,,,,,,,,,,,,,,,,32DEYU,train_y,red_square,top_left,2025-09-08_16h24.55.642,HideSeek_v1,2022.2.5,59.98969376197217,
2,0,8,0,8,0,0,16,2,instr_dim1_1,,,,,,1,0,1,0,,,,,0,0,0,0,,,,,,,,,,,,,,,,,,,,,,,,,,,,,,,,,,,,,stimuli/alien_stimuli/16.png,conditions/schedules/train_y_first/red_square_00/top_left/inputInstr_1.xlsx,stimuli/alien_stimuli/16.png,220.86187599995174,220.86187599995174,220.86187599995174,220.86187599995174,220.85947740991833,return,3.602643500082195,"[-0.16, -0.08, 0, 0.08, 0.16, 0.24, 0.32, 0.4, 0.48, 0.56]","[-0.4, -0.32, -0.24, -0.16, -0.08, 0, 0.08, 0.16, 0.24, 0.32]",8,8,0,0,0.0,0.0,224.621836300008,224.621836300008,224.621836300008,224.621836300008,224.621836300008,224.621836300008,224.621836300008,224.6123751399573,9.759072299930267,return,9.605976999970153,stimuli/alien_stimuli/16.png,16,0,2,,,,,,,,,,,,,,,,,,,,,,,,,,,,,,,,,,,,,,,,,,,,,,,,,,,,,,,,,,,,,,,,,,,,,,,,,,,,,,,,,,,,,,,,,32DEYU,train_y,red_square,top_left,2025-09-08_16h24.55.642,HideSeek_v1,2022.2.5,59.98969376197217,
,,,,,,,,,,,30,,,,1,0,1,0,,,,,,,,,,,,,,,,,,,,,,,,,,,,,,,,,,,,,,,,,,,,,,,,,,,,,,,,,,,,,,,,,,,,,,,,,,,,,,21,0.7,0,0,99,1,30,0,conditions/schedules/train_y_first/red_square_00/top_left/inputTrain_1.1.xlsx,99,1,1,1,0,,,,,,,,,,,,,,,,,,,,,,,,,,,,,,,,,,,,,,,,,,,,,,,,,,,,,,,,,,,,,,,,,,,,,,,,,,,32DEYU,train_y,red_square,top_left,2025-09-08_16h24.55.642,HideSeek_v1,2022.2.5,59.98969376197217,
,,,,,,,,,,,,,,,2,0,2,0,0,0,0,0,,,,,,,,,,,,,,,,,,,,,,,,,,,,,,,conditions/schedules/train_y_first/red_square_00/top_left/instructions/Slide15.png,conditions/schedules/train_y_first/red_square_00/top_left/instructions/Audio15.wav,234.4281742000021,234.4201952299918,15,"[2.6538260000525042, 17.396916799945757, 16.224772500107065, 20.0400867999997, 4.020628900034353, 5.4202477999497205, 5.315404699998908, 11.30614240001887, 5.62729129998479, 6.501346800010651, 9.802279699943028, 13.55279420001898, 17.743034600047395, 19.469260400044732, 42.9615000000922]","[0.013718999922275543, 0.014079800108447671, 0.0002207999350503087, 0.034006400033831596, 0.04901019996032119, 0.014449900016188622, 5.315411300049163, 0.03546359995380044, 0.11238290008623153, 0.06172070000320673, 0.014065499999560416, 13.552800899953581, 0.014065299998037517, 19.469267600099556, 42.96152160002384]",0,,,,,,,,,,,,,,,,,,,,,,,,,,,,,,,,,,,,,,,,,,,,,,,,,,,,,,,,,,,,,,,,,,,,,,,,,,,,,,,,,,,,,,,,,,,,,,,,,,,,,,,,,,,,,,,,,,,,,,,,,,,,32DEYU,train_y,red_square,top_left,2025-09-08_16h24.55.642,HideSeek_v1,2022.2.5,59.98969376197217,
,,,,,,,,,,,,,,,2,0,2,0,1,0,1,0,,,,,,,,,,,,,,,,,,,,,,,,,,,,,,,conditions/schedules/train_y_first/red_square_00/top_left/instructions/Slide16.png,conditions/schedules/train_y_first/red_square_00/top_left/instructions/Audio16.wav,277.4689131999621,277.4568245499977,16,"[2.6538260000525042, 17.396916799945757, 16.224772500107065, 20.0400867999997, 4.020628900034353, 5.4202477999497205, 5.315404699998908, 11.30614240001887, 5.62729129998479, 6.501346800010651, 9.802279699943028, 13.55279420001898, 17.743034600047395, 19.469260400044732, 42.9615000000922, 21.553506499971263]","[0.013718999922275543, 0.014079800108447671, 0.0002207999350503087, 0.034006400033831596, 0.04901019996032119, 0.014449900016188622, 5.315411300049163, 0.03546359995380044, 0.11238290008623153, 0.06172070000320673, 0.014065499999560416, 13.552800899953581, 0.014065299998037517, 19.469267600099556, 42.96152160002384, 21.553513400023803]",0,,,,,,,,,,,,,,,,,,,,,,,,,,,,,,,,,,,,,,,,,,,,,,,,,,,,,,,,,,,,,,,,,,,,,,,,,,,,,,,,,,,,,,,,,,,,,,,,,,,,,,,,,,,,,,,,,,,,,,,,,,,,32DEYU,train_y,red_square,top_left,2025-09-08_16h24.55.642,HideSeek_v1,2022.2.5,59.98969376197217,
,0,5,0,4,0,-1,15,,train_dim1_1,1,30,,,,2,0,2,0,,,,,,,,,0,0,0,0,0,0,0,0,0,0,0,0,,,,,,,,,,,,,,,,,,,,,,,,,stimuli/alien_stimuli/15.png,,,,,,,,,,,,,,,,,,,,,,,,,,,,,,,,,,,,,,,30,,,,,,,,299.1461389999604,299.1461389999604,299.1461389999604,299.1461389999604,299.1461389999604,right,2.4848755999701098,0,0,0,99,-0.08,0,right,2.380798800033517,,,,,,,,,,,,,,,,,,,,,,,,,,,,,,,,,,,,,,,,,,,,,,,,,,,,,,,,,,,,32DEYU,train_y,red_square,top_left,2025-09-08_16h24.55.642,HideSeek_v1,2022.2.5,59.98969376197217,
,0,5,0,4,0,-1,15,,train_dim1_1,1,30,,,,2,0,2,0,,,,,,,,,0,0,0,0,0,0,0,0,1,0,1,0,,,,,,,,,,,,,,,,,,,,,,,,,,,,,,,,,,,,,,,,,,,,,,,,,,,,,,,,,,,,,,,,30,,,,,,,,301.61329330003355,301.61329330003355,301.61329330003355,301.61329330003355,301.61329330003355,right,0.8426012999843806,0,0,0,99,0.0,0,right,0.7513582999818027,,,,,,,,,,,,,,,,,,,,,,,,,,,,,,,,,,,,,,,,,,,,,,,,,,,,,,,,,,,,32DEYU,train_y,red_square,top_left,2025-09-08_16h24.55.642,HideSeek_v1,2022.2.5,59.98969376197217,
,0,5,0,4,0,-1,15,,train_dim1_1,1,30,,,,2,0,2,0,,,,,,,,,0,0,0,0,0,0,0,0,2,0,2,0,,,,,,,,,,,,,,,,,,,,,,,,,,,,,,,,,,,,,,,,,,,,,,,,,,,,,,,,,,,,,,,,30,,,,,,,,302.4629697999917,302.4629697999917,302.4629697999917,302.4629697999917,302.4629697999917,right,0.7436805999604985,0,0,0,99,0.08,0,right,0.6571289000567049,,,,,,,,,,,,,,,,,,,,,,,,,,,,,,,,,,,,,,,,,,,,,,,,,,,,,,,,,,,,32DEYU,train_y,red_square,top_left,2025-09-08_16h24.55.642,HideSeek_v1,2022.2.5,59.98969376197217,
,0,5,0,4,0,-1,15,,train_dim1_1,1,30,,,,2,0,2,0,,,,,,,,,0,0,0,0,0,0,0,0,3,0,3,0,,,,,,,,,,,,,,,,,,,,,,,,,,,,,,,,,,,,,,,,,,,,,,,,,,,,,,,,,,,,,,,,30,,,,,,,,303.2164222999709,303.2164222999709,303.2164222999709,303.2164222999709,303.2164222999709,right,1.0244808999123052,0,0,0,99,0.16,0,right,0.9312304999912158,,,,,,,,,,,,,,,,,,,,,,,,,,,,,,,,,,,,,,,,,,,,,,,,,,,,,,,,,,,,32DEYU,train_y,red_square,top_left,2025-09-08_16h24.55.642,HideSeek_v1,2022.2.5,59.98969376197217,
,0,5,0,4,0,-1,15,,train_dim1_1,1,30,,,,2,0,2,0,,,,,,,,,0,0,0,0,0,0,0,0,4,0,4,0,,,,,,,,,,,,,,,,,,,,,,,,,,,,,,,,,,,,,,,,,,,,,,,,,,,,,,,,,,,,,,,,30,,,,,,,,304.2473637999501,304.2473637999501,304.2473637999501,304.2473637999501,304.2473637999501,return,1.348283899948001,0,0,0,0,0.16,0,return,1.2651051001157612,0,4,0.16,0,,,,,,,,,,,,,,,,,,,,,,,,,,,,,,,,,,,,,,,,,,,,,,,,,,,,,,,,32DEYU,train_y,red_square,top_left,2025-09-08_16h24.55.642,HideSeek_v1,2022.2.5,59.98969376197217,
,3,7,3,7,0,0,16,,train_dim1_1,2,30,,,,2,0,2,0,,,,,,,,,0,0,0,0,0,1,1,1,0,0,0,0,,,,,,,,,,,,,,,,,,,,,,,,,stimuli/alien_stimuli/16.png,,,,,,,,,,,,,,,,,,,,,,,,,,,,,stimuli/alien_stimuli/15.png,15,0,3,,,,,,,30,,,,,,,,314.60895060002804,314.60895060002804,314.60895060002804,314.60895060002804,314.60895060002804,down,1.9911519999150187,0,0,0,99,0.08,0.08,down,1.9030789999524131,,,,,313.0396699999692,-0.16,-0.08,0.08,0.0,-0.04,-0.16,-0.16,-0.16,-0.08,307.1905394999776,307.1905394999776,307.1905394999776,307.1905394999776,307.1905394999776,307.1905394999776,307.1905394999776,307.1905394999776,307.18095533992164,5.978881100076251,return,5.817545800004154,,,,,,,,,,,,,,,,,,,,,,,,,,,,,,,,,,32DEYU,train_y,red_square,top_left,2025-09-08_16h24.55.642,HideSeek_v1,2022.2.5,59.98969376197217,
,3,7,3,7,0,0,16,,train_dim1_1,2,30,,,,2,0,2,0,,,,,,,,,0,0,0,0,0,1,1,1,1,0,1,0,,,,,,,,,,,,,,,,,,,,,,,,,,,,,,,,,,,,,,,,,,,,,,,,,,,,,,,,,,,,,,,,30,,,,,,,,316.6068442000542,316.6068442000542,316.6068442000542,316.6068442000542,316.6068442000542,down,0.6435692999511957,0,0,0,99,0.08,0.0,down,0.5571187000023201,,,,,,,,,,,,,,,,,,,,,,,,,,,,,,,,,,,,,,,,,,,,,,,,,,,,,,,,,,,,32DEYU,train_y,red_square,top_left,2025-09-08_16h24.55.642,HideSeek_v1,2022.2.5,59.98969376197217,
,3,7,3,7,0,0,16,,train_dim1_1,2,30,,,,2,0,2,0,,,,,,,,,0,0,0,0,0,1,1,1,2,0,2,0,,,,,,,,,,,,,,,,,,,,,,,,,,,,,,,,,,,,,,,,,,,,,,,,,,,,,,,,,,,,,,,,30,,,,,,,,317.2583703000564,317.2583703000564,317.2583703000564,317.2583703000564,317.2583703000564,down,1.3938827000092715,0,0,0,99,0.08,-0.08,down,1.3113137999316677,,,,,,,,,,,,,,,,,,,,,,,,,,,,,,,,,,,,,,,,,,,,,,,,,,,,,,,,,,,,32DEYU,train_y,red_square,top_left,2025-09-08_16h24.55.642,HideSeek_v1,2022.2.5,59.98969376197217,
,3,7,3,7,0,0,16,,train_dim1_1,2,30,,,,2,0,2,0,,,,,,,,,0,0,0,0,0,1,1,1,3,0,3,0,,,,,,,,,,,,,,,,,,,,,,,,,,,,,,,,,,,,,,,,,,,,,,,,,,,,,,,,,,,,,,,,30,,,,,,,,318.6661232999759,318.6661232999759,318.6661232999759,318.6661232999759,318.6661232999759,return,0.25847999996040016,0,0,0,0,0.08,-0.08,return,0.16697890008799732,-3,4,0.08,-0.08,,,,,,,,,,,,,,,,,,,,,,,,,,,,,,,,,,,,,,,,,,,,,,,,,,,,,,,,32DEYU,train_y,red_square,top_left,2025-09-08_16h24.55.642,HideSeek_v1,2022.2.5,59.98969376197217,
,2,8,2,5,0,-3,13,,train_dim1_1,3,30,,,,2,0,2,0,,,,,,,,,0,0,0,0,0,2,2,2,0,0,0,0,,,,,,,,,,,,,,,,,,,,,,,,,stimuli/alien_stimuli/13.png,,,,,,,,,,,,,,,,,,,,,,,,,,,,,stimuli/alien_stimuli/16.png,16,3,4,,,,,,,30,,,,,,,,326.00109999999404,326.00109999999404,326.00109999999404,326.00109999999404,326.00109999999404,down,2.441424199962057,0,0,0,99,0,0.15999999999999998,down,2.3609394000377506,,,,,324.4460162000032,0.08,0.16,0.0,0.0,0.16,0.08,0.08,0.08,0.16,320.4917369999457,320.4917369999457,320.4917369999457,320.4917369999457,320.4917369999457,320.4917369999457,320.4917369999457,320.4917369999457,320.49187833990436,4.072258199914359,return,3.922912699985318,326.00109999999404,,,,,,,,,,,,,,,,,,,,,,,,,,,,,,,,,32DEYU,train_y,red_square,top_left,2025-09-08_16h24.55.642,HideSeek_v1,2022.2.5,59.98969376197217,
,2,8,2,5,0,-3,13,,train_dim1_1,3,30,,,,2,0,2,0,,,,,,,,,0,0,0,0,0,2,2,2,1,0,1,0,,,,,,,,,,,,,,,,,,,,,,,,,,,,,,,,,,,,,,,,,,,,,,,,,,,,,,,,,,,,,,,,30,,,,,,,,328.4510801000288,328.4510801000288,328.4510801000288,328.4510801000288,328.4510801000288,down,0.3420573000330478,0,0,0,99,0,0.07999999999999997,down,0.25906579999718815,,,,,,,,,,,,,,,,,,,,,,,,,,,,,,,,,,,,,,,,,,,,,,,,,,,,,,,,,,,,32DEYU,train_y,red_square,top_left,2025-09-08_16h24.55.642,HideSeek_v1,2022.2.5,59.98969376197217,
,2,8,2,5,0,-3,13,,train_dim1_1,3,30,,,,2,0,2,0,,,,,,,,,0,0,0,0,0,2,2,2,2,0,2,0,,,,,,,,,,,,,,,,,,,,,,,,,,,,,,,,,,,,,,,,,,,,,,,,,,,,,,,,,,,,,,,,30,,,,,,,,328.7993630999699,328.7993630999699,328.7993630999699,328.7993630999699,328.7993630999699,down,0.676877100020647,0,0,0,99,0,-2.7755575615628914e-17,down,0.5852927000960335,,,,,,,,,,,,,,,,,,,,,,,,,,,,,,,,,,,,,,,,,,,,,,,,,,,,,,,,,,,,32DEYU,train_y,red_square,top_left,2025-09-08_16h24.55.642,HideSeek_v1,2022.2.5,59.98969376197217,
,2,8,2,5,0,-3,13,,train_dim1_1,3,30,,,,2,0,2,0,,,,,,,,,0,0,0,0,0,2,2,2,3,0,3,0,,,,,,,,,,,,,,,,,,,,,,,,,,,,,,,,,,,,,,,,,,,,,,,,,,,,,,,,,,,,,,,,30,,,,,,,,329.4840428000316,329.4840428000316,329.4840428000316,329.4840428000316,329.4840428000316,return,0.5437536999816075,1,0,0,1,0,-2.7755575615628914e-17,return,0.45301369996741414,-6,4,0,-2.7755575615628914e-17,,,,,,,,,,,,,,,,,,,,,,,,,,,,,,,,,,,,,,,,,,,,,,,,,,,,,,,,32DEYU,train_y,red_square,top_left,2025-09-08_16h24.55.642,HideSeek_v1,2022.2.5,59.98969376197217,
,0,6,0,2,0,-4,12,,train_dim1_1,4,30,,,,2,0,2,0,,,,,,,,,0,0,0,0,0,3,3,3,0,0,0,0,,,,,,,,,,,,,,,,,,,,,,,,,stimuli/alien_stimuli/12.png,,,,,,,,,,,,,,,,,,,,,,,,,,,,,stimuli/alien_stimuli/13.png,13,2,5,,,,,,,30,,,,,,,,336.94955130002927,336.94955130002927,336.94955130002927,336.94955130002927,336.94955130002927,down,2.070374200004153,1,0,0,99,-0.16,0.0,down,1.981603299966082,,,,,335.3886055999901,0,0,0.24,0.0,0.12,0,0.0,0,0,331.60066490003373,331.60066490003373,331.60066490003373,331.60066490003373,331.60066490003373,331.60066490003373,331.60066490003373,331.60066490003373,331.60141954000574,3.904851600062102,return,3.7596827000379562,336.94955130002927,,,,,,,,,,,,,,,,,,,,,,,,,,,,,,,,,32DEYU,train_y,red_square,top_left,2025-09-08_16h24.55.642,HideSeek_v1,2022.2.5,59.98969376197217,
,0,6,0,2,0,-4,12,,train_dim1_1,4,30,,,,2,0,2,0,,,,,,,,,0,0,0,0,0,3,3,3,1,0,1,0,,,,,,,,,,,,,,,,,,,,,,,,,,,,,,,,,,,,,,,,,,,,,,,,,,,,,,,,,,,,,,,,30,,,,,,,,339.02958570001647,339.02958570001647,339.02958570001647,339.02958570001647,339.02958570001647,down,0.53999980003573,1,0,0,99,-0.16,-0.08,down,0.45843120000790805,,,,,,,,,,,,,,,,,,,,,,,,,,,,,,,,,,,,,,,,,,,,,,,,,,,,,,,,,,,,32DEYU,train_y,red_square,top_left,2025-09-08_16h24.55.642,HideSeek_v1,2022.2.5,59.98969376197217,
,0,6,0,2,0,-4,12,,train_dim1_1,4,30,,,,2,0,2,0,,,,,,,,,0,0,0,0,0,3,3,3,2,0,2,0,,,,,,,,,,,,,,,,,,,,,,,,,,,,,,,,,,,,,,,,,,,,,,,,,,,,,,,,,,,,,,,,30,,,,,,,,339.5798170999624,339.5798170999624,339.5798170999624,339.5798170999624,339.5798170999624,return,0.5236222000094131,1,0,0,0,-0.16,-0.08,return,0.4411405000137165,-8,4,-0.16,-0.08,,,,,,,,,,,,,,,,,,,,,,,,,,,,,,,,,,,,,,,,,,,,,,,,,,,,,,,,32DEYU,train_y,red_square,top_left,2025-09-08_16h24.55.642,HideSeek_v1,2022.2.5,59.98969376197217,
,3,8,3,3,0,-5,11,,train_dim1_1,5,30,,,,2,0,2,0,,,,,,,,,0,0,0,0,0,4,4,4,0,0,0,0,,,,,,,,,,,,,,,,,,,,,,,,,stimuli/alien_stimuli/11.png,,,,,,,,,,,,,,,,,,,,,,,,,,,,,stimuli/alien_stimuli/12.png,12,0,6,,,,,,,30,,,,,,,,345.48439040000085,345.48439040000085,345.48439040000085,345.48439040000085,345.48439040000085,down,1.4739305999828503,1,0,0,99,0.08,0.15999999999999998,down,1.3905642000027,,,,,343.9288866999559,-0.16,-0.24,0.32,0.0,-0.07999999999999999,-0.16,-0.16,-0.16,-0.24,341.6812217000406,341.6812217000406,341.6812217000406,341.6812217000406,341.6812217000406,341.6812217000406,341.6812217000406,341.6812217000406,341.67617433995474,2.370981700019911,return,2.2267571999691427,345.48439040000085,,,,,,,,,,,,,,,,,,,,,,,,,,,,,,,,,32DEYU,train_y,red_square,top_left,2025-09-08_16h24.55.642,HideSeek_v1,2022.2.5,59.98969376197217,
,3,8,3,3,0,-5,11,,train_dim1_1,5,30,,,,2,0,2,0,,,,,,,,,0,0,0,0,0,4,4,4,1,0,1,0,,,,,,,,,,,,,,,,,,,,,,,,,,,,,,,,,,,,,,,,,,,,,,,,,,,,,,,,,,,,,,,,30,,,,,,,,346.9662392999744,346.9662392999744,346.9662392999744,346.9662392999744,346.9662392999744,down,0.643172699958086,1,0,0,99,0.08,0.07999999999999997,down,0.5540947000263259,,,,,,,,,,,,,,,,,,,,,,,,,,,,,,,,,,,,,,,,,,,,,,,,,,,,,,,,,,,,32DEYU,train_y,red_square,top_left,2025-09-08_16h24.55.642,HideSeek_v1,2022.2.5,59.98969376197217,
,3,8,3,3,0,-5,11,,train_dim1_1,5,30,,,,2,0,2,0,,,,,,,,,0,0,0,0,0,4,4,4,2,0,2,0,,,,,,,,,,,,,,,,,,,,,,,,,,,,,,,,,,,,,,,,,,,,,,,,,,,,,,,,,,,,,,,,30,,,,,,,,347.61669139994774,347.61669139994774,347.61669139994774,347.61669139994774,347.61669139994774,down,0.843106499989517,1,0,0,99,0.08,-2.7755575615628914e-17,down,0.7564070000080392,,,,,,,,,,,,,,,,,,,,,,,,,,,,,,,,,,,,,,,,,,,,,,,,,,,,,,,,,,,,32DEYU,train_y,red_square,top_left,2025-09-08_16h24.55.642,HideSeek_v1,2022.2.5,59.98969376197217,
,3,8,3,3,0,-5,11,,train_dim1_1,5,30,,,,2,0,2,0,,,,,,,,,0,0,0,0,0,4,4,4,3,0,3,0,,,,,,,,,,,,,,,,,,,,,,,,,,,,,,,,,,,,,,,,,,,,,,,,,,,,,,,,,,,,,,,,30,,,,,,,,348.46767980000004,348.46767980000004,348.46767980000004,348.46767980000004,348.46767980000004,return,0.30993799993302673,1,0,0,0,0.08,-2.7755575615628914e-17,return,0.23131539998576045,-11,4,0.08,-2.7755575615628914e-17,,,,,,,,,,,,,,,,,,,,,,,,,,,,,,,,,,,,,,,,,,,,,,,,,,,,,,,,32DEYU,train_y,red_square,top_left,2025-09-08_16h24.55.642,HideSeek_v1,2022.2.5,59.98969376197217,
,1,9,1,5,0,-4,12,,train_dim1_1,6,30,,,,2,0,2,0,,,,,,,,,0,0,0,0,0,5,5,5,0,0,0,0,,,,,,,,,,,,,,,,,,,,,,,,,stimuli/alien_stimuli/12.png,,,,,,,,,,,,,,,,,,,,,,,,,,,,,stimuli/alien_stimuli/11.png,11,3,7,,,,,,,30,,,,,,,,353.5968617000617,353.5968617000617,353.5968617000617,353.5968617000617,353.5968617000617,down,1.5857047999743372,1,0,0,99,-0.08,0.24,down,1.4931607000762597,,,,,352.0358530000085,0.08,-0.16,0.4,0.0,0.039999999999999994,0.08,0.08,0.08,-0.16,350.3337402000325,350.3337402000325,350.3337402000325,350.3337402000325,350.3337402000325,350.3337402000325,350.3337402000325,350.3337402000325,350.33344140992267,1.8039770000614226,return,1.682733199908398,353.5968617000617,,,,,,,,,,,,,,,,,,,,,,,,,,,,,,,,,32DEYU,train_y,red_square,top_left,2025-09-08_16h24.55.642,HideSeek_v1,2022.2.5,59.98969376197217,
,1,9,1,5,0,-4,12,,train_dim1_1,6,30,,,,2,0,2,0,,,,,,,,,0,0,0,0,0,5,5,5,1,0,1,0,,,,,,,,,,,,,,,,,,,,,,,,,,,,,,,,,,,,,,,,,,,,,,,,,,,,,,,,,,,,,,,,30,,,,,,,,355.1921720999526,355.1921720999526,355.1921720999526,355.1921720999526,355.1921720999526,down,0.34096579998731613,1,0,0,99,-0.08,0.15999999999999998,down,0.24967060005292296,,,,,,,,,,,,,,,,,,,,,,,,,,,,,,,,,,,,,,,,,,,,,,,,,,,,,,,,,,,,32DEYU,train_y,red_square,top_left,2025-09-08_16h24.55.642,HideSeek_v1,2022.2.5,59.98969376197217,
,1,9,1,5,0,-4,12,,train_dim1_1,6,30,,,,2,0,2,0,,,,,,,,,0,0,0,0,0,5,5,5,2,0,2,0,,,,,,,,,,,,,,,,,,,,,,,,,,,,,,,,,,,,,,,,,,,,,,,,,,,,,,,,,,,,,,,,30,,,,,,,,355.54018829995766,355.54018829995766,355.54018829995766,355.54018829995766,355.54018829995766,down,0.35932980000507087,1,0,0,99,-0.08,0.07999999999999997,down,0.27097260009031743,,,,,,,,,,,,,,,,,,,,,,,,,,,,,,,,,,,,,,,,,,,,,,,,,,,,,,,,,,,,32DEYU,train_y,red_square,top_left,2025-09-08_16h24.55.642,HideSeek_v1,2022.2.5,59.98969376197217,
,1,9,1,5,0,-4,12,,train_dim1_1,6,30,,,,2,0,2,0,,,,,,,,,0,0,0,0,0,5,5,5,3,0,3,0,,,,,,,,,,,,,,,,,,,,,,,,,,,,,,,,,,,,,,,,,,,,,,,,,,,,,,,,,,,,,,,,30,,,,,,,,355.90788269997574,355.90788269997574,355.90788269997574,355.90788269997574,355.90788269997574,down,0.3419664000393823,1,0,0,99,-0.08,-2.7755575615628914e-17,down,0.2535005999961868,,,,,,,,,,,,,,,,,,,,,,,,,,,,,,,,,,,,,,,,,,,,,,,,,,,,,,,,,,,,32DEYU,train_y,red_square,top_left,2025-09-08_16h24.55.642,HideSeek_v1,2022.2.5,59.98969376197217,
,1,9,1,5,0,-4,12,,train_dim1_1,6,30,,,,2,0,2,0,,,,,,,,,0,0,0,0,0,5,5,5,4,0,4,0,,,,,,,,,,,,,,,,,,,,,,,,,,,,,,,,,,,,,,,,,,,,,,,,,,,,,,,,,,,,,,,,30,,,,,,,,356.2597062999848,356.2597062999848,356.2597062999848,356.2597062999848,356.2597062999848,return,0.4903094000183046,2,0,0,1,-0.08,-2.7755575615628914e-17,return,0.4125635999953374,-15,4,-0.08,-2.7755575615628914e-17,,,,,,,,,,,,,,,,,,,,,,,,,,,,,,,,,,,,,,,,,,,,,,,,,,,,,,,,32DEYU,train_y,red_square,top_left,2025-09-08_16h24.55.642,HideSeek_v1,2022.2.5,59.98969376197217,
,1,8,1,5,0,-3,13,,train_dim1_1,7,30,,,,2,0,2,0,,,,,,,,,0,0,0,0,0,6,6,6,0,0,0,0,,,,,,,,,,,,,,,,,,,,,,,,,stimuli/alien_stimuli/13.png,,,,,,,,,,,,,,,,,,,,,,,,,,,,,stimuli/alien_stimuli/12.png,12,1,8,,,,,,,30,,,,,,,,361.4546962999739,361.4546962999739,361.4546962999739,361.4546962999739,361.4546962999739,down,1.0991971000330523,2,0,0,99,-0.08,0.15999999999999998,down,1.0079385999124497,,,,,359.89217050001025,-0.08,0,0.32,0.0,0.16,-0.08,-0.08,-0.08,0,358.30722910002805,358.30722910002805,358.30722910002805,358.30722910002805,358.30722910002805,358.30722910002805,358.30722910002805,358.30722910002805,358.30670240992913,1.6873221000423655,return,1.565372099983506,361.4546962999739,,,,,,,,,,,,,,,,,,,,,,,,,,,,,,,,,32DEYU,train_y,red_square,top_left,2025-09-08_16h24.55.642,HideSeek_v1,2022.2.5,59.98969376197217,
,1,8,1,5,0,-3,13,,train_dim1_1,7,30,,,,2,0,2,0,,,,,,,,,0,0,0,0,0,6,6,6,1,0,1,0,,,,,,,,,,,,,,,,,,,,,,,,,,,,,,,,,,,,,,,,,,,,,,,,,,,,,,,,,,,,,,,,30,,,,,,,,362.56302919995505,362.56302919995505,362.56302919995505,362.56302919995505,362.56302919995505,down,0.30951739998999983,2,0,0,99,-0.08,0.07999999999999997,down,0.21790930000133812,,,,,,,,,,,,,,,,,,,,,,,,,,,,,,,,,,,,,,,,,,,,,,,,,,,,,,,,,,,,32DEYU,train_y,red_square,top_left,2025-09-08_16h24.55.642,HideSeek_v1,2022.2.5,59.98969376197217,
,1,8,1,5,0,-3,13,,train_dim1_1,7,30,,,,2,0,2,0,,,,,,,,,0,0,0,0,0,6,6,6,2,0,2,0,,,,,,,,,,,,,,,,,,,,,,,,,,,,,,,,,,,,,,,,,,,,,,,,,,,,,,,,,,,,,,,,30,,,,,,,,362.8779453999596,362.8779453999596,362.8779453999596,362.8779453999596,362.8779453999596,down,0.2930109999142587,2,0,0,99,-0.08,-2.7755575615628914e-17,down,0.21633289998862892,,,,,,,,,,,,,,,,,,,,,,,,,,,,,,,,,,,,,,,,,,,,,,,,,,,,,,,,,,,,32DEYU,train_y,red_square,top_left,2025-09-08_16h24.55.642,HideSeek_v1,2022.2.5,59.98969376197217,
,1,8,1,5,0,-3,13,,train_dim1_1,7,30,,,,2,0,2,0,,,,,,,,,0,0,0,0,0,6,6,6,3,0,3,0,,,,,,,,,,,,,,,,,,,,,,,,,,,,,,,,,,,,,,,,,,,,,,,,,,,,,,,,,,,,,,,,30,,,,,,,,363.17977739998605,363.17977739998605,363.17977739998605,363.17977739998605,363.17977739998605,down,0.2923052000114694,2,0,0,99,-0.08,-0.08000000000000003,down,0.20194589998573065,,,,,,,,,,,,,,,,,,,,,,,,,,,,,,,,,,,,,,,,,,,,,,,,,,,,,,,,,,,,32DEYU,train_y,red_square,top_left,2025-09-08_16h24.55.642,HideSeek_v1,2022.2.5,59.98969376197217,
,1,8,1,5,0,-3,13,,train_dim1_1,7,30,,,,2,0,2,0,,,,,,,,,0,0,0,0,0,6,6,6,4,0,4,0,,,,,,,,,,,,,,,,,,,,,,,,,,,,,,,,,,,,,,,,,,,,,,,,,,,,,,,,,,,,,,,,30,,,,,,,,363.4794114000397,363.4794114000397,363.4794114000397,363.4794114000397,363.4794114000397,return,0.326402600039728,2,1,0,0,-0.08,-0.08000000000000003,return,0.23938790010288358,-19,4,-0.08,-0.08000000000000003,,,,,,,,,,,,,,,,,,,,,,,,,,,,,,,,,,,,,,,,,,,,,,,,,,,,,,,,32DEYU,train_y,red_square,top_left,2025-09-08_16h24.55.642,HideSeek_v1,2022.2.5,59.98969376197217,
,4,7,4,2,0,-5,11,,train_dim1_1,8,30,,,,2,0,2,0,,,,,,,,,0,0,0,0,0,7,7,7,0,0,0,0,,,,,,,,,,,,,,,,,,,,,,,,,stimuli/alien_stimuli/11.png,,,,,,,,,,,,,,,,,,,,,,,,,,,,,stimuli/alien_stimuli/13.png,13,1,9,,,,,,,30,,,,,,,,367.22171950002667,367.22171950002667,367.22171950002667,367.22171950002667,367.22171950002667,down,1.4050849000923336,2,1,0,99,0.16,0.08,down,1.3267654000082985,,,,,365.6634005999658,-0.08,0,0.24,0.0,0.12,-0.08,-0.08,-0.08,0,365.36279010004364,365.36279010004364,365.36279010004364,365.36279010004364,365.36279010004364,365.36279010004364,365.36279010004364,365.36279010004364,365.3626934099593,0.4024192999349907,return,0.28043229994364083,367.22171950002667,,,,,,,,,,,,,,,,,,,,,,,,,,,,,,,,,32DEYU,train_y,red_square,top_left,2025-09-08_16h24.55.642,HideSeek_v1,2022.2.5,59.98969376197217,
,4,7,4,2,0,-5,11,,train_dim1_1,8,30,,,,2,0,2,0,,,,,,,,,0,0,0,0,0,7,7,7,1,0,1,0,,,,,,,,,,,,,,,,,,,,,,,,,,,,,,,,,,,,,,,,,,,,,,,,,,,,,,,,,,,,,,,,30,,,,,,,,368.6391985999653,368.6391985999653,368.6391985999653,368.6391985999653,368.6391985999653,down,0.4068250999553129,2,1,0,99,0.16,0.0,down,0.31232549995183945,,,,,,,,,,,,,,,,,,,,,,,,,,,,,,,,,,,,,,,,,,,,,,,,,,,,,,,,,,,,32DEYU,train_y,red_square,top_left,2025-09-08_16h24.55.642,HideSeek_v1,2022.2.5,59.98969376197217,
,4,7,4,2,0,-5,11,,train_dim1_1,8,30,,,,2,0,2,0,,,,,,,,,0,0,0,0,0,7,7,7,2,0,2,0,,,,,,,,,,,,,,,,,,,,,,,,,,,,,,,,,,,,,,,,,,,,,,,,,,,,,,,,,,,,,,,,30,,,,,,,,369.0541630999651,369.0541630999651,369.0541630999651,369.0541630999651,369.0541630999651,down,0.7729038000106812,2,1,0,99,0.16,-0.08,down,0.6844493000535294,,,,,,,,,,,,,,,,,,,,,,,,,,,,,,,,,,,,,,,,,,,,,,,,,,,,,,,,,,,,32DEYU,train_y,red_square,top_left,2025-09-08_16h24.55.642,HideSeek_v1,2022.2.5,59.98969376197217,
,4,7,4,2,0,-5,11,,train_dim1_1,8,30,,,,2,0,2,0,,,,,,,,,0,0,0,0,0,7,7,7,3,0,3,0,,,,,,,,,,,,,,,,,,,,,,,,,,,,,,,,,,,,,,,,,,,,,,,,,,,,,,,,,,,,,,,,30,,,,,,,,369.8342741000233,369.8342741000233,369.8342741000233,369.8342741000233,369.8342741000233,down,0.3099968999158591,2,1,0,99,0.16,-0.16,down,0.21800140000414103,,,,,,,,,,,,,,,,,,,,,,,,,,,,,,,,,,,,,,,,,,,,,,,,,,,,,,,,,,,,32DEYU,train_y,red_square,top_left,2025-09-08_16h24.55.642,HideSeek_v1,2022.2.5,59.98969376197217,
,4,7,4,2,0,-5,11,,train_dim1_1,8,30,,,,2,0,2,0,,,,,,,,,0,0,0,0,0,7,7,7,4,0,4,0,,,,,,,,,,,,,,,,,,,,,,,,,,,,,,,,,,,,,,,,,,,,,,,,,,,,,,,,,,,,,,,,30,,,,,,,,370.1510882000439,370.1510882000439,370.1510882000439,370.1510882000439,370.1510882000439,return,0.6435712000820786,2,1,0,0,0.16,-0.16,return,0.5641177999787033,-23,4,0.16,-0.16,,,,,,,,,,,,,,,,,,,,,,,,,,,,,,,,,,,,,,,,,,,,,,,,,,,,,,,,32DEYU,train_y,red_square,top_left,2025-09-08_16h24.55.642,HideSeek_v1,2022.2.5,59.98969376197217,
,4,8,4,7,0,-1,15,,train_dim1_1,9,30,,,,2,0,2,0,,,,,,,,,0,0,0,0,0,8,8,8,0,0,0,0,,,,,,,,,,,,,,,,,,,,,,,,,stimuli/alien_stimuli/15.png,,,,,,,,,,,,,,,,,,,,,,,,,,,,,stimuli/alien_stimuli/11.png,11,4,10,,,,,,,30,,,,,,,,375.31210250000004,375.31210250000004,375.31210250000004,375.31210250000004,375.31210250000004,return,1.8886161000700668,2,1,0,0,0.16,0.24,return,1.8104070998961106,-23,4,0.16,0.24,373.75356430001557,0.16,-0.24,0.4,0.0,-0.039999999999999994,0.16,0.16,0.16,-0.24,372.35150730004534,372.35150730004534,372.35150730004534,372.35150730004534,372.35150730004534,372.35150730004534,372.35150730004534,372.35150730004534,372.35172341001453,1.5036179999588057,return,1.3791917000198737,375.31210250000004,,,,,,,,,,,,,,,,,,,,,,,,,,,,,,,,,32DEYU,train_y,red_square,top_left,2025-09-08_16h24.55.642,HideSeek_v1,2022.2.5,59.98969376197217,
,2,7,2,7,0,0,16,,train_dim1_1,10,30,,,,2,0,2,0,,,,,,,,,0,0,0,0,0,9,9,9,0,0,0,0,,,,,,,,,,,,,,,,,,,,,,,,,stimuli/alien_stimuli/16.png,,,,,,,,,,,,,,,,,,,,,,,,,,,,,stimuli/alien_stimuli/15.png,15,4,11,,,,,,,30,,,,,,,,382.0089010000229,382.0089010000229,382.0089010000229,382.0089010000229,382.0089010000229,down,0.8378205000190064,2,1,0,99,0,0.08,down,0.7380971999373287,,,,,380.44252639997285,0.16,0.16,0.08,0.0,0.2,0.16,0.16,0.16,0.16,378.75672109995503,378.75672109995503,378.75672109995503,378.75672109995503,378.75672109995503,378.75672109995503,378.75672109995503,378.75672109995503,378.75707920995774,1.7872512999456376,return,1.6543107000179589,382.0089010000229,,,,,,,,,,,,,,,,,,,,,,,,,,,,,,,,,32DEYU,train_y,red_square,top_left,2025-09-08_16h24.55.642,HideSeek_v1,2022.2.5,59.98969376197217,
,2,7,2,7,0,0,16,,train_dim1_1,10,30,,,,2,0,2,0,,,,,,,,,0,0,0,0,0,9,9,9,1,0,1,0,,,,,,,,,,,,,,,,,,,,,,,,,,,,,,,,,,,,,,,,,,,,,,,,,,,,,,,,,,,,,,,,30,,,,,,,,382.84969800000545,382.84969800000545,382.84969800000545,382.84969800000545,382.84969800000545,return,0.8567865999648347,2,1,0,0,0,0.08,return,0.7687832999508828,-24,4,0,0.08,,,,,,,,,,,,,,,,,,,,,,,,,,,,,,,,,,,,,,,,,,,,,,,,,,,,,,,,32DEYU,train_y,red_square,top_left,2025-09-08_16h24.55.642,HideSeek_v1,2022.2.5,59.98969376197217,
,4,6,4,5,0,-1,15,,train_dim1_1,11,30,,,,2,0,2,0,,,,,,,,,0,0,0,0,0,10,10,10,0,0,0,0,,,,,,,,,,,,,,,,,,,,,,,,,stimuli/alien_stimuli/15.png,,,,,,,,,,,,,,,,,,,,,,,,,,,,,stimuli/alien_stimuli/16.png,16,2,12,,,,,,,30,,,,,,,,388.1397692000028,388.1397692000028,388.1397692000028,388.1397692000028,388.1397692000028,down,3.371196600026451,2,1,0,99,0.16,0.0,down,3.290620299987495,,,,,386.5808423999697,0,0.16,0.0,0.0,0.16,0,0.0,0,0.16,385.2637067999458,385.2637067999458,385.2637067999458,385.2637067999458,385.2637067999458,385.2637067999458,385.2637067999458,385.2637067999458,385.26232250995236,1.419959699967876,return,1.2875924999825656,388.1397692000028,,,,,,,,,,,,,,,,,,,,,,,,,,,,,,,,,32DEYU,train_y,red_square,top_left,2025-09-08_16h24.55.642,HideSeek_v1,2022.2.5,59.98969376197217,
,4,6,4,5,0,-1,15,,train_dim1_1,11,30,,,,2,0,2,0,,,,,,,,,0,0,0,0,0,10,10,10,1,0,1,0,,,,,,,,,,,,,,,,,,,,,,,,,,,,,,,,,,,,,,,,,,,,,,,,,,,,,,,,,,,,,,,,30,,,,,,,,391.51952209998854,391.51952209998854,391.51952209998854,391.51952209998854,391.51952209998854,return,0.35966030007693917,3,0,0,1,0.16,0.0,return,0.282202500035055,-25,4,0.16,0.0,,,,,,,,,,,,,,,,,,,,,,,,,,,,,,,,,,,,,,,,,,,,,,,,,,,,,,,,32DEYU,train_y,red_square,top_left,2025-09-08_16h24.55.642,HideSeek_v1,2022.2.5,59.98969376197217,
,0,5,0,0,0,-5,11,,train_dim1_1,12,30,,,,2,0,2,0,,,,,,,,,0,0,0,0,0,11,11,11,0,0,0,0,,,,,,,,,,,,,,,,,,,,,,,,,stimuli/alien_stimuli/11.png,,,,,,,,,,,,,,,,,,,,,,,,,,,,,stimuli/alien_stimuli/15.png,15,4,13,,,,,,,30,,,,,,,,396.1491135000251,396.1491135000251,396.1491135000251,396.1491135000251,396.1491135000251,down,1.4687469000928104,3,0,0,99,-0.16,-0.08,down,1.3838811999885365,,,,,394.5873171000276,0.16,0,0.08,0.0,0.04,0.16,0.16,0.16,0,393.4398233999964,393.4398233999964,393.4398233999964,393.4398233999964,393.4398233999964,393.4398233999964,393.4398233999964,393.4398233999964,393.43590690993005,1.253048700047657,return,1.1166517999954522,396.1491135000251,,,,,,,,,,,,,,,,,,,,,,,,,,,,,,,,,32DEYU,train_y,red_square,top_left,2025-09-08_16h24.55.642,HideSeek_v1,2022.2.5,59.98969376197217,
,0,5,0,0,0,-5,11,,train_dim1_1,12,30,,,,2,0,2,0,,,,,,,,,0,0,0,0,0,11,11,11,1,0,1,0,,,,,,,,,,,,,,,,,,,,,,,,,,,,,,,,,,,,,,,,,,,,,,,,,,,,,,,,,,,,,,,,30,,,,,,,,397.627830500016,397.627830500016,397.627830500016,397.627830500016,397.627830500016,down,0.27281250001396984,3,0,0,99,-0.16,-0.16,down,0.1851483000209555,,,,,,,,,,,,,,,,,,,,,,,,,,,,,,,,,,,,,,,,,,,,,,,,,,,,,,,,,,,,32DEYU,train_y,red_square,top_left,2025-09-08_16h24.55.642,HideSeek_v1,2022.2.5,59.98969376197217,
,0,5,0,0,0,-5,11,,train_dim1_1,12,30,,,,2,0,2,0,,,,,,,,,0,0,0,0,0,11,11,11,2,0,2,0,,,,,,,,,,,,,,,,,,,,,,,,,,,,,,,,,,,,,,,,,,,,,,,,,,,,,,,,,,,,,,,,30,,,,,,,,397.91011599998455,397.91011599998455,397.91011599998455,397.91011599998455,397.91011599998455,down,0.8409417000366375,3,0,0,99,-0.16,-0.24,down,0.7523002000525594,,,,,,,,,,,,,,,,,,,,,,,,,,,,,,,,,,,,,,,,,,,,,,,,,,,,,,,,,,,,32DEYU,train_y,red_square,top_left,2025-09-08_16h24.55.642,HideSeek_v1,2022.2.5,59.98969376197217,
,0,5,0,0,0,-5,11,,train_dim1_1,12,30,,,,2,0,2,0,,,,,,,,,0,0,0,0,0,11,11,11,3,0,3,0,,,,,,,,,,,,,,,,,,,,,,,,,,,,,,,,,,,,,,,,,,,,,,,,,,,,,,,,,,,,,,,,30,,,,,,,,398.75863459997345,398.75863459997345,398.75863459997345,398.75863459997345,398.75863459997345,down,0.3432696999516338,3,0,0,99,-0.16,-0.32,down,0.26679760008119047,,,,,,,,,,,,,,,,,,,,,,,,,,,,,,,,,,,,,,,,,,,,,,,,,,,,,,,,,,,,32DEYU,train_y,red_square,top_left,2025-09-08_16h24.55.642,HideSeek_v1,2022.2.5,59.98969376197217,
,0,5,0,0,0,-5,11,,train_dim1_1,12,30,,,,2,0,2,0,,,,,,,,,0,0,0,0,0,11,11,11,4,0,4,0,,,,,,,,,,,,,,,,,,,,,,,,,,,,,,,,,,,,,,,,,,,,,,,,,,,,,,,,,,,,,,,,30,,,,,,,,399.10866719996557,399.10866719996557,399.10866719996557,399.10866719996557,399.10866719996557,down,0.4759202999994159,3,0,0,99,-0.16,-0.4,down,0.39587470004335046,,,,,,,,,,,,,,,,,,,,,,,,,,,,,,,,,,,,,,,,,,,,,,,,,,,,,,,,,,,,32DEYU,train_y,red_square,top_left,2025-09-08_16h24.55.642,HideSeek_v1,2022.2.5,59.98969376197217,
,0,5,0,0,0,-5,11,,train_dim1_1,12,30,,,,2,0,2,0,,,,,,,,,0,0,0,0,0,11,11,11,5,0,5,0,,,,,,,,,,,,,,,,,,,,,,,,,,,,,,,,,,,,,,,,,,,,,,,,,,,,,,,,,,,,,,,,30,,,,,,,,399.5927965999581,399.5927965999581,399.5927965999581,399.5927965999581,399.5927965999581,up,0.6105467000743374,3,0,0,99,-0.16,-0.32,up,0.5172080000629649,,,,,,,,,,,,,,,,,,,,,,,,,,,,,,,,,,,,,,,,,,,,,,,,,,,,,,,,,,,,32DEYU,train_y,red_square,top_left,2025-09-08_16h24.55.642,HideSeek_v1,2022.2.5,59.98969376197217,
,0,5,0,0,0,-5,11,,train_dim1_1,12,30,,,,2,0,2,0,,,,,,,,,0,0,0,0,0,11,11,11,6,0,6,0,,,,,,,,,,,,,,,,,,,,,,,,,,,,,,,,,,,,,,,,,,,,,,,,,,,,,,,,,,,,,,,,30,,,,,,,,400.2097311000107,400.2097311000107,400.2097311000107,400.2097311000107,400.2097311000107,up,0.9103526999242604,3,0,0,99,-0.16,-0.24,up,0.8333945999620482,,,,,,,,,,,,,,,,,,,,,,,,,,,,,,,,,,,,,,,,,,,,,,,,,,,,,,,,,,,,32DEYU,train_y,red_square,top_left,2025-09-08_16h24.55.642,HideSeek_v1,2022.2.5,59.98969376197217,
,0,5,0,0,0,-5,11,,train_dim1_1,12,30,,,,2,0,2,0,,,,,,,,,0,0,0,0,0,11,11,11,7,0,7,0,,,,,,,,,,,,,,,,,,,,,,,,,,,,,,,,,,,,,,,,,,,,,,,,,,,,,,,,,,,,,,,,30,,,,,,,,401.1280510999495,401.1280510999495,401.1280510999495,401.1280510999495,401.1280510999495,down,1.310293999966234,3,0,0,99,-0.16,-0.32,down,1.2257739000488073,,,,,,,,,,,,,,,,,,,,,,,,,,,,,,,,,,,,,,,,,,,,,,,,,,,,,,,,,,,,32DEYU,train_y,red_square,top_left,2025-09-08_16h24.55.642,HideSeek_v1,2022.2.5,59.98969376197217,
,0,5,0,0,0,-5,11,,train_dim1_1,12,30,,,,2,0,2,0,,,,,,,,,0,0,0,0,0,11,11,11,8,0,8,0,,,,,,,,,,,,,,,,,,,,,,,,,,,,,,,,,,,,,,,,,,,,,,,,,,,,,,,,,,,,,,,,30,,,,,,,,402.4476151999552,402.4476151999552,402.4476151999552,402.4476151999552,402.4476151999552,up,1.0917465999955311,3,0,0,99,-0.16,-0.24,up,1.003315499983728,,,,,,,,,,,,,,,,,,,,,,,,,,,,,,,,,,,,,,,,,,,,,,,,,,,,,,,,,,,,32DEYU,train_y,red_square,top_left,2025-09-08_16h24.55.642,HideSeek_v1,2022.2.5,59.98969376197217,
,0,5,0,0,0,-5,11,,train_dim1_1,12,30,,,,2,0,2,0,,,,,,,,,0,0,0,0,0,11,11,11,9,0,9,0,,,,,,,,,,,,,,,,,,,,,,,,,,,,,,,,,,,,,,,,,,,,,,,,,,,,,,,,,,,,,,,,30,,,,,,,,403.54640919994563,403.54640919994563,403.54640919994563,403.54640919994563,403.54640919994563,return,0.542748799896799,3,0,0,0,-0.16,-0.24,return,0.455095500103198,-28,4,-0.16,-0.24,,,,,,,,,,,,,,,,,,,,,,,,,,,,,,,,,,,,,,,,,,,,,,,,,,,,,,,,32DEYU,train_y,red_square,top_left,2025-09-08_16h24.55.642,HideSeek_v1,2022.2.5,59.98969376197217,
,4,8,4,4,0,-4,12,,train_dim1_1,13,30,,,,2,0,2,0,,,,,,,,,0,0,0,0,0,12,12,12,0,0,0,0,,,,,,,,,,,,,,,,,,,,,,,,,stimuli/alien_stimuli/12.png,,,,,,,,,,,,,,,,,,,,,,,,,,,,,stimuli/alien_stimuli/11.png,11,0,14,,,,,,,30,,,,,,,,408.74320370005444,408.74320370005444,408.74320370005444,408.74320370005444,408.74320370005444,down,1.0346468000207096,3,0,0,99,0.16,0.15999999999999998,down,0.941693100030534,,,,,407.1814658000367,-0.16,-0.4,0.4,0.0,-0.2,-0.16,-0.16,-0.16,-0.4,405.6660280999495,405.6660280999495,405.6660280999495,405.6660280999495,405.6660280999495,405.6660280999495,405.6660280999495,405.6660280999495,405.662500939914,1.6371840999927372,return,1.498639400000684,408.74320370005444,,,,,,,,,,,,,,,,,,,,,,,,,,,,,,,,,32DEYU,train_y,red_square,top_left,2025-09-08_16h24.55.642,HideSeek_v1,2022.2.5,59.98969376197217,
,4,8,4,4,0,-4,12,,train_dim1_1,13,30,,,,2,0,2,0,,,,,,,,,0,0,0,0,0,12,12,12,1,0,1,0,,,,,,,,,,,,,,,,,,,,,,,,,,,,,,,,,,,,,,,,,,,,,,,,,,,,,,,,,,,,,,,,30,,,,,,,,409.78481169999577,409.78481169999577,409.78481169999577,409.78481169999577,409.78481169999577,down,0.44269279995933175,3,0,0,99,0.16,0.07999999999999997,down,0.3535088000353426,,,,,,,,,,,,,,,,,,,,,,,,,,,,,,,,,,,,,,,,,,,,,,,,,,,,,,,,,,,,32DEYU,train_y,red_square,top_left,2025-09-08_16h24.55.642,HideSeek_v1,2022.2.5,59.98969376197217,
,4,8,4,4,0,-4,12,,train_dim1_1,13,30,,,,2,0,2,0,,,,,,,,,0,0,0,0,0,12,12,12,2,0,2,0,,,,,,,,,,,,,,,,,,,,,,,,,,,,,,,,,,,,,,,,,,,,,,,,,,,,,,,,,,,,,,,,30,,,,,,,,410.23509229999036,410.23509229999036,410.23509229999036,410.23509229999036,410.23509229999036,down,0.39337750000413507,3,0,0,99,0.16,-2.7755575615628914e-17,down,0.303640800062567,,,,,,,,,,,,,,,,,,,,,,,,,,,,,,,,,,,,,,,,,,,,,,,,,,,,,,,,,,,,32DEYU,train_y,red_square,top_left,2025-09-08_16h24.55.642,HideSeek_v1,2022.2.5,59.98969376197217,
,4,8,4,4,0,-4,12,,train_dim1_1,13,30,,,,2,0,2,0,,,,,,,,,0,0,0,0,0,12,12,12,3,0,3,0,,,,,,,,,,,,,,,,,,,,,,,,,,,,,,,,,,,,,,,,,,,,,,,,,,,,,,,,,,,,,,,,30,,,,,,,,410.63603249995504,410.63603249995504,410.63603249995504,410.63603249995504,410.63603249995504,down,0.42529620009008795,3,0,0,99,0.16,-0.08000000000000003,down,0.33336310007143766,,,,,,,,,,,,,,,,,,,,,,,,,,,,,,,,,,,,,,,,,,,,,,,,,,,,,,,,,,,,32DEYU,train_y,red_square,top_left,2025-09-08_16h24.55.642,HideSeek_v1,2022.2.5,59.98969376197217,
,4,8,4,4,0,-4,12,,train_dim1_1,13,30,,,,2,0,2,0,,,,,,,,,0,0,0,0,0,12,12,12,4,0,4,0,,,,,,,,,,,,,,,,,,,,,,,,,,,,,,,,,,,,,,,,,,,,,,,,,,,,,,,,,,,,,,,,30,,,,,,,,411.06913179997355,411.06913179997355,411.06913179997355,411.06913179997355,411.06913179997355,down,1.0104826999595389,3,0,0,99,0.16,-0.16000000000000003,down,0.9287535999901593,,,,,,,,,,,,,,,,,,,,,,,,,,,,,,,,,,,,,,,,,,,,,,,,,,,,,,,,,,,,32DEYU,train_y,red_square,top_left,2025-09-08_16h24.55.642,HideSeek_v1,2022.2.5,59.98969376197217,
,4,8,4,4,0,-4,12,,train_dim1_1,13,30,,,,2,0,2,0,,,,,,,,,0,0,0,0,0,12,12,12,5,0,5,0,,,,,,,,,,,,,,,,,,,,,,,,,,,,,,,,,,,,,,,,,,,,,,,,,,,,,,,,,,,,,,,,30,,,,,,,,412.08924230001867,412.08924230001867,412.08924230001867,412.08924230001867,412.08924230001867,up,1.607629399979487,3,0,0,99,0.16,-0.08000000000000003,up,1.5261885999934748,,,,,,,,,,,,,,,,,,,,,,,,,,,,,,,,,,,,,,,,,,,,,,,,,,,,,,,,,,,,32DEYU,train_y,red_square,top_left,2025-09-08_16h24.55.642,HideSeek_v1,2022.2.5,59.98969376197217,
,4,8,4,4,0,-4,12,,train_dim1_1,13,30,,,,2,0,2,0,,,,,,,,,0,0,0,0,0,12,12,12,6,0,6,0,,,,,,,,,,,,,,,,,,,,,,,,,,,,,,,,,,,,,,,,,,,,,,,,,,,,,,,,,,,,,,,,30,,,,,,,,413.71029049996287,413.71029049996287,413.71029049996287,413.71029049996287,413.71029049996287,return,1.1387932000216097,4,0,0,1,0.16,-0.08000000000000003,return,1.0466597999911755,-32,4,0.16,-0.08000000000000003,,,,,,,,,,,,,,,,,,,,,,,,,,,,,,,,,,,,,,,,,,,,,,,,,,,,,,,,32DEYU,train_y,red_square,top_left,2025-09-08_16h24.55.642,HideSeek_v1,2022.2.5,59.98969376197217,
,2,7,2,7,0,0,16,,train_dim1_1,14,30,,,,2,0,2,0,,,,,,,,,0,0,0,0,0,13,13,13,0,0,0,0,,,,,,,,,,,,,,,,,,,,,,,,,stimuli/alien_stimuli/16.png,,,,,,,,,,,,,,,,,,,,,,,,,,,,,stimuli/alien_stimuli/12.png,12,4,15,,,,,,,30,,,,,,,,419.06882210006006,419.06882210006006,419.06882210006006,419.06882210006006,419.06882210006006,return,2.4848393999272957,5,0,0,1,0,0.16,return,2.3971168000716716,-32,4,0,0.16,417.5065061999485,0.16,-0.08,0.32,0.0,0.07999999999999999,0.16,0.16,0.16,-0.08,416.4241451000562,416.4241451000562,416.4241451000562,416.4241451000562,416.4241451000562,416.4241451000562,416.4241451000562,416.4241451000562,416.42156953993253,1.2028793999925256,return,1.0583789000520483,419.06882210006006,,,,,,,,,,,,,,,,,,,,,,,,,,,,,,,,,32DEYU,train_y,red_square,top_left,2025-09-08_16h24.55.642,HideSeek_v1,2022.2.5,59.98969376197217,
,1,9,1,6,0,-3,13,,train_dim1_1,15,30,,,,2,0,2,0,,,,,,,,,0,0,0,0,0,14,14,14,0,0,0,0,,,,,,,,,,,,,,,,,,,,,,,,,stimuli/alien_stimuli/13.png,,,,,,,,,,,,,,,,,,,,,,,,,,,,,stimuli/alien_stimuli/16.png,16,2,16,,,,,,,30,,,,,,,,425.92565930006094,425.92565930006094,425.92565930006094,425.92565930006094,425.92565930006094,down,1.1663995999842882,5,0,0,99,-0.08,0.24,down,1.0870301000541076,,,,,424.36223590001464,0,0.16,0.0,0.0,0.16,0,0.0,0,0.16,423.11147989996243,423.11147989996243,423.11147989996243,423.11147989996243,423.11147989996243,423.11147989996243,423.11147989996243,423.11147989996243,423.11074050999014,1.3529929999494925,return,1.2319661000510678,425.92565930006094,,,,,,,,,,,,,,,,,,,,,,,,,,,,,,,,,32DEYU,train_y,red_square,top_left,2025-09-08_16h24.55.642,HideSeek_v1,2022.2.5,59.98969376197217,
,1,9,1,6,0,-3,13,,train_dim1_1,15,30,,,,2,0,2,0,,,,,,,,,0,0,0,0,0,14,14,14,1,0,1,0,,,,,,,,,,,,,,,,,,,,,,,,,,,,,,,,,,,,,,,,,,,,,,,,,,,,,,,,,,,,,,,,30,,,,,,,,427.0983538000146,427.0983538000146,427.0983538000146,427.0983538000146,427.0983538000146,down,0.6098185000009835,5,0,0,99,-0.08,0.15999999999999998,down,0.5195474999491125,,,,,,,,,,,,,,,,,,,,,,,,,,,,,,,,,,,,,,,,,,,,,,,,,,,,,,,,,,,,32DEYU,train_y,red_square,top_left,2025-09-08_16h24.55.642,HideSeek_v1,2022.2.5,59.98969376197217,
,1,9,1,6,0,-3,13,,train_dim1_1,15,30,,,,2,0,2,0,,,,,,,,,0,0,0,0,0,14,14,14,2,0,2,0,,,,,,,,,,,,,,,,,,,,,,,,,,,,,,,,,,,,,,,,,,,,,,,,,,,,,,,,,,,,,,,,30,,,,,,,,427.7160863999743,427.7160863999743,427.7160863999743,427.7160863999743,427.7160863999743,down,2.027904500020668,5,0,0,99,-0.08,0.07999999999999997,down,1.9419090000446886,,,,,,,,,,,,,,,,,,,,,,,,,,,,,,,,,,,,,,,,,,,,,,,,,,,,,,,,,,,,32DEYU,train_y,red_square,top_left,2025-09-08_16h24.55.642,HideSeek_v1,2022.2.5,59.98969376197217,
,1,9,1,6,0,-3,13,,train_dim1_1,15,30,,,,2,0,2,0,,,,,,,,,0,0,0,0,0,14,14,14,3,0,3,0,,,,,,,,,,,,,,,,,,,,,,,,,,,,,,,,,,,,,,,,,,,,,,,,,,,,,,,,,,,,,,,,30,,,,,,,,429.751926500001,429.751926500001,429.751926500001,429.751926500001,429.751926500001,down,0.5598662999691442,5,0,0,99,-0.08,-2.7755575615628914e-17,down,0.4730838000541553,,,,,,,,,,,,,,,,,,,,,,,,,,,,,,,,,,,,,,,,,,,,,,,,,,,,,,,,,,,,32DEYU,train_y,red_square,top_left,2025-09-08_16h24.55.642,HideSeek_v1,2022.2.5,59.98969376197217,
,1,9,1,6,0,-3,13,,train_dim1_1,15,30,,,,2,0,2,0,,,,,,,,,0,0,0,0,0,14,14,14,4,0,4,0,,,,,,,,,,,,,,,,,,,,,,,,,,,,,,,,,,,,,,,,,,,,,,,,,,,,,,,,,,,,,,,,30,,,,,,,,430.3211262000259,430.3211262000259,430.3211262000259,430.3211262000259,430.3211262000259,down,1.4578410999383777,5,0,0,99,-0.08,-0.08000000000000003,down,1.3789552999660373,,,,,,,,,,,,,,,,,,,,,,,,,,,,,,,,,,,,,,,,,,,,,,,,,,,,,,,,,,,,32DEYU,train_y,red_square,top_left,2025-09-08_16h24.55.642,HideSeek_v1,2022.2.5,59.98969376197217,
,1,9,1,6,0,-3,13,,train_dim1_1,15,30,,,,2,0,2,0,,,,,,,,,0,0,0,0,0,14,14,14,5,0,5,0,,,,,,,,,,,,,,,,,,,,,,,,,,,,,,,,,,,,,,,,,,,,,,,,,,,,,,,,,,,,,,,,30,,,,,,,,431.7862388000358,431.7862388000358,431.7862388000358,431.7862388000358,431.7862388000358,down,1.2438344999682158,5,0,0,99,-0.08,-0.16000000000000003,down,1.1637495999457315,,,,,,,,,,,,,,,,,,,,,,,,,,,,,,,,,,,,,,,,,,,,,,,,,,,,,,,,,,,,32DEYU,train_y,red_square,top_left,2025-09-08_16h24.55.642,HideSeek_v1,2022.2.5,59.98969376197217,
,1,9,1,6,0,-3,13,,train_dim1_1,15,30,,,,2,0,2,0,,,,,,,,,0,0,0,0,0,14,14,14,6,0,6,0,,,,,,,,,,,,,,,,,,,,,,,,,,,,,,,,,,,,,,,,,,,,,,,,,,,,,,,,,,,,,,,,30,,,,,,,,433.03716930001974,433.03716930001974,433.03716930001974,433.03716930001974,433.03716930001974,return,0.39330220001284033,5,0,0,0,-0.08,-0.16000000000000003,return,0.31396409997250885,-38,4,-0.08,-0.16000000000000003,,,,,,,,,,,,,,,,,,,,,,,,,,,,,,,,,,,,,,,,,,,,,,,,,,,,,,,,32DEYU,train_y,red_square,top_left,2025-09-08_16h24.55.642,HideSeek_v1,2022.2.5,59.98969376197217,
,4,5,4,4,0,-1,15,,train_dim1_1,16,30,,,,2,0,2,0,,,,,,,,,0,0,0,0,0,15,15,15,0,0,0,0,,,,,,,,,,,,,,,,,,,,,,,,,stimuli/alien_stimuli/15.png,,,,,,,,,,,,,,,,,,,,,,,,,,,,,stimuli/alien_stimuli/13.png,13,1,17,,,,,,,30,,,,,,,,437.72971290000714,437.72971290000714,437.72971290000714,437.72971290000714,437.72971290000714,up,2.3398980000056326,5,0,0,99,0.16,0.08,up,2.259245799970813,,,,,436.1721697000321,-0.08,0.08,0.24,0.0,0.2,-0.08,-0.08,-0.08,0.08,434.9857380000176,434.9857380000176,434.9857380000176,434.9857380000176,434.9857380000176,434.9857380000176,434.9857380000176,434.9857380000176,434.98694020992843,1.2866157999960706,return,1.1593890999210998,437.72971290000714,,,,,,,,,,,,,,,,,,,,,,,,,,,,,,,,,32DEYU,train_y,red_square,top_left,2025-09-08_16h24.55.642,HideSeek_v1,2022.2.5,59.98969376197217,
,4,5,4,4,0,-1,15,,train_dim1_1,16,30,,,,2,0,2,0,,,,,,,,,0,0,0,0,0,15,15,15,1,0,1,0,,,,,,,,,,,,,,,,,,,,,,,,,,,,,,,,,,,,,,,,,,,,,,,,,,,,,,,,,,,,,,,,30,,,,,,,,440.0780613999814,440.0780613999814,440.0780613999814,440.0780613999814,440.0780613999814,right,1.5269864000147209,5,0,0,99,0.24,0.08,right,1.434110000031069,,,,,,,,,,,,,,,,,,,,,,,,,,,,,,,,,,,,,,,,,,,,,,,,,,,,,,,,,,,,32DEYU,train_y,red_square,top_left,2025-09-08_16h24.55.642,HideSeek_v1,2022.2.5,59.98969376197217,
,4,5,4,4,0,-1,15,,train_dim1_1,16,30,,,,2,0,2,0,,,,,,,,,0,0,0,0,0,15,15,15,2,0,2,0,,,,,,,,,,,,,,,,,,,,,,,,,,,,,,,,,,,,,,,,,,,,,,,,,,,,,,,,,,,,,,,,30,,,,,,,,441.6259008999914,441.6259008999914,441.6259008999914,441.6259008999914,441.6259008999914,down,0.44767979998141527,5,0,0,99,0.24,0.0,down,0.3688732000300661,,,,,,,,,,,,,,,,,,,,,,,,,,,,,,,,,,,,,,,,,,,,,,,,,,,,,,,,,,,,32DEYU,train_y,red_square,top_left,2025-09-08_16h24.55.642,HideSeek_v1,2022.2.5,59.98969376197217,
,4,5,4,4,0,-1,15,,train_dim1_1,16,30,,,,2,0,2,0,,,,,,,,,0,0,0,0,0,15,15,15,3,0,3,0,,,,,,,,,,,,,,,,,,,,,,,,,,,,,,,,,,,,,,,,,,,,,,,,,,,,,,,,,,,,,,,,30,,,,,,,,442.07864490000065,442.07864490000065,442.07864490000065,442.07864490000065,442.07864490000065,down,0.25944160006474704,5,0,0,99,0.24,-0.08,down,0.1782558000413701,,,,,,,,,,,,,,,,,,,,,,,,,,,,,,,,,,,,,,,,,,,,,,,,,,,,,,,,,,,,32DEYU,train_y,red_square,top_left,2025-09-08_16h24.55.642,HideSeek_v1,2022.2.5,59.98969376197217,
,4,5,4,4,0,-1,15,,train_dim1_1,16,30,,,,2,0,2,0,,,,,,,,,0,0,0,0,0,15,15,15,4,0,4,0,,,,,,,,,,,,,,,,,,,,,,,,,,,,,,,,,,,,,,,,,,,,,,,,,,,,,,,,,,,,,,,,30,,,,,,,,442.34667350002564,442.34667350002564,442.34667350002564,442.34667350002564,442.34667350002564,left,1.7596776999998838,5,0,0,99,0.15999999999999998,-0.08,left,1.6803127999883145,,,,,,,,,,,,,,,,,,,,,,,,,,,,,,,,,,,,,,,,,,,,,,,,,,,,,,,,,,,,32DEYU,train_y,red_square,top_left,2025-09-08_16h24.55.642,HideSeek_v1,2022.2.5,59.98969376197217,
,4,5,4,4,0,-1,15,,train_dim1_1,16,30,,,,2,0,2,0,,,,,,,,,0,0,0,0,0,15,15,15,5,0,5,0,,,,,,,,,,,,,,,,,,,,,,,,,,,,,,,,,,,,,,,,,,,,,,,,,,,,,,,,,,,,,,,,30,,,,,,,,444.1134443000192,444.1134443000192,444.1134443000192,444.1134443000192,444.1134443000192,return,1.010573499952443,6,0,0,1,0.15999999999999998,-0.08,return,0.9184977000113577,-39,4,0.15999999999999998,-0.08,,,,,,,,,,,,,,,,,,,,,,,,,,,,,,,,,,,,,,,,,,,,,,,,,,,,,,,,32DEYU,train_y,red_square,top_left,2025-09-08_16h24.55.642,HideSeek_v1,2022.2.5,59.98969376197217,
,3,8,3,5,0,-3,13,,train_dim1_1,17,30,,,,2,0,2,0,,,,,,,,,0,0,0,0,0,16,16,16,0,0,0,0,,,,,,,,,,,,,,,,,,,,,,,,,stimuli/alien_stimuli/13.png,,,,,,,,,,,,,,,,,,,,,,,,,,,,,stimuli/alien_stimuli/15.png,15,4,18,,,,,,,30,,,,,,,,450.04368809994776,450.04368809994776,450.04368809994776,450.04368809994776,450.04368809994776,down,1.9032604000531137,6,0,0,99,0.08,0.15999999999999998,down,1.815274600056,,,,,448.482238000026,0.16,-0.08,0.08,0.0,-0.04,0.16,0.16,0.16,-0.08,446.69625539996196,446.69625539996196,446.69625539996196,446.69625539996196,446.69625539996196,446.69625539996196,446.69625539996196,446.69625539996196,446.69652493996546,1.903858800069429,return,1.764667300041765,450.04368809994776,,,,,,,,,,,,,,,,,,,,,,,,,,,,,,,,,32DEYU,train_y,red_square,top_left,2025-09-08_16h24.55.642,HideSeek_v1,2022.2.5,59.98969376197217,
,3,8,3,5,0,-3,13,,train_dim1_1,17,30,,,,2,0,2,0,,,,,,,,,0,0,0,0,0,16,16,16,1,0,1,0,,,,,,,,,,,,,,,,,,,,,,,,,,,,,,,,,,,,,,,,,,,,,,,,,,,,,,,,,,,,,,,,30,,,,,,,,451.96675360004883,451.96675360004883,451.96675360004883,451.96675360004883,451.96675360004883,down,1.109993499936536,6,0,0,99,0.08,0.07999999999999997,down,1.014892500010319,,,,,,,,,,,,,,,,,,,,,,,,,,,,,,,,,,,,,,,,,,,,,,,,,,,,,,,,,,,,32DEYU,train_y,red_square,top_left,2025-09-08_16h24.55.642,HideSeek_v1,2022.2.5,59.98969376197217,
,3,8,3,5,0,-3,13,,train_dim1_1,17,30,,,,2,0,2,0,,,,,,,,,0,0,0,0,0,16,16,16,2,0,2,0,,,,,,,,,,,,,,,,,,,,,,,,,,,,,,,,,,,,,,,,,,,,,,,,,,,,,,,,,,,,,,,,30,,,,,,,,453.07208980002906,453.07208980002906,453.07208980002906,453.07208980002906,453.07208980002906,down,0.8937689000740647,6,0,0,99,0.08,-2.7755575615628914e-17,down,0.8136151999933645,,,,,,,,,,,,,,,,,,,,,,,,,,,,,,,,,,,,,,,,,,,,,,,,,,,,,,,,,,,,32DEYU,train_y,red_square,top_left,2025-09-08_16h24.55.642,HideSeek_v1,2022.2.5,59.98969376197217,
,3,8,3,5,0,-3,13,,train_dim1_1,17,30,,,,2,0,2,0,,,,,,,,,0,0,0,0,0,16,16,16,3,0,3,0,,,,,,,,,,,,,,,,,,,,,,,,,,,,,,,,,,,,,,,,,,,,,,,,,,,,,,,,,,,,,,,,30,,,,,,,,453.97122509998735,453.97122509998735,453.97122509998735,453.97122509998735,453.97122509998735,down,4.413726600003429,6,0,0,99,0.08,-0.08000000000000003,down,4.3267159999813884,,,,,,,,,,,,,,,,,,,,,,,,,,,,,,,,,,,,,,,,,,,,,,,,,,,,,,,,,,,,32DEYU,train_y,red_square,top_left,2025-09-08_16h24.55.642,HideSeek_v1,2022.2.5,59.98969376197217,
,3,8,3,5,0,-3,13,,train_dim1_1,17,30,,,,2,0,2,0,,,,,,,,,0,0,0,0,0,16,16,16,4,0,4,0,,,,,,,,,,,,,,,,,,,,,,,,,,,,,,,,,,,,,,,,,,,,,,,,,,,,,,,,,,,,,,,,30,,,,,,,,458.40614019997884,458.40614019997884,458.40614019997884,458.40614019997884,458.40614019997884,down,0.17365260003134608,6,0,0,99,0.08,-0.16000000000000003,down,0.0854126000776887,,,,,,,,,,,,,,,,,,,,,,,,,,,,,,,,,,,,,,,,,,,,,,,,,,,,,,,,,,,,32DEYU,train_y,red_square,top_left,2025-09-08_16h24.55.642,HideSeek_v1,2022.2.5,59.98969376197217,
,3,8,3,5,0,-3,13,,train_dim1_1,17,30,,,,2,0,2,0,,,,,,,,,0,0,0,0,0,16,16,16,5,0,5,0,,,,,,,,,,,,,,,,,,,,,,,,,,,,,,,,,,,,,,,,,,,,,,,,,,,,,,,,,,,,,,,,30,,,,,,,,458.5740533999633,458.5740533999633,458.5740533999633,458.5740533999633,458.5740533999633,up,1.0607234999770299,6,0,0,99,0.08,-0.08000000000000003,up,0.9772404000395909,,,,,,,,,,,,,,,,,,,,,,,,,,,,,,,,,,,,,,,,,,,,,,,,,,,,,,,,,,,,32DEYU,train_y,red_square,top_left,2025-09-08_16h24.55.642,HideSeek_v1,2022.2.5,59.98969376197217,
,3,8,3,5,0,-3,13,,train_dim1_1,17,30,,,,2,0,2,0,,,,,,,,,0,0,0,0,0,16,16,16,6,0,6,0,,,,,,,,,,,,,,,,,,,,,,,,,,,,,,,,,,,,,,,,,,,,,,,,,,,,,,,,,,,,,,,,30,,,,,,,,459.64182490005624,459.64182490005624,459.64182490005624,459.64182490005624,459.64182490005624,up,0.17658440000377595,6,0,0,99,0.08,-2.7755575615628914e-17,up,0.09518790000583977,,,,,,,,,,,,,,,,,,,,,,,,,,,,,,,,,,,,,,,,,,,,,,,,,,,,,,,,,,,,32DEYU,train_y,red_square,top_left,2025-09-08_16h24.55.642,HideSeek_v1,2022.2.5,59.98969376197217,
,3,8,3,5,0,-3,13,,train_dim1_1,17,30,,,,2,0,2,0,,,,,,,,,0,0,0,0,0,16,16,16,7,0,7,0,,,,,,,,,,,,,,,,,,,,,,,,,,,,,,,,,,,,,,,,,,,,,,,,,,,,,,,,,,,,,,,,30,,,,,,,,459.8264706999762,459.8264706999762,459.8264706999762,459.8264706999762,459.8264706999762,down,0.7600067999446765,6,0,0,99,0.08,-0.08000000000000003,down,0.6826584000373259,,,,,,,,,,,,,,,,,,,,,,,,,,,,,,,,,,,,,,,,,,,,,,,,,,,,,,,,,,,,32DEYU,train_y,red_square,top_left,2025-09-08_16h24.55.642,HideSeek_v1,2022.2.5,59.98969376197217,
,3,8,3,5,0,-3,13,,train_dim1_1,17,30,,,,2,0,2,0,,,,,,,,,0,0,0,0,0,16,16,16,8,0,8,0,,,,,,,,,,,,,,,,,,,,,,,,,,,,,,,,,,,,,,,,,,,,,,,,,,,,,,,,,,,,,,,,30,,,,,,,,460.60430280002765,460.60430280002765,460.60430280002765,460.60430280002765,460.60430280002765,return,0.2752153999172151,6,1,0,0,0.08,-0.08000000000000003,return,0.17840370000340044,-43,4,0.08,-0.08000000000000003,,,,,,,,,,,,,,,,,,,,,,,,,,,,,,,,,,,,,,,,,,,,,,,,,,,,,,,,32DEYU,train_y,red_square,top_left,2025-09-08_16h24.55.642,HideSeek_v1,2022.2.5,59.98969376197217,
,2,6,2,1,0,-5,11,,train_dim1_1,18,30,,,,2,0,2,0,,,,,,,,,0,0,0,0,0,17,17,17,0,0,0,0,,,,,,,,,,,,,,,,,,,,,,,,,stimuli/alien_stimuli/11.png,,,,,,,,,,,,,,,,,,,,,,,,,,,,,stimuli/alien_stimuli/13.png,13,3,19,,,,,,,30,,,,,,,,465.2676495000487,465.2676495000487,465.2676495000487,465.2676495000487,465.2676495000487,down,1.590569099993445,6,1,0,99,0,0.0,down,1.511263299966231,,,,,463.7116655999562,0.08,0,0.24,0.0,0.12,0.08,0.08,0.08,0,462.4579219999723,462.4579219999723,462.4579219999723,462.4579219999723,462.4579219999723,462.4579219999723,462.4579219999723,462.4579219999723,462.4437222399283,1.385852099978365,return,1.234236799995415,465.2676495000487,,,,,,,,,,,,,,,,,,,,,,,,,,,,,,,,,32DEYU,train_y,red_square,top_left,2025-09-08_16h24.55.642,HideSeek_v1,2022.2.5,59.98969376197217,
,2,6,2,1,0,-5,11,,train_dim1_1,18,30,,,,2,0,2,0,,,,,,,,,0,0,0,0,0,17,17,17,1,0,1,0,,,,,,,,,,,,,,,,,,,,,,,,,,,,,,,,,,,,,,,,,,,,,,,,,,,,,,,,,,,,,,,,30,,,,,,,,466.8662363999756,466.8662363999756,466.8662363999756,466.8662363999756,466.8662363999756,down,0.47575169999618083,6,1,0,99,0,-0.08,down,0.3865140000125393,,,,,,,,,,,,,,,,,,,,,,,,,,,,,,,,,,,,,,,,,,,,,,,,,,,,,,,,,,,,32DEYU,train_y,red_square,top_left,2025-09-08_16h24.55.642,HideSeek_v1,2022.2.5,59.98969376197217,
,2,6,2,1,0,-5,11,,train_dim1_1,18,30,,,,2,0,2,0,,,,,,,,,0,0,0,0,0,17,17,17,2,0,2,0,,,,,,,,,,,,,,,,,,,,,,,,,,,,,,,,,,,,,,,,,,,,,,,,,,,,,,,,,,,,,,,,30,,,,,,,,467.3491901999805,467.3491901999805,467.3491901999805,467.3491901999805,467.3491901999805,down,0.543307000072673,6,1,0,99,0,-0.16,down,0.46420749998651445,,,,,,,,,,,,,,,,,,,,,,,,,,,,,,,,,,,,,,,,,,,,,,,,,,,,,,,,,,,,32DEYU,train_y,red_square,top_left,2025-09-08_16h24.55.642,HideSeek_v1,2022.2.5,59.98969376197217,
,2,6,2,1,0,-5,11,,train_dim1_1,18,30,,,,2,0,2,0,,,,,,,,,0,0,0,0,0,17,17,17,3,0,3,0,,,,,,,,,,,,,,,,,,,,,,,,,,,,,,,,,,,,,,,,,,,,,,,,,,,,,,,,,,,,,,,,30,,,,,,,,467.9019466000609,467.9019466000609,467.9019466000609,467.9019466000609,467.9019466000609,return,0.3598667000187561,6,0,0,0,0,-0.16,return,0.2715852000983432,-46,4,0,-0.16,,,,,,,,,,,,,,,,,,,,,,,,,,,,,,,,,,,,,,,,,,,,,,,,,,,,,,,,32DEYU,train_y,red_square,top_left,2025-09-08_16h24.55.642,HideSeek_v1,2022.2.5,59.98969376197217,
,0,9,0,5,0,-4,12,,train_dim1_1,19,30,,,,2,0,2,0,,,,,,,,,0,0,0,0,0,18,18,18,0,0,0,0,,,,,,,,,,,,,,,,,,,,,,,,,stimuli/alien_stimuli/12.png,,,,,,,,,,,,,,,,,,,,,,,,,,,,,stimuli/alien_stimuli/11.png,11,2,20,,,,,,,30,,,,,,,,472.89333989995066,472.89333989995066,472.89333989995066,472.89333989995066,472.89333989995066,down,1.4541404000483453,6,0,0,99,-0.16,0.24,down,1.3612406000029296,,,,,471.33462620002683,0,-0.32,0.4,0.0,-0.12,0,0.0,0,-0.32,469.81713049998507,469.81713049998507,469.81713049998507,469.81713049998507,469.81713049998507,469.81713049998507,469.81713049998507,469.81713049998507,469.8161289099953,1.6203338999766856,return,1.496770799974911,472.89333989995066,,,,,,,,,,,,,,,,,,,,,,,,,,,,,,,,,32DEYU,train_y,red_square,top_left,2025-09-08_16h24.55.642,HideSeek_v1,2022.2.5,59.98969376197217,
,0,9,0,5,0,-4,12,,train_dim1_1,19,30,,,,2,0,2,0,,,,,,,,,0,0,0,0,0,18,18,18,1,0,1,0,,,,,,,,,,,,,,,,,,,,,,,,,,,,,,,,,,,,,,,,,,,,,,,,,,,,,,,,,,,,,,,,30,,,,,,,,474.3558705999749,474.3558705999749,474.3558705999749,474.3558705999749,474.3558705999749,down,0.49286169989500195,6,0,0,99,-0.16,0.15999999999999998,down,0.40239679999649525,,,,,,,,,,,,,,,,,,,,,,,,,,,,,,,,,,,,,,,,,,,,,,,,,,,,,,,,,,,,32DEYU,train_y,red_square,top_left,2025-09-08_16h24.55.642,HideSeek_v1,2022.2.5,59.98969376197217,
,0,9,0,5,0,-4,12,,train_dim1_1,19,30,,,,2,0,2,0,,,,,,,,,0,0,0,0,0,18,18,18,2,0,2,0,,,,,,,,,,,,,,,,,,,,,,,,,,,,,,,,,,,,,,,,,,,,,,,,,,,,,,,,,,,,,,,,30,,,,,,,,474.85486580000725,474.85486580000725,474.85486580000725,474.85486580000725,474.85486580000725,down,0.42679800000041723,6,0,0,99,-0.16,0.07999999999999997,down,0.341436899965629,,,,,,,,,,,,,,,,,,,,,,,,,,,,,,,,,,,,,,,,,,,,,,,,,,,,,,,,,,,,32DEYU,train_y,red_square,top_left,2025-09-08_16h24.55.642,HideSeek_v1,2022.2.5,59.98969376197217,
,0,9,0,5,0,-4,12,,train_dim1_1,19,30,,,,2,0,2,0,,,,,,,,,0,0,0,0,0,18,18,18,3,0,3,0,,,,,,,,,,,,,,,,,,,,,,,,,,,,,,,,,,,,,,,,,,,,,,,,,,,,,,,,,,,,,,,,30,,,,,,,,475.29607539996505,475.29607539996505,475.29607539996505,475.29607539996505,475.29607539996505,down,0.44307559996377677,6,0,0,99,-0.16,-2.7755575615628914e-17,down,0.34998390008695424,,,,,,,,,,,,,,,,,,,,,,,,,,,,,,,,,,,,,,,,,,,,,,,,,,,,,,,,,,,,32DEYU,train_y,red_square,top_left,2025-09-08_16h24.55.642,HideSeek_v1,2022.2.5,59.98969376197217,
,0,9,0,5,0,-4,12,,train_dim1_1,19,30,,,,2,0,2,0,,,,,,,,,0,0,0,0,0,18,18,18,4,0,4,0,,,,,,,,,,,,,,,,,,,,,,,,,,,,,,,,,,,,,,,,,,,,,,,,,,,,,,,,,,,,,,,,30,,,,,,,,475.73889659997076,475.73889659997076,475.73889659997076,475.73889659997076,475.73889659997076,up,0.9109476000303403,6,0,0,99,-0.16,0.07999999999999997,up,0.8250844000140205,,,,,,,,,,,,,,,,,,,,,,,,,,,,,,,,,,,,,,,,,,,,,,,,,,,,,,,,,,,,32DEYU,train_y,red_square,top_left,2025-09-08_16h24.55.642,HideSeek_v1,2022.2.5,59.98969376197217,
,0,9,0,5,0,-4,12,,train_dim1_1,19,30,,,,2,0,2,0,,,,,,,,,0,0,0,0,0,18,18,18,5,0,5,0,,,,,,,,,,,,,,,,,,,,,,,,,,,,,,,,,,,,,,,,,,,,,,,,,,,,,,,,,,,,,,,,30,,,,,,,,476.6659303000197,476.6659303000197,476.6659303000197,476.6659303000197,476.6659303000197,return,0.4683420999208465,6,1,0,0,-0.16,0.07999999999999997,return,0.38918549998197705,-49,4,-0.16,0.07999999999999997,,,,,,,,,,,,,,,,,,,,,,,,,,,,,,,,,,,,,,,,,,,,,,,,,,,,,,,,32DEYU,train_y,red_square,top_left,2025-09-08_16h24.55.642,HideSeek_v1,2022.2.5,59.98969376197217,
,2,5,2,5,0,0,16,,train_dim1_1,20,30,,,,2,0,2,0,,,,,,,,,0,0,0,0,0,19,19,19,0,0,0,0,,,,,,,,,,,,,,,,,,,,,,,,,stimuli/alien_stimuli/16.png,,,,,,,,,,,,,,,,,,,,,,,,,,,,,stimuli/alien_stimuli/12.png,12,0,21,,,,,,,30,,,,,,,,482.2398991000373,482.2398991000373,482.2398991000373,482.2398991000373,482.2398991000373,return,2.16698360000737,7,0,0,1,0,0,return,2.0819606999866664,-49,4,0,0,480.67577390000224,-0.16,0,0.32,0.0,0.16,-0.16,-0.16,-0.16,0,478.69247909996193,478.69247909996193,478.69247909996193,478.69247909996193,478.69247909996193,478.69247909996193,478.69247909996193,478.69247909996193,478.6899823099957,2.087221199995838,return,1.9559867000207305,482.2398991000373,,,,,,,,,,,,,,,,,,,,,,,,,,,,,,,,,32DEYU,train_y,red_square,top_left,2025-09-08_16h24.55.642,HideSeek_v1,2022.2.5,59.98969376197217,
,2,9,2,8,0,-1,15,,train_dim1_1,21,30,,,,2,0,2,0,,,,,,,,,0,0,0,0,0,20,20,20,0,0,0,0,,,,,,,,,,,,,,,,,,,,,,,,,stimuli/alien_stimuli/15.png,,,,,,,,,,,,,,,,,,,,,,,,,,,,,stimuli/alien_stimuli/16.png,16,2,22,,,,,,,30,,,,,,,,488.37089360004757,488.37089360004757,488.37089360004757,488.37089360004757,488.37089360004757,down,1.2560996999964118,7,0,0,99,0,0.24,down,1.176043500076048,,,,,486.81424650002737,0,0,0.0,0.0,0.0,0,0.0,0,0,485.96442289999686,485.96442289999686,485.96442289999686,485.96442289999686,485.96442289999686,485.96442289999686,485.96442289999686,485.96442289999686,485.96266340994043,0.9528828000184149,return,0.8258679999271408,488.37089360004757,,,,,,,,,,,,,,,,,,,,,,,,,,,,,,,,,32DEYU,train_y,red_square,top_left,2025-09-08_16h24.55.642,HideSeek_v1,2022.2.5,59.98969376197217,
,2,9,2,8,0,-1,15,,train_dim1_1,21,30,,,,2,0,2,0,,,,,,,,,0,0,0,0,0,20,20,20,1,0,1,0,,,,,,,,,,,,,,,,,,,,,,,,,,,,,,,,,,,,,,,,,,,,,,,,,,,,,,,,,,,,,,,,30,,,,,,,,489.6354511999525,489.6354511999525,489.6354511999525,489.6354511999525,489.6354511999525,return,0.32588599994778633,8,0,0,1,0,0.24,return,0.23464160005096346,-50,4,0,0.24,,,,,,,,,,,,,,,,,,,,,,,,,,,,,,,,,,,,,,,,,,,,,,,,,,,,,,,,32DEYU,train_y,red_square,top_left,2025-09-08_16h24.55.642,HideSeek_v1,2022.2.5,59.98969376197217,
,0,7,0,4,0,-3,13,,train_dim1_1,22,30,,,,2,0,2,0,,,,,,,,,0,0,0,0,0,21,21,21,0,0,0,0,,,,,,,,,,,,,,,,,,,,,,,,,stimuli/alien_stimuli/13.png,,,,,,,,,,,,,,,,,,,,,,,,,,,,,stimuli/alien_stimuli/15.png,15,2,23,,,,,,,30,,,,,,,,493.76171610003803,493.76171610003803,493.76171610003803,493.76171610003803,493.76171610003803,down,1.6690895999781787,8,0,0,99,-0.16,0.08,down,1.5907773999497294,,,,,492.2017175999936,0,0.24,0.08,0.0,0.28,0,0.0,0,0.24,491.51746909995563,491.51746909995563,491.51746909995563,491.51746909995563,491.51746909995563,491.51746909995563,491.51746909995563,491.51746909995563,491.51702950993786,0.7864629999967292,return,0.6530207999749109,493.76171610003803,,,,,,,,,,,,,,,,,,,,,,,,,,,,,,,,,32DEYU,train_y,red_square,top_left,2025-09-08_16h24.55.642,HideSeek_v1,2022.2.5,59.98969376197217,
,0,7,0,4,0,-3,13,,train_dim1_1,22,30,,,,2,0,2,0,,,,,,,,,0,0,0,0,0,21,21,21,1,0,1,0,,,,,,,,,,,,,,,,,,,,,,,,,,,,,,,,,,,,,,,,,,,,,,,,,,,,,,,,,,,,,,,,30,,,,,,,,495.4385443000356,495.4385443000356,495.4385443000356,495.4385443000356,495.4385443000356,down,0.5263695999747142,8,0,0,99,-0.16,0.0,down,0.4370696999831125,,,,,,,,,,,,,,,,,,,,,,,,,,,,,,,,,,,,,,,,,,,,,,,,,,,,,,,,,,,,32DEYU,train_y,red_square,top_left,2025-09-08_16h24.55.642,HideSeek_v1,2022.2.5,59.98969376197217,
,0,7,0,4,0,-3,13,,train_dim1_1,22,30,,,,2,0,2,0,,,,,,,,,0,0,0,0,0,21,21,21,2,0,2,0,,,,,,,,,,,,,,,,,,,,,,,,,,,,,,,,,,,,,,,,,,,,,,,,,,,,,,,,,,,,,,,,30,,,,,,,,495.9726718000602,495.9726718000602,495.9726718000602,495.9726718000602,495.9726718000602,down,0.776459899963811,8,0,0,99,-0.16,-0.08,down,0.6860728000756353,,,,,,,,,,,,,,,,,,,,,,,,,,,,,,,,,,,,,,,,,,,,,,,,,,,,,,,,,,,,32DEYU,train_y,red_square,top_left,2025-09-08_16h24.55.642,HideSeek_v1,2022.2.5,59.98969376197217,
,0,7,0,4,0,-3,13,,train_dim1_1,22,30,,,,2,0,2,0,,,,,,,,,0,0,0,0,0,21,21,21,3,0,3,0,,,,,,,,,,,,,,,,,,,,,,,,,,,,,,,,,,,,,,,,,,,,,,,,,,,,,,,,,,,,,,,,30,,,,,,,,496.76142210001126,496.76142210001126,496.76142210001126,496.76142210001126,496.76142210001126,down,0.5050435999874026,8,0,0,99,-0.16,-0.16,down,0.418640699936077,,,,,,,,,,,,,,,,,,,,,,,,,,,,,,,,,,,,,,,,,,,,,,,,,,,,,,,,,,,,32DEYU,train_y,red_square,top_left,2025-09-08_16h24.55.642,HideSeek_v1,2022.2.5,59.98969376197217,
,0,7,0,4,0,-3,13,,train_dim1_1,22,30,,,,2,0,2,0,,,,,,,,,0,0,0,0,0,21,21,21,4,0,4,0,,,,,,,,,,,,,,,,,,,,,,,,,,,,,,,,,,,,,,,,,,,,,,,,,,,,,,,,,,,,,,,,30,,,,,,,,497.2783439999912,497.2783439999912,497.2783439999912,497.2783439999912,497.2783439999912,down,0.37617629999294877,8,0,0,99,-0.16,-0.24,down,0.28697010001633316,,,,,,,,,,,,,,,,,,,,,,,,,,,,,,,,,,,,,,,,,,,,,,,,,,,,,,,,,,,,32DEYU,train_y,red_square,top_left,2025-09-08_16h24.55.642,HideSeek_v1,2022.2.5,59.98969376197217,
,0,7,0,4,0,-3,13,,train_dim1_1,22,30,,,,2,0,2,0,,,,,,,,,0,0,0,0,0,21,21,21,5,0,5,0,,,,,,,,,,,,,,,,,,,,,,,,,,,,,,,,,,,,,,,,,,,,,,,,,,,,,,,,,,,,,,,,30,,,,,,,,497.6601623999886,497.6601623999886,497.6601623999886,497.6601623999886,497.6601623999886,return,0.8405462999362499,8,0,0,0,-0.16,-0.24,return,0.7589841999579221,-55,4,-0.16,-0.24,,,,,,,,,,,,,,,,,,,,,,,,,,,,,,,,,,,,,,,,,,,,,,,,,,,,,,,,32DEYU,train_y,red_square,top_left,2025-09-08_16h24.55.642,HideSeek_v1,2022.2.5,59.98969376197217,
,0,8,0,3,0,-5,11,,train_dim1_1,23,30,,,,2,0,2,0,,,,,,,,,0,0,0,0,0,22,22,22,0,0,0,0,,,,,,,,,,,,,,,,,,,,,,,,,stimuli/alien_stimuli/11.png,,,,,,,,,,,,,,,,,,,,,,,,,,,,,stimuli/alien_stimuli/13.png,13,0,24,,,,,,,30,,,,,,,,503.72054100001696,503.72054100001696,503.72054100001696,503.72054100001696,503.72054100001696,down,1.3695586000103503,8,0,0,99,-0.16,0.15999999999999998,down,1.287393599981442,,,,,502.1600430000108,-0.16,-0.08,0.24,0.0,0.04,-0.16,-0.16,-0.16,-0.08,500.06527549994644,500.06527549994644,500.06527549994644,500.06527549994644,500.06527549994644,500.06527549994644,500.06527549994644,500.06527549994644,500.05765971000073,2.203916299971752,return,2.070746700046584,503.72054100001696,,,,,,,,,,,,,,,,,,,,,,,,,,,,,,,,,32DEYU,train_y,red_square,top_left,2025-09-08_16h24.55.642,HideSeek_v1,2022.2.5,59.98969376197217,
,0,8,0,3,0,-5,11,,train_dim1_1,23,30,,,,2,0,2,0,,,,,,,,,0,0,0,0,0,22,22,22,1,0,1,0,,,,,,,,,,,,,,,,,,,,,,,,,,,,,,,,,,,,,,,,,,,,,,,,,,,,,,,,,,,,,,,,30,,,,,,,,505.09779250004794,505.09779250004794,505.09779250004794,505.09779250004794,505.09779250004794,down,0.42601620010100305,8,0,0,99,-0.16,0.07999999999999997,down,0.3345625000074506,,,,,,,,,,,,,,,,,,,,,,,,,,,,,,,,,,,,,,,,,,,,,,,,,,,,,,,,,,,,32DEYU,train_y,red_square,top_left,2025-09-08_16h24.55.642,HideSeek_v1,2022.2.5,59.98969376197217,
,0,8,0,3,0,-5,11,,train_dim1_1,23,30,,,,2,0,2,0,,,,,,,,,0,0,0,0,0,22,22,22,2,0,2,0,,,,,,,,,,,,,,,,,,,,,,,,,,,,,,,,,,,,,,,,,,,,,,,,,,,,,,,,,,,,,,,,30,,,,,,,,505.5360061000101,505.5360061000101,505.5360061000101,505.5360061000101,505.5360061000101,down,0.3936294000595808,8,0,0,99,-0.16,-2.7755575615628914e-17,down,0.3069524000165984,,,,,,,,,,,,,,,,,,,,,,,,,,,,,,,,,,,,,,,,,,,,,,,,,,,,,,,,,,,,32DEYU,train_y,red_square,top_left,2025-09-08_16h24.55.642,HideSeek_v1,2022.2.5,59.98969376197217,
,0,8,0,3,0,-5,11,,train_dim1_1,23,30,,,,2,0,2,0,,,,,,,,,0,0,0,0,0,22,22,22,3,0,3,0,,,,,,,,,,,,,,,,,,,,,,,,,,,,,,,,,,,,,,,,,,,,,,,,,,,,,,,,,,,,,,,,30,,,,,,,,505.9348687999882,505.9348687999882,505.9348687999882,505.9348687999882,505.9348687999882,down,0.3932704000035301,8,0,0,99,-0.16,-0.08000000000000003,down,0.3100757000502199,,,,,,,,,,,,,,,,,,,,,,,,,,,,,,,,,,,,,,,,,,,,,,,,,,,,,,,,,,,,32DEYU,train_y,red_square,top_left,2025-09-08_16h24.55.642,HideSeek_v1,2022.2.5,59.98969376197217,
,0,8,0,3,0,-5,11,,train_dim1_1,23,30,,,,2,0,2,0,,,,,,,,,0,0,0,0,0,22,22,22,4,0,4,0,,,,,,,,,,,,,,,,,,,,,,,,,,,,,,,,,,,,,,,,,,,,,,,,,,,,,,,,,,,,,,,,30,,,,,,,,506.33377290004864,506.33377290004864,506.33377290004864,506.33377290004864,506.33377290004864,down,1.791883899946697,8,0,0,99,-0.16,-0.16000000000000003,down,1.7120450999354944,,,,,,,,,,,,,,,,,,,,,,,,,,,,,,,,,,,,,,,,,,,,,,,,,,,,,,,,,,,,32DEYU,train_y,red_square,top_left,2025-09-08_16h24.55.642,HideSeek_v1,2022.2.5,59.98969376197217,
,0,8,0,3,0,-5,11,,train_dim1_1,23,30,,,,2,0,2,0,,,,,,,,,0,0,0,0,0,22,22,22,5,0,5,0,,,,,,,,,,,,,,,,,,,,,,,,,,,,,,,,,,,,,,,,,,,,,,,,,,,,,,,,,,,,,,,,30,,,,,,,,508.13310450001154,508.13310450001154,508.13310450001154,508.13310450001154,508.13310450001154,return,0.31002760003320873,9,0,0,1,-0.16,-0.16000000000000003,return,0.22326430003158748,-60,4,-0.16,-0.16000000000000003,,,,,,,,,,,,,,,,,,,,,,,,,,,,,,,,,,,,,,,,,,,,,,,,,,,,,,,,32DEYU,train_y,red_square,top_left,2025-09-08_16h24.55.642,HideSeek_v1,2022.2.5,59.98969376197217,
,3,7,3,7,0,0,16,,train_dim1_1,24,30,,,,2,0,2,0,,,,,,,,,0,0,0,0,0,23,23,23,0,0,0,0,,,,,,,,,,,,,,,,,,,,,,,,,stimuli/alien_stimuli/16.png,,,,,,,,,,,,,,,,,,,,,,,,,,,,,stimuli/alien_stimuli/11.png,11,0,25,,,,,,,30,,,,,,,,512.7176366000203,512.7176366000203,512.7176366000203,512.7176366000203,512.7176366000203,return,4.0664050000486895,10,0,0,1,0.08,0.16,return,3.983790299971588,-60,4,0.08,0.16,511.15090300003067,-0.16,-0.16,0.4,0.0,0.039999999999999994,-0.16,-0.16,-0.16,-0.16,509.99798310000915,509.99798310000915,509.99798310000915,509.99798310000915,509.99798310000915,509.99798310000915,509.99798310000915,509.99798310000915,509.99902320996625,1.2531056000152603,return,1.1297401000047103,512.7176366000203,,,,,,,,,,,,,,,,,,,,,,,,,,,,,,,,,32DEYU,train_y,red_square,top_left,2025-09-08_16h24.55.642,HideSeek_v1,2022.2.5,59.98969376197217,
,3,8,3,4,0,-4,12,,train_dim1_1,25,30,,,,2,0,2,0,,,,,,,,,0,0,0,0,0,24,24,24,0,0,0,0,,,,,,,,,,,,,,,,,,,,,,,,,stimuli/alien_stimuli/12.png,,,,,,,,,,,,,,,,,,,,,,,,,,,,,stimuli/alien_stimuli/16.png,16,3,26,,,,,,,30,,,,,,,,520.6821855000453,520.6821855000453,520.6821855000453,520.6821855000453,520.6821855000453,down,2.1392275999533013,10,0,0,99,0.08,0.15999999999999998,down,2.060948699945584,,,,,519.1240619999589,0.08,0.16,0.0,0.0,0.16,0.08,0.08,0.08,0.16,518.3416198999621,518.3416198999621,518.3416198999621,518.3416198999621,518.3416198999621,518.3416198999621,518.3416198999621,518.3416198999621,518.3396044099354,0.8859405999537557,return,0.750938400044106,520.6821855000453,,,,,,,,,,,,,,,,,,,,,,,,,,,,,,,,,32DEYU,train_y,red_square,top_left,2025-09-08_16h24.55.642,HideSeek_v1,2022.2.5,59.98969376197217,
,3,8,3,4,0,-4,12,,train_dim1_1,25,30,,,,2,0,2,0,,,,,,,,,0,0,0,0,0,24,24,24,1,0,1,0,,,,,,,,,,,,,,,,,,,,,,,,,,,,,,,,,,,,,,,,,,,,,,,,,,,,,,,,,,,,,,,,30,,,,,,,,522.8385108000366,522.8385108000366,522.8385108000366,522.8385108000366,522.8385108000366,down,0.6932501000119373,10,0,0,99,0.08,0.07999999999999997,down,0.5993820999283344,,,,,,,,,,,,,,,,,,,,,,,,,,,,,,,,,,,,,,,,,,,,,,,,,,,,,,,,,,,,32DEYU,train_y,red_square,top_left,2025-09-08_16h24.55.642,HideSeek_v1,2022.2.5,59.98969376197217,
,3,8,3,4,0,-4,12,,train_dim1_1,25,30,,,,2,0,2,0,,,,,,,,,0,0,0,0,0,24,24,24,2,0,2,0,,,,,,,,,,,,,,,,,,,,,,,,,,,,,,,,,,,,,,,,,,,,,,,,,,,,,,,,,,,,,,,,30,,,,,,,,523.53209350002,523.53209350002,523.53209350002,523.53209350002,523.53209350002,down,0.5237444000085816,10,0,0,99,0.08,-2.7755575615628914e-17,down,0.4360609999857843,,,,,,,,,,,,,,,,,,,,,,,,,,,,,,,,,,,,,,,,,,,,,,,,,,,,,,,,,,,,32DEYU,train_y,red_square,top_left,2025-09-08_16h24.55.642,HideSeek_v1,2022.2.5,59.98969376197217,
,3,8,3,4,0,-4,12,,train_dim1_1,25,30,,,,2,0,2,0,,,,,,,,,0,0,0,0,0,24,24,24,3,0,3,0,,,,,,,,,,,,,,,,,,,,,,,,,,,,,,,,,,,,,,,,,,,,,,,,,,,,,,,,,,,,,,,,30,,,,,,,,524.0648589000339,524.0648589000339,524.0648589000339,524.0648589000339,524.0648589000339,return,0.874560400028713,10,1,0,0,0.08,-2.7755575615628914e-17,return,0.7921552999177948,-63,4,0.08,-2.7755575615628914e-17,,,,,,,,,,,,,,,,,,,,,,,,,,,,,,,,,,,,,,,,,,,,,,,,,,,,,,,,32DEYU,train_y,red_square,top_left,2025-09-08_16h24.55.642,HideSeek_v1,2022.2.5,59.98969376197217,
,4,9,4,6,0,-3,13,,train_dim1_1,26,30,,,,2,0,2,0,,,,,,,,,0,0,0,0,0,25,25,25,0,0,0,0,,,,,,,,,,,,,,,,,,,,,,,,,stimuli/alien_stimuli/13.png,,,,,,,,,,,,,,,,,,,,,,,,,,,,,stimuli/alien_stimuli/12.png,12,3,27,,,,,,,30,,,,,,,,529.2722224000609,529.2722224000609,529.2722224000609,529.2722224000609,529.2722224000609,down,1.155161900096573,10,1,0,99,0.16,0.24,down,1.068184700096026,,,,,527.714553100057,0.08,-0.08,0.32,0.0,0.07999999999999999,0.08,0.08,0.08,-0.08,526.4954473000253,526.4954473000253,526.4954473000253,526.4954473000253,526.4954473000253,526.4954473000253,526.4954473000253,526.4954473000253,526.4961307099438,1.3200035999761894,return,1.1958716999506578,529.2722224000609,,,,,,,,,,,,,,,,,,,,,,,,,,,,,,,,,32DEYU,train_y,red_square,top_left,2025-09-08_16h24.55.642,HideSeek_v1,2022.2.5,59.98969376197217,
,4,9,4,6,0,-3,13,,train_dim1_1,26,30,,,,2,0,2,0,,,,,,,,,0,0,0,0,0,25,25,25,1,0,1,0,,,,,,,,,,,,,,,,,,,,,,,,,,,,,,,,,,,,,,,,,,,,,,,,,,,,,,,,,,,,,,,,30,,,,,,,,530.4351399999578,530.4351399999578,530.4351399999578,530.4351399999578,530.4351399999578,down,0.8260649999137968,10,1,0,99,0.16,0.15999999999999998,down,0.7373681000899523,,,,,,,,,,,,,,,,,,,,,,,,,,,,,,,,,,,,,,,,,,,,,,,,,,,,,,,,,,,,32DEYU,train_y,red_square,top_left,2025-09-08_16h24.55.642,HideSeek_v1,2022.2.5,59.98969376197217,
,4,9,4,6,0,-3,13,,train_dim1_1,26,30,,,,2,0,2,0,,,,,,,,,0,0,0,0,0,25,25,25,2,0,2,0,,,,,,,,,,,,,,,,,,,,,,,,,,,,,,,,,,,,,,,,,,,,,,,,,,,,,,,,,,,,,,,,30,,,,,,,,531.2680259000044,531.2680259000044,531.2680259000044,531.2680259000044,531.2680259000044,down,0.7602786000352353,10,1,0,99,0.16,0.07999999999999997,down,0.6827522000530735,,,,,,,,,,,,,,,,,,,,,,,,,,,,,,,,,,,,,,,,,,,,,,,,,,,,,,,,,,,,32DEYU,train_y,red_square,top_left,2025-09-08_16h24.55.642,HideSeek_v1,2022.2.5,59.98969376197217,
,4,9,4,6,0,-3,13,,train_dim1_1,26,30,,,,2,0,2,0,,,,,,,,,0,0,0,0,0,25,25,25,3,0,3,0,,,,,,,,,,,,,,,,,,,,,,,,,,,,,,,,,,,,,,,,,,,,,,,,,,,,,,,,,,,,,,,,30,,,,,,,,532.0341200999683,532.0341200999683,532.0341200999683,532.0341200999683,532.0341200999683,down,0.7602746000047773,10,1,0,99,0.16,-2.7755575615628914e-17,down,0.6829719999805093,,,,,,,,,,,,,,,,,,,,,,,,,,,,,,,,,,,,,,,,,,,,,,,,,,,,,,,,,,,,32DEYU,train_y,red_square,top_left,2025-09-08_16h24.55.642,HideSeek_v1,2022.2.5,59.98969376197217,
,4,9,4,6,0,-3,13,,train_dim1_1,26,30,,,,2,0,2,0,,,,,,,,,0,0,0,0,0,25,25,25,4,0,4,0,,,,,,,,,,,,,,,,,,,,,,,,,,,,,,,,,,,,,,,,,,,,,,,,,,,,,,,,,,,,,,,,30,,,,,,,,532.8020627000369,532.8020627000369,532.8020627000369,532.8020627000369,532.8020627000369,down,0.7601920000743121,10,1,0,99,0.16,-0.08000000000000003,down,0.6818409999832511,,,,,,,,,,,,,,,,,,,,,,,,,,,,,,,,,,,,,,,,,,,,,,,,,,,,,,,,,,,,32DEYU,train_y,red_square,top_left,2025-09-08_16h24.55.642,HideSeek_v1,2022.2.5,59.98969376197217,
,4,9,4,6,0,-3,13,,train_dim1_1,26,30,,,,2,0,2,0,,,,,,,,,0,0,0,0,0,25,25,25,5,0,5,0,,,,,,,,,,,,,,,,,,,,,,,,,,,,,,,,,,,,,,,,,,,,,,,,,,,,,,,,,,,,,,,,30,,,,,,,,533.5751280999975,533.5751280999975,533.5751280999975,533.5751280999975,533.5751280999975,return,0.908004799974151,10,0,0,0,0.16,-0.08000000000000003,return,0.8279705999884754,-68,4,0.16,-0.08000000000000003,,,,,,,,,,,,,,,,,,,,,,,,,,,,,,,,,,,,,,,,,,,,,,,,,,,,,,,,32DEYU,train_y,red_square,top_left,2025-09-08_16h24.55.642,HideSeek_v1,2022.2.5,59.98969376197217,
,3,9,3,9,0,0,16,,train_dim1_1,27,30,,,,2,0,2,0,,,,,,,,,0,0,0,0,0,26,26,26,0,0,0,0,,,,,,,,,,,,,,,,,,,,,,,,,stimuli/alien_stimuli/16.png,,,,,,,,,,,,,,,,,,,,,,,,,,,,,stimuli/alien_stimuli/13.png,13,4,28,,,,,,,30,,,,,,,,539.1490473999875,539.1490473999875,539.1490473999875,539.1490473999875,539.1490473999875,down,4.488999699940905,10,0,0,99,0.08,0.24,down,4.405443500028923,,,,,537.5893134999787,0.16,0.08,0.24,0.0,0.2,0.16,0.16,0.16,0.08,536.0369198999833,536.0369198999833,536.0369198999833,536.0369198999833,536.0369198999833,536.0369198999833,536.0369198999833,536.0369198999833,536.0372778099845,1.653441800037399,return,1.5260641999775544,539.1490473999875,,,,,,,,,,,,,,,,,,,,,,,,,,,,,,,,,32DEYU,train_y,red_square,top_left,2025-09-08_16h24.55.642,HideSeek_v1,2022.2.5,59.98969376197217,
,3,9,3,9,0,0,16,,train_dim1_1,27,30,,,,2,0,2,0,,,,,,,,,0,0,0,0,0,26,26,26,1,0,1,0,,,,,,,,,,,,,,,,,,,,,,,,,,,,,,,,,,,,,,,,,,,,,,,,,,,,,,,,,,,,,,,,30,,,,,,,,543.6469620000571,543.6469620000571,543.6469620000571,543.6469620000571,543.6469620000571,return,0.8764215999981388,10,1,0,0,0.08,0.24,return,0.7962912999792024,-69,4,0.08,0.24,,,,,,,,,,,,,,,,,,,,,,,,,,,,,,,,,,,,,,,,,,,,,,,,,,,,,,,,32DEYU,train_y,red_square,top_left,2025-09-08_16h24.55.642,HideSeek_v1,2022.2.5,59.98969376197217,
,4,6,4,1,0,-5,11,,train_dim1_1,28,30,,,,2,0,2,0,,,,,,,,,0,0,0,0,0,27,27,27,0,0,0,0,,,,,,,,,,,,,,,,,,,,,,,,,stimuli/alien_stimuli/11.png,,,,,,,,,,,,,,,,,,,,,,,,,,,,,stimuli/alien_stimuli/16.png,16,3,29,,,,,,,30,,,,,,,,549.0557895000093,549.0557895000093,549.0557895000093,549.0557895000093,549.0557895000093,down,1.404794300091453,10,1,0,99,0.16,0.0,down,1.3267526999115944,,,,,547.4975925000617,0.08,0.32,0.0,0.0,0.32,0.08,0.08,0.08,0.32,546.0992082000012,546.0992082000012,546.0992082000012,546.0992082000012,546.0992082000012,546.0992082000012,546.0992082000012,546.0992082000012,546.0958413099288,1.5039490000344813,return,1.3733234000392258,549.0557895000093,,,,,,,,,,,,,,,,,,,,,,,,,,,,,,,,,32DEYU,train_y,red_square,top_left,2025-09-08_16h24.55.642,HideSeek_v1,2022.2.5,59.98969376197217,
,4,6,4,1,0,-5,11,,train_dim1_1,28,30,,,,2,0,2,0,,,,,,,,,0,0,0,0,0,27,27,27,1,0,1,0,,,,,,,,,,,,,,,,,,,,,,,,,,,,,,,,,,,,,,,,,,,,,,,,,,,,,,,,,,,,,,,,30,,,,,,,,550.4716018999461,550.4716018999461,550.4716018999461,550.4716018999461,550.4716018999461,down,0.39001319999806583,10,1,0,99,0.16,-0.08,down,0.30353220005054027,,,,,,,,,,,,,,,,,,,,,,,,,,,,,,,,,,,,,,,,,,,,,,,,,,,,,,,,,,,,32DEYU,train_y,red_square,top_left,2025-09-08_16h24.55.642,HideSeek_v1,2022.2.5,59.98969376197217,
,4,6,4,1,0,-5,11,,train_dim1_1,28,30,,,,2,0,2,0,,,,,,,,,0,0,0,0,0,27,27,27,2,0,2,0,,,,,,,,,,,,,,,,,,,,,,,,,,,,,,,,,,,,,,,,,,,,,,,,,,,,,,,,,,,,,,,,30,,,,,,,,550.8683980000205,550.8683980000205,550.8683980000205,550.8683980000205,550.8683980000205,down,0.4097438999451697,10,1,0,99,0.16,-0.16,down,0.318691199994646,,,,,,,,,,,,,,,,,,,,,,,,,,,,,,,,,,,,,,,,,,,,,,,,,,,,,,,,,,,,32DEYU,train_y,red_square,top_left,2025-09-08_16h24.55.642,HideSeek_v1,2022.2.5,59.98969376197217,
,4,6,4,1,0,-5,11,,train_dim1_1,28,30,,,,2,0,2,0,,,,,,,,,0,0,0,0,0,27,27,27,3,0,3,0,,,,,,,,,,,,,,,,,,,,,,,,,,,,,,,,,,,,,,,,,,,,,,,,,,,,,,,,,,,,,,,,30,,,,,,,,551.28500360006,551.28500360006,551.28500360006,551.28500360006,551.28500360006,return,0.37699059990700334,10,0,0,0,0.16,-0.16,return,0.29045240010600537,-72,4,0.16,-0.16,,,,,,,,,,,,,,,,,,,,,,,,,,,,,,,,,,,,,,,,,,,,,,,,,,,,,,,,32DEYU,train_y,red_square,top_left,2025-09-08_16h24.55.642,HideSeek_v1,2022.2.5,59.98969376197217,
,2,7,2,3,0,-4,12,,train_dim1_1,29,30,,,,2,0,2,0,,,,,,,,,0,0,0,0,0,28,28,28,0,0,0,0,,,,,,,,,,,,,,,,,,,,,,,,,stimuli/alien_stimuli/12.png,,,,,,,,,,,,,,,,,,,,,,,,,,,,,stimuli/alien_stimuli/11.png,11,4,30,,,,,,,30,,,,,,,,555.9979467999656,555.9979467999656,555.9979467999656,555.9979467999656,555.9979467999656,down,1.251681699999608,10,0,0,99,0,0.08,down,1.1729967000428587,,,,,554.4367720000446,0.16,-0.32,0.4,0.0,-0.12,0.16,0.16,0.16,-0.32,553.2205348999705,553.2205348999705,553.2205348999705,553.2205348999705,553.2205348999705,553.2205348999705,553.2205348999705,553.2205348999705,553.2183595100068,1.320098500000313,return,1.1942434000084177,555.9979467999656,,,,,,,,,,,,,,,,,,,,,,,,,,,,,,,,,32DEYU,train_y,red_square,top_left,2025-09-08_16h24.55.642,HideSeek_v1,2022.2.5,59.98969376197217,
,2,7,2,3,0,-4,12,,train_dim1_1,29,30,,,,2,0,2,0,,,,,,,,,0,0,0,0,0,28,28,28,1,0,1,0,,,,,,,,,,,,,,,,,,,,,,,,,,,,,,,,,,,,,,,,,,,,,,,,,,,,,,,,,,,,,,,,30,,,,,,,,557.25731060002,557.25731060002,557.25731060002,557.25731060002,557.25731060002,down,0.5430240000132471,10,0,0,99,0,0.0,down,0.4539596999529749,,,,,,,,,,,,,,,,,,,,,,,,,,,,,,,,,,,,,,,,,,,,,,,,,,,,,,,,,,,,32DEYU,train_y,red_square,top_left,2025-09-08_16h24.55.642,HideSeek_v1,2022.2.5,59.98969376197217,
,2,7,2,3,0,-4,12,,train_dim1_1,29,30,,,,2,0,2,0,,,,,,,,,0,0,0,0,0,28,28,28,2,0,2,0,,,,,,,,,,,,,,,,,,,,,,,,,,,,,,,,,,,,,,,,,,,,,,,,,,,,,,,,,,,,,,,,30,,,,,,,,557.8069078000262,557.8069078000262,557.8069078000262,557.8069078000262,557.8069078000262,down,0.3599448000313714,10,0,0,99,0,-0.08,down,0.27457630005665123,,,,,,,,,,,,,,,,,,,,,,,,,,,,,,,,,,,,,,,,,,,,,,,,,,,,,,,,,,,,32DEYU,train_y,red_square,top_left,2025-09-08_16h24.55.642,HideSeek_v1,2022.2.5,59.98969376197217,
,2,7,2,3,0,-4,12,,train_dim1_1,29,30,,,,2,0,2,0,,,,,,,,,0,0,0,0,0,28,28,28,3,0,3,0,,,,,,,,,,,,,,,,,,,,,,,,,,,,,,,,,,,,,,,,,,,,,,,,,,,,,,,,,,,,,,,,30,,,,,,,,558.1740693999454,558.1740693999454,558.1740693999454,558.1740693999454,558.1740693999454,return,0.7934718000469729,10,1,0,0,0,-0.08,return,0.7058775000041351,-75,4,0,-0.08,,,,,,,,,,,,,,,,,,,,,,,,,,,,,,,,,,,,,,,,,,,,,,,,,,,,,,,,32DEYU,train_y,red_square,top_left,2025-09-08_16h24.55.642,HideSeek_v1,2022.2.5,59.98969376197217,
,0,6,0,5,0,-1,15,,train_dim1_1,30,30,,,,2,0,2,0,,,,,,,,,0,0,0,0,0,29,29,29,0,0,0,0,,,,,,,,,,,,,,,,,,,,,,,,,stimuli/alien_stimuli/15.png,,,,,,,,,,,,,,,,,,,,,,,,,,,,,stimuli/alien_stimuli/12.png,12,2,31,,,,,,,30,,,,,,,,563.400151400012,563.400151400012,563.400151400012,563.400151400012,563.400151400012,down,3.4577983000781387,10,1,0,99,-0.16,0.0,down,3.3727277000434697,,,,,561.8429406000068,0,-0.16,0.32,0.0,0.0,0,0.0,0,-0.16,560.5246514000464,560.5246514000464,560.5246514000464,560.5246514000464,560.5246514000464,560.5246514000464,560.5246514000464,560.5246514000464,560.5244133099332,1.4203413999639452,return,1.2976940999506041,563.400151400012,,,,,,,,,,,,,,,,,,,,,,,,,,,,,,,,,32DEYU,train_y,red_square,top_left,2025-09-08_16h24.55.642,HideSeek_v1,2022.2.5,59.98969376197217,
,0,6,0,5,0,-1,15,,train_dim1_1,30,30,,,,2,0,2,0,,,,,,,,,0,0,0,0,0,29,29,29,1,0,1,0,,,,,,,,,,,,,,,,,,,,,,,,,,,,,,,,,,,,,,,,,,,,,,,,,,,,,,,,,,,,,,,,30,,,,,,,,566.8656223999569,566.8656223999569,566.8656223999569,566.8656223999569,566.8656223999569,return,0.30968980002216995,11,0,0,1,-0.16,0.0,return,0.21970040001906455,-76,4,-0.16,0.0,,,,,,,,,,,,,,,,,,,,,,,,,,,,,,,,,,,,,,,,,,,,,,,,,,,,,,,,32DEYU,train_y,red_square,top_left,2025-09-08_16h24.55.642,HideSeek_v1,2022.2.5,59.98969376197217,
,,,,,,,,,,,30,,,,2,0,2,0,,,,,,,,,,,,,,,,,,,,,,,,,,,,,,,,,,,,,,,,,,,,,,,,,,,,,,,,,,,,,,,,,,,,,,,,,,stimuli/alien_stimuli/15.png,15,0,32,21,0.7,0.45833333333333337,1,1,1,30,0,conditions/schedules/train_y_first/red_square_00/top_left/inputTrain_2.1.xlsx,99,1,2,1,0,,,,,,,,,,,1,,,,,,,,,569.7326675000368,-0.16,0,0.08,0.0,0.04,-0.16,-0.16,-0.16,0,568.7369188000448,568.7369188000448,568.7369188000448,568.7369188000448,568.7369188000448,568.7369188000448,568.7369188000448,568.7369188000448,568.7312875099597,1.1030216000508517,return,0.9737629001028836,571.2898796000518,0,0.9,0,1,11,,,,,,,,,,,,,,,,,,,,,,,,,,,,32DEYU,train_y,red_square,top_left,2025-09-08_16h24.55.642,HideSeek_v1,2022.2.5,59.98969376197217,
,,,,,,,,,,,,,,,3,0,3,0,0,0,0,0,,,,,,,,,,,,,,,,,,,,,,,,,,,,,,,conditions/schedules/train_y_first/red_square_00/top_left/instructions/Slide17.png,conditions/schedules/train_y_first/red_square_00/top_left/instructions/Audio17.wav,571.2898796000518,571.2838179200189,17,"[2.6538260000525042, 17.396916799945757, 16.224772500107065, 20.0400867999997, 4.020628900034353, 5.4202477999497205, 5.315404699998908, 11.30614240001887, 5.62729129998479, 6.501346800010651, 9.802279699943028, 13.55279420001898, 17.743034600047395, 19.469260400044732, 42.9615000000922, 21.553506499971263, 57.122402300010435]","[0.013718999922275543, 0.014079800108447671, 0.0002207999350503087, 0.034006400033831596, 0.04901019996032119, 0.014449900016188622, 5.315411300049163, 0.03546359995380044, 0.11238290008623153, 0.06172070000320673, 0.014065499999560416, 13.552800899953581, 0.014065299998037517, 19.469267600099556, 42.96152160002384, 21.553513400023803, 57.12240989995189]",0,,,,,,,,,,,,,,,,,,,,,,,,,,,,,,,,,,,,,,,,,,,,,,,,,,,,,,,,,,,,,,,,,,,,,,,,,,,,,,,,,,,,,,,,,,,,,,,,,,,,,,,,,,,,,,,,,,,,,,,,,,,,32DEYU,train_y,red_square,top_left,2025-09-08_16h24.55.642,HideSeek_v1,2022.2.5,59.98969376197217,
,,,,,,,,,,,,,,,3,0,3,0,1,0,1,0,,,,,,,,,,,,,,,,,,,,,,,,,,,,,,,conditions/schedules/train_y_first/red_square_00/top_left/instructions/Slide18.png,conditions/schedules/train_y_first/red_square_00/top_left/instructions/Audio18.wav,628.4814481999492,628.4810169499251,18,"[2.6538260000525042, 17.396916799945757, 16.224772500107065, 20.0400867999997, 4.020628900034353, 5.4202477999497205, 5.315404699998908, 11.30614240001887, 5.62729129998479, 6.501346800010651, 9.802279699943028, 13.55279420001898, 17.743034600047395, 19.469260400044732, 42.9615000000922, 21.553506499971263, 57.122402300010435, 5.602502999943681]","[0.013718999922275543, 0.014079800108447671, 0.0002207999350503087, 0.034006400033831596, 0.04901019996032119, 0.014449900016188622, 5.315411300049163, 0.03546359995380044, 0.11238290008623153, 0.06172070000320673, 0.014065499999560416, 13.552800899953581, 0.014065299998037517, 19.469267600099556, 42.96152160002384, 21.553513400023803, 0.00022839999292045832, 5.602510900003836]",0,,,,,,,,,,,,,,,,,,,,,,,,,,,,,,,,,,,,,,,,,,,,,,,,,,,,,,,,,,,,,,,,,,,,,,,,,,,,,,,,,,,,,,,,,,,,,,,,,,,,,,,,,,,,,,,,,,,,,,,,,,,,32DEYU,train_y,red_square,top_left,2025-09-08_16h24.55.642,HideSeek_v1,2022.2.5,59.98969376197217,
,,,,,,,,,,,,,,,3,0,3,0,2,0,2,0,,,,,,,,,,,,,,,,,,,,,,,,,,,,,,,conditions/schedules/train_y_first/red_square_00/top_left/instructions/Slide19.png,conditions/schedules/train_y_first/red_square_00/top_left/instructions/Audio19.wav,634.1369498999557,634.1360246200347,19,"[2.6538260000525042, 17.396916799945757, 16.224772500107065, 20.0400867999997, 4.020628900034353, 5.4202477999497205, 5.315404699998908, 11.30614240001887, 5.62729129998479, 6.501346800010651, 9.802279699943028, 13.55279420001898, 17.743034600047395, 19.469260400044732, 42.9615000000922, 21.553506499971263, 57.122402300010435, 5.602502999943681, 9.487847700016573]","[0.013718999922275543, 0.014079800108447671, 0.0002207999350503087, 0.034006400033831596, 0.04901019996032119, 0.014449900016188622, 5.315411300049163, 0.03546359995380044, 0.11238290008623153, 0.06172070000320673, 0.014065499999560416, 13.552800899953581, 0.014065299998037517, 19.469267600099556, 42.96152160002384, 21.553513400023803, 0.00022839999292045832, 0.013788199983537197, 9.487854300066829]",0,,,,,,,,,,,,,,,,,,,,,,,,,,,,,,,,,,,,,,,,,,,,,,,,,,,,,,,,,,,,,,,,,,,,,,,,,,,,,,,,,,,,,,,,,,,,,,,,,,,,,,,,,,,,,,,,,,,,,,,,,,,,32DEYU,train_y,red_square,top_left,2025-09-08_16h24.55.642,HideSeek_v1,2022.2.5,59.98969376197217,
,,,,,,,,,,,,,,,3,0,3,0,3,0,3,0,,,,,,,,,,,,,,,,,,,,,,,,,,,,,,,conditions/schedules/train_y_first/red_square_00/top_left/instructions/Slide20.png,conditions/schedules/train_y_first/red_square_00/top_left/instructions/Audio20.wav,643.6790389999514,643.6773232199484,20,"[2.6538260000525042, 17.396916799945757, 16.224772500107065, 20.0400867999997, 4.020628900034353, 5.4202477999497205, 5.315404699998908, 11.30614240001887, 5.62729129998479, 6.501346800010651, 9.802279699943028, 13.55279420001898, 17.743034600047395, 19.469260400044732, 42.9615000000922, 21.553506499971263, 57.122402300010435, 5.602502999943681, 9.487847700016573, 12.42287170002237]","[0.013718999922275543, 0.014079800108447671, 0.0002207999350503087, 0.034006400033831596, 0.04901019996032119, 0.014449900016188622, 5.315411300049163, 0.03546359995380044, 0.11238290008623153, 0.06172070000320673, 0.014065499999560416, 13.552800899953581, 0.014065299998037517, 19.469267600099556, 42.96152160002384, 21.553513400023803, 0.00022839999292045832, 0.013788199983537197, 0.013714200002141297, 12.42287829995621]",0,,,,,,,,,,,,,,,,,,,,,,,,,,,,,,,,,,,,,,,,,,,,,,,,,,,,,,,,,,,,,,,,,,,,,,,,,,,,,,,,,,,,,,,,,,,,,,,,,,,,,,,,,,,,,,,,,,,,,,,,,,,,32DEYU,train_y,red_square,top_left,2025-09-08_16h24.55.642,HideSeek_v1,2022.2.5,59.98969376197217,
1,3,7,8,7,5,0,66,2,instr_dim1_2,,,,,,3,0,3,0,,,,,0,0,0,0,,,,,,,,,,,,,,,,,,,,,,,,,,,,,,,,,,,,,stimuli/alien_stimuli/66.png,conditions/schedules/train_y_first/red_square_00/top_left/inputInstr_2.xlsx,stimuli/alien_stimuli/66.png,656.2059993000003,656.2059993000003,656.2059993000003,656.2059993000003,656.2040680099162,return,5.920067699975334,"[-0.16, -0.08, 0, 0.08, 0.16, 0.24, 0.32, 0.4, 0.48, 0.56]","[-0.4, -0.32, -0.24, -0.16, -0.08, 0, 0.08, 0.16, 0.24, 0.32]",7,7,8,3,0.0,0.4,662.2624373000581,662.2624373000581,662.2624373000581,662.2624373000581,662.2624373000581,662.2624373000581,662.2624373000581,662.2427044099313,5.738278400036506,return,5.597890599980019,stimuli/alien_stimuli/66.png,66,3,1,,,,,,,,,,,,,,,,,,,,,,,,,,,,,,,,,,,,,,,,,,,,,,,,,,,,,,,,,,,,,,,,,,,,,,,,,,,,,,,,,,,,,,,,,32DEYU,train_y,red_square,top_left,2025-09-08_16h24.55.642,HideSeek_v1,2022.2.5,59.98969376197217,
,,,,,,,,,,,30,,,,3,0,3,0,,,,,,,,,,,,,,,,,,,,,,,,,,,,,,,,,,,,,,,,,,,,,,,,,,,,,,,,,,,,,,,,,,,,,,,,,,,,,,21,0.7,0.45833333333333337,1,99,2,30,0,conditions/schedules/train_y_first/red_square_00/top_left/inputTrain_2.1.xlsx,99,1,2,1,0,,,,,,,,,,,,,,,,,,,,,,,,,,,,,,,,,,,,,,,,,,,,,,,,,,,,,,,,,,,,,,,,,,,,,,,,,,,32DEYU,train_y,red_square,top_left,2025-09-08_16h24.55.642,HideSeek_v1,2022.2.5,59.98969376197217,
,,,,,,,,,,,,,,,4,0,4,0,0,0,0,0,,,,,,,,,,,,,,,,,,,,,,,,,,,,,,,conditions/schedules/train_y_first/red_square_00/top_left/instructions/Slide21.png,conditions/schedules/train_y_first/red_square_00/top_left/instructions/Audio21.wav,668.0455099999672,668.0468030298944,21,"[2.6538260000525042, 17.396916799945757, 16.224772500107065, 20.0400867999997, 4.020628900034353, 5.4202477999497205, 5.315404699998908, 11.30614240001887, 5.62729129998479, 6.501346800010651, 9.802279699943028, 13.55279420001898, 17.743034600047395, 19.469260400044732, 42.9615000000922, 21.553506499971263, 57.122402300010435, 5.602502999943681, 9.487847700016573, 12.42287170002237, 2.318103199941106]","[0.013718999922275543, 0.014079800108447671, 0.0002207999350503087, 0.034006400033831596, 0.04901019996032119, 0.014449900016188622, 5.315411300049163, 0.03546359995380044, 0.11238290008623153, 0.06172070000320673, 0.014065499999560416, 13.552800899953581, 0.014065299998037517, 19.469267600099556, 42.96152160002384, 21.553513400023803, 0.00022839999292045832, 0.013788199983537197, 0.013714200002141297, 12.42287829995621, 2.3181103999959305]",0,,,,,,,,,,,,,,,,,,,,,,,,,,,,,,,,,,,,,,,,,,,,,,,,,,,,,,,,,,,,,,,,,,,,,,,,,,,,,,,,,,,,,,,,,,,,,,,,,,,,,,,,,,,,,,,,,,,,,,,,,,,,32DEYU,train_y,red_square,top_left,2025-09-08_16h24.55.642,HideSeek_v1,2022.2.5,59.98969376197217,
2,4,5,4,5,0,0,16,2,instr_dim1_2,,,,,,4,0,4,0,,,,,0,0,0,0,,,,,,,,,,,,,,,,,,,,,,,,,,,,,,,,,,,,,stimuli/alien_stimuli/16.png,conditions/schedules/train_y_first/red_square_00/top_left/inputInstr_2.xlsx,stimuli/alien_stimuli/16.png,670.455073100049,670.455073100049,670.455073100049,670.455073100049,670.4492146800039,return,1.9049411000451073,"[-0.16, -0.08, 0, 0.08, 0.16, 0.24, 0.32, 0.4, 0.48, 0.56]","[-0.4, -0.32, -0.24, -0.16, -0.08, 0, 0.08, 0.16, 0.24, 0.32]",5,5,4,4,0.0,0.0,672.5332405000227,672.5332405000227,672.5332405000227,672.5332405000227,672.5332405000227,672.5332405000227,672.5332405000227,672.5171251699212,5.271793699939735,return,5.096445000031963,stimuli/alien_stimuli/16.png,16,4,2,,,,,,,,,,,,,,,,,,,,,,,,,,,,,,,,,,,,,,,,,,,,,,,,,,,,,,,,,,,,,,,,,,,,,,,,,,,,,,,,,,,,,,,,,32DEYU,train_y,red_square,top_left,2025-09-08_16h24.55.642,HideSeek_v1,2022.2.5,59.98969376197217,
