trialInstr,x_fixStart,y_fixStart,x_corrSteps,y_corrSteps,x_nrSteps,y_nrSteps,alienID,trialLength,version,trialTrain,praclen,testlen,trial_label,break_on_off,beforeExpLoop.thisRepN,beforeExpLoop.thisTrialN,beforeExpLoop.thisN,beforeExpLoop.thisIndex,mini_instr_trials.thisRepN,mini_instr_trials.thisTrialN,mini_instr_trials.thisN,mini_instr_trials.thisIndex,instrLoop.thisRepN,instrLoop.thisTrialN,instrLoop.thisN,instrLoop.thisIndex,repeat_prac.thisRepN,repeat_prac.thisTrialN,repeat_prac.thisN,repeat_prac.thisIndex,trainLoop.thisRepN,trainLoop.thisTrialN,trainLoop.thisN,trainLoop.thisIndex,moveLoop_train.thisRepN,moveLoop_train.thisTrialN,moveLoop_train.thisN,moveLoop_train.thisIndex,experiment.thisRepN,experiment.thisTrialN,experiment.thisN,experiment.thisIndex,moveLoop_test.thisRepN,moveLoop_test.thisTrialN,moveLoop_test.thisN,moveLoop_test.thisIndex,mini_instr2_trials.thisRepN,mini_instr2_trials.thisTrialN,mini_instr2_trials.thisN,mini_instr2_trials.thisIndex,start_all_time,url,slideStim,audioStim,slides.started,sounds.started,nextButton.numClicks,nextButton.timesOn,nextButton.timesOff,prev_but.numClicks,prev_but.timesOn,prev_but.timesOff,alienStim,instrFile,alienStim_instr,gridImage_instr.started,startPos_3.started,key_instr.started,alienImage_3.started,sounds_1.started,key_instr.keys,key_instr.rt,all_x,all_y,FBy_corrSteps,FBy_fixStart,FBx_corrSteps,FBx_fixStart,FBy_pathSize_check,FBx_pathSize_check,gridImage_9.started,alienImageFB_3.started,startPosFB_3.started,keyFB_3.started,pathLine_ydir_2.started,pathLine_xdir_2.started,alienFace_3.started,sounds_2.started,RTFB_instr,keyFB_3.keys,keyFB_3.rt,draw_alienStim,draw_alienID,test_x,nrepcount,perfthres,percthres,earlierperf,earlystop,nextPrac,fileidx,praclen,saveACC_train,pracFile,nextPrac_train,addNrep,fileidx_endr,repExp,showearly,gridImage_4.started,startPos.started,movePos.started,key_resp.started,alienImage.started,buttonPress_train,RTchoice_train,cumAcctrain,aCorr,saveACC_choice,corrAns,x_movePos_end,y_movePos_end,key_resp.keys,key_resp.rt,wLy_dir,wLx_dir,x_movePos,y_movePos,text_2.started,text_2.stopped,aft_x_corrPos,aft_y_corrPos,y_pathSize_check,x_pathSize_check,y_pathdirY,x_pathdirY,x_pathdirX,x_corrPos,y_corrPos,gridImage_6.started,alienImageFB_2.started,startPosFB_2.started,movePosFB_2.started,keyFB_2.started,pathLine_xdir.started,pathLine_ydir.started,alienFace.started,sounds_4.started,RT_FBtrain,keyFB_2.keys,keyFB_2.rt,saveACC_pre,ACC,within_saveACC_train,earlystop_wloop,cumAcctrain_check,gridImage_3.started,alienImage_test.started,startPos_test.started,movePos_test.started,key_resp_test.started,wLy_dir_test,wLx_dir_test,buttonPress_test,RTchoice_test,cumAcctest,corrAns_test,key_resp_test.keys,key_resp_test.rt,text_3.started,text_3.stopped,total_time,end_all_time,key_resp_3.keys,slides_2.started,sounds_3.started,participant,train_first,00_coordinate,starting corner,date,expName,psychopyVersion,frameRate,
,,,,,,,,,,,,,,,0,0,0,0,0,0,0,0,,,,,,,,,,,,,,,,,,,,,,,,,,,,,start_all_time,testround,conditions/schedules/train_y_first/blue_star_00/bottom_left/instructions/Slide1.png,conditions/schedules/train_y_first/blue_star_00/bottom_left/instructions/Audio1.wav,3231.5730904997326,3231.5184356741606,1,[7.113794500008225],[7.113802299834788],0,,,,,,,,,,,,,,,,,,,,,,,,,,,,,,,,,,,,,,,,,,,,,,,,,,,,,,,,,,,,,,,,,,,,,,,,,,,,,,,,,,,,,,,,,,,,,,,,,,,,,,,,,,,,,,,,,,,,,3552GW,train_y,blue_star,bottom_left,2025-02-19_16h00.41.353,HideSeek_v1,2022.2.5,59.915794273504154,
,,,,,,,,,,,,,,,0,0,0,0,1,0,1,0,,,,,,,,,,,,,,,,,,,,,,,,,,,,,,,conditions/schedules/train_y_first/blue_star_00/bottom_left/instructions/Slide2.png,conditions/schedules/train_y_first/blue_star_00/bottom_left/instructions/Audio2.wav,3238.7064070999622,3238.707144999644,2,"[7.113794500008225, 19.09855809994042]","[0.00020170025527477264, 19.09856460010633]",0,,,,,,,,,,,,,,,,,,,,,,,,,,,,,,,,,,,,,,,,,,,,,,,,,,,,,,,,,,,,,,,,,,,,,,,,,,,,,,,,,,,,,,,,,,,,,,,,,,,,,,,,,,,,,,,,,,,,,3552GW,train_y,blue_star,bottom_left,2025-02-19_16h00.41.353,HideSeek_v1,2022.2.5,59.915794273504154,
,,,,,,,,,,,,,,,0,0,0,0,2,0,2,0,,,,,,,,,,,,,,,,,,,,,,,,,,,,,,,conditions/schedules/train_y_first/blue_star_00/bottom_left/instructions/Slide3.png,conditions/schedules/train_y_first/blue_star_00/bottom_left/instructions/Audio3.wav,3257.8885029996745,3257.8900538597254,3,"[7.113794500008225, 19.09855809994042, 17.146807100158185]","[0.00020170025527477264, 19.09856460010633, 17.14681399986148]",0,,,,,,,,,,,,,,,,,,,,,,,,,,,,,,,,,,,,,,,,,,,,,,,,,,,,,,,,,,,,,,,,,,,,,,,,,,,,,,,,,,,,,,,,,,,,,,,,,,,,,,,,,,,,,,,,,,,,,3552GW,train_y,blue_star,bottom_left,2025-02-19_16h00.41.353,HideSeek_v1,2022.2.5,59.915794273504154,
,,,,,,,,,,,,,,,0,0,0,0,3,0,3,0,,,,,,,,,,,,,,,,,,,,,,,,,,,,,,,conditions/schedules/train_y_first/blue_star_00/bottom_left/instructions/Slide4.png,conditions/schedules/train_y_first/blue_star_00/bottom_left/instructions/Audio4.wav,3275.110506199766,3275.10412309994,4,"[7.113794500008225, 19.09855809994042, 17.146807100158185, 20.157833500299603]","[0.00020170025527477264, 19.09856460010633, 0.014358100015670061, 20.15783980023116]",0,,,,,,,,,,,,,,,,,,,,,,,,,,,,,,,,,,,,,,,,,,,,,,,,,,,,,,,,,,,,,,,,,,,,,,,,,,,,,,,,,,,,,,,,,,,,,,,,,,,,,,,,,,,,,,,,,,,,,3552GW,train_y,blue_star,bottom_left,2025-02-19_16h00.41.353,HideSeek_v1,2022.2.5,59.915794273504154,
,,,,,,,,,,,,,,,0,0,0,0,4,0,4,0,,,,,,,,,,,,,,,,,,,,,,,,,,,,,,,conditions/schedules/train_y_first/blue_star_00/bottom_left/instructions/Slide5.png,conditions/schedules/train_y_first/blue_star_00/bottom_left/instructions/Audio5.wav,3295.3326709000394,3295.3207149395716,5,"[7.113794500008225, 19.09855809994042, 17.146807100158185, 20.157833500299603, 4.405686600133777]","[0.00020170025527477264, 19.09856460010633, 0.014358100015670061, 0.03527260012924671, 4.405693100299686]",0,,,,,,,,,,,,,,,,,,,,,,,,,,,,,,,,,,,,,,,,,,,,,,,,,,,,,,,,,,,,,,,,,,,,,,,,,,,,,,,,,,,,,,,,,,,,,,,,,,,,,,,,,,,,,,,,,,,,,3552GW,train_y,blue_star,bottom_left,2025-02-19_16h00.41.353,HideSeek_v1,2022.2.5,59.915794273504154,
,,,,,,,,,,,,,,,0,0,0,0,5,0,5,0,,,,,,,,,,,,,,,,,,,,,,,,,,,,,,,conditions/schedules/train_y_first/blue_star_00/bottom_left/instructions/Slide6.png,conditions/schedules/train_y_first/blue_star_00/bottom_left/instructions/Audio6.wav,3299.7906029997393,3299.791377639584,6,"[7.113794500008225, 19.09855809994042, 17.146807100158185, 20.157833500299603, 4.405686600133777, 5.285353499930352]","[0.00020170025527477264, 19.09856460010633, 0.014358100015670061, 0.03527260012924671, 0.047988600097596645, 5.2853600000962615]",0,,,,,,,,,,,,,,,,,,,,,,,,,,,,,,,,,,,,,,,,,,,,,,,,,,,,,,,,,,,,,,,,,,,,,,,,,,,,,,,,,,,,,,,,,,,,,,,,,,,,,,,,,,,,,,,,,,,,,3552GW,train_y,blue_star,bottom_left,2025-02-19_16h00.41.353,HideSeek_v1,2022.2.5,59.915794273504154,
,,,,,,,,,,,,,,,0,0,0,0,6,0,6,0,,,,,,,,,,,,,,,,,,,,,,,,,,,,,,,conditions/schedules/train_y_first/blue_star_00/bottom_left/instructions/Slide7.png,conditions/schedules/train_y_first/blue_star_00/bottom_left/instructions/Audio7.wav,3305.141116499901,3305.1287826399316,7,"[7.113794500008225, 19.09855809994042, 17.146807100158185, 20.157833500299603, 4.405686600133777, 5.285353499930352, 5.606864599976689]","[0.00020170025527477264, 19.09856460010633, 0.014358100015670061, 0.03527260012924671, 0.047988600097596645, 0.03581119980663061, 5.60687099955976]",0,,,,,,,,,,,,,,,,,,,,,,,,,,,,,,,,,,,,,,,,,,,,,,,,,,,,,,,,,,,,,,,,,,,,,,,,,,,,,,,,,,,,,,,,,,,,,,,,,,,,,,,,,,,,,,,,,,,,,3552GW,train_y,blue_star,bottom_left,2025-02-19_16h00.41.353,HideSeek_v1,2022.2.5,59.915794273504154,
,,,,,,,,,,,,,,,0,0,0,0,7,0,7,0,,,,,,,,,,,,,,,,,,,,,,,,,,,,,,,conditions/schedules/train_y_first/blue_star_00/bottom_left/instructions/Slide8.png,conditions/schedules/train_y_first/blue_star_00/bottom_left/instructions/Audio8.wav,3310.8000801000744,3310.8003597396423,8,"[7.113794500008225, 19.09855809994042, 17.146807100158185, 20.157833500299603, 4.405686600133777, 5.285353499930352, 5.606864599976689, 11.674257500097156]","[0.00020170025527477264, 19.09856460010633, 0.014358100015670061, 0.03527260012924671, 0.047988600097596645, 0.03581119980663061, 0.08123400015756488, 11.674264600034803]",0,,,,,,,,,,,,,,,,,,,,,,,,,,,,,,,,,,,,,,,,,,,,,,,,,,,,,,,,,,,,,,,,,,,,,,,,,,,,,,,,,,,,,,,,,,,,,,,,,,,,,,,,,,,,,,,,,,,,,3552GW,train_y,blue_star,bottom_left,2025-02-19_16h00.41.353,HideSeek_v1,2022.2.5,59.915794273504154,
,,,,,,,,,,,,,,,0,0,0,0,8,0,8,0,,,,,,,,,,,,,,,,,,,,,,,,,,,,,,,conditions/schedules/train_y_first/blue_star_00/bottom_left/instructions/Slide9.png,conditions/schedules/train_y_first/blue_star_00/bottom_left/instructions/Audio9.wav,3322.5384542997926,3322.5267567398955,9,"[7.113794500008225, 19.09855809994042, 17.146807100158185, 20.157833500299603, 4.405686600133777, 5.285353499930352, 5.606864599976689, 11.674257500097156, 5.857324100099504]","[0.00020170025527477264, 19.09856460010633, 0.014358100015670061, 0.03527260012924671, 0.047988600097596645, 0.03581119980663061, 0.08123400015756488, 0.052296100184321404, 5.857330800034106]",0,,,,,,,,,,,,,,,,,,,,,,,,,,,,,,,,,,,,,,,,,,,,,,,,,,,,,,,,,,,,,,,,,,,,,,,,,,,,,,,,,,,,,,,,,,,,,,,,,,,,,,,,,,,,,,,,,,,,,3552GW,train_y,blue_star,bottom_left,2025-02-19_16h00.41.353,HideSeek_v1,2022.2.5,59.915794273504154,
,,,,,,,,,,,,,,,0,0,0,0,9,0,9,0,,,,,,,,,,,,,,,,,,,,,,,,,,,,,,,conditions/schedules/train_y_first/blue_star_00/bottom_left/instructions/Slide10.png,conditions/schedules/train_y_first/blue_star_00/bottom_left/instructions/Audio10.wav,3328.4340375997126,3328.4315565797965,10,"[7.113794500008225, 19.09855809994042, 17.146807100158185, 20.157833500299603, 4.405686600133777, 5.285353499930352, 5.606864599976689, 11.674257500097156, 5.857324100099504, 7.150740399956703]","[0.00020170025527477264, 19.09856460010633, 0.014358100015670061, 0.03527260012924671, 0.047988600097596645, 0.03581119980663061, 0.08123400015756488, 0.052296100184321404, 0.09492369974032044, 7.150747399777174]",0,,,,,,,,,,,,,,,,,,,,,,,,,,,,,,,,,,,,,,,,,,,,,,,,,,,,,,,,,,,,,,,,,,,,,,,,,,,,,,,,,,,,,,,,,,,,,,,,,,,,,,,,,,,,,,,,,,,,,3552GW,train_y,blue_star,bottom_left,2025-02-19_16h00.41.353,HideSeek_v1,2022.2.5,59.915794273504154,
,,,,,,,,,,,,,,,0,0,0,0,10,0,10,0,,,,,,,,,,,,,,,,,,,,,,,,,,,,,,,conditions/schedules/train_y_first/blue_star_00/bottom_left/instructions/Slide11.png,conditions/schedules/train_y_first/blue_star_00/bottom_left/instructions/Audio11.wav,3335.624375499785,3335.6209646800066,11,"[7.113794500008225, 19.09855809994042, 17.146807100158185, 20.157833500299603, 4.405686600133777, 5.285353499930352, 5.606864599976689, 11.674257500097156, 5.857324100099504, 7.150740399956703, 10.25264640012756]","[0.00020170025527477264, 19.09856460010633, 0.014358100015670061, 0.03527260012924671, 0.047988600097596645, 0.03581119980663061, 0.08123400015756488, 0.052296100184321404, 0.09492369974032044, 0.04749630019068718, 10.25265290029347]",0,,,,,,,,,,,,,,,,,,,,,,,,,,,,,,,,,,,,,,,,,,,,,,,,,,,,,,,,,,,,,,,,,,,,,,,,,,,,,,,,,,,,,,,,,,,,,,,,,,,,,,,,,,,,,,,,,,,,,3552GW,train_y,blue_star,bottom_left,2025-02-19_16h00.41.353,HideSeek_v1,2022.2.5,59.915794273504154,
,,,,,,,,,,,,,,,0,0,0,0,11,0,11,0,,,,,,,,,,,,,,,,,,,,,,,,,,,,,,,conditions/schedules/train_y_first/blue_star_00/bottom_left/instructions/Slide12.png,conditions/schedules/train_y_first/blue_star_00/bottom_left/instructions/Audio12.wav,3345.9476312999614,3345.9462492999155,12,"[7.113794500008225, 19.09855809994042, 17.146807100158185, 20.157833500299603, 4.405686600133777, 5.285353499930352, 5.606864599976689, 11.674257500097156, 5.857324100099504, 7.150740399956703, 10.25264640012756, 14.057847400195897]","[0.00020170025527477264, 19.09856460010633, 0.014358100015670061, 0.03527260012924671, 0.047988600097596645, 0.03581119980663061, 0.08123400015756488, 0.052296100184321404, 0.09492369974032044, 0.04749630019068718, 0.0002305000089108944, 14.057855200022459]",0,,,,,,,,,,,,,,,,,,,,,,,,,,,,,,,,,,,,,,,,,,,,,,,,,,,,,,,,,,,,,,,,,,,,,,,,,,,,,,,,,,,,,,,,,,,,,,,,,,,,,,,,,,,,,,,,,,,,,3552GW,train_y,blue_star,bottom_left,2025-02-19_16h00.41.353,HideSeek_v1,2022.2.5,59.915794273504154,
1,0,3,0,8,0,5,66,2,instr_dim1_1,,,,,,0,0,0,0,,,,,0,0,0,0,,,,,,,,,,,,,,,,,,,,,,,,,,,,,,,,,,,,,stimuli/alien_stimuli/66.png,conditions/schedules/train_y_first/blue_star_00/bottom_left/inputInstr_1.xlsx,stimuli/alien_stimuli/66.png,3360.1020224997774,3360.1020224997774,3360.1020224997774,3360.1020224997774,3360.091146359965,return,10.918712300248444,"[-0.16, -0.08, 0, 0.08, 0.16, 0.24, 0.32, 0.4, 0.48, 0.56]","[-0.4, -0.32, -0.24, -0.16, -0.08, 0, 0.08, 0.16, 0.24, 0.32]",8,3,0,0,0.4,0.0,3371.189423599746,3371.189423599746,3371.189423599746,3371.189423599746,3371.189423599746,3371.189423599746,3371.189423599746,3371.1837791394905,8.991752999834716,return,8.83453580038622,stimuli/alien_stimuli/66.png,66,0,1,,,,,,,,,,,,,,,,,,,,,,,,,,,,,,,,,,,,,,,,,,,,,,,,,,,,,,,,,,,,,,,,,,,,,,,,,,,,,,,,,,3552GW,train_y,blue_star,bottom_left,2025-02-19_16h00.41.353,HideSeek_v1,2022.2.5,59.915794273504154,
,,,,,,,,,,,30,,,,0,0,0,0,,,,,,,,,,,,,,,,,,,,,,,,,,,,,,,,,,,,,,,,,,,,,,,,,,,,,,,,,,,,,,,,,,,,,,,,,,,,,,21,0.7,0,0,99,1,30,0,conditions/schedules/train_y_first/blue_star_00/bottom_left/inputTrain_1.1.xlsx,99,1,1,1,0,,,,,,,,,,,,,,,,,,,,,,,,,,,,,,,,,,,,,,,,,,,,,,,,,,,,,,,,,,,,,,,,,,,,3552GW,train_y,blue_star,bottom_left,2025-02-19_16h00.41.353,HideSeek_v1,2022.2.5,59.915794273504154,
,,,,,,,,,,,,,,,1,0,1,0,0,0,0,0,,,,,,,,,,,,,,,,,,,,,,,,,,,,,,,conditions/schedules/train_y_first/blue_star_00/bottom_left/instructions/Slide13.png,conditions/schedules/train_y_first/blue_star_00/bottom_left/instructions/Audio13.wav,3380.1698920000345,3380.157686779648,13,"[7.113794500008225, 19.09855809994042, 17.146807100158185, 20.157833500299603, 4.405686600133777, 5.285353499930352, 5.606864599976689, 11.674257500097156, 5.857324100099504, 7.150740399956703, 10.25264640012756, 14.057847400195897, 17.699910799972713]","[0.00020170025527477264, 19.09856460010633, 0.014358100015670061, 0.03527260012924671, 0.047988600097596645, 0.03581119980663061, 0.08123400015756488, 0.052296100184321404, 0.09492369974032044, 0.04749630019068718, 0.0002305000089108944, 14.057855200022459, 17.699918600264937]",0,,,,,,,,,,,,,,,,,,,,,,,,,,,,,,,,,,,,,,,,,,,,,,,,,,,,,,,,,,,,,,,,,,,,,,,,,,,,,,,,,,,,,,,,,,,,,,,,,,,,,,,,,,,,,,,,,,,,,3552GW,train_y,blue_star,bottom_left,2025-02-19_16h00.41.353,HideSeek_v1,2022.2.5,59.915794273504154,
,,,,,,,,,,,,,,,1,0,1,0,1,0,1,0,,,,,,,,,,,,,,,,,,,,,,,,,,,,,,,conditions/schedules/train_y_first/blue_star_00/bottom_left/instructions/Slide14.png,conditions/schedules/train_y_first/blue_star_00/bottom_left/instructions/Audio14.wav,3397.9421549998224,3397.9390377996024,14,"[7.113794500008225, 19.09855809994042, 17.146807100158185, 20.157833500299603, 4.405686600133777, 5.285353499930352, 5.606864599976689, 11.674257500097156, 5.857324100099504, 7.150740399956703, 10.25264640012756, 14.057847400195897, 17.699910799972713, 17.25863890023902]","[0.00020170025527477264, 19.09856460010633, 0.014358100015670061, 0.03527260012924671, 0.047988600097596645, 0.03581119980663061, 0.08123400015756488, 0.052296100184321404, 0.09492369974032044, 0.04749630019068718, 0.0002305000089108944, 14.057855200022459, 0.04622570006176829, 17.25864650029689]",0,,,,,,,,,,,,,,,,,,,,,,,,,,,,,,,,,,,,,,,,,,,,,,,,,,,,,,,,,,,,,,,,,,,,,,,,,,,,,,,,,,,,,,,,,,,,,,,,,,,,,,,,,,,,,,,,,,,,,3552GW,train_y,blue_star,bottom_left,2025-02-19_16h00.41.353,HideSeek_v1,2022.2.5,59.915794273504154,
2,2,3,2,3,0,0,61,2,instr_dim1_1,,,,,,1,0,1,0,,,,,0,0,0,0,,,,,,,,,,,,,,,,,,,,,,,,,,,,,,,,,,,,,stimuli/alien_stimuli/61.png,conditions/schedules/train_y_first/blue_star_00/bottom_left/inputInstr_1.xlsx,stimuli/alien_stimuli/61.png,3415.294069599826,3415.294069599826,3415.294069599826,3415.294069599826,3415.287086959742,return,6.447385400533676,"[-0.16, -0.08, 0, 0.08, 0.16, 0.24, 0.32, 0.4, 0.48, 0.56]","[-0.4, -0.32, -0.24, -0.16, -0.08, 0, 0.08, 0.16, 0.24, 0.32]",3,3,2,2,0.0,0.0,3421.8805435998365,3421.8805435998365,3421.8805435998365,3421.8805435998365,3421.8805435998365,3421.8805435998365,3421.8805435998365,3421.875837679859,8.374390299897641,return,8.224586200434715,stimuli/alien_stimuli/61.png,61,2,2,,,,,,,,,,,,,,,,,,,,,,,,,,,,,,,,,,,,,,,,,,,,,,,,,,,,,,,,,,,,,,,,,,,,,,,,,,,,,,,,,,3552GW,train_y,blue_star,bottom_left,2025-02-19_16h00.41.353,HideSeek_v1,2022.2.5,59.915794273504154,
,,,,,,,,,,,30,,,,1,0,1,0,,,,,,,,,,,,,,,,,,,,,,,,,,,,,,,,,,,,,,,,,,,,,,,,,,,,,,,,,,,,,,,,,,,,,,,,,,,,,,21,0.7,0,0,99,1,30,0,conditions/schedules/train_y_first/blue_star_00/bottom_left/inputTrain_1.1.xlsx,99,1,1,1,0,,,,,,,,,,,,,,,,,,,,,,,,,,,,,,,,,,,,,,,,,,,,,,,,,,,,,,,,,,,,,,,,,,,,3552GW,train_y,blue_star,bottom_left,2025-02-19_16h00.41.353,HideSeek_v1,2022.2.5,59.915794273504154,
,,,,,,,,,,,,,,,2,0,2,0,0,0,0,0,,,,,,,,,,,,,,,,,,,,,,,,,,,,,,,conditions/schedules/train_y_first/blue_star_00/bottom_left/instructions/Slide15.png,conditions/schedules/train_y_first/blue_star_00/bottom_left/instructions/Audio15.wav,3430.2920094998553,3430.282759699505,15,"[7.113794500008225, 19.09855809994042, 17.146807100158185, 20.157833500299603, 4.405686600133777, 5.285353499930352, 5.606864599976689, 11.674257500097156, 5.857324100099504, 7.150740399956703, 10.25264640012756, 14.057847400195897, 17.699910799972713, 17.25863890023902, 43.190420099999756]","[0.00020170025527477264, 19.09856460010633, 0.014358100015670061, 0.03527260012924671, 0.047988600097596645, 0.03581119980663061, 0.08123400015756488, 0.052296100184321404, 0.09492369974032044, 0.04749630019068718, 0.0002305000089108944, 14.057855200022459, 0.04622570006176829, 17.25864650029689, 43.1904271999374]",0,,,,,,,,,,,,,,,,,,,,,,,,,,,,,,,,,,,,,,,,,,,,,,,,,,,,,,,,,,,,,,,,,,,,,,,,,,,,,,,,,,,,,,,,,,,,,,,,,,,,,,,,,,,,,,,,,,,,,3552GW,train_y,blue_star,bottom_left,2025-02-19_16h00.41.353,HideSeek_v1,2022.2.5,59.915794273504154,
,,,,,,,,,,,,,,,2,0,2,0,1,0,1,0,,,,,,,,,,,,,,,,,,,,,,,,,,,,,,,conditions/schedules/train_y_first/blue_star_00/bottom_left/instructions/Slide16.png,conditions/schedules/train_y_first/blue_star_00/bottom_left/instructions/Audio16.wav,3473.5574616999365,3473.5520581996534,16,"[7.113794500008225, 19.09855809994042, 17.146807100158185, 20.157833500299603, 4.405686600133777, 5.285353499930352, 5.606864599976689, 11.674257500097156, 5.857324100099504, 7.150740399956703, 10.25264640012756, 14.057847400195897, 17.699910799972713, 17.25863890023902, 43.190420099999756, 22.944520799908787]","[0.00020170025527477264, 19.09856460010633, 0.014358100015670061, 0.03527260012924671, 0.047988600097596645, 0.03581119980663061, 0.08123400015756488, 0.052296100184321404, 0.09492369974032044, 0.04749630019068718, 0.0002305000089108944, 14.057855200022459, 0.04622570006176829, 17.25864650029689, 0.1287622000090778, 22.94452749984339]",0,,,,,,,,,,,,,,,,,,,,,,,,,,,,,,,,,,,,,,,,,,,,,,,,,,,,,,,,,,,,,,,,,,,,,,,,,,,,,,,,,,,,,,,,,,,,,,,,,,,,,,,,,,,,,,,,,,,,,3552GW,train_y,blue_star,bottom_left,2025-02-19_16h00.41.353,HideSeek_v1,2022.2.5,59.915794273504154,
,0,0,0,4,0,4,65,,train_dim1_1,1,30,,,,2,0,2,0,,,,,,,,,0,0,0,0,0,0,0,0,0,0,0,0,,,,,,,,,,,,,,,,,,,,,,,,,stimuli/alien_stimuli/65.png,,,,,,,,,,,,,,,,,,,,,,,,,,,,,,,,,,,,,,,30,,,,,,,,3496.605633500032,3496.605633500032,3496.605633500032,3496.605633500032,3496.605633500032,down,10.919686799868941,0,0,0,99,-0.16,-0.48000000000000004,down,10.817600599955767,,,,,,,,,,,,,,,,,,,,,,,,,,,,,,,,,,,,,,,,,,,,,,,,,,,,,3552GW,train_y,blue_star,bottom_left,2025-02-19_16h00.41.353,HideSeek_v1,2022.2.5,59.915794273504154,
,0,0,0,4,0,4,65,,train_dim1_1,1,30,,,,2,0,2,0,,,,,,,,,0,0,0,0,0,0,0,0,1,0,1,0,,,,,,,,,,,,,,,,,,,,,,,,,,,,,,,,,,,,,,,,,,,,,,,,,,,,,,,,,,,,,,,,30,,,,,,,,3507.528296600096,3507.528296600096,3507.528296600096,3507.528296600096,3507.528296600096,up,2.5944999996572733,0,0,0,99,-0.16,-0.4,up,2.4910338004119694,,,,,,,,,,,,,,,,,,,,,,,,,,,,,,,,,,,,,,,,,,,,,,,,,,,,,3552GW,train_y,blue_star,bottom_left,2025-02-19_16h00.41.353,HideSeek_v1,2022.2.5,59.915794273504154,
,0,0,0,4,0,4,65,,train_dim1_1,1,30,,,,2,0,2,0,,,,,,,,,0,0,0,0,0,0,0,0,2,0,2,0,,,,,,,,,,,,,,,,,,,,,,,,,,,,,,,,,,,,,,,,,,,,,,,,,,,,,,,,,,,,,,,,30,,,,,,,,3510.112744699698,3510.112744699698,3510.112744699698,3510.112744699698,3510.112744699698,right,22.011044300161302,0,0,0,99,-0.08,-0.4,right,21.930116400588304,,,,,,,,,,,,,,,,,,,,,,,,,,,,,,,,,,,,,,,,,,,,,,,,,,,,,3552GW,train_y,blue_star,bottom_left,2025-02-19_16h00.41.353,HideSeek_v1,2022.2.5,59.915794273504154,
,0,0,0,4,0,4,65,,train_dim1_1,1,30,,,,2,0,2,0,,,,,,,,,0,0,0,0,0,0,0,0,3,0,3,0,,,,,,,,,,,,,,,,,,,,,,,,,,,,,,,,,,,,,,,,,,,,,,,,,,,,,,,,,,,,,,,,30,,,,,,,,3532.14803559985,3532.14803559985,3532.14803559985,3532.14803559985,3532.14803559985,left,0.9770833998918533,0,0,0,99,-0.16,-0.4,left,0.8846547002904117,,,,,,,,,,,,,,,,,,,,,,,,,,,,,,,,,,,,,,,,,,,,,,,,,,,,,3552GW,train_y,blue_star,bottom_left,2025-02-19_16h00.41.353,HideSeek_v1,2022.2.5,59.915794273504154,
,0,0,0,4,0,4,65,,train_dim1_1,1,30,,,,2,0,2,0,,,,,,,,,0,0,0,0,0,0,0,0,4,0,4,0,,,,,,,,,,,,,,,,,,,,,,,,,,,,,,,,,,,,,,,,,,,,,,,,,,,,,,,,,,,,,,,,30,,,,,,,,3533.1144065000117,3533.1144065000117,3533.1144065000117,3533.1144065000117,3533.1144065000117,return,1.043760500382632,0,0,0,0,-0.16,-0.4,return,0.9653719002380967,0,0,-0.16,-0.4,,,,,,,,,,,,,,,,,,,,,,,,,,,,,,,,,,,,,,,,,,,,,,,,,3552GW,train_y,blue_star,bottom_left,2025-02-19_16h00.41.353,HideSeek_v1,2022.2.5,59.915794273504154,
,3,2,3,7,0,5,66,,train_dim1_1,2,30,,,,2,0,2,0,,,,,,,,,0,0,0,0,0,1,1,1,0,0,0,0,,,,,,,,,,,,,,,,,,,,,,,,,stimuli/alien_stimuli/66.png,,,,,,,,,,,,,,,,,,,,,,,,,,,,,stimuli/alien_stimuli/65.png,65,0,3,,,,,,,30,,,,,,,,3568.244275599718,3568.244275599718,3568.244275599718,3568.244275599718,3568.244275599718,down,7.028389100451022,0,0,0,99,0.08,-0.32,down,6.928772300481796,,,,,3566.6789223998785,3568.244275599718,-0.16,-0.08,0.32,0.0,-0.24000000000000002,-0.16,-0.16,-0.16,-0.08,3535.7340186997317,3535.7340186997317,3535.7340186997317,3535.7340186997317,3535.7340186997317,3535.7340186997317,3535.7340186997317,3535.7340186997317,3535.720548719959,31.060877199750394,return,30.91460350016132,,,,,,,,,,,,,,,,,,,,,,,,,,3552GW,train_y,blue_star,bottom_left,2025-02-19_16h00.41.353,HideSeek_v1,2022.2.5,59.915794273504154,
,3,2,3,7,0,5,66,,train_dim1_1,2,30,,,,2,0,2,0,,,,,,,,,0,0,0,0,0,1,1,1,1,0,1,0,,,,,,,,,,,,,,,,,,,,,,,,,,,,,,,,,,,,,,,,,,,,,,,,,,,,,,,,,,,,,,,,30,,,,,,,,3575.267893899698,3575.267893899698,3575.267893899698,3575.267893899698,3575.267893899698,up,24.245864199940115,0,0,0,99,0.08,-0.24,up,24.167176000308245,,,,,,,,,,,,,,,,,,,,,,,,,,,,,,,,,,,,,,,,,,,,,,,,,,,,,3552GW,train_y,blue_star,bottom_left,2025-02-19_16h00.41.353,HideSeek_v1,2022.2.5,59.915794273504154,
,3,2,3,7,0,5,66,,train_dim1_1,2,30,,,,2,0,2,0,,,,,,,,,0,0,0,0,0,1,1,1,2,0,2,0,,,,,,,,,,,,,,,,,,,,,,,,,,,,,,,,,,,,,,,,,,,,,,,,,,,,,,,,,,,,,,,,30,,,,,,,,3599.541857500095,3599.541857500095,3599.541857500095,3599.541857500095,3599.541857500095,return,1.174174000043422,0,0,0,0,0.08,-0.24,return,1.073993400670588,0,0,0.08,-0.24,,,,,,,,,,,,,,,,,,,,,,,,,,,,,,,,,,,,,,,,,,,,,,,,,3552GW,train_y,blue_star,bottom_left,2025-02-19_16h00.41.353,HideSeek_v1,2022.2.5,59.915794273504154,
,2,3,2,6,0,3,64,,train_dim1_1,3,30,,,,2,0,2,0,,,,,,,,,0,0,0,0,0,2,2,2,0,0,0,0,,,,,,,,,,,,,,,,,,,,,,,,,stimuli/alien_stimuli/64.png,,,,,,,,,,,,,,,,,,,,,,,,,,,,,stimuli/alien_stimuli/66.png,66,3,4,,,,,,,30,,,,,,,,3622.9974409998395,3622.9974409998395,3622.9974409998395,3622.9974409998395,3622.9974409998395,down,4.5924463998526335,0,0,0,99,0,-0.24,down,4.488213000353426,,,,,3621.424306300003,3622.9974409998395,0.08,0.16,0.4,0.0,-0.039999999999999994,0.08,0.08,0.08,0.16,3602.265463399701,3602.265463399701,3602.265463399701,3602.265463399701,3602.265463399701,3602.265463399701,3602.265463399701,3602.265463399701,3602.2586453197055,19.26822920003906,return,19.131014700513333,,,,,,,,,,,,,,,,,,,,,,,,,,3552GW,train_y,blue_star,bottom_left,2025-02-19_16h00.41.353,HideSeek_v1,2022.2.5,59.915794273504154,
,2,3,2,6,0,3,64,,train_dim1_1,3,30,,,,2,0,2,0,,,,,,,,,0,0,0,0,0,2,2,2,1,0,1,0,,,,,,,,,,,,,,,,,,,,,,,,,,,,,,,,,,,,,,,,,,,,,,,,,,,,,,,,,,,,,,,,30,,,,,,,,3627.577141399961,3627.577141399961,3627.577141399961,3627.577141399961,3627.577141399961,up,3.8290006001479924,0,0,0,99,0,-0.15999999999999998,up,3.745520000346005,,,,,,,,,,,,,,,,,,,,,,,,,,,,,,,,,,,,,,,,,,,,,,,,,,,,,3552GW,train_y,blue_star,bottom_left,2025-02-19_16h00.41.353,HideSeek_v1,2022.2.5,59.915794273504154,
,2,3,2,6,0,3,64,,train_dim1_1,3,30,,,,2,0,2,0,,,,,,,,,0,0,0,0,0,2,2,2,2,0,2,0,,,,,,,,,,,,,,,,,,,,,,,,,,,,,,,,,,,,,,,,,,,,,,,,,,,,,,,,,,,,,,,,30,,,,,,,,3631.413070200011,3631.413070200011,3631.413070200011,3631.413070200011,3631.413070200011,return,4.813616200350225,0,0,0,0,0,-0.15999999999999998,return,4.731069500558078,0,0,0,-0.15999999999999998,,,,,,,,,,,,,,,,,,,,,,,,,,,,,,,,,,,,,,,,,,,,,,,,,3552GW,train_y,blue_star,bottom_left,2025-02-19_16h00.41.353,HideSeek_v1,2022.2.5,59.915794273504154,
,0,1,0,2,0,1,62,,train_dim1_1,4,30,,,,2,0,2,0,,,,,,,,,0,0,0,0,0,3,3,3,0,0,0,0,,,,,,,,,,,,,,,,,,,,,,,,,stimuli/alien_stimuli/62.png,,,,,,,,,,,,,,,,,,,,,,,,,,,,,stimuli/alien_stimuli/64.png,64,2,5,,,,,,,30,,,,,,,,3646.9312370000407,3646.9312370000407,3646.9312370000407,3646.9312370000407,3646.9312370000407,return,59.73860860010609,0,1,0,0,-0.16,-0.32,return,59.652249600272626,0,0,-0.16,-0.32,3645.3777652997524,3646.9312370000407,0,0.08,0.24,0.0,-0.04,0,0.0,0,0.08,3637.796771499794,3637.796771499794,3637.796771499794,3637.796771499794,3637.796771499794,3637.796771499794,3637.796771499794,3637.796771499794,3637.7880732196845,7.692268799990416,return,7.565159100107849,,,,,,,,,,,,,,,,,,,,,,,,,,3552GW,train_y,blue_star,bottom_left,2025-02-19_16h00.41.353,HideSeek_v1,2022.2.5,59.915794273504154,
,3,3,3,3,0,0,61,,train_dim1_1,5,30,,,,2,0,2,0,,,,,,,,,0,0,0,0,0,4,4,4,0,0,0,0,,,,,,,,,,,,,,,,,,,,,,,,,stimuli/alien_stimuli/61.png,,,,,,,,,,,,,,,,,,,,,,,,,,,,,stimuli/alien_stimuli/62.png,62,0,6,,,,,,,30,,,,,,,,3726.2977987998165,3726.2977987998165,3726.2977987998165,3726.2977987998165,3726.2977987998165,up,10.447664299979806,0,1,0,99,0.08,-0.08,up,10.353300400078297,,,,,3724.7269072998315,3726.2977987998165,-0.16,-0.24,0.08,0.0,-0.28,-0.16,-0.16,-0.16,-0.24,3708.247996099759,3708.247996099759,3708.247996099759,3708.247996099759,3708.247996099759,3708.247996099759,3708.247996099759,3708.247996099759,3708.2466229795477,16.599103199783713,return,16.452117200009525,,,,,,,,,,,,,,,,,,,,,,,,,,3552GW,train_y,blue_star,bottom_left,2025-02-19_16h00.41.353,HideSeek_v1,2022.2.5,59.915794273504154,
,3,3,3,3,0,0,61,,train_dim1_1,5,30,,,,2,0,2,0,,,,,,,,,0,0,0,0,0,4,4,4,1,0,1,0,,,,,,,,,,,,,,,,,,,,,,,,,,,,,,,,,,,,,,,,,,,,,,,,,,,,,,,,,,,,,,,,30,,,,,,,,3736.753378499765,3736.753378499765,3736.753378499765,3736.753378499765,3736.753378499765,up,0.9598829001188278,0,1,0,99,0.08,0.0,up,0.8543418007902801,,,,,,,,,,,,,,,,,,,,,,,,,,,,,,,,,,,,,,,,,,,,,,,,,,,,,3552GW,train_y,blue_star,bottom_left,2025-02-19_16h00.41.353,HideSeek_v1,2022.2.5,59.915794273504154,
,3,3,3,3,0,0,61,,train_dim1_1,5,30,,,,2,0,2,0,,,,,,,,,0,0,0,0,0,4,4,4,2,0,2,0,,,,,,,,,,,,,,,,,,,,,,,,,,,,,,,,,,,,,,,,,,,,,,,,,,,,,,,,,,,,,,,,30,,,,,,,,3737.7008084999397,3737.7008084999397,3737.7008084999397,3737.7008084999397,3737.7008084999397,right,0.8607379999011755,0,1,0,99,0.16,0.0,right,0.7856379002332687,,,,,,,,,,,,,,,,,,,,,,,,,,,,,,,,,,,,,,,,,,,,,,,,,,,,,3552GW,train_y,blue_star,bottom_left,2025-02-19_16h00.41.353,HideSeek_v1,2022.2.5,59.915794273504154,
,3,3,3,3,0,0,61,,train_dim1_1,5,30,,,,2,0,2,0,,,,,,,,,0,0,0,0,0,4,4,4,3,0,3,0,,,,,,,,,,,,,,,,,,,,,,,,,,,,,,,,,,,,,,,,,,,,,,,,,,,,,,,,,,,,,,,,30,,,,,,,,3738.568221599795,3738.568221599795,3738.568221599795,3738.568221599795,3738.568221599795,right,0.45961639983579516,0,1,0,99,0.24,0.0,right,0.38710590032860637,,,,,,,,,,,,,,,,,,,,,,,,,,,,,,,,,,,,,,,,,,,,,,,,,,,,,3552GW,train_y,blue_star,bottom_left,2025-02-19_16h00.41.353,HideSeek_v1,2022.2.5,59.915794273504154,
,3,3,3,3,0,0,61,,train_dim1_1,5,30,,,,2,0,2,0,,,,,,,,,0,0,0,0,0,4,4,4,4,0,4,0,,,,,,,,,,,,,,,,,,,,,,,,,,,,,,,,,,,,,,,,,,,,,,,,,,,,,,,,,,,,,,,,30,,,,,,,,3739.0343702998944,3739.0343702998944,3739.0343702998944,3739.0343702998944,3739.0343702998944,return,1.0106267998926342,0,0,0,0,0.24,0.0,return,0.9336880003102124,2,2,0.24,0.0,,,,,,,,,,,,,,,,,,,,,,,,,,,,,,,,,,,,,,,,,,,,,,,,,3552GW,train_y,blue_star,bottom_left,2025-02-19_16h00.41.353,HideSeek_v1,2022.2.5,59.915794273504154,
,1,4,1,5,0,1,62,,train_dim1_1,6,30,,,,2,0,2,0,,,,,,,,,0,0,0,0,0,5,5,5,0,0,0,0,,,,,,,,,,,,,,,,,,,,,,,,,stimuli/alien_stimuli/62.png,,,,,,,,,,,,,,,,,,,,,,,,,,,,,stimuli/alien_stimuli/61.png,61,3,7,,,,,,,30,,,,,,,,3747.0966729996726,3747.0966729996726,3747.0966729996726,3747.0966729996726,3747.0966729996726,up,3.3084408999420702,0,0,0,99,-0.08,0.0,up,3.22614850057289,,,,,3745.5438496000133,3747.0966729996726,0.08,-0.16,0.0,0.0,-0.16,0.08,0.08,0.08,-0.16,3741.6130472999066,3741.6130472999066,3741.6130472999066,3741.6130472999066,3741.6130472999066,3741.6130472999066,3741.6130472999066,3741.6130472999066,3741.6072559196964,4.039154300000519,return,3.908541399985552,,,,,,,,,,,,,,,,,,,,,,,,,,3552GW,train_y,blue_star,bottom_left,2025-02-19_16h00.41.353,HideSeek_v1,2022.2.5,59.915794273504154,
,1,4,1,5,0,1,62,,train_dim1_1,6,30,,,,2,0,2,0,,,,,,,,,0,0,0,0,0,5,5,5,1,0,1,0,,,,,,,,,,,,,,,,,,,,,,,,,,,,,,,,,,,,,,,,,,,,,,,,,,,,,,,,,,,,,,,,30,,,,,,,,3750.4112905999646,3750.4112905999646,3750.4112905999646,3750.4112905999646,3750.4112905999646,right,1.4604255999438465,0,0,0,99,0.0,0.0,right,1.3829448004253209,,,,,,,,,,,,,,,,,,,,,,,,,,,,,,,,,,,,,,,,,,,,,,,,,,,,,3552GW,train_y,blue_star,bottom_left,2025-02-19_16h00.41.353,HideSeek_v1,2022.2.5,59.915794273504154,
,1,4,1,5,0,1,62,,train_dim1_1,6,30,,,,2,0,2,0,,,,,,,,,0,0,0,0,0,5,5,5,2,0,2,0,,,,,,,,,,,,,,,,,,,,,,,,,,,,,,,,,,,,,,,,,,,,,,,,,,,,,,,,,,,,,,,,30,,,,,,,,3751.8784928997047,3751.8784928997047,3751.8784928997047,3751.8784928997047,3751.8784928997047,right,0.5267413998953998,0,0,0,99,0.08,0.0,right,0.4501490006223321,,,,,,,,,,,,,,,,,,,,,,,,,,,,,,,,,,,,,,,,,,,,,,,,,,,,,3552GW,train_y,blue_star,bottom_left,2025-02-19_16h00.41.353,HideSeek_v1,2022.2.5,59.915794273504154,
,1,4,1,5,0,1,62,,train_dim1_1,6,30,,,,2,0,2,0,,,,,,,,,0,0,0,0,0,5,5,5,3,0,3,0,,,,,,,,,,,,,,,,,,,,,,,,,,,,,,,,,,,,,,,,,,,,,,,,,,,,,,,,,,,,,,,,30,,,,,,,,3752.4125608000904,3752.4125608000904,3752.4125608000904,3752.4125608000904,3752.4125608000904,right,1.5777165996842086,0,0,0,99,0.16,0.0,right,1.4914300004020333,,,,,,,,,,,,,,,,,,,,,,,,,,,,,,,,,,,,,,,,,,,,,,,,,,,,,3552GW,train_y,blue_star,bottom_left,2025-02-19_16h00.41.353,HideSeek_v1,2022.2.5,59.915794273504154,
,1,4,1,5,0,1,62,,train_dim1_1,6,30,,,,2,0,2,0,,,,,,,,,0,0,0,0,0,5,5,5,4,0,4,0,,,,,,,,,,,,,,,,,,,,,,,,,,,,,,,,,,,,,,,,,,,,,,,,,,,,,,,,,,,,,,,,30,,,,,,,,3753.996902300045,3753.996902300045,3753.996902300045,3753.996902300045,3753.996902300045,down,1.3944862997159362,0,0,0,99,0.16,-0.08,down,1.3114685001783073,,,,,,,,,,,,,,,,,,,,,,,,,,,,,,,,,,,,,,,,,,,,,,,,,,,,,3552GW,train_y,blue_star,bottom_left,2025-02-19_16h00.41.353,HideSeek_v1,2022.2.5,59.915794273504154,
,1,4,1,5,0,1,62,,train_dim1_1,6,30,,,,2,0,2,0,,,,,,,,,0,0,0,0,0,5,5,5,5,0,5,0,,,,,,,,,,,,,,,,,,,,,,,,,,,,,,,,,,,,,,,,,,,,,,,,,,,,,,,,,,,,,,,,30,,,,,,,,3755.3983811996877,3755.3983811996877,3755.3983811996877,3755.3983811996877,3755.3983811996877,return,0.8268657000735402,0,0,0,0,0.16,-0.08,return,0.7420076001435518,2,5,0.16,-0.08,,,,,,,,,,,,,,,,,,,,,,,,,,,,,,,,,,,,,,,,,,,,,,,,,3552GW,train_y,blue_star,bottom_left,2025-02-19_16h00.41.353,HideSeek_v1,2022.2.5,59.915794273504154,
,1,3,1,6,0,3,64,,train_dim1_1,7,30,,,,2,0,2,0,,,,,,,,,0,0,0,0,0,6,6,6,0,0,0,0,,,,,,,,,,,,,,,,,,,,,,,,,stimuli/alien_stimuli/64.png,,,,,,,,,,,,,,,,,,,,,,,,,,,,,stimuli/alien_stimuli/62.png,62,1,8,,,,,,,30,,,,,,,,3763.862202799879,3763.862202799879,3763.862202799879,3763.862202799879,3763.862202799879,down,6.590743399690837,0,0,0,99,-0.08,-0.24,down,6.513442700263113,,,,,3762.3078374997713,3763.862202799879,-0.08,0,0.08,0.0,-0.04,-0.08,-0.08,-0.08,0,3757.796260799747,3757.796260799747,3757.796260799747,3757.796260799747,3757.796260799747,3757.796260799747,3757.796260799747,3757.796260799747,3757.787360519962,4.622688299976289,return,4.4820713005028665,,,,,,,,,,,,,,,,,,,,,,,,,,3552GW,train_y,blue_star,bottom_left,2025-02-19_16h00.41.353,HideSeek_v1,2022.2.5,59.915794273504154,
,1,3,1,6,0,3,64,,train_dim1_1,7,30,,,,2,0,2,0,,,,,,,,,0,0,0,0,0,6,6,6,1,0,1,0,,,,,,,,,,,,,,,,,,,,,,,,,,,,,,,,,,,,,,,,,,,,,,,,,,,,,,,,,,,,,,,,30,,,,,,,,3770.4610130996443,3770.4610130996443,3770.4610130996443,3770.4610130996443,3770.4610130996443,down,1.2101850998587906,0,0,0,99,-0.08,-0.32,down,1.1354593001306057,,,,,,,,,,,,,,,,,,,,,,,,,,,,,,,,,,,,,,,,,,,,,,,,,,,,,3552GW,train_y,blue_star,bottom_left,2025-02-19_16h00.41.353,HideSeek_v1,2022.2.5,59.915794273504154,
,1,3,1,6,0,3,64,,train_dim1_1,7,30,,,,2,0,2,0,,,,,,,,,0,0,0,0,0,6,6,6,2,0,2,0,,,,,,,,,,,,,,,,,,,,,,,,,,,,,,,,,,,,,,,,,,,,,,,,,,,,,,,,,,,,,,,,30,,,,,,,,3771.6782386996783,3771.6782386996783,3771.6782386996783,3771.6782386996783,3771.6782386996783,right,1.277265100274235,0,0,0,99,0.0,-0.32,right,1.190282900352031,,,,,,,,,,,,,,,,,,,,,,,,,,,,,,,,,,,,,,,,,,,,,,,,,,,,,3552GW,train_y,blue_star,bottom_left,2025-02-19_16h00.41.353,HideSeek_v1,2022.2.5,59.915794273504154,
,1,3,1,6,0,3,64,,train_dim1_1,7,30,,,,2,0,2,0,,,,,,,,,0,0,0,0,0,6,6,6,3,0,3,0,,,,,,,,,,,,,,,,,,,,,,,,,,,,,,,,,,,,,,,,,,,,,,,,,,,,,,,,,,,,,,,,30,,,,,,,,3772.9622006998397,3772.9622006998397,3772.9622006998397,3772.9622006998397,3772.9622006998397,right,0.3930955999530852,0,0,0,99,0.08,-0.32,right,0.31884799990803003,,,,,,,,,,,,,,,,,,,,,,,,,,,,,,,,,,,,,,,,,,,,,,,,,,,,,3552GW,train_y,blue_star,bottom_left,2025-02-19_16h00.41.353,HideSeek_v1,2022.2.5,59.915794273504154,
,1,3,1,6,0,3,64,,train_dim1_1,7,30,,,,2,0,2,0,,,,,,,,,0,0,0,0,0,6,6,6,4,0,4,0,,,,,,,,,,,,,,,,,,,,,,,,,,,,,,,,,,,,,,,,,,,,,,,,,,,,,,,,,,,,,,,,30,,,,,,,,3773.362284099683,3773.362284099683,3773.362284099683,3773.362284099683,3773.362284099683,up,0.8273006002418697,0,0,0,99,0.08,-0.24,up,0.750709100626409,,,,,,,,,,,,,,,,,,,,,,,,,,,,,,,,,,,,,,,,,,,,,,,,,,,,,3552GW,train_y,blue_star,bottom_left,2025-02-19_16h00.41.353,HideSeek_v1,2022.2.5,59.915794273504154,
,1,3,1,6,0,3,64,,train_dim1_1,7,30,,,,2,0,2,0,,,,,,,,,0,0,0,0,0,6,6,6,5,0,5,0,,,,,,,,,,,,,,,,,,,,,,,,,,,,,,,,,,,,,,,,,,,,,,,,,,,,,,,,,,,,,,,,30,,,,,,,,3774.1970440000296,3774.1970440000296,3774.1970440000296,3774.1970440000296,3774.1970440000296,up,0.7934208000078797,0,0,0,99,0.08,-0.15999999999999998,up,0.721492100507021,,,,,,,,,,,,,,,,,,,,,,,,,,,,,,,,,,,,,,,,,,,,,,,,,,,,,3552GW,train_y,blue_star,bottom_left,2025-02-19_16h00.41.353,HideSeek_v1,2022.2.5,59.915794273504154,
,1,3,1,6,0,3,64,,train_dim1_1,7,30,,,,2,0,2,0,,,,,,,,,0,0,0,0,0,6,6,6,6,0,6,0,,,,,,,,,,,,,,,,,,,,,,,,,,,,,,,,,,,,,,,,,,,,,,,,,,,,,,,,,,,,,,,,30,,,,,,,,3774.9977005999535,3774.9977005999535,3774.9977005999535,3774.9977005999535,3774.9977005999535,return,0.5935205002315342,0,0,0,0,0.08,-0.15999999999999998,return,0.5103033003397286,2,7,0.08,-0.15999999999999998,,,,,,,,,,,,,,,,,,,,,,,,,,,,,,,,,,,,,,,,,,,,,,,,,3552GW,train_y,blue_star,bottom_left,2025-02-19_16h00.41.353,HideSeek_v1,2022.2.5,59.915794273504154,
,4,2,4,2,0,0,61,,train_dim1_1,8,30,,,,2,0,2,0,,,,,,,,,0,0,0,0,0,7,7,7,0,0,0,0,,,,,,,,,,,,,,,,,,,,,,,,,stimuli/alien_stimuli/61.png,,,,,,,,,,,,,,,,,,,,,,,,,,,,,stimuli/alien_stimuli/64.png,64,1,9,,,,,,,30,,,,,,,,3781.5092565999366,3781.5092565999366,3781.5092565999366,3781.5092565999366,3781.5092565999366,up,33.18360069999471,0,0,0,99,0.16,-0.15999999999999998,up,33.105988500174135,,,,,3779.9556768001057,3781.5092565999366,-0.08,0.08,0.24,0.0,-0.04,-0.08,-0.08,-0.08,0.08,3777.1608154000714,3777.1608154000714,3777.1608154000714,3777.1608154000714,3777.1608154000714,3777.1608154000714,3777.1608154000714,3777.1608154000714,3777.1537225198463,2.904416000004858,return,2.7641216004267335,,,,,,,,,,,,,,,,,,,,,,,,,,3552GW,train_y,blue_star,bottom_left,2025-02-19_16h00.41.353,HideSeek_v1,2022.2.5,59.915794273504154,
,4,2,4,2,0,0,61,,train_dim1_1,8,30,,,,2,0,2,0,,,,,,,,,0,0,0,0,0,7,7,7,1,0,1,0,,,,,,,,,,,,,,,,,,,,,,,,,,,,,,,,,,,,,,,,,,,,,,,,,,,,,,,,,,,,,,,,30,,,,,,,,3814.7166605000384,3814.7166605000384,3814.7166605000384,3814.7166605000384,3814.7166605000384,up,0.6598863997496665,0,0,0,99,0.16,-0.07999999999999997,up,0.559294500388205,,,,,,,,,,,,,,,,,,,,,,,,,,,,,,,,,,,,,,,,,,,,,,,,,,,,,3552GW,train_y,blue_star,bottom_left,2025-02-19_16h00.41.353,HideSeek_v1,2022.2.5,59.915794273504154,
,4,2,4,2,0,0,61,,train_dim1_1,8,30,,,,2,0,2,0,,,,,,,,,0,0,0,0,0,7,7,7,2,0,2,0,,,,,,,,,,,,,,,,,,,,,,,,,,,,,,,,,,,,,,,,,,,,,,,,,,,,,,,,,,,,,,,,30,,,,,,,,3815.365144299809,3815.365144299809,3815.365144299809,3815.365144299809,3815.365144299809,up,0.8270265003666282,0,0,0,99,0.16,2.7755575615628914e-17,up,0.7525588003918529,,,,,,,,,,,,,,,,,,,,,,,,,,,,,,,,,,,,,,,,,,,,,,,,,,,,,3552GW,train_y,blue_star,bottom_left,2025-02-19_16h00.41.353,HideSeek_v1,2022.2.5,59.915794273504154,
,4,2,4,2,0,0,61,,train_dim1_1,8,30,,,,2,0,2,0,,,,,,,,,0,0,0,0,0,7,7,7,3,0,3,0,,,,,,,,,,,,,,,,,,,,,,,,,,,,,,,,,,,,,,,,,,,,,,,,,,,,,,,,,,,,,,,,30,,,,,,,,3816.1987235997804,3816.1987235997804,3816.1987235997804,3816.1987235997804,3816.1987235997804,return,0.8935982999391854,0,0,0,0,0.16,2.7755575615628914e-17,return,0.8162621003575623,5,7,0.16,2.7755575615628914e-17,,,,,,,,,,,,,,,,,,,,,,,,,,,,,,,,,,,,,,,,,,,,,,,,,3552GW,train_y,blue_star,bottom_left,2025-02-19_16h00.41.353,HideSeek_v1,2022.2.5,59.915794273504154,
,4,3,4,7,0,4,65,,train_dim1_1,9,30,,,,2,0,2,0,,,,,,,,,0,0,0,0,0,8,8,8,0,0,0,0,,,,,,,,,,,,,,,,,,,,,,,,,stimuli/alien_stimuli/65.png,,,,,,,,,,,,,,,,,,,,,,,,,,,,,stimuli/alien_stimuli/61.png,61,4,10,,,,,,,30,,,,,,,,3823.3420477998443,3823.3420477998443,3823.3420477998443,3823.3420477998443,3823.3420477998443,right,2.5246985000558197,0,0,0,99,0.24,-0.16,right,2.4479811005294323,,,,,3821.7904042000882,3823.3420477998443,0.16,-0.24,0.0,0.0,-0.24,0.16,0.16,0.16,-0.24,3818.661627799738,3818.661627799738,3818.661627799738,3818.661627799738,3818.661627799738,3818.661627799738,3818.661627799738,3818.661627799738,3818.654838119959,3.2381174000911415,return,3.099625800270587,,,,,,,,,,,,,,,,,,,,,,,,,,3552GW,train_y,blue_star,bottom_left,2025-02-19_16h00.41.353,HideSeek_v1,2022.2.5,59.915794273504154,
,4,3,4,7,0,4,65,,train_dim1_1,9,30,,,,2,0,2,0,,,,,,,,,0,0,0,0,0,8,8,8,1,0,1,0,,,,,,,,,,,,,,,,,,,,,,,,,,,,,,,,,,,,,,,,,,,,,,,,,,,,,,,,,,,,,,,,30,,,,,,,,3825.8730395999737,3825.8730395999737,3825.8730395999737,3825.8730395999737,3825.8730395999737,right,0.5763745000585914,0,0,0,99,0.32,-0.16,right,0.5009284000843763,,,,,,,,,,,,,,,,,,,,,,,,,,,,,,,,,,,,,,,,,,,,,,,,,,,,,3552GW,train_y,blue_star,bottom_left,2025-02-19_16h00.41.353,HideSeek_v1,2022.2.5,59.915794273504154,
,4,3,4,7,0,4,65,,train_dim1_1,9,30,,,,2,0,2,0,,,,,,,,,0,0,0,0,0,8,8,8,2,0,2,0,,,,,,,,,,,,,,,,,,,,,,,,,,,,,,,,,,,,,,,,,,,,,,,,,,,,,,,,,,,,,,,,30,,,,,,,,3826.4573029996827,3826.4573029996827,3826.4573029996827,3826.4573029996827,3826.4573029996827,up,2.1116026998497546,0,0,0,99,0.32,-0.08,up,2.03899750020355,,,,,,,,,,,,,,,,,,,,,,,,,,,,,,,,,,,,,,,,,,,,,,,,,,,,,3552GW,train_y,blue_star,bottom_left,2025-02-19_16h00.41.353,HideSeek_v1,2022.2.5,59.915794273504154,
,4,3,4,7,0,4,65,,train_dim1_1,9,30,,,,2,0,2,0,,,,,,,,,0,0,0,0,0,8,8,8,3,0,3,0,,,,,,,,,,,,,,,,,,,,,,,,,,,,,,,,,,,,,,,,,,,,,,,,,,,,,,,,,,,,,,,,30,,,,,,,,3828.5759927998297,3828.5759927998297,3828.5759927998297,3828.5759927998297,3828.5759927998297,down,1.3274974003434181,0,0,0,99,0.32,-0.16,down,1.2465902003459632,,,,,,,,,,,,,,,,,,,,,,,,,,,,,,,,,,,,,,,,,,,,,,,,,,,,,3552GW,train_y,blue_star,bottom_left,2025-02-19_16h00.41.353,HideSeek_v1,2022.2.5,59.915794273504154,
,4,3,4,7,0,4,65,,train_dim1_1,9,30,,,,2,0,2,0,,,,,,,,,0,0,0,0,0,8,8,8,4,0,4,0,,,,,,,,,,,,,,,,,,,,,,,,,,,,,,,,,,,,,,,,,,,,,,,,,,,,,,,,,,,,,,,,30,,,,,,,,3829.910329800099,3829.910329800099,3829.910329800099,3829.910329800099,3829.910329800099,down,0.376547500025481,0,0,0,99,0.32,-0.24,down,0.2905261004343629,,,,,,,,,,,,,,,,,,,,,,,,,,,,,,,,,,,,,,,,,,,,,,,,,,,,,3552GW,train_y,blue_star,bottom_left,2025-02-19_16h00.41.353,HideSeek_v1,2022.2.5,59.915794273504154,
,4,3,4,7,0,4,65,,train_dim1_1,9,30,,,,2,0,2,0,,,,,,,,,0,0,0,0,0,8,8,8,5,0,5,0,,,,,,,,,,,,,,,,,,,,,,,,,,,,,,,,,,,,,,,,,,,,,,,,,,,,,,,,,,,,,,,,30,,,,,,,,3830.2935851998627,3830.2935851998627,3830.2935851998627,3830.2935851998627,3830.2935851998627,left,1.1939370003528893,0,0,0,99,0.24,-0.24,left,1.1088560000061989,,,,,,,,,,,,,,,,,,,,,,,,,,,,,,,,,,,,,,,,,,,,,,,,,,,,,3552GW,train_y,blue_star,bottom_left,2025-02-19_16h00.41.353,HideSeek_v1,2022.2.5,59.915794273504154,
,4,3,4,7,0,4,65,,train_dim1_1,9,30,,,,2,0,2,0,,,,,,,,,0,0,0,0,0,8,8,8,6,0,6,0,,,,,,,,,,,,,,,,,,,,,,,,,,,,,,,,,,,,,,,,,,,,,,,,,,,,,,,,,,,,,,,,30,,,,,,,,3831.493894699961,3831.493894699961,3831.493894699961,3831.493894699961,3831.493894699961,left,0.5268064998090267,0,0,0,99,0.15999999999999998,-0.24,left,0.4396019000560045,,,,,,,,,,,,,,,,,,,,,,,,,,,,,,,,,,,,,,,,,,,,,,,,,,,,,3552GW,train_y,blue_star,bottom_left,2025-02-19_16h00.41.353,HideSeek_v1,2022.2.5,59.915794273504154,
,4,3,4,7,0,4,65,,train_dim1_1,9,30,,,,2,0,2,0,,,,,,,,,0,0,0,0,0,8,8,8,7,0,7,0,,,,,,,,,,,,,,,,,,,,,,,,,,,,,,,,,,,,,,,,,,,,,,,,,,,,,,,,,,,,,,,,30,,,,,,,,3832.027730300091,3832.027730300091,3832.027730300091,3832.027730300091,3832.027730300091,down,0.9103763001039624,0,0,0,99,0.15999999999999998,-0.32,down,0.8269610004499555,,,,,,,,,,,,,,,,,,,,,,,,,,,,,,,,,,,,,,,,,,,,,,,,,,,,,3552GW,train_y,blue_star,bottom_left,2025-02-19_16h00.41.353,HideSeek_v1,2022.2.5,59.915794273504154,
,4,3,4,7,0,4,65,,train_dim1_1,9,30,,,,2,0,2,0,,,,,,,,,0,0,0,0,0,8,8,8,8,0,8,0,,,,,,,,,,,,,,,,,,,,,,,,,,,,,,,,,,,,,,,,,,,,,,,,,,,,,,,,,,,,,,,,30,,,,,,,,3832.945981099736,3832.945981099736,3832.945981099736,3832.945981099736,3832.945981099736,return,0.5434552999213338,0,0,0,0,0.15999999999999998,-0.32,return,0.4696680004708469,3,7,0.15999999999999998,-0.32,,,,,,,,,,,,,,,,,,,,,,,,,,,,,,,,,,,,,,,,,,,,,,,,,3552GW,train_y,blue_star,bottom_left,2025-02-19_16h00.41.353,HideSeek_v1,2022.2.5,59.915794273504154,
,2,2,2,7,0,5,66,,train_dim1_1,10,30,,,,2,0,2,0,,,,,,,,,0,0,0,0,0,9,9,9,0,0,0,0,,,,,,,,,,,,,,,,,,,,,,,,,stimuli/alien_stimuli/66.png,,,,,,,,,,,,,,,,,,,,,,,,,,,,,stimuli/alien_stimuli/65.png,65,4,11,,,,,,,30,,,,,,,,3839.5057680997998,3839.5057680997998,3839.5057680997998,3839.5057680997998,3839.5057680997998,up,5.2936266995966434,0,0,0,99,0,-0.15999999999999998,up,5.216085100080818,,,,,3837.954081699718,3839.5057680997998,0.16,0.16,0.32,0.0,0.0,0.16,0.16,0.16,0.16,3835.0553574999794,3835.0553574999794,3835.0553574999794,3835.0553574999794,3835.0553574999794,3835.0553574999794,3835.0553574999794,3835.0553574999794,3835.0514490197875,3.0050826999358833,return,2.880321600008756,,,,,,,,,,,,,,,,,,,,,,,,,,3552GW,train_y,blue_star,bottom_left,2025-02-19_16h00.41.353,HideSeek_v1,2022.2.5,59.915794273504154,
,2,2,2,7,0,5,66,,train_dim1_1,10,30,,,,2,0,2,0,,,,,,,,,0,0,0,0,0,9,9,9,1,0,1,0,,,,,,,,,,,,,,,,,,,,,,,,,,,,,,,,,,,,,,,,,,,,,,,,,,,,,,,,,,,,,,,,30,,,,,,,,3844.8071936997585,3844.8071936997585,3844.8071936997585,3844.8071936997585,3844.8071936997585,up,0.5092496001161635,0,0,0,99,0,-0.07999999999999997,up,0.4281138004735112,,,,,,,,,,,,,,,,,,,,,,,,,,,,,,,,,,,,,,,,,,,,,,,,,,,,,3552GW,train_y,blue_star,bottom_left,2025-02-19_16h00.41.353,HideSeek_v1,2022.2.5,59.915794273504154,
,2,2,2,7,0,5,66,,train_dim1_1,10,30,,,,2,0,2,0,,,,,,,,,0,0,0,0,0,9,9,9,2,0,2,0,,,,,,,,,,,,,,,,,,,,,,,,,,,,,,,,,,,,,,,,,,,,,,,,,,,,,,,,,,,,,,,,30,,,,,,,,3845.32283989992,3845.32283989992,3845.32283989992,3845.32283989992,3845.32283989992,up,0.9274188997223973,0,0,0,99,0,2.7755575615628914e-17,up,0.8391723004169762,,,,,,,,,,,,,,,,,,,,,,,,,,,,,,,,,,,,,,,,,,,,,,,,,,,,,3552GW,train_y,blue_star,bottom_left,2025-02-19_16h00.41.353,HideSeek_v1,2022.2.5,59.915794273504154,
,2,2,2,7,0,5,66,,train_dim1_1,10,30,,,,2,0,2,0,,,,,,,,,0,0,0,0,0,9,9,9,3,0,3,0,,,,,,,,,,,,,,,,,,,,,,,,,,,,,,,,,,,,,,,,,,,,,,,,,,,,,,,,,,,,,,,,30,,,,,,,,3846.2572129997425,3846.2572129997425,3846.2572129997425,3846.2572129997425,3846.2572129997425,up,0.5433415002189577,0,0,0,99,0,0.08000000000000003,up,0.4558092001825571,,,,,,,,,,,,,,,,,,,,,,,,,,,,,,,,,,,,,,,,,,,,,,,,,,,,,3552GW,train_y,blue_star,bottom_left,2025-02-19_16h00.41.353,HideSeek_v1,2022.2.5,59.915794273504154,
,2,2,2,7,0,5,66,,train_dim1_1,10,30,,,,2,0,2,0,,,,,,,,,0,0,0,0,0,9,9,9,4,0,4,0,,,,,,,,,,,,,,,,,,,,,,,,,,,,,,,,,,,,,,,,,,,,,,,,,,,,,,,,,,,,,,,,30,,,,,,,,3846.807543099858,3846.807543099858,3846.807543099858,3846.807543099858,3846.807543099858,return,0.5595661997795105,0,1,0,0,0,0.08000000000000003,return,0.4884156002663076,7,7,0,0.08000000000000003,,,,,,,,,,,,,,,,,,,,,,,,,,,,,,,,,,,,,,,,,,,,,,,,,3552GW,train_y,blue_star,bottom_left,2025-02-19_16h00.41.353,HideSeek_v1,2022.2.5,59.915794273504154,
,4,1,4,5,0,4,65,,train_dim1_1,11,30,,,,2,0,2,0,,,,,,,,,0,0,0,0,0,10,10,10,0,0,0,0,,,,,,,,,,,,,,,,,,,,,,,,,stimuli/alien_stimuli/65.png,,,,,,,,,,,,,,,,,,,,,,,,,,,,,stimuli/alien_stimuli/66.png,66,2,12,,,,,,,30,,,,,,,,3888.2478398997337,3888.2478398997337,3888.2478398997337,3888.2478398997337,3888.2478398997337,up,2.5233202003873885,0,1,0,99,0.16,-0.24,up,2.4192730002105236,,,,,3886.6776978997514,3888.2478398997337,0,0.16,0.4,0.0,-0.039999999999999994,0,0.0,0,0.16,3848.9370550997555,3848.9370550997555,3848.9370550997555,3848.9370550997555,3848.9370550997555,3848.9370550997555,3848.9370550997555,3848.9370550997555,3848.929587819939,37.850480100139976,return,37.72216790029779,,,,,,,,,,,,,,,,,,,,,,,,,,3552GW,train_y,blue_star,bottom_left,2025-02-19_16h00.41.353,HideSeek_v1,2022.2.5,59.915794273504154,
,4,1,4,5,0,4,65,,train_dim1_1,11,30,,,,2,0,2,0,,,,,,,,,0,0,0,0,0,10,10,10,1,0,1,0,,,,,,,,,,,,,,,,,,,,,,,,,,,,,,,,,,,,,,,,,,,,,,,,,,,,,,,,,,,,,,,,30,,,,,,,,3890.762058199849,3890.762058199849,3890.762058199849,3890.762058199849,3890.762058199849,up,0.6597966998815536,0,1,0,99,0.16,-0.15999999999999998,up,0.5804861006326973,,,,,,,,,,,,,,,,,,,,,,,,,,,,,,,,,,,,,,,,,,,,,,,,,,,,,3552GW,train_y,blue_star,bottom_left,2025-02-19_16h00.41.353,HideSeek_v1,2022.2.5,59.915794273504154,
,4,1,4,5,0,4,65,,train_dim1_1,11,30,,,,2,0,2,0,,,,,,,,,0,0,0,0,0,10,10,10,2,0,2,0,,,,,,,,,,,,,,,,,,,,,,,,,,,,,,,,,,,,,,,,,,,,,,,,,,,,,,,,,,,,,,,,30,,,,,,,,3891.4279201999307,3891.4279201999307,3891.4279201999307,3891.4279201999307,3891.4279201999307,up,2.094901300035417,0,1,0,99,0.16,-0.07999999999999997,up,2.0076255006715655,,,,,,,,,,,,,,,,,,,,,,,,,,,,,,,,,,,,,,,,,,,,,,,,,,,,,3552GW,train_y,blue_star,bottom_left,2025-02-19_16h00.41.353,HideSeek_v1,2022.2.5,59.915794273504154,
,4,1,4,5,0,4,65,,train_dim1_1,11,30,,,,2,0,2,0,,,,,,,,,0,0,0,0,0,10,10,10,3,0,3,0,,,,,,,,,,,,,,,,,,,,,,,,,,,,,,,,,,,,,,,,,,,,,,,,,,,,,,,,,,,,,,,,30,,,,,,,,3893.528776299674,3893.528776299674,3893.528776299674,3893.528776299674,3893.528776299674,up,0.5932760001160204,0,1,0,99,0.16,2.7755575615628914e-17,up,0.5211079004220665,,,,,,,,,,,,,,,,,,,,,,,,,,,,,,,,,,,,,,,,,,,,,,,,,,,,,3552GW,train_y,blue_star,bottom_left,2025-02-19_16h00.41.353,HideSeek_v1,2022.2.5,59.915794273504154,
,4,1,4,5,0,4,65,,train_dim1_1,11,30,,,,2,0,2,0,,,,,,,,,0,0,0,0,0,10,10,10,4,0,4,0,,,,,,,,,,,,,,,,,,,,,,,,,,,,,,,,,,,,,,,,,,,,,,,,,,,,,,,,,,,,,,,,30,,,,,,,,3894.12923529977,3894.12923529977,3894.12923529977,3894.12923529977,3894.12923529977,return,0.560464599635452,1,0,0,1,0.16,2.7755575615628914e-17,return,0.4734652005136013,11,7,0.16,2.7755575615628914e-17,,,,,,,,,,,,,,,,,,,,,,,,,,,,,,,,,,,,,,,,,,,,,,,,,3552GW,train_y,blue_star,bottom_left,2025-02-19_16h00.41.353,HideSeek_v1,2022.2.5,59.915794273504154,
,0,0,0,0,0,0,61,,train_dim1_1,12,30,,,,2,0,2,0,,,,,,,,,0,0,0,0,0,11,11,11,0,0,0,0,,,,,,,,,,,,,,,,,,,,,,,,,stimuli/alien_stimuli/61.png,,,,,,,,,,,,,,,,,,,,,,,,,,,,,stimuli/alien_stimuli/65.png,65,4,13,,,,,,,30,,,,,,,,3903.992649300024,3903.992649300024,3903.992649300024,3903.992649300024,3903.992649300024,up,2.4079042999073863,1,0,0,99,-0.16,-0.32,up,2.3328614006750286,,,,,3902.440460700076,3903.992649300024,0.16,0,0.32,0.0,-0.16,0.16,0.16,0.16,0,3896.2618034998886,3896.2618034998886,3896.2618034998886,3896.2618034998886,3896.2618034998886,3896.2618034998886,3896.2618034998886,3896.2618034998886,3896.2527320197314,6.290407800115645,return,6.15987510047853,,,,,,,,,,,,,,,,,,,,,,,,,,3552GW,train_y,blue_star,bottom_left,2025-02-19_16h00.41.353,HideSeek_v1,2022.2.5,59.915794273504154,
,0,0,0,0,0,0,61,,train_dim1_1,12,30,,,,2,0,2,0,,,,,,,,,0,0,0,0,0,11,11,11,1,0,1,0,,,,,,,,,,,,,,,,,,,,,,,,,,,,,,,,,,,,,,,,,,,,,,,,,,,,,,,,,,,,,,,,30,,,,,,,,3906.40697599994,3906.40697599994,3906.40697599994,3906.40697599994,3906.40697599994,up,0.5259719998575747,1,0,0,99,-0.16,-0.24,up,0.45348430052399635,,,,,,,,,,,,,,,,,,,,,,,,,,,,,,,,,,,,,,,,,,,,,,,,,,,,,3552GW,train_y,blue_star,bottom_left,2025-02-19_16h00.41.353,HideSeek_v1,2022.2.5,59.915794273504154,
,0,0,0,0,0,0,61,,train_dim1_1,12,30,,,,2,0,2,0,,,,,,,,,0,0,0,0,0,11,11,11,2,0,2,0,,,,,,,,,,,,,,,,,,,,,,,,,,,,,,,,,,,,,,,,,,,,,,,,,,,,,,,,,,,,,,,,30,,,,,,,,3906.940506400075,3906.940506400075,3906.940506400075,3906.940506400075,3906.940506400075,up,0.5099542001262307,1,0,0,99,-0.16,-0.15999999999999998,up,0.43553930008783937,,,,,,,,,,,,,,,,,,,,,,,,,,,,,,,,,,,,,,,,,,,,,,,,,,,,,3552GW,train_y,blue_star,bottom_left,2025-02-19_16h00.41.353,HideSeek_v1,2022.2.5,59.915794273504154,
,0,0,0,0,0,0,61,,train_dim1_1,12,30,,,,2,0,2,0,,,,,,,,,0,0,0,0,0,11,11,11,3,0,3,0,,,,,,,,,,,,,,,,,,,,,,,,,,,,,,,,,,,,,,,,,,,,,,,,,,,,,,,,,,,,,,,,30,,,,,,,,3907.457936800085,3907.457936800085,3907.457936800085,3907.457936800085,3907.457936800085,down,1.5610706000588834,1,0,0,99,-0.16,-0.24,down,1.4890125002712011,,,,,,,,,,,,,,,,,,,,,,,,,,,,,,,,,,,,,,,,,,,,,,,,,,,,,3552GW,train_y,blue_star,bottom_left,2025-02-19_16h00.41.353,HideSeek_v1,2022.2.5,59.915794273504154,
,0,0,0,0,0,0,61,,train_dim1_1,12,30,,,,2,0,2,0,,,,,,,,,0,0,0,0,0,11,11,11,4,0,4,0,,,,,,,,,,,,,,,,,,,,,,,,,,,,,,,,,,,,,,,,,,,,,,,,,,,,,,,,,,,,,,,,30,,,,,,,,3909.0267692999914,3909.0267692999914,3909.0267692999914,3909.0267692999914,3909.0267692999914,down,0.326375599950552,1,0,0,99,-0.16,-0.32,down,0.24908050056546926,,,,,,,,,,,,,,,,,,,,,,,,,,,,,,,,,,,,,,,,,,,,,,,,,,,,,3552GW,train_y,blue_star,bottom_left,2025-02-19_16h00.41.353,HideSeek_v1,2022.2.5,59.915794273504154,
,0,0,0,0,0,0,61,,train_dim1_1,12,30,,,,2,0,2,0,,,,,,,,,0,0,0,0,0,11,11,11,5,0,5,0,,,,,,,,,,,,,,,,,,,,,,,,,,,,,,,,,,,,,,,,,,,,,,,,,,,,,,,,,,,,,,,,30,,,,,,,,3909.3593572000973,3909.3593572000973,3909.3593572000973,3909.3593572000973,3909.3593572000973,right,0.7768773003481328,1,0,0,99,-0.08,-0.32,right,0.7039580005221069,,,,,,,,,,,,,,,,,,,,,,,,,,,,,,,,,,,,,,,,,,,,,,,,,,,,,3552GW,train_y,blue_star,bottom_left,2025-02-19_16h00.41.353,HideSeek_v1,2022.2.5,59.915794273504154,
,0,0,0,0,0,0,61,,train_dim1_1,12,30,,,,2,0,2,0,,,,,,,,,0,0,0,0,0,11,11,11,6,0,6,0,,,,,,,,,,,,,,,,,,,,,,,,,,,,,,,,,,,,,,,,,,,,,,,,,,,,,,,,,,,,,,,,30,,,,,,,,3910.143645499833,3910.143645499833,3910.143645499833,3910.143645499833,3910.143645499833,right,0.4765043999068439,1,0,0,99,0.0,-0.32,right,0.38825140055269003,,,,,,,,,,,,,,,,,,,,,,,,,,,,,,,,,,,,,,,,,,,,,,,,,,,,,3552GW,train_y,blue_star,bottom_left,2025-02-19_16h00.41.353,HideSeek_v1,2022.2.5,59.915794273504154,
,0,0,0,0,0,0,61,,train_dim1_1,12,30,,,,2,0,2,0,,,,,,,,,0,0,0,0,0,11,11,11,7,0,7,0,,,,,,,,,,,,,,,,,,,,,,,,,,,,,,,,,,,,,,,,,,,,,,,,,,,,,,,,,,,,,,,,30,,,,,,,,3910.62680489989,3910.62680489989,3910.62680489989,3910.62680489989,3910.62680489989,right,0.4271569000557065,1,0,0,99,0.08,-0.32,right,0.3523132004775107,,,,,,,,,,,,,,,,,,,,,,,,,,,,,,,,,,,,,,,,,,,,,,,,,,,,,3552GW,train_y,blue_star,bottom_left,2025-02-19_16h00.41.353,HideSeek_v1,2022.2.5,59.915794273504154,
,0,0,0,0,0,0,61,,train_dim1_1,12,30,,,,2,0,2,0,,,,,,,,,0,0,0,0,0,11,11,11,8,0,8,0,,,,,,,,,,,,,,,,,,,,,,,,,,,,,,,,,,,,,,,,,,,,,,,,,,,,,,,,,,,,,,,,30,,,,,,,,3911.060950399842,3911.060950399842,3911.060950399842,3911.060950399842,3911.060950399842,right,0.860083700157702,1,0,0,99,0.16,-0.32,right,0.7863070005550981,,,,,,,,,,,,,,,,,,,,,,,,,,,,,,,,,,,,,,,,,,,,,,,,,,,,,3552GW,train_y,blue_star,bottom_left,2025-02-19_16h00.41.353,HideSeek_v1,2022.2.5,59.915794273504154,
,0,0,0,0,0,0,61,,train_dim1_1,12,30,,,,2,0,2,0,,,,,,,,,0,0,0,0,0,11,11,11,9,0,9,0,,,,,,,,,,,,,,,,,,,,,,,,,,,,,,,,,,,,,,,,,,,,,,,,,,,,,,,,,,,,,,,,30,,,,,,,,3911.9289007000625,3911.9289007000625,3911.9289007000625,3911.9289007000625,3911.9289007000625,down,0.7263977001421154,1,0,0,99,0.16,-0.4,down,0.643397600390017,,,,,,,,,,,,,,,,,,,,,,,,,,,,,,,,,,,,,,,,,,,,,,,,,,,,,3552GW,train_y,blue_star,bottom_left,2025-02-19_16h00.41.353,HideSeek_v1,2022.2.5,59.915794273504154,
,0,0,0,0,0,0,61,,train_dim1_1,12,30,,,,2,0,2,0,,,,,,,,,0,0,0,0,0,11,11,11,10,0,10,0,,,,,,,,,,,,,,,,,,,,,,,,,,,,,,,,,,,,,,,,,,,,,,,,,,,,,,,,,,,,,,,,30,,,,,,,,3912.6622248999774,3912.6622248999774,3912.6622248999774,3912.6622248999774,3912.6622248999774,return,0.7936281999573112,1,0,0,0,0.16,-0.4,return,0.7132674003951252,11,11,0.16,-0.4,,,,,,,,,,,,,,,,,,,,,,,,,,,,,,,,,,,,,,,,,,,,,,,,,3552GW,train_y,blue_star,bottom_left,2025-02-19_16h00.41.353,HideSeek_v1,2022.2.5,59.915794273504154,
,4,3,4,4,0,1,62,,train_dim1_1,13,30,,,,2,0,2,0,,,,,,,,,0,0,0,0,0,12,12,12,0,0,0,0,,,,,,,,,,,,,,,,,,,,,,,,,stimuli/alien_stimuli/62.png,,,,,,,,,,,,,,,,,,,,,,,,,,,,,stimuli/alien_stimuli/61.png,61,0,14,,,,,,,30,,,,,,,,3919.6397575996816,3919.6397575996816,3919.6397575996816,3919.6397575996816,3919.6397575996816,up,2.4572789003141224,1,0,0,99,0.16,-0.08,up,2.3838147004134953,,,,,3918.0869780997746,3919.6397575996816,-0.16,-0.4,0.0,0.0,-0.4,-0.16,-0.16,-0.16,-0.4,3915.0266737998463,3915.0266737998463,3915.0266737998463,3915.0266737998463,3915.0266737998463,3915.0266737998463,3915.0266737998463,3915.0266737998463,3915.017822819622,3.1713192998431623,return,3.0370712000876665,,,,,,,,,,,,,,,,,,,,,,,,,,3552GW,train_y,blue_star,bottom_left,2025-02-19_16h00.41.353,HideSeek_v1,2022.2.5,59.915794273504154,
,4,3,4,4,0,1,62,,train_dim1_1,13,30,,,,2,0,2,0,,,,,,,,,0,0,0,0,0,12,12,12,1,0,1,0,,,,,,,,,,,,,,,,,,,,,,,,,,,,,,,,,,,,,,,,,,,,,,,,,,,,,,,,,,,,,,,,30,,,,,,,,3922.1029678997584,3922.1029678997584,3922.1029678997584,3922.1029678997584,3922.1029678997584,up,0.943522300105542,1,0,0,99,0.16,0.0,up,0.8618880002759397,,,,,,,,,,,,,,,,,,,,,,,,,,,,,,,,,,,,,,,,,,,,,,,,,,,,,3552GW,train_y,blue_star,bottom_left,2025-02-19_16h00.41.353,HideSeek_v1,2022.2.5,59.915794273504154,
,4,3,4,4,0,1,62,,train_dim1_1,13,30,,,,2,0,2,0,,,,,,,,,0,0,0,0,0,12,12,12,2,0,2,0,,,,,,,,,,,,,,,,,,,,,,,,,,,,,,,,,,,,,,,,,,,,,,,,,,,,,,,,,,,,,,,,30,,,,,,,,3923.0538051999174,3923.0538051999174,3923.0538051999174,3923.0538051999174,3923.0538051999174,up,0.4266662001609802,1,0,0,99,0.16,0.08,up,0.3552755005657673,,,,,,,,,,,,,,,,,,,,,,,,,,,,,,,,,,,,,,,,,,,,,,,,,,,,,3552GW,train_y,blue_star,bottom_left,2025-02-19_16h00.41.353,HideSeek_v1,2022.2.5,59.915794273504154,
,4,3,4,4,0,1,62,,train_dim1_1,13,30,,,,2,0,2,0,,,,,,,,,0,0,0,0,0,12,12,12,3,0,3,0,,,,,,,,,,,,,,,,,,,,,,,,,,,,,,,,,,,,,,,,,,,,,,,,,,,,,,,,,,,,,,,,30,,,,,,,,3923.487414499745,3923.487414499745,3923.487414499745,3923.487414499745,3923.487414499745,up,1.1109712002798915,1,0,0,99,0.16,0.16,up,1.0367079004645348,,,,,,,,,,,,,,,,,,,,,,,,,,,,,,,,,,,,,,,,,,,,,,,,,,,,,3552GW,train_y,blue_star,bottom_left,2025-02-19_16h00.41.353,HideSeek_v1,2022.2.5,59.915794273504154,
,4,3,4,4,0,1,62,,train_dim1_1,13,30,,,,2,0,2,0,,,,,,,,,0,0,0,0,0,12,12,12,4,0,4,0,,,,,,,,,,,,,,,,,,,,,,,,,,,,,,,,,,,,,,,,,,,,,,,,,,,,,,,,,,,,,,,,30,,,,,,,,3924.605534200091,3924.605534200091,3924.605534200091,3924.605534200091,3924.605534200091,return,0.5936882998794317,1,0,0,0,0.16,0.16,return,0.5117784002795815,15,11,0.16,0.16,,,,,,,,,,,,,,,,,,,,,,,,,,,,,,,,,,,,,,,,,,,,,,,,,3552GW,train_y,blue_star,bottom_left,2025-02-19_16h00.41.353,HideSeek_v1,2022.2.5,59.915794273504154,
,2,2,2,7,0,5,66,,train_dim1_1,14,30,,,,2,0,2,0,,,,,,,,,0,0,0,0,0,13,13,13,0,0,0,0,,,,,,,,,,,,,,,,,,,,,,,,,stimuli/alien_stimuli/66.png,,,,,,,,,,,,,,,,,,,,,,,,,,,,,stimuli/alien_stimuli/62.png,62,4,15,,,,,,,30,,,,,,,,3930.832404300105,3930.832404300105,3930.832404300105,3930.832404300105,3930.832404300105,right,1.172000200022012,1,0,0,99,0.08,-0.24,right,1.0902714002877474,,,,,3929.2796251000836,3930.832404300105,0.16,-0.08,0.08,0.0,-0.12,0.16,0.16,0.16,-0.08,3926.7669170997106,3926.7669170997106,3926.7669170997106,3926.7669170997106,3926.7669170997106,3926.7669170997106,3926.7669170997106,3926.7669170997106,3926.7607683198057,2.6215762002393603,return,2.4895095005631447,,,,,,,,,,,,,,,,,,,,,,,,,,3552GW,train_y,blue_star,bottom_left,2025-02-19_16h00.41.353,HideSeek_v1,2022.2.5,59.915794273504154,
,2,2,2,7,0,5,66,,train_dim1_1,14,30,,,,2,0,2,0,,,,,,,,,0,0,0,0,0,13,13,13,1,0,1,0,,,,,,,,,,,,,,,,,,,,,,,,,,,,,,,,,,,,,,,,,,,,,,,,,,,,,,,,,,,,,,,,30,,,,,,,,3932.011736100074,3932.011736100074,3932.011736100074,3932.011736100074,3932.011736100074,right,0.542660600040108,1,0,0,99,0.16,-0.24,right,0.4664915003813803,,,,,,,,,,,,,,,,,,,,,,,,,,,,,,,,,,,,,,,,,,,,,,,,,,,,,3552GW,train_y,blue_star,bottom_left,2025-02-19_16h00.41.353,HideSeek_v1,2022.2.5,59.915794273504154,
,2,2,2,7,0,5,66,,train_dim1_1,14,30,,,,2,0,2,0,,,,,,,,,0,0,0,0,0,13,13,13,2,0,2,0,,,,,,,,,,,,,,,,,,,,,,,,,,,,,,,,,,,,,,,,,,,,,,,,,,,,,,,,,,,,,,,,30,,,,,,,,3932.561641499866,3932.561641499866,3932.561641499866,3932.561641499866,3932.561641499866,right,0.3936188002116978,1,0,0,99,0.24,-0.24,right,0.322036100551486,,,,,,,,,,,,,,,,,,,,,,,,,,,,,,,,,,,,,,,,,,,,,,,,,,,,,3552GW,train_y,blue_star,bottom_left,2025-02-19_16h00.41.353,HideSeek_v1,2022.2.5,59.915794273504154,
,2,2,2,7,0,5,66,,train_dim1_1,14,30,,,,2,0,2,0,,,,,,,,,0,0,0,0,0,13,13,13,3,0,3,0,,,,,,,,,,,,,,,,,,,,,,,,,,,,,,,,,,,,,,,,,,,,,,,,,,,,,,,,,,,,,,,,30,,,,,,,,3932.9621760998853,3932.9621760998853,3932.9621760998853,3932.9621760998853,3932.9621760998853,right,0.3433064999990165,1,0,0,99,0.32,-0.24,right,0.2662918004207313,,,,,,,,,,,,,,,,,,,,,,,,,,,,,,,,,,,,,,,,,,,,,,,,,,,,,3552GW,train_y,blue_star,bottom_left,2025-02-19_16h00.41.353,HideSeek_v1,2022.2.5,59.915794273504154,
,2,2,2,7,0,5,66,,train_dim1_1,14,30,,,,2,0,2,0,,,,,,,,,0,0,0,0,0,13,13,13,4,0,4,0,,,,,,,,,,,,,,,,,,,,,,,,,,,,,,,,,,,,,,,,,,,,,,,,,,,,,,,,,,,,,,,,30,,,,,,,,3933.3129413998686,3933.3129413998686,3933.3129413998686,3933.3129413998686,3933.3129413998686,right,1.5605012997984886,1,0,0,99,0.4,-0.24,right,1.4725993005558848,,,,,,,,,,,,,,,,,,,,,,,,,,,,,,,,,,,,,,,,,,,,,,,,,,,,,3552GW,train_y,blue_star,bottom_left,2025-02-19_16h00.41.353,HideSeek_v1,2022.2.5,59.915794273504154,
,2,2,2,7,0,5,66,,train_dim1_1,14,30,,,,2,0,2,0,,,,,,,,,0,0,0,0,0,13,13,13,5,0,5,0,,,,,,,,,,,,,,,,,,,,,,,,,,,,,,,,,,,,,,,,,,,,,,,,,,,,,,,,,,,,,,,,30,,,,,,,,3934.881175499875,3934.881175499875,3934.881175499875,3934.881175499875,3934.881175499875,return,0.6101494999602437,1,0,0,0,0.4,-0.24,return,0.5362411006353796,15,16,0.4,-0.24,,,,,,,,,,,,,,,,,,,,,,,,,,,,,,,,,,,,,,,,,,,,,,,,,3552GW,train_y,blue_star,bottom_left,2025-02-19_16h00.41.353,HideSeek_v1,2022.2.5,59.915794273504154,
,1,4,1,7,0,3,64,,train_dim1_1,15,30,,,,2,0,2,0,,,,,,,,,0,0,0,0,0,14,14,14,0,0,0,0,,,,,,,,,,,,,,,,,,,,,,,,,stimuli/alien_stimuli/64.png,,,,,,,,,,,,,,,,,,,,,,,,,,,,,stimuli/alien_stimuli/66.png,66,2,16,,,,,,,30,,,,,,,,3940.8555267998017,3940.8555267998017,3940.8555267998017,3940.8555267998017,3940.8555267998017,down,2.6911907996982336,1,0,0,99,-0.08,-0.16,down,2.6045803003944457,,,,,3939.3046963997185,3940.8555267998017,0,0.16,0.4,0.0,-0.039999999999999994,0,0.0,0,0.16,3937.0586752998643,3937.0586752998643,3937.0586752998643,3937.0586752998643,3937.0586752998643,3937.0586752998643,3937.0586752998643,3937.0586752998643,3937.0526344197333,2.354675800073892,return,2.220597200561315,,,,,,,,,,,,,,,,,,,,,,,,,,3552GW,train_y,blue_star,bottom_left,2025-02-19_16h00.41.353,HideSeek_v1,2022.2.5,59.915794273504154,
,1,4,1,7,0,3,64,,train_dim1_1,15,30,,,,2,0,2,0,,,,,,,,,0,0,0,0,0,14,14,14,1,0,1,0,,,,,,,,,,,,,,,,,,,,,,,,,,,,,,,,,,,,,,,,,,,,,,,,,,,,,,,,,,,,,,,,30,,,,,,,,3943.553874100093,3943.553874100093,3943.553874100093,3943.553874100093,3943.553874100093,down,0.3097100998274982,1,0,0,99,-0.08,-0.24,down,0.23787180054932833,,,,,,,,,,,,,,,,,,,,,,,,,,,,,,,,,,,,,,,,,,,,,,,,,,,,,3552GW,train_y,blue_star,bottom_left,2025-02-19_16h00.41.353,HideSeek_v1,2022.2.5,59.915794273504154,
,1,4,1,7,0,3,64,,train_dim1_1,15,30,,,,2,0,2,0,,,,,,,,,0,0,0,0,0,14,14,14,2,0,2,0,,,,,,,,,,,,,,,,,,,,,,,,,,,,,,,,,,,,,,,,,,,,,,,,,,,,,,,,,,,,,,,,30,,,,,,,,3943.871387099847,3943.871387099847,3943.871387099847,3943.871387099847,3943.871387099847,down,0.30981489969417453,1,0,0,99,-0.08,-0.32,down,0.2255816999822855,,,,,,,,,,,,,,,,,,,,,,,,,,,,,,,,,,,,,,,,,,,,,,,,,,,,,3552GW,train_y,blue_star,bottom_left,2025-02-19_16h00.41.353,HideSeek_v1,2022.2.5,59.915794273504154,
,1,4,1,7,0,3,64,,train_dim1_1,15,30,,,,2,0,2,0,,,,,,,,,0,0,0,0,0,14,14,14,3,0,3,0,,,,,,,,,,,,,,,,,,,,,,,,,,,,,,,,,,,,,,,,,,,,,,,,,,,,,,,,,,,,,,,,30,,,,,,,,3944.187966299709,3944.187966299709,3944.187966299709,3944.187966299709,3944.187966299709,down,0.9101482997648418,1,0,0,99,-0.08,-0.4,down,0.8334656003862619,,,,,,,,,,,,,,,,,,,,,,,,,,,,,,,,,,,,,,,,,,,,,,,,,,,,,3552GW,train_y,blue_star,bottom_left,2025-02-19_16h00.41.353,HideSeek_v1,2022.2.5,59.915794273504154,
,1,4,1,7,0,3,64,,train_dim1_1,15,30,,,,2,0,2,0,,,,,,,,,0,0,0,0,0,14,14,14,4,0,4,0,,,,,,,,,,,,,,,,,,,,,,,,,,,,,,,,,,,,,,,,,,,,,,,,,,,,,,,,,,,,,,,,30,,,,,,,,3945.1059290999547,3945.1059290999547,3945.1059290999547,3945.1059290999547,3945.1059290999547,return,0.8435395997948945,1,0,0,0,-0.08,-0.4,return,0.7668396001681685,11,16,-0.08,-0.4,,,,,,,,,,,,,,,,,,,,,,,,,,,,,,,,,,,,,,,,,,,,,,,,,3552GW,train_y,blue_star,bottom_left,2025-02-19_16h00.41.353,HideSeek_v1,2022.2.5,59.915794273504154,
,4,0,4,4,0,4,65,,train_dim1_1,16,30,,,,2,0,2,0,,,,,,,,,0,0,0,0,0,15,15,15,0,0,0,0,,,,,,,,,,,,,,,,,,,,,,,,,stimuli/alien_stimuli/65.png,,,,,,,,,,,,,,,,,,,,,,,,,,,,,stimuli/alien_stimuli/64.png,64,1,17,,,,,,,30,,,,,,,,3958.9222456999123,3958.9222456999123,3958.9222456999123,3958.9222456999123,3958.9222456999123,right,3.0752274999395013,1,0,0,99,0.24,-0.4,right,2.969239000696689,,,,,3957.353019599803,3958.9222456999123,-0.08,0.16,0.24,0.0,0.04,-0.08,-0.08,-0.08,0.16,3947.519299299922,3947.519299299922,3947.519299299922,3947.519299299922,3947.519299299922,3947.519299299922,3947.519299299922,3947.519299299922,3947.511271019792,9.943836600054055,return,9.802303200121969,,,,,,,,,,,,,,,,,,,,,,,,,,3552GW,train_y,blue_star,bottom_left,2025-02-19_16h00.41.353,HideSeek_v1,2022.2.5,59.915794273504154,
,4,0,4,4,0,4,65,,train_dim1_1,16,30,,,,2,0,2,0,,,,,,,,,0,0,0,0,0,15,15,15,1,0,1,0,,,,,,,,,,,,,,,,,,,,,,,,,,,,,,,,,,,,,,,,,,,,,,,,,,,,,,,,,,,,,,,,30,,,,,,,,3961.986748999916,3961.986748999916,3961.986748999916,3961.986748999916,3961.986748999916,right,0.3427472999319434,1,0,0,99,0.32,-0.4,right,0.2627422004006803,,,,,,,,,,,,,,,,,,,,,,,,,,,,,,,,,,,,,,,,,,,,,,,,,,,,,3552GW,train_y,blue_star,bottom_left,2025-02-19_16h00.41.353,HideSeek_v1,2022.2.5,59.915794273504154,
,4,0,4,4,0,4,65,,train_dim1_1,16,30,,,,2,0,2,0,,,,,,,,,0,0,0,0,0,15,15,15,2,0,2,0,,,,,,,,,,,,,,,,,,,,,,,,,,,,,,,,,,,,,,,,,,,,,,,,,,,,,,,,,,,,,,,,30,,,,,,,,3962.3373742997646,3962.3373742997646,3962.3373742997646,3962.3373742997646,3962.3373742997646,right,0.37684009969234467,1,0,0,99,0.4,-0.4,right,0.2922397004440427,,,,,,,,,,,,,,,,,,,,,,,,,,,,,,,,,,,,,,,,,,,,,,,,,,,,,3552GW,train_y,blue_star,bottom_left,2025-02-19_16h00.41.353,HideSeek_v1,2022.2.5,59.915794273504154,
,4,0,4,4,0,4,65,,train_dim1_1,16,30,,,,2,0,2,0,,,,,,,,,0,0,0,0,0,15,15,15,3,0,3,0,,,,,,,,,,,,,,,,,,,,,,,,,,,,,,,,,,,,,,,,,,,,,,,,,,,,,,,,,,,,,,,,30,,,,,,,,3962.7200058996677,3962.7200058996677,3962.7200058996677,3962.7200058996677,3962.7200058996677,right,0.39343509962782264,1,0,0,99,0.48000000000000004,-0.4,right,0.317586500197649,,,,,,,,,,,,,,,,,,,,,,,,,,,,,,,,,,,,,,,,,,,,,,,,,,,,,3552GW,train_y,blue_star,bottom_left,2025-02-19_16h00.41.353,HideSeek_v1,2022.2.5,59.915794273504154,
,4,0,4,4,0,4,65,,train_dim1_1,16,30,,,,2,0,2,0,,,,,,,,,0,0,0,0,0,15,15,15,4,0,4,0,,,,,,,,,,,,,,,,,,,,,,,,,,,,,,,,,,,,,,,,,,,,,,,,,,,,,,,,,,,,,,,,30,,,,,,,,3963.1216314998455,3963.1216314998455,3963.1216314998455,3963.1216314998455,3963.1216314998455,right,0.3755592000670731,1,0,0,99,0.56,-0.4,right,0.288669700268656,,,,,,,,,,,,,,,,,,,,,,,,,,,,,,,,,,,,,,,,,,,,,,,,,,,,,3552GW,train_y,blue_star,bottom_left,2025-02-19_16h00.41.353,HideSeek_v1,2022.2.5,59.915794273504154,
,4,0,4,4,0,4,65,,train_dim1_1,16,30,,,,2,0,2,0,,,,,,,,,0,0,0,0,0,15,15,15,5,0,5,0,,,,,,,,,,,,,,,,,,,,,,,,,,,,,,,,,,,,,,,,,,,,,,,,,,,,,,,,,,,,,,,,30,,,,,,,,3963.504120799713,3963.504120799713,3963.504120799713,3963.504120799713,3963.504120799713,return,0.7606421001255512,1,0,0,0,0.56,-0.4,return,0.6837338004261255,11,21,0.56,-0.4,,,,,,,,,,,,,,,,,,,,,,,,,,,,,,,,,,,,,,,,,,,,,,,,,3552GW,train_y,blue_star,bottom_left,2025-02-19_16h00.41.353,HideSeek_v1,2022.2.5,59.915794273504154,
,3,3,3,6,0,3,64,,train_dim1_1,17,30,,,,2,0,2,0,,,,,,,,,0,0,0,0,0,16,16,16,0,0,0,0,,,,,,,,,,,,,,,,,,,,,,,,,stimuli/alien_stimuli/64.png,,,,,,,,,,,,,,,,,,,,,,,,,,,,,stimuli/alien_stimuli/65.png,65,4,18,,,,,,,30,,,,,,,,3969.246226700023,3969.246226700023,3969.246226700023,3969.246226700023,3969.246226700023,up,2.974933600053191,1,0,0,99,0.08,-0.08,up,2.903249100316316,,,,,3967.6949022999033,3969.246226700023,0.16,-0.08,0.32,0.0,-0.24000000000000002,0.16,0.16,0.16,-0.08,3965.8324413998052,3965.8324413998052,3965.8324413998052,3965.8324413998052,3965.8324413998052,3965.8324413998052,3965.8324413998052,3965.8324413998052,3965.8264678198375,1.9708461998961866,return,1.8304793005809188,,,,,,,,,,,,,,,,,,,,,,,,,,3552GW,train_y,blue_star,bottom_left,2025-02-19_16h00.41.353,HideSeek_v1,2022.2.5,59.915794273504154,
,3,3,3,6,0,3,64,,train_dim1_1,17,30,,,,2,0,2,0,,,,,,,,,0,0,0,0,0,16,16,16,1,0,1,0,,,,,,,,,,,,,,,,,,,,,,,,,,,,,,,,,,,,,,,,,,,,,,,,,,,,,,,,,,,,,,,,30,,,,,,,,3972.2306107999757,3972.2306107999757,3972.2306107999757,3972.2306107999757,3972.2306107999757,up,0.3593925000168383,1,0,0,99,0.08,0.0,up,0.27494260016828775,,,,,,,,,,,,,,,,,,,,,,,,,,,,,,,,,,,,,,,,,,,,,,,,,,,,,3552GW,train_y,blue_star,bottom_left,2025-02-19_16h00.41.353,HideSeek_v1,2022.2.5,59.915794273504154,
,3,3,3,6,0,3,64,,train_dim1_1,17,30,,,,2,0,2,0,,,,,,,,,0,0,0,0,0,16,16,16,2,0,2,0,,,,,,,,,,,,,,,,,,,,,,,,,,,,,,,,,,,,,,,,,,,,,,,,,,,,,,,,,,,,,,,,30,,,,,,,,3972.5944066997617,3972.5944066997617,3972.5944066997617,3972.5944066997617,3972.5944066997617,up,0.34330140007659793,1,0,0,99,0.08,0.08,up,0.2665663002990186,,,,,,,,,,,,,,,,,,,,,,,,,,,,,,,,,,,,,,,,,,,,,,,,,,,,,3552GW,train_y,blue_star,bottom_left,2025-02-19_16h00.41.353,HideSeek_v1,2022.2.5,59.915794273504154,
,3,3,3,6,0,3,64,,train_dim1_1,17,30,,,,2,0,2,0,,,,,,,,,0,0,0,0,0,16,16,16,3,0,3,0,,,,,,,,,,,,,,,,,,,,,,,,,,,,,,,,,,,,,,,,,,,,,,,,,,,,,,,,,,,,,,,,30,,,,,,,,3972.9444340998307,3972.9444340998307,3972.9444340998307,3972.9444340998307,3972.9444340998307,up,0.3097351002506912,1,0,0,99,0.08,0.16,up,0.23822630010545254,,,,,,,,,,,,,,,,,,,,,,,,,,,,,,,,,,,,,,,,,,,,,,,,,,,,,3552GW,train_y,blue_star,bottom_left,2025-02-19_16h00.41.353,HideSeek_v1,2022.2.5,59.915794273504154,
,3,3,3,6,0,3,64,,train_dim1_1,17,30,,,,2,0,2,0,,,,,,,,,0,0,0,0,0,16,16,16,4,0,4,0,,,,,,,,,,,,,,,,,,,,,,,,,,,,,,,,,,,,,,,,,,,,,,,,,,,,,,,,,,,,,,,,30,,,,,,,,3973.261684199795,3973.261684199795,3973.261684199795,3973.261684199795,3973.261684199795,return,0.8934120000340044,1,1,0,0,0.08,0.16,return,0.8229615003801882,15,21,0.08,0.16,,,,,,,,,,,,,,,,,,,,,,,,,,,,,,,,,,,,,,,,,,,,,,,,,3552GW,train_y,blue_star,bottom_left,2025-02-19_16h00.41.353,HideSeek_v1,2022.2.5,59.915794273504154,
,2,1,2,1,0,0,61,,train_dim1_1,18,30,,,,2,0,2,0,,,,,,,,,0,0,0,0,0,17,17,17,0,0,0,0,,,,,,,,,,,,,,,,,,,,,,,,,stimuli/alien_stimuli/61.png,,,,,,,,,,,,,,,,,,,,,,,,,,,,,stimuli/alien_stimuli/64.png,64,3,19,,,,,,,30,,,,,,,,3979.471004900057,3979.471004900057,3979.471004900057,3979.471004900057,3979.471004900057,right,1.506923499982804,1,1,0,99,0.08,-0.32,right,1.4243363002315164,,,,,3977.92012459971,3979.471004900057,0.08,0.08,0.24,0.0,-0.04,0.08,0.08,0.08,0.08,3975.723087700084,3975.723087700084,3975.723087700084,3975.723087700084,3975.723087700084,3975.723087700084,3975.723087700084,3975.723087700084,3975.718254419835,2.30416649999097,return,2.167091900482774,,,,,,,,,,,,,,,,,,,,,,,,,,3552GW,train_y,blue_star,bottom_left,2025-02-19_16h00.41.353,HideSeek_v1,2022.2.5,59.915794273504154,
,2,1,2,1,0,0,61,,train_dim1_1,18,30,,,,2,0,2,0,,,,,,,,,0,0,0,0,0,17,17,17,1,0,1,0,,,,,,,,,,,,,,,,,,,,,,,,,,,,,,,,,,,,,,,,,,,,,,,,,,,,,,,,,,,,,,,,30,,,,,,,,3980.985320799984,3980.985320799984,3980.985320799984,3980.985320799984,3980.985320799984,right,0.35966610023751855,1,1,0,99,0.16,-0.32,right,0.27546240016818047,,,,,,,,,,,,,,,,,,,,,,,,,,,,,,,,,,,,,,,,,,,,,,,,,,,,,3552GW,train_y,blue_star,bottom_left,2025-02-19_16h00.41.353,HideSeek_v1,2022.2.5,59.915794273504154,
,2,1,2,1,0,0,61,,train_dim1_1,18,30,,,,2,0,2,0,,,,,,,,,0,0,0,0,0,17,17,17,2,0,2,0,,,,,,,,,,,,,,,,,,,,,,,,,,,,,,,,,,,,,,,,,,,,,,,,,,,,,,,,,,,,,,,,30,,,,,,,,3981.352615599986,3981.352615599986,3981.352615599986,3981.352615599986,3981.352615599986,right,0.34320730017498136,1,1,0,99,0.24,-0.32,right,0.26707160007208586,,,,,,,,,,,,,,,,,,,,,,,,,,,,,,,,,,,,,,,,,,,,,,,,,,,,,3552GW,train_y,blue_star,bottom_left,2025-02-19_16h00.41.353,HideSeek_v1,2022.2.5,59.915794273504154,
,2,1,2,1,0,0,61,,train_dim1_1,18,30,,,,2,0,2,0,,,,,,,,,0,0,0,0,0,17,17,17,3,0,3,0,,,,,,,,,,,,,,,,,,,,,,,,,,,,,,,,,,,,,,,,,,,,,,,,,,,,,,,,,,,,,,,,30,,,,,,,,3981.702448199969,3981.702448199969,3981.702448199969,3981.702448199969,3981.702448199969,right,0.2596800001338124,1,1,0,99,0.32,-0.32,right,0.17563620023429394,,,,,,,,,,,,,,,,,,,,,,,,,,,,,,,,,,,,,,,,,,,,,,,,,,,,,3552GW,train_y,blue_star,bottom_left,2025-02-19_16h00.41.353,HideSeek_v1,2022.2.5,59.915794273504154,
,2,1,2,1,0,0,61,,train_dim1_1,18,30,,,,2,0,2,0,,,,,,,,,0,0,0,0,0,17,17,17,4,0,4,0,,,,,,,,,,,,,,,,,,,,,,,,,,,,,,,,,,,,,,,,,,,,,,,,,,,,,,,,,,,,,,,,30,,,,,,,,3981.969856800046,3981.969856800046,3981.969856800046,3981.969856800046,3981.969856800046,return,1.8946539000608027,1,0,0,0,0.32,-0.32,return,1.8183557004667819,15,25,0.32,-0.32,,,,,,,,,,,,,,,,,,,,,,,,,,,,,,,,,,,,,,,,,,,,,,,,,3552GW,train_y,blue_star,bottom_left,2025-02-19_16h00.41.353,HideSeek_v1,2022.2.5,59.915794273504154,
,0,4,0,5,0,1,62,,train_dim1_1,19,30,,,,2,0,2,0,,,,,,,,,0,0,0,0,0,18,18,18,0,0,0,0,,,,,,,,,,,,,,,,,,,,,,,,,stimuli/alien_stimuli/62.png,,,,,,,,,,,,,,,,,,,,,,,,,,,,,stimuli/alien_stimuli/61.png,61,2,20,,,,,,,30,,,,,,,,3988.7965074996464,3988.7965074996464,3988.7965074996464,3988.7965074996464,3988.7965074996464,down,2.0240636998787522,1,0,0,99,-0.16,-0.16,down,1.9445186001248658,,,,,3987.2442103996873,3988.7965074996464,0,-0.32,0.0,0.0,-0.32,0,0.0,0,-0.32,3985.4319338998757,3985.4319338998757,3985.4319338998757,3985.4319338998757,3985.4319338998757,3985.4319338998757,3985.4319338998757,3985.4319338998757,3985.426328919688,1.9204894001595676,return,1.7917083003558218,,,,,,,,,,,,,,,,,,,,,,,,,,3552GW,train_y,blue_star,bottom_left,2025-02-19_16h00.41.353,HideSeek_v1,2022.2.5,59.915794273504154,
,0,4,0,5,0,1,62,,train_dim1_1,19,30,,,,2,0,2,0,,,,,,,,,0,0,0,0,0,18,18,18,1,0,1,0,,,,,,,,,,,,,,,,,,,,,,,,,,,,,,,,,,,,,,,,,,,,,,,,,,,,,,,,,,,,,,,,30,,,,,,,,3990.827681900002,3990.827681900002,3990.827681900002,3990.827681900002,3990.827681900002,down,0.39235279988497496,1,0,0,99,-0.16,-0.24,down,0.3100758004002273,,,,,,,,,,,,,,,,,,,,,,,,,,,,,,,,,,,,,,,,,,,,,,,,,,,,,3552GW,train_y,blue_star,bottom_left,2025-02-19_16h00.41.353,HideSeek_v1,2022.2.5,59.915794273504154,
,0,4,0,5,0,1,62,,train_dim1_1,19,30,,,,2,0,2,0,,,,,,,,,0,0,0,0,0,18,18,18,2,0,2,0,,,,,,,,,,,,,,,,,,,,,,,,,,,,,,,,,,,,,,,,,,,,,,,,,,,,,,,,,,,,,,,,30,,,,,,,,3991.2274122997187,3991.2274122997187,3991.2274122997187,3991.2274122997187,3991.2274122997187,down,0.34280649991706014,1,0,0,99,-0.16,-0.32,down,0.26330400025472045,,,,,,,,,,,,,,,,,,,,,,,,,,,,,,,,,,,,,,,,,,,,,,,,,,,,,3552GW,train_y,blue_star,bottom_left,2025-02-19_16h00.41.353,HideSeek_v1,2022.2.5,59.915794273504154,
,0,4,0,5,0,1,62,,train_dim1_1,19,30,,,,2,0,2,0,,,,,,,,,0,0,0,0,0,18,18,18,3,0,3,0,,,,,,,,,,,,,,,,,,,,,,,,,,,,,,,,,,,,,,,,,,,,,,,,,,,,,,,,,,,,,,,,30,,,,,,,,3991.5778604000807,3991.5778604000807,3991.5778604000807,3991.5778604000807,3991.5778604000807,return,1.2108005001209676,1,0,0,0,-0.16,-0.32,return,1.1386127001605928,12,25,-0.16,-0.32,,,,,,,,,,,,,,,,,,,,,,,,,,,,,,,,,,,,,,,,,,,,,,,,,3552GW,train_y,blue_star,bottom_left,2025-02-19_16h00.41.353,HideSeek_v1,2022.2.5,59.915794273504154,
,2,0,2,5,0,5,66,,train_dim1_1,20,30,,,,2,0,2,0,,,,,,,,,0,0,0,0,0,19,19,19,0,0,0,0,,,,,,,,,,,,,,,,,,,,,,,,,stimuli/alien_stimuli/66.png,,,,,,,,,,,,,,,,,,,,,,,,,,,,,stimuli/alien_stimuli/62.png,62,0,21,,,,,,,30,,,,,,,,3997.4352647000924,3997.4352647000924,3997.4352647000924,3997.4352647000924,3997.4352647000924,right,1.5737787000834942,1,0,0,99,0.08,-0.4,right,1.4983935002237558,,,,,3995.8849915997125,3997.4352647000924,-0.16,0,0.08,0.0,-0.04,-0.16,-0.16,-0.16,0,3994.358584899921,3994.358584899921,3994.358584899921,3994.358584899921,3994.358584899921,3994.358584899921,3994.358584899921,3994.358584899921,3994.3502531199247,1.637332500424236,return,1.510634200181812,,,,,,,,,,,,,,,,,,,,,,,,,,3552GW,train_y,blue_star,bottom_left,2025-02-19_16h00.41.353,HideSeek_v1,2022.2.5,59.915794273504154,
,2,0,2,5,0,5,66,,train_dim1_1,20,30,,,,2,0,2,0,,,,,,,,,0,0,0,0,0,19,19,19,1,0,1,0,,,,,,,,,,,,,,,,,,,,,,,,,,,,,,,,,,,,,,,,,,,,,,,,,,,,,,,,,,,,,,,,30,,,,,,,,3999.01669819979,3999.01669819979,3999.01669819979,3999.01669819979,3999.01669819979,right,0.3927511000074446,1,0,0,99,0.16,-0.4,right,0.32196940016001463,,,,,,,,,,,,,,,,,,,,,,,,,,,,,,,,,,,,,,,,,,,,,,,,,,,,,3552GW,train_y,blue_star,bottom_left,2025-02-19_16h00.41.353,HideSeek_v1,2022.2.5,59.915794273504154,
,2,0,2,5,0,5,66,,train_dim1_1,20,30,,,,2,0,2,0,,,,,,,,,0,0,0,0,0,19,19,19,2,0,2,0,,,,,,,,,,,,,,,,,,,,,,,,,,,,,,,,,,,,,,,,,,,,,,,,,,,,,,,,,,,,,,,,30,,,,,,,,3999.4175839996897,3999.4175839996897,3999.4175839996897,3999.4175839996897,3999.4175839996897,right,0.34343580016866326,1,0,0,99,0.24,-0.4,right,0.2632331005297601,,,,,,,,,,,,,,,,,,,,,,,,,,,,,,,,,,,,,,,,,,,,,,,,,,,,,3552GW,train_y,blue_star,bottom_left,2025-02-19_16h00.41.353,HideSeek_v1,2022.2.5,59.915794273504154,
,2,0,2,5,0,5,66,,train_dim1_1,20,30,,,,2,0,2,0,,,,,,,,,0,0,0,0,0,19,19,19,3,0,3,0,,,,,,,,,,,,,,,,,,,,,,,,,,,,,,,,,,,,,,,,,,,,,,,,,,,,,,,,,,,,,,,,30,,,,,,,,3999.766745599918,3999.766745599918,3999.766745599918,3999.766745599918,3999.766745599918,right,0.3266867999918759,1,0,0,99,0.32,-0.4,right,0.24723250046372414,,,,,,,,,,,,,,,,,,,,,,,,,,,,,,,,,,,,,,,,,,,,,,,,,,,,,3552GW,train_y,blue_star,bottom_left,2025-02-19_16h00.41.353,HideSeek_v1,2022.2.5,59.915794273504154,
,2,0,2,5,0,5,66,,train_dim1_1,20,30,,,,2,0,2,0,,,,,,,,,0,0,0,0,0,19,19,19,4,0,4,0,,,,,,,,,,,,,,,,,,,,,,,,,,,,,,,,,,,,,,,,,,,,,,,,,,,,,,,,,,,,,,,,30,,,,,,,,4000.10135409981,4000.10135409981,4000.10135409981,4000.10135409981,4000.10135409981,right,0.6432966999709606,1,0,0,99,0.4,-0.4,right,0.560969500336796,,,,,,,,,,,,,,,,,,,,,,,,,,,,,,,,,,,,,,,,,,,,,,,,,,,,,3552GW,train_y,blue_star,bottom_left,2025-02-19_16h00.41.353,HideSeek_v1,2022.2.5,59.915794273504154,
,2,0,2,5,0,5,66,,train_dim1_1,20,30,,,,2,0,2,0,,,,,,,,,0,0,0,0,0,19,19,19,5,0,5,0,,,,,,,,,,,,,,,,,,,,,,,,,,,,,,,,,,,,,,,,,,,,,,,,,,,,,,,,,,,,,,,,30,,,,,,,,4000.751997199841,4000.751997199841,4000.751997199841,4000.751997199841,4000.751997199841,return,2.4951768997125328,1,0,0,0,0.4,-0.4,return,2.4133050004020333,12,30,0.4,-0.4,,,,,,,,,,,,,,,,,,,,,,,,,,,,,,,,,,,,,,,,,,,,,,,,,3552GW,train_y,blue_star,bottom_left,2025-02-19_16h00.41.353,HideSeek_v1,2022.2.5,59.915794273504154,
,2,4,2,8,0,4,65,,train_dim1_1,21,30,,,,2,0,2,0,,,,,,,,,0,0,0,0,0,20,20,20,0,0,0,0,,,,,,,,,,,,,,,,,,,,,,,,,stimuli/alien_stimuli/65.png,,,,,,,,,,,,,,,,,,,,,,,,,,,,,stimuli/alien_stimuli/66.png,66,2,22,,,,,,,30,,,,,,,,4008.712361499667,4008.712361499667,4008.712361499667,4008.712361499667,4008.712361499667,down,1.3231534999795258,1,0,0,99,0,-0.16,down,1.2381225004792213,,,,,4007.160870200023,4008.712361499667,0,0,0.4,0.0,-0.2,0,0.0,0,0,4004.8120287996717,4004.8120287996717,4004.8120287996717,4004.8120287996717,4004.8120287996717,4004.8120287996717,4004.8120287996717,4004.8120287996717,4004.808852619817,2.4545788997784257,return,2.3190961005166173,,,,,,,,,,,,,,,,,,,,,,,,,,3552GW,train_y,blue_star,bottom_left,2025-02-19_16h00.41.353,HideSeek_v1,2022.2.5,59.915794273504154,
,2,4,2,8,0,4,65,,train_dim1_1,21,30,,,,2,0,2,0,,,,,,,,,0,0,0,0,0,20,20,20,1,0,1,0,,,,,,,,,,,,,,,,,,,,,,,,,,,,,,,,,,,,,,,,,,,,,,,,,,,,,,,,,,,,,,,,30,,,,,,,,4010.042389899958,4010.042389899958,4010.042389899958,4010.042389899958,4010.042389899958,down,0.46005709981545806,1,0,0,99,0,-0.24,down,0.3762545003555715,,,,,,,,,,,,,,,,,,,,,,,,,,,,,,,,,,,,,,,,,,,,,,,,,,,,,3552GW,train_y,blue_star,bottom_left,2025-02-19_16h00.41.353,HideSeek_v1,2022.2.5,59.915794273504154,
,2,4,2,8,0,4,65,,train_dim1_1,21,30,,,,2,0,2,0,,,,,,,,,0,0,0,0,0,20,20,20,2,0,2,0,,,,,,,,,,,,,,,,,,,,,,,,,,,,,,,,,,,,,,,,,,,,,,,,,,,,,,,,,,,,,,,,30,,,,,,,,4010.5095720998943,4010.5095720998943,4010.5095720998943,4010.5095720998943,4010.5095720998943,down,0.34320490015670657,1,0,0,99,0,-0.32,down,0.2670960002578795,,,,,,,,,,,,,,,,,,,,,,,,,,,,,,,,,,,,,,,,,,,,,,,,,,,,,3552GW,train_y,blue_star,bottom_left,2025-02-19_16h00.41.353,HideSeek_v1,2022.2.5,59.915794273504154,
,2,4,2,8,0,4,65,,train_dim1_1,21,30,,,,2,0,2,0,,,,,,,,,0,0,0,0,0,20,20,20,3,0,3,0,,,,,,,,,,,,,,,,,,,,,,,,,,,,,,,,,,,,,,,,,,,,,,,,,,,,,,,,,,,,,,,,30,,,,,,,,4010.8604612997733,4010.8604612997733,4010.8604612997733,4010.8604612997733,4010.8604612997733,up,2.311538899783045,1,0,0,99,0,-0.24,up,2.236445300281048,,,,,,,,,,,,,,,,,,,,,,,,,,,,,,,,,,,,,,,,,,,,,,,,,,,,,3552GW,train_y,blue_star,bottom_left,2025-02-19_16h00.41.353,HideSeek_v1,2022.2.5,59.915794273504154,
,2,4,2,8,0,4,65,,train_dim1_1,21,30,,,,2,0,2,0,,,,,,,,,0,0,0,0,0,20,20,20,4,0,4,0,,,,,,,,,,,,,,,,,,,,,,,,,,,,,,,,,,,,,,,,,,,,,,,,,,,,,,,,,,,,,,,,30,,,,,,,,4013.1790958000347,4013.1790958000347,4013.1790958000347,4013.1790958000347,4013.1790958000347,up,0.4428906003013253,1,0,0,99,0,-0.15999999999999998,up,0.36308110039681196,,,,,,,,,,,,,,,,,,,,,,,,,,,,,,,,,,,,,,,,,,,,,,,,,,,,,3552GW,train_y,blue_star,bottom_left,2025-02-19_16h00.41.353,HideSeek_v1,2022.2.5,59.915794273504154,
,2,4,2,8,0,4,65,,train_dim1_1,21,30,,,,2,0,2,0,,,,,,,,,0,0,0,0,0,20,20,20,5,0,5,0,,,,,,,,,,,,,,,,,,,,,,,,,,,,,,,,,,,,,,,,,,,,,,,,,,,,,,,,,,,,,,,,30,,,,,,,,4013.629697599914,4013.629697599914,4013.629697599914,4013.629697599914,4013.629697599914,up,0.2928746002726257,1,0,0,99,0,-0.07999999999999997,up,0.21116590034216642,,,,,,,,,,,,,,,,,,,,,,,,,,,,,,,,,,,,,,,,,,,,,,,,,,,,,3552GW,train_y,blue_star,bottom_left,2025-02-19_16h00.41.353,HideSeek_v1,2022.2.5,59.915794273504154,
,2,4,2,8,0,4,65,,train_dim1_1,21,30,,,,2,0,2,0,,,,,,,,,0,0,0,0,0,20,20,20,6,0,6,0,,,,,,,,,,,,,,,,,,,,,,,,,,,,,,,,,,,,,,,,,,,,,,,,,,,,,,,,,,,,,,,,30,,,,,,,,4013.930835600011,4013.930835600011,4013.930835600011,4013.930835600011,4013.930835600011,up,0.4432059000246227,1,0,0,99,0,2.7755575615628914e-17,up,0.3695788006298244,,,,,,,,,,,,,,,,,,,,,,,,,,,,,,,,,,,,,,,,,,,,,,,,,,,,,3552GW,train_y,blue_star,bottom_left,2025-02-19_16h00.41.353,HideSeek_v1,2022.2.5,59.915794273504154,
,2,4,2,8,0,4,65,,train_dim1_1,21,30,,,,2,0,2,0,,,,,,,,,0,0,0,0,0,20,20,20,7,0,7,0,,,,,,,,,,,,,,,,,,,,,,,,,,,,,,,,,,,,,,,,,,,,,,,,,,,,,,,,,,,,,,,,30,,,,,,,,4014.379602700006,4014.379602700006,4014.379602700006,4014.379602700006,4014.379602700006,up,0.37634800001978874,1,0,0,99,0,0.08000000000000003,up,0.2922966005280614,,,,,,,,,,,,,,,,,,,,,,,,,,,,,,,,,,,,,,,,,,,,,,,,,,,,,3552GW,train_y,blue_star,bottom_left,2025-02-19_16h00.41.353,HideSeek_v1,2022.2.5,59.915794273504154,
,2,4,2,8,0,4,65,,train_dim1_1,21,30,,,,2,0,2,0,,,,,,,,,0,0,0,0,0,20,20,20,8,0,8,0,,,,,,,,,,,,,,,,,,,,,,,,,,,,,,,,,,,,,,,,,,,,,,,,,,,,,,,,,,,,,,,,30,,,,,,,,4014.7637016000226,4014.7637016000226,4014.7637016000226,4014.7637016000226,4014.7637016000226,up,0.3438077000901103,1,0,0,99,0,0.16000000000000003,up,0.2640849002636969,,,,,,,,,,,,,,,,,,,,,,,,,,,,,,,,,,,,,,,,,,,,,,,,,,,,,3552GW,train_y,blue_star,bottom_left,2025-02-19_16h00.41.353,HideSeek_v1,2022.2.5,59.915794273504154,
,2,4,2,8,0,4,65,,train_dim1_1,21,30,,,,2,0,2,0,,,,,,,,,0,0,0,0,0,20,20,20,9,0,9,0,,,,,,,,,,,,,,,,,,,,,,,,,,,,,,,,,,,,,,,,,,,,,,,,,,,,,,,,,,,,,,,,30,,,,,,,,4015.1137403999455,4015.1137403999455,4015.1137403999455,4015.1137403999455,4015.1137403999455,up,1.0602434002794325,1,0,0,99,0,0.24000000000000005,up,0.9873831002041698,,,,,,,,,,,,,,,,,,,,,,,,,,,,,,,,,,,,,,,,,,,,,,,,,,,,,3552GW,train_y,blue_star,bottom_left,2025-02-19_16h00.41.353,HideSeek_v1,2022.2.5,59.915794273504154,
,2,4,2,8,0,4,65,,train_dim1_1,21,30,,,,2,0,2,0,,,,,,,,,0,0,0,0,0,20,20,20,10,0,10,0,,,,,,,,,,,,,,,,,,,,,,,,,,,,,,,,,,,,,,,,,,,,,,,,,,,,,,,,,,,,,,,,30,,,,,,,,4016.1820278000087,4016.1820278000087,4016.1820278000087,4016.1820278000087,4016.1820278000087,return,0.543319100048393,2,0,0,1,0,0.24000000000000005,return,0.45843320013955235,16,30,0,0.24000000000000005,,,,,,,,,,,,,,,,,,,,,,,,,,,,,,,,,,,,,,,,,,,,,,,,,3552GW,train_y,blue_star,bottom_left,2025-02-19_16h00.41.353,HideSeek_v1,2022.2.5,59.915794273504154,
,0,2,0,5,0,3,64,,train_dim1_1,22,30,,,,2,0,2,0,,,,,,,,,0,0,0,0,0,21,21,21,0,0,0,0,,,,,,,,,,,,,,,,,,,,,,,,,stimuli/alien_stimuli/64.png,,,,,,,,,,,,,,,,,,,,,,,,,,,,,stimuli/alien_stimuli/65.png,65,2,23,,,,,,,30,,,,,,,,4022.424072999973,4022.424072999973,4022.424072999973,4022.424072999973,4022.424072999973,up,2.724642100278288,2,0,0,99,-0.16,-0.15999999999999998,up,2.6419838005676866,,,,,4020.8723049000837,4022.424072999973,0,0.24,0.32,0.0,0.07999999999999999,0,0.0,0,0.24,4018.289265099913,4018.289265099913,4018.289265099913,4018.289265099913,4018.289265099913,4018.289265099913,4018.289265099913,4018.289265099913,4018.2866450197525,2.688196999952197,return,2.5656002005562186,,,,,,,,,,,,,,,,,,,,,,,,,,3552GW,train_y,blue_star,bottom_left,2025-02-19_16h00.41.353,HideSeek_v1,2022.2.5,59.915794273504154,
,0,2,0,5,0,3,64,,train_dim1_1,22,30,,,,2,0,2,0,,,,,,,,,0,0,0,0,0,21,21,21,1,0,1,0,,,,,,,,,,,,,,,,,,,,,,,,,,,,,,,,,,,,,,,,,,,,,,,,,,,,,,,,,,,,,,,,30,,,,,,,,4025.15531909978,4025.15531909978,4025.15531909978,4025.15531909978,4025.15531909978,up,0.42605260014533997,2,0,0,99,-0.16,-0.07999999999999997,up,0.34573750011622906,,,,,,,,,,,,,,,,,,,,,,,,,,,,,,,,,,,,,,,,,,,,,,,,,,,,,3552GW,train_y,blue_star,bottom_left,2025-02-19_16h00.41.353,HideSeek_v1,2022.2.5,59.915794273504154,
,0,2,0,5,0,3,64,,train_dim1_1,22,30,,,,2,0,2,0,,,,,,,,,0,0,0,0,0,21,21,21,2,0,2,0,,,,,,,,,,,,,,,,,,,,,,,,,,,,,,,,,,,,,,,,,,,,,,,,,,,,,,,,,,,,,,,,30,,,,,,,,4025.5888565997593,4025.5888565997593,4025.5888565997593,4025.5888565997593,4025.5888565997593,up,0.6604161998257041,2,0,0,99,-0.16,2.7755575615628914e-17,up,0.5859431000426412,,,,,,,,,,,,,,,,,,,,,,,,,,,,,,,,,,,,,,,,,,,,,,,,,,,,,3552GW,train_y,blue_star,bottom_left,2025-02-19_16h00.41.353,HideSeek_v1,2022.2.5,59.915794273504154,
,0,2,0,5,0,3,64,,train_dim1_1,22,30,,,,2,0,2,0,,,,,,,,,0,0,0,0,0,21,21,21,3,0,3,0,,,,,,,,,,,,,,,,,,,,,,,,,,,,,,,,,,,,,,,,,,,,,,,,,,,,,,,,,,,,,,,,30,,,,,,,,4026.2559663997963,4026.2559663997963,4026.2559663997963,4026.2559663997963,4026.2559663997963,up,0.5762283001095057,2,0,0,99,-0.16,0.08000000000000003,up,0.49975220020860434,,,,,,,,,,,,,,,,,,,,,,,,,,,,,,,,,,,,,,,,,,,,,,,,,,,,,3552GW,train_y,blue_star,bottom_left,2025-02-19_16h00.41.353,HideSeek_v1,2022.2.5,59.915794273504154,
,0,2,0,5,0,3,64,,train_dim1_1,22,30,,,,2,0,2,0,,,,,,,,,0,0,0,0,0,21,21,21,4,0,4,0,,,,,,,,,,,,,,,,,,,,,,,,,,,,,,,,,,,,,,,,,,,,,,,,,,,,,,,,,,,,,,,,30,,,,,,,,4026.839017899707,4026.839017899707,4026.839017899707,4026.839017899707,4026.839017899707,return,1.2943390002474189,2,1,0,0,-0.16,0.08000000000000003,return,1.219934000633657,20,30,-0.16,0.08000000000000003,,,,,,,,,,,,,,,,,,,,,,,,,,,,,,,,,,,,,,,,,,,,,,,,,3552GW,train_y,blue_star,bottom_left,2025-02-19_16h00.41.353,HideSeek_v1,2022.2.5,59.915794273504154,
,0,3,0,3,0,0,61,,train_dim1_1,23,30,,,,2,0,2,0,,,,,,,,,0,0,0,0,0,22,22,22,0,0,0,0,,,,,,,,,,,,,,,,,,,,,,,,,stimuli/alien_stimuli/61.png,,,,,,,,,,,,,,,,,,,,,,,,,,,,,stimuli/alien_stimuli/64.png,64,0,24,,,,,,,30,,,,,,,,4032.7991964998655,4032.7991964998655,4032.7991964998655,4032.7991964998655,4032.7991964998655,right,2.523778799921274,2,1,0,99,-0.08,-0.16,right,2.441124800592661,,,,,4031.2475604997016,4032.7991964998655,-0.16,0,0.24,0.0,-0.12,-0.16,-0.16,-0.16,0,4029.701417299919,4029.701417299919,4029.701417299919,4029.701417299919,4029.701417299919,4029.701417299919,4029.701417299919,4029.701417299919,4029.696351619763,1.6534683997742832,return,1.51856500050053,,,,,,,,,,,,,,,,,,,,,,,,,,3552GW,train_y,blue_star,bottom_left,2025-02-19_16h00.41.353,HideSeek_v1,2022.2.5,59.915794273504154,
,0,3,0,3,0,0,61,,train_dim1_1,23,30,,,,2,0,2,0,,,,,,,,,0,0,0,0,0,22,22,22,1,0,1,0,,,,,,,,,,,,,,,,,,,,,,,,,,,,,,,,,,,,,,,,,,,,,,,,,,,,,,,,,,,,,,,,30,,,,,,,,4035.331862299703,4035.331862299703,4035.331862299703,4035.331862299703,4035.331862299703,right,0.5593167003244162,2,1,0,99,0.0,-0.16,right,0.47245100047439337,,,,,,,,,,,,,,,,,,,,,,,,,,,,,,,,,,,,,,,,,,,,,,,,,,,,,3552GW,train_y,blue_star,bottom_left,2025-02-19_16h00.41.353,HideSeek_v1,2022.2.5,59.915794273504154,
,0,3,0,3,0,0,61,,train_dim1_1,23,30,,,,2,0,2,0,,,,,,,,,0,0,0,0,0,22,22,22,2,0,2,0,,,,,,,,,,,,,,,,,,,,,,,,,,,,,,,,,,,,,,,,,,,,,,,,,,,,,,,,,,,,,,,,30,,,,,,,,4035.897029899992,4035.897029899992,4035.897029899992,4035.897029899992,4035.897029899992,right,0.6104696998372674,2,1,0,99,0.08,-0.16,right,0.5258470000699162,,,,,,,,,,,,,,,,,,,,,,,,,,,,,,,,,,,,,,,,,,,,,,,,,,,,,3552GW,train_y,blue_star,bottom_left,2025-02-19_16h00.41.353,HideSeek_v1,2022.2.5,59.915794273504154,
,0,3,0,3,0,0,61,,train_dim1_1,23,30,,,,2,0,2,0,,,,,,,,,0,0,0,0,0,22,22,22,3,0,3,0,,,,,,,,,,,,,,,,,,,,,,,,,,,,,,,,,,,,,,,,,,,,,,,,,,,,,,,,,,,,,,,,30,,,,,,,,4036.5172120998614,4036.5172120998614,4036.5172120998614,4036.5172120998614,4036.5172120998614,right,0.6765296999365091,2,1,0,99,0.16,-0.16,right,0.5918335001915693,,,,,,,,,,,,,,,,,,,,,,,,,,,,,,,,,,,,,,,,,,,,,,,,,,,,,3552GW,train_y,blue_star,bottom_left,2025-02-19_16h00.41.353,HideSeek_v1,2022.2.5,59.915794273504154,
,0,3,0,3,0,0,61,,train_dim1_1,23,30,,,,2,0,2,0,,,,,,,,,0,0,0,0,0,22,22,22,4,0,4,0,,,,,,,,,,,,,,,,,,,,,,,,,,,,,,,,,,,,,,,,,,,,,,,,,,,,,,,,,,,,,,,,30,,,,,,,,4037.1981830000877,4037.1981830000877,4037.1981830000877,4037.1981830000877,4037.1981830000877,return,0.710353400092572,2,0,0,0,0.16,-0.16,return,0.623262700624764,20,34,0.16,-0.16,,,,,,,,,,,,,,,,,,,,,,,,,,,,,,,,,,,,,,,,,,,,,,,,,3552GW,train_y,blue_star,bottom_left,2025-02-19_16h00.41.353,HideSeek_v1,2022.2.5,59.915794273504154,
,3,2,3,7,0,5,66,,train_dim1_1,24,30,,,,2,0,2,0,,,,,,,,,0,0,0,0,0,23,23,23,0,0,0,0,,,,,,,,,,,,,,,,,,,,,,,,,stimuli/alien_stimuli/66.png,,,,,,,,,,,,,,,,,,,,,,,,,,,,,stimuli/alien_stimuli/61.png,61,0,25,,,,,,,30,,,,,,,,4042.241052699741,4042.241052699741,4042.241052699741,4042.241052699741,4042.241052699741,up,2.1237805001437664,2,0,0,99,0.08,-0.15999999999999998,up,2.0518289003521204,,,,,4040.688911299687,4042.241052699741,-0.16,-0.16,0.0,0.0,-0.16,-0.16,-0.16,-0.16,-0.16,4039.473247999791,4039.473247999791,4039.473247999791,4039.473247999791,4039.473247999791,4039.473247999791,4039.473247999791,4039.473247999791,4039.471092519676,1.3199915001168847,return,1.187861000187695,,,,,,,,,,,,,,,,,,,,,,,,,,3552GW,train_y,blue_star,bottom_left,2025-02-19_16h00.41.353,HideSeek_v1,2022.2.5,59.915794273504154,
,3,2,3,7,0,5,66,,train_dim1_1,24,30,,,,2,0,2,0,,,,,,,,,0,0,0,0,0,23,23,23,1,0,1,0,,,,,,,,,,,,,,,,,,,,,,,,,,,,,,,,,,,,,,,,,,,,,,,,,,,,,,,,,,,,,,,,30,,,,,,,,4044.371069499757,4044.371069499757,4044.371069499757,4044.371069499757,4044.371069499757,up,0.44324180018156767,2,0,0,99,0.08,-0.07999999999999997,up,0.3708389005623758,,,,,,,,,,,,,,,,,,,,,,,,,,,,,,,,,,,,,,,,,,,,,,,,,,,,,3552GW,train_y,blue_star,bottom_left,2025-02-19_16h00.41.353,HideSeek_v1,2022.2.5,59.915794273504154,
,3,2,3,7,0,5,66,,train_dim1_1,24,30,,,,2,0,2,0,,,,,,,,,0,0,0,0,0,23,23,23,2,0,2,0,,,,,,,,,,,,,,,,,,,,,,,,,,,,,,,,,,,,,,,,,,,,,,,,,,,,,,,,,,,,,,,,30,,,,,,,,4044.8210748997517,4044.8210748997517,4044.8210748997517,4044.8210748997517,4044.8210748997517,up,0.7269740998744965,2,0,0,99,0.08,2.7755575615628914e-17,up,0.6401739004068077,,,,,,,,,,,,,,,,,,,,,,,,,,,,,,,,,,,,,,,,,,,,,,,,,,,,,3552GW,train_y,blue_star,bottom_left,2025-02-19_16h00.41.353,HideSeek_v1,2022.2.5,59.915794273504154,
,3,2,3,7,0,5,66,,train_dim1_1,24,30,,,,2,0,2,0,,,,,,,,,0,0,0,0,0,23,23,23,3,0,3,0,,,,,,,,,,,,,,,,,,,,,,,,,,,,,,,,,,,,,,,,,,,,,,,,,,,,,,,,,,,,,,,,30,,,,,,,,4045.555622899905,4045.555622899905,4045.555622899905,4045.555622899905,4045.555622899905,up,0.410047700162977,2,0,0,99,0.08,0.08000000000000003,up,0.32678710063919425,,,,,,,,,,,,,,,,,,,,,,,,,,,,,,,,,,,,,,,,,,,,,,,,,,,,,3552GW,train_y,blue_star,bottom_left,2025-02-19_16h00.41.353,HideSeek_v1,2022.2.5,59.915794273504154,
,3,2,3,7,0,5,66,,train_dim1_1,24,30,,,,2,0,2,0,,,,,,,,,0,0,0,0,0,23,23,23,4,0,4,0,,,,,,,,,,,,,,,,,,,,,,,,,,,,,,,,,,,,,,,,,,,,,,,,,,,,,,,,,,,,,,,,30,,,,,,,,4045.972213999834,4045.972213999834,4045.972213999834,4045.972213999834,4045.972213999834,return,0.5932459002360702,2,1,0,0,0.08,0.08000000000000003,return,0.5136633003130555,24,34,0.08,0.08000000000000003,,,,,,,,,,,,,,,,,,,,,,,,,,,,,,,,,,,,,,,,,,,,,,,,,3552GW,train_y,blue_star,bottom_left,2025-02-19_16h00.41.353,HideSeek_v1,2022.2.5,59.915794273504154,
,3,3,3,4,0,1,62,,train_dim1_1,25,30,,,,2,0,2,0,,,,,,,,,0,0,0,0,0,24,24,24,0,0,0,0,,,,,,,,,,,,,,,,,,,,,,,,,stimuli/alien_stimuli/62.png,,,,,,,,,,,,,,,,,,,,,,,,,,,,,stimuli/alien_stimuli/66.png,66,3,26,,,,,,,30,,,,,,,,4050.81380649982,4050.81380649982,4050.81380649982,4050.81380649982,4050.81380649982,right,2.7413212000392377,2,1,0,99,0.16,-0.16,right,2.6574739003553987,,,,,4049.2623720997944,4050.81380649982,0.08,0.16,0.4,0.0,-0.039999999999999994,0.08,0.08,0.08,0.16,4048.133626899682,4048.133626899682,4048.133626899682,4048.133626899682,4048.133626899682,4048.133626899682,4048.133626899682,4048.133626899682,4048.1281409197018,1.2366874003782868,return,1.1064625005237758,,,,,,,,,,,,,,,,,,,,,,,,,,3552GW,train_y,blue_star,bottom_left,2025-02-19_16h00.41.353,HideSeek_v1,2022.2.5,59.915794273504154,
,3,3,3,4,0,1,62,,train_dim1_1,25,30,,,,2,0,2,0,,,,,,,,,0,0,0,0,0,24,24,24,1,0,1,0,,,,,,,,,,,,,,,,,,,,,,,,,,,,,,,,,,,,,,,,,,,,,,,,,,,,,,,,,,,,,,,,30,,,,,,,,4053.562221100088,4053.562221100088,4053.562221100088,4053.562221100088,4053.562221100088,right,0.8599833999760449,2,1,0,99,0.24,-0.16,right,0.7831381000578403,,,,,,,,,,,,,,,,,,,,,,,,,,,,,,,,,,,,,,,,,,,,,,,,,,,,,3552GW,train_y,blue_star,bottom_left,2025-02-19_16h00.41.353,HideSeek_v1,2022.2.5,59.915794273504154,
,3,3,3,4,0,1,62,,train_dim1_1,25,30,,,,2,0,2,0,,,,,,,,,0,0,0,0,0,24,24,24,2,0,2,0,,,,,,,,,,,,,,,,,,,,,,,,,,,,,,,,,,,,,,,,,,,,,,,,,,,,,,,,,,,,,,,,30,,,,,,,,4054.4305330999196,4054.4305330999196,4054.4305330999196,4054.4305330999196,4054.4305330999196,left,0.8600686998106539,2,1,0,99,0.15999999999999998,-0.16,left,0.7822230006568134,,,,,,,,,,,,,,,,,,,,,,,,,,,,,,,,,,,,,,,,,,,,,,,,,,,,,3552GW,train_y,blue_star,bottom_left,2025-02-19_16h00.41.353,HideSeek_v1,2022.2.5,59.915794273504154,
,3,3,3,4,0,1,62,,train_dim1_1,25,30,,,,2,0,2,0,,,,,,,,,0,0,0,0,0,24,24,24,3,0,3,0,,,,,,,,,,,,,,,,,,,,,,,,,,,,,,,,,,,,,,,,,,,,,,,,,,,,,,,,,,,,,,,,30,,,,,,,,4055.296782199759,4055.296782199759,4055.296782199759,4055.296782199759,4055.296782199759,left,0.42712159967049956,2,1,0,99,0.07999999999999997,-0.16,left,0.3445284003391862,,,,,,,,,,,,,,,,,,,,,,,,,,,,,,,,,,,,,,,,,,,,,,,,,,,,,3552GW,train_y,blue_star,bottom_left,2025-02-19_16h00.41.353,HideSeek_v1,2022.2.5,59.915794273504154,
,3,3,3,4,0,1,62,,train_dim1_1,25,30,,,,2,0,2,0,,,,,,,,,0,0,0,0,0,24,24,24,4,0,4,0,,,,,,,,,,,,,,,,,,,,,,,,,,,,,,,,,,,,,,,,,,,,,,,,,,,,,,,,,,,,,,,,30,,,,,,,,4055.731775799766,4055.731775799766,4055.731775799766,4055.731775799766,4055.731775799766,return,0.37666499987244606,2,1,0,0,0.07999999999999997,-0.16,return,0.2891673999838531,24,34,0.07999999999999997,-0.16,,,,,,,,,,,,,,,,,,,,,,,,,,,,,,,,,,,,,,,,,,,,,,,,,3552GW,train_y,blue_star,bottom_left,2025-02-19_16h00.41.353,HideSeek_v1,2022.2.5,59.915794273504154,
,4,4,4,7,0,3,64,,train_dim1_1,26,30,,,,2,0,2,0,,,,,,,,,0,0,0,0,0,25,25,25,0,0,0,0,,,,,,,,,,,,,,,,,,,,,,,,,stimuli/alien_stimuli/64.png,,,,,,,,,,,,,,,,,,,,,,,,,,,,,stimuli/alien_stimuli/62.png,62,3,27,,,,,,,30,,,,,,,,4060.488679199945,4060.488679199945,4060.488679199945,4060.488679199945,4060.488679199945,down,2.2233547996729612,2,1,0,99,0.16,-0.16,down,2.1423155004158616,,,,,4058.937152199913,4060.488679199945,0.08,-0.08,0.08,0.0,-0.12,0.08,0.08,0.08,-0.08,4057.6581923998892,4057.6581923998892,4057.6581923998892,4057.6581923998892,4057.6581923998892,4057.6581923998892,4057.6581923998892,4057.6581923998892,4057.6527228595687,1.3701589996926486,return,1.259906000457704,,,,,,,,,,,,,,,,,,,,,,,,,,3552GW,train_y,blue_star,bottom_left,2025-02-19_16h00.41.353,HideSeek_v1,2022.2.5,59.915794273504154,
,4,4,4,7,0,3,64,,train_dim1_1,26,30,,,,2,0,2,0,,,,,,,,,0,0,0,0,0,25,25,25,1,0,1,0,,,,,,,,,,,,,,,,,,,,,,,,,,,,,,,,,,,,,,,,,,,,,,,,,,,,,,,,,,,,,,,,30,,,,,,,,4062.723456699867,4062.723456699867,4062.723456699867,4062.723456699867,4062.723456699867,down,0.49346379982307553,2,1,0,99,0.16,-0.24,down,0.41220630053430796,,,,,,,,,,,,,,,,,,,,,,,,,,,,,,,,,,,,,,,,,,,,,,,,,,,,,3552GW,train_y,blue_star,bottom_left,2025-02-19_16h00.41.353,HideSeek_v1,2022.2.5,59.915794273504154,
,4,4,4,7,0,3,64,,train_dim1_1,26,30,,,,2,0,2,0,,,,,,,,,0,0,0,0,0,25,25,25,2,0,2,0,,,,,,,,,,,,,,,,,,,,,,,,,,,,,,,,,,,,,,,,,,,,,,,,,,,,,,,,,,,,,,,,30,,,,,,,,4063.220057999715,4063.220057999715,4063.220057999715,4063.220057999715,4063.220057999715,down,0.5263621001504362,2,1,0,99,0.16,-0.32,down,0.4427566002123058,,,,,,,,,,,,,,,,,,,,,,,,,,,,,,,,,,,,,,,,,,,,,,,,,,,,,3552GW,train_y,blue_star,bottom_left,2025-02-19_16h00.41.353,HideSeek_v1,2022.2.5,59.915794273504154,
,4,4,4,7,0,3,64,,train_dim1_1,26,30,,,,2,0,2,0,,,,,,,,,0,0,0,0,0,25,25,25,3,0,3,0,,,,,,,,,,,,,,,,,,,,,,,,,,,,,,,,,,,,,,,,,,,,,,,,,,,,,,,,,,,,,,,,30,,,,,,,,4063.7530831000768,4063.7530831000768,4063.7530831000768,4063.7530831000768,4063.7530831000768,down,0.44322479981929064,2,1,0,99,0.16,-0.4,down,0.3718910003080964,,,,,,,,,,,,,,,,,,,,,,,,,,,,,,,,,,,,,,,,,,,,,,,,,,,,,3552GW,train_y,blue_star,bottom_left,2025-02-19_16h00.41.353,HideSeek_v1,2022.2.5,59.915794273504154,
,4,4,4,7,0,3,64,,train_dim1_1,26,30,,,,2,0,2,0,,,,,,,,,0,0,0,0,0,25,25,25,4,0,4,0,,,,,,,,,,,,,,,,,,,,,,,,,,,,,,,,,,,,,,,,,,,,,,,,,,,,,,,,,,,,,,,,30,,,,,,,,4064.2037423998117,4064.2037423998117,4064.2037423998117,4064.2037423998117,4064.2037423998117,return,0.5934795998036861,2,0,0,0,0.16,-0.4,return,0.5212635002098978,20,34,0.16,-0.4,,,,,,,,,,,,,,,,,,,,,,,,,,,,,,,,,,,,,,,,,,,,,,,,,3552GW,train_y,blue_star,bottom_left,2025-02-19_16h00.41.353,HideSeek_v1,2022.2.5,59.915794273504154,
,3,4,3,9,0,5,66,,train_dim1_1,27,30,,,,2,0,2,0,,,,,,,,,0,0,0,0,0,26,26,26,0,0,0,0,,,,,,,,,,,,,,,,,,,,,,,,,stimuli/alien_stimuli/66.png,,,,,,,,,,,,,,,,,,,,,,,,,,,,,stimuli/alien_stimuli/64.png,64,4,28,,,,,,,30,,,,,,,,4069.2628729999997,4069.2628729999997,4069.2628729999997,4069.2628729999997,4069.2628729999997,up,1.7399997999891639,2,0,0,99,0.08,0.0,up,1.6521836002357304,,,,,4067.711040500086,4069.2628729999997,0.16,0.16,0.24,0.0,0.04,0.16,0.16,0.16,0.16,4066.3469885997474,4066.3469885997474,4066.3469885997474,4066.3469885997474,4066.3469885997474,4066.3469885997474,4066.3469885997474,4066.3469885997474,4066.3432964596896,1.4534506001509726,return,1.3321548006497324,,,,,,,,,,,,,,,,,,,,,,,,,,3552GW,train_y,blue_star,bottom_left,2025-02-19_16h00.41.353,HideSeek_v1,2022.2.5,59.915794273504154,
,3,4,3,9,0,5,66,,train_dim1_1,27,30,,,,2,0,2,0,,,,,,,,,0,0,0,0,0,26,26,26,1,0,1,0,,,,,,,,,,,,,,,,,,,,,,,,,,,,,,,,,,,,,,,,,,,,,,,,,,,,,,,,,,,,,,,,30,,,,,,,,4071.010185400024,4071.010185400024,4071.010185400024,4071.010185400024,4071.010185400024,up,0.5262094996869564,2,0,0,99,0.08,0.08,up,0.4549267003312707,,,,,,,,,,,,,,,,,,,,,,,,,,,,,,,,,,,,,,,,,,,,,,,,,,,,,3552GW,train_y,blue_star,bottom_left,2025-02-19_16h00.41.353,HideSeek_v1,2022.2.5,59.915794273504154,
,3,4,3,9,0,5,66,,train_dim1_1,27,30,,,,2,0,2,0,,,,,,,,,0,0,0,0,0,26,26,26,2,0,2,0,,,,,,,,,,,,,,,,,,,,,,,,,,,,,,,,,,,,,,,,,,,,,,,,,,,,,,,,,,,,,,,,30,,,,,,,,4071.5451858998276,4071.5451858998276,4071.5451858998276,4071.5451858998276,4071.5451858998276,up,0.5255438000895083,2,0,0,99,0.08,0.16,up,0.4456315003335476,,,,,,,,,,,,,,,,,,,,,,,,,,,,,,,,,,,,,,,,,,,,,,,,,,,,,3552GW,train_y,blue_star,bottom_left,2025-02-19_16h00.41.353,HideSeek_v1,2022.2.5,59.915794273504154,
,3,4,3,9,0,5,66,,train_dim1_1,27,30,,,,2,0,2,0,,,,,,,,,0,0,0,0,0,26,26,26,3,0,3,0,,,,,,,,,,,,,,,,,,,,,,,,,,,,,,,,,,,,,,,,,,,,,,,,,,,,,,,,,,,,,,,,30,,,,,,,,4072.0771945999004,4072.0771945999004,4072.0771945999004,4072.0771945999004,4072.0771945999004,up,0.543480500113219,2,0,0,99,0.08,0.24,up,0.46693470049649477,,,,,,,,,,,,,,,,,,,,,,,,,,,,,,,,,,,,,,,,,,,,,,,,,,,,,3552GW,train_y,blue_star,bottom_left,2025-02-19_16h00.41.353,HideSeek_v1,2022.2.5,59.915794273504154,
,3,4,3,9,0,5,66,,train_dim1_1,27,30,,,,2,0,2,0,,,,,,,,,0,0,0,0,0,26,26,26,4,0,4,0,,,,,,,,,,,,,,,,,,,,,,,,,,,,,,,,,,,,,,,,,,,,,,,,,,,,,,,,,,,,,,,,30,,,,,,,,4072.62820489984,4072.62820489984,4072.62820489984,4072.62820489984,4072.62820489984,return,0.6269682999700308,2,1,0,0,0.08,0.24,return,0.5435473006218672,24,34,0.08,0.24,,,,,,,,,,,,,,,,,,,,,,,,,,,,,,,,,,,,,,,,,,,,,,,,,3552GW,train_y,blue_star,bottom_left,2025-02-19_16h00.41.353,HideSeek_v1,2022.2.5,59.915794273504154,
,4,1,4,1,0,0,61,,train_dim1_1,28,30,,,,2,0,2,0,,,,,,,,,0,0,0,0,0,27,27,27,0,0,0,0,,,,,,,,,,,,,,,,,,,,,,,,,stimuli/alien_stimuli/61.png,,,,,,,,,,,,,,,,,,,,,,,,,,,,,stimuli/alien_stimuli/66.png,66,3,29,,,,,,,30,,,,,,,,4077.4523684000596,4077.4523684000596,4077.4523684000596,4077.4523684000596,4077.4523684000596,up,2.4912406001240015,2,1,0,99,0.16,-0.24,up,2.4106884002685547,,,,,4075.901214899961,4077.4523684000596,0.08,0.32,0.4,0.0,0.12,0.08,0.08,0.08,0.32,4074.8059346000664,4074.8059346000664,4074.8059346000664,4074.8059346000664,4074.8059346000664,4074.8059346000664,4074.8059346000664,4074.8059346000664,4074.800184659939,1.1864346000365913,return,1.069164500106126,,,,,,,,,,,,,,,,,,,,,,,,,,3552GW,train_y,blue_star,bottom_left,2025-02-19_16h00.41.353,HideSeek_v1,2022.2.5,59.915794273504154,
,4,1,4,1,0,0,61,,train_dim1_1,28,30,,,,2,0,2,0,,,,,,,,,0,0,0,0,0,27,27,27,1,0,1,0,,,,,,,,,,,,,,,,,,,,,,,,,,,,,,,,,,,,,,,,,,,,,,,,,,,,,,,,,,,,,,,,30,,,,,,,,4079.9509601998143,4079.9509601998143,4079.9509601998143,4079.9509601998143,4079.9509601998143,up,0.5095794997178018,2,1,0,99,0.16,-0.15999999999999998,up,0.43710520025342703,,,,,,,,,,,,,,,,,,,,,,,,,,,,,,,,,,,,,,,,,,,,,,,,,,,,,3552GW,train_y,blue_star,bottom_left,2025-02-19_16h00.41.353,HideSeek_v1,2022.2.5,59.915794273504154,
,4,1,4,1,0,0,61,,train_dim1_1,28,30,,,,2,0,2,0,,,,,,,,,0,0,0,0,0,27,27,27,2,0,2,0,,,,,,,,,,,,,,,,,,,,,,,,,,,,,,,,,,,,,,,,,,,,,,,,,,,,,,,,,,,,,,,,30,,,,,,,,4080.467996600084,4080.467996600084,4080.467996600084,4080.467996600084,4080.467996600084,up,0.5603260998614132,2,1,0,99,0.16,-0.07999999999999997,up,0.4737292001955211,,,,,,,,,,,,,,,,,,,,,,,,,,,,,,,,,,,,,,,,,,,,,,,,,,,,,3552GW,train_y,blue_star,bottom_left,2025-02-19_16h00.41.353,HideSeek_v1,2022.2.5,59.915794273504154,
,4,1,4,1,0,0,61,,train_dim1_1,28,30,,,,2,0,2,0,,,,,,,,,0,0,0,0,0,27,27,27,3,0,3,0,,,,,,,,,,,,,,,,,,,,,,,,,,,,,,,,,,,,,,,,,,,,,,,,,,,,,,,,,,,,,,,,30,,,,,,,,4081.0355813996866,4081.0355813996866,4081.0355813996866,4081.0355813996866,4081.0355813996866,up,0.5930511998012662,2,1,0,99,0.16,2.7755575615628914e-17,up,0.5214484999887645,,,,,,,,,,,,,,,,,,,,,,,,,,,,,,,,,,,,,,,,,,,,,,,,,,,,,3552GW,train_y,blue_star,bottom_left,2025-02-19_16h00.41.353,HideSeek_v1,2022.2.5,59.915794273504154,
