trialInstr,x_fixStart,y_fixStart,x_corrSteps,y_corrSteps,x_nrSteps,y_nrSteps,alienID,trialLength,version,trialTrain,praclen,testlen,trial_label,break_on_off,beforeExpLoop.thisRepN,beforeExpLoop.thisTrialN,beforeExpLoop.thisN,beforeExpLoop.thisIndex,mini_instr_trials.thisRepN,mini_instr_trials.thisTrialN,mini_instr_trials.thisN,mini_instr_trials.thisIndex,instrLoop.thisRepN,instrLoop.thisTrialN,instrLoop.thisN,instrLoop.thisIndex,repeat_prac.thisRepN,repeat_prac.thisTrialN,repeat_prac.thisN,repeat_prac.thisIndex,trainLoop.thisRepN,trainLoop.thisTrialN,trainLoop.thisN,trainLoop.thisIndex,moveLoop_train.thisRepN,moveLoop_train.thisTrialN,moveLoop_train.thisN,moveLoop_train.thisIndex,experiment.thisRepN,experiment.thisTrialN,experiment.thisN,experiment.thisIndex,moveLoop_test.thisRepN,moveLoop_test.thisTrialN,moveLoop_test.thisN,moveLoop_test.thisIndex,mini_instr2_trials.thisRepN,mini_instr2_trials.thisTrialN,mini_instr2_trials.thisN,mini_instr2_trials.thisIndex,start_all_time,url,slideStim,audioStim,slides.started,sounds.started,nextButton.numClicks,nextButton.timesOn,nextButton.timesOff,prev_but.numClicks,prev_but.timesOn,prev_but.timesOff,alienStim,instrFile,alienStim_instr,gridImage_instr.started,startPos_3.started,key_instr.started,alienImage_3.started,sounds_1.started,key_instr.keys,key_instr.rt,all_x,all_y,FBy_corrSteps,FBy_fixStart,FBx_corrSteps,FBx_fixStart,FBy_pathSize_check,FBx_pathSize_check,gridImage_9.started,alienImageFB_3.started,startPosFB_3.started,keyFB_3.started,pathLine_ydir_2.started,pathLine_xdir_2.started,alienFace_3.started,sounds_2.started,RTFB_instr,keyFB_3.keys,keyFB_3.rt,draw_alienStim,draw_alienID,test_x,nrepcount,perfthres,percthres,earlierperf,earlystop,nextPrac,fileidx,praclen,saveACC_train,pracFile,nextPrac_train,addNrep,fileidx_endr,repExp,showearly,gridImage_4.started,startPos.started,movePos.started,key_resp.started,alienImage.started,buttonPress_train,RTchoice_train,cumAcctrain,aCorr,saveACC_choice,corrAns,x_movePos_end,y_movePos_end,key_resp.keys,key_resp.rt,wLy_dir,wLx_dir,x_movePos,y_movePos,text_2.started,text_2.stopped,aft_x_corrPos,aft_y_corrPos,y_pathSize_check,x_pathSize_check,y_pathdirY,x_pathdirY,x_pathdirX,x_corrPos,y_corrPos,gridImage_6.started,alienImageFB_2.started,startPosFB_2.started,movePosFB_2.started,keyFB_2.started,pathLine_xdir.started,pathLine_ydir.started,alienFace.started,sounds_4.started,RT_FBtrain,keyFB_2.keys,keyFB_2.rt,saveACC_pre,ACC,within_saveACC_train,earlystop_wloop,cumAcctrain_check,gridImage_3.started,alienImage_test.started,startPos_test.started,movePos_test.started,key_resp_test.started,wLy_dir_test,wLx_dir_test,buttonPress_test,RTchoice_test,cumAcctest,corrAns_test,key_resp_test.keys,key_resp_test.rt,text_3.started,text_3.stopped,total_time,end_all_time,key_resp_3.keys,slides_2.started,sounds_3.started,nextButton_2.numClicks,nextButton_2.timesOn,nextButton_2.timesOff,prev_but_2.numClicks,prev_but_2.timesOn,prev_but_2.timesOff,bye.started,participant,train_first,00_coordinate,starting corner,date,expName,psychopyVersion,frameRate,
,,,,,,,,,,,,,,,0,0,0,0,0,0,0,0,,,,,,,,,,,,,,,,,,,,,,,,,,,,,start_all_time,testround,conditions/schedules/train_y_first/blue_star_00/bottom_right/instructions/Slide1.png,conditions/schedules/train_y_first/blue_star_00/bottom_right/instructions/Audio1.wav,1984.0962257001083,1984.0373455820607,1,[5.773420999990776],[5.773433699971065],0,,,,,,,,,,,,,,,,,,,,,,,,,,,,,,,,,,,,,,,,,,,,,,,,,,,,,,,,,,,,,,,,,,,,,,,,,,,,,,,,,,,,,,,,,,,,,,,,,,,,,,,,,,,,,,,,,,,,,,,,,,,,3HAC8Z,train_y,blue_star,bottom_right,2025-04-08_17h20.32.454,HideSeek_v1,2022.2.5,59.91776884172358,
,,,,,,,,,,,,,,,0,0,0,0,1,0,1,0,,,,,,,,,,,,,,,,,,,,,,,,,,,,,,,conditions/schedules/train_y_first/blue_star_00/bottom_right/instructions/Slide2.png,conditions/schedules/train_y_first/blue_star_00/bottom_right/instructions/Audio2.wav,1989.890050200047,1989.8912081001326,2,"[5.773420999990776, 17.7970032999292]","[5.773433699971065, 17.79701039986685]",0,,,,,,,,,,,,,,,,,,,,,,,,,,,,,,,,,,,,,,,,,,,,,,,,,,,,,,,,,,,,,,,,,,,,,,,,,,,,,,,,,,,,,,,,,,,,,,,,,,,,,,,,,,,,,,,,,,,,,,,,,,,,3HAC8Z,train_y,blue_star,bottom_right,2025-04-08_17h20.32.454,HideSeek_v1,2022.2.5,59.91776884172358,
,,,,,,,,,,,,,,,0,0,0,0,2,0,2,0,,,,,,,,,,,,,,,,,,,,,,,,,,,,,,,conditions/schedules/train_y_first/blue_star_00/bottom_right/instructions/Slide3.png,conditions/schedules/train_y_first/blue_star_00/bottom_right/instructions/Audio3.wav,2007.7668466002215,2007.7560466001742,3,"[5.773420999990776, 17.7970032999292, 16.283478900091723]","[5.773433699971065, 0.014262499986216426, 16.28348600002937]",0,,,,,,,,,,,,,,,,,,,,,,,,,,,,,,,,,,,,,,,,,,,,,,,,,,,,,,,,,,,,,,,,,,,,,,,,,,,,,,,,,,,,,,,,,,,,,,,,,,,,,,,,,,,,,,,,,,,,,,,,,,,,3HAC8Z,train_y,blue_star,bottom_right,2025-04-08_17h20.32.454,HideSeek_v1,2022.2.5,59.91776884172358,
,,,,,,,,,,,,,,,0,0,0,0,3,0,3,0,,,,,,,,,,,,,,,,,,,,,,,,,,,,,,,conditions/schedules/train_y_first/blue_star_00/bottom_right/instructions/Slide4.png,conditions/schedules/train_y_first/blue_star_00/bottom_right/instructions/Audio4.wav,2024.1278988001868,2024.1192704001442,4,"[5.773420999990776, 17.7970032999292, 16.283478900091723, 20.45647029997781]","[5.773433699971065, 0.014262499986216426, 0.014178300043568015, 20.45647699991241]",0,,,,,,,,,,,,,,,,,,,,,,,,,,,,,,,,,,,,,,,,,,,,,,,,,,,,,,,,,,,,,,,,,,,,,,,,,,,,,,,,,,,,,,,,,,,,,,,,,,,,,,,,,,,,,,,,,,,,,,,,,,,,3HAC8Z,train_y,blue_star,bottom_right,2025-04-08_17h20.32.454,HideSeek_v1,2022.2.5,59.91776884172358,
,,,,,,,,,,,,,,,0,0,0,0,4,0,4,0,,,,,,,,,,,,,,,,,,,,,,,,,,,,,,,conditions/schedules/train_y_first/blue_star_00/bottom_right/instructions/Slide5.png,conditions/schedules/train_y_first/blue_star_00/bottom_right/instructions/Audio5.wav,2044.6530354002025,2044.6534001000691,5,"[5.773420999990776, 17.7970032999292, 16.283478900091723, 20.45647029997781, 4.484447799855843]","[5.773433699971065, 0.014262499986216426, 0.014178300043568015, 0.014180499827489257, 4.484454199904576]",0,,,,,,,,,,,,,,,,,,,,,,,,,,,,,,,,,,,,,,,,,,,,,,,,,,,,,,,,,,,,,,,,,,,,,,,,,,,,,,,,,,,,,,,,,,,,,,,,,,,,,,,,,,,,,,,,,,,,,,,,,,,,3HAC8Z,train_y,blue_star,bottom_right,2025-04-08_17h20.32.454,HideSeek_v1,2022.2.5,59.91776884172358,
,,,,,,,,,,,,,,,0,0,0,0,5,0,5,0,,,,,,,,,,,,,,,,,,,,,,,,,,,,,,,conditions/schedules/train_y_first/blue_star_00/bottom_right/instructions/Slide6.png,conditions/schedules/train_y_first/blue_star_00/bottom_right/instructions/Audio6.wav,2049.1877739001065,2049.1901408800854,6,"[5.773420999990776, 17.7970032999292, 16.283478900091723, 20.45647029997781, 4.484447799855843, 5.003875799942762]","[5.773433699971065, 0.014262499986216426, 0.014178300043568015, 0.014180499827489257, 0.04983039991930127, 5.003882199991494]",0,,,,,,,,,,,,,,,,,,,,,,,,,,,,,,,,,,,,,,,,,,,,,,,,,,,,,,,,,,,,,,,,,,,,,,,,,,,,,,,,,,,,,,,,,,,,,,,,,,,,,,,,,,,,,,,,,,,,,,,,,,,,3HAC8Z,train_y,blue_star,bottom_right,2025-04-08_17h20.32.454,HideSeek_v1,2022.2.5,59.91776884172358,
,,,,,,,,,,,,,,,0,0,0,0,6,0,6,0,,,,,,,,,,,,,,,,,,,,,,,,,,,,,,,conditions/schedules/train_y_first/blue_star_00/bottom_right/instructions/Slide7.png,conditions/schedules/train_y_first/blue_star_00/bottom_right/instructions/Audio7.wav,2054.2448202001397,2054.2442822802345,7,"[5.773420999990776, 17.7970032999292, 16.283478900091723, 20.45647029997781, 4.484447799855843, 5.003875799942762, 5.352268100017682]","[5.773433699971065, 0.014262499986216426, 0.014178300043568015, 0.014180499827489257, 0.04983039991930127, 0.06405480019748211, 5.352274800185114]",0,,,,,,,,,,,,,,,,,,,,,,,,,,,,,,,,,,,,,,,,,,,,,,,,,,,,,,,,,,,,,,,,,,,,,,,,,,,,,,,,,,,,,,,,,,,,,,,,,,,,,,,,,,,,,,,,,,,,,,,,,,,,3HAC8Z,train_y,blue_star,bottom_right,2025-04-08_17h20.32.454,HideSeek_v1,2022.2.5,59.91776884172358,
,,,,,,,,,,,,,,,0,0,0,0,7,0,7,0,,,,,,,,,,,,,,,,,,,,,,,,,,,,,,,conditions/schedules/train_y_first/blue_star_00/bottom_right/instructions/Slide8.png,conditions/schedules/train_y_first/blue_star_00/bottom_right/instructions/Audio8.wav,2059.6493576001376,2059.649127080245,8,"[5.773420999990776, 17.7970032999292, 16.283478900091723, 20.45647029997781, 4.484447799855843, 5.003875799942762, 5.352268100017682, 11.556663100142032]","[5.773433699971065, 0.014262499986216426, 0.014178300043568015, 0.014180499827489257, 0.04983039991930127, 0.06405480019748211, 0.08055770001374185, 11.55666960007511]",0,,,,,,,,,,,,,,,,,,,,,,,,,,,,,,,,,,,,,,,,,,,,,,,,,,,,,,,,,,,,,,,,,,,,,,,,,,,,,,,,,,,,,,,,,,,,,,,,,,,,,,,,,,,,,,,,,,,,,,,,,,,,3HAC8Z,train_y,blue_star,bottom_right,2025-04-08_17h20.32.454,HideSeek_v1,2022.2.5,59.91776884172358,
,,,,,,,,,,,,,,,0,0,0,0,8,0,8,0,,,,,,,,,,,,,,,,,,,,,,,,,,,,,,,conditions/schedules/train_y_first/blue_star_00/bottom_right/instructions/Slide9.png,conditions/schedules/train_y_first/blue_star_00/bottom_right/instructions/Audio9.wav,2071.2741300000343,2071.2751015000977,9,"[5.773420999990776, 17.7970032999292, 16.283478900091723, 20.45647029997781, 4.484447799855843, 5.003875799942762, 5.352268100017682, 11.556663100142032, 6.153538099955767]","[5.773433699971065, 0.014262499986216426, 0.014178300043568015, 0.014180499827489257, 0.04983039991930127, 0.06405480019748211, 0.08055770001374185, 0.04808209999464452, 6.153545200126246]",0,,,,,,,,,,,,,,,,,,,,,,,,,,,,,,,,,,,,,,,,,,,,,,,,,,,,,,,,,,,,,,,,,,,,,,,,,,,,,,,,,,,,,,,,,,,,,,,,,,,,,,,,,,,,,,,,,,,,,,,,,,,,3HAC8Z,train_y,blue_star,bottom_right,2025-04-08_17h20.32.454,HideSeek_v1,2022.2.5,59.91776884172358,
,,,,,,,,,,,,,,,0,0,0,0,9,0,9,0,,,,,,,,,,,,,,,,,,,,,,,,,,,,,,,conditions/schedules/train_y_first/blue_star_00/bottom_right/instructions/Slide10.png,conditions/schedules/train_y_first/blue_star_00/bottom_right/instructions/Audio10.wav,2077.474837000016,2077.4637235601435,10,"[5.773420999990776, 17.7970032999292, 16.283478900091723, 20.45647029997781, 4.484447799855843, 5.003875799942762, 5.352268100017682, 11.556663100142032, 6.153538099955767, 6.7419825999531895]","[5.773433699971065, 0.014262499986216426, 0.014178300043568015, 0.014180499827489257, 0.04983039991930127, 0.06405480019748211, 0.08055770001374185, 0.04808209999464452, 0.05336420005187392, 6.741989699890837]",0,,,,,,,,,,,,,,,,,,,,,,,,,,,,,,,,,,,,,,,,,,,,,,,,,,,,,,,,,,,,,,,,,,,,,,,,,,,,,,,,,,,,,,,,,,,,,,,,,,,,,,,,,,,,,,,,,,,,,,,,,,,,3HAC8Z,train_y,blue_star,bottom_right,2025-04-08_17h20.32.454,HideSeek_v1,2022.2.5,59.91776884172358,
,,,,,,,,,,,,,,,0,0,0,0,10,0,10,0,,,,,,,,,,,,,,,,,,,,,,,,,,,,,,,conditions/schedules/train_y_first/blue_star_00/bottom_right/instructions/Slide11.png,conditions/schedules/train_y_first/blue_star_00/bottom_right/instructions/Audio11.wav,2084.2740225000307,2084.26922228015,11,"[5.773420999990776, 17.7970032999292, 16.283478900091723, 20.45647029997781, 4.484447799855843, 5.003875799942762, 5.352268100017682, 11.556663100142032, 6.153538099955767, 6.7419825999531895, 10.101300900103524]","[5.773433699971065, 0.014262499986216426, 0.014178300043568015, 0.014180499827489257, 0.04983039991930127, 0.06405480019748211, 0.08055770001374185, 0.04808209999464452, 0.05336420005187392, 0.04742750013247132, 10.101307100150734]",0,,,,,,,,,,,,,,,,,,,,,,,,,,,,,,,,,,,,,,,,,,,,,,,,,,,,,,,,,,,,,,,,,,,,,,,,,,,,,,,,,,,,,,,,,,,,,,,,,,,,,,,,,,,,,,,,,,,,,,,,,,,,3HAC8Z,train_y,blue_star,bottom_right,2025-04-08_17h20.32.454,HideSeek_v1,2022.2.5,59.91776884172358,
,,,,,,,,,,,,,,,0,0,0,0,11,0,11,0,,,,,,,,,,,,,,,,,,,,,,,,,,,,,,,conditions/schedules/train_y_first/blue_star_00/bottom_right/instructions/Slide12.png,conditions/schedules/train_y_first/blue_star_00/bottom_right/instructions/Audio12.wav,2094.448690700112,2094.4445218001492,12,"[5.773420999990776, 17.7970032999292, 16.283478900091723, 20.45647029997781, 4.484447799855843, 5.003875799942762, 5.352268100017682, 11.556663100142032, 6.153538099955767, 6.7419825999531895, 10.101300900103524, 14.104667900130153]","[5.773433699971065, 0.014262499986216426, 0.014178300043568015, 0.014180499827489257, 0.04983039991930127, 0.06405480019748211, 0.08055770001374185, 0.04808209999464452, 0.05336420005187392, 0.04742750013247132, 0.01376260002143681, 14.104674900183454]",0,,,,,,,,,,,,,,,,,,,,,,,,,,,,,,,,,,,,,,,,,,,,,,,,,,,,,,,,,,,,,,,,,,,,,,,,,,,,,,,,,,,,,,,,,,,,,,,,,,,,,,,,,,,,,,,,,,,,,,,,,,,,3HAC8Z,train_y,blue_star,bottom_right,2025-04-08_17h20.32.454,HideSeek_v1,2022.2.5,59.91776884172358,
1,5,3,5,8,0,5,66,2,instr_dim1_1,,,,,,0,0,0,0,,,,,0,0,0,0,,,,,,,,,,,,,,,,,,,,,,,,,,,,,,,,,,,,,stimuli/alien_stimuli/66.png,conditions/schedules/train_y_first/blue_star_00/bottom_right/inputInstr_1.xlsx,stimuli/alien_stimuli/66.png,2108.6524725002237,2108.6524725002237,2108.6524725002237,2108.6524725002237,2108.656240040157,return,12.481442999793217,"[-0.16, -0.08, 0, 0.08, 0.16, 0.24, 0.32, 0.4, 0.48, 0.56]","[-0.4, -0.32, -0.24, -0.16, -0.08, 0, 0.08, 0.16, 0.24, 0.32]",8,3,5,5,0.4,0.0,2121.305592500139,2121.305592500139,2121.305592500139,2121.305592500139,2121.305592500139,2121.305592500139,2121.305592500139,2121.300184780173,6.389741199789569,return,6.217679699882865,stimuli/alien_stimuli/66.png,66,5,1,,,,,,,,,,,,,,,,,,,,,,,,,,,,,,,,,,,,,,,,,,,,,,,,,,,,,,,,,,,,,,,,,,,,,,,,,,,,,,,,,,,,,,,,,3HAC8Z,train_y,blue_star,bottom_right,2025-04-08_17h20.32.454,HideSeek_v1,2022.2.5,59.91776884172358,
,,,,,,,,,,,30,,,,0,0,0,0,,,,,,,,,,,,,,,,,,,,,,,,,,,,,,,,,,,,,,,,,,,,,,,,,,,,,,,,,,,,,,,,,,,,,,,,,,,,,,21,0.7,0,0,99,1,30,0,conditions/schedules/train_y_first/blue_star_00/bottom_right/inputTrain_1.1.xlsx,99,1,1,1,0,,,,,,,,,,,,,,,,,,,,,,,,,,,,,,,,,,,,,,,,,,,,,,,,,,,,,,,,,,,,,,,,,,,,,,,,,,,3HAC8Z,train_y,blue_star,bottom_right,2025-04-08_17h20.32.454,HideSeek_v1,2022.2.5,59.91776884172358,
,,,,,,,,,,,,,,,1,0,1,0,0,0,0,0,,,,,,,,,,,,,,,,,,,,,,,,,,,,,,,conditions/schedules/train_y_first/blue_star_00/bottom_right/instructions/Slide13.png,conditions/schedules/train_y_first/blue_star_00/bottom_right/instructions/Audio13.wav,2127.687310800189,2127.6889477801974,13,"[5.773420999990776, 17.7970032999292, 16.283478900091723, 20.45647029997781, 4.484447799855843, 5.003875799942762, 5.352268100017682, 11.556663100142032, 6.153538099955767, 6.7419825999531895, 10.101300900103524, 14.104667900130153, 16.82960160006769]","[5.773433699971065, 0.014262499986216426, 0.014178300043568015, 0.014180499827489257, 0.04983039991930127, 0.06405480019748211, 0.08055770001374185, 0.04808209999464452, 0.05336420005187392, 0.04742750013247132, 0.01376260002143681, 14.104674900183454, 16.82960890000686]",0,,,,,,,,,,,,,,,,,,,,,,,,,,,,,,,,,,,,,,,,,,,,,,,,,,,,,,,,,,,,,,,,,,,,,,,,,,,,,,,,,,,,,,,,,,,,,,,,,,,,,,,,,,,,,,,,,,,,,,,,,,,,3HAC8Z,train_y,blue_star,bottom_right,2025-04-08_17h20.32.454,HideSeek_v1,2022.2.5,59.91776884172358,
,,,,,,,,,,,,,,,1,0,1,0,1,0,1,0,,,,,,,,,,,,,,,,,,,,,,,,,,,,,,,conditions/schedules/train_y_first/blue_star_00/bottom_right/instructions/Slide14.png,conditions/schedules/train_y_first/blue_star_00/bottom_right/instructions/Audio14.wav,2144.587719500065,2144.586152900243,14,"[5.773420999990776, 17.7970032999292, 16.283478900091723, 20.45647029997781, 4.484447799855843, 5.003875799942762, 5.352268100017682, 11.556663100142032, 6.153538099955767, 6.7419825999531895, 10.101300900103524, 14.104667900130153, 16.82960160006769, 17.06026909989305]","[5.773433699971065, 0.014262499986216426, 0.014178300043568015, 0.014180499827489257, 0.04983039991930127, 0.06405480019748211, 0.08055770001374185, 0.04808209999464452, 0.05336420005187392, 0.04742750013247132, 0.01376260002143681, 14.104674900183454, 0.046820999821648, 17.060275599826127]",0,,,,,,,,,,,,,,,,,,,,,,,,,,,,,,,,,,,,,,,,,,,,,,,,,,,,,,,,,,,,,,,,,,,,,,,,,,,,,,,,,,,,,,,,,,,,,,,,,,,,,,,,,,,,,,,,,,,,,,,,,,,,3HAC8Z,train_y,blue_star,bottom_right,2025-04-08_17h20.32.454,HideSeek_v1,2022.2.5,59.91776884172358,
2,7,3,7,3,0,0,61,2,instr_dim1_1,,,,,,1,0,1,0,,,,,0,0,0,0,,,,,,,,,,,,,,,,,,,,,,,,,,,,,,,,,,,,,stimuli/alien_stimuli/61.png,conditions/schedules/train_y_first/blue_star_00/bottom_right/inputInstr_1.xlsx,stimuli/alien_stimuli/61.png,2161.746452799998,2161.746452799998,2161.746452799998,2161.746452799998,2161.7504028402736,return,6.503980799810961,"[-0.16, -0.08, 0, 0.08, 0.16, 0.24, 0.32, 0.4, 0.48, 0.56]","[-0.4, -0.32, -0.24, -0.16, -0.08, 0, 0.08, 0.16, 0.24, 0.32]",3,3,7,7,0.0,0.0,2168.3954852002207,2168.3954852002207,2168.3954852002207,2168.3954852002207,2168.3954852002207,2168.3954852002207,2168.3954852002207,2168.3891411601103,7.006699699908495,return,6.863846400054172,stimuli/alien_stimuli/61.png,61,7,2,,,,,,,,,,,,,,,,,,,,,,,,,,,,,,,,,,,,,,,,,,,,,,,,,,,,,,,,,,,,,,,,,,,,,,,,,,,,,,,,,,,,,,,,,3HAC8Z,train_y,blue_star,bottom_right,2025-04-08_17h20.32.454,HideSeek_v1,2022.2.5,59.91776884172358,
,,,,,,,,,,,30,,,,1,0,1,0,,,,,,,,,,,,,,,,,,,,,,,,,,,,,,,,,,,,,,,,,,,,,,,,,,,,,,,,,,,,,,,,,,,,,,,,,,,,,,21,0.7,0,0,99,1,30,0,conditions/schedules/train_y_first/blue_star_00/bottom_right/inputTrain_1.1.xlsx,99,1,1,1,0,,,,,,,,,,,,,,,,,,,,,,,,,,,,,,,,,,,,,,,,,,,,,,,,,,,,,,,,,,,,,,,,,,,,,,,,,,,3HAC8Z,train_y,blue_star,bottom_right,2025-04-08_17h20.32.454,HideSeek_v1,2022.2.5,59.91776884172358,
,,,,,,,,,,,,,,,2,0,2,0,0,0,0,0,,,,,,,,,,,,,,,,,,,,,,,,,,,,,,,conditions/schedules/train_y_first/blue_star_00/bottom_right/instructions/Slide15.png,conditions/schedules/train_y_first/blue_star_00/bottom_right/instructions/Audio15.wav,2175.4293411001563,2175.4283523000777,15,"[5.773420999990776, 17.7970032999292, 16.283478900091723, 20.45647029997781, 4.484447799855843, 5.003875799942762, 5.352268100017682, 11.556663100142032, 6.153538099955767, 6.7419825999531895, 10.101300900103524, 14.104667900130153, 16.82960160006769, 17.06026909989305, 42.86595440004021]","[5.773433699971065, 0.014262499986216426, 0.014178300043568015, 0.014180499827489257, 0.04983039991930127, 0.06405480019748211, 0.08055770001374185, 0.04808209999464452, 0.05336420005187392, 0.04742750013247132, 0.01376260002143681, 14.104674900183454, 0.046820999821648, 17.060275599826127, 42.86596199986525]",0,,,,,,,,,,,,,,,,,,,,,,,,,,,,,,,,,,,,,,,,,,,,,,,,,,,,,,,,,,,,,,,,,,,,,,,,,,,,,,,,,,,,,,,,,,,,,,,,,,,,,,,,,,,,,,,,,,,,,,,,,,,,3HAC8Z,train_y,blue_star,bottom_right,2025-04-08_17h20.32.454,HideSeek_v1,2022.2.5,59.91776884172358,
,,,,,,,,,,,,,,,2,0,2,0,1,0,1,0,,,,,,,,,,,,,,,,,,,,,,,,,,,,,,,conditions/schedules/train_y_first/blue_star_00/bottom_right/instructions/Slide16.png,conditions/schedules/train_y_first/blue_star_00/bottom_right/instructions/Audio16.wav,2218.371367700165,2218.364379200153,16,"[5.773420999990776, 17.7970032999292, 16.283478900091723, 20.45647029997781, 4.484447799855843, 5.003875799942762, 5.352268100017682, 11.556663100142032, 6.153538099955767, 6.7419825999531895, 10.101300900103524, 14.104667900130153, 16.82960160006769, 17.06026909989305, 42.86595440004021, 22.24207579996437]","[5.773433699971065, 0.014262499986216426, 0.014178300043568015, 0.014180499827489257, 0.04983039991930127, 0.06405480019748211, 0.08055770001374185, 0.04808209999464452, 0.05336420005187392, 0.04742750013247132, 0.01376260002143681, 14.104674900183454, 0.046820999821648, 17.060275599826127, 0.09005330014042556, 22.2420825001318]",0,,,,,,,,,,,,,,,,,,,,,,,,,,,,,,,,,,,,,,,,,,,,,,,,,,,,,,,,,,,,,,,,,,,,,,,,,,,,,,,,,,,,,,,,,,,,,,,,,,,,,,,,,,,,,,,,,,,,,,,,,,,,3HAC8Z,train_y,blue_star,bottom_right,2025-04-08_17h20.32.454,HideSeek_v1,2022.2.5,59.91776884172358,
,5,0,5,4,0,4,65,,train_dim1_1,1,30,,,,2,0,2,0,,,,,,,,,0,0,0,0,0,0,0,0,0,0,0,0,,,,,,,,,,,,,,,,,,,,,,,,,stimuli/alien_stimuli/65.png,,,,,,,,,,,,,,,,,,,,,,,,,,,,,,,,,,,,,,,30,,,,,,,,2240.7176411000546,2240.7176411000546,2240.7176411000546,2240.7176411000546,2240.7176411000546,up,3.5966399000026286,0,0,0,99,0.24,-0.32,up,3.487357599893585,,,,,,,,,,,,,,,,,,,,,,,,,,,,,,,,,,,,,,,,,,,,,,,,,,,,,,,,,,,,3HAC8Z,train_y,blue_star,bottom_right,2025-04-08_17h20.32.454,HideSeek_v1,2022.2.5,59.91776884172358,
,5,0,5,4,0,4,65,,train_dim1_1,1,30,,,,2,0,2,0,,,,,,,,,0,0,0,0,0,0,0,0,1,0,1,0,,,,,,,,,,,,,,,,,,,,,,,,,,,,,,,,,,,,,,,,,,,,,,,,,,,,,,,,,,,,,,,,30,,,,,,,,2244.3122740001418,2244.3122740001418,2244.3122740001418,2244.3122740001418,2244.3122740001418,up,1.0864544999785721,0,0,0,99,0.24,-0.24,up,0.9922258998267353,,,,,,,,,,,,,,,,,,,,,,,,,,,,,,,,,,,,,,,,,,,,,,,,,,,,,,,,,,,,3HAC8Z,train_y,blue_star,bottom_right,2025-04-08_17h20.32.454,HideSeek_v1,2022.2.5,59.91776884172358,
,5,0,5,4,0,4,65,,train_dim1_1,1,30,,,,2,0,2,0,,,,,,,,,0,0,0,0,0,0,0,0,2,0,2,0,,,,,,,,,,,,,,,,,,,,,,,,,,,,,,,,,,,,,,,,,,,,,,,,,,,,,,,,,,,,,,,,30,,,,,,,,2245.399268500041,2245.399268500041,2245.399268500041,2245.399268500041,2245.399268500041,up,0.16017189994454384,0,0,0,99,0.24,-0.15999999999999998,up,0.0871335999108851,,,,,,,,,,,,,,,,,,,,,,,,,,,,,,,,,,,,,,,,,,,,,,,,,,,,,,,,,,,,3HAC8Z,train_y,blue_star,bottom_right,2025-04-08_17h20.32.454,HideSeek_v1,2022.2.5,59.91776884172358,
,5,0,5,4,0,4,65,,train_dim1_1,1,30,,,,2,0,2,0,,,,,,,,,0,0,0,0,0,0,0,0,3,0,3,0,,,,,,,,,,,,,,,,,,,,,,,,,,,,,,,,,,,,,,,,,,,,,,,,,,,,,,,,,,,,,,,,30,,,,,,,,2245.5663616000675,2245.5663616000675,2245.5663616000675,2245.5663616000675,2245.5663616000675,up,0.15992160001769662,0,0,0,99,0.24,-0.07999999999999997,up,0.08556219981983304,,,,,,,,,,,,,,,,,,,,,,,,,,,,,,,,,,,,,,,,,,,,,,,,,,,,,,,,,,,,3HAC8Z,train_y,blue_star,bottom_right,2025-04-08_17h20.32.454,HideSeek_v1,2022.2.5,59.91776884172358,
,5,0,5,4,0,4,65,,train_dim1_1,1,30,,,,2,0,2,0,,,,,,,,,0,0,0,0,0,0,0,0,4,0,4,0,,,,,,,,,,,,,,,,,,,,,,,,,,,,,,,,,,,,,,,,,,,,,,,,,,,,,,,,,,,,,,,,30,,,,,,,,2245.7353408001363,2245.7353408001363,2245.7353408001363,2245.7353408001363,2245.7353408001363,up,0.1575944998767227,0,0,0,99,0.24,2.7755575615628914e-17,up,0.0827895998954773,,,,,,,,,,,,,,,,,,,,,,,,,,,,,,,,,,,,,,,,,,,,,,,,,,,,,,,,,,,,3HAC8Z,train_y,blue_star,bottom_right,2025-04-08_17h20.32.454,HideSeek_v1,2022.2.5,59.91776884172358,
,5,0,5,4,0,4,65,,train_dim1_1,1,30,,,,2,0,2,0,,,,,,,,,0,0,0,0,0,0,0,0,5,0,5,0,,,,,,,,,,,,,,,,,,,,,,,,,,,,,,,,,,,,,,,,,,,,,,,,,,,,,,,,,,,,,,,,30,,,,,,,,2245.8999884000514,2245.8999884000514,2245.8999884000514,2245.8999884000514,2245.8999884000514,down,4.5467185999732465,0,0,0,99,0.24,-0.07999999999999997,down,4.4626378999091685,,,,,,,,,,,,,,,,,,,,,,,,,,,,,,,,,,,,,,,,,,,,,,,,,,,,,,,,,,,,3HAC8Z,train_y,blue_star,bottom_right,2025-04-08_17h20.32.454,HideSeek_v1,2022.2.5,59.91776884172358,
,5,0,5,4,0,4,65,,train_dim1_1,1,30,,,,2,0,2,0,,,,,,,,,0,0,0,0,0,0,0,0,6,0,6,0,,,,,,,,,,,,,,,,,,,,,,,,,,,,,,,,,,,,,,,,,,,,,,,,,,,,,,,,,,,,,,,,30,,,,,,,,2250.4533096000087,2250.4533096000087,2250.4533096000087,2250.4533096000087,2250.4533096000087,return,2.294442499987781,1,0,0,1,0.24,-0.07999999999999997,return,2.215800300007686,4,0,0.24,-0.07999999999999997,,,,,,,,,,,,,,,,,,,,,,,,,,,,,,,,,,,,,,,,,,,,,,,,,,,,,,,,3HAC8Z,train_y,blue_star,bottom_right,2025-04-08_17h20.32.454,HideSeek_v1,2022.2.5,59.91776884172358,
,8,2,8,7,0,5,66,,train_dim1_1,2,30,,,,2,0,2,0,,,,,,,,,0,0,0,0,0,1,1,1,0,0,0,0,,,,,,,,,,,,,,,,,,,,,,,,,stimuli/alien_stimuli/66.png,,,,,,,,,,,,,,,,,,,,,,,,,,,,,stimuli/alien_stimuli/65.png,65,5,3,,,,,,,30,,,,,,,,2263.2188677000813,2263.2188677000813,2263.2188677000813,2263.2188677000813,2263.2188677000813,up,3.242034399881959,1,0,0,99,0.48,-0.15999999999999998,up,3.1632272999268025,,,,,2261.666678500129,2263.2188677000813,0.24,-0.08,0.32,0.0,-0.24000000000000002,0.24,0.24,0.24,-0.08,2254.322525200201,2254.322525200201,2254.322525200201,2254.322525200201,2254.322525200201,2254.322525200201,2254.322525200201,2254.322525200201,2254.3104916400744,7.458318799966946,return,7.322499599773437,,,,,,,,,,,,,,,,,,,,,,,,,,,,,,,,,3HAC8Z,train_y,blue_star,bottom_right,2025-04-08_17h20.32.454,HideSeek_v1,2022.2.5,59.91776884172358,
,8,2,8,7,0,5,66,,train_dim1_1,2,30,,,,2,0,2,0,,,,,,,,,0,0,0,0,0,1,1,1,1,0,1,0,,,,,,,,,,,,,,,,,,,,,,,,,,,,,,,,,,,,,,,,,,,,,,,,,,,,,,,,,,,,,,,,30,,,,,,,,2266.4668449000455,2266.4668449000455,2266.4668449000455,2266.4668449000455,2266.4668449000455,up,0.4931308999657631,1,0,0,99,0.48,-0.07999999999999997,up,0.4208726000506431,,,,,,,,,,,,,,,,,,,,,,,,,,,,,,,,,,,,,,,,,,,,,,,,,,,,,,,,,,,,3HAC8Z,train_y,blue_star,bottom_right,2025-04-08_17h20.32.454,HideSeek_v1,2022.2.5,59.91776884172358,
,8,2,8,7,0,5,66,,train_dim1_1,2,30,,,,2,0,2,0,,,,,,,,,0,0,0,0,0,1,1,1,2,0,2,0,,,,,,,,,,,,,,,,,,,,,,,,,,,,,,,,,,,,,,,,,,,,,,,,,,,,,,,,,,,,,,,,30,,,,,,,,2266.96709580021,2266.96709580021,2266.96709580021,2266.96709580021,2266.96709580021,up,0.34323760005645454,1,0,0,99,0.48,2.7755575615628914e-17,up,0.2704554998781532,,,,,,,,,,,,,,,,,,,,,,,,,,,,,,,,,,,,,,,,,,,,,,,,,,,,,,,,,,,,3HAC8Z,train_y,blue_star,bottom_right,2025-04-08_17h20.32.454,HideSeek_v1,2022.2.5,59.91776884172358,
,8,2,8,7,0,5,66,,train_dim1_1,2,30,,,,2,0,2,0,,,,,,,,,0,0,0,0,0,1,1,1,3,0,3,0,,,,,,,,,,,,,,,,,,,,,,,,,,,,,,,,,,,,,,,,,,,,,,,,,,,,,,,,,,,,,,,,30,,,,,,,,2267.320033200085,2267.320033200085,2267.320033200085,2267.320033200085,2267.320033200085,up,0.176439399830997,1,0,0,99,0.48,0.08000000000000003,up,0.09350940003059804,,,,,,,,,,,,,,,,,,,,,,,,,,,,,,,,,,,,,,,,,,,,,,,,,,,,,,,,,,,,3HAC8Z,train_y,blue_star,bottom_right,2025-04-08_17h20.32.454,HideSeek_v1,2022.2.5,59.91776884172358,
,8,2,8,7,0,5,66,,train_dim1_1,2,30,,,,2,0,2,0,,,,,,,,,0,0,0,0,0,1,1,1,4,0,4,0,,,,,,,,,,,,,,,,,,,,,,,,,,,,,,,,,,,,,,,,,,,,,,,,,,,,,,,,,,,,,,,,30,,,,,,,,2267.500593500212,2267.500593500212,2267.500593500212,2267.500593500212,2267.500593500212,up,0.1598404000978917,1,0,0,99,0.48,0.16000000000000003,up,0.07211549975909293,,,,,,,,,,,,,,,,,,,,,,,,,,,,,,,,,,,,,,,,,,,,,,,,,,,,,,,,,,,,3HAC8Z,train_y,blue_star,bottom_right,2025-04-08_17h20.32.454,HideSeek_v1,2022.2.5,59.91776884172358,
,8,2,8,7,0,5,66,,train_dim1_1,2,30,,,,2,0,2,0,,,,,,,,,0,0,0,0,0,1,1,1,5,0,5,0,,,,,,,,,,,,,,,,,,,,,,,,,,,,,,,,,,,,,,,,,,,,,,,,,,,,,,,,,,,,,,,,30,,,,,,,,2267.667754000053,2267.667754000053,2267.667754000053,2267.667754000053,2267.667754000053,return,0.5767363999038935,2,0,0,1,0.48,0.16000000000000003,return,0.4992339997552335,9,0,0.48,0.16000000000000003,,,,,,,,,,,,,,,,,,,,,,,,,,,,,,,,,,,,,,,,,,,,,,,,,,,,,,,,3HAC8Z,train_y,blue_star,bottom_right,2025-04-08_17h20.32.454,HideSeek_v1,2022.2.5,59.91776884172358,
,7,3,7,6,0,3,64,,train_dim1_1,3,30,,,,2,0,2,0,,,,,,,,,0,0,0,0,0,2,2,2,0,0,0,0,,,,,,,,,,,,,,,,,,,,,,,,,stimuli/alien_stimuli/64.png,,,,,,,,,,,,,,,,,,,,,,,,,,,,,stimuli/alien_stimuli/66.png,66,8,4,,,,,,,30,,,,,,,,2275.8790823000018,2275.8790823000018,2275.8790823000018,2275.8790823000018,2275.8790823000018,up,3.124983200104907,2,0,0,99,0.4,-0.08,up,3.042414999799803,,,,,2274.3271977000404,2275.8790823000018,0.48,0.16,0.4,0.0,-0.039999999999999994,0.48,0.48,0.48,0.16,2269.8161503002048,2269.8161503002048,2269.8161503002048,2269.8161503002048,2269.8161503002048,2269.8161503002048,2269.8161503002048,2269.8161503002048,2269.8068035400474,4.622479900019243,return,4.485772399930283,,,,,,,,,,,,,,,,,,,,,,,,,,,,,,,,,3HAC8Z,train_y,blue_star,bottom_right,2025-04-08_17h20.32.454,HideSeek_v1,2022.2.5,59.91776884172358,
,7,3,7,6,0,3,64,,train_dim1_1,3,30,,,,2,0,2,0,,,,,,,,,0,0,0,0,0,2,2,2,1,0,1,0,,,,,,,,,,,,,,,,,,,,,,,,,,,,,,,,,,,,,,,,,,,,,,,,,,,,,,,,,,,,,,,,30,,,,,,,,2279.0099723001476,2279.0099723001476,2279.0099723001476,2279.0099723001476,2279.0099723001476,up,0.8101447999943048,2,0,0,99,0.4,0.0,up,0.7336669997312129,,,,,,,,,,,,,,,,,,,,,,,,,,,,,,,,,,,,,,,,,,,,,,,,,,,,,,,,,,,,3HAC8Z,train_y,blue_star,bottom_right,2025-04-08_17h20.32.454,HideSeek_v1,2022.2.5,59.91776884172358,
,7,3,7,6,0,3,64,,train_dim1_1,3,30,,,,2,0,2,0,,,,,,,,,0,0,0,0,0,2,2,2,2,0,2,0,,,,,,,,,,,,,,,,,,,,,,,,,,,,,,,,,,,,,,,,,,,,,,,,,,,,,,,,,,,,,,,,30,,,,,,,,2279.827075400157,2279.827075400157,2279.827075400157,2279.827075400157,2279.827075400157,up,0.15973830013535917,2,0,0,99,0.4,0.08,up,0.08839439996518195,,,,,,,,,,,,,,,,,,,,,,,,,,,,,,,,,,,,,,,,,,,,,,,,,,,,,,,,,,,,3HAC8Z,train_y,blue_star,bottom_right,2025-04-08_17h20.32.454,HideSeek_v1,2022.2.5,59.91776884172358,
,7,3,7,6,0,3,64,,train_dim1_1,3,30,,,,2,0,2,0,,,,,,,,,0,0,0,0,0,2,2,2,3,0,3,0,,,,,,,,,,,,,,,,,,,,,,,,,,,,,,,,,,,,,,,,,,,,,,,,,,,,,,,,,,,,,,,,30,,,,,,,,2279.993934100028,2279.993934100028,2279.993934100028,2279.993934100028,2279.993934100028,return,1.8616470000706613,3,0,0,1,0.4,0.08,return,1.788943599909544,12,0,0.4,0.08,,,,,,,,,,,,,,,,,,,,,,,,,,,,,,,,,,,,,,,,,,,,,,,,,,,,,,,,3HAC8Z,train_y,blue_star,bottom_right,2025-04-08_17h20.32.454,HideSeek_v1,2022.2.5,59.91776884172358,
,5,1,5,2,0,1,62,,train_dim1_1,4,30,,,,2,0,2,0,,,,,,,,,0,0,0,0,0,3,3,3,0,0,0,0,,,,,,,,,,,,,,,,,,,,,,,,,stimuli/alien_stimuli/62.png,,,,,,,,,,,,,,,,,,,,,,,,,,,,,stimuli/alien_stimuli/64.png,64,7,5,,,,,,,30,,,,,,,,2288.990452400176,2288.990452400176,2288.990452400176,2288.990452400176,2288.990452400176,return,2.0739923000801355,3,1,0,0,0.24,-0.32,return,1.9963403998408467,12,0,0.24,-0.32,2287.437684000004,2288.990452400176,0.4,0.08,0.24,0.0,-0.04,0.4,0.4,0.4,0.08,2283.423078900203,2283.423078900203,2283.423078900203,2283.423078900203,2283.423078900203,2283.423078900203,2283.423078900203,2283.423078900203,2283.418069640128,4.121917499927804,return,3.9886087998747826,,,,,,,,,,,,,,,,,,,,,,,,,,,,,,,,,3HAC8Z,train_y,blue_star,bottom_right,2025-04-08_17h20.32.454,HideSeek_v1,2022.2.5,59.91776884172358,
,8,3,8,3,0,0,61,,train_dim1_1,5,30,,,,2,0,2,0,,,,,,,,,0,0,0,0,0,4,4,4,0,0,0,0,,,,,,,,,,,,,,,,,,,,,,,,,stimuli/alien_stimuli/61.png,,,,,,,,,,,,,,,,,,,,,,,,,,,,,stimuli/alien_stimuli/62.png,62,5,6,,,,,,,30,,,,,,,,2297.965262000216,2297.965262000216,2297.965262000216,2297.965262000216,2297.965262000216,up,3.691443699877709,3,1,0,99,0.48,-0.08,up,3.6128064999356866,,,,,2296.412216400029,2297.965262000216,0.24,-0.24,0.08,0.0,-0.28,0.24,0.24,0.24,-0.24,2292.615692900028,2292.615692900028,2292.615692900028,2292.615692900028,2292.615692900028,2292.615692900028,2292.615692900028,2292.615692900028,2292.6090669202154,3.888646800071001,return,3.769991399953142,,,,,,,,,,,,,,,,,,,,,,,,,,,,,,,,,3HAC8Z,train_y,blue_star,bottom_right,2025-04-08_17h20.32.454,HideSeek_v1,2022.2.5,59.91776884172358,
,8,3,8,3,0,0,61,,train_dim1_1,5,30,,,,2,0,2,0,,,,,,,,,0,0,0,0,0,4,4,4,1,0,1,0,,,,,,,,,,,,,,,,,,,,,,,,,,,,,,,,,,,,,,,,,,,,,,,,,,,,,,,,,,,,,,,,30,,,,,,,,2301.663958000019,2301.663958000019,2301.663958000019,2301.663958000019,2301.663958000019,return,0.5927801001816988,3,1,0,0,0.48,-0.08,return,0.5087653999216855,13,0,0.48,-0.08,,,,,,,,,,,,,,,,,,,,,,,,,,,,,,,,,,,,,,,,,,,,,,,,,,,,,,,,3HAC8Z,train_y,blue_star,bottom_right,2025-04-08_17h20.32.454,HideSeek_v1,2022.2.5,59.91776884172358,
,6,4,6,5,0,1,62,,train_dim1_1,6,30,,,,2,0,2,0,,,,,,,,,0,0,0,0,0,5,5,5,0,0,0,0,,,,,,,,,,,,,,,,,,,,,,,,,stimuli/alien_stimuli/62.png,,,,,,,,,,,,,,,,,,,,,,,,,,,,,stimuli/alien_stimuli/61.png,61,8,7,,,,,,,30,,,,,,,,2307.1740077000577,2307.1740077000577,2307.1740077000577,2307.1740077000577,2307.1740077000577,up,5.04053290002048,3,1,0,99,0.32,0.0,up,4.963635100051761,,,,,2305.619942900026,2307.1740077000577,0.48,-0.16,0.0,0.0,-0.16,0.48,0.48,0.48,-0.16,2303.8062996000517,2303.8062996000517,2303.8062996000517,2303.8062996000517,2303.8062996000517,2303.8062996000517,2303.8062996000517,2303.8062996000517,2303.801455220068,1.9042837000451982,return,1.7901269998401403,,,,,,,,,,,,,,,,,,,,,,,,,,,,,,,,,3HAC8Z,train_y,blue_star,bottom_right,2025-04-08_17h20.32.454,HideSeek_v1,2022.2.5,59.91776884172358,
,6,4,6,5,0,1,62,,train_dim1_1,6,30,,,,2,0,2,0,,,,,,,,,0,0,0,0,0,5,5,5,1,0,1,0,,,,,,,,,,,,,,,,,,,,,,,,,,,,,,,,,,,,,,,,,,,,,,,,,,,,,,,,,,,,,,,,30,,,,,,,,2312.2216787000652,2312.2216787000652,2312.2216787000652,2312.2216787000652,2312.2216787000652,return,3.44563930016011,4,0,0,1,0.32,0.0,return,3.368916899897158,14,0,0.32,0.0,,,,,,,,,,,,,,,,,,,,,,,,,,,,,,,,,,,,,,,,,,,,,,,,,,,,,,,,3HAC8Z,train_y,blue_star,bottom_right,2025-04-08_17h20.32.454,HideSeek_v1,2022.2.5,59.91776884172358,
,6,3,6,6,0,3,64,,train_dim1_1,7,30,,,,2,0,2,0,,,,,,,,,0,0,0,0,0,6,6,6,0,0,0,0,,,,,,,,,,,,,,,,,,,,,,,,,stimuli/alien_stimuli/64.png,,,,,,,,,,,,,,,,,,,,,,,,,,,,,stimuli/alien_stimuli/62.png,62,6,8,,,,,,,30,,,,,,,,2320.649561200058,2320.649561200058,2320.649561200058,2320.649561200058,2320.649561200058,up,1.3558169000316411,4,0,0,99,0.32,-0.08,up,1.2793059998657554,,,,,2319.097606800031,2320.649561200058,0.32,0,0.08,0.0,-0.04,0.32,0.32,0.32,0,2317.2387606000993,2317.2387606000993,2317.2387606000993,2317.2387606000993,2317.2387606000993,2317.2387606000993,2317.2387606000993,2317.2387606000993,2317.2294571401553,1.9706213001627475,return,1.8413350000046194,,,,,,,,,,,,,,,,,,,,,,,,,,,,,,,,,3HAC8Z,train_y,blue_star,bottom_right,2025-04-08_17h20.32.454,HideSeek_v1,2022.2.5,59.91776884172358,
,6,3,6,6,0,3,64,,train_dim1_1,7,30,,,,2,0,2,0,,,,,,,,,0,0,0,0,0,6,6,6,1,0,1,0,,,,,,,,,,,,,,,,,,,,,,,,,,,,,,,,,,,,,,,,,,,,,,,,,,,,,,,,,,,,,,,,30,,,,,,,,2322.0128355000634,2322.0128355000634,2322.0128355000634,2322.0128355000634,2322.0128355000634,up,0.15948889986611903,4,0,0,99,0.32,0.0,up,0.08490359992720187,,,,,,,,,,,,,,,,,,,,,,,,,,,,,,,,,,,,,,,,,,,,,,,,,,,,,,,,,,,,3HAC8Z,train_y,blue_star,bottom_right,2025-04-08_17h20.32.454,HideSeek_v1,2022.2.5,59.91776884172358,
,6,3,6,6,0,3,64,,train_dim1_1,7,30,,,,2,0,2,0,,,,,,,,,0,0,0,0,0,6,6,6,2,0,2,0,,,,,,,,,,,,,,,,,,,,,,,,,,,,,,,,,,,,,,,,,,,,,,,,,,,,,,,,,,,,,,,,30,,,,,,,,2322.179652400082,2322.179652400082,2322.179652400082,2322.179652400082,2322.179652400082,up,0.14335519983433187,4,0,0,99,0.32,0.08,up,0.06935500004328787,,,,,,,,,,,,,,,,,,,,,,,,,,,,,,,,,,,,,,,,,,,,,,,,,,,,,,,,,,,,3HAC8Z,train_y,blue_star,bottom_right,2025-04-08_17h20.32.454,HideSeek_v1,2022.2.5,59.91776884172358,
,6,3,6,6,0,3,64,,train_dim1_1,7,30,,,,2,0,2,0,,,,,,,,,0,0,0,0,0,6,6,6,3,0,3,0,,,,,,,,,,,,,,,,,,,,,,,,,,,,,,,,,,,,,,,,,,,,,,,,,,,,,,,,,,,,,,,,30,,,,,,,,2322.329808900133,2322.329808900133,2322.329808900133,2322.329808900133,2322.329808900133,return,2.0111359001602978,5,0,0,1,0.32,0.08,return,1.9314760998822749,17,0,0.32,0.08,,,,,,,,,,,,,,,,,,,,,,,,,,,,,,,,,,,,,,,,,,,,,,,,,,,,,,,,3HAC8Z,train_y,blue_star,bottom_right,2025-04-08_17h20.32.454,HideSeek_v1,2022.2.5,59.91776884172358,
,9,2,9,2,0,0,61,,train_dim1_1,8,30,,,,2,0,2,0,,,,,,,,,0,0,0,0,0,7,7,7,0,0,0,0,,,,,,,,,,,,,,,,,,,,,,,,,stimuli/alien_stimuli/61.png,,,,,,,,,,,,,,,,,,,,,,,,,,,,,stimuli/alien_stimuli/64.png,64,6,9,,,,,,,30,,,,,,,,2328.6567917000502,2328.6567917000502,2328.6567917000502,2328.6567917000502,2328.6567917000502,up,1.7553123999387026,5,0,0,99,0.56,-0.15999999999999998,up,1.6818406998645514,,,,,2327.104151900159,2328.6567917000502,0.32,0.08,0.24,0.0,-0.04,0.32,0.32,0.32,0.08,2325.890453600092,2325.890453600092,2325.890453600092,2325.890453600092,2325.890453600092,2325.890453600092,2325.890453600092,2325.890453600092,2325.8866670202465,1.3035691000986844,return,1.1931933998130262,,,,,,,,,,,,,,,,,,,,,,,,,,,,,,,,,3HAC8Z,train_y,blue_star,bottom_right,2025-04-08_17h20.32.454,HideSeek_v1,2022.2.5,59.91776884172358,
,9,2,9,2,0,0,61,,train_dim1_1,8,30,,,,2,0,2,0,,,,,,,,,0,0,0,0,0,7,7,7,1,0,1,0,,,,,,,,,,,,,,,,,,,,,,,,,,,,,,,,,,,,,,,,,,,,,,,,,,,,,,,,,,,,,,,,30,,,,,,,,2330.4199405000545,2330.4199405000545,2330.4199405000545,2330.4199405000545,2330.4199405000545,return,0.3260916001163423,5,1,0,0,0.56,-0.15999999999999998,return,0.23988069989718497,18,0,0.56,-0.15999999999999998,,,,,,,,,,,,,,,,,,,,,,,,,,,,,,,,,,,,,,,,,,,,,,,,,,,,,,,,3HAC8Z,train_y,blue_star,bottom_right,2025-04-08_17h20.32.454,HideSeek_v1,2022.2.5,59.91776884172358,
,9,3,9,7,0,4,65,,train_dim1_1,9,30,,,,2,0,2,0,,,,,,,,,0,0,0,0,0,8,8,8,0,0,0,0,,,,,,,,,,,,,,,,,,,,,,,,,stimuli/alien_stimuli/65.png,,,,,,,,,,,,,,,,,,,,,,,,,,,,,stimuli/alien_stimuli/61.png,61,9,10,,,,,,,30,,,,,,,,2334.695431200089,2334.695431200089,2334.695431200089,2334.695431200089,2334.695431200089,up,1.255253299837932,5,1,0,99,0.56,-0.08,up,1.1761409998871386,,,,,2333.1426950001623,2334.695431200089,0.56,-0.24,0.0,0.0,-0.24,0.56,0.56,0.56,-0.24,2332.2957080001943,2332.2957080001943,2332.2957080001943,2332.2957080001943,2332.2957080001943,2332.2957080001943,2332.2957080001943,2332.2957080001943,2332.291922120238,0.9366890999954194,return,0.8304250999353826,,,,,,,,,,,,,,,,,,,,,,,,,,,,,,,,,3HAC8Z,train_y,blue_star,bottom_right,2025-04-08_17h20.32.454,HideSeek_v1,2022.2.5,59.91776884172358,
,9,3,9,7,0,4,65,,train_dim1_1,9,30,,,,2,0,2,0,,,,,,,,,0,0,0,0,0,8,8,8,1,0,1,0,,,,,,,,,,,,,,,,,,,,,,,,,,,,,,,,,,,,,,,,,,,,,,,,,,,,,,,,,,,,,,,,30,,,,,,,,2335.9577854000963,2335.9577854000963,2335.9577854000963,2335.9577854000963,2335.9577854000963,up,0.15908310003578663,5,1,0,99,0.56,0.0,up,0.08655869984067976,,,,,,,,,,,,,,,,,,,,,,,,,,,,,,,,,,,,,,,,,,,,,,,,,,,,,,,,,,,,3HAC8Z,train_y,blue_star,bottom_right,2025-04-08_17h20.32.454,HideSeek_v1,2022.2.5,59.91776884172358,
,9,3,9,7,0,4,65,,train_dim1_1,9,30,,,,2,0,2,0,,,,,,,,,0,0,0,0,0,8,8,8,2,0,2,0,,,,,,,,,,,,,,,,,,,,,,,,,,,,,,,,,,,,,,,,,,,,,,,,,,,,,,,,,,,,,,,,30,,,,,,,,2336.123957000207,2336.123957000207,2336.123957000207,2336.123957000207,2336.123957000207,up,0.16007820004597306,5,1,0,99,0.56,0.08,up,0.07636269996874034,,,,,,,,,,,,,,,,,,,,,,,,,,,,,,,,,,,,,,,,,,,,,,,,,,,,,,,,,,,,3HAC8Z,train_y,blue_star,bottom_right,2025-04-08_17h20.32.454,HideSeek_v1,2022.2.5,59.91776884172358,
,9,3,9,7,0,4,65,,train_dim1_1,9,30,,,,2,0,2,0,,,,,,,,,0,0,0,0,0,8,8,8,3,0,3,0,,,,,,,,,,,,,,,,,,,,,,,,,,,,,,,,,,,,,,,,,,,,,,,,,,,,,,,,,,,,,,,,30,,,,,,,,2336.2920901000034,2336.2920901000034,2336.2920901000034,2336.2920901000034,2336.2920901000034,up,0.14322549989446998,5,1,0,99,0.56,0.16,up,0.06262719980441034,,,,,,,,,,,,,,,,,,,,,,,,,,,,,,,,,,,,,,,,,,,,,,,,,,,,,,,,,,,,3HAC8Z,train_y,blue_star,bottom_right,2025-04-08_17h20.32.454,HideSeek_v1,2022.2.5,59.91776884172358,
,9,3,9,7,0,4,65,,train_dim1_1,9,30,,,,2,0,2,0,,,,,,,,,0,0,0,0,0,8,8,8,4,0,4,0,,,,,,,,,,,,,,,,,,,,,,,,,,,,,,,,,,,,,,,,,,,,,,,,,,,,,,,,,,,,,,,,30,,,,,,,,2336.4407364001963,2336.4407364001963,2336.4407364001963,2336.4407364001963,2336.4407364001963,up,0.159963000100106,5,1,0,99,0.56,0.24,up,0.08377249981276691,,,,,,,,,,,,,,,,,,,,,,,,,,,,,,,,,,,,,,,,,,,,,,,,,,,,,,,,,,,,3HAC8Z,train_y,blue_star,bottom_right,2025-04-08_17h20.32.454,HideSeek_v1,2022.2.5,59.91776884172358,
,9,3,9,7,0,4,65,,train_dim1_1,9,30,,,,2,0,2,0,,,,,,,,,0,0,0,0,0,8,8,8,5,0,5,0,,,,,,,,,,,,,,,,,,,,,,,,,,,,,,,,,,,,,,,,,,,,,,,,,,,,,,,,,,,,,,,,30,,,,,,,,2336.608247500146,2336.608247500146,2336.608247500146,2336.608247500146,2336.608247500146,return,0.39338980009779334,5,1,0,0,0.56,0.24,return,0.3193382997997105,23,0,0.56,0.24,,,,,,,,,,,,,,,,,,,,,,,,,,,,,,,,,,,,,,,,,,,,,,,,,,,,,,,,3HAC8Z,train_y,blue_star,bottom_right,2025-04-08_17h20.32.454,HideSeek_v1,2022.2.5,59.91776884172358,
,7,2,7,7,0,5,66,,train_dim1_1,10,30,,,,2,0,2,0,,,,,,,,,0,0,0,0,0,9,9,9,0,0,0,0,,,,,,,,,,,,,,,,,,,,,,,,,stimuli/alien_stimuli/66.png,,,,,,,,,,,,,,,,,,,,,,,,,,,,,stimuli/alien_stimuli/65.png,65,9,11,,,,,,,30,,,,,,,,2340.8480719001964,2340.8480719001964,2340.8480719001964,2340.8480719001964,2340.8480719001964,up,1.590665599796921,5,1,0,99,0.4,-0.15999999999999998,up,1.5034921998158097,,,,,2339.297615000047,2340.8480719001964,0.56,0.16,0.32,0.0,0.0,0.56,0.56,0.56,0.16,2338.549925000174,2338.549925000174,2338.549925000174,2338.549925000174,2338.549925000174,2338.549925000174,2338.549925000174,2338.549925000174,2338.5472376200837,0.8363433999475092,return,0.7297896000090986,,,,,,,,,,,,,,,,,,,,,,,,,,,,,,,,,3HAC8Z,train_y,blue_star,bottom_right,2025-04-08_17h20.32.454,HideSeek_v1,2022.2.5,59.91776884172358,
,7,2,7,7,0,5,66,,train_dim1_1,10,30,,,,2,0,2,0,,,,,,,,,0,0,0,0,0,9,9,9,1,0,1,0,,,,,,,,,,,,,,,,,,,,,,,,,,,,,,,,,,,,,,,,,,,,,,,,,,,,,,,,,,,,,,,,30,,,,,,,,2342.4471577000804,2342.4471577000804,2342.4471577000804,2342.4471577000804,2342.4471577000804,up,0.15909940004348755,5,1,0,99,0.4,-0.07999999999999997,up,0.0796987998764962,,,,,,,,,,,,,,,,,,,,,,,,,,,,,,,,,,,,,,,,,,,,,,,,,,,,,,,,,,,,3HAC8Z,train_y,blue_star,bottom_right,2025-04-08_17h20.32.454,HideSeek_v1,2022.2.5,59.91776884172358,
,7,2,7,7,0,5,66,,train_dim1_1,10,30,,,,2,0,2,0,,,,,,,,,0,0,0,0,0,9,9,9,2,0,2,0,,,,,,,,,,,,,,,,,,,,,,,,,,,,,,,,,,,,,,,,,,,,,,,,,,,,,,,,,,,,,,,,30,,,,,,,,2342.613239100203,2342.613239100203,2342.613239100203,2342.613239100203,2342.613239100203,up,0.17661179997958243,5,1,0,99,0.4,2.7755575615628914e-17,up,0.0888223999645561,,,,,,,,,,,,,,,,,,,,,,,,,,,,,,,,,,,,,,,,,,,,,,,,,,,,,,,,,,,,3HAC8Z,train_y,blue_star,bottom_right,2025-04-08_17h20.32.454,HideSeek_v1,2022.2.5,59.91776884172358,
,7,2,7,7,0,5,66,,train_dim1_1,10,30,,,,2,0,2,0,,,,,,,,,0,0,0,0,0,9,9,9,3,0,3,0,,,,,,,,,,,,,,,,,,,,,,,,,,,,,,,,,,,,,,,,,,,,,,,,,,,,,,,,,,,,,,,,30,,,,,,,,2342.7970375001896,2342.7970375001896,2342.7970375001896,2342.7970375001896,2342.7970375001896,up,0.14307669992558658,5,1,0,99,0.4,0.08000000000000003,up,0.06319969985634089,,,,,,,,,,,,,,,,,,,,,,,,,,,,,,,,,,,,,,,,,,,,,,,,,,,,,,,,,,,,3HAC8Z,train_y,blue_star,bottom_right,2025-04-08_17h20.32.454,HideSeek_v1,2022.2.5,59.91776884172358,
,7,2,7,7,0,5,66,,train_dim1_1,10,30,,,,2,0,2,0,,,,,,,,,0,0,0,0,0,9,9,9,4,0,4,0,,,,,,,,,,,,,,,,,,,,,,,,,,,,,,,,,,,,,,,,,,,,,,,,,,,,,,,,,,,,,,,,30,,,,,,,,2342.946537300013,2342.946537300013,2342.946537300013,2342.946537300013,2342.946537300013,return,0.32676449976861477,5,1,0,0,0.4,0.08000000000000003,return,0.24450559983961284,27,0,0.4,0.08000000000000003,,,,,,,,,,,,,,,,,,,,,,,,,,,,,,,,,,,,,,,,,,,,,,,,,,,,,,,,3HAC8Z,train_y,blue_star,bottom_right,2025-04-08_17h20.32.454,HideSeek_v1,2022.2.5,59.91776884172358,
,9,1,9,5,0,4,65,,train_dim1_1,11,30,,,,2,0,2,0,,,,,,,,,0,0,0,0,0,10,10,10,0,0,0,0,,,,,,,,,,,,,,,,,,,,,,,,,stimuli/alien_stimuli/65.png,,,,,,,,,,,,,,,,,,,,,,,,,,,,,stimuli/alien_stimuli/66.png,66,7,12,,,,,,,30,,,,,,,,2348.3403491000645,2348.3403491000645,2348.3403491000645,2348.3403491000645,2348.3403491000645,up,1.2055730000138283,5,1,0,99,0.56,-0.24,up,1.1274216000456363,,,,,2346.7873147001956,2348.3403491000645,0.4,0.16,0.4,0.0,-0.039999999999999994,0.4,0.4,0.4,0.16,2344.8228959001135,2344.8228959001135,2344.8228959001135,2344.8228959001135,2344.8228959001135,2344.8228959001135,2344.8228959001135,2344.8228959001135,2344.8191454201938,2.0538884999696165,return,1.9451809998136014,,,,,,,,,,,,,,,,,,,,,,,,,,,,,,,,,3HAC8Z,train_y,blue_star,bottom_right,2025-04-08_17h20.32.454,HideSeek_v1,2022.2.5,59.91776884172358,
,9,1,9,5,0,4,65,,train_dim1_1,11,30,,,,2,0,2,0,,,,,,,,,0,0,0,0,0,10,10,10,1,0,1,0,,,,,,,,,,,,,,,,,,,,,,,,,,,,,,,,,,,,,,,,,,,,,,,,,,,,,,,,,,,,,,,,30,,,,,,,,2349.55202430021,2349.55202430021,2349.55202430021,2349.55202430021,2349.55202430021,up,0.19273649994283915,5,1,0,99,0.56,-0.15999999999999998,up,0.11065250006504357,,,,,,,,,,,,,,,,,,,,,,,,,,,,,,,,,,,,,,,,,,,,,,,,,,,,,,,,,,,,3HAC8Z,train_y,blue_star,bottom_right,2025-04-08_17h20.32.454,HideSeek_v1,2022.2.5,59.91776884172358,
,9,1,9,5,0,4,65,,train_dim1_1,11,30,,,,2,0,2,0,,,,,,,,,0,0,0,0,0,10,10,10,2,0,2,0,,,,,,,,,,,,,,,,,,,,,,,,,,,,,,,,,,,,,,,,,,,,,,,,,,,,,,,,,,,,,,,,30,,,,,,,,2349.7523098001257,2349.7523098001257,2349.7523098001257,2349.7523098001257,2349.7523098001257,up,0.1596737999934703,5,1,0,99,0.56,-0.07999999999999997,up,0.07996259978972375,,,,,,,,,,,,,,,,,,,,,,,,,,,,,,,,,,,,,,,,,,,,,,,,,,,,,,,,,,,,3HAC8Z,train_y,blue_star,bottom_right,2025-04-08_17h20.32.454,HideSeek_v1,2022.2.5,59.91776884172358,
,9,1,9,5,0,4,65,,train_dim1_1,11,30,,,,2,0,2,0,,,,,,,,,0,0,0,0,0,10,10,10,3,0,3,0,,,,,,,,,,,,,,,,,,,,,,,,,,,,,,,,,,,,,,,,,,,,,,,,,,,,,,,,,,,,,,,,30,,,,,,,,2349.9185764000285,2349.9185764000285,2349.9185764000285,2349.9185764000285,2349.9185764000285,up,0.16034299996681511,5,1,0,99,0.56,2.7755575615628914e-17,up,0.07814569980837405,,,,,,,,,,,,,,,,,,,,,,,,,,,,,,,,,,,,,,,,,,,,,,,,,,,,,,,,,,,,3HAC8Z,train_y,blue_star,bottom_right,2025-04-08_17h20.32.454,HideSeek_v1,2022.2.5,59.91776884172358,
,9,1,9,5,0,4,65,,train_dim1_1,11,30,,,,2,0,2,0,,,,,,,,,0,0,0,0,0,10,10,10,4,0,4,0,,,,,,,,,,,,,,,,,,,,,,,,,,,,,,,,,,,,,,,,,,,,,,,,,,,,,,,,,,,,,,,,30,,,,,,,,2350.0857752000447,2350.0857752000447,2350.0857752000447,2350.0857752000447,2350.0857752000447,up,0.4265863001346588,5,1,0,99,0.56,0.08000000000000003,up,0.3460911998990923,,,,,,,,,,,,,,,,,,,,,,,,,,,,,,,,,,,,,,,,,,,,,,,,,,,,,,,,,,,,3HAC8Z,train_y,blue_star,bottom_right,2025-04-08_17h20.32.454,HideSeek_v1,2022.2.5,59.91776884172358,
,9,1,9,5,0,4,65,,train_dim1_1,11,30,,,,2,0,2,0,,,,,,,,,0,0,0,0,0,10,10,10,5,0,5,0,,,,,,,,,,,,,,,,,,,,,,,,,,,,,,,,,,,,,,,,,,,,,,,,,,,,,,,,,,,,,,,,30,,,,,,,,2350.520010100212,2350.520010100212,2350.520010100212,2350.520010100212,2350.520010100212,up,2.327735099941492,5,1,0,99,0.56,0.16000000000000003,up,2.2479950997512788,,,,,,,,,,,,,,,,,,,,,,,,,,,,,,,,,,,,,,,,,,,,,,,,,,,,,,,,,,,,3HAC8Z,train_y,blue_star,bottom_right,2025-04-08_17h20.32.454,HideSeek_v1,2022.2.5,59.91776884172358,
,9,1,9,5,0,4,65,,train_dim1_1,11,30,,,,2,0,2,0,,,,,,,,,0,0,0,0,0,10,10,10,6,0,6,0,,,,,,,,,,,,,,,,,,,,,,,,,,,,,,,,,,,,,,,,,,,,,,,,,,,,,,,,,,,,,,,,30,,,,,,,,2352.854248100193,2352.854248100193,2352.854248100193,2352.854248100193,2352.854248100193,return,0.8609519999008626,5,0,0,0,0.56,0.16000000000000003,return,0.7784126000478864,33,0,0.56,0.16000000000000003,,,,,,,,,,,,,,,,,,,,,,,,,,,,,,,,,,,,,,,,,,,,,,,,,,,,,,,,3HAC8Z,train_y,blue_star,bottom_right,2025-04-08_17h20.32.454,HideSeek_v1,2022.2.5,59.91776884172358,
,5,0,5,0,0,0,61,,train_dim1_1,12,30,,,,2,0,2,0,,,,,,,,,0,0,0,0,0,11,11,11,0,0,0,0,,,,,,,,,,,,,,,,,,,,,,,,,stimuli/alien_stimuli/61.png,,,,,,,,,,,,,,,,,,,,,,,,,,,,,stimuli/alien_stimuli/65.png,65,9,13,,,,,,,30,,,,,,,,2358.8165842001326,2358.8165842001326,2358.8165842001326,2358.8165842001326,2358.8165842001326,up,2.122588900150731,5,0,0,99,0.24,-0.32,up,2.0443249999079853,,,,,2357.262783400016,2358.8165842001326,0.56,0,0.32,0.0,-0.16,0.56,0.56,0.56,0,2355.2682924000546,2355.2682924000546,2355.2682924000546,2355.2682924000546,2355.2682924000546,2355.2682924000546,2355.2682924000546,2355.2682924000546,2355.261101620132,2.087258500047028,return,1.9716970997396857,,,,,,,,,,,,,,,,,,,,,,,,,,,,,,,,,3HAC8Z,train_y,blue_star,bottom_right,2025-04-08_17h20.32.454,HideSeek_v1,2022.2.5,59.91776884172358,
,5,0,5,0,0,0,61,,train_dim1_1,12,30,,,,2,0,2,0,,,,,,,,,0,0,0,0,0,11,11,11,1,0,1,0,,,,,,,,,,,,,,,,,,,,,,,,,,,,,,,,,,,,,,,,,,,,,,,,,,,,,,,,,,,,,,,,30,,,,,,,,2360.9460685001686,2360.9460685001686,2360.9460685001686,2360.9460685001686,2360.9460685001686,return,0.6259379000402987,5,1,0,0,0.24,-0.32,return,0.540327999740839,34,0,0.24,-0.32,,,,,,,,,,,,,,,,,,,,,,,,,,,,,,,,,,,,,,,,,,,,,,,,,,,,,,,,3HAC8Z,train_y,blue_star,bottom_right,2025-04-08_17h20.32.454,HideSeek_v1,2022.2.5,59.91776884172358,
,9,3,9,4,0,1,62,,train_dim1_1,13,30,,,,2,0,2,0,,,,,,,,,0,0,0,0,0,12,12,12,0,0,0,0,,,,,,,,,,,,,,,,,,,,,,,,,stimuli/alien_stimuli/62.png,,,,,,,,,,,,,,,,,,,,,,,,,,,,,stimuli/alien_stimuli/61.png,61,5,14,,,,,,,30,,,,,,,,2365.887217800133,2365.887217800133,2365.887217800133,2365.887217800133,2365.887217800133,up,1.5902452999725938,5,1,0,99,0.56,-0.08,up,1.515672099776566,,,,,2364.3354519000277,2365.887217800133,0.24,-0.4,0.0,0.0,-0.4,0.24,0.24,0.24,-0.4,2363.122714200057,2363.122714200057,2363.122714200057,2363.122714200057,2363.122714200057,2363.122714200057,2363.122714200057,2363.122714200057,2363.1174911201,1.3032648998778313,return,1.18888819986023,,,,,,,,,,,,,,,,,,,,,,,,,,,,,,,,,3HAC8Z,train_y,blue_star,bottom_right,2025-04-08_17h20.32.454,HideSeek_v1,2022.2.5,59.91776884172358,
,9,3,9,4,0,1,62,,train_dim1_1,13,30,,,,2,0,2,0,,,,,,,,,0,0,0,0,0,12,12,12,1,0,1,0,,,,,,,,,,,,,,,,,,,,,,,,,,,,,,,,,,,,,,,,,,,,,,,,,,,,,,,,,,,,,,,,30,,,,,,,,2367.4848096000496,2367.4848096000496,2367.4848096000496,2367.4848096000496,2367.4848096000496,return,0.409515299834311,6,0,0,1,0.56,-0.08,return,0.32205790001899004,35,0,0.56,-0.08,,,,,,,,,,,,,,,,,,,,,,,,,,,,,,,,,,,,,,,,,,,,,,,,,,,,,,,,3HAC8Z,train_y,blue_star,bottom_right,2025-04-08_17h20.32.454,HideSeek_v1,2022.2.5,59.91776884172358,
,7,2,7,7,0,5,66,,train_dim1_1,14,30,,,,2,0,2,0,,,,,,,,,0,0,0,0,0,13,13,13,0,0,0,0,,,,,,,,,,,,,,,,,,,,,,,,,stimuli/alien_stimuli/66.png,,,,,,,,,,,,,,,,,,,,,,,,,,,,,stimuli/alien_stimuli/62.png,62,9,15,,,,,,,30,,,,,,,,2372.7926318000536,2372.7926318000536,2372.7926318000536,2372.7926318000536,2372.7926318000536,up,1.4567717998288572,6,0,0,99,0.4,-0.15999999999999998,up,1.3724443998653442,,,,,2371.2408508001827,2372.7926318000536,0.56,-0.08,0.08,0.0,-0.12,0.56,0.56,0.56,-0.08,2369.4439777000807,2369.4439777000807,2369.4439777000807,2369.4439777000807,2369.4439777000807,2369.4439777000807,2369.4439777000807,2369.4439777000807,2369.4393728201744,1.88681669998914,return,1.7737013997975737,,,,,,,,,,,,,,,,,,,,,,,,,,,,,,,,,3HAC8Z,train_y,blue_star,bottom_right,2025-04-08_17h20.32.454,HideSeek_v1,2022.2.5,59.91776884172358,
,7,2,7,7,0,5,66,,train_dim1_1,14,30,,,,2,0,2,0,,,,,,,,,0,0,0,0,0,13,13,13,1,0,1,0,,,,,,,,,,,,,,,,,,,,,,,,,,,,,,,,,,,,,,,,,,,,,,,,,,,,,,,,,,,,,,,,30,,,,,,,,2374.256964000175,2374.256964000175,2374.256964000175,2374.256964000175,2374.256964000175,up,0.17592479987069964,6,0,0,99,0.4,-0.07999999999999997,up,0.09593249973841012,,,,,,,,,,,,,,,,,,,,,,,,,,,,,,,,,,,,,,,,,,,,,,,,,,,,,,,,,,,,3HAC8Z,train_y,blue_star,bottom_right,2025-04-08_17h20.32.454,HideSeek_v1,2022.2.5,59.91776884172358,
,7,2,7,7,0,5,66,,train_dim1_1,14,30,,,,2,0,2,0,,,,,,,,,0,0,0,0,0,13,13,13,2,0,2,0,,,,,,,,,,,,,,,,,,,,,,,,,,,,,,,,,,,,,,,,,,,,,,,,,,,,,,,,,,,,,,,,30,,,,,,,,2374.4391753000673,2374.4391753000673,2374.4391753000673,2374.4391753000673,2374.4391753000673,up,0.15977100003510714,6,0,0,99,0.4,2.7755575615628914e-17,up,0.07670669979415834,,,,,,,,,,,,,,,,,,,,,,,,,,,,,,,,,,,,,,,,,,,,,,,,,,,,,,,,,,,,3HAC8Z,train_y,blue_star,bottom_right,2025-04-08_17h20.32.454,HideSeek_v1,2022.2.5,59.91776884172358,
,7,2,7,7,0,5,66,,train_dim1_1,14,30,,,,2,0,2,0,,,,,,,,,0,0,0,0,0,13,13,13,3,0,3,0,,,,,,,,,,,,,,,,,,,,,,,,,,,,,,,,,,,,,,,,,,,,,,,,,,,,,,,,,,,,,,,,30,,,,,,,,2374.607008600142,2374.607008600142,2374.607008600142,2374.607008600142,2374.607008600142,up,0.12665480002760887,6,0,0,99,0.4,0.08000000000000003,up,0.04897069977596402,,,,,,,,,,,,,,,,,,,,,,,,,,,,,,,,,,,,,,,,,,,,,,,,,,,,,,,,,,,,3HAC8Z,train_y,blue_star,bottom_right,2025-04-08_17h20.32.454,HideSeek_v1,2022.2.5,59.91776884172358,
,7,2,7,7,0,5,66,,train_dim1_1,14,30,,,,2,0,2,0,,,,,,,,,0,0,0,0,0,13,13,13,4,0,4,0,,,,,,,,,,,,,,,,,,,,,,,,,,,,,,,,,,,,,,,,,,,,,,,,,,,,,,,,,,,,,,,,30,,,,,,,,2374.740657100221,2374.740657100221,2374.740657100221,2374.740657100221,2374.740657100221,return,0.5601194999180734,6,1,0,0,0.4,0.08000000000000003,return,0.48205229989252985,39,0,0.4,0.08000000000000003,,,,,,,,,,,,,,,,,,,,,,,,,,,,,,,,,,,,,,,,,,,,,,,,,,,,,,,,3HAC8Z,train_y,blue_star,bottom_right,2025-04-08_17h20.32.454,HideSeek_v1,2022.2.5,59.91776884172358,
,6,4,6,7,0,3,64,,train_dim1_1,15,30,,,,2,0,2,0,,,,,,,,,0,0,0,0,0,14,14,14,0,0,0,0,,,,,,,,,,,,,,,,,,,,,,,,,stimuli/alien_stimuli/64.png,,,,,,,,,,,,,,,,,,,,,,,,,,,,,stimuli/alien_stimuli/66.png,66,7,16,,,,,,,30,,,,,,,,2379.5480127001647,2379.5480127001647,2379.5480127001647,2379.5480127001647,2379.5480127001647,up,1.25625089998357,6,1,0,99,0.32,0.0,up,1.1706760998349637,,,,,2377.996555900201,2379.5480127001647,0.4,0.16,0.4,0.0,-0.039999999999999994,0.4,0.4,0.4,0.16,2376.854377300013,2376.854377300013,2376.854377300013,2376.854377300013,2376.854377300013,2376.854377300013,2376.854377300013,2376.854377300013,2376.8456805202645,1.2365846999455243,return,1.1220162999816239,,,,,,,,,,,,,,,,,,,,,,,,,,,,,,,,,3HAC8Z,train_y,blue_star,bottom_right,2025-04-08_17h20.32.454,HideSeek_v1,2022.2.5,59.91776884172358,
,6,4,6,7,0,3,64,,train_dim1_1,15,30,,,,2,0,2,0,,,,,,,,,0,0,0,0,0,14,14,14,1,0,1,0,,,,,,,,,,,,,,,,,,,,,,,,,,,,,,,,,,,,,,,,,,,,,,,,,,,,,,,,,,,,,,,,30,,,,,,,,2380.811215199996,2380.811215199996,2380.811215199996,2380.811215199996,2380.811215199996,up,0.22565080015920103,6,1,0,99,0.32,0.08,up,0.13912429986521602,,,,,,,,,,,,,,,,,,,,,,,,,,,,,,,,,,,,,,,,,,,,,,,,,,,,,,,,,,,,3HAC8Z,train_y,blue_star,bottom_right,2025-04-08_17h20.32.454,HideSeek_v1,2022.2.5,59.91776884172358,
,6,4,6,7,0,3,64,,train_dim1_1,15,30,,,,2,0,2,0,,,,,,,,,0,0,0,0,0,14,14,14,2,0,2,0,,,,,,,,,,,,,,,,,,,,,,,,,,,,,,,,,,,,,,,,,,,,,,,,,,,,,,,,,,,,,,,,30,,,,,,,,2381.045438100118,2381.045438100118,2381.045438100118,2381.045438100118,2381.045438100118,up,0.17712770006619394,6,1,0,99,0.32,0.16,up,0.10281219985336065,,,,,,,,,,,,,,,,,,,,,,,,,,,,,,,,,,,,,,,,,,,,,,,,,,,,,,,,,,,,3HAC8Z,train_y,blue_star,bottom_right,2025-04-08_17h20.32.454,HideSeek_v1,2022.2.5,59.91776884172358,
,6,4,6,7,0,3,64,,train_dim1_1,15,30,,,,2,0,2,0,,,,,,,,,0,0,0,0,0,14,14,14,3,0,3,0,,,,,,,,,,,,,,,,,,,,,,,,,,,,,,,,,,,,,,,,,,,,,,,,,,,,,,,,,,,,,,,,30,,,,,,,,2381.2278913001064,2381.2278913001064,2381.2278913001064,2381.2278913001064,2381.2278913001064,return,0.5934852999635041,7,0,0,1,0.32,0.16,return,0.5155448999721557,42,0,0.32,0.16,,,,,,,,,,,,,,,,,,,,,,,,,,,,,,,,,,,,,,,,,,,,,,,,,,,,,,,,3HAC8Z,train_y,blue_star,bottom_right,2025-04-08_17h20.32.454,HideSeek_v1,2022.2.5,59.91776884172358,
,9,0,9,4,0,4,65,,train_dim1_1,16,30,,,,2,0,2,0,,,,,,,,,0,0,0,0,0,15,15,15,0,0,0,0,,,,,,,,,,,,,,,,,,,,,,,,,stimuli/alien_stimuli/65.png,,,,,,,,,,,,,,,,,,,,,,,,,,,,,stimuli/alien_stimuli/64.png,64,6,17,,,,,,,30,,,,,,,,2385.919659800129,2385.919659800129,2385.919659800129,2385.919659800129,2385.919659800129,up,1.8575889999046922,7,0,0,99,0.56,-0.32,up,1.7802728996612132,,,,,2384.368471099995,2385.919659800129,0.32,0.16,0.24,0.0,0.04,0.32,0.32,0.32,0.16,2383.374363400042,2383.374363400042,2383.374363400042,2383.374363400042,2383.374363400042,2383.374363400042,2383.374363400042,2383.374363400042,2383.3676635202487,1.086593400221318,return,0.978124399902299,,,,,,,,,,,,,,,,,,,,,,,,,,,,,,,,,3HAC8Z,train_y,blue_star,bottom_right,2025-04-08_17h20.32.454,HideSeek_v1,2022.2.5,59.91776884172358,
,9,0,9,4,0,4,65,,train_dim1_1,16,30,,,,2,0,2,0,,,,,,,,,0,0,0,0,0,15,15,15,1,0,1,0,,,,,,,,,,,,,,,,,,,,,,,,,,,,,,,,,,,,,,,,,,,,,,,,,,,,,,,,,,,,,,,,30,,,,,,,,2387.784199200105,2387.784199200105,2387.784199200105,2387.784199200105,2387.784199200105,up,0.19280129997059703,7,0,0,99,0.56,-0.24,up,0.11957589979283512,,,,,,,,,,,,,,,,,,,,,,,,,,,,,,,,,,,,,,,,,,,,,,,,,,,,,,,,,,,,3HAC8Z,train_y,blue_star,bottom_right,2025-04-08_17h20.32.454,HideSeek_v1,2022.2.5,59.91776884172358,
,9,0,9,4,0,4,65,,train_dim1_1,16,30,,,,2,0,2,0,,,,,,,,,0,0,0,0,0,15,15,15,2,0,2,0,,,,,,,,,,,,,,,,,,,,,,,,,,,,,,,,,,,,,,,,,,,,,,,,,,,,,,,,,,,,,,,,30,,,,,,,,2387.9839748002123,2387.9839748002123,2387.9839748002123,2387.9839748002123,2387.9839748002123,up,0.1764460001140833,7,0,0,99,0.56,-0.15999999999999998,up,0.0985377999022603,,,,,,,,,,,,,,,,,,,,,,,,,,,,,,,,,,,,,,,,,,,,,,,,,,,,,,,,,,,,3HAC8Z,train_y,blue_star,bottom_right,2025-04-08_17h20.32.454,HideSeek_v1,2022.2.5,59.91776884172358,
,9,0,9,4,0,4,65,,train_dim1_1,16,30,,,,2,0,2,0,,,,,,,,,0,0,0,0,0,15,15,15,3,0,3,0,,,,,,,,,,,,,,,,,,,,,,,,,,,,,,,,,,,,,,,,,,,,,,,,,,,,,,,,,,,,,,,,30,,,,,,,,2388.1680933001917,2388.1680933001917,2388.1680933001917,2388.1680933001917,2388.1680933001917,up,0.15985430008731782,7,0,0,99,0.56,-0.07999999999999997,up,0.08603539993055165,,,,,,,,,,,,,,,,,,,,,,,,,,,,,,,,,,,,,,,,,,,,,,,,,,,,,,,,,,,,3HAC8Z,train_y,blue_star,bottom_right,2025-04-08_17h20.32.454,HideSeek_v1,2022.2.5,59.91776884172358,
,9,0,9,4,0,4,65,,train_dim1_1,16,30,,,,2,0,2,0,,,,,,,,,0,0,0,0,0,15,15,15,4,0,4,0,,,,,,,,,,,,,,,,,,,,,,,,,,,,,,,,,,,,,,,,,,,,,,,,,,,,,,,,,,,,,,,,30,,,,,,,,2388.333938300144,2388.333938300144,2388.333938300144,2388.333938300144,2388.333938300144,up,0.15998490015044808,7,0,0,99,0.56,2.7755575615628914e-17,up,0.08356960001401603,,,,,,,,,,,,,,,,,,,,,,,,,,,,,,,,,,,,,,,,,,,,,,,,,,,,,,,,,,,,3HAC8Z,train_y,blue_star,bottom_right,2025-04-08_17h20.32.454,HideSeek_v1,2022.2.5,59.91776884172358,
,9,0,9,4,0,4,65,,train_dim1_1,16,30,,,,2,0,2,0,,,,,,,,,0,0,0,0,0,15,15,15,5,0,5,0,,,,,,,,,,,,,,,,,,,,,,,,,,,,,,,,,,,,,,,,,,,,,,,,,,,,,,,,,,,,,,,,30,,,,,,,,2388.5008256,2388.5008256,2388.5008256,2388.5008256,2388.5008256,down,3.930117500014603,7,0,0,99,0.56,-0.07999999999999997,down,3.8527925999369472,,,,,,,,,,,,,,,,,,,,,,,,,,,,,,,,,,,,,,,,,,,,,,,,,,,,,,,,,,,,3HAC8Z,train_y,blue_star,bottom_right,2025-04-08_17h20.32.454,HideSeek_v1,2022.2.5,59.91776884172358,
,9,0,9,4,0,4,65,,train_dim1_1,16,30,,,,2,0,2,0,,,,,,,,,0,0,0,0,0,15,15,15,6,0,6,0,,,,,,,,,,,,,,,,,,,,,,,,,,,,,,,,,,,,,,,,,,,,,,,,,,,,,,,,,,,,,,,,30,,,,,,,,2392.4374651000835,2392.4374651000835,2392.4374651000835,2392.4374651000835,2392.4374651000835,up,1.4773646001704037,7,0,0,99,0.56,2.7755575615628914e-17,up,1.4010240000206977,,,,,,,,,,,,,,,,,,,,,,,,,,,,,,,,,,,,,,,,,,,,,,,,,,,,,,,,,,,,3HAC8Z,train_y,blue_star,bottom_right,2025-04-08_17h20.32.454,HideSeek_v1,2022.2.5,59.91776884172358,
,9,0,9,4,0,4,65,,train_dim1_1,16,30,,,,2,0,2,0,,,,,,,,,0,0,0,0,0,15,15,15,7,0,7,0,,,,,,,,,,,,,,,,,,,,,,,,,,,,,,,,,,,,,,,,,,,,,,,,,,,,,,,,,,,,,,,,30,,,,,,,,2393.9219969001133,2393.9219969001133,2393.9219969001133,2393.9219969001133,2393.9219969001133,down,0.10987899987958372,7,0,0,99,0.56,-0.07999999999999997,down,0.036387099884450436,,,,,,,,,,,,,,,,,,,,,,,,,,,,,,,,,,,,,,,,,,,,,,,,,,,,,,,,,,,,3HAC8Z,train_y,blue_star,bottom_right,2025-04-08_17h20.32.454,HideSeek_v1,2022.2.5,59.91776884172358,
,9,0,9,4,0,4,65,,train_dim1_1,16,30,,,,2,0,2,0,,,,,,,,,0,0,0,0,0,15,15,15,8,0,8,0,,,,,,,,,,,,,,,,,,,,,,,,,,,,,,,,,,,,,,,,,,,,,,,,,,,,,,,,,,,,,,,,30,,,,,,,,2394.0397658001166,2394.0397658001166,2394.0397658001166,2394.0397658001166,2394.0397658001166,up,0.1272728000767529,7,0,0,99,0.56,2.7755575615628914e-17,up,0.04514549975283444,,,,,,,,,,,,,,,,,,,,,,,,,,,,,,,,,,,,,,,,,,,,,,,,,,,,,,,,,,,,3HAC8Z,train_y,blue_star,bottom_right,2025-04-08_17h20.32.454,HideSeek_v1,2022.2.5,59.91776884172358,
,9,0,9,4,0,4,65,,train_dim1_1,16,30,,,,2,0,2,0,,,,,,,,,0,0,0,0,0,15,15,15,9,0,9,0,,,,,,,,,,,,,,,,,,,,,,,,,,,,,,,,,,,,,,,,,,,,,,,,,,,,,,,,,,,,,,,,30,,,,,,,,2394.1737610001583,2394.1737610001583,2394.1737610001583,2394.1737610001583,2394.1737610001583,down,0.10905760014429688,7,0,0,99,0.56,-0.07999999999999997,down,0.035470200004056096,,,,,,,,,,,,,,,,,,,,,,,,,,,,,,,,,,,,,,,,,,,,,,,,,,,,,,,,,,,,3HAC8Z,train_y,blue_star,bottom_right,2025-04-08_17h20.32.454,HideSeek_v1,2022.2.5,59.91776884172358,
,9,0,9,4,0,4,65,,train_dim1_1,16,30,,,,2,0,2,0,,,,,,,,,0,0,0,0,0,15,15,15,10,0,10,0,,,,,,,,,,,,,,,,,,,,,,,,,,,,,,,,,,,,,,,,,,,,,,,,,,,,,,,,,,,,,,,,30,,,,,,,,2394.289497200167,2394.289497200167,2394.289497200167,2394.289497200167,2394.289497200167,up,0.09315739991143346,7,0,0,99,0.56,2.7755575615628914e-17,up,0.021342499880120158,,,,,,,,,,,,,,,,,,,,,,,,,,,,,,,,,,,,,,,,,,,,,,,,,,,,,,,,,,,,3HAC8Z,train_y,blue_star,bottom_right,2025-04-08_17h20.32.454,HideSeek_v1,2022.2.5,59.91776884172358,
,9,0,9,4,0,4,65,,train_dim1_1,16,30,,,,2,0,2,0,,,,,,,,,0,0,0,0,0,15,15,15,11,0,11,0,,,,,,,,,,,,,,,,,,,,,,,,,,,,,,,,,,,,,,,,,,,,,,,,,,,,,,,,,,,,,,,,30,,,,,,,,2394.3899259001482,2394.3899259001482,2394.3899259001482,2394.3899259001482,2394.3899259001482,down,0.1429228000342846,7,0,0,99,0.56,-0.07999999999999997,down,0.05530430004000664,,,,,,,,,,,,,,,,,,,,,,,,,,,,,,,,,,,,,,,,,,,,,,,,,,,,,,,,,,,,3HAC8Z,train_y,blue_star,bottom_right,2025-04-08_17h20.32.454,HideSeek_v1,2022.2.5,59.91776884172358,
,9,0,9,4,0,4,65,,train_dim1_1,16,30,,,,2,0,2,0,,,,,,,,,0,0,0,0,0,15,15,15,12,0,12,0,,,,,,,,,,,,,,,,,,,,,,,,,,,,,,,,,,,,,,,,,,,,,,,,,,,,,,,,,,,,,,,,30,,,,,,,,2394.539206900168,2394.539206900168,2394.539206900168,2394.539206900168,2394.539206900168,down,0.22675899998284876,7,0,0,99,0.56,-0.15999999999999998,down,0.14506869995966554,,,,,,,,,,,,,,,,,,,,,,,,,,,,,,,,,,,,,,,,,,,,,,,,,,,,,,,,,,,,3HAC8Z,train_y,blue_star,bottom_right,2025-04-08_17h20.32.454,HideSeek_v1,2022.2.5,59.91776884172358,
,9,0,9,4,0,4,65,,train_dim1_1,16,30,,,,2,0,2,0,,,,,,,,,0,0,0,0,0,15,15,15,13,0,13,0,,,,,,,,,,,,,,,,,,,,,,,,,,,,,,,,,,,,,,,,,,,,,,,,,,,,,,,,,,,,,,,,30,,,,,,,,2394.7740985001437,2394.7740985001437,2394.7740985001437,2394.7740985001437,2394.7740985001437,up,0.6269278000108898,7,0,0,99,0.56,-0.07999999999999997,up,0.5463662999682128,,,,,,,,,,,,,,,,,,,,,,,,,,,,,,,,,,,,,,,,,,,,,,,,,,,,,,,,,,,,3HAC8Z,train_y,blue_star,bottom_right,2025-04-08_17h20.32.454,HideSeek_v1,2022.2.5,59.91776884172358,
,9,0,9,4,0,4,65,,train_dim1_1,16,30,,,,2,0,2,0,,,,,,,,,0,0,0,0,0,15,15,15,14,0,14,0,,,,,,,,,,,,,,,,,,,,,,,,,,,,,,,,,,,,,,,,,,,,,,,,,,,,,,,,,,,,,,,,30,,,,,,,,2395.4063922001515,2395.4063922001515,2395.4063922001515,2395.4063922001515,2395.4063922001515,up,0.15973010007292032,7,0,0,99,0.56,2.7755575615628914e-17,up,0.07736469991505146,,,,,,,,,,,,,,,,,,,,,,,,,,,,,,,,,,,,,,,,,,,,,,,,,,,,,,,,,,,,3HAC8Z,train_y,blue_star,bottom_right,2025-04-08_17h20.32.454,HideSeek_v1,2022.2.5,59.91776884172358,
,9,0,9,4,0,4,65,,train_dim1_1,16,30,,,,2,0,2,0,,,,,,,,,0,0,0,0,0,15,15,15,15,0,15,0,,,,,,,,,,,,,,,,,,,,,,,,,,,,,,,,,,,,,,,,,,,,,,,,,,,,,,,,,,,,,,,,30,,,,,,,,2395.5734157999977,2395.5734157999977,2395.5734157999977,2395.5734157999977,2395.5734157999977,return,0.29353890009224415,7,1,0,0,0.56,2.7755575615628914e-17,return,0.21402179985307157,47,0,0.56,2.7755575615628914e-17,,,,,,,,,,,,,,,,,,,,,,,,,,,,,,,,,,,,,,,,,,,,,,,,,,,,,,,,3HAC8Z,train_y,blue_star,bottom_right,2025-04-08_17h20.32.454,HideSeek_v1,2022.2.5,59.91776884172358,
,8,3,8,6,0,3,64,,train_dim1_1,17,30,,,,2,0,2,0,,,,,,,,,0,0,0,0,0,16,16,16,0,0,0,0,,,,,,,,,,,,,,,,,,,,,,,,,stimuli/alien_stimuli/64.png,,,,,,,,,,,,,,,,,,,,,,,,,,,,,stimuli/alien_stimuli/65.png,65,9,18,,,,,,,30,,,,,,,,2400.38170300005,2400.38170300005,2400.38170300005,2400.38170300005,2400.38170300005,up,1.4238237999379635,7,1,0,99,0.48,-0.08,up,1.3451566000003368,,,,,2398.8305434000213,2400.38170300005,0.56,-0.08,0.32,0.0,-0.24000000000000002,0.56,0.56,0.56,-0.08,2397.4358041000087,2397.4358041000087,2397.4358041000087,2397.4358041000087,2397.4358041000087,2397.4358041000087,2397.4358041000087,2397.4358041000087,2397.429292040132,1.5032547998707741,return,1.3713025997858495,,,,,,,,,,,,,,,,,,,,,,,,,,,,,,,,,3HAC8Z,train_y,blue_star,bottom_right,2025-04-08_17h20.32.454,HideSeek_v1,2022.2.5,59.91776884172358,
,8,3,8,6,0,3,64,,train_dim1_1,17,30,,,,2,0,2,0,,,,,,,,,0,0,0,0,0,16,16,16,1,0,1,0,,,,,,,,,,,,,,,,,,,,,,,,,,,,,,,,,,,,,,,,,,,,,,,,,,,,,,,,,,,,,,,,30,,,,,,,,2401.8118846002035,2401.8118846002035,2401.8118846002035,2401.8118846002035,2401.8118846002035,up,0.1592558000702411,7,1,0,99,0.48,0.0,up,0.08387309988029301,,,,,,,,,,,,,,,,,,,,,,,,,,,,,,,,,,,,,,,,,,,,,,,,,,,,,,,,,,,,3HAC8Z,train_y,blue_star,bottom_right,2025-04-08_17h20.32.454,HideSeek_v1,2022.2.5,59.91776884172358,
,8,3,8,6,0,3,64,,train_dim1_1,17,30,,,,2,0,2,0,,,,,,,,,0,0,0,0,0,16,16,16,2,0,2,0,,,,,,,,,,,,,,,,,,,,,,,,,,,,,,,,,,,,,,,,,,,,,,,,,,,,,,,,,,,,,,,,30,,,,,,,,2401.9791349000297,2401.9791349000297,2401.9791349000297,2401.9791349000297,2401.9791349000297,up,0.14314469997771084,7,1,0,99,0.48,0.08,up,0.06608589994721115,,,,,,,,,,,,,,,,,,,,,,,,,,,,,,,,,,,,,,,,,,,,,,,,,,,,,,,,,,,,3HAC8Z,train_y,blue_star,bottom_right,2025-04-08_17h20.32.454,HideSeek_v1,2022.2.5,59.91776884172358,
,8,3,8,6,0,3,64,,train_dim1_1,17,30,,,,2,0,2,0,,,,,,,,,0,0,0,0,0,16,16,16,3,0,3,0,,,,,,,,,,,,,,,,,,,,,,,,,,,,,,,,,,,,,,,,,,,,,,,,,,,,,,,,,,,,,,,,30,,,,,,,,2402.1295333001763,2402.1295333001763,2402.1295333001763,2402.1295333001763,2402.1295333001763,up,0.11010199994780123,7,1,0,99,0.48,0.16,up,0.03481549979187548,,,,,,,,,,,,,,,,,,,,,,,,,,,,,,,,,,,,,,,,,,,,,,,,,,,,,,,,,,,,3HAC8Z,train_y,blue_star,bottom_right,2025-04-08_17h20.32.454,HideSeek_v1,2022.2.5,59.91776884172358,
,8,3,8,6,0,3,64,,train_dim1_1,17,30,,,,2,0,2,0,,,,,,,,,0,0,0,0,0,16,16,16,4,0,4,0,,,,,,,,,,,,,,,,,,,,,,,,,,,,,,,,,,,,,,,,,,,,,,,,,,,,,,,,,,,,,,,,30,,,,,,,,2402.2462258001324,2402.2462258001324,2402.2462258001324,2402.2462258001324,2402.2462258001324,down,0.976871799910441,7,1,0,99,0.48,0.08,down,0.9036630999762565,,,,,,,,,,,,,,,,,,,,,,,,,,,,,,,,,,,,,,,,,,,,,,,,,,,,,,,,,,,,3HAC8Z,train_y,blue_star,bottom_right,2025-04-08_17h20.32.454,HideSeek_v1,2022.2.5,59.91776884172358,
,8,3,8,6,0,3,64,,train_dim1_1,17,30,,,,2,0,2,0,,,,,,,,,0,0,0,0,0,16,16,16,5,0,5,0,,,,,,,,,,,,,,,,,,,,,,,,,,,,,,,,,,,,,,,,,,,,,,,,,,,,,,,,,,,,,,,,30,,,,,,,,2403.2304897001013,2403.2304897001013,2403.2304897001013,2403.2304897001013,2403.2304897001013,return,0.4768401999026537,8,0,0,1,0.48,0.08,return,0.3938478999771178,50,0,0.48,0.08,,,,,,,,,,,,,,,,,,,,,,,,,,,,,,,,,,,,,,,,,,,,,,,,,,,,,,,,3HAC8Z,train_y,blue_star,bottom_right,2025-04-08_17h20.32.454,HideSeek_v1,2022.2.5,59.91776884172358,
,7,1,7,1,0,0,61,,train_dim1_1,18,30,,,,2,0,2,0,,,,,,,,,0,0,0,0,0,17,17,17,0,0,0,0,,,,,,,,,,,,,,,,,,,,,,,,,stimuli/alien_stimuli/61.png,,,,,,,,,,,,,,,,,,,,,,,,,,,,,stimuli/alien_stimuli/64.png,64,8,19,,,,,,,30,,,,,,,,2407.8375953000505,2407.8375953000505,2407.8375953000505,2407.8375953000505,2407.8375953000505,up,1.690661699976772,8,0,0,99,0.4,-0.24,up,1.6166922999545932,,,,,2406.2865567000117,2407.8375953000505,0.48,0.08,0.24,0.0,-0.04,0.48,0.48,0.48,0.08,2405.2757357000373,2405.2757357000373,2405.2757357000373,2405.2757357000373,2405.2757357000373,2405.2757357000373,2405.2757357000373,2405.2757357000373,2405.2690152402038,1.1198758999817073,return,0.9840114999096841,,,,,,,,,,,,,,,,,,,,,,,,,,,,,,,,,3HAC8Z,train_y,blue_star,bottom_right,2025-04-08_17h20.32.454,HideSeek_v1,2022.2.5,59.91776884172358,
,7,1,7,1,0,0,61,,train_dim1_1,18,30,,,,2,0,2,0,,,,,,,,,0,0,0,0,0,17,17,17,1,0,1,0,,,,,,,,,,,,,,,,,,,,,,,,,,,,,,,,,,,,,,,,,,,,,,,,,,,,,,,,,,,,,,,,30,,,,,,,,2409.5364012001082,2409.5364012001082,2409.5364012001082,2409.5364012001082,2409.5364012001082,return,0.2759557000827044,8,1,0,0,0.4,-0.24,return,0.19357569981366396,51,0,0.4,-0.24,,,,,,,,,,,,,,,,,,,,,,,,,,,,,,,,,,,,,,,,,,,,,,,,,,,,,,,,3HAC8Z,train_y,blue_star,bottom_right,2025-04-08_17h20.32.454,HideSeek_v1,2022.2.5,59.91776884172358,
,5,4,5,5,0,1,62,,train_dim1_1,19,30,,,,2,0,2,0,,,,,,,,,0,0,0,0,0,18,18,18,0,0,0,0,,,,,,,,,,,,,,,,,,,,,,,,,stimuli/alien_stimuli/62.png,,,,,,,,,,,,,,,,,,,,,,,,,,,,,stimuli/alien_stimuli/61.png,61,7,20,,,,,,,30,,,,,,,,2414.630359100178,2414.630359100178,2414.630359100178,2414.630359100178,2414.630359100178,up,1.8875888001639396,8,1,0,99,0.24,0.0,up,1.8029189999215305,,,,,2413.075923100114,2414.630359100178,0.4,-0.32,0.0,0.0,-0.32,0.4,0.4,0.4,-0.32,2411.3650988000445,2411.3650988000445,2411.3650988000445,2411.3650988000445,2411.3650988000445,2411.3650988000445,2411.3650988000445,2411.3650988000445,2411.3576414201875,1.8039233998861164,return,1.689975099870935,,,,,,,,,,,,,,,,,,,,,,,,,,,,,,,,,3HAC8Z,train_y,blue_star,bottom_right,2025-04-08_17h20.32.454,HideSeek_v1,2022.2.5,59.91776884172358,
,5,4,5,5,0,1,62,,train_dim1_1,19,30,,,,2,0,2,0,,,,,,,,,0,0,0,0,0,18,18,18,1,0,1,0,,,,,,,,,,,,,,,,,,,,,,,,,,,,,,,,,,,,,,,,,,,,,,,,,,,,,,,,,,,,,,,,30,,,,,,,,2416.525325200055,2416.525325200055,2416.525325200055,2416.525325200055,2416.525325200055,return,0.7931586999911815,9,0,0,1,0.24,0.0,return,0.7070124000310898,52,0,0.24,0.0,,,,,,,,,,,,,,,,,,,,,,,,,,,,,,,,,,,,,,,,,,,,,,,,,,,,,,,,3HAC8Z,train_y,blue_star,bottom_right,2025-04-08_17h20.32.454,HideSeek_v1,2022.2.5,59.91776884172358,
,7,0,7,5,0,5,66,,train_dim1_1,20,30,,,,2,0,2,0,,,,,,,,,0,0,0,0,0,19,19,19,0,0,0,0,,,,,,,,,,,,,,,,,,,,,,,,,stimuli/alien_stimuli/66.png,,,,,,,,,,,,,,,,,,,,,,,,,,,,,stimuli/alien_stimuli/62.png,62,5,21,,,,,,,30,,,,,,,,2421.4330586001743,2421.4330586001743,2421.4330586001743,2421.4330586001743,2421.4330586001743,up,1.2231993998866528,9,0,0,99,0.4,-0.32,up,1.138710499741137,,,,,2419.8814574000426,2421.4330586001743,0.24,0,0.08,0.0,-0.04,0.24,0.24,0.24,0,2418.8707433000673,2418.8707433000673,2418.8707433000673,2418.8707433000673,2418.8707433000673,2418.8707433000673,2418.8707433000673,2418.8707433000673,2418.8636822200847,1.1034364001825452,return,0.9815843997057527,,,,,,,,,,,,,,,,,,,,,,,,,,,,,,,,,3HAC8Z,train_y,blue_star,bottom_right,2025-04-08_17h20.32.454,HideSeek_v1,2022.2.5,59.91776884172358,
,7,0,7,5,0,5,66,,train_dim1_1,20,30,,,,2,0,2,0,,,,,,,,,0,0,0,0,0,19,19,19,1,0,1,0,,,,,,,,,,,,,,,,,,,,,,,,,,,,,,,,,,,,,,,,,,,,,,,,,,,,,,,,,,,,,,,,30,,,,,,,,2422.6635628000367,2422.6635628000367,2422.6635628000367,2422.6635628000367,2422.6635628000367,up,0.1928055000025779,9,0,0,99,0.4,-0.24,up,0.1155173999723047,,,,,,,,,,,,,,,,,,,,,,,,,,,,,,,,,,,,,,,,,,,,,,,,,,,,,,,,,,,,3HAC8Z,train_y,blue_star,bottom_right,2025-04-08_17h20.32.454,HideSeek_v1,2022.2.5,59.91776884172358,
,7,0,7,5,0,5,66,,train_dim1_1,20,30,,,,2,0,2,0,,,,,,,,,0,0,0,0,0,19,19,19,2,0,2,0,,,,,,,,,,,,,,,,,,,,,,,,,,,,,,,,,,,,,,,,,,,,,,,,,,,,,,,,,,,,,,,,30,,,,,,,,2422.863281900063,2422.863281900063,2422.863281900063,2422.863281900063,2422.863281900063,up,0.1764475000090897,9,0,0,99,0.4,-0.15999999999999998,up,0.08880029991269112,,,,,,,,,,,,,,,,,,,,,,,,,,,,,,,,,,,,,,,,,,,,,,,,,,,,,,,,,,,,3HAC8Z,train_y,blue_star,bottom_right,2025-04-08_17h20.32.454,HideSeek_v1,2022.2.5,59.91776884172358,
,7,0,7,5,0,5,66,,train_dim1_1,20,30,,,,2,0,2,0,,,,,,,,,0,0,0,0,0,19,19,19,3,0,3,0,,,,,,,,,,,,,,,,,,,,,,,,,,,,,,,,,,,,,,,,,,,,,,,,,,,,,,,,,,,,,,,,30,,,,,,,,2423.046822400065,2423.046822400065,2423.046822400065,2423.046822400065,2423.046822400065,up,0.15987819992005825,9,0,0,99,0.4,-0.07999999999999997,up,0.0835246997885406,,,,,,,,,,,,,,,,,,,,,,,,,,,,,,,,,,,,,,,,,,,,,,,,,,,,,,,,,,,,3HAC8Z,train_y,blue_star,bottom_right,2025-04-08_17h20.32.454,HideSeek_v1,2022.2.5,59.91776884172358,
,7,0,7,5,0,5,66,,train_dim1_1,20,30,,,,2,0,2,0,,,,,,,,,0,0,0,0,0,19,19,19,4,0,4,0,,,,,,,,,,,,,,,,,,,,,,,,,,,,,,,,,,,,,,,,,,,,,,,,,,,,,,,,,,,,,,,,30,,,,,,,,2423.2134865000844,2423.2134865000844,2423.2134865000844,2423.2134865000844,2423.2134865000844,return,2.5952577001880854,9,1,0,0,0.4,-0.07999999999999997,return,2.5086063998751342,56,0,0.4,-0.07999999999999997,,,,,,,,,,,,,,,,,,,,,,,,,,,,,,,,,,,,,,,,,,,,,,,,,,,,,,,,3HAC8Z,train_y,blue_star,bottom_right,2025-04-08_17h20.32.454,HideSeek_v1,2022.2.5,59.91776884172358,
,7,4,7,8,0,4,65,,train_dim1_1,21,30,,,,2,0,2,0,,,,,,,,,0,0,0,0,0,20,20,20,0,0,0,0,,,,,,,,,,,,,,,,,,,,,,,,,stimuli/alien_stimuli/65.png,,,,,,,,,,,,,,,,,,,,,,,,,,,,,stimuli/alien_stimuli/66.png,66,7,22,,,,,,,30,,,,,,,,2430.0402524000965,2430.0402524000965,2430.0402524000965,2430.0402524000965,2430.0402524000965,up,1.0729097998701036,9,1,0,99,0.4,0.0,up,0.9848379998002201,,,,,2428.488615100039,2430.0402524000965,0.4,0,0.4,0.0,-0.2,0.4,0.4,0.4,0,2427.3615652001463,2427.3615652001463,2427.3615652001463,2427.3615652001463,2427.3615652001463,2427.3615652001463,2427.3615652001463,2427.3615652001463,2427.354165720148,1.2197932000271976,return,1.1054386000614613,,,,,,,,,,,,,,,,,,,,,,,,,,,,,,,,,3HAC8Z,train_y,blue_star,bottom_right,2025-04-08_17h20.32.454,HideSeek_v1,2022.2.5,59.91776884172358,
,7,4,7,8,0,4,65,,train_dim1_1,21,30,,,,2,0,2,0,,,,,,,,,0,0,0,0,0,20,20,20,1,0,1,0,,,,,,,,,,,,,,,,,,,,,,,,,,,,,,,,,,,,,,,,,,,,,,,,,,,,,,,,,,,,,,,,30,,,,,,,,2431.1203651002143,2431.1203651002143,2431.1203651002143,2431.1203651002143,2431.1203651002143,up,0.19308190001174808,9,1,0,99,0.4,0.08,up,0.12000779993832111,,,,,,,,,,,,,,,,,,,,,,,,,,,,,,,,,,,,,,,,,,,,,,,,,,,,,,,,,,,,3HAC8Z,train_y,blue_star,bottom_right,2025-04-08_17h20.32.454,HideSeek_v1,2022.2.5,59.91776884172358,
,7,4,7,8,0,4,65,,train_dim1_1,21,30,,,,2,0,2,0,,,,,,,,,0,0,0,0,0,20,20,20,2,0,2,0,,,,,,,,,,,,,,,,,,,,,,,,,,,,,,,,,,,,,,,,,,,,,,,,,,,,,,,,,,,,,,,,30,,,,,,,,2431.320377000142,2431.320377000142,2431.320377000142,2431.320377000142,2431.320377000142,up,0.17629530001431704,9,1,0,99,0.4,0.16,up,0.08855849993415177,,,,,,,,,,,,,,,,,,,,,,,,,,,,,,,,,,,,,,,,,,,,,,,,,,,,,,,,,,,,3HAC8Z,train_y,blue_star,bottom_right,2025-04-08_17h20.32.454,HideSeek_v1,2022.2.5,59.91776884172358,
,7,4,7,8,0,4,65,,train_dim1_1,21,30,,,,2,0,2,0,,,,,,,,,0,0,0,0,0,20,20,20,3,0,3,0,,,,,,,,,,,,,,,,,,,,,,,,,,,,,,,,,,,,,,,,,,,,,,,,,,,,,,,,,,,,,,,,30,,,,,,,,2431.5040865000337,2431.5040865000337,2431.5040865000337,2431.5040865000337,2431.5040865000337,up,0.1432348000817001,9,1,0,99,0.4,0.24,up,0.06112099997699261,,,,,,,,,,,,,,,,,,,,,,,,,,,,,,,,,,,,,,,,,,,,,,,,,,,,,,,,,,,,3HAC8Z,train_y,blue_star,bottom_right,2025-04-08_17h20.32.454,HideSeek_v1,2022.2.5,59.91776884172358,
,7,4,7,8,0,4,65,,train_dim1_1,21,30,,,,2,0,2,0,,,,,,,,,0,0,0,0,0,20,20,20,4,0,4,0,,,,,,,,,,,,,,,,,,,,,,,,,,,,,,,,,,,,,,,,,,,,,,,,,,,,,,,,,,,,,,,,30,,,,,,,,2431.6541934001725,2431.6541934001725,2431.6541934001725,2431.6541934001725,2431.6541934001725,up,0.14311489998362958,9,1,0,99,0.4,0.32,up,0.06053769984282553,,,,,,,,,,,,,,,,,,,,,,,,,,,,,,,,,,,,,,,,,,,,,,,,,,,,,,,,,,,,3HAC8Z,train_y,blue_star,bottom_right,2025-04-08_17h20.32.454,HideSeek_v1,2022.2.5,59.91776884172358,
,7,4,7,8,0,4,65,,train_dim1_1,21,30,,,,2,0,2,0,,,,,,,,,0,0,0,0,0,20,20,20,5,0,5,0,,,,,,,,,,,,,,,,,,,,,,,,,,,,,,,,,,,,,,,,,,,,,,,,,,,,,,,,,,,,,,,,30,,,,,,,,2431.8039893000387,2431.8039893000387,2431.8039893000387,2431.8039893000387,2431.8039893000387,return,0.3097568000666797,9,1,0,0,0.4,0.32,return,0.22193549992516637,61,0,0.4,0.32,,,,,,,,,,,,,,,,,,,,,,,,,,,,,,,,,,,,,,,,,,,,,,,,,,,,,,,,3HAC8Z,train_y,blue_star,bottom_right,2025-04-08_17h20.32.454,HideSeek_v1,2022.2.5,59.91776884172358,
,5,2,5,5,0,3,64,,train_dim1_1,22,30,,,,2,0,2,0,,,,,,,,,0,0,0,0,0,21,21,21,0,0,0,0,,,,,,,,,,,,,,,,,,,,,,,,,stimuli/alien_stimuli/64.png,,,,,,,,,,,,,,,,,,,,,,,,,,,,,stimuli/alien_stimuli/65.png,65,7,23,,,,,,,30,,,,,,,,2437.295365200145,2437.295365200145,2437.295365200145,2437.295365200145,2437.295365200145,up,1.0737180998548865,9,1,0,99,0.24,-0.15999999999999998,up,0.9893702999688685,,,,,2435.744904300198,2437.295365200145,0.4,0.24,0.32,0.0,0.07999999999999999,0.4,0.4,0.4,0.24,2433.665598700056,2433.665598700056,2433.665598700056,2433.665598700056,2433.665598700056,2433.665598700056,2433.665598700056,2433.665598700056,2433.6593296200504,2.170129199977964,return,2.0543473998550326,,,,,,,,,,,,,,,,,,,,,,,,,,,,,,,,,3HAC8Z,train_y,blue_star,bottom_right,2025-04-08_17h20.32.454,HideSeek_v1,2022.2.5,59.91776884172358,
,5,2,5,5,0,3,64,,train_dim1_1,22,30,,,,2,0,2,0,,,,,,,,,0,0,0,0,0,21,21,21,1,0,1,0,,,,,,,,,,,,,,,,,,,,,,,,,,,,,,,,,,,,,,,,,,,,,,,,,,,,,,,,,,,,,,,,30,,,,,,,,2438.3774311000016,2438.3774311000016,2438.3774311000016,2438.3774311000016,2438.3774311000016,up,0.17557410011067986,9,1,0,99,0.24,-0.07999999999999997,up,0.09879549965262413,,,,,,,,,,,,,,,,,,,,,,,,,,,,,,,,,,,,,,,,,,,,,,,,,,,,,,,,,,,,3HAC8Z,train_y,blue_star,bottom_right,2025-04-08_17h20.32.454,HideSeek_v1,2022.2.5,59.91776884172358,
,5,2,5,5,0,3,64,,train_dim1_1,22,30,,,,2,0,2,0,,,,,,,,,0,0,0,0,0,21,21,21,2,0,2,0,,,,,,,,,,,,,,,,,,,,,,,,,,,,,,,,,,,,,,,,,,,,,,,,,,,,,,,,,,,,,,,,30,,,,,,,,2438.559608800104,2438.559608800104,2438.559608800104,2438.559608800104,2438.559608800104,up,0.15962600009515882,9,1,0,99,0.24,2.7755575615628914e-17,up,0.07209899998269975,,,,,,,,,,,,,,,,,,,,,,,,,,,,,,,,,,,,,,,,,,,,,,,,,,,,,,,,,,,,3HAC8Z,train_y,blue_star,bottom_right,2025-04-08_17h20.32.454,HideSeek_v1,2022.2.5,59.91776884172358,
,5,2,5,5,0,3,64,,train_dim1_1,22,30,,,,2,0,2,0,,,,,,,,,0,0,0,0,0,21,21,21,3,0,3,0,,,,,,,,,,,,,,,,,,,,,,,,,,,,,,,,,,,,,,,,,,,,,,,,,,,,,,,,,,,,,,,,30,,,,,,,,2438.7263574001845,2438.7263574001845,2438.7263574001845,2438.7263574001845,2438.7263574001845,up,0.12666200008243322,9,1,0,99,0.24,0.08000000000000003,up,0.04929879982955754,,,,,,,,,,,,,,,,,,,,,,,,,,,,,,,,,,,,,,,,,,,,,,,,,,,,,,,,,,,,3HAC8Z,train_y,blue_star,bottom_right,2025-04-08_17h20.32.454,HideSeek_v1,2022.2.5,59.91776884172358,
,5,2,5,5,0,3,64,,train_dim1_1,22,30,,,,2,0,2,0,,,,,,,,,0,0,0,0,0,21,21,21,4,0,4,0,,,,,,,,,,,,,,,,,,,,,,,,,,,,,,,,,,,,,,,,,,,,,,,,,,,,,,,,,,,,,,,,30,,,,,,,,2438.8597810000647,2438.8597810000647,2438.8597810000647,2438.8597810000647,2438.8597810000647,down,1.694746599998325,9,1,0,99,0.24,2.7755575615628914e-17,down,1.6105015999637544,,,,,,,,,,,,,,,,,,,,,,,,,,,,,,,,,,,,,,,,,,,,,,,,,,,,,,,,,,,,3HAC8Z,train_y,blue_star,bottom_right,2025-04-08_17h20.32.454,HideSeek_v1,2022.2.5,59.91776884172358,
,5,2,5,5,0,3,64,,train_dim1_1,22,30,,,,2,0,2,0,,,,,,,,,0,0,0,0,0,21,21,21,5,0,5,0,,,,,,,,,,,,,,,,,,,,,,,,,,,,,,,,,,,,,,,,,,,,,,,,,,,,,,,,,,,,,,,,30,,,,,,,,2440.5605357000604,2440.5605357000604,2440.5605357000604,2440.5605357000604,2440.5605357000604,return,0.42646240000613034,10,0,0,1,0.24,2.7755575615628914e-17,return,0.3505457998253405,64,0,0.24,2.7755575615628914e-17,,,,,,,,,,,,,,,,,,,,,,,,,,,,,,,,,,,,,,,,,,,,,,,,,,,,,,,,3HAC8Z,train_y,blue_star,bottom_right,2025-04-08_17h20.32.454,HideSeek_v1,2022.2.5,59.91776884172358,
,5,3,5,3,0,0,61,,train_dim1_1,23,30,,,,2,0,2,0,,,,,,,,,0,0,0,0,0,22,22,22,0,0,0,0,,,,,,,,,,,,,,,,,,,,,,,,,stimuli/alien_stimuli/61.png,,,,,,,,,,,,,,,,,,,,,,,,,,,,,stimuli/alien_stimuli/64.png,64,5,24,,,,,,,30,,,,,,,,2444.489357000217,2444.489357000217,2444.489357000217,2444.489357000217,2444.489357000217,up,6.258810800034553,10,0,0,99,0.24,-0.08,up,6.1714506996795535,,,,,2442.933637500042,2444.489357000217,0.24,0,0.24,0.0,-0.12,0.24,0.24,0.24,0,2442.5379322001245,2442.5379322001245,2442.5379322001245,2442.5379322001245,2442.5379322001245,2442.5379322001245,2442.5379322001245,2442.5379322001245,2442.533653620258,0.48537479992955923,return,0.36469139996916056,,,,,,,,,,,,,,,,,,,,,,,,,,,,,,,,,3HAC8Z,train_y,blue_star,bottom_right,2025-04-08_17h20.32.454,HideSeek_v1,2022.2.5,59.91776884172358,
,5,3,5,3,0,0,61,,train_dim1_1,23,30,,,,2,0,2,0,,,,,,,,,0,0,0,0,0,22,22,22,1,0,1,0,,,,,,,,,,,,,,,,,,,,,,,,,,,,,,,,,,,,,,,,,,,,,,,,,,,,,,,,,,,,,,,,30,,,,,,,,2450.7544909000862,2450.7544909000862,2450.7544909000862,2450.7544909000862,2450.7544909000862,return,0.5764025000389665,10,1,0,0,0.24,-0.08,return,0.4997764998115599,65,0,0.24,-0.08,,,,,,,,,,,,,,,,,,,,,,,,,,,,,,,,,,,,,,,,,,,,,,,,,,,,,,,,3HAC8Z,train_y,blue_star,bottom_right,2025-04-08_17h20.32.454,HideSeek_v1,2022.2.5,59.91776884172358,
,8,2,8,7,0,5,66,,train_dim1_1,24,30,,,,2,0,2,0,,,,,,,,,0,0,0,0,0,23,23,23,0,0,0,0,,,,,,,,,,,,,,,,,,,,,,,,,stimuli/alien_stimuli/66.png,,,,,,,,,,,,,,,,,,,,,,,,,,,,,stimuli/alien_stimuli/61.png,61,5,25,,,,,,,30,,,,,,,,2454.8959373000544,2454.8959373000544,2454.8959373000544,2454.8959373000544,2454.8959373000544,up,1.4045090998988599,10,1,0,99,0.48,-0.15999999999999998,up,1.3274457997176796,,,,,2453.342620300129,2454.8959373000544,0.24,-0.16,0.0,0.0,-0.16,0.24,0.24,0.24,-0.16,2452.9032223999966,2452.9032223999966,2452.9032223999966,2452.9032223999966,2452.9032223999966,2452.9032223999966,2452.9032223999966,2452.9032223999966,2452.892027540086,0.5527592001017183,return,0.4179609997663647,,,,,,,,,,,,,,,,,,,,,,,,,,,,,,,,,3HAC8Z,train_y,blue_star,bottom_right,2025-04-08_17h20.32.454,HideSeek_v1,2022.2.5,59.91776884172358,
,8,2,8,7,0,5,66,,train_dim1_1,24,30,,,,2,0,2,0,,,,,,,,,0,0,0,0,0,23,23,23,1,0,1,0,,,,,,,,,,,,,,,,,,,,,,,,,,,,,,,,,,,,,,,,,,,,,,,,,,,,,,,,,,,,,,,,30,,,,,,,,2456.3086350001395,2456.3086350001395,2456.3086350001395,2456.3086350001395,2456.3086350001395,up,0.20929210004396737,10,1,0,99,0.48,-0.07999999999999997,up,0.12883140007033944,,,,,,,,,,,,,,,,,,,,,,,,,,,,,,,,,,,,,,,,,,,,,,,,,,,,,,,,,,,,3HAC8Z,train_y,blue_star,bottom_right,2025-04-08_17h20.32.454,HideSeek_v1,2022.2.5,59.91776884172358,
,8,2,8,7,0,5,66,,train_dim1_1,24,30,,,,2,0,2,0,,,,,,,,,0,0,0,0,0,23,23,23,2,0,2,0,,,,,,,,,,,,,,,,,,,,,,,,,,,,,,,,,,,,,,,,,,,,,,,,,,,,,,,,,,,,,,,,30,,,,,,,,2456.5270113002043,2456.5270113002043,2456.5270113002043,2456.5270113002043,2456.5270113002043,up,0.1599711999297142,10,1,0,99,0.48,2.7755575615628914e-17,up,0.08254909981042147,,,,,,,,,,,,,,,,,,,,,,,,,,,,,,,,,,,,,,,,,,,,,,,,,,,,,,,,,,,,3HAC8Z,train_y,blue_star,bottom_right,2025-04-08_17h20.32.454,HideSeek_v1,2022.2.5,59.91776884172358,
,8,2,8,7,0,5,66,,train_dim1_1,24,30,,,,2,0,2,0,,,,,,,,,0,0,0,0,0,23,23,23,3,0,3,0,,,,,,,,,,,,,,,,,,,,,,,,,,,,,,,,,,,,,,,,,,,,,,,,,,,,,,,,,,,,,,,,30,,,,,,,,2456.6921272000764,2456.6921272000764,2456.6921272000764,2456.6921272000764,2456.6921272000764,up,0.176616600016132,10,1,0,99,0.48,0.08000000000000003,up,0.08885169983841479,,,,,,,,,,,,,,,,,,,,,,,,,,,,,,,,,,,,,,,,,,,,,,,,,,,,,,,,,,,,3HAC8Z,train_y,blue_star,bottom_right,2025-04-08_17h20.32.454,HideSeek_v1,2022.2.5,59.91776884172358,
,8,2,8,7,0,5,66,,train_dim1_1,24,30,,,,2,0,2,0,,,,,,,,,0,0,0,0,0,23,23,23,4,0,4,0,,,,,,,,,,,,,,,,,,,,,,,,,,,,,,,,,,,,,,,,,,,,,,,,,,,,,,,,,,,,,,,,30,,,,,,,,2456.873953200178,2456.873953200178,2456.873953200178,2456.873953200178,2456.873953200178,up,1.2439224999397993,10,1,0,99,0.48,0.16000000000000003,up,1.172216799808666,,,,,,,,,,,,,,,,,,,,,,,,,,,,,,,,,,,,,,,,,,,,,,,,,,,,,,,,,,,,3HAC8Z,train_y,blue_star,bottom_right,2025-04-08_17h20.32.454,HideSeek_v1,2022.2.5,59.91776884172358,
,8,2,8,7,0,5,66,,train_dim1_1,24,30,,,,2,0,2,0,,,,,,,,,0,0,0,0,0,23,23,23,5,0,5,0,,,,,,,,,,,,,,,,,,,,,,,,,,,,,,,,,,,,,,,,,,,,,,,,,,,,,,,,,,,,,,,,30,,,,,,,,2458.1254021001514,2458.1254021001514,2458.1254021001514,2458.1254021001514,2458.1254021001514,return,0.2938657000195235,11,0,0,1,0.48,0.16000000000000003,return,0.2189416999462992,70,0,0.48,0.16000000000000003,,,,,,,,,,,,,,,,,,,,,,,,,,,,,,,,,,,,,,,,,,,,,,,,,,,,,,,,3HAC8Z,train_y,blue_star,bottom_right,2025-04-08_17h20.32.454,HideSeek_v1,2022.2.5,59.91776884172358,
,8,3,8,4,0,1,62,,train_dim1_1,25,30,,,,2,0,2,0,,,,,,,,,0,0,0,0,0,24,24,24,0,0,0,0,,,,,,,,,,,,,,,,,,,,,,,,,stimuli/alien_stimuli/62.png,,,,,,,,,,,,,,,,,,,,,,,,,,,,,stimuli/alien_stimuli/66.png,66,8,26,,,,,,,30,,,,,,,,2461.8881649000105,2461.8881649000105,2461.8881649000105,2461.8881649000105,2461.8881649000105,up,1.903435599990189,11,0,0,99,0.48,-0.08,up,1.8292096997611225,,,,,2460.3315220000222,2461.8881649000105,0.48,0.16,0.4,0.0,-0.039999999999999994,0.48,0.48,0.48,0.16,2459.9726131001953,2459.9726131001953,2459.9726131001953,2459.9726131001953,2459.9726131001953,2459.9726131001953,2459.9726131001953,2459.9726131001953,2459.9646592201666,0.4524688001256436,return,0.3321031997911632,,,,,,,,,,,,,,,,,,,,,,,,,,,,,,,,,3HAC8Z,train_y,blue_star,bottom_right,2025-04-08_17h20.32.454,HideSeek_v1,2022.2.5,59.91776884172358,
,8,3,8,4,0,1,62,,train_dim1_1,25,30,,,,2,0,2,0,,,,,,,,,0,0,0,0,0,24,24,24,1,0,1,0,,,,,,,,,,,,,,,,,,,,,,,,,,,,,,,,,,,,,,,,,,,,,,,,,,,,,,,,,,,,,,,,30,,,,,,,,2463.7984767002054,2463.7984767002054,2463.7984767002054,2463.7984767002054,2463.7984767002054,return,0.876708900090307,12,0,0,1,0.48,-0.08,return,0.7930713999085128,71,0,0.48,-0.08,,,,,,,,,,,,,,,,,,,,,,,,,,,,,,,,,,,,,,,,,,,,,,,,,,,,,,,,3HAC8Z,train_y,blue_star,bottom_right,2025-04-08_17h20.32.454,HideSeek_v1,2022.2.5,59.91776884172358,
,9,4,9,7,0,3,64,,train_dim1_1,26,30,,,,2,0,2,0,,,,,,,,,0,0,0,0,0,25,25,25,0,0,0,0,,,,,,,,,,,,,,,,,,,,,,,,,stimuli/alien_stimuli/64.png,,,,,,,,,,,,,,,,,,,,,,,,,,,,,stimuli/alien_stimuli/62.png,62,8,27,,,,,,,30,,,,,,,,2470.5228183001745,2470.5228183001745,2470.5228183001745,2470.5228183001745,2470.5228183001745,up,0.8890998000279069,12,0,0,99,0.56,0.0,up,0.8075286997482181,,,,,2468.971863000188,2470.5228183001745,0.48,-0.08,0.08,0.0,-0.12,0.48,0.48,0.48,-0.08,2466.2296867000405,2466.2296867000405,2466.2296867000405,2466.2296867000405,2466.2296867000405,2466.2296867000405,2466.2296867000405,2466.2296867000405,2466.2197590201163,2.8378518000245094,return,2.7132445997558534,,,,,,,,,,,,,,,,,,,,,,,,,,,,,,,,,3HAC8Z,train_y,blue_star,bottom_right,2025-04-08_17h20.32.454,HideSeek_v1,2022.2.5,59.91776884172358,
,9,4,9,7,0,3,64,,train_dim1_1,26,30,,,,2,0,2,0,,,,,,,,,0,0,0,0,0,25,25,25,1,0,1,0,,,,,,,,,,,,,,,,,,,,,,,,,,,,,,,,,,,,,,,,,,,,,,,,,,,,,,,,,,,,,,,,30,,,,,,,,2471.420087600127,2471.420087600127,2471.420087600127,2471.420087600127,2471.420087600127,up,0.19259739993140101,12,0,0,99,0.56,0.08,up,0.11335480003617704,,,,,,,,,,,,,,,,,,,,,,,,,,,,,,,,,,,,,,,,,,,,,,,,,,,,,,,,,,,,3HAC8Z,train_y,blue_star,bottom_right,2025-04-08_17h20.32.454,HideSeek_v1,2022.2.5,59.91776884172358,
,9,4,9,7,0,3,64,,train_dim1_1,26,30,,,,2,0,2,0,,,,,,,,,0,0,0,0,0,25,25,25,2,0,2,0,,,,,,,,,,,,,,,,,,,,,,,,,,,,,,,,,,,,,,,,,,,,,,,,,,,,,,,,,,,,,,,,30,,,,,,,,2471.6205460000783,2471.6205460000783,2471.6205460000783,2471.6205460000783,2471.6205460000783,up,0.17633799999020994,12,0,0,99,0.56,0.16,up,0.09426130005158484,,,,,,,,,,,,,,,,,,,,,,,,,,,,,,,,,,,,,,,,,,,,,,,,,,,,,,,,,,,,3HAC8Z,train_y,blue_star,bottom_right,2025-04-08_17h20.32.454,HideSeek_v1,2022.2.5,59.91776884172358,
,9,4,9,7,0,3,64,,train_dim1_1,26,30,,,,2,0,2,0,,,,,,,,,0,0,0,0,0,25,25,25,3,0,3,0,,,,,,,,,,,,,,,,,,,,,,,,,,,,,,,,,,,,,,,,,,,,,,,,,,,,,,,,,,,,,,,,30,,,,,,,,2471.8044752001297,2471.8044752001297,2471.8044752001297,2471.8044752001297,2471.8044752001297,return,2.2117448998615146,13,0,0,1,0.56,0.16,return,2.132170399883762,74,0,0.56,0.16,,,,,,,,,,,,,,,,,,,,,,,,,,,,,,,,,,,,,,,,,,,,,,,,,,,,,,,,3HAC8Z,train_y,blue_star,bottom_right,2025-04-08_17h20.32.454,HideSeek_v1,2022.2.5,59.91776884172358,
,8,4,8,9,0,5,66,,train_dim1_1,27,30,,,,2,0,2,0,,,,,,,,,0,0,0,0,0,26,26,26,0,0,0,0,,,,,,,,,,,,,,,,,,,,,,,,,stimuli/alien_stimuli/66.png,,,,,,,,,,,,,,,,,,,,,,,,,,,,,stimuli/alien_stimuli/64.png,64,9,28,,,,,,,30,,,,,,,,2478.7673247000203,2478.7673247000203,2478.7673247000203,2478.7673247000203,2478.7673247000203,up,1.237597799859941,13,0,0,99,0.48,0.0,up,1.1589172999374568,,,,,2477.2124285001773,2478.7673247000203,0.56,0.16,0.24,0.0,0.04,0.56,0.56,0.56,0.16,2475.5688556001987,2475.5688556001987,2475.5688556001987,2475.5688556001987,2475.5688556001987,2475.5688556001987,2475.5688556001987,2475.5688556001987,2475.5610010201112,1.7371292000170797,return,1.6221965998411179,,,,,,,,,,,,,,,,,,,,,,,,,,,,,,,,,3HAC8Z,train_y,blue_star,bottom_right,2025-04-08_17h20.32.454,HideSeek_v1,2022.2.5,59.91776884172358,
,8,4,8,9,0,5,66,,train_dim1_1,27,30,,,,2,0,2,0,,,,,,,,,0,0,0,0,0,26,26,26,1,0,1,0,,,,,,,,,,,,,,,,,,,,,,,,,,,,,,,,,,,,,,,,,,,,,,,,,,,,,,,,,,,,,,,,30,,,,,,,,2480.0101498002186,2480.0101498002186,2480.0101498002186,2480.0101498002186,2480.0101498002186,up,0.1926990000065416,13,0,0,99,0.48,0.08,up,0.11088359984569252,,,,,,,,,,,,,,,,,,,,,,,,,,,,,,,,,,,,,,,,,,,,,,,,,,,,,,,,,,,,3HAC8Z,train_y,blue_star,bottom_right,2025-04-08_17h20.32.454,HideSeek_v1,2022.2.5,59.91776884172358,
,8,4,8,9,0,5,66,,train_dim1_1,27,30,,,,2,0,2,0,,,,,,,,,0,0,0,0,0,26,26,26,2,0,2,0,,,,,,,,,,,,,,,,,,,,,,,,,,,,,,,,,,,,,,,,,,,,,,,,,,,,,,,,,,,,,,,,30,,,,,,,,2480.2099429999944,2480.2099429999944,2480.2099429999944,2480.2099429999944,2480.2099429999944,up,0.19324219995178282,13,0,0,99,0.48,0.16,up,0.10602419986389577,,,,,,,,,,,,,,,,,,,,,,,,,,,,,,,,,,,,,,,,,,,,,,,,,,,,,,,,,,,,3HAC8Z,train_y,blue_star,bottom_right,2025-04-08_17h20.32.454,HideSeek_v1,2022.2.5,59.91776884172358,
,8,4,8,9,0,5,66,,train_dim1_1,27,30,,,,2,0,2,0,,,,,,,,,0,0,0,0,0,26,26,26,3,0,3,0,,,,,,,,,,,,,,,,,,,,,,,,,,,,,,,,,,,,,,,,,,,,,,,,,,,,,,,,,,,,,,,,30,,,,,,,,2480.4123352000024,2480.4123352000024,2480.4123352000024,2480.4123352000024,2480.4123352000024,up,0.15989250014536083,13,0,0,99,0.48,0.24,up,0.08541299984790385,,,,,,,,,,,,,,,,,,,,,,,,,,,,,,,,,,,,,,,,,,,,,,,,,,,,,,,,,,,,3HAC8Z,train_y,blue_star,bottom_right,2025-04-08_17h20.32.454,HideSeek_v1,2022.2.5,59.91776884172358,
,8,4,8,9,0,5,66,,train_dim1_1,27,30,,,,2,0,2,0,,,,,,,,,0,0,0,0,0,26,26,26,4,0,4,0,,,,,,,,,,,,,,,,,,,,,,,,,,,,,,,,,,,,,,,,,,,,,,,,,,,,,,,,,,,,,,,,30,,,,,,,,2480.5780474001076,2480.5780474001076,2480.5780474001076,2480.5780474001076,2480.5780474001076,up,0.226186600048095,13,0,0,99,0.48,0.32,up,0.15460609993897378,,,,,,,,,,,,,,,,,,,,,,,,,,,,,,,,,,,,,,,,,,,,,,,,,,,,,,,,,,,,3HAC8Z,train_y,blue_star,bottom_right,2025-04-08_17h20.32.454,HideSeek_v1,2022.2.5,59.91776884172358,
,8,4,8,9,0,5,66,,train_dim1_1,27,30,,,,2,0,2,0,,,,,,,,,0,0,0,0,0,26,26,26,5,0,5,0,,,,,,,,,,,,,,,,,,,,,,,,,,,,,,,,,,,,,,,,,,,,,,,,,,,,,,,,,,,,,,,,30,,,,,,,,2480.813992300071,2480.813992300071,2480.813992300071,2480.813992300071,2480.813992300071,return,0.3435249999165535,14,0,0,1,0.48,0.32,return,0.2689652000553906,79,0,0.48,0.32,,,,,,,,,,,,,,,,,,,,,,,,,,,,,,,,,,,,,,,,,,,,,,,,,,,,,,,,3HAC8Z,train_y,blue_star,bottom_right,2025-04-08_17h20.32.454,HideSeek_v1,2022.2.5,59.91776884172358,
,9,1,9,1,0,0,61,,train_dim1_1,28,30,,,,2,0,2,0,,,,,,,,,0,0,0,0,0,27,27,27,0,0,0,0,,,,,,,,,,,,,,,,,,,,,,,,,stimuli/alien_stimuli/61.png,,,,,,,,,,,,,,,,,,,,,,,,,,,,,stimuli/alien_stimuli/66.png,66,8,29,,,,,,,30,,,,,,,,2484.769568600226,2484.769568600226,2484.769568600226,2484.769568600226,2484.769568600226,return,2.257789999945089,15,0,0,1,0.56,-0.32,return,2.180683800019324,79,0,0.56,-0.32,2483.217321400065,2484.769568600226,0.48,0.32,0.4,0.0,0.12,0.48,0.48,0.48,0.32,2482.727282700129,2482.727282700129,2482.727282700129,2482.727282700129,2482.727282700129,2482.727282700129,2482.727282700129,2482.727282700129,2482.7168168401813,0.6027669000905007,return,0.45915449992753565,,,,,,,,,,,,,,,,,,,,,,,,,,,,,,,,,3HAC8Z,train_y,blue_star,bottom_right,2025-04-08_17h20.32.454,HideSeek_v1,2022.2.5,59.91776884172358,
,7,2,7,3,0,1,62,,train_dim1_1,29,30,,,,2,0,2,0,,,,,,,,,0,0,0,0,0,28,28,28,0,0,0,0,,,,,,,,,,,,,,,,,,,,,,,,,stimuli/alien_stimuli/62.png,,,,,,,,,,,,,,,,,,,,,,,,,,,,,stimuli/alien_stimuli/61.png,61,9,30,,,,,,,30,,,,,,,,2492.440101800021,2492.440101800021,2492.440101800021,2492.440101800021,2492.440101800021,up,1.340152099961415,15,0,0,99,0.4,-0.15999999999999998,up,1.2586924999486655,,,,,2490.890247900039,2492.440101800021,0.56,-0.32,0.0,0.0,-0.32,0.56,0.56,0.56,-0.32,2488.5750752000604,2488.5750752000604,2488.5750752000604,2488.5750752000604,2488.5750752000604,2488.5750752000604,2488.5750752000604,2488.5750752000604,2488.5718265202363,2.4040977000258863,return,2.28387299971655,,,,,,,,,,,,,,,,,,,,,,,,,,,,,,,,,3HAC8Z,train_y,blue_star,bottom_right,2025-04-08_17h20.32.454,HideSeek_v1,2022.2.5,59.91776884172358,
,7,2,7,3,0,1,62,,train_dim1_1,29,30,,,,2,0,2,0,,,,,,,,,0,0,0,0,0,28,28,28,1,0,1,0,,,,,,,,,,,,,,,,,,,,,,,,,,,,,,,,,,,,,,,,,,,,,,,,,,,,,,,,,,,,,,,,30,,,,,,,,2493.787387700053,2493.787387700053,2493.787387700053,2493.787387700053,2493.787387700053,return,0.34313849988393486,16,0,0,1,0.4,-0.15999999999999998,return,0.2580870999954641,80,0,0.4,-0.15999999999999998,,,,,,,,,,,,,,,,,,,,,,,,,,,,,,,,,,,,,,,,,,,,,,,,,,,,,,,,3HAC8Z,train_y,blue_star,bottom_right,2025-04-08_17h20.32.454,HideSeek_v1,2022.2.5,59.91776884172358,
,5,1,5,5,0,4,65,,train_dim1_1,30,30,,,,2,0,2,0,,,,,,,,,0,0,0,0,0,29,29,29,0,0,0,0,,,,,,,,,,,,,,,,,,,,,,,,,stimuli/alien_stimuli/65.png,,,,,,,,,,,,,,,,,,,,,,,,,,,,,stimuli/alien_stimuli/62.png,62,7,31,,,,,,,30,,,,,,,,2498.1305789002217,2498.1305789002217,2498.1305789002217,2498.1305789002217,2498.1305789002217,up,0.7724369000643492,16,0,0,99,0.24,-0.24,up,0.6849120997358114,,,,,2496.578503700206,2498.1305789002217,0.4,-0.16,0.08,0.0,-0.2,0.4,0.4,0.4,-0.16,2495.6833964001853,2495.6833964001853,2495.6833964001853,2495.6833964001853,2495.6833964001853,2495.6833964001853,2495.6833964001853,2495.6833964001853,2495.6776284201537,0.9862991999834776,return,0.8704819998238236,,,,,,,,,,,,,,,,,,,,,,,,,,,,,,,,,3HAC8Z,train_y,blue_star,bottom_right,2025-04-08_17h20.32.454,HideSeek_v1,2022.2.5,59.91776884172358,
,5,1,5,5,0,4,65,,train_dim1_1,30,30,,,,2,0,2,0,,,,,,,,,0,0,0,0,0,29,29,29,1,0,1,0,,,,,,,,,,,,,,,,,,,,,,,,,,,,,,,,,,,,,,,,,,,,,,,,,,,,,,,,,,,,,,,,30,,,,,,,,2498.910251200199,2498.910251200199,2498.910251200199,2498.910251200199,2498.910251200199,up,0.14284200011752546,16,0,0,99,0.24,-0.15999999999999998,up,0.06480999989435077,,,,,,,,,,,,,,,,,,,,,,,,,,,,,,,,,,,,,,,,,,,,,,,,,,,,,,,,,,,,3HAC8Z,train_y,blue_star,bottom_right,2025-04-08_17h20.32.454,HideSeek_v1,2022.2.5,59.91776884172358,
,5,1,5,5,0,4,65,,train_dim1_1,30,30,,,,2,0,2,0,,,,,,,,,0,0,0,0,0,29,29,29,2,0,2,0,,,,,,,,,,,,,,,,,,,,,,,,,,,,,,,,,,,,,,,,,,,,,,,,,,,,,,,,,,,,,,,,30,,,,,,,,2499.0601636001375,2499.0601636001375,2499.0601636001375,2499.0601636001375,2499.0601636001375,up,0.1429628999903798,16,0,0,99,0.24,-0.07999999999999997,up,0.05777229997329414,,,,,,,,,,,,,,,,,,,,,,,,,,,,,,,,,,,,,,,,,,,,,,,,,,,,,,,,,,,,3HAC8Z,train_y,blue_star,bottom_right,2025-04-08_17h20.32.454,HideSeek_v1,2022.2.5,59.91776884172358,
,5,1,5,5,0,4,65,,train_dim1_1,30,30,,,,2,0,2,0,,,,,,,,,0,0,0,0,0,29,29,29,3,0,3,0,,,,,,,,,,,,,,,,,,,,,,,,,,,,,,,,,,,,,,,,,,,,,,,,,,,,,,,,,,,,,,,,30,,,,,,,,2499.2085038002115,2499.2085038002115,2499.2085038002115,2499.2085038002115,2499.2085038002115,up,0.14331539999693632,16,0,0,99,0.24,2.7755575615628914e-17,up,0.06472539994865656,,,,,,,,,,,,,,,,,,,,,,,,,,,,,,,,,,,,,,,,,,,,,,,,,,,,,,,,,,,,3HAC8Z,train_y,blue_star,bottom_right,2025-04-08_17h20.32.454,HideSeek_v1,2022.2.5,59.91776884172358,
,5,1,5,5,0,4,65,,train_dim1_1,30,30,,,,2,0,2,0,,,,,,,,,0,0,0,0,0,29,29,29,4,0,4,0,,,,,,,,,,,,,,,,,,,,,,,,,,,,,,,,,,,,,,,,,,,,,,,,,,,,,,,,,,,,,,,,30,,,,,,,,2499.360473200213,2499.360473200213,2499.360473200213,2499.360473200213,2499.360473200213,return,0.24288360006175935,17,0,0,1,0.24,2.7755575615628914e-17,return,0.16002309997566044,84,0,0.24,2.7755575615628914e-17,,,,,,,,,,,,,,,,,,,,,,,,,,,,,,,,,,,,,,,,,,,,,,,,,,,,,,,,3HAC8Z,train_y,blue_star,bottom_right,2025-04-08_17h20.32.454,HideSeek_v1,2022.2.5,59.91776884172358,
,,,,,,,,,,,30,,,,2,0,2,0,,,,,,,,,,,,,,,,,,,,,,,,,,,,,,,,,,,,,,,,,,,,,,,,,,,,,,,,,,,,,,,,,,,,,,,,,,stimuli/alien_stimuli/65.png,65,5,32,21,0.7,0.7083333333333335,1,1,1,30,0,conditions/schedules/train_y_first/blue_star_00/bottom_right/inputTrain_2.1.xlsx,99,1,2,1,0,,,,,,,,,,,1,,,,,,,,,2501.782796900021,2503.3375735001173,0.24,0,0.32,0.0,-0.16,0.24,0.24,0.24,0,2501.1551026001107,2501.1551026001107,2501.1551026001107,2501.1551026001107,2501.1551026001107,2501.1551026001107,2501.1551026001107,2501.1551026001107,2501.1487656201703,0.7194028999656439,return,0.5957611999474466,0,0.9,0,1,17,,,,,,,,,,,,,,,,,,,,,,,,,,,,3HAC8Z,train_y,blue_star,bottom_right,2025-04-08_17h20.32.454,HideSeek_v1,2022.2.5,59.91776884172358,
,,,,,,,,,,,,,,,3,0,3,0,0,0,0,0,,,,,,,,,,,,,,,,,,,,,,,,,,,,,,,conditions/schedules/train_y_first/blue_star_00/bottom_right/instructions/Slide17.png,conditions/schedules/train_y_first/blue_star_00/bottom_right/instructions/Audio17.wav,2503.3375735001173,2503.3342536801006,17,"[5.773420999990776, 17.7970032999292, 16.283478900091723, 20.45647029997781, 4.484447799855843, 5.003875799942762, 5.352268100017682, 11.556663100142032, 6.153538099955767, 6.7419825999531895, 10.101300900103524, 14.104667900130153, 16.82960160006769, 17.06026909989305, 42.86595440004021, 22.24207579996437, 79.5103374000173]","[5.773433699971065, 0.014262499986216426, 0.014178300043568015, 0.014180499827489257, 0.04983039991930127, 0.06405480019748211, 0.08055770001374185, 0.04808209999464452, 0.05336420005187392, 0.04742750013247132, 0.01376260002143681, 14.104674900183454, 0.046820999821648, 17.060275599826127, 0.09005330014042556, 22.2420825001318, 79.51034629996866]",0,,,,,,,,,,,,,,,,,,,,,,,,,,,,,,,,,,,,,,,,,,,,,,,,,,,,,,,,,,,,,,,,,,,,,,,,,,,,,,,,,,,,,,,,,,,,,,,,,,,,,,,,,,,,,,,,,,,,,,,,,,,,3HAC8Z,train_y,blue_star,bottom_right,2025-04-08_17h20.32.454,HideSeek_v1,2022.2.5,59.91776884172358,
,,,,,,,,,,,,,,,3,0,3,0,1,0,1,0,,,,,,,,,,,,,,,,,,,,,,,,,,,,,,,conditions/schedules/train_y_first/blue_star_00/bottom_right/instructions/Slide18.png,conditions/schedules/train_y_first/blue_star_00/bottom_right/instructions/Audio18.wav,2582.919644800015,2582.9167567002587,18,"[5.773420999990776, 17.7970032999292, 16.283478900091723, 20.45647029997781, 4.484447799855843, 5.003875799942762, 5.352268100017682, 11.556663100142032, 6.153538099955767, 6.7419825999531895, 10.101300900103524, 14.104667900130153, 16.82960160006769, 17.06026909989305, 42.86595440004021, 22.24207579996437, 79.5103374000173, 6.216820700094104]","[5.773433699971065, 0.014262499986216426, 0.014178300043568015, 0.014180499827489257, 0.04983039991930127, 0.06405480019748211, 0.08055770001374185, 0.04808209999464452, 0.05336420005187392, 0.04742750013247132, 0.01376260002143681, 14.104674900183454, 0.046820999821648, 17.060275599826127, 0.09005330014042556, 22.2420825001318, 0.1118826000019908, 6.216827299911529]",0,,,,,,,,,,,,,,,,,,,,,,,,,,,,,,,,,,,,,,,,,,,,,,,,,,,,,,,,,,,,,,,,,,,,,,,,,,,,,,,,,,,,,,,,,,,,,,,,,,,,,,,,,,,,,,,,,,,,,,,,,,,,3HAC8Z,train_y,blue_star,bottom_right,2025-04-08_17h20.32.454,HideSeek_v1,2022.2.5,59.91776884172358,
,,,,,,,,,,,,,,,3,0,3,0,2,0,2,0,,,,,,,,,,,,,,,,,,,,,,,,,,,,,,,conditions/schedules/train_y_first/blue_star_00/bottom_right/instructions/Slide19.png,conditions/schedules/train_y_first/blue_star_00/bottom_right/instructions/Audio19.wav,2589.1911552001256,2589.18892628015,19,"[5.773420999990776, 17.7970032999292, 16.283478900091723, 20.45647029997781, 4.484447799855843, 5.003875799942762, 5.352268100017682, 11.556663100142032, 6.153538099955767, 6.7419825999531895, 10.101300900103524, 14.104667900130153, 16.82960160006769, 17.06026909989305, 42.86595440004021, 22.24207579996437, 79.5103374000173, 6.216820700094104, 9.903000299818814]","[5.773433699971065, 0.014262499986216426, 0.014178300043568015, 0.014180499827489257, 0.04983039991930127, 0.06405480019748211, 0.08055770001374185, 0.04808209999464452, 0.05336420005187392, 0.04742750013247132, 0.01376260002143681, 14.104674900183454, 0.046820999821648, 17.060275599826127, 0.09005330014042556, 22.2420825001318, 0.1118826000019908, 0.0621113998349756, 9.903006699867547]",0,,,,,,,,,,,,,,,,,,,,,,,,,,,,,,,,,,,,,,,,,,,,,,,,,,,,,,,,,,,,,,,,,,,,,,,,,,,,,,,,,,,,,,,,,,,,,,,,,,,,,,,,,,,,,,,,,,,,,,,,,,,,3HAC8Z,train_y,blue_star,bottom_right,2025-04-08_17h20.32.454,HideSeek_v1,2022.2.5,59.91776884172358,
,,,,,,,,,,,,,,,3,0,3,0,3,0,3,0,,,,,,,,,,,,,,,,,,,,,,,,,,,,,,,conditions/schedules/train_y_first/blue_star_00/bottom_right/instructions/Slide20.png,conditions/schedules/train_y_first/blue_star_00/bottom_right/instructions/Audio20.wav,2599.1498029001523,2599.1470272800884,20,"[5.773420999990776, 17.7970032999292, 16.283478900091723, 20.45647029997781, 4.484447799855843, 5.003875799942762, 5.352268100017682, 11.556663100142032, 6.153538099955767, 6.7419825999531895, 10.101300900103524, 14.104667900130153, 16.82960160006769, 17.06026909989305, 42.86595440004021, 22.24207579996437, 79.5103374000173, 6.216820700094104, 9.903000299818814, 12.721755400067195]","[5.773433699971065, 0.014262499986216426, 0.014178300043568015, 0.014180499827489257, 0.04983039991930127, 0.06405480019748211, 0.08055770001374185, 0.04808209999464452, 0.05336420005187392, 0.04742750013247132, 0.01376260002143681, 14.104674900183454, 0.046820999821648, 17.060275599826127, 0.09005330014042556, 22.2420825001318, 0.1118826000019908, 0.0621113998349756, 0.013887800043448806, 12.721762100001797]",0,,,,,,,,,,,,,,,,,,,,,,,,,,,,,,,,,,,,,,,,,,,,,,,,,,,,,,,,,,,,,,,,,,,,,,,,,,,,,,,,,,,,,,,,,,,,,,,,,,,,,,,,,,,,,,,,,,,,,,,,,,,,3HAC8Z,train_y,blue_star,bottom_right,2025-04-08_17h20.32.454,HideSeek_v1,2022.2.5,59.91776884172358,
1,9,0,4,0,-5,0,11,2,instr_dim1_2,,,,,,3,0,3,0,,,,,0,0,0,0,,,,,,,,,,,,,,,,,,,,,,,,,,,,,,,,,,,,,stimuli/alien_stimuli/11.png,conditions/schedules/train_y_first/blue_star_00/bottom_right/inputInstr_2.xlsx,stimuli/alien_stimuli/11.png,2611.976336900145,2611.976336900145,2611.976336900145,2611.976336900145,2611.9744404402563,return,7.193898899946362,"[-0.16, -0.08, 0, 0.08, 0.16, 0.24, 0.32, 0.4, 0.48, 0.56]","[-0.4, -0.32, -0.24, -0.16, -0.08, 0, 0.08, 0.16, 0.24, 0.32]",0,0,4,9,0.0,0.4,2619.3204917002004,2619.3204917002004,2619.3204917002004,2619.3204917002004,2619.3204917002004,2619.3204917002004,2619.3204917002004,2619.3135119602553,5.688995399978012,return,5.539087699726224,stimuli/alien_stimuli/11.png,11,9,1,,,,,,,,,,,,,,,,,,,,,,,,,,,,,,,,,,,,,,,,,,,,,,,,,,,,,,,,,,,,,,,,,,,,,,,,,,,,,,,,,,,,,,,,,3HAC8Z,train_y,blue_star,bottom_right,2025-04-08_17h20.32.454,HideSeek_v1,2022.2.5,59.91776884172358,
,,,,,,,,,,,30,,,,3,0,3,0,,,,,,,,,,,,,,,,,,,,,,,,,,,,,,,,,,,,,,,,,,,,,,,,,,,,,,,,,,,,,,,,,,,,,,,,,,,,,,21,0.7,0.7083333333333335,1,99,2,30,0,conditions/schedules/train_y_first/blue_star_00/bottom_right/inputTrain_2.1.xlsx,99,1,2,1,0,,,,,,,,,,,,,,,,,,,,,,,,,,,,,,,,,,,,,,,,,,,,,,,,,,,,,,,,,,,,,,,,,,,,,,,,,,,3HAC8Z,train_y,blue_star,bottom_right,2025-04-08_17h20.32.454,HideSeek_v1,2022.2.5,59.91776884172358,
