trialInstr,x_fixStart,y_fixStart,x_corrSteps,y_corrSteps,x_nrSteps,y_nrSteps,alienID,trialLength,version,trialTrain,praclen,testlen,trial_label,break_on_off,beforeExpLoop.thisRepN,beforeExpLoop.thisTrialN,beforeExpLoop.thisN,beforeExpLoop.thisIndex,mini_instr_trials.thisRepN,mini_instr_trials.thisTrialN,mini_instr_trials.thisN,mini_instr_trials.thisIndex,instrLoop.thisRepN,instrLoop.thisTrialN,instrLoop.thisN,instrLoop.thisIndex,repeat_prac.thisRepN,repeat_prac.thisTrialN,repeat_prac.thisN,repeat_prac.thisIndex,trainLoop.thisRepN,trainLoop.thisTrialN,trainLoop.thisN,trainLoop.thisIndex,moveLoop_train.thisRepN,moveLoop_train.thisTrialN,moveLoop_train.thisN,moveLoop_train.thisIndex,experiment.thisRepN,experiment.thisTrialN,experiment.thisN,experiment.thisIndex,moveLoop_test.thisRepN,moveLoop_test.thisTrialN,moveLoop_test.thisN,moveLoop_test.thisIndex,mini_instr2_trials.thisRepN,mini_instr2_trials.thisTrialN,mini_instr2_trials.thisN,mini_instr2_trials.thisIndex,start_all_time,url,slideStim,audioStim,slides.started,sounds.started,nextButton.numClicks,nextButton.timesOn,nextButton.timesOff,prev_but.numClicks,prev_but.timesOn,prev_but.timesOff,alienStim,instrFile,alienStim_instr,gridImage_instr.started,startPos_3.started,key_instr.started,alienImage_3.started,sounds_1.started,key_instr.keys,key_instr.rt,all_x,all_y,FBy_corrSteps,FBy_fixStart,FBx_corrSteps,FBx_fixStart,FBy_pathSize_check,FBx_pathSize_check,gridImage_9.started,alienImageFB_3.started,startPosFB_3.started,keyFB_3.started,pathLine_ydir_2.started,pathLine_xdir_2.started,alienFace_3.started,sounds_2.started,RTFB_instr,keyFB_3.keys,keyFB_3.rt,draw_alienStim,draw_alienID,test_x,nrepcount,perfthres,percthres,earlierperf,earlystop,nextPrac,fileidx,praclen,saveACC_train,pracFile,nextPrac_train,addNrep,fileidx_endr,repExp,showearly,gridImage_4.started,startPos.started,movePos.started,key_resp.started,alienImage.started,buttonPress_train,RTchoice_train,cumAcctrain,aCorr,saveACC_choice,corrAns,x_movePos_end,y_movePos_end,key_resp.keys,key_resp.rt,wLy_dir,wLx_dir,x_movePos,y_movePos,text_2.started,text_2.stopped,aft_x_corrPos,aft_y_corrPos,y_pathSize_check,x_pathSize_check,y_pathdirY,x_pathdirY,x_pathdirX,x_corrPos,y_corrPos,gridImage_6.started,alienImageFB_2.started,startPosFB_2.started,movePosFB_2.started,keyFB_2.started,pathLine_xdir.started,pathLine_ydir.started,alienFace.started,sounds_4.started,RT_FBtrain,keyFB_2.keys,keyFB_2.rt,saveACC_pre,ACC,within_saveACC_train,earlystop_wloop,cumAcctrain_check,gridImage_3.started,alienImage_test.started,startPos_test.started,movePos_test.started,key_resp_test.started,wLy_dir_test,wLx_dir_test,buttonPress_test,RTchoice_test,cumAcctest,corrAns_test,key_resp_test.keys,key_resp_test.rt,text_3.started,text_3.stopped,total_time,end_all_time,key_resp_3.keys,slides_2.started,sounds_3.started,nextButton_2.numClicks,nextButton_2.timesOn,nextButton_2.timesOff,prev_but_2.numClicks,prev_but_2.timesOn,prev_but_2.timesOff,bye.started,participant,train_first,00_coordinate,starting corner,date,expName,psychopyVersion,frameRate,
,,,,,,,,,,,,,,,0,0,0,0,0,0,0,0,,,,,,,,,,,,,,,,,,,,,,,,,,,,,start_all_time,testround,conditions/schedules/train_y_first/blue_star_00/top_left/instructions/Slide1.png,conditions/schedules/train_y_first/blue_star_00/top_left/instructions/Audio1.wav,492.28453669999726,492.2311579542467,1,[5.295939399860799],[5.2959467000328],0,,,,,,,,,,,,,,,,,,,,,,,,,,,,,,,,,,,,,,,,,,,,,,,,,,,,,,,,,,,,,,,,,,,,,,,,,,,,,,,,,,,,,,,,,,,,,,,,,,,,,,,,,,,,,,,,,,,,,,,,,,,,3J4E52,train_y,blue_star,top_left,2025-09-13_13h26.49.875,HideSeek_v1,2022.2.5,59.92293904378206,
,,,,,,,,,,,,,,,0,0,0,0,1,0,1,0,,,,,,,,,,,,,,,,,,,,,,,,,,,,,,,conditions/schedules/train_y_first/blue_star_00/top_left/instructions/Slide2.png,conditions/schedules/train_y_first/blue_star_00/top_left/instructions/Audio2.wav,497.5996542000212,497.6012077500345,2,"[5.295939399860799, 19.950036500114948]","[0.00022210017777979374, 19.950043600052595]",0,,,,,,,,,,,,,,,,,,,,,,,,,,,,,,,,,,,,,,,,,,,,,,,,,,,,,,,,,,,,,,,,,,,,,,,,,,,,,,,,,,,,,,,,,,,,,,,,,,,,,,,,,,,,,,,,,,,,,,,,,,,,3J4E52,train_y,blue_star,top_left,2025-09-13_13h26.49.875,HideSeek_v1,2022.2.5,59.92293904378206,
,,,,,,,,,,,,,,,0,0,0,0,2,0,2,0,,,,,,,,,,,,,,,,,,,,,,,,,,,,,,,conditions/schedules/train_y_first/blue_star_00/top_left/instructions/Slide3.png,conditions/schedules/train_y_first/blue_star_00/top_left/instructions/Audio3.wav,517.6228404999711,517.6178722499171,3,"[5.295939399860799, 19.950036500114948, 18.80834210012108]","[0.00022210017777979374, 0.00033840001560747623, 18.80834889994003]",0,,,,,,,,,,,,,,,,,,,,,,,,,,,,,,,,,,,,,,,,,,,,,,,,,,,,,,,,,,,,,,,,,,,,,,,,,,,,,,,,,,,,,,,,,,,,,,,,,,,,,,,,,,,,,,,,,,,,,,,,,,,,3J4E52,train_y,blue_star,top_left,2025-09-13_13h26.49.875,HideSeek_v1,2022.2.5,59.92293904378206,
,,,,,,,,,,,,,,,0,0,0,0,3,0,3,0,,,,,,,,,,,,,,,,,,,,,,,,,,,,,,,conditions/schedules/train_y_first/blue_star_00/top_left/instructions/Slide4.png,conditions/schedules/train_y_first/blue_star_00/top_left/instructions/Audio4.wav,536.5109830999281,536.499982850044,4,"[5.295939399860799, 19.950036500114948, 18.80834210012108, 18.802883099997416]","[0.00022210017777979374, 0.00033840001560747623, 18.80834889994003, 18.802890100050718]",0,,,,,,,,,,,,,,,,,,,,,,,,,,,,,,,,,,,,,,,,,,,,,,,,,,,,,,,,,,,,,,,,,,,,,,,,,,,,,,,,,,,,,,,,,,,,,,,,,,,,,,,,,,,,,,,,,,,,,,,,,,,,3J4E52,train_y,blue_star,top_left,2025-09-13_13h26.49.875,HideSeek_v1,2022.2.5,59.92293904378206,
,,,,,,,,,,,,,,,0,0,0,0,4,0,4,0,,,,,,,,,,,,,,,,,,,,,,,,,,,,,,,conditions/schedules/train_y_first/blue_star_00/top_left/instructions/Slide5.png,conditions/schedules/train_y_first/blue_star_00/top_left/instructions/Audio5.wav,555.3767158999108,555.3660450999624,5,"[5.295939399860799, 19.950036500114948, 18.80834210012108, 18.802883099997416, 4.206643499899656]","[0.00022210017777979374, 0.00033840001560747623, 18.80834889994003, 0.013933700043708086, 4.206651099957526]",0,,,,,,,,,,,,,,,,,,,,,,,,,,,,,,,,,,,,,,,,,,,,,,,,,,,,,,,,,,,,,,,,,,,,,,,,,,,,,,,,,,,,,,,,,,,,,,,,,,,,,,,,,,,,,,,,,,,,,,,,,,,,3J4E52,train_y,blue_star,top_left,2025-09-13_13h26.49.875,HideSeek_v1,2022.2.5,59.92293904378206,
,,,,,,,,,,,,,,,0,0,0,0,5,0,5,0,,,,,,,,,,,,,,,,,,,,,,,,,,,,,,,conditions/schedules/train_y_first/blue_star_00/top_left/instructions/Slide6.png,conditions/schedules/train_y_first/blue_star_00/top_left/instructions/Audio6.wav,559.6408104998991,559.6359426998998,6,"[5.295939399860799, 19.950036500114948, 18.80834210012108, 18.802883099997416, 4.206643499899656, 5.8311767999548465]","[0.00022210017777979374, 0.00033840001560747623, 18.80834889994003, 0.013933700043708086, 0.01443239999935031, 5.831183600006625]",0,,,,,,,,,,,,,,,,,,,,,,,,,,,,,,,,,,,,,,,,,,,,,,,,,,,,,,,,,,,,,,,,,,,,,,,,,,,,,,,,,,,,,,,,,,,,,,,,,,,,,,,,,,,,,,,,,,,,,,,,,,,,3J4E52,train_y,blue_star,top_left,2025-09-13_13h26.49.875,HideSeek_v1,2022.2.5,59.92293904378206,
,,,,,,,,,,,,,,,0,0,0,0,6,0,6,0,,,,,,,,,,,,,,,,,,,,,,,,,,,,,,,conditions/schedules/train_y_first/blue_star_00/top_left/instructions/Slide7.png,conditions/schedules/train_y_first/blue_star_00/top_left/instructions/Audio7.wav,565.5236051999964,565.5241512998938,7,"[5.295939399860799, 19.950036500114948, 18.80834210012108, 18.802883099997416, 4.206643499899656, 5.8311767999548465, 5.670649699866772]","[0.00022210017777979374, 0.00033840001560747623, 18.80834889994003, 0.013933700043708086, 0.01443239999935031, 0.04996409988962114, 5.67065649991855]",0,,,,,,,,,,,,,,,,,,,,,,,,,,,,,,,,,,,,,,,,,,,,,,,,,,,,,,,,,,,,,,,,,,,,,,,,,,,,,,,,,,,,,,,,,,,,,,,,,,,,,,,,,,,,,,,,,,,,,,,,,,,,3J4E52,train_y,blue_star,top_left,2025-09-13_13h26.49.875,HideSeek_v1,2022.2.5,59.92293904378206,
,,,,,,,,,,,,,,,0,0,0,0,7,0,7,0,,,,,,,,,,,,,,,,,,,,,,,,,,,,,,,conditions/schedules/train_y_first/blue_star_00/top_left/instructions/Slide8.png,conditions/schedules/train_y_first/blue_star_00/top_left/instructions/Audio8.wav,571.2460840998683,571.245569299953,8,"[5.295939399860799, 19.950036500114948, 18.80834210012108, 18.802883099997416, 4.206643499899656, 5.8311767999548465, 5.670649699866772, 12.10685330000706]","[0.00022210017777979374, 0.00033840001560747623, 18.80834889994003, 0.013933700043708086, 0.01443239999935031, 0.04996409988962114, 0.00021959980949759483, 12.106860199943185]",0,,,,,,,,,,,,,,,,,,,,,,,,,,,,,,,,,,,,,,,,,,,,,,,,,,,,,,,,,,,,,,,,,,,,,,,,,,,,,,,,,,,,,,,,,,,,,,,,,,,,,,,,,,,,,,,,,,,,,,,,,,,,3J4E52,train_y,blue_star,top_left,2025-09-13_13h26.49.875,HideSeek_v1,2022.2.5,59.92293904378206,
,,,,,,,,,,,,,,,0,0,0,0,8,0,8,0,,,,,,,,,,,,,,,,,,,,,,,,,,,,,,,conditions/schedules/train_y_first/blue_star_00/top_left/instructions/Slide9.png,conditions/schedules/train_y_first/blue_star_00/top_left/instructions/Audio9.wav,583.4196005999111,583.4055756999179,9,"[5.295939399860799, 19.950036500114948, 18.80834210012108, 18.802883099997416, 4.206643499899656, 5.8311767999548465, 5.670649699866772, 12.10685330000706, 6.839822999900207]","[0.00022210017777979374, 0.00033840001560747623, 18.80834889994003, 0.013933700043708086, 0.01443239999935031, 0.04996409988962114, 0.00021959980949759483, 0.0002866999711841345, 6.839830199955031]",0,,,,,,,,,,,,,,,,,,,,,,,,,,,,,,,,,,,,,,,,,,,,,,,,,,,,,,,,,,,,,,,,,,,,,,,,,,,,,,,,,,,,,,,,,,,,,,,,,,,,,,,,,,,,,,,,,,,,,,,,,,,,3J4E52,train_y,blue_star,top_left,2025-09-13_13h26.49.875,HideSeek_v1,2022.2.5,59.92293904378206,
,,,,,,,,,,,,,,,0,0,0,0,9,0,9,0,,,,,,,,,,,,,,,,,,,,,,,,,,,,,,,conditions/schedules/train_y_first/blue_star_00/top_left/instructions/Slide10.png,conditions/schedules/train_y_first/blue_star_00/top_left/instructions/Audio10.wav,590.3109718000051,590.3114598000421,10,"[5.295939399860799, 19.950036500114948, 18.80834210012108, 18.802883099997416, 4.206643499899656, 5.8311767999548465, 5.670649699866772, 12.10685330000706, 6.839822999900207, 6.937054400099441]","[0.00022210017777979374, 0.00033840001560747623, 18.80834889994003, 0.013933700043708086, 0.01443239999935031, 0.04996409988962114, 0.00021959980949759483, 0.0002866999711841345, 0.00022529996931552887, 6.937061399919912]",0,,,,,,,,,,,,,,,,,,,,,,,,,,,,,,,,,,,,,,,,,,,,,,,,,,,,,,,,,,,,,,,,,,,,,,,,,,,,,,,,,,,,,,,,,,,,,,,,,,,,,,,,,,,,,,,,,,,,,,,,,,,,3J4E52,train_y,blue_star,top_left,2025-09-13_13h26.49.875,HideSeek_v1,2022.2.5,59.92293904378206,
,,,,,,,,,,,,,,,0,0,0,0,10,0,10,0,,,,,,,,,,,,,,,,,,,,,,,,,,,,,,,conditions/schedules/train_y_first/blue_star_00/top_left/instructions/Slide11.png,conditions/schedules/train_y_first/blue_star_00/top_left/instructions/Audio11.wav,597.28679189994,597.283915149956,11,"[5.295939399860799, 19.950036500114948, 18.80834210012108, 18.802883099997416, 4.206643499899656, 5.8311767999548465, 5.670649699866772, 12.10685330000706, 6.839822999900207, 6.937054400099441, 10.469714100006968]","[0.00022210017777979374, 0.00033840001560747623, 18.80834889994003, 0.013933700043708086, 0.01443239999935031, 0.04996409988962114, 0.00021959980949759483, 0.0002866999711841345, 0.00022529996931552887, 0.030287900008261204, 10.4697208001744]",0,,,,,,,,,,,,,,,,,,,,,,,,,,,,,,,,,,,,,,,,,,,,,,,,,,,,,,,,,,,,,,,,,,,,,,,,,,,,,,,,,,,,,,,,,,,,,,,,,,,,,,,,,,,,,,,,,,,,,,,,,,,,3J4E52,train_y,blue_star,top_left,2025-09-13_13h26.49.875,HideSeek_v1,2022.2.5,59.92293904378206,
,,,,,,,,,,,,,,,0,0,0,0,11,0,11,0,,,,,,,,,,,,,,,,,,,,,,,,,,,,,,,conditions/schedules/train_y_first/blue_star_00/top_left/instructions/Slide12.png,conditions/schedules/train_y_first/blue_star_00/top_left/instructions/Audio12.wav,607.8248550000135,607.8257882500766,12,"[5.295939399860799, 19.950036500114948, 18.80834210012108, 18.802883099997416, 4.206643499899656, 5.8311767999548465, 5.670649699866772, 12.10685330000706, 6.839822999900207, 6.937054400099441, 10.469714100006968, 14.109909100225195]","[0.00022210017777979374, 0.00033840001560747623, 18.80834889994003, 0.013933700043708086, 0.01443239999935031, 0.04996409988962114, 0.00021959980949759483, 0.0002866999711841345, 0.00022529996931552887, 0.030287900008261204, 0.00021580001339316368, 14.109915900044143]",0,,,,,,,,,,,,,,,,,,,,,,,,,,,,,,,,,,,,,,,,,,,,,,,,,,,,,,,,,,,,,,,,,,,,,,,,,,,,,,,,,,,,,,,,,,,,,,,,,,,,,,,,,,,,,,,,,,,,,,,,,,,,3J4E52,train_y,blue_star,top_left,2025-09-13_13h26.49.875,HideSeek_v1,2022.2.5,59.92293904378206,
1,0,8,0,3,0,-5,66,2,instr_dim1_1,,,,,,0,0,0,0,,,,,0,0,0,0,,,,,,,,,,,,,,,,,,,,,,,,,,,,,,,,,,,,,stimuli/alien_stimuli/66.png,conditions/schedules/train_y_first/blue_star_00/top_left/inputInstr_1.xlsx,stimuli/alien_stimuli/66.png,622.0389696999919,622.0389696999919,622.0389696999919,622.0389696999919,622.037580549973,return,8.78362699993886,"[-0.16, -0.08, 0, 0.08, 0.16, 0.24, 0.32, 0.4, 0.48, 0.56]","[-0.4, -0.32, -0.24, -0.16, -0.08, 0, 0.08, 0.16, 0.24, 0.32]",3,8,0,0,0.4,0.0,630.9617705999408,630.9617705999408,630.9617705999408,630.9617705999408,630.9617705999408,630.9617705999408,630.9617705999408,630.9447973501169,9.459027600008994,return,9.32178040011786,stimuli/alien_stimuli/66.png,66,0,1,,,,,,,,,,,,,,,,,,,,,,,,,,,,,,,,,,,,,,,,,,,,,,,,,,,,,,,,,,,,,,,,,,,,,,,,,,,,,,,,,,,,,,,,,3J4E52,train_y,blue_star,top_left,2025-09-13_13h26.49.875,HideSeek_v1,2022.2.5,59.92293904378206,
,,,,,,,,,,,30,,,,0,0,0,0,,,,,,,,,,,,,,,,,,,,,,,,,,,,,,,,,,,,,,,,,,,,,,,,,,,,,,,,,,,,,,,,,,,,,,,,,,,,,,21,0.7,0,0,99,1,30,0,conditions/schedules/train_y_first/blue_star_00/top_left/inputTrain_1.1.xlsx,99,1,1,1,0,,,,,,,,,,,,,,,,,,,,,,,,,,,,,,,,,,,,,,,,,,,,,,,,,,,,,,,,,,,,,,,,,,,,,,,,,,,3J4E52,train_y,blue_star,top_left,2025-09-13_13h26.49.875,HideSeek_v1,2022.2.5,59.92293904378206,
,,,,,,,,,,,,,,,1,0,1,0,0,0,0,0,,,,,,,,,,,,,,,,,,,,,,,,,,,,,,,conditions/schedules/train_y_first/blue_star_00/top_left/instructions/Slide13.png,conditions/schedules/train_y_first/blue_star_00/top_left/instructions/Audio13.wav,640.4329687999561,640.4193880000151,13,"[5.295939399860799, 19.950036500114948, 18.80834210012108, 18.802883099997416, 4.206643499899656, 5.8311767999548465, 5.670649699866772, 12.10685330000706, 6.839822999900207, 6.937054400099441, 10.469714100006968, 14.109909100225195, 17.232306600082666]","[0.00022210017777979374, 0.00033840001560747623, 18.80834889994003, 0.013933700043708086, 0.01443239999935031, 0.04996409988962114, 0.00021959980949759483, 0.0002866999711841345, 0.00022529996931552887, 0.030287900008261204, 0.00021580001339316368, 14.109915900044143, 17.232314500026405]",0,,,,,,,,,,,,,,,,,,,,,,,,,,,,,,,,,,,,,,,,,,,,,,,,,,,,,,,,,,,,,,,,,,,,,,,,,,,,,,,,,,,,,,,,,,,,,,,,,,,,,,,,,,,,,,,,,,,,,,,,,,,,3J4E52,train_y,blue_star,top_left,2025-09-13_13h26.49.875,HideSeek_v1,2022.2.5,59.92293904378206,
,,,,,,,,,,,,,,,1,0,1,0,1,0,1,0,,,,,,,,,,,,,,,,,,,,,,,,,,,,,,,conditions/schedules/train_y_first/blue_star_00/top_left/instructions/Slide14.png,conditions/schedules/train_y_first/blue_star_00/top_left/instructions/Audio14.wav,657.7407263999339,657.7338260499528,14,"[5.295939399860799, 19.950036500114948, 18.80834210012108, 18.802883099997416, 4.206643499899656, 5.8311767999548465, 5.670649699866772, 12.10685330000706, 6.839822999900207, 6.937054400099441, 10.469714100006968, 14.109909100225195, 17.232306600082666, 16.354437500005588]","[0.00022210017777979374, 0.00033840001560747623, 18.80834889994003, 0.013933700043708086, 0.01443239999935031, 0.04996409988962114, 0.00021959980949759483, 0.0002866999711841345, 0.00022529996931552887, 0.030287900008261204, 0.00021580001339316368, 14.109915900044143, 17.232314500026405, 16.354444899829105]",0,,,,,,,,,,,,,,,,,,,,,,,,,,,,,,,,,,,,,,,,,,,,,,,,,,,,,,,,,,,,,,,,,,,,,,,,,,,,,,,,,,,,,,,,,,,,,,,,,,,,,,,,,,,,,,,,,,,,,,,,,,,,3J4E52,train_y,blue_star,top_left,2025-09-13_13h26.49.875,HideSeek_v1,2022.2.5,59.92293904378206,
2,2,8,2,8,0,0,61,2,instr_dim1_1,,,,,,1,0,1,0,,,,,0,0,0,0,,,,,,,,,,,,,,,,,,,,,,,,,,,,,,,,,,,,,stimuli/alien_stimuli/61.png,conditions/schedules/train_y_first/blue_star_00/top_left/inputInstr_1.xlsx,stimuli/alien_stimuli/61.png,674.1911456999369,674.1911456999369,674.1911456999369,674.1911456999369,674.1809106000699,return,3.0342624001204967,"[-0.16, -0.08, 0, 0.08, 0.16, 0.24, 0.32, 0.4, 0.48, 0.56]","[-0.4, -0.32, -0.24, -0.16, -0.08, 0, 0.08, 0.16, 0.24, 0.32]",8,8,2,2,0.0,0.0,677.3696087999269,677.3696087999269,677.3696087999269,677.3696087999269,677.3696087999269,677.3696087999269,677.3696087999269,677.3666498999577,9.158391600009054,return,9.014871400082484,stimuli/alien_stimuli/61.png,61,2,2,,,,,,,,,,,,,,,,,,,,,,,,,,,,,,,,,,,,,,,,,,,,,,,,,,,,,,,,,,,,,,,,,,,,,,,,,,,,,,,,,,,,,,,,,3J4E52,train_y,blue_star,top_left,2025-09-13_13h26.49.875,HideSeek_v1,2022.2.5,59.92293904378206,
,,,,,,,,,,,30,,,,1,0,1,0,,,,,,,,,,,,,,,,,,,,,,,,,,,,,,,,,,,,,,,,,,,,,,,,,,,,,,,,,,,,,,,,,,,,,,,,,,,,,,21,0.7,0,0,99,1,30,0,conditions/schedules/train_y_first/blue_star_00/top_left/inputTrain_1.1.xlsx,99,1,1,1,0,,,,,,,,,,,,,,,,,,,,,,,,,,,,,,,,,,,,,,,,,,,,,,,,,,,,,,,,,,,,,,,,,,,,,,,,,,,3J4E52,train_y,blue_star,top_left,2025-09-13_13h26.49.875,HideSeek_v1,2022.2.5,59.92293904378206,
,,,,,,,,,,,,,,,2,0,2,0,0,0,0,0,,,,,,,,,,,,,,,,,,,,,,,,,,,,,,,conditions/schedules/train_y_first/blue_star_00/top_left/instructions/Slide15.png,conditions/schedules/train_y_first/blue_star_00/top_left/instructions/Audio15.wav,686.5848152998369,686.5741285500815,15,"[5.295939399860799, 19.950036500114948, 18.80834210012108, 18.802883099997416, 4.206643499899656, 5.8311767999548465, 5.670649699866772, 12.10685330000706, 6.839822999900207, 6.937054400099441, 10.469714100006968, 14.109909100225195, 17.232306600082666, 16.354437500005588, 42.872718799859285]","[0.00022210017777979374, 0.00033840001560747623, 18.80834889994003, 0.013933700043708086, 0.01443239999935031, 0.04996409988962114, 0.00021959980949759483, 0.0002866999711841345, 0.00022529996931552887, 0.030287900008261204, 0.00021580001339316368, 14.109915900044143, 17.232314500026405, 16.354444899829105, 42.87272589979693]",0,,,,,,,,,,,,,,,,,,,,,,,,,,,,,,,,,,,,,,,,,,,,,,,,,,,,,,,,,,,,,,,,,,,,,,,,,,,,,,,,,,,,,,,,,,,,,,,,,,,,,,,,,,,,,,,,,,,,,,,,,,,,3J4E52,train_y,blue_star,top_left,2025-09-13_13h26.49.875,HideSeek_v1,2022.2.5,59.92293904378206,
,,,,,,,,,,,,,,,2,0,2,0,1,0,1,0,,,,,,,,,,,,,,,,,,,,,,,,,,,,,,,conditions/schedules/train_y_first/blue_star_00/top_left/instructions/Slide16.png,conditions/schedules/train_y_first/blue_star_00/top_left/instructions/Audio16.wav,729.5332764999475,729.5267755499808,16,"[5.295939399860799, 19.950036500114948, 18.80834210012108, 18.802883099997416, 4.206643499899656, 5.8311767999548465, 5.670649699866772, 12.10685330000706, 6.839822999900207, 6.937054400099441, 10.469714100006968, 14.109909100225195, 17.232306600082666, 16.354437500005588, 42.872718799859285, 220.40737549983896]","[0.00022210017777979374, 0.00033840001560747623, 18.80834889994003, 0.013933700043708086, 0.01443239999935031, 0.04996409988962114, 0.00021959980949759483, 0.0002866999711841345, 0.00022529996931552887, 0.030287900008261204, 0.00021580001339316368, 14.109915900044143, 17.232314500026405, 16.354444899829105, 0.00020759995095431805, 220.40738639980555]",0,,,,,,,,,,,,,,,,,,,,,,,,,,,,,,,,,,,,,,,,,,,,,,,,,,,,,,,,,,,,,,,,,,,,,,,,,,,,,,,,,,,,,,,,,,,,,,,,,,,,,,,,,,,,,,,,,,,,,,,,,,,,3J4E52,train_y,blue_star,top_left,2025-09-13_13h26.49.875,HideSeek_v1,2022.2.5,59.92293904378206,
,0,5,0,1,0,-4,65,,train_dim1_1,1,30,,,,2,0,2,0,,,,,,,,,0,0,0,0,0,0,0,0,0,0,0,0,,,,,,,,,,,,,,,,,,,,,,,,,stimuli/alien_stimuli/65.png,,,,,,,,,,,,,,,,,,,,,,,,,,,,,,,,,,,,,,,30,,,,,,,,950.0448711998761,950.0448711998761,950.0448711998761,950.0448711998761,950.0448711998761,right,8.976197500014678,0,0,0,99,-0.08,0,right,8.874179600039497,,,,,,,,,,,,,,,,,,,,,,,,,,,,,,,,,,,,,,,,,,,,,,,,,,,,,,,,,,,,3J4E52,train_y,blue_star,top_left,2025-09-13_13h26.49.875,HideSeek_v1,2022.2.5,59.92293904378206,
,0,5,0,1,0,-4,65,,train_dim1_1,1,30,,,,2,0,2,0,,,,,,,,,0,0,0,0,0,0,0,0,1,0,1,0,,,,,,,,,,,,,,,,,,,,,,,,,,,,,,,,,,,,,,,,,,,,,,,,,,,,,,,,,,,,,,,,30,,,,,,,,959.0140555999242,959.0140555999242,959.0140555999242,959.0140555999242,959.0140555999242,right,0.8936945998575538,0,0,0,99,0.0,0,right,0.8153271002229303,,,,,,,,,,,,,,,,,,,,,,,,,,,,,,,,,,,,,,,,,,,,,,,,,,,,,,,,,,,,3J4E52,train_y,blue_star,top_left,2025-09-13_13h26.49.875,HideSeek_v1,2022.2.5,59.92293904378206,
,0,5,0,1,0,-4,65,,train_dim1_1,1,30,,,,2,0,2,0,,,,,,,,,0,0,0,0,0,0,0,0,2,0,2,0,,,,,,,,,,,,,,,,,,,,,,,,,,,,,,,,,,,,,,,,,,,,,,,,,,,,,,,,,,,,,,,,30,,,,,,,,959.9144243998453,959.9144243998453,959.9144243998453,959.9144243998453,959.9144243998453,down,2.2946460000239313,0,0,0,99,0.0,-0.08,down,2.2092447001487017,,,,,,,,,,,,,,,,,,,,,,,,,,,,,,,,,,,,,,,,,,,,,,,,,,,,,,,,,,,,3J4E52,train_y,blue_star,top_left,2025-09-13_13h26.49.875,HideSeek_v1,2022.2.5,59.92293904378206,
,0,5,0,1,0,-4,65,,train_dim1_1,1,30,,,,2,0,2,0,,,,,,,,,0,0,0,0,0,0,0,0,3,0,3,0,,,,,,,,,,,,,,,,,,,,,,,,,,,,,,,,,,,,,,,,,,,,,,,,,,,,,,,,,,,,,,,,30,,,,,,,,962.2165003998671,962.2165003998671,962.2165003998671,962.2165003998671,962.2165003998671,down,0.7939649999607354,0,0,0,99,0.0,-0.16,down,0.7205285001546144,,,,,,,,,,,,,,,,,,,,,,,,,,,,,,,,,,,,,,,,,,,,,,,,,,,,,,,,,,,,3J4E52,train_y,blue_star,top_left,2025-09-13_13h26.49.875,HideSeek_v1,2022.2.5,59.92293904378206,
,0,5,0,1,0,-4,65,,train_dim1_1,1,30,,,,2,0,2,0,,,,,,,,,0,0,0,0,0,0,0,0,4,0,4,0,,,,,,,,,,,,,,,,,,,,,,,,,,,,,,,,,,,,,,,,,,,,,,,,,,,,,,,,,,,,,,,,30,,,,,,,,963.0165295999032,963.0165295999032,963.0165295999032,963.0165295999032,963.0165295999032,right,3.762449000030756,0,0,0,99,0.08,-0.16,right,3.6872459000442177,,,,,,,,,,,,,,,,,,,,,,,,,,,,,,,,,,,,,,,,,,,,,,,,,,,,,,,,,,,,3J4E52,train_y,blue_star,top_left,2025-09-13_13h26.49.875,HideSeek_v1,2022.2.5,59.92293904378206,
,0,5,0,1,0,-4,65,,train_dim1_1,1,30,,,,2,0,2,0,,,,,,,,,0,0,0,0,0,0,0,0,5,0,5,0,,,,,,,,,,,,,,,,,,,,,,,,,,,,,,,,,,,,,,,,,,,,,,,,,,,,,,,,,,,,,,,,30,,,,,,,,966.7896896998864,966.7896896998864,966.7896896998864,966.7896896998864,966.7896896998864,right,0.7742848000489175,0,0,0,99,0.16,-0.16,right,0.693707900121808,,,,,,,,,,,,,,,,,,,,,,,,,,,,,,,,,,,,,,,,,,,,,,,,,,,,,,,,,,,,3J4E52,train_y,blue_star,top_left,2025-09-13_13h26.49.875,HideSeek_v1,2022.2.5,59.92293904378206,
,0,5,0,1,0,-4,65,,train_dim1_1,1,30,,,,2,0,2,0,,,,,,,,,0,0,0,0,0,0,0,0,6,0,6,0,,,,,,,,,,,,,,,,,,,,,,,,,,,,,,,,,,,,,,,,,,,,,,,,,,,,,,,,,,,,,,,,30,,,,,,,,967.5705893998966,967.5705893998966,967.5705893998966,967.5705893998966,967.5705893998966,up,1.2438376999925822,0,0,0,99,0.16,-0.08,up,1.1693516001105309,,,,,,,,,,,,,,,,,,,,,,,,,,,,,,,,,,,,,,,,,,,,,,,,,,,,,,,,,,,,3J4E52,train_y,blue_star,top_left,2025-09-13_13h26.49.875,HideSeek_v1,2022.2.5,59.92293904378206,
,0,5,0,1,0,-4,65,,train_dim1_1,1,30,,,,2,0,2,0,,,,,,,,,0,0,0,0,0,0,0,0,7,0,7,0,,,,,,,,,,,,,,,,,,,,,,,,,,,,,,,,,,,,,,,,,,,,,,,,,,,,,,,,,,,,,,,,30,,,,,,,,968.8220019999426,968.8220019999426,968.8220019999426,968.8220019999426,968.8220019999426,up,0.9105167000088841,0,0,0,99,0.16,0.0,up,0.8300741002894938,,,,,,,,,,,,,,,,,,,,,,,,,,,,,,,,,,,,,,,,,,,,,,,,,,,,,,,,,,,,3J4E52,train_y,blue_star,top_left,2025-09-13_13h26.49.875,HideSeek_v1,2022.2.5,59.92293904378206,
,0,5,0,1,0,-4,65,,train_dim1_1,1,30,,,,2,0,2,0,,,,,,,,,0,0,0,0,0,0,0,0,8,0,8,0,,,,,,,,,,,,,,,,,,,,,,,,,,,,,,,,,,,,,,,,,,,,,,,,,,,,,,,,,,,,,,,,30,,,,,,,,969.7424472998828,969.7424472998828,969.7424472998828,969.7424472998828,969.7424472998828,up,0.7422146999742836,0,0,0,99,0.16,0.08,up,0.6589855002239347,,,,,,,,,,,,,,,,,,,,,,,,,,,,,,,,,,,,,,,,,,,,,,,,,,,,,,,,,,,,3J4E52,train_y,blue_star,top_left,2025-09-13_13h26.49.875,HideSeek_v1,2022.2.5,59.92293904378206,
,0,5,0,1,0,-4,65,,train_dim1_1,1,30,,,,2,0,2,0,,,,,,,,,0,0,0,0,0,0,0,0,9,0,9,0,,,,,,,,,,,,,,,,,,,,,,,,,,,,,,,,,,,,,,,,,,,,,,,,,,,,,,,,,,,,,,,,30,,,,,,,,970.4957941998728,970.4957941998728,970.4957941998728,970.4957941998728,970.4957941998728,left,1.6944801998324692,0,0,0,99,0.08,0.08,left,1.6086461001541466,,,,,,,,,,,,,,,,,,,,,,,,,,,,,,,,,,,,,,,,,,,,,,,,,,,,,,,,,,,,3J4E52,train_y,blue_star,top_left,2025-09-13_13h26.49.875,HideSeek_v1,2022.2.5,59.92293904378206,
,0,5,0,1,0,-4,65,,train_dim1_1,1,30,,,,2,0,2,0,,,,,,,,,0,0,0,0,0,0,0,0,10,0,10,0,,,,,,,,,,,,,,,,,,,,,,,,,,,,,,,,,,,,,,,,,,,,,,,,,,,,,,,,,,,,,,,,30,,,,,,,,972.1913508998696,972.1913508998696,972.1913508998696,972.1913508998696,972.1913508998696,left,0.6268591000698507,0,0,0,99,0.0,0.08,left,0.547488700132817,,,,,,,,,,,,,,,,,,,,,,,,,,,,,,,,,,,,,,,,,,,,,,,,,,,,,,,,,,,,3J4E52,train_y,blue_star,top_left,2025-09-13_13h26.49.875,HideSeek_v1,2022.2.5,59.92293904378206,
,0,5,0,1,0,-4,65,,train_dim1_1,1,30,,,,2,0,2,0,,,,,,,,,0,0,0,0,0,0,0,0,11,0,11,0,,,,,,,,,,,,,,,,,,,,,,,,,,,,,,,,,,,,,,,,,,,,,,,,,,,,,,,,,,,,,,,,30,,,,,,,,972.8264490999281,972.8264490999281,972.8264490999281,972.8264490999281,972.8264490999281,return,0.9270310001447797,0,0,0,0,0.0,0.08,return,0.8397201001644135,1,2,0.0,0.08,,,,,,,,,,,,,,,,,,,,,,,,,,,,,,,,,,,,,,,,,,,,,,,,,,,,,,,,3J4E52,train_y,blue_star,top_left,2025-09-13_13h26.49.875,HideSeek_v1,2022.2.5,59.92293904378206,
,3,7,3,2,0,-5,66,,train_dim1_1,2,30,,,,2,0,2,0,,,,,,,,,0,0,0,0,0,1,1,1,0,0,0,0,,,,,,,,,,,,,,,,,,,,,,,,,stimuli/alien_stimuli/66.png,,,,,,,,,,,,,,,,,,,,,,,,,,,,,stimuli/alien_stimuli/65.png,65,0,3,,,,,,,30,,,,,,,,994.1214093000162,994.1214093000162,994.1214093000162,994.1214093000162,994.1214093000162,right,6.611031500156969,0,0,0,99,0.16,0.16,right,6.523828600300476,,,,,992.5617306998465,994.1214093000162,-0.16,-0.32,0.32,0.0,-0.16,-0.16,-0.16,-0.16,-0.32,975.3264398998581,975.3264398998581,975.3264398998581,975.3264398998581,975.3264398998581,975.3264398998581,975.3264398998581,975.3264398998581,975.3137994499643,17.350572400027886,return,17.202953099971637,,,,,,,,,,,,,,,,,,,,,,,,,,,,,,,,,3J4E52,train_y,blue_star,top_left,2025-09-13_13h26.49.875,HideSeek_v1,2022.2.5,59.92293904378206,
,3,7,3,2,0,-5,66,,train_dim1_1,2,30,,,,2,0,2,0,,,,,,,,,0,0,0,0,0,1,1,1,1,0,1,0,,,,,,,,,,,,,,,,,,,,,,,,,,,,,,,,,,,,,,,,,,,,,,,,,,,,,,,,,,,,,,,,30,,,,,,,,1000.7350975999143,1000.7350975999143,1000.7350975999143,1000.7350975999143,1000.7350975999143,right,0.7932999001350254,0,0,0,99,0.24,0.16,right,0.7163066000211984,,,,,,,,,,,,,,,,,,,,,,,,,,,,,,,,,,,,,,,,,,,,,,,,,,,,,,,,,,,,3J4E52,train_y,blue_star,top_left,2025-09-13_13h26.49.875,HideSeek_v1,2022.2.5,59.92293904378206,
,3,7,3,2,0,-5,66,,train_dim1_1,2,30,,,,2,0,2,0,,,,,,,,,0,0,0,0,0,1,1,1,2,0,2,0,,,,,,,,,,,,,,,,,,,,,,,,,,,,,,,,,,,,,,,,,,,,,,,,,,,,,,,,,,,,,,,,30,,,,,,,,1001.5321229998954,1001.5321229998954,1001.5321229998954,1001.5321229998954,1001.5321229998954,down,1.3273203999269754,0,0,0,99,0.24,0.08,down,1.2431985000148416,,,,,,,,,,,,,,,,,,,,,,,,,,,,,,,,,,,,,,,,,,,,,,,,,,,,,,,,,,,,3J4E52,train_y,blue_star,top_left,2025-09-13_13h26.49.875,HideSeek_v1,2022.2.5,59.92293904378206,
,3,7,3,2,0,-5,66,,train_dim1_1,2,30,,,,2,0,2,0,,,,,,,,,0,0,0,0,0,1,1,1,3,0,3,0,,,,,,,,,,,,,,,,,,,,,,,,,,,,,,,,,,,,,,,,,,,,,,,,,,,,,,,,,,,,,,,,30,,,,,,,,1002.8671053999569,1002.8671053999569,1002.8671053999569,1002.8671053999569,1002.8671053999569,down,0.5435951000545174,0,0,0,99,0.24,0.0,down,0.4676375000271946,,,,,,,,,,,,,,,,,,,,,,,,,,,,,,,,,,,,,,,,,,,,,,,,,,,,,,,,,,,,3J4E52,train_y,blue_star,top_left,2025-09-13_13h26.49.875,HideSeek_v1,2022.2.5,59.92293904378206,
,3,7,3,2,0,-5,66,,train_dim1_1,2,30,,,,2,0,2,0,,,,,,,,,0,0,0,0,0,1,1,1,4,0,4,0,,,,,,,,,,,,,,,,,,,,,,,,,,,,,,,,,,,,,,,,,,,,,,,,,,,,,,,,,,,,,,,,30,,,,,,,,1003.4211855998728,1003.4211855998728,1003.4211855998728,1003.4211855998728,1003.4211855998728,left,1.5416679000481963,0,0,0,99,0.15999999999999998,0.0,left,1.465635800268501,,,,,,,,,,,,,,,,,,,,,,,,,,,,,,,,,,,,,,,,,,,,,,,,,,,,,,,,,,,,3J4E52,train_y,blue_star,top_left,2025-09-13_13h26.49.875,HideSeek_v1,2022.2.5,59.92293904378206,
,3,7,3,2,0,-5,66,,train_dim1_1,2,30,,,,2,0,2,0,,,,,,,,,0,0,0,0,0,1,1,1,5,0,5,0,,,,,,,,,,,,,,,,,,,,,,,,,,,,,,,,,,,,,,,,,,,,,,,,,,,,,,,,,,,,,,,,30,,,,,,,,1004.9693849999458,1004.9693849999458,1004.9693849999458,1004.9693849999458,1004.9693849999458,left,0.37666939990594983,0,0,0,99,0.07999999999999997,0.0,left,0.29000410018488765,,,,,,,,,,,,,,,,,,,,,,,,,,,,,,,,,,,,,,,,,,,,,,,,,,,,,,,,,,,,3J4E52,train_y,blue_star,top_left,2025-09-13_13h26.49.875,HideSeek_v1,2022.2.5,59.92293904378206,
,3,7,3,2,0,-5,66,,train_dim1_1,2,30,,,,2,0,2,0,,,,,,,,,0,0,0,0,0,1,1,1,6,0,6,0,,,,,,,,,,,,,,,,,,,,,,,,,,,,,,,,,,,,,,,,,,,,,,,,,,,,,,,,,,,,,,,,30,,,,,,,,1005.3525854998734,1005.3525854998734,1005.3525854998734,1005.3525854998734,1005.3525854998734,return,2.695237600011751,0,0,0,0,0.07999999999999997,0.0,return,2.6093756002373993,-1,2,0.07999999999999997,0.0,,,,,,,,,,,,,,,,,,,,,,,,,,,,,,,,,,,,,,,,,,,,,,,,,,,,,,,,3J4E52,train_y,blue_star,top_left,2025-09-13_13h26.49.875,HideSeek_v1,2022.2.5,59.92293904378206,
,2,8,2,5,0,-3,64,,train_dim1_1,3,30,,,,2,0,2,0,,,,,,,,,0,0,0,0,0,2,2,2,0,0,0,0,,,,,,,,,,,,,,,,,,,,,,,,,stimuli/alien_stimuli/64.png,,,,,,,,,,,,,,,,,,,,,,,,,,,,,stimuli/alien_stimuli/66.png,66,3,4,,,,,,,30,,,,,,,,1024.9526889999397,1024.9526889999397,1024.9526889999397,1024.9526889999397,1024.9526889999397,up,4.860097300028428,0,0,0,99,0,0.32,up,4.76376450015232,,,,,1023.3869554998819,1024.9526889999397,0.08,-0.24,0.4,0.0,-0.039999999999999994,0.08,0.08,0.08,-0.24,1009.6147860998753,1009.6147860998753,1009.6147860998753,1009.6147860998753,1009.6147860998753,1009.6147860998753,1009.6147860998753,1009.6147860998753,1009.6088897499953,13.880607499973848,return,13.748017500154674,,,,,,,,,,,,,,,,,,,,,,,,,,,,,,,,,3J4E52,train_y,blue_star,top_left,2025-09-13_13h26.49.875,HideSeek_v1,2022.2.5,59.92293904378206,
,2,8,2,5,0,-3,64,,train_dim1_1,3,30,,,,2,0,2,0,,,,,,,,,0,0,0,0,0,2,2,2,1,0,1,0,,,,,,,,,,,,,,,,,,,,,,,,,,,,,,,,,,,,,,,,,,,,,,,,,,,,,,,,,,,,,,,,30,,,,,,,,1029.8068564999849,1029.8068564999849,1029.8068564999849,1029.8068564999849,1029.8068564999849,right,1.126745100133121,0,0,0,99,0.08,0.32,right,1.045657800277695,,,,,,,,,,,,,,,,,,,,,,,,,,,,,,,,,,,,,,,,,,,,,,,,,,,,,,,,,,,,3J4E52,train_y,blue_star,top_left,2025-09-13_13h26.49.875,HideSeek_v1,2022.2.5,59.92293904378206,
,2,8,2,5,0,-3,64,,train_dim1_1,3,30,,,,2,0,2,0,,,,,,,,,0,0,0,0,0,2,2,2,2,0,2,0,,,,,,,,,,,,,,,,,,,,,,,,,,,,,,,,,,,,,,,,,,,,,,,,,,,,,,,,,,,,,,,,30,,,,,,,,1030.939272499876,1030.939272499876,1030.939272499876,1030.939272499876,1030.939272499876,right,0.7103582001291215,0,0,0,99,0.16,0.32,right,0.6333300999831408,,,,,,,,,,,,,,,,,,,,,,,,,,,,,,,,,,,,,,,,,,,,,,,,,,,,,,,,,,,,3J4E52,train_y,blue_star,top_left,2025-09-13_13h26.49.875,HideSeek_v1,2022.2.5,59.92293904378206,
,2,8,2,5,0,-3,64,,train_dim1_1,3,30,,,,2,0,2,0,,,,,,,,,0,0,0,0,0,2,2,2,3,0,3,0,,,,,,,,,,,,,,,,,,,,,,,,,,,,,,,,,,,,,,,,,,,,,,,,,,,,,,,,,,,,,,,,30,,,,,,,,1031.6563980998471,1031.6563980998471,1031.6563980998471,1031.6563980998471,1031.6563980998471,down,1.5606102999299765,0,0,0,99,0.16,0.24,down,1.4733031000941992,,,,,,,,,,,,,,,,,,,,,,,,,,,,,,,,,,,,,,,,,,,,,,,,,,,,,,,,,,,,3J4E52,train_y,blue_star,top_left,2025-09-13_13h26.49.875,HideSeek_v1,2022.2.5,59.92293904378206,
,2,8,2,5,0,-3,64,,train_dim1_1,3,30,,,,2,0,2,0,,,,,,,,,0,0,0,0,0,2,2,2,4,0,4,0,,,,,,,,,,,,,,,,,,,,,,,,,,,,,,,,,,,,,,,,,,,,,,,,,,,,,,,,,,,,,,,,30,,,,,,,,1033.2396135998424,1033.2396135998424,1033.2396135998424,1033.2396135998424,1033.2396135998424,down,0.5941700001712888,0,0,0,99,0.16,0.15999999999999998,down,0.4990087002515793,,,,,,,,,,,,,,,,,,,,,,,,,,,,,,,,,,,,,,,,,,,,,,,,,,,,,,,,,,,,3J4E52,train_y,blue_star,top_left,2025-09-13_13h26.49.875,HideSeek_v1,2022.2.5,59.92293904378206,
,2,8,2,5,0,-3,64,,train_dim1_1,3,30,,,,2,0,2,0,,,,,,,,,0,0,0,0,0,2,2,2,5,0,5,0,,,,,,,,,,,,,,,,,,,,,,,,,,,,,,,,,,,,,,,,,,,,,,,,,,,,,,,,,,,,,,,,30,,,,,,,,1033.8263494998682,1033.8263494998682,1033.8263494998682,1033.8263494998682,1033.8263494998682,down,0.5429292998742312,0,0,0,99,0.16,0.07999999999999997,down,0.46201250003650784,,,,,,,,,,,,,,,,,,,,,,,,,,,,,,,,,,,,,,,,,,,,,,,,,,,,,,,,,,,,3J4E52,train_y,blue_star,top_left,2025-09-13_13h26.49.875,HideSeek_v1,2022.2.5,59.92293904378206,
,2,8,2,5,0,-3,64,,train_dim1_1,3,30,,,,2,0,2,0,,,,,,,,,0,0,0,0,0,2,2,2,6,0,6,0,,,,,,,,,,,,,,,,,,,,,,,,,,,,,,,,,,,,,,,,,,,,,,,,,,,,,,,,,,,,,,,,30,,,,,,,,1034.3757853999268,1034.3757853999268,1034.3757853999268,1034.3757853999268,1034.3757853999268,left,2.061281899921596,0,0,0,99,0.08,0.07999999999999997,left,1.9808358000591397,,,,,,,,,,,,,,,,,,,,,,,,,,,,,,,,,,,,,,,,,,,,,,,,,,,,,,,,,,,,3J4E52,train_y,blue_star,top_left,2025-09-13_13h26.49.875,HideSeek_v1,2022.2.5,59.92293904378206,
,2,8,2,5,0,-3,64,,train_dim1_1,3,30,,,,2,0,2,0,,,,,,,,,0,0,0,0,0,2,2,2,7,0,7,0,,,,,,,,,,,,,,,,,,,,,,,,,,,,,,,,,,,,,,,,,,,,,,,,,,,,,,,,,,,,,,,,30,,,,,,,,1036.4459538999945,1036.4459538999945,1036.4459538999945,1036.4459538999945,1036.4459538999945,left,0.9607294001616538,0,0,0,99,0.0,0.07999999999999997,left,0.8756744000129402,,,,,,,,,,,,,,,,,,,,,,,,,,,,,,,,,,,,,,,,,,,,,,,,,,,,,,,,,,,,3J4E52,train_y,blue_star,top_left,2025-09-13_13h26.49.875,HideSeek_v1,2022.2.5,59.92293904378206,
,2,8,2,5,0,-3,64,,train_dim1_1,3,30,,,,2,0,2,0,,,,,,,,,0,0,0,0,0,2,2,2,8,0,8,0,,,,,,,,,,,,,,,,,,,,,,,,,,,,,,,,,,,,,,,,,,,,,,,,,,,,,,,,,,,,,,,,30,,,,,,,,1037.4118470998947,1037.4118470998947,1037.4118470998947,1037.4118470998947,1037.4118470998947,up,2.027755199931562,0,0,0,99,0.0,0.15999999999999998,up,1.9480111999437213,,,,,,,,,,,,,,,,,,,,,,,,,,,,,,,,,,,,,,,,,,,,,,,,,,,,,,,,,,,,3J4E52,train_y,blue_star,top_left,2025-09-13_13h26.49.875,HideSeek_v1,2022.2.5,59.92293904378206,
,2,8,2,5,0,-3,64,,train_dim1_1,3,30,,,,2,0,2,0,,,,,,,,,0,0,0,0,0,2,2,2,9,0,9,0,,,,,,,,,,,,,,,,,,,,,,,,,,,,,,,,,,,,,,,,,,,,,,,,,,,,,,,,,,,,,,,,30,,,,,,,,1039.4473256999627,1039.4473256999627,1039.4473256999627,1039.4473256999627,1039.4473256999627,return,1.3775464999489486,0,0,0,0,0.0,0.15999999999999998,return,1.3035286001395434,-2,2,0.0,0.15999999999999998,,,,,,,,,,,,,,,,,,,,,,,,,,,,,,,,,,,,,,,,,,,,,,,,,,,,,,,,3J4E52,train_y,blue_star,top_left,2025-09-13_13h26.49.875,HideSeek_v1,2022.2.5,59.92293904378206,
,0,6,0,5,0,-1,62,,train_dim1_1,4,30,,,,2,0,2,0,,,,,,,,,0,0,0,0,0,3,3,3,0,0,0,0,,,,,,,,,,,,,,,,,,,,,,,,,stimuli/alien_stimuli/62.png,,,,,,,,,,,,,,,,,,,,,,,,,,,,,stimuli/alien_stimuli/64.png,64,2,5,,,,,,,30,,,,,,,,1050.9443025998771,1050.9443025998771,1050.9443025998771,1050.9443025998771,1050.9443025998771,left,2.474253399996087,0,0,0,99,-0.24,0.08,left,2.3976730001159012,,,,,1049.3919893999118,1050.9443025998771,0,0,0.24,0.0,0.12,0,0.0,0,0,1042.3904822999611,1042.3904822999611,1042.3904822999611,1042.3904822999611,1042.3904822999611,1042.3904822999611,1042.3904822999611,1042.3904822999611,1042.3862609500297,7.108109700027853,return,6.973357600159943,,,,,,,,,,,,,,,,,,,,,,,,,,,,,,,,,3J4E52,train_y,blue_star,top_left,2025-09-13_13h26.49.875,HideSeek_v1,2022.2.5,59.92293904378206,
,0,6,0,5,0,-1,62,,train_dim1_1,4,30,,,,2,0,2,0,,,,,,,,,0,0,0,0,0,3,3,3,1,0,1,0,,,,,,,,,,,,,,,,,,,,,,,,,,,,,,,,,,,,,,,,,,,,,,,,,,,,,,,,,,,,,,,,30,,,,,,,,1053.425213799812,1053.425213799812,1053.425213799812,1053.425213799812,1053.425213799812,right,2.1109875000547618,0,0,0,99,-0.15999999999999998,0.08,right,2.0396131000015885,,,,,,,,,,,,,,,,,,,,,,,,,,,,,,,,,,,,,,,,,,,,,,,,,,,,,,,,,,,,3J4E52,train_y,blue_star,top_left,2025-09-13_13h26.49.875,HideSeek_v1,2022.2.5,59.92293904378206,
,0,6,0,5,0,-1,62,,train_dim1_1,4,30,,,,2,0,2,0,,,,,,,,,0,0,0,0,0,3,3,3,2,0,2,0,,,,,,,,,,,,,,,,,,,,,,,,,,,,,,,,,,,,,,,,,,,,,,,,,,,,,,,,,,,,,,,,30,,,,,,,,1055.5437693998683,1055.5437693998683,1055.5437693998683,1055.5437693998683,1055.5437693998683,right,1.3108620999846607,0,0,0,99,-0.07999999999999997,0.08,right,1.228025000076741,,,,,,,,,,,,,,,,,,,,,,,,,,,,,,,,,,,,,,,,,,,,,,,,,,,,,,,,,,,,3J4E52,train_y,blue_star,top_left,2025-09-13_13h26.49.875,HideSeek_v1,2022.2.5,59.92293904378206,
,0,6,0,5,0,-1,62,,train_dim1_1,4,30,,,,2,0,2,0,,,,,,,,,0,0,0,0,0,3,3,3,3,0,3,0,,,,,,,,,,,,,,,,,,,,,,,,,,,,,,,,,,,,,,,,,,,,,,,,,,,,,,,,,,,,,,,,30,,,,,,,,1056.8620496999938,1056.8620496999938,1056.8620496999938,1056.8620496999938,1056.8620496999938,right,1.127286700066179,0,0,0,99,2.7755575615628914e-17,0.08,right,1.044898700201884,,,,,,,,,,,,,,,,,,,,,,,,,,,,,,,,,,,,,,,,,,,,,,,,,,,,,,,,,,,,3J4E52,train_y,blue_star,top_left,2025-09-13_13h26.49.875,HideSeek_v1,2022.2.5,59.92293904378206,
,0,6,0,5,0,-1,62,,train_dim1_1,4,30,,,,2,0,2,0,,,,,,,,,0,0,0,0,0,3,3,3,4,0,4,0,,,,,,,,,,,,,,,,,,,,,,,,,,,,,,,,,,,,,,,,,,,,,,,,,,,,,,,,,,,,,,,,30,,,,,,,,1057.9961273998488,1057.9961273998488,1057.9961273998488,1057.9961273998488,1057.9961273998488,down,1.5440167000051588,0,0,0,99,2.7755575615628914e-17,0.0,down,1.4635491000954062,,,,,,,,,,,,,,,,,,,,,,,,,,,,,,,,,,,,,,,,,,,,,,,,,,,,,,,,,,,,3J4E52,train_y,blue_star,top_left,2025-09-13_13h26.49.875,HideSeek_v1,2022.2.5,59.92293904378206,
,0,6,0,5,0,-1,62,,train_dim1_1,4,30,,,,2,0,2,0,,,,,,,,,0,0,0,0,0,3,3,3,5,0,5,0,,,,,,,,,,,,,,,,,,,,,,,,,,,,,,,,,,,,,,,,,,,,,,,,,,,,,,,,,,,,,,,,30,,,,,,,,1059.5478095998988,1059.5478095998988,1059.5478095998988,1059.5478095998988,1059.5478095998988,down,0.6601156999822706,0,0,0,99,2.7755575615628914e-17,-0.08,down,0.579017800046131,,,,,,,,,,,,,,,,,,,,,,,,,,,,,,,,,,,,,,,,,,,,,,,,,,,,,,,,,,,,3J4E52,train_y,blue_star,top_left,2025-09-13_13h26.49.875,HideSeek_v1,2022.2.5,59.92293904378206,
,0,6,0,5,0,-1,62,,train_dim1_1,4,30,,,,2,0,2,0,,,,,,,,,0,0,0,0,0,3,3,3,6,0,6,0,,,,,,,,,,,,,,,,,,,,,,,,,,,,,,,,,,,,,,,,,,,,,,,,,,,,,,,,,,,,,,,,30,,,,,,,,1060.2143619998824,1060.2143619998824,1060.2143619998824,1060.2143619998824,1060.2143619998824,left,1.8612887000199407,0,0,0,99,-0.07999999999999997,-0.08,left,1.783140600193292,,,,,,,,,,,,,,,,,,,,,,,,,,,,,,,,,,,,,,,,,,,,,,,,,,,,,,,,,,,,3J4E52,train_y,blue_star,top_left,2025-09-13_13h26.49.875,HideSeek_v1,2022.2.5,59.92293904378206,
,0,6,0,5,0,-1,62,,train_dim1_1,4,30,,,,2,0,2,0,,,,,,,,,0,0,0,0,0,3,3,3,7,0,7,0,,,,,,,,,,,,,,,,,,,,,,,,,,,,,,,,,,,,,,,,,,,,,,,,,,,,,,,,,,,,,,,,30,,,,,,,,1062.0829113000073,1062.0829113000073,1062.0829113000073,1062.0829113000073,1062.0829113000073,left,0.6932711999397725,0,0,0,99,-0.15999999999999998,-0.08,left,0.6197757001500577,,,,,,,,,,,,,,,,,,,,,,,,,,,,,,,,,,,,,,,,,,,,,,,,,,,,,,,,,,,,3J4E52,train_y,blue_star,top_left,2025-09-13_13h26.49.875,HideSeek_v1,2022.2.5,59.92293904378206,
,0,6,0,5,0,-1,62,,train_dim1_1,4,30,,,,2,0,2,0,,,,,,,,,0,0,0,0,0,3,3,3,8,0,8,0,,,,,,,,,,,,,,,,,,,,,,,,,,,,,,,,,,,,,,,,,,,,,,,,,,,,,,,,,,,,,,,,30,,,,,,,,1062.7838274999522,1062.7838274999522,1062.7838274999522,1062.7838274999522,1062.7838274999522,down,0.7603156000841409,0,0,0,99,-0.15999999999999998,-0.16,down,0.6762779001146555,,,,,,,,,,,,,,,,,,,,,,,,,,,,,,,,,,,,,,,,,,,,,,,,,,,,,,,,,,,,3J4E52,train_y,blue_star,top_left,2025-09-13_13h26.49.875,HideSeek_v1,2022.2.5,59.92293904378206,
,0,6,0,5,0,-1,62,,train_dim1_1,4,30,,,,2,0,2,0,,,,,,,,,0,0,0,0,0,3,3,3,9,0,9,0,,,,,,,,,,,,,,,,,,,,,,,,,,,,,,,,,,,,,,,,,,,,,,,,,,,,,,,,,,,,,,,,30,,,,,,,,1063.5498831998557,1063.5498831998557,1063.5498831998557,1063.5498831998557,1063.5498831998557,down,0.5434589001815766,0,0,0,99,-0.15999999999999998,-0.24,down,0.46276809996925294,,,,,,,,,,,,,,,,,,,,,,,,,,,,,,,,,,,,,,,,,,,,,,,,,,,,,,,,,,,,3J4E52,train_y,blue_star,top_left,2025-09-13_13h26.49.875,HideSeek_v1,2022.2.5,59.92293904378206,
,0,6,0,5,0,-1,62,,train_dim1_1,4,30,,,,2,0,2,0,,,,,,,,,0,0,0,0,0,3,3,3,10,0,10,0,,,,,,,,,,,,,,,,,,,,,,,,,,,,,,,,,,,,,,,,,,,,,,,,,,,,,,,,,,,,,,,,30,,,,,,,,1064.101548400009,1064.101548400009,1064.101548400009,1064.101548400009,1064.101548400009,down,0.7266814999748021,0,0,0,99,-0.15999999999999998,-0.32,down,0.6434040002059191,,,,,,,,,,,,,,,,,,,,,,,,,,,,,,,,,,,,,,,,,,,,,,,,,,,,,,,,,,,,3J4E52,train_y,blue_star,top_left,2025-09-13_13h26.49.875,HideSeek_v1,2022.2.5,59.92293904378206,
,0,6,0,5,0,-1,62,,train_dim1_1,4,30,,,,2,0,2,0,,,,,,,,,0,0,0,0,0,3,3,3,11,0,11,0,,,,,,,,,,,,,,,,,,,,,,,,,,,,,,,,,,,,,,,,,,,,,,,,,,,,,,,,,,,,,,,,30,,,,,,,,1064.834831399843,1064.834831399843,1064.834831399843,1064.834831399843,1064.834831399843,down,0.99392250017263,0,0,0,99,-0.15999999999999998,-0.4,down,0.9131765002384782,,,,,,,,,,,,,,,,,,,,,,,,,,,,,,,,,,,,,,,,,,,,,,,,,,,,,,,,,,,,3J4E52,train_y,blue_star,top_left,2025-09-13_13h26.49.875,HideSeek_v1,2022.2.5,59.92293904378206,
,0,6,0,5,0,-1,62,,train_dim1_1,4,30,,,,2,0,2,0,,,,,,,,,0,0,0,0,0,3,3,3,12,0,12,0,,,,,,,,,,,,,,,,,,,,,,,,,,,,,,,,,,,,,,,,,,,,,,,,,,,,,,,,,,,,,,,,30,,,,,,,,1065.8349787998013,1065.8349787998013,1065.8349787998013,1065.8349787998013,1065.8349787998013,right,1.2774571001064032,0,0,0,99,-0.07999999999999997,-0.4,right,1.2059195002075285,,,,,,,,,,,,,,,,,,,,,,,,,,,,,,,,,,,,,,,,,,,,,,,,,,,,,,,,,,,,3J4E52,train_y,blue_star,top_left,2025-09-13_13h26.49.875,HideSeek_v1,2022.2.5,59.92293904378206,
,0,6,0,5,0,-1,62,,train_dim1_1,4,30,,,,2,0,2,0,,,,,,,,,0,0,0,0,0,3,3,3,13,0,13,0,,,,,,,,,,,,,,,,,,,,,,,,,,,,,,,,,,,,,,,,,,,,,,,,,,,,,,,,,,,,,,,,30,,,,,,,,1067.1199794998392,1067.1199794998392,1067.1199794998392,1067.1199794998392,1067.1199794998392,right,0.6268535999115556,0,0,0,99,2.7755575615628914e-17,-0.4,right,0.5522270002402365,,,,,,,,,,,,,,,,,,,,,,,,,,,,,,,,,,,,,,,,,,,,,,,,,,,,,,,,,,,,3J4E52,train_y,blue_star,top_left,2025-09-13_13h26.49.875,HideSeek_v1,2022.2.5,59.92293904378206,
,0,6,0,5,0,-1,62,,train_dim1_1,4,30,,,,2,0,2,0,,,,,,,,,0,0,0,0,0,3,3,3,14,0,14,0,,,,,,,,,,,,,,,,,,,,,,,,,,,,,,,,,,,,,,,,,,,,,,,,,,,,,,,,,,,,,,,,30,,,,,,,,1067.7546112998389,1067.7546112998389,1067.7546112998389,1067.7546112998389,1067.7546112998389,right,0.2602784999180585,0,0,0,99,0.08000000000000003,-0.4,right,0.1813980001024902,,,,,,,,,,,,,,,,,,,,,,,,,,,,,,,,,,,,,,,,,,,,,,,,,,,,,,,,,,,,3J4E52,train_y,blue_star,top_left,2025-09-13_13h26.49.875,HideSeek_v1,2022.2.5,59.92293904378206,
,0,6,0,5,0,-1,62,,train_dim1_1,4,30,,,,2,0,2,0,,,,,,,,,0,0,0,0,0,3,3,3,15,0,15,0,,,,,,,,,,,,,,,,,,,,,,,,,,,,,,,,,,,,,,,,,,,,,,,,,,,,,,,,,,,,,,,,30,,,,,,,,1068.0204165999312,1068.0204165999312,1068.0204165999312,1068.0204165999312,1068.0204165999312,return,0.9438750001136214,0,0,0,0,0.08000000000000003,-0.4,return,0.8675329003017396,-8,5,0.08000000000000003,-0.4,,,,,,,,,,,,,,,,,,,,,,,,,,,,,,,,,,,,,,,,,,,,,,,,,,,,,,,,3J4E52,train_y,blue_star,top_left,2025-09-13_13h26.49.875,HideSeek_v1,2022.2.5,59.92293904378206,
,3,8,3,8,0,0,61,,train_dim1_1,5,30,,,,2,0,2,0,,,,,,,,,0,0,0,0,0,4,4,4,0,0,0,0,,,,,,,,,,,,,,,,,,,,,,,,,stimuli/alien_stimuli/61.png,,,,,,,,,,,,,,,,,,,,,,,,,,,,,stimuli/alien_stimuli/62.png,62,0,6,,,,,,,30,,,,,,,,1075.5982533998322,1075.5982533998322,1075.5982533998322,1075.5982533998322,1075.5982533998322,down,2.908357699867338,0,0,0,99,0.08,0.15999999999999998,down,2.825490300077945,,,,,1074.0457599000074,1075.5982533998322,-0.16,0,0.08,0.0,0.04,-0.16,-0.16,-0.16,0,1070.5368383999448,1070.5368383999448,1070.5368383999448,1070.5368383999448,1070.5368383999448,1070.5368383999448,1070.5368383999448,1070.5368383999448,1070.5260649500647,3.6221808998379856,return,3.487516700057313,,,,,,,,,,,,,,,,,,,,,,,,,,,,,,,,,3J4E52,train_y,blue_star,top_left,2025-09-13_13h26.49.875,HideSeek_v1,2022.2.5,59.92293904378206,
,3,8,3,8,0,0,61,,train_dim1_1,5,30,,,,2,0,2,0,,,,,,,,,0,0,0,0,0,4,4,4,1,0,1,0,,,,,,,,,,,,,,,,,,,,,,,,,,,,,,,,,,,,,,,,,,,,,,,,,,,,,,,,,,,,,,,,30,,,,,,,,1078.514291399857,1078.514291399857,1078.514291399857,1078.514291399857,1078.514291399857,down,0.6094583999365568,0,0,0,99,0.08,0.07999999999999997,down,0.5313069000840187,,,,,,,,,,,,,,,,,,,,,,,,,,,,,,,,,,,,,,,,,,,,,,,,,,,,,,,,,,,,3J4E52,train_y,blue_star,top_left,2025-09-13_13h26.49.875,HideSeek_v1,2022.2.5,59.92293904378206,
,3,8,3,8,0,0,61,,train_dim1_1,5,30,,,,2,0,2,0,,,,,,,,,0,0,0,0,0,4,4,4,2,0,2,0,,,,,,,,,,,,,,,,,,,,,,,,,,,,,,,,,,,,,,,,,,,,,,,,,,,,,,,,,,,,,,,,30,,,,,,,,1079.130955599947,1079.130955599947,1079.130955599947,1079.130955599947,1079.130955599947,left,1.3939674000721425,0,0,0,99,0.0,0.07999999999999997,left,1.3189976001158357,,,,,,,,,,,,,,,,,,,,,,,,,,,,,,,,,,,,,,,,,,,,,,,,,,,,,,,,,,,,3J4E52,train_y,blue_star,top_left,2025-09-13_13h26.49.875,HideSeek_v1,2022.2.5,59.92293904378206,
,3,8,3,8,0,0,61,,train_dim1_1,5,30,,,,2,0,2,0,,,,,,,,,0,0,0,0,0,4,4,4,3,0,3,0,,,,,,,,,,,,,,,,,,,,,,,,,,,,,,,,,,,,,,,,,,,,,,,,,,,,,,,,,,,,,,,,30,,,,,,,,1080.531213299837,1080.531213299837,1080.531213299837,1080.531213299837,1080.531213299837,left,0.5097634999547154,0,0,0,99,-0.08,0.07999999999999997,left,0.4285519002005458,,,,,,,,,,,,,,,,,,,,,,,,,,,,,,,,,,,,,,,,,,,,,,,,,,,,,,,,,,,,3J4E52,train_y,blue_star,top_left,2025-09-13_13h26.49.875,HideSeek_v1,2022.2.5,59.92293904378206,
,3,8,3,8,0,0,61,,train_dim1_1,5,30,,,,2,0,2,0,,,,,,,,,0,0,0,0,0,4,4,4,4,0,4,0,,,,,,,,,,,,,,,,,,,,,,,,,,,,,,,,,,,,,,,,,,,,,,,,,,,,,,,,,,,,,,,,30,,,,,,,,1081.0482369998936,1081.0482369998936,1081.0482369998936,1081.0482369998936,1081.0482369998936,right,1.2442328999750316,0,0,0,99,0.0,0.07999999999999997,right,1.1711622001603246,,,,,,,,,,,,,,,,,,,,,,,,,,,,,,,,,,,,,,,,,,,,,,,,,,,,,,,,,,,,3J4E52,train_y,blue_star,top_left,2025-09-13_13h26.49.875,HideSeek_v1,2022.2.5,59.92293904378206,
,3,8,3,8,0,0,61,,train_dim1_1,5,30,,,,2,0,2,0,,,,,,,,,0,0,0,0,0,4,4,4,5,0,5,0,,,,,,,,,,,,,,,,,,,,,,,,,,,,,,,,,,,,,,,,,,,,,,,,,,,,,,,,,,,,,,,,30,,,,,,,,1082.3007183999289,1082.3007183999289,1082.3007183999289,1082.3007183999289,1082.3007183999289,right,0.44221489992924035,0,0,0,99,0.08,0.07999999999999997,right,0.3557281002867967,,,,,,,,,,,,,,,,,,,,,,,,,,,,,,,,,,,,,,,,,,,,,,,,,,,,,,,,,,,,3J4E52,train_y,blue_star,top_left,2025-09-13_13h26.49.875,HideSeek_v1,2022.2.5,59.92293904378206,
,3,8,3,8,0,0,61,,train_dim1_1,5,30,,,,2,0,2,0,,,,,,,,,0,0,0,0,0,4,4,4,6,0,6,0,,,,,,,,,,,,,,,,,,,,,,,,,,,,,,,,,,,,,,,,,,,,,,,,,,,,,,,,,,,,,,,,30,,,,,,,,1082.7503948998637,1082.7503948998637,1082.7503948998637,1082.7503948998637,1082.7503948998637,right,0.7101700000930578,0,0,0,99,0.16,0.07999999999999997,right,0.6366020001005381,,,,,,,,,,,,,,,,,,,,,,,,,,,,,,,,,,,,,,,,,,,,,,,,,,,,,,,,,,,,3J4E52,train_y,blue_star,top_left,2025-09-13_13h26.49.875,HideSeek_v1,2022.2.5,59.92293904378206,
,3,8,3,8,0,0,61,,train_dim1_1,5,30,,,,2,0,2,0,,,,,,,,,0,0,0,0,0,4,4,4,7,0,7,0,,,,,,,,,,,,,,,,,,,,,,,,,,,,,,,,,,,,,,,,,,,,,,,,,,,,,,,,,,,,,,,,30,,,,,,,,1083.4679898000322,1083.4679898000322,1083.4679898000322,1083.4679898000322,1083.4679898000322,right,0.5434669000096619,0,0,0,99,0.24,0.07999999999999997,right,0.46313030016608536,,,,,,,,,,,,,,,,,,,,,,,,,,,,,,,,,,,,,,,,,,,,,,,,,,,,,,,,,,,,3J4E52,train_y,blue_star,top_left,2025-09-13_13h26.49.875,HideSeek_v1,2022.2.5,59.92293904378206,
,3,8,3,8,0,0,61,,train_dim1_1,5,30,,,,2,0,2,0,,,,,,,,,0,0,0,0,0,4,4,4,8,0,8,0,,,,,,,,,,,,,,,,,,,,,,,,,,,,,,,,,,,,,,,,,,,,,,,,,,,,,,,,,,,,,,,,30,,,,,,,,1084.017366199987,1084.017366199987,1084.017366199987,1084.017366199987,1084.017366199987,up,1.4441241000313312,0,0,0,99,0.24,0.15999999999999998,up,1.3589526002760977,,,,,,,,,,,,,,,,,,,,,,,,,,,,,,,,,,,,,,,,,,,,,,,,,,,,,,,,,,,,3J4E52,train_y,blue_star,top_left,2025-09-13_13h26.49.875,HideSeek_v1,2022.2.5,59.92293904378206,
,3,8,3,8,0,0,61,,train_dim1_1,5,30,,,,2,0,2,0,,,,,,,,,0,0,0,0,0,4,4,4,9,0,9,0,,,,,,,,,,,,,,,,,,,,,,,,,,,,,,,,,,,,,,,,,,,,,,,,,,,,,,,,,,,,,,,,30,,,,,,,,1085.4683149999473,1085.4683149999473,1085.4683149999473,1085.4683149999473,1085.4683149999473,up,0.6435827999375761,0,0,0,99,0.24,0.24,up,0.5667479999829084,,,,,,,,,,,,,,,,,,,,,,,,,,,,,,,,,,,,,,,,,,,,,,,,,,,,,,,,,,,,3J4E52,train_y,blue_star,top_left,2025-09-13_13h26.49.875,HideSeek_v1,2022.2.5,59.92293904378206,
,3,8,3,8,0,0,61,,train_dim1_1,5,30,,,,2,0,2,0,,,,,,,,,0,0,0,0,0,4,4,4,10,0,10,0,,,,,,,,,,,,,,,,,,,,,,,,,,,,,,,,,,,,,,,,,,,,,,,,,,,,,,,,,,,,,,,,30,,,,,,,,1086.1209431998432,1086.1209431998432,1086.1209431998432,1086.1209431998432,1086.1209431998432,left,1.911553599871695,0,0,0,99,0.15999999999999998,0.24,left,1.8329957001842558,,,,,,,,,,,,,,,,,,,,,,,,,,,,,,,,,,,,,,,,,,,,,,,,,,,,,,,,,,,,3J4E52,train_y,blue_star,top_left,2025-09-13_13h26.49.875,HideSeek_v1,2022.2.5,59.92293904378206,
,3,8,3,8,0,0,61,,train_dim1_1,5,30,,,,2,0,2,0,,,,,,,,,0,0,0,0,0,4,4,4,11,0,11,0,,,,,,,,,,,,,,,,,,,,,,,,,,,,,,,,,,,,,,,,,,,,,,,,,,,,,,,,,,,,,,,,30,,,,,,,,1088.0376899000257,1088.0376899000257,1088.0376899000257,1088.0376899000257,1088.0376899000257,return,1.1938086000736803,0,1,0,0,0.15999999999999998,0.24,return,1.1214990001171827,-8,6,0.15999999999999998,0.24,,,,,,,,,,,,,,,,,,,,,,,,,,,,,,,,,,,,,,,,,,,,,,,,,,,,,,,,3J4E52,train_y,blue_star,top_left,2025-09-13_13h26.49.875,HideSeek_v1,2022.2.5,59.92293904378206,
,1,9,1,8,0,-1,62,,train_dim1_1,6,30,,,,2,0,2,0,,,,,,,,,0,0,0,0,0,5,5,5,0,0,0,0,,,,,,,,,,,,,,,,,,,,,,,,,stimuli/alien_stimuli/62.png,,,,,,,,,,,,,,,,,,,,,,,,,,,,,stimuli/alien_stimuli/61.png,61,3,7,,,,,,,30,,,,,,,,1114.4782951998059,1114.4782951998059,1114.4782951998059,1114.4782951998059,1114.4782951998059,return,2.5582908000797033,0,1,0,0,-0.08,0.32,return,2.470668700290844,-8,6,-0.08,0.32,1112.9111538999714,1114.4782951998059,0.08,0.24,0.0,0.0,0.24,0.08,0.08,0.08,0.24,1090.7958763998467,1090.7958763998467,1090.7958763998467,1090.7958763998467,1090.7958763998467,1090.7958763998467,1090.7958763998467,1090.7958763998467,1090.793289250019,22.220500799827278,return,22.09636230021715,,,,,,,,,,,,,,,,,,,,,,,,,,,,,,,,,3J4E52,train_y,blue_star,top_left,2025-09-13_13h26.49.875,HideSeek_v1,2022.2.5,59.92293904378206,
,1,8,1,5,0,-3,64,,train_dim1_1,7,30,,,,2,0,2,0,,,,,,,,,0,0,0,0,0,6,6,6,0,0,0,0,,,,,,,,,,,,,,,,,,,,,,,,,stimuli/alien_stimuli/64.png,,,,,,,,,,,,,,,,,,,,,,,,,,,,,stimuli/alien_stimuli/62.png,62,1,8,,,,,,,30,,,,,,,,1124.5554184999783,1124.5554184999783,1124.5554184999783,1124.5554184999783,1124.5554184999783,right,7.3770440998487175,0,1,0,99,0.0,0.24,right,7.289421200053766,,,,,1123.0029733998235,1124.5554184999783,-0.08,0.24,0.08,0.0,0.28,-0.08,-0.08,-0.08,0.24,1118.58867369988,1118.58867369988,1118.58867369988,1118.58867369988,1118.58867369988,1118.58867369988,1118.58867369988,1118.58867369988,1118.5824037499492,4.523263300070539,return,4.395893800072372,,,,,,,,,,,,,,,,,,,,,,,,,,,,,,,,,3J4E52,train_y,blue_star,top_left,2025-09-13_13h26.49.875,HideSeek_v1,2022.2.5,59.92293904378206,
,1,8,1,5,0,-3,64,,train_dim1_1,7,30,,,,2,0,2,0,,,,,,,,,0,0,0,0,0,6,6,6,1,0,1,0,,,,,,,,,,,,,,,,,,,,,,,,,,,,,,,,,,,,,,,,,,,,,,,,,,,,,,,,,,,,,,,,30,,,,,,,,1131.9421392998192,1131.9421392998192,1131.9421392998192,1131.9421392998192,1131.9421392998192,down,1.3259930000640452,0,1,0,99,0.0,0.15999999999999998,down,1.2403279000427574,,,,,,,,,,,,,,,,,,,,,,,,,,,,,,,,,,,,,,,,,,,,,,,,,,,,,,,,,,,,3J4E52,train_y,blue_star,top_left,2025-09-13_13h26.49.875,HideSeek_v1,2022.2.5,59.92293904378206,
,1,8,1,5,0,-3,64,,train_dim1_1,7,30,,,,2,0,2,0,,,,,,,,,0,0,0,0,0,6,6,6,2,0,2,0,,,,,,,,,,,,,,,,,,,,,,,,,,,,,,,,,,,,,,,,,,,,,,,,,,,,,,,,,,,,,,,,30,,,,,,,,1133.2736596998293,1133.2736596998293,1133.2736596998293,1133.2736596998293,1133.2736596998293,left,1.427727699978277,0,1,0,99,-0.08,0.15999999999999998,left,1.3425951001700014,,,,,,,,,,,,,,,,,,,,,,,,,,,,,,,,,,,,,,,,,,,,,,,,,,,,,,,,,,,,3J4E52,train_y,blue_star,top_left,2025-09-13_13h26.49.875,HideSeek_v1,2022.2.5,59.92293904378206,
,1,8,1,5,0,-3,64,,train_dim1_1,7,30,,,,2,0,2,0,,,,,,,,,0,0,0,0,0,6,6,6,3,0,3,0,,,,,,,,,,,,,,,,,,,,,,,,,,,,,,,,,,,,,,,,,,,,,,,,,,,,,,,,,,,,,,,,30,,,,,,,,1134.7089575999416,1134.7089575999416,1134.7089575999416,1134.7089575999416,1134.7089575999416,up,3.07876930013299,0,1,0,99,-0.08,0.24,up,2.9913584000896662,,,,,,,,,,,,,,,,,,,,,,,,,,,,,,,,,,,,,,,,,,,,,,,,,,,,,,,,,,,,3J4E52,train_y,blue_star,top_left,2025-09-13_13h26.49.875,HideSeek_v1,2022.2.5,59.92293904378206,
,1,8,1,5,0,-3,64,,train_dim1_1,7,30,,,,2,0,2,0,,,,,,,,,0,0,0,0,0,6,6,6,4,0,4,0,,,,,,,,,,,,,,,,,,,,,,,,,,,,,,,,,,,,,,,,,,,,,,,,,,,,,,,,,,,,,,,,30,,,,,,,,1137.7951290998608,1137.7951290998608,1137.7951290998608,1137.7951290998608,1137.7951290998608,return,0.9607390000019222,0,0,0,0,-0.08,0.24,return,0.8838612001854926,-8,6,-0.08,0.24,,,,,,,,,,,,,,,,,,,,,,,,,,,,,,,,,,,,,,,,,,,,,,,,,,,,,,,,3J4E52,train_y,blue_star,top_left,2025-09-13_13h26.49.875,HideSeek_v1,2022.2.5,59.92293904378206,
,4,7,4,7,0,0,61,,train_dim1_1,8,30,,,,2,0,2,0,,,,,,,,,0,0,0,0,0,7,7,7,0,0,0,0,,,,,,,,,,,,,,,,,,,,,,,,,stimuli/alien_stimuli/61.png,,,,,,,,,,,,,,,,,,,,,,,,,,,,,stimuli/alien_stimuli/64.png,64,1,9,,,,,,,30,,,,,,,,1151.5315951998346,1151.5315951998346,1151.5315951998346,1151.5315951998346,1151.5315951998346,right,6.457680799998343,0,0,0,99,0.24,0.16,right,6.351554100168869,,,,,1149.9590051998384,1151.5315951998346,-0.08,0,0.24,0.0,0.12,-0.08,-0.08,-0.08,0,1140.3197202000301,1140.3197202000301,1140.3197202000301,1140.3197202000301,1140.3197202000301,1140.3197202000301,1140.3197202000301,1140.3197202000301,1140.3171868499135,9.743867000099272,return,9.623104000231251,,,,,,,,,,,,,,,,,,,,,,,,,,,,,,,,,3J4E52,train_y,blue_star,top_left,2025-09-13_13h26.49.875,HideSeek_v1,2022.2.5,59.92293904378206,
,4,7,4,7,0,0,61,,train_dim1_1,8,30,,,,2,0,2,0,,,,,,,,,0,0,0,0,0,7,7,7,1,0,1,0,,,,,,,,,,,,,,,,,,,,,,,,,,,,,,,,,,,,,,,,,,,,,,,,,,,,,,,,,,,,,,,,30,,,,,,,,1157.9809402998071,1157.9809402998071,1157.9809402998071,1157.9809402998071,1157.9809402998071,down,0.9929603000637144,0,0,0,99,0.24,0.08,down,0.9091937001794577,,,,,,,,,,,,,,,,,,,,,,,,,,,,,,,,,,,,,,,,,,,,,,,,,,,,,,,,,,,,3J4E52,train_y,blue_star,top_left,2025-09-13_13h26.49.875,HideSeek_v1,2022.2.5,59.92293904378206,
,4,7,4,7,0,0,61,,train_dim1_1,8,30,,,,2,0,2,0,,,,,,,,,0,0,0,0,0,7,7,7,2,0,2,0,,,,,,,,,,,,,,,,,,,,,,,,,,,,,,,,,,,,,,,,,,,,,,,,,,,,,,,,,,,,,,,,30,,,,,,,,1158.9934300000314,1158.9934300000314,1158.9934300000314,1158.9934300000314,1158.9934300000314,left,2.395152200013399,0,0,0,99,0.15999999999999998,0.08,left,2.303400600096211,,,,,,,,,,,,,,,,,,,,,,,,,,,,,,,,,,,,,,,,,,,,,,,,,,,,,,,,,,,,3J4E52,train_y,blue_star,top_left,2025-09-13_13h26.49.875,HideSeek_v1,2022.2.5,59.92293904378206,
,4,7,4,7,0,0,61,,train_dim1_1,8,30,,,,2,0,2,0,,,,,,,,,0,0,0,0,0,7,7,7,3,0,3,0,,,,,,,,,,,,,,,,,,,,,,,,,,,,,,,,,,,,,,,,,,,,,,,,,,,,,,,,,,,,,,,,30,,,,,,,,1161.3815961999353,1161.3815961999353,1161.3815961999353,1161.3815961999353,1161.3815961999353,down,1.4440933999139816,0,0,0,99,0.15999999999999998,0.0,down,1.361427300143987,,,,,,,,,,,,,,,,,,,,,,,,,,,,,,,,,,,,,,,,,,,,,,,,,,,,,,,,,,,,3J4E52,train_y,blue_star,top_left,2025-09-13_13h26.49.875,HideSeek_v1,2022.2.5,59.92293904378206,
,4,7,4,7,0,0,61,,train_dim1_1,8,30,,,,2,0,2,0,,,,,,,,,0,0,0,0,0,7,7,7,4,0,4,0,,,,,,,,,,,,,,,,,,,,,,,,,,,,,,,,,,,,,,,,,,,,,,,,,,,,,,,,,,,,,,,,30,,,,,,,,1162.833212299971,1162.833212299971,1162.833212299971,1162.833212299971,1162.833212299971,down,0.37685050000436604,0,0,0,99,0.15999999999999998,-0.08,down,0.30069700023159385,,,,,,,,,,,,,,,,,,,,,,,,,,,,,,,,,,,,,,,,,,,,,,,,,,,,,,,,,,,,3J4E52,train_y,blue_star,top_left,2025-09-13_13h26.49.875,HideSeek_v1,2022.2.5,59.92293904378206,
,4,7,4,7,0,0,61,,train_dim1_1,8,30,,,,2,0,2,0,,,,,,,,,0,0,0,0,0,7,7,7,5,0,5,0,,,,,,,,,,,,,,,,,,,,,,,,,,,,,,,,,,,,,,,,,,,,,,,,,,,,,,,,,,,,,,,,30,,,,,,,,1163.2175366999581,1163.2175366999581,1163.2175366999581,1163.2175366999581,1163.2175366999581,down,0.6101987999863923,0,0,0,99,0.15999999999999998,-0.16,down,0.5259929001331329,,,,,,,,,,,,,,,,,,,,,,,,,,,,,,,,,,,,,,,,,,,,,,,,,,,,,,,,,,,,3J4E52,train_y,blue_star,top_left,2025-09-13_13h26.49.875,HideSeek_v1,2022.2.5,59.92293904378206,
,4,7,4,7,0,0,61,,train_dim1_1,8,30,,,,2,0,2,0,,,,,,,,,0,0,0,0,0,7,7,7,6,0,6,0,,,,,,,,,,,,,,,,,,,,,,,,,,,,,,,,,,,,,,,,,,,,,,,,,,,,,,,,,,,,,,,,30,,,,,,,,1163.8334284999873,1163.8334284999873,1163.8334284999873,1163.8334284999873,1163.8334284999873,return,1.1942002000287175,0,0,0,0,0.15999999999999998,-0.16,return,1.1110158001538366,-12,6,0.15999999999999998,-0.16,,,,,,,,,,,,,,,,,,,,,,,,,,,,,,,,,,,,,,,,,,,,,,,,,,,,,,,,3J4E52,train_y,blue_star,top_left,2025-09-13_13h26.49.875,HideSeek_v1,2022.2.5,59.92293904378206,
,4,8,4,4,0,-4,65,,train_dim1_1,9,30,,,,2,0,2,0,,,,,,,,,0,0,0,0,0,8,8,8,0,0,0,0,,,,,,,,,,,,,,,,,,,,,,,,,stimuli/alien_stimuli/65.png,,,,,,,,,,,,,,,,,,,,,,,,,,,,,stimuli/alien_stimuli/61.png,61,4,10,,,,,,,30,,,,,,,,1173.64569509984,1173.64569509984,1173.64569509984,1173.64569509984,1173.64569509984,right,3.6419204000849277,0,0,0,99,0.24,0.24,right,3.565447400091216,,,,,1172.0937788998708,1173.64569509984,0.16,0.16,0.0,0.0,0.16,0.16,0.16,0.16,0.16,1166.5931779998355,1166.5931779998355,1166.5931779998355,1166.5931779998355,1166.5931779998355,1166.5931779998355,1166.5931779998355,1166.5931779998355,1166.5891389500116,5.607080300105736,return,5.473220800282434,,,,,,,,,,,,,,,,,,,,,,,,,,,,,,,,,3J4E52,train_y,blue_star,top_left,2025-09-13_13h26.49.875,HideSeek_v1,2022.2.5,59.92293904378206,
,4,8,4,4,0,-4,65,,train_dim1_1,9,30,,,,2,0,2,0,,,,,,,,,0,0,0,0,0,8,8,8,1,0,1,0,,,,,,,,,,,,,,,,,,,,,,,,,,,,,,,,,,,,,,,,,,,,,,,,,,,,,,,,,,,,,,,,30,,,,,,,,1177.2979401999619,1177.2979401999619,1177.2979401999619,1177.2979401999619,1177.2979401999619,left,2.725691800005734,0,0,0,99,0.15999999999999998,0.24,left,2.6424283001106232,,,,,,,,,,,,,,,,,,,,,,,,,,,,,,,,,,,,,,,,,,,,,,,,,,,,,,,,,,,,3J4E52,train_y,blue_star,top_left,2025-09-13_13h26.49.875,HideSeek_v1,2022.2.5,59.92293904378206,
,4,8,4,4,0,-4,65,,train_dim1_1,9,30,,,,2,0,2,0,,,,,,,,,0,0,0,0,0,8,8,8,2,0,2,0,,,,,,,,,,,,,,,,,,,,,,,,,,,,,,,,,,,,,,,,,,,,,,,,,,,,,,,,,,,,,,,,30,,,,,,,,1180.0314147998579,1180.0314147998579,1180.0314147998579,1180.0314147998579,1180.0314147998579,return,0.8100529001094401,0,0,0,0,0.15999999999999998,0.24,return,0.7316623001825064,-12,6,0.15999999999999998,0.24,,,,,,,,,,,,,,,,,,,,,,,,,,,,,,,,,,,,,,,,,,,,,,,,,,,,,,,,3J4E52,train_y,blue_star,top_left,2025-09-13_13h26.49.875,HideSeek_v1,2022.2.5,59.92293904378206,
,2,7,2,2,0,-5,66,,train_dim1_1,10,30,,,,2,0,2,0,,,,,,,,,0,0,0,0,0,9,9,9,0,0,0,0,,,,,,,,,,,,,,,,,,,,,,,,,stimuli/alien_stimuli/66.png,,,,,,,,,,,,,,,,,,,,,,,,,,,,,stimuli/alien_stimuli/65.png,65,4,11,,,,,,,30,,,,,,,,1189.2918653998058,1189.2918653998058,1189.2918653998058,1189.2918653998058,1189.2918653998058,right,3.6088566000107676,0,0,0,99,0.08,0.16,right,3.5274823002982885,,,,,1187.7402233998291,1189.2918653998058,0.16,-0.08,0.32,0.0,0.07999999999999999,0.16,0.16,0.16,-0.08,1182.4049180999864,1182.4049180999864,1182.4049180999864,1182.4049180999864,1182.4049180999864,1182.4049180999864,1182.4049180999864,1182.4049180999864,1182.4023179500596,5.440229799831286,return,5.318212600192055,,,,,,,,,,,,,,,,,,,,,,,,,,,,,,,,,3J4E52,train_y,blue_star,top_left,2025-09-13_13h26.49.875,HideSeek_v1,2022.2.5,59.92293904378206,
,2,7,2,2,0,-5,66,,train_dim1_1,10,30,,,,2,0,2,0,,,,,,,,,0,0,0,0,0,9,9,9,1,0,1,0,,,,,,,,,,,,,,,,,,,,,,,,,,,,,,,,,,,,,,,,,,,,,,,,,,,,,,,,,,,,,,,,30,,,,,,,,1192.9079836998135,1192.9079836998135,1192.9079836998135,1192.9079836998135,1192.9079836998135,down,1.343856899999082,0,0,0,99,0.08,0.08,down,1.2714682000223547,,,,,,,,,,,,,,,,,,,,,,,,,,,,,,,,,,,,,,,,,,,,,,,,,,,,,,,,,,,,3J4E52,train_y,blue_star,top_left,2025-09-13_13h26.49.875,HideSeek_v1,2022.2.5,59.92293904378206,
,2,7,2,2,0,-5,66,,train_dim1_1,10,30,,,,2,0,2,0,,,,,,,,,0,0,0,0,0,9,9,9,2,0,2,0,,,,,,,,,,,,,,,,,,,,,,,,,,,,,,,,,,,,,,,,,,,,,,,,,,,,,,,,,,,,,,,,30,,,,,,,,1194.2591568999924,1194.2591568999924,1194.2591568999924,1194.2591568999924,1194.2591568999924,left,1.3941385000944138,0,0,0,99,0.0,0.08,left,1.3055181000381708,,,,,,,,,,,,,,,,,,,,,,,,,,,,,,,,,,,,,,,,,,,,,,,,,,,,,,,,,,,,3J4E52,train_y,blue_star,top_left,2025-09-13_13h26.49.875,HideSeek_v1,2022.2.5,59.92293904378206,
,2,7,2,2,0,-5,66,,train_dim1_1,10,30,,,,2,0,2,0,,,,,,,,,0,0,0,0,0,9,9,9,3,0,3,0,,,,,,,,,,,,,,,,,,,,,,,,,,,,,,,,,,,,,,,,,,,,,,,,,,,,,,,,,,,,,,,,30,,,,,,,,1195.6616514998022,1195.6616514998022,1195.6616514998022,1195.6616514998022,1195.6616514998022,up,1.4771992999594659,0,0,0,99,0.0,0.16,up,1.3961791002657264,,,,,,,,,,,,,,,,,,,,,,,,,,,,,,,,,,,,,,,,,,,,,,,,,,,,,,,,,,,,3J4E52,train_y,blue_star,top_left,2025-09-13_13h26.49.875,HideSeek_v1,2022.2.5,59.92293904378206,
,2,7,2,2,0,-5,66,,train_dim1_1,10,30,,,,2,0,2,0,,,,,,,,,0,0,0,0,0,9,9,9,4,0,4,0,,,,,,,,,,,,,,,,,,,,,,,,,,,,,,,,,,,,,,,,,,,,,,,,,,,,,,,,,,,,,,,,30,,,,,,,,1197.1453177998774,1197.1453177998774,1197.1453177998774,1197.1453177998774,1197.1453177998774,return,0.6269475999288261,0,0,0,0,0.0,0.16,return,0.5480243000201881,-12,6,0.0,0.16,,,,,,,,,,,,,,,,,,,,,,,,,,,,,,,,,,,,,,,,,,,,,,,,,,,,,,,,3J4E52,train_y,blue_star,top_left,2025-09-13_13h26.49.875,HideSeek_v1,2022.2.5,59.92293904378206,
,4,6,4,2,0,-4,65,,train_dim1_1,11,30,,,,2,0,2,0,,,,,,,,,0,0,0,0,0,10,10,10,0,0,0,0,,,,,,,,,,,,,,,,,,,,,,,,,stimuli/alien_stimuli/65.png,,,,,,,,,,,,,,,,,,,,,,,,,,,,,stimuli/alien_stimuli/66.png,66,2,12,,,,,,,30,,,,,,,,1203.1896728000138,1203.1896728000138,1203.1896728000138,1203.1896728000138,1203.1896728000138,down,4.006238299887627,0,0,0,99,0.16,0.0,down,3.926527200033888,,,,,1201.6349625999574,1203.1896728000138,0,-0.24,0.4,0.0,-0.039999999999999994,0,0.0,0,-0.24,1199.3374337998684,1199.3374337998684,1199.3374337998684,1199.3374337998684,1199.3374337998684,1199.3374337998684,1199.3374337998684,1199.3374337998684,1199.3328390501206,2.40478130010888,return,2.279338200110942,,,,,,,,,,,,,,,,,,,,,,,,,,,,,,,,,3J4E52,train_y,blue_star,top_left,2025-09-13_13h26.49.875,HideSeek_v1,2022.2.5,59.92293904378206,
,4,6,4,2,0,-4,65,,train_dim1_1,11,30,,,,2,0,2,0,,,,,,,,,0,0,0,0,0,10,10,10,1,0,1,0,,,,,,,,,,,,,,,,,,,,,,,,,,,,,,,,,,,,,,,,,,,,,,,,,,,,,,,,,,,,,,,,30,,,,,,,,1207.2029597999062,1207.2029597999062,1207.2029597999062,1207.2029597999062,1207.2029597999062,down,0.5094413999468088,0,0,0,99,0.16,-0.08,down,0.4244911002460867,,,,,,,,,,,,,,,,,,,,,,,,,,,,,,,,,,,,,,,,,,,,,,,,,,,,,,,,,,,,3J4E52,train_y,blue_star,top_left,2025-09-13_13h26.49.875,HideSeek_v1,2022.2.5,59.92293904378206,
,4,6,4,2,0,-4,65,,train_dim1_1,11,30,,,,2,0,2,0,,,,,,,,,0,0,0,0,0,10,10,10,2,0,2,0,,,,,,,,,,,,,,,,,,,,,,,,,,,,,,,,,,,,,,,,,,,,,,,,,,,,,,,,,,,,,,,,30,,,,,,,,1207.7206080998294,1207.7206080998294,1207.7206080998294,1207.7206080998294,1207.7206080998294,down,0.4102183999493718,0,0,0,99,0.16,-0.16,down,0.32934140018187463,,,,,,,,,,,,,,,,,,,,,,,,,,,,,,,,,,,,,,,,,,,,,,,,,,,,,,,,,,,,3J4E52,train_y,blue_star,top_left,2025-09-13_13h26.49.875,HideSeek_v1,2022.2.5,59.92293904378206,
,4,6,4,2,0,-4,65,,train_dim1_1,11,30,,,,2,0,2,0,,,,,,,,,0,0,0,0,0,10,10,10,3,0,3,0,,,,,,,,,,,,,,,,,,,,,,,,,,,,,,,,,,,,,,,,,,,,,,,,,,,,,,,,,,,,,,,,30,,,,,,,,1208.136742600007,1208.136742600007,1208.136742600007,1208.136742600007,1208.136742600007,down,0.4268112999852747,0,0,0,99,0.16,-0.24,down,0.34842199995182455,,,,,,,,,,,,,,,,,,,,,,,,,,,,,,,,,,,,,,,,,,,,,,,,,,,,,,,,,,,,3J4E52,train_y,blue_star,top_left,2025-09-13_13h26.49.875,HideSeek_v1,2022.2.5,59.92293904378206,
,4,6,4,2,0,-4,65,,train_dim1_1,11,30,,,,2,0,2,0,,,,,,,,,0,0,0,0,0,10,10,10,4,0,4,0,,,,,,,,,,,,,,,,,,,,,,,,,,,,,,,,,,,,,,,,,,,,,,,,,,,,,,,,,,,,,,,,30,,,,,,,,1208.5713404999115,1208.5713404999115,1208.5713404999115,1208.5713404999115,1208.5713404999115,down,0.4765852000564337,0,0,0,99,0.16,-0.32,down,0.3924697001930326,,,,,,,,,,,,,,,,,,,,,,,,,,,,,,,,,,,,,,,,,,,,,,,,,,,,,,,,,,,,3J4E52,train_y,blue_star,top_left,2025-09-13_13h26.49.875,HideSeek_v1,2022.2.5,59.92293904378206,
,4,6,4,2,0,-4,65,,train_dim1_1,11,30,,,,2,0,2,0,,,,,,,,,0,0,0,0,0,10,10,10,5,0,5,0,,,,,,,,,,,,,,,,,,,,,,,,,,,,,,,,,,,,,,,,,,,,,,,,,,,,,,,,,,,,,,,,30,,,,,,,,1209.0550930998288,1209.0550930998288,1209.0550930998288,1209.0550930998288,1209.0550930998288,down,1.0770741000305861,0,0,0,99,0.16,-0.4,down,0.9981363001279533,,,,,,,,,,,,,,,,,,,,,,,,,,,,,,,,,,,,,,,,,,,,,,,,,,,,,,,,,,,,3J4E52,train_y,blue_star,top_left,2025-09-13_13h26.49.875,HideSeek_v1,2022.2.5,59.92293904378206,
,4,6,4,2,0,-4,65,,train_dim1_1,11,30,,,,2,0,2,0,,,,,,,,,0,0,0,0,0,10,10,10,6,0,6,0,,,,,,,,,,,,,,,,,,,,,,,,,,,,,,,,,,,,,,,,,,,,,,,,,,,,,,,,,,,,,,,,30,,,,,,,,1210.1416250998154,1210.1416250998154,1210.1416250998154,1210.1416250998154,1210.1416250998154,return,1.0412175001110882,0,0,0,0,0.16,-0.4,return,0.9651741001289338,-18,6,0.16,-0.4,,,,,,,,,,,,,,,,,,,,,,,,,,,,,,,,,,,,,,,,,,,,,,,,,,,,,,,,3J4E52,train_y,blue_star,top_left,2025-09-13_13h26.49.875,HideSeek_v1,2022.2.5,59.92293904378206,
,0,5,0,5,0,0,61,,train_dim1_1,12,30,,,,2,0,2,0,,,,,,,,,0,0,0,0,0,11,11,11,0,0,0,0,,,,,,,,,,,,,,,,,,,,,,,,,stimuli/alien_stimuli/61.png,,,,,,,,,,,,,,,,,,,,,,,,,,,,,stimuli/alien_stimuli/65.png,65,4,13,,,,,,,30,,,,,,,,1218.6499493999872,1218.6499493999872,1218.6499493999872,1218.6499493999872,1218.6499493999872,down,4.493251100182533,0,0,0,99,-0.16,-0.08,down,4.412174800178036,,,,,1217.0979612998199,1218.6499493999872,0.16,-0.24,0.32,0.0,-0.07999999999999999,0.16,0.16,0.16,-0.24,1212.74760230002,1212.74760230002,1212.74760230002,1212.74760230002,1212.74760230002,1212.74760230002,1212.74760230002,1212.74760230002,1212.7440007499185,4.4563098000362515,return,4.32917940011248,,,,,,,,,,,,,,,,,,,,,,,,,,,,,,,,,3J4E52,train_y,blue_star,top_left,2025-09-13_13h26.49.875,HideSeek_v1,2022.2.5,59.92293904378206,
,0,5,0,5,0,0,61,,train_dim1_1,12,30,,,,2,0,2,0,,,,,,,,,0,0,0,0,0,11,11,11,1,0,1,0,,,,,,,,,,,,,,,,,,,,,,,,,,,,,,,,,,,,,,,,,,,,,,,,,,,,,,,,,,,,,,,,30,,,,,,,,1223.1537525998428,1223.1537525998428,1223.1537525998428,1223.1537525998428,1223.1537525998428,down,0.27334260009229183,0,0,0,99,-0.16,-0.16,down,0.1999262000899762,,,,,,,,,,,,,,,,,,,,,,,,,,,,,,,,,,,,,,,,,,,,,,,,,,,,,,,,,,,,3J4E52,train_y,blue_star,top_left,2025-09-13_13h26.49.875,HideSeek_v1,2022.2.5,59.92293904378206,
,0,5,0,5,0,0,61,,train_dim1_1,12,30,,,,2,0,2,0,,,,,,,,,0,0,0,0,0,11,11,11,2,0,2,0,,,,,,,,,,,,,,,,,,,,,,,,,,,,,,,,,,,,,,,,,,,,,,,,,,,,,,,,,,,,,,,,30,,,,,,,,1223.436595399864,1223.436595399864,1223.436595399864,1223.436595399864,1223.436595399864,down,0.2240929000545293,0,0,0,99,-0.16,-0.24,down,0.14505530009046197,,,,,,,,,,,,,,,,,,,,,,,,,,,,,,,,,,,,,,,,,,,,,,,,,,,,,,,,,,,,3J4E52,train_y,blue_star,top_left,2025-09-13_13h26.49.875,HideSeek_v1,2022.2.5,59.92293904378206,
,0,5,0,5,0,0,61,,train_dim1_1,12,30,,,,2,0,2,0,,,,,,,,,0,0,0,0,0,11,11,11,3,0,3,0,,,,,,,,,,,,,,,,,,,,,,,,,,,,,,,,,,,,,,,,,,,,,,,,,,,,,,,,,,,,,,,,30,,,,,,,,1223.6672354999464,1223.6672354999464,1223.6672354999464,1223.6672354999464,1223.6672354999464,down,0.2266639000736177,0,0,0,99,-0.16,-0.32,down,0.145545800216496,,,,,,,,,,,,,,,,,,,,,,,,,,,,,,,,,,,,,,,,,,,,,,,,,,,,,,,,,,,,3J4E52,train_y,blue_star,top_left,2025-09-13_13h26.49.875,HideSeek_v1,2022.2.5,59.92293904378206,
,0,5,0,5,0,0,61,,train_dim1_1,12,30,,,,2,0,2,0,,,,,,,,,0,0,0,0,0,11,11,11,4,0,4,0,,,,,,,,,,,,,,,,,,,,,,,,,,,,,,,,,,,,,,,,,,,,,,,,,,,,,,,,,,,,,,,,30,,,,,,,,1223.9024563999847,1223.9024563999847,1223.9024563999847,1223.9024563999847,1223.9024563999847,right,1.41088470001705,0,0,0,99,-0.08,-0.32,right,1.3283748000394553,,,,,,,,,,,,,,,,,,,,,,,,,,,,,,,,,,,,,,,,,,,,,,,,,,,,,,,,,,,,3J4E52,train_y,blue_star,top_left,2025-09-13_13h26.49.875,HideSeek_v1,2022.2.5,59.92293904378206,
,0,5,0,5,0,0,61,,train_dim1_1,12,30,,,,2,0,2,0,,,,,,,,,0,0,0,0,0,11,11,11,5,0,5,0,,,,,,,,,,,,,,,,,,,,,,,,,,,,,,,,,,,,,,,,,,,,,,,,,,,,,,,,,,,,,,,,30,,,,,,,,1225.3188709998503,1225.3188709998503,1225.3188709998503,1225.3188709998503,1225.3188709998503,right,0.20938030001707375,0,0,0,99,0.0,-0.32,right,0.1347320000641048,,,,,,,,,,,,,,,,,,,,,,,,,,,,,,,,,,,,,,,,,,,,,,,,,,,,,,,,,,,,3J4E52,train_y,blue_star,top_left,2025-09-13_13h26.49.875,HideSeek_v1,2022.2.5,59.92293904378206,
,0,5,0,5,0,0,61,,train_dim1_1,12,30,,,,2,0,2,0,,,,,,,,,0,0,0,0,0,11,11,11,6,0,6,0,,,,,,,,,,,,,,,,,,,,,,,,,,,,,,,,,,,,,,,,,,,,,,,,,,,,,,,,,,,,,,,,30,,,,,,,,1225.537910199957,1225.537910199957,1225.537910199957,1225.537910199957,1225.537910199957,right,0.20846350002102554,0,0,0,99,0.08,-0.32,right,0.12945310003124177,,,,,,,,,,,,,,,,,,,,,,,,,,,,,,,,,,,,,,,,,,,,,,,,,,,,,,,,,,,,3J4E52,train_y,blue_star,top_left,2025-09-13_13h26.49.875,HideSeek_v1,2022.2.5,59.92293904378206,
,0,5,0,5,0,0,61,,train_dim1_1,12,30,,,,2,0,2,0,,,,,,,,,0,0,0,0,0,11,11,11,7,0,7,0,,,,,,,,,,,,,,,,,,,,,,,,,,,,,,,,,,,,,,,,,,,,,,,,,,,,,,,,,,,,,,,,30,,,,,,,,1225.753854099894,1225.753854099894,1225.753854099894,1225.753854099894,1225.753854099894,up,1.4271122999489307,0,0,0,99,0.08,-0.24,up,1.3524768000934273,,,,,,,,,,,,,,,,,,,,,,,,,,,,,,,,,,,,,,,,,,,,,,,,,,,,,,,,,,,,3J4E52,train_y,blue_star,top_left,2025-09-13_13h26.49.875,HideSeek_v1,2022.2.5,59.92293904378206,
,0,5,0,5,0,0,61,,train_dim1_1,12,30,,,,2,0,2,0,,,,,,,,,0,0,0,0,0,11,11,11,8,0,8,0,,,,,,,,,,,,,,,,,,,,,,,,,,,,,,,,,,,,,,,,,,,,,,,,,,,,,,,,,,,,,,,,30,,,,,,,,1227.1860044999048,1227.1860044999048,1227.1860044999048,1227.1860044999048,1227.1860044999048,up,0.2765744999051094,0,0,0,99,0.08,-0.15999999999999998,up,0.1936726002022624,,,,,,,,,,,,,,,,,,,,,,,,,,,,,,,,,,,,,,,,,,,,,,,,,,,,,,,,,,,,3J4E52,train_y,blue_star,top_left,2025-09-13_13h26.49.875,HideSeek_v1,2022.2.5,59.92293904378206,
,0,5,0,5,0,0,61,,train_dim1_1,12,30,,,,2,0,2,0,,,,,,,,,0,0,0,0,0,11,11,11,9,0,9,0,,,,,,,,,,,,,,,,,,,,,,,,,,,,,,,,,,,,,,,,,,,,,,,,,,,,,,,,,,,,,,,,30,,,,,,,,1227.470762199955,1227.470762199955,1227.470762199955,1227.470762199955,1227.470762199955,up,0.17667170008644462,0,0,0,99,0.08,-0.07999999999999997,up,0.10167160001583397,,,,,,,,,,,,,,,,,,,,,,,,,,,,,,,,,,,,,,,,,,,,,,,,,,,,,,,,,,,,3J4E52,train_y,blue_star,top_left,2025-09-13_13h26.49.875,HideSeek_v1,2022.2.5,59.92293904378206,
,0,5,0,5,0,0,61,,train_dim1_1,12,30,,,,2,0,2,0,,,,,,,,,0,0,0,0,0,11,11,11,10,0,10,0,,,,,,,,,,,,,,,,,,,,,,,,,,,,,,,,,,,,,,,,,,,,,,,,,,,,,,,,,,,,,,,,30,,,,,,,,1227.6533878999762,1227.6533878999762,1227.6533878999762,1227.6533878999762,1227.6533878999762,up,0.8937962001655251,0,0,0,99,0.08,2.7755575615628914e-17,up,0.8115318999625742,,,,,,,,,,,,,,,,,,,,,,,,,,,,,,,,,,,,,,,,,,,,,,,,,,,,,,,,,,,,3J4E52,train_y,blue_star,top_left,2025-09-13_13h26.49.875,HideSeek_v1,2022.2.5,59.92293904378206,
,0,5,0,5,0,0,61,,train_dim1_1,12,30,,,,2,0,2,0,,,,,,,,,0,0,0,0,0,11,11,11,11,0,11,0,,,,,,,,,,,,,,,,,,,,,,,,,,,,,,,,,,,,,,,,,,,,,,,,,,,,,,,,,,,,,,,,30,,,,,,,,1228.5536143998615,1228.5536143998615,1228.5536143998615,1228.5536143998615,1228.5536143998615,left,1.4438121998682618,0,0,0,99,0.0,2.7755575615628914e-17,left,1.3698215002659708,,,,,,,,,,,,,,,,,,,,,,,,,,,,,,,,,,,,,,,,,,,,,,,,,,,,,,,,,,,,3J4E52,train_y,blue_star,top_left,2025-09-13_13h26.49.875,HideSeek_v1,2022.2.5,59.92293904378206,
,0,5,0,5,0,0,61,,train_dim1_1,12,30,,,,2,0,2,0,,,,,,,,,0,0,0,0,0,11,11,11,12,0,12,0,,,,,,,,,,,,,,,,,,,,,,,,,,,,,,,,,,,,,,,,,,,,,,,,,,,,,,,,,,,,,,,,30,,,,,,,,1230.0048679998145,1230.0048679998145,1230.0048679998145,1230.0048679998145,1230.0048679998145,left,0.3436111998744309,0,0,0,99,-0.08,2.7755575615628914e-17,left,0.2559628002345562,,,,,,,,,,,,,,,,,,,,,,,,,,,,,,,,,,,,,,,,,,,,,,,,,,,,,,,,,,,,3J4E52,train_y,blue_star,top_left,2025-09-13_13h26.49.875,HideSeek_v1,2022.2.5,59.92293904378206,
,0,5,0,5,0,0,61,,train_dim1_1,12,30,,,,2,0,2,0,,,,,,,,,0,0,0,0,0,11,11,11,13,0,13,0,,,,,,,,,,,,,,,,,,,,,,,,,,,,,,,,,,,,,,,,,,,,,,,,,,,,,,,,,,,,,,,,30,,,,,,,,1230.3564122999087,1230.3564122999087,1230.3564122999087,1230.3564122999087,1230.3564122999087,left,0.5934654998127371,0,0,0,99,-0.16,2.7755575615628914e-17,left,0.504640799947083,,,,,,,,,,,,,,,,,,,,,,,,,,,,,,,,,,,,,,,,,,,,,,,,,,,,,,,,,,,,3J4E52,train_y,blue_star,top_left,2025-09-13_13h26.49.875,HideSeek_v1,2022.2.5,59.92293904378206,
,0,5,0,5,0,0,61,,train_dim1_1,12,30,,,,2,0,2,0,,,,,,,,,0,0,0,0,0,11,11,11,14,0,14,0,,,,,,,,,,,,,,,,,,,,,,,,,,,,,,,,,,,,,,,,,,,,,,,,,,,,,,,,,,,,,,,,30,,,,,,,,1230.956555399811,1230.956555399811,1230.956555399811,1230.956555399811,1230.956555399811,return,1.310596200171858,1,0,0,1,-0.16,2.7755575615628914e-17,return,1.2246289001777768,-18,6,-0.16,2.7755575615628914e-17,,,,,,,,,,,,,,,,,,,,,,,,,,,,,,,,,,,,,,,,,,,,,,,,,,,,,,,,3J4E52,train_y,blue_star,top_left,2025-09-13_13h26.49.875,HideSeek_v1,2022.2.5,59.92293904378206,
,4,8,4,7,0,-1,62,,train_dim1_1,13,30,,,,2,0,2,0,,,,,,,,,0,0,0,0,0,12,12,12,0,0,0,0,,,,,,,,,,,,,,,,,,,,,,,,,stimuli/alien_stimuli/62.png,,,,,,,,,,,,,,,,,,,,,,,,,,,,,stimuli/alien_stimuli/61.png,61,0,14,,,,,,,30,,,,,,,,1242.153772499878,1242.153772499878,1242.153772499878,1242.153772499878,1242.153772499878,return,2.708104900084436,1,1,0,0,0.16,0.24,return,2.622159299906343,-18,6,0.16,0.24,1240.6006837999448,1242.153772499878,-0.16,0,0.0,0.0,0.0,-0.16,-0.16,-0.16,0,1233.8339167998638,1233.8339167998638,1233.8339167998638,1233.8339167998638,1233.8339167998638,1233.8339167998638,1233.8339167998638,1233.8339167998638,1233.8281577499815,6.874822299927473,return,6.746615800075233,,,,,,,,,,,,,,,,,,,,,,,,,,,,,,,,,3J4E52,train_y,blue_star,top_left,2025-09-13_13h26.49.875,HideSeek_v1,2022.2.5,59.92293904378206,
,2,7,2,2,0,-5,66,,train_dim1_1,14,30,,,,2,0,2,0,,,,,,,,,0,0,0,0,0,13,13,13,0,0,0,0,,,,,,,,,,,,,,,,,,,,,,,,,stimuli/alien_stimuli/66.png,,,,,,,,,,,,,,,,,,,,,,,,,,,,,stimuli/alien_stimuli/62.png,62,4,15,,,,,,,30,,,,,,,,1250.9768922999501,1250.9768922999501,1250.9768922999501,1250.9768922999501,1250.9768922999501,right,3.0750851999036968,1,1,0,99,0.08,0.16,right,3.001689299941063,,,,,1249.4246376999654,1250.9768922999501,0.16,0.16,0.08,0.0,0.2,0.16,0.16,0.16,0.16,1246.4283831999637,1246.4283831999637,1246.4283831999637,1246.4283831999637,1246.4283831999637,1246.4283831999637,1246.4283831999637,1246.4283831999637,1246.422132750065,3.105008600046858,return,2.9804386999458075,,,,,,,,,,,,,,,,,,,,,,,,,,,,,,,,,3J4E52,train_y,blue_star,top_left,2025-09-13_13h26.49.875,HideSeek_v1,2022.2.5,59.92293904378206,
,2,7,2,2,0,-5,66,,train_dim1_1,14,30,,,,2,0,2,0,,,,,,,,,0,0,0,0,0,13,13,13,1,0,1,0,,,,,,,,,,,,,,,,,,,,,,,,,,,,,,,,,,,,,,,,,,,,,,,,,,,,,,,,,,,,,,,,30,,,,,,,,1254.0589989998844,1254.0589989998844,1254.0589989998844,1254.0589989998844,1254.0589989998844,left,4.062564400024712,1,1,0,99,0.0,0.16,left,3.990453700069338,,,,,,,,,,,,,,,,,,,,,,,,,,,,,,,,,,,,,,,,,,,,,,,,,,,,,,,,,,,,3J4E52,train_y,blue_star,top_left,2025-09-13_13h26.49.875,HideSeek_v1,2022.2.5,59.92293904378206,
,2,7,2,2,0,-5,66,,train_dim1_1,14,30,,,,2,0,2,0,,,,,,,,,0,0,0,0,0,13,13,13,2,0,2,0,,,,,,,,,,,,,,,,,,,,,,,,,,,,,,,,,,,,,,,,,,,,,,,,,,,,,,,,,,,,,,,,30,,,,,,,,1258.129131600028,1258.129131600028,1258.129131600028,1258.129131600028,1258.129131600028,down,1.310429299948737,1,1,0,99,0.0,0.08,down,1.2214891000185162,,,,,,,,,,,,,,,,,,,,,,,,,,,,,,,,,,,,,,,,,,,,,,,,,,,,,,,,,,,,3J4E52,train_y,blue_star,top_left,2025-09-13_13h26.49.875,HideSeek_v1,2022.2.5,59.92293904378206,
,2,7,2,2,0,-5,66,,train_dim1_1,14,30,,,,2,0,2,0,,,,,,,,,0,0,0,0,0,13,13,13,3,0,3,0,,,,,,,,,,,,,,,,,,,,,,,,,,,,,,,,,,,,,,,,,,,,,,,,,,,,,,,,,,,,,,,,30,,,,,,,,1259.4460440999828,1259.4460440999828,1259.4460440999828,1259.4460440999828,1259.4460440999828,return,1.0937490998767316,1,0,0,0,0.0,0.08,return,1.013006899971515,-19,6,0.0,0.08,,,,,,,,,,,,,,,,,,,,,,,,,,,,,,,,,,,,,,,,,,,,,,,,,,,,,,,,3J4E52,train_y,blue_star,top_left,2025-09-13_13h26.49.875,HideSeek_v1,2022.2.5,59.92293904378206,
,1,9,1,6,0,-3,64,,train_dim1_1,15,30,,,,2,0,2,0,,,,,,,,,0,0,0,0,0,14,14,14,0,0,0,0,,,,,,,,,,,,,,,,,,,,,,,,,stimuli/alien_stimuli/64.png,,,,,,,,,,,,,,,,,,,,,,,,,,,,,stimuli/alien_stimuli/66.png,66,2,16,,,,,,,30,,,,,,,,1268.5413503998425,1268.5413503998425,1268.5413503998425,1268.5413503998425,1268.5413503998425,return,3.241607200121507,1,0,0,0,-0.08,0.32,return,3.1568567999638617,-19,6,-0.08,0.32,1266.9892295999452,1268.5413503998425,0,-0.24,0.4,0.0,-0.039999999999999994,0,0.0,0,-0.24,1262.108414700022,1262.108414700022,1262.108414700022,1262.108414700022,1262.108414700022,1262.108414700022,1262.108414700022,1262.108414700022,1262.101777449972,4.989745999919251,return,4.862530900165439,,,,,,,,,,,,,,,,,,,,,,,,,,,,,,,,,3J4E52,train_y,blue_star,top_left,2025-09-13_13h26.49.875,HideSeek_v1,2022.2.5,59.92293904378206,
,4,5,4,1,0,-4,65,,train_dim1_1,16,30,,,,2,0,2,0,,,,,,,,,0,0,0,0,0,15,15,15,0,0,0,0,,,,,,,,,,,,,,,,,,,,,,,,,stimuli/alien_stimuli/65.png,,,,,,,,,,,,,,,,,,,,,,,,,,,,,stimuli/alien_stimuli/64.png,64,1,17,,,,,,,30,,,,,,,,1279.385720100021,1279.385720100021,1279.385720100021,1279.385720100021,1279.385720100021,down,33.01580860000104,1,0,0,99,0.16,-0.08,down,32.92593640019186,,,,,1277.8314068999607,1279.385720100021,-0.08,0.08,0.24,0.0,0.2,-0.08,-0.08,-0.08,0.08,1273.3515318999998,1273.3515318999998,1273.3515318999998,1273.3515318999998,1273.3515318999998,1273.3515318999998,1273.3515318999998,1273.3515318999998,1273.3443242500302,4.5897085999604315,return,4.447977000148967,,,,,,,,,,,,,,,,,,,,,,,,,,,,,,,,,3J4E52,train_y,blue_star,top_left,2025-09-13_13h26.49.875,HideSeek_v1,2022.2.5,59.92293904378206,
,4,5,4,1,0,-4,65,,train_dim1_1,16,30,,,,2,0,2,0,,,,,,,,,0,0,0,0,0,15,15,15,1,0,1,0,,,,,,,,,,,,,,,,,,,,,,,,,,,,,,,,,,,,,,,,,,,,,,,,,,,,,,,,,,,,,,,,30,,,,,,,,1312.4273402998224,1312.4273402998224,1312.4273402998224,1312.4273402998224,1312.4273402998224,down,0.927012300118804,1,0,0,99,0.16,-0.16,down,0.8344406001269817,,,,,,,,,,,,,,,,,,,,,,,,,,,,,,,,,,,,,,,,,,,,,,,,,,,,,,,,,,,,3J4E52,train_y,blue_star,top_left,2025-09-13_13h26.49.875,HideSeek_v1,2022.2.5,59.92293904378206,
,4,5,4,1,0,-4,65,,train_dim1_1,16,30,,,,2,0,2,0,,,,,,,,,0,0,0,0,0,15,15,15,2,0,2,0,,,,,,,,,,,,,,,,,,,,,,,,,,,,,,,,,,,,,,,,,,,,,,,,,,,,,,,,,,,,,,,,30,,,,,,,,1313.3413660000078,1313.3413660000078,1313.3413660000078,1313.3413660000078,1313.3413660000078,down,0.7101606000214815,1,0,0,99,0.16,-0.24,down,0.6361137002240866,,,,,,,,,,,,,,,,,,,,,,,,,,,,,,,,,,,,,,,,,,,,,,,,,,,,,,,,,,,,3J4E52,train_y,blue_star,top_left,2025-09-13_13h26.49.875,HideSeek_v1,2022.2.5,59.92293904378206,
,4,5,4,1,0,-4,65,,train_dim1_1,16,30,,,,2,0,2,0,,,,,,,,,0,0,0,0,0,15,15,15,3,0,3,0,,,,,,,,,,,,,,,,,,,,,,,,,,,,,,,,,,,,,,,,,,,,,,,,,,,,,,,,,,,,,,,,30,,,,,,,,1314.0628973999992,1314.0628973999992,1314.0628973999992,1314.0628973999992,1314.0628973999992,return,0.9072412000969052,1,1,0,0,0.16,-0.24,return,0.820350400172174,-22,6,0.16,-0.24,,,,,,,,,,,,,,,,,,,,,,,,,,,,,,,,,,,,,,,,,,,,,,,,,,,,,,,,3J4E52,train_y,blue_star,top_left,2025-09-13_13h26.49.875,HideSeek_v1,2022.2.5,59.92293904378206,
,3,8,3,5,0,-3,64,,train_dim1_1,17,30,,,,2,0,2,0,,,,,,,,,0,0,0,0,0,16,16,16,0,0,0,0,,,,,,,,,,,,,,,,,,,,,,,,,stimuli/alien_stimuli/64.png,,,,,,,,,,,,,,,,,,,,,,,,,,,,,stimuli/alien_stimuli/65.png,65,4,18,,,,,,,30,,,,,,,,1322.469258399913,1322.469258399913,1322.469258399913,1322.469258399913,1322.469258399913,return,3.508820799877867,1,0,0,0,0.08,0.24,return,3.4358311002142727,-22,6,0.08,0.24,1320.9172248998657,1322.469258399913,0.16,-0.32,0.32,0.0,-0.16,0.16,0.16,0.16,-0.32,1316.5342359999195,1316.5342359999195,1316.5342359999195,1316.5342359999195,1316.5342359999195,1316.5342359999195,1316.5342359999195,1316.5342359999195,1316.530129150045,4.489359500119463,return,4.351044800132513,,,,,,,,,,,,,,,,,,,,,,,,,,,,,,,,,3J4E52,train_y,blue_star,top_left,2025-09-13_13h26.49.875,HideSeek_v1,2022.2.5,59.92293904378206,
,2,6,2,6,0,0,61,,train_dim1_1,18,30,,,,2,0,2,0,,,,,,,,,0,0,0,0,0,17,17,17,0,0,0,0,,,,,,,,,,,,,,,,,,,,,,,,,stimuli/alien_stimuli/61.png,,,,,,,,,,,,,,,,,,,,,,,,,,,,,stimuli/alien_stimuli/64.png,64,3,19,,,,,,,30,,,,,,,,1333.3448918999638,1333.3448918999638,1333.3448918999638,1333.3448918999638,1333.3448918999638,down,2.1078220999334008,1,0,0,99,0,0.0,down,2.034126400249079,,,,,1331.792736100033,1333.3448918999638,0.08,0,0.24,0.0,0.12,0.08,0.08,0.08,0,1327.529038099805,1327.529038099805,1327.529038099805,1327.529038099805,1327.529038099805,1327.529038099805,1327.529038099805,1327.529038099805,1327.5225514000747,4.356273500015959,return,4.243738800287247,,,,,,,,,,,,,,,,,,,,,,,,,,,,,,,,,3J4E52,train_y,blue_star,top_left,2025-09-13_13h26.49.875,HideSeek_v1,2022.2.5,59.92293904378206,
,2,6,2,6,0,0,61,,train_dim1_1,18,30,,,,2,0,2,0,,,,,,,,,0,0,0,0,0,17,17,17,1,0,1,0,,,,,,,,,,,,,,,,,,,,,,,,,,,,,,,,,,,,,,,,,,,,,,,,,,,,,,,,,,,,,,,,30,,,,,,,,1335.4608958000317,1335.4608958000317,1335.4608958000317,1335.4608958000317,1335.4608958000317,down,0.5263984999619424,1,0,0,99,0,-0.08,down,0.4418592001311481,,,,,,,,,,,,,,,,,,,,,,,,,,,,,,,,,,,,,,,,,,,,,,,,,,,,,,,,,,,,3J4E52,train_y,blue_star,top_left,2025-09-13_13h26.49.875,HideSeek_v1,2022.2.5,59.92293904378206,
,2,6,2,6,0,0,61,,train_dim1_1,18,30,,,,2,0,2,0,,,,,,,,,0,0,0,0,0,17,17,17,2,0,2,0,,,,,,,,,,,,,,,,,,,,,,,,,,,,,,,,,,,,,,,,,,,,,,,,,,,,,,,,,,,,,,,,30,,,,,,,,1335.995145499939,1335.995145499939,1335.995145499939,1335.995145499939,1335.995145499939,down,0.7766340000089258,1,0,0,99,0,-0.16,down,0.6923285000957549,,,,,,,,,,,,,,,,,,,,,,,,,,,,,,,,,,,,,,,,,,,,,,,,,,,,,,,,,,,,3J4E52,train_y,blue_star,top_left,2025-09-13_13h26.49.875,HideSeek_v1,2022.2.5,59.92293904378206,
,2,6,2,6,0,0,61,,train_dim1_1,18,30,,,,2,0,2,0,,,,,,,,,0,0,0,0,0,17,17,17,3,0,3,0,,,,,,,,,,,,,,,,,,,,,,,,,,,,,,,,,,,,,,,,,,,,,,,,,,,,,,,,,,,,,,,,30,,,,,,,,1336.7798330998048,1336.7798330998048,1336.7798330998048,1336.7798330998048,1336.7798330998048,down,0.5910785000305623,1,0,0,99,0,-0.24,down,0.507953500142321,,,,,,,,,,,,,,,,,,,,,,,,,,,,,,,,,,,,,,,,,,,,,,,,,,,,,,,,,,,,3J4E52,train_y,blue_star,top_left,2025-09-13_13h26.49.875,HideSeek_v1,2022.2.5,59.92293904378206,
,2,6,2,6,0,0,61,,train_dim1_1,18,30,,,,2,0,2,0,,,,,,,,,0,0,0,0,0,17,17,17,4,0,4,0,,,,,,,,,,,,,,,,,,,,,,,,,,,,,,,,,,,,,,,,,,,,,,,,,,,,,,,,,,,,,,,,30,,,,,,,,1337.381723499857,1337.381723499857,1337.381723499857,1337.381723499857,1337.381723499857,down,0.5569104000460356,1,0,0,99,0,-0.32,down,0.4824205001350492,,,,,,,,,,,,,,,,,,,,,,,,,,,,,,,,,,,,,,,,,,,,,,,,,,,,,,,,,,,,3J4E52,train_y,blue_star,top_left,2025-09-13_13h26.49.875,HideSeek_v1,2022.2.5,59.92293904378206,
,2,6,2,6,0,0,61,,train_dim1_1,18,30,,,,2,0,2,0,,,,,,,,,0,0,0,0,0,17,17,17,5,0,5,0,,,,,,,,,,,,,,,,,,,,,,,,,,,,,,,,,,,,,,,,,,,,,,,,,,,,,,,,,,,,,,,,30,,,,,,,,1337.9462850999553,1337.9462850999553,1337.9462850999553,1337.9462850999553,1337.9462850999553,return,0.8107137000188231,1,0,0,0,0,-0.32,return,0.7266111001372337,-27,6,0,-0.32,,,,,,,,,,,,,,,,,,,,,,,,,,,,,,,,,,,,,,,,,,,,,,,,,,,,,,,,3J4E52,train_y,blue_star,top_left,2025-09-13_13h26.49.875,HideSeek_v1,2022.2.5,59.92293904378206,
,0,9,0,8,0,-1,62,,train_dim1_1,19,30,,,,2,0,2,0,,,,,,,,,0,0,0,0,0,18,18,18,0,0,0,0,,,,,,,,,,,,,,,,,,,,,,,,,stimuli/alien_stimuli/62.png,,,,,,,,,,,,,,,,,,,,,,,,,,,,,stimuli/alien_stimuli/61.png,61,2,20,,,,,,,30,,,,,,,,1344.3373107998632,1344.3373107998632,1344.3373107998632,1344.3373107998632,1344.3373107998632,down,1.8239647999871522,1,0,0,99,-0.16,0.24,down,1.7458735001273453,,,,,1342.785233899951,1344.3373107998632,0,0.08,0.0,0.0,0.08,0,0.0,0,0.08,1340.3225357998163,1340.3225357998163,1340.3225357998163,1340.3225357998163,1340.3225357998163,1340.3225357998163,1340.3225357998163,1340.3225357998163,1340.3166400499408,2.571215800009668,return,2.438172500114888,,,,,,,,,,,,,,,,,,,,,,,,,,,,,,,,,3J4E52,train_y,blue_star,top_left,2025-09-13_13h26.49.875,HideSeek_v1,2022.2.5,59.92293904378206,
,0,9,0,8,0,-1,62,,train_dim1_1,19,30,,,,2,0,2,0,,,,,,,,,0,0,0,0,0,18,18,18,1,0,1,0,,,,,,,,,,,,,,,,,,,,,,,,,,,,,,,,,,,,,,,,,,,,,,,,,,,,,,,,,,,,,,,,30,,,,,,,,1346.168823799817,1346.168823799817,1346.168823799817,1346.168823799817,1346.168823799817,return,2.5612158000003546,2,0,0,1,-0.16,0.24,return,2.473199900239706,-28,6,-0.16,0.24,,,,,,,,,,,,,,,,,,,,,,,,,,,,,,,,,,,,,,,,,,,,,,,,,,,,,,,,3J4E52,train_y,blue_star,top_left,2025-09-13_13h26.49.875,HideSeek_v1,2022.2.5,59.92293904378206,
,2,5,2,0,0,-5,66,,train_dim1_1,20,30,,,,2,0,2,0,,,,,,,,,0,0,0,0,0,19,19,19,0,0,0,0,,,,,,,,,,,,,,,,,,,,,,,,,stimuli/alien_stimuli/66.png,,,,,,,,,,,,,,,,,,,,,,,,,,,,,stimuli/alien_stimuli/62.png,62,0,21,,,,,,,30,,,,,,,,1355.5474479999393,1355.5474479999393,1355.5474479999393,1355.5474479999393,1355.5474479999393,return,2.574817300075665,2,0,0,0,0,0,return,2.4992812999989837,-28,6,0,0,1353.9949074999895,1355.5474479999393,-0.16,0.24,0.08,0.0,0.28,-0.16,-0.16,-0.16,0.24,1350.2810615999624,1350.2810615999624,1350.2810615999624,1350.2810615999624,1350.2810615999624,1350.2810615999624,1350.2810615999624,1350.2810615999624,1350.2747365000657,3.8057856999803334,return,3.681208000285551,,,,,,,,,,,,,,,,,,,,,,,,,,,,,,,,,3J4E52,train_y,blue_star,top_left,2025-09-13_13h26.49.875,HideSeek_v1,2022.2.5,59.92293904378206,
,2,9,2,5,0,-4,65,,train_dim1_1,21,30,,,,2,0,2,0,,,,,,,,,0,0,0,0,0,20,20,20,0,0,0,0,,,,,,,,,,,,,,,,,,,,,,,,,stimuli/alien_stimuli/65.png,,,,,,,,,,,,,,,,,,,,,,,,,,,,,stimuli/alien_stimuli/66.png,66,2,22,,,,,,,30,,,,,,,,1364.9207635999192,1364.9207635999192,1364.9207635999192,1364.9207635999192,1364.9207635999192,down,1.8574566000606865,2,0,0,99,0,0.24,down,1.7839835002087057,,,,,1363.3693856999744,1364.9207635999192,0,-0.4,0.4,0.0,-0.2,0,0.0,0,-0.4,1359.6748171998188,1359.6748171998188,1359.6748171998188,1359.6748171998188,1359.6748171998188,1359.6748171998188,1359.6748171998188,1359.6748171998188,1359.6660198999568,3.7888034000061452,return,3.6773319002240896,,,,,,,,,,,,,,,,,,,,,,,,,,,,,,,,,3J4E52,train_y,blue_star,top_left,2025-09-13_13h26.49.875,HideSeek_v1,2022.2.5,59.92293904378206,
,2,9,2,5,0,-4,65,,train_dim1_1,21,30,,,,2,0,2,0,,,,,,,,,0,0,0,0,0,20,20,20,1,0,1,0,,,,,,,,,,,,,,,,,,,,,,,,,,,,,,,,,,,,,,,,,,,,,,,,,,,,,,,,,,,,,,,,30,,,,,,,,1366.785317899892,1366.785317899892,1366.785317899892,1366.785317899892,1366.785317899892,down,0.2761339000426233,2,0,0,99,0,0.15999999999999998,down,0.201217400142923,,,,,,,,,,,,,,,,,,,,,,,,,,,,,,,,,,,,,,,,,,,,,,,,,,,,,,,,,,,,3J4E52,train_y,blue_star,top_left,2025-09-13_13h26.49.875,HideSeek_v1,2022.2.5,59.92293904378206,
,2,9,2,5,0,-4,65,,train_dim1_1,21,30,,,,2,0,2,0,,,,,,,,,0,0,0,0,0,20,20,20,2,0,2,0,,,,,,,,,,,,,,,,,,,,,,,,,,,,,,,,,,,,,,,,,,,,,,,,,,,,,,,,,,,,,,,,30,,,,,,,,1367.0684738999698,1367.0684738999698,1367.0684738999698,1367.0684738999698,1367.0684738999698,down,0.22697990015149117,2,0,0,99,0,0.07999999999999997,down,0.14649510011076927,,,,,,,,,,,,,,,,,,,,,,,,,,,,,,,,,,,,,,,,,,,,,,,,,,,,,,,,,,,,3J4E52,train_y,blue_star,top_left,2025-09-13_13h26.49.875,HideSeek_v1,2022.2.5,59.92293904378206,
,2,9,2,5,0,-4,65,,train_dim1_1,21,30,,,,2,0,2,0,,,,,,,,,0,0,0,0,0,20,20,20,3,0,3,0,,,,,,,,,,,,,,,,,,,,,,,,,,,,,,,,,,,,,,,,,,,,,,,,,,,,,,,,,,,,,,,,30,,,,,,,,1367.3034623998683,1367.3034623998683,1367.3034623998683,1367.3034623998683,1367.3034623998683,down,0.2756485000718385,2,0,0,99,0,-2.7755575615628914e-17,down,0.19554920005612075,,,,,,,,,,,,,,,,,,,,,,,,,,,,,,,,,,,,,,,,,,,,,,,,,,,,,,,,,,,,3J4E52,train_y,blue_star,top_left,2025-09-13_13h26.49.875,HideSeek_v1,2022.2.5,59.92293904378206,
,2,9,2,5,0,-4,65,,train_dim1_1,21,30,,,,2,0,2,0,,,,,,,,,0,0,0,0,0,20,20,20,4,0,4,0,,,,,,,,,,,,,,,,,,,,,,,,,,,,,,,,,,,,,,,,,,,,,,,,,,,,,,,,,,,,,,,,30,,,,,,,,1367.589496199973,1367.589496199973,1367.589496199973,1367.589496199973,1367.589496199973,down,0.6912049001548439,2,0,0,99,0,-0.08000000000000003,down,0.6043991001788527,,,,,,,,,,,,,,,,,,,,,,,,,,,,,,,,,,,,,,,,,,,,,,,,,,,,,,,,,,,,3J4E52,train_y,blue_star,top_left,2025-09-13_13h26.49.875,HideSeek_v1,2022.2.5,59.92293904378206,
,2,9,2,5,0,-4,65,,train_dim1_1,21,30,,,,2,0,2,0,,,,,,,,,0,0,0,0,0,20,20,20,5,0,5,0,,,,,,,,,,,,,,,,,,,,,,,,,,,,,,,,,,,,,,,,,,,,,,,,,,,,,,,,,,,,,,,,30,,,,,,,,1368.2891645999625,1368.2891645999625,1368.2891645999625,1368.2891645999625,1368.2891645999625,down,0.29063100018538535,2,0,0,99,0,-0.16000000000000003,down,0.21767220017500222,,,,,,,,,,,,,,,,,,,,,,,,,,,,,,,,,,,,,,,,,,,,,,,,,,,,,,,,,,,,3J4E52,train_y,blue_star,top_left,2025-09-13_13h26.49.875,HideSeek_v1,2022.2.5,59.92293904378206,
,2,9,2,5,0,-4,65,,train_dim1_1,21,30,,,,2,0,2,0,,,,,,,,,0,0,0,0,0,20,20,20,6,0,6,0,,,,,,,,,,,,,,,,,,,,,,,,,,,,,,,,,,,,,,,,,,,,,,,,,,,,,,,,,,,,,,,,30,,,,,,,,1368.586421099957,1368.586421099957,1368.586421099957,1368.586421099957,1368.586421099957,down,0.3102379001211375,2,0,0,99,0,-0.24000000000000005,down,0.22748560016043484,,,,,,,,,,,,,,,,,,,,,,,,,,,,,,,,,,,,,,,,,,,,,,,,,,,,,,,,,,,,3J4E52,train_y,blue_star,top_left,2025-09-13_13h26.49.875,HideSeek_v1,2022.2.5,59.92293904378206,
,2,9,2,5,0,-4,65,,train_dim1_1,21,30,,,,2,0,2,0,,,,,,,,,0,0,0,0,0,20,20,20,7,0,7,0,,,,,,,,,,,,,,,,,,,,,,,,,,,,,,,,,,,,,,,,,,,,,,,,,,,,,,,,,,,,,,,,30,,,,,,,,1368.9037699999753,1368.9037699999753,1368.9037699999753,1368.9037699999753,1368.9037699999753,return,0.8600906999781728,2,0,0,0,0,-0.24000000000000005,return,0.7718249000608921,-35,6,0,-0.24000000000000005,,,,,,,,,,,,,,,,,,,,,,,,,,,,,,,,,,,,,,,,,,,,,,,,,,,,,,,,3J4E52,train_y,blue_star,top_left,2025-09-13_13h26.49.875,HideSeek_v1,2022.2.5,59.92293904378206,
,0,7,0,4,0,-3,64,,train_dim1_1,22,30,,,,2,0,2,0,,,,,,,,,0,0,0,0,0,21,21,21,0,0,0,0,,,,,,,,,,,,,,,,,,,,,,,,,stimuli/alien_stimuli/64.png,,,,,,,,,,,,,,,,,,,,,,,,,,,,,stimuli/alien_stimuli/65.png,65,2,23,,,,,,,30,,,,,,,,1376.7012757000048,1376.7012757000048,1376.7012757000048,1376.7012757000048,1376.7012757000048,right,3.2714421001728624,2,0,0,99,-0.08,0.16,right,3.197841300163418,,,,,1375.1457287999801,1376.7012757000048,0,0,0.32,0.0,0.16,0,0.0,0,0,1371.3314171999227,1371.3314171999227,1371.3314171999227,1371.3314171999227,1371.3314171999227,1371.3314171999227,1371.3314171999227,1371.3314171999227,1371.3258559499168,3.9227569999638945,return,3.7933724001049995,,,,,,,,,,,,,,,,,,,,,,,,,,,,,,,,,3J4E52,train_y,blue_star,top_left,2025-09-13_13h26.49.875,HideSeek_v1,2022.2.5,59.92293904378206,
,0,7,0,4,0,-3,64,,train_dim1_1,22,30,,,,2,0,2,0,,,,,,,,,0,0,0,0,0,21,21,21,1,0,1,0,,,,,,,,,,,,,,,,,,,,,,,,,,,,,,,,,,,,,,,,,,,,,,,,,,,,,,,,,,,,,,,,30,,,,,,,,1379.9803124000318,1379.9803124000318,1379.9803124000318,1379.9803124000318,1379.9803124000318,right,0.27620319998823106,2,0,0,99,0.0,0.16,right,0.18790000025182962,,,,,,,,,,,,,,,,,,,,,,,,,,,,,,,,,,,,,,,,,,,,,,,,,,,,,,,,,,,,3J4E52,train_y,blue_star,top_left,2025-09-13_13h26.49.875,HideSeek_v1,2022.2.5,59.92293904378206,
,0,7,0,4,0,-3,64,,train_dim1_1,22,30,,,,2,0,2,0,,,,,,,,,0,0,0,0,0,21,21,21,2,0,2,0,,,,,,,,,,,,,,,,,,,,,,,,,,,,,,,,,,,,,,,,,,,,,,,,,,,,,,,,,,,,,,,,30,,,,,,,,1380.2623957998585,1380.2623957998585,1380.2623957998585,1380.2623957998585,1380.2623957998585,right,0.2600651001557708,2,0,0,99,0.08,0.16,right,0.18016630015335977,,,,,,,,,,,,,,,,,,,,,,,,,,,,,,,,,,,,,,,,,,,,,,,,,,,,,,,,,,,,3J4E52,train_y,blue_star,top_left,2025-09-13_13h26.49.875,HideSeek_v1,2022.2.5,59.92293904378206,
,0,7,0,4,0,-3,64,,train_dim1_1,22,30,,,,2,0,2,0,,,,,,,,,0,0,0,0,0,21,21,21,3,0,3,0,,,,,,,,,,,,,,,,,,,,,,,,,,,,,,,,,,,,,,,,,,,,,,,,,,,,,,,,,,,,,,,,30,,,,,,,,1380.540191899985,1380.540191899985,1380.540191899985,1380.540191899985,1380.540191899985,right,0.17662679986096919,2,0,0,99,0.16,0.16,right,0.08308370015583932,,,,,,,,,,,,,,,,,,,,,,,,,,,,,,,,,,,,,,,,,,,,,,,,,,,,,,,,,,,,3J4E52,train_y,blue_star,top_left,2025-09-13_13h26.49.875,HideSeek_v1,2022.2.5,59.92293904378206,
,0,7,0,4,0,-3,64,,train_dim1_1,22,30,,,,2,0,2,0,,,,,,,,,0,0,0,0,0,21,21,21,4,0,4,0,,,,,,,,,,,,,,,,,,,,,,,,,,,,,,,,,,,,,,,,,,,,,,,,,,,,,,,,,,,,,,,,30,,,,,,,,1380.7147872999776,1380.7147872999776,1380.7147872999776,1380.7147872999776,1380.7147872999776,left,1.1603010001126677,2,0,0,99,0.08,0.16,left,1.075241400161758,,,,,,,,,,,,,,,,,,,,,,,,,,,,,,,,,,,,,,,,,,,,,,,,,,,,,,,,,,,,3J4E52,train_y,blue_star,top_left,2025-09-13_13h26.49.875,HideSeek_v1,2022.2.5,59.92293904378206,
,0,7,0,4,0,-3,64,,train_dim1_1,22,30,,,,2,0,2,0,,,,,,,,,0,0,0,0,0,21,21,21,5,0,5,0,,,,,,,,,,,,,,,,,,,,,,,,,,,,,,,,,,,,,,,,,,,,,,,,,,,,,,,,,,,,,,,,30,,,,,,,,1381.880781600019,1381.880781600019,1381.880781600019,1381.880781600019,1381.880781600019,left,0.8439002002123743,2,0,0,99,0.0,0.16,left,0.7554631000384688,,,,,,,,,,,,,,,,,,,,,,,,,,,,,,,,,,,,,,,,,,,,,,,,,,,,,,,,,,,,3J4E52,train_y,blue_star,top_left,2025-09-13_13h26.49.875,HideSeek_v1,2022.2.5,59.92293904378206,
,0,7,0,4,0,-3,64,,train_dim1_1,22,30,,,,2,0,2,0,,,,,,,,,0,0,0,0,0,21,21,21,6,0,6,0,,,,,,,,,,,,,,,,,,,,,,,,,,,,,,,,,,,,,,,,,,,,,,,,,,,,,,,,,,,,,,,,30,,,,,,,,1382.7324551998172,1382.7324551998172,1382.7324551998172,1382.7324551998172,1382.7324551998172,left,0.44339870009571314,2,0,0,99,-0.08,0.16,left,0.3705598001834005,,,,,,,,,,,,,,,,,,,,,,,,,,,,,,,,,,,,,,,,,,,,,,,,,,,,,,,,,,,,3J4E52,train_y,blue_star,top_left,2025-09-13_13h26.49.875,HideSeek_v1,2022.2.5,59.92293904378206,
,0,7,0,4,0,-3,64,,train_dim1_1,22,30,,,,2,0,2,0,,,,,,,,,0,0,0,0,0,21,21,21,7,0,7,0,,,,,,,,,,,,,,,,,,,,,,,,,,,,,,,,,,,,,,,,,,,,,,,,,,,,,,,,,,,,,,,,30,,,,,,,,1383.18151080003,1383.18151080003,1383.18151080003,1383.18151080003,1383.18151080003,left,0.6935248000081629,2,0,0,99,-0.16,0.16,left,0.607453899923712,,,,,,,,,,,,,,,,,,,,,,,,,,,,,,,,,,,,,,,,,,,,,,,,,,,,,,,,,,,,3J4E52,train_y,blue_star,top_left,2025-09-13_13h26.49.875,HideSeek_v1,2022.2.5,59.92293904378206,
,0,7,0,4,0,-3,64,,train_dim1_1,22,30,,,,2,0,2,0,,,,,,,,,0,0,0,0,0,21,21,21,8,0,8,0,,,,,,,,,,,,,,,,,,,,,,,,,,,,,,,,,,,,,,,,,,,,,,,,,,,,,,,,,,,,,,,,30,,,,,,,,1383.882369699888,1383.882369699888,1383.882369699888,1383.882369699888,1383.882369699888,return,0.9272687002085149,2,0,0,0,-0.16,0.16,return,0.8467360001523048,-35,6,-0.16,0.16,,,,,,,,,,,,,,,,,,,,,,,,,,,,,,,,,,,,,,,,,,,,,,,,,,,,,,,,3J4E52,train_y,blue_star,top_left,2025-09-13_13h26.49.875,HideSeek_v1,2022.2.5,59.92293904378206,
,0,8,0,8,0,0,61,,train_dim1_1,23,30,,,,2,0,2,0,,,,,,,,,0,0,0,0,0,22,22,22,0,0,0,0,,,,,,,,,,,,,,,,,,,,,,,,,stimuli/alien_stimuli/61.png,,,,,,,,,,,,,,,,,,,,,,,,,,,,,stimuli/alien_stimuli/64.png,64,0,24,,,,,,,30,,,,,,,,1402.4478176999837,1402.4478176999837,1402.4478176999837,1402.4478176999837,1402.4478176999837,down,1.4643623000010848,2,0,0,99,-0.16,0.15999999999999998,down,1.3623477001674473,,,,,1400.866923399968,1402.4478176999837,-0.16,-0.08,0.24,0.0,0.04,-0.16,-0.16,-0.16,-0.08,1386.3800794999115,1386.3800794999115,1386.3800794999115,1386.3800794999115,1386.3800794999115,1386.3800794999115,1386.3800794999115,1386.3800794999115,1386.37119905001,14.598361199954525,return,14.457109300186858,,,,,,,,,,,,,,,,,,,,,,,,,,,,,,,,,3J4E52,train_y,blue_star,top_left,2025-09-13_13h26.49.875,HideSeek_v1,2022.2.5,59.92293904378206,
,0,8,0,8,0,0,61,,train_dim1_1,23,30,,,,2,0,2,0,,,,,,,,,0,0,0,0,0,22,22,22,1,0,1,0,,,,,,,,,,,,,,,,,,,,,,,,,,,,,,,,,,,,,,,,,,,,,,,,,,,,,,,,,,,,,,,,30,,,,,,,,1403.9015740000177,1403.9015740000177,1403.9015740000177,1403.9015740000177,1403.9015740000177,down,0.2574246998410672,2,0,0,99,-0.16,0.07999999999999997,down,0.18038470018655062,,,,,,,,,,,,,,,,,,,,,,,,,,,,,,,,,,,,,,,,,,,,,,,,,,,,,,,,,,,,3J4E52,train_y,blue_star,top_left,2025-09-13_13h26.49.875,HideSeek_v1,2022.2.5,59.92293904378206,
,0,8,0,8,0,0,61,,train_dim1_1,23,30,,,,2,0,2,0,,,,,,,,,0,0,0,0,0,22,22,22,2,0,2,0,,,,,,,,,,,,,,,,,,,,,,,,,,,,,,,,,,,,,,,,,,,,,,,,,,,,,,,,,,,,,,,,30,,,,,,,,1404.1687276000157,1404.1687276000157,1404.1687276000157,1404.1687276000157,1404.1687276000157,down,0.19246029993519187,2,0,0,99,-0.16,-2.7755575615628914e-17,down,0.107299700146541,,,,,,,,,,,,,,,,,,,,,,,,,,,,,,,,,,,,,,,,,,,,,,,,,,,,,,,,,,,,3J4E52,train_y,blue_star,top_left,2025-09-13_13h26.49.875,HideSeek_v1,2022.2.5,59.92293904378206,
,0,8,0,8,0,0,61,,train_dim1_1,23,30,,,,2,0,2,0,,,,,,,,,0,0,0,0,0,22,22,22,3,0,3,0,,,,,,,,,,,,,,,,,,,,,,,,,,,,,,,,,,,,,,,,,,,,,,,,,,,,,,,,,,,,,,,,30,,,,,,,,1404.368811500026,1404.368811500026,1404.368811500026,1404.368811500026,1404.368811500026,down,0.4102040999568999,2,0,0,99,-0.16,-0.08000000000000003,down,0.32119250018149614,,,,,,,,,,,,,,,,,,,,,,,,,,,,,,,,,,,,,,,,,,,,,,,,,,,,,,,,,,,,3J4E52,train_y,blue_star,top_left,2025-09-13_13h26.49.875,HideSeek_v1,2022.2.5,59.92293904378206,
,0,8,0,8,0,0,61,,train_dim1_1,23,30,,,,2,0,2,0,,,,,,,,,0,0,0,0,0,22,22,22,4,0,4,0,,,,,,,,,,,,,,,,,,,,,,,,,,,,,,,,,,,,,,,,,,,,,,,,,,,,,,,,,,,,,,,,30,,,,,,,,1404.7836525000166,1404.7836525000166,1404.7836525000166,1404.7836525000166,1404.7836525000166,return,0.9937507999129593,2,0,0,0,-0.16,-0.08000000000000003,return,0.9127876001875848,-39,6,-0.16,-0.08000000000000003,,,,,,,,,,,,,,,,,,,,,,,,,,,,,,,,,,,,,,,,,,,,,,,,,,,,,,,,3J4E52,train_y,blue_star,top_left,2025-09-13_13h26.49.875,HideSeek_v1,2022.2.5,59.92293904378206,
,3,7,3,2,0,-5,66,,train_dim1_1,24,30,,,,2,0,2,0,,,,,,,,,0,0,0,0,0,23,23,23,0,0,0,0,,,,,,,,,,,,,,,,,,,,,,,,,stimuli/alien_stimuli/66.png,,,,,,,,,,,,,,,,,,,,,,,,,,,,,stimuli/alien_stimuli/61.png,61,0,25,,,,,,,30,,,,,,,,1411.2940522998106,1411.2940522998106,1411.2940522998106,1411.2940522998106,1411.2940522998106,return,1.5564103999640793,2,0,0,0,0.08,0.16,return,1.4674915003124624,-39,6,0.08,0.16,1409.7407637999859,1411.2940522998106,-0.16,0.24,0.0,0.0,0.24,-0.16,-0.16,-0.16,0.24,1407.3429862998892,1407.3429862998892,1407.3429862998892,1407.3429862998892,1407.3429862998892,1407.3429862998892,1407.3429862998892,1407.3429862998892,1407.3387344500748,2.5049670999869704,return,2.3786791001912206,,,,,,,,,,,,,,,,,,,,,,,,,,,,,,,,,3J4E52,train_y,blue_star,top_left,2025-09-13_13h26.49.875,HideSeek_v1,2022.2.5,59.92293904378206,
,3,8,3,7,0,-1,62,,train_dim1_1,25,30,,,,2,0,2,0,,,,,,,,,0,0,0,0,0,24,24,24,0,0,0,0,,,,,,,,,,,,,,,,,,,,,,,,,stimuli/alien_stimuli/62.png,,,,,,,,,,,,,,,,,,,,,,,,,,,,,stimuli/alien_stimuli/66.png,66,3,26,,,,,,,30,,,,,,,,1417.7485044000205,1417.7485044000205,1417.7485044000205,1417.7485044000205,1417.7485044000205,down,1.357006600126624,2,0,0,99,0.08,0.15999999999999998,down,1.2831826000474393,,,,,1416.1962137999944,1417.7485044000205,0.08,-0.24,0.4,0.0,-0.039999999999999994,0.08,0.08,0.08,-0.24,1414.4197136999574,1414.4197136999574,1414.4197136999574,1414.4197136999574,1414.4197136999574,1414.4197136999574,1414.4197136999574,1414.4197136999574,1414.411240150011,1.8876329998020083,return,1.7557524002622813,,,,,,,,,,,,,,,,,,,,,,,,,,,,,,,,,3J4E52,train_y,blue_star,top_left,2025-09-13_13h26.49.875,HideSeek_v1,2022.2.5,59.92293904378206,
,3,8,3,7,0,-1,62,,train_dim1_1,25,30,,,,2,0,2,0,,,,,,,,,0,0,0,0,0,24,24,24,1,0,1,0,,,,,,,,,,,,,,,,,,,,,,,,,,,,,,,,,,,,,,,,,,,,,,,,,,,,,,,,,,,,,,,,30,,,,,,,,1419.1128048999235,1419.1128048999235,1419.1128048999235,1419.1128048999235,1419.1128048999235,down,0.3263365998864174,2,0,0,99,0.08,0.07999999999999997,down,0.25338920019567013,,,,,,,,,,,,,,,,,,,,,,,,,,,,,,,,,,,,,,,,,,,,,,,,,,,,,,,,,,,,3J4E52,train_y,blue_star,top_left,2025-09-13_13h26.49.875,HideSeek_v1,2022.2.5,59.92293904378206,
,3,8,3,7,0,-1,62,,train_dim1_1,25,30,,,,2,0,2,0,,,,,,,,,0,0,0,0,0,24,24,24,2,0,2,0,,,,,,,,,,,,,,,,,,,,,,,,,,,,,,,,,,,,,,,,,,,,,,,,,,,,,,,,,,,,,,,,30,,,,,,,,1419.4470285999123,1419.4470285999123,1419.4470285999123,1419.4470285999123,1419.4470285999123,down,0.29280670010484755,2,0,0,99,0.08,-2.7755575615628914e-17,down,0.20966900000348687,,,,,,,,,,,,,,,,,,,,,,,,,,,,,,,,,,,,,,,,,,,,,,,,,,,,,,,,,,,,3J4E52,train_y,blue_star,top_left,2025-09-13_13h26.49.875,HideSeek_v1,2022.2.5,59.92293904378206,
,3,8,3,7,0,-1,62,,train_dim1_1,25,30,,,,2,0,2,0,,,,,,,,,0,0,0,0,0,24,24,24,3,0,3,0,,,,,,,,,,,,,,,,,,,,,,,,,,,,,,,,,,,,,,,,,,,,,,,,,,,,,,,,,,,,,,,,30,,,,,,,,1419.7456539999694,1419.7456539999694,1419.7456539999694,1419.7456539999694,1419.7456539999694,right,1.2441982999444008,2,0,0,99,0.16,-2.7755575615628914e-17,right,1.1706980001181364,,,,,,,,,,,,,,,,,,,,,,,,,,,,,,,,,,,,,,,,,,,,,,,,,,,,,,,,,,,,3J4E52,train_y,blue_star,top_left,2025-09-13_13h26.49.875,HideSeek_v1,2022.2.5,59.92293904378206,
,3,8,3,7,0,-1,62,,train_dim1_1,25,30,,,,2,0,2,0,,,,,,,,,0,0,0,0,0,24,24,24,4,0,4,0,,,,,,,,,,,,,,,,,,,,,,,,,,,,,,,,,,,,,,,,,,,,,,,,,,,,,,,,,,,,,,,,30,,,,,,,,1420.9964914999437,1420.9964914999437,1420.9964914999437,1420.9964914999437,1420.9964914999437,right,0.5432025000918657,2,0,0,99,0.24,-2.7755575615628914e-17,right,0.47004660009406507,,,,,,,,,,,,,,,,,,,,,,,,,,,,,,,,,,,,,,,,,,,,,,,,,,,,,,,,,,,,3J4E52,train_y,blue_star,top_left,2025-09-13_13h26.49.875,HideSeek_v1,2022.2.5,59.92293904378206,
,3,8,3,7,0,-1,62,,train_dim1_1,25,30,,,,2,0,2,0,,,,,,,,,0,0,0,0,0,24,24,24,5,0,5,0,,,,,,,,,,,,,,,,,,,,,,,,,,,,,,,,,,,,,,,,,,,,,,,,,,,,,,,,,,,,,,,,30,,,,,,,,1421.5479468998965,1421.5479468998965,1421.5479468998965,1421.5479468998965,1421.5479468998965,right,0.2766209999099374,2,0,0,99,0.32,-2.7755575615628914e-17,right,0.20209480007179081,,,,,,,,,,,,,,,,,,,,,,,,,,,,,,,,,,,,,,,,,,,,,,,,,,,,,,,,,,,,3J4E52,train_y,blue_star,top_left,2025-09-13_13h26.49.875,HideSeek_v1,2022.2.5,59.92293904378206,
,3,8,3,7,0,-1,62,,train_dim1_1,25,30,,,,2,0,2,0,,,,,,,,,0,0,0,0,0,24,24,24,6,0,6,0,,,,,,,,,,,,,,,,,,,,,,,,,,,,,,,,,,,,,,,,,,,,,,,,,,,,,,,,,,,,,,,,30,,,,,,,,1421.841026399983,1421.841026399983,1421.841026399983,1421.841026399983,1421.841026399983,right,0.22677720012143254,2,0,0,99,0.4,-2.7755575615628914e-17,right,0.13891870016232133,,,,,,,,,,,,,,,,,,,,,,,,,,,,,,,,,,,,,,,,,,,,,,,,,,,,,,,,,,,,3J4E52,train_y,blue_star,top_left,2025-09-13_13h26.49.875,HideSeek_v1,2022.2.5,59.92293904378206,
,3,8,3,7,0,-1,62,,train_dim1_1,25,30,,,,2,0,2,0,,,,,,,,,0,0,0,0,0,24,24,24,7,0,7,0,,,,,,,,,,,,,,,,,,,,,,,,,,,,,,,,,,,,,,,,,,,,,,,,,,,,,,,,,,,,,,,,30,,,,,,,,1422.065346099902,1422.065346099902,1422.065346099902,1422.065346099902,1422.065346099902,up,0.9938944999594241,2,0,0,99,0.4,0.07999999999999997,up,0.915815900079906,,,,,,,,,,,,,,,,,,,,,,,,,,,,,,,,,,,,,,,,,,,,,,,,,,,,,,,,,,,,3J4E52,train_y,blue_star,top_left,2025-09-13_13h26.49.875,HideSeek_v1,2022.2.5,59.92293904378206,
