trialInstr,x_fixStart,y_fixStart,x_corrSteps,y_corrSteps,x_nrSteps,y_nrSteps,alienID,trialLength,version,trialTrain,praclen,testlen,trial_label,break_on_off,beforeExpLoop.thisRepN,beforeExpLoop.thisTrialN,beforeExpLoop.thisN,beforeExpLoop.thisIndex,mini_instr_trials.thisRepN,mini_instr_trials.thisTrialN,mini_instr_trials.thisN,mini_instr_trials.thisIndex,instrLoop.thisRepN,instrLoop.thisTrialN,instrLoop.thisN,instrLoop.thisIndex,repeat_prac.thisRepN,repeat_prac.thisTrialN,repeat_prac.thisN,repeat_prac.thisIndex,trainLoop.thisRepN,trainLoop.thisTrialN,trainLoop.thisN,trainLoop.thisIndex,moveLoop_train.thisRepN,moveLoop_train.thisTrialN,moveLoop_train.thisN,moveLoop_train.thisIndex,experiment.thisRepN,experiment.thisTrialN,experiment.thisN,experiment.thisIndex,moveLoop_test.thisRepN,moveLoop_test.thisTrialN,moveLoop_test.thisN,moveLoop_test.thisIndex,mini_instr2_trials.thisRepN,mini_instr2_trials.thisTrialN,mini_instr2_trials.thisN,mini_instr2_trials.thisIndex,start_all_time,url,slideStim,audioStim,slides.started,sounds.started,nextButton.numClicks,nextButton.timesOn,nextButton.timesOff,prev_but.numClicks,prev_but.timesOn,prev_but.timesOff,alienStim,instrFile,alienStim_instr,gridImage_instr.started,startPos_3.started,key_instr.started,alienImage_3.started,sounds_1.started,key_instr.keys,key_instr.rt,all_x,all_y,FBy_corrSteps,FBy_fixStart,FBx_corrSteps,FBx_fixStart,FBy_pathSize_check,FBx_pathSize_check,gridImage_9.started,alienImageFB_3.started,startPosFB_3.started,keyFB_3.started,pathLine_ydir_2.started,pathLine_xdir_2.started,alienFace_3.started,sounds_2.started,RTFB_instr,keyFB_3.keys,keyFB_3.rt,draw_alienStim,draw_alienID,test_x,nrepcount,perfthres,percthres,earlierperf,earlystop,nextPrac,fileidx,praclen,saveACC_train,pracFile,nextPrac_train,addNrep,fileidx_endr,repExp,showearly,gridImage_4.started,startPos.started,movePos.started,key_resp.started,alienImage.started,buttonPress_train,RTchoice_train,cumAcctrain,aCorr,saveACC_choice,corrAns,x_movePos_end,y_movePos_end,key_resp.keys,key_resp.rt,wLy_dir,wLx_dir,x_movePos,y_movePos,text_2.started,text_2.stopped,aft_x_corrPos,aft_y_corrPos,y_pathSize_check,x_pathSize_check,y_pathdirY,x_pathdirY,x_pathdirX,x_corrPos,y_corrPos,gridImage_6.started,alienImageFB_2.started,startPosFB_2.started,movePosFB_2.started,keyFB_2.started,pathLine_xdir.started,pathLine_ydir.started,alienFace.started,sounds_4.started,RT_FBtrain,keyFB_2.keys,keyFB_2.rt,saveACC_pre,ACC,within_saveACC_train,earlystop_wloop,cumAcctrain_check,gridImage_3.started,alienImage_test.started,startPos_test.started,movePos_test.started,key_resp_test.started,wLy_dir_test,wLx_dir_test,buttonPress_test,RTchoice_test,cumAcctest,corrAns_test,key_resp_test.keys,key_resp_test.rt,text_3.started,text_3.stopped,total_time,end_all_time,key_resp_3.keys,slides_2.started,sounds_3.started,nextButton_2.numClicks,nextButton_2.timesOn,nextButton_2.timesOff,prev_but_2.numClicks,prev_but_2.timesOn,prev_but_2.timesOff,bye.started,participant,train_first,00_coordinate,starting corner,date,expName,psychopyVersion,frameRate,
,,,,,,,,,,,,,,,0,0,0,0,0,0,0,0,,,,,,,,,,,,,,,,,,,,,,,,,,,,,start_all_time,testround,conditions/schedules/train_y_first/blue_star_00/top_right/instructions/Slide1.png,conditions/schedules/train_y_first/blue_star_00/top_right/instructions/Audio1.wav,1096.5759332000744,1096.5212145289056,1,[3.957837999914773],[3.9578519000206143],0,,,,,,,,,,,,,,,,,,,,,,,,,,,,,,,,,,,,,,,,,,,,,,,,,,,,,,,,,,,,,,,,,,,,,,,,,,,,,,,,,,,,,,,,,,,,,,,,,,,,,,,,,,,,,,,,,,,,,,,,,,,,3TRYKE,train_y,blue_star,top_right,2025-03-13_17h10.59.069,HideSeek_v1,2022.2.5,59.92049745061559,
,,,,,,,,,,,,,,,0,0,0,0,1,0,1,0,,,,,,,,,,,,,,,,,,,,,,,,,,,,,,,conditions/schedules/train_y_first/blue_star_00/top_right/instructions/Slide2.png,conditions/schedules/train_y_first/blue_star_00/top_right/instructions/Audio2.wav,1100.5548822000856,1100.5570195500623,2,"[3.957837999914773, 19.582612800062634]","[0.03288610000163317, 19.58261979999952]",0,,,,,,,,,,,,,,,,,,,,,,,,,,,,,,,,,,,,,,,,,,,,,,,,,,,,,,,,,,,,,,,,,,,,,,,,,,,,,,,,,,,,,,,,,,,,,,,,,,,,,,,,,,,,,,,,,,,,,,,,,,,,3TRYKE,train_y,blue_star,top_right,2025-03-13_17h10.59.069,HideSeek_v1,2022.2.5,59.92049745061559,
,,,,,,,,,,,,,,,0,0,0,0,2,0,2,0,,,,,,,,,,,,,,,,,,,,,,,,,,,,,,,conditions/schedules/train_y_first/blue_star_00/top_right/instructions/Slide3.png,conditions/schedules/train_y_first/blue_star_00/top_right/instructions/Audio3.wav,1120.207215600065,1120.2066257499973,3,"[3.957837999914773, 19.582612800062634, 16.594366900040768]","[0.03288610000163317, 0.014392200042493641, 16.594373799976893]",0,,,,,,,,,,,,,,,,,,,,,,,,,,,,,,,,,,,,,,,,,,,,,,,,,,,,,,,,,,,,,,,,,,,,,,,,,,,,,,,,,,,,,,,,,,,,,,,,,,,,,,,,,,,,,,,,,,,,,,,,,,,,3TRYKE,train_y,blue_star,top_right,2025-03-13_17h10.59.069,HideSeek_v1,2022.2.5,59.92049745061559,
,,,,,,,,,,,,,,,0,0,0,0,3,0,3,0,,,,,,,,,,,,,,,,,,,,,,,,,,,,,,,conditions/schedules/train_y_first/blue_star_00/top_right/instructions/Slide4.png,conditions/schedules/train_y_first/blue_star_00/top_right/instructions/Audio4.wav,1136.8708153000334,1136.870373450045,4,"[3.957837999914773, 19.582612800062634, 16.594366900040768, 19.329880899982527]","[0.03288610000163317, 0.014392200042493641, 0.06415130000095814, 19.329887000028975]",0,,,,,,,,,,,,,,,,,,,,,,,,,,,,,,,,,,,,,,,,,,,,,,,,,,,,,,,,,,,,,,,,,,,,,,,,,,,,,,,,,,,,,,,,,,,,,,,,,,,,,,,,,,,,,,,,,,,,,,,,,,,,3TRYKE,train_y,blue_star,top_right,2025-03-13_17h10.59.069,HideSeek_v1,2022.2.5,59.92049745061559,
,,,,,,,,,,,,,,,0,0,0,0,4,0,4,0,,,,,,,,,,,,,,,,,,,,,,,,,,,,,,,conditions/schedules/train_y_first/blue_star_00/top_right/instructions/Slide5.png,conditions/schedules/train_y_first/blue_star_00/top_right/instructions/Audio5.wav,1156.255985100055,1156.253062860039,5,"[3.957837999914773, 19.582612800062634, 16.594366900040768, 19.329880899982527, 4.39813139999751]","[0.03288610000163317, 0.014392200042493641, 0.06415130000095814, 0.06324210006278008, 4.398138000047766]",0,,,,,,,,,,,,,,,,,,,,,,,,,,,,,,,,,,,,,,,,,,,,,,,,,,,,,,,,,,,,,,,,,,,,,,,,,,,,,,,,,,,,,,,,,,,,,,,,,,,,,,,,,,,,,,,,,,,,,,,,,,,,3TRYKE,train_y,blue_star,top_right,2025-03-13_17h10.59.069,HideSeek_v1,2022.2.5,59.92049745061559,
,,,,,,,,,,,,,,,0,0,0,0,5,0,5,0,,,,,,,,,,,,,,,,,,,,,,,,,,,,,,,conditions/schedules/train_y_first/blue_star_00/top_right/instructions/Slide6.png,conditions/schedules/train_y_first/blue_star_00/top_right/instructions/Audio6.wav,1160.7048359001055,1160.7070178600727,6,"[3.957837999914773, 19.582612800062634, 16.594366900040768, 19.329880899982527, 4.39813139999751, 4.5695698000490665]","[0.03288610000163317, 0.014392200042493641, 0.06415130000095814, 0.06324210006278008, 0.049264000030234456, 4.569575900095515]",0,,,,,,,,,,,,,,,,,,,,,,,,,,,,,,,,,,,,,,,,,,,,,,,,,,,,,,,,,,,,,,,,,,,,,,,,,,,,,,,,,,,,,,,,,,,,,,,,,,,,,,,,,,,,,,,,,,,,,,,,,,,,3TRYKE,train_y,blue_star,top_right,2025-03-13_17h10.59.069,HideSeek_v1,2022.2.5,59.92049745061559,
,,,,,,,,,,,,,,,0,0,0,0,6,0,6,0,,,,,,,,,,,,,,,,,,,,,,,,,,,,,,,conditions/schedules/train_y_first/blue_star_00/top_right/instructions/Slide7.png,conditions/schedules/train_y_first/blue_star_00/top_right/instructions/Audio7.wav,1165.3263405000325,1165.3273346600356,7,"[3.957837999914773, 19.582612800062634, 16.594366900040768, 19.329880899982527, 4.39813139999751, 4.5695698000490665, 5.086072499980219]","[0.03288610000163317, 0.014392200042493641, 0.06415130000095814, 0.06324210006278008, 0.049264000030234456, 0.08173870004247874, 5.0860798000358045]",0,,,,,,,,,,,,,,,,,,,,,,,,,,,,,,,,,,,,,,,,,,,,,,,,,,,,,,,,,,,,,,,,,,,,,,,,,,,,,,,,,,,,,,,,,,,,,,,,,,,,,,,,,,,,,,,,,,,,,,,,,,,,3TRYKE,train_y,blue_star,top_right,2025-03-13_17h10.59.069,HideSeek_v1,2022.2.5,59.92049745061559,
,,,,,,,,,,,,,,,0,0,0,0,7,0,7,0,,,,,,,,,,,,,,,,,,,,,,,,,,,,,,,conditions/schedules/train_y_first/blue_star_00/top_right/instructions/Slide8.png,conditions/schedules/train_y_first/blue_star_00/top_right/instructions/Audio8.wav,1170.4820725000463,1170.4817832500557,8,"[3.957837999914773, 19.582612800062634, 16.594366900040768, 19.329880899982527, 4.39813139999751, 4.5695698000490665, 5.086072499980219, 11.973499699961394]","[0.03288610000163317, 0.014392200042493641, 0.06415130000095814, 0.06324210006278008, 0.049264000030234456, 0.08173870004247874, 0.06357529992237687, 11.973506200010888]",0,,,,,,,,,,,,,,,,,,,,,,,,,,,,,,,,,,,,,,,,,,,,,,,,,,,,,,,,,,,,,,,,,,,,,,,,,,,,,,,,,,,,,,,,,,,,,,,,,,,,,,,,,,,,,,,,,,,,,,,,,,,,3TRYKE,train_y,blue_star,top_right,2025-03-13_17h10.59.069,HideSeek_v1,2022.2.5,59.92049745061559,
,,,,,,,,,,,,,,,0,0,0,0,8,0,8,0,,,,,,,,,,,,,,,,,,,,,,,,,,,,,,,conditions/schedules/train_y_first/blue_star_00/top_right/instructions/Slide9.png,conditions/schedules/train_y_first/blue_star_00/top_right/instructions/Audio9.wav,1182.5107308001025,1182.5081668600208,9,"[3.957837999914773, 19.582612800062634, 16.594366900040768, 19.329880899982527, 4.39813139999751, 4.5695698000490665, 5.086072499980219, 11.973499699961394, 5.9998677999246866]","[0.03288610000163317, 0.014392200042493641, 0.06415130000095814, 0.06324210006278008, 0.049264000030234456, 0.08173870004247874, 0.06357529992237687, 0.07812259998172522, 5.999873899971135]",0,,,,,,,,,,,,,,,,,,,,,,,,,,,,,,,,,,,,,,,,,,,,,,,,,,,,,,,,,,,,,,,,,,,,,,,,,,,,,,,,,,,,,,,,,,,,,,,,,,,,,,,,,,,,,,,,,,,,,,,,,,,,3TRYKE,train_y,blue_star,top_right,2025-03-13_17h10.59.069,HideSeek_v1,2022.2.5,59.92049745061559,
,,,,,,,,,,,,,,,0,0,0,0,9,0,9,0,,,,,,,,,,,,,,,,,,,,,,,,,,,,,,,conditions/schedules/train_y_first/blue_star_00/top_right/instructions/Slide10.png,conditions/schedules/train_y_first/blue_star_00/top_right/instructions/Audio10.wav,1188.5542014000239,1188.546782369993,10,"[3.957837999914773, 19.582612800062634, 16.594366900040768, 19.329880899982527, 4.39813139999751, 4.5695698000490665, 5.086072499980219, 11.973499699961394, 5.9998677999246866, 6.678503500064835]","[0.03288610000163317, 0.014392200042493641, 0.06415130000095814, 0.06324210006278008, 0.049264000030234456, 0.08173870004247874, 0.06357529992237687, 0.07812259998172522, 0.07288100000005215, 6.67851040000096]",0,,,,,,,,,,,,,,,,,,,,,,,,,,,,,,,,,,,,,,,,,,,,,,,,,,,,,,,,,,,,,,,,,,,,,,,,,,,,,,,,,,,,,,,,,,,,,,,,,,,,,,,,,,,,,,,,,,,,,,,,,,,,3TRYKE,train_y,blue_star,top_right,2025-03-13_17h10.59.069,HideSeek_v1,2022.2.5,59.92049745061559,
,,,,,,,,,,,,,,,0,0,0,0,10,0,10,0,,,,,,,,,,,,,,,,,,,,,,,,,,,,,,,conditions/schedules/train_y_first/blue_star_00/top_right/instructions/Slide11.png,conditions/schedules/train_y_first/blue_star_00/top_right/instructions/Audio11.wav,1195.28476160008,1195.2855636600173,11,"[3.957837999914773, 19.582612800062634, 16.594366900040768, 19.329880899982527, 4.39813139999751, 4.5695698000490665, 5.086072499980219, 11.973499699961394, 5.9998677999246866, 6.678503500064835, 10.006907400093041]","[0.03288610000163317, 0.014392200042493641, 0.06415130000095814, 0.06324210006278008, 0.049264000030234456, 0.08173870004247874, 0.06357529992237687, 0.07812259998172522, 0.07288100000005215, 0.0980318000074476, 10.006914900033735]",0,,,,,,,,,,,,,,,,,,,,,,,,,,,,,,,,,,,,,,,,,,,,,,,,,,,,,,,,,,,,,,,,,,,,,,,,,,,,,,,,,,,,,,,,,,,,,,,,,,,,,,,,,,,,,,,,,,,,,,,,,,,,3TRYKE,train_y,blue_star,top_right,2025-03-13_17h10.59.069,HideSeek_v1,2022.2.5,59.92049745061559,
,,,,,,,,,,,,,,,0,0,0,0,11,0,11,0,,,,,,,,,,,,,,,,,,,,,,,,,,,,,,,conditions/schedules/train_y_first/blue_star_00/top_right/instructions/Slide12.png,conditions/schedules/train_y_first/blue_star_00/top_right/instructions/Audio12.wav,1205.3463851000415,1205.3441106600687,12,"[3.957837999914773, 19.582612800062634, 16.594366900040768, 19.329880899982527, 4.39813139999751, 4.5695698000490665, 5.086072499980219, 11.973499699961394, 5.9998677999246866, 6.678503500064835, 10.006907400093041, 13.73989419999998]","[0.03288610000163317, 0.014392200042493641, 0.06415130000095814, 0.06324210006278008, 0.049264000030234456, 0.08173870004247874, 0.06357529992237687, 0.07812259998172522, 0.07288100000005215, 0.0980318000074476, 0.030509999953210354, 13.739901599939913]",0,,,,,,,,,,,,,,,,,,,,,,,,,,,,,,,,,,,,,,,,,,,,,,,,,,,,,,,,,,,,,,,,,,,,,,,,,,,,,,,,,,,,,,,,,,,,,,,,,,,,,,,,,,,,,,,,,,,,,,,,,,,,3TRYKE,train_y,blue_star,top_right,2025-03-13_17h10.59.069,HideSeek_v1,2022.2.5,59.92049745061559,
1,5,8,5,3,0,-5,66,2,instr_dim1_1,,,,,,0,0,0,0,,,,,0,0,0,0,,,,,,,,,,,,,,,,,,,,,,,,,,,,,,,,,,,,,stimuli/alien_stimuli/66.png,conditions/schedules/train_y_first/blue_star_00/top_right/inputInstr_1.xlsx,stimuli/alien_stimuli/66.png,1219.1794009000296,1219.1794009000296,1219.1794009000296,1219.1794009000296,1219.1718739399919,return,9.396001000073738,"[-0.16, -0.08, 0, 0.08, 0.16, 0.24, 0.32, 0.4, 0.48, 0.56]","[-0.4, -0.32, -0.24, -0.16, -0.08, 0, 0.08, 0.16, 0.24, 0.32]",3,8,5,5,0.4,0.0,1228.7172824000008,1228.7172824000008,1228.7172824000008,1228.7172824000008,1228.7172824000008,1228.7172824000008,1228.7172824000008,1228.7131347199668,9.541621600044891,return,9.394449800020084,stimuli/alien_stimuli/66.png,66,5,1,,,,,,,,,,,,,,,,,,,,,,,,,,,,,,,,,,,,,,,,,,,,,,,,,,,,,,,,,,,,,,,,,,,,,,,,,,,,,,,,,,,,,,,,,3TRYKE,train_y,blue_star,top_right,2025-03-13_17h10.59.069,HideSeek_v1,2022.2.5,59.92049745061559,
,,,,,,,,,,,30,,,,0,0,0,0,,,,,,,,,,,,,,,,,,,,,,,,,,,,,,,,,,,,,,,,,,,,,,,,,,,,,,,,,,,,,,,,,,,,,,,,,,,,,,21,0.7,0,0,99,1,30,0,conditions/schedules/train_y_first/blue_star_00/top_right/inputTrain_1.1.xlsx,99,1,1,1,0,,,,,,,,,,,,,,,,,,,,,,,,,,,,,,,,,,,,,,,,,,,,,,,,,,,,,,,,,,,,,,,,,,,,,,,,,,,3TRYKE,train_y,blue_star,top_right,2025-03-13_17h10.59.069,HideSeek_v1,2022.2.5,59.92049745061559,
,,,,,,,,,,,,,,,1,0,1,0,0,0,0,0,,,,,,,,,,,,,,,,,,,,,,,,,,,,,,,conditions/schedules/train_y_first/blue_star_00/top_right/instructions/Slide13.png,conditions/schedules/train_y_first/blue_star_00/top_right/instructions/Audio13.wav,1238.264221200021,1238.2542317199752,13,"[3.957837999914773, 19.582612800062634, 16.594366900040768, 19.329880899982527, 4.39813139999751, 4.5695698000490665, 5.086072499980219, 11.973499699961394, 5.9998677999246866, 6.678503500064835, 10.006907400093041, 13.73989419999998, 17.151508299983107]","[0.03288610000163317, 0.014392200042493641, 0.06415130000095814, 0.06324210006278008, 0.049264000030234456, 0.08173870004247874, 0.06357529992237687, 0.07812259998172522, 0.07288100000005215, 0.0980318000074476, 0.030509999953210354, 13.739901599939913, 17.15151550003793]",0,,,,,,,,,,,,,,,,,,,,,,,,,,,,,,,,,,,,,,,,,,,,,,,,,,,,,,,,,,,,,,,,,,,,,,,,,,,,,,,,,,,,,,,,,,,,,,,,,,,,,,,,,,,,,,,,,,,,,,,,,,,,3TRYKE,train_y,blue_star,top_right,2025-03-13_17h10.59.069,HideSeek_v1,2022.2.5,59.92049745061559,
,,,,,,,,,,,,,,,1,0,1,0,1,0,1,0,,,,,,,,,,,,,,,,,,,,,,,,,,,,,,,conditions/schedules/train_y_first/blue_star_00/top_right/instructions/Slide14.png,conditions/schedules/train_y_first/blue_star_00/top_right/instructions/Audio14.wav,1255.4804156000027,1255.468643760006,14,"[3.957837999914773, 19.582612800062634, 16.594366900040768, 19.329880899982527, 4.39813139999751, 4.5695698000490665, 5.086072499980219, 11.973499699961394, 5.9998677999246866, 6.678503500064835, 10.006907400093041, 13.73989419999998, 17.151508299983107, 16.43289219995495]","[0.03288610000163317, 0.014392200042493641, 0.06415130000095814, 0.06324210006278008, 0.049264000030234456, 0.08173870004247874, 0.06357529992237687, 0.07812259998172522, 0.07288100000005215, 0.0980318000074476, 0.030509999953210354, 13.739901599939913, 0.11915199994109571, 16.432898699888028]",0,,,,,,,,,,,,,,,,,,,,,,,,,,,,,,,,,,,,,,,,,,,,,,,,,,,,,,,,,,,,,,,,,,,,,,,,,,,,,,,,,,,,,,,,,,,,,,,,,,,,,,,,,,,,,,,,,,,,,,,,,,,,3TRYKE,train_y,blue_star,top_right,2025-03-13_17h10.59.069,HideSeek_v1,2022.2.5,59.92049745061559,
2,7,8,7,8,0,0,61,2,instr_dim1_1,,,,,,1,0,1,0,,,,,0,0,0,0,,,,,,,,,,,,,,,,,,,,,,,,,,,,,,,,,,,,,stimuli/alien_stimuli/61.png,conditions/schedules/train_y_first/blue_star_00/top_right/inputInstr_1.xlsx,stimuli/alien_stimuli/61.png,1271.9971529000904,1271.9971529000904,1271.9971529000904,1271.9971529000904,1271.999107840075,return,7.386586799984798,"[-0.16, -0.08, 0, 0.08, 0.16, 0.24, 0.32, 0.4, 0.48, 0.56]","[-0.4, -0.32, -0.24, -0.16, -0.08, 0, 0.08, 0.16, 0.24, 0.32]",8,8,7,7,0.0,0.0,1279.5211885001045,1279.5211885001045,1279.5211885001045,1279.5211885001045,1279.5211885001045,1279.5211885001045,1279.5211885001045,1279.521934320079,7.706926099956036,return,7.563570500002243,stimuli/alien_stimuli/61.png,61,7,2,,,,,,,,,,,,,,,,,,,,,,,,,,,,,,,,,,,,,,,,,,,,,,,,,,,,,,,,,,,,,,,,,,,,,,,,,,,,,,,,,,,,,,,,,3TRYKE,train_y,blue_star,top_right,2025-03-13_17h10.59.069,HideSeek_v1,2022.2.5,59.92049745061559,
,,,,,,,,,,,30,,,,1,0,1,0,,,,,,,,,,,,,,,,,,,,,,,,,,,,,,,,,,,,,,,,,,,,,,,,,,,,,,,,,,,,,,,,,,,,,,,,,,,,,,21,0.7,0,0,99,1,30,0,conditions/schedules/train_y_first/blue_star_00/top_right/inputTrain_1.1.xlsx,99,1,1,1,0,,,,,,,,,,,,,,,,,,,,,,,,,,,,,,,,,,,,,,,,,,,,,,,,,,,,,,,,,,,,,,,,,,,,,,,,,,,3TRYKE,train_y,blue_star,top_right,2025-03-13_17h10.59.069,HideSeek_v1,2022.2.5,59.92049745061559,
,,,,,,,,,,,,,,,2,0,2,0,0,0,0,0,,,,,,,,,,,,,,,,,,,,,,,,,,,,,,,conditions/schedules/train_y_first/blue_star_00/top_right/instructions/Slide15.png,conditions/schedules/train_y_first/blue_star_00/top_right/instructions/Audio15.wav,1287.2623360001016,1287.26167180005,15,"[3.957837999914773, 19.582612800062634, 16.594366900040768, 19.329880899982527, 4.39813139999751, 4.5695698000490665, 5.086072499980219, 11.973499699961394, 5.9998677999246866, 6.678503500064835, 10.006907400093041, 13.73989419999998, 17.151508299983107, 16.43289219995495, 42.398597500054166]","[0.03288610000163317, 0.014392200042493641, 0.06415130000095814, 0.06324210006278008, 0.049264000030234456, 0.08173870004247874, 0.06357529992237687, 0.07812259998172522, 0.07288100000005215, 0.0980318000074476, 0.030509999953210354, 13.739901599939913, 0.11915199994109571, 16.432898699888028, 42.39860519999638]",0,,,,,,,,,,,,,,,,,,,,,,,,,,,,,,,,,,,,,,,,,,,,,,,,,,,,,,,,,,,,,,,,,,,,,,,,,,,,,,,,,,,,,,,,,,,,,,,,,,,,,,,,,,,,,,,,,,,,,,,,,,,,3TRYKE,train_y,blue_star,top_right,2025-03-13_17h10.59.069,HideSeek_v1,2022.2.5,59.92049745061559,
,,,,,,,,,,,,,,,2,0,2,0,1,0,1,0,,,,,,,,,,,,,,,,,,,,,,,,,,,,,,,conditions/schedules/train_y_first/blue_star_00/top_right/instructions/Slide16.png,conditions/schedules/train_y_first/blue_star_00/top_right/instructions/Audio16.wav,1329.7313176000025,1329.730236650037,16,"[3.957837999914773, 19.582612800062634, 16.594366900040768, 19.329880899982527, 4.39813139999751, 4.5695698000490665, 5.086072499980219, 11.973499699961394, 5.9998677999246866, 6.678503500064835, 10.006907400093041, 13.73989419999998, 17.151508299983107, 16.43289219995495, 42.398597500054166, 22.147939900052734]","[0.03288610000163317, 0.014392200042493641, 0.06415130000095814, 0.06324210006278008, 0.049264000030234456, 0.08173870004247874, 0.06357529992237687, 0.07812259998172522, 0.07288100000005215, 0.0980318000074476, 0.030509999953210354, 13.739901599939913, 0.11915199994109571, 16.432898699888028, 0.06301230005919933, 22.14794590009842]",0,,,,,,,,,,,,,,,,,,,,,,,,,,,,,,,,,,,,,,,,,,,,,,,,,,,,,,,,,,,,,,,,,,,,,,,,,,,,,,,,,,,,,,,,,,,,,,,,,,,,,,,,,,,,,,,,,,,,,,,,,,,,3TRYKE,train_y,blue_star,top_right,2025-03-13_17h10.59.069,HideSeek_v1,2022.2.5,59.92049745061559,
,5,5,5,1,0,-4,65,,train_dim1_1,1,30,,,,2,0,2,0,,,,,,,,,0,0,0,0,0,0,0,0,0,0,0,0,,,,,,,,,,,,,,,,,,,,,,,,,stimuli/alien_stimuli/65.png,,,,,,,,,,,,,,,,,,,,,,,,,,,,,,,,,,,,,,,30,,,,,,,,1351.971354600042,1351.971354600042,1351.971354600042,1351.971354600042,1351.971354600042,down,8.71779470006004,0,0,0,99,0.24,-0.08,down,8.620875500026159,,,,,,,,,,,,,,,,,,,,,,,,,,,,,,,,,,,,,,,,,,,,,,,,,,,,,,,,,,,,3TRYKE,train_y,blue_star,top_right,2025-03-13_17h10.59.069,HideSeek_v1,2022.2.5,59.92049745061559,
,5,5,5,1,0,-4,65,,train_dim1_1,1,30,,,,2,0,2,0,,,,,,,,,0,0,0,0,0,0,0,0,1,0,1,0,,,,,,,,,,,,,,,,,,,,,,,,,,,,,,,,,,,,,,,,,,,,,,,,,,,,,,,,,,,,,,,,30,,,,,,,,1360.6851041000336,1360.6851041000336,1360.6851041000336,1360.6851041000336,1360.6851041000336,down,3.3954791999422014,0,0,0,99,0.24,-0.16,down,3.321543399943039,,,,,,,,,,,,,,,,,,,,,,,,,,,,,,,,,,,,,,,,,,,,,,,,,,,,,,,,,,,,3TRYKE,train_y,blue_star,top_right,2025-03-13_17h10.59.069,HideSeek_v1,2022.2.5,59.92049745061559,
,5,5,5,1,0,-4,65,,train_dim1_1,1,30,,,,2,0,2,0,,,,,,,,,0,0,0,0,0,0,0,0,2,0,2,0,,,,,,,,,,,,,,,,,,,,,,,,,,,,,,,,,,,,,,,,,,,,,,,,,,,,,,,,,,,,,,,,30,,,,,,,,1364.087665900006,1364.087665900006,1364.087665900006,1364.087665900006,1364.087665900006,down,4.179868900100701,0,0,0,99,0.24,-0.24,down,4.1017908999929205,,,,,,,,,,,,,,,,,,,,,,,,,,,,,,,,,,,,,,,,,,,,,,,,,,,,,,,,,,,,3TRYKE,train_y,blue_star,top_right,2025-03-13_17h10.59.069,HideSeek_v1,2022.2.5,59.92049745061559,
,5,5,5,1,0,-4,65,,train_dim1_1,1,30,,,,2,0,2,0,,,,,,,,,0,0,0,0,0,0,0,0,3,0,3,0,,,,,,,,,,,,,,,,,,,,,,,,,,,,,,,,,,,,,,,,,,,,,,,,,,,,,,,,,,,,,,,,30,,,,,,,,1368.2747575000394,1368.2747575000394,1368.2747575000394,1368.2747575000394,1368.2747575000394,return,4.045897900010459,0,1,0,0,0.24,-0.24,return,3.9645176000194624,-3,0,0.24,-0.24,,,,,,,,,,,,,,,,,,,,,,,,,,,,,,,,,,,,,,,,,,,,,,,,,,,,,,,,3TRYKE,train_y,blue_star,top_right,2025-03-13_17h10.59.069,HideSeek_v1,2022.2.5,59.92049745061559,
,8,7,8,2,0,-5,66,,train_dim1_1,2,30,,,,2,0,2,0,,,,,,,,,0,0,0,0,0,1,1,1,0,0,0,0,,,,,,,,,,,,,,,,,,,,,,,,,stimuli/alien_stimuli/66.png,,,,,,,,,,,,,,,,,,,,,,,,,,,,,stimuli/alien_stimuli/65.png,65,5,3,,,,,,,30,,,,,,,,1405.4645542000653,1405.4645542000653,1405.4645542000653,1405.4645542000653,1405.4645542000653,down,3.1423973999917507,0,1,0,99,0.48,0.08,down,3.0579999999608845,,,,,1403.9085940000368,1405.4645542000653,0.24,-0.32,0.32,0.0,-0.16,0.24,0.24,0.24,-0.32,1373.8939945000457,1373.8939945000457,1373.8939945000457,1373.8939945000457,1373.8939945000457,1373.8939945000457,1373.8939945000457,1373.8939945000457,1373.883385030052,30.127264800015837,return,29.9846344999969,,,,,,,,,,,,,,,,,,,,,,,,,,,,,,,,,3TRYKE,train_y,blue_star,top_right,2025-03-13_17h10.59.069,HideSeek_v1,2022.2.5,59.92049745061559,
,8,7,8,2,0,-5,66,,train_dim1_1,2,30,,,,2,0,2,0,,,,,,,,,0,0,0,0,0,1,1,1,1,0,1,0,,,,,,,,,,,,,,,,,,,,,,,,,,,,,,,,,,,,,,,,,,,,,,,,,,,,,,,,,,,,,,,,30,,,,,,,,1408.6090869000182,1408.6090869000182,1408.6090869000182,1408.6090869000182,1408.6090869000182,down,1.49362610001117,0,1,0,99,0.48,0.0,down,1.406297400011681,,,,,,,,,,,,,,,,,,,,,,,,,,,,,,,,,,,,,,,,,,,,,,,,,,,,,,,,,,,,3TRYKE,train_y,blue_star,top_right,2025-03-13_17h10.59.069,HideSeek_v1,2022.2.5,59.92049745061559,
,8,7,8,2,0,-5,66,,train_dim1_1,2,30,,,,2,0,2,0,,,,,,,,,0,0,0,0,0,1,1,1,2,0,2,0,,,,,,,,,,,,,,,,,,,,,,,,,,,,,,,,,,,,,,,,,,,,,,,,,,,,,,,,,,,,,,,,30,,,,,,,,1410.1099941000575,1410.1099941000575,1410.1099941000575,1410.1099941000575,1410.1099941000575,down,5.029817000031471,0,1,0,99,0.48,-0.08,down,4.956026699976064,,,,,,,,,,,,,,,,,,,,,,,,,,,,,,,,,,,,,,,,,,,,,,,,,,,,,,,,,,,,3TRYKE,train_y,blue_star,top_right,2025-03-13_17h10.59.069,HideSeek_v1,2022.2.5,59.92049745061559,
,8,7,8,2,0,-5,66,,train_dim1_1,2,30,,,,2,0,2,0,,,,,,,,,0,0,0,0,0,1,1,1,3,0,3,0,,,,,,,,,,,,,,,,,,,,,,,,,,,,,,,,,,,,,,,,,,,,,,,,,,,,,,,,,,,,,,,,30,,,,,,,,1415.147117100074,1415.147117100074,1415.147117100074,1415.147117100074,1415.147117100074,down,0.5103997000260279,0,1,0,99,0.48,-0.16,down,0.43677070003468543,,,,,,,,,,,,,,,,,,,,,,,,,,,,,,,,,,,,,,,,,,,,,,,,,,,,,,,,,,,,3TRYKE,train_y,blue_star,top_right,2025-03-13_17h10.59.069,HideSeek_v1,2022.2.5,59.92049745061559,
,8,7,8,2,0,-5,66,,train_dim1_1,2,30,,,,2,0,2,0,,,,,,,,,0,0,0,0,0,1,1,1,4,0,4,0,,,,,,,,,,,,,,,,,,,,,,,,,,,,,,,,,,,,,,,,,,,,,,,,,,,,,,,,,,,,,,,,30,,,,,,,,1415.6632840000093,1415.6632840000093,1415.6632840000093,1415.6632840000093,1415.6632840000093,return,0.9938771999441087,0,1,0,0,0.48,-0.16,return,0.9174818000756204,-7,0,0.48,-0.16,,,,,,,,,,,,,,,,,,,,,,,,,,,,,,,,,,,,,,,,,,,,,,,,,,,,,,,,3TRYKE,train_y,blue_star,top_right,2025-03-13_17h10.59.069,HideSeek_v1,2022.2.5,59.92049745061559,
,7,8,7,5,0,-3,64,,train_dim1_1,3,30,,,,2,0,2,0,,,,,,,,,0,0,0,0,0,2,2,2,0,0,0,0,,,,,,,,,,,,,,,,,,,,,,,,,stimuli/alien_stimuli/64.png,,,,,,,,,,,,,,,,,,,,,,,,,,,,,stimuli/alien_stimuli/66.png,66,8,4,,,,,,,30,,,,,,,,1427.3623578000115,1427.3623578000115,1427.3623578000115,1427.3623578000115,1427.3623578000115,left,5.076448999927379,0,1,0,99,0.32,0.24,left,5.001866600010544,,,,,1425.8099806000246,1427.3623578000115,0.48,-0.24,0.4,0.0,-0.039999999999999994,0.48,0.48,0.48,-0.24,1418.226536900038,1418.226536900038,1418.226536900038,1418.226536900038,1418.226536900038,1418.226536900038,1418.226536900038,1418.226536900038,1418.2202319299918,7.691739800036885,return,7.551255700062029,,,,,,,,,,,,,,,,,,,,,,,,,,,,,,,,,3TRYKE,train_y,blue_star,top_right,2025-03-13_17h10.59.069,HideSeek_v1,2022.2.5,59.92049745061559,
,7,8,7,5,0,-3,64,,train_dim1_1,3,30,,,,2,0,2,0,,,,,,,,,0,0,0,0,0,2,2,2,1,0,1,0,,,,,,,,,,,,,,,,,,,,,,,,,,,,,,,,,,,,,,,,,,,,,,,,,,,,,,,,,,,,,,,,30,,,,,,,,1432.446015200112,1432.446015200112,1432.446015200112,1432.446015200112,1432.446015200112,left,1.3762700000079349,0,1,0,99,0.24,0.24,left,1.2883630999131128,,,,,,,,,,,,,,,,,,,,,,,,,,,,,,,,,,,,,,,,,,,,,,,,,,,,,,,,,,,,3TRYKE,train_y,blue_star,top_right,2025-03-13_17h10.59.069,HideSeek_v1,2022.2.5,59.92049745061559,
,7,8,7,5,0,-3,64,,train_dim1_1,3,30,,,,2,0,2,0,,,,,,,,,0,0,0,0,0,2,2,2,2,0,2,0,,,,,,,,,,,,,,,,,,,,,,,,,,,,,,,,,,,,,,,,,,,,,,,,,,,,,,,,,,,,,,,,30,,,,,,,,1433.8281537001021,1433.8281537001021,1433.8281537001021,1433.8281537001021,1433.8281537001021,left,2.411662800004706,0,1,0,99,0.15999999999999998,0.24,left,2.328175599919632,,,,,,,,,,,,,,,,,,,,,,,,,,,,,,,,,,,,,,,,,,,,,,,,,,,,,,,,,,,,3TRYKE,train_y,blue_star,top_right,2025-03-13_17h10.59.069,HideSeek_v1,2022.2.5,59.92049745061559,
,7,8,7,5,0,-3,64,,train_dim1_1,3,30,,,,2,0,2,0,,,,,,,,,0,0,0,0,0,2,2,2,3,0,3,0,,,,,,,,,,,,,,,,,,,,,,,,,,,,,,,,,,,,,,,,,,,,,,,,,,,,,,,,,,,,,,,,30,,,,,,,,1436.2481438000686,1436.2481438000686,1436.2481438000686,1436.2481438000686,1436.2481438000686,left,2.8956960999639705,0,1,0,99,0.07999999999999997,0.24,left,2.8170470000477508,,,,,,,,,,,,,,,,,,,,,,,,,,,,,,,,,,,,,,,,,,,,,,,,,,,,,,,,,,,,3TRYKE,train_y,blue_star,top_right,2025-03-13_17h10.59.069,HideSeek_v1,2022.2.5,59.92049745061559,
,7,8,7,5,0,-3,64,,train_dim1_1,3,30,,,,2,0,2,0,,,,,,,,,0,0,0,0,0,2,2,2,4,0,4,0,,,,,,,,,,,,,,,,,,,,,,,,,,,,,,,,,,,,,,,,,,,,,,,,,,,,,,,,,,,,,,,,30,,,,,,,,1439.1492779001128,1439.1492779001128,1439.1492779001128,1439.1492779001128,1439.1492779001128,return,1.2440217999974266,0,0,0,0,0.07999999999999997,0.24,return,1.1648762999102473,-7,-4,0.07999999999999997,0.24,,,,,,,,,,,,,,,,,,,,,,,,,,,,,,,,,,,,,,,,,,,,,,,,,,,,,,,,3TRYKE,train_y,blue_star,top_right,2025-03-13_17h10.59.069,HideSeek_v1,2022.2.5,59.92049745061559,
,5,6,5,5,0,-1,62,,train_dim1_1,4,30,,,,2,0,2,0,,,,,,,,,0,0,0,0,0,3,3,3,0,0,0,0,,,,,,,,,,,,,,,,,,,,,,,,,stimuli/alien_stimuli/62.png,,,,,,,,,,,,,,,,,,,,,,,,,,,,,stimuli/alien_stimuli/64.png,64,7,5,,,,,,,30,,,,,,,,1454.5751404000912,1454.5751404000912,1454.5751404000912,1454.5751404000912,1454.5751404000912,right,9.195884100045078,0,0,0,99,0.32,0.08,right,9.113477099919692,,,,,1453.0156589000253,1454.5751404000912,0.4,0,0.24,0.0,0.12,0.4,0.4,0.4,0,1441.9592021000572,1441.9592021000572,1441.9592021000572,1441.9592021000572,1441.9592021000572,1441.9592021000572,1441.9592021000572,1441.9592021000572,1441.956745129975,11.161421000026166,return,11.034877000027336,,,,,,,,,,,,,,,,,,,,,,,,,,,,,,,,,3TRYKE,train_y,blue_star,top_right,2025-03-13_17h10.59.069,HideSeek_v1,2022.2.5,59.92049745061559,
,5,6,5,5,0,-1,62,,train_dim1_1,4,30,,,,2,0,2,0,,,,,,,,,0,0,0,0,0,3,3,3,1,0,1,0,,,,,,,,,,,,,,,,,,,,,,,,,,,,,,,,,,,,,,,,,,,,,,,,,,,,,,,,,,,,,,,,30,,,,,,,,1463.770779100014,1463.770779100014,1463.770779100014,1463.770779100014,1463.770779100014,right,5.213828300009482,0,0,0,99,0.4,0.08,right,5.140411200001836,,,,,,,,,,,,,,,,,,,,,,,,,,,,,,,,,,,,,,,,,,,,,,,,,,,,,,,,,,,,3TRYKE,train_y,blue_star,top_right,2025-03-13_17h10.59.069,HideSeek_v1,2022.2.5,59.92049745061559,
,5,6,5,5,0,-1,62,,train_dim1_1,4,30,,,,2,0,2,0,,,,,,,,,0,0,0,0,0,3,3,3,2,0,2,0,,,,,,,,,,,,,,,,,,,,,,,,,,,,,,,,,,,,,,,,,,,,,,,,,,,,,,,,,,,,,,,,30,,,,,,,,1468.9921430000104,1468.9921430000104,1468.9921430000104,1468.9921430000104,1468.9921430000104,return,4.630108900018968,0,0,0,0,0.4,0.08,return,4.544032600009814,-7,-2,0.4,0.08,,,,,,,,,,,,,,,,,,,,,,,,,,,,,,,,,,,,,,,,,,,,,,,,,,,,,,,,3TRYKE,train_y,blue_star,top_right,2025-03-13_17h10.59.069,HideSeek_v1,2022.2.5,59.92049745061559,
,8,8,8,8,0,0,61,,train_dim1_1,5,30,,,,2,0,2,0,,,,,,,,,0,0,0,0,0,4,4,4,0,0,0,0,,,,,,,,,,,,,,,,,,,,,,,,,stimuli/alien_stimuli/61.png,,,,,,,,,,,,,,,,,,,,,,,,,,,,,stimuli/alien_stimuli/62.png,62,5,6,,,,,,,30,,,,,,,,1481.2883272001054,1481.2883272001054,1481.2883272001054,1481.2883272001054,1481.2883272001054,down,1.8078842000104487,0,0,0,99,0.48,0.15999999999999998,down,1.7283089999109507,,,,,1479.7379728000378,1481.2883272001054,0.24,0,0.08,0.0,0.04,0.24,0.24,0.24,0,1475.1864409000846,1475.1864409000846,1475.1864409000846,1475.1864409000846,1475.1864409000846,1475.1864409000846,1475.1864409000846,1475.1864409000846,1475.1839992300024,4.6566378000425175,return,4.535823500016704,,,,,,,,,,,,,,,,,,,,,,,,,,,,,,,,,3TRYKE,train_y,blue_star,top_right,2025-03-13_17h10.59.069,HideSeek_v1,2022.2.5,59.92049745061559,
,8,8,8,8,0,0,61,,train_dim1_1,5,30,,,,2,0,2,0,,,,,,,,,0,0,0,0,0,4,4,4,1,0,1,0,,,,,,,,,,,,,,,,,,,,,,,,,,,,,,,,,,,,,,,,,,,,,,,,,,,,,,,,,,,,,,,,30,,,,,,,,1483.1032765000127,1483.1032765000127,1483.1032765000127,1483.1032765000127,1483.1032765000127,down,1.0100052000489086,0,0,0,99,0.48,0.07999999999999997,down,0.9337993999943137,,,,,,,,,,,,,,,,,,,,,,,,,,,,,,,,,,,,,,,,,,,,,,,,,,,,,,,,,,,,3TRYKE,train_y,blue_star,top_right,2025-03-13_17h10.59.069,HideSeek_v1,2022.2.5,59.92049745061559,
,8,8,8,8,0,0,61,,train_dim1_1,5,30,,,,2,0,2,0,,,,,,,,,0,0,0,0,0,4,4,4,2,0,2,0,,,,,,,,,,,,,,,,,,,,,,,,,,,,,,,,,,,,,,,,,,,,,,,,,,,,,,,,,,,,,,,,30,,,,,,,,1484.1209486000007,1484.1209486000007,1484.1209486000007,1484.1209486000007,1484.1209486000007,return,1.210716599947773,0,0,0,0,0.48,0.07999999999999997,return,1.1378269999986514,-9,-2,0.48,0.07999999999999997,,,,,,,,,,,,,,,,,,,,,,,,,,,,,,,,,,,,,,,,,,,,,,,,,,,,,,,,3TRYKE,train_y,blue_star,top_right,2025-03-13_17h10.59.069,HideSeek_v1,2022.2.5,59.92049745061559,
,6,9,6,8,0,-1,62,,train_dim1_1,6,30,,,,2,0,2,0,,,,,,,,,0,0,0,0,0,5,5,5,0,0,0,0,,,,,,,,,,,,,,,,,,,,,,,,,stimuli/alien_stimuli/62.png,,,,,,,,,,,,,,,,,,,,,,,,,,,,,stimuli/alien_stimuli/61.png,61,8,7,,,,,,,30,,,,,,,,1492.8829003000865,1492.8829003000865,1492.8829003000865,1492.8829003000865,1492.8829003000865,down,9.162796500022523,0,0,0,99,0.32,0.24,down,9.07510229991749,,,,,1491.3307236001128,1492.8829003000865,0.48,0.24,0.0,0.0,0.24,0.48,0.48,0.48,0.24,1486.896536800079,1486.896536800079,1486.896536800079,1486.896536800079,1486.896536800079,1486.896536800079,1486.896536800079,1486.896536800079,1486.8940920299733,4.538916600053199,return,4.4030849999981,,,,,,,,,,,,,,,,,,,,,,,,,,,,,,,,,3TRYKE,train_y,blue_star,top_right,2025-03-13_17h10.59.069,HideSeek_v1,2022.2.5,59.92049745061559,
,6,9,6,8,0,-1,62,,train_dim1_1,6,30,,,,2,0,2,0,,,,,,,,,0,0,0,0,0,5,5,5,1,0,1,0,,,,,,,,,,,,,,,,,,,,,,,,,,,,,,,,,,,,,,,,,,,,,,,,,,,,,,,,,,,,,,,,30,,,,,,,,1502.0525179000106,1502.0525179000106,1502.0525179000106,1502.0525179000106,1502.0525179000106,return,6.030982199939899,1,0,0,1,0.32,0.24,return,5.9469350998988375,-10,-2,0.32,0.24,,,,,,,,,,,,,,,,,,,,,,,,,,,,,,,,,,,,,,,,,,,,,,,,,,,,,,,,3TRYKE,train_y,blue_star,top_right,2025-03-13_17h10.59.069,HideSeek_v1,2022.2.5,59.92049745061559,
,6,8,6,5,0,-3,64,,train_dim1_1,7,30,,,,2,0,2,0,,,,,,,,,0,0,0,0,0,6,6,6,0,0,0,0,,,,,,,,,,,,,,,,,,,,,,,,,stimuli/alien_stimuli/64.png,,,,,,,,,,,,,,,,,,,,,,,,,,,,,stimuli/alien_stimuli/62.png,62,6,8,,,,,,,30,,,,,,,,1518.552246300038,1518.552246300038,1518.552246300038,1518.552246300038,1518.552246300038,down,4.1930457999696955,1,0,0,99,0.32,0.15999999999999998,down,4.1172399000497535,,,,,1517.002158600022,1518.552246300038,0.32,0.24,0.08,0.0,0.28,0.32,0.32,0.32,0.24,1509.6497522999998,1509.6497522999998,1509.6497522999998,1509.6497522999998,1509.6497522999998,1509.6497522999998,1509.6497522999998,1509.6497522999998,1509.64599263001,7.458276899997145,return,7.330728100030683,,,,,,,,,,,,,,,,,,,,,,,,,,,,,,,,,3TRYKE,train_y,blue_star,top_right,2025-03-13_17h10.59.069,HideSeek_v1,2022.2.5,59.92049745061559,
,6,8,6,5,0,-3,64,,train_dim1_1,7,30,,,,2,0,2,0,,,,,,,,,0,0,0,0,0,6,6,6,1,0,1,0,,,,,,,,,,,,,,,,,,,,,,,,,,,,,,,,,,,,,,,,,,,,,,,,,,,,,,,,,,,,,,,,30,,,,,,,,1522.752275600098,1522.752275600098,1522.752275600098,1522.752275600098,1522.752275600098,down,1.4271295999642462,1,0,0,99,0.32,0.07999999999999997,down,1.3513745999662206,,,,,,,,,,,,,,,,,,,,,,,,,,,,,,,,,,,,,,,,,,,,,,,,,,,,,,,,,,,,3TRYKE,train_y,blue_star,top_right,2025-03-13_17h10.59.069,HideSeek_v1,2022.2.5,59.92049745061559,
,6,8,6,5,0,-3,64,,train_dim1_1,7,30,,,,2,0,2,0,,,,,,,,,0,0,0,0,0,6,6,6,2,0,2,0,,,,,,,,,,,,,,,,,,,,,,,,,,,,,,,,,,,,,,,,,,,,,,,,,,,,,,,,,,,,,,,,30,,,,,,,,1524.186267000041,1524.186267000041,1524.186267000041,1524.186267000041,1524.186267000041,down,5.747592500061728,1,0,0,99,0.32,-2.7755575615628914e-17,down,5.66087470005732,,,,,,,,,,,,,,,,,,,,,,,,,,,,,,,,,,,,,,,,,,,,,,,,,,,,,,,,,,,,3TRYKE,train_y,blue_star,top_right,2025-03-13_17h10.59.069,HideSeek_v1,2022.2.5,59.92049745061559,
,6,8,6,5,0,-3,64,,train_dim1_1,7,30,,,,2,0,2,0,,,,,,,,,0,0,0,0,0,6,6,6,3,0,3,0,,,,,,,,,,,,,,,,,,,,,,,,,,,,,,,,,,,,,,,,,,,,,,,,,,,,,,,,,,,,,,,,30,,,,,,,,1529.9412924000062,1529.9412924000062,1529.9412924000062,1529.9412924000062,1529.9412924000062,return,1.828518099966459,2,0,0,1,0.32,-2.7755575615628914e-17,return,1.7525277000386268,-13,-2,0.32,-2.7755575615628914e-17,,,,,,,,,,,,,,,,,,,,,,,,,,,,,,,,,,,,,,,,,,,,,,,,,,,,,,,,3TRYKE,train_y,blue_star,top_right,2025-03-13_17h10.59.069,HideSeek_v1,2022.2.5,59.92049745061559,
,9,7,9,7,0,0,61,,train_dim1_1,8,30,,,,2,0,2,0,,,,,,,,,0,0,0,0,0,7,7,7,0,0,0,0,,,,,,,,,,,,,,,,,,,,,,,,,stimuli/alien_stimuli/61.png,,,,,,,,,,,,,,,,,,,,,,,,,,,,,stimuli/alien_stimuli/64.png,64,6,9,,,,,,,30,,,,,,,,1537.4359861999983,1537.4359861999983,1537.4359861999983,1537.4359861999983,1537.4359861999983,return,3.3416259000077844,3,0,0,1,0.56,0.16,return,3.2542071000207216,-13,-2,0.56,0.16,1535.8842760000844,1537.4359861999983,0.32,0,0.24,0.0,0.12,0.32,0.32,0.32,0,1533.3356883000815,1533.3356883000815,1533.3356883000815,1533.3356883000815,1533.3356883000815,1533.3356883000815,1533.3356883000815,1533.3356883000815,1533.33229403008,2.6542994999326766,return,2.5270415999693796,,,,,,,,,,,,,,,,,,,,,,,,,,,,,,,,,3TRYKE,train_y,blue_star,top_right,2025-03-13_17h10.59.069,HideSeek_v1,2022.2.5,59.92049745061559,
,9,8,9,4,0,-4,65,,train_dim1_1,9,30,,,,2,0,2,0,,,,,,,,,0,0,0,0,0,8,8,8,0,0,0,0,,,,,,,,,,,,,,,,,,,,,,,,,stimuli/alien_stimuli/65.png,,,,,,,,,,,,,,,,,,,,,,,,,,,,,stimuli/alien_stimuli/61.png,61,9,10,,,,,,,30,,,,,,,,1546.6597615000792,1546.6597615000792,1546.6597615000792,1546.6597615000792,1546.6597615000792,down,1.924255199963227,3,0,0,99,0.56,0.15999999999999998,down,1.8463628999888897,,,,,1545.1087668000255,1546.6597615000792,0.56,0.16,0.0,0.0,0.16,0.56,0.56,0.56,0.16,1542.329853800009,1542.329853800009,1542.329853800009,1542.329853800009,1542.329853800009,1542.329853800009,1542.329853800009,1542.329853800009,1542.3229957400588,2.8712253000121564,return,2.7492557000368834,,,,,,,,,,,,,,,,,,,,,,,,,,,,,,,,,3TRYKE,train_y,blue_star,top_right,2025-03-13_17h10.59.069,HideSeek_v1,2022.2.5,59.92049745061559,
,9,8,9,4,0,-4,65,,train_dim1_1,9,30,,,,2,0,2,0,,,,,,,,,0,0,0,0,0,8,8,8,1,0,1,0,,,,,,,,,,,,,,,,,,,,,,,,,,,,,,,,,,,,,,,,,,,,,,,,,,,,,,,,,,,,,,,,30,,,,,,,,1548.5904439000878,1548.5904439000878,1548.5904439000878,1548.5904439000878,1548.5904439000878,down,1.4938324999529868,3,0,0,99,0.56,0.07999999999999997,down,1.4143604999408126,,,,,,,,,,,,,,,,,,,,,,,,,,,,,,,,,,,,,,,,,,,,,,,,,,,,,,,,,,,,3TRYKE,train_y,blue_star,top_right,2025-03-13_17h10.59.069,HideSeek_v1,2022.2.5,59.92049745061559,
,9,8,9,4,0,-4,65,,train_dim1_1,9,30,,,,2,0,2,0,,,,,,,,,0,0,0,0,0,8,8,8,2,0,2,0,,,,,,,,,,,,,,,,,,,,,,,,,,,,,,,,,,,,,,,,,,,,,,,,,,,,,,,,,,,,,,,,30,,,,,,,,1550.091566100018,1550.091566100018,1550.091566100018,1550.091566100018,1550.091566100018,down,3.6128167000133544,3,0,0,99,0.56,-2.7755575615628914e-17,down,3.5408437000587583,,,,,,,,,,,,,,,,,,,,,,,,,,,,,,,,,,,,,,,,,,,,,,,,,,,,,,,,,,,,3TRYKE,train_y,blue_star,top_right,2025-03-13_17h10.59.069,HideSeek_v1,2022.2.5,59.92049745061559,
,9,8,9,4,0,-4,65,,train_dim1_1,9,30,,,,2,0,2,0,,,,,,,,,0,0,0,0,0,8,8,8,3,0,3,0,,,,,,,,,,,,,,,,,,,,,,,,,,,,,,,,,,,,,,,,,,,,,,,,,,,,,,,,,,,,,,,,30,,,,,,,,1553.7122020000825,1553.7122020000825,1553.7122020000825,1553.7122020000825,1553.7122020000825,down,4.078863500035368,3,0,0,99,0.56,-0.08000000000000003,down,3.9987758999923244,,,,,,,,,,,,,,,,,,,,,,,,,,,,,,,,,,,,,,,,,,,,,,,,,,,,,,,,,,,,3TRYKE,train_y,blue_star,top_right,2025-03-13_17h10.59.069,HideSeek_v1,2022.2.5,59.92049745061559,
,9,8,9,4,0,-4,65,,train_dim1_1,9,30,,,,2,0,2,0,,,,,,,,,0,0,0,0,0,8,8,8,4,0,4,0,,,,,,,,,,,,,,,,,,,,,,,,,,,,,,,,,,,,,,,,,,,,,,,,,,,,,,,,,,,,,,,,30,,,,,,,,1557.7982324000914,1557.7982324000914,1557.7982324000914,1557.7982324000914,1557.7982324000914,return,1.6444914999883622,4,0,0,1,0.56,-0.08000000000000003,return,1.5634448999771848,-17,-2,0.56,-0.08000000000000003,,,,,,,,,,,,,,,,,,,,,,,,,,,,,,,,,,,,,,,,,,,,,,,,,,,,,,,,3TRYKE,train_y,blue_star,top_right,2025-03-13_17h10.59.069,HideSeek_v1,2022.2.5,59.92049745061559,
,7,7,7,2,0,-5,66,,train_dim1_1,10,30,,,,2,0,2,0,,,,,,,,,0,0,0,0,0,9,9,9,0,0,0,0,,,,,,,,,,,,,,,,,,,,,,,,,stimuli/alien_stimuli/66.png,,,,,,,,,,,,,,,,,,,,,,,,,,,,,stimuli/alien_stimuli/65.png,65,9,11,,,,,,,30,,,,,,,,1564.8410002000164,1564.8410002000164,1564.8410002000164,1564.8410002000164,1564.8410002000164,down,1.89078289992176,4,0,0,99,0.4,0.08,down,1.8031756000127643,,,,,1563.2905524000525,1564.8410002000164,0.56,-0.08,0.32,0.0,0.07999999999999999,0.56,0.56,0.56,-0.08,1561.0102665000595,1561.0102665000595,1561.0102665000595,1561.0102665000595,1561.0102665000595,1561.0102665000595,1561.0102665000595,1561.0102665000595,1561.0053632299764,2.3877219000132754,return,2.258670400013216,,,,,,,,,,,,,,,,,,,,,,,,,,,,,,,,,3TRYKE,train_y,blue_star,top_right,2025-03-13_17h10.59.069,HideSeek_v1,2022.2.5,59.92049745061559,
,7,7,7,2,0,-5,66,,train_dim1_1,10,30,,,,2,0,2,0,,,,,,,,,0,0,0,0,0,9,9,9,1,0,1,0,,,,,,,,,,,,,,,,,,,,,,,,,,,,,,,,,,,,,,,,,,,,,,,,,,,,,,,,,,,,,,,,30,,,,,,,,1566.7396914000856,1566.7396914000856,1566.7396914000856,1566.7396914000856,1566.7396914000856,down,1.36066090001259,4,0,0,99,0.4,0.0,down,1.2725964999990538,,,,,,,,,,,,,,,,,,,,,,,,,,,,,,,,,,,,,,,,,,,,,,,,,,,,,,,,,,,,3TRYKE,train_y,blue_star,top_right,2025-03-13_17h10.59.069,HideSeek_v1,2022.2.5,59.92049745061559,
,7,7,7,2,0,-5,66,,train_dim1_1,10,30,,,,2,0,2,0,,,,,,,,,0,0,0,0,0,9,9,9,2,0,2,0,,,,,,,,,,,,,,,,,,,,,,,,,,,,,,,,,,,,,,,,,,,,,,,,,,,,,,,,,,,,,,,,30,,,,,,,,1568.1070038001053,1568.1070038001053,1568.1070038001053,1568.1070038001053,1568.1070038001053,return,1.7441154000116512,4,0,0,0,0.4,0.0,return,1.6672005000291392,-19,-2,0.4,0.0,,,,,,,,,,,,,,,,,,,,,,,,,,,,,,,,,,,,,,,,,,,,,,,,,,,,,,,,3TRYKE,train_y,blue_star,top_right,2025-03-13_17h10.59.069,HideSeek_v1,2022.2.5,59.92049745061559,
,9,6,9,2,0,-4,65,,train_dim1_1,11,30,,,,2,0,2,0,,,,,,,,,0,0,0,0,0,10,10,10,0,0,0,0,,,,,,,,,,,,,,,,,,,,,,,,,stimuli/alien_stimuli/65.png,,,,,,,,,,,,,,,,,,,,,,,,,,,,,stimuli/alien_stimuli/66.png,66,7,12,,,,,,,30,,,,,,,,1576.1522794000339,1576.1522794000339,1576.1522794000339,1576.1522794000339,1576.1522794000339,down,1.6882889999542385,4,0,0,99,0.56,0.0,down,1.6093904000008479,,,,,1574.5998609000817,1576.1522794000339,0.4,-0.24,0.4,0.0,-0.039999999999999994,0.4,0.4,0.4,-0.24,1571.4167805000907,1571.4167805000907,1571.4167805000907,1571.4167805000907,1571.4167805000907,1571.4167805000907,1571.4167805000907,1571.4167805000907,1571.4138395300483,3.2883601000066847,return,3.1558938999660313,,,,,,,,,,,,,,,,,,,,,,,,,,,,,,,,,3TRYKE,train_y,blue_star,top_right,2025-03-13_17h10.59.069,HideSeek_v1,2022.2.5,59.92049745061559,
,9,6,9,2,0,-4,65,,train_dim1_1,11,30,,,,2,0,2,0,,,,,,,,,0,0,0,0,0,10,10,10,1,0,1,0,,,,,,,,,,,,,,,,,,,,,,,,,,,,,,,,,,,,,,,,,,,,,,,,,,,,,,,,,,,,,,,,30,,,,,,,,1577.8476976000238,1577.8476976000238,1577.8476976000238,1577.8476976000238,1577.8476976000238,down,1.0438945000059903,4,0,0,99,0.56,-0.08,down,0.9591460999799892,,,,,,,,,,,,,,,,,,,,,,,,,,,,,,,,,,,,,,,,,,,,,,,,,,,,,,,,,,,,3TRYKE,train_y,blue_star,top_right,2025-03-13_17h10.59.069,HideSeek_v1,2022.2.5,59.92049745061559,
,9,6,9,2,0,-4,65,,train_dim1_1,11,30,,,,2,0,2,0,,,,,,,,,0,0,0,0,0,10,10,10,2,0,2,0,,,,,,,,,,,,,,,,,,,,,,,,,,,,,,,,,,,,,,,,,,,,,,,,,,,,,,,,,,,,,,,,30,,,,,,,,1578.8992111000698,1578.8992111000698,1578.8992111000698,1578.8992111000698,1578.8992111000698,down,1.0265028000576422,4,0,0,99,0.56,-0.16,down,0.9411668999819085,,,,,,,,,,,,,,,,,,,,,,,,,,,,,,,,,,,,,,,,,,,,,,,,,,,,,,,,,,,,3TRYKE,train_y,blue_star,top_right,2025-03-13_17h10.59.069,HideSeek_v1,2022.2.5,59.92049745061559,
,9,6,9,2,0,-4,65,,train_dim1_1,11,30,,,,2,0,2,0,,,,,,,,,0,0,0,0,0,10,10,10,3,0,3,0,,,,,,,,,,,,,,,,,,,,,,,,,,,,,,,,,,,,,,,,,,,,,,,,,,,,,,,,,,,,,,,,30,,,,,,,,1579.9324023000663,1579.9324023000663,1579.9324023000663,1579.9324023000663,1579.9324023000663,down,0.2268047999823466,4,0,0,99,0.56,-0.24,down,0.14595899998676032,,,,,,,,,,,,,,,,,,,,,,,,,,,,,,,,,,,,,,,,,,,,,,,,,,,,,,,,,,,,3TRYKE,train_y,blue_star,top_right,2025-03-13_17h10.59.069,HideSeek_v1,2022.2.5,59.92049745061559,
,9,6,9,2,0,-4,65,,train_dim1_1,11,30,,,,2,0,2,0,,,,,,,,,0,0,0,0,0,10,10,10,4,0,4,0,,,,,,,,,,,,,,,,,,,,,,,,,,,,,,,,,,,,,,,,,,,,,,,,,,,,,,,,,,,,,,,,30,,,,,,,,1580.1667765000602,1580.1667765000602,1580.1667765000602,1580.1667765000602,1580.1667765000602,up,2.778541399980895,4,0,0,99,0.56,-0.15999999999999998,up,2.6908044000156224,,,,,,,,,,,,,,,,,,,,,,,,,,,,,,,,,,,,,,,,,,,,,,,,,,,,,,,,,,,,3TRYKE,train_y,blue_star,top_right,2025-03-13_17h10.59.069,HideSeek_v1,2022.2.5,59.92049745061559,
,9,6,9,2,0,-4,65,,train_dim1_1,11,30,,,,2,0,2,0,,,,,,,,,0,0,0,0,0,10,10,10,5,0,5,0,,,,,,,,,,,,,,,,,,,,,,,,,,,,,,,,,,,,,,,,,,,,,,,,,,,,,,,,,,,,,,,,30,,,,,,,,1582.95237240009,1582.95237240009,1582.95237240009,1582.95237240009,1582.95237240009,down,2.228056199965067,4,0,0,99,0.56,-0.24,down,2.1545865999069065,,,,,,,,,,,,,,,,,,,,,,,,,,,,,,,,,,,,,,,,,,,,,,,,,,,,,,,,,,,,3TRYKE,train_y,blue_star,top_right,2025-03-13_17h10.59.069,HideSeek_v1,2022.2.5,59.92049745061559,
,9,6,9,2,0,-4,65,,train_dim1_1,11,30,,,,2,0,2,0,,,,,,,,,0,0,0,0,0,10,10,10,6,0,6,0,,,,,,,,,,,,,,,,,,,,,,,,,,,,,,,,,,,,,,,,,,,,,,,,,,,,,,,,,,,,,,,,30,,,,,,,,1585.186815300025,1585.186815300025,1585.186815300025,1585.186815300025,1585.186815300025,return,0.7273456999100745,5,0,0,1,0.56,-0.24,return,0.6553580000763759,-23,-2,0.56,-0.24,,,,,,,,,,,,,,,,,,,,,,,,,,,,,,,,,,,,,,,,,,,,,,,,,,,,,,,,3TRYKE,train_y,blue_star,top_right,2025-03-13_17h10.59.069,HideSeek_v1,2022.2.5,59.92049745061559,
,5,5,5,5,0,0,61,,train_dim1_1,12,30,,,,2,0,2,0,,,,,,,,,0,0,0,0,0,11,11,11,0,0,0,0,,,,,,,,,,,,,,,,,,,,,,,,,stimuli/alien_stimuli/61.png,,,,,,,,,,,,,,,,,,,,,,,,,,,,,stimuli/alien_stimuli/65.png,65,9,13,,,,,,,30,,,,,,,,1591.0629230000777,1591.0629230000777,1591.0629230000777,1591.0629230000777,1591.0629230000777,down,2.22487340006046,5,0,0,99,0.24,-0.08,down,2.152676299912855,,,,,1589.5121560000116,1591.0629230000777,0.56,-0.24,0.32,0.0,-0.07999999999999999,0.56,0.56,0.56,-0.24,1587.4853154000593,1587.4853154000593,1587.4853154000593,1587.4853154000593,1587.4853154000593,1587.4853154000593,1587.4853154000593,1587.4853154000593,1587.4772140300715,2.1371547000017017,return,1.9984073999803513,,,,,,,,,,,,,,,,,,,,,,,,,,,,,,,,,3TRYKE,train_y,blue_star,top_right,2025-03-13_17h10.59.069,HideSeek_v1,2022.2.5,59.92049745061559,
,5,5,5,5,0,0,61,,train_dim1_1,12,30,,,,2,0,2,0,,,,,,,,,0,0,0,0,0,11,11,11,1,0,1,0,,,,,,,,,,,,,,,,,,,,,,,,,,,,,,,,,,,,,,,,,,,,,,,,,,,,,,,,,,,,,,,,30,,,,,,,,1593.2946287000086,1593.2946287000086,1593.2946287000086,1593.2946287000086,1593.2946287000086,return,0.6096337999915704,5,1,0,0,0.24,-0.08,return,0.5330936000682414,-24,-2,0.24,-0.08,,,,,,,,,,,,,,,,,,,,,,,,,,,,,,,,,,,,,,,,,,,,,,,,,,,,,,,,3TRYKE,train_y,blue_star,top_right,2025-03-13_17h10.59.069,HideSeek_v1,2022.2.5,59.92049745061559,
,9,8,9,7,0,-1,62,,train_dim1_1,13,30,,,,2,0,2,0,,,,,,,,,0,0,0,0,0,12,12,12,0,0,0,0,,,,,,,,,,,,,,,,,,,,,,,,,stimuli/alien_stimuli/62.png,,,,,,,,,,,,,,,,,,,,,,,,,,,,,stimuli/alien_stimuli/61.png,61,5,14,,,,,,,30,,,,,,,,1600.6880091000348,1600.6880091000348,1600.6880091000348,1600.6880091000348,1600.6880091000348,down,2.9417201000032946,5,1,0,99,0.56,0.15999999999999998,down,2.8644941999809816,,,,,1599.1369343000697,1600.6880091000348,0.24,0,0.0,0.0,0.0,0.24,0.24,0.24,0,1595.4543616001029,1595.4543616001029,1595.4543616001029,1595.4543616001029,1595.4543616001029,1595.4543616001029,1595.4543616001029,1595.4543616001029,1595.4504739400697,3.7718399999430403,return,3.6524916000198573,,,,,,,,,,,,,,,,,,,,,,,,,,,,,,,,,3TRYKE,train_y,blue_star,top_right,2025-03-13_17h10.59.069,HideSeek_v1,2022.2.5,59.92049745061559,
,9,8,9,7,0,-1,62,,train_dim1_1,13,30,,,,2,0,2,0,,,,,,,,,0,0,0,0,0,12,12,12,1,0,1,0,,,,,,,,,,,,,,,,,,,,,,,,,,,,,,,,,,,,,,,,,,,,,,,,,,,,,,,,,,,,,,,,30,,,,,,,,1603.6362460000673,1603.6362460000673,1603.6362460000673,1603.6362460000673,1603.6362460000673,return,0.810166500043124,6,0,0,1,0.56,0.15999999999999998,return,0.7337709999410436,-25,-2,0.56,0.15999999999999998,,,,,,,,,,,,,,,,,,,,,,,,,,,,,,,,,,,,,,,,,,,,,,,,,,,,,,,,3TRYKE,train_y,blue_star,top_right,2025-03-13_17h10.59.069,HideSeek_v1,2022.2.5,59.92049745061559,
,7,7,7,2,0,-5,66,,train_dim1_1,14,30,,,,2,0,2,0,,,,,,,,,0,0,0,0,0,13,13,13,0,0,0,0,,,,,,,,,,,,,,,,,,,,,,,,,stimuli/alien_stimuli/66.png,,,,,,,,,,,,,,,,,,,,,,,,,,,,,stimuli/alien_stimuli/62.png,62,9,15,,,,,,,30,,,,,,,,1609.7116055000806,1609.7116055000806,1609.7116055000806,1609.7116055000806,1609.7116055000806,down,1.6408314000582322,6,0,0,99,0.4,0.08,down,1.563927499926649,,,,,1608.1608018000843,1609.7116055000806,0.56,0.16,0.08,0.0,0.2,0.56,0.56,0.56,0.16,1606.0127271000529,1606.0127271000529,1606.0127271000529,1606.0127271000529,1606.0127271000529,1606.0127271000529,1606.0127271000529,1606.0127271000529,1606.009055230033,2.2541386999655515,return,2.126682800007984,,,,,,,,,,,,,,,,,,,,,,,,,,,,,,,,,3TRYKE,train_y,blue_star,top_right,2025-03-13_17h10.59.069,HideSeek_v1,2022.2.5,59.92049745061559,
,7,7,7,2,0,-5,66,,train_dim1_1,14,30,,,,2,0,2,0,,,,,,,,,0,0,0,0,0,13,13,13,1,0,1,0,,,,,,,,,,,,,,,,,,,,,,,,,,,,,,,,,,,,,,,,,,,,,,,,,,,,,,,,,,,,,,,,30,,,,,,,,1611.3595394000877,1611.3595394000877,1611.3595394000877,1611.3595394000877,1611.3595394000877,return,6.815227899933234,6,0,0,0,0.4,0.08,return,6.73898449994158,-26,-2,0.4,0.08,,,,,,,,,,,,,,,,,,,,,,,,,,,,,,,,,,,,,,,,,,,,,,,,,,,,,,,,3TRYKE,train_y,blue_star,top_right,2025-03-13_17h10.59.069,HideSeek_v1,2022.2.5,59.92049745061559,
,6,9,6,6,0,-3,64,,train_dim1_1,15,30,,,,2,0,2,0,,,,,,,,,0,0,0,0,0,14,14,14,0,0,0,0,,,,,,,,,,,,,,,,,,,,,,,,,stimuli/alien_stimuli/64.png,,,,,,,,,,,,,,,,,,,,,,,,,,,,,stimuli/alien_stimuli/66.png,66,7,16,,,,,,,30,,,,,,,,1623.3418627000647,1623.3418627000647,1623.3418627000647,1623.3418627000647,1623.3418627000647,down,4.142382099991664,6,0,0,99,0.32,0.24,down,4.053052700008266,,,,,1621.7891126000322,1623.3418627000647,0.4,-0.24,0.4,0.0,-0.039999999999999994,0.4,0.4,0.4,-0.24,1619.7423006000463,1619.7423006000463,1619.7423006000463,1619.7423006000463,1619.7423006000463,1619.7423006000463,1619.7423006000463,1619.7423006000463,1619.7374365300288,2.1540901000844315,return,2.029347399948165,,,,,,,,,,,,,,,,,,,,,,,,,,,,,,,,,3TRYKE,train_y,blue_star,top_right,2025-03-13_17h10.59.069,HideSeek_v1,2022.2.5,59.92049745061559,
,6,9,6,6,0,-3,64,,train_dim1_1,15,30,,,,2,0,2,0,,,,,,,,,0,0,0,0,0,14,14,14,1,0,1,0,,,,,,,,,,,,,,,,,,,,,,,,,,,,,,,,,,,,,,,,,,,,,,,,,,,,,,,,,,,,,,,,30,,,,,,,,1627.4901593000395,1627.4901593000395,1627.4901593000395,1627.4901593000395,1627.4901593000395,down,1.7607641998911276,6,0,0,99,0.32,0.15999999999999998,down,1.679983300040476,,,,,,,,,,,,,,,,,,,,,,,,,,,,,,,,,,,,,,,,,,,,,,,,,,,,,,,,,,,,3TRYKE,train_y,blue_star,top_right,2025-03-13_17h10.59.069,HideSeek_v1,2022.2.5,59.92049745061559,
,6,9,6,6,0,-3,64,,train_dim1_1,15,30,,,,2,0,2,0,,,,,,,,,0,0,0,0,0,14,14,14,2,0,2,0,,,,,,,,,,,,,,,,,,,,,,,,,,,,,,,,,,,,,,,,,,,,,,,,,,,,,,,,,,,,,,,,30,,,,,,,,1629.2589723001001,1629.2589723001001,1629.2589723001001,1629.2589723001001,1629.2589723001001,down,2.6622316000284627,6,0,0,99,0.32,0.07999999999999997,down,2.577414899948053,,,,,,,,,,,,,,,,,,,,,,,,,,,,,,,,,,,,,,,,,,,,,,,,,,,,,,,,,,,,3TRYKE,train_y,blue_star,top_right,2025-03-13_17h10.59.069,HideSeek_v1,2022.2.5,59.92049745061559,
,6,9,6,6,0,-3,64,,train_dim1_1,15,30,,,,2,0,2,0,,,,,,,,,0,0,0,0,0,14,14,14,3,0,3,0,,,,,,,,,,,,,,,,,,,,,,,,,,,,,,,,,,,,,,,,,,,,,,,,,,,,,,,,,,,,,,,,30,,,,,,,,1631.9257707000943,1631.9257707000943,1631.9257707000943,1631.9257707000943,1631.9257707000943,return,9.367637300048955,7,0,0,1,0.32,0.07999999999999997,return,9.28128839994315,-29,-2,0.32,0.07999999999999997,,,,,,,,,,,,,,,,,,,,,,,,,,,,,,,,,,,,,,,,,,,,,,,,,,,,,,,,3TRYKE,train_y,blue_star,top_right,2025-03-13_17h10.59.069,HideSeek_v1,2022.2.5,59.92049745061559,
,9,5,9,1,0,-4,65,,train_dim1_1,16,30,,,,2,0,2,0,,,,,,,,,0,0,0,0,0,15,15,15,0,0,0,0,,,,,,,,,,,,,,,,,,,,,,,,,stimuli/alien_stimuli/65.png,,,,,,,,,,,,,,,,,,,,,,,,,,,,,stimuli/alien_stimuli/64.png,64,6,17,,,,,,,30,,,,,,,,1646.2920343000442,1646.2920343000442,1646.2920343000442,1646.2920343000442,1646.2920343000442,down,1.7076281999470666,7,0,0,99,0.56,-0.08,down,1.6257713000522926,,,,,1644.7413522000425,1646.2920343000442,0.32,0.08,0.24,0.0,0.2,0.32,0.32,0.32,0.08,1642.8686744000297,1642.8686744000297,1642.8686744000297,1642.8686744000297,1642.8686744000297,1642.8686744000297,1642.8686744000297,1642.8686744000297,1642.8562980299698,1.9876568999607116,return,1.8539615999907255,,,,,,,,,,,,,,,,,,,,,,,,,,,,,,,,,3TRYKE,train_y,blue_star,top_right,2025-03-13_17h10.59.069,HideSeek_v1,2022.2.5,59.92049745061559,
,9,5,9,1,0,-4,65,,train_dim1_1,16,30,,,,2,0,2,0,,,,,,,,,0,0,0,0,0,15,15,15,1,0,1,0,,,,,,,,,,,,,,,,,,,,,,,,,,,,,,,,,,,,,,,,,,,,,,,,,,,,,,,,,,,,,,,,30,,,,,,,,1648.0062296000542,1648.0062296000542,1648.0062296000542,1648.0062296000542,1648.0062296000542,down,0.9600766999647021,7,0,0,99,0.56,-0.16,down,0.8728669000556692,,,,,,,,,,,,,,,,,,,,,,,,,,,,,,,,,,,,,,,,,,,,,,,,,,,,,,,,,,,,3TRYKE,train_y,blue_star,top_right,2025-03-13_17h10.59.069,HideSeek_v1,2022.2.5,59.92049745061559,
,9,5,9,1,0,-4,65,,train_dim1_1,16,30,,,,2,0,2,0,,,,,,,,,0,0,0,0,0,15,15,15,2,0,2,0,,,,,,,,,,,,,,,,,,,,,,,,,,,,,,,,,,,,,,,,,,,,,,,,,,,,,,,,,,,,,,,,30,,,,,,,,1648.9733487000922,1648.9733487000922,1648.9733487000922,1648.9733487000922,1648.9733487000922,down,0.8104268000461161,7,0,0,99,0.56,-0.24,down,0.7348526000278071,,,,,,,,,,,,,,,,,,,,,,,,,,,,,,,,,,,,,,,,,,,,,,,,,,,,,,,,,,,,3TRYKE,train_y,blue_star,top_right,2025-03-13_17h10.59.069,HideSeek_v1,2022.2.5,59.92049745061559,
,9,5,9,1,0,-4,65,,train_dim1_1,16,30,,,,2,0,2,0,,,,,,,,,0,0,0,0,0,15,15,15,3,0,3,0,,,,,,,,,,,,,,,,,,,,,,,,,,,,,,,,,,,,,,,,,,,,,,,,,,,,,,,,,,,,,,,,30,,,,,,,,1649.7912840000354,1649.7912840000354,1649.7912840000354,1649.7912840000354,1649.7912840000354,down,0.9270388999721035,7,0,0,99,0.56,-0.32,down,0.8425885000033304,,,,,,,,,,,,,,,,,,,,,,,,,,,,,,,,,,,,,,,,,,,,,,,,,,,,,,,,,,,,3TRYKE,train_y,blue_star,top_right,2025-03-13_17h10.59.069,HideSeek_v1,2022.2.5,59.92049745061559,
,9,5,9,1,0,-4,65,,train_dim1_1,16,30,,,,2,0,2,0,,,,,,,,,0,0,0,0,0,15,15,15,4,0,4,0,,,,,,,,,,,,,,,,,,,,,,,,,,,,,,,,,,,,,,,,,,,,,,,,,,,,,,,,,,,,,,,,30,,,,,,,,1650.7244380000047,1650.7244380000047,1650.7244380000047,1650.7244380000047,1650.7244380000047,down,2.811867899959907,7,0,0,99,0.56,-0.4,down,2.7362506999634206,,,,,,,,,,,,,,,,,,,,,,,,,,,,,,,,,,,,,,,,,,,,,,,,,,,,,,,,,,,,3TRYKE,train_y,blue_star,top_right,2025-03-13_17h10.59.069,HideSeek_v1,2022.2.5,59.92049745061559,
,9,5,9,1,0,-4,65,,train_dim1_1,16,30,,,,2,0,2,0,,,,,,,,,0,0,0,0,0,15,15,15,5,0,5,0,,,,,,,,,,,,,,,,,,,,,,,,,,,,,,,,,,,,,,,,,,,,,,,,,,,,,,,,,,,,,,,,30,,,,,,,,1653.5434661000036,1653.5434661000036,1653.5434661000036,1653.5434661000036,1653.5434661000036,return,0.7100184999871999,7,1,0,0,0.56,-0.4,return,0.63035609992221,-34,-2,0.56,-0.4,,,,,,,,,,,,,,,,,,,,,,,,,,,,,,,,,,,,,,,,,,,,,,,,,,,,,,,,3TRYKE,train_y,blue_star,top_right,2025-03-13_17h10.59.069,HideSeek_v1,2022.2.5,59.92049745061559,
,8,8,8,5,0,-3,64,,train_dim1_1,17,30,,,,2,0,2,0,,,,,,,,,0,0,0,0,0,16,16,16,0,0,0,0,,,,,,,,,,,,,,,,,,,,,,,,,stimuli/alien_stimuli/64.png,,,,,,,,,,,,,,,,,,,,,,,,,,,,,stimuli/alien_stimuli/65.png,65,9,18,,,,,,,30,,,,,,,,1659.5533191000577,1659.5533191000577,1659.5533191000577,1659.5533191000577,1659.5533191000577,down,4.992391200037673,7,1,0,99,0.48,0.15999999999999998,down,4.91690930002369,,,,,1658.0023503000848,1659.5533191000577,0.56,-0.32,0.32,0.0,-0.16,0.56,0.56,0.56,-0.32,1655.8206925000995,1655.8206925000995,1655.8206925000995,1655.8206925000995,1655.8206925000995,1655.8206925000995,1655.8206925000995,1655.8206925000995,1655.8172394299995,2.287342100054957,return,2.164831700036302,,,,,,,,,,,,,,,,,,,,,,,,,,,,,,,,,3TRYKE,train_y,blue_star,top_right,2025-03-13_17h10.59.069,HideSeek_v1,2022.2.5,59.92049745061559,
,8,8,8,5,0,-3,64,,train_dim1_1,17,30,,,,2,0,2,0,,,,,,,,,0,0,0,0,0,16,16,16,1,0,1,0,,,,,,,,,,,,,,,,,,,,,,,,,,,,,,,,,,,,,,,,,,,,,,,,,,,,,,,,,,,,,,,,30,,,,,,,,1664.5533544000937,1664.5533544000937,1664.5533544000937,1664.5533544000937,1664.5533544000937,down,6.21442799991928,7,1,0,99,0.48,0.07999999999999997,down,6.133417999953963,,,,,,,,,,,,,,,,,,,,,,,,,,,,,,,,,,,,,,,,,,,,,,,,,,,,,,,,,,,,3TRYKE,train_y,blue_star,top_right,2025-03-13_17h10.59.069,HideSeek_v1,2022.2.5,59.92049745061559,
,8,8,8,5,0,-3,64,,train_dim1_1,17,30,,,,2,0,2,0,,,,,,,,,0,0,0,0,0,16,16,16,2,0,2,0,,,,,,,,,,,,,,,,,,,,,,,,,,,,,,,,,,,,,,,,,,,,,,,,,,,,,,,,,,,,,,,,30,,,,,,,,1670.775461900048,1670.775461900048,1670.775461900048,1670.775461900048,1670.775461900048,down,11.568849400035106,7,1,0,99,0.48,-2.7755575615628914e-17,down,11.483606000081636,,,,,,,,,,,,,,,,,,,,,,,,,,,,,,,,,,,,,,,,,,,,,,,,,,,,,,,,,,,,3TRYKE,train_y,blue_star,top_right,2025-03-13_17h10.59.069,HideSeek_v1,2022.2.5,59.92049745061559,
,8,8,8,5,0,-3,64,,train_dim1_1,17,30,,,,2,0,2,0,,,,,,,,,0,0,0,0,0,16,16,16,3,0,3,0,,,,,,,,,,,,,,,,,,,,,,,,,,,,,,,,,,,,,,,,,,,,,,,,,,,,,,,,,,,,,,,,30,,,,,,,,1682.3587974000257,1682.3587974000257,1682.3587974000257,1682.3587974000257,1682.3587974000257,return,1.0606369000161067,8,0,0,1,0.48,-2.7755575615628914e-17,return,0.969000400044024,-37,-2,0.48,-2.7755575615628914e-17,,,,,,,,,,,,,,,,,,,,,,,,,,,,,,,,,,,,,,,,,,,,,,,,,,,,,,,,3TRYKE,train_y,blue_star,top_right,2025-03-13_17h10.59.069,HideSeek_v1,2022.2.5,59.92049745061559,
,7,6,7,6,0,0,61,,train_dim1_1,18,30,,,,2,0,2,0,,,,,,,,,0,0,0,0,0,17,17,17,0,0,0,0,,,,,,,,,,,,,,,,,,,,,,,,,stimuli/alien_stimuli/61.png,,,,,,,,,,,,,,,,,,,,,,,,,,,,,stimuli/alien_stimuli/64.png,64,8,19,,,,,,,30,,,,,,,,1688.1632707000244,1688.1632707000244,1688.1632707000244,1688.1632707000244,1688.1632707000244,return,3.1213420999702066,9,0,0,1,0.4,0.08,return,3.042338000028394,-37,-2,0.4,0.08,1686.6093193000415,1688.1632707000244,0.48,0,0.24,0.0,0.12,0.48,0.48,0.48,0,1684.9743984000525,1684.9743984000525,1684.9743984000525,1684.9743984000525,1684.9743984000525,1684.9743984000525,1684.9743984000525,1684.9743984000525,1684.9747374300728,1.7368903999449685,return,1.6034618000267074,,,,,,,,,,,,,,,,,,,,,,,,,,,,,,,,,3TRYKE,train_y,blue_star,top_right,2025-03-13_17h10.59.069,HideSeek_v1,2022.2.5,59.92049745061559,
,5,9,5,8,0,-1,62,,train_dim1_1,19,30,,,,2,0,2,0,,,,,,,,,0,0,0,0,0,18,18,18,0,0,0,0,,,,,,,,,,,,,,,,,,,,,,,,,stimuli/alien_stimuli/62.png,,,,,,,,,,,,,,,,,,,,,,,,,,,,,stimuli/alien_stimuli/61.png,61,7,20,,,,,,,30,,,,,,,,1696.517609700095,1696.517609700095,1696.517609700095,1696.517609700095,1696.517609700095,down,1.5400696999859065,9,0,0,99,0.24,0.24,down,1.462420399999246,,,,,1694.9661287000636,1696.517609700095,0.4,0.08,0.0,0.0,0.08,0.4,0.4,0.4,0.08,1692.8360560000874,1692.8360560000874,1692.8360560000874,1692.8360560000874,1692.8360560000874,1692.8360560000874,1692.8360560000874,1692.8360560000874,1692.8312877399846,2.220435000024736,return,2.112330099917017,,,,,,,,,,,,,,,,,,,,,,,,,,,,,,,,,3TRYKE,train_y,blue_star,top_right,2025-03-13_17h10.59.069,HideSeek_v1,2022.2.5,59.92049745061559,
,5,9,5,8,0,-1,62,,train_dim1_1,19,30,,,,2,0,2,0,,,,,,,,,0,0,0,0,0,18,18,18,1,0,1,0,,,,,,,,,,,,,,,,,,,,,,,,,,,,,,,,,,,,,,,,,,,,,,,,,,,,,,,,,,,,,,,,30,,,,,,,,1698.0654980000108,1698.0654980000108,1698.0654980000108,1698.0654980000108,1698.0654980000108,return,0.943495300016366,10,0,0,1,0.24,0.24,return,0.8583138000685722,-38,-2,0.24,0.24,,,,,,,,,,,,,,,,,,,,,,,,,,,,,,,,,,,,,,,,,,,,,,,,,,,,,,,,3TRYKE,train_y,blue_star,top_right,2025-03-13_17h10.59.069,HideSeek_v1,2022.2.5,59.92049745061559,
,7,5,7,0,0,-5,66,,train_dim1_1,20,30,,,,2,0,2,0,,,,,,,,,0,0,0,0,0,19,19,19,0,0,0,0,,,,,,,,,,,,,,,,,,,,,,,,,stimuli/alien_stimuli/66.png,,,,,,,,,,,,,,,,,,,,,,,,,,,,,stimuli/alien_stimuli/62.png,62,5,21,,,,,,,30,,,,,,,,1703.8080528000137,1703.8080528000137,1703.8080528000137,1703.8080528000137,1703.8080528000137,down,3.0573282000841573,10,0,0,99,0.4,-0.08,down,2.9692123000277206,,,,,1702.2554452000186,1703.8080528000137,0.24,0.24,0.08,0.0,0.28,0.24,0.24,0.24,0.24,1700.5601812000386,1700.5601812000386,1700.5601812000386,1700.5601812000386,1700.5601812000386,1700.5601812000386,1700.5601812000386,1700.5601812000386,1700.5541474400786,1.7867272000294179,return,1.6640022000065073,,,,,,,,,,,,,,,,,,,,,,,,,,,,,,,,,3TRYKE,train_y,blue_star,top_right,2025-03-13_17h10.59.069,HideSeek_v1,2022.2.5,59.92049745061559,
,7,5,7,0,0,-5,66,,train_dim1_1,20,30,,,,2,0,2,0,,,,,,,,,0,0,0,0,0,19,19,19,1,0,1,0,,,,,,,,,,,,,,,,,,,,,,,,,,,,,,,,,,,,,,,,,,,,,,,,,,,,,,,,,,,,,,,,30,,,,,,,,1706.8721768000396,1706.8721768000396,1706.8721768000396,1706.8721768000396,1706.8721768000396,down,0.5764508000575006,10,0,0,99,0.4,-0.16,down,0.4979237000225112,,,,,,,,,,,,,,,,,,,,,,,,,,,,,,,,,,,,,,,,,,,,,,,,,,,,,,,,,,,,3TRYKE,train_y,blue_star,top_right,2025-03-13_17h10.59.069,HideSeek_v1,2022.2.5,59.92049745061559,
,7,5,7,0,0,-5,66,,train_dim1_1,20,30,,,,2,0,2,0,,,,,,,,,0,0,0,0,0,19,19,19,2,0,2,0,,,,,,,,,,,,,,,,,,,,,,,,,,,,,,,,,,,,,,,,,,,,,,,,,,,,,,,,,,,,,,,,30,,,,,,,,1707.4557440000353,1707.4557440000353,1707.4557440000353,1707.4557440000353,1707.4557440000353,down,0.6266534000169486,10,0,0,99,0.4,-0.24,down,0.5542911000084132,,,,,,,,,,,,,,,,,,,,,,,,,,,,,,,,,,,,,,,,,,,,,,,,,,,,,,,,,,,,3TRYKE,train_y,blue_star,top_right,2025-03-13_17h10.59.069,HideSeek_v1,2022.2.5,59.92049745061559,
,7,5,7,0,0,-5,66,,train_dim1_1,20,30,,,,2,0,2,0,,,,,,,,,0,0,0,0,0,19,19,19,3,0,3,0,,,,,,,,,,,,,,,,,,,,,,,,,,,,,,,,,,,,,,,,,,,,,,,,,,,,,,,,,,,,,,,,30,,,,,,,,1708.089605400106,1708.089605400106,1708.089605400106,1708.089605400106,1708.089605400106,down,1.9449072000570595,10,0,0,99,0.4,-0.32,down,1.8631723000435159,,,,,,,,,,,,,,,,,,,,,,,,,,,,,,,,,,,,,,,,,,,,,,,,,,,,,,,,,,,,3TRYKE,train_y,blue_star,top_right,2025-03-13_17h10.59.069,HideSeek_v1,2022.2.5,59.92049745061559,
,7,5,7,0,0,-5,66,,train_dim1_1,20,30,,,,2,0,2,0,,,,,,,,,0,0,0,0,0,19,19,19,4,0,4,0,,,,,,,,,,,,,,,,,,,,,,,,,,,,,,,,,,,,,,,,,,,,,,,,,,,,,,,,,,,,,,,,30,,,,,,,,1710.0411082000937,1710.0411082000937,1710.0411082000937,1710.0411082000937,1710.0411082000937,return,1.2104644000064582,10,1,0,0,0.4,-0.32,return,1.1291300000157207,-42,-2,0.4,-0.32,,,,,,,,,,,,,,,,,,,,,,,,,,,,,,,,,,,,,,,,,,,,,,,,,,,,,,,,3TRYKE,train_y,blue_star,top_right,2025-03-13_17h10.59.069,HideSeek_v1,2022.2.5,59.92049745061559,
,7,9,7,5,0,-4,65,,train_dim1_1,21,30,,,,2,0,2,0,,,,,,,,,0,0,0,0,0,20,20,20,0,0,0,0,,,,,,,,,,,,,,,,,,,,,,,,,stimuli/alien_stimuli/65.png,,,,,,,,,,,,,,,,,,,,,,,,,,,,,stimuli/alien_stimuli/66.png,66,7,22,,,,,,,30,,,,,,,,1716.4832467000233,1716.4832467000233,1716.4832467000233,1716.4832467000233,1716.4832467000233,down,3.124865400022827,10,1,0,99,0.4,0.24,down,3.041454500053078,,,,,1714.9328133000527,1716.4832467000233,0.4,-0.4,0.4,0.0,-0.2,0.4,0.4,0.4,-0.4,1712.8195223000366,1712.8195223000366,1712.8195223000366,1712.8195223000366,1712.8195223000366,1712.8195223000366,1712.8195223000366,1712.8195223000366,1712.8143859300412,2.2204858999466524,return,2.0960650000488386,,,,,,,,,,,,,,,,,,,,,,,,,,,,,,,,,3TRYKE,train_y,blue_star,top_right,2025-03-13_17h10.59.069,HideSeek_v1,2022.2.5,59.92049745061559,
,7,9,7,5,0,-4,65,,train_dim1_1,21,30,,,,2,0,2,0,,,,,,,,,0,0,0,0,0,20,20,20,1,0,1,0,,,,,,,,,,,,,,,,,,,,,,,,,,,,,,,,,,,,,,,,,,,,,,,,,,,,,,,,,,,,,,,,30,,,,,,,,1719.6154131001094,1719.6154131001094,1719.6154131001094,1719.6154131001094,1719.6154131001094,down,3.8127210999373347,10,1,0,99,0.4,0.15999999999999998,down,3.737811299972236,,,,,,,,,,,,,,,,,,,,,,,,,,,,,,,,,,,,,,,,,,,,,,,,,,,,,,,,,,,,3TRYKE,train_y,blue_star,top_right,2025-03-13_17h10.59.069,HideSeek_v1,2022.2.5,59.92049745061559,
,7,9,7,5,0,-4,65,,train_dim1_1,21,30,,,,2,0,2,0,,,,,,,,,0,0,0,0,0,20,20,20,2,0,2,0,,,,,,,,,,,,,,,,,,,,,,,,,,,,,,,,,,,,,,,,,,,,,,,,,,,,,,,,,,,,,,,,30,,,,,,,,1723.4349227000494,1723.4349227000494,1723.4349227000494,1723.4349227000494,1723.4349227000494,down,2.828749699983746,10,1,0,99,0.4,0.07999999999999997,down,2.7421728000044823,,,,,,,,,,,,,,,,,,,,,,,,,,,,,,,,,,,,,,,,,,,,,,,,,,,,,,,,,,,,3TRYKE,train_y,blue_star,top_right,2025-03-13_17h10.59.069,HideSeek_v1,2022.2.5,59.92049745061559,
,7,9,7,5,0,-4,65,,train_dim1_1,21,30,,,,2,0,2,0,,,,,,,,,0,0,0,0,0,20,20,20,3,0,3,0,,,,,,,,,,,,,,,,,,,,,,,,,,,,,,,,,,,,,,,,,,,,,,,,,,,,,,,,,,,,,,,,30,,,,,,,,1726.2718308001058,1726.2718308001058,1726.2718308001058,1726.2718308001058,1726.2718308001058,down,0.9768389000091702,10,1,0,99,0.4,-2.7755575615628914e-17,down,0.8940530000254512,,,,,,,,,,,,,,,,,,,,,,,,,,,,,,,,,,,,,,,,,,,,,,,,,,,,,,,,,,,,3TRYKE,train_y,blue_star,top_right,2025-03-13_17h10.59.069,HideSeek_v1,2022.2.5,59.92049745061559,
,7,9,7,5,0,-4,65,,train_dim1_1,21,30,,,,2,0,2,0,,,,,,,,,0,0,0,0,0,20,20,20,4,0,4,0,,,,,,,,,,,,,,,,,,,,,,,,,,,,,,,,,,,,,,,,,,,,,,,,,,,,,,,,,,,,,,,,30,,,,,,,,1727.2552301000105,1727.2552301000105,1727.2552301000105,1727.2552301000105,1727.2552301000105,return,0.7932520000031218,11,0,0,1,0.4,-2.7755575615628914e-17,return,0.706543599953875,-46,-2,0.4,-2.7755575615628914e-17,,,,,,,,,,,,,,,,,,,,,,,,,,,,,,,,,,,,,,,,,,,,,,,,,,,,,,,,3TRYKE,train_y,blue_star,top_right,2025-03-13_17h10.59.069,HideSeek_v1,2022.2.5,59.92049745061559,
,5,7,5,4,0,-3,64,,train_dim1_1,22,30,,,,2,0,2,0,,,,,,,,,0,0,0,0,0,21,21,21,0,0,0,0,,,,,,,,,,,,,,,,,,,,,,,,,stimuli/alien_stimuli/64.png,,,,,,,,,,,,,,,,,,,,,,,,,,,,,stimuli/alien_stimuli/65.png,65,7,23,,,,,,,30,,,,,,,,1732.7818456001114,1732.7818456001114,1732.7818456001114,1732.7818456001114,1732.7818456001114,down,3.0895234999479726,11,0,0,99,0.24,0.08,down,3.017837299965322,,,,,1731.2294825999998,1732.7818456001114,0.4,0,0.32,0.0,0.16,0.4,0.4,0.4,0,1729.6139039000263,1729.6139039000263,1729.6139039000263,1729.6139039000263,1729.6139039000263,1729.6139039000263,1729.6139039000263,1729.6139039000263,1729.6113715300685,1.720368100097403,return,1.5921969000482932,,,,,,,,,,,,,,,,,,,,,,,,,,,,,,,,,3TRYKE,train_y,blue_star,top_right,2025-03-13_17h10.59.069,HideSeek_v1,2022.2.5,59.92049745061559,
,5,7,5,4,0,-3,64,,train_dim1_1,22,30,,,,2,0,2,0,,,,,,,,,0,0,0,0,0,21,21,21,1,0,1,0,,,,,,,,,,,,,,,,,,,,,,,,,,,,,,,,,,,,,,,,,,,,,,,,,,,,,,,,,,,,,,,,30,,,,,,,,1735.8796123000793,1735.8796123000793,1735.8796123000793,1735.8796123000793,1735.8796123000793,down,0.8096223000902683,11,0,0,99,0.24,0.0,down,0.7363427000818774,,,,,,,,,,,,,,,,,,,,,,,,,,,,,,,,,,,,,,,,,,,,,,,,,,,,,,,,,,,,3TRYKE,train_y,blue_star,top_right,2025-03-13_17h10.59.069,HideSeek_v1,2022.2.5,59.92049745061559,
,5,7,5,4,0,-3,64,,train_dim1_1,22,30,,,,2,0,2,0,,,,,,,,,0,0,0,0,0,21,21,21,2,0,2,0,,,,,,,,,,,,,,,,,,,,,,,,,,,,,,,,,,,,,,,,,,,,,,,,,,,,,,,,,,,,,,,,30,,,,,,,,1736.6967237000354,1736.6967237000354,1736.6967237000354,1736.6967237000354,1736.6967237000354,down,3.3458548000780866,11,0,0,99,0.24,-0.08,down,3.2684426000341773,,,,,,,,,,,,,,,,,,,,,,,,,,,,,,,,,,,,,,,,,,,,,,,,,,,,,,,,,,,,3TRYKE,train_y,blue_star,top_right,2025-03-13_17h10.59.069,HideSeek_v1,2022.2.5,59.92049745061559,
,5,7,5,4,0,-3,64,,train_dim1_1,22,30,,,,2,0,2,0,,,,,,,,,0,0,0,0,0,21,21,21,3,0,3,0,,,,,,,,,,,,,,,,,,,,,,,,,,,,,,,,,,,,,,,,,,,,,,,,,,,,,,,,,,,,,,,,30,,,,,,,,1740.049088000087,1740.049088000087,1740.049088000087,1740.049088000087,1740.049088000087,up,1.9276172000681981,11,0,0,99,0.24,0.0,up,1.8425525999628007,,,,,,,,,,,,,,,,,,,,,,,,,,,,,,,,,,,,,,,,,,,,,,,,,,,,,,,,,,,,3TRYKE,train_y,blue_star,top_right,2025-03-13_17h10.59.069,HideSeek_v1,2022.2.5,59.92049745061559,
,5,7,5,4,0,-3,64,,train_dim1_1,22,30,,,,2,0,2,0,,,,,,,,,0,0,0,0,0,21,21,21,4,0,4,0,,,,,,,,,,,,,,,,,,,,,,,,,,,,,,,,,,,,,,,,,,,,,,,,,,,,,,,,,,,,,,,,30,,,,,,,,1741.9845382000785,1741.9845382000785,1741.9845382000785,1741.9845382000785,1741.9845382000785,up,0.39278939994983375,11,0,0,99,0.24,0.08,up,0.3061477999435738,,,,,,,,,,,,,,,,,,,,,,,,,,,,,,,,,,,,,,,,,,,,,,,,,,,,,,,,,,,,3TRYKE,train_y,blue_star,top_right,2025-03-13_17h10.59.069,HideSeek_v1,2022.2.5,59.92049745061559,
,5,7,5,4,0,-3,64,,train_dim1_1,22,30,,,,2,0,2,0,,,,,,,,,0,0,0,0,0,21,21,21,5,0,5,0,,,,,,,,,,,,,,,,,,,,,,,,,,,,,,,,,,,,,,,,,,,,,,,,,,,,,,,,,,,,,,,,30,,,,,,,,1742.3847662000917,1742.3847662000917,1742.3847662000917,1742.3847662000917,1742.3847662000917,down,1.4278145000571385,11,0,0,99,0.24,0.0,down,1.3504041999112815,,,,,,,,,,,,,,,,,,,,,,,,,,,,,,,,,,,,,,,,,,,,,,,,,,,,,,,,,,,,3TRYKE,train_y,blue_star,top_right,2025-03-13_17h10.59.069,HideSeek_v1,2022.2.5,59.92049745061559,
,5,7,5,4,0,-3,64,,train_dim1_1,22,30,,,,2,0,2,0,,,,,,,,,0,0,0,0,0,21,21,21,6,0,6,0,,,,,,,,,,,,,,,,,,,,,,,,,,,,,,,,,,,,,,,,,,,,,,,,,,,,,,,,,,,,,,,,30,,,,,,,,1743.822978500044,1743.822978500044,1743.822978500044,1743.822978500044,1743.822978500044,down,1.1605899999849498,11,0,0,99,0.24,-0.08,down,1.0855022999458015,,,,,,,,,,,,,,,,,,,,,,,,,,,,,,,,,,,,,,,,,,,,,,,,,,,,,,,,,,,,3TRYKE,train_y,blue_star,top_right,2025-03-13_17h10.59.069,HideSeek_v1,2022.2.5,59.92049745061559,
,5,7,5,4,0,-3,64,,train_dim1_1,22,30,,,,2,0,2,0,,,,,,,,,0,0,0,0,0,21,21,21,7,0,7,0,,,,,,,,,,,,,,,,,,,,,,,,,,,,,,,,,,,,,,,,,,,,,,,,,,,,,,,,,,,,,,,,30,,,,,,,,1744.985963900108,1744.985963900108,1744.985963900108,1744.985963900108,1744.985963900108,return,0.6768353999359533,12,0,0,1,0.24,-0.08,return,0.5957845998927951,-49,-2,0.24,-0.08,,,,,,,,,,,,,,,,,,,,,,,,,,,,,,,,,,,,,,,,,,,,,,,,,,,,,,,,3TRYKE,train_y,blue_star,top_right,2025-03-13_17h10.59.069,HideSeek_v1,2022.2.5,59.92049745061559,
,5,8,5,8,0,0,61,,train_dim1_1,23,30,,,,2,0,2,0,,,,,,,,,0,0,0,0,0,22,22,22,0,0,0,0,,,,,,,,,,,,,,,,,,,,,,,,,stimuli/alien_stimuli/61.png,,,,,,,,,,,,,,,,,,,,,,,,,,,,,stimuli/alien_stimuli/64.png,64,5,24,,,,,,,30,,,,,,,,1750.1609754000092,1750.1609754000092,1750.1609754000092,1750.1609754000092,1750.1609754000092,down,2.0245591000420973,12,0,0,99,0.24,0.15999999999999998,down,1.9422067000996321,,,,,1748.6108883999987,1750.1609754000092,0.24,-0.08,0.24,0.0,0.04,0.24,0.24,0.24,-0.08,1747.2297607000219,1747.2297607000219,1747.2297607000219,1747.2297607000219,1747.2297607000219,1747.2297607000219,1747.2297607000219,1747.2297607000219,1747.226150630007,1.487084100022912,return,1.3643240999663249,,,,,,,,,,,,,,,,,,,,,,,,,,,,,,,,,3TRYKE,train_y,blue_star,top_right,2025-03-13_17h10.59.069,HideSeek_v1,2022.2.5,59.92049745061559,
,5,8,5,8,0,0,61,,train_dim1_1,23,30,,,,2,0,2,0,,,,,,,,,0,0,0,0,0,22,22,22,1,0,1,0,,,,,,,,,,,,,,,,,,,,,,,,,,,,,,,,,,,,,,,,,,,,,,,,,,,,,,,,,,,,,,,,30,,,,,,,,1752.1931841000915,1752.1931841000915,1752.1931841000915,1752.1931841000915,1752.1931841000915,return,0.8600408000638708,12,1,0,0,0.24,0.15999999999999998,return,0.7862176999915391,-50,-2,0.24,0.15999999999999998,,,,,,,,,,,,,,,,,,,,,,,,,,,,,,,,,,,,,,,,,,,,,,,,,,,,,,,,3TRYKE,train_y,blue_star,top_right,2025-03-13_17h10.59.069,HideSeek_v1,2022.2.5,59.92049745061559,
,8,7,8,2,0,-5,66,,train_dim1_1,24,30,,,,2,0,2,0,,,,,,,,,0,0,0,0,0,23,23,23,0,0,0,0,,,,,,,,,,,,,,,,,,,,,,,,,stimuli/alien_stimuli/66.png,,,,,,,,,,,,,,,,,,,,,,,,,,,,,stimuli/alien_stimuli/61.png,61,5,25,,,,,,,30,,,,,,,,1757.969288000022,1757.969288000022,1757.969288000022,1757.969288000022,1757.969288000022,down,3.0240732000675052,12,1,0,99,0.48,0.08,down,2.9364221000578254,,,,,1756.417263600044,1757.969288000022,0.24,0.24,0.0,0.0,0.24,0.24,0.24,0.24,0.24,1754.6046935000923,1754.6046935000923,1754.6046935000923,1754.6046935000923,1754.6046935000923,1754.6046935000923,1754.6046935000923,1754.6046935000923,1754.5989873400656,1.903873800067231,return,1.791017199982889,,,,,,,,,,,,,,,,,,,,,,,,,,,,,,,,,3TRYKE,train_y,blue_star,top_right,2025-03-13_17h10.59.069,HideSeek_v1,2022.2.5,59.92049745061559,
,8,7,8,2,0,-5,66,,train_dim1_1,24,30,,,,2,0,2,0,,,,,,,,,0,0,0,0,0,23,23,23,1,0,1,0,,,,,,,,,,,,,,,,,,,,,,,,,,,,,,,,,,,,,,,,,,,,,,,,,,,,,,,,,,,,,,,,30,,,,,,,,1761.0003692000173,1761.0003692000173,1761.0003692000173,1761.0003692000173,1761.0003692000173,down,0.6596052999375388,12,1,0,99,0.48,0.0,down,0.588851899956353,,,,,,,,,,,,,,,,,,,,,,,,,,,,,,,,,,,,,,,,,,,,,,,,,,,,,,,,,,,,3TRYKE,train_y,blue_star,top_right,2025-03-13_17h10.59.069,HideSeek_v1,2022.2.5,59.92049745061559,
,8,7,8,2,0,-5,66,,train_dim1_1,24,30,,,,2,0,2,0,,,,,,,,,0,0,0,0,0,23,23,23,2,0,2,0,,,,,,,,,,,,,,,,,,,,,,,,,,,,,,,,,,,,,,,,,,,,,,,,,,,,,,,,,,,,,,,,30,,,,,,,,1761.6668061000528,1761.6668061000528,1761.6668061000528,1761.6668061000528,1761.6668061000528,down,0.6270025999983773,12,1,0,99,0.48,-0.08,down,0.5475769999902695,,,,,,,,,,,,,,,,,,,,,,,,,,,,,,,,,,,,,,,,,,,,,,,,,,,,,,,,,,,,3TRYKE,train_y,blue_star,top_right,2025-03-13_17h10.59.069,HideSeek_v1,2022.2.5,59.92049745061559,
,8,7,8,2,0,-5,66,,train_dim1_1,24,30,,,,2,0,2,0,,,,,,,,,0,0,0,0,0,23,23,23,3,0,3,0,,,,,,,,,,,,,,,,,,,,,,,,,,,,,,,,,,,,,,,,,,,,,,,,,,,,,,,,,,,,,,,,30,,,,,,,,1762.301162900054,1762.301162900054,1762.301162900054,1762.301162900054,1762.301162900054,down,0.6601518999086693,12,1,0,99,0.48,-0.16,down,0.5829797000624239,,,,,,,,,,,,,,,,,,,,,,,,,,,,,,,,,,,,,,,,,,,,,,,,,,,,,,,,,,,,3TRYKE,train_y,blue_star,top_right,2025-03-13_17h10.59.069,HideSeek_v1,2022.2.5,59.92049745061559,
,8,7,8,2,0,-5,66,,train_dim1_1,24,30,,,,2,0,2,0,,,,,,,,,0,0,0,0,0,23,23,23,4,0,4,0,,,,,,,,,,,,,,,,,,,,,,,,,,,,,,,,,,,,,,,,,,,,,,,,,,,,,,,,,,,,,,,,30,,,,,,,,1762.9688927000389,1762.9688927000389,1762.9688927000389,1762.9688927000389,1762.9688927000389,return,3.4459608999313787,12,1,0,0,0.48,-0.16,return,3.365145100047812,-54,-2,0.48,-0.16,,,,,,,,,,,,,,,,,,,,,,,,,,,,,,,,,,,,,,,,,,,,,,,,,,,,,,,,3TRYKE,train_y,blue_star,top_right,2025-03-13_17h10.59.069,HideSeek_v1,2022.2.5,59.92049745061559,
,8,8,8,7,0,-1,62,,train_dim1_1,25,30,,,,2,0,2,0,,,,,,,,,0,0,0,0,0,24,24,24,0,0,0,0,,,,,,,,,,,,,,,,,,,,,,,,,stimuli/alien_stimuli/62.png,,,,,,,,,,,,,,,,,,,,,,,,,,,,,stimuli/alien_stimuli/66.png,66,8,26,,,,,,,30,,,,,,,,1771.2622170000104,1771.2622170000104,1771.2622170000104,1771.2622170000104,1771.2622170000104,down,2.291472400072962,12,1,0,99,0.48,0.15999999999999998,down,2.2187756000785157,,,,,1769.7117130000843,1771.2622170000104,0.48,-0.24,0.4,0.0,-0.039999999999999994,0.48,0.48,0.48,-0.24,1767.9786643000552,1767.9786643000552,1767.9786643000552,1767.9786643000552,1767.9786643000552,1767.9786643000552,1767.9786643000552,1767.9786643000552,1767.976847430074,1.8368145999265835,return,1.703578400076367,,,,,,,,,,,,,,,,,,,,,,,,,,,,,,,,,3TRYKE,train_y,blue_star,top_right,2025-03-13_17h10.59.069,HideSeek_v1,2022.2.5,59.92049745061559,
,8,8,8,7,0,-1,62,,train_dim1_1,25,30,,,,2,0,2,0,,,,,,,,,0,0,0,0,0,24,24,24,1,0,1,0,,,,,,,,,,,,,,,,,,,,,,,,,,,,,,,,,,,,,,,,,,,,,,,,,,,,,,,,,,,,,,,,30,,,,,,,,1773.5607210000744,1773.5607210000744,1773.5607210000744,1773.5607210000744,1773.5607210000744,return,0.7929131999844685,13,0,0,1,0.48,0.15999999999999998,return,0.7176448999671265,-55,-2,0.48,0.15999999999999998,,,,,,,,,,,,,,,,,,,,,,,,,,,,,,,,,,,,,,,,,,,,,,,,,,,,,,,,3TRYKE,train_y,blue_star,top_right,2025-03-13_17h10.59.069,HideSeek_v1,2022.2.5,59.92049745061559,
,9,9,9,6,0,-3,64,,train_dim1_1,26,30,,,,2,0,2,0,,,,,,,,,0,0,0,0,0,25,25,25,0,0,0,0,,,,,,,,,,,,,,,,,,,,,,,,,stimuli/alien_stimuli/64.png,,,,,,,,,,,,,,,,,,,,,,,,,,,,,stimuli/alien_stimuli/62.png,62,8,27,,,,,,,30,,,,,,,,1779.2191097000614,1779.2191097000614,1779.2191097000614,1779.2191097000614,1779.2191097000614,down,1.9895889000035822,13,0,0,99,0.56,0.24,down,1.9167940000770614,,,,,1777.6683055000613,1779.2191097000614,0.48,0.16,0.08,0.0,0.2,0.48,0.48,0.48,0.16,1775.9036551000318,1775.9036551000318,1775.9036551000318,1775.9036551000318,1775.9036551000318,1775.9036551000318,1775.9036551000318,1775.9036551000318,1775.8998299400089,1.8539671000326052,return,1.732766899978742,,,,,,,,,,,,,,,,,,,,,,,,,,,,,,,,,3TRYKE,train_y,blue_star,top_right,2025-03-13_17h10.59.069,HideSeek_v1,2022.2.5,59.92049745061559,
,9,9,9,6,0,-3,64,,train_dim1_1,26,30,,,,2,0,2,0,,,,,,,,,0,0,0,0,0,25,25,25,1,0,1,0,,,,,,,,,,,,,,,,,,,,,,,,,,,,,,,,,,,,,,,,,,,,,,,,,,,,,,,,,,,,,,,,30,,,,,,,,1781.2173272001091,1781.2173272001091,1781.2173272001091,1781.2173272001091,1781.2173272001091,down,0.5428438999224454,13,0,0,99,0.56,0.15999999999999998,down,0.4607268999097869,,,,,,,,,,,,,,,,,,,,,,,,,,,,,,,,,,,,,,,,,,,,,,,,,,,,,,,,,,,,3TRYKE,train_y,blue_star,top_right,2025-03-13_17h10.59.069,HideSeek_v1,2022.2.5,59.92049745061559,
,9,9,9,6,0,-3,64,,train_dim1_1,26,30,,,,2,0,2,0,,,,,,,,,0,0,0,0,0,25,25,25,2,0,2,0,,,,,,,,,,,,,,,,,,,,,,,,,,,,,,,,,,,,,,,,,,,,,,,,,,,,,,,,,,,,,,,,30,,,,,,,,1781.7672156000044,1781.7672156000044,1781.7672156000044,1781.7672156000044,1781.7672156000044,down,0.5101000000722706,13,0,0,99,0.56,0.07999999999999997,down,0.42879789997823536,,,,,,,,,,,,,,,,,,,,,,,,,,,,,,,,,,,,,,,,,,,,,,,,,,,,,,,,,,,,3TRYKE,train_y,blue_star,top_right,2025-03-13_17h10.59.069,HideSeek_v1,2022.2.5,59.92049745061559,
,9,9,9,6,0,-3,64,,train_dim1_1,26,30,,,,2,0,2,0,,,,,,,,,0,0,0,0,0,25,25,25,3,0,3,0,,,,,,,,,,,,,,,,,,,,,,,,,,,,,,,,,,,,,,,,,,,,,,,,,,,,,,,,,,,,,,,,30,,,,,,,,1782.2858363999985,1782.2858363999985,1782.2858363999985,1782.2858363999985,1782.2858363999985,down,0.6425348999910057,13,0,0,99,0.56,-2.7755575615628914e-17,down,0.5596385000972077,,,,,,,,,,,,,,,,,,,,,,,,,,,,,,,,,,,,,,,,,,,,,,,,,,,,,,,,,,,,3TRYKE,train_y,blue_star,top_right,2025-03-13_17h10.59.069,HideSeek_v1,2022.2.5,59.92049745061559,
,9,9,9,6,0,-3,64,,train_dim1_1,26,30,,,,2,0,2,0,,,,,,,,,0,0,0,0,0,25,25,25,4,0,4,0,,,,,,,,,,,,,,,,,,,,,,,,,,,,,,,,,,,,,,,,,,,,,,,,,,,,,,,,,,,,,,,,30,,,,,,,,1782.9340998000698,1782.9340998000698,1782.9340998000698,1782.9340998000698,1782.9340998000698,return,2.028146900003776,13,1,0,0,0.56,-2.7755575615628914e-17,return,1.9493890999583527,-59,-2,0.56,-2.7755575615628914e-17,,,,,,,,,,,,,,,,,,,,,,,,,,,,,,,,,,,,,,,,,,,,,,,,,,,,,,,,3TRYKE,train_y,blue_star,top_right,2025-03-13_17h10.59.069,HideSeek_v1,2022.2.5,59.92049745061559,
,8,9,8,4,0,-5,66,,train_dim1_1,27,30,,,,2,0,2,0,,,,,,,,,0,0,0,0,0,26,26,26,0,0,0,0,,,,,,,,,,,,,,,,,,,,,,,,,stimuli/alien_stimuli/66.png,,,,,,,,,,,,,,,,,,,,,,,,,,,,,stimuli/alien_stimuli/64.png,64,9,28,,,,,,,30,,,,,,,,1789.7451771000633,1789.7451771000633,1789.7451771000633,1789.7451771000633,1789.7451771000633,down,1.9733243000227958,13,1,0,99,0.48,0.24,down,1.9003720000619069,,,,,1788.1935986001045,1789.7451771000633,0.56,0.08,0.24,0.0,0.2,0.56,0.56,0.56,0.08,1786.5303995000431,1786.5303995000431,1786.5303995000431,1786.5303995000431,1786.5303995000431,1786.5303995000431,1786.5303995000431,1786.5303995000431,1786.5255922299925,1.7706558000063524,return,1.644845400005579,,,,,,,,,,,,,,,,,,,,,,,,,,,,,,,,,3TRYKE,train_y,blue_star,top_right,2025-03-13_17h10.59.069,HideSeek_v1,2022.2.5,59.92049745061559,
,8,9,8,4,0,-5,66,,train_dim1_1,27,30,,,,2,0,2,0,,,,,,,,,0,0,0,0,0,26,26,26,1,0,1,0,,,,,,,,,,,,,,,,,,,,,,,,,,,,,,,,,,,,,,,,,,,,,,,,,,,,,,,,,,,,,,,,30,,,,,,,,1791.7266777000623,1791.7266777000623,1791.7266777000623,1791.7266777000623,1791.7266777000623,down,0.9432706000516191,13,1,0,99,0.48,0.15999999999999998,down,0.8670003999723122,,,,,,,,,,,,,,,,,,,,,,,,,,,,,,,,,,,,,,,,,,,,,,,,,,,,,,,,,,,,3TRYKE,train_y,blue_star,top_right,2025-03-13_17h10.59.069,HideSeek_v1,2022.2.5,59.92049745061559,
,8,9,8,4,0,-5,66,,train_dim1_1,27,30,,,,2,0,2,0,,,,,,,,,0,0,0,0,0,26,26,26,2,0,2,0,,,,,,,,,,,,,,,,,,,,,,,,,,,,,,,,,,,,,,,,,,,,,,,,,,,,,,,,,,,,,,,,30,,,,,,,,1792.6761979000876,1792.6761979000876,1792.6761979000876,1792.6761979000876,1792.6761979000876,down,1.9115409000078216,13,1,0,99,0.48,0.07999999999999997,down,1.8322631999617442,,,,,,,,,,,,,,,,,,,,,,,,,,,,,,,,,,,,,,,,,,,,,,,,,,,,,,,,,,,,3TRYKE,train_y,blue_star,top_right,2025-03-13_17h10.59.069,HideSeek_v1,2022.2.5,59.92049745061559,
,8,9,8,4,0,-5,66,,train_dim1_1,27,30,,,,2,0,2,0,,,,,,,,,0,0,0,0,0,26,26,26,3,0,3,0,,,,,,,,,,,,,,,,,,,,,,,,,,,,,,,,,,,,,,,,,,,,,,,,,,,,,,,,,,,,,,,,30,,,,,,,,1794.5949971000664,1794.5949971000664,1794.5949971000664,1794.5949971000664,1794.5949971000664,down,3.84589410002809,13,1,0,99,0.48,-2.7755575615628914e-17,down,3.774489099974744,,,,,,,,,,,,,,,,,,,,,,,,,,,,,,,,,,,,,,,,,,,,,,,,,,,,,,,,,,,,3TRYKE,train_y,blue_star,top_right,2025-03-13_17h10.59.069,HideSeek_v1,2022.2.5,59.92049745061559,
,8,9,8,4,0,-5,66,,train_dim1_1,27,30,,,,2,0,2,0,,,,,,,,,0,0,0,0,0,26,26,26,4,0,4,0,,,,,,,,,,,,,,,,,,,,,,,,,,,,,,,,,,,,,,,,,,,,,,,,,,,,,,,,,,,,,,,,30,,,,,,,,1798.4481492000632,1798.4481492000632,1798.4481492000632,1798.4481492000632,1798.4481492000632,return,3.228486099978909,13,1,0,0,0.48,-2.7755575615628914e-17,return,3.145460300031118,-63,-2,0.48,-2.7755575615628914e-17,,,,,,,,,,,,,,,,,,,,,,,,,,,,,,,,,,,,,,,,,,,,,,,,,,,,,,,,3TRYKE,train_y,blue_star,top_right,2025-03-13_17h10.59.069,HideSeek_v1,2022.2.5,59.92049745061559,
,9,6,9,6,0,0,61,,train_dim1_1,28,30,,,,2,0,2,0,,,,,,,,,0,0,0,0,0,27,27,27,0,0,0,0,,,,,,,,,,,,,,,,,,,,,,,,,stimuli/alien_stimuli/61.png,,,,,,,,,,,,,,,,,,,,,,,,,,,,,stimuli/alien_stimuli/66.png,66,8,29,,,,,,,30,,,,,,,,1806.7765090001049,1806.7765090001049,1806.7765090001049,1806.7765090001049,1806.7765090001049,return,2.5236477000871673,14,0,0,1,0.56,0.08,return,2.4523265999741852,-63,-2,0.56,0.08,1805.224307400058,1806.7765090001049,0.48,-0.08,0.4,0.0,0.12,0.48,0.48,0.48,-0.08,1803.2430123001104,1803.2430123001104,1803.2430123001104,1803.2430123001104,1803.2430123001104,1803.2430123001104,1803.2430123001104,1803.2430123001104,1803.2393851300817,2.087753599975258,return,1.9656798000214621,,,,,,,,,,,,,,,,,,,,,,,,,,,,,,,,,3TRYKE,train_y,blue_star,top_right,2025-03-13_17h10.59.069,HideSeek_v1,2022.2.5,59.92049745061559,
,7,7,7,6,0,-1,62,,train_dim1_1,29,30,,,,2,0,2,0,,,,,,,,,0,0,0,0,0,28,28,28,0,0,0,0,,,,,,,,,,,,,,,,,,,,,,,,,stimuli/alien_stimuli/62.png,,,,,,,,,,,,,,,,,,,,,,,,,,,,,stimuli/alien_stimuli/61.png,61,9,30,,,,,,,30,,,,,,,,1814.2478045000462,1814.2478045000462,1814.2478045000462,1814.2478045000462,1814.2478045000462,down,1.6072062999010086,14,0,0,99,0.4,0.08,down,1.5278623000485823,,,,,1812.6972471000627,1814.2478045000462,0.56,0.08,0.0,0.0,0.08,0.56,0.56,0.56,0.08,1810.8493573000887,1810.8493573000887,1810.8493573000887,1810.8493573000887,1810.8493573000887,1810.8493573000887,1810.8493573000887,1810.8493573000887,1810.8458579399855,1.9368721999926493,return,1.820239899912849,,,,,,,,,,,,,,,,,,,,,,,,,,,,,,,,,3TRYKE,train_y,blue_star,top_right,2025-03-13_17h10.59.069,HideSeek_v1,2022.2.5,59.92049745061559,
,7,7,7,6,0,-1,62,,train_dim1_1,29,30,,,,2,0,2,0,,,,,,,,,0,0,0,0,0,28,28,28,1,0,1,0,,,,,,,,,,,,,,,,,,,,,,,,,,,,,,,,,,,,,,,,,,,,,,,,,,,,,,,,,,,,,,,,30,,,,,,,,1815.8622908000834,1815.8622908000834,1815.8622908000834,1815.8622908000834,1815.8622908000834,return,0.6429433000739664,15,0,0,1,0.4,0.08,return,0.5649084999458864,-64,-2,0.4,0.08,,,,,,,,,,,,,,,,,,,,,,,,,,,,,,,,,,,,,,,,,,,,,,,,,,,,,,,,3TRYKE,train_y,blue_star,top_right,2025-03-13_17h10.59.069,HideSeek_v1,2022.2.5,59.92049745061559,
,5,6,5,2,0,-4,65,,train_dim1_1,30,30,,,,2,0,2,0,,,,,,,,,0,0,0,0,0,29,29,29,0,0,0,0,,,,,,,,,,,,,,,,,,,,,,,,,stimuli/alien_stimuli/65.png,,,,,,,,,,,,,,,,,,,,,,,,,,,,,stimuli/alien_stimuli/62.png,62,7,31,,,,,,,30,,,,,,,,1820.8028936000774,1820.8028936000774,1820.8028936000774,1820.8028936000774,1820.8028936000774,down,2.0076936000259593,15,0,0,99,0.24,0.0,down,1.9257526999572292,,,,,1819.2527132000541,1820.8028936000774,0.4,0.08,0.08,0.0,0.12,0.4,0.4,0.4,0.08,1818.0563424000284,1818.0563424000284,1818.0563424000284,1818.0563424000284,1818.0563424000284,1818.0563424000284,1818.0563424000284,1818.0563424000284,1818.0515711400192,1.2865542999934405,return,1.1749741000821814,,,,,,,,,,,,,,,,,,,,,,,,,,,,,,,,,3TRYKE,train_y,blue_star,top_right,2025-03-13_17h10.59.069,HideSeek_v1,2022.2.5,59.92049745061559,
,5,6,5,2,0,-4,65,,train_dim1_1,30,30,,,,2,0,2,0,,,,,,,,,0,0,0,0,0,29,29,29,1,0,1,0,,,,,,,,,,,,,,,,,,,,,,,,,,,,,,,,,,,,,,,,,,,,,,,,,,,,,,,,,,,,,,,,30,,,,,,,,1822.819244400016,1822.819244400016,1822.819244400016,1822.819244400016,1822.819244400016,down,0.5599242999451235,15,0,0,99,0.24,-0.08,down,0.48656900005880743,,,,,,,,,,,,,,,,,,,,,,,,,,,,,,,,,,,,,,,,,,,,,,,,,,,,,,,,,,,,3TRYKE,train_y,blue_star,top_right,2025-03-13_17h10.59.069,HideSeek_v1,2022.2.5,59.92049745061559,
,5,6,5,2,0,-4,65,,train_dim1_1,30,30,,,,2,0,2,0,,,,,,,,,0,0,0,0,0,29,29,29,2,0,2,0,,,,,,,,,,,,,,,,,,,,,,,,,,,,,,,,,,,,,,,,,,,,,,,,,,,,,,,,,,,,,,,,30,,,,,,,,1823.3844940999988,1823.3844940999988,1823.3844940999988,1823.3844940999988,1823.3844940999988,down,0.47688689990900457,15,0,0,99,0.24,-0.16,down,0.39719899999909103,,,,,,,,,,,,,,,,,,,,,,,,,,,,,,,,,,,,,,,,,,,,,,,,,,,,,,,,,,,,3TRYKE,train_y,blue_star,top_right,2025-03-13_17h10.59.069,HideSeek_v1,2022.2.5,59.92049745061559,
,5,6,5,2,0,-4,65,,train_dim1_1,30,30,,,,2,0,2,0,,,,,,,,,0,0,0,0,0,29,29,29,3,0,3,0,,,,,,,,,,,,,,,,,,,,,,,,,,,,,,,,,,,,,,,,,,,,,,,,,,,,,,,,,,,,,,,,30,,,,,,,,1823.8692019000882,1823.8692019000882,1823.8692019000882,1823.8692019000882,1823.8692019000882,down,1.360527400043793,15,0,0,99,0.24,-0.24,down,1.2823692000238225,,,,,,,,,,,,,,,,,,,,,,,,,,,,,,,,,,,,,,,,,,,,,,,,,,,,,,,,,,,,3TRYKE,train_y,blue_star,top_right,2025-03-13_17h10.59.069,HideSeek_v1,2022.2.5,59.92049745061559,
,5,6,5,2,0,-4,65,,train_dim1_1,30,30,,,,2,0,2,0,,,,,,,,,0,0,0,0,0,29,29,29,4,0,4,0,,,,,,,,,,,,,,,,,,,,,,,,,,,,,,,,,,,,,,,,,,,,,,,,,,,,,,,,,,,,,,,,30,,,,,,,,1825.2359636001056,1825.2359636001056,1825.2359636001056,1825.2359636001056,1825.2359636001056,return,1.0939540000399575,16,0,0,1,0.24,-0.24,return,1.0127253000391647,-68,-2,0.24,-0.24,,,,,,,,,,,,,,,,,,,,,,,,,,,,,,,,,,,,,,,,,,,,,,,,,,,,,,,,3TRYKE,train_y,blue_star,top_right,2025-03-13_17h10.59.069,HideSeek_v1,2022.2.5,59.92049745061559,
,,,,,,,,,,,30,,,,2,0,2,0,,,,,,,,,,,,,,,,,,,,,,,,,,,,,,,,,,,,,,,,,,,,,,,,,,,,,,,,,,,,,,,,,,,,,,,,,,stimuli/alien_stimuli/65.png,65,5,32,21,0.7,0.6666666666666667,1,1,1,30,0,conditions/schedules/train_y_first/blue_star_00/top_right/inputTrain_2.1.xlsx,99,1,2,1,0,,,,,,,,,,,1,,,,,,,,,1828.944022800075,1830.503720000037,0.24,-0.24,0.32,0.0,-0.07999999999999999,0.24,0.24,0.24,-0.24,1827.8795873000054,1827.8795873000054,1827.8795873000054,1827.8795873000054,1827.8795873000054,1827.8795873000054,1827.8795873000054,1827.8795873000054,1827.8764445400564,1.153500200016424,return,1.0392687000567093,0,0.9,0,1,16,,,,,,,,,,,,,,,,,,,,,,,,,,,,3TRYKE,train_y,blue_star,top_right,2025-03-13_17h10.59.069,HideSeek_v1,2022.2.5,59.92049745061559,
,,,,,,,,,,,,,,,3,0,3,0,0,0,0,0,,,,,,,,,,,,,,,,,,,,,,,,,,,,,,,conditions/schedules/train_y_first/blue_star_00/top_right/instructions/Slide17.png,conditions/schedules/train_y_first/blue_star_00/top_right/instructions/Audio17.wav,1830.503720000037,1830.495285260072,17,"[3.957837999914773, 19.582612800062634, 16.594366900040768, 19.329880899982527, 4.39813139999751, 4.5695698000490665, 5.086072499980219, 11.973499699961394, 5.9998677999246866, 6.678503500064835, 10.006907400093041, 13.73989419999998, 17.151508299983107, 16.43289219995495, 42.398597500054166, 22.147939900052734, 41.873615200049244]","[0.03288610000163317, 0.014392200042493641, 0.06415130000095814, 0.06324210006278008, 0.049264000030234456, 0.08173870004247874, 0.06357529992237687, 0.07812259998172522, 0.07288100000005215, 0.0980318000074476, 0.030509999953210354, 13.739901599939913, 0.11915199994109571, 16.432898699888028, 0.06301230005919933, 22.14794590009842, 41.873623199993744]",0,,,,,,,,,,,,,,,,,,,,,,,,,,,,,,,,,,,,,,,,,,,,,,,,,,,,,,,,,,,,,,,,,,,,,,,,,,,,,,,,,,,,,,,,,,,,,,,,,,,,,,,,,,,,,,,,,,,,,,,,,,,,3TRYKE,train_y,blue_star,top_right,2025-03-13_17h10.59.069,HideSeek_v1,2022.2.5,59.92049745061559,
,,,,,,,,,,,,,,,3,0,3,0,1,0,1,0,,,,,,,,,,,,,,,,,,,,,,,,,,,,,,,conditions/schedules/train_y_first/blue_star_00/top_right/instructions/Slide18.png,conditions/schedules/train_y_first/blue_star_00/top_right/instructions/Audio18.wav,1872.4367810001131,1872.4301590599819,18,"[3.957837999914773, 19.582612800062634, 16.594366900040768, 19.329880899982527, 4.39813139999751, 4.5695698000490665, 5.086072499980219, 11.973499699961394, 5.9998677999246866, 6.678503500064835, 10.006907400093041, 13.73989419999998, 17.151508299983107, 16.43289219995495, 42.398597500054166, 22.147939900052734, 41.873615200049244, 6.4465419999323785]","[0.03288610000163317, 0.014392200042493641, 0.06415130000095814, 0.06324210006278008, 0.049264000030234456, 0.08173870004247874, 0.06357529992237687, 0.07812259998172522, 0.07288100000005215, 0.0980318000074476, 0.030509999953210354, 13.739901599939913, 0.11915199994109571, 16.432898699888028, 0.06301230005919933, 22.14794590009842, 0.00020370003767311573, 6.446549399988726]",0,,,,,,,,,,,,,,,,,,,,,,,,,,,,,,,,,,,,,,,,,,,,,,,,,,,,,,,,,,,,,,,,,,,,,,,,,,,,,,,,,,,,,,,,,,,,,,,,,,,,,,,,,,,,,,,,,,,,,,,,,,,,3TRYKE,train_y,blue_star,top_right,2025-03-13_17h10.59.069,HideSeek_v1,2022.2.5,59.92049745061559,
,,,,,,,,,,,,,,,3,0,3,0,2,0,2,0,,,,,,,,,,,,,,,,,,,,,,,,,,,,,,,conditions/schedules/train_y_first/blue_star_00/top_right/instructions/Slide19.png,conditions/schedules/train_y_first/blue_star_00/top_right/instructions/Audio19.wav,1878.9367512000026,1878.9355826600688,19,"[3.957837999914773, 19.582612800062634, 16.594366900040768, 19.329880899982527, 4.39813139999751, 4.5695698000490665, 5.086072499980219, 11.973499699961394, 5.9998677999246866, 6.678503500064835, 10.006907400093041, 13.73989419999998, 17.151508299983107, 16.43289219995495, 42.398597500054166, 22.147939900052734, 41.873615200049244, 6.4465419999323785, 9.954378499998711]","[0.03288610000163317, 0.014392200042493641, 0.06415130000095814, 0.06324210006278008, 0.049264000030234456, 0.08173870004247874, 0.06357529992237687, 0.07812259998172522, 0.07288100000005215, 0.0980318000074476, 0.030509999953210354, 13.739901599939913, 0.11915199994109571, 16.432898699888028, 0.06301230005919933, 22.14794590009842, 0.00020370003767311573, 0.029723200015723705, 9.954385100048967]",0,,,,,,,,,,,,,,,,,,,,,,,,,,,,,,,,,,,,,,,,,,,,,,,,,,,,,,,,,,,,,,,,,,,,,,,,,,,,,,,,,,,,,,,,,,,,,,,,,,,,,,,,,,,,,,,,,,,,,,,,,,,,3TRYKE,train_y,blue_star,top_right,2025-03-13_17h10.59.069,HideSeek_v1,2022.2.5,59.92049745061559,
,,,,,,,,,,,,,,,3,0,3,0,3,0,3,0,,,,,,,,,,,,,,,,,,,,,,,,,,,,,,,conditions/schedules/train_y_first/blue_star_00/top_right/instructions/Slide20.png,conditions/schedules/train_y_first/blue_star_00/top_right/instructions/Audio20.wav,1888.9581039000768,1888.9604994500405,20,"[3.957837999914773, 19.582612800062634, 16.594366900040768, 19.329880899982527, 4.39813139999751, 4.5695698000490665, 5.086072499980219, 11.973499699961394, 5.9998677999246866, 6.678503500064835, 10.006907400093041, 13.73989419999998, 17.151508299983107, 16.43289219995495, 42.398597500054166, 22.147939900052734, 41.873615200049244, 6.4465419999323785, 9.954378499998711, 12.443452800041996]","[0.03288610000163317, 0.014392200042493641, 0.06415130000095814, 0.06324210006278008, 0.049264000030234456, 0.08173870004247874, 0.06357529992237687, 0.07812259998172522, 0.07288100000005215, 0.0980318000074476, 0.030509999953210354, 13.739901599939913, 0.11915199994109571, 16.432898699888028, 0.06301230005919933, 22.14794590009842, 0.00020370003767311573, 0.029723200015723705, 0.013755100080743432, 12.443459499976598]",0,,,,,,,,,,,,,,,,,,,,,,,,,,,,,,,,,,,,,,,,,,,,,,,,,,,,,,,,,,,,,,,,,,,,,,,,,,,,,,,,,,,,,,,,,,,,,,,,,,,,,,,,,,,,,,,,,,,,,,,,,,,,3TRYKE,train_y,blue_star,top_right,2025-03-13_17h10.59.069,HideSeek_v1,2022.2.5,59.92049745061559,
1,9,5,4,5,-5,0,11,2,instr_dim1_2,,,,,,3,0,3,0,,,,,0,0,0,0,,,,,,,,,,,,,,,,,,,,,,,,,,,,,,,,,,,,,stimuli/alien_stimuli/11.png,conditions/schedules/train_y_first/blue_star_00/top_right/inputInstr_2.xlsx,stimuli/alien_stimuli/11.png,1901.500143500045,1901.500143500045,1901.500143500045,1901.500143500045,1901.4876729400828,return,6.2933720999863,"[-0.16, -0.08, 0, 0.08, 0.16, 0.24, 0.32, 0.4, 0.48, 0.56]","[-0.4, -0.32, -0.24, -0.16, -0.08, 0, 0.08, 0.16, 0.24, 0.32]",5,5,4,9,0.0,0.4,1907.9605639000656,1907.9605639000656,1907.9605639000656,1907.9605639000656,1907.9605639000656,1907.9605639000656,1907.9605639000656,1907.9426048199878,6.773469900013879,return,6.613635799963959,stimuli/alien_stimuli/11.png,11,9,1,,,,,,,,,,,,,,,,,,,,,,,,,,,,,,,,,,,,,,,,,,,,,,,,,,,,,,,,,,,,,,,,,,,,,,,,,,,,,,,,,,,,,,,,,3TRYKE,train_y,blue_star,top_right,2025-03-13_17h10.59.069,HideSeek_v1,2022.2.5,59.92049745061559,
,,,,,,,,,,,30,,,,3,0,3,0,,,,,,,,,,,,,,,,,,,,,,,,,,,,,,,,,,,,,,,,,,,,,,,,,,,,,,,,,,,,,,,,,,,,,,,,,,,,,,21,0.7,0.6666666666666667,1,99,2,30,0,conditions/schedules/train_y_first/blue_star_00/top_right/inputTrain_2.1.xlsx,99,1,2,1,0,,,,,,,,,,,,,,,,,,,,,,,,,,,,,,,,,,,,,,,,,,,,,,,,,,,,,,,,,,,,,,,,,,,,,,,,,,,3TRYKE,train_y,blue_star,top_right,2025-03-13_17h10.59.069,HideSeek_v1,2022.2.5,59.92049745061559,
,,,,,,,,,,,,,,,4,0,4,0,0,0,0,0,,,,,,,,,,,,,,,,,,,,,,,,,,,,,,,conditions/schedules/train_y_first/blue_star_00/top_right/instructions/Slide21.png,conditions/schedules/train_y_first/blue_star_00/top_right/instructions/Audio21.wav,1914.7276693000458,1914.7151257199932,21,"[3.957837999914773, 19.582612800062634, 16.594366900040768, 19.329880899982527, 4.39813139999751, 4.5695698000490665, 5.086072499980219, 11.973499699961394, 5.9998677999246866, 6.678503500064835, 10.006907400093041, 13.73989419999998, 17.151508299983107, 16.43289219995495, 42.398597500054166, 22.147939900052734, 41.873615200049244, 6.4465419999323785, 9.954378499998711, 12.443452800041996, 12.978949500015005]","[0.03288610000163317, 0.014392200042493641, 0.06415130000095814, 0.06324210006278008, 0.049264000030234456, 0.08173870004247874, 0.06357529992237687, 0.07812259998172522, 0.07288100000005215, 0.0980318000074476, 0.030509999953210354, 13.739901599939913, 0.11915199994109571, 16.432898699888028, 0.06301230005919933, 22.14794590009842, 0.00020370003767311573, 0.029723200015723705, 0.013755100080743432, 12.443459499976598, 12.97895740007516]",0,,,,,,,,,,,,,,,,,,,,,,,,,,,,,,,,,,,,,,,,,,,,,,,,,,,,,,,,,,,,,,,,,,,,,,,,,,,,,,,,,,,,,,,,,,,,,,,,,,,,,,,,,,,,,,,,,,,,,,,,,,,,3TRYKE,train_y,blue_star,top_right,2025-03-13_17h10.59.069,HideSeek_v1,2022.2.5,59.92049745061559,
2,8,7,8,7,0,0,61,2,instr_dim1_2,,,,,,4,0,4,0,,,,,0,0,0,0,,,,,,,,,,,,,,,,,,,,,,,,,,,,,,,,,,,,,stimuli/alien_stimuli/61.png,conditions/schedules/train_y_first/blue_star_00/top_right/inputInstr_2.xlsx,stimuli/alien_stimuli/61.png,1927.80078280007,1927.80078280007,1927.80078280007,1927.80078280007,1927.7927491400158,return,6.446883499971591,"[-0.16, -0.08, 0, 0.08, 0.16, 0.24, 0.32, 0.4, 0.48, 0.56]","[-0.4, -0.32, -0.24, -0.16, -0.08, 0, 0.08, 0.16, 0.24, 0.32]",7,7,8,8,0.0,0.0,1934.3967429000186,1934.3967429000186,1934.3967429000186,1934.3967429000186,1934.3967429000186,1934.3967429000186,1934.3967429000186,1934.3812158200656,6.823064099997282,return,6.658917700056918,stimuli/alien_stimuli/61.png,61,8,2,,,,,,,,,,,,,,,,,,,,,,,,,,,,,,,,,,,,,,,,,,,,,,,,,,,,,,,,,,,,,,,,,,,,,,,,,,,,,,,,,,,,,,,,,3TRYKE,train_y,blue_star,top_right,2025-03-13_17h10.59.069,HideSeek_v1,2022.2.5,59.92049745061559,
,,,,,,,,,,,30,,,,4,0,4,0,,,,,,,,,,,,,,,,,,,,,,,,,,,,,,,,,,,,,,,,,,,,,,,,,,,,,,,,,,,,,,,,,,,,,,,,,,,,,,21,0.7,0.6666666666666667,1,99,2,30,0,conditions/schedules/train_y_first/blue_star_00/top_right/inputTrain_2.1.xlsx,99,1,2,1,0,,,,,,,,,,,,,,,,,,,,,,,,,,,,,,,,,,,,,,,,,,,,,,,,,,,,,,,,,,,,,,,,,,,,,,,,,,,3TRYKE,train_y,blue_star,top_right,2025-03-13_17h10.59.069,HideSeek_v1,2022.2.5,59.92049745061559,
,,,,,,,,,,,,,,,5,0,5,0,0,0,0,0,,,,,,,,,,,,,,,,,,,,,,,,,,,,,,,conditions/schedules/train_y_first/blue_star_00/top_right/instructions/Slide22.png,conditions/schedules/train_y_first/blue_star_00/top_right/instructions/Audio22.wav,1941.2226497000083,1941.220387710014,22,"[3.957837999914773, 19.582612800062634, 16.594366900040768, 19.329880899982527, 4.39813139999751, 4.5695698000490665, 5.086072499980219, 11.973499699961394, 5.9998677999246866, 6.678503500064835, 10.006907400093041, 13.73989419999998, 17.151508299983107, 16.43289219995495, 42.398597500054166, 22.147939900052734, 41.873615200049244, 6.4465419999323785, 9.954378499998711, 12.443452800041996, 12.978949500015005, 30.019725100020878]","[0.03288610000163317, 0.014392200042493641, 0.06415130000095814, 0.06324210006278008, 0.049264000030234456, 0.08173870004247874, 0.06357529992237687, 0.07812259998172522, 0.07288100000005215, 0.0980318000074476, 0.030509999953210354, 13.739901599939913, 0.11915199994109571, 16.432898699888028, 0.06301230005919933, 22.14794590009842, 0.00020370003767311573, 0.029723200015723705, 0.013755100080743432, 12.443459499976598, 12.97895740007516, 30.019732699962333]",0,,,,,,,,,,,,,,,,,,,,,,,,,,,,,,,,,,,,,,,,,,,,,,,,,,,,,,,,,,,,,,,,,,,,,,,,,,,,,,,,,,,,,,,,,,,,,,,,,,,,,,,,,,,,,,,,,,,,,,,,,,,,3TRYKE,train_y,blue_star,top_right,2025-03-13_17h10.59.069,HideSeek_v1,2022.2.5,59.92049745061559,
,7,6,4,6,-3,0,31,,train_dim1_2,1,30,,,,5,0,5,0,,,,,,,,,0,0,0,0,0,0,0,0,0,0,0,0,,,,,,,,,,,,,,,,,,,,,,,,,stimuli/alien_stimuli/31.png,,,,,,,,,,,,,,,,,,,,,,,,,,,,,,,,,,,,,,,30,,,,,,,,1971.3384009000147,1971.3384009000147,1971.3384009000147,1971.3384009000147,1971.3384009000147,left,2.8467979000415653,0,0,0,99,0.32,0.08,left,2.7476476000156254,,,,,,,,,,,,,,,,,,,,,,,,,,,,,,,,,,,,,,,,,,,,,,,,,,,,,,,,,,,,3TRYKE,train_y,blue_star,top_right,2025-03-13_17h10.59.069,HideSeek_v1,2022.2.5,59.92049745061559,
,7,6,4,6,-3,0,31,,train_dim1_2,1,30,,,,5,0,5,0,,,,,,,,,0,0,0,0,0,0,0,0,1,0,1,0,,,,,,,,,,,,,,,,,,,,,,,,,,,,,,,,,,,,,,,,,,,,,,,,,,,,,,,,,,,,,,,,30,,,,,,,,1974.1785443000263,1974.1785443000263,1974.1785443000263,1974.1785443000263,1974.1785443000263,left,1.009461299981922,0,0,0,99,0.24,0.08,left,0.9360373000381514,,,,,,,,,,,,,,,,,,,,,,,,,,,,,,,,,,,,,,,,,,,,,,,,,,,,,,,,,,,,3TRYKE,train_y,blue_star,top_right,2025-03-13_17h10.59.069,HideSeek_v1,2022.2.5,59.92049745061559,
,7,6,4,6,-3,0,31,,train_dim1_2,1,30,,,,5,0,5,0,,,,,,,,,0,0,0,0,0,0,0,0,2,0,2,0,,,,,,,,,,,,,,,,,,,,,,,,,,,,,,,,,,,,,,,,,,,,,,,,,,,,,,,,,,,,,,,,30,,,,,,,,1975.1937798000872,1975.1937798000872,1975.1937798000872,1975.1937798000872,1975.1937798000872,left,2.478661899920553,0,0,0,99,0.15999999999999998,0.08,left,2.404333099955693,,,,,,,,,,,,,,,,,,,,,,,,,,,,,,,,,,,,,,,,,,,,,,,,,,,,,,,,,,,,3TRYKE,train_y,blue_star,top_right,2025-03-13_17h10.59.069,HideSeek_v1,2022.2.5,59.92049745061559,
,7,6,4,6,-3,0,31,,train_dim1_2,1,30,,,,5,0,5,0,,,,,,,,,0,0,0,0,0,0,0,0,3,0,3,0,,,,,,,,,,,,,,,,,,,,,,,,,,,,,,,,,,,,,,,,,,,,,,,,,,,,,,,,,,,,,,,,30,,,,,,,,1977.685899300035,1977.685899300035,1977.685899300035,1977.685899300035,1977.685899300035,left,3.812400200054981,0,0,0,99,0.07999999999999997,0.08,left,3.7270874000387266,,,,,,,,,,,,,,,,,,,,,,,,,,,,,,,,,,,,,,,,,,,,,,,,,,,,,,,,,,,,3TRYKE,train_y,blue_star,top_right,2025-03-13_17h10.59.069,HideSeek_v1,2022.2.5,59.92049745061559,
,7,6,4,6,-3,0,31,,train_dim1_2,1,30,,,,5,0,5,0,,,,,,,,,0,0,0,0,0,0,0,0,4,0,4,0,,,,,,,,,,,,,,,,,,,,,,,,,,,,,,,,,,,,,,,,,,,,,,,,,,,,,,,,,,,,,,,,30,,,,,,,,1981.4995455000317,1981.4995455000317,1981.4995455000317,1981.4995455000317,1981.4995455000317,return,1.544411399983801,0,1,0,0,0.07999999999999997,0.08,return,1.4636957000475377,-68,-6,0.07999999999999997,0.08,,,,,,,,,,,,,,,,,,,,,,,,,,,,,,,,,,,,,,,,,,,,,,,,,,,,,,,,3TRYKE,train_y,blue_star,top_right,2025-03-13_17h10.59.069,HideSeek_v1,2022.2.5,59.92049745061559,
,7,9,2,9,-5,0,11,,train_dim1_2,2,30,,,,5,0,5,0,,,,,,,,,0,0,0,0,0,1,1,1,0,0,0,0,,,,,,,,,,,,,,,,,,,,,,,,,stimuli/alien_stimuli/11.png,,,,,,,,,,,,,,,,,,,,,,,,,,,,,stimuli/alien_stimuli/31.png,31,7,3,,,,,,,30,,,,,,,,1989.5036109000212,1989.5036109000212,1989.5036109000212,1989.5036109000212,1989.5036109000212,left,1.539970300043933,0,1,0,99,0.32,0.32,left,1.4538042999338359,,,,,1987.9426026000874,1989.5036109000212,0.16,0.08,0.0,0.24,0.08,0.16,0.28,0.16,0.08,1984.6268978000153,1984.6268978000153,1984.6268978000153,1984.6268978000153,1984.6268978000153,1984.6268978000153,1984.6268978000153,1984.6268978000153,1984.6062349300714,3.4385652999626473,return,3.290236199973151,,,,,,,,,,,,,,,,,,,,,,,,,,,,,,,,,3TRYKE,train_y,blue_star,top_right,2025-03-13_17h10.59.069,HideSeek_v1,2022.2.5,59.92049745061559,
,7,9,2,9,-5,0,11,,train_dim1_2,2,30,,,,5,0,5,0,,,,,,,,,0,0,0,0,0,1,1,1,1,0,1,0,,,,,,,,,,,,,,,,,,,,,,,,,,,,,,,,,,,,,,,,,,,,,,,,,,,,,,,,,,,,,,,,30,,,,,,,,1991.045712100109,1991.045712100109,1991.045712100109,1991.045712100109,1991.045712100109,left,0.5762607000069693,0,1,0,99,0.24,0.32,left,0.49937299999874085,,,,,,,,,,,,,,,,,,,,,,,,,,,,,,,,,,,,,,,,,,,,,,,,,,,,,,,,,,,,3TRYKE,train_y,blue_star,top_right,2025-03-13_17h10.59.069,HideSeek_v1,2022.2.5,59.92049745061559,
,7,9,2,9,-5,0,11,,train_dim1_2,2,30,,,,5,0,5,0,,,,,,,,,0,0,0,0,0,1,1,1,2,0,2,0,,,,,,,,,,,,,,,,,,,,,,,,,,,,,,,,,,,,,,,,,,,,,,,,,,,,,,,,,,,,,,,,30,,,,,,,,1991.6287842000602,1991.6287842000602,1991.6287842000602,1991.6287842000602,1991.6287842000602,left,0.47677319997455925,0,1,0,99,0.15999999999999998,0.32,left,0.39340329996775836,,,,,,,,,,,,,,,,,,,,,,,,,,,,,,,,,,,,,,,,,,,,,,,,,,,,,,,,,,,,3TRYKE,train_y,blue_star,top_right,2025-03-13_17h10.59.069,HideSeek_v1,2022.2.5,59.92049745061559,
,7,9,2,9,-5,0,11,,train_dim1_2,2,30,,,,5,0,5,0,,,,,,,,,0,0,0,0,0,1,1,1,3,0,3,0,,,,,,,,,,,,,,,,,,,,,,,,,,,,,,,,,,,,,,,,,,,,,,,,,,,,,,,,,,,,,,,,30,,,,,,,,1992.112227100064,1992.112227100064,1992.112227100064,1992.112227100064,1992.112227100064,left,0.4939271999755874,0,1,0,99,0.07999999999999997,0.32,left,0.41015539993532,,,,,,,,,,,,,,,,,,,,,,,,,,,,,,,,,,,,,,,,,,,,,,,,,,,,,,,,,,,,3TRYKE,train_y,blue_star,top_right,2025-03-13_17h10.59.069,HideSeek_v1,2022.2.5,59.92049745061559,
,7,9,2,9,-5,0,11,,train_dim1_2,2,30,,,,5,0,5,0,,,,,,,,,0,0,0,0,0,1,1,1,4,0,4,0,,,,,,,,,,,,,,,,,,,,,,,,,,,,,,,,,,,,,,,,,,,,,,,,,,,,,,,,,,,,,,,,30,,,,,,,,1992.6127812000923,1992.6127812000923,1992.6127812000923,1992.6127812000923,1992.6127812000923,left,0.4098623999161646,0,1,0,99,-2.7755575615628914e-17,0.32,left,0.3270702000008896,,,,,,,,,,,,,,,,,,,,,,,,,,,,,,,,,,,,,,,,,,,,,,,,,,,,,,,,,,,,3TRYKE,train_y,blue_star,top_right,2025-03-13_17h10.59.069,HideSeek_v1,2022.2.5,59.92049745061559,
,7,9,2,9,-5,0,11,,train_dim1_2,2,30,,,,5,0,5,0,,,,,,,,,0,0,0,0,0,1,1,1,5,0,5,0,,,,,,,,,,,,,,,,,,,,,,,,,,,,,,,,,,,,,,,,,,,,,,,,,,,,,,,,,,,,,,,,30,,,,,,,,1993.0297337000957,1993.0297337000957,1993.0297337000957,1993.0297337000957,1993.0297337000957,return,0.692877099965699,1,0,0,1,-2.7755575615628914e-17,0.32,return,0.6073005999205634,-68,-11,-2.7755575615628914e-17,0.32,,,,,,,,,,,,,,,,,,,,,,,,,,,,,,,,,,,,,,,,,,,,,,,,,,,,,,,,3TRYKE,train_y,blue_star,top_right,2025-03-13_17h10.59.069,HideSeek_v1,2022.2.5,59.92049745061559,
,9,9,5,9,-4,0,21,,train_dim1_2,3,30,,,,5,0,5,0,,,,,,,,,0,0,0,0,0,2,2,2,0,0,0,0,,,,,,,,,,,,,,,,,,,,,,,,,stimuli/alien_stimuli/21.png,,,,,,,,,,,,,,,,,,,,,,,,,,,,,stimuli/alien_stimuli/11.png,11,7,4,,,,,,,30,,,,,,,,1999.1231538000284,1999.1231538000284,1999.1231538000284,1999.1231538000284,1999.1231538000284,left,1.7553438999457285,1,0,0,99,0.48000000000000004,0.32,left,1.6559355999343097,,,,,1997.5503583000973,1999.1231538000284,0,0.32,0.0,0.4,0.32,0,0.2,0,0.32,1995.3042313000187,1995.3042313000187,1995.3042313000187,1995.3042313000187,1995.3042313000187,1995.3042313000187,1995.3042313000187,1995.3042313000187,1995.2985907200257,2.3704463000176474,return,2.222932399949059,,,,,,,,,,,,,,,,,,,,,,,,,,,,,,,,,3TRYKE,train_y,blue_star,top_right,2025-03-13_17h10.59.069,HideSeek_v1,2022.2.5,59.92049745061559,
