trialInstr,x_fixStart,y_fixStart,x_corrSteps,y_corrSteps,x_nrSteps,y_nrSteps,alienID,trialLength,version,trialTrain,praclen,testlen,trial_label,break_on_off,beforeExpLoop.thisRepN,beforeExpLoop.thisTrialN,beforeExpLoop.thisN,beforeExpLoop.thisIndex,mini_instr_trials.thisRepN,mini_instr_trials.thisTrialN,mini_instr_trials.thisN,mini_instr_trials.thisIndex,instrLoop.thisRepN,instrLoop.thisTrialN,instrLoop.thisN,instrLoop.thisIndex,repeat_prac.thisRepN,repeat_prac.thisTrialN,repeat_prac.thisN,repeat_prac.thisIndex,trainLoop.thisRepN,trainLoop.thisTrialN,trainLoop.thisN,trainLoop.thisIndex,moveLoop_train.thisRepN,moveLoop_train.thisTrialN,moveLoop_train.thisN,moveLoop_train.thisIndex,experiment.thisRepN,experiment.thisTrialN,experiment.thisN,experiment.thisIndex,moveLoop_test.thisRepN,moveLoop_test.thisTrialN,moveLoop_test.thisN,moveLoop_test.thisIndex,mini_instr2_trials.thisRepN,mini_instr2_trials.thisTrialN,mini_instr2_trials.thisN,mini_instr2_trials.thisIndex,start_all_time,url,slideStim,audioStim,slides.started,sounds.started,nextButton.numClicks,nextButton.timesOn,nextButton.timesOff,prev_but.numClicks,prev_but.timesOn,prev_but.timesOff,alienStim,instrFile,alienStim_instr,gridImage_instr.started,startPos_3.started,key_instr.started,alienImage_3.started,sounds_1.started,key_instr.keys,key_instr.rt,all_x,all_y,FBy_corrSteps,FBy_fixStart,FBx_corrSteps,FBx_fixStart,FBy_pathSize_check,FBx_pathSize_check,gridImage_9.started,alienImageFB_3.started,startPosFB_3.started,keyFB_3.started,pathLine_ydir_2.started,pathLine_xdir_2.started,alienFace_3.started,sounds_2.started,RTFB_instr,keyFB_3.keys,keyFB_3.rt,draw_alienStim,draw_alienID,test_x,nrepcount,perfthres,percthres,earlierperf,earlystop,nextPrac,fileidx,praclen,saveACC_train,pracFile,nextPrac_train,addNrep,fileidx_endr,repExp,showearly,gridImage_4.started,startPos.started,movePos.started,key_resp.started,alienImage.started,buttonPress_train,RTchoice_train,cumAcctrain,aCorr,saveACC_choice,corrAns,x_movePos_end,y_movePos_end,key_resp.keys,key_resp.rt,wLy_dir,wLx_dir,x_movePos,y_movePos,text_2.started,text_2.stopped,aft_x_corrPos,aft_y_corrPos,y_pathSize_check,x_pathSize_check,y_pathdirY,x_pathdirY,x_pathdirX,x_corrPos,y_corrPos,gridImage_6.started,alienImageFB_2.started,startPosFB_2.started,movePosFB_2.started,keyFB_2.started,pathLine_xdir.started,pathLine_ydir.started,alienFace.started,sounds_4.started,RT_FBtrain,keyFB_2.keys,keyFB_2.rt,saveACC_pre,ACC,within_saveACC_train,earlystop_wloop,cumAcctrain_check,gridImage_3.started,alienImage_test.started,startPos_test.started,movePos_test.started,key_resp_test.started,wLy_dir_test,wLx_dir_test,buttonPress_test,RTchoice_test,cumAcctest,corrAns_test,key_resp_test.keys,key_resp_test.rt,text_3.started,text_3.stopped,total_time,end_all_time,key_resp_3.keys,slides_2.started,sounds_3.started,nextButton_2.numClicks,nextButton_2.timesOn,nextButton_2.timesOff,prev_but_2.numClicks,prev_but_2.timesOn,prev_but_2.timesOff,bye.started,participant,train_first,00_coordinate,starting corner,date,expName,psychopyVersion,frameRate,
,,,,,,,,,,,,,,,0,0,0,0,0,0,0,0,,,,,,,,,,,,,,,,,,,,,,,,,,,,,start_all_time,testround,conditions/schedules/train_x_first/blue_star_00/top_right/instructions/Slide1.png,conditions/schedules/train_x_first/blue_star_00/top_right/instructions/Audio1.wav,586.7123478000285,586.6512502617087,1,[6.661383599974215],[6.6613919999217615],0,,,,,,,,,,,,,,,,,,,,,,,,,,,,,,,,,,,,,,,,,,,,,,,,,,,,,,,,,,,,,,,,,,,,,,,,,,,,,,,,,,,,,,,,,,,,,,,,,,,,,,,,,,,,,,,,,,,,,,,,,,,,3VK7QG,train_x,blue_star,top_right,2025-07-17_17h20.12.649,HideSeek_v1,2022.2.5,60.51136951495762,
,,,,,,,,,,,,,,,0,0,0,0,1,0,1,0,,,,,,,,,,,,,,,,,,,,,,,,,,,,,,,conditions/schedules/train_x_first/blue_star_00/top_right/instructions/Slide2.png,conditions/schedules/train_x_first/blue_star_00/top_right/instructions/Audio2.wav,593.3974796000402,593.3948202001047,2,"[6.661383599974215, 18.39358919998631]","[0.031181300058960915, 18.393597400048748]",0,,,,,,,,,,,,,,,,,,,,,,,,,,,,,,,,,,,,,,,,,,,,,,,,,,,,,,,,,,,,,,,,,,,,,,,,,,,,,,,,,,,,,,,,,,,,,,,,,,,,,,,,,,,,,,,,,,,,,,,,,,,,3VK7QG,train_x,blue_star,top_right,2025-07-17_17h20.12.649,HideSeek_v1,2022.2.5,60.51136951495762,
,,,,,,,,,,,,,,,0,0,0,0,2,0,2,0,,,,,,,,,,,,,,,,,,,,,,,,,,,,,,,conditions/schedules/train_x_first/blue_star_00/top_right/instructions/Slide3.png,conditions/schedules/train_x_first/blue_star_00/top_right/instructions/Audio3.wav,611.8617947000312,611.859838100092,3,"[6.661383599974215, 18.39358919998631, 16.943187199998647]","[0.031181300058960915, 0.06333130004350096, 16.9431951000588]",0,,,,,,,,,,,,,,,,,,,,,,,,,,,,,,,,,,,,,,,,,,,,,,,,,,,,,,,,,,,,,,,,,,,,,,,,,,,,,,,,,,,,,,,,,,,,,,,,,,,,,,,,,,,,,,,,,,,,,,,,,,,,3VK7QG,train_x,blue_star,top_right,2025-07-17_17h20.12.649,HideSeek_v1,2022.2.5,60.51136951495762,
,,,,,,,,,,,,,,,0,0,0,0,3,0,3,0,,,,,,,,,,,,,,,,,,,,,,,,,,,,,,,conditions/schedules/train_x_first/blue_star_00/top_right/instructions/Slide4.png,conditions/schedules/train_x_first/blue_star_00/top_right/instructions/Audio4.wav,628.8876111001009,628.873978000076,4,"[6.661383599974215, 18.39358919998631, 16.943187199998647, 19.533993300050497]","[0.031181300058960915, 0.06333130004350096, 0.050903000053949654, 19.534000599989668]",0,,,,,,,,,,,,,,,,,,,,,,,,,,,,,,,,,,,,,,,,,,,,,,,,,,,,,,,,,,,,,,,,,,,,,,,,,,,,,,,,,,,,,,,,,,,,,,,,,,,,,,,,,,,,,,,,,,,,,,,,,,,,3VK7QG,train_x,blue_star,top_right,2025-07-17_17h20.12.649,HideSeek_v1,2022.2.5,60.51136951495762,
,,,,,,,,,,,,,,,0,0,0,0,4,0,4,0,,,,,,,,,,,,,,,,,,,,,,,,,,,,,,,conditions/schedules/train_x_first/blue_star_00/top_right/instructions/Slide5.png,conditions/schedules/train_x_first/blue_star_00/top_right/instructions/Audio5.wav,648.4888563000131,648.4903835000587,5,"[6.661383599974215, 18.39358919998631, 16.943187199998647, 19.533993300050497, 5.821236500050873]","[0.031181300058960915, 0.06333130004350096, 0.050903000053949654, 0.09955369995441288, 5.8212438999908045]",0,,,,,,,,,,,,,,,,,,,,,,,,,,,,,,,,,,,,,,,,,,,,,,,,,,,,,,,,,,,,,,,,,,,,,,,,,,,,,,,,,,,,,,,,,,,,,,,,,,,,,,,,,,,,,,,,,,,,,,,,,,,,3VK7QG,train_x,blue_star,top_right,2025-07-17_17h20.12.649,HideSeek_v1,2022.2.5,60.51136951495762,
,,,,,,,,,,,,,,,0,0,0,0,5,0,5,0,,,,,,,,,,,,,,,,,,,,,,,,,,,,,,,conditions/schedules/train_x_first/blue_star_00/top_right/instructions/Slide6.png,conditions/schedules/train_x_first/blue_star_00/top_right/instructions/Audio6.wav,654.3605855000205,654.3619459800888,6,"[6.661383599974215, 18.39358919998631, 16.943187199998647, 19.533993300050497, 5.821236500050873, 7.788622400024906]","[0.031181300058960915, 0.06333130004350096, 0.050903000053949654, 0.09955369995441288, 0.06571200001053512, 7.788632599986158]",0,,,,,,,,,,,,,,,,,,,,,,,,,,,,,,,,,,,,,,,,,,,,,,,,,,,,,,,,,,,,,,,,,,,,,,,,,,,,,,,,,,,,,,,,,,,,,,,,,,,,,,,,,,,,,,,,,,,,,,,,,,,,3VK7QG,train_x,blue_star,top_right,2025-07-17_17h20.12.649,HideSeek_v1,2022.2.5,60.51136951495762,
,,,,,,,,,,,,,,,0,0,0,0,6,0,6,0,,,,,,,,,,,,,,,,,,,,,,,,,,,,,,,conditions/schedules/train_x_first/blue_star_00/top_right/instructions/Slide7.png,conditions/schedules/train_x_first/blue_star_00/top_right/instructions/Audio7.wav,662.217590300017,662.2183157001273,7,"[6.661383599974215, 18.39358919998631, 16.943187199998647, 19.533993300050497, 5.821236500050873, 7.788622400024906, 5.720387300010771]","[0.031181300058960915, 0.06333130004350096, 0.050903000053949654, 0.09955369995441288, 0.06571200001053512, 0.04972120001912117, 5.720393999945372]",0,,,,,,,,,,,,,,,,,,,,,,,,,,,,,,,,,,,,,,,,,,,,,,,,,,,,,,,,,,,,,,,,,,,,,,,,,,,,,,,,,,,,,,,,,,,,,,,,,,,,,,,,,,,,,,,,,,,,,,,,,,,,3VK7QG,train_x,blue_star,top_right,2025-07-17_17h20.12.649,HideSeek_v1,2022.2.5,60.51136951495762,
,,,,,,,,,,,,,,,0,0,0,0,7,0,7,0,,,,,,,,,,,,,,,,,,,,,,,,,,,,,,,conditions/schedules/train_x_first/blue_star_00/top_right/instructions/Slide8.png,conditions/schedules/train_x_first/blue_star_00/top_right/instructions/Audio8.wav,667.9923039000714,667.9900642800843,8,"[6.661383599974215, 18.39358919998631, 16.943187199998647, 19.533993300050497, 5.821236500050873, 7.788622400024906, 5.720387300010771, 12.321906599914655]","[0.031181300058960915, 0.06333130004350096, 0.050903000053949654, 0.09955369995441288, 0.06571200001053512, 0.04972120001912117, 0.06280099996365607, 12.321914899977855]",0,,,,,,,,,,,,,,,,,,,,,,,,,,,,,,,,,,,,,,,,,,,,,,,,,,,,,,,,,,,,,,,,,,,,,,,,,,,,,,,,,,,,,,,,,,,,,,,,,,,,,,,,,,,,,,,,,,,,,,,,,,,,3VK7QG,train_x,blue_star,top_right,2025-07-17_17h20.12.649,HideSeek_v1,2022.2.5,60.51136951495762,
,,,,,,,,,,,,,,,0,0,0,0,8,0,8,0,,,,,,,,,,,,,,,,,,,,,,,,,,,,,,,conditions/schedules/train_x_first/blue_star_00/top_right/instructions/Slide9.png,conditions/schedules/train_x_first/blue_star_00/top_right/instructions/Audio9.wav,680.3852664000588,680.3832641001209,9,"[6.661383599974215, 18.39358919998631, 16.943187199998647, 19.533993300050497, 5.821236500050873, 7.788622400024906, 5.720387300010771, 12.321906599914655, 6.834907899959944]","[0.031181300058960915, 0.06333130004350096, 0.050903000053949654, 0.09955369995441288, 0.06571200001053512, 0.04972120001912117, 0.06280099996365607, 0.06340909993741661, 6.834915399900638]",0,,,,,,,,,,,,,,,,,,,,,,,,,,,,,,,,,,,,,,,,,,,,,,,,,,,,,,,,,,,,,,,,,,,,,,,,,,,,,,,,,,,,,,,,,,,,,,,,,,,,,,,,,,,,,,,,,,,,,,,,,,,,3VK7QG,train_x,blue_star,top_right,2025-07-17_17h20.12.649,HideSeek_v1,2022.2.5,60.51136951495762,
,,,,,,,,,,,,,,,0,0,0,0,9,0,9,0,,,,,,,,,,,,,,,,,,,,,,,,,,,,,,,conditions/schedules/train_x_first/blue_star_00/top_right/instructions/Slide10.png,conditions/schedules/train_x_first/blue_star_00/top_right/instructions/Audio10.wav,687.273925100104,687.2724482801044,10,"[6.661383599974215, 18.39358919998631, 16.943187199998647, 19.533993300050497, 5.821236500050873, 7.788622400024906, 5.720387300010771, 12.321906599914655, 6.834907899959944, 7.46928239997942]","[0.031181300058960915, 0.06333130004350096, 0.050903000053949654, 0.09955369995441288, 0.06571200001053512, 0.04972120001912117, 0.06280099996365607, 0.06340909993741661, 0.06305280001834035, 7.469289500033483]",0,,,,,,,,,,,,,,,,,,,,,,,,,,,,,,,,,,,,,,,,,,,,,,,,,,,,,,,,,,,,,,,,,,,,,,,,,,,,,,,,,,,,,,,,,,,,,,,,,,,,,,,,,,,,,,,,,,,,,,,,,,,,3VK7QG,train_x,blue_star,top_right,2025-07-17_17h20.12.649,HideSeek_v1,2022.2.5,60.51136951495762,
,,,,,,,,,,,,,,,0,0,0,0,10,0,10,0,,,,,,,,,,,,,,,,,,,,,,,,,,,,,,,conditions/schedules/train_x_first/blue_star_00/top_right/instructions/Slide11.png,conditions/schedules/train_x_first/blue_star_00/top_right/instructions/Audio11.wav,694.7985767000355,694.7954744801158,11,"[6.661383599974215, 18.39358919998631, 16.943187199998647, 19.533993300050497, 5.821236500050873, 7.788622400024906, 5.720387300010771, 12.321906599914655, 6.834907899959944, 7.46928239997942, 10.169955999939702]","[0.031181300058960915, 0.06333130004350096, 0.050903000053949654, 0.09955369995441288, 0.06571200001053512, 0.04972120001912117, 0.06280099996365607, 0.06340909993741661, 0.06305280001834035, 0.09511919994838536, 10.16996339999605]",0,,,,,,,,,,,,,,,,,,,,,,,,,,,,,,,,,,,,,,,,,,,,,,,,,,,,,,,,,,,,,,,,,,,,,,,,,,,,,,,,,,,,,,,,,,,,,,,,,,,,,,,,,,,,,,,,,,,,,,,,,,,,3VK7QG,train_x,blue_star,top_right,2025-07-17_17h20.12.649,HideSeek_v1,2022.2.5,60.51136951495762,
,,,,,,,,,,,,,,,0,0,0,0,11,0,11,0,,,,,,,,,,,,,,,,,,,,,,,,,,,,,,,conditions/schedules/train_x_first/blue_star_00/top_right/instructions/Slide12.png,conditions/schedules/train_x_first/blue_star_00/top_right/instructions/Audio12.wav,705.0417516001035,705.0374532000278,12,"[6.661383599974215, 18.39358919998631, 16.943187199998647, 19.533993300050497, 5.821236500050873, 7.788622400024906, 5.720387300010771, 12.321906599914655, 6.834907899959944, 7.46928239997942, 10.169955999939702, 13.037613600026816]","[0.031181300058960915, 0.06333130004350096, 0.050903000053949654, 0.09955369995441288, 0.06571200001053512, 0.04972120001912117, 0.06280099996365607, 0.06340909993741661, 0.06305280001834035, 0.09511919994838536, 0.08305690006818622, 13.037620500079356]",0,,,,,,,,,,,,,,,,,,,,,,,,,,,,,,,,,,,,,,,,,,,,,,,,,,,,,,,,,,,,,,,,,,,,,,,,,,,,,,,,,,,,,,,,,,,,,,,,,,,,,,,,,,,,,,,,,,,,,,,,,,,,3VK7QG,train_x,blue_star,top_right,2025-07-17_17h20.12.649,HideSeek_v1,2022.2.5,60.51136951495762,
1,9,5,4,5,-5,0,11,2,instr_dim1_1,,,,,,0,0,0,0,,,,,0,0,0,0,,,,,,,,,,,,,,,,,,,,,,,,,,,,,,,,,,,,,stimuli/alien_stimuli/11.png,conditions/schedules/train_x_first/blue_star_00/top_right/inputInstr_1.xlsx,stimuli/alien_stimuli/11.png,718.1943886000663,718.1943886000663,718.1943886000663,718.1943886000663,718.1816156400484,return,10.717922499985434,"[-0.16, -0.08, 0, 0.08, 0.16, 0.24, 0.32, 0.4, 0.48, 0.56]","[-0.4, -0.32, -0.24, -0.16, -0.08, 0, 0.08, 0.16, 0.24, 0.32]",5,5,4,9,0.0,0.4,729.0825195000507,729.0825195000507,729.0825195000507,729.0825195000507,729.0825195000507,729.0825195000507,729.0825195000507,729.0739760800847,7.557098199962638,return,7.397156000020914,stimuli/alien_stimuli/11.png,11,9,1,,,,,,,,,,,,,,,,,,,,,,,,,,,,,,,,,,,,,,,,,,,,,,,,,,,,,,,,,,,,,,,,,,,,,,,,,,,,,,,,,,,,,,,,,3VK7QG,train_x,blue_star,top_right,2025-07-17_17h20.12.649,HideSeek_v1,2022.2.5,60.51136951495762,
,,,,,,,,,,,30,,,,0,0,0,0,,,,,,,,,,,,,,,,,,,,,,,,,,,,,,,,,,,,,,,,,,,,,,,,,,,,,,,,,,,,,,,,,,,,,,,,,,,,,,21,0.7,0,0,99,1,30,0,conditions/schedules/train_x_first/blue_star_00/top_right/inputTrain_1.1.xlsx,99,1,1,1,0,,,,,,,,,,,,,,,,,,,,,,,,,,,,,,,,,,,,,,,,,,,,,,,,,,,,,,,,,,,,,,,,,,,,,,,,,,,3VK7QG,train_x,blue_star,top_right,2025-07-17_17h20.12.649,HideSeek_v1,2022.2.5,60.51136951495762,
,,,,,,,,,,,,,,,1,0,1,0,0,0,0,0,,,,,,,,,,,,,,,,,,,,,,,,,,,,,,,conditions/schedules/train_x_first/blue_star_00/top_right/instructions/Slide13.png,conditions/schedules/train_x_first/blue_star_00/top_right/instructions/Audio13.wav,736.6298534000525,736.6300076800748,13,"[6.661383599974215, 18.39358919998631, 16.943187199998647, 19.533993300050497, 5.821236500050873, 7.788622400024906, 5.720387300010771, 12.321906599914655, 6.834907899959944, 7.46928239997942, 10.169955999939702, 13.037613600026816, 17.19549279997591]","[0.031181300058960915, 0.06333130004350096, 0.050903000053949654, 0.09955369995441288, 0.06571200001053512, 0.04972120001912117, 0.06280099996365607, 0.06340909993741661, 0.06305280001834035, 0.09511919994838536, 0.08305690006818622, 13.037620500079356, 17.195500900037587]",0,,,,,,,,,,,,,,,,,,,,,,,,,,,,,,,,,,,,,,,,,,,,,,,,,,,,,,,,,,,,,,,,,,,,,,,,,,,,,,,,,,,,,,,,,,,,,,,,,,,,,,,,,,,,,,,,,,,,,,,,,,,,3VK7QG,train_x,blue_star,top_right,2025-07-17_17h20.12.649,HideSeek_v1,2022.2.5,60.51136951495762,
,,,,,,,,,,,,,,,1,0,1,0,1,0,1,0,,,,,,,,,,,,,,,,,,,,,,,,,,,,,,,conditions/schedules/train_x_first/blue_star_00/top_right/instructions/Slide14.png,conditions/schedules/train_x_first/blue_star_00/top_right/instructions/Audio14.wav,753.8941978000803,753.8948703000206,14,"[6.661383599974215, 18.39358919998631, 16.943187199998647, 19.533993300050497, 5.821236500050873, 7.788622400024906, 5.720387300010771, 12.321906599914655, 6.834907899959944, 7.46928239997942, 10.169955999939702, 13.037613600026816, 17.19549279997591, 13.359384900075383]","[0.031181300058960915, 0.06333130004350096, 0.050903000053949654, 0.09955369995441288, 0.06571200001053512, 0.04972120001912117, 0.06280099996365607, 0.06340909993741661, 0.06305280001834035, 0.09511919994838536, 0.08305690006818622, 13.037620500079356, 0.06546900002285838, 13.359391800011508]",0,,,,,,,,,,,,,,,,,,,,,,,,,,,,,,,,,,,,,,,,,,,,,,,,,,,,,,,,,,,,,,,,,,,,,,,,,,,,,,,,,,,,,,,,,,,,,,,,,,,,,,,,,,,,,,,,,,,,,,,,,,,,3VK7QG,train_x,blue_star,top_right,2025-07-17_17h20.12.649,HideSeek_v1,2022.2.5,60.51136951495762,
2,8,7,8,7,0,0,61,2,instr_dim1_1,,,,,,1,0,1,0,,,,,0,0,0,0,,,,,,,,,,,,,,,,,,,,,,,,,,,,,,,,,,,,,stimuli/alien_stimuli/61.png,conditions/schedules/train_x_first/blue_star_00/top_right/inputInstr_1.xlsx,stimuli/alien_stimuli/61.png,767.355074900086,767.355074900086,767.355074900086,767.355074900086,767.3557938401239,return,6.905746100004762,"[-0.16, -0.08, 0, 0.08, 0.16, 0.24, 0.32, 0.4, 0.48, 0.56]","[-0.4, -0.32, -0.24, -0.16, -0.08, 0, 0.08, 0.16, 0.24, 0.32]",7,7,8,8,0.0,0.0,774.4143692000071,774.4143692000071,774.4143692000071,774.4143692000071,774.4143692000071,774.4143692000071,774.4143692000071,774.3950785600581,6.539462700020522,return,6.378678300068714,stimuli/alien_stimuli/61.png,61,8,2,,,,,,,,,,,,,,,,,,,,,,,,,,,,,,,,,,,,,,,,,,,,,,,,,,,,,,,,,,,,,,,,,,,,,,,,,,,,,,,,,,,,,,,,,3VK7QG,train_x,blue_star,top_right,2025-07-17_17h20.12.649,HideSeek_v1,2022.2.5,60.51136951495762,
,,,,,,,,,,,30,,,,1,0,1,0,,,,,,,,,,,,,,,,,,,,,,,,,,,,,,,,,,,,,,,,,,,,,,,,,,,,,,,,,,,,,,,,,,,,,,,,,,,,,,21,0.7,0,0,99,1,30,0,conditions/schedules/train_x_first/blue_star_00/top_right/inputTrain_1.1.xlsx,99,1,1,1,0,,,,,,,,,,,,,,,,,,,,,,,,,,,,,,,,,,,,,,,,,,,,,,,,,,,,,,,,,,,,,,,,,,,,,,,,,,,3VK7QG,train_x,blue_star,top_right,2025-07-17_17h20.12.649,HideSeek_v1,2022.2.5,60.51136951495762,
,,,,,,,,,,,,,,,2,0,2,0,0,0,0,0,,,,,,,,,,,,,,,,,,,,,,,,,,,,,,,conditions/schedules/train_x_first/blue_star_00/top_right/instructions/Slide15.png,conditions/schedules/train_x_first/blue_star_00/top_right/instructions/Audio15.wav,780.957442700048,780.9503015800495,15,"[6.661383599974215, 18.39358919998631, 16.943187199998647, 19.533993300050497, 5.821236500050873, 7.788622400024906, 5.720387300010771, 12.321906599914655, 6.834907899959944, 7.46928239997942, 10.169955999939702, 13.037613600026816, 17.19549279997591, 13.359384900075383, 30.54985939990729]","[0.031181300058960915, 0.06333130004350096, 0.050903000053949654, 0.09955369995441288, 0.06571200001053512, 0.04972120001912117, 0.06280099996365607, 0.06340909993741661, 0.06305280001834035, 0.09511919994838536, 0.08305690006818622, 13.037620500079356, 0.06546900002285838, 13.359391800011508, 30.549867399968207]",0,,,,,,,,,,,,,,,,,,,,,,,,,,,,,,,,,,,,,,,,,,,,,,,,,,,,,,,,,,,,,,,,,,,,,,,,,,,,,,,,,,,,,,,,,,,,,,,,,,,,,,,,,,,,,,,,,,,,,,,,,,,,3VK7QG,train_x,blue_star,top_right,2025-07-17_17h20.12.649,HideSeek_v1,2022.2.5,60.51136951495762,
,,,,,,,,,,,,,,,2,0,2,0,1,0,1,0,,,,,,,,,,,,,,,,,,,,,,,,,,,,,,,conditions/schedules/train_x_first/blue_star_00/top_right/instructions/Slide16.png,conditions/schedules/train_x_first/blue_star_00/top_right/instructions/Audio16.wav,811.5698575000279,811.5595178800635,16,"[6.661383599974215, 18.39358919998631, 16.943187199998647, 19.533993300050497, 5.821236500050873, 7.788622400024906, 5.720387300010771, 12.321906599914655, 6.834907899959944, 7.46928239997942, 10.169955999939702, 13.037613600026816, 17.19549279997591, 13.359384900075383, 30.54985939990729, 22.355570000014268]","[0.031181300058960915, 0.06333130004350096, 0.050903000053949654, 0.09955369995441288, 0.06571200001053512, 0.04972120001912117, 0.06280099996365607, 0.06340909993741661, 0.06305280001834035, 0.09511919994838536, 0.08305690006818622, 13.037620500079356, 0.06546900002285838, 13.359391800011508, 0.08674860000610352, 22.355577199952677]",0,,,,,,,,,,,,,,,,,,,,,,,,,,,,,,,,,,,,,,,,,,,,,,,,,,,,,,,,,,,,,,,,,,,,,,,,,,,,,,,,,,,,,,,,,,,,,,,,,,,,,,,,,,,,,,,,,,,,,,,,,,,,3VK7QG,train_x,blue_star,top_right,2025-07-17_17h20.12.649,HideSeek_v1,2022.2.5,60.51136951495762,
,7,6,4,6,-3,0,31,,train_dim1_1,1,30,,,,2,0,2,0,,,,,,,,,0,0,0,0,0,0,0,0,0,0,0,0,,,,,,,,,,,,,,,,,,,,,,,,,stimuli/alien_stimuli/31.png,,,,,,,,,,,,,,,,,,,,,,,,,,,,,,,,,,,,,,,30,,,,,,,,834.0277874000603,834.0277874000603,834.0277874000603,834.0277874000603,834.0277874000603,down,17.17550430004485,0,0,0,99,0.4,0.0,down,17.07008420000784,,,,,,,,,,,,,,,,,,,,,,,,,,,,,,,,,,,,,,,,,,,,,,,,,,,,,,,,,,,,3VK7QG,train_x,blue_star,top_right,2025-07-17_17h20.12.649,HideSeek_v1,2022.2.5,60.51136951495762,
,7,6,4,6,-3,0,31,,train_dim1_1,1,30,,,,2,0,2,0,,,,,,,,,0,0,0,0,0,0,0,0,1,0,1,0,,,,,,,,,,,,,,,,,,,,,,,,,,,,,,,,,,,,,,,,,,,,,,,,,,,,,,,,,,,,,,,,30,,,,,,,,851.2041922000935,851.2041922000935,851.2041922000935,851.2041922000935,851.2041922000935,down,4.395499600097537,0,0,0,99,0.4,-0.08,down,4.300877999980003,,,,,,,,,,,,,,,,,,,,,,,,,,,,,,,,,,,,,,,,,,,,,,,,,,,,,,,,,,,,3VK7QG,train_x,blue_star,top_right,2025-07-17_17h20.12.649,HideSeek_v1,2022.2.5,60.51136951495762,
,7,6,4,6,-3,0,31,,train_dim1_1,1,30,,,,2,0,2,0,,,,,,,,,0,0,0,0,0,0,0,0,2,0,2,0,,,,,,,,,,,,,,,,,,,,,,,,,,,,,,,,,,,,,,,,,,,,,,,,,,,,,,,,,,,,,,,,30,,,,,,,,855.5943501000293,855.5943501000293,855.5943501000293,855.5943501000293,855.5943501000293,down,2.928503399947658,0,0,0,99,0.4,-0.16,down,2.849654500023462,,,,,,,,,,,,,,,,,,,,,,,,,,,,,,,,,,,,,,,,,,,,,,,,,,,,,,,,,,,,3VK7QG,train_x,blue_star,top_right,2025-07-17_17h20.12.649,HideSeek_v1,2022.2.5,60.51136951495762,
,7,6,4,6,-3,0,31,,train_dim1_1,1,30,,,,2,0,2,0,,,,,,,,,0,0,0,0,0,0,0,0,3,0,3,0,,,,,,,,,,,,,,,,,,,,,,,,,,,,,,,,,,,,,,,,,,,,,,,,,,,,,,,,,,,,,,,,30,,,,,,,,858.5303830000339,858.5303830000339,858.5303830000339,858.5303830000339,858.5303830000339,down,4.012984199915081,0,0,0,99,0.4,-0.24,down,3.9244445000076666,,,,,,,,,,,,,,,,,,,,,,,,,,,,,,,,,,,,,,,,,,,,,,,,,,,,,,,,,,,,3VK7QG,train_x,blue_star,top_right,2025-07-17_17h20.12.649,HideSeek_v1,2022.2.5,60.51136951495762,
,7,6,4,6,-3,0,31,,train_dim1_1,1,30,,,,2,0,2,0,,,,,,,,,0,0,0,0,0,0,0,0,4,0,4,0,,,,,,,,,,,,,,,,,,,,,,,,,,,,,,,,,,,,,,,,,,,,,,,,,,,,,,,,,,,,,,,,30,,,,,,,,862.5587220001034,862.5587220001034,862.5587220001034,862.5587220001034,862.5587220001034,down,2.5946442999411374,0,0,0,99,0.4,-0.32,down,2.503505599917844,,,,,,,,,,,,,,,,,,,,,,,,,,,,,,,,,,,,,,,,,,,,,,,,,,,,,,,,,,,,3VK7QG,train_x,blue_star,top_right,2025-07-17_17h20.12.649,HideSeek_v1,2022.2.5,60.51136951495762,
,7,6,4,6,-3,0,31,,train_dim1_1,1,30,,,,2,0,2,0,,,,,,,,,0,0,0,0,0,0,0,0,5,0,5,0,,,,,,,,,,,,,,,,,,,,,,,,,,,,,,,,,,,,,,,,,,,,,,,,,,,,,,,,,,,,,,,,30,,,,,,,,865.1516357000219,865.1516357000219,865.1516357000219,865.1516357000219,865.1516357000219,return,6.281509399996139,0,0,0,0,0.4,-0.32,return,6.197283099987544,-5,0,0.4,-0.32,,,,,,,,,,,,,,,,,,,,,,,,,,,,,,,,,,,,,,,,,,,,,,,,,,,,,,,,3VK7QG,train_x,blue_star,top_right,2025-07-17_17h20.12.649,HideSeek_v1,2022.2.5,60.51136951495762,
,7,9,2,9,-5,0,11,,train_dim1_1,2,30,,,,2,0,2,0,,,,,,,,,0,0,0,0,0,1,1,1,0,0,0,0,,,,,,,,,,,,,,,,,,,,,,,,,stimuli/alien_stimuli/11.png,,,,,,,,,,,,,,,,,,,,,,,,,,,,,stimuli/alien_stimuli/31.png,31,7,3,,,,,,,30,,,,,,,,885.000363200088,885.000363200088,885.000363200088,885.000363200088,885.000363200088,down,5.209537199931219,0,0,0,99,0.4,0.24,down,5.097458399948664,,,,,883.4189042000799,885.000363200088,0.16,0.08,0.0,0.24,0.08,0.16,0.28,0.16,0.08,873.0099726000335,873.0099726000335,873.0099726000335,873.0099726000335,873.0099726000335,873.0099726000335,873.0099726000335,873.0099726000335,872.9936055401224,10.527619099942967,return,10.379721599980257,,,,,,,,,,,,,,,,,,,,,,,,,,,,,,,,,3VK7QG,train_x,blue_star,top_right,2025-07-17_17h20.12.649,HideSeek_v1,2022.2.5,60.51136951495762,
,7,9,2,9,-5,0,11,,train_dim1_1,2,30,,,,2,0,2,0,,,,,,,,,0,0,0,0,0,1,1,1,1,0,1,0,,,,,,,,,,,,,,,,,,,,,,,,,,,,,,,,,,,,,,,,,,,,,,,,,,,,,,,,,,,,,,,,30,,,,,,,,890.1962133999914,890.1962133999914,890.1962133999914,890.1962133999914,890.1962133999914,down,22.077141399960965,0,0,0,99,0.4,0.15999999999999998,down,21.996385600068606,,,,,,,,,,,,,,,,,,,,,,,,,,,,,,,,,,,,,,,,,,,,,,,,,,,,,,,,,,,,3VK7QG,train_x,blue_star,top_right,2025-07-17_17h20.12.649,HideSeek_v1,2022.2.5,60.51136951495762,
,7,9,2,9,-5,0,11,,train_dim1_1,2,30,,,,2,0,2,0,,,,,,,,,0,0,0,0,0,1,1,1,2,0,2,0,,,,,,,,,,,,,,,,,,,,,,,,,,,,,,,,,,,,,,,,,,,,,,,,,,,,,,,,,,,,,,,,30,,,,,,,,912.2859177000355,912.2859177000355,912.2859177000355,912.2859177000355,912.2859177000355,left,1.127626599976793,0,0,0,99,0.32,0.15999999999999998,left,1.0273072000127286,,,,,,,,,,,,,,,,,,,,,,,,,,,,,,,,,,,,,,,,,,,,,,,,,,,,,,,,,,,,3VK7QG,train_x,blue_star,top_right,2025-07-17_17h20.12.649,HideSeek_v1,2022.2.5,60.51136951495762,
,7,9,2,9,-5,0,11,,train_dim1_1,2,30,,,,2,0,2,0,,,,,,,,,0,0,0,0,0,1,1,1,3,0,3,0,,,,,,,,,,,,,,,,,,,,,,,,,,,,,,,,,,,,,,,,,,,,,,,,,,,,,,,,,,,,,,,,30,,,,,,,,913.4121552000288,913.4121552000288,913.4121552000288,913.4121552000288,913.4121552000288,right,2.044190200045705,0,0,0,99,0.4,0.15999999999999998,right,1.9514479000354186,,,,,,,,,,,,,,,,,,,,,,,,,,,,,,,,,,,,,,,,,,,,,,,,,,,,,,,,,,,,3VK7QG,train_x,blue_star,top_right,2025-07-17_17h20.12.649,HideSeek_v1,2022.2.5,60.51136951495762,
,7,9,2,9,-5,0,11,,train_dim1_1,2,30,,,,2,0,2,0,,,,,,,,,0,0,0,0,0,1,1,1,4,0,4,0,,,,,,,,,,,,,,,,,,,,,,,,,,,,,,,,,,,,,,,,,,,,,,,,,,,,,,,,,,,,,,,,30,,,,,,,,915.4633571000304,915.4633571000304,915.4633571000304,915.4633571000304,915.4633571000304,down,0.32642860000487417,0,0,0,99,0.4,0.07999999999999997,down,0.24713479995261878,,,,,,,,,,,,,,,,,,,,,,,,,,,,,,,,,,,,,,,,,,,,,,,,,,,,,,,,,,,,3VK7QG,train_x,blue_star,top_right,2025-07-17_17h20.12.649,HideSeek_v1,2022.2.5,60.51136951495762,
,7,9,2,9,-5,0,11,,train_dim1_1,2,30,,,,2,0,2,0,,,,,,,,,0,0,0,0,0,1,1,1,5,0,5,0,,,,,,,,,,,,,,,,,,,,,,,,,,,,,,,,,,,,,,,,,,,,,,,,,,,,,,,,,,,,,,,,30,,,,,,,,915.7997330999933,915.7997330999933,915.7997330999933,915.7997330999933,915.7997330999933,return,1.2103447000263259,0,0,0,0,0.4,0.07999999999999997,return,1.1233922999817878,-8,0,0.4,0.07999999999999997,,,,,,,,,,,,,,,,,,,,,,,,,,,,,,,,,,,,,,,,,,,,,,,,,,,,,,,,3VK7QG,train_x,blue_star,top_right,2025-07-17_17h20.12.649,HideSeek_v1,2022.2.5,60.51136951495762,
,9,9,5,9,-4,0,21,,train_dim1_1,3,30,,,,2,0,2,0,,,,,,,,,0,0,0,0,0,2,2,2,0,0,0,0,,,,,,,,,,,,,,,,,,,,,,,,,stimuli/alien_stimuli/21.png,,,,,,,,,,,,,,,,,,,,,,,,,,,,,stimuli/alien_stimuli/11.png,11,7,4,,,,,,,30,,,,,,,,924.2015361000085,924.2015361000085,924.2015361000085,924.2015361000085,924.2015361000085,left,5.309876100043766,0,0,0,99,0.48000000000000004,0.32,left,5.221582800033502,,,,,922.6183950999985,924.2015361000085,0,0.32,0.0,0.4,0.32,0,0.2,0,0.32,918.5889825000195,918.5889825000195,918.5889825000195,918.5889825000195,918.5889825000195,918.5889825000195,918.5889825000195,918.5889825000195,918.5814747601515,4.156028799945489,return,4.012977299978957,,,,,,,,,,,,,,,,,,,,,,,,,,,,,,,,,3VK7QG,train_x,blue_star,top_right,2025-07-17_17h20.12.649,HideSeek_v1,2022.2.5,60.51136951495762,
,9,9,5,9,-4,0,21,,train_dim1_1,3,30,,,,2,0,2,0,,,,,,,,,0,0,0,0,0,2,2,2,1,0,1,0,,,,,,,,,,,,,,,,,,,,,,,,,,,,,,,,,,,,,,,,,,,,,,,,,,,,,,,,,,,,,,,,30,,,,,,,,929.5105124000693,929.5105124000693,929.5105124000693,929.5105124000693,929.5105124000693,left,0.5928099000593647,0,0,0,99,0.4,0.32,left,0.5139765999047086,,,,,,,,,,,,,,,,,,,,,,,,,,,,,,,,,,,,,,,,,,,,,,,,,,,,,,,,,,,,3VK7QG,train_x,blue_star,top_right,2025-07-17_17h20.12.649,HideSeek_v1,2022.2.5,60.51136951495762,
,9,9,5,9,-4,0,21,,train_dim1_1,3,30,,,,2,0,2,0,,,,,,,,,0,0,0,0,0,2,2,2,2,0,2,0,,,,,,,,,,,,,,,,,,,,,,,,,,,,,,,,,,,,,,,,,,,,,,,,,,,,,,,,,,,,,,,,30,,,,,,,,930.1105241000187,930.1105241000187,930.1105241000187,930.1105241000187,930.1105241000187,left,0.5100498999236152,0,0,0,99,0.32,0.32,left,0.4188185000093654,,,,,,,,,,,,,,,,,,,,,,,,,,,,,,,,,,,,,,,,,,,,,,,,,,,,,,,,,,,,3VK7QG,train_x,blue_star,top_right,2025-07-17_17h20.12.649,HideSeek_v1,2022.2.5,60.51136951495762,
,9,9,5,9,-4,0,21,,train_dim1_1,3,30,,,,2,0,2,0,,,,,,,,,0,0,0,0,0,2,2,2,3,0,3,0,,,,,,,,,,,,,,,,,,,,,,,,,,,,,,,,,,,,,,,,,,,,,,,,,,,,,,,,,,,,,,,,30,,,,,,,,930.6269972000737,930.6269972000737,930.6269972000737,930.6269972000737,930.6269972000737,return,1.26049450004939,0,1,0,0,0.32,0.32,return,1.168025100021623,-8,-3,0.32,0.32,,,,,,,,,,,,,,,,,,,,,,,,,,,,,,,,,,,,,,,,,,,,,,,,,,,,,,,,3VK7QG,train_x,blue_star,top_right,2025-07-17_17h20.12.649,HideSeek_v1,2022.2.5,60.51136951495762,
,7,8,6,8,-1,0,51,,train_dim1_1,4,30,,,,2,0,2,0,,,,,,,,,0,0,0,0,0,3,3,3,0,0,0,0,,,,,,,,,,,,,,,,,,,,,,,,,stimuli/alien_stimuli/51.png,,,,,,,,,,,,,,,,,,,,,,,,,,,,,stimuli/alien_stimuli/21.png,21,9,5,,,,,,,30,,,,,,,,945.8211259000236,945.8211259000236,945.8211259000236,945.8211259000236,945.8211259000236,down,2.82456199999433,0,1,0,99,0.4,0.15999999999999998,down,2.7250963000115007,,,,,944.2529606000753,945.8211259000236,0.24,0.32,0.0,0.32,0.32,0.24,0.4,0.24,0.32,933.4775030000601,933.4775030000601,933.4775030000601,933.4775030000601,933.4775030000601,933.4775030000601,933.4775030000601,933.4775030000601,933.4605158600724,10.911250600009225,return,10.747763899969868,,,,,,,,,,,,,,,,,,,,,,,,,,,,,,,,,3VK7QG,train_x,blue_star,top_right,2025-07-17_17h20.12.649,HideSeek_v1,2022.2.5,60.51136951495762,
,7,8,6,8,-1,0,51,,train_dim1_1,4,30,,,,2,0,2,0,,,,,,,,,0,0,0,0,0,3,3,3,1,0,1,0,,,,,,,,,,,,,,,,,,,,,,,,,,,,,,,,,,,,,,,,,,,,,,,,,,,,,,,,,,,,,,,,30,,,,,,,,948.6401845000219,948.6401845000219,948.6401845000219,948.6401845000219,948.6401845000219,down,0.1931965999538079,0,1,0,99,0.4,0.07999999999999997,down,0.10111550008878112,,,,,,,,,,,,,,,,,,,,,,,,,,,,,,,,,,,,,,,,,,,,,,,,,,,,,,,,,,,,3VK7QG,train_x,blue_star,top_right,2025-07-17_17h20.12.649,HideSeek_v1,2022.2.5,60.51136951495762,
,7,8,6,8,-1,0,51,,train_dim1_1,4,30,,,,2,0,2,0,,,,,,,,,0,0,0,0,0,3,3,3,2,0,2,0,,,,,,,,,,,,,,,,,,,,,,,,,,,,,,,,,,,,,,,,,,,,,,,,,,,,,,,,,,,,,,,,30,,,,,,,,948.8432076000609,948.8432076000609,948.8432076000609,948.8432076000609,948.8432076000609,return,2.411231499980204,0,0,0,0,0.4,0.07999999999999997,return,2.330251400009729,-10,-3,0.4,0.07999999999999997,,,,,,,,,,,,,,,,,,,,,,,,,,,,,,,,,,,,,,,,,,,,,,,,,,,,,,,,3VK7QG,train_x,blue_star,top_right,2025-07-17_17h20.12.649,HideSeek_v1,2022.2.5,60.51136951495762,
,5,7,5,7,0,0,61,,train_dim1_1,5,30,,,,2,0,2,0,,,,,,,,,0,0,0,0,0,4,4,4,0,0,0,0,,,,,,,,,,,,,,,,,,,,,,,,,stimuli/alien_stimuli/61.png,,,,,,,,,,,,,,,,,,,,,,,,,,,,,stimuli/alien_stimuli/51.png,51,7,6,,,,,,,30,,,,,,,,956.839691500063,956.839691500063,956.839691500063,956.839691500063,956.839691500063,left,7.160937099950388,0,0,0,99,0.15999999999999998,0.16,left,7.0591186999809,,,,,955.262369700009,956.839691500063,0.32,0.24,0.0,0.08,0.24,0.32,0.36,0.32,0.24,952.8321436000988,952.8321436000988,952.8321436000988,952.8321436000988,952.8321436000988,952.8321436000988,952.8321436000988,952.8321436000988,952.809917540045,2.5549960000207648,return,2.409074899973348,,,,,,,,,,,,,,,,,,,,,,,,,,,,,,,,,3VK7QG,train_x,blue_star,top_right,2025-07-17_17h20.12.649,HideSeek_v1,2022.2.5,60.51136951495762,
,5,7,5,7,0,0,61,,train_dim1_1,5,30,,,,2,0,2,0,,,,,,,,,0,0,0,0,0,4,4,4,1,0,1,0,,,,,,,,,,,,,,,,,,,,,,,,,,,,,,,,,,,,,,,,,,,,,,,,,,,,,,,,,,,,,,,,30,,,,,,,,963.9870904000709,963.9870904000709,963.9870904000709,963.9870904000709,963.9870904000709,return,0.5261737999971956,0,1,0,0,0.15999999999999998,0.16,return,0.43879459996242076,-10,-4,0.15999999999999998,0.16,,,,,,,,,,,,,,,,,,,,,,,,,,,,,,,,,,,,,,,,,,,,,,,,,,,,,,,,3VK7QG,train_x,blue_star,top_right,2025-07-17_17h20.12.649,HideSeek_v1,2022.2.5,60.51136951495762,
,5,5,1,5,-4,0,21,,train_dim1_1,6,30,,,,2,0,2,0,,,,,,,,,0,0,0,0,0,5,5,5,0,0,0,0,,,,,,,,,,,,,,,,,,,,,,,,,stimuli/alien_stimuli/21.png,,,,,,,,,,,,,,,,,,,,,,,,,,,,,stimuli/alien_stimuli/61.png,61,5,7,,,,,,,30,,,,,,,,974.4945395000977,974.4945395000977,974.4945395000977,974.4945395000977,974.4945395000977,left,8.411558500025421,0,1,0,99,0.15999999999999998,0,left,8.319541500066407,,,,,972.9268495000433,974.4945395000977,0.24,0.16,0.0,0.0,0.16,0.24,0.24,0.24,0.16,966.0907389000058,966.0907389000058,966.0907389000058,966.0907389000058,966.0907389000058,966.0907389000058,966.0907389000058,966.0907389000058,966.0710651400616,6.957971299998462,return,6.811520100105554,,,,,,,,,,,,,,,,,,,,,,,,,,,,,,,,,3VK7QG,train_x,blue_star,top_right,2025-07-17_17h20.12.649,HideSeek_v1,2022.2.5,60.51136951495762,
,5,5,1,5,-4,0,21,,train_dim1_1,6,30,,,,2,0,2,0,,,,,,,,,0,0,0,0,0,5,5,5,1,0,1,0,,,,,,,,,,,,,,,,,,,,,,,,,,,,,,,,,,,,,,,,,,,,,,,,,,,,,,,,,,,,,,,,30,,,,,,,,982.9079857000615,982.9079857000615,982.9079857000615,982.9079857000615,982.9079857000615,left,1.0102032999275252,0,1,0,99,0.07999999999999997,0,left,0.9210375999100506,,,,,,,,,,,,,,,,,,,,,,,,,,,,,,,,,,,,,,,,,,,,,,,,,,,,,,,,,,,,3VK7QG,train_x,blue_star,top_right,2025-07-17_17h20.12.649,HideSeek_v1,2022.2.5,60.51136951495762,
,5,5,1,5,-4,0,21,,train_dim1_1,6,30,,,,2,0,2,0,,,,,,,,,0,0,0,0,0,5,5,5,2,0,2,0,,,,,,,,,,,,,,,,,,,,,,,,,,,,,,,,,,,,,,,,,,,,,,,,,,,,,,,,,,,,,,,,30,,,,,,,,983.9218185000354,983.9218185000354,983.9218185000354,983.9218185000354,983.9218185000354,left,0.6930526000214741,0,1,0,99,-2.7755575615628914e-17,0,left,0.602943200035952,,,,,,,,,,,,,,,,,,,,,,,,,,,,,,,,,,,,,,,,,,,,,,,,,,,,,,,,,,,,3VK7QG,train_x,blue_star,top_right,2025-07-17_17h20.12.649,HideSeek_v1,2022.2.5,60.51136951495762,
,5,5,1,5,-4,0,21,,train_dim1_1,6,30,,,,2,0,2,0,,,,,,,,,0,0,0,0,0,5,5,5,3,0,3,0,,,,,,,,,,,,,,,,,,,,,,,,,,,,,,,,,,,,,,,,,,,,,,,,,,,,,,,,,,,,,,,,30,,,,,,,,984.621117600007,984.621117600007,984.621117600007,984.621117600007,984.621117600007,left,0.47671770001761615,0,1,0,99,-0.08000000000000003,0,left,0.3949309999588877,,,,,,,,,,,,,,,,,,,,,,,,,,,,,,,,,,,,,,,,,,,,,,,,,,,,,,,,,,,,3VK7QG,train_x,blue_star,top_right,2025-07-17_17h20.12.649,HideSeek_v1,2022.2.5,60.51136951495762,
,5,5,1,5,-4,0,21,,train_dim1_1,6,30,,,,2,0,2,0,,,,,,,,,0,0,0,0,0,5,5,5,4,0,4,0,,,,,,,,,,,,,,,,,,,,,,,,,,,,,,,,,,,,,,,,,,,,,,,,,,,,,,,,,,,,,,,,30,,,,,,,,985.110810900107,985.110810900107,985.110810900107,985.110810900107,985.110810900107,return,3.0118959000101313,1,0,0,1,-0.08000000000000003,0,return,2.915143399965018,-10,-8,-0.08000000000000003,0,,,,,,,,,,,,,,,,,,,,,,,,,,,,,,,,,,,,,,,,,,,,,,,,,,,,,,,,3VK7QG,train_x,blue_star,top_right,2025-07-17_17h20.12.649,HideSeek_v1,2022.2.5,60.51136951495762,
,8,5,8,5,0,0,61,,train_dim1_1,7,30,,,,2,0,2,0,,,,,,,,,0,0,0,0,0,6,6,6,0,0,0,0,,,,,,,,,,,,,,,,,,,,,,,,,stimuli/alien_stimuli/61.png,,,,,,,,,,,,,,,,,,,,,,,,,,,,,stimuli/alien_stimuli/21.png,21,5,8,,,,,,,30,,,,,,,,994.9531720000086,994.9531720000086,994.9531720000086,994.9531720000086,994.9531720000086,return,8.661888299975544,2,0,0,1,0.48,0,return,8.580878900014795,-10,-8,0.48,0,993.3938899000641,994.9531720000086,-0.08,0,0.0,0.32,0.0,-0.08,0.07999999999999999,-0.08,0,989.715765900095,989.715765900095,989.715765900095,989.715765900095,989.715765900095,989.715765900095,989.715765900095,989.715765900095,989.7076018801075,3.8221362000331283,return,3.662389799952507,,,,,,,,,,,,,,,,,,,,,,,,,,,,,,,,,3VK7QG,train_x,blue_star,top_right,2025-07-17_17h20.12.649,HideSeek_v1,2022.2.5,60.51136951495762,
,5,9,2,9,-3,0,31,,train_dim1_1,8,30,,,,2,0,2,0,,,,,,,,,0,0,0,0,0,7,7,7,0,0,0,0,,,,,,,,,,,,,,,,,,,,,,,,,stimuli/alien_stimuli/31.png,,,,,,,,,,,,,,,,,,,,,,,,,,,,,stimuli/alien_stimuli/61.png,61,8,9,,,,,,,30,,,,,,,,1011.3859230000526,1011.3859230000526,1011.3859230000526,1011.3859230000526,1011.3859230000526,left,6.059794300002977,2,0,0,99,0.15999999999999998,0.32,left,5.966873099911027,,,,,1009.8241057000123,1011.3859230000526,0.48,0,0.0,0.0,0.0,0.48,0.48,0.48,0,1005.2090721999994,1005.2090721999994,1005.2090721999994,1005.2090721999994,1005.2090721999994,1005.2090721999994,1005.2090721999994,1005.2090721999994,1005.1866676600883,4.7562864999054,return,4.588171600014903,,,,,,,,,,,,,,,,,,,,,,,,,,,,,,,,,3VK7QG,train_x,blue_star,top_right,2025-07-17_17h20.12.649,HideSeek_v1,2022.2.5,60.51136951495762,
,5,9,2,9,-3,0,31,,train_dim1_1,8,30,,,,2,0,2,0,,,,,,,,,0,0,0,0,0,7,7,7,1,0,1,0,,,,,,,,,,,,,,,,,,,,,,,,,,,,,,,,,,,,,,,,,,,,,,,,,,,,,,,,,,,,,,,,30,,,,,,,,1017.4463156000711,1017.4463156000711,1017.4463156000711,1017.4463156000711,1017.4463156000711,down,2.0941303999861702,2,0,0,99,0.15999999999999998,0.24,down,2.018339999951422,,,,,,,,,,,,,,,,,,,,,,,,,,,,,,,,,,,,,,,,,,,,,,,,,,,,,,,,,,,,3VK7QG,train_x,blue_star,top_right,2025-07-17_17h20.12.649,HideSeek_v1,2022.2.5,60.51136951495762,
,5,9,2,9,-3,0,31,,train_dim1_1,8,30,,,,2,0,2,0,,,,,,,,,0,0,0,0,0,7,7,7,2,0,2,0,,,,,,,,,,,,,,,,,,,,,,,,,,,,,,,,,,,,,,,,,,,,,,,,,,,,,,,,,,,,,,,,30,,,,,,,,1019.5467253000243,1019.5467253000243,1019.5467253000243,1019.5467253000243,1019.5467253000243,up,7.5992694000015035,2,0,0,99,0.15999999999999998,0.32,up,7.524547000066377,,,,,,,,,,,,,,,,,,,,,,,,,,,,,,,,,,,,,,,,,,,,,,,,,,,,,,,,,,,,3VK7QG,train_x,blue_star,top_right,2025-07-17_17h20.12.649,HideSeek_v1,2022.2.5,60.51136951495762,
,5,9,2,9,-3,0,31,,train_dim1_1,8,30,,,,2,0,2,0,,,,,,,,,0,0,0,0,0,7,7,7,3,0,3,0,,,,,,,,,,,,,,,,,,,,,,,,,,,,,,,,,,,,,,,,,,,,,,,,,,,,,,,,,,,,,,,,30,,,,,,,,1027.1536284000613,1027.1536284000613,1027.1536284000613,1027.1536284000613,1027.1536284000613,left,0.4932235999731347,2,0,0,99,0.07999999999999997,0.32,left,0.418320499942638,,,,,,,,,,,,,,,,,,,,,,,,,,,,,,,,,,,,,,,,,,,,,,,,,,,,,,,,,,,,3VK7QG,train_x,blue_star,top_right,2025-07-17_17h20.12.649,HideSeek_v1,2022.2.5,60.51136951495762,
,5,9,2,9,-3,0,31,,train_dim1_1,8,30,,,,2,0,2,0,,,,,,,,,0,0,0,0,0,7,7,7,4,0,4,0,,,,,,,,,,,,,,,,,,,,,,,,,,,,,,,,,,,,,,,,,,,,,,,,,,,,,,,,,,,,,,,,30,,,,,,,,1027.6541609000415,1027.6541609000415,1027.6541609000415,1027.6541609000415,1027.6541609000415,left,1.8110203999094665,2,0,0,99,-2.7755575615628914e-17,0.32,left,1.721547199995257,,,,,,,,,,,,,,,,,,,,,,,,,,,,,,,,,,,,,,,,,,,,,,,,,,,,,,,,,,,,3VK7QG,train_x,blue_star,top_right,2025-07-17_17h20.12.649,HideSeek_v1,2022.2.5,60.51136951495762,
,5,9,2,9,-3,0,31,,train_dim1_1,8,30,,,,2,0,2,0,,,,,,,,,0,0,0,0,0,7,7,7,5,0,5,0,,,,,,,,,,,,,,,,,,,,,,,,,,,,,,,,,,,,,,,,,,,,,,,,,,,,,,,,,,,,,,,,30,,,,,,,,1029.4793753999984,1029.4793753999984,1029.4793753999984,1029.4793753999984,1029.4793753999984,left,0.4098822999512777,2,0,0,99,-0.08000000000000003,0.32,left,0.3143425000598654,,,,,,,,,,,,,,,,,,,,,,,,,,,,,,,,,,,,,,,,,,,,,,,,,,,,,,,,,,,,3VK7QG,train_x,blue_star,top_right,2025-07-17_17h20.12.649,HideSeek_v1,2022.2.5,60.51136951495762,
,5,9,2,9,-3,0,31,,train_dim1_1,8,30,,,,2,0,2,0,,,,,,,,,0,0,0,0,0,7,7,7,6,0,6,0,,,,,,,,,,,,,,,,,,,,,,,,,,,,,,,,,,,,,,,,,,,,,,,,,,,,,,,,,,,,,,,,30,,,,,,,,1029.8893686000956,1029.8893686000956,1029.8893686000956,1029.8893686000956,1029.8893686000956,return,0.6101165999425575,2,1,0,0,-0.08000000000000003,0.32,return,0.5305870999582112,-10,-12,-0.08000000000000003,0.32,,,,,,,,,,,,,,,,,,,,,,,,,,,,,,,,,,,,,,,,,,,,,,,,,,,,,,,,3VK7QG,train_x,blue_star,top_right,2025-07-17_17h20.12.649,HideSeek_v1,2022.2.5,60.51136951495762,
,6,5,5,5,-1,0,51,,train_dim1_1,9,30,,,,2,0,2,0,,,,,,,,,0,0,0,0,0,8,8,8,0,0,0,0,,,,,,,,,,,,,,,,,,,,,,,,,stimuli/alien_stimuli/51.png,,,,,,,,,,,,,,,,,,,,,,,,,,,,,stimuli/alien_stimuli/31.png,31,5,10,,,,,,,30,,,,,,,,1037.6921964000212,1037.6921964000212,1037.6921964000212,1037.6921964000212,1037.6921964000212,return,2.0062330999644473,2,1,0,0,0.32,0,return,1.9242199000436813,-10,-12,0.32,0,1036.1292665000074,1037.6921964000212,0,0.32,0.0,0.24,0.32,0,0.12,0,0.32,1032.0805497000692,1032.0805497000692,1032.0805497000692,1032.0805497000692,1032.0805497000692,1032.0805497000692,1032.0805497000692,1032.0805497000692,1032.0592074401093,4.172461300040595,return,4.0206050999695435,,,,,,,,,,,,,,,,,,,,,,,,,,,,,,,,,3VK7QG,train_x,blue_star,top_right,2025-07-17_17h20.12.649,HideSeek_v1,2022.2.5,60.51136951495762,
,5,8,0,8,-5,0,11,,train_dim1_1,10,30,,,,2,0,2,0,,,,,,,,,0,0,0,0,0,9,9,9,0,0,0,0,,,,,,,,,,,,,,,,,,,,,,,,,stimuli/alien_stimuli/11.png,,,,,,,,,,,,,,,,,,,,,,,,,,,,,stimuli/alien_stimuli/51.png,51,6,11,,,,,,,30,,,,,,,,1046.1140670001041,1046.1140670001041,1046.1140670001041,1046.1140670001041,1046.1140670001041,down,3.7088760000187904,2,1,0,99,0.24,0.15999999999999998,down,3.5972299000713974,,,,,1044.5363406999968,1046.1140670001041,0.24,0,0.0,0.08,0.0,0.24,0.28,0.24,0,1041.267465300043,1041.267465300043,1041.267465300043,1041.267465300043,1041.267465300043,1041.267465300043,1041.267465300043,1041.267465300043,1041.2500964400706,3.3885962000349537,return,3.2454347999300808,,,,,,,,,,,,,,,,,,,,,,,,,,,,,,,,,3VK7QG,train_x,blue_star,top_right,2025-07-17_17h20.12.649,HideSeek_v1,2022.2.5,60.51136951495762,
,5,8,0,8,-5,0,11,,train_dim1_1,10,30,,,,2,0,2,0,,,,,,,,,0,0,0,0,0,9,9,9,1,0,1,0,,,,,,,,,,,,,,,,,,,,,,,,,,,,,,,,,,,,,,,,,,,,,,,,,,,,,,,,,,,,,,,,30,,,,,,,,1049.811901200097,1049.811901200097,1049.811901200097,1049.811901200097,1049.811901200097,return,0.5097407000139356,2,0,0,0,0.24,0.15999999999999998,return,0.42436689999885857,-11,-12,0.24,0.15999999999999998,,,,,,,,,,,,,,,,,,,,,,,,,,,,,,,,,,,,,,,,,,,,,,,,,,,,,,,,3VK7QG,train_x,blue_star,top_right,2025-07-17_17h20.12.649,HideSeek_v1,2022.2.5,60.51136951495762,
,7,7,4,7,-3,0,31,,train_dim1_1,11,30,,,,2,0,2,0,,,,,,,,,0,0,0,0,0,10,10,10,0,0,0,0,,,,,,,,,,,,,,,,,,,,,,,,,stimuli/alien_stimuli/31.png,,,,,,,,,,,,,,,,,,,,,,,,,,,,,stimuli/alien_stimuli/11.png,11,5,12,,,,,,,30,,,,,,,,1058.1444912001025,1058.1444912001025,1058.1444912001025,1058.1444912001025,1058.1444912001025,left,2.138059000018984,2,0,0,99,0.32,0.16,left,2.050650199991651,,,,,1056.5796888000332,1058.1444912001025,-0.16,0.24,0.0,0.4,0.24,-0.16,0.039999999999999994,-0.16,0.24,1051.9052127000177,1051.9052127000177,1051.9052127000177,1051.9052127000177,1051.9052127000177,1051.9052127000177,1051.9052127000177,1051.9052127000177,1051.8924457601504,4.806550999986939,return,4.650467999977991,,,,,,,,,,,,,,,,,,,,,,,,,,,,,,,,,3VK7QG,train_x,blue_star,top_right,2025-07-17_17h20.12.649,HideSeek_v1,2022.2.5,60.51136951495762,
,7,7,4,7,-3,0,31,,train_dim1_1,11,30,,,,2,0,2,0,,,,,,,,,0,0,0,0,0,10,10,10,1,0,1,0,,,,,,,,,,,,,,,,,,,,,,,,,,,,,,,,,,,,,,,,,,,,,,,,,,,,,,,,,,,,,,,,30,,,,,,,,1060.2809842000715,1060.2809842000715,1060.2809842000715,1060.2809842000715,1060.2809842000715,left,0.4094828999368474,2,0,0,99,0.24,0.16,left,0.330938300001435,,,,,,,,,,,,,,,,,,,,,,,,,,,,,,,,,,,,,,,,,,,,,,,,,,,,,,,,,,,,3VK7QG,train_x,blue_star,top_right,2025-07-17_17h20.12.649,HideSeek_v1,2022.2.5,60.51136951495762,
,7,7,4,7,-3,0,31,,train_dim1_1,11,30,,,,2,0,2,0,,,,,,,,,0,0,0,0,0,10,10,10,2,0,2,0,,,,,,,,,,,,,,,,,,,,,,,,,,,,,,,,,,,,,,,,,,,,,,,,,,,,,,,,,,,,,,,,30,,,,,,,,1060.6971028000116,1060.6971028000116,1060.6971028000116,1060.6971028000116,1060.6971028000116,left,0.3596718000480905,2,0,0,99,0.15999999999999998,0.16,left,0.28544710006099194,,,,,,,,,,,,,,,,,,,,,,,,,,,,,,,,,,,,,,,,,,,,,,,,,,,,,,,,,,,,3VK7QG,train_x,blue_star,top_right,2025-07-17_17h20.12.649,HideSeek_v1,2022.2.5,60.51136951495762,
,7,7,4,7,-3,0,31,,train_dim1_1,11,30,,,,2,0,2,0,,,,,,,,,0,0,0,0,0,10,10,10,3,0,3,0,,,,,,,,,,,,,,,,,,,,,,,,,,,,,,,,,,,,,,,,,,,,,,,,,,,,,,,,,,,,,,,,30,,,,,,,,1061.0653693000786,1061.0653693000786,1061.0653693000786,1061.0653693000786,1061.0653693000786,left,0.36005449993535876,2,0,0,99,0.07999999999999997,0.16,left,0.28171869996003807,,,,,,,,,,,,,,,,,,,,,,,,,,,,,,,,,,,,,,,,,,,,,,,,,,,,,,,,,,,,3VK7QG,train_x,blue_star,top_right,2025-07-17_17h20.12.649,HideSeek_v1,2022.2.5,60.51136951495762,
,7,7,4,7,-3,0,31,,train_dim1_1,11,30,,,,2,0,2,0,,,,,,,,,0,0,0,0,0,10,10,10,4,0,4,0,,,,,,,,,,,,,,,,,,,,,,,,,,,,,,,,,,,,,,,,,,,,,,,,,,,,,,,,,,,,,,,,30,,,,,,,,1061.4356812000042,1061.4356812000042,1061.4356812000042,1061.4356812000042,1061.4356812000042,return,0.9433308000443503,2,1,0,0,0.07999999999999997,0.16,return,0.859075199929066,-11,-16,0.07999999999999997,0.16,,,,,,,,,,,,,,,,,,,,,,,,,,,,,,,,,,,,,,,,,,,,,,,,,,,,,,,,3VK7QG,train_x,blue_star,top_right,2025-07-17_17h20.12.649,HideSeek_v1,2022.2.5,60.51136951495762,
,5,5,1,5,-4,0,21,,train_dim1_1,12,30,,,,2,0,2,0,,,,,,,,,0,0,0,0,0,11,11,11,0,0,0,0,,,,,,,,,,,,,,,,,,,,,,,,,stimuli/alien_stimuli/21.png,,,,,,,,,,,,,,,,,,,,,,,,,,,,,stimuli/alien_stimuli/31.png,31,7,13,,,,,,,30,,,,,,,,1070.1383954000194,1070.1383954000194,1070.1383954000194,1070.1383954000194,1070.1383954000194,left,3.4250956000760198,2,1,0,99,0.15999999999999998,0,left,3.3265838999068365,,,,,1068.5732509000227,1070.1383954000194,0.16,0.16,0.0,0.24,0.16,0.16,0.28,0.16,0.16,1063.9571754999924,1063.9571754999924,1063.9571754999924,1063.9571754999924,1063.9571754999924,1063.9571754999924,1063.9571754999924,1063.9571754999924,1063.935879840038,4.739984199986793,return,4.600337099982426,,,,,,,,,,,,,,,,,,,,,,,,,,,,,,,,,3VK7QG,train_x,blue_star,top_right,2025-07-17_17h20.12.649,HideSeek_v1,2022.2.5,60.51136951495762,
,5,5,1,5,-4,0,21,,train_dim1_1,12,30,,,,2,0,2,0,,,,,,,,,0,0,0,0,0,11,11,11,1,0,1,0,,,,,,,,,,,,,,,,,,,,,,,,,,,,,,,,,,,,,,,,,,,,,,,,,,,,,,,,,,,,,,,,30,,,,,,,,1073.5629364000633,1073.5629364000633,1073.5629364000633,1073.5629364000633,1073.5629364000633,left,0.8265740999486297,2,1,0,99,0.07999999999999997,0,left,0.7405797999817878,,,,,,,,,,,,,,,,,,,,,,,,,,,,,,,,,,,,,,,,,,,,,,,,,,,,,,,,,,,,3VK7QG,train_x,blue_star,top_right,2025-07-17_17h20.12.649,HideSeek_v1,2022.2.5,60.51136951495762,
,5,5,1,5,-4,0,21,,train_dim1_1,12,30,,,,2,0,2,0,,,,,,,,,0,0,0,0,0,11,11,11,2,0,2,0,,,,,,,,,,,,,,,,,,,,,,,,,,,,,,,,,,,,,,,,,,,,,,,,,,,,,,,,,,,,,,,,30,,,,,,,,1074.398241900024,1074.398241900024,1074.398241900024,1074.398241900024,1074.398241900024,left,1.0434245000360534,2,1,0,99,-2.7755575615628914e-17,0,left,0.959248699946329,,,,,,,,,,,,,,,,,,,,,,,,,,,,,,,,,,,,,,,,,,,,,,,,,,,,,,,,,,,,3VK7QG,train_x,blue_star,top_right,2025-07-17_17h20.12.649,HideSeek_v1,2022.2.5,60.51136951495762,
,5,5,1,5,-4,0,21,,train_dim1_1,12,30,,,,2,0,2,0,,,,,,,,,0,0,0,0,0,11,11,11,3,0,3,0,,,,,,,,,,,,,,,,,,,,,,,,,,,,,,,,,,,,,,,,,,,,,,,,,,,,,,,,,,,,,,,,30,,,,,,,,1075.4494241999928,1075.4494241999928,1075.4494241999928,1075.4494241999928,1075.4494241999928,left,1.2938208000268787,2,1,0,99,-0.08000000000000003,0,left,1.2092000999255106,,,,,,,,,,,,,,,,,,,,,,,,,,,,,,,,,,,,,,,,,,,,,,,,,,,,,,,,,,,,3VK7QG,train_x,blue_star,top_right,2025-07-17_17h20.12.649,HideSeek_v1,2022.2.5,60.51136951495762,
,5,5,1,5,-4,0,21,,train_dim1_1,12,30,,,,2,0,2,0,,,,,,,,,0,0,0,0,0,11,11,11,4,0,4,0,,,,,,,,,,,,,,,,,,,,,,,,,,,,,,,,,,,,,,,,,,,,,,,,,,,,,,,,,,,,,,,,30,,,,,,,,1076.7477778000757,1076.7477778000757,1076.7477778000757,1076.7477778000757,1076.7477778000757,return,3.595979899982922,3,0,0,1,-0.08000000000000003,0,return,3.5150907000061125,-11,-20,-0.08000000000000003,0,,,,,,,,,,,,,,,,,,,,,,,,,,,,,,,,,,,,,,,,,,,,,,,,,,,,,,,,3VK7QG,train_x,blue_star,top_right,2025-07-17_17h20.12.649,HideSeek_v1,2022.2.5,60.51136951495762,
,5,9,4,9,-1,0,51,,train_dim1_1,13,30,,,,2,0,2,0,,,,,,,,,0,0,0,0,0,12,12,12,0,0,0,0,,,,,,,,,,,,,,,,,,,,,,,,,stimuli/alien_stimuli/51.png,,,,,,,,,,,,,,,,,,,,,,,,,,,,,stimuli/alien_stimuli/21.png,21,5,14,,,,,,,30,,,,,,,,1085.5810871000867,1085.5810871000867,1085.5810871000867,1085.5810871000867,1085.5810871000867,left,4.342791700037196,3,0,0,99,0.15999999999999998,0.32,left,4.2347554001025856,,,,,1084.002538700006,1085.5810871000867,-0.08,0,0.0,0.32,0.0,-0.08,0.07999999999999999,-0.08,0,1081.941815600032,1081.941815600032,1081.941815600032,1081.941815600032,1081.941815600032,1081.941815600032,1081.941815600032,1081.941815600032,1081.9341364801278,2.2042688000947237,return,2.039589999942109,,,,,,,,,,,,,,,,,,,,,,,,,,,,,,,,,3VK7QG,train_x,blue_star,top_right,2025-07-17_17h20.12.649,HideSeek_v1,2022.2.5,60.51136951495762,
,5,9,4,9,-1,0,51,,train_dim1_1,13,30,,,,2,0,2,0,,,,,,,,,0,0,0,0,0,12,12,12,1,0,1,0,,,,,,,,,,,,,,,,,,,,,,,,,,,,,,,,,,,,,,,,,,,,,,,,,,,,,,,,,,,,,,,,30,,,,,,,,1089.908591000014,1089.908591000014,1089.908591000014,1089.908591000014,1089.908591000014,return,0.45959949993994087,4,0,0,1,0.15999999999999998,0.32,return,0.3763436001027003,-11,-21,0.15999999999999998,0.32,,,,,,,,,,,,,,,,,,,,,,,,,,,,,,,,,,,,,,,,,,,,,,,,,,,,,,,,3VK7QG,train_x,blue_star,top_right,2025-07-17_17h20.12.649,HideSeek_v1,2022.2.5,60.51136951495762,
,9,8,4,8,-5,0,11,,train_dim1_1,14,30,,,,2,0,2,0,,,,,,,,,0,0,0,0,0,13,13,13,0,0,0,0,,,,,,,,,,,,,,,,,,,,,,,,,stimuli/alien_stimuli/11.png,,,,,,,,,,,,,,,,,,,,,,,,,,,,,stimuli/alien_stimuli/51.png,51,5,15,,,,,,,30,,,,,,,,1098.8961672000587,1098.8961672000587,1098.8961672000587,1098.8961672000587,1098.8961672000587,left,0.9564872999908403,4,0,0,99,0.48000000000000004,0.24,left,0.8692105000372976,,,,,1097.330485500046,1098.8961672000587,0.16,0.32,0.0,0.08,0.32,0.16,0.2,0.16,0.32,1091.934706900036,1091.934706900036,1091.934706900036,1091.934706900036,1091.934706900036,1091.934706900036,1091.934706900036,1091.934706900036,1091.9257925400625,5.507075299974531,return,5.3742251000367105,,,,,,,,,,,,,,,,,,,,,,,,,,,,,,,,,3VK7QG,train_x,blue_star,top_right,2025-07-17_17h20.12.649,HideSeek_v1,2022.2.5,60.51136951495762,
,9,8,4,8,-5,0,11,,train_dim1_1,14,30,,,,2,0,2,0,,,,,,,,,0,0,0,0,0,13,13,13,1,0,1,0,,,,,,,,,,,,,,,,,,,,,,,,,,,,,,,,,,,,,,,,,,,,,,,,,,,,,,,,,,,,,,,,30,,,,,,,,1099.8511380000273,1099.8511380000273,1099.8511380000273,1099.8511380000273,1099.8511380000273,left,0.4261181999463588,4,0,0,99,0.4,0.24,left,0.34923309995792806,,,,,,,,,,,,,,,,,,,,,,,,,,,,,,,,,,,,,,,,,,,,,,,,,,,,,,,,,,,,3VK7QG,train_x,blue_star,top_right,2025-07-17_17h20.12.649,HideSeek_v1,2022.2.5,60.51136951495762,
,9,8,4,8,-5,0,11,,train_dim1_1,14,30,,,,2,0,2,0,,,,,,,,,0,0,0,0,0,13,13,13,2,0,2,0,,,,,,,,,,,,,,,,,,,,,,,,,,,,,,,,,,,,,,,,,,,,,,,,,,,,,,,,,,,,,,,,30,,,,,,,,1100.2834629000863,1100.2834629000863,1100.2834629000863,1100.2834629000863,1100.2834629000863,left,0.5767359000165015,4,0,0,99,0.32,0.24,left,0.4914868000196293,,,,,,,,,,,,,,,,,,,,,,,,,,,,,,,,,,,,,,,,,,,,,,,,,,,,,,,,,,,,3VK7QG,train_x,blue_star,top_right,2025-07-17_17h20.12.649,HideSeek_v1,2022.2.5,60.51136951495762,
,9,8,4,8,-5,0,11,,train_dim1_1,14,30,,,,2,0,2,0,,,,,,,,,0,0,0,0,0,13,13,13,3,0,3,0,,,,,,,,,,,,,,,,,,,,,,,,,,,,,,,,,,,,,,,,,,,,,,,,,,,,,,,,,,,,,,,,30,,,,,,,,1100.879644400091,1100.879644400091,1100.879644400091,1100.879644400091,1100.879644400091,left,0.6599813000066206,4,0,0,99,0.24,0.24,left,0.5651241999585181,,,,,,,,,,,,,,,,,,,,,,,,,,,,,,,,,,,,,,,,,,,,,,,,,,,,,,,,,,,,3VK7QG,train_x,blue_star,top_right,2025-07-17_17h20.12.649,HideSeek_v1,2022.2.5,60.51136951495762,
,9,8,4,8,-5,0,11,,train_dim1_1,14,30,,,,2,0,2,0,,,,,,,,,0,0,0,0,0,13,13,13,4,0,4,0,,,,,,,,,,,,,,,,,,,,,,,,,,,,,,,,,,,,,,,,,,,,,,,,,,,,,,,,,,,,,,,,30,,,,,,,,1101.5358291000593,1101.5358291000593,1101.5358291000593,1101.5358291000593,1101.5358291000593,left,0.6934997999342158,4,0,0,99,0.15999999999999998,0.24,left,0.6089466999983415,,,,,,,,,,,,,,,,,,,,,,,,,,,,,,,,,,,,,,,,,,,,,,,,,,,,,,,,,,,,3VK7QG,train_x,blue_star,top_right,2025-07-17_17h20.12.649,HideSeek_v1,2022.2.5,60.51136951495762,
,9,8,4,8,-5,0,11,,train_dim1_1,14,30,,,,2,0,2,0,,,,,,,,,0,0,0,0,0,13,13,13,5,0,5,0,,,,,,,,,,,,,,,,,,,,,,,,,,,,,,,,,,,,,,,,,,,,,,,,,,,,,,,,,,,,,,,,30,,,,,,,,1102.2370831000153,1102.2370831000153,1102.2370831000153,1102.2370831000153,1102.2370831000153,return,1.7441465000156313,5,0,0,1,0.15999999999999998,0.24,return,1.6579708999488503,-11,-26,0.15999999999999998,0.24,,,,,,,,,,,,,,,,,,,,,,,,,,,,,,,,,,,,,,,,,,,,,,,,,,,,,,,,3VK7QG,train_x,blue_star,top_right,2025-07-17_17h20.12.649,HideSeek_v1,2022.2.5,60.51136951495762,
,9,7,9,7,0,0,61,,train_dim1_1,15,30,,,,2,0,2,0,,,,,,,,,0,0,0,0,0,14,14,14,0,0,0,0,,,,,,,,,,,,,,,,,,,,,,,,,stimuli/alien_stimuli/61.png,,,,,,,,,,,,,,,,,,,,,,,,,,,,,stimuli/alien_stimuli/11.png,11,9,16,,,,,,,30,,,,,,,,1109.2039490001043,1109.2039490001043,1109.2039490001043,1109.2039490001043,1109.2039490001043,return,3.692162499995902,6,0,0,1,0.56,0.16,return,3.5754547000396997,-11,-26,0.56,0.16,1107.6221822000807,1109.2039490001043,0.16,0.24,0.0,0.4,0.24,0.16,0.36000000000000004,0.16,0.24,1105.5646704999963,1105.5646704999963,1105.5646704999963,1105.5646704999963,1105.5646704999963,1105.5646704999963,1105.5646704999963,1105.5646704999963,1105.5536709600826,2.1878766000736505,return,2.0324307000264525,,,,,,,,,,,,,,,,,,,,,,,,,,,,,,,,,3VK7QG,train_x,blue_star,top_right,2025-07-17_17h20.12.649,HideSeek_v1,2022.2.5,60.51136951495762,
,8,8,7,8,-1,0,51,,train_dim1_1,16,30,,,,2,0,2,0,,,,,,,,,0,0,0,0,0,15,15,15,0,0,0,0,,,,,,,,,,,,,,,,,,,,,,,,,stimuli/alien_stimuli/51.png,,,,,,,,,,,,,,,,,,,,,,,,,,,,,stimuli/alien_stimuli/61.png,61,9,17,,,,,,,30,,,,,,,,1119.5786086000735,1119.5786086000735,1119.5786086000735,1119.5786086000735,1119.5786086000735,left,1.607110399985686,6,0,0,99,0.39999999999999997,0.24,left,1.506822600029409,,,,,1118.0144822000293,1119.5786086000735,0.56,0.16,0.0,0.0,0.16,0.56,0.56,0.56,0.16,1114.4371898000827,1114.4371898000827,1114.4371898000827,1114.4371898000827,1114.4371898000827,1114.4371898000827,1114.4371898000827,1114.4371898000827,1114.4277978400814,3.68936770001892,return,3.561616100021638,,,,,,,,,,,,,,,,,,,,,,,,,,,,,,,,,3VK7QG,train_x,blue_star,top_right,2025-07-17_17h20.12.649,HideSeek_v1,2022.2.5,60.51136951495762,
,8,8,7,8,-1,0,51,,train_dim1_1,16,30,,,,2,0,2,0,,,,,,,,,0,0,0,0,0,15,15,15,1,0,1,0,,,,,,,,,,,,,,,,,,,,,,,,,,,,,,,,,,,,,,,,,,,,,,,,,,,,,,,,,,,,,,,,30,,,,,,,,1121.1850897000404,1121.1850897000404,1121.1850897000404,1121.1850897000404,1121.1850897000404,return,0.4093444000463933,7,0,0,1,0.39999999999999997,0.24,return,0.3305641000624746,-11,-27,0.39999999999999997,0.24,,,,,,,,,,,,,,,,,,,,,,,,,,,,,,,,,,,,,,,,,,,,,,,,,,,,,,,,3VK7QG,train_x,blue_star,top_right,2025-07-17_17h20.12.649,HideSeek_v1,2022.2.5,60.51136951495762,
,7,9,3,9,-4,0,21,,train_dim1_1,17,30,,,,2,0,2,0,,,,,,,,,0,0,0,0,0,16,16,16,0,0,0,0,,,,,,,,,,,,,,,,,,,,,,,,,stimuli/alien_stimuli/21.png,,,,,,,,,,,,,,,,,,,,,,,,,,,,,stimuli/alien_stimuli/51.png,51,8,18,,,,,,,30,,,,,,,,1127.972356500104,1127.972356500104,1127.972356500104,1127.972356500104,1127.972356500104,left,1.956099099945277,7,0,0,99,0.32,0.32,left,1.8693285000044852,,,,,1126.4043668000959,1127.972356500104,0.4,0.24,0.0,0.08,0.24,0.4,0.44,0.4,0.24,1123.1614115000702,1123.1614115000702,1123.1614115000702,1123.1614115000702,1123.1614115000702,1123.1614115000702,1123.1614115000702,1123.1614115000702,1123.1517192401107,3.35513069992885,return,3.2182856999570504,,,,,,,,,,,,,,,,,,,,,,,,,,,,,,,,,3VK7QG,train_x,blue_star,top_right,2025-07-17_17h20.12.649,HideSeek_v1,2022.2.5,60.51136951495762,
,7,9,3,9,-4,0,21,,train_dim1_1,17,30,,,,2,0,2,0,,,,,,,,,0,0,0,0,0,16,16,16,1,0,1,0,,,,,,,,,,,,,,,,,,,,,,,,,,,,,,,,,,,,,,,,,,,,,,,,,,,,,,,,,,,,,,,,30,,,,,,,,1129.9329422001028,1129.9329422001028,1129.9329422001028,1129.9329422001028,1129.9329422001028,left,0.4922657000133768,7,0,0,99,0.24,0.32,left,0.406749099958688,,,,,,,,,,,,,,,,,,,,,,,,,,,,,,,,,,,,,,,,,,,,,,,,,,,,,,,,,,,,3VK7QG,train_x,blue_star,top_right,2025-07-17_17h20.12.649,HideSeek_v1,2022.2.5,60.51136951495762,
,7,9,3,9,-4,0,21,,train_dim1_1,17,30,,,,2,0,2,0,,,,,,,,,0,0,0,0,0,16,16,16,2,0,2,0,,,,,,,,,,,,,,,,,,,,,,,,,,,,,,,,,,,,,,,,,,,,,,,,,,,,,,,,,,,,,,,,30,,,,,,,,1130.4317597000627,1130.4317597000627,1130.4317597000627,1130.4317597000627,1130.4317597000627,left,0.46010759996715933,7,0,0,99,0.15999999999999998,0.32,left,0.3716134000569582,,,,,,,,,,,,,,,,,,,,,,,,,,,,,,,,,,,,,,,,,,,,,,,,,,,,,,,,,,,,3VK7QG,train_x,blue_star,top_right,2025-07-17_17h20.12.649,HideSeek_v1,2022.2.5,60.51136951495762,
,7,9,3,9,-4,0,21,,train_dim1_1,17,30,,,,2,0,2,0,,,,,,,,,0,0,0,0,0,16,16,16,3,0,3,0,,,,,,,,,,,,,,,,,,,,,,,,,,,,,,,,,,,,,,,,,,,,,,,,,,,,,,,,,,,,,,,,30,,,,,,,,1130.892942000064,1130.892942000064,1130.892942000064,1130.892942000064,1130.892942000064,left,0.4763366000261158,7,0,0,99,0.07999999999999997,0.32,left,0.3906372000928968,,,,,,,,,,,,,,,,,,,,,,,,,,,,,,,,,,,,,,,,,,,,,,,,,,,,,,,,,,,,3VK7QG,train_x,blue_star,top_right,2025-07-17_17h20.12.649,HideSeek_v1,2022.2.5,60.51136951495762,
,7,9,3,9,-4,0,21,,train_dim1_1,17,30,,,,2,0,2,0,,,,,,,,,0,0,0,0,0,16,16,16,4,0,4,0,,,,,,,,,,,,,,,,,,,,,,,,,,,,,,,,,,,,,,,,,,,,,,,,,,,,,,,,,,,,,,,,30,,,,,,,,1131.3787676000502,1131.3787676000502,1131.3787676000502,1131.3787676000502,1131.3787676000502,return,0.8269508000230417,8,0,0,1,0.07999999999999997,0.32,return,0.7402916999999434,-11,-31,0.07999999999999997,0.32,,,,,,,,,,,,,,,,,,,,,,,,,,,,,,,,,,,,,,,,,,,,,,,,,,,,,,,,3VK7QG,train_x,blue_star,top_right,2025-07-17_17h20.12.649,HideSeek_v1,2022.2.5,60.51136951495762,
,7,6,7,6,0,0,61,,train_dim1_1,18,30,,,,2,0,2,0,,,,,,,,,0,0,0,0,0,17,17,17,0,0,0,0,,,,,,,,,,,,,,,,,,,,,,,,,stimuli/alien_stimuli/61.png,,,,,,,,,,,,,,,,,,,,,,,,,,,,,stimuli/alien_stimuli/21.png,21,7,19,,,,,,,30,,,,,,,,1138.582541000098,1138.582541000098,1138.582541000098,1138.582541000098,1138.582541000098,return,2.7077520999591798,9,0,0,1,0.4,0.08,return,2.60684639995452,-11,-31,0.4,0.08,1137.0136003000662,1138.582541000098,0.08,0.32,0.0,0.32,0.32,0.08,0.24000000000000002,0.08,0.32,1133.7902294000378,1133.7902294000378,1133.7902294000378,1133.7902294000378,1133.7902294000378,1133.7902294000378,1133.7902294000378,1133.7902294000378,1133.777113560075,3.3558451998978853,return,3.205399800091982,,,,,,,,,,,,,,,,,,,,,,,,,,,,,,,,,3VK7QG,train_x,blue_star,top_right,2025-07-17_17h20.12.649,HideSeek_v1,2022.2.5,60.51136951495762,
,5,8,2,8,-3,0,31,,train_dim1_1,19,30,,,,2,0,2,0,,,,,,,,,0,0,0,0,0,18,18,18,0,0,0,0,,,,,,,,,,,,,,,,,,,,,,,,,stimuli/alien_stimuli/31.png,,,,,,,,,,,,,,,,,,,,,,,,,,,,,stimuli/alien_stimuli/61.png,61,7,20,,,,,,,30,,,,,,,,1148.0401238000486,1148.0401238000486,1148.0401238000486,1148.0401238000486,1148.0401238000486,left,1.3725108999060467,9,0,0,99,0.15999999999999998,0.24,left,1.2801974000176415,,,,,1146.4708160000155,1148.0401238000486,0.4,0.08,0.0,0.0,0.08,0.4,0.4,0.4,0.08,1142.87303040002,1142.87303040002,1142.87303040002,1142.87303040002,1142.87303040002,1142.87303040002,1142.87303040002,1142.87303040002,1142.8512715601362,3.7384743000147864,return,3.569177200086415,,,,,,,,,,,,,,,,,,,,,,,,,,,,,,,,,3VK7QG,train_x,blue_star,top_right,2025-07-17_17h20.12.649,HideSeek_v1,2022.2.5,60.51136951495762,
,5,8,2,8,-3,0,31,,train_dim1_1,19,30,,,,2,0,2,0,,,,,,,,,0,0,0,0,0,18,18,18,1,0,1,0,,,,,,,,,,,,,,,,,,,,,,,,,,,,,,,,,,,,,,,,,,,,,,,,,,,,,,,,,,,,,,,,30,,,,,,,,1149.4078406000044,1149.4078406000044,1149.4078406000044,1149.4078406000044,1149.4078406000044,left,0.37589190003927797,9,0,0,99,0.07999999999999997,0.24,left,0.2896574001060799,,,,,,,,,,,,,,,,,,,,,,,,,,,,,,,,,,,,,,,,,,,,,,,,,,,,,,,,,,,,3VK7QG,train_x,blue_star,top_right,2025-07-17_17h20.12.649,HideSeek_v1,2022.2.5,60.51136951495762,
,5,8,2,8,-3,0,31,,train_dim1_1,19,30,,,,2,0,2,0,,,,,,,,,0,0,0,0,0,18,18,18,2,0,2,0,,,,,,,,,,,,,,,,,,,,,,,,,,,,,,,,,,,,,,,,,,,,,,,,,,,,,,,,,,,,,,,,30,,,,,,,,1149.7970016000327,1149.7970016000327,1149.7970016000327,1149.7970016000327,1149.7970016000327,left,0.3931387000484392,9,0,0,99,-2.7755575615628914e-17,0.24,left,0.31010450003668666,,,,,,,,,,,,,,,,,,,,,,,,,,,,,,,,,,,,,,,,,,,,,,,,,,,,,,,,,,,,3VK7QG,train_x,blue_star,top_right,2025-07-17_17h20.12.649,HideSeek_v1,2022.2.5,60.51136951495762,
,5,8,2,8,-3,0,31,,train_dim1_1,19,30,,,,2,0,2,0,,,,,,,,,0,0,0,0,0,18,18,18,3,0,3,0,,,,,,,,,,,,,,,,,,,,,,,,,,,,,,,,,,,,,,,,,,,,,,,,,,,,,,,,,,,,,,,,30,,,,,,,,1150.2008015000029,1150.2008015000029,1150.2008015000029,1150.2008015000029,1150.2008015000029,left,0.3595622000284493,9,0,0,99,-0.08000000000000003,0.24,left,0.2704847001004964,,,,,,,,,,,,,,,,,,,,,,,,,,,,,,,,,,,,,,,,,,,,,,,,,,,,,,,,,,,,3VK7QG,train_x,blue_star,top_right,2025-07-17_17h20.12.649,HideSeek_v1,2022.2.5,60.51136951495762,
,5,8,2,8,-3,0,31,,train_dim1_1,19,30,,,,2,0,2,0,,,,,,,,,0,0,0,0,0,18,18,18,4,0,4,0,,,,,,,,,,,,,,,,,,,,,,,,,,,,,,,,,,,,,,,,,,,,,,,,,,,,,,,,,,,,,,,,30,,,,,,,,1150.5574520000955,1150.5574520000955,1150.5574520000955,1150.5574520000955,1150.5574520000955,return,0.3767453000182286,9,1,0,0,-0.08000000000000003,0.24,return,0.2885983999585733,-11,-35,-0.08000000000000003,0.24,,,,,,,,,,,,,,,,,,,,,,,,,,,,,,,,,,,,,,,,,,,,,,,,,,,,,,,,3VK7QG,train_x,blue_star,top_right,2025-07-17_17h20.12.649,HideSeek_v1,2022.2.5,60.51136951495762,
,5,6,0,6,-5,0,11,,train_dim1_1,20,30,,,,2,0,2,0,,,,,,,,,0,0,0,0,0,19,19,19,0,0,0,0,,,,,,,,,,,,,,,,,,,,,,,,,stimuli/alien_stimuli/11.png,,,,,,,,,,,,,,,,,,,,,,,,,,,,,stimuli/alien_stimuli/31.png,31,5,21,,,,,,,30,,,,,,,,1158.943074800074,1158.943074800074,1158.943074800074,1158.943074800074,1158.943074800074,left,1.906754900002852,9,1,0,99,0.15999999999999998,0.08,left,1.8105016000336036,,,,,1157.3805347000016,1158.943074800074,0,0.24,0.0,0.24,0.24,0,0.12,0,0.24,1152.4956074000802,1152.4956074000802,1152.4956074000802,1152.4956074000802,1152.4956074000802,1152.4956074000802,1152.4956074000802,1152.4956074000802,1152.4761610201326,4.990363400080241,return,4.864556499989703,,,,,,,,,,,,,,,,,,,,,,,,,,,,,,,,,3VK7QG,train_x,blue_star,top_right,2025-07-17_17h20.12.649,HideSeek_v1,2022.2.5,60.51136951495762,
,5,6,0,6,-5,0,11,,train_dim1_1,20,30,,,,2,0,2,0,,,,,,,,,0,0,0,0,0,19,19,19,1,0,1,0,,,,,,,,,,,,,,,,,,,,,,,,,,,,,,,,,,,,,,,,,,,,,,,,,,,,,,,,,,,,,,,,30,,,,,,,,1160.851632200065,1160.851632200065,1160.851632200065,1160.851632200065,1160.851632200065,left,0.5929075999883935,9,1,0,99,0.07999999999999997,0.08,left,0.5107800000114366,,,,,,,,,,,,,,,,,,,,,,,,,,,,,,,,,,,,,,,,,,,,,,,,,,,,,,,,,,,,3VK7QG,train_x,blue_star,top_right,2025-07-17_17h20.12.649,HideSeek_v1,2022.2.5,60.51136951495762,
,5,6,0,6,-5,0,11,,train_dim1_1,20,30,,,,2,0,2,0,,,,,,,,,0,0,0,0,0,19,19,19,2,0,2,0,,,,,,,,,,,,,,,,,,,,,,,,,,,,,,,,,,,,,,,,,,,,,,,,,,,,,,,,,,,,,,,,30,,,,,,,,1161.4507848999929,1161.4507848999929,1161.4507848999929,1161.4507848999929,1161.4507848999929,left,0.6601574999513105,9,1,0,99,-2.7755575615628914e-17,0.08,left,0.5805639999452978,,,,,,,,,,,,,,,,,,,,,,,,,,,,,,,,,,,,,,,,,,,,,,,,,,,,,,,,,,,,3VK7QG,train_x,blue_star,top_right,2025-07-17_17h20.12.649,HideSeek_v1,2022.2.5,60.51136951495762,
,5,6,0,6,-5,0,11,,train_dim1_1,20,30,,,,2,0,2,0,,,,,,,,,0,0,0,0,0,19,19,19,3,0,3,0,,,,,,,,,,,,,,,,,,,,,,,,,,,,,,,,,,,,,,,,,,,,,,,,,,,,,,,,,,,,,,,,30,,,,,,,,1162.1203547000187,1162.1203547000187,1162.1203547000187,1162.1203547000187,1162.1203547000187,left,0.6267070999601856,9,1,0,99,-0.08000000000000003,0.08,left,0.5323627999750897,,,,,,,,,,,,,,,,,,,,,,,,,,,,,,,,,,,,,,,,,,,,,,,,,,,,,,,,,,,,3VK7QG,train_x,blue_star,top_right,2025-07-17_17h20.12.649,HideSeek_v1,2022.2.5,60.51136951495762,
,5,6,0,6,-5,0,11,,train_dim1_1,20,30,,,,2,0,2,0,,,,,,,,,0,0,0,0,0,19,19,19,4,0,4,0,,,,,,,,,,,,,,,,,,,,,,,,,,,,,,,,,,,,,,,,,,,,,,,,,,,,,,,,,,,,,,,,30,,,,,,,,1162.7524812000338,1162.7524812000338,1162.7524812000338,1162.7524812000338,1162.7524812000338,left,0.509889499982819,9,1,0,99,-0.16000000000000003,0.08,left,0.4178924000589177,,,,,,,,,,,,,,,,,,,,,,,,,,,,,,,,,,,,,,,,,,,,,,,,,,,,,,,,,,,,3VK7QG,train_x,blue_star,top_right,2025-07-17_17h20.12.649,HideSeek_v1,2022.2.5,60.51136951495762,
,5,6,0,6,-5,0,11,,train_dim1_1,20,30,,,,2,0,2,0,,,,,,,,,0,0,0,0,0,19,19,19,5,0,5,0,,,,,,,,,,,,,,,,,,,,,,,,,,,,,,,,,,,,,,,,,,,,,,,,,,,,,,,,,,,,,,,,30,,,,,,,,1163.2704159000423,1163.2704159000423,1163.2704159000423,1163.2704159000423,1163.2704159000423,return,1.177260100026615,10,0,0,1,-0.16000000000000003,0.08,return,1.0922088000224903,-11,-40,-0.16000000000000003,0.08,,,,,,,,,,,,,,,,,,,,,,,,,,,,,,,,,,,,,,,,,,,,,,,,,,,,,,,,3VK7QG,train_x,blue_star,top_right,2025-07-17_17h20.12.649,HideSeek_v1,2022.2.5,60.51136951495762,
,9,7,6,7,-3,0,31,,train_dim1_1,21,30,,,,2,0,2,0,,,,,,,,,0,0,0,0,0,20,20,20,0,0,0,0,,,,,,,,,,,,,,,,,,,,,,,,,stimuli/alien_stimuli/31.png,,,,,,,,,,,,,,,,,,,,,,,,,,,,,stimuli/alien_stimuli/11.png,11,5,22,,,,,,,30,,,,,,,,1173.9185871999944,1173.9185871999944,1173.9185871999944,1173.9185871999944,1173.9185871999944,return,1.323318799957633,10,0,0,0,0.56,0.16,return,1.2431980998953804,-11,-40,0.56,0.16,1172.3596191999968,1173.9185871999944,-0.16,0.08,0.0,0.4,0.08,-0.16,0.039999999999999994,-0.16,0.08,1166.031175400014,1166.031175400014,1166.031175400014,1166.031175400014,1166.031175400014,1166.031175400014,1166.031175400014,1166.031175400014,1166.0210354601265,6.457761000026949,return,6.31143730005715,,,,,,,,,,,,,,,,,,,,,,,,,,,,,,,,,3VK7QG,train_x,blue_star,top_right,2025-07-17_17h20.12.649,HideSeek_v1,2022.2.5,60.51136951495762,
,6,5,2,5,-4,0,21,,train_dim1_1,22,30,,,,2,0,2,0,,,,,,,,,0,0,0,0,0,21,21,21,0,0,0,0,,,,,,,,,,,,,,,,,,,,,,,,,stimuli/alien_stimuli/21.png,,,,,,,,,,,,,,,,,,,,,,,,,,,,,stimuli/alien_stimuli/31.png,31,9,23,,,,,,,30,,,,,,,,1180.7154800000135,1180.7154800000135,1180.7154800000135,1180.7154800000135,1180.7154800000135,left,1.5554151999531314,10,0,0,99,0.24,0,left,1.4473255999619141,,,,,1179.1319542001002,1180.7154800000135,0.32,0.16,0.0,0.24,0.16,0.32,0.44000000000000006,0.32,0.16,1176.8149149999954,1176.8149149999954,1176.8149149999954,1176.8149149999954,1176.8149149999954,1176.8149149999954,1176.8149149999954,1176.8149149999954,1176.7966251401112,2.4378449000651017,return,2.2955930000171065,,,,,,,,,,,,,,,,,,,,,,,,,,,,,,,,,3VK7QG,train_x,blue_star,top_right,2025-07-17_17h20.12.649,HideSeek_v1,2022.2.5,60.51136951495762,
,6,5,2,5,-4,0,21,,train_dim1_1,22,30,,,,2,0,2,0,,,,,,,,,0,0,0,0,0,21,21,21,1,0,1,0,,,,,,,,,,,,,,,,,,,,,,,,,,,,,,,,,,,,,,,,,,,,,,,,,,,,,,,,,,,,,,,,30,,,,,,,,1182.2532285000198,1182.2532285000198,1182.2532285000198,1182.2532285000198,1182.2532285000198,left,0.39296030008699745,10,0,0,99,0.15999999999999998,0,left,0.3105130000039935,,,,,,,,,,,,,,,,,,,,,,,,,,,,,,,,,,,,,,,,,,,,,,,,,,,,,,,,,,,,3VK7QG,train_x,blue_star,top_right,2025-07-17_17h20.12.649,HideSeek_v1,2022.2.5,60.51136951495762,
,6,5,2,5,-4,0,21,,train_dim1_1,22,30,,,,2,0,2,0,,,,,,,,,0,0,0,0,0,21,21,21,2,0,2,0,,,,,,,,,,,,,,,,,,,,,,,,,,,,,,,,,,,,,,,,,,,,,,,,,,,,,,,,,,,,,,,,30,,,,,,,,1182.6528896000236,1182.6528896000236,1182.6528896000236,1182.6528896000236,1182.6528896000236,left,0.49281860003247857,10,0,0,99,0.07999999999999997,0,left,0.41510560002643615,,,,,,,,,,,,,,,,,,,,,,,,,,,,,,,,,,,,,,,,,,,,,,,,,,,,,,,,,,,,3VK7QG,train_x,blue_star,top_right,2025-07-17_17h20.12.649,HideSeek_v1,2022.2.5,60.51136951495762,
,6,5,2,5,-4,0,21,,train_dim1_1,22,30,,,,2,0,2,0,,,,,,,,,0,0,0,0,0,21,21,21,3,0,3,0,,,,,,,,,,,,,,,,,,,,,,,,,,,,,,,,,,,,,,,,,,,,,,,,,,,,,,,,,,,,,,,,30,,,,,,,,1183.1538847000338,1183.1538847000338,1183.1538847000338,1183.1538847000338,1183.1538847000338,left,0.5269364999840036,10,0,0,99,-2.7755575615628914e-17,0,left,0.4411341999657452,,,,,,,,,,,,,,,,,,,,,,,,,,,,,,,,,,,,,,,,,,,,,,,,,,,,,,,,,,,,3VK7QG,train_x,blue_star,top_right,2025-07-17_17h20.12.649,HideSeek_v1,2022.2.5,60.51136951495762,
,6,5,2,5,-4,0,21,,train_dim1_1,22,30,,,,2,0,2,0,,,,,,,,,0,0,0,0,0,21,21,21,4,0,4,0,,,,,,,,,,,,,,,,,,,,,,,,,,,,,,,,,,,,,,,,,,,,,,,,,,,,,,,,,,,,,,,,30,,,,,,,,1183.6875381000573,1183.6875381000573,1183.6875381000573,1183.6875381000573,1183.6875381000573,return,2.911896599922329,11,0,0,1,-2.7755575615628914e-17,0,return,2.831970800063573,-11,-44,-2.7755575615628914e-17,0,,,,,,,,,,,,,,,,,,,,,,,,,,,,,,,,,,,,,,,,,,,,,,,,,,,,,,,,3VK7QG,train_x,blue_star,top_right,2025-07-17_17h20.12.649,HideSeek_v1,2022.2.5,60.51136951495762,
,7,6,7,6,0,0,61,,train_dim1_1,23,30,,,,2,0,2,0,,,,,,,,,0,0,0,0,0,22,22,22,0,0,0,0,,,,,,,,,,,,,,,,,,,,,,,,,stimuli/alien_stimuli/61.png,,,,,,,,,,,,,,,,,,,,,,,,,,,,,stimuli/alien_stimuli/21.png,21,6,24,,,,,,,30,,,,,,,,1194.2860079000238,1194.2860079000238,1194.2860079000238,1194.2860079000238,1194.2860079000238,return,2.0904849999351427,12,0,0,1,0.4,0.08,return,1.996364500024356,-11,-44,0.4,0.08,1192.7266210000962,1194.2860079000238,0,0,0.0,0.32,0.0,0,0.16,0,0,1188.1819698000327,1188.1819698000327,1188.1819698000327,1188.1819698000327,1188.1819698000327,1188.1819698000327,1188.1819698000327,1188.1819698000327,1188.1724920600652,4.67304410005454,return,4.52770670002792,,,,,,,,,,,,,,,,,,,,,,,,,,,,,,,,,3VK7QG,train_x,blue_star,top_right,2025-07-17_17h20.12.649,HideSeek_v1,2022.2.5,60.51136951495762,
,9,9,8,9,-1,0,51,,train_dim1_1,24,30,,,,2,0,2,0,,,,,,,,,0,0,0,0,0,23,23,23,0,0,0,0,,,,,,,,,,,,,,,,,,,,,,,,,stimuli/alien_stimuli/51.png,,,,,,,,,,,,,,,,,,,,,,,,,,,,,stimuli/alien_stimuli/61.png,61,7,25,,,,,,,30,,,,,,,,1203.9313368001021,1203.9313368001021,1203.9313368001021,1203.9313368001021,1203.9313368001021,left,1.2229289000388235,12,0,0,99,0.48000000000000004,0.32,left,1.136145199998282,,,,,1202.3679639000911,1203.9313368001021,0.4,0.08,0.0,0.0,0.08,0.4,0.4,0.4,0.08,1197.9348655000795,1197.9348655000795,1197.9348655000795,1197.9348655000795,1197.9348655000795,1197.9348655000795,1197.9348655000795,1197.9348655000795,1197.914106720034,4.5395254999166355,return,4.415685300016776,,,,,,,,,,,,,,,,,,,,,,,,,,,,,,,,,3VK7QG,train_x,blue_star,top_right,2025-07-17_17h20.12.649,HideSeek_v1,2022.2.5,60.51136951495762,
,9,9,8,9,-1,0,51,,train_dim1_1,24,30,,,,2,0,2,0,,,,,,,,,0,0,0,0,0,23,23,23,1,0,1,0,,,,,,,,,,,,,,,,,,,,,,,,,,,,,,,,,,,,,,,,,,,,,,,,,,,,,,,,,,,,,,,,30,,,,,,,,1205.154496000032,1205.154496000032,1205.154496000032,1205.154496000032,1205.154496000032,return,0.4091404000064358,13,0,0,1,0.48000000000000004,0.32,return,0.3224667999893427,-11,-45,0.48000000000000004,0.32,,,,,,,,,,,,,,,,,,,,,,,,,,,,,,,,,,,,,,,,,,,,,,,,,,,,,,,,3VK7QG,train_x,blue_star,top_right,2025-07-17_17h20.12.649,HideSeek_v1,2022.2.5,60.51136951495762,
,8,5,3,5,-5,0,11,,train_dim1_1,25,30,,,,2,0,2,0,,,,,,,,,0,0,0,0,0,24,24,24,0,0,0,0,,,,,,,,,,,,,,,,,,,,,,,,,stimuli/alien_stimuli/11.png,,,,,,,,,,,,,,,,,,,,,,,,,,,,,stimuli/alien_stimuli/51.png,51,9,26,,,,,,,30,,,,,,,,1209.0379372000461,1209.0379372000461,1209.0379372000461,1209.0379372000461,1209.0379372000461,left,1.3569775999058038,13,0,0,99,0.39999999999999997,0,left,1.2537110999692231,,,,,1207.4555148000363,1209.0379372000461,0.48,0.32,0.0,0.08,0.32,0.48,0.52,0.48,0.32,1207.1388492000988,1207.1388492000988,1207.1388492000988,1207.1388492000988,1207.1388492000988,1207.1388492000988,1207.1388492000988,1207.1388492000988,1207.1215860401162,0.4360772999934852,return,0.2949795000022277,,,,,,,,,,,,,,,,,,,,,,,,,,,,,,,,,3VK7QG,train_x,blue_star,top_right,2025-07-17_17h20.12.649,HideSeek_v1,2022.2.5,60.51136951495762,
,8,5,3,5,-5,0,11,,train_dim1_1,25,30,,,,2,0,2,0,,,,,,,,,0,0,0,0,0,24,24,24,1,0,1,0,,,,,,,,,,,,,,,,,,,,,,,,,,,,,,,,,,,,,,,,,,,,,,,,,,,,,,,,,,,,,,,,30,,,,,,,,1210.3781765000895,1210.3781765000895,1210.3781765000895,1210.3781765000895,1210.3781765000895,left,0.3926496000494808,13,0,0,99,0.31999999999999995,0,left,0.30667499999981374,,,,,,,,,,,,,,,,,,,,,,,,,,,,,,,,,,,,,,,,,,,,,,,,,,,,,,,,,,,,3VK7QG,train_x,blue_star,top_right,2025-07-17_17h20.12.649,HideSeek_v1,2022.2.5,60.51136951495762,
,8,5,3,5,-5,0,11,,train_dim1_1,25,30,,,,2,0,2,0,,,,,,,,,0,0,0,0,0,24,24,24,2,0,2,0,,,,,,,,,,,,,,,,,,,,,,,,,,,,,,,,,,,,,,,,,,,,,,,,,,,,,,,,,,,,,,,,30,,,,,,,,1210.7812929000938,1210.7812929000938,1210.7812929000938,1210.7812929000938,1210.7812929000938,left,0.39344439993146807,13,0,0,99,0.23999999999999994,0,left,0.3101082999492064,,,,,,,,,,,,,,,,,,,,,,,,,,,,,,,,,,,,,,,,,,,,,,,,,,,,,,,,,,,,3VK7QG,train_x,blue_star,top_right,2025-07-17_17h20.12.649,HideSeek_v1,2022.2.5,60.51136951495762,
,8,5,3,5,-5,0,11,,train_dim1_1,25,30,,,,2,0,2,0,,,,,,,,,0,0,0,0,0,24,24,24,3,0,3,0,,,,,,,,,,,,,,,,,,,,,,,,,,,,,,,,,,,,,,,,,,,,,,,,,,,,,,,,,,,,,,,,30,,,,,,,,1211.176513500046,1211.176513500046,1211.176513500046,1211.176513500046,1211.176513500046,left,0.44317410001531243,13,0,0,99,0.15999999999999992,0,left,0.36533310008235276,,,,,,,,,,,,,,,,,,,,,,,,,,,,,,,,,,,,,,,,,,,,,,,,,,,,,,,,,,,,3VK7QG,train_x,blue_star,top_right,2025-07-17_17h20.12.649,HideSeek_v1,2022.2.5,60.51136951495762,
,8,5,3,5,-5,0,11,,train_dim1_1,25,30,,,,2,0,2,0,,,,,,,,,0,0,0,0,0,24,24,24,4,0,4,0,,,,,,,,,,,,,,,,,,,,,,,,,,,,,,,,,,,,,,,,,,,,,,,,,,,,,,,,,,,,,,,,30,,,,,,,,1211.6306777000427,1211.6306777000427,1211.6306777000427,1211.6306777000427,1211.6306777000427,left,0.44322090002242476,13,0,0,99,0.07999999999999992,0,left,0.3561110000591725,,,,,,,,,,,,,,,,,,,,,,,,,,,,,,,,,,,,,,,,,,,,,,,,,,,,,,,,,,,,3VK7QG,train_x,blue_star,top_right,2025-07-17_17h20.12.649,HideSeek_v1,2022.2.5,60.51136951495762,
,8,5,3,5,-5,0,11,,train_dim1_1,25,30,,,,2,0,2,0,,,,,,,,,0,0,0,0,0,24,24,24,5,0,5,0,,,,,,,,,,,,,,,,,,,,,,,,,,,,,,,,,,,,,,,,,,,,,,,,,,,,,,,,,,,,,,,,30,,,,,,,,1212.0772484000772,1212.0772484000772,1212.0772484000772,1212.0772484000772,1212.0772484000772,return,2.211440399987623,14,0,0,1,0.07999999999999992,0,return,2.1270831000292674,-11,-50,0.07999999999999992,0,,,,,,,,,,,,,,,,,,,,,,,,,,,,,,,,,,,,,,,,,,,,,,,,,,,,,,,,3VK7QG,train_x,blue_star,top_right,2025-07-17_17h20.12.649,HideSeek_v1,2022.2.5,60.51136951495762,
,6,6,6,6,0,0,61,,train_dim1_1,26,30,,,,2,0,2,0,,,,,,,,,0,0,0,0,0,25,25,25,0,0,0,0,,,,,,,,,,,,,,,,,,,,,,,,,stimuli/alien_stimuli/61.png,,,,,,,,,,,,,,,,,,,,,,,,,,,,,stimuli/alien_stimuli/11.png,11,8,27,,,,,,,30,,,,,,,,1218.6573355,1218.6573355,1218.6573355,1218.6573355,1218.6573355,return,2.1241734999930486,15,0,0,1,0.32,0.08,return,2.0128275000024587,-11,-50,0.32,0.08,1217.080037000007,1218.6573355,0.08,0,0.0,0.4,0.0,0.08,0.27999999999999997,0.08,0,1215.8581074000103,1215.8581074000103,1215.8581074000103,1215.8581074000103,1215.8581074000103,1215.8581074000103,1215.8581074000103,1215.8581074000103,1215.8453153400797,1.3370090000098571,return,1.200754199991934,,,,,,,,,,,,,,,,,,,,,,,,,,,,,,,,,3VK7QG,train_x,blue_star,top_right,2025-07-17_17h20.12.649,HideSeek_v1,2022.2.5,60.51136951495762,
,5,6,2,6,-3,0,31,,train_dim1_1,27,30,,,,2,0,2,0,,,,,,,,,0,0,0,0,0,26,26,26,0,0,0,0,,,,,,,,,,,,,,,,,,,,,,,,,stimuli/alien_stimuli/31.png,,,,,,,,,,,,,,,,,,,,,,,,,,,,,stimuli/alien_stimuli/61.png,61,6,28,,,,,,,30,,,,,,,,1224.744594000047,1224.744594000047,1224.744594000047,1224.744594000047,1224.744594000047,left,1.3560105999931693,15,0,0,99,0.15999999999999998,0.08,left,1.26276090007741,,,,,1223.185200200067,1224.744594000047,0.32,0.08,0.0,0.0,0.08,0.32,0.32,0.32,0.08,1222.3225469000172,1222.3225469000172,1222.3225469000172,1222.3225469000172,1222.3225469000172,1222.3225469000172,1222.3225469000172,1222.3225469000172,1222.3007494200951,0.9702302999794483,return,0.8413756000809371,,,,,,,,,,,,,,,,,,,,,,,,,,,,,,,,,3VK7QG,train_x,blue_star,top_right,2025-07-17_17h20.12.649,HideSeek_v1,2022.2.5,60.51136951495762,
,5,6,2,6,-3,0,31,,train_dim1_1,27,30,,,,2,0,2,0,,,,,,,,,0,0,0,0,0,26,26,26,1,0,1,0,,,,,,,,,,,,,,,,,,,,,,,,,,,,,,,,,,,,,,,,,,,,,,,,,,,,,,,,,,,,,,,,30,,,,,,,,1226.102583100088,1226.102583100088,1226.102583100088,1226.102583100088,1226.102583100088,left,0.39253519999329,15,0,0,99,0.07999999999999997,0.08,left,0.30922840000130236,,,,,,,,,,,,,,,,,,,,,,,,,,,,,,,,,,,,,,,,,,,,,,,,,,,,,,,,,,,,3VK7QG,train_x,blue_star,top_right,2025-07-17_17h20.12.649,HideSeek_v1,2022.2.5,60.51136951495762,
,5,6,2,6,-3,0,31,,train_dim1_1,27,30,,,,2,0,2,0,,,,,,,,,0,0,0,0,0,26,26,26,2,0,2,0,,,,,,,,,,,,,,,,,,,,,,,,,,,,,,,,,,,,,,,,,,,,,,,,,,,,,,,,,,,,,,,,30,,,,,,,,1226.5026197000407,1226.5026197000407,1226.5026197000407,1226.5026197000407,1226.5026197000407,left,0.40995909995399415,15,0,0,99,-2.7755575615628914e-17,0.08,left,0.3276509999996051,,,,,,,,,,,,,,,,,,,,,,,,,,,,,,,,,,,,,,,,,,,,,,,,,,,,,,,,,,,,3VK7QG,train_x,blue_star,top_right,2025-07-17_17h20.12.649,HideSeek_v1,2022.2.5,60.51136951495762,
,5,6,2,6,-3,0,31,,train_dim1_1,27,30,,,,2,0,2,0,,,,,,,,,0,0,0,0,0,26,26,26,3,0,3,0,,,,,,,,,,,,,,,,,,,,,,,,,,,,,,,,,,,,,,,,,,,,,,,,,,,,,,,,,,,,,,,,30,,,,,,,,1226.9208112000488,1226.9208112000488,1226.9208112000488,1226.9208112000488,1226.9208112000488,left,0.3431185999652371,15,0,0,99,-0.08000000000000003,0.08,left,0.2637368000578135,,,,,,,,,,,,,,,,,,,,,,,,,,,,,,,,,,,,,,,,,,,,,,,,,,,,,,,,,,,,3VK7QG,train_x,blue_star,top_right,2025-07-17_17h20.12.649,HideSeek_v1,2022.2.5,60.51136951495762,
,5,6,2,6,-3,0,31,,train_dim1_1,27,30,,,,2,0,2,0,,,,,,,,,0,0,0,0,0,26,26,26,4,0,4,0,,,,,,,,,,,,,,,,,,,,,,,,,,,,,,,,,,,,,,,,,,,,,,,,,,,,,,,,,,,,,,,,30,,,,,,,,1227.270186000038,1227.270186000038,1227.270186000038,1227.270186000038,1227.270186000038,return,0.8101964000379667,15,1,0,0,-0.08000000000000003,0.08,return,0.7261448000790551,-11,-54,-0.08000000000000003,0.08,,,,,,,,,,,,,,,,,,,,,,,,,,,,,,,,,,,,,,,,,,,,,,,,,,,,,,,,3VK7QG,train_x,blue_star,top_right,2025-07-17_17h20.12.649,HideSeek_v1,2022.2.5,60.51136951495762,
,8,6,4,6,-4,0,21,,train_dim1_1,28,30,,,,2,0,2,0,,,,,,,,,0,0,0,0,0,27,27,27,0,0,0,0,,,,,,,,,,,,,,,,,,,,,,,,,stimuli/alien_stimuli/21.png,,,,,,,,,,,,,,,,,,,,,,,,,,,,,stimuli/alien_stimuli/31.png,31,5,29,,,,,,,30,,,,,,,,1240.0900906000752,1240.0900906000752,1240.0900906000752,1240.0900906000752,1240.0900906000752,left,10.464354899944738,15,1,0,99,0.39999999999999997,0.08,left,10.358835000079125,,,,,1238.5147466000635,1240.0900906000752,0,0.08,0.0,0.24,0.08,0,0.12,0,0.08,1229.6463721001055,1229.6463721001055,1229.6463721001055,1229.6463721001055,1229.6463721001055,1229.6463721001055,1229.6463721001055,1229.6463721001055,1229.6236545200459,8.977181099937297,return,8.848940199939534,,,,,,,,,,,,,,,,,,,,,,,,,,,,,,,,,3VK7QG,train_x,blue_star,top_right,2025-07-17_17h20.12.649,HideSeek_v1,2022.2.5,60.51136951495762,
,8,6,4,6,-4,0,21,,train_dim1_1,28,30,,,,2,0,2,0,,,,,,,,,0,0,0,0,0,27,27,27,1,0,1,0,,,,,,,,,,,,,,,,,,,,,,,,,,,,,,,,,,,,,,,,,,,,,,,,,,,,,,,,,,,,,,,,30,,,,,,,,1250.561173700029,1250.561173700029,1250.561173700029,1250.561173700029,1250.561173700029,left,0.4427679000655189,15,1,0,99,0.31999999999999995,0.08,left,0.34569909994024783,,,,,,,,,,,,,,,,,,,,,,,,,,,,,,,,,,,,,,,,,,,,,,,,,,,,,,,,,,,,3VK7QG,train_x,blue_star,top_right,2025-07-17_17h20.12.649,HideSeek_v1,2022.2.5,60.51136951495762,
,8,6,4,6,-4,0,21,,train_dim1_1,28,30,,,,2,0,2,0,,,,,,,,,0,0,0,0,0,27,27,27,2,0,2,0,,,,,,,,,,,,,,,,,,,,,,,,,,,,,,,,,,,,,,,,,,,,,,,,,,,,,,,,,,,,,,,,30,,,,,,,,1251.0272560000885,1251.0272560000885,1251.0272560000885,1251.0272560000885,1251.0272560000885,left,0.4270050999475643,15,1,0,99,0.23999999999999994,0.08,left,0.30524599994532764,,,,,,,,,,,,,,,,,,,,,,,,,,,,,,,,,,,,,,,,,,,,,,,,,,,,,,,,,,,,3VK7QG,train_x,blue_star,top_right,2025-07-17_17h20.12.649,HideSeek_v1,2022.2.5,60.51136951495762,
,8,6,4,6,-4,0,21,,train_dim1_1,28,30,,,,2,0,2,0,,,,,,,,,0,0,0,0,0,27,27,27,3,0,3,0,,,,,,,,,,,,,,,,,,,,,,,,,,,,,,,,,,,,,,,,,,,,,,,,,,,,,,,,,,,,,,,,30,,,,,,,,1251.4337608000496,1251.4337608000496,1251.4337608000496,1251.4337608000496,1251.4337608000496,left,0.4049411000451073,15,1,0,99,0.15999999999999992,0.08,left,0.3189873000374064,,,,,,,,,,,,,,,,,,,,,,,,,,,,,,,,,,,,,,,,,,,,,,,,,,,,,,,,,,,,3VK7QG,train_x,blue_star,top_right,2025-07-17_17h20.12.649,HideSeek_v1,2022.2.5,60.51136951495762,
,8,6,4,6,-4,0,21,,train_dim1_1,28,30,,,,2,0,2,0,,,,,,,,,0,0,0,0,0,27,27,27,4,0,4,0,,,,,,,,,,,,,,,,,,,,,,,,,,,,,,,,,,,,,,,,,,,,,,,,,,,,,,,,,,,,,,,,30,,,,,,,,1251.8429589000298,1251.8429589000298,1251.8429589000298,1251.8429589000298,1251.8429589000298,return,0.8103930000215769,16,0,0,1,0.15999999999999992,0.08,return,0.7287219000281766,-11,-58,0.15999999999999992,0.08,,,,,,,,,,,,,,,,,,,,,,,,,,,,,,,,,,,,,,,,,,,,,,,,,,,,,,,,3VK7QG,train_x,blue_star,top_right,2025-07-17_17h20.12.649,HideSeek_v1,2022.2.5,60.51136951495762,
,9,5,8,5,-1,0,51,,train_dim1_1,29,30,,,,2,0,2,0,,,,,,,,,0,0,0,0,0,28,28,28,0,0,0,0,,,,,,,,,,,,,,,,,,,,,,,,,stimuli/alien_stimuli/51.png,,,,,,,,,,,,,,,,,,,,,,,,,,,,,stimuli/alien_stimuli/21.png,21,8,30,,,,,,,30,,,,,,,,1256.7279566000216,1256.7279566000216,1256.7279566000216,1256.7279566000216,1256.7279566000216,left,1.9537241000216454,16,0,0,99,0.48000000000000004,0,left,1.8476584000745788,,,,,1255.1448593999958,1256.7279566000216,0.16,0.08,0.0,0.32,0.08,0.16,0.32,0.16,0.08,1254.2294153000694,1254.2294153000694,1254.2294153000694,1254.2294153000694,1254.2294153000694,1254.2294153000694,1254.2294153000694,1254.2294153000694,1254.210985640052,1.036274699959904,return,0.8919553000014275,,,,,,,,,,,,,,,,,,,,,,,,,,,,,,,,,3VK7QG,train_x,blue_star,top_right,2025-07-17_17h20.12.649,HideSeek_v1,2022.2.5,60.51136951495762,
,9,5,8,5,-1,0,51,,train_dim1_1,29,30,,,,2,0,2,0,,,,,,,,,0,0,0,0,0,28,28,28,1,0,1,0,,,,,,,,,,,,,,,,,,,,,,,,,,,,,,,,,,,,,,,,,,,,,,,,,,,,,,,,,,,,,,,,30,,,,,,,,1258.664572800044,1258.664572800044,1258.664572800044,1258.664572800044,1258.664572800044,return,0.4761112000560388,17,0,0,1,0.48000000000000004,0,return,0.3987924000248313,-11,-59,0.48000000000000004,0,,,,,,,,,,,,,,,,,,,,,,,,,,,,,,,,,,,,,,,,,,,,,,,,,,,,,,,,3VK7QG,train_x,blue_star,top_right,2025-07-17_17h20.12.649,HideSeek_v1,2022.2.5,60.51136951495762,
,7,7,2,7,-5,0,11,,train_dim1_1,30,30,,,,2,0,2,0,,,,,,,,,0,0,0,0,0,29,29,29,0,0,0,0,,,,,,,,,,,,,,,,,,,,,,,,,stimuli/alien_stimuli/11.png,,,,,,,,,,,,,,,,,,,,,,,,,,,,,stimuli/alien_stimuli/51.png,51,9,31,,,,,,,30,,,,,,,,1263.1816823000554,1263.1816823000554,1263.1816823000554,1263.1816823000554,1263.1816823000554,left,1.4234610999701545,17,0,0,99,0.32,0.16,left,1.3388171000406146,,,,,1261.6172624001047,1263.1816823000554,0.48,0,0.0,0.08,0.0,0.48,0.52,0.48,0,1260.7083823001012,1260.7083823001012,1260.7083823001012,1260.7083823001012,1260.7083823001012,1260.7083823001012,1260.7083823001012,1260.7083823001012,1260.6994276400537,1.020310000050813,return,0.892358599929139,,,,,,,,,,,,,,,,,,,,,,,,,,,,,,,,,3VK7QG,train_x,blue_star,top_right,2025-07-17_17h20.12.649,HideSeek_v1,2022.2.5,60.51136951495762,
,7,7,2,7,-5,0,11,,train_dim1_1,30,30,,,,2,0,2,0,,,,,,,,,0,0,0,0,0,29,29,29,1,0,1,0,,,,,,,,,,,,,,,,,,,,,,,,,,,,,,,,,,,,,,,,,,,,,,,,,,,,,,,,,,,,,,,,30,,,,,,,,1264.608246400021,1264.608246400021,1264.608246400021,1264.608246400021,1264.608246400021,left,0.40912239998579025,17,0,0,99,0.24,0.16,left,0.31483270006719977,,,,,,,,,,,,,,,,,,,,,,,,,,,,,,,,,,,,,,,,,,,,,,,,,,,,,,,,,,,,3VK7QG,train_x,blue_star,top_right,2025-07-17_17h20.12.649,HideSeek_v1,2022.2.5,60.51136951495762,
,7,7,2,7,-5,0,11,,train_dim1_1,30,30,,,,2,0,2,0,,,,,,,,,0,0,0,0,0,29,29,29,2,0,2,0,,,,,,,,,,,,,,,,,,,,,,,,,,,,,,,,,,,,,,,,,,,,,,,,,,,,,,,,,,,,,,,,30,,,,,,,,1265.0225701000309,1265.0225701000309,1265.0225701000309,1265.0225701000309,1265.0225701000309,left,0.37654069997370243,17,0,0,99,0.15999999999999998,0.16,left,0.28526400006376207,,,,,,,,,,,,,,,,,,,,,,,,,,,,,,,,,,,,,,,,,,,,,,,,,,,,,,,,,,,,3VK7QG,train_x,blue_star,top_right,2025-07-17_17h20.12.649,HideSeek_v1,2022.2.5,60.51136951495762,
,7,7,2,7,-5,0,11,,train_dim1_1,30,30,,,,2,0,2,0,,,,,,,,,0,0,0,0,0,29,29,29,3,0,3,0,,,,,,,,,,,,,,,,,,,,,,,,,,,,,,,,,,,,,,,,,,,,,,,,,,,,,,,,,,,,,,,,30,,,,,,,,1265.4070357000455,1265.4070357000455,1265.4070357000455,1265.4070357000455,1265.4070357000455,left,0.37639840005431324,17,0,0,99,0.07999999999999997,0.16,left,0.29186639992985874,,,,,,,,,,,,,,,,,,,,,,,,,,,,,,,,,,,,,,,,,,,,,,,,,,,,,,,,,,,,3VK7QG,train_x,blue_star,top_right,2025-07-17_17h20.12.649,HideSeek_v1,2022.2.5,60.51136951495762,
,7,7,2,7,-5,0,11,,train_dim1_1,30,30,,,,2,0,2,0,,,,,,,,,0,0,0,0,0,29,29,29,4,0,4,0,,,,,,,,,,,,,,,,,,,,,,,,,,,,,,,,,,,,,,,,,,,,,,,,,,,,,,,,,,,,,,,,30,,,,,,,,1265.7920318000251,1265.7920318000251,1265.7920318000251,1265.7920318000251,1265.7920318000251,left,0.3598748000804335,17,0,0,99,-2.7755575615628914e-17,0.16,left,0.2784718000330031,,,,,,,,,,,,,,,,,,,,,,,,,,,,,,,,,,,,,,,,,,,,,,,,,,,,,,,,,,,,3VK7QG,train_x,blue_star,top_right,2025-07-17_17h20.12.649,HideSeek_v1,2022.2.5,60.51136951495762,
,7,7,2,7,-5,0,11,,train_dim1_1,30,30,,,,2,0,2,0,,,,,,,,,0,0,0,0,0,29,29,29,5,0,5,0,,,,,,,,,,,,,,,,,,,,,,,,,,,,,,,,,,,,,,,,,,,,,,,,,,,,,,,,,,,,,,,,30,,,,,,,,1266.1552952000638,1266.1552952000638,1266.1552952000638,1266.1552952000638,1266.1552952000638,return,0.79371620004531,18,0,0,1,-2.7755575615628914e-17,0.16,return,0.7149899000069126,-11,-64,-2.7755575615628914e-17,0.16,,,,,,,,,,,,,,,,,,,,,,,,,,,,,,,,,,,,,,,,,,,,,,,,,,,,,,,,3VK7QG,train_x,blue_star,top_right,2025-07-17_17h20.12.649,HideSeek_v1,2022.2.5,60.51136951495762,
,,,,,,,,,,,30,,,,2,0,2,0,,,,,,,,,,,,,,,,,,,,,,,,,,,,,,,,,,,,,,,,,,,,,,,,,,,,,,,,,,,,,,,,,,,,,,,,,,stimuli/alien_stimuli/11.png,11,7,32,21,0.7,0.75,1,1,1,30,0,conditions/schedules/train_x_first/blue_star_00/top_right/inputTrain_2.1.xlsx,99,1,2,1,0,,,,,,,,,,,1,,,,,,,,,1269.5072779000038,1271.0669960000087,0,0.16,0.0,0.4,0.16,0,0.2,0,0.16,1268.516070600017,1268.516070600017,1268.516070600017,1268.516070600017,1268.516070600017,1268.516070600017,1268.516070600017,1268.516070600017,1268.5060769400907,1.1032359999371693,return,0.9641693000448868,0,0.9,0,1,18,,,,,,,,,,,,,,,,,,,,,,,,,,,,3VK7QG,train_x,blue_star,top_right,2025-07-17_17h20.12.649,HideSeek_v1,2022.2.5,60.51136951495762,
,,,,,,,,,,,,,,,3,0,3,0,0,0,0,0,,,,,,,,,,,,,,,,,,,,,,,,,,,,,,,conditions/schedules/train_x_first/blue_star_00/top_right/instructions/Slide17.png,conditions/schedules/train_x_first/blue_star_00/top_right/instructions/Audio17.wav,1271.0669960000087,1271.0584195800823,17,"[6.661383599974215, 18.39358919998631, 16.943187199998647, 19.533993300050497, 5.821236500050873, 7.788622400024906, 5.720387300010771, 12.321906599914655, 6.834907899959944, 7.46928239997942, 10.169955999939702, 13.037613600026816, 17.19549279997591, 13.359384900075383, 30.54985939990729, 22.355570000014268, 35.819020799943246]","[0.031181300058960915, 0.06333130004350096, 0.050903000053949654, 0.09955369995441288, 0.06571200001053512, 0.04972120001912117, 0.06280099996365607, 0.06340909993741661, 0.06305280001834035, 0.09511919994838536, 0.08305690006818622, 13.037620500079356, 0.06546900002285838, 13.359391800011508, 0.08674860000610352, 22.355577199952677, 35.81902949989308]",0,,,,,,,,,,,,,,,,,,,,,,,,,,,,,,,,,,,,,,,,,,,,,,,,,,,,,,,,,,,,,,,,,,,,,,,,,,,,,,,,,,,,,,,,,,,,,,,,,,,,,,,,,,,,,,,,,,,,,,,,,,,,3VK7QG,train_x,blue_star,top_right,2025-07-17_17h20.12.649,HideSeek_v1,2022.2.5,60.51136951495762,
,,,,,,,,,,,,,,,3,0,3,0,1,0,1,0,,,,,,,,,,,,,,,,,,,,,,,,,,,,,,,conditions/schedules/train_x_first/blue_star_00/top_right/instructions/Slide18.png,conditions/schedules/train_x_first/blue_star_00/top_right/instructions/Audio18.wav,1306.9451355000492,1306.938240580121,18,"[6.661383599974215, 18.39358919998631, 16.943187199998647, 19.533993300050497, 5.821236500050873, 7.788622400024906, 5.720387300010771, 12.321906599914655, 6.834907899959944, 7.46928239997942, 10.169955999939702, 13.037613600026816, 17.19549279997591, 13.359384900075383, 30.54985939990729, 22.355570000014268, 35.819020799943246, 7.09674329997506]","[0.031181300058960915, 0.06333130004350096, 0.050903000053949654, 0.09955369995441288, 0.06571200001053512, 0.04972120001912117, 0.06280099996365607, 0.06340909993741661, 0.06305280001834035, 0.09511919994838536, 0.08305690006818622, 13.037620500079356, 0.06546900002285838, 13.359391800011508, 0.08674860000610352, 22.355577199952677, 0.0368984000524506, 7.096750800032169]",0,,,,,,,,,,,,,,,,,,,,,,,,,,,,,,,,,,,,,,,,,,,,,,,,,,,,,,,,,,,,,,,,,,,,,,,,,,,,,,,,,,,,,,,,,,,,,,,,,,,,,,,,,,,,,,,,,,,,,,,,,,,,3VK7QG,train_x,blue_star,top_right,2025-07-17_17h20.12.649,HideSeek_v1,2022.2.5,60.51136951495762,
,,,,,,,,,,,,,,,3,0,3,0,2,0,2,0,,,,,,,,,,,,,,,,,,,,,,,,,,,,,,,conditions/schedules/train_x_first/blue_star_00/top_right/instructions/Slide19.png,conditions/schedules/train_x_first/blue_star_00/top_right/instructions/Audio19.wav,1314.0922880000435,1314.094027080084,19,"[6.661383599974215, 18.39358919998631, 16.943187199998647, 19.533993300050497, 5.821236500050873, 7.788622400024906, 5.720387300010771, 12.321906599914655, 6.834907899959944, 7.46928239997942, 10.169955999939702, 13.037613600026816, 17.19549279997591, 13.359384900075383, 30.54985939990729, 22.355570000014268, 35.819020799943246, 7.09674329997506, 10.94176429999061]","[0.031181300058960915, 0.06333130004350096, 0.050903000053949654, 0.09955369995441288, 0.06571200001053512, 0.04972120001912117, 0.06280099996365607, 0.06340909993741661, 0.06305280001834035, 0.09511919994838536, 0.08305690006818622, 13.037620500079356, 0.06546900002285838, 13.359391800011508, 0.08674860000610352, 22.355577199952677, 0.0368984000524506, 0.06590990000404418, 10.941771400044672]",0,,,,,,,,,,,,,,,,,,,,,,,,,,,,,,,,,,,,,,,,,,,,,,,,,,,,,,,,,,,,,,,,,,,,,,,,,,,,,,,,,,,,,,,,,,,,,,,,,,,,,,,,,,,,,,,,,,,,,,,,,,,,3VK7QG,train_x,blue_star,top_right,2025-07-17_17h20.12.649,HideSeek_v1,2022.2.5,60.51136951495762,
,,,,,,,,,,,,,,,3,0,3,0,3,0,3,0,,,,,,,,,,,,,,,,,,,,,,,,,,,,,,,conditions/schedules/train_x_first/blue_star_00/top_right/instructions/Slide20.png,conditions/schedules/train_x_first/blue_star_00/top_right/instructions/Audio20.wav,1325.1036676000804,1325.1032499001012,20,"[6.661383599974215, 18.39358919998631, 16.943187199998647, 19.533993300050497, 5.821236500050873, 7.788622400024906, 5.720387300010771, 12.321906599914655, 6.834907899959944, 7.46928239997942, 10.169955999939702, 13.037613600026816, 17.19549279997591, 13.359384900075383, 30.54985939990729, 22.355570000014268, 35.819020799943246, 7.09674329997506, 10.94176429999061, 15.276616900111549]","[0.031181300058960915, 0.06333130004350096, 0.050903000053949654, 0.09955369995441288, 0.06571200001053512, 0.04972120001912117, 0.06280099996365607, 0.06340909993741661, 0.06305280001834035, 0.09511919994838536, 0.08305690006818622, 13.037620500079356, 0.06546900002285838, 13.359391800011508, 0.08674860000610352, 22.355577199952677, 0.0368984000524506, 0.06590990000404418, 0.031185400090180337, 15.276624200050719]",0,,,,,,,,,,,,,,,,,,,,,,,,,,,,,,,,,,,,,,,,,,,,,,,,,,,,,,,,,,,,,,,,,,,,,,,,,,,,,,,,,,,,,,,,,,,,,,,,,,,,,,,,,,,,,,,,,,,,,,,,,,,,3VK7QG,train_x,blue_star,top_right,2025-07-17_17h20.12.649,HideSeek_v1,2022.2.5,60.51136951495762,
1,5,8,5,3,0,-5,66,2,instr_dim1_2,,,,,,3,0,3,0,,,,,0,0,0,0,,,,,,,,,,,,,,,,,,,,,,,,,,,,,,,,,,,,,stimuli/alien_stimuli/66.png,conditions/schedules/train_x_first/blue_star_00/top_right/inputInstr_2.xlsx,stimuli/alien_stimuli/66.png,1340.4746974000009,1340.4746974000009,1340.4746974000009,1340.4746974000009,1340.4660004200646,return,6.511977699934505,"[-0.16, -0.08, 0, 0.08, 0.16, 0.24, 0.32, 0.4, 0.48, 0.56]","[-0.4, -0.32, -0.24, -0.16, -0.08, 0, 0.08, 0.16, 0.24, 0.32]",3,8,5,5,0.4,0.0,1347.1239381000632,1347.1239381000632,1347.1239381000632,1347.1239381000632,1347.1239381000632,1347.1239381000632,1347.1239381000632,1347.1214090600376,7.573902599979192,return,7.428137599956244,stimuli/alien_stimuli/66.png,66,5,1,,,,,,,,,,,,,,,,,,,,,,,,,,,,,,,,,,,,,,,,,,,,,,,,,,,,,,,,,,,,,,,,,,,,,,,,,,,,,,,,,,,,,,,,,3VK7QG,train_x,blue_star,top_right,2025-07-17_17h20.12.649,HideSeek_v1,2022.2.5,60.51136951495762,
,,,,,,,,,,,30,,,,3,0,3,0,,,,,,,,,,,,,,,,,,,,,,,,,,,,,,,,,,,,,,,,,,,,,,,,,,,,,,,,,,,,,,,,,,,,,,,,,,,,,,21,0.7,0.75,1,99,2,30,0,conditions/schedules/train_x_first/blue_star_00/top_right/inputTrain_2.1.xlsx,99,1,2,1,0,,,,,,,,,,,,,,,,,,,,,,,,,,,,,,,,,,,,,,,,,,,,,,,,,,,,,,,,,,,,,,,,,,,,,,,,,,,3VK7QG,train_x,blue_star,top_right,2025-07-17_17h20.12.649,HideSeek_v1,2022.2.5,60.51136951495762,
,,,,,,,,,,,,,,,4,0,4,0,0,0,0,0,,,,,,,,,,,,,,,,,,,,,,,,,,,,,,,conditions/schedules/train_x_first/blue_star_00/top_right/instructions/Slide21.png,conditions/schedules/train_x_first/blue_star_00/top_right/instructions/Audio21.wav,1354.7270145000657,1354.7276849001646,21,"[6.661383599974215, 18.39358919998631, 16.943187199998647, 19.533993300050497, 5.821236500050873, 7.788622400024906, 5.720387300010771, 12.321906599914655, 6.834907899959944, 7.46928239997942, 10.169955999939702, 13.037613600026816, 17.19549279997591, 13.359384900075383, 30.54985939990729, 22.355570000014268, 35.819020799943246, 7.09674329997506, 10.94176429999061, 15.276616900111549, 17.280240199994296]","[0.031181300058960915, 0.06333130004350096, 0.050903000053949654, 0.09955369995441288, 0.06571200001053512, 0.04972120001912117, 0.06280099996365607, 0.06340909993741661, 0.06305280001834035, 0.09511919994838536, 0.08305690006818622, 13.037620500079356, 0.06546900002285838, 13.359391800011508, 0.08674860000610352, 22.355577199952677, 0.0368984000524506, 0.06590990000404418, 0.031185400090180337, 15.276624200050719, 17.280248600058258]",0,,,,,,,,,,,,,,,,,,,,,,,,,,,,,,,,,,,,,,,,,,,,,,,,,,,,,,,,,,,,,,,,,,,,,,,,,,,,,,,,,,,,,,,,,,,,,,,,,,,,,,,,,,,,,,,,,,,,,,,,,,,,3VK7QG,train_x,blue_star,top_right,2025-07-17_17h20.12.649,HideSeek_v1,2022.2.5,60.51136951495762,
2,7,8,7,8,0,0,61,2,instr_dim1_2,,,,,,4,0,4,0,,,,,0,0,0,0,,,,,,,,,,,,,,,,,,,,,,,,,,,,,,,,,,,,,stimuli/alien_stimuli/61.png,conditions/schedules/train_x_first/blue_star_00/top_right/inputInstr_2.xlsx,stimuli/alien_stimuli/61.png,1372.1162808000809,1372.1162808000809,1372.1162808000809,1372.1162808000809,1372.1090595400774,return,6.349260600050911,"[-0.16, -0.08, 0, 0.08, 0.16, 0.24, 0.32, 0.4, 0.48, 0.56]","[-0.4, -0.32, -0.24, -0.16, -0.08, 0, 0.08, 0.16, 0.24, 0.32]",8,8,7,7,0.0,0.0,1378.616245500045,1378.616245500045,1378.616245500045,1378.616245500045,1378.616245500045,1378.616245500045,1378.616245500045,1378.6142790601123,6.656695100013167,return,6.504898400045931,stimuli/alien_stimuli/61.png,61,7,2,,,,,,,,,,,,,,,,,,,,,,,,,,,,,,,,,,,,,,,,,,,,,,,,,,,,,,,,,,,,,,,,,,,,,,,,,,,,,,,,,,,,,,,,,3VK7QG,train_x,blue_star,top_right,2025-07-17_17h20.12.649,HideSeek_v1,2022.2.5,60.51136951495762,
,,,,,,,,,,,30,,,,4,0,4,0,,,,,,,,,,,,,,,,,,,,,,,,,,,,,,,,,,,,,,,,,,,,,,,,,,,,,,,,,,,,,,,,,,,,,,,,,,,,,,21,0.7,0.75,1,99,2,30,0,conditions/schedules/train_x_first/blue_star_00/top_right/inputTrain_2.1.xlsx,99,1,2,1,0,,,,,,,,,,,,,,,,,,,,,,,,,,,,,,,,,,,,,,,,,,,,,,,,,,,,,,,,,,,,,,,,,,,,,,,,,,,3VK7QG,train_x,blue_star,top_right,2025-07-17_17h20.12.649,HideSeek_v1,2022.2.5,60.51136951495762,
,,,,,,,,,,,,,,,5,0,5,0,0,0,0,0,,,,,,,,,,,,,,,,,,,,,,,,,,,,,,,conditions/schedules/train_x_first/blue_star_00/top_right/instructions/Slide22.png,conditions/schedules/train_x_first/blue_star_00/top_right/instructions/Audio22.wav,1385.3107735000085,1385.3032902000705,22,"[6.661383599974215, 18.39358919998631, 16.943187199998647, 19.533993300050497, 5.821236500050873, 7.788622400024906, 5.720387300010771, 12.321906599914655, 6.834907899959944, 7.46928239997942, 10.169955999939702, 13.037613600026816, 17.19549279997591, 13.359384900075383, 30.54985939990729, 22.355570000014268, 35.819020799943246, 7.09674329997506, 10.94176429999061, 15.276616900111549, 17.280240199994296, 42.79284849995747]","[0.031181300058960915, 0.06333130004350096, 0.050903000053949654, 0.09955369995441288, 0.06571200001053512, 0.04972120001912117, 0.06280099996365607, 0.06340909993741661, 0.06305280001834035, 0.09511919994838536, 0.08305690006818622, 13.037620500079356, 0.06546900002285838, 13.359391800011508, 0.08674860000610352, 22.355577199952677, 0.0368984000524506, 0.06590990000404418, 0.031185400090180337, 15.276624200050719, 17.280248600058258, 42.79285749990959]",0,,,,,,,,,,,,,,,,,,,,,,,,,,,,,,,,,,,,,,,,,,,,,,,,,,,,,,,,,,,,,,,,,,,,,,,,,,,,,,,,,,,,,,,,,,,,,,,,,,,,,,,,,,,,,,,,,,,,,,,,,,,,3VK7QG,train_x,blue_star,top_right,2025-07-17_17h20.12.649,HideSeek_v1,2022.2.5,60.51136951495762,
,5,5,5,1,0,-4,65,,train_dim1_2,1,30,,,,5,0,5,0,,,,,,,,,0,0,0,0,0,0,0,0,0,0,0,0,,,,,,,,,,,,,,,,,,,,,,,,,stimuli/alien_stimuli/65.png,,,,,,,,,,,,,,,,,,,,,,,,,,,,,,,,,,,,,,,30,,,,,,,,1428.2081696999958,1428.2081696999958,1428.2081696999958,1428.2081696999958,1428.2081696999958,down,3.3624155999859795,0,0,0,99,0.24,-0.08,down,3.2598719999659806,,,,,,,,,,,,,,,,,,,,,,,,,,,,,,,,,,,,,,,,,,,,,,,,,,,,,,,,,,,,3VK7QG,train_x,blue_star,top_right,2025-07-17_17h20.12.649,HideSeek_v1,2022.2.5,60.51136951495762,
,5,5,5,1,0,-4,65,,train_dim1_2,1,30,,,,5,0,5,0,,,,,,,,,0,0,0,0,0,0,0,0,1,0,1,0,,,,,,,,,,,,,,,,,,,,,,,,,,,,,,,,,,,,,,,,,,,,,,,,,,,,,,,,,,,,,,,,30,,,,,,,,1431.5557611000258,1431.5557611000258,1431.5557611000258,1431.5557611000258,1431.5557611000258,down,3.078650200041011,0,0,0,99,0.24,-0.16,down,2.9953478999668732,,,,,,,,,,,,,,,,,,,,,,,,,,,,,,,,,,,,,,,,,,,,,,,,,,,,,,,,,,,,3VK7QG,train_x,blue_star,top_right,2025-07-17_17h20.12.649,HideSeek_v1,2022.2.5,60.51136951495762,
,5,5,5,1,0,-4,65,,train_dim1_2,1,30,,,,5,0,5,0,,,,,,,,,0,0,0,0,0,0,0,0,2,0,2,0,,,,,,,,,,,,,,,,,,,,,,,,,,,,,,,,,,,,,,,,,,,,,,,,,,,,,,,,,,,,,,,,30,,,,,,,,1434.641422900022,1434.641422900022,1434.641422900022,1434.641422900022,1434.641422900022,down,0.5096557000651956,0,0,0,99,0.24,-0.24,down,0.43696349998936057,,,,,,,,,,,,,,,,,,,,,,,,,,,,,,,,,,,,,,,,,,,,,,,,,,,,,,,,,,,,3VK7QG,train_x,blue_star,top_right,2025-07-17_17h20.12.649,HideSeek_v1,2022.2.5,60.51136951495762,
,5,5,5,1,0,-4,65,,train_dim1_2,1,30,,,,5,0,5,0,,,,,,,,,0,0,0,0,0,0,0,0,3,0,3,0,,,,,,,,,,,,,,,,,,,,,,,,,,,,,,,,,,,,,,,,,,,,,,,,,,,,,,,,,,,,,,,,30,,,,,,,,1435.1597346999915,1435.1597346999915,1435.1597346999915,1435.1597346999915,1435.1597346999915,down,0.360037500038743,0,0,0,99,0.24,-0.32,down,0.2745781000703573,,,,,,,,,,,,,,,,,,,,,,,,,,,,,,,,,,,,,,,,,,,,,,,,,,,,,,,,,,,,3VK7QG,train_x,blue_star,top_right,2025-07-17_17h20.12.649,HideSeek_v1,2022.2.5,60.51136951495762,
,5,5,5,1,0,-4,65,,train_dim1_2,1,30,,,,5,0,5,0,,,,,,,,,0,0,0,0,0,0,0,0,4,0,4,0,,,,,,,,,,,,,,,,,,,,,,,,,,,,,,,,,,,,,,,,,,,,,,,,,,,,,,,,,,,,,,,,30,,,,,,,,1435.5261834000703,1435.5261834000703,1435.5261834000703,1435.5261834000703,1435.5261834000703,down,0.3264627999160439,0,0,0,99,0.24,-0.4,down,0.25316389999352396,,,,,,,,,,,,,,,,,,,,,,,,,,,,,,,,,,,,,,,,,,,,,,,,,,,,,,,,,,,,3VK7QG,train_x,blue_star,top_right,2025-07-17_17h20.12.649,HideSeek_v1,2022.2.5,60.51136951495762,
,5,5,5,1,0,-4,65,,train_dim1_2,1,30,,,,5,0,5,0,,,,,,,,,0,0,0,0,0,0,0,0,5,0,5,0,,,,,,,,,,,,,,,,,,,,,,,,,,,,,,,,,,,,,,,,,,,,,,,,,,,,,,,,,,,,,,,,30,,,,,,,,1435.8600439000875,1435.8600439000875,1435.8600439000875,1435.8600439000875,1435.8600439000875,return,0.54351410001982,0,1,0,0,0.24,-0.4,return,0.45898510003462434,-16,-64,0.24,-0.4,,,,,,,,,,,,,,,,,,,,,,,,,,,,,,,,,,,,,,,,,,,,,,,,,,,,,,,,3VK7QG,train_x,blue_star,top_right,2025-07-17_17h20.12.649,HideSeek_v1,2022.2.5,60.51136951495762,
,8,7,8,2,0,-5,66,,train_dim1_2,2,30,,,,5,0,5,0,,,,,,,,,0,0,0,0,0,1,1,1,0,0,0,0,,,,,,,,,,,,,,,,,,,,,,,,,stimuli/alien_stimuli/66.png,,,,,,,,,,,,,,,,,,,,,,,,,,,,,stimuli/alien_stimuli/65.png,65,5,3,,,,,,,30,,,,,,,,1444.8382594001014,1444.8382594001014,1444.8382594001014,1444.8382594001014,1444.8382594001014,down,2.3741746000014246,0,1,0,99,0.48,0.08,down,2.285118700005114,,,,,1443.2850304000312,1444.8382594001014,0.24,-0.32,0.32,0.0,-0.16,0.24,0.24,0.24,-0.32,1437.9841140999924,1437.9841140999924,1437.9841140999924,1437.9841140999924,1437.9841140999924,1437.9841140999924,1437.9841140999924,1437.9841140999924,1437.963647440064,5.423930699937046,return,5.279520999989472,,,,,,,,,,,,,,,,,,,,,,,,,,,,,,,,,3VK7QG,train_x,blue_star,top_right,2025-07-17_17h20.12.649,HideSeek_v1,2022.2.5,60.51136951495762,
,8,7,8,2,0,-5,66,,train_dim1_2,2,30,,,,5,0,5,0,,,,,,,,,0,0,0,0,0,1,1,1,1,0,1,0,,,,,,,,,,,,,,,,,,,,,,,,,,,,,,,,,,,,,,,,,,,,,,,,,,,,,,,,,,,,,,,,30,,,,,,,,1447.2195814000443,1447.2195814000443,1447.2195814000443,1447.2195814000443,1447.2195814000443,down,0.3591895999852568,0,1,0,99,0.48,0.0,down,0.2850285000167787,,,,,,,,,,,,,,,,,,,,,,,,,,,,,,,,,,,,,,,,,,,,,,,,,,,,,,,,,,,,3VK7QG,train_x,blue_star,top_right,2025-07-17_17h20.12.649,HideSeek_v1,2022.2.5,60.51136951495762,
,8,7,8,2,0,-5,66,,train_dim1_2,2,30,,,,5,0,5,0,,,,,,,,,0,0,0,0,0,1,1,1,2,0,2,0,,,,,,,,,,,,,,,,,,,,,,,,,,,,,,,,,,,,,,,,,,,,,,,,,,,,,,,,,,,,,,,,30,,,,,,,,1447.5859756000573,1447.5859756000573,1447.5859756000573,1447.5859756000573,1447.5859756000573,down,0.36005729995667934,0,1,0,99,0.48,-0.08,down,0.27452209999319166,,,,,,,,,,,,,,,,,,,,,,,,,,,,,,,,,,,,,,,,,,,,,,,,,,,,,,,,,,,,3VK7QG,train_x,blue_star,top_right,2025-07-17_17h20.12.649,HideSeek_v1,2022.2.5,60.51136951495762,
,8,7,8,2,0,-5,66,,train_dim1_2,2,30,,,,5,0,5,0,,,,,,,,,0,0,0,0,0,1,1,1,3,0,3,0,,,,,,,,,,,,,,,,,,,,,,,,,,,,,,,,,,,,,,,,,,,,,,,,,,,,,,,,,,,,,,,,30,,,,,,,,1447.9537659999914,1447.9537659999914,1447.9537659999914,1447.9537659999914,1447.9537659999914,down,0.443140699993819,0,1,0,99,0.48,-0.16,down,0.353530399966985,,,,,,,,,,,,,,,,,,,,,,,,,,,,,,,,,,,,,,,,,,,,,,,,,,,,,,,,,,,,3VK7QG,train_x,blue_star,top_right,2025-07-17_17h20.12.649,HideSeek_v1,2022.2.5,60.51136951495762,
,8,7,8,2,0,-5,66,,train_dim1_2,2,30,,,,5,0,5,0,,,,,,,,,0,0,0,0,0,1,1,1,4,0,4,0,,,,,,,,,,,,,,,,,,,,,,,,,,,,,,,,,,,,,,,,,,,,,,,,,,,,,,,,,,,,,,,,30,,,,,,,,1448.404254800058,1448.404254800058,1448.404254800058,1448.404254800058,1448.404254800058,return,1.477201799978502,0,1,0,0,0.48,-0.16,return,1.4038361000129953,-20,-64,0.48,-0.16,,,,,,,,,,,,,,,,,,,,,,,,,,,,,,,,,,,,,,,,,,,,,,,,,,,,,,,,3VK7QG,train_x,blue_star,top_right,2025-07-17_17h20.12.649,HideSeek_v1,2022.2.5,60.51136951495762,
,7,8,7,5,0,-3,64,,train_dim1_2,3,30,,,,5,0,5,0,,,,,,,,,0,0,0,0,0,2,2,2,0,0,0,0,,,,,,,,,,,,,,,,,,,,,,,,,stimuli/alien_stimuli/64.png,,,,,,,,,,,,,,,,,,,,,,,,,,,,,stimuli/alien_stimuli/66.png,66,8,4,,,,,,,30,,,,,,,,1455.7793923000572,1455.7793923000572,1455.7793923000572,1455.7793923000572,1455.7793923000572,down,2.40757909999229,0,1,0,99,0.4,0.15999999999999998,down,2.329901900026016,,,,,1454.227305800072,1455.7793923000572,0.48,-0.24,0.4,0.0,-0.039999999999999994,0.48,0.48,0.48,-0.24,1451.4478343999945,1451.4478343999945,1451.4478343999945,1451.4478343999945,1451.4478343999945,1451.4478343999945,1451.4478343999945,1451.4478343999945,1451.4415199401437,2.887891100021079,return,2.7580454000271857,,,,,,,,,,,,,,,,,,,,,,,,,,,,,,,,,3VK7QG,train_x,blue_star,top_right,2025-07-17_17h20.12.649,HideSeek_v1,2022.2.5,60.51136951495762,
,7,8,7,5,0,-3,64,,train_dim1_2,3,30,,,,5,0,5,0,,,,,,,,,0,0,0,0,0,2,2,2,1,0,1,0,,,,,,,,,,,,,,,,,,,,,,,,,,,,,,,,,,,,,,,,,,,,,,,,,,,,,,,,,,,,,,,,30,,,,,,,,1458.1941979000112,1458.1941979000112,1458.1941979000112,1458.1941979000112,1458.1941979000112,down,0.25969330000225455,0,1,0,99,0.4,0.07999999999999997,down,0.1857878000009805,,,,,,,,,,,,,,,,,,,,,,,,,,,,,,,,,,,,,,,,,,,,,,,,,,,,,,,,,,,,3VK7QG,train_x,blue_star,top_right,2025-07-17_17h20.12.649,HideSeek_v1,2022.2.5,60.51136951495762,
