trialInstr,x_fixStart,y_fixStart,x_corrSteps,y_corrSteps,x_nrSteps,y_nrSteps,alienID,trialLength,version,trialTrain,praclen,testlen,trial_label,break_on_off,beforeExpLoop.thisRepN,beforeExpLoop.thisTrialN,beforeExpLoop.thisN,beforeExpLoop.thisIndex,mini_instr_trials.thisRepN,mini_instr_trials.thisTrialN,mini_instr_trials.thisN,mini_instr_trials.thisIndex,instrLoop.thisRepN,instrLoop.thisTrialN,instrLoop.thisN,instrLoop.thisIndex,repeat_prac.thisRepN,repeat_prac.thisTrialN,repeat_prac.thisN,repeat_prac.thisIndex,trainLoop.thisRepN,trainLoop.thisTrialN,trainLoop.thisN,trainLoop.thisIndex,moveLoop_train.thisRepN,moveLoop_train.thisTrialN,moveLoop_train.thisN,moveLoop_train.thisIndex,experiment.thisRepN,experiment.thisTrialN,experiment.thisN,experiment.thisIndex,moveLoop_test.thisRepN,moveLoop_test.thisTrialN,moveLoop_test.thisN,moveLoop_test.thisIndex,mini_instr2_trials.thisRepN,mini_instr2_trials.thisTrialN,mini_instr2_trials.thisN,mini_instr2_trials.thisIndex,start_all_time,url,slideStim,audioStim,slides.started,sounds.started,nextButton.numClicks,nextButton.timesOn,nextButton.timesOff,prev_but.numClicks,prev_but.timesOn,prev_but.timesOff,alienStim,instrFile,alienStim_instr,gridImage_instr.started,startPos_3.started,key_instr.started,alienImage_3.started,sounds_1.started,key_instr.keys,key_instr.rt,all_x,all_y,FBy_corrSteps,FBy_fixStart,FBx_corrSteps,FBx_fixStart,FBy_pathSize_check,FBx_pathSize_check,gridImage_9.started,alienImageFB_3.started,startPosFB_3.started,keyFB_3.started,pathLine_ydir_2.started,pathLine_xdir_2.started,alienFace_3.started,sounds_2.started,RTFB_instr,keyFB_3.keys,keyFB_3.rt,draw_alienStim,draw_alienID,test_x,nrepcount,perfthres,percthres,earlierperf,earlystop,nextPrac,fileidx,praclen,saveACC_train,pracFile,nextPrac_train,addNrep,fileidx_endr,repExp,showearly,gridImage_4.started,startPos.started,movePos.started,key_resp.started,alienImage.started,buttonPress_train,RTchoice_train,cumAcctrain,aCorr,saveACC_choice,corrAns,x_movePos_end,y_movePos_end,key_resp.keys,key_resp.rt,wLy_dir,wLx_dir,x_movePos,y_movePos,text_2.started,text_2.stopped,aft_x_corrPos,aft_y_corrPos,y_pathSize_check,x_pathSize_check,y_pathdirY,x_pathdirY,x_pathdirX,x_corrPos,y_corrPos,gridImage_6.started,alienImageFB_2.started,startPosFB_2.started,movePosFB_2.started,keyFB_2.started,pathLine_xdir.started,pathLine_ydir.started,alienFace.started,sounds_4.started,RT_FBtrain,keyFB_2.keys,keyFB_2.rt,saveACC_pre,ACC,within_saveACC_train,earlystop_wloop,cumAcctrain_check,gridImage_3.started,alienImage_test.started,startPos_test.started,movePos_test.started,key_resp_test.started,wLy_dir_test,wLx_dir_test,buttonPress_test,RTchoice_test,cumAcctest,corrAns_test,key_resp_test.keys,key_resp_test.rt,text_3.started,text_3.stopped,total_time,end_all_time,key_resp_3.keys,slides_2.started,sounds_3.started,nextButton_2.numClicks,nextButton_2.timesOn,nextButton_2.timesOff,prev_but_2.numClicks,prev_but_2.timesOn,prev_but_2.timesOff,bye.started,participant,train_first,00_coordinate,starting corner,date,expName,psychopyVersion,frameRate,
,,,,,,,,,,,,,,,0,0,0,0,0,0,0,0,,,,,,,,,,,,,,,,,,,,,,,,,,,,,start_all_time,testround,conditions/schedules/train_x_first/red_square_00/bottom_left/instructions/Slide1.png,conditions/schedules/train_x_first/red_square_00/bottom_left/instructions/Audio1.wav,2174.9176448999788,2174.8666051996115,1,[19.63905330002308],[19.63906020001741],0,,,,,,,,,,,,,,,,,,,,,,,,,,,,,,,,,,,,,,,,,,,,,,,,,,,,,,,,,,,,,,,,,,,,,,,,,,,,,,,,,,,,,,,,,,,,,,,,,,,,,,,,,,,,,,,,,,,,,,,,,,,,41PZUR,train_x,red_square,bottom_left,2025-09-02_17h07.30.495,HideSeek_v1,2022.2.5,59.91231232760306,
,,,,,,,,,,,,,,,0,0,0,0,1,0,1,0,,,,,,,,,,,,,,,,,,,,,,,,,,,,,,,conditions/schedules/train_x_first/red_square_00/bottom_left/instructions/Slide2.png,conditions/schedules/train_x_first/red_square_00/bottom_left/instructions/Audio2.wav,2194.5919982999912,2194.5813099999505,2,"[19.63905330002308, 18.55240650003543]","[0.014089600008446723, 18.55241320002824]",0,,,,,,,,,,,,,,,,,,,,,,,,,,,,,,,,,,,,,,,,,,,,,,,,,,,,,,,,,,,,,,,,,,,,,,,,,,,,,,,,,,,,,,,,,,,,,,,,,,,,,,,,,,,,,,,,,,,,,,,,,,,,41PZUR,train_x,red_square,bottom_left,2025-09-02_17h07.30.495,HideSeek_v1,2022.2.5,59.91231232760306,
,,,,,,,,,,,,,,,0,0,0,0,2,0,2,0,,,,,,,,,,,,,,,,,,,,,,,,,,,,,,,conditions/schedules/train_x_first/red_square_00/bottom_left/instructions/Slide3.png,conditions/schedules/train_x_first/red_square_00/bottom_left/instructions/Audio3.wav,2213.2281294999993,2213.230294739967,3,"[19.63905330002308, 18.55240650003543, 16.796923399961088]","[0.014089600008446723, 0.0002057999954558909, 16.796930499956943]",0,,,,,,,,,,,,,,,,,,,,,,,,,,,,,,,,,,,,,,,,,,,,,,,,,,,,,,,,,,,,,,,,,,,,,,,,,,,,,,,,,,,,,,,,,,,,,,,,,,,,,,,,,,,,,,,,,,,,,,,,,,,,41PZUR,train_x,red_square,bottom_left,2025-09-02_17h07.30.495,HideSeek_v1,2022.2.5,59.91231232760306,
,,,,,,,,,,,,,,,0,0,0,0,3,0,3,0,,,,,,,,,,,,,,,,,,,,,,,,,,,,,,,conditions/schedules/train_x_first/red_square_00/bottom_left/instructions/Slide4.png,conditions/schedules/train_x_first/red_square_00/bottom_left/instructions/Audio4.wav,2230.1009900000063,2230.0939150999475,4,"[19.63905330002308, 18.55240650003543, 16.796923399961088, 19.72395819996018]","[0.014089600008446723, 0.0002057999954558909, 0.014640200010035187, 19.723967899975833]",0,,,,,,,,,,,,,,,,,,,,,,,,,,,,,,,,,,,,,,,,,,,,,,,,,,,,,,,,,,,,,,,,,,,,,,,,,,,,,,,,,,,,,,,,,,,,,,,,,,,,,,,,,,,,,,,,,,,,,,,,,,,,41PZUR,train_x,red_square,bottom_left,2025-09-02_17h07.30.495,HideSeek_v1,2022.2.5,59.91231232760306,
,,,,,,,,,,,,,,,0,0,0,0,4,0,4,0,,,,,,,,,,,,,,,,,,,,,,,,,,,,,,,conditions/schedules/train_x_first/red_square_00/bottom_left/instructions/Slide5.png,conditions/schedules/train_x_first/red_square_00/bottom_left/instructions/Audio5.wav,2249.8919734999654,2249.8939102999575,5,"[19.63905330002308, 18.55240650003543, 16.796923399961088, 19.72395819996018, 5.119991799991112]","[0.014089600008446723, 0.0002057999954558909, 0.014640200010035187, 0.04928669997025281, 5.119999299990013]",0,,,,,,,,,,,,,,,,,,,,,,,,,,,,,,,,,,,,,,,,,,,,,,,,,,,,,,,,,,,,,,,,,,,,,,,,,,,,,,,,,,,,,,,,,,,,,,,,,,,,,,,,,,,,,,,,,,,,,,,,,,,,41PZUR,train_x,red_square,bottom_left,2025-09-02_17h07.30.495,HideSeek_v1,2022.2.5,59.91231232760306,
,,,,,,,,,,,,,,,0,0,0,0,5,0,5,0,,,,,,,,,,,,,,,,,,,,,,,,,,,,,,,conditions/schedules/train_x_first/red_square_00/bottom_left/instructions/Slide6.png,conditions/schedules/train_x_first/red_square_00/bottom_left/instructions/Audio6.wav,2255.0642777999747,2255.064740359993,6,"[19.63905330002308, 18.55240650003543, 16.796923399961088, 19.72395819996018, 5.119991799991112, 4.95331279997481]","[0.014089600008446723, 0.0002057999954558909, 0.014640200010035187, 0.04928669997025281, 0.06497329997364432, 4.953320499975234]",0,,,,,,,,,,,,,,,,,,,,,,,,,,,,,,,,,,,,,,,,,,,,,,,,,,,,,,,,,,,,,,,,,,,,,,,,,,,,,,,,,,,,,,,,,,,,,,,,,,,,,,,,,,,,,,,,,,,,,,,,,,,,41PZUR,train_x,red_square,bottom_left,2025-09-02_17h07.30.495,HideSeek_v1,2022.2.5,59.91231232760306,
,,,,,,,,,,,,,,,0,0,0,0,6,0,6,0,,,,,,,,,,,,,,,,,,,,,,,,,,,,,,,conditions/schedules/train_x_first/red_square_00/bottom_left/instructions/Slide7.png,conditions/schedules/train_x_first/red_square_00/bottom_left/instructions/Audio7.wav,2260.068739899958,2260.0688720599633,7,"[19.63905330002308, 18.55240650003543, 16.796923399961088, 19.72395819996018, 5.119991799991112, 4.95331279997481, 6.669509599974845]","[0.014089600008446723, 0.0002057999954558909, 0.014640200010035187, 0.04928669997025281, 0.06497329997364432, 0.04729399998905137, 6.669516499969177]",0,,,,,,,,,,,,,,,,,,,,,,,,,,,,,,,,,,,,,,,,,,,,,,,,,,,,,,,,,,,,,,,,,,,,,,,,,,,,,,,,,,,,,,,,,,,,,,,,,,,,,,,,,,,,,,,,,,,,,,,,,,,,41PZUR,train_x,red_square,bottom_left,2025-09-02_17h07.30.495,HideSeek_v1,2022.2.5,59.91231232760306,
,,,,,,,,,,,,,,,0,0,0,0,7,0,7,0,,,,,,,,,,,,,,,,,,,,,,,,,,,,,,,conditions/schedules/train_x_first/red_square_00/bottom_left/instructions/Slide8.png,conditions/schedules/train_x_first/red_square_00/bottom_left/instructions/Audio8.wav,2266.8110079999897,2266.8077873,8,"[19.63905330002308, 18.55240650003543, 16.796923399961088, 19.72395819996018, 5.119991799991112, 4.95331279997481, 6.669509599974845, 12.170675500005018]","[0.014089600008446723, 0.0002057999954558909, 0.014640200010035187, 0.04928669997025281, 0.06497329997364432, 0.04729399998905137, 0.04675480001606047, 12.170682700001635]",0,,,,,,,,,,,,,,,,,,,,,,,,,,,,,,,,,,,,,,,,,,,,,,,,,,,,,,,,,,,,,,,,,,,,,,,,,,,,,,,,,,,,,,,,,,,,,,,,,,,,,,,,,,,,,,,,,,,,,,,,,,,,41PZUR,train_x,red_square,bottom_left,2025-09-02_17h07.30.495,HideSeek_v1,2022.2.5,59.91231232760306,
,,,,,,,,,,,,,,,0,0,0,0,8,0,8,0,,,,,,,,,,,,,,,,,,,,,,,,,,,,,,,conditions/schedules/train_x_first/red_square_00/bottom_left/instructions/Slide9.png,conditions/schedules/train_x_first/red_square_00/bottom_left/instructions/Audio9.wav,2279.0486326999962,2279.034492559999,9,"[19.63905330002308, 18.55240650003543, 16.796923399961088, 19.72395819996018, 5.119991799991112, 4.95331279997481, 6.669509599974845, 12.170675500005018, 6.656046500022057]","[0.014089600008446723, 0.0002057999954558909, 0.014640200010035187, 0.04928669997025281, 0.06497329997364432, 0.04729399998905137, 0.04675480001606047, 0.05045270000118762, 6.6560540000209585]",0,,,,,,,,,,,,,,,,,,,,,,,,,,,,,,,,,,,,,,,,,,,,,,,,,,,,,,,,,,,,,,,,,,,,,,,,,,,,,,,,,,,,,,,,,,,,,,,,,,,,,,,,,,,,,,,,,,,,,,,,,,,,41PZUR,train_x,red_square,bottom_left,2025-09-02_17h07.30.495,HideSeek_v1,2022.2.5,59.91231232760306,
,,,,,,,,,,,,,,,0,0,0,0,9,0,9,0,,,,,,,,,,,,,,,,,,,,,,,,,,,,,,,conditions/schedules/train_x_first/red_square_00/bottom_left/instructions/Slide10.png,conditions/schedules/train_x_first/red_square_00/bottom_left/instructions/Audio10.wav,2285.7449539999943,2285.7400923200007,10,"[19.63905330002308, 18.55240650003543, 16.796923399961088, 19.72395819996018, 5.119991799991112, 4.95331279997481, 6.669509599974845, 12.170675500005018, 6.656046500022057, 7.4317832999513485]","[0.014089600008446723, 0.0002057999954558909, 0.014640200010035187, 0.04928669997025281, 0.06497329997364432, 0.04729399998905137, 0.04675480001606047, 0.05045270000118762, 0.04654279997339472, 7.431789700000081]",0,,,,,,,,,,,,,,,,,,,,,,,,,,,,,,,,,,,,,,,,,,,,,,,,,,,,,,,,,,,,,,,,,,,,,,,,,,,,,,,,,,,,,,,,,,,,,,,,,,,,,,,,,,,,,,,,,,,,,,,,,,,,41PZUR,train_x,red_square,bottom_left,2025-09-02_17h07.30.495,HideSeek_v1,2022.2.5,59.91231232760306,
,,,,,,,,,,,,,,,0,0,0,0,10,0,10,0,,,,,,,,,,,,,,,,,,,,,,,,,,,,,,,conditions/schedules/train_x_first/red_square_00/bottom_left/instructions/Slide11.png,conditions/schedules/train_x_first/red_square_00/bottom_left/instructions/Audio11.wav,2293.2314481000067,2293.2295577599784,11,"[19.63905330002308, 18.55240650003543, 16.796923399961088, 19.72395819996018, 5.119991799991112, 4.95331279997481, 6.669509599974845, 12.170675500005018, 6.656046500022057, 7.4317832999513485, 11.021698100026697]","[0.014089600008446723, 0.0002057999954558909, 0.014640200010035187, 0.04928669997025281, 0.06497329997364432, 0.04729399998905137, 0.04675480001606047, 0.05045270000118762, 0.04654279997339472, 0.04718290001619607, 11.021704800019506]",0,,,,,,,,,,,,,,,,,,,,,,,,,,,,,,,,,,,,,,,,,,,,,,,,,,,,,,,,,,,,,,,,,,,,,,,,,,,,,,,,,,,,,,,,,,,,,,,,,,,,,,,,,,,,,,,,,,,,,,,,,,,,41PZUR,train_x,red_square,bottom_left,2025-09-02_17h07.30.495,HideSeek_v1,2022.2.5,59.91231232760306,
,,,,,,,,,,,,,,,0,0,0,0,11,0,11,0,,,,,,,,,,,,,,,,,,,,,,,,,,,,,,,conditions/schedules/train_x_first/red_square_00/bottom_left/instructions/Slide12.png,conditions/schedules/train_x_first/red_square_00/bottom_left/instructions/Audio12.wav,2304.325184999965,2304.322182199947,12,"[19.63905330002308, 18.55240650003543, 16.796923399961088, 19.72395819996018, 5.119991799991112, 4.95331279997481, 6.669509599974845, 12.170675500005018, 6.656046500022057, 7.4317832999513485, 11.021698100026697, 13.305163800017908]","[0.014089600008446723, 0.0002057999954558909, 0.014640200010035187, 0.04928669997025281, 0.06497329997364432, 0.04729399998905137, 0.04675480001606047, 0.05045270000118762, 0.04654279997339472, 0.04718290001619607, 0.013812500052154064, 13.305170300009195]",0,,,,,,,,,,,,,,,,,,,,,,,,,,,,,,,,,,,,,,,,,,,,,,,,,,,,,,,,,,,,,,,,,,,,,,,,,,,,,,,,,,,,,,,,,,,,,,,,,,,,,,,,,,,,,,,,,,,,,,,,,,,,41PZUR,train_x,red_square,bottom_left,2025-09-02_17h07.30.495,HideSeek_v1,2022.2.5,59.91231232760306,
1,3,2,8,2,5,0,66,2,instr_dim1_1,,,,,,0,0,0,0,,,,,0,0,0,0,,,,,,,,,,,,,,,,,,,,,,,,,,,,,,,,,,,,,stimuli/alien_stimuli/66.png,conditions/schedules/train_x_first/red_square_00/bottom_left/inputInstr_1.xlsx,stimuli/alien_stimuli/66.png,2317.7324518999667,2317.7324518999667,2317.7324518999667,2317.7324518999667,2317.7332580799875,return,17.418950800027233,"[-0.16, -0.08, 0, 0.08, 0.16, 0.24, 0.32, 0.4, 0.48, 0.56]","[-0.4, -0.32, -0.24, -0.16, -0.08, 0, 0.08, 0.16, 0.24, 0.32]",2,2,8,3,0.0,0.4,2335.3192710999865,2335.3192710999865,2335.3192710999865,2335.3192710999865,2335.3192710999865,2335.3192710999865,2335.3192710999865,2335.314530959941,7.807273399957921,return,7.643374099978246,stimuli/alien_stimuli/66.png,66,3,1,,,,,,,,,,,,,,,,,,,,,,,,,,,,,,,,,,,,,,,,,,,,,,,,,,,,,,,,,,,,,,,,,,,,,,,,,,,,,,,,,,,,,,,,,41PZUR,train_x,red_square,bottom_left,2025-09-02_17h07.30.495,HideSeek_v1,2022.2.5,59.91231232760306,
,,,,,,,,,,,30,,,,0,0,0,0,,,,,,,,,,,,,,,,,,,,,,,,,,,,,,,,,,,,,,,,,,,,,,,,,,,,,,,,,,,,,,,,,,,,,,,,,,,,,,21,0.7,0,0,99,1,30,0,conditions/schedules/train_x_first/red_square_00/bottom_left/inputTrain_1.1.xlsx,99,1,1,1,0,,,,,,,,,,,,,,,,,,,,,,,,,,,,,,,,,,,,,,,,,,,,,,,,,,,,,,,,,,,,,,,,,,,,,,,,,,,41PZUR,train_x,red_square,bottom_left,2025-09-02_17h07.30.495,HideSeek_v1,2022.2.5,59.91231232760306,
,,,,,,,,,,,,,,,1,0,1,0,0,0,0,0,,,,,,,,,,,,,,,,,,,,,,,,,,,,,,,conditions/schedules/train_x_first/red_square_00/bottom_left/instructions/Slide13.png,conditions/schedules/train_x_first/red_square_00/bottom_left/instructions/Audio13.wav,2343.1683416999876,2343.15427873999,13,"[19.63905330002308, 18.55240650003543, 16.796923399961088, 19.72395819996018, 5.119991799991112, 4.95331279997481, 6.669509599974845, 12.170675500005018, 6.656046500022057, 7.4317832999513485, 11.021698100026697, 13.305163800017908, 17.365311499976087]","[0.014089600008446723, 0.0002057999954558909, 0.014640200010035187, 0.04928669997025281, 0.06497329997364432, 0.04729399998905137, 0.04675480001606047, 0.05045270000118762, 0.04654279997339472, 0.04718290001619607, 0.013812500052154064, 13.305170300009195, 17.365322099998593]",0,,,,,,,,,,,,,,,,,,,,,,,,,,,,,,,,,,,,,,,,,,,,,,,,,,,,,,,,,,,,,,,,,,,,,,,,,,,,,,,,,,,,,,,,,,,,,,,,,,,,,,,,,,,,,,,,,,,,,,,,,,,,41PZUR,train_x,red_square,bottom_left,2025-09-02_17h07.30.495,HideSeek_v1,2022.2.5,59.91231232760306,
,,,,,,,,,,,,,,,1,0,1,0,1,0,1,0,,,,,,,,,,,,,,,,,,,,,,,,,,,,,,,conditions/schedules/train_x_first/red_square_00/bottom_left/instructions/Slide14.png,conditions/schedules/train_x_first/red_square_00/bottom_left/instructions/Audio14.wav,2360.6066030999646,2360.6021962999657,14,"[19.63905330002308, 18.55240650003543, 16.796923399961088, 19.72395819996018, 5.119991799991112, 4.95331279997481, 6.669509599974845, 12.170675500005018, 6.656046500022057, 7.4317832999513485, 11.021698100026697, 13.305163800017908, 17.365311499976087, 13.770754199998919]","[0.014089600008446723, 0.0002057999954558909, 0.014640200010035187, 0.04928669997025281, 0.06497329997364432, 0.04729399998905137, 0.04675480001606047, 0.05045270000118762, 0.04654279997339472, 0.04718290001619607, 0.013812500052154064, 13.305170300009195, 17.365322099998593, 13.770762900006957]",0,,,,,,,,,,,,,,,,,,,,,,,,,,,,,,,,,,,,,,,,,,,,,,,,,,,,,,,,,,,,,,,,,,,,,,,,,,,,,,,,,,,,,,,,,,,,,,,,,,,,,,,,,,,,,,,,,,,,,,,,,,,,41PZUR,train_x,red_square,bottom_left,2025-09-02_17h07.30.495,HideSeek_v1,2022.2.5,59.91231232760306,
2,4,0,4,0,0,0,16,2,instr_dim1_1,,,,,,1,0,1,0,,,,,0,0,0,0,,,,,,,,,,,,,,,,,,,,,,,,,,,,,,,,,,,,,stimuli/alien_stimuli/16.png,conditions/schedules/train_x_first/red_square_00/bottom_left/inputInstr_1.xlsx,stimuli/alien_stimuli/16.png,2374.476159199956,2374.476159199956,2374.476159199956,2374.476159199956,2374.463570539979,return,6.849474399990868,"[-0.16, -0.08, 0, 0.08, 0.16, 0.24, 0.32, 0.4, 0.48, 0.56]","[-0.4, -0.32, -0.24, -0.16, -0.08, 0, 0.08, 0.16, 0.24, 0.32]",0,0,4,4,0.0,0.0,2381.4963182999636,2381.4963182999636,2381.4963182999636,2381.4963182999636,2381.4963182999636,2381.4963182999636,2381.4963182999636,2381.486253859947,7.974406000052113,return,7.797470199991949,stimuli/alien_stimuli/16.png,16,4,2,,,,,,,,,,,,,,,,,,,,,,,,,,,,,,,,,,,,,,,,,,,,,,,,,,,,,,,,,,,,,,,,,,,,,,,,,,,,,,,,,,,,,,,,,41PZUR,train_x,red_square,bottom_left,2025-09-02_17h07.30.495,HideSeek_v1,2022.2.5,59.91231232760306,
,,,,,,,,,,,30,,,,1,0,1,0,,,,,,,,,,,,,,,,,,,,,,,,,,,,,,,,,,,,,,,,,,,,,,,,,,,,,,,,,,,,,,,,,,,,,,,,,,,,,,21,0.7,0,0,99,1,30,0,conditions/schedules/train_x_first/red_square_00/bottom_left/inputTrain_1.1.xlsx,99,1,1,1,0,,,,,,,,,,,,,,,,,,,,,,,,,,,,,,,,,,,,,,,,,,,,,,,,,,,,,,,,,,,,,,,,,,,,,,,,,,,41PZUR,train_x,red_square,bottom_left,2025-09-02_17h07.30.495,HideSeek_v1,2022.2.5,59.91231232760306,
,,,,,,,,,,,,,,,2,0,2,0,0,0,0,0,,,,,,,,,,,,,,,,,,,,,,,,,,,,,,,conditions/schedules/train_x_first/red_square_00/bottom_left/instructions/Slide15.png,conditions/schedules/train_x_first/red_square_00/bottom_left/instructions/Audio15.wav,2389.4948888999643,2389.4928619399375,15,"[19.63905330002308, 18.55240650003543, 16.796923399961088, 19.72395819996018, 5.119991799991112, 4.95331279997481, 6.669509599974845, 12.170675500005018, 6.656046500022057, 7.4317832999513485, 11.021698100026697, 13.305163800017908, 17.365311499976087, 13.770754199998919, 30.937052299967036]","[0.014089600008446723, 0.0002057999954558909, 0.014640200010035187, 0.04928669997025281, 0.06497329997364432, 0.04729399998905137, 0.04675480001606047, 0.05045270000118762, 0.04654279997339472, 0.04718290001619607, 0.013812500052154064, 13.305170300009195, 17.365322099998593, 13.770762900006957, 30.937059300020337]",0,,,,,,,,,,,,,,,,,,,,,,,,,,,,,,,,,,,,,,,,,,,,,,,,,,,,,,,,,,,,,,,,,,,,,,,,,,,,,,,,,,,,,,,,,,,,,,,,,,,,,,,,,,,,,,,,,,,,,,,,,,,,41PZUR,train_x,red_square,bottom_left,2025-09-02_17h07.30.495,HideSeek_v1,2022.2.5,59.91231232760306,
,,,,,,,,,,,,,,,2,0,2,0,1,0,1,0,,,,,,,,,,,,,,,,,,,,,,,,,,,,,,,conditions/schedules/train_x_first/red_square_00/bottom_left/instructions/Slide16.png,conditions/schedules/train_x_first/red_square_00/bottom_left/instructions/Audio16.wav,2420.505422099959,2420.501720499975,16,"[19.63905330002308, 18.55240650003543, 16.796923399961088, 19.72395819996018, 5.119991799991112, 4.95331279997481, 6.669509599974845, 12.170675500005018, 6.656046500022057, 7.4317832999513485, 11.021698100026697, 13.305163800017908, 17.365311499976087, 13.770754199998919, 30.937052299967036, 23.030215900042094]","[0.014089600008446723, 0.0002057999954558909, 0.014640200010035187, 0.04928669997025281, 0.06497329997364432, 0.04729399998905137, 0.04675480001606047, 0.05045270000118762, 0.04654279997339472, 0.04718290001619607, 0.013812500052154064, 13.305170300009195, 17.365322099998593, 13.770762900006957, 0.03168240003287792, 23.030222700035665]",0,,,,,,,,,,,,,,,,,,,,,,,,,,,,,,,,,,,,,,,,,,,,,,,,,,,,,,,,,,,,,,,,,,,,,,,,,,,,,,,,,,,,,,,,,,,,,,,,,,,,,,,,,,,,,,,,,,,,,,,,,,,,41PZUR,train_x,red_square,bottom_left,2025-09-02_17h07.30.495,HideSeek_v1,2022.2.5,59.91231232760306,
,2,1,5,1,3,0,46,,train_dim1_1,1,30,,,,2,0,2,0,,,,,,,,,0,0,0,0,0,0,0,0,0,0,0,0,,,,,,,,,,,,,,,,,,,,,,,,,stimuli/alien_stimuli/46.png,,,,,,,,,,,,,,,,,,,,,,,,,,,,,,,,,,,,,,,30,,,,,,,,2443.6420878999634,2443.6420878999634,2443.6420878999634,2443.6420878999634,2443.6420878999634,up,8.643206899985671,0,0,0,99,0,-0.24,up,8.541872499976307,,,,,,,,,,,,,,,,,,,,,,,,,,,,,,,,,,,,,,,,,,,,,,,,,,,,,,,,,,,,41PZUR,train_x,red_square,bottom_left,2025-09-02_17h07.30.495,HideSeek_v1,2022.2.5,59.91231232760306,
,2,1,5,1,3,0,46,,train_dim1_1,1,30,,,,2,0,2,0,,,,,,,,,0,0,0,0,0,0,0,0,1,0,1,0,,,,,,,,,,,,,,,,,,,,,,,,,,,,,,,,,,,,,,,,,,,,,,,,,,,,,,,,,,,,,,,,30,,,,,,,,2452.276185099967,2452.276185099967,2452.276185099967,2452.276185099967,2452.276185099967,up,2.8118417000514455,0,0,0,99,0,-0.15999999999999998,up,2.7325846000458114,,,,,,,,,,,,,,,,,,,,,,,,,,,,,,,,,,,,,,,,,,,,,,,,,,,,,,,,,,,,41PZUR,train_x,red_square,bottom_left,2025-09-02_17h07.30.495,HideSeek_v1,2022.2.5,59.91231232760306,
,2,1,5,1,3,0,46,,train_dim1_1,1,30,,,,2,0,2,0,,,,,,,,,0,0,0,0,0,0,0,0,2,0,2,0,,,,,,,,,,,,,,,,,,,,,,,,,,,,,,,,,,,,,,,,,,,,,,,,,,,,,,,,,,,,,,,,30,,,,,,,,2455.0940973999677,2455.0940973999677,2455.0940973999677,2455.0940973999677,2455.0940973999677,right,3.7624537000083365,0,0,0,99,0.08,-0.15999999999999998,right,3.6821695000398904,,,,,,,,,,,,,,,,,,,,,,,,,,,,,,,,,,,,,,,,,,,,,,,,,,,,,,,,,,,,41PZUR,train_x,red_square,bottom_left,2025-09-02_17h07.30.495,HideSeek_v1,2022.2.5,59.91231232760306,
,2,1,5,1,3,0,46,,train_dim1_1,1,30,,,,2,0,2,0,,,,,,,,,0,0,0,0,0,0,0,0,3,0,3,0,,,,,,,,,,,,,,,,,,,,,,,,,,,,,,,,,,,,,,,,,,,,,,,,,,,,,,,,,,,,,,,,30,,,,,,,,2458.863660999981,2458.863660999981,2458.863660999981,2458.863660999981,2458.863660999981,left,2.0951213999651372,0,0,0,99,0.0,-0.15999999999999998,left,2.0133234999957494,,,,,,,,,,,,,,,,,,,,,,,,,,,,,,,,,,,,,,,,,,,,,,,,,,,,,,,,,,,,41PZUR,train_x,red_square,bottom_left,2025-09-02_17h07.30.495,HideSeek_v1,2022.2.5,59.91231232760306,
,2,1,5,1,3,0,46,,train_dim1_1,1,30,,,,2,0,2,0,,,,,,,,,0,0,0,0,0,0,0,0,4,0,4,0,,,,,,,,,,,,,,,,,,,,,,,,,,,,,,,,,,,,,,,,,,,,,,,,,,,,,,,,,,,,,,,,30,,,,,,,,2460.9664435999584,2460.9664435999584,2460.9664435999584,2460.9664435999584,2460.9664435999584,up,0.5268448999850079,0,0,0,99,0.0,-0.07999999999999997,up,0.44551320001482964,,,,,,,,,,,,,,,,,,,,,,,,,,,,,,,,,,,,,,,,,,,,,,,,,,,,,,,,,,,,41PZUR,train_x,red_square,bottom_left,2025-09-02_17h07.30.495,HideSeek_v1,2022.2.5,59.91231232760306,
,2,1,5,1,3,0,46,,train_dim1_1,1,30,,,,2,0,2,0,,,,,,,,,0,0,0,0,0,0,0,0,5,0,5,0,,,,,,,,,,,,,,,,,,,,,,,,,,,,,,,,,,,,,,,,,,,,,,,,,,,,,,,,,,,,,,,,30,,,,,,,,2461.499816299998,2461.499816299998,2461.499816299998,2461.499816299998,2461.499816299998,up,10.968674200004898,0,0,0,99,0.0,2.7755575615628914e-17,up,10.880743799963966,,,,,,,,,,,,,,,,,,,,,,,,,,,,,,,,,,,,,,,,,,,,,,,,,,,,,,,,,,,,41PZUR,train_x,red_square,bottom_left,2025-09-02_17h07.30.495,HideSeek_v1,2022.2.5,59.91231232760306,
,2,1,5,1,3,0,46,,train_dim1_1,1,30,,,,2,0,2,0,,,,,,,,,0,0,0,0,0,0,0,0,6,0,6,0,,,,,,,,,,,,,,,,,,,,,,,,,,,,,,,,,,,,,,,,,,,,,,,,,,,,,,,,,,,,,,,,30,,,,,,,,2472.490059999982,2472.490059999982,2472.490059999982,2472.490059999982,2472.490059999982,return,1.6278060000040568,0,0,0,0,0.0,2.7755575615628914e-17,return,1.5302541999844834,4,0,0.0,2.7755575615628914e-17,,,,,,,,,,,,,,,,,,,,,,,,,,,,,,,,,,,,,,,,,,,,,,,,,,,,,,,,41PZUR,train_x,red_square,bottom_left,2025-09-02_17h07.30.495,HideSeek_v1,2022.2.5,59.91231232760306,
,2,4,2,4,0,0,16,,train_dim1_1,2,30,,,,2,0,2,0,,,,,,,,,0,0,0,0,0,1,1,1,0,0,0,0,,,,,,,,,,,,,,,,,,,,,,,,,stimuli/alien_stimuli/16.png,,,,,,,,,,,,,,,,,,,,,,,,,,,,,stimuli/alien_stimuli/46.png,46,2,3,,,,,,,30,,,,,,,,2489.464533099963,2489.464533099963,2489.464533099963,2489.464533099963,2489.464533099963,down,18.08758079999825,0,0,0,99,0,-0.16,down,17.993820300034713,,,,,2487.8911928999587,2489.464533099963,0.24,-0.32,0.0,0.24,-0.32,0.24,0.12,0.24,-0.32,2475.676134499954,2475.676134499954,2475.676134499954,2475.676134499954,2475.676134499954,2475.676134499954,2475.676134499954,2475.676134499954,2475.6642323799488,12.329162399983034,return,12.196168800001033,,,,,,,,,,,,,,,,,,,,,,,,,,,,,,,,,41PZUR,train_x,red_square,bottom_left,2025-09-02_17h07.30.495,HideSeek_v1,2022.2.5,59.91231232760306,
,2,4,2,4,0,0,16,,train_dim1_1,2,30,,,,2,0,2,0,,,,,,,,,0,0,0,0,0,1,1,1,1,0,1,0,,,,,,,,,,,,,,,,,,,,,,,,,,,,,,,,,,,,,,,,,,,,,,,,,,,,,,,,,,,,,,,,30,,,,,,,,2507.556874999951,2507.556874999951,2507.556874999951,2507.556874999951,2507.556874999951,up,10.56790030002594,0,0,0,99,0,-0.08,up,10.472336900013033,,,,,,,,,,,,,,,,,,,,,,,,,,,,,,,,,,,,,,,,,,,,,,,,,,,,,,,,,,,,41PZUR,train_x,red_square,bottom_left,2025-09-02_17h07.30.495,HideSeek_v1,2022.2.5,59.91231232760306,
,2,4,2,4,0,0,16,,train_dim1_1,2,30,,,,2,0,2,0,,,,,,,,,0,0,0,0,0,1,1,1,2,0,2,0,,,,,,,,,,,,,,,,,,,,,,,,,,,,,,,,,,,,,,,,,,,,,,,,,,,,,,,,,,,,,,,,30,,,,,,,,2518.1312869999674,2518.1312869999674,2518.1312869999674,2518.1312869999674,2518.1312869999674,right,1.0607896000146866,0,0,0,99,0.08,-0.08,right,0.9633343999739736,,,,,,,,,,,,,,,,,,,,,,,,,,,,,,,,,,,,,,,,,,,,,,,,,,,,,,,,,,,,41PZUR,train_x,red_square,bottom_left,2025-09-02_17h07.30.495,HideSeek_v1,2022.2.5,59.91231232760306,
,2,4,2,4,0,0,16,,train_dim1_1,2,30,,,,2,0,2,0,,,,,,,,,0,0,0,0,0,1,1,1,3,0,3,0,,,,,,,,,,,,,,,,,,,,,,,,,,,,,,,,,,,,,,,,,,,,,,,,,,,,,,,,,,,,,,,,30,,,,,,,,2519.185168199998,2519.185168199998,2519.185168199998,2519.185168199998,2519.185168199998,right,5.51401399995666,0,0,0,99,0.16,-0.08,right,5.432724599959329,,,,,,,,,,,,,,,,,,,,,,,,,,,,,,,,,,,,,,,,,,,,,,,,,,,,,,,,,,,,41PZUR,train_x,red_square,bottom_left,2025-09-02_17h07.30.495,HideSeek_v1,2022.2.5,59.91231232760306,
,2,4,2,4,0,0,16,,train_dim1_1,2,30,,,,2,0,2,0,,,,,,,,,0,0,0,0,0,1,1,1,4,0,4,0,,,,,,,,,,,,,,,,,,,,,,,,,,,,,,,,,,,,,,,,,,,,,,,,,,,,,,,,,,,,,,,,30,,,,,,,,2524.70587169996,2524.70587169996,2524.70587169996,2524.70587169996,2524.70587169996,right,0.5268470000009984,0,0,0,99,0.24,-0.08,right,0.445768500037957,,,,,,,,,,,,,,,,,,,,,,,,,,,,,,,,,,,,,,,,,,,,,,,,,,,,,,,,,,,,41PZUR,train_x,red_square,bottom_left,2025-09-02_17h07.30.495,HideSeek_v1,2022.2.5,59.91231232760306,
,2,4,2,4,0,0,16,,train_dim1_1,2,30,,,,2,0,2,0,,,,,,,,,0,0,0,0,0,1,1,1,5,0,5,0,,,,,,,,,,,,,,,,,,,,,,,,,,,,,,,,,,,,,,,,,,,,,,,,,,,,,,,,,,,,,,,,30,,,,,,,,2525.2427712999634,2525.2427712999634,2525.2427712999634,2525.2427712999634,2525.2427712999634,left,1.7416007000138052,0,0,0,99,0.15999999999999998,-0.08,left,1.6558182000298984,,,,,,,,,,,,,,,,,,,,,,,,,,,,,,,,,,,,,,,,,,,,,,,,,,,,,,,,,,,,41PZUR,train_x,red_square,bottom_left,2025-09-02_17h07.30.495,HideSeek_v1,2022.2.5,59.91231232760306,
,2,4,2,4,0,0,16,,train_dim1_1,2,30,,,,2,0,2,0,,,,,,,,,0,0,0,0,0,1,1,1,6,0,6,0,,,,,,,,,,,,,,,,,,,,,,,,,,,,,,,,,,,,,,,,,,,,,,,,,,,,,,,,,,,,,,,,30,,,,,,,,2526.9904087999603,2526.9904087999603,2526.9904087999603,2526.9904087999603,2526.9904087999603,up,5.7978624000097625,0,0,0,99,0.15999999999999998,0.0,up,5.710739900008775,,,,,,,,,,,,,,,,,,,,,,,,,,,,,,,,,,,,,,,,,,,,,,,,,,,,,,,,,,,,41PZUR,train_x,red_square,bottom_left,2025-09-02_17h07.30.495,HideSeek_v1,2022.2.5,59.91231232760306,
,2,4,2,4,0,0,16,,train_dim1_1,2,30,,,,2,0,2,0,,,,,,,,,0,0,0,0,0,1,1,1,7,0,7,0,,,,,,,,,,,,,,,,,,,,,,,,,,,,,,,,,,,,,,,,,,,,,,,,,,,,,,,,,,,,,,,,30,,,,,,,,2532.796691299998,2532.796691299998,2532.796691299998,2532.796691299998,2532.796691299998,left,2.1111126999603584,0,0,0,99,0.07999999999999997,0.0,left,2.0309368000016548,,,,,,,,,,,,,,,,,,,,,,,,,,,,,,,,,,,,,,,,,,,,,,,,,,,,,,,,,,,,41PZUR,train_x,red_square,bottom_left,2025-09-02_17h07.30.495,HideSeek_v1,2022.2.5,59.91231232760306,
,2,4,2,4,0,0,16,,train_dim1_1,2,30,,,,2,0,2,0,,,,,,,,,0,0,0,0,0,1,1,1,8,0,8,0,,,,,,,,,,,,,,,,,,,,,,,,,,,,,,,,,,,,,,,,,,,,,,,,,,,,,,,,,,,,,,,,30,,,,,,,,2534.9136323999846,2534.9136323999846,2534.9136323999846,2534.9136323999846,2534.9136323999846,left,0.793764799949713,0,0,0,99,-2.7755575615628914e-17,0.0,left,0.7047939999611117,,,,,,,,,,,,,,,,,,,,,,,,,,,,,,,,,,,,,,,,,,,,,,,,,,,,,,,,,,,,41PZUR,train_x,red_square,bottom_left,2025-09-02_17h07.30.495,HideSeek_v1,2022.2.5,59.91231232760306,
,2,4,2,4,0,0,16,,train_dim1_1,2,30,,,,2,0,2,0,,,,,,,,,0,0,0,0,0,1,1,1,9,0,9,0,,,,,,,,,,,,,,,,,,,,,,,,,,,,,,,,,,,,,,,,,,,,,,,,,,,,,,,,,,,,,,,,30,,,,,,,,2535.714109099994,2535.714109099994,2535.714109099994,2535.714109099994,2535.714109099994,up,2.4616482999990694,0,0,0,99,-2.7755575615628914e-17,0.08,up,2.373167400015518,,,,,,,,,,,,,,,,,,,,,,,,,,,,,,,,,,,,,,,,,,,,,,,,,,,,,,,,,,,,41PZUR,train_x,red_square,bottom_left,2025-09-02_17h07.30.495,HideSeek_v1,2022.2.5,59.91231232760306,
,2,4,2,4,0,0,16,,train_dim1_1,2,30,,,,2,0,2,0,,,,,,,,,0,0,0,0,0,1,1,1,10,0,10,0,,,,,,,,,,,,,,,,,,,,,,,,,,,,,,,,,,,,,,,,,,,,,,,,,,,,,,,,,,,,,,,,30,,,,,,,,2538.183874199982,2538.183874199982,2538.183874199982,2538.183874199982,2538.183874199982,return,1.577474199992139,0,0,0,0,-2.7755575615628914e-17,0.08,return,1.5000578999752179,6,0,-2.7755575615628914e-17,0.08,,,,,,,,,,,,,,,,,,,,,,,,,,,,,,,,,,,,,,,,,,,,,,,,,,,,,,,,41PZUR,train_x,red_square,bottom_left,2025-09-02_17h07.30.495,HideSeek_v1,2022.2.5,59.91231232760306,
,4,4,5,4,1,0,26,,train_dim1_1,3,30,,,,2,0,2,0,,,,,,,,,0,0,0,0,0,2,2,2,0,0,0,0,,,,,,,,,,,,,,,,,,,,,,,,,stimuli/alien_stimuli/26.png,,,,,,,,,,,,,,,,,,,,,,,,,,,,,stimuli/alien_stimuli/16.png,16,2,4,,,,,,,30,,,,,,,,2551.2239547999925,2551.2239547999925,2551.2239547999925,2551.2239547999925,2551.2239547999925,right,11.49687090003863,0,0,0,99,0.24,-0.08,right,11.40518509998219,,,,,2549.6595356999896,2551.2239547999925,0,-0.08,0.0,0.0,-0.08,0,0.0,0,-0.08,2541.339586499962,2541.339586499962,2541.339586499962,2541.339586499962,2541.339586499962,2541.339586499962,2541.339586499962,2541.339586499962,2541.3186869799565,8.443638299999293,return,8.29877660004422,,,,,,,,,,,,,,,,,,,,,,,,,,,,,,,,,41PZUR,train_x,red_square,bottom_left,2025-09-02_17h07.30.495,HideSeek_v1,2022.2.5,59.91231232760306,
,4,4,5,4,1,0,26,,train_dim1_1,3,30,,,,2,0,2,0,,,,,,,,,0,0,0,0,0,2,2,2,1,0,1,0,,,,,,,,,,,,,,,,,,,,,,,,,,,,,,,,,,,,,,,,,,,,,,,,,,,,,,,,,,,,,,,,30,,,,,,,,2562.7391329999664,2562.7391329999664,2562.7391329999664,2562.7391329999664,2562.7391329999664,right,1.4104630000074394,0,0,0,99,0.32,-0.08,right,1.3123464999953285,,,,,,,,,,,,,,,,,,,,,,,,,,,,,,,,,,,,,,,,,,,,,,,,,,,,,,,,,,,,41PZUR,train_x,red_square,bottom_left,2025-09-02_17h07.30.495,HideSeek_v1,2022.2.5,59.91231232760306,
,4,4,5,4,1,0,26,,train_dim1_1,3,30,,,,2,0,2,0,,,,,,,,,0,0,0,0,0,2,2,2,2,0,2,0,,,,,,,,,,,,,,,,,,,,,,,,,,,,,,,,,,,,,,,,,,,,,,,,,,,,,,,,,,,,,,,,30,,,,,,,,2564.1402666000067,2564.1402666000067,2564.1402666000067,2564.1402666000067,2564.1402666000067,left,2.393948499986436,0,0,0,99,0.24,-0.08,left,2.305495900043752,,,,,,,,,,,,,,,,,,,,,,,,,,,,,,,,,,,,,,,,,,,,,,,,,,,,,,,,,,,,41PZUR,train_x,red_square,bottom_left,2025-09-02_17h07.30.495,HideSeek_v1,2022.2.5,59.91231232760306,
,4,4,5,4,1,0,26,,train_dim1_1,3,30,,,,2,0,2,0,,,,,,,,,0,0,0,0,0,2,2,2,3,0,3,0,,,,,,,,,,,,,,,,,,,,,,,,,,,,,,,,,,,,,,,,,,,,,,,,,,,,,,,,,,,,,,,,30,,,,,,,,2566.5431671999977,2566.5431671999977,2566.5431671999977,2566.5431671999977,2566.5431671999977,down,1.1576213999651372,0,0,0,99,0.24,-0.16,down,1.0730555999907665,,,,,,,,,,,,,,,,,,,,,,,,,,,,,,,,,,,,,,,,,,,,,,,,,,,,,,,,,,,,41PZUR,train_x,red_square,bottom_left,2025-09-02_17h07.30.495,HideSeek_v1,2022.2.5,59.91231232760306,
,4,4,5,4,1,0,26,,train_dim1_1,3,30,,,,2,0,2,0,,,,,,,,,0,0,0,0,0,2,2,2,4,0,4,0,,,,,,,,,,,,,,,,,,,,,,,,,,,,,,,,,,,,,,,,,,,,,,,,,,,,,,,,,,,,,,,,30,,,,,,,,2567.7104986999766,2567.7104986999766,2567.7104986999766,2567.7104986999766,2567.7104986999766,left,1.2246064000064507,0,0,0,99,0.15999999999999998,-0.16,left,1.1379778999835253,,,,,,,,,,,,,,,,,,,,,,,,,,,,,,,,,,,,,,,,,,,,,,,,,,,,,,,,,,,,41PZUR,train_x,red_square,bottom_left,2025-09-02_17h07.30.495,HideSeek_v1,2022.2.5,59.91231232760306,
,4,4,5,4,1,0,26,,train_dim1_1,3,30,,,,2,0,2,0,,,,,,,,,0,0,0,0,0,2,2,2,5,0,5,0,,,,,,,,,,,,,,,,,,,,,,,,,,,,,,,,,,,,,,,,,,,,,,,,,,,,,,,,,,,,,,,,30,,,,,,,,2568.941236099985,2568.941236099985,2568.941236099985,2568.941236099985,2568.941236099985,return,2.1784294999670237,0,0,0,0,0.15999999999999998,-0.16,return,2.0984858999727294,5,0,0.15999999999999998,-0.16,,,,,,,,,,,,,,,,,,,,,,,,,,,,,,,,,,,,,,,,,,,,,,,,,,,,,,,,41PZUR,train_x,red_square,bottom_left,2025-09-02_17h07.30.495,HideSeek_v1,2022.2.5,59.91231232760306,
,2,3,6,3,4,0,56,,train_dim1_1,4,30,,,,2,0,2,0,,,,,,,,,0,0,0,0,0,3,3,3,0,0,0,0,,,,,,,,,,,,,,,,,,,,,,,,,stimuli/alien_stimuli/56.png,,,,,,,,,,,,,,,,,,,,,,,,,,,,,stimuli/alien_stimuli/26.png,26,4,5,,,,,,,30,,,,,,,,2577.997048899997,2577.997048899997,2577.997048899997,2577.997048899997,2577.997048899997,right,4.339526400028262,0,0,0,99,0.08,-0.16,right,4.251072200015187,,,,,2576.43110279995,2577.997048899997,0.24,-0.08,0.0,0.08,-0.08,0.24,0.2,0.24,-0.08,2572.700353699969,2572.700353699969,2572.700353699969,2572.700353699969,2572.700353699969,2572.700353699969,2572.700353699969,2572.700353699969,2572.678263579978,3.855629099998623,return,3.715137900027912,,,,,,,,,,,,,,,,,,,,,,,,,,,,,,,,,41PZUR,train_x,red_square,bottom_left,2025-09-02_17h07.30.495,HideSeek_v1,2022.2.5,59.91231232760306,
,2,3,6,3,4,0,56,,train_dim1_1,4,30,,,,2,0,2,0,,,,,,,,,0,0,0,0,0,3,3,3,1,0,1,0,,,,,,,,,,,,,,,,,,,,,,,,,,,,,,,,,,,,,,,,,,,,,,,,,,,,,,,,,,,,,,,,30,,,,,,,,2582.3355044999626,2582.3355044999626,2582.3355044999626,2582.3355044999626,2582.3355044999626,right,1.1602643000078388,0,0,0,99,0.16,-0.16,right,1.0749572000349872,,,,,,,,,,,,,,,,,,,,,,,,,,,,,,,,,,,,,,,,,,,,,,,,,,,,,,,,,,,,41PZUR,train_x,red_square,bottom_left,2025-09-02_17h07.30.495,HideSeek_v1,2022.2.5,59.91231232760306,
,2,3,6,3,4,0,56,,train_dim1_1,4,30,,,,2,0,2,0,,,,,,,,,0,0,0,0,0,3,3,3,2,0,2,0,,,,,,,,,,,,,,,,,,,,,,,,,,,,,,,,,,,,,,,,,,,,,,,,,,,,,,,,,,,,,,,,30,,,,,,,,2583.5025055999868,2583.5025055999868,2583.5025055999868,2583.5025055999868,2583.5025055999868,right,0.9436493000248447,0,0,0,99,0.24,-0.16,right,0.8577358999755234,,,,,,,,,,,,,,,,,,,,,,,,,,,,,,,,,,,,,,,,,,,,,,,,,,,,,,,,,,,,41PZUR,train_x,red_square,bottom_left,2025-09-02_17h07.30.495,HideSeek_v1,2022.2.5,59.91231232760306,
,2,3,6,3,4,0,56,,train_dim1_1,4,30,,,,2,0,2,0,,,,,,,,,0,0,0,0,0,3,3,3,3,0,3,0,,,,,,,,,,,,,,,,,,,,,,,,,,,,,,,,,,,,,,,,,,,,,,,,,,,,,,,,,,,,,,,,30,,,,,,,,2584.452784599969,2584.452784599969,2584.452784599969,2584.452784599969,2584.452784599969,right,4.179797200020403,0,0,0,99,0.32,-0.16,right,4.098994899948593,,,,,,,,,,,,,,,,,,,,,,,,,,,,,,,,,,,,,,,,,,,,,,,,,,,,,,,,,,,,41PZUR,train_x,red_square,bottom_left,2025-09-02_17h07.30.495,HideSeek_v1,2022.2.5,59.91231232760306,
,2,3,6,3,4,0,56,,train_dim1_1,4,30,,,,2,0,2,0,,,,,,,,,0,0,0,0,0,3,3,3,4,0,4,0,,,,,,,,,,,,,,,,,,,,,,,,,,,,,,,,,,,,,,,,,,,,,,,,,,,,,,,,,,,,,,,,30,,,,,,,,2588.640534199949,2588.640534199949,2588.640534199949,2588.640534199949,2588.640534199949,return,1.360798400011845,1,0,0,1,0.32,-0.16,return,1.2703245999873616,5,4,0.32,-0.16,,,,,,,,,,,,,,,,,,,,,,,,,,,,,,,,,,,,,,,,,,,,,,,,,,,,,,,,41PZUR,train_x,red_square,bottom_left,2025-09-02_17h07.30.495,HideSeek_v1,2022.2.5,59.91231232760306,
,0,2,5,2,5,0,66,,train_dim1_1,5,30,,,,2,0,2,0,,,,,,,,,0,0,0,0,0,4,4,4,0,0,0,0,,,,,,,,,,,,,,,,,,,,,,,,,stimuli/alien_stimuli/66.png,,,,,,,,,,,,,,,,,,,,,,,,,,,,,stimuli/alien_stimuli/56.png,56,2,6,,,,,,,30,,,,,,,,2599.0937451999635,2599.0937451999635,2599.0937451999635,2599.0937451999635,2599.0937451999635,right,9.393730099953245,1,0,0,99,-0.08,-0.24,right,9.30772280000383,,,,,2597.5319961999776,2599.0937451999635,0.32,-0.16,0.0,0.32,-0.16,0.32,0.16,0.32,-0.16,2591.5797137999907,2591.5797137999907,2591.5797137999907,2591.5797137999907,2591.5797137999907,2591.5797137999907,2591.5797137999907,2591.5797137999907,2591.5603203799865,6.073793700023089,return,5.927130299969576,,,,,,,,,,,,,,,,,,,,,,,,,,,,,,,,,41PZUR,train_x,red_square,bottom_left,2025-09-02_17h07.30.495,HideSeek_v1,2022.2.5,59.91231232760306,
,0,2,5,2,5,0,66,,train_dim1_1,5,30,,,,2,0,2,0,,,,,,,,,0,0,0,0,0,4,4,4,1,0,1,0,,,,,,,,,,,,,,,,,,,,,,,,,,,,,,,,,,,,,,,,,,,,,,,,,,,,,,,,,,,,,,,,30,,,,,,,,2608.4888107999577,2608.4888107999577,2608.4888107999577,2608.4888107999577,2608.4888107999577,right,0.9767007000045851,1,0,0,99,0.0,-0.24,right,0.8953881999477744,,,,,,,,,,,,,,,,,,,,,,,,,,,,,,,,,,,,,,,,,,,,,,,,,,,,,,,,,,,,41PZUR,train_x,red_square,bottom_left,2025-09-02_17h07.30.495,HideSeek_v1,2022.2.5,59.91231232760306,
,0,2,5,2,5,0,66,,train_dim1_1,5,30,,,,2,0,2,0,,,,,,,,,0,0,0,0,0,4,4,4,2,0,2,0,,,,,,,,,,,,,,,,,,,,,,,,,,,,,,,,,,,,,,,,,,,,,,,,,,,,,,,,,,,,,,,,30,,,,,,,,2609.472475699964,2609.472475699964,2609.472475699964,2609.472475699964,2609.472475699964,right,0.9260878000059165,1,0,0,99,0.08,-0.24,right,0.847813899978064,,,,,,,,,,,,,,,,,,,,,,,,,,,,,,,,,,,,,,,,,,,,,,,,,,,,,,,,,,,,41PZUR,train_x,red_square,bottom_left,2025-09-02_17h07.30.495,HideSeek_v1,2022.2.5,59.91231232760306,
,0,2,5,2,5,0,66,,train_dim1_1,5,30,,,,2,0,2,0,,,,,,,,,0,0,0,0,0,4,4,4,3,0,3,0,,,,,,,,,,,,,,,,,,,,,,,,,,,,,,,,,,,,,,,,,,,,,,,,,,,,,,,,,,,,,,,,30,,,,,,,,2610.4064283999614,2610.4064283999614,2610.4064283999614,2610.4064283999614,2610.4064283999614,right,0.8601066000410356,1,0,0,99,0.16,-0.24,right,0.7763594000134617,,,,,,,,,,,,,,,,,,,,,,,,,,,,,,,,,,,,,,,,,,,,,,,,,,,,,,,,,,,,41PZUR,train_x,red_square,bottom_left,2025-09-02_17h07.30.495,HideSeek_v1,2022.2.5,59.91231232760306,
,0,2,5,2,5,0,66,,train_dim1_1,5,30,,,,2,0,2,0,,,,,,,,,0,0,0,0,0,4,4,4,4,0,4,0,,,,,,,,,,,,,,,,,,,,,,,,,,,,,,,,,,,,,,,,,,,,,,,,,,,,,,,,,,,,,,,,30,,,,,,,,2611.276954400004,2611.276954400004,2611.276954400004,2611.276954400004,2611.276954400004,return,0.7740340000018477,1,1,0,0,0.16,-0.24,return,0.689590500027407,5,8,0.16,-0.24,,,,,,,,,,,,,,,,,,,,,,,,,,,,,,,,,,,,,,,,,,,,,,,,,,,,,,,,41PZUR,train_x,red_square,bottom_left,2025-09-02_17h07.30.495,HideSeek_v1,2022.2.5,59.91231232760306,
,0,0,1,0,1,0,26,,train_dim1_1,6,30,,,,2,0,2,0,,,,,,,,,0,0,0,0,0,5,5,5,0,0,0,0,,,,,,,,,,,,,,,,,,,,,,,,,stimuli/alien_stimuli/26.png,,,,,,,,,,,,,,,,,,,,,,,,,,,,,stimuli/alien_stimuli/66.png,66,0,7,,,,,,,30,,,,,,,,2621.983937199984,2621.983937199984,2621.983937199984,2621.983937199984,2621.983937199984,return,2.4223879000055604,1,1,0,0,-0.16,-0.4,return,2.3365318999858573,5,8,-0.16,-0.4,2620.417475299968,2621.983937199984,0.24,-0.24,0.0,0.4,-0.24,0.24,0.039999999999999994,0.24,-0.24,2613.6358955999603,2613.6358955999603,2613.6358955999603,2613.6358955999603,2613.6358955999603,2613.6358955999603,2613.6358955999603,2613.6358955999603,2613.6287602199704,6.907736699969973,return,6.750259799999185,,,,,,,,,,,,,,,,,,,,,,,,,,,,,,,,,41PZUR,train_x,red_square,bottom_left,2025-09-02_17h07.30.495,HideSeek_v1,2022.2.5,59.91231232760306,
,3,0,8,0,5,0,66,,train_dim1_1,7,30,,,,2,0,2,0,,,,,,,,,0,0,0,0,0,6,6,6,0,0,0,0,,,,,,,,,,,,,,,,,,,,,,,,,stimuli/alien_stimuli/66.png,,,,,,,,,,,,,,,,,,,,,,,,,,,,,stimuli/alien_stimuli/26.png,26,0,8,,,,,,,30,,,,,,,,2630.7586315999506,2630.7586315999506,2630.7586315999506,2630.7586315999506,2630.7586315999506,right,3.1057987000094727,1,1,0,99,0.16,-0.4,right,3.017518300039228,,,,,2629.1916091999738,2630.7586315999506,-0.08,-0.4,0.0,0.08,-0.4,-0.08,-0.12,-0.08,-0.4,2625.9855575999827,2625.9855575999827,2625.9855575999827,2625.9855575999827,2625.9855575999827,2625.9855575999827,2625.9855575999827,2625.9855575999827,2625.9722143199874,3.3383684000000358,return,3.175195799965877,,,,,,,,,,,,,,,,,,,,,,,,,,,,,,,,,41PZUR,train_x,red_square,bottom_left,2025-09-02_17h07.30.495,HideSeek_v1,2022.2.5,59.91231232760306,
,3,0,8,0,5,0,66,,train_dim1_1,7,30,,,,2,0,2,0,,,,,,,,,0,0,0,0,0,6,6,6,1,0,1,0,,,,,,,,,,,,,,,,,,,,,,,,,,,,,,,,,,,,,,,,,,,,,,,,,,,,,,,,,,,,,,,,30,,,,,,,,2633.858595400001,2633.858595400001,2633.858595400001,2633.858595400001,2633.858595400001,right,1.8272610999993049,1,1,0,99,0.24,-0.4,right,1.7535084999981336,,,,,,,,,,,,,,,,,,,,,,,,,,,,,,,,,,,,,,,,,,,,,,,,,,,,,,,,,,,,41PZUR,train_x,red_square,bottom_left,2025-09-02_17h07.30.495,HideSeek_v1,2022.2.5,59.91231232760306,
,3,0,8,0,5,0,66,,train_dim1_1,7,30,,,,2,0,2,0,,,,,,,,,0,0,0,0,0,6,6,6,2,0,2,0,,,,,,,,,,,,,,,,,,,,,,,,,,,,,,,,,,,,,,,,,,,,,,,,,,,,,,,,,,,,,,,,30,,,,,,,,2635.6930276000057,2635.6930276000057,2635.6930276000057,2635.6930276000057,2635.6930276000057,right,1.3610627999878488,1,1,0,99,0.32,-0.4,right,1.2790180000010878,,,,,,,,,,,,,,,,,,,,,,,,,,,,,,,,,,,,,,,,,,,,,,,,,,,,,,,,,,,,41PZUR,train_x,red_square,bottom_left,2025-09-02_17h07.30.495,HideSeek_v1,2022.2.5,59.91231232760306,
,3,0,8,0,5,0,66,,train_dim1_1,7,30,,,,2,0,2,0,,,,,,,,,0,0,0,0,0,6,6,6,3,0,3,0,,,,,,,,,,,,,,,,,,,,,,,,,,,,,,,,,,,,,,,,,,,,,,,,,,,,,,,,,,,,,,,,30,,,,,,,,2637.0641704999725,2637.0641704999725,2637.0641704999725,2637.0641704999725,2637.0641704999725,right,1.2576852000202052,1,1,0,99,0.4,-0.4,right,1.1756714999792166,,,,,,,,,,,,,,,,,,,,,,,,,,,,,,,,,,,,,,,,,,,,,,,,,,,,,,,,,,,,41PZUR,train_x,red_square,bottom_left,2025-09-02_17h07.30.495,HideSeek_v1,2022.2.5,59.91231232760306,
,3,0,8,0,5,0,66,,train_dim1_1,7,30,,,,2,0,2,0,,,,,,,,,0,0,0,0,0,6,6,6,4,0,4,0,,,,,,,,,,,,,,,,,,,,,,,,,,,,,,,,,,,,,,,,,,,,,,,,,,,,,,,,,,,,,,,,30,,,,,,,,2638.3290833999636,2638.3290833999636,2638.3290833999636,2638.3290833999636,2638.3290833999636,right,0.5100832000025548,1,1,0,99,0.48000000000000004,-0.4,right,0.4244491999852471,,,,,,,,,,,,,,,,,,,,,,,,,,,,,,,,,,,,,,,,,,,,,,,,,,,,,,,,,,,,41PZUR,train_x,red_square,bottom_left,2025-09-02_17h07.30.495,HideSeek_v1,2022.2.5,59.91231232760306,
,3,0,8,0,5,0,66,,train_dim1_1,7,30,,,,2,0,2,0,,,,,,,,,0,0,0,0,0,6,6,6,5,0,5,0,,,,,,,,,,,,,,,,,,,,,,,,,,,,,,,,,,,,,,,,,,,,,,,,,,,,,,,,,,,,,,,,30,,,,,,,,2638.8457840000046,2638.8457840000046,2638.8457840000046,2638.8457840000046,2638.8457840000046,return,2.5117702999850735,2,0,0,1,0.48000000000000004,-0.4,return,2.427477999997791,5,13,0.48000000000000004,-0.4,,,,,,,,,,,,,,,,,,,,,,,,,,,,,,,,,,,,,,,,,,,,,,,,,,,,,,,,41PZUR,train_x,red_square,bottom_left,2025-09-02_17h07.30.495,HideSeek_v1,2022.2.5,59.91231232760306,
,0,4,3,4,3,0,46,,train_dim1_1,8,30,,,,2,0,2,0,,,,,,,,,0,0,0,0,0,7,7,7,0,0,0,0,,,,,,,,,,,,,,,,,,,,,,,,,stimuli/alien_stimuli/46.png,,,,,,,,,,,,,,,,,,,,,,,,,,,,,stimuli/alien_stimuli/66.png,66,3,9,,,,,,,30,,,,,,,,2646.7401292999857,2646.7401292999857,2646.7401292999857,2646.7401292999857,2646.7401292999857,right,5.293702900002245,2,0,0,99,-0.08,-0.08,right,5.19871799997054,,,,,2645.1714789999533,2646.7401292999857,0.48,-0.4,0.0,0.4,-0.4,0.48,0.27999999999999997,0.48,-0.4,2642.9328347999835,2642.9328347999835,2642.9328347999835,2642.9328347999835,2642.9328347999835,2642.9328347999835,2642.9328347999835,2642.9328347999835,2642.9197099799812,2.3542415000265464,return,2.213045399985276,,,,,,,,,,,,,,,,,,,,,,,,,,,,,,,,,41PZUR,train_x,red_square,bottom_left,2025-09-02_17h07.30.495,HideSeek_v1,2022.2.5,59.91231232760306,
,0,4,3,4,3,0,46,,train_dim1_1,8,30,,,,2,0,2,0,,,,,,,,,0,0,0,0,0,7,7,7,1,0,1,0,,,,,,,,,,,,,,,,,,,,,,,,,,,,,,,,,,,,,,,,,,,,,,,,,,,,,,,,,,,,,,,,30,,,,,,,,2652.0255635000067,2652.0255635000067,2652.0255635000067,2652.0255635000067,2652.0255635000067,right,0.4599203999969177,2,0,0,99,0.0,-0.08,right,0.379093199968338,,,,,,,,,,,,,,,,,,,,,,,,,,,,,,,,,,,,,,,,,,,,,,,,,,,,,,,,,,,,41PZUR,train_x,red_square,bottom_left,2025-09-02_17h07.30.495,HideSeek_v1,2022.2.5,59.91231232760306,
,0,4,3,4,3,0,46,,train_dim1_1,8,30,,,,2,0,2,0,,,,,,,,,0,0,0,0,0,7,7,7,2,0,2,0,,,,,,,,,,,,,,,,,,,,,,,,,,,,,,,,,,,,,,,,,,,,,,,,,,,,,,,,,,,,,,,,30,,,,,,,,2652.4908206999535,2652.4908206999535,2652.4908206999535,2652.4908206999535,2652.4908206999535,right,0.42673819995252416,2,0,0,99,0.08,-0.08,right,0.34252049995120615,,,,,,,,,,,,,,,,,,,,,,,,,,,,,,,,,,,,,,,,,,,,,,,,,,,,,,,,,,,,41PZUR,train_x,red_square,bottom_left,2025-09-02_17h07.30.495,HideSeek_v1,2022.2.5,59.91231232760306,
,0,4,3,4,3,0,46,,train_dim1_1,8,30,,,,2,0,2,0,,,,,,,,,0,0,0,0,0,7,7,7,3,0,3,0,,,,,,,,,,,,,,,,,,,,,,,,,,,,,,,,,,,,,,,,,,,,,,,,,,,,,,,,,,,,,,,,30,,,,,,,,2652.924527700001,2652.924527700001,2652.924527700001,2652.924527700001,2652.924527700001,return,1.0104283000109717,3,0,0,1,0.08,-0.08,return,0.9259564999956638,5,16,0.08,-0.08,,,,,,,,,,,,,,,,,,,,,,,,,,,,,,,,,,,,,,,,,,,,,,,,,,,,,,,,41PZUR,train_x,red_square,bottom_left,2025-09-02_17h07.30.495,HideSeek_v1,2022.2.5,59.91231232760306,
,1,0,5,0,4,0,56,,train_dim1_1,9,30,,,,2,0,2,0,,,,,,,,,0,0,0,0,0,8,8,8,0,0,0,0,,,,,,,,,,,,,,,,,,,,,,,,,stimuli/alien_stimuli/56.png,,,,,,,,,,,,,,,,,,,,,,,,,,,,,stimuli/alien_stimuli/46.png,46,0,10,,,,,,,30,,,,,,,,2659.6918423000025,2659.6918423000025,2659.6918423000025,2659.6918423000025,2659.6918423000025,right,2.674368800013326,3,0,0,99,0.0,-0.4,right,2.5864127000095323,,,,,2658.132392600004,2659.6918423000025,0.08,-0.08,0.0,0.24,-0.08,0.08,-0.04,0.08,-0.08,2655.498095799994,2655.498095799994,2655.498095799994,2655.498095799994,2655.498095799994,2655.498095799994,2655.498095799994,2655.498095799994,2655.4801433399784,2.7380724000395276,return,2.6097523999633268,,,,,,,,,,,,,,,,,,,,,,,,,,,,,,,,,41PZUR,train_x,red_square,bottom_left,2025-09-02_17h07.30.495,HideSeek_v1,2022.2.5,59.91231232760306,
,1,0,5,0,4,0,56,,train_dim1_1,9,30,,,,2,0,2,0,,,,,,,,,0,0,0,0,0,8,8,8,1,0,1,0,,,,,,,,,,,,,,,,,,,,,,,,,,,,,,,,,,,,,,,,,,,,,,,,,,,,,,,,,,,,,,,,30,,,,,,,,2662.371694499976,2662.371694499976,2662.371694499976,2662.371694499976,2662.371694499976,right,0.47273739997763187,3,0,0,99,0.08,-0.4,right,0.39388779998989776,,,,,,,,,,,,,,,,,,,,,,,,,,,,,,,,,,,,,,,,,,,,,,,,,,,,,,,,,,,,41PZUR,train_x,red_square,bottom_left,2025-09-02_17h07.30.495,HideSeek_v1,2022.2.5,59.91231232760306,
,1,0,5,0,4,0,56,,train_dim1_1,9,30,,,,2,0,2,0,,,,,,,,,0,0,0,0,0,8,8,8,2,0,2,0,,,,,,,,,,,,,,,,,,,,,,,,,,,,,,,,,,,,,,,,,,,,,,,,,,,,,,,,,,,,,,,,30,,,,,,,,2662.8512994999764,2662.8512994999764,2662.8512994999764,2662.8512994999764,2662.8512994999764,right,0.4768225000007078,3,0,0,99,0.16,-0.4,right,0.3954926000442356,,,,,,,,,,,,,,,,,,,,,,,,,,,,,,,,,,,,,,,,,,,,,,,,,,,,,,,,,,,,41PZUR,train_x,red_square,bottom_left,2025-09-02_17h07.30.495,HideSeek_v1,2022.2.5,59.91231232760306,
,1,0,5,0,4,0,56,,train_dim1_1,9,30,,,,2,0,2,0,,,,,,,,,0,0,0,0,0,8,8,8,3,0,3,0,,,,,,,,,,,,,,,,,,,,,,,,,,,,,,,,,,,,,,,,,,,,,,,,,,,,,,,,,,,,,,,,30,,,,,,,,2663.335250300006,2663.335250300006,2663.335250300006,2663.335250300006,2663.335250300006,right,0.9771169999730773,3,0,0,99,0.24,-0.4,right,0.9008883000351489,,,,,,,,,,,,,,,,,,,,,,,,,,,,,,,,,,,,,,,,,,,,,,,,,,,,,,,,,,,,41PZUR,train_x,red_square,bottom_left,2025-09-02_17h07.30.495,HideSeek_v1,2022.2.5,59.91231232760306,
,1,0,5,0,4,0,56,,train_dim1_1,9,30,,,,2,0,2,0,,,,,,,,,0,0,0,0,0,8,8,8,4,0,4,0,,,,,,,,,,,,,,,,,,,,,,,,,,,,,,,,,,,,,,,,,,,,,,,,,,,,,,,,,,,,,,,,30,,,,,,,,2664.319902499963,2664.319902499963,2664.319902499963,2664.319902499963,2664.319902499963,return,0.8271225999924354,4,0,0,1,0.24,-0.4,return,0.7403137999936007,5,20,0.24,-0.4,,,,,,,,,,,,,,,,,,,,,,,,,,,,,,,,,,,,,,,,,,,,,,,,,,,,,,,,41PZUR,train_x,red_square,bottom_left,2025-09-02_17h07.30.495,HideSeek_v1,2022.2.5,59.91231232760306,
,0,3,0,3,0,0,16,,train_dim1_1,10,30,,,,2,0,2,0,,,,,,,,,0,0,0,0,0,9,9,9,0,0,0,0,,,,,,,,,,,,,,,,,,,,,,,,,stimuli/alien_stimuli/16.png,,,,,,,,,,,,,,,,,,,,,,,,,,,,,stimuli/alien_stimuli/56.png,56,1,11,,,,,,,30,,,,,,,,2669.912319700001,2669.912319700001,2669.912319700001,2669.912319700001,2669.912319700001,return,2.440903300011996,5,0,0,1,-0.16,-0.16,return,2.344233700016048,5,20,-0.16,-0.16,2668.3405524999835,2669.912319700001,0.24,-0.4,0.0,0.32,-0.4,0.24,0.07999999999999999,0.24,-0.4,2666.7283995999605,2666.7283995999605,2666.7283995999605,2666.7283995999605,2666.7283995999605,2666.7283995999605,2666.7283995999605,2666.7283995999605,2666.722757819993,1.736996000050567,return,1.5941207999712788,,,,,,,,,,,,,,,,,,,,,,,,,,,,,,,,,41PZUR,train_x,red_square,bottom_left,2025-09-02_17h07.30.495,HideSeek_v1,2022.2.5,59.91231232760306,
,2,2,5,2,3,0,46,,train_dim1_1,11,30,,,,2,0,2,0,,,,,,,,,0,0,0,0,0,10,10,10,0,0,0,0,,,,,,,,,,,,,,,,,,,,,,,,,stimuli/alien_stimuli/46.png,,,,,,,,,,,,,,,,,,,,,,,,,,,,,stimuli/alien_stimuli/16.png,16,0,12,,,,,,,30,,,,,,,,2677.0360629999777,2677.0360629999777,2677.0360629999777,2677.0360629999777,2677.0360629999777,right,1.6190525999991223,5,0,0,99,0.08,-0.24,right,1.516519500000868,,,,,2675.463242299971,2677.0360629999777,-0.16,-0.16,0.0,0.0,-0.16,-0.16,-0.16,-0.16,-0.16,2673.904510399967,2673.904510399967,2673.904510399967,2673.904510399967,2673.904510399967,2673.904510399967,2673.904510399967,2673.904510399967,2673.8952904799544,1.6706027999753132,return,1.5383149999543093,,,,,,,,,,,,,,,,,,,,,,,,,,,,,,,,,41PZUR,train_x,red_square,bottom_left,2025-09-02_17h07.30.495,HideSeek_v1,2022.2.5,59.91231232760306,
,2,2,5,2,3,0,46,,train_dim1_1,11,30,,,,2,0,2,0,,,,,,,,,0,0,0,0,0,10,10,10,1,0,1,0,,,,,,,,,,,,,,,,,,,,,,,,,,,,,,,,,,,,,,,,,,,,,,,,,,,,,,,,,,,,,,,,30,,,,,,,,2678.6468580999644,2678.6468580999644,2678.6468580999644,2678.6468580999644,2678.6468580999644,right,0.4258698999765329,5,0,0,99,0.16,-0.24,right,0.35063619998982176,,,,,,,,,,,,,,,,,,,,,,,,,,,,,,,,,,,,,,,,,,,,,,,,,,,,,,,,,,,,41PZUR,train_x,red_square,bottom_left,2025-09-02_17h07.30.495,HideSeek_v1,2022.2.5,59.91231232760306,
,2,2,5,2,3,0,46,,train_dim1_1,11,30,,,,2,0,2,0,,,,,,,,,0,0,0,0,0,10,10,10,2,0,2,0,,,,,,,,,,,,,,,,,,,,,,,,,,,,,,,,,,,,,,,,,,,,,,,,,,,,,,,,,,,,,,,,30,,,,,,,,2679.0827441999572,2679.0827441999572,2679.0827441999572,2679.0827441999572,2679.0827441999572,right,0.4571499000303447,5,0,0,99,0.24,-0.24,right,0.37141199997859076,,,,,,,,,,,,,,,,,,,,,,,,,,,,,,,,,,,,,,,,,,,,,,,,,,,,,,,,,,,,41PZUR,train_x,red_square,bottom_left,2025-09-02_17h07.30.495,HideSeek_v1,2022.2.5,59.91231232760306,
,2,2,5,2,3,0,46,,train_dim1_1,11,30,,,,2,0,2,0,,,,,,,,,0,0,0,0,0,10,10,10,3,0,3,0,,,,,,,,,,,,,,,,,,,,,,,,,,,,,,,,,,,,,,,,,,,,,,,,,,,,,,,,,,,,,,,,30,,,,,,,,2679.546654000005,2679.546654000005,2679.546654000005,2679.546654000005,2679.546654000005,return,0.5436922999797389,6,0,0,1,0.24,-0.24,return,0.4614094999851659,5,23,0.24,-0.24,,,,,,,,,,,,,,,,,,,,,,,,,,,,,,,,,,,,,,,,,,,,,,,,,,,,,,,,41PZUR,train_x,red_square,bottom_left,2025-09-02_17h07.30.495,HideSeek_v1,2022.2.5,59.91231232760306,
,0,0,1,0,1,0,26,,train_dim1_1,12,30,,,,2,0,2,0,,,,,,,,,0,0,0,0,0,11,11,11,0,0,0,0,,,,,,,,,,,,,,,,,,,,,,,,,stimuli/alien_stimuli/26.png,,,,,,,,,,,,,,,,,,,,,,,,,,,,,stimuli/alien_stimuli/46.png,46,2,13,,,,,,,30,,,,,,,,2684.450274899951,2684.450274899951,2684.450274899951,2684.450274899951,2684.450274899951,right,2.039334399974905,6,0,0,99,-0.08,-0.4,right,1.9262666000286117,,,,,2682.8694440999534,2684.450274899951,0.24,-0.24,0.0,0.24,-0.24,0.24,0.12,0.24,-0.24,2681.6518720999593,2681.6518720999593,2681.6518720999593,2681.6518720999593,2681.6518720999593,2681.6518720999593,2681.6518720999593,2681.6518720999593,2681.635122339963,1.3202758000115864,return,1.1878838000120595,,,,,,,,,,,,,,,,,,,,,,,,,,,,,,,,,41PZUR,train_x,red_square,bottom_left,2025-09-02_17h07.30.495,HideSeek_v1,2022.2.5,59.91231232760306,
,0,0,1,0,1,0,26,,train_dim1_1,12,30,,,,2,0,2,0,,,,,,,,,0,0,0,0,0,11,11,11,1,0,1,0,,,,,,,,,,,,,,,,,,,,,,,,,,,,,,,,,,,,,,,,,,,,,,,,,,,,,,,,,,,,,,,,30,,,,,,,,2686.4740911999834,2686.4740911999834,2686.4740911999834,2686.4740911999834,2686.4740911999834,return,0.34292839997215196,7,0,0,1,-0.08,-0.4,return,0.25564859999576584,5,24,-0.08,-0.4,,,,,,,,,,,,,,,,,,,,,,,,,,,,,,,,,,,,,,,,,,,,,,,,,,,,,,,,41PZUR,train_x,red_square,bottom_left,2025-09-02_17h07.30.495,HideSeek_v1,2022.2.5,59.91231232760306,
,0,4,4,4,4,0,56,,train_dim1_1,13,30,,,,2,0,2,0,,,,,,,,,0,0,0,0,0,12,12,12,0,0,0,0,,,,,,,,,,,,,,,,,,,,,,,,,stimuli/alien_stimuli/56.png,,,,,,,,,,,,,,,,,,,,,,,,,,,,,stimuli/alien_stimuli/26.png,26,0,14,,,,,,,30,,,,,,,,2691.589869999967,2691.589869999967,2691.589869999967,2691.589869999967,2691.589869999967,right,1.252046799985692,7,0,0,99,-0.08,-0.08,right,1.162216599972453,,,,,2690.0255453999853,2691.589869999967,-0.08,-0.4,0.0,0.08,-0.4,-0.08,-0.12,-0.08,-0.4,2688.3806601999677,2688.3806601999677,2688.3806601999677,2688.3806601999677,2688.3806601999677,2688.3806601999677,2688.3806601999677,2688.3806601999677,2688.374063979968,1.7538127999869175,return,1.6135837999754585,,,,,,,,,,,,,,,,,,,,,,,,,,,,,,,,,41PZUR,train_x,red_square,bottom_left,2025-09-02_17h07.30.495,HideSeek_v1,2022.2.5,59.91231232760306,
,0,4,4,4,4,0,56,,train_dim1_1,13,30,,,,2,0,2,0,,,,,,,,,0,0,0,0,0,12,12,12,1,0,1,0,,,,,,,,,,,,,,,,,,,,,,,,,,,,,,,,,,,,,,,,,,,,,,,,,,,,,,,,,,,,,,,,30,,,,,,,,2692.8435242999694,2692.8435242999694,2692.8435242999694,2692.8435242999694,2692.8435242999694,right,0.5100716999731958,7,0,0,99,0.0,-0.08,right,0.4268426999915391,,,,,,,,,,,,,,,,,,,,,,,,,,,,,,,,,,,,,,,,,,,,,,,,,,,,,,,,,,,,41PZUR,train_x,red_square,bottom_left,2025-09-02_17h07.30.495,HideSeek_v1,2022.2.5,59.91231232760306,
,0,4,4,4,4,0,56,,train_dim1_1,13,30,,,,2,0,2,0,,,,,,,,,0,0,0,0,0,12,12,12,2,0,2,0,,,,,,,,,,,,,,,,,,,,,,,,,,,,,,,,,,,,,,,,,,,,,,,,,,,,,,,,,,,,,,,,30,,,,,,,,2693.360571599973,2693.360571599973,2693.360571599973,2693.360571599973,2693.360571599973,right,0.5934640999766998,7,0,0,99,0.08,-0.08,right,0.504761399992276,,,,,,,,,,,,,,,,,,,,,,,,,,,,,,,,,,,,,,,,,,,,,,,,,,,,,,,,,,,,41PZUR,train_x,red_square,bottom_left,2025-09-02_17h07.30.495,HideSeek_v1,2022.2.5,59.91231232760306,
,0,4,4,4,4,0,56,,train_dim1_1,13,30,,,,2,0,2,0,,,,,,,,,0,0,0,0,0,12,12,12,3,0,3,0,,,,,,,,,,,,,,,,,,,,,,,,,,,,,,,,,,,,,,,,,,,,,,,,,,,,,,,,,,,,,,,,30,,,,,,,,2693.960048499983,2693.960048499983,2693.960048499983,2693.960048499983,2693.960048499983,right,0.5265538999810815,7,0,0,99,0.16,-0.08,right,0.45186470000771806,,,,,,,,,,,,,,,,,,,,,,,,,,,,,,,,,,,,,,,,,,,,,,,,,,,,,,,,,,,,41PZUR,train_x,red_square,bottom_left,2025-09-02_17h07.30.495,HideSeek_v1,2022.2.5,59.91231232760306,
,0,4,4,4,4,0,56,,train_dim1_1,13,30,,,,2,0,2,0,,,,,,,,,0,0,0,0,0,12,12,12,4,0,4,0,,,,,,,,,,,,,,,,,,,,,,,,,,,,,,,,,,,,,,,,,,,,,,,,,,,,,,,,,,,,,,,,30,,,,,,,,2694.4944742999505,2694.4944742999505,2694.4944742999505,2694.4944742999505,2694.4944742999505,right,0.5436305999755859,7,0,0,99,0.24,-0.08,right,0.46002359996782616,,,,,,,,,,,,,,,,,,,,,,,,,,,,,,,,,,,,,,,,,,,,,,,,,,,,,,,,,,,,41PZUR,train_x,red_square,bottom_left,2025-09-02_17h07.30.495,HideSeek_v1,2022.2.5,59.91231232760306,
,0,4,4,4,4,0,56,,train_dim1_1,13,30,,,,2,0,2,0,,,,,,,,,0,0,0,0,0,12,12,12,5,0,5,0,,,,,,,,,,,,,,,,,,,,,,,,,,,,,,,,,,,,,,,,,,,,,,,,,,,,,,,,,,,,,,,,30,,,,,,,,2695.04473959998,2695.04473959998,2695.04473959998,2695.04473959998,2695.04473959998,return,0.4265954000293277,7,1,0,0,0.24,-0.08,return,0.34901950001949444,5,29,0.24,-0.08,,,,,,,,,,,,,,,,,,,,,,,,,,,,,,,,,,,,,,,,,,,,,,,,,,,,,,,,41PZUR,train_x,red_square,bottom_left,2025-09-02_17h07.30.495,HideSeek_v1,2022.2.5,59.91231232760306,
,4,3,4,3,0,0,16,,train_dim1_1,14,30,,,,2,0,2,0,,,,,,,,,0,0,0,0,0,13,13,13,0,0,0,0,,,,,,,,,,,,,,,,,,,,,,,,,stimuli/alien_stimuli/16.png,,,,,,,,,,,,,,,,,,,,,,,,,,,,,stimuli/alien_stimuli/56.png,56,0,15,,,,,,,30,,,,,,,,2704.9346342000063,2704.9346342000063,2704.9346342000063,2704.9346342000063,2704.9346342000063,return,2.4881828000070527,8,0,0,1,0.16,-0.16,return,2.390291999967303,5,29,0.16,-0.16,2703.36967689998,2704.9346342000063,0.16,-0.08,0.0,0.32,-0.08,0.16,0.0,0.16,-0.08,2697.035782399995,2697.035782399995,2697.035782399995,2697.035782399995,2697.035782399995,2697.035782399995,2697.035782399995,2697.035782399995,2697.0145060399896,6.44202930002939,return,6.30236979998881,,,,,,,,,,,,,,,,,,,,,,,,,,,,,,,,,41PZUR,train_x,red_square,bottom_left,2025-09-02_17h07.30.495,HideSeek_v1,2022.2.5,59.91231232760306,
,4,2,9,2,5,0,66,,train_dim1_1,15,30,,,,2,0,2,0,,,,,,,,,0,0,0,0,0,14,14,14,0,0,0,0,,,,,,,,,,,,,,,,,,,,,,,,,stimuli/alien_stimuli/66.png,,,,,,,,,,,,,,,,,,,,,,,,,,,,,stimuli/alien_stimuli/16.png,16,4,16,,,,,,,30,,,,,,,,2711.6864323999616,2711.6864323999616,2711.6864323999616,2711.6864323999616,2711.6864323999616,right,2.190131399955135,8,0,0,99,0.24,-0.24,right,2.10764790000394,,,,,2710.125466199999,2711.6864323999616,0.16,-0.16,0.0,0.0,-0.16,0.16,0.16,0.16,-0.16,2708.9948071999825,2708.9948071999825,2708.9948071999825,2708.9948071999825,2708.9948071999825,2708.9948071999825,2708.9948071999825,2708.9948071999825,2708.9745092799594,1.253292799985502,return,1.1009869999834336,,,,,,,,,,,,,,,,,,,,,,,,,,,,,,,,,41PZUR,train_x,red_square,bottom_left,2025-09-02_17h07.30.495,HideSeek_v1,2022.2.5,59.91231232760306,
,4,2,9,2,5,0,66,,train_dim1_1,15,30,,,,2,0,2,0,,,,,,,,,0,0,0,0,0,14,14,14,1,0,1,0,,,,,,,,,,,,,,,,,,,,,,,,,,,,,,,,,,,,,,,,,,,,,,,,,,,,,,,,,,,,,,,,30,,,,,,,,2713.8865084999707,2713.8865084999707,2713.8865084999707,2713.8865084999707,2713.8865084999707,right,0.48561510001309216,8,0,0,99,0.32,-0.24,right,0.39598060003481805,,,,,,,,,,,,,,,,,,,,,,,,,,,,,,,,,,,,,,,,,,,,,,,,,,,,,,,,,,,,41PZUR,train_x,red_square,bottom_left,2025-09-02_17h07.30.495,HideSeek_v1,2022.2.5,59.91231232760306,
,4,2,9,2,5,0,66,,train_dim1_1,15,30,,,,2,0,2,0,,,,,,,,,0,0,0,0,0,14,14,14,2,0,2,0,,,,,,,,,,,,,,,,,,,,,,,,,,,,,,,,,,,,,,,,,,,,,,,,,,,,,,,,,,,,,,,,30,,,,,,,,2714.3767014999758,2714.3767014999758,2714.3767014999758,2714.3767014999758,2714.3767014999758,right,0.5095987000386231,8,0,0,99,0.4,-0.24,right,0.42939130001468584,,,,,,,,,,,,,,,,,,,,,,,,,,,,,,,,,,,,,,,,,,,,,,,,,,,,,,,,,,,,41PZUR,train_x,red_square,bottom_left,2025-09-02_17h07.30.495,HideSeek_v1,2022.2.5,59.91231232760306,
,4,2,9,2,5,0,66,,train_dim1_1,15,30,,,,2,0,2,0,,,,,,,,,0,0,0,0,0,14,14,14,3,0,3,0,,,,,,,,,,,,,,,,,,,,,,,,,,,,,,,,,,,,,,,,,,,,,,,,,,,,,,,,,,,,,,,,30,,,,,,,,2714.892464799981,2714.892464799981,2714.892464799981,2714.892464799981,2714.892464799981,right,0.5105544999823906,8,0,0,99,0.48000000000000004,-0.24,right,0.4269719999865629,,,,,,,,,,,,,,,,,,,,,,,,,,,,,,,,,,,,,,,,,,,,,,,,,,,,,,,,,,,,41PZUR,train_x,red_square,bottom_left,2025-09-02_17h07.30.495,HideSeek_v1,2022.2.5,59.91231232760306,
,4,2,9,2,5,0,66,,train_dim1_1,15,30,,,,2,0,2,0,,,,,,,,,0,0,0,0,0,14,14,14,4,0,4,0,,,,,,,,,,,,,,,,,,,,,,,,,,,,,,,,,,,,,,,,,,,,,,,,,,,,,,,,,,,,,,,,30,,,,,,,,2715.4096441,2715.4096441,2715.4096441,2715.4096441,2715.4096441,return,0.4598295000032522,8,1,0,0,0.48000000000000004,-0.24,return,0.3830104999942705,5,33,0.48000000000000004,-0.24,,,,,,,,,,,,,,,,,,,,,,,,,,,,,,,,,,,,,,,,,,,,,,,,,,,,,,,,41PZUR,train_x,red_square,bottom_left,2025-09-02_17h07.30.495,HideSeek_v1,2022.2.5,59.91231232760306,
,3,3,7,3,4,0,56,,train_dim1_1,16,30,,,,2,0,2,0,,,,,,,,,0,0,0,0,0,15,15,15,0,0,0,0,,,,,,,,,,,,,,,,,,,,,,,,,stimuli/alien_stimuli/56.png,,,,,,,,,,,,,,,,,,,,,,,,,,,,,stimuli/alien_stimuli/66.png,66,4,17,,,,,,,30,,,,,,,,2723.9138936999952,2723.9138936999952,2723.9138936999952,2723.9138936999952,2723.9138936999952,right,1.8231769999838434,8,1,0,99,0.16,-0.16,right,1.7368906999472529,,,,,2722.35214719997,2723.9138936999952,0.56,-0.24,0.0,0.4,-0.24,0.56,0.36000000000000004,0.56,-0.24,2717.4314765000017,2717.4314765000017,2717.4314765000017,2717.4314765000017,2717.4314765000017,2717.4314765000017,2717.4314765000017,2717.4314765000017,2717.414952639979,5.02304640004877,return,4.903576299955603,,,,,,,,,,,,,,,,,,,,,,,,,,,,,,,,,41PZUR,train_x,red_square,bottom_left,2025-09-02_17h07.30.495,HideSeek_v1,2022.2.5,59.91231232760306,
,3,3,7,3,4,0,56,,train_dim1_1,16,30,,,,2,0,2,0,,,,,,,,,0,0,0,0,0,15,15,15,1,0,1,0,,,,,,,,,,,,,,,,,,,,,,,,,,,,,,,,,,,,,,,,,,,,,,,,,,,,,,,,,,,,,,,,30,,,,,,,,2725.7403187999735,2725.7403187999735,2725.7403187999735,2725.7403187999735,2725.7403187999735,right,0.5733357999706641,8,1,0,99,0.24,-0.16,right,0.4915622000116855,,,,,,,,,,,,,,,,,,,,,,,,,,,,,,,,,,,,,,,,,,,,,,,,,,,,,,,,,,,,41PZUR,train_x,red_square,bottom_left,2025-09-02_17h07.30.495,HideSeek_v1,2022.2.5,59.91231232760306,
,3,3,7,3,4,0,56,,train_dim1_1,16,30,,,,2,0,2,0,,,,,,,,,0,0,0,0,0,15,15,15,2,0,2,0,,,,,,,,,,,,,,,,,,,,,,,,,,,,,,,,,,,,,,,,,,,,,,,,,,,,,,,,,,,,,,,,30,,,,,,,,2726.3214541999623,2726.3214541999623,2726.3214541999623,2726.3214541999623,2726.3214541999623,right,0.593211000028532,8,1,0,99,0.32,-0.16,right,0.5111927999532782,,,,,,,,,,,,,,,,,,,,,,,,,,,,,,,,,,,,,,,,,,,,,,,,,,,,,,,,,,,,41PZUR,train_x,red_square,bottom_left,2025-09-02_17h07.30.495,HideSeek_v1,2022.2.5,59.91231232760306,
,3,3,7,3,4,0,56,,train_dim1_1,16,30,,,,2,0,2,0,,,,,,,,,0,0,0,0,0,15,15,15,3,0,3,0,,,,,,,,,,,,,,,,,,,,,,,,,,,,,,,,,,,,,,,,,,,,,,,,,,,,,,,,,,,,,,,,30,,,,,,,,2726.9218228999525,2726.9218228999525,2726.9218228999525,2726.9218228999525,2726.9218228999525,right,0.660170300048776,8,1,0,99,0.4,-0.16,right,0.5854728000122122,,,,,,,,,,,,,,,,,,,,,,,,,,,,,,,,,,,,,,,,,,,,,,,,,,,,,,,,,,,,41PZUR,train_x,red_square,bottom_left,2025-09-02_17h07.30.495,HideSeek_v1,2022.2.5,59.91231232760306,
,3,3,7,3,4,0,56,,train_dim1_1,16,30,,,,2,0,2,0,,,,,,,,,0,0,0,0,0,15,15,15,4,0,4,0,,,,,,,,,,,,,,,,,,,,,,,,,,,,,,,,,,,,,,,,,,,,,,,,,,,,,,,,,,,,,,,,30,,,,,,,,2727.5885707999696,2727.5885707999696,2727.5885707999696,2727.5885707999696,2727.5885707999696,right,0.9937722999602556,8,1,0,99,0.48000000000000004,-0.16,right,0.9121586999972351,,,,,,,,,,,,,,,,,,,,,,,,,,,,,,,,,,,,,,,,,,,,,,,,,,,,,,,,,,,,41PZUR,train_x,red_square,bottom_left,2025-09-02_17h07.30.495,HideSeek_v1,2022.2.5,59.91231232760306,
,3,3,7,3,4,0,56,,train_dim1_1,16,30,,,,2,0,2,0,,,,,,,,,0,0,0,0,0,15,15,15,5,0,5,0,,,,,,,,,,,,,,,,,,,,,,,,,,,,,,,,,,,,,,,,,,,,,,,,,,,,,,,,,,,,,,,,30,,,,,,,,2728.589048599999,2728.589048599999,2728.589048599999,2728.589048599999,2728.589048599999,right,1.077401100017596,8,1,0,99,0.56,-0.16,right,1.0010086999973282,,,,,,,,,,,,,,,,,,,,,,,,,,,,,,,,,,,,,,,,,,,,,,,,,,,,,,,,,,,,41PZUR,train_x,red_square,bottom_left,2025-09-02_17h07.30.495,HideSeek_v1,2022.2.5,59.91231232760306,
,3,3,7,3,4,0,56,,train_dim1_1,16,30,,,,2,0,2,0,,,,,,,,,0,0,0,0,0,15,15,15,6,0,6,0,,,,,,,,,,,,,,,,,,,,,,,,,,,,,,,,,,,,,,,,,,,,,,,,,,,,,,,,,,,,,,,,30,,,,,,,,2729.676413999987,2729.676413999987,2729.676413999987,2729.676413999987,2729.676413999987,return,0.9407579000107944,8,0,0,0,0.56,-0.16,return,0.8570690000196919,5,39,0.56,-0.16,,,,,,,,,,,,,,,,,,,,,,,,,,,,,,,,,,,,,,,,,,,,,,,,,,,,,,,,41PZUR,train_x,red_square,bottom_left,2025-09-02_17h07.30.495,HideSeek_v1,2022.2.5,59.91231232760306,
,2,4,3,4,1,0,26,,train_dim1_1,17,30,,,,2,0,2,0,,,,,,,,,0,0,0,0,0,16,16,16,0,0,0,0,,,,,,,,,,,,,,,,,,,,,,,,,stimuli/alien_stimuli/26.png,,,,,,,,,,,,,,,,,,,,,,,,,,,,,stimuli/alien_stimuli/56.png,56,3,18,,,,,,,30,,,,,,,,2735.9388550999574,2735.9388550999574,2735.9388550999574,2735.9388550999574,2735.9388550999574,right,2.1546937999664806,8,0,0,99,0.08,-0.08,right,2.0558820000151172,,,,,2734.3623700999888,2735.9388550999574,0.4,-0.16,0.0,0.32,-0.16,0.4,0.24000000000000002,0.4,-0.16,2732.1950212999946,2732.1950212999946,2732.1950212999946,2732.1950212999946,2732.1950212999946,2732.1950212999946,2732.1950212999946,2732.1950212999946,2732.176861779956,2.287873999972362,return,2.137387300026603,,,,,,,,,,,,,,,,,,,,,,,,,,,,,,,,,41PZUR,train_x,red_square,bottom_left,2025-09-02_17h07.30.495,HideSeek_v1,2022.2.5,59.91231232760306,
,2,4,3,4,1,0,26,,train_dim1_1,17,30,,,,2,0,2,0,,,,,,,,,0,0,0,0,0,16,16,16,1,0,1,0,,,,,,,,,,,,,,,,,,,,,,,,,,,,,,,,,,,,,,,,,,,,,,,,,,,,,,,,,,,,,,,,30,,,,,,,,2738.084095500002,2738.084095500002,2738.084095500002,2738.084095500002,2738.084095500002,return,0.32609520002733916,9,0,0,1,0.08,-0.08,return,0.2492350999964401,5,40,0.08,-0.08,,,,,,,,,,,,,,,,,,,,,,,,,,,,,,,,,,,,,,,,,,,,,,,,,,,,,,,,41PZUR,train_x,red_square,bottom_left,2025-09-02_17h07.30.495,HideSeek_v1,2022.2.5,59.91231232760306,
,2,1,7,1,5,0,66,,train_dim1_1,18,30,,,,2,0,2,0,,,,,,,,,0,0,0,0,0,17,17,17,0,0,0,0,,,,,,,,,,,,,,,,,,,,,,,,,stimuli/alien_stimuli/66.png,,,,,,,,,,,,,,,,,,,,,,,,,,,,,stimuli/alien_stimuli/26.png,26,2,19,,,,,,,30,,,,,,,,2742.9850445999764,2742.9850445999764,2742.9850445999764,2742.9850445999764,2742.9850445999764,right,1.367760900000576,9,0,0,99,0.08,-0.32,right,1.2619889000197873,,,,,2741.4013696999755,2742.9850445999764,0.08,-0.08,0.0,0.08,-0.08,0.08,0.04,0.08,-0.08,2739.9761494999984,2739.9761494999984,2739.9761494999984,2739.9761494999984,2739.9761494999984,2739.9761494999984,2739.9761494999984,2739.9761494999984,2739.9669946799577,1.53691029996844,return,1.4035325999720953,,,,,,,,,,,,,,,,,,,,,,,,,,,,,,,,,41PZUR,train_x,red_square,bottom_left,2025-09-02_17h07.30.495,HideSeek_v1,2022.2.5,59.91231232760306,
,2,1,7,1,5,0,66,,train_dim1_1,18,30,,,,2,0,2,0,,,,,,,,,0,0,0,0,0,17,17,17,1,0,1,0,,,,,,,,,,,,,,,,,,,,,,,,,,,,,,,,,,,,,,,,,,,,,,,,,,,,,,,,,,,,,,,,30,,,,,,,,2744.3381493999623,2744.3381493999623,2744.3381493999623,2744.3381493999623,2744.3381493999623,right,0.5234060999937356,9,0,0,99,0.16,-0.32,right,0.4439323000260629,,,,,,,,,,,,,,,,,,,,,,,,,,,,,,,,,,,,,,,,,,,,,,,,,,,,,,,,,,,,41PZUR,train_x,red_square,bottom_left,2025-09-02_17h07.30.495,HideSeek_v1,2022.2.5,59.91231232760306,
,2,1,7,1,5,0,66,,train_dim1_1,18,30,,,,2,0,2,0,,,,,,,,,0,0,0,0,0,17,17,17,2,0,2,0,,,,,,,,,,,,,,,,,,,,,,,,,,,,,,,,,,,,,,,,,,,,,,,,,,,,,,,,,,,,,,,,30,,,,,,,,2744.868836299982,2744.868836299982,2744.868836299982,2744.868836299982,2744.868836299982,right,0.4763649000087753,9,0,0,99,0.24,-0.32,right,0.40016719995765015,,,,,,,,,,,,,,,,,,,,,,,,,,,,,,,,,,,,,,,,,,,,,,,,,,,,,,,,,,,,41PZUR,train_x,red_square,bottom_left,2025-09-02_17h07.30.495,HideSeek_v1,2022.2.5,59.91231232760306,
,2,1,7,1,5,0,66,,train_dim1_1,18,30,,,,2,0,2,0,,,,,,,,,0,0,0,0,0,17,17,17,3,0,3,0,,,,,,,,,,,,,,,,,,,,,,,,,,,,,,,,,,,,,,,,,,,,,,,,,,,,,,,,,,,,,,,,30,,,,,,,,2745.350678399962,2745.350678399962,2745.350678399962,2745.350678399962,2745.350678399962,right,0.5268528999877162,9,0,0,99,0.32,-0.32,right,0.4512848000158556,,,,,,,,,,,,,,,,,,,,,,,,,,,,,,,,,,,,,,,,,,,,,,,,,,,,,,,,,,,,41PZUR,train_x,red_square,bottom_left,2025-09-02_17h07.30.495,HideSeek_v1,2022.2.5,59.91231232760306,
,2,1,7,1,5,0,66,,train_dim1_1,18,30,,,,2,0,2,0,,,,,,,,,0,0,0,0,0,17,17,17,4,0,4,0,,,,,,,,,,,,,,,,,,,,,,,,,,,,,,,,,,,,,,,,,,,,,,,,,,,,,,,,,,,,,,,,30,,,,,,,,2745.888627599983,2745.888627599983,2745.888627599983,2745.888627599983,2745.888627599983,return,0.6738323000026867,9,1,0,0,0.32,-0.32,return,0.593362600018736,5,44,0.32,-0.32,,,,,,,,,,,,,,,,,,,,,,,,,,,,,,,,,,,,,,,,,,,,,,,,,,,,,,,,41PZUR,train_x,red_square,bottom_left,2025-09-02_17h07.30.495,HideSeek_v1,2022.2.5,59.91231232760306,
,0,3,3,3,3,0,46,,train_dim1_1,19,30,,,,2,0,2,0,,,,,,,,,0,0,0,0,0,18,18,18,0,0,0,0,,,,,,,,,,,,,,,,,,,,,,,,,stimuli/alien_stimuli/46.png,,,,,,,,,,,,,,,,,,,,,,,,,,,,,stimuli/alien_stimuli/66.png,66,2,20,,,,,,,30,,,,,,,,2752.373207699973,2752.373207699973,2752.373207699973,2752.373207699973,2752.373207699973,right,1.7348171999910846,9,1,0,99,-0.08,-0.16,right,1.64592649997212,,,,,2750.809221799951,2752.373207699973,0.4,-0.32,0.0,0.4,-0.32,0.4,0.2,0.4,-0.32,2748.124060699949,2748.124060699949,2748.124060699949,2748.124060699949,2748.124060699949,2748.124060699949,2748.124060699949,2748.124060699949,2748.1069723399937,2.788071700022556,return,2.6692943000234663,,,,,,,,,,,,,,,,,,,,,,,,,,,,,,,,,41PZUR,train_x,red_square,bottom_left,2025-09-02_17h07.30.495,HideSeek_v1,2022.2.5,59.91231232760306,
,0,3,3,3,3,0,46,,train_dim1_1,19,30,,,,2,0,2,0,,,,,,,,,0,0,0,0,0,18,18,18,1,0,1,0,,,,,,,,,,,,,,,,,,,,,,,,,,,,,,,,,,,,,,,,,,,,,,,,,,,,,,,,,,,,,,,,30,,,,,,,,2754.1090825999854,2754.1090825999854,2754.1090825999854,2754.1090825999854,2754.1090825999854,right,0.44310249999398366,9,1,0,99,0.0,-0.16,right,0.3566125999786891,,,,,,,,,,,,,,,,,,,,,,,,,,,,,,,,,,,,,,,,,,,,,,,,,,,,,,,,,,,,41PZUR,train_x,red_square,bottom_left,2025-09-02_17h07.30.495,HideSeek_v1,2022.2.5,59.91231232760306,
,0,3,3,3,3,0,46,,train_dim1_1,19,30,,,,2,0,2,0,,,,,,,,,0,0,0,0,0,18,18,18,2,0,2,0,,,,,,,,,,,,,,,,,,,,,,,,,,,,,,,,,,,,,,,,,,,,,,,,,,,,,,,,,,,,,,,,30,,,,,,,,2754.558950799983,2754.558950799983,2754.558950799983,2754.558950799983,2754.558950799983,right,0.4101459000376053,9,1,0,99,0.08,-0.16,right,0.3259855000069365,,,,,,,,,,,,,,,,,,,,,,,,,,,,,,,,,,,,,,,,,,,,,,,,,,,,,,,,,,,,41PZUR,train_x,red_square,bottom_left,2025-09-02_17h07.30.495,HideSeek_v1,2022.2.5,59.91231232760306,
,0,3,3,3,3,0,46,,train_dim1_1,19,30,,,,2,0,2,0,,,,,,,,,0,0,0,0,0,18,18,18,3,0,3,0,,,,,,,,,,,,,,,,,,,,,,,,,,,,,,,,,,,,,,,,,,,,,,,,,,,,,,,,,,,,,,,,30,,,,,,,,2754.976254599984,2754.976254599984,2754.976254599984,2754.976254599984,2754.976254599984,return,0.6769932999741286,10,0,0,1,0.08,-0.16,return,0.5979289999813773,5,47,0.08,-0.16,,,,,,,,,,,,,,,,,,,,,,,,,,,,,,,,,,,,,,,,,,,,,,,,,,,,,,,,41PZUR,train_x,red_square,bottom_left,2025-09-02_17h07.30.495,HideSeek_v1,2022.2.5,59.91231232760306,
,0,1,0,1,0,0,16,,train_dim1_1,20,30,,,,2,0,2,0,,,,,,,,,0,0,0,0,0,19,19,19,0,0,0,0,,,,,,,,,,,,,,,,,,,,,,,,,stimuli/alien_stimuli/16.png,,,,,,,,,,,,,,,,,,,,,,,,,,,,,stimuli/alien_stimuli/46.png,46,0,21,,,,,,,30,,,,,,,,2760.4269301999593,2760.4269301999593,2760.4269301999593,2760.4269301999593,2760.4269301999593,right,4.1073026999947615,10,0,0,99,-0.08,-0.32,right,3.9959226000355557,,,,,2758.8491665999754,2760.4269301999593,0.08,-0.16,0.0,0.24,-0.16,0.08,-0.04,0.08,-0.16,2757.217128899996,2757.217128899996,2757.217128899996,2757.217128899996,2757.217128899996,2757.217128899996,2757.217128899996,2757.217128899996,2757.1976104399887,1.7369181999820285,return,1.603946299990639,,,,,,,,,,,,,,,,,,,,,,,,,,,,,,,,,41PZUR,train_x,red_square,bottom_left,2025-09-02_17h07.30.495,HideSeek_v1,2022.2.5,59.91231232760306,
,0,1,0,1,0,0,16,,train_dim1_1,20,30,,,,2,0,2,0,,,,,,,,,0,0,0,0,0,19,19,19,1,0,1,0,,,,,,,,,,,,,,,,,,,,,,,,,,,,,,,,,,,,,,,,,,,,,,,,,,,,,,,,,,,,,,,,30,,,,,,,,2764.5223899999983,2764.5223899999983,2764.5223899999983,2764.5223899999983,2764.5223899999983,return,0.4595746000413783,10,1,0,0,-0.08,-0.32,return,0.3811343999695964,5,48,-0.08,-0.32,,,,,,,,,,,,,,,,,,,,,,,,,,,,,,,,,,,,,,,,,,,,,,,,,,,,,,,,41PZUR,train_x,red_square,bottom_left,2025-09-02_17h07.30.495,HideSeek_v1,2022.2.5,59.91231232760306,
,4,2,7,2,3,0,46,,train_dim1_1,21,30,,,,2,0,2,0,,,,,,,,,0,0,0,0,0,20,20,20,0,0,0,0,,,,,,,,,,,,,,,,,,,,,,,,,stimuli/alien_stimuli/46.png,,,,,,,,,,,,,,,,,,,,,,,,,,,,,stimuli/alien_stimuli/16.png,16,0,22,,,,,,,30,,,,,,,,2769.849554299959,2769.849554299959,2769.849554299959,2769.849554299959,2769.849554299959,right,2.774003200000152,10,1,0,99,0.24,-0.24,right,2.665106500033289,,,,,2768.2737020999775,2769.849554299959,-0.16,-0.32,0.0,0.0,-0.32,-0.16,-0.16,-0.16,-0.32,2766.547690599982,2766.547690599982,2766.547690599982,2766.547690599982,2766.547690599982,2766.547690599982,2766.547690599982,2766.547690599982,2766.5388619799805,1.8371438999893144,return,1.6967258999939077,,,,,,,,,,,,,,,,,,,,,,,,,,,,,,,,,41PZUR,train_x,red_square,bottom_left,2025-09-02_17h07.30.495,HideSeek_v1,2022.2.5,59.91231232760306,
,4,2,7,2,3,0,46,,train_dim1_1,21,30,,,,2,0,2,0,,,,,,,,,0,0,0,0,0,20,20,20,1,0,1,0,,,,,,,,,,,,,,,,,,,,,,,,,,,,,,,,,,,,,,,,,,,,,,,,,,,,,,,,,,,,,,,,30,,,,,,,,2772.6119001999614,2772.6119001999614,2772.6119001999614,2772.6119001999614,2772.6119001999614,right,0.4232688000192866,10,1,0,99,0.32,-0.24,right,0.34851209999760613,,,,,,,,,,,,,,,,,,,,,,,,,,,,,,,,,,,,,,,,,,,,,,,,,,,,,,,,,,,,41PZUR,train_x,red_square,bottom_left,2025-09-02_17h07.30.495,HideSeek_v1,2022.2.5,59.91231232760306,
,4,2,7,2,3,0,46,,train_dim1_1,21,30,,,,2,0,2,0,,,,,,,,,0,0,0,0,0,20,20,20,2,0,2,0,,,,,,,,,,,,,,,,,,,,,,,,,,,,,,,,,,,,,,,,,,,,,,,,,,,,,,,,,,,,,,,,30,,,,,,,,2773.04396359995,2773.04396359995,2773.04396359995,2773.04396359995,2773.04396359995,right,0.4071478000259958,10,1,0,99,0.4,-0.24,right,0.32390909997047856,,,,,,,,,,,,,,,,,,,,,,,,,,,,,,,,,,,,,,,,,,,,,,,,,,,,,,,,,,,,41PZUR,train_x,red_square,bottom_left,2025-09-02_17h07.30.495,HideSeek_v1,2022.2.5,59.91231232760306,
,4,2,7,2,3,0,46,,train_dim1_1,21,30,,,,2,0,2,0,,,,,,,,,0,0,0,0,0,20,20,20,3,0,3,0,,,,,,,,,,,,,,,,,,,,,,,,,,,,,,,,,,,,,,,,,,,,,,,,,,,,,,,,,,,,,,,,30,,,,,,,,2773.4582832999877,2773.4582832999877,2773.4582832999877,2773.4582832999877,2773.4582832999877,return,0.6603831999818794,11,0,0,1,0.4,-0.24,return,0.5749026000266895,5,51,0.4,-0.24,,,,,,,,,,,,,,,,,,,,,,,,,,,,,,,,,,,,,,,,,,,,,,,,,,,,,,,,41PZUR,train_x,red_square,bottom_left,2025-09-02_17h07.30.495,HideSeek_v1,2022.2.5,59.91231232760306,
,1,0,2,0,1,0,26,,train_dim1_1,22,30,,,,2,0,2,0,,,,,,,,,0,0,0,0,0,21,21,21,0,0,0,0,,,,,,,,,,,,,,,,,,,,,,,,,stimuli/alien_stimuli/26.png,,,,,,,,,,,,,,,,,,,,,,,,,,,,,stimuli/alien_stimuli/46.png,46,4,23,,,,,,,30,,,,,,,,2778.5316250000033,2778.5316250000033,2778.5316250000033,2778.5316250000033,2778.5316250000033,return,6.673296199995093,11,1,0,0,-0.08,-0.4,return,6.565757400006987,5,51,-0.08,-0.4,2776.9474733999814,2778.5316250000033,0.4,-0.24,0.0,0.24,-0.24,0.4,0.28,0.4,-0.24,2775.682460699987,2775.682460699987,2775.682460699987,2775.682460699987,2775.682460699987,2775.682460699987,2775.682460699987,2775.682460699987,2775.6629858399624,1.3702249999623746,return,1.2434395999880508,,,,,,,,,,,,,,,,,,,,,,,,,,,,,,,,,41PZUR,train_x,red_square,bottom_left,2025-09-02_17h07.30.495,HideSeek_v1,2022.2.5,59.91231232760306,
,2,1,7,1,5,0,66,,train_dim1_1,23,30,,,,2,0,2,0,,,,,,,,,0,0,0,0,0,22,22,22,0,0,0,0,,,,,,,,,,,,,,,,,,,,,,,,,stimuli/alien_stimuli/66.png,,,,,,,,,,,,,,,,,,,,,,,,,,,,,stimuli/alien_stimuli/26.png,26,1,24,,,,,,,30,,,,,,,,2791.335837599996,2791.335837599996,2791.335837599996,2791.335837599996,2791.335837599996,right,1.1886719999602064,11,1,0,99,0.08,-0.32,right,1.099759400007315,,,,,2789.77520199999,2791.335837599996,0,-0.4,0.0,0.08,-0.4,0,-0.04,0,-0.4,2786.762209199951,2786.762209199951,2786.762209199951,2786.762209199951,2786.762209199951,2786.762209199951,2786.762209199951,2786.762209199951,2786.755655819969,3.13861269998597,return,2.997081800014712,,,,,,,,,,,,,,,,,,,,,,,,,,,,,,,,,41PZUR,train_x,red_square,bottom_left,2025-09-02_17h07.30.495,HideSeek_v1,2022.2.5,59.91231232760306,
,2,1,7,1,5,0,66,,train_dim1_1,23,30,,,,2,0,2,0,,,,,,,,,0,0,0,0,0,22,22,22,1,0,1,0,,,,,,,,,,,,,,,,,,,,,,,,,,,,,,,,,,,,,,,,,,,,,,,,,,,,,,,,,,,,,,,,30,,,,,,,,2792.5238006999716,2792.5238006999716,2792.5238006999716,2792.5238006999716,2792.5238006999716,right,0.49287799996091053,11,1,0,99,0.16,-0.32,right,0.4203494000248611,,,,,,,,,,,,,,,,,,,,,,,,,,,,,,,,,,,,,,,,,,,,,,,,,,,,,,,,,,,,41PZUR,train_x,red_square,bottom_left,2025-09-02_17h07.30.495,HideSeek_v1,2022.2.5,59.91231232760306,
,2,1,7,1,5,0,66,,train_dim1_1,23,30,,,,2,0,2,0,,,,,,,,,0,0,0,0,0,22,22,22,2,0,2,0,,,,,,,,,,,,,,,,,,,,,,,,,,,,,,,,,,,,,,,,,,,,,,,,,,,,,,,,,,,,,,,,30,,,,,,,,2793.026088399987,2793.026088399987,2793.026088399987,2793.026088399987,2793.026088399987,right,0.5245583999785595,11,1,0,99,0.24,-0.32,right,0.4399581999750808,,,,,,,,,,,,,,,,,,,,,,,,,,,,,,,,,,,,,,,,,,,,,,,,,,,,,,,,,,,,41PZUR,train_x,red_square,bottom_left,2025-09-02_17h07.30.495,HideSeek_v1,2022.2.5,59.91231232760306,
,2,1,7,1,5,0,66,,train_dim1_1,23,30,,,,2,0,2,0,,,,,,,,,0,0,0,0,0,22,22,22,3,0,3,0,,,,,,,,,,,,,,,,,,,,,,,,,,,,,,,,,,,,,,,,,,,,,,,,,,,,,,,,,,,,,,,,30,,,,,,,,2793.557970199967,2793.557970199967,2793.557970199967,2793.557970199967,2793.557970199967,right,1.7611335000256076,11,1,0,99,0.32,-0.32,right,1.679778499994427,,,,,,,,,,,,,,,,,,,,,,,,,,,,,,,,,,,,,,,,,,,,,,,,,,,,,,,,,,,,41PZUR,train_x,red_square,bottom_left,2025-09-02_17h07.30.495,HideSeek_v1,2022.2.5,59.91231232760306,
,2,1,7,1,5,0,66,,train_dim1_1,23,30,,,,2,0,2,0,,,,,,,,,0,0,0,0,0,22,22,22,4,0,4,0,,,,,,,,,,,,,,,,,,,,,,,,,,,,,,,,,,,,,,,,,,,,,,,,,,,,,,,,,,,,,,,,30,,,,,,,,2795.3292599999695,2795.3292599999695,2795.3292599999695,2795.3292599999695,2795.3292599999695,right,2.0918576999683864,11,1,0,99,0.4,-0.32,right,2.0031086999806575,,,,,,,,,,,,,,,,,,,,,,,,,,,,,,,,,,,,,,,,,,,,,,,,,,,,,,,,,,,,41PZUR,train_x,red_square,bottom_left,2025-09-02_17h07.30.495,HideSeek_v1,2022.2.5,59.91231232760306,
,2,1,7,1,5,0,66,,train_dim1_1,23,30,,,,2,0,2,0,,,,,,,,,0,0,0,0,0,22,22,22,5,0,5,0,,,,,,,,,,,,,,,,,,,,,,,,,,,,,,,,,,,,,,,,,,,,,,,,,,,,,,,,,,,,,,,,30,,,,,,,,2797.4278569999733,2797.4278569999733,2797.4278569999733,2797.4278569999733,2797.4278569999733,return,0.3934640000225045,12,0,0,1,0.4,-0.32,return,0.3058164999820292,5,56,0.4,-0.32,,,,,,,,,,,,,,,,,,,,,,,,,,,,,,,,,,,,,,,,,,,,,,,,,,,,,,,,41PZUR,train_x,red_square,bottom_left,2025-09-02_17h07.30.495,HideSeek_v1,2022.2.5,59.91231232760306,
,4,4,8,4,4,0,56,,train_dim1_1,24,30,,,,2,0,2,0,,,,,,,,,0,0,0,0,0,23,23,23,0,0,0,0,,,,,,,,,,,,,,,,,,,,,,,,,stimuli/alien_stimuli/56.png,,,,,,,,,,,,,,,,,,,,,,,,,,,,,stimuli/alien_stimuli/66.png,66,2,25,,,,,,,30,,,,,,,,2802.8564626000007,2802.8564626000007,2802.8564626000007,2802.8564626000007,2802.8564626000007,return,5.655007800029125,12,0,0,0,0.16,-0.08,return,5.560012899979483,5,56,0.16,-0.08,2801.2844257999677,2802.8564626000007,0.4,-0.32,0.0,0.4,-0.32,0.4,0.2,0.4,-0.32,2799.4010418999824,2799.4010418999824,2799.4010418999824,2799.4010418999824,2799.4010418999824,2799.4010418999824,2799.4010418999824,2799.4010418999824,2799.3827320799637,2.0038576000370085,return,1.855556299968157,,,,,,,,,,,,,,,,,,,,,,,,,,,,,,,,,41PZUR,train_x,red_square,bottom_left,2025-09-02_17h07.30.495,HideSeek_v1,2022.2.5,59.91231232760306,
,3,0,3,0,0,0,16,,train_dim1_1,25,30,,,,2,0,2,0,,,,,,,,,0,0,0,0,0,24,24,24,0,0,0,0,,,,,,,,,,,,,,,,,,,,,,,,,stimuli/alien_stimuli/16.png,,,,,,,,,,,,,,,,,,,,,,,,,,,,,stimuli/alien_stimuli/56.png,56,4,26,,,,,,,30,,,,,,,,2814.1225438999827,2814.1225438999827,2814.1225438999827,2814.1225438999827,2814.1225438999827,return,3.8231522999703884,13,0,0,1,0.08,-0.4,return,3.7250429000123404,5,56,0.08,-0.4,2812.543732799997,2814.1225438999827,0.48,-0.08,0.0,0.32,-0.08,0.48,0.32,0.48,-0.08,2810.0757444999763,2810.0757444999763,2810.0757444999763,2810.0757444999763,2810.0757444999763,2810.0757444999763,2810.0757444999763,2810.0757444999763,2810.058390779962,2.587608799978625,return,2.4448340999661013,,,,,,,,,,,,,,,,,,,,,,,,,,,,,,,,,41PZUR,train_x,red_square,bottom_left,2025-09-02_17h07.30.495,HideSeek_v1,2022.2.5,59.91231232760306,
,1,1,6,1,5,0,66,,train_dim1_1,26,30,,,,2,0,2,0,,,,,,,,,0,0,0,0,0,25,25,25,0,0,0,0,,,,,,,,,,,,,,,,,,,,,,,,,stimuli/alien_stimuli/66.png,,,,,,,,,,,,,,,,,,,,,,,,,,,,,stimuli/alien_stimuli/16.png,16,3,27,,,,,,,30,,,,,,,,2822.6295491000055,2822.6295491000055,2822.6295491000055,2822.6295491000055,2822.6295491000055,right,1.203325699956622,13,0,0,99,0.0,-0.32,right,1.1022414999897592,,,,,2821.0507321999758,2822.6295491000055,0.08,-0.4,0.0,0.0,-0.4,0.08,0.08,0.08,-0.4,2819.499633600004,2819.499633600004,2819.499633600004,2819.499633600004,2819.499633600004,2819.499633600004,2819.499633600004,2819.499633600004,2819.483750579954,1.6686923999805003,return,1.5243468999979086,,,,,,,,,,,,,,,,,,,,,,,,,,,,,,,,,41PZUR,train_x,red_square,bottom_left,2025-09-02_17h07.30.495,HideSeek_v1,2022.2.5,59.91231232760306,
,1,1,6,1,5,0,66,,train_dim1_1,26,30,,,,2,0,2,0,,,,,,,,,0,0,0,0,0,25,25,25,1,0,1,0,,,,,,,,,,,,,,,,,,,,,,,,,,,,,,,,,,,,,,,,,,,,,,,,,,,,,,,,,,,,,,,,30,,,,,,,,2823.818421199976,2823.818421199976,2823.818421199976,2823.818421199976,2823.818421199976,right,0.7759036999777891,13,0,0,99,0.08,-0.32,right,0.7017463999800384,,,,,,,,,,,,,,,,,,,,,,,,,,,,,,,,,,,,,,,,,,,,,,,,,,,,,,,,,,,,41PZUR,train_x,red_square,bottom_left,2025-09-02_17h07.30.495,HideSeek_v1,2022.2.5,59.91231232760306,
,1,1,6,1,5,0,66,,train_dim1_1,26,30,,,,2,0,2,0,,,,,,,,,0,0,0,0,0,25,25,25,2,0,2,0,,,,,,,,,,,,,,,,,,,,,,,,,,,,,,,,,,,,,,,,,,,,,,,,,,,,,,,,,,,,,,,,30,,,,,,,,2824.6000521999667,2824.6000521999667,2824.6000521999667,2824.6000521999667,2824.6000521999667,right,0.5434514000080526,13,0,0,99,0.16,-0.32,right,0.45921719999751076,,,,,,,,,,,,,,,,,,,,,,,,,,,,,,,,,,,,,,,,,,,,,,,,,,,,,,,,,,,,41PZUR,train_x,red_square,bottom_left,2025-09-02_17h07.30.495,HideSeek_v1,2022.2.5,59.91231232760306,
,1,1,6,1,5,0,66,,train_dim1_1,26,30,,,,2,0,2,0,,,,,,,,,0,0,0,0,0,25,25,25,3,0,3,0,,,,,,,,,,,,,,,,,,,,,,,,,,,,,,,,,,,,,,,,,,,,,,,,,,,,,,,,,,,,,,,,30,,,,,,,,2825.151258099999,2825.151258099999,2825.151258099999,2825.151258099999,2825.151258099999,right,0.5768733999575488,13,0,0,99,0.24,-0.32,right,0.49114619998726994,,,,,,,,,,,,,,,,,,,,,,,,,,,,,,,,,,,,,,,,,,,,,,,,,,,,,,,,,,,,41PZUR,train_x,red_square,bottom_left,2025-09-02_17h07.30.495,HideSeek_v1,2022.2.5,59.91231232760306,
,1,1,6,1,5,0,66,,train_dim1_1,26,30,,,,2,0,2,0,,,,,,,,,0,0,0,0,0,25,25,25,4,0,4,0,,,,,,,,,,,,,,,,,,,,,,,,,,,,,,,,,,,,,,,,,,,,,,,,,,,,,,,,,,,,,,,,30,,,,,,,,2825.737976799952,2825.737976799952,2825.737976799952,2825.737976799952,2825.737976799952,right,0.6239056999911554,13,0,0,99,0.32,-0.32,right,0.5500719000119716,,,,,,,,,,,,,,,,,,,,,,,,,,,,,,,,,,,,,,,,,,,,,,,,,,,,,,,,,,,,41PZUR,train_x,red_square,bottom_left,2025-09-02_17h07.30.495,HideSeek_v1,2022.2.5,59.91231232760306,
,1,1,6,1,5,0,66,,train_dim1_1,26,30,,,,2,0,2,0,,,,,,,,,0,0,0,0,0,25,25,25,5,0,5,0,,,,,,,,,,,,,,,,,,,,,,,,,,,,,,,,,,,,,,,,,,,,,,,,,,,,,,,,,,,,,,,,30,,,,,,,,2826.369597999961,2826.369597999961,2826.369597999961,2826.369597999961,2826.369597999961,return,0.8104152000159957,14,0,0,1,0.32,-0.32,return,0.7316537000006065,5,61,0.32,-0.32,,,,,,,,,,,,,,,,,,,,,,,,,,,,,,,,,,,,,,,,,,,,,,,,,,,,,,,,41PZUR,train_x,red_square,bottom_left,2025-09-02_17h07.30.495,HideSeek_v1,2022.2.5,59.91231232760306,
,0,1,3,1,3,0,46,,train_dim1_1,27,30,,,,2,0,2,0,,,,,,,,,0,0,0,0,0,26,26,26,0,0,0,0,,,,,,,,,,,,,,,,,,,,,,,,,stimuli/alien_stimuli/46.png,,,,,,,,,,,,,,,,,,,,,,,,,,,,,stimuli/alien_stimuli/66.png,66,1,28,,,,,,,30,,,,,,,,2832.2207088999567,2832.2207088999567,2832.2207088999567,2832.2207088999567,2832.2207088999567,right,1.2861613999702968,14,0,0,99,-0.08,-0.32,right,1.1867612999631092,,,,,2830.642151499982,2832.2207088999567,0.32,-0.32,0.0,0.4,-0.32,0.32,0.12,0.32,-0.32,2828.741213399975,2828.741213399975,2828.741213399975,2828.741213399975,2828.741213399975,2828.741213399975,2828.741213399975,2828.741213399975,2828.723765039956,2.0038701000157744,return,1.8704036000417545,,,,,,,,,,,,,,,,,,,,,,,,,,,,,,,,,41PZUR,train_x,red_square,bottom_left,2025-09-02_17h07.30.495,HideSeek_v1,2022.2.5,59.91231232760306,
,0,1,3,1,3,0,46,,train_dim1_1,27,30,,,,2,0,2,0,,,,,,,,,0,0,0,0,0,26,26,26,1,0,1,0,,,,,,,,,,,,,,,,,,,,,,,,,,,,,,,,,,,,,,,,,,,,,,,,,,,,,,,,,,,,,,,,30,,,,,,,,2833.495111199969,2833.495111199969,2833.495111199969,2833.495111199969,2833.495111199969,right,0.5735489000217058,14,0,0,99,0.0,-0.32,right,0.4908346000011079,,,,,,,,,,,,,,,,,,,,,,,,,,,,,,,,,,,,,,,,,,,,,,,,,,,,,,,,,,,,41PZUR,train_x,red_square,bottom_left,2025-09-02_17h07.30.495,HideSeek_v1,2022.2.5,59.91231232760306,
,0,1,3,1,3,0,46,,train_dim1_1,27,30,,,,2,0,2,0,,,,,,,,,0,0,0,0,0,26,26,26,2,0,2,0,,,,,,,,,,,,,,,,,,,,,,,,,,,,,,,,,,,,,,,,,,,,,,,,,,,,,,,,,,,,,,,,30,,,,,,,,2834.0781634000014,2834.0781634000014,2834.0781634000014,2834.0781634000014,2834.0781634000014,right,0.606959100055974,14,0,0,99,0.08,-0.32,right,0.5303129000240006,,,,,,,,,,,,,,,,,,,,,,,,,,,,,,,,,,,,,,,,,,,,,,,,,,,,,,,,,,,,41PZUR,train_x,red_square,bottom_left,2025-09-02_17h07.30.495,HideSeek_v1,2022.2.5,59.91231232760306,
,0,1,3,1,3,0,46,,train_dim1_1,27,30,,,,2,0,2,0,,,,,,,,,0,0,0,0,0,26,26,26,3,0,3,0,,,,,,,,,,,,,,,,,,,,,,,,,,,,,,,,,,,,,,,,,,,,,,,,,,,,,,,,,,,,,,,,30,,,,,,,,2834.692527099978,2834.692527099978,2834.692527099978,2834.692527099978,2834.692527099978,return,0.9610301000066102,15,0,0,1,0.08,-0.32,return,0.8759256000048481,5,64,0.08,-0.32,,,,,,,,,,,,,,,,,,,,,,,,,,,,,,,,,,,,,,,,,,,,,,,,,,,,,,,,41PZUR,train_x,red_square,bottom_left,2025-09-02_17h07.30.495,HideSeek_v1,2022.2.5,59.91231232760306,
,3,1,4,1,1,0,26,,train_dim1_1,28,30,,,,2,0,2,0,,,,,,,,,0,0,0,0,0,27,27,27,0,0,0,0,,,,,,,,,,,,,,,,,,,,,,,,,stimuli/alien_stimuli/26.png,,,,,,,,,,,,,,,,,,,,,,,,,,,,,stimuli/alien_stimuli/46.png,46,0,29,,,,,,,30,,,,,,,,2840.595277399989,2840.595277399989,2840.595277399989,2840.595277399989,2840.595277399989,right,1.8898270000354387,15,0,0,99,0.16,-0.32,right,1.7852072999812663,,,,,2839.0157039999613,2840.595277399989,0.08,-0.32,0.0,0.24,-0.32,0.08,-0.04,0.08,-0.32,2837.214716599963,2837.214716599963,2837.214716599963,2837.214716599963,2837.214716599963,2837.214716599963,2837.214716599963,2837.214716599963,2837.197499239957,1.903592699964065,return,1.774519800033886,,,,,,,,,,,,,,,,,,,,,,,,,,,,,,,,,41PZUR,train_x,red_square,bottom_left,2025-09-02_17h07.30.495,HideSeek_v1,2022.2.5,59.91231232760306,
,3,1,4,1,1,0,26,,train_dim1_1,28,30,,,,2,0,2,0,,,,,,,,,0,0,0,0,0,27,27,27,1,0,1,0,,,,,,,,,,,,,,,,,,,,,,,,,,,,,,,,,,,,,,,,,,,,,,,,,,,,,,,,,,,,,,,,30,,,,,,,,2842.469895099988,2842.469895099988,2842.469895099988,2842.469895099988,2842.469895099988,return,0.44300500000827014,16,0,0,1,0.16,-0.32,return,0.35812529997201636,5,65,0.16,-0.32,,,,,,,,,,,,,,,,,,,,,,,,,,,,,,,,,,,,,,,,,,,,,,,,,,,,,,,,41PZUR,train_x,red_square,bottom_left,2025-09-02_17h07.30.495,HideSeek_v1,2022.2.5,59.91231232760306,
,4,0,8,0,4,0,56,,train_dim1_1,29,30,,,,2,0,2,0,,,,,,,,,0,0,0,0,0,28,28,28,0,0,0,0,,,,,,,,,,,,,,,,,,,,,,,,,stimuli/alien_stimuli/56.png,,,,,,,,,,,,,,,,,,,,,,,,,,,,,stimuli/alien_stimuli/26.png,26,3,30,,,,,,,30,,,,,,,,2848.6180705999723,2848.6180705999723,2848.6180705999723,2848.6180705999723,2848.6180705999723,right,2.022321099997498,16,0,0,99,0.24,-0.4,right,1.9171915000188164,,,,,2847.0388503999566,2848.6180705999723,0.16,-0.32,0.0,0.08,-0.32,0.16,0.12,0.16,-0.32,2844.477996499976,2844.477996499976,2844.477996499976,2844.477996499976,2844.477996499976,2844.477996499976,2844.477996499976,2844.477996499976,2844.4700464799707,2.6712892000214197,return,2.536769099999219,,,,,,,,,,,,,,,,,,,,,,,,,,,,,,,,,41PZUR,train_x,red_square,bottom_left,2025-09-02_17h07.30.495,HideSeek_v1,2022.2.5,59.91231232760306,
,4,0,8,0,4,0,56,,train_dim1_1,29,30,,,,2,0,2,0,,,,,,,,,0,0,0,0,0,28,28,28,1,0,1,0,,,,,,,,,,,,,,,,,,,,,,,,,,,,,,,,,,,,,,,,,,,,,,,,,,,,,,,,,,,,,,,,30,,,,,,,,2850.62453609996,2850.62453609996,2850.62453609996,2850.62453609996,2850.62453609996,right,0.5601025999640115,16,0,0,99,0.32,-0.4,right,0.4726581999566406,,,,,,,,,,,,,,,,,,,,,,,,,,,,,,,,,,,,,,,,,,,,,,,,,,,,,,,,,,,,41PZUR,train_x,red_square,bottom_left,2025-09-02_17h07.30.495,HideSeek_v1,2022.2.5,59.91231232760306,
,4,0,8,0,4,0,56,,train_dim1_1,29,30,,,,2,0,2,0,,,,,,,,,0,0,0,0,0,28,28,28,2,0,2,0,,,,,,,,,,,,,,,,,,,,,,,,,,,,,,,,,,,,,,,,,,,,,,,,,,,,,,,,,,,,,,,,30,,,,,,,,2851.190736599965,2851.190736599965,2851.190736599965,2851.190736599965,2851.190736599965,right,1.4108160000178032,16,0,0,99,0.4,-0.4,right,1.3349981000064872,,,,,,,,,,,,,,,,,,,,,,,,,,,,,,,,,,,,,,,,,,,,,,,,,,,,,,,,,,,,41PZUR,train_x,red_square,bottom_left,2025-09-02_17h07.30.495,HideSeek_v1,2022.2.5,59.91231232760306,
,4,0,8,0,4,0,56,,train_dim1_1,29,30,,,,2,0,2,0,,,,,,,,,0,0,0,0,0,28,28,28,3,0,3,0,,,,,,,,,,,,,,,,,,,,,,,,,,,,,,,,,,,,,,,,,,,,,,,,,,,,,,,,,,,,,,,,30,,,,,,,,2852.6086026999983,2852.6086026999983,2852.6086026999983,2852.6086026999983,2852.6086026999983,right,3.312456400017254,16,0,0,99,0.48000000000000004,-0.4,right,3.2274462999776006,,,,,,,,,,,,,,,,,,,,,,,,,,,,,,,,,,,,,,,,,,,,,,,,,,,,,,,,,,,,41PZUR,train_x,red_square,bottom_left,2025-09-02_17h07.30.495,HideSeek_v1,2022.2.5,59.91231232760306,
,4,0,8,0,4,0,56,,train_dim1_1,29,30,,,,2,0,2,0,,,,,,,,,0,0,0,0,0,28,28,28,4,0,4,0,,,,,,,,,,,,,,,,,,,,,,,,,,,,,,,,,,,,,,,,,,,,,,,,,,,,,,,,,,,,,,,,30,,,,,,,,2855.9303950999747,2855.9303950999747,2855.9303950999747,2855.9303950999747,2855.9303950999747,return,0.6753215999924578,17,0,0,1,0.48000000000000004,-0.4,return,0.5949391999747604,5,69,0.48000000000000004,-0.4,,,,,,,,,,,,,,,,,,,,,,,,,,,,,,,,,,,,,,,,,,,,,,,,,,,,,,,,41PZUR,train_x,red_square,bottom_left,2025-09-02_17h07.30.495,HideSeek_v1,2022.2.5,59.91231232760306,
,2,2,2,2,0,0,16,,train_dim1_1,30,30,,,,2,0,2,0,,,,,,,,,0,0,0,0,0,29,29,29,0,0,0,0,,,,,,,,,,,,,,,,,,,,,,,,,stimuli/alien_stimuli/16.png,,,,,,,,,,,,,,,,,,,,,,,,,,,,,stimuli/alien_stimuli/56.png,56,4,31,,,,,,,30,,,,,,,,2861.189393399982,2861.189393399982,2861.189393399982,2861.189393399982,2861.189393399982,right,1.5890856999903917,17,0,0,99,0.08,-0.24,right,1.4931653999956325,,,,,2859.616323299997,2861.189393399982,0.48,-0.4,0.0,0.32,-0.4,0.48,0.32,0.48,-0.4,2858.188037599961,2858.188037599961,2858.188037599961,2858.188037599961,2858.188037599961,2858.188037599961,2858.188037599961,2858.188037599961,2858.1815572199525,1.553714099980425,return,1.4083027000306174,,,,,,,,,,,,,,,,,,,,,,,,,,,,,,,,,41PZUR,train_x,red_square,bottom_left,2025-09-02_17h07.30.495,HideSeek_v1,2022.2.5,59.91231232760306,
,2,2,2,2,0,0,16,,train_dim1_1,30,30,,,,2,0,2,0,,,,,,,,,0,0,0,0,0,29,29,29,1,0,1,0,,,,,,,,,,,,,,,,,,,,,,,,,,,,,,,,,,,,,,,,,,,,,,,,,,,,,,,,,,,,,,,,30,,,,,,,,2862.7730389999924,2862.7730389999924,2862.7730389999924,2862.7730389999924,2862.7730389999924,left,1.7243044000351802,17,0,0,99,0.0,-0.24,left,1.643057300010696,,,,,,,,,,,,,,,,,,,,,,,,,,,,,,,,,,,,,,,,,,,,,,,,,,,,,,,,,,,,41PZUR,train_x,red_square,bottom_left,2025-09-02_17h07.30.495,HideSeek_v1,2022.2.5,59.91231232760306,
,2,2,2,2,0,0,16,,train_dim1_1,30,30,,,,2,0,2,0,,,,,,,,,0,0,0,0,0,29,29,29,2,0,2,0,,,,,,,,,,,,,,,,,,,,,,,,,,,,,,,,,,,,,,,,,,,,,,,,,,,,,,,,,,,,,,,,30,,,,,,,,2864.5042809000006,2864.5042809000006,2864.5042809000006,2864.5042809000006,2864.5042809000006,return,0.9605086999945343,18,0,0,1,0.0,-0.24,return,0.8789929000195116,5,69,0.0,-0.24,,,,,,,,,,,,,,,,,,,,,,,,,,,,,,,,,,,,,,,,,,,,,,,,,,,,,,,,41PZUR,train_x,red_square,bottom_left,2025-09-02_17h07.30.495,HideSeek_v1,2022.2.5,59.91231232760306,
,,,,,,,,,,,30,,,,2,0,2,0,,,,,,,,,,,,,,,,,,,,,,,,,,,,,,,,,,,,,,,,,,,,,,,,,,,,,,,,,,,,,,,,,,,,,,,,,,stimuli/alien_stimuli/16.png,16,2,32,21,0.7,0.75,1,1,1,30,0,conditions/schedules/train_x_first/red_square_00/bottom_left/inputTrain_2.1.xlsx,99,1,2,1,0,,,,,,,,,,,1,,,,,,,,,2869.8745003999793,2871.418874199968,0,-0.24,0.0,0.0,-0.24,0,0.0,0,-0.24,2867.031583199976,2867.031583199976,2867.031583199976,2867.031583199976,2867.031583199976,2867.031583199976,2867.031583199976,2867.031583199976,2867.02230427998,2.9549567999783903,return,2.8250754000036977,0,0.9,0,1,18,,,,,,,,,,,,,,,,,,,,,,,,,,,,41PZUR,train_x,red_square,bottom_left,2025-09-02_17h07.30.495,HideSeek_v1,2022.2.5,59.91231232760306,
,,,,,,,,,,,,,,,3,0,3,0,0,0,0,0,,,,,,,,,,,,,,,,,,,,,,,,,,,,,,,conditions/schedules/train_x_first/red_square_00/bottom_left/instructions/Slide17.png,conditions/schedules/train_x_first/red_square_00/bottom_left/instructions/Audio17.wav,2871.418874199968,2871.4091584199746,17,"[19.63905330002308, 18.55240650003543, 16.796923399961088, 19.72395819996018, 5.119991799991112, 4.95331279997481, 6.669509599974845, 12.170675500005018, 6.656046500022057, 7.4317832999513485, 11.021698100026697, 13.305163800017908, 17.365311499976087, 13.770754199998919, 30.937052299967036, 23.030215900042094, 40.20589719997952]","[0.014089600008446723, 0.0002057999954558909, 0.014640200010035187, 0.04928669997025281, 0.06497329997364432, 0.04729399998905137, 0.04675480001606047, 0.05045270000118762, 0.04654279997339472, 0.04718290001619607, 0.013812500052154064, 13.305170300009195, 17.365322099998593, 13.770762900006957, 0.03168240003287792, 23.030222700035665, 40.20592649996979]",0,,,,,,,,,,,,,,,,,,,,,,,,,,,,,,,,,,,,,,,,,,,,,,,,,,,,,,,,,,,,,,,,,,,,,,,,,,,,,,,,,,,,,,,,,,,,,,,,,,,,,,,,,,,,,,,,,,,,,,,,,,,,41PZUR,train_x,red_square,bottom_left,2025-09-02_17h07.30.495,HideSeek_v1,2022.2.5,59.91231232760306,
,,,,,,,,,,,,,,,3,0,3,0,1,0,1,0,,,,,,,,,,,,,,,,,,,,,,,,,,,,,,,conditions/schedules/train_x_first/red_square_00/bottom_left/instructions/Slide18.png,conditions/schedules/train_x_first/red_square_00/bottom_left/instructions/Audio18.wav,2911.7212615999742,2911.7095728399813,18,"[19.63905330002308, 18.55240650003543, 16.796923399961088, 19.72395819996018, 5.119991799991112, 4.95331279997481, 6.669509599974845, 12.170675500005018, 6.656046500022057, 7.4317832999513485, 11.021698100026697, 13.305163800017908, 17.365311499976087, 13.770754199998919, 30.937052299967036, 23.030215900042094, 40.20589719997952, 6.574281000008341]","[0.014089600008446723, 0.0002057999954558909, 0.014640200010035187, 0.04928669997025281, 0.06497329997364432, 0.04729399998905137, 0.04675480001606047, 0.05045270000118762, 0.04654279997339472, 0.04718290001619607, 0.013812500052154064, 13.305170300009195, 17.365322099998593, 13.770762900006957, 0.03168240003287792, 23.030222700035665, 40.20592649996979, 6.574287900002673]",0,,,,,,,,,,,,,,,,,,,,,,,,,,,,,,,,,,,,,,,,,,,,,,,,,,,,,,,,,,,,,,,,,,,,,,,,,,,,,,,,,,,,,,,,,,,,,,,,,,,,,,,,,,,,,,,,,,,,,,,,,,,,41PZUR,train_x,red_square,bottom_left,2025-09-02_17h07.30.495,HideSeek_v1,2022.2.5,59.91231232760306,
,,,,,,,,,,,,,,,3,0,3,0,2,0,2,0,,,,,,,,,,,,,,,,,,,,,,,,,,,,,,,conditions/schedules/train_x_first/red_square_00/bottom_left/instructions/Slide19.png,conditions/schedules/train_x_first/red_square_00/bottom_left/instructions/Audio19.wav,2918.3349531999556,2918.3314844199745,19,"[19.63905330002308, 18.55240650003543, 16.796923399961088, 19.72395819996018, 5.119991799991112, 4.95331279997481, 6.669509599974845, 12.170675500005018, 6.656046500022057, 7.4317832999513485, 11.021698100026697, 13.305163800017908, 17.365311499976087, 13.770754199998919, 30.937052299967036, 23.030215900042094, 40.20589719997952, 6.574281000008341, 10.62002069997834]","[0.014089600008446723, 0.0002057999954558909, 0.014640200010035187, 0.04928669997025281, 0.06497329997364432, 0.04729399998905137, 0.04675480001606047, 0.05045270000118762, 0.04654279997339472, 0.04718290001619607, 0.013812500052154064, 13.305170300009195, 17.365322099998593, 13.770762900006957, 0.03168240003287792, 23.030222700035665, 40.20592649996979, 0.031142199994064867, 10.620030499994755]",0,,,,,,,,,,,,,,,,,,,,,,,,,,,,,,,,,,,,,,,,,,,,,,,,,,,,,,,,,,,,,,,,,,,,,,,,,,,,,,,,,,,,,,,,,,,,,,,,,,,,,,,,,,,,,,,,,,,,,,,,,,,,41PZUR,train_x,red_square,bottom_left,2025-09-02_17h07.30.495,HideSeek_v1,2022.2.5,59.91231232760306,
,,,,,,,,,,,,,,,3,0,3,0,3,0,3,0,,,,,,,,,,,,,,,,,,,,,,,,,,,,,,,conditions/schedules/train_x_first/red_square_00/bottom_left/instructions/Slide20.png,conditions/schedules/train_x_first/red_square_00/bottom_left/instructions/Audio20.wav,2929.027332699974,2929.0236449999793,20,"[19.63905330002308, 18.55240650003543, 16.796923399961088, 19.72395819996018, 5.119991799991112, 4.95331279997481, 6.669509599974845, 12.170675500005018, 6.656046500022057, 7.4317832999513485, 11.021698100026697, 13.305163800017908, 17.365311499976087, 13.770754199998919, 30.937052299967036, 23.030215900042094, 40.20589719997952, 6.574281000008341, 10.62002069997834, 14.0392184999655]","[0.014089600008446723, 0.0002057999954558909, 0.014640200010035187, 0.04928669997025281, 0.06497329997364432, 0.04729399998905137, 0.04675480001606047, 0.05045270000118762, 0.04654279997339472, 0.04718290001619607, 0.013812500052154064, 13.305170300009195, 17.365322099998593, 13.770762900006957, 0.03168240003287792, 23.030222700035665, 40.20592649996979, 0.031142199994064867, 10.620030499994755, 14.039225700020324]",0,,,,,,,,,,,,,,,,,,,,,,,,,,,,,,,,,,,,,,,,,,,,,,,,,,,,,,,,,,,,,,,,,,,,,,,,,,,,,,,,,,,,,,,,,,,,,,,,,,,,,,,,,,,,,,,,,,,,,,,,,,,,41PZUR,train_x,red_square,bottom_left,2025-09-02_17h07.30.495,HideSeek_v1,2022.2.5,59.91231232760306,
1,2,3,2,8,0,5,11,2,instr_dim1_2,,,,,,3,0,3,0,,,,,0,0,0,0,,,,,,,,,,,,,,,,,,,,,,,,,,,,,,,,,,,,,stimuli/alien_stimuli/11.png,conditions/schedules/train_x_first/red_square_00/bottom_left/inputInstr_2.xlsx,stimuli/alien_stimuli/11.png,2943.1625461999793,2943.1625461999793,2943.1625461999793,2943.1625461999793,2943.152076839958,return,11.399687099969015,"[-0.16, -0.08, 0, 0.08, 0.16, 0.24, 0.32, 0.4, 0.48, 0.56]","[-0.4, -0.32, -0.24, -0.16, -0.08, 0, 0.08, 0.16, 0.24, 0.32]",8,3,2,2,0.4,0.0,2954.7385753999697,2954.7385753999697,2954.7385753999697,2954.7385753999697,2954.7385753999697,2954.7385753999697,2954.7385753999697,2954.728168159962,8.191570300026797,return,8.029134700016584,stimuli/alien_stimuli/11.png,11,2,1,,,,,,,,,,,,,,,,,,,,,,,,,,,,,,,,,,,,,,,,,,,,,,,,,,,,,,,,,,,,,,,,,,,,,,,,,,,,,,,,,,,,,,,,,41PZUR,train_x,red_square,bottom_left,2025-09-02_17h07.30.495,HideSeek_v1,2022.2.5,59.91231232760306,
,,,,,,,,,,,30,,,,3,0,3,0,,,,,,,,,,,,,,,,,,,,,,,,,,,,,,,,,,,,,,,,,,,,,,,,,,,,,,,,,,,,,,,,,,,,,,,,,,,,,,21,0.7,0.75,1,99,2,30,0,conditions/schedules/train_x_first/red_square_00/bottom_left/inputTrain_2.1.xlsx,99,1,2,1,0,,,,,,,,,,,,,,,,,,,,,,,,,,,,,,,,,,,,,,,,,,,,,,,,,,,,,,,,,,,,,,,,,,,,,,,,,,,41PZUR,train_x,red_square,bottom_left,2025-09-02_17h07.30.495,HideSeek_v1,2022.2.5,59.91231232760306,
,,,,,,,,,,,,,,,4,0,4,0,0,0,0,0,,,,,,,,,,,,,,,,,,,,,,,,,,,,,,,conditions/schedules/train_x_first/red_square_00/bottom_left/instructions/Slide21.png,conditions/schedules/train_x_first/red_square_00/bottom_left/instructions/Audio21.wav,2962.9656453999924,2962.951840539981,21,"[19.63905330002308, 18.55240650003543, 16.796923399961088, 19.72395819996018, 5.119991799991112, 4.95331279997481, 6.669509599974845, 12.170675500005018, 6.656046500022057, 7.4317832999513485, 11.021698100026697, 13.305163800017908, 17.365311499976087, 13.770754199998919, 30.937052299967036, 23.030215900042094, 40.20589719997952, 6.574281000008341, 10.62002069997834, 14.0392184999655, 17.383439700002782]","[0.014089600008446723, 0.0002057999954558909, 0.014640200010035187, 0.04928669997025281, 0.06497329997364432, 0.04729399998905137, 0.04675480001606047, 0.05045270000118762, 0.04654279997339472, 0.04718290001619607, 0.013812500052154064, 13.305170300009195, 17.365322099998593, 13.770762900006957, 0.03168240003287792, 23.030222700035665, 40.20592649996979, 0.031142199994064867, 10.620030499994755, 14.039225700020324, 17.383447300002445]",0,,,,,,,,,,,,,,,,,,,,,,,,,,,,,,,,,,,,,,,,,,,,,,,,,,,,,,,,,,,,,,,,,,,,,,,,,,,,,,,,,,,,,,,,,,,,,,,,,,,,,,,,,,,,,,,,,,,,,,,,,,,,41PZUR,train_x,red_square,bottom_left,2025-09-02_17h07.30.495,HideSeek_v1,2022.2.5,59.91231232760306,
2,0,3,0,3,0,0,16,2,instr_dim1_2,,,,,,4,0,4,0,,,,,0,0,0,0,,,,,,,,,,,,,,,,,,,,,,,,,,,,,,,,,,,,,stimuli/alien_stimuli/16.png,conditions/schedules/train_x_first/red_square_00/bottom_left/inputInstr_2.xlsx,stimuli/alien_stimuli/16.png,2980.447068699985,2980.447068699985,2980.447068699985,2980.447068699985,2980.4496799799554,return,6.008046999981161,"[-0.16, -0.08, 0, 0.08, 0.16, 0.24, 0.32, 0.4, 0.48, 0.56]","[-0.4, -0.32, -0.24, -0.16, -0.08, 0, 0.08, 0.16, 0.24, 0.32]",3,3,0,0,0.0,0.0,2986.6161116999574,2986.6161116999574,2986.6161116999574,2986.6161116999574,2986.6161116999574,2986.6161116999574,2986.6161116999574,2986.604612019972,6.323067800025456,return,6.166827400040347,stimuli/alien_stimuli/16.png,16,0,2,,,,,,,,,,,,,,,,,,,,,,,,,,,,,,,,,,,,,,,,,,,,,,,,,,,,,,,,,,,,,,,,,,,,,,,,,,,,,,,,,,,,,,,,,41PZUR,train_x,red_square,bottom_left,2025-09-02_17h07.30.495,HideSeek_v1,2022.2.5,59.91231232760306,
,,,,,,,,,,,30,,,,4,0,4,0,,,,,,,,,,,,,,,,,,,,,,,,,,,,,,,,,,,,,,,,,,,,,,,,,,,,,,,,,,,,,,,,,,,,,,,,,,,,,,21,0.7,0.75,1,99,2,30,0,conditions/schedules/train_x_first/red_square_00/bottom_left/inputTrain_2.1.xlsx,99,1,2,1,0,,,,,,,,,,,,,,,,,,,,,,,,,,,,,,,,,,,,,,,,,,,,,,,,,,,,,,,,,,,,,,,,,,,,,,,,,,,41PZUR,train_x,red_square,bottom_left,2025-09-02_17h07.30.495,HideSeek_v1,2022.2.5,59.91231232760306,
,,,,,,,,,,,,,,,5,0,5,0,0,0,0,0,,,,,,,,,,,,,,,,,,,,,,,,,,,,,,,conditions/schedules/train_x_first/red_square_00/bottom_left/instructions/Slide22.png,conditions/schedules/train_x_first/red_square_00/bottom_left/instructions/Audio22.wav,2992.982388699951,2992.9766994399774,22,"[19.63905330002308, 18.55240650003543, 16.796923399961088, 19.72395819996018, 5.119991799991112, 4.95331279997481, 6.669509599974845, 12.170675500005018, 6.656046500022057, 7.4317832999513485, 11.021698100026697, 13.305163800017908, 17.365311499976087, 13.770754199998919, 30.937052299967036, 23.030215900042094, 40.20589719997952, 6.574281000008341, 10.62002069997834, 14.0392184999655, 17.383439700002782, 42.961064300034195]","[0.014089600008446723, 0.0002057999954558909, 0.014640200010035187, 0.04928669997025281, 0.06497329997364432, 0.04729399998905137, 0.04675480001606047, 0.05045270000118762, 0.04654279997339472, 0.04718290001619607, 0.013812500052154064, 13.305170300009195, 17.365322099998593, 13.770762900006957, 0.03168240003287792, 23.030222700035665, 40.20592649996979, 0.031142199994064867, 10.620030499994755, 14.039225700020324, 17.383447300002445, 42.96107160003157]",0,,,,,,,,,,,,,,,,,,,,,,,,,,,,,,,,,,,,,,,,,,,,,,,,,,,,,,,,,,,,,,,,,,,,,,,,,,,,,,,,,,,,,,,,,,,,,,,,,,,,,,,,,,,,,,,,,,,,,,,,,,,,41PZUR,train_x,red_square,bottom_left,2025-09-02_17h07.30.495,HideSeek_v1,2022.2.5,59.91231232760306,
,0,0,0,1,0,1,15,,train_dim1_2,1,30,,,,5,0,5,0,,,,,,,,,0,0,0,0,0,0,0,0,0,0,0,0,,,,,,,,,,,,,,,,,,,,,,,,,stimuli/alien_stimuli/15.png,,,,,,,,,,,,,,,,,,,,,,,,,,,,,,,,,,,,,,,30,,,,,,,,3036.0568745000055,3036.0568745000055,3036.0568745000055,3036.0568745000055,3036.0568745000055,return,0.146726300008595,0,1,0,0,-0.16,-0.4,return,0.04920579999452457,5,69,-0.16,-0.4,,,,,,,,,,,,,,,,,,,,,,,,,,,,,,,,,,,,,,,,,,,,,,,,,,,,,,,,41PZUR,train_x,red_square,bottom_left,2025-09-02_17h07.30.495,HideSeek_v1,2022.2.5,59.91231232760306,
