trialInstr,x_fixStart,y_fixStart,x_corrSteps,y_corrSteps,x_nrSteps,y_nrSteps,alienID,trialLength,version,trialTrain,praclen,testlen,trial_label,break_on_off,beforeExpLoop.thisRepN,beforeExpLoop.thisTrialN,beforeExpLoop.thisN,beforeExpLoop.thisIndex,mini_instr_trials.thisRepN,mini_instr_trials.thisTrialN,mini_instr_trials.thisN,mini_instr_trials.thisIndex,instrLoop.thisRepN,instrLoop.thisTrialN,instrLoop.thisN,instrLoop.thisIndex,repeat_prac.thisRepN,repeat_prac.thisTrialN,repeat_prac.thisN,repeat_prac.thisIndex,trainLoop.thisRepN,trainLoop.thisTrialN,trainLoop.thisN,trainLoop.thisIndex,moveLoop_train.thisRepN,moveLoop_train.thisTrialN,moveLoop_train.thisN,moveLoop_train.thisIndex,experiment.thisRepN,experiment.thisTrialN,experiment.thisN,experiment.thisIndex,moveLoop_test.thisRepN,moveLoop_test.thisTrialN,moveLoop_test.thisN,moveLoop_test.thisIndex,mini_instr2_trials.thisRepN,mini_instr2_trials.thisTrialN,mini_instr2_trials.thisN,mini_instr2_trials.thisIndex,start_all_time,url,slideStim,audioStim,slides.started,sounds.started,nextButton.numClicks,nextButton.timesOn,nextButton.timesOff,prev_but.numClicks,prev_but.timesOn,prev_but.timesOff,alienStim,instrFile,alienStim_instr,gridImage_instr.started,startPos_3.started,key_instr.started,alienImage_3.started,sounds_1.started,key_instr.keys,key_instr.rt,all_x,all_y,FBy_corrSteps,FBy_fixStart,FBx_corrSteps,FBx_fixStart,FBy_pathSize_check,FBx_pathSize_check,gridImage_9.started,alienImageFB_3.started,startPosFB_3.started,keyFB_3.started,pathLine_ydir_2.started,pathLine_xdir_2.started,alienFace_3.started,sounds_2.started,RTFB_instr,keyFB_3.keys,keyFB_3.rt,draw_alienStim,draw_alienID,test_x,nrepcount,perfthres,percthres,earlierperf,earlystop,nextPrac,fileidx,praclen,saveACC_train,pracFile,nextPrac_train,addNrep,fileidx_endr,repExp,showearly,gridImage_4.started,startPos.started,movePos.started,key_resp.started,alienImage.started,buttonPress_train,RTchoice_train,cumAcctrain,aCorr,saveACC_choice,corrAns,x_movePos_end,y_movePos_end,key_resp.keys,key_resp.rt,wLy_dir,wLx_dir,x_movePos,y_movePos,text_2.started,text_2.stopped,aft_x_corrPos,aft_y_corrPos,y_pathSize_check,x_pathSize_check,y_pathdirY,x_pathdirY,x_pathdirX,x_corrPos,y_corrPos,gridImage_6.started,alienImageFB_2.started,startPosFB_2.started,movePosFB_2.started,keyFB_2.started,pathLine_xdir.started,pathLine_ydir.started,alienFace.started,sounds_4.started,RT_FBtrain,keyFB_2.keys,keyFB_2.rt,saveACC_pre,ACC,within_saveACC_train,earlystop_wloop,cumAcctrain_check,gridImage_3.started,alienImage_test.started,startPos_test.started,movePos_test.started,key_resp_test.started,wLy_dir_test,wLx_dir_test,buttonPress_test,RTchoice_test,cumAcctest,corrAns_test,key_resp_test.keys,key_resp_test.rt,text_3.started,text_3.stopped,total_time,end_all_time,key_resp_3.keys,slides_2.started,sounds_3.started,nextButton_2.numClicks,nextButton_2.timesOn,nextButton_2.timesOff,prev_but_2.numClicks,prev_but_2.timesOn,prev_but_2.timesOff,bye.started,participant,train_first,00_coordinate,starting corner,date,expName,psychopyVersion,frameRate,
,,,,,,,,,,,,,,,0,0,0,0,0,0,0,0,,,,,,,,,,,,,,,,,,,,,,,,,,,,,start_all_time,testround,conditions/schedules/train_x_first/blue_star_00/bottom_right/instructions/Slide1.png,conditions/schedules/train_x_first/blue_star_00/bottom_right/instructions/Audio1.wav,141.21033850032836,141.15464820209888,1,[4.314480000175536],[4.314486800227314],0,,,,,,,,,,,,,,,,,,,,,,,,,,,,,,,,,,,,,,,,,,,,,,,,,,,,,,,,,,,,,,,,,,,,,,,,,,,,,,,,,,,,,,,,,,,,,,,,,,,,,,,,,,,,,,,,,,,,,,,,,,,,44K4YF,train_x,blue_star,bottom_right,2025-03-05_17h54.59.303,HideSeek_v1,2022.2.5,60.31970648496639,
,,,,,,,,,,,,,,,0,0,0,0,1,0,1,0,,,,,,,,,,,,,,,,,,,,,,,,,,,,,,,conditions/schedules/train_x_first/blue_star_00/bottom_right/instructions/Slide2.png,conditions/schedules/train_x_first/blue_star_00/bottom_right/instructions/Audio2.wav,145.54570340039209,145.54746280028485,2,"[4.314480000175536, 18.86621499992907]","[0.00020490027964115143, 18.866221700329334]",0,,,,,,,,,,,,,,,,,,,,,,,,,,,,,,,,,,,,,,,,,,,,,,,,,,,,,,,,,,,,,,,,,,,,,,,,,,,,,,,,,,,,,,,,,,,,,,,,,,,,,,,,,,,,,,,,,,,,,,,,,,,,44K4YF,train_x,blue_star,bottom_right,2025-03-05_17h54.59.303,HideSeek_v1,2022.2.5,60.31970648496639,
,,,,,,,,,,,,,,,0,0,0,0,2,0,2,0,,,,,,,,,,,,,,,,,,,,,,,,,,,,,,,conditions/schedules/train_x_first/blue_star_00/bottom_right/instructions/Slide3.png,conditions/schedules/train_x_first/blue_star_00/bottom_right/instructions/Audio3.wav,164.48178160004318,164.4798443003092,3,"[4.314480000175536, 18.86621499992907, 16.510059300344437]","[0.00020490027964115143, 0.0002455003559589386, 16.5100664999336]",0,,,,,,,,,,,,,,,,,,,,,,,,,,,,,,,,,,,,,,,,,,,,,,,,,,,,,,,,,,,,,,,,,,,,,,,,,,,,,,,,,,,,,,,,,,,,,,,,,,,,,,,,,,,,,,,,,,,,,,,,,,,,44K4YF,train_x,blue_star,bottom_right,2025-03-05_17h54.59.303,HideSeek_v1,2022.2.5,60.31970648496639,
,,,,,,,,,,,,,,,0,0,0,0,3,0,3,0,,,,,,,,,,,,,,,,,,,,,,,,,,,,,,,conditions/schedules/train_x_first/blue_star_00/bottom_right/instructions/Slide4.png,conditions/schedules/train_x_first/blue_star_00/bottom_right/instructions/Audio4.wav,181.07319550029933,181.06033630040474,4,"[4.314480000175536, 18.86621499992907, 16.510059300344437, 19.484757400117815]","[0.00020490027964115143, 0.0002455003559589386, 0.014719500206410885, 19.48476370004937]",0,,,,,,,,,,,,,,,,,,,,,,,,,,,,,,,,,,,,,,,,,,,,,,,,,,,,,,,,,,,,,,,,,,,,,,,,,,,,,,,,,,,,,,,,,,,,,,,,,,,,,,,,,,,,,,,,,,,,,,,,,,,,44K4YF,train_x,blue_star,bottom_right,2025-03-05_17h54.59.303,HideSeek_v1,2022.2.5,60.31970648496639,
,,,,,,,,,,,,,,,0,0,0,0,4,0,4,0,,,,,,,,,,,,,,,,,,,,,,,,,,,,,,,conditions/schedules/train_x_first/blue_star_00/bottom_right/instructions/Slide5.png,conditions/schedules/train_x_first/blue_star_00/bottom_right/instructions/Audio5.wav,200.62583480030298,200.62661440041848,5,"[4.314480000175536, 18.86621499992907, 16.510059300344437, 19.484757400117815, 4.552454799879342]","[0.00020490027964115143, 0.0002455003559589386, 0.014719500206410885, 0.031927499920129776, 4.5524623999372125]",0,,,,,,,,,,,,,,,,,,,,,,,,,,,,,,,,,,,,,,,,,,,,,,,,,,,,,,,,,,,,,,,,,,,,,,,,,,,,,,,,,,,,,,,,,,,,,,,,,,,,,,,,,,,,,,,,,,,,,,,,,,,,44K4YF,train_x,blue_star,bottom_right,2025-03-05_17h54.59.303,HideSeek_v1,2022.2.5,60.31970648496639,
,,,,,,,,,,,,,,,0,0,0,0,5,0,5,0,,,,,,,,,,,,,,,,,,,,,,,,,,,,,,,conditions/schedules/train_x_first/blue_star_00/bottom_right/instructions/Slide6.png,conditions/schedules/train_x_first/blue_star_00/bottom_right/instructions/Audio6.wav,205.23072380013764,205.23029420031233,6,"[4.314480000175536, 18.86621499992907, 16.510059300344437, 19.484757400117815, 4.552454799879342, 4.801481999922544]","[0.00020490027964115143, 0.0002455003559589386, 0.014719500206410885, 0.031927499920129776, 0.0484005999751389, 4.801488799974322]",0,,,,,,,,,,,,,,,,,,,,,,,,,,,,,,,,,,,,,,,,,,,,,,,,,,,,,,,,,,,,,,,,,,,,,,,,,,,,,,,,,,,,,,,,,,,,,,,,,,,,,,,,,,,,,,,,,,,,,,,,,,,,44K4YF,train_x,blue_star,bottom_right,2025-03-05_17h54.59.303,HideSeek_v1,2022.2.5,60.31970648496639,
,,,,,,,,,,,,,,,0,0,0,0,6,0,6,0,,,,,,,,,,,,,,,,,,,,,,,,,,,,,,,conditions/schedules/train_x_first/blue_star_00/bottom_right/instructions/Slide7.png,conditions/schedules/train_x_first/blue_star_00/bottom_right/instructions/Audio7.wav,210.08435400016606,210.08430180018766,7,"[4.314480000175536, 18.86621499992907, 16.510059300344437, 19.484757400117815, 4.552454799879342, 4.801481999922544, 5.55255790008232]","[0.00020490027964115143, 0.0002455003559589386, 0.014719500206410885, 0.031927499920129776, 0.0484005999751389, 0.0820579999126494, 5.552564200013876]",0,,,,,,,,,,,,,,,,,,,,,,,,,,,,,,,,,,,,,,,,,,,,,,,,,,,,,,,,,,,,,,,,,,,,,,,,,,,,,,,,,,,,,,,,,,,,,,,,,,,,,,,,,,,,,,,,,,,,,,,,,,,,44K4YF,train_x,blue_star,bottom_right,2025-03-05_17h54.59.303,HideSeek_v1,2022.2.5,60.31970648496639,
,,,,,,,,,,,,,,,0,0,0,0,7,0,7,0,,,,,,,,,,,,,,,,,,,,,,,,,,,,,,,conditions/schedules/train_x_first/blue_star_00/bottom_right/instructions/Slide8.png,conditions/schedules/train_x_first/blue_star_00/bottom_right/instructions/Audio8.wav,215.70887570036575,215.70572620001622,8,"[4.314480000175536, 18.86621499992907, 16.510059300344437, 19.484757400117815, 4.552454799879342, 4.801481999922544, 5.55255790008232, 11.571569900028408]","[0.00020490027964115143, 0.0002455003559589386, 0.014719500206410885, 0.031927499920129776, 0.0484005999751389, 0.0820579999126494, 0.031178300268948078, 11.571576000191271]",0,,,,,,,,,,,,,,,,,,,,,,,,,,,,,,,,,,,,,,,,,,,,,,,,,,,,,,,,,,,,,,,,,,,,,,,,,,,,,,,,,,,,,,,,,,,,,,,,,,,,,,,,,,,,,,,,,,,,,,,,,,,,44K4YF,train_x,blue_star,bottom_right,2025-03-05_17h54.59.303,HideSeek_v1,2022.2.5,60.31970648496639,
,,,,,,,,,,,,,,,0,0,0,0,8,0,8,0,,,,,,,,,,,,,,,,,,,,,,,,,,,,,,,conditions/schedules/train_x_first/blue_star_00/bottom_right/instructions/Slide9.png,conditions/schedules/train_x_first/blue_star_00/bottom_right/instructions/Audio9.wav,227.35027550021186,227.34913420001976,9,"[4.314480000175536, 18.86621499992907, 16.510059300344437, 19.484757400117815, 4.552454799879342, 4.801481999922544, 5.55255790008232, 11.571569900028408, 5.85153350001201]","[0.00020490027964115143, 0.0002455003559589386, 0.014719500206410885, 0.031927499920129776, 0.0484005999751389, 0.0820579999126494, 0.031178300268948078, 0.08056540042161942, 5.851540200412273]",0,,,,,,,,,,,,,,,,,,,,,,,,,,,,,,,,,,,,,,,,,,,,,,,,,,,,,,,,,,,,,,,,,,,,,,,,,,,,,,,,,,,,,,,,,,,,,,,,,,,,,,,,,,,,,,,,,,,,,,,,,,,,44K4YF,train_x,blue_star,bottom_right,2025-03-05_17h54.59.303,HideSeek_v1,2022.2.5,60.31970648496639,
,,,,,,,,,,,,,,,0,0,0,0,9,0,9,0,,,,,,,,,,,,,,,,,,,,,,,,,,,,,,,conditions/schedules/train_x_first/blue_star_00/bottom_right/instructions/Slide10.png,conditions/schedules/train_x_first/blue_star_00/bottom_right/instructions/Audio10.wav,233.25491050025448,233.25357540016992,10,"[4.314480000175536, 18.86621499992907, 16.510059300344437, 19.484757400117815, 4.552454799879342, 4.801481999922544, 5.55255790008232, 11.571569900028408, 5.85153350001201, 7.018976499792188]","[0.00020490027964115143, 0.0002455003559589386, 0.014719500206410885, 0.031927499920129776, 0.0484005999751389, 0.0820579999126494, 0.031178300268948078, 0.08056540042161942, 0.08065740019083023, 7.018983100075275]",0,,,,,,,,,,,,,,,,,,,,,,,,,,,,,,,,,,,,,,,,,,,,,,,,,,,,,,,,,,,,,,,,,,,,,,,,,,,,,,,,,,,,,,,,,,,,,,,,,,,,,,,,,,,,,,,,,,,,,,,,,,,,44K4YF,train_x,blue_star,bottom_right,2025-03-05_17h54.59.303,HideSeek_v1,2022.2.5,60.31970648496639,
,,,,,,,,,,,,,,,0,0,0,0,10,0,10,0,,,,,,,,,,,,,,,,,,,,,,,,,,,,,,,conditions/schedules/train_x_first/blue_star_00/bottom_right/instructions/Slide11.png,conditions/schedules/train_x_first/blue_star_00/bottom_right/instructions/Audio11.wav,240.34350340021774,240.34275320009328,11,"[4.314480000175536, 18.86621499992907, 16.510059300344437, 19.484757400117815, 4.552454799879342, 4.801481999922544, 5.55255790008232, 11.571569900028408, 5.85153350001201, 7.018976499792188, 9.52181060006842]","[0.00020490027964115143, 0.0002455003559589386, 0.014719500206410885, 0.031927499920129776, 0.0484005999751389, 0.0820579999126494, 0.031178300268948078, 0.08056540042161942, 0.08065740019083023, 0.04731980012729764, 9.52181820012629]",0,,,,,,,,,,,,,,,,,,,,,,,,,,,,,,,,,,,,,,,,,,,,,,,,,,,,,,,,,,,,,,,,,,,,,,,,,,,,,,,,,,,,,,,,,,,,,,,,,,,,,,,,,,,,,,,,,,,,,,,,,,,,44K4YF,train_x,blue_star,bottom_right,2025-03-05_17h54.59.303,HideSeek_v1,2022.2.5,60.31970648496639,
,,,,,,,,,,,,,,,0,0,0,0,11,0,11,0,,,,,,,,,,,,,,,,,,,,,,,,,,,,,,,conditions/schedules/train_x_first/blue_star_00/bottom_right/instructions/Slide12.png,conditions/schedules/train_x_first/blue_star_00/bottom_right/instructions/Audio12.wav,249.92156670009717,249.9173942000605,12,"[4.314480000175536, 18.86621499992907, 16.510059300344437, 19.484757400117815, 4.552454799879342, 4.801481999922544, 5.55255790008232, 11.571569900028408, 5.85153350001201, 7.018976499792188, 9.52181060006842, 12.804648399818689]","[0.00020490027964115143, 0.0002455003559589386, 0.014719500206410885, 0.031927499920129776, 0.0484005999751389, 0.0820579999126494, 0.031178300268948078, 0.08056540042161942, 0.08065740019083023, 0.04731980012729764, 0.06518130004405975, 12.804654899984598]",0,,,,,,,,,,,,,,,,,,,,,,,,,,,,,,,,,,,,,,,,,,,,,,,,,,,,,,,,,,,,,,,,,,,,,,,,,,,,,,,,,,,,,,,,,,,,,,,,,,,,,,,,,,,,,,,,,,,,,,,,,,,,44K4YF,train_x,blue_star,bottom_right,2025-03-05_17h54.59.303,HideSeek_v1,2022.2.5,60.31970648496639,
1,9,0,4,0,-5,0,11,2,instr_dim1_1,,,,,,0,0,0,0,,,,,0,0,0,0,,,,,,,,,,,,,,,,,,,,,,,,,,,,,,,,,,,,,stimuli/alien_stimuli/11.png,conditions/schedules/train_x_first/blue_star_00/bottom_right/inputInstr_1.xlsx,stimuli/alien_stimuli/11.png,262.8337636003271,262.8337636003271,262.8337636003271,262.8337636003271,262.82812470044007,return,18.75288960011676,"[-0.16, -0.08, 0, 0.08, 0.16, 0.24, 0.32, 0.4, 0.48, 0.56]","[-0.4, -0.32, -0.24, -0.16, -0.08, 0, 0.08, 0.16, 0.24, 0.32]",0,0,4,9,0.0,0.4,281.7470643003471,281.7470643003471,281.7470643003471,281.7470643003471,281.7470643003471,281.7470643003471,281.7470643003471,281.7433559004683,8.708496999926865,return,8.542998599819839,stimuli/alien_stimuli/11.png,11,9,1,,,,,,,,,,,,,,,,,,,,,,,,,,,,,,,,,,,,,,,,,,,,,,,,,,,,,,,,,,,,,,,,,,,,,,,,,,,,,,,,,,,,,,,,,44K4YF,train_x,blue_star,bottom_right,2025-03-05_17h54.59.303,HideSeek_v1,2022.2.5,60.31970648496639,
,,,,,,,,,,,30,,,,0,0,0,0,,,,,,,,,,,,,,,,,,,,,,,,,,,,,,,,,,,,,,,,,,,,,,,,,,,,,,,,,,,,,,,,,,,,,,,,,,,,,,21,0.7,0,0,99,1,30,0,conditions/schedules/train_x_first/blue_star_00/bottom_right/inputTrain_1.1.xlsx,99,1,1,1,0,,,,,,,,,,,,,,,,,,,,,,,,,,,,,,,,,,,,,,,,,,,,,,,,,,,,,,,,,,,,,,,,,,,,,,,,,,,44K4YF,train_x,blue_star,bottom_right,2025-03-05_17h54.59.303,HideSeek_v1,2022.2.5,60.31970648496639,
,,,,,,,,,,,,,,,1,0,1,0,0,0,0,0,,,,,,,,,,,,,,,,,,,,,,,,,,,,,,,conditions/schedules/train_x_first/blue_star_00/bottom_right/instructions/Slide13.png,conditions/schedules/train_x_first/blue_star_00/bottom_right/instructions/Audio13.wav,290.4469445999712,290.43434630045664,13,"[4.314480000175536, 18.86621499992907, 16.510059300344437, 19.484757400117815, 4.552454799879342, 4.801481999922544, 5.55255790008232, 11.571569900028408, 5.85153350001201, 7.018976499792188, 9.52181060006842, 12.804648399818689, 20.11918879998848]","[0.00020490027964115143, 0.0002455003559589386, 0.014719500206410885, 0.031927499920129776, 0.0484005999751389, 0.0820579999126494, 0.031178300268948078, 0.08056540042161942, 0.08065740019083023, 0.04731980012729764, 0.06518130004405975, 12.804654899984598, 20.119196199811995]",0,,,,,,,,,,,,,,,,,,,,,,,,,,,,,,,,,,,,,,,,,,,,,,,,,,,,,,,,,,,,,,,,,,,,,,,,,,,,,,,,,,,,,,,,,,,,,,,,,,,,,,,,,,,,,,,,,,,,,,,,,,,,44K4YF,train_x,blue_star,bottom_right,2025-03-05_17h54.59.303,HideSeek_v1,2022.2.5,60.31970648496639,
,,,,,,,,,,,,,,,1,0,1,0,1,0,1,0,,,,,,,,,,,,,,,,,,,,,,,,,,,,,,,conditions/schedules/train_x_first/blue_star_00/bottom_right/instructions/Slide14.png,conditions/schedules/train_x_first/blue_star_00/bottom_right/instructions/Audio14.wav,310.6283439002,310.61829320034013,14,"[4.314480000175536, 18.86621499992907, 16.510059300344437, 19.484757400117815, 4.552454799879342, 4.801481999922544, 5.55255790008232, 11.571569900028408, 5.85153350001201, 7.018976499792188, 9.52181060006842, 12.804648399818689, 20.11918879998848, 13.431715900078416]","[0.00020490027964115143, 0.0002455003559589386, 0.014719500206410885, 0.031927499920129776, 0.0484005999751389, 0.0820579999126494, 0.031178300268948078, 0.08056540042161942, 0.08065740019083023, 0.04731980012729764, 0.06518130004405975, 12.804654899984598, 0.00020870007574558258, 13.431722400244325]",0,,,,,,,,,,,,,,,,,,,,,,,,,,,,,,,,,,,,,,,,,,,,,,,,,,,,,,,,,,,,,,,,,,,,,,,,,,,,,,,,,,,,,,,,,,,,,,,,,,,,,,,,,,,,,,,,,,,,,,,,,,,,44K4YF,train_x,blue_star,bottom_right,2025-03-05_17h54.59.303,HideSeek_v1,2022.2.5,60.31970648496639,
2,8,2,8,2,0,0,61,2,instr_dim1_1,,,,,,1,0,1,0,,,,,0,0,0,0,,,,,,,,,,,,,,,,,,,,,,,,,,,,,,,,,,,,,stimuli/alien_stimuli/61.png,conditions/schedules/train_x_first/blue_star_00/bottom_right/inputInstr_1.xlsx,stimuli/alien_stimuli/61.png,324.16326810000464,324.16326810000464,324.16326810000464,324.16326810000464,324.16214740029534,return,7.521423100028187,"[-0.16, -0.08, 0, 0.08, 0.16, 0.24, 0.32, 0.4, 0.48, 0.56]","[-0.4, -0.32, -0.24, -0.16, -0.08, 0, 0.08, 0.16, 0.24, 0.32]",2,2,8,8,0.0,0.0,331.8319920003414,331.8319920003414,331.8319920003414,331.8319920003414,331.8319920003414,331.8319920003414,331.8319920003414,331.81829360025,7.540544299874455,return,7.380132899619639,stimuli/alien_stimuli/61.png,61,8,2,,,,,,,,,,,,,,,,,,,,,,,,,,,,,,,,,,,,,,,,,,,,,,,,,,,,,,,,,,,,,,,,,,,,,,,,,,,,,,,,,,,,,,,,,44K4YF,train_x,blue_star,bottom_right,2025-03-05_17h54.59.303,HideSeek_v1,2022.2.5,60.31970648496639,
,,,,,,,,,,,30,,,,1,0,1,0,,,,,,,,,,,,,,,,,,,,,,,,,,,,,,,,,,,,,,,,,,,,,,,,,,,,,,,,,,,,,,,,,,,,,,,,,,,,,,21,0.7,0,0,99,1,30,0,conditions/schedules/train_x_first/blue_star_00/bottom_right/inputTrain_1.1.xlsx,99,1,1,1,0,,,,,,,,,,,,,,,,,,,,,,,,,,,,,,,,,,,,,,,,,,,,,,,,,,,,,,,,,,,,,,,,,,,,,,,,,,,44K4YF,train_x,blue_star,bottom_right,2025-03-05_17h54.59.303,HideSeek_v1,2022.2.5,60.31970648496639,
,,,,,,,,,,,,,,,2,0,2,0,0,0,0,0,,,,,,,,,,,,,,,,,,,,,,,,,,,,,,,conditions/schedules/train_x_first/blue_star_00/bottom_right/instructions/Slide15.png,conditions/schedules/train_x_first/blue_star_00/bottom_right/instructions/Audio15.wav,339.37695620022714,339.3747197002638,15,"[4.314480000175536, 18.86621499992907, 16.510059300344437, 19.484757400117815, 4.552454799879342, 4.801481999922544, 5.55255790008232, 11.571569900028408, 5.85153350001201, 7.018976499792188, 9.52181060006842, 12.804648399818689, 20.11918879998848, 13.431715900078416, 30.4372657998465]","[0.00020490027964115143, 0.0002455003559589386, 0.014719500206410885, 0.031927499920129776, 0.0484005999751389, 0.0820579999126494, 0.031178300268948078, 0.08056540042161942, 0.08065740019083023, 0.04731980012729764, 0.06518130004405975, 12.804654899984598, 0.00020870007574558258, 13.431722400244325, 30.437273299787194]",0,,,,,,,,,,,,,,,,,,,,,,,,,,,,,,,,,,,,,,,,,,,,,,,,,,,,,,,,,,,,,,,,,,,,,,,,,,,,,,,,,,,,,,,,,,,,,,,,,,,,,,,,,,,,,,,,,,,,,,,,,,,,44K4YF,train_x,blue_star,bottom_right,2025-03-05_17h54.59.303,HideSeek_v1,2022.2.5,60.31970648496639,
,,,,,,,,,,,,,,,2,0,2,0,1,0,1,0,,,,,,,,,,,,,,,,,,,,,,,,,,,,,,,conditions/schedules/train_x_first/blue_star_00/bottom_right/instructions/Slide16.png,conditions/schedules/train_x_first/blue_star_00/bottom_right/instructions/Audio16.wav,369.87621390027925,369.86666810018943,16,"[4.314480000175536, 18.86621499992907, 16.510059300344437, 19.484757400117815, 4.552454799879342, 4.801481999922544, 5.55255790008232, 11.571569900028408, 5.85153350001201, 7.018976499792188, 9.52181060006842, 12.804648399818689, 20.11918879998848, 13.431715900078416, 30.4372657998465, 19.12081140000373]","[0.00020490027964115143, 0.0002455003559589386, 0.014719500206410885, 0.031927499920129776, 0.0484005999751389, 0.0820579999126494, 0.031178300268948078, 0.08056540042161942, 0.08065740019083023, 0.04731980012729764, 0.06518130004405975, 12.804654899984598, 0.00020870007574558258, 13.431722400244325, 0.03418299974873662, 19.120818099938333]",0,,,,,,,,,,,,,,,,,,,,,,,,,,,,,,,,,,,,,,,,,,,,,,,,,,,,,,,,,,,,,,,,,,,,,,,,,,,,,,,,,,,,,,,,,,,,,,,,,,,,,,,,,,,,,,,,,,,,,,,,,,,,44K4YF,train_x,blue_star,bottom_right,2025-03-05_17h54.59.303,HideSeek_v1,2022.2.5,60.31970648496639,
,7,1,4,1,-3,0,31,,train_dim1_1,1,30,,,,2,0,2,0,,,,,,,,,0,0,0,0,0,0,0,0,0,0,0,0,,,,,,,,,,,,,,,,,,,,,,,,,stimuli/alien_stimuli/31.png,,,,,,,,,,,,,,,,,,,,,,,,,,,,,,,,,,,,,,,30,,,,,,,,389.1003970000893,389.1003970000893,389.1003970000893,389.1003970000893,389.1003970000893,left,5.578264499548823,0,0,0,99,0.32,-0.32,left,5.472245700191706,,,,,,,,,,,,,,,,,,,,,,,,,,,,,,,,,,,,,,,,,,,,,,,,,,,,,,,,,,,,44K4YF,train_x,blue_star,bottom_right,2025-03-05_17h54.59.303,HideSeek_v1,2022.2.5,60.31970648496639,
,7,1,4,1,-3,0,31,,train_dim1_1,1,30,,,,2,0,2,0,,,,,,,,,0,0,0,0,0,0,0,0,1,0,1,0,,,,,,,,,,,,,,,,,,,,,,,,,,,,,,,,,,,,,,,,,,,,,,,,,,,,,,,,,,,,,,,,30,,,,,,,,394.668353700079,394.668353700079,394.668353700079,394.668353700079,394.668353700079,left,1.4600659999996424,0,0,0,99,0.24,-0.32,left,1.3818100998178124,,,,,,,,,,,,,,,,,,,,,,,,,,,,,,,,,,,,,,,,,,,,,,,,,,,,,,,,,,,,44K4YF,train_x,blue_star,bottom_right,2025-03-05_17h54.59.303,HideSeek_v1,2022.2.5,60.31970648496639,
,7,1,4,1,-3,0,31,,train_dim1_1,1,30,,,,2,0,2,0,,,,,,,,,0,0,0,0,0,0,0,0,2,0,2,0,,,,,,,,,,,,,,,,,,,,,,,,,,,,,,,,,,,,,,,,,,,,,,,,,,,,,,,,,,,,,,,,30,,,,,,,,396.1352192000486,396.1352192000486,396.1352192000486,396.1352192000486,396.1352192000486,left,1.8943541003391147,0,0,0,99,0.15999999999999998,-0.32,left,1.8066521994769573,,,,,,,,,,,,,,,,,,,,,,,,,,,,,,,,,,,,,,,,,,,,,,,,,,,,,,,,,,,,44K4YF,train_x,blue_star,bottom_right,2025-03-05_17h54.59.303,HideSeek_v1,2022.2.5,60.31970648496639,
,7,1,4,1,-3,0,31,,train_dim1_1,1,30,,,,2,0,2,0,,,,,,,,,0,0,0,0,0,0,0,0,3,0,3,0,,,,,,,,,,,,,,,,,,,,,,,,,,,,,,,,,,,,,,,,,,,,,,,,,,,,,,,,,,,,,,,,30,,,,,,,,398.03678950015455,398.03678950015455,398.03678950015455,398.03678950015455,398.03678950015455,return,1.2770736999809742,1,0,0,1,0.15999999999999998,-0.32,return,1.1972543001174927,0,-3,0.15999999999999998,-0.32,,,,,,,,,,,,,,,,,,,,,,,,,,,,,,,,,,,,,,,,,,,,,,,,,,,,,,,,44K4YF,train_x,blue_star,bottom_right,2025-03-05_17h54.59.303,HideSeek_v1,2022.2.5,60.31970648496639,
,7,4,2,4,-5,0,11,,train_dim1_1,2,30,,,,2,0,2,0,,,,,,,,,0,0,0,0,0,1,1,1,0,0,0,0,,,,,,,,,,,,,,,,,,,,,,,,,stimuli/alien_stimuli/11.png,,,,,,,,,,,,,,,,,,,,,,,,,,,,,stimuli/alien_stimuli/31.png,31,7,3,,,,,,,30,,,,,,,,408.433043200057,408.433043200057,408.433043200057,408.433043200057,408.433043200057,left,30.55803109984845,1,0,0,99,0.32,-0.08,left,30.469545600004494,,,,,406.86407440016046,408.433043200057,0.16,-0.32,0.0,0.24,-0.32,0.16,0.28,0.16,-0.32,400.8871641000733,400.8871641000733,400.8871641000733,400.8871641000733,400.8871641000733,400.8871641000733,400.8871641000733,400.8871641000733,400.87591250040566,6.0905423001386225,return,5.946447699796408,,,,,,,,,,,,,,,,,,,,,,,,,,,,,,,,,44K4YF,train_x,blue_star,bottom_right,2025-03-05_17h54.59.303,HideSeek_v1,2022.2.5,60.31970648496639,
,7,4,2,4,-5,0,11,,train_dim1_1,2,30,,,,2,0,2,0,,,,,,,,,0,0,0,0,0,1,1,1,1,0,1,0,,,,,,,,,,,,,,,,,,,,,,,,,,,,,,,,,,,,,,,,,,,,,,,,,,,,,,,,,,,,,,,,30,,,,,,,,438.99709080019966,438.99709080019966,438.99709080019966,438.99709080019966,438.99709080019966,left,0.7595808999612927,1,0,0,99,0.24,-0.08,left,0.6771257999353111,,,,,,,,,,,,,,,,,,,,,,,,,,,,,,,,,,,,,,,,,,,,,,,,,,,,,,,,,,,,44K4YF,train_x,blue_star,bottom_right,2025-03-05_17h54.59.303,HideSeek_v1,2022.2.5,60.31970648496639,
,7,4,2,4,-5,0,11,,train_dim1_1,2,30,,,,2,0,2,0,,,,,,,,,0,0,0,0,0,1,1,1,2,0,2,0,,,,,,,,,,,,,,,,,,,,,,,,,,,,,,,,,,,,,,,,,,,,,,,,,,,,,,,,,,,,,,,,30,,,,,,,,439.75907770032063,439.75907770032063,439.75907770032063,439.75907770032063,439.75907770032063,left,0.5764224999584258,1,0,0,99,0.15999999999999998,-0.08,left,0.4879534998908639,,,,,,,,,,,,,,,,,,,,,,,,,,,,,,,,,,,,,,,,,,,,,,,,,,,,,,,,,,,,44K4YF,train_x,blue_star,bottom_right,2025-03-05_17h54.59.303,HideSeek_v1,2022.2.5,60.31970648496639,
,7,4,2,4,-5,0,11,,train_dim1_1,2,30,,,,2,0,2,0,,,,,,,,,0,0,0,0,0,1,1,1,3,0,3,0,,,,,,,,,,,,,,,,,,,,,,,,,,,,,,,,,,,,,,,,,,,,,,,,,,,,,,,,,,,,,,,,30,,,,,,,,440.343360400293,440.343360400293,440.343360400293,440.343360400293,440.343360400293,left,0.5262180003337562,1,0,0,99,0.07999999999999997,-0.08,left,0.44224199978634715,,,,,,,,,,,,,,,,,,,,,,,,,,,,,,,,,,,,,,,,,,,,,,,,,,,,,,,,,,,,44K4YF,train_x,blue_star,bottom_right,2025-03-05_17h54.59.303,HideSeek_v1,2022.2.5,60.31970648496639,
,7,4,2,4,-5,0,11,,train_dim1_1,2,30,,,,2,0,2,0,,,,,,,,,0,0,0,0,0,1,1,1,4,0,4,0,,,,,,,,,,,,,,,,,,,,,,,,,,,,,,,,,,,,,,,,,,,,,,,,,,,,,,,,,,,,,,,,30,,,,,,,,440.87620880035684,440.87620880035684,440.87620880035684,440.87620880035684,440.87620880035684,left,0.4435065998695791,1,0,0,99,-2.7755575615628914e-17,-0.08,left,0.3544763997197151,,,,,,,,,,,,,,,,,,,,,,,,,,,,,,,,,,,,,,,,,,,,,,,,,,,,,,,,,,,,44K4YF,train_x,blue_star,bottom_right,2025-03-05_17h54.59.303,HideSeek_v1,2022.2.5,60.31970648496639,
,7,4,2,4,-5,0,11,,train_dim1_1,2,30,,,,2,0,2,0,,,,,,,,,0,0,0,0,0,1,1,1,5,0,5,0,,,,,,,,,,,,,,,,,,,,,,,,,,,,,,,,,,,,,,,,,,,,,,,,,,,,,,,,,,,,,,,,30,,,,,,,,441.3276009000838,441.3276009000838,441.3276009000838,441.3276009000838,441.3276009000838,return,0.6098933001048863,2,0,0,1,-2.7755575615628914e-17,-0.08,return,0.5171771999448538,0,-8,-2.7755575615628914e-17,-0.08,,,,,,,,,,,,,,,,,,,,,,,,,,,,,,,,,,,,,,,,,,,,,,,,,,,,,,,,44K4YF,train_x,blue_star,bottom_right,2025-03-05_17h54.59.303,HideSeek_v1,2022.2.5,60.31970648496639,
,9,4,5,4,-4,0,21,,train_dim1_1,3,30,,,,2,0,2,0,,,,,,,,,0,0,0,0,0,2,2,2,0,0,0,0,,,,,,,,,,,,,,,,,,,,,,,,,stimuli/alien_stimuli/21.png,,,,,,,,,,,,,,,,,,,,,,,,,,,,,stimuli/alien_stimuli/11.png,11,7,4,,,,,,,30,,,,,,,,449.16779950028285,449.16779950028285,449.16779950028285,449.16779950028285,449.16779950028285,left,8.004436899907887,2,0,0,99,0.48000000000000004,-0.08,left,7.905741899739951,,,,,447.5979947000742,449.16779950028285,0,-0.08,0.0,0.4,-0.08,0,0.2,0,-0.08,443.52298999996856,443.52298999996856,443.52298999996856,443.52298999996856,443.52298999996856,443.52298999996856,443.52298999996856,443.52298999996856,443.5109971001744,4.205616000108421,return,4.053150499705225,,,,,,,,,,,,,,,,,,,,,,,,,,,,,,,,,44K4YF,train_x,blue_star,bottom_right,2025-03-05_17h54.59.303,HideSeek_v1,2022.2.5,60.31970648496639,
,9,4,5,4,-4,0,21,,train_dim1_1,3,30,,,,2,0,2,0,,,,,,,,,0,0,0,0,0,2,2,2,1,0,1,0,,,,,,,,,,,,,,,,,,,,,,,,,,,,,,,,,,,,,,,,,,,,,,,,,,,,,,,,,,,,,,,,30,,,,,,,,457.17442950000986,457.17442950000986,457.17442950000986,457.17442950000986,457.17442950000986,right,8.215043699834496,2,0,0,99,0.56,-0.08,right,8.131303699687123,,,,,,,,,,,,,,,,,,,,,,,,,,,,,,,,,,,,,,,,,,,,,,,,,,,,,,,,,,,,44K4YF,train_x,blue_star,bottom_right,2025-03-05_17h54.59.303,HideSeek_v1,2022.2.5,60.31970648496639,
,9,4,5,4,-4,0,21,,train_dim1_1,3,30,,,,2,0,2,0,,,,,,,,,0,0,0,0,0,2,2,2,2,0,2,0,,,,,,,,,,,,,,,,,,,,,,,,,,,,,,,,,,,,,,,,,,,,,,,,,,,,,,,,,,,,,,,,30,,,,,,,,465.3971309000626,465.3971309000626,465.3971309000626,465.3971309000626,465.3971309000626,up,5.047085399739444,2,0,0,99,0.56,0.0,up,4.965386999770999,,,,,,,,,,,,,,,,,,,,,,,,,,,,,,,,,,,,,,,,,,,,,,,,,,,,,,,,,,,,44K4YF,train_x,blue_star,bottom_right,2025-03-05_17h54.59.303,HideSeek_v1,2022.2.5,60.31970648496639,
,9,4,5,4,-4,0,21,,train_dim1_1,3,30,,,,2,0,2,0,,,,,,,,,0,0,0,0,0,2,2,2,3,0,3,0,,,,,,,,,,,,,,,,,,,,,,,,,,,,,,,,,,,,,,,,,,,,,,,,,,,,,,,,,,,,,,,,30,,,,,,,,470.45177659997717,470.45177659997717,470.45177659997717,470.45177659997717,470.45177659997717,up,0.6597178997471929,2,0,0,99,0.56,0.08,up,0.5734915998764336,,,,,,,,,,,,,,,,,,,,,,,,,,,,,,,,,,,,,,,,,,,,,,,,,,,,,,,,,,,,44K4YF,train_x,blue_star,bottom_right,2025-03-05_17h54.59.303,HideSeek_v1,2022.2.5,60.31970648496639,
,9,4,5,4,-4,0,21,,train_dim1_1,3,30,,,,2,0,2,0,,,,,,,,,0,0,0,0,0,2,2,2,4,0,4,0,,,,,,,,,,,,,,,,,,,,,,,,,,,,,,,,,,,,,,,,,,,,,,,,,,,,,,,,,,,,,,,,30,,,,,,,,471.1175848999992,471.1175848999992,471.1175848999992,471.1175848999992,471.1175848999992,up,0.5602941000834107,2,0,0,99,0.56,0.16,up,0.47175819939002395,,,,,,,,,,,,,,,,,,,,,,,,,,,,,,,,,,,,,,,,,,,,,,,,,,,,,,,,,,,,44K4YF,train_x,blue_star,bottom_right,2025-03-05_17h54.59.303,HideSeek_v1,2022.2.5,60.31970648496639,
,9,4,5,4,-4,0,21,,train_dim1_1,3,30,,,,2,0,2,0,,,,,,,,,0,0,0,0,0,2,2,2,5,0,5,0,,,,,,,,,,,,,,,,,,,,,,,,,,,,,,,,,,,,,,,,,,,,,,,,,,,,,,,,,,,,,,,,30,,,,,,,,471.68567310040817,471.68567310040817,471.68567310040817,471.68567310040817,471.68567310040817,up,0.44252630043774843,2,0,0,99,0.56,0.24,up,0.3573950994759798,,,,,,,,,,,,,,,,,,,,,,,,,,,,,,,,,,,,,,,,,,,,,,,,,,,,,,,,,,,,44K4YF,train_x,blue_star,bottom_right,2025-03-05_17h54.59.303,HideSeek_v1,2022.2.5,60.31970648496639,
,9,4,5,4,-4,0,21,,train_dim1_1,3,30,,,,2,0,2,0,,,,,,,,,0,0,0,0,0,2,2,2,6,0,6,0,,,,,,,,,,,,,,,,,,,,,,,,,,,,,,,,,,,,,,,,,,,,,,,,,,,,,,,,,,,,,,,,30,,,,,,,,472.1353131001815,472.1353131001815,472.1353131001815,472.1353131001815,472.1353131001815,up,0.5098318997770548,2,0,0,99,0.56,0.32,up,0.42321359971538186,,,,,,,,,,,,,,,,,,,,,,,,,,,,,,,,,,,,,,,,,,,,,,,,,,,,,,,,,,,,44K4YF,train_x,blue_star,bottom_right,2025-03-05_17h54.59.303,HideSeek_v1,2022.2.5,60.31970648496639,
,9,4,5,4,-4,0,21,,train_dim1_1,3,30,,,,2,0,2,0,,,,,,,,,0,0,0,0,0,2,2,2,7,0,7,0,,,,,,,,,,,,,,,,,,,,,,,,,,,,,,,,,,,,,,,,,,,,,,,,,,,,,,,,,,,,,,,,30,,,,,,,,472.65250009996817,472.65250009996817,472.65250009996817,472.65250009996817,472.65250009996817,return,0.6930603003129363,2,0,0,0,0.56,0.32,return,0.6091152997687459,5,-8,0.56,0.32,,,,,,,,,,,,,,,,,,,,,,,,,,,,,,,,,,,,,,,,,,,,,,,,,,,,,,,,44K4YF,train_x,blue_star,bottom_right,2025-03-05_17h54.59.303,HideSeek_v1,2022.2.5,60.31970648496639,
,7,3,6,3,-1,0,51,,train_dim1_1,4,30,,,,2,0,2,0,,,,,,,,,0,0,0,0,0,3,3,3,0,0,0,0,,,,,,,,,,,,,,,,,,,,,,,,,stimuli/alien_stimuli/51.png,,,,,,,,,,,,,,,,,,,,,,,,,,,,,stimuli/alien_stimuli/21.png,21,9,5,,,,,,,30,,,,,,,,483.14267010008916,483.14267010008916,483.14267010008916,483.14267010008916,483.14267010008916,left,2.4345717998221517,2,0,0,99,0.32,-0.16,left,2.3527045999653637,,,,,481.5762511002831,483.14267010008916,0.24,-0.08,0.0,0.32,-0.08,0.24,0.4,0.24,-0.08,474.9342456003651,474.9342456003651,474.9342456003651,474.9342456003651,474.9342456003651,474.9342456003651,474.9342456003651,474.9342456003651,474.92025100011375,6.77533459989354,return,6.624248799867928,,,,,,,,,,,,,,,,,,,,,,,,,,,,,,,,,44K4YF,train_x,blue_star,bottom_right,2025-03-05_17h54.59.303,HideSeek_v1,2022.2.5,60.31970648496639,
,7,3,6,3,-1,0,51,,train_dim1_1,4,30,,,,2,0,2,0,,,,,,,,,0,0,0,0,0,3,3,3,1,0,1,0,,,,,,,,,,,,,,,,,,,,,,,,,,,,,,,,,,,,,,,,,,,,,,,,,,,,,,,,,,,,,,,,30,,,,,,,,485.58085000002757,485.58085000002757,485.58085000002757,485.58085000002757,485.58085000002757,right,4.478382100351155,2,0,0,99,0.4,-0.16,right,4.4021000997163355,,,,,,,,,,,,,,,,,,,,,,,,,,,,,,,,,,,,,,,,,,,,,,,,,,,,,,,,,,,,44K4YF,train_x,blue_star,bottom_right,2025-03-05_17h54.59.303,HideSeek_v1,2022.2.5,60.31970648496639,
,7,3,6,3,-1,0,51,,train_dim1_1,4,30,,,,2,0,2,0,,,,,,,,,0,0,0,0,0,3,3,3,2,0,2,0,,,,,,,,,,,,,,,,,,,,,,,,,,,,,,,,,,,,,,,,,,,,,,,,,,,,,,,,,,,,,,,,30,,,,,,,,490.0664853001945,490.0664853001945,490.0664853001945,490.0664853001945,490.0664853001945,return,0.9104438000358641,2,1,0,0,0.4,-0.16,return,0.8296256996691227,5,-8,0.4,-0.16,,,,,,,,,,,,,,,,,,,,,,,,,,,,,,,,,,,,,,,,,,,,,,,,,,,,,,,,44K4YF,train_x,blue_star,bottom_right,2025-03-05_17h54.59.303,HideSeek_v1,2022.2.5,60.31970648496639,
,5,2,5,2,0,0,61,,train_dim1_1,5,30,,,,2,0,2,0,,,,,,,,,0,0,0,0,0,4,4,4,0,0,0,0,,,,,,,,,,,,,,,,,,,,,,,,,stimuli/alien_stimuli/61.png,,,,,,,,,,,,,,,,,,,,,,,,,,,,,stimuli/alien_stimuli/51.png,51,7,6,,,,,,,30,,,,,,,,497.5572381000966,497.5572381000966,497.5572381000966,497.5572381000966,497.5572381000966,return,2.480055300053209,3,0,0,1,0.24,-0.24,return,2.388505599927157,5,-8,0.24,-0.24,495.98730920022354,497.5572381000966,0.32,-0.16,0.0,0.08,-0.16,0.32,0.36,0.32,-0.16,492.5442166002467,492.5442166002467,492.5442166002467,492.5442166002467,492.5442166002467,492.5442166002467,492.5442166002467,492.5442166002467,492.53500690017825,3.554166699759662,return,3.419762299861759,,,,,,,,,,,,,,,,,,,,,,,,,,,,,,,,,44K4YF,train_x,blue_star,bottom_right,2025-03-05_17h54.59.303,HideSeek_v1,2022.2.5,60.31970648496639,
,5,0,1,0,-4,0,21,,train_dim1_1,6,30,,,,2,0,2,0,,,,,,,,,0,0,0,0,0,5,5,5,0,0,0,0,,,,,,,,,,,,,,,,,,,,,,,,,stimuli/alien_stimuli/21.png,,,,,,,,,,,,,,,,,,,,,,,,,,,,,stimuli/alien_stimuli/61.png,61,5,7,,,,,,,30,,,,,,,,505.63539460022,505.63539460022,505.63539460022,505.63539460022,505.63539460022,left,1.5155515996739268,3,0,0,99,0.15999999999999998,-0.4,left,1.4258838999085128,,,,,504.06140680005774,505.63539460022,0.24,-0.24,0.0,0.0,-0.24,0.24,0.24,0.24,-0.24,501.60722500039265,501.60722500039265,501.60722500039265,501.60722500039265,501.60722500039265,501.60722500039265,501.60722500039265,501.60722500039265,501.5924039002042,2.5708494996652007,return,2.4269353998824954,,,,,,,,,,,,,,,,,,,,,,,,,,,,,,,,,44K4YF,train_x,blue_star,bottom_right,2025-03-05_17h54.59.303,HideSeek_v1,2022.2.5,60.31970648496639,
,5,0,1,0,-4,0,21,,train_dim1_1,6,30,,,,2,0,2,0,,,,,,,,,0,0,0,0,0,5,5,5,1,0,1,0,,,,,,,,,,,,,,,,,,,,,,,,,,,,,,,,,,,,,,,,,,,,,,,,,,,,,,,,,,,,,,,,30,,,,,,,,507.1483061001636,507.1483061001636,507.1483061001636,507.1483061001636,507.1483061001636,left,1.4933647001162171,3,0,0,99,0.07999999999999997,-0.4,left,1.4099215995520353,,,,,,,,,,,,,,,,,,,,,,,,,,,,,,,,,,,,,,,,,,,,,,,,,,,,,,,,,,,,44K4YF,train_x,blue_star,bottom_right,2025-03-05_17h54.59.303,HideSeek_v1,2022.2.5,60.31970648496639,
,5,0,1,0,-4,0,21,,train_dim1_1,6,30,,,,2,0,2,0,,,,,,,,,0,0,0,0,0,5,5,5,2,0,2,0,,,,,,,,,,,,,,,,,,,,,,,,,,,,,,,,,,,,,,,,,,,,,,,,,,,,,,,,,,,,,,,,30,,,,,,,,508.6485136002302,508.6485136002302,508.6485136002302,508.6485136002302,508.6485136002302,left,0.6934932000003755,3,0,0,99,-2.7755575615628914e-17,-0.4,left,0.6083373995497823,,,,,,,,,,,,,,,,,,,,,,,,,,,,,,,,,,,,,,,,,,,,,,,,,,,,,,,,,,,,44K4YF,train_x,blue_star,bottom_right,2025-03-05_17h54.59.303,HideSeek_v1,2022.2.5,60.31970648496639,
,5,0,1,0,-4,0,21,,train_dim1_1,6,30,,,,2,0,2,0,,,,,,,,,0,0,0,0,0,5,5,5,3,0,3,0,,,,,,,,,,,,,,,,,,,,,,,,,,,,,,,,,,,,,,,,,,,,,,,,,,,,,,,,,,,,,,,,30,,,,,,,,509.3501960001886,509.3501960001886,509.3501960001886,509.3501960001886,509.3501960001886,left,0.6264169001951814,3,0,0,99,-0.08000000000000003,-0.4,left,0.5502146994695067,,,,,,,,,,,,,,,,,,,,,,,,,,,,,,,,,,,,,,,,,,,,,,,,,,,,,,,,,,,,44K4YF,train_x,blue_star,bottom_right,2025-03-05_17h54.59.303,HideSeek_v1,2022.2.5,60.31970648496639,
,5,0,1,0,-4,0,21,,train_dim1_1,6,30,,,,2,0,2,0,,,,,,,,,0,0,0,0,0,5,5,5,4,0,4,0,,,,,,,,,,,,,,,,,,,,,,,,,,,,,,,,,,,,,,,,,,,,,,,,,,,,,,,,,,,,,,,,30,,,,,,,,509.98339440021664,509.98339440021664,509.98339440021664,509.98339440021664,509.98339440021664,left,1.7438389002345502,3,0,0,99,-0.16000000000000003,-0.4,left,1.6616283995099366,,,,,,,,,,,,,,,,,,,,,,,,,,,,,,,,,,,,,,,,,,,,,,,,,,,,,,,,,,,,44K4YF,train_x,blue_star,bottom_right,2025-03-05_17h54.59.303,HideSeek_v1,2022.2.5,60.31970648496639,
,5,0,1,0,-4,0,21,,train_dim1_1,6,30,,,,2,0,2,0,,,,,,,,,0,0,0,0,0,5,5,5,5,0,5,0,,,,,,,,,,,,,,,,,,,,,,,,,,,,,,,,,,,,,,,,,,,,,,,,,,,,,,,,,,,,,,,,30,,,,,,,,511.7351875002496,511.7351875002496,511.7351875002496,511.7351875002496,511.7351875002496,return,0.6266632000915706,3,1,0,0,-0.16000000000000003,-0.4,return,0.5343647999688983,5,-13,-0.16000000000000003,-0.4,,,,,,,,,,,,,,,,,,,,,,,,,,,,,,,,,,,,,,,,,,,,,,,,,,,,,,,,44K4YF,train_x,blue_star,bottom_right,2025-03-05_17h54.59.303,HideSeek_v1,2022.2.5,60.31970648496639,
,8,0,8,0,0,0,61,,train_dim1_1,7,30,,,,2,0,2,0,,,,,,,,,0,0,0,0,0,6,6,6,0,0,0,0,,,,,,,,,,,,,,,,,,,,,,,,,stimuli/alien_stimuli/61.png,,,,,,,,,,,,,,,,,,,,,,,,,,,,,stimuli/alien_stimuli/21.png,21,5,8,,,,,,,30,,,,,,,,518.7204122003168,518.7204122003168,518.7204122003168,518.7204122003168,518.7204122003168,return,1.4670830997638404,4,0,0,1,0.48,-0.4,return,1.3856429997831583,5,-13,0.48,-0.4,517.1557614002377,518.7204122003168,-0.08,-0.4,0.0,0.32,-0.4,-0.08,0.07999999999999999,-0.08,-0.4,513.9334792001173,513.9334792001173,513.9334792001173,513.9334792001173,513.9334792001173,513.9334792001173,513.9334792001173,513.9334792001173,513.919230000442,3.338577500078827,return,3.1903368993662298,,,,,,,,,,,,,,,,,,,,,,,,,,,,,,,,,44K4YF,train_x,blue_star,bottom_right,2025-03-05_17h54.59.303,HideSeek_v1,2022.2.5,60.31970648496639,
,5,4,2,4,-3,0,31,,train_dim1_1,8,30,,,,2,0,2,0,,,,,,,,,0,0,0,0,0,7,7,7,0,0,0,0,,,,,,,,,,,,,,,,,,,,,,,,,stimuli/alien_stimuli/31.png,,,,,,,,,,,,,,,,,,,,,,,,,,,,,stimuli/alien_stimuli/61.png,61,8,9,,,,,,,30,,,,,,,,525.0925157000311,525.0925157000311,525.0925157000311,525.0925157000311,525.0925157000311,left,2.1178576997481287,4,0,0,99,0.15999999999999998,-0.08,left,2.014553899411112,,,,,523.510471300222,525.0925157000311,0.48,-0.4,0.0,0.0,-0.4,0.48,0.48,0.48,-0.4,521.7704951004125,521.7704951004125,521.7704951004125,521.7704951004125,521.7704951004125,521.7704951004125,521.7704951004125,521.7704951004125,521.7593895000406,1.8695693002082407,return,1.7139804000034928,,,,,,,,,,,,,,,,,,,,,,,,,,,,,,,,,44K4YF,train_x,blue_star,bottom_right,2025-03-05_17h54.59.303,HideSeek_v1,2022.2.5,60.31970648496639,
,5,4,2,4,-3,0,31,,train_dim1_1,8,30,,,,2,0,2,0,,,,,,,,,0,0,0,0,0,7,7,7,1,0,1,0,,,,,,,,,,,,,,,,,,,,,,,,,,,,,,,,,,,,,,,,,,,,,,,,,,,,,,,,,,,,,,,,30,,,,,,,,527.1994415000081,527.1994415000081,527.1994415000081,527.1994415000081,527.1994415000081,left,0.5425498997792602,4,0,0,99,0.07999999999999997,-0.08,left,0.45692919939756393,,,,,,,,,,,,,,,,,,,,,,,,,,,,,,,,,,,,,,,,,,,,,,,,,,,,,,,,,,,,44K4YF,train_x,blue_star,bottom_right,2025-03-05_17h54.59.303,HideSeek_v1,2022.2.5,60.31970648496639,
,5,4,2,4,-3,0,31,,train_dim1_1,8,30,,,,2,0,2,0,,,,,,,,,0,0,0,0,0,7,7,7,2,0,2,0,,,,,,,,,,,,,,,,,,,,,,,,,,,,,,,,,,,,,,,,,,,,,,,,,,,,,,,,,,,,,,,,30,,,,,,,,527.7488220999949,527.7488220999949,527.7488220999949,527.7488220999949,527.7488220999949,left,0.42602350004017353,4,0,0,99,-2.7755575615628914e-17,-0.08,left,0.34901139978319407,,,,,,,,,,,,,,,,,,,,,,,,,,,,,,,,,,,,,,,,,,,,,,,,,,,,,,,,,,,,44K4YF,train_x,blue_star,bottom_right,2025-03-05_17h54.59.303,HideSeek_v1,2022.2.5,60.31970648496639,
,5,4,2,4,-3,0,31,,train_dim1_1,8,30,,,,2,0,2,0,,,,,,,,,0,0,0,0,0,7,7,7,3,0,3,0,,,,,,,,,,,,,,,,,,,,,,,,,,,,,,,,,,,,,,,,,,,,,,,,,,,,,,,,,,,,,,,,30,,,,,,,,528.1857814001851,528.1857814001851,528.1857814001851,528.1857814001851,528.1857814001851,return,0.7062142002396286,5,0,0,1,-2.7755575615628914e-17,-0.08,return,0.6226205001585186,5,-16,-2.7755575615628914e-17,-0.08,,,,,,,,,,,,,,,,,,,,,,,,,,,,,,,,,,,,,,,,,,,,,,,,,,,,,,,,44K4YF,train_x,blue_star,bottom_right,2025-03-05_17h54.59.303,HideSeek_v1,2022.2.5,60.31970648496639,
,6,0,5,0,-1,0,51,,train_dim1_1,9,30,,,,2,0,2,0,,,,,,,,,0,0,0,0,0,8,8,8,0,0,0,0,,,,,,,,,,,,,,,,,,,,,,,,,stimuli/alien_stimuli/51.png,,,,,,,,,,,,,,,,,,,,,,,,,,,,,stimuli/alien_stimuli/31.png,31,5,10,,,,,,,30,,,,,,,,533.0541386003606,533.0541386003606,533.0541386003606,533.0541386003606,533.0541386003606,left,1.6507092998363078,5,0,0,99,0.24,-0.4,left,1.5356151997111738,,,,,531.4674087003805,533.0541386003606,0,-0.08,0.0,0.24,-0.08,0,0.12,0,-0.08,530.4538948000409,530.4538948000409,530.4538948000409,530.4538948000409,530.4538948000409,530.4538948000409,530.4538948000409,530.4538948000409,530.4326461002231,1.1200370998121798,return,0.9877281999215484,,,,,,,,,,,,,,,,,,,,,,,,,,,,,,,,,44K4YF,train_x,blue_star,bottom_right,2025-03-05_17h54.59.303,HideSeek_v1,2022.2.5,60.31970648496639,
,6,0,5,0,-1,0,51,,train_dim1_1,9,30,,,,2,0,2,0,,,,,,,,,0,0,0,0,0,8,8,8,1,0,1,0,,,,,,,,,,,,,,,,,,,,,,,,,,,,,,,,,,,,,,,,,,,,,,,,,,,,,,,,,,,,,,,,30,,,,,,,,534.6910639000125,534.6910639000125,534.6910639000125,534.6910639000125,534.6910639000125,return,0.7409594999626279,6,0,0,1,0.24,-0.4,return,0.6600718996487558,5,-17,0.24,-0.4,,,,,,,,,,,,,,,,,,,,,,,,,,,,,,,,,,,,,,,,,,,,,,,,,,,,,,,,44K4YF,train_x,blue_star,bottom_right,2025-03-05_17h54.59.303,HideSeek_v1,2022.2.5,60.31970648496639,
,5,3,0,3,-5,0,11,,train_dim1_1,10,30,,,,2,0,2,0,,,,,,,,,0,0,0,0,0,9,9,9,0,0,0,0,,,,,,,,,,,,,,,,,,,,,,,,,stimuli/alien_stimuli/11.png,,,,,,,,,,,,,,,,,,,,,,,,,,,,,stimuli/alien_stimuli/51.png,51,6,11,,,,,,,30,,,,,,,,539.4653027001768,539.4653027001768,539.4653027001768,539.4653027001768,539.4653027001768,left,1.6571741998195648,6,0,0,99,0.15999999999999998,-0.16,left,1.558666699565947,,,,,537.8560891002417,539.4653027001768,0.24,-0.4,0.0,0.08,-0.4,0.24,0.28,0.24,-0.4,536.9936035000719,536.9936035000719,536.9936035000719,536.9936035000719,536.9936035000719,536.9936035000719,536.9936035000719,536.9936035000719,536.9882969002706,0.9712705998681486,return,0.8402733001857996,,,,,,,,,,,,,,,,,,,,,,,,,,,,,,,,,44K4YF,train_x,blue_star,bottom_right,2025-03-05_17h54.59.303,HideSeek_v1,2022.2.5,60.31970648496639,
,5,3,0,3,-5,0,11,,train_dim1_1,10,30,,,,2,0,2,0,,,,,,,,,0,0,0,0,0,9,9,9,1,0,1,0,,,,,,,,,,,,,,,,,,,,,,,,,,,,,,,,,,,,,,,,,,,,,,,,,,,,,,,,,,,,,,,,30,,,,,,,,541.1097623002715,541.1097623002715,541.1097623002715,541.1097623002715,541.1097623002715,left,0.47589580016210675,6,0,0,99,0.07999999999999997,-0.16,left,0.39027079986408353,,,,,,,,,,,,,,,,,,,,,,,,,,,,,,,,,,,,,,,,,,,,,,,,,,,,,,,,,,,,44K4YF,train_x,blue_star,bottom_right,2025-03-05_17h54.59.303,HideSeek_v1,2022.2.5,60.31970648496639,
,5,3,0,3,-5,0,11,,train_dim1_1,10,30,,,,2,0,2,0,,,,,,,,,0,0,0,0,0,9,9,9,2,0,2,0,,,,,,,,,,,,,,,,,,,,,,,,,,,,,,,,,,,,,,,,,,,,,,,,,,,,,,,,,,,,,,,,30,,,,,,,,541.5937640001066,541.5937640001066,541.5937640001066,541.5937640001066,541.5937640001066,left,0.4934171000495553,6,0,0,99,-2.7755575615628914e-17,-0.16,left,0.40469579957425594,,,,,,,,,,,,,,,,,,,,,,,,,,,,,,,,,,,,,,,,,,,,,,,,,,,,,,,,,,,,44K4YF,train_x,blue_star,bottom_right,2025-03-05_17h54.59.303,HideSeek_v1,2022.2.5,60.31970648496639,
,5,3,0,3,-5,0,11,,train_dim1_1,10,30,,,,2,0,2,0,,,,,,,,,0,0,0,0,0,9,9,9,3,0,3,0,,,,,,,,,,,,,,,,,,,,,,,,,,,,,,,,,,,,,,,,,,,,,,,,,,,,,,,,,,,,,,,,30,,,,,,,,542.0941682001576,542.0941682001576,542.0941682001576,542.0941682001576,542.0941682001576,left,0.4592694998718798,6,0,0,99,-0.08000000000000003,-0.16,left,0.3781961998902261,,,,,,,,,,,,,,,,,,,,,,,,,,,,,,,,,,,,,,,,,,,,,,,,,,,,,,,,,,,,44K4YF,train_x,blue_star,bottom_right,2025-03-05_17h54.59.303,HideSeek_v1,2022.2.5,60.31970648496639,
,5,3,0,3,-5,0,11,,train_dim1_1,10,30,,,,2,0,2,0,,,,,,,,,0,0,0,0,0,9,9,9,4,0,4,0,,,,,,,,,,,,,,,,,,,,,,,,,,,,,,,,,,,,,,,,,,,,,,,,,,,,,,,,,,,,,,,,30,,,,,,,,542.5616602003574,542.5616602003574,542.5616602003574,542.5616602003574,542.5616602003574,left,0.4096686998382211,6,0,0,99,-0.16000000000000003,-0.16,left,0.3243459998629987,,,,,,,,,,,,,,,,,,,,,,,,,,,,,,,,,,,,,,,,,,,,,,,,,,,,,,,,,,,,44K4YF,train_x,blue_star,bottom_right,2025-03-05_17h54.59.303,HideSeek_v1,2022.2.5,60.31970648496639,
,5,3,0,3,-5,0,11,,train_dim1_1,10,30,,,,2,0,2,0,,,,,,,,,0,0,0,0,0,9,9,9,5,0,5,0,,,,,,,,,,,,,,,,,,,,,,,,,,,,,,,,,,,,,,,,,,,,,,,,,,,,,,,,,,,,,,,,30,,,,,,,,542.9764935001731,542.9764935001731,542.9764935001731,542.9764935001731,542.9764935001731,return,0.34321750001981854,7,0,0,1,-0.16000000000000003,-0.16,return,0.25307759968563914,5,-22,-0.16000000000000003,-0.16,,,,,,,,,,,,,,,,,,,,,,,,,,,,,,,,,,,,,,,,,,,,,,,,,,,,,,,,44K4YF,train_x,blue_star,bottom_right,2025-03-05_17h54.59.303,HideSeek_v1,2022.2.5,60.31970648496639,
,7,2,4,2,-3,0,31,,train_dim1_1,11,30,,,,2,0,2,0,,,,,,,,,0,0,0,0,0,10,10,10,0,0,0,0,,,,,,,,,,,,,,,,,,,,,,,,,stimuli/alien_stimuli/31.png,,,,,,,,,,,,,,,,,,,,,,,,,,,,,stimuli/alien_stimuli/11.png,11,5,12,,,,,,,30,,,,,,,,546.8298368002288,546.8298368002288,546.8298368002288,546.8298368002288,546.8298368002288,left,1.2499128999188542,7,0,0,99,0.32,-0.24,left,1.1672120997682214,,,,,545.2620259001851,546.8298368002288,-0.16,-0.16,0.0,0.4,-0.16,-0.16,0.039999999999999994,-0.16,-0.16,544.8865497000515,544.8865497000515,544.8865497000515,544.8865497000515,544.8865497000515,544.8865497000515,544.8865497000515,544.8865497000515,544.8782278004569,0.48611730011180043,return,0.35716009978204966,,,,,,,,,,,,,,,,,,,,,,,,,,,,,,,,,44K4YF,train_x,blue_star,bottom_right,2025-03-05_17h54.59.303,HideSeek_v1,2022.2.5,60.31970648496639,
,7,2,4,2,-3,0,31,,train_dim1_1,11,30,,,,2,0,2,0,,,,,,,,,0,0,0,0,0,10,10,10,1,0,1,0,,,,,,,,,,,,,,,,,,,,,,,,,,,,,,,,,,,,,,,,,,,,,,,,,,,,,,,,,,,,,,,,30,,,,,,,,548.0789878000505,548.0789878000505,548.0789878000505,548.0789878000505,548.0789878000505,left,0.6089432002045214,7,0,0,99,0.24,-0.24,left,0.5353680998086929,,,,,,,,,,,,,,,,,,,,,,,,,,,,,,,,,,,,,,,,,,,,,,,,,,,,,,,,,,,,44K4YF,train_x,blue_star,bottom_right,2025-03-05_17h54.59.303,HideSeek_v1,2022.2.5,60.31970648496639,
,7,2,4,2,-3,0,31,,train_dim1_1,11,30,,,,2,0,2,0,,,,,,,,,0,0,0,0,0,10,10,10,2,0,2,0,,,,,,,,,,,,,,,,,,,,,,,,,,,,,,,,,,,,,,,,,,,,,,,,,,,,,,,,,,,,,,,,30,,,,,,,,548.6983115002513,548.6983115002513,548.6983115002513,548.6983115002513,548.6983115002513,left,3.211771999951452,7,0,0,99,0.15999999999999998,-0.24,left,3.1257025999948382,,,,,,,,,,,,,,,,,,,,,,,,,,,,,,,,,,,,,,,,,,,,,,,,,,,,,,,,,,,,44K4YF,train_x,blue_star,bottom_right,2025-03-05_17h54.59.303,HideSeek_v1,2022.2.5,60.31970648496639,
,7,2,4,2,-3,0,31,,train_dim1_1,11,30,,,,2,0,2,0,,,,,,,,,0,0,0,0,0,10,10,10,3,0,3,0,,,,,,,,,,,,,,,,,,,,,,,,,,,,,,,,,,,,,,,,,,,,,,,,,,,,,,,,,,,,,,,,30,,,,,,,,551.9150947001763,551.9150947001763,551.9150947001763,551.9150947001763,551.9150947001763,left,1.7775240000337362,7,0,0,99,0.07999999999999997,-0.24,left,1.7004122994840145,,,,,,,,,,,,,,,,,,,,,,,,,,,,,,,,,,,,,,,,,,,,,,,,,,,,,,,,,,,,44K4YF,train_x,blue_star,bottom_right,2025-03-05_17h54.59.303,HideSeek_v1,2022.2.5,60.31970648496639,
,7,2,4,2,-3,0,31,,train_dim1_1,11,30,,,,2,0,2,0,,,,,,,,,0,0,0,0,0,10,10,10,4,0,4,0,,,,,,,,,,,,,,,,,,,,,,,,,,,,,,,,,,,,,,,,,,,,,,,,,,,,,,,,,,,,,,,,30,,,,,,,,553.7003987999633,553.7003987999633,553.7003987999633,553.7003987999633,553.7003987999633,right,0.6430367003194988,7,0,0,99,0.15999999999999998,-0.24,right,0.5663295998238027,,,,,,,,,,,,,,,,,,,,,,,,,,,,,,,,,,,,,,,,,,,,,,,,,,,,,,,,,,,,44K4YF,train_x,blue_star,bottom_right,2025-03-05_17h54.59.303,HideSeek_v1,2022.2.5,60.31970648496639,
,7,2,4,2,-3,0,31,,train_dim1_1,11,30,,,,2,0,2,0,,,,,,,,,0,0,0,0,0,10,10,10,5,0,5,0,,,,,,,,,,,,,,,,,,,,,,,,,,,,,,,,,,,,,,,,,,,,,,,,,,,,,,,,,,,,,,,,30,,,,,,,,554.3514523999766,554.3514523999766,554.3514523999766,554.3514523999766,554.3514523999766,return,4.763571199961007,8,0,0,1,0.15999999999999998,-0.24,return,4.673419300001115,5,-25,0.15999999999999998,-0.24,,,,,,,,,,,,,,,,,,,,,,,,,,,,,,,,,,,,,,,,,,,,,,,,,,,,,,,,44K4YF,train_x,blue_star,bottom_right,2025-03-05_17h54.59.303,HideSeek_v1,2022.2.5,60.31970648496639,
,5,0,1,0,-4,0,21,,train_dim1_1,12,30,,,,2,0,2,0,,,,,,,,,0,0,0,0,0,11,11,11,0,0,0,0,,,,,,,,,,,,,,,,,,,,,,,,,stimuli/alien_stimuli/21.png,,,,,,,,,,,,,,,,,,,,,,,,,,,,,stimuli/alien_stimuli/31.png,31,7,13,,,,,,,30,,,,,,,,563.247631800361,563.247631800361,563.247631800361,563.247631800361,563.247631800361,left,1.2819543001241982,8,0,0,99,0.15999999999999998,-0.4,left,1.1649540001526475,,,,,561.6593756000511,563.247631800361,0.16,-0.24,0.0,0.24,-0.24,0.16,0.28,0.16,-0.24,560.6923283003271,560.6923283003271,560.6923283003271,560.6923283003271,560.6923283003271,560.6923283003271,560.6923283003271,560.6923283003271,560.6746665000451,1.0879470999352634,return,0.9360377001576126,,,,,,,,,,,,,,,,,,,,,,,,,,,,,,,,,44K4YF,train_x,blue_star,bottom_right,2025-03-05_17h54.59.303,HideSeek_v1,2022.2.5,60.31970648496639,
,5,0,1,0,-4,0,21,,train_dim1_1,12,30,,,,2,0,2,0,,,,,,,,,0,0,0,0,0,11,11,11,1,0,1,0,,,,,,,,,,,,,,,,,,,,,,,,,,,,,,,,,,,,,,,,,,,,,,,,,,,,,,,,,,,,,,,,30,,,,,,,,564.5133018000051,564.5133018000051,564.5133018000051,564.5133018000051,564.5133018000051,left,0.7091534999199212,8,0,0,99,0.07999999999999997,-0.4,left,0.6309430999681354,,,,,,,,,,,,,,,,,,,,,,,,,,,,,,,,,,,,,,,,,,,,,,,,,,,,,,,,,,,,44K4YF,train_x,blue_star,bottom_right,2025-03-05_17h54.59.303,HideSeek_v1,2022.2.5,60.31970648496639,
,5,0,1,0,-4,0,21,,train_dim1_1,12,30,,,,2,0,2,0,,,,,,,,,0,0,0,0,0,11,11,11,2,0,2,0,,,,,,,,,,,,,,,,,,,,,,,,,,,,,,,,,,,,,,,,,,,,,,,,,,,,,,,,,,,,,,,,30,,,,,,,,565.2296880003996,565.2296880003996,565.2296880003996,565.2296880003996,565.2296880003996,left,0.5931727001443505,8,0,0,99,-2.7755575615628914e-17,-0.4,left,0.5159672000445426,,,,,,,,,,,,,,,,,,,,,,,,,,,,,,,,,,,,,,,,,,,,,,,,,,,,,,,,,,,,44K4YF,train_x,blue_star,bottom_right,2025-03-05_17h54.59.303,HideSeek_v1,2022.2.5,60.31970648496639,
,5,0,1,0,-4,0,21,,train_dim1_1,12,30,,,,2,0,2,0,,,,,,,,,0,0,0,0,0,11,11,11,3,0,3,0,,,,,,,,,,,,,,,,,,,,,,,,,,,,,,,,,,,,,,,,,,,,,,,,,,,,,,,,,,,,,,,,30,,,,,,,,565.8303655004129,565.8303655004129,565.8303655004129,565.8303655004129,565.8303655004129,left,0.5593334003351629,8,0,0,99,-0.08000000000000003,-0.4,left,0.4670839994214475,,,,,,,,,,,,,,,,,,,,,,,,,,,,,,,,,,,,,,,,,,,,,,,,,,,,,,,,,,,,44K4YF,train_x,blue_star,bottom_right,2025-03-05_17h54.59.303,HideSeek_v1,2022.2.5,60.31970648496639,
,5,0,1,0,-4,0,21,,train_dim1_1,12,30,,,,2,0,2,0,,,,,,,,,0,0,0,0,0,11,11,11,4,0,4,0,,,,,,,,,,,,,,,,,,,,,,,,,,,,,,,,,,,,,,,,,,,,,,,,,,,,,,,,,,,,,,,,30,,,,,,,,566.3970443001017,566.3970443001017,566.3970443001017,566.3970443001017,566.3970443001017,return,0.3097228999249637,9,0,0,1,-0.08000000000000003,-0.4,return,0.22880439972504973,5,-29,-0.08000000000000003,-0.4,,,,,,,,,,,,,,,,,,,,,,,,,,,,,,,,,,,,,,,,,,,,,,,,,,,,,,,,44K4YF,train_x,blue_star,bottom_right,2025-03-05_17h54.59.303,HideSeek_v1,2022.2.5,60.31970648496639,
,5,4,4,4,-1,0,51,,train_dim1_1,13,30,,,,2,0,2,0,,,,,,,,,0,0,0,0,0,12,12,12,0,0,0,0,,,,,,,,,,,,,,,,,,,,,,,,,stimuli/alien_stimuli/51.png,,,,,,,,,,,,,,,,,,,,,,,,,,,,,stimuli/alien_stimuli/21.png,21,5,14,,,,,,,30,,,,,,,,570.3379354001954,570.3379354001954,570.3379354001954,570.3379354001954,570.3379354001954,left,1.3307024999521673,9,0,0,99,0.15999999999999998,-0.08,left,1.2417925000190735,,,,,568.7649746001698,570.3379354001954,-0.08,-0.4,0.0,0.32,-0.4,-0.08,0.07999999999999999,-0.08,-0.4,568.2718219002709,568.2718219002709,568.2718219002709,568.2718219002709,568.2718219002709,568.2718219002709,568.2718219002709,568.2718219002709,568.2643323003781,0.602864199783653,return,0.47255059983581305,,,,,,,,,,,,,,,,,,,,,,,,,,,,,,,,,44K4YF,train_x,blue_star,bottom_right,2025-03-05_17h54.59.303,HideSeek_v1,2022.2.5,60.31970648496639,
,5,4,4,4,-1,0,51,,train_dim1_1,13,30,,,,2,0,2,0,,,,,,,,,0,0,0,0,0,12,12,12,1,0,1,0,,,,,,,,,,,,,,,,,,,,,,,,,,,,,,,,,,,,,,,,,,,,,,,,,,,,,,,,,,,,,,,,30,,,,,,,,571.6689667999744,571.6689667999744,571.6689667999744,571.6689667999744,571.6689667999744,return,0.5093410997651517,10,0,0,1,0.15999999999999998,-0.08,return,0.42424120008945465,5,-30,0.15999999999999998,-0.08,,,,,,,,,,,,,,,,,,,,,,,,,,,,,,,,,,,,,,,,,,,,,,,,,,,,,,,,44K4YF,train_x,blue_star,bottom_right,2025-03-05_17h54.59.303,HideSeek_v1,2022.2.5,60.31970648496639,
,9,3,4,3,-5,0,11,,train_dim1_1,14,30,,,,2,0,2,0,,,,,,,,,0,0,0,0,0,13,13,13,0,0,0,0,,,,,,,,,,,,,,,,,,,,,,,,,stimuli/alien_stimuli/11.png,,,,,,,,,,,,,,,,,,,,,,,,,,,,,stimuli/alien_stimuli/51.png,51,5,15,,,,,,,30,,,,,,,,575.8560248003341,575.8560248003341,575.8560248003341,575.8560248003341,575.8560248003341,left,1.1665461999364197,10,0,0,99,0.48000000000000004,-0.16,left,1.076950999442488,,,,,574.2863501003012,575.8560248003341,0.16,-0.08,0.0,0.08,-0.08,0.16,0.2,0.16,-0.08,573.7440951000899,573.7440951000899,573.7440951000899,573.7440951000899,573.7440951000899,573.7440951000899,573.7440951000899,573.7440951000899,573.7356070003939,0.6525256000459194,return,0.5119661996141076,,,,,,,,,,,,,,,,,,,,,,,,,,,,,,,,,44K4YF,train_x,blue_star,bottom_right,2025-03-05_17h54.59.303,HideSeek_v1,2022.2.5,60.31970648496639,
,9,3,4,3,-5,0,11,,train_dim1_1,14,30,,,,2,0,2,0,,,,,,,,,0,0,0,0,0,13,13,13,1,0,1,0,,,,,,,,,,,,,,,,,,,,,,,,,,,,,,,,,,,,,,,,,,,,,,,,,,,,,,,,,,,,,,,,30,,,,,,,,577.0226688003168,577.0226688003168,577.0226688003168,577.0226688003168,577.0226688003168,left,0.5594769003801048,10,0,0,99,0.4,-0.16,left,0.47589579969644547,,,,,,,,,,,,,,,,,,,,,,,,,,,,,,,,,,,,,,,,,,,,,,,,,,,,,,,,,,,,44K4YF,train_x,blue_star,bottom_right,2025-03-05_17h54.59.303,HideSeek_v1,2022.2.5,60.31970648496639,
,9,3,4,3,-5,0,11,,train_dim1_1,14,30,,,,2,0,2,0,,,,,,,,,0,0,0,0,0,13,13,13,2,0,2,0,,,,,,,,,,,,,,,,,,,,,,,,,,,,,,,,,,,,,,,,,,,,,,,,,,,,,,,,,,,,,,,,30,,,,,,,,577.597289300058,577.597289300058,577.597289300058,577.597289300058,577.597289300058,left,0.5764255998656154,10,0,0,99,0.32,-0.16,left,0.4841748997569084,,,,,,,,,,,,,,,,,,,,,,,,,,,,,,,,,,,,,,,,,,,,,,,,,,,,,,,,,,,,44K4YF,train_x,blue_star,bottom_right,2025-03-05_17h54.59.303,HideSeek_v1,2022.2.5,60.31970648496639,
,9,3,4,3,-5,0,11,,train_dim1_1,14,30,,,,2,0,2,0,,,,,,,,,0,0,0,0,0,13,13,13,3,0,3,0,,,,,,,,,,,,,,,,,,,,,,,,,,,,,,,,,,,,,,,,,,,,,,,,,,,,,,,,,,,,,,,,30,,,,,,,,578.1741536003537,578.1741536003537,578.1741536003537,578.1741536003537,578.1741536003537,left,0.5259654000401497,10,0,0,99,0.24,-0.16,left,0.4393255994655192,,,,,,,,,,,,,,,,,,,,,,,,,,,,,,,,,,,,,,,,,,,,,,,,,,,,,,,,,,,,44K4YF,train_x,blue_star,bottom_right,2025-03-05_17h54.59.303,HideSeek_v1,2022.2.5,60.31970648496639,
,9,3,4,3,-5,0,11,,train_dim1_1,14,30,,,,2,0,2,0,,,,,,,,,0,0,0,0,0,13,13,13,4,0,4,0,,,,,,,,,,,,,,,,,,,,,,,,,,,,,,,,,,,,,,,,,,,,,,,,,,,,,,,,,,,,,,,,30,,,,,,,,578.7113473000936,578.7113473000936,578.7113473000936,578.7113473000936,578.7113473000936,left,0.4264120999723673,10,0,0,99,0.15999999999999998,-0.16,left,0.34092159988358617,,,,,,,,,,,,,,,,,,,,,,,,,,,,,,,,,,,,,,,,,,,,,,,,,,,,,,,,,,,,44K4YF,train_x,blue_star,bottom_right,2025-03-05_17h54.59.303,HideSeek_v1,2022.2.5,60.31970648496639,
,9,3,4,3,-5,0,11,,train_dim1_1,14,30,,,,2,0,2,0,,,,,,,,,0,0,0,0,0,13,13,13,5,0,5,0,,,,,,,,,,,,,,,,,,,,,,,,,,,,,,,,,,,,,,,,,,,,,,,,,,,,,,,,,,,,,,,,30,,,,,,,,579.1457605003379,579.1457605003379,579.1457605003379,579.1457605003379,579.1457605003379,return,0.3597756000235677,11,0,0,1,0.15999999999999998,-0.16,return,0.27573890006169677,5,-35,0.15999999999999998,-0.16,,,,,,,,,,,,,,,,,,,,,,,,,,,,,,,,,,,,,,,,,,,,,,,,,,,,,,,,44K4YF,train_x,blue_star,bottom_right,2025-03-05_17h54.59.303,HideSeek_v1,2022.2.5,60.31970648496639,
,9,2,9,2,0,0,61,,train_dim1_1,15,30,,,,2,0,2,0,,,,,,,,,0,0,0,0,0,14,14,14,0,0,0,0,,,,,,,,,,,,,,,,,,,,,,,,,stimuli/alien_stimuli/61.png,,,,,,,,,,,,,,,,,,,,,,,,,,,,,stimuli/alien_stimuli/11.png,11,9,16,,,,,,,30,,,,,,,,583.5112181003205,583.5112181003205,583.5112181003205,583.5112181003205,583.5112181003205,return,1.630891399923712,12,0,0,1,0.56,-0.24,return,1.550642800051719,5,-35,0.56,-0.24,581.9427609001286,583.5112181003205,0.16,-0.16,0.0,0.4,-0.16,0.16,0.36000000000000004,0.16,-0.16,581.0642858003266,581.0642858003266,581.0642858003266,581.0642858003266,581.0642858003266,581.0642858003266,581.0642858003266,581.0642858003266,581.0578765001615,0.9867687998339534,return,0.8480043993331492,,,,,,,,,,,,,,,,,,,,,,,,,,,,,,,,,44K4YF,train_x,blue_star,bottom_right,2025-03-05_17h54.59.303,HideSeek_v1,2022.2.5,60.31970648496639,
,8,3,7,3,-1,0,51,,train_dim1_1,16,30,,,,2,0,2,0,,,,,,,,,0,0,0,0,0,15,15,15,0,0,0,0,,,,,,,,,,,,,,,,,,,,,,,,,stimuli/alien_stimuli/51.png,,,,,,,,,,,,,,,,,,,,,,,,,,,,,stimuli/alien_stimuli/61.png,61,9,17,,,,,,,30,,,,,,,,588.7347971000709,588.7347971000709,588.7347971000709,588.7347971000709,588.7347971000709,left,1.4470869996584952,12,0,0,99,0.39999999999999997,-0.16,left,1.3534849998541176,,,,,587.1634670002386,588.7347971000709,0.56,-0.24,0.0,0.0,-0.24,0.56,0.56,0.56,-0.24,586.7036475003697,586.7036475003697,586.7036475003697,586.7036475003697,586.7036475003697,586.7036475003697,586.7036475003697,586.7036475003697,586.6961395003368,0.5696921995840967,return,0.437126100063324,,,,,,,,,,,,,,,,,,,,,,,,,,,,,,,,,44K4YF,train_x,blue_star,bottom_right,2025-03-05_17h54.59.303,HideSeek_v1,2022.2.5,60.31970648496639,
,8,3,7,3,-1,0,51,,train_dim1_1,16,30,,,,2,0,2,0,,,,,,,,,0,0,0,0,0,15,15,15,1,0,1,0,,,,,,,,,,,,,,,,,,,,,,,,,,,,,,,,,,,,,,,,,,,,,,,,,,,,,,,,,,,,,,,,30,,,,,,,,590.1825609002262,590.1825609002262,590.1825609002262,590.1825609002262,590.1825609002262,return,0.9930834001861513,13,0,0,1,0.39999999999999997,-0.16,return,0.9084967998787761,5,-36,0.39999999999999997,-0.16,,,,,,,,,,,,,,,,,,,,,,,,,,,,,,,,,,,,,,,,,,,,,,,,,,,,,,,,44K4YF,train_x,blue_star,bottom_right,2025-03-05_17h54.59.303,HideSeek_v1,2022.2.5,60.31970648496639,
,7,4,3,4,-4,0,21,,train_dim1_1,17,30,,,,2,0,2,0,,,,,,,,,0,0,0,0,0,16,16,16,0,0,0,0,,,,,,,,,,,,,,,,,,,,,,,,,stimuli/alien_stimuli/21.png,,,,,,,,,,,,,,,,,,,,,,,,,,,,,stimuli/alien_stimuli/51.png,51,8,18,,,,,,,30,,,,,,,,595.3722046003677,595.3722046003677,595.3722046003677,595.3722046003677,595.3722046003677,left,1.4326141001656651,13,0,0,99,0.32,-0.08,left,1.3416454996913671,,,,,593.8025967003778,595.3722046003677,0.4,-0.16,0.0,0.08,-0.16,0.4,0.44,0.4,-0.16,592.7408253001049,592.7408253001049,592.7408253001049,592.7408253001049,592.7408253001049,592.7408253001049,592.7408253001049,592.7408253001049,592.7180663000793,1.1700774999335408,return,1.0380346993915737,,,,,,,,,,,,,,,,,,,,,,,,,,,,,,,,,44K4YF,train_x,blue_star,bottom_right,2025-03-05_17h54.59.303,HideSeek_v1,2022.2.5,60.31970648496639,
,7,4,3,4,-4,0,21,,train_dim1_1,17,30,,,,2,0,2,0,,,,,,,,,0,0,0,0,0,16,16,16,1,0,1,0,,,,,,,,,,,,,,,,,,,,,,,,,,,,,,,,,,,,,,,,,,,,,,,,,,,,,,,,,,,,,,,,30,,,,,,,,596.8103969004005,596.8103969004005,596.8103969004005,596.8103969004005,596.8103969004005,left,0.5753553998656571,13,0,0,99,0.24,-0.08,left,0.483600499574095,,,,,,,,,,,,,,,,,,,,,,,,,,,,,,,,,,,,,,,,,,,,,,,,,,,,,,,,,,,,44K4YF,train_x,blue_star,bottom_right,2025-03-05_17h54.59.303,HideSeek_v1,2022.2.5,60.31970648496639,
,7,4,3,4,-4,0,21,,train_dim1_1,17,30,,,,2,0,2,0,,,,,,,,,0,0,0,0,0,16,16,16,2,0,2,0,,,,,,,,,,,,,,,,,,,,,,,,,,,,,,,,,,,,,,,,,,,,,,,,,,,,,,,,,,,,,,,,30,,,,,,,,597.403015400283,597.403015400283,597.403015400283,597.403015400283,597.403015400283,left,2.322285500355065,13,0,0,99,0.15999999999999998,-0.08,left,2.226699299644679,,,,,,,,,,,,,,,,,,,,,,,,,,,,,,,,,,,,,,,,,,,,,,,,,,,,,,,,,,,,44K4YF,train_x,blue_star,bottom_right,2025-03-05_17h54.59.303,HideSeek_v1,2022.2.5,60.31970648496639,
,7,4,3,4,-4,0,21,,train_dim1_1,17,30,,,,2,0,2,0,,,,,,,,,0,0,0,0,0,16,16,16,3,0,3,0,,,,,,,,,,,,,,,,,,,,,,,,,,,,,,,,,,,,,,,,,,,,,,,,,,,,,,,,,,,,,,,,30,,,,,,,,599.7282541003078,599.7282541003078,599.7282541003078,599.7282541003078,599.7282541003078,left,0.8768327999860048,13,0,0,99,0.07999999999999997,-0.08,left,0.7858511996455491,,,,,,,,,,,,,,,,,,,,,,,,,,,,,,,,,,,,,,,,,,,,,,,,,,,,,,,,,,,,44K4YF,train_x,blue_star,bottom_right,2025-03-05_17h54.59.303,HideSeek_v1,2022.2.5,60.31970648496639,
,7,4,3,4,-4,0,21,,train_dim1_1,17,30,,,,2,0,2,0,,,,,,,,,0,0,0,0,0,16,16,16,4,0,4,0,,,,,,,,,,,,,,,,,,,,,,,,,,,,,,,,,,,,,,,,,,,,,,,,,,,,,,,,,,,,,,,,30,,,,,,,,600.6126945000142,600.6126945000142,600.6126945000142,600.6126945000142,600.6126945000142,return,0.3757698000408709,14,0,0,1,0.07999999999999997,-0.08,return,0.2798401997424662,5,-40,0.07999999999999997,-0.08,,,,,,,,,,,,,,,,,,,,,,,,,,,,,,,,,,,,,,,,,,,,,,,,,,,,,,,,44K4YF,train_x,blue_star,bottom_right,2025-03-05_17h54.59.303,HideSeek_v1,2022.2.5,60.31970648496639,
,7,1,7,1,0,0,61,,train_dim1_1,18,30,,,,2,0,2,0,,,,,,,,,0,0,0,0,0,17,17,17,0,0,0,0,,,,,,,,,,,,,,,,,,,,,,,,,stimuli/alien_stimuli/61.png,,,,,,,,,,,,,,,,,,,,,,,,,,,,,stimuli/alien_stimuli/21.png,21,7,19,,,,,,,30,,,,,,,,604.793524700217,604.793524700217,604.793524700217,604.793524700217,604.793524700217,return,1.4981173002161086,15,0,0,1,0.4,-0.32,return,1.3911675000563264,5,-40,0.4,-0.32,603.2101420001127,604.793524700217,0.08,-0.08,0.0,0.32,-0.08,0.08,0.24000000000000002,0.08,-0.08,602.5576236001216,602.5576236001216,602.5576236001216,602.5576236001216,602.5576236001216,602.5576236001216,602.5576236001216,602.5576236001216,602.5428226002027,0.7692049997858703,return,0.6202413002029061,,,,,,,,,,,,,,,,,,,,,,,,,,,,,,,,,44K4YF,train_x,blue_star,bottom_right,2025-03-05_17h54.59.303,HideSeek_v1,2022.2.5,60.31970648496639,
,5,3,2,3,-3,0,31,,train_dim1_1,19,30,,,,2,0,2,0,,,,,,,,,0,0,0,0,0,18,18,18,0,0,0,0,,,,,,,,,,,,,,,,,,,,,,,,,stimuli/alien_stimuli/31.png,,,,,,,,,,,,,,,,,,,,,,,,,,,,,stimuli/alien_stimuli/61.png,61,7,20,,,,,,,30,,,,,,,,610.2986318999901,610.2986318999901,610.2986318999901,610.2986318999901,610.2986318999901,left,2.2658847998827696,15,0,0,99,0.15999999999999998,-0.16,left,2.1756382999010384,,,,,608.7313336003572,610.2986318999901,0.4,-0.32,0.0,0.0,-0.32,0.4,0.4,0.4,-0.32,607.8336893999949,607.8336893999949,607.8336893999949,607.8336893999949,607.8336893999949,607.8336893999949,607.8336893999949,607.8336893999949,607.8137821003795,1.0034011001698673,return,0.8771249996498227,,,,,,,,,,,,,,,,,,,,,,,,,,,,,,,,,44K4YF,train_x,blue_star,bottom_right,2025-03-05_17h54.59.303,HideSeek_v1,2022.2.5,60.31970648496639,
,5,3,2,3,-3,0,31,,train_dim1_1,19,30,,,,2,0,2,0,,,,,,,,,0,0,0,0,0,18,18,18,1,0,1,0,,,,,,,,,,,,,,,,,,,,,,,,,,,,,,,,,,,,,,,,,,,,,,,,,,,,,,,,,,,,,,,,30,,,,,,,,612.5658895000815,612.5658895000815,612.5658895000815,612.5658895000815,612.5658895000815,left,0.6261541000567377,15,0,0,99,0.07999999999999997,-0.16,left,0.5371498996391892,,,,,,,,,,,,,,,,,,,,,,,,,,,,,,,,,,,,,,,,,,,,,,,,,,,,,,,,,,,,44K4YF,train_x,blue_star,bottom_right,2025-03-05_17h54.59.303,HideSeek_v1,2022.2.5,60.31970648496639,
,5,3,2,3,-3,0,31,,train_dim1_1,19,30,,,,2,0,2,0,,,,,,,,,0,0,0,0,0,18,18,18,2,0,2,0,,,,,,,,,,,,,,,,,,,,,,,,,,,,,,,,,,,,,,,,,,,,,,,,,,,,,,,,,,,,,,,,30,,,,,,,,613.1992351999506,613.1992351999506,613.1992351999506,613.1992351999506,613.1992351999506,left,1.9443156998604536,15,0,0,99,-2.7755575615628914e-17,-0.16,left,1.8667067000642419,,,,,,,,,,,,,,,,,,,,,,,,,,,,,,,,,,,,,,,,,,,,,,,,,,,,,,,,,,,,44K4YF,train_x,blue_star,bottom_right,2025-03-05_17h54.59.303,HideSeek_v1,2022.2.5,60.31970648496639,
,5,3,2,3,-3,0,31,,train_dim1_1,19,30,,,,2,0,2,0,,,,,,,,,0,0,0,0,0,18,18,18,3,0,3,0,,,,,,,,,,,,,,,,,,,,,,,,,,,,,,,,,,,,,,,,,,,,,,,,,,,,,,,,,,,,,,,,30,,,,,,,,615.1515006003901,615.1515006003901,615.1515006003901,615.1515006003901,615.1515006003901,return,0.609353800304234,16,0,0,1,-2.7755575615628914e-17,-0.16,return,0.5339616998098791,5,-43,-2.7755575615628914e-17,-0.16,,,,,,,,,,,,,,,,,,,,,,,,,,,,,,,,,,,,,,,,,,,,,,,,,,,,,,,,44K4YF,train_x,blue_star,bottom_right,2025-03-05_17h54.59.303,HideSeek_v1,2022.2.5,60.31970648496639,
,5,1,0,1,-5,0,11,,train_dim1_1,20,30,,,,2,0,2,0,,,,,,,,,0,0,0,0,0,19,19,19,0,0,0,0,,,,,,,,,,,,,,,,,,,,,,,,,stimuli/alien_stimuli/11.png,,,,,,,,,,,,,,,,,,,,,,,,,,,,,stimuli/alien_stimuli/31.png,31,5,21,,,,,,,30,,,,,,,,619.7084528002888,619.7084528002888,619.7084528002888,619.7084528002888,619.7084528002888,left,1.0318611999973655,16,0,0,99,0.15999999999999998,-0.32,left,0.9200008995831013,,,,,618.122790100053,619.7084528002888,0,-0.16,0.0,0.24,-0.16,0,0.12,0,-0.16,617.3235308001749,617.3235308001749,617.3235308001749,617.3235308001749,617.3235308001749,617.3235308001749,617.3235308001749,617.3235308001749,617.3050555002876,0.903447600081563,return,0.7711765998974442,,,,,,,,,,,,,,,,,,,,,,,,,,,,,,,,,44K4YF,train_x,blue_star,bottom_right,2025-03-05_17h54.59.303,HideSeek_v1,2022.2.5,60.31970648496639,
,5,1,0,1,-5,0,11,,train_dim1_1,20,30,,,,2,0,2,0,,,,,,,,,0,0,0,0,0,19,19,19,1,0,1,0,,,,,,,,,,,,,,,,,,,,,,,,,,,,,,,,,,,,,,,,,,,,,,,,,,,,,,,,,,,,,,,,30,,,,,,,,620.7263930002227,620.7263930002227,620.7263930002227,620.7263930002227,620.7263930002227,left,0.47524810023605824,16,0,0,99,0.07999999999999997,-0.32,left,0.39627449959516525,,,,,,,,,,,,,,,,,,,,,,,,,,,,,,,,,,,,,,,,,,,,,,,,,,,,,,,,,,,,44K4YF,train_x,blue_star,bottom_right,2025-03-05_17h54.59.303,HideSeek_v1,2022.2.5,60.31970648496639,
,5,1,0,1,-5,0,11,,train_dim1_1,20,30,,,,2,0,2,0,,,,,,,,,0,0,0,0,0,19,19,19,2,0,2,0,,,,,,,,,,,,,,,,,,,,,,,,,,,,,,,,,,,,,,,,,,,,,,,,,,,,,,,,,,,,,,,,30,,,,,,,,621.209545200225,621.209545200225,621.209545200225,621.209545200225,621.209545200225,left,0.4265060997568071,16,0,0,99,-2.7755575615628914e-17,-0.32,left,0.33429469959810376,,,,,,,,,,,,,,,,,,,,,,,,,,,,,,,,,,,,,,,,,,,,,,,,,,,,,,,,,,,,44K4YF,train_x,blue_star,bottom_right,2025-03-05_17h54.59.303,HideSeek_v1,2022.2.5,60.31970648496639,
,5,1,0,1,-5,0,11,,train_dim1_1,20,30,,,,2,0,2,0,,,,,,,,,0,0,0,0,0,19,19,19,3,0,3,0,,,,,,,,,,,,,,,,,,,,,,,,,,,,,,,,,,,,,,,,,,,,,,,,,,,,,,,,,,,,,,,,30,,,,,,,,621.647278400138,621.647278400138,621.647278400138,621.647278400138,621.647278400138,left,0.4731887001544237,16,0,0,99,-0.08000000000000003,-0.32,left,0.37949279975146055,,,,,,,,,,,,,,,,,,,,,,,,,,,,,,,,,,,,,,,,,,,,,,,,,,,,,,,,,,,,44K4YF,train_x,blue_star,bottom_right,2025-03-05_17h54.59.303,HideSeek_v1,2022.2.5,60.31970648496639,
,5,1,0,1,-5,0,11,,train_dim1_1,20,30,,,,2,0,2,0,,,,,,,,,0,0,0,0,0,19,19,19,4,0,4,0,,,,,,,,,,,,,,,,,,,,,,,,,,,,,,,,,,,,,,,,,,,,,,,,,,,,,,,,,,,,,,,,30,,,,,,,,622.1257239002734,622.1257239002734,622.1257239002734,622.1257239002734,622.1257239002734,left,0.4429671997204423,16,0,0,99,-0.16000000000000003,-0.32,left,0.3667499995790422,,,,,,,,,,,,,,,,,,,,,,,,,,,,,,,,,,,,,,,,,,,,,,,,,,,,,,,,,,,,44K4YF,train_x,blue_star,bottom_right,2025-03-05_17h54.59.303,HideSeek_v1,2022.2.5,60.31970648496639,
,5,1,0,1,-5,0,11,,train_dim1_1,20,30,,,,2,0,2,0,,,,,,,,,0,0,0,0,0,19,19,19,5,0,5,0,,,,,,,,,,,,,,,,,,,,,,,,,,,,,,,,,,,,,,,,,,,,,,,,,,,,,,,,,,,,,,,,30,,,,,,,,622.5777173000388,622.5777173000388,622.5777173000388,622.5777173000388,622.5777173000388,return,0.3764069997705519,17,0,0,1,-0.16000000000000003,-0.32,return,0.29810289945453405,5,-48,-0.16000000000000003,-0.32,,,,,,,,,,,,,,,,,,,,,,,,,,,,,,,,,,,,,,,,,,,,,,,,,,,,,,,,44K4YF,train_x,blue_star,bottom_right,2025-03-05_17h54.59.303,HideSeek_v1,2022.2.5,60.31970648496639,
,9,2,6,2,-3,0,31,,train_dim1_1,21,30,,,,2,0,2,0,,,,,,,,,0,0,0,0,0,20,20,20,0,0,0,0,,,,,,,,,,,,,,,,,,,,,,,,,stimuli/alien_stimuli/31.png,,,,,,,,,,,,,,,,,,,,,,,,,,,,,stimuli/alien_stimuli/11.png,11,5,22,,,,,,,30,,,,,,,,626.4603516999632,626.4603516999632,626.4603516999632,626.4603516999632,626.4603516999632,left,0.9658873998560011,17,0,0,99,0.48000000000000004,-0.24,left,0.8752580001018941,,,,,624.8944882000796,626.4603516999632,-0.16,-0.32,0.0,0.4,-0.32,-0.16,0.039999999999999994,-0.16,-0.32,624.522289799992,624.522289799992,624.522289799992,624.522289799992,624.522289799992,624.522289799992,624.522289799992,624.522289799992,624.5106442001183,0.4859849000349641,return,0.3411023993976414,,,,,,,,,,,,,,,,,,,,,,,,,,,,,,,,,44K4YF,train_x,blue_star,bottom_right,2025-03-05_17h54.59.303,HideSeek_v1,2022.2.5,60.31970648496639,
,9,2,6,2,-3,0,31,,train_dim1_1,21,30,,,,2,0,2,0,,,,,,,,,0,0,0,0,0,20,20,20,1,0,1,0,,,,,,,,,,,,,,,,,,,,,,,,,,,,,,,,,,,,,,,,,,,,,,,,,,,,,,,,,,,,,,,,30,,,,,,,,627.4283815999515,627.4283815999515,627.4283815999515,627.4283815999515,627.4283815999515,left,0.5093096997588873,17,0,0,99,0.4,-0.24,left,0.4254217999987304,,,,,,,,,,,,,,,,,,,,,,,,,,,,,,,,,,,,,,,,,,,,,,,,,,,,,,,,,,,,44K4YF,train_x,blue_star,bottom_right,2025-03-05_17h54.59.303,HideSeek_v1,2022.2.5,60.31970648496639,
,9,2,6,2,-3,0,31,,train_dim1_1,21,30,,,,2,0,2,0,,,,,,,,,0,0,0,0,0,20,20,20,2,0,2,0,,,,,,,,,,,,,,,,,,,,,,,,,,,,,,,,,,,,,,,,,,,,,,,,,,,,,,,,,,,,,,,,30,,,,,,,,627.9450609004125,627.9450609004125,627.9450609004125,627.9450609004125,627.9450609004125,left,0.5764713999815285,17,0,0,99,0.32,-0.24,left,0.49783069966360927,,,,,,,,,,,,,,,,,,,,,,,,,,,,,,,,,,,,,,,,,,,,,,,,,,,,,,,,,,,,44K4YF,train_x,blue_star,bottom_right,2025-03-05_17h54.59.303,HideSeek_v1,2022.2.5,60.31970648496639,
,9,2,6,2,-3,0,31,,train_dim1_1,21,30,,,,2,0,2,0,,,,,,,,,0,0,0,0,0,20,20,20,3,0,3,0,,,,,,,,,,,,,,,,,,,,,,,,,,,,,,,,,,,,,,,,,,,,,,,,,,,,,,,,,,,,,,,,30,,,,,,,,628.5289370003156,628.5289370003156,628.5289370003156,628.5289370003156,628.5289370003156,return,1.2937341001816094,18,0,0,1,0.32,-0.24,return,1.2194105996750295,5,-51,0.32,-0.24,,,,,,,,,,,,,,,,,,,,,,,,,,,,,,,,,,,,,,,,,,,,,,,,,,,,,,,,44K4YF,train_x,blue_star,bottom_right,2025-03-05_17h54.59.303,HideSeek_v1,2022.2.5,60.31970648496639,
,6,0,2,0,-4,0,21,,train_dim1_1,22,30,,,,2,0,2,0,,,,,,,,,0,0,0,0,0,21,21,21,0,0,0,0,,,,,,,,,,,,,,,,,,,,,,,,,stimuli/alien_stimuli/21.png,,,,,,,,,,,,,,,,,,,,,,,,,,,,,stimuli/alien_stimuli/31.png,31,9,23,,,,,,,30,,,,,,,,633.4222228000872,633.4222228000872,633.4222228000872,633.4222228000872,633.4222228000872,left,0.9170723999850452,18,0,0,99,0.24,-0.4,left,0.8106461996212602,,,,,631.8342466000468,633.4222228000872,0.32,-0.24,0.0,0.24,-0.24,0.32,0.44000000000000006,0.32,-0.24,631.3864704002626,631.3864704002626,631.3864704002626,631.3864704002626,631.3864704002626,631.3864704002626,631.3864704002626,631.3864704002626,631.3666740002111,0.5534510002471507,return,0.41694890009239316,,,,,,,,,,,,,,,,,,,,,,,,,,,,,,,,,44K4YF,train_x,blue_star,bottom_right,2025-03-05_17h54.59.303,HideSeek_v1,2022.2.5,60.31970648496639,
,6,0,2,0,-4,0,21,,train_dim1_1,22,30,,,,2,0,2,0,,,,,,,,,0,0,0,0,0,21,21,21,1,0,1,0,,,,,,,,,,,,,,,,,,,,,,,,,,,,,,,,,,,,,,,,,,,,,,,,,,,,,,,,,,,,,,,,30,,,,,,,,634.3232014002278,634.3232014002278,634.3232014002278,634.3232014002278,634.3232014002278,left,0.5741817001253366,18,0,0,99,0.15999999999999998,-0.4,left,0.4852775000035763,,,,,,,,,,,,,,,,,,,,,,,,,,,,,,,,,,,,,,,,,,,,,,,,,,,,,,,,,,,,44K4YF,train_x,blue_star,bottom_right,2025-03-05_17h54.59.303,HideSeek_v1,2022.2.5,60.31970648496639,
,6,0,2,0,-4,0,21,,train_dim1_1,22,30,,,,2,0,2,0,,,,,,,,,0,0,0,0,0,21,21,21,2,0,2,0,,,,,,,,,,,,,,,,,,,,,,,,,,,,,,,,,,,,,,,,,,,,,,,,,,,,,,,,,,,,,,,,30,,,,,,,,634.9040894000791,634.9040894000791,634.9040894000791,634.9040894000791,634.9040894000791,left,0.5928480001166463,18,0,0,99,0.07999999999999997,-0.4,left,0.5024536997079849,,,,,,,,,,,,,,,,,,,,,,,,,,,,,,,,,,,,,,,,,,,,,,,,,,,,,,,,,,,,44K4YF,train_x,blue_star,bottom_right,2025-03-05_17h54.59.303,HideSeek_v1,2022.2.5,60.31970648496639,
,6,0,2,0,-4,0,21,,train_dim1_1,22,30,,,,2,0,2,0,,,,,,,,,0,0,0,0,0,21,21,21,3,0,3,0,,,,,,,,,,,,,,,,,,,,,,,,,,,,,,,,,,,,,,,,,,,,,,,,,,,,,,,,,,,,,,,,30,,,,,,,,635.5076689003035,635.5076689003035,635.5076689003035,635.5076689003035,635.5076689003035,left,0.6093569998629391,18,0,0,99,-2.7755575615628914e-17,-0.4,left,0.5302150999195874,,,,,,,,,,,,,,,,,,,,,,,,,,,,,,,,,,,,,,,,,,,,,,,,,,,,,,,,,,,,44K4YF,train_x,blue_star,bottom_right,2025-03-05_17h54.59.303,HideSeek_v1,2022.2.5,60.31970648496639,
,6,0,2,0,-4,0,21,,train_dim1_1,22,30,,,,2,0,2,0,,,,,,,,,0,0,0,0,0,21,21,21,4,0,4,0,,,,,,,,,,,,,,,,,,,,,,,,,,,,,,,,,,,,,,,,,,,,,,,,,,,,,,,,,,,,,,,,30,,,,,,,,636.1218453003094,636.1218453003094,636.1218453003094,636.1218453003094,636.1218453003094,return,3.5122181000187993,19,0,0,1,-2.7755575615628914e-17,-0.4,return,3.4307554997503757,5,-55,-2.7755575615628914e-17,-0.4,,,,,,,,,,,,,,,,,,,,,,,,,,,,,,,,,,,,,,,,,,,,,,,,,,,,,,,,44K4YF,train_x,blue_star,bottom_right,2025-03-05_17h54.59.303,HideSeek_v1,2022.2.5,60.31970648496639,
,7,1,7,1,0,0,61,,train_dim1_1,23,30,,,,2,0,2,0,,,,,,,,,0,0,0,0,0,22,22,22,0,0,0,0,,,,,,,,,,,,,,,,,,,,,,,,,stimuli/alien_stimuli/61.png,,,,,,,,,,,,,,,,,,,,,,,,,,,,,stimuli/alien_stimuli/21.png,21,6,24,,,,,,,30,,,,,,,,643.3481479999609,643.3481479999609,643.3481479999609,643.3481479999609,643.3481479999609,return,1.1885794000700116,20,0,0,1,0.4,-0.32,return,1.0901206997223198,5,-55,0.4,-0.32,641.7587577002123,643.3481479999609,0,-0.4,0.0,0.32,-0.4,0,0.16,0,-0.4,641.203526600264,641.203526600264,641.203526600264,641.203526600264,641.203526600264,641.203526600264,641.203526600264,641.203526600264,641.1919055002277,0.6691258000209928,return,0.5283053000457585,,,,,,,,,,,,,,,,,,,,,,,,,,,,,,,,,44K4YF,train_x,blue_star,bottom_right,2025-03-05_17h54.59.303,HideSeek_v1,2022.2.5,60.31970648496639,
,9,4,8,4,-1,0,51,,train_dim1_1,24,30,,,,2,0,2,0,,,,,,,,,0,0,0,0,0,23,23,23,0,0,0,0,,,,,,,,,,,,,,,,,,,,,,,,,stimuli/alien_stimuli/51.png,,,,,,,,,,,,,,,,,,,,,,,,,,,,,stimuli/alien_stimuli/61.png,61,7,25,,,,,,,30,,,,,,,,648.9629156002775,648.9629156002775,648.9629156002775,648.9629156002775,648.9629156002775,left,2.418125900439918,20,0,0,99,0.48000000000000004,-0.08,left,2.3273098999634385,,,,,647.3967773001641,648.9629156002775,0.4,-0.32,0.0,0.0,-0.32,0.4,0.4,0.4,-0.32,646.0800181999803,646.0800181999803,646.0800181999803,646.0800181999803,646.0800181999803,646.0800181999803,646.0800181999803,646.0800181999803,646.0621977004223,1.4201850001700222,return,1.2925820997916162,,,,,,,,,,,,,,,,,,,,,,,,,,,,,,,,,44K4YF,train_x,blue_star,bottom_right,2025-03-05_17h54.59.303,HideSeek_v1,2022.2.5,60.31970648496639,
,9,4,8,4,-1,0,51,,train_dim1_1,24,30,,,,2,0,2,0,,,,,,,,,0,0,0,0,0,23,23,23,1,0,1,0,,,,,,,,,,,,,,,,,,,,,,,,,,,,,,,,,,,,,,,,,,,,,,,,,,,,,,,,,,,,,,,,30,,,,,,,,651.3834889000282,651.3834889000282,651.3834889000282,651.3834889000282,651.3834889000282,left,0.9762464999221265,20,0,0,99,0.4,-0.08,left,0.8936778996139765,,,,,,,,,,,,,,,,,,,,,,,,,,,,,,,,,,,,,,,,,,,,,,,,,,,,,,,,,,,,44K4YF,train_x,blue_star,bottom_right,2025-03-05_17h54.59.303,HideSeek_v1,2022.2.5,60.31970648496639,
,9,4,8,4,-1,0,51,,train_dim1_1,24,30,,,,2,0,2,0,,,,,,,,,0,0,0,0,0,23,23,23,2,0,2,0,,,,,,,,,,,,,,,,,,,,,,,,,,,,,,,,,,,,,,,,,,,,,,,,,,,,,,,,,,,,,,,,30,,,,,,,,652.3678669002838,652.3678669002838,652.3678669002838,652.3678669002838,652.3678669002838,return,0.30992279993370175,20,1,0,0,0.4,-0.08,return,0.22854859940707684,5,-57,0.4,-0.08,,,,,,,,,,,,,,,,,,,,,,,,,,,,,,,,,,,,,,,,,,,,,,,,,,,,,,,,44K4YF,train_x,blue_star,bottom_right,2025-03-05_17h54.59.303,HideSeek_v1,2022.2.5,60.31970648496639,
,8,0,3,0,-5,0,11,,train_dim1_1,25,30,,,,2,0,2,0,,,,,,,,,0,0,0,0,0,24,24,24,0,0,0,0,,,,,,,,,,,,,,,,,,,,,,,,,stimuli/alien_stimuli/11.png,,,,,,,,,,,,,,,,,,,,,,,,,,,,,stimuli/alien_stimuli/51.png,51,9,26,,,,,,,30,,,,,,,,657.5393651002087,657.5393651002087,657.5393651002087,657.5393651002087,657.5393651002087,left,2.183259599842131,20,1,0,99,0.39999999999999997,-0.4,left,2.073064799886197,,,,,655.9537345003337,657.5393651002087,0.48,-0.08,0.0,0.08,-0.08,0.48,0.52,0.48,-0.08,654.2409299002029,654.2409299002029,654.2409299002029,654.2409299002029,654.2409299002029,654.2409299002029,654.2409299002029,654.2409299002029,654.2192113001831,1.8198339003138244,return,1.68998959986493,,,,,,,,,,,,,,,,,,,,,,,,,,,,,,,,,44K4YF,train_x,blue_star,bottom_right,2025-03-05_17h54.59.303,HideSeek_v1,2022.2.5,60.31970648496639,
,8,0,3,0,-5,0,11,,train_dim1_1,25,30,,,,2,0,2,0,,,,,,,,,0,0,0,0,0,24,24,24,1,0,1,0,,,,,,,,,,,,,,,,,,,,,,,,,,,,,,,,,,,,,,,,,,,,,,,,,,,,,,,,,,,,,,,,30,,,,,,,,659.7082838001661,659.7082838001661,659.7082838001661,659.7082838001661,659.7082838001661,left,0.4425642001442611,20,1,0,99,0.31999999999999995,-0.4,left,0.3567078998312354,,,,,,,,,,,,,,,,,,,,,,,,,,,,,,,,,,,,,,,,,,,,,,,,,,,,,,,,,,,,44K4YF,train_x,blue_star,bottom_right,2025-03-05_17h54.59.303,HideSeek_v1,2022.2.5,60.31970648496639,
,8,0,3,0,-5,0,11,,train_dim1_1,25,30,,,,2,0,2,0,,,,,,,,,0,0,0,0,0,24,24,24,2,0,2,0,,,,,,,,,,,,,,,,,,,,,,,,,,,,,,,,,,,,,,,,,,,,,,,,,,,,,,,,,,,,,,,,30,,,,,,,,660.1591234002262,660.1591234002262,660.1591234002262,660.1591234002262,660.1591234002262,left,0.5095929000526667,20,1,0,99,0.23999999999999994,-0.4,left,0.424851399846375,,,,,,,,,,,,,,,,,,,,,,,,,,,,,,,,,,,,,,,,,,,,,,,,,,,,,,,,,,,,44K4YF,train_x,blue_star,bottom_right,2025-03-05_17h54.59.303,HideSeek_v1,2022.2.5,60.31970648496639,
,8,0,3,0,-5,0,11,,train_dim1_1,25,30,,,,2,0,2,0,,,,,,,,,0,0,0,0,0,24,24,24,3,0,3,0,,,,,,,,,,,,,,,,,,,,,,,,,,,,,,,,,,,,,,,,,,,,,,,,,,,,,,,,,,,,,,,,30,,,,,,,,660.6753018000163,660.6753018000163,660.6753018000163,660.6753018000163,660.6753018000163,left,0.4930630000308156,20,1,0,99,0.15999999999999992,-0.4,left,0.4127793996594846,,,,,,,,,,,,,,,,,,,,,,,,,,,,,,,,,,,,,,,,,,,,,,,,,,,,,,,,,,,,44K4YF,train_x,blue_star,bottom_right,2025-03-05_17h54.59.303,HideSeek_v1,2022.2.5,60.31970648496639,
,8,0,3,0,-5,0,11,,train_dim1_1,25,30,,,,2,0,2,0,,,,,,,,,0,0,0,0,0,24,24,24,4,0,4,0,,,,,,,,,,,,,,,,,,,,,,,,,,,,,,,,,,,,,,,,,,,,,,,,,,,,,,,,,,,,,,,,30,,,,,,,,661.1750763002783,661.1750763002783,661.1750763002783,661.1750763002783,661.1750763002783,left,0.7602817001752555,20,1,0,99,0.07999999999999992,-0.4,left,0.6767902998253703,,,,,,,,,,,,,,,,,,,,,,,,,,,,,,,,,,,,,,,,,,,,,,,,,,,,,,,,,,,,44K4YF,train_x,blue_star,bottom_right,2025-03-05_17h54.59.303,HideSeek_v1,2022.2.5,60.31970648496639,
,8,0,3,0,-5,0,11,,train_dim1_1,25,30,,,,2,0,2,0,,,,,,,,,0,0,0,0,0,24,24,24,5,0,5,0,,,,,,,,,,,,,,,,,,,,,,,,,,,,,,,,,,,,,,,,,,,,,,,,,,,,,,,,,,,,,,,,30,,,,,,,,661.9435813999735,661.9435813999735,661.9435813999735,661.9435813999735,661.9435813999735,left,5.864135500043631,20,1,0,99,-8.326672684688674e-17,-0.4,left,5.779463700018823,,,,,,,,,,,,,,,,,,,,,,,,,,,,,,,,,,,,,,,,,,,,,,,,,,,,,,,,,,,,44K4YF,train_x,blue_star,bottom_right,2025-03-05_17h54.59.303,HideSeek_v1,2022.2.5,60.31970648496639,
,8,0,3,0,-5,0,11,,train_dim1_1,25,30,,,,2,0,2,0,,,,,,,,,0,0,0,0,0,24,24,24,6,0,6,0,,,,,,,,,,,,,,,,,,,,,,,,,,,,,,,,,,,,,,,,,,,,,,,,,,,,,,,,,,,,,,,,30,,,,,,,,667.8177963001654,667.8177963001654,667.8177963001654,667.8177963001654,667.8177963001654,right,2.194303600117564,20,1,0,99,0.07999999999999992,-0.4,right,2.100187699776143,,,,,,,,,,,,,,,,,,,,,,,,,,,,,,,,,,,,,,,,,,,,,,,,,,,,,,,,,,,,44K4YF,train_x,blue_star,bottom_right,2025-03-05_17h54.59.303,HideSeek_v1,2022.2.5,60.31970648496639,
,8,0,3,0,-5,0,11,,train_dim1_1,25,30,,,,2,0,2,0,,,,,,,,,0,0,0,0,0,24,24,24,7,0,7,0,,,,,,,,,,,,,,,,,,,,,,,,,,,,,,,,,,,,,,,,,,,,,,,,,,,,,,,,,,,,,,,,30,,,,,,,,670.0177462003194,670.0177462003194,670.0177462003194,670.0177462003194,670.0177462003194,return,0.8603612002916634,21,0,0,1,0.07999999999999992,-0.4,return,0.7755168997682631,5,-62,0.07999999999999992,-0.4,,,,,,,,,,,,,,,,,,,,,,,,,,,,,,,,,,,,,,,,,,,,,,,,,,,,,,,,44K4YF,train_x,blue_star,bottom_right,2025-03-05_17h54.59.303,HideSeek_v1,2022.2.5,60.31970648496639,
,6,1,6,1,0,0,61,,train_dim1_1,26,30,,,,2,0,2,0,,,,,,,,,0,0,0,0,0,25,25,25,0,0,0,0,,,,,,,,,,,,,,,,,,,,,,,,,stimuli/alien_stimuli/61.png,,,,,,,,,,,,,,,,,,,,,,,,,,,,,stimuli/alien_stimuli/11.png,11,8,27,,,,,,,30,,,,,,,,675.181287900079,675.181287900079,675.181287900079,675.181287900079,675.181287900079,return,0.9324940000660717,22,0,0,1,0.32,-0.32,return,0.8268298995681107,5,-62,0.32,-0.32,673.601918600034,675.181287900079,0.08,-0.4,0.0,0.4,-0.4,0.08,0.27999999999999997,0.08,-0.4,672.4479464003816,672.4479464003816,672.4479464003816,672.4479464003816,672.4479464003816,672.4479464003816,672.4479464003816,672.4479464003816,672.4339615002741,1.2699795998632908,return,1.1240194998681545,,,,,,,,,,,,,,,,,,,,,,,,,,,,,,,,,44K4YF,train_x,blue_star,bottom_right,2025-03-05_17h54.59.303,HideSeek_v1,2022.2.5,60.31970648496639,
,5,1,2,1,-3,0,31,,train_dim1_1,27,30,,,,2,0,2,0,,,,,,,,,0,0,0,0,0,26,26,26,0,0,0,0,,,,,,,,,,,,,,,,,,,,,,,,,stimuli/alien_stimuli/31.png,,,,,,,,,,,,,,,,,,,,,,,,,,,,,stimuli/alien_stimuli/61.png,61,6,28,,,,,,,30,,,,,,,,679.5549718001857,679.5549718001857,679.5549718001857,679.5549718001857,679.5549718001857,left,1.0503314998932183,22,0,0,99,0.15999999999999998,-0.32,left,0.9697114997543395,,,,,677.9886588002555,679.5549718001857,0.32,-0.32,0.0,0.0,-0.32,0.32,0.32,0.32,-0.32,677.6554938000627,677.6554938000627,677.6554938000627,677.6554938000627,677.6554938000627,677.6554938000627,677.6554938000627,677.6554938000627,677.638297700137,0.43568279966712,return,0.30117439944297075,,,,,,,,,,,,,,,,,,,,,,,,,,,,,,,,,44K4YF,train_x,blue_star,bottom_right,2025-03-05_17h54.59.303,HideSeek_v1,2022.2.5,60.31970648496639,
,5,1,2,1,-3,0,31,,train_dim1_1,27,30,,,,2,0,2,0,,,,,,,,,0,0,0,0,0,26,26,26,1,0,1,0,,,,,,,,,,,,,,,,,,,,,,,,,,,,,,,,,,,,,,,,,,,,,,,,,,,,,,,,,,,,,,,,30,,,,,,,,680.6058998000808,680.6058998000808,680.6058998000808,680.6058998000808,680.6058998000808,left,0.442512100096792,22,0,0,99,0.07999999999999997,-0.32,left,0.36630479991436005,,,,,,,,,,,,,,,,,,,,,,,,,,,,,,,,,,,,,,,,,,,,,,,,,,,,,,,,,,,,44K4YF,train_x,blue_star,bottom_right,2025-03-05_17h54.59.303,HideSeek_v1,2022.2.5,60.31970648496639,
,5,1,2,1,-3,0,31,,train_dim1_1,27,30,,,,2,0,2,0,,,,,,,,,0,0,0,0,0,26,26,26,2,0,2,0,,,,,,,,,,,,,,,,,,,,,,,,,,,,,,,,,,,,,,,,,,,,,,,,,,,,,,,,,,,,,,,,30,,,,,,,,681.0545650003478,681.0545650003478,681.0545650003478,681.0545650003478,681.0545650003478,left,0.3428946998901665,22,0,0,99,-2.7755575615628914e-17,-0.32,left,0.2658067997545004,,,,,,,,,,,,,,,,,,,,,,,,,,,,,,,,,,,,,,,,,,,,,,,,,,,,,,,,,,,,44K4YF,train_x,blue_star,bottom_right,2025-03-05_17h54.59.303,HideSeek_v1,2022.2.5,60.31970648496639,
,5,1,2,1,-3,0,31,,train_dim1_1,27,30,,,,2,0,2,0,,,,,,,,,0,0,0,0,0,26,26,26,3,0,3,0,,,,,,,,,,,,,,,,,,,,,,,,,,,,,,,,,,,,,,,,,,,,,,,,,,,,,,,,,,,,,,,,30,,,,,,,,681.4055612003431,681.4055612003431,681.4055612003431,681.4055612003431,681.4055612003431,return,0.35996370017528534,23,0,0,1,-2.7755575615628914e-17,-0.32,return,0.28622279968112707,5,-65,-2.7755575615628914e-17,-0.32,,,,,,,,,,,,,,,,,,,,,,,,,,,,,,,,,,,,,,,,,,,,,,,,,,,,,,,,44K4YF,train_x,blue_star,bottom_right,2025-03-05_17h54.59.303,HideSeek_v1,2022.2.5,60.31970648496639,
,8,1,4,1,-4,0,21,,train_dim1_1,28,30,,,,2,0,2,0,,,,,,,,,0,0,0,0,0,27,27,27,0,0,0,0,,,,,,,,,,,,,,,,,,,,,,,,,stimuli/alien_stimuli/21.png,,,,,,,,,,,,,,,,,,,,,,,,,,,,,stimuli/alien_stimuli/31.png,31,5,29,,,,,,,30,,,,,,,,685.6258478001691,685.6258478001691,685.6258478001691,685.6258478001691,685.6258478001691,left,0.9987829998135567,23,0,0,99,0.39999999999999997,-0.32,left,0.8887088997289538,,,,,684.0437937001698,685.6258478001691,0,-0.32,0.0,0.24,-0.32,0,0.12,0,-0.32,683.3331890003756,683.3331890003756,683.3331890003756,683.3331890003756,683.3331890003756,683.3331890003756,683.3331890003756,683.3331890003756,683.326291800337,0.8199658999219537,return,0.6932227993384004,,,,,,,,,,,,,,,,,,,,,,,,,,,,,,,,,44K4YF,train_x,blue_star,bottom_right,2025-03-05_17h54.59.303,HideSeek_v1,2022.2.5,60.31970648496639,
,8,1,4,1,-4,0,21,,train_dim1_1,28,30,,,,2,0,2,0,,,,,,,,,0,0,0,0,0,27,27,27,1,0,1,0,,,,,,,,,,,,,,,,,,,,,,,,,,,,,,,,,,,,,,,,,,,,,,,,,,,,,,,,,,,,,,,,30,,,,,,,,686.6141894999892,686.6141894999892,686.6141894999892,686.6141894999892,686.6141894999892,left,0.4756343001499772,23,0,0,99,0.31999999999999995,-0.32,left,0.38336249999701977,,,,,,,,,,,,,,,,,,,,,,,,,,,,,,,,,,,,,,,,,,,,,,,,,,,,,,,,,,,,44K4YF,train_x,blue_star,bottom_right,2025-03-05_17h54.59.303,HideSeek_v1,2022.2.5,60.31970648496639,
,8,1,4,1,-4,0,21,,train_dim1_1,28,30,,,,2,0,2,0,,,,,,,,,0,0,0,0,0,27,27,27,2,0,2,0,,,,,,,,,,,,,,,,,,,,,,,,,,,,,,,,,,,,,,,,,,,,,,,,,,,,,,,,,,,,,,,,30,,,,,,,,687.0983791002072,687.0983791002072,687.0983791002072,687.0983791002072,687.0983791002072,left,0.49304769979789853,23,0,0,99,0.23999999999999994,-0.32,left,0.4001533994451165,,,,,,,,,,,,,,,,,,,,,,,,,,,,,,,,,,,,,,,,,,,,,,,,,,,,,,,,,,,,44K4YF,train_x,blue_star,bottom_right,2025-03-05_17h54.59.303,HideSeek_v1,2022.2.5,60.31970648496639,
,8,1,4,1,-4,0,21,,train_dim1_1,28,30,,,,2,0,2,0,,,,,,,,,0,0,0,0,0,27,27,27,3,0,3,0,,,,,,,,,,,,,,,,,,,,,,,,,,,,,,,,,,,,,,,,,,,,,,,,,,,,,,,,,,,,,,,,30,,,,,,,,687.5986009002663,687.5986009002663,687.5986009002663,687.5986009002663,687.5986009002663,left,0.47669340018182993,23,0,0,99,0.15999999999999992,-0.32,left,0.38985459972172976,,,,,,,,,,,,,,,,,,,,,,,,,,,,,,,,,,,,,,,,,,,,,,,,,,,,,,,,,,,,44K4YF,train_x,blue_star,bottom_right,2025-03-05_17h54.59.303,HideSeek_v1,2022.2.5,60.31970648496639,
,8,1,4,1,-4,0,21,,train_dim1_1,28,30,,,,2,0,2,0,,,,,,,,,0,0,0,0,0,27,27,27,4,0,4,0,,,,,,,,,,,,,,,,,,,,,,,,,,,,,,,,,,,,,,,,,,,,,,,,,,,,,,,,,,,,,,,,30,,,,,,,,688.0813184999861,688.0813184999861,688.0813184999861,688.0813184999861,688.0813184999861,return,0.37636249978095293,24,0,0,1,0.15999999999999992,-0.32,return,0.28397230012342334,5,-69,0.15999999999999992,-0.32,,,,,,,,,,,,,,,,,,,,,,,,,,,,,,,,,,,,,,,,,,,,,,,,,,,,,,,,44K4YF,train_x,blue_star,bottom_right,2025-03-05_17h54.59.303,HideSeek_v1,2022.2.5,60.31970648496639,
,9,0,8,0,-1,0,51,,train_dim1_1,29,30,,,,2,0,2,0,,,,,,,,,0,0,0,0,0,28,28,28,0,0,0,0,,,,,,,,,,,,,,,,,,,,,,,,,stimuli/alien_stimuli/51.png,,,,,,,,,,,,,,,,,,,,,,,,,,,,,stimuli/alien_stimuli/21.png,21,8,30,,,,,,,30,,,,,,,,692.4536345000379,692.4536345000379,692.4536345000379,692.4536345000379,692.4536345000379,left,1.0497023998759687,24,0,0,99,0.48000000000000004,-0.4,left,0.9502047998830676,,,,,690.8834788003005,692.4536345000379,0.16,-0.32,0.0,0.32,-0.32,0.16,0.32,0.16,-0.32,690.0218128999695,690.0218128999695,690.0218128999695,690.0218128999695,690.0218128999695,690.0218128999695,690.0218128999695,690.0218128999695,690.0151808004362,0.9700181996449828,return,0.845059699844569,,,,,,,,,,,,,,,,,,,,,,,,,,,,,,,,,44K4YF,train_x,blue_star,bottom_right,2025-03-05_17h54.59.303,HideSeek_v1,2022.2.5,60.31970648496639,
,9,0,8,0,-1,0,51,,train_dim1_1,29,30,,,,2,0,2,0,,,,,,,,,0,0,0,0,0,28,28,28,1,0,1,0,,,,,,,,,,,,,,,,,,,,,,,,,,,,,,,,,,,,,,,,,,,,,,,,,,,,,,,,,,,,,,,,30,,,,,,,,693.5033057001419,693.5033057001419,693.5033057001419,693.5033057001419,693.5033057001419,return,0.7760936003178358,25,0,0,1,0.48000000000000004,-0.4,return,0.690177499782294,5,-70,0.48000000000000004,-0.4,,,,,,,,,,,,,,,,,,,,,,,,,,,,,,,,,,,,,,,,,,,,,,,,,,,,,,,,44K4YF,train_x,blue_star,bottom_right,2025-03-05_17h54.59.303,HideSeek_v1,2022.2.5,60.31970648496639,
,7,2,2,2,-5,0,11,,train_dim1_1,30,30,,,,2,0,2,0,,,,,,,,,0,0,0,0,0,29,29,29,0,0,0,0,,,,,,,,,,,,,,,,,,,,,,,,,stimuli/alien_stimuli/11.png,,,,,,,,,,,,,,,,,,,,,,,,,,,,,stimuli/alien_stimuli/51.png,51,9,31,,,,,,,30,,,,,,,,697.940508000087,697.940508000087,697.940508000087,697.940508000087,697.940508000087,left,0.8995534996502101,25,0,0,99,0.32,-0.24,left,0.8113950998522341,,,,,696.3705862001516,697.940508000087,0.48,-0.4,0.0,0.08,-0.4,0.48,0.52,0.48,-0.4,695.8426062003709,695.8426062003709,695.8426062003709,695.8426062003709,695.8426062003709,695.8426062003709,695.8426062003709,695.8426062003709,695.8202335003764,0.6361176003701985,return,0.5054055000655353,,,,,,,,,,,,,,,,,,,,,,,,,,,,,,,,,44K4YF,train_x,blue_star,bottom_right,2025-03-05_17h54.59.303,HideSeek_v1,2022.2.5,60.31970648496639,
,7,2,2,2,-5,0,11,,train_dim1_1,30,30,,,,2,0,2,0,,,,,,,,,0,0,0,0,0,29,29,29,1,0,1,0,,,,,,,,,,,,,,,,,,,,,,,,,,,,,,,,,,,,,,,,,,,,,,,,,,,,,,,,,,,,,,,,30,,,,,,,,698.8525041001849,698.8525041001849,698.8525041001849,698.8525041001849,698.8525041001849,left,0.4736579996533692,25,0,0,99,0.24,-0.24,left,0.3806362999603152,,,,,,,,,,,,,,,,,,,,,,,,,,,,,,,,,,,,,,,,,,,,,,,,,,,,,,,,,,,,44K4YF,train_x,blue_star,bottom_right,2025-03-05_17h54.59.303,HideSeek_v1,2022.2.5,60.31970648496639,
,7,2,2,2,-5,0,11,,train_dim1_1,30,30,,,,2,0,2,0,,,,,,,,,0,0,0,0,0,29,29,29,2,0,2,0,,,,,,,,,,,,,,,,,,,,,,,,,,,,,,,,,,,,,,,,,,,,,,,,,,,,,,,,,,,,,,,,30,,,,,,,,699.3251304002479,699.3251304002479,699.3251304002479,699.3251304002479,699.3251304002479,left,0.5596304996870458,25,0,0,99,0.15999999999999998,-0.24,left,0.4719918998889625,,,,,,,,,,,,,,,,,,,,,,,,,,,,,,,,,,,,,,,,,,,,,,,,,,,,,,,,,,,,44K4YF,train_x,blue_star,bottom_right,2025-03-05_17h54.59.303,HideSeek_v1,2022.2.5,60.31970648496639,
,7,2,2,2,-5,0,11,,train_dim1_1,30,30,,,,2,0,2,0,,,,,,,,,0,0,0,0,0,29,29,29,3,0,3,0,,,,,,,,,,,,,,,,,,,,,,,,,,,,,,,,,,,,,,,,,,,,,,,,,,,,,,,,,,,,,,,,30,,,,,,,,699.8922455003485,699.8922455003485,699.8922455003485,699.8922455003485,699.8922455003485,left,0.49286159966140985,25,0,0,99,0.07999999999999997,-0.24,left,0.4033755995333195,,,,,,,,,,,,,,,,,,,,,,,,,,,,,,,,,,,,,,,,,,,,,,,,,,,,,,,,,,,,44K4YF,train_x,blue_star,bottom_right,2025-03-05_17h54.59.303,HideSeek_v1,2022.2.5,60.31970648496639,
,7,2,2,2,-5,0,11,,train_dim1_1,30,30,,,,2,0,2,0,,,,,,,,,0,0,0,0,0,29,29,29,4,0,4,0,,,,,,,,,,,,,,,,,,,,,,,,,,,,,,,,,,,,,,,,,,,,,,,,,,,,,,,,,,,,,,,,30,,,,,,,,700.392385000363,700.392385000363,700.392385000363,700.392385000363,700.392385000363,left,0.4430805998854339,25,0,0,99,-2.7755575615628914e-17,-0.24,left,0.35829330002889037,,,,,,,,,,,,,,,,,,,,,,,,,,,,,,,,,,,,,,,,,,,,,,,,,,,,,,,,,,,,44K4YF,train_x,blue_star,bottom_right,2025-03-05_17h54.59.303,HideSeek_v1,2022.2.5,60.31970648496639,
,7,2,2,2,-5,0,11,,train_dim1_1,30,30,,,,2,0,2,0,,,,,,,,,0,0,0,0,0,29,29,29,5,0,5,0,,,,,,,,,,,,,,,,,,,,,,,,,,,,,,,,,,,,,,,,,,,,,,,,,,,,,,,,,,,,,,,,30,,,,,,,,700.8423437001184,700.8423437001184,700.8423437001184,700.8423437001184,700.8423437001184,return,0.30984680028632283,26,0,0,1,-2.7755575615628914e-17,-0.24,return,0.22570549976080656,5,-75,-2.7755575615628914e-17,-0.24,,,,,,,,,,,,,,,,,,,,,,,,,,,,,,,,,,,,,,,,,,,,,,,,,,,,,,,,44K4YF,train_x,blue_star,bottom_right,2025-03-05_17h54.59.303,HideSeek_v1,2022.2.5,60.31970648496639,
,,,,,,,,,,,30,,,,2,0,2,0,,,,,,,,,,,,,,,,,,,,,,,,,,,,,,,,,,,,,,,,,,,,,,,,,,,,,,,,,,,,,,,,,,,,,,,,,,stimuli/alien_stimuli/11.png,11,7,32,21,0.7,1.0833333333333335,1,1,1,30,0,conditions/schedules/train_x_first/blue_star_00/bottom_right/inputTrain_2.1.xlsx,99,1,2,1,0,,,,,,,,,,,1,,,,,,,,,703.4598181000911,705.0034854002297,0,-0.24,0.0,0.4,-0.24,0,0.2,0,-0.24,702.7195171001367,702.7195171001367,702.7195171001367,702.7195171001367,702.7195171001367,702.7195171001367,702.7195171001367,702.7195171001367,702.7091002001894,0.8530653999187052,return,0.7181021994911134,0,0.9,0,1,26,,,,,,,,,,,,,,,,,,,,,,,,,,,,44K4YF,train_x,blue_star,bottom_right,2025-03-05_17h54.59.303,HideSeek_v1,2022.2.5,60.31970648496639,
,,,,,,,,,,,,,,,3,0,3,0,0,0,0,0,,,,,,,,,,,,,,,,,,,,,,,,,,,,,,,conditions/schedules/train_x_first/blue_star_00/bottom_right/instructions/Slide17.png,conditions/schedules/train_x_first/blue_star_00/bottom_right/instructions/Audio17.wav,705.0034854002297,704.994453700399,17,"[4.314480000175536, 18.86621499992907, 16.510059300344437, 19.484757400117815, 4.552454799879342, 4.801481999922544, 5.55255790008232, 11.571569900028408, 5.85153350001201, 7.018976499792188, 9.52181060006842, 12.804648399818689, 20.11918879998848, 13.431715900078416, 30.4372657998465, 19.12081140000373, 11.932126800063998]","[0.00020490027964115143, 0.0002455003559589386, 0.014719500206410885, 0.031927499920129776, 0.0484005999751389, 0.0820579999126494, 0.031178300268948078, 0.08056540042161942, 0.08065740019083023, 0.04731980012729764, 0.06518130004405975, 12.804654899984598, 0.00020870007574558258, 13.431722400244325, 0.03418299974873662, 19.120818099938333, 11.93213430000469]",0,,,,,,,,,,,,,,,,,,,,,,,,,,,,,,,,,,,,,,,,,,,,,,,,,,,,,,,,,,,,,,,,,,,,,,,,,,,,,,,,,,,,,,,,,,,,,,,,,,,,,,,,,,,,,,,,,,,,,,,,,,,,44K4YF,train_x,blue_star,bottom_right,2025-03-05_17h54.59.303,HideSeek_v1,2022.2.5,60.31970648496639,
,,,,,,,,,,,,,,,3,0,3,0,1,0,1,0,,,,,,,,,,,,,,,,,,,,,,,,,,,,,,,conditions/schedules/train_x_first/blue_star_00/bottom_right/instructions/Slide18.png,conditions/schedules/train_x_first/blue_star_00/bottom_right/instructions/Audio18.wav,716.9943021000363,716.9876063002274,18,"[4.314480000175536, 18.86621499992907, 16.510059300344437, 19.484757400117815, 4.552454799879342, 4.801481999922544, 5.55255790008232, 11.571569900028408, 5.85153350001201, 7.018976499792188, 9.52181060006842, 12.804648399818689, 20.11918879998848, 13.431715900078416, 30.4372657998465, 19.12081140000373, 11.932126800063998, 6.746451500337571]","[0.00020490027964115143, 0.0002455003559589386, 0.014719500206410885, 0.031927499920129776, 0.0484005999751389, 0.0820579999126494, 0.031178300268948078, 0.08056540042161942, 0.08065740019083023, 0.04731980012729764, 0.06518130004405975, 12.804654899984598, 0.00020870007574558258, 13.431722400244325, 0.03418299974873662, 19.120818099938333, 0.00022190017625689507, 6.746457899920642]",0,,,,,,,,,,,,,,,,,,,,,,,,,,,,,,,,,,,,,,,,,,,,,,,,,,,,,,,,,,,,,,,,,,,,,,,,,,,,,,,,,,,,,,,,,,,,,,,,,,,,,,,,,,,,,,,,,,,,,,,,,,,,44K4YF,train_x,blue_star,bottom_right,2025-03-05_17h54.59.303,HideSeek_v1,2022.2.5,60.31970648496639,
,,,,,,,,,,,,,,,3,0,3,0,2,0,2,0,,,,,,,,,,,,,,,,,,,,,,,,,,,,,,,conditions/schedules/train_x_first/blue_star_00/bottom_right/instructions/Slide19.png,conditions/schedules/train_x_first/blue_star_00/bottom_right/instructions/Audio19.wav,723.794808300212,723.7934915001505,19,"[4.314480000175536, 18.86621499992907, 16.510059300344437, 19.484757400117815, 4.552454799879342, 4.801481999922544, 5.55255790008232, 11.571569900028408, 5.85153350001201, 7.018976499792188, 9.52181060006842, 12.804648399818689, 20.11918879998848, 13.431715900078416, 30.4372657998465, 19.12081140000373, 11.932126800063998, 6.746451500337571, 10.22160889999941]","[0.00020490027964115143, 0.0002455003559589386, 0.014719500206410885, 0.031927499920129776, 0.0484005999751389, 0.0820579999126494, 0.031178300268948078, 0.08056540042161942, 0.08065740019083023, 0.04731980012729764, 0.06518130004405975, 12.804654899984598, 0.00020870007574558258, 13.431722400244325, 0.03418299974873662, 19.120818099938333, 0.00022190017625689507, 0.014116699807345867, 10.221615300048143]",0,,,,,,,,,,,,,,,,,,,,,,,,,,,,,,,,,,,,,,,,,,,,,,,,,,,,,,,,,,,,,,,,,,,,,,,,,,,,,,,,,,,,,,,,,,,,,,,,,,,,,,,,,,,,,,,,,,,,,,,,,,,,44K4YF,train_x,blue_star,bottom_right,2025-03-05_17h54.59.303,HideSeek_v1,2022.2.5,60.31970648496639,
,,,,,,,,,,,,,,,3,0,3,0,3,0,3,0,,,,,,,,,,,,,,,,,,,,,,,,,,,,,,,conditions/schedules/train_x_first/blue_star_00/bottom_right/instructions/Slide20.png,conditions/schedules/train_x_first/blue_star_00/bottom_right/instructions/Audio20.wav,734.0855450001545,734.0854096000548,20,"[4.314480000175536, 18.86621499992907, 16.510059300344437, 19.484757400117815, 4.552454799879342, 4.801481999922544, 5.55255790008232, 11.571569900028408, 5.85153350001201, 7.018976499792188, 9.52181060006842, 12.804648399818689, 20.11918879998848, 13.431715900078416, 30.4372657998465, 19.12081140000373, 11.932126800063998, 6.746451500337571, 10.22160889999941, 13.976634900085628]","[0.00020490027964115143, 0.0002455003559589386, 0.014719500206410885, 0.031927499920129776, 0.0484005999751389, 0.0820579999126494, 0.031178300268948078, 0.08056540042161942, 0.08065740019083023, 0.04731980012729764, 0.06518130004405975, 12.804654899984598, 0.00020870007574558258, 13.431722400244325, 0.03418299974873662, 19.120818099938333, 0.00022190017625689507, 0.014116699807345867, 0.04810169991105795, 13.976643499918282]",0,,,,,,,,,,,,,,,,,,,,,,,,,,,,,,,,,,,,,,,,,,,,,,,,,,,,,,,,,,,,,,,,,,,,,,,,,,,,,,,,,,,,,,,,,,,,,,,,,,,,,,,,,,,,,,,,,,,,,,,,,,,,44K4YF,train_x,blue_star,bottom_right,2025-03-05_17h54.59.303,HideSeek_v1,2022.2.5,60.31970648496639,
1,5,3,5,8,0,5,66,2,instr_dim1_2,,,,,,3,0,3,0,,,,,0,0,0,0,,,,,,,,,,,,,,,,,,,,,,,,,,,,,,,,,,,,,stimuli/alien_stimuli/66.png,conditions/schedules/train_x_first/blue_star_00/bottom_right/inputInstr_2.xlsx,stimuli/alien_stimuli/66.png,748.1592916999944,748.1592916999944,748.1592916999944,748.1592916999944,748.1643163001631,return,6.853852899745107,"[-0.16, -0.08, 0, 0.08, 0.16, 0.24, 0.32, 0.4, 0.48, 0.56]","[-0.4, -0.32, -0.24, -0.16, -0.08, 0, 0.08, 0.16, 0.24, 0.32]",8,3,5,5,0.4,0.0,755.1500719999894,755.1500719999894,755.1500719999894,755.1500719999894,755.1500719999894,755.1500719999894,755.1500719999894,755.1359272001778,8.274893700145185,return,8.139930399600416,stimuli/alien_stimuli/66.png,66,5,1,,,,,,,,,,,,,,,,,,,,,,,,,,,,,,,,,,,,,,,,,,,,,,,,,,,,,,,,,,,,,,,,,,,,,,,,,,,,,,,,,,,,,,,,,44K4YF,train_x,blue_star,bottom_right,2025-03-05_17h54.59.303,HideSeek_v1,2022.2.5,60.31970648496639,
,,,,,,,,,,,30,,,,3,0,3,0,,,,,,,,,,,,,,,,,,,,,,,,,,,,,,,,,,,,,,,,,,,,,,,,,,,,,,,,,,,,,,,,,,,,,,,,,,,,,,21,0.7,1.0833333333333335,1,99,2,30,0,conditions/schedules/train_x_first/blue_star_00/bottom_right/inputTrain_2.1.xlsx,99,1,2,1,0,,,,,,,,,,,,,,,,,,,,,,,,,,,,,,,,,,,,,,,,,,,,,,,,,,,,,,,,,,,,,,,,,,,,,,,,,,,44K4YF,train_x,blue_star,bottom_right,2025-03-05_17h54.59.303,HideSeek_v1,2022.2.5,60.31970648496639,
,,,,,,,,,,,,,,,4,0,4,0,0,0,0,0,,,,,,,,,,,,,,,,,,,,,,,,,,,,,,,conditions/schedules/train_x_first/blue_star_00/bottom_right/instructions/Slide21.png,conditions/schedules/train_x_first/blue_star_00/bottom_right/instructions/Audio21.wav,763.442909100093,763.442797900131,21,"[4.314480000175536, 18.86621499992907, 16.510059300344437, 19.484757400117815, 4.552454799879342, 4.801481999922544, 5.55255790008232, 11.571569900028408, 5.85153350001201, 7.018976499792188, 9.52181060006842, 12.804648399818689, 20.11918879998848, 13.431715900078416, 30.4372657998465, 19.12081140000373, 11.932126800063998, 6.746451500337571, 10.22160889999941, 13.976634900085628, 17.161895700264722]","[0.00020490027964115143, 0.0002455003559589386, 0.014719500206410885, 0.031927499920129776, 0.0484005999751389, 0.0820579999126494, 0.031178300268948078, 0.08056540042161942, 0.08065740019083023, 0.04731980012729764, 0.06518130004405975, 12.804654899984598, 0.00020870007574558258, 13.431722400244325, 0.03418299974873662, 19.120818099938333, 0.00022190017625689507, 0.014116699807345867, 0.04810169991105795, 13.976643499918282, 17.161902700085193]",0,,,,,,,,,,,,,,,,,,,,,,,,,,,,,,,,,,,,,,,,,,,,,,,,,,,,,,,,,,,,,,,,,,,,,,,,,,,,,,,,,,,,,,,,,,,,,,,,,,,,,,,,,,,,,,,,,,,,,,,,,,,,44K4YF,train_x,blue_star,bottom_right,2025-03-05_17h54.59.303,HideSeek_v1,2022.2.5,60.31970648496639,
2,7,3,7,3,0,0,61,2,instr_dim1_2,,,,,,4,0,4,0,,,,,0,0,0,0,,,,,,,,,,,,,,,,,,,,,,,,,,,,,,,,,,,,,stimuli/alien_stimuli/61.png,conditions/schedules/train_x_first/blue_star_00/bottom_right/inputInstr_2.xlsx,stimuli/alien_stimuli/61.png,780.700362500269,780.700362500269,780.700362500269,780.700362500269,780.6907487002202,return,6.439401499927044,"[-0.16, -0.08, 0, 0.08, 0.16, 0.24, 0.32, 0.4, 0.48, 0.56]","[-0.4, -0.32, -0.24, -0.16, -0.08, 0, 0.08, 0.16, 0.24, 0.32]",3,3,7,7,0.0,0.0,787.2818817002699,787.2818817002699,787.2818817002699,787.2818817002699,787.2818817002699,787.2818817002699,787.2818817002699,787.2792334001512,6.42277259984985,return,6.275637799873948,stimuli/alien_stimuli/61.png,61,7,2,,,,,,,,,,,,,,,,,,,,,,,,,,,,,,,,,,,,,,,,,,,,,,,,,,,,,,,,,,,,,,,,,,,,,,,,,,,,,,,,,,,,,,,,,44K4YF,train_x,blue_star,bottom_right,2025-03-05_17h54.59.303,HideSeek_v1,2022.2.5,60.31970648496639,
,,,,,,,,,,,30,,,,4,0,4,0,,,,,,,,,,,,,,,,,,,,,,,,,,,,,,,,,,,,,,,,,,,,,,,,,,,,,,,,,,,,,,,,,,,,,,,,,,,,,,21,0.7,1.0833333333333335,1,99,2,30,0,conditions/schedules/train_x_first/blue_star_00/bottom_right/inputTrain_2.1.xlsx,99,1,2,1,0,,,,,,,,,,,,,,,,,,,,,,,,,,,,,,,,,,,,,,,,,,,,,,,,,,,,,,,,,,,,,,,,,,,,,,,,,,,44K4YF,train_x,blue_star,bottom_right,2025-03-05_17h54.59.303,HideSeek_v1,2022.2.5,60.31970648496639,
,,,,,,,,,,,,,,,5,0,5,0,0,0,0,0,,,,,,,,,,,,,,,,,,,,,,,,,,,,,,,conditions/schedules/train_x_first/blue_star_00/bottom_right/instructions/Slide22.png,conditions/schedules/train_x_first/blue_star_00/bottom_right/instructions/Audio22.wav,793.7377012004144,793.7344178003259,22,"[4.314480000175536, 18.86621499992907, 16.510059300344437, 19.484757400117815, 4.552454799879342, 4.801481999922544, 5.55255790008232, 11.571569900028408, 5.85153350001201, 7.018976499792188, 9.52181060006842, 12.804648399818689, 20.11918879998848, 13.431715900078416, 30.4372657998465, 19.12081140000373, 11.932126800063998, 6.746451500337571, 10.22160889999941, 13.976634900085628, 17.161895700264722, 42.59730049967766]","[0.00020490027964115143, 0.0002455003559589386, 0.014719500206410885, 0.031927499920129776, 0.0484005999751389, 0.0820579999126494, 0.031178300268948078, 0.08056540042161942, 0.08065740019083023, 0.04731980012729764, 0.06518130004405975, 12.804654899984598, 0.00020870007574558258, 13.431722400244325, 0.03418299974873662, 19.120818099938333, 0.00022190017625689507, 0.014116699807345867, 0.04810169991105795, 13.976643499918282, 17.161902700085193, 42.59730829996988]",0,,,,,,,,,,,,,,,,,,,,,,,,,,,,,,,,,,,,,,,,,,,,,,,,,,,,,,,,,,,,,,,,,,,,,,,,,,,,,,,,,,,,,,,,,,,,,,,,,,,,,,,,,,,,,,,,,,,,,,,,,,,,44K4YF,train_x,blue_star,bottom_right,2025-03-05_17h54.59.303,HideSeek_v1,2022.2.5,60.31970648496639,
,5,0,5,4,0,4,65,,train_dim1_2,1,30,,,,5,0,5,0,,,,,,,,,0,0,0,0,0,0,0,0,0,0,0,0,,,,,,,,,,,,,,,,,,,,,,,,,stimuli/alien_stimuli/65.png,,,,,,,,,,,,,,,,,,,,,,,,,,,,,,,,,,,,,,,30,,,,,,,,836.4453153000213,836.4453153000213,836.4453153000213,836.4453153000213,836.4453153000213,up,3.009603700134903,0,0,0,99,0.24,-0.32,up,2.905023899395019,,,,,,,,,,,,,,,,,,,,,,,,,,,,,,,,,,,,,,,,,,,,,,,,,,,,,,,,,,,,44K4YF,train_x,blue_star,bottom_right,2025-03-05_17h54.59.303,HideSeek_v1,2022.2.5,60.31970648496639,
,5,0,5,4,0,4,65,,train_dim1_2,1,30,,,,5,0,5,0,,,,,,,,,0,0,0,0,0,0,0,0,1,0,1,0,,,,,,,,,,,,,,,,,,,,,,,,,,,,,,,,,,,,,,,,,,,,,,,,,,,,,,,,,,,,,,,,30,,,,,,,,839.4418903002515,839.4418903002515,839.4418903002515,839.4418903002515,839.4418903002515,up,0.5212806998752058,0,0,0,99,0.24,-0.24,up,0.43283009994775057,,,,,,,,,,,,,,,,,,,,,,,,,,,,,,,,,,,,,,,,,,,,,,,,,,,,,,,,,,,,44K4YF,train_x,blue_star,bottom_right,2025-03-05_17h54.59.303,HideSeek_v1,2022.2.5,60.31970648496639,
,5,0,5,4,0,4,65,,train_dim1_2,1,30,,,,5,0,5,0,,,,,,,,,0,0,0,0,0,0,0,0,2,0,2,0,,,,,,,,,,,,,,,,,,,,,,,,,,,,,,,,,,,,,,,,,,,,,,,,,,,,,,,,,,,,,,,,30,,,,,,,,839.9697690000758,839.9697690000758,839.9697690000758,839.9697690000758,839.9697690000758,up,0.5595335001125932,0,0,0,99,0.24,-0.15999999999999998,up,0.4818007000721991,,,,,,,,,,,,,,,,,,,,,,,,,,,,,,,,,,,,,,,,,,,,,,,,,,,,,,,,,,,,44K4YF,train_x,blue_star,bottom_right,2025-03-05_17h54.59.303,HideSeek_v1,2022.2.5,60.31970648496639,
,5,0,5,4,0,4,65,,train_dim1_2,1,30,,,,5,0,5,0,,,,,,,,,0,0,0,0,0,0,0,0,3,0,3,0,,,,,,,,,,,,,,,,,,,,,,,,,,,,,,,,,,,,,,,,,,,,,,,,,,,,,,,,,,,,,,,,30,,,,,,,,840.5360109000467,840.5360109000467,840.5360109000467,840.5360109000467,840.5360109000467,up,0.526959199924022,0,0,0,99,0.24,-0.07999999999999997,up,0.4482982996851206,,,,,,,,,,,,,,,,,,,,,,,,,,,,,,,,,,,,,,,,,,,,,,,,,,,,,,,,,,,,44K4YF,train_x,blue_star,bottom_right,2025-03-05_17h54.59.303,HideSeek_v1,2022.2.5,60.31970648496639,
