trialInstr,x_fixStart,y_fixStart,x_corrSteps,y_corrSteps,x_nrSteps,y_nrSteps,alienID,trialLength,version,trialTrain,praclen,testlen,trial_label,break_on_off,beforeExpLoop.thisRepN,beforeExpLoop.thisTrialN,beforeExpLoop.thisN,beforeExpLoop.thisIndex,mini_instr_trials.thisRepN,mini_instr_trials.thisTrialN,mini_instr_trials.thisN,mini_instr_trials.thisIndex,instrLoop.thisRepN,instrLoop.thisTrialN,instrLoop.thisN,instrLoop.thisIndex,repeat_prac.thisRepN,repeat_prac.thisTrialN,repeat_prac.thisN,repeat_prac.thisIndex,trainLoop.thisRepN,trainLoop.thisTrialN,trainLoop.thisN,trainLoop.thisIndex,moveLoop_train.thisRepN,moveLoop_train.thisTrialN,moveLoop_train.thisN,moveLoop_train.thisIndex,experiment.thisRepN,experiment.thisTrialN,experiment.thisN,experiment.thisIndex,moveLoop_test.thisRepN,moveLoop_test.thisTrialN,moveLoop_test.thisN,moveLoop_test.thisIndex,mini_instr2_trials.thisRepN,mini_instr2_trials.thisTrialN,mini_instr2_trials.thisN,mini_instr2_trials.thisIndex,start_all_time,url,slideStim,audioStim,slides.started,sounds.started,nextButton.numClicks,nextButton.timesOn,nextButton.timesOff,prev_but.numClicks,prev_but.timesOn,prev_but.timesOff,alienStim,instrFile,alienStim_instr,gridImage_instr.started,startPos_3.started,key_instr.started,alienImage_3.started,sounds_1.started,key_instr.keys,key_instr.rt,all_x,all_y,FBy_corrSteps,FBy_fixStart,FBx_corrSteps,FBx_fixStart,FBy_pathSize_check,FBx_pathSize_check,gridImage_9.started,alienImageFB_3.started,startPosFB_3.started,keyFB_3.started,pathLine_ydir_2.started,pathLine_xdir_2.started,alienFace_3.started,sounds_2.started,RTFB_instr,keyFB_3.keys,keyFB_3.rt,draw_alienStim,draw_alienID,test_x,nrepcount,perfthres,percthres,earlierperf,earlystop,nextPrac,fileidx,praclen,saveACC_train,pracFile,nextPrac_train,addNrep,fileidx_endr,repExp,showearly,gridImage_4.started,startPos.started,movePos.started,key_resp.started,alienImage.started,buttonPress_train,RTchoice_train,cumAcctrain,aCorr,saveACC_choice,corrAns,x_movePos_end,y_movePos_end,key_resp.keys,key_resp.rt,wLy_dir,wLx_dir,x_movePos,y_movePos,text_2.started,text_2.stopped,aft_x_corrPos,aft_y_corrPos,y_pathSize_check,x_pathSize_check,y_pathdirY,x_pathdirY,x_pathdirX,x_corrPos,y_corrPos,gridImage_6.started,alienImageFB_2.started,startPosFB_2.started,movePosFB_2.started,keyFB_2.started,pathLine_xdir.started,pathLine_ydir.started,alienFace.started,sounds_4.started,RT_FBtrain,keyFB_2.keys,keyFB_2.rt,saveACC_pre,ACC,within_saveACC_train,earlystop_wloop,cumAcctrain_check,gridImage_3.started,alienImage_test.started,startPos_test.started,movePos_test.started,key_resp_test.started,wLy_dir_test,wLx_dir_test,buttonPress_test,RTchoice_test,cumAcctest,corrAns_test,key_resp_test.keys,key_resp_test.rt,text_3.started,text_3.stopped,total_time,end_all_time,key_resp_3.keys,slides_2.started,sounds_3.started,nextButton_2.numClicks,nextButton_2.timesOn,nextButton_2.timesOff,prev_but_2.numClicks,prev_but_2.timesOn,prev_but_2.timesOff,bye.started,participant,train_first,00_coordinate,starting corner,date,expName,psychopyVersion,frameRate,
,,,,,,,,,,,,,,,0,0,0,0,0,0,0,0,,,,,,,,,,,,,,,,,,,,,,,,,,,,,start_all_time,testround,conditions/schedules/train_x_first/blue_star_00/top_left/instructions/Slide1.png,conditions/schedules/train_x_first/blue_star_00/top_left/instructions/Audio1.wav,979.4334118999541,979.3811134789605,1,[2.9409433000255376],[2.9409508000826463],0,,,,,,,,,,,,,,,,,,,,,,,,,,,,,,,,,,,,,,,,,,,,,,,,,,,,,,,,,,,,,,,,,,,,,,,,,,,,,,,,,,,,,,,,,,,,,,,,,,,,,,,,,,,,,,,,,,,,,,,,,,,,46GULT,train_x,blue_star,top_left,2025-05-26_16h04.38.251,HideSeek_v1,2022.2.5,59.5252268207156,
,,,,,,,,,,,,,,,0,0,0,0,1,0,1,0,,,,,,,,,,,,,,,,,,,,,,,,,,,,,,,conditions/schedules/train_x_first/blue_star_00/top_left/instructions/Slide2.png,conditions/schedules/train_x_first/blue_star_00/top_left/instructions/Audio2.wav,982.3972347000381,982.3997407999705,2,"[2.9409433000255376, 17.96533909998834]","[0.051082000019960105, 17.965346200042404]",0,,,,,,,,,,,,,,,,,,,,,,,,,,,,,,,,,,,,,,,,,,,,,,,,,,,,,,,,,,,,,,,,,,,,,,,,,,,,,,,,,,,,,,,,,,,,,,,,,,,,,,,,,,,,,,,,,,,,,,,,,,,,46GULT,train_x,blue_star,top_left,2025-05-26_16h04.38.251,HideSeek_v1,2022.2.5,59.5252268207156,
,,,,,,,,,,,,,,,0,0,0,0,2,0,2,0,,,,,,,,,,,,,,,,,,,,,,,,,,,,,,,conditions/schedules/train_x_first/blue_star_00/top_left/instructions/Slide3.png,conditions/schedules/train_x_first/blue_star_00/top_left/instructions/Audio3.wav,1000.4429743000073,1000.4313717999612,3,"[2.9409433000255376, 17.96533909998834, 16.332878299988806]","[0.051082000019960105, 0.014482300030067563, 16.332885200041346]",0,,,,,,,,,,,,,,,,,,,,,,,,,,,,,,,,,,,,,,,,,,,,,,,,,,,,,,,,,,,,,,,,,,,,,,,,,,,,,,,,,,,,,,,,,,,,,,,,,,,,,,,,,,,,,,,,,,,,,,,,,,,,46GULT,train_x,blue_star,top_left,2025-05-26_16h04.38.251,HideSeek_v1,2022.2.5,59.5252268207156,
,,,,,,,,,,,,,,,0,0,0,0,3,0,3,0,,,,,,,,,,,,,,,,,,,,,,,,,,,,,,,conditions/schedules/train_x_first/blue_star_00/top_left/instructions/Slide4.png,conditions/schedules/train_x_first/blue_star_00/top_left/instructions/Audio4.wav,1016.8615368000465,1016.8615905399434,4,"[2.9409433000255376, 17.96533909998834, 16.332878299988806, 19.146797999972478]","[0.051082000019960105, 0.014482300030067563, 0.031330600031651556, 19.146805300028063]",0,,,,,,,,,,,,,,,,,,,,,,,,,,,,,,,,,,,,,,,,,,,,,,,,,,,,,,,,,,,,,,,,,,,,,,,,,,,,,,,,,,,,,,,,,,,,,,,,,,,,,,,,,,,,,,,,,,,,,,,,,,,,46GULT,train_x,blue_star,top_left,2025-05-26_16h04.38.251,HideSeek_v1,2022.2.5,59.5252268207156,
,,,,,,,,,,,,,,,0,0,0,0,4,0,4,0,,,,,,,,,,,,,,,,,,,,,,,,,,,,,,,conditions/schedules/train_x_first/blue_star_00/top_left/instructions/Slide5.png,conditions/schedules/train_x_first/blue_star_00/top_left/instructions/Audio5.wav,1036.0782197000226,1036.0775250000297,5,"[2.9409433000255376, 17.96533909998834, 16.332878299988806, 19.146797999972478, 4.251102899899706]","[0.051082000019960105, 0.014482300030067563, 0.031330600031651556, 0.03125269990414381, 4.251111099962145]",0,,,,,,,,,,,,,,,,,,,,,,,,,,,,,,,,,,,,,,,,,,,,,,,,,,,,,,,,,,,,,,,,,,,,,,,,,,,,,,,,,,,,,,,,,,,,,,,,,,,,,,,,,,,,,,,,,,,,,,,,,,,,46GULT,train_x,blue_star,top_left,2025-05-26_16h04.38.251,HideSeek_v1,2022.2.5,59.5252268207156,
,,,,,,,,,,,,,,,0,0,0,0,5,0,5,0,,,,,,,,,,,,,,,,,,,,,,,,,,,,,,,conditions/schedules/train_x_first/blue_star_00/top_left/instructions/Slide6.png,conditions/schedules/train_x_first/blue_star_00/top_left/instructions/Audio6.wav,1040.3833720999537,1040.3813476599519,6,"[2.9409433000255376, 17.96533909998834, 16.332878299988806, 19.146797999972478, 4.251102899899706, 5.032526299939491]","[0.051082000019960105, 0.014482300030067563, 0.031330600031651556, 0.03125269990414381, 0.04689600004348904, 5.032533399993554]",0,,,,,,,,,,,,,,,,,,,,,,,,,,,,,,,,,,,,,,,,,,,,,,,,,,,,,,,,,,,,,,,,,,,,,,,,,,,,,,,,,,,,,,,,,,,,,,,,,,,,,,,,,,,,,,,,,,,,,,,,,,,,46GULT,train_x,blue_star,top_left,2025-05-26_16h04.38.251,HideSeek_v1,2022.2.5,59.5252268207156,
,,,,,,,,,,,,,,,0,0,0,0,6,0,6,0,,,,,,,,,,,,,,,,,,,,,,,,,,,,,,,conditions/schedules/train_x_first/blue_star_00/top_left/instructions/Slide7.png,conditions/schedules/train_x_first/blue_star_00/top_left/instructions/Audio7.wav,1045.4670379000017,1045.4685929600148,7,"[2.9409433000255376, 17.96533909998834, 16.332878299988806, 19.146797999972478, 4.251102899899706, 5.032526299939491, 5.404782900004648]","[0.051082000019960105, 0.014482300030067563, 0.031330600031651556, 0.03125269990414381, 0.04689600004348904, 0.049434499931521714, 5.4047930999659]",0,,,,,,,,,,,,,,,,,,,,,,,,,,,,,,,,,,,,,,,,,,,,,,,,,,,,,,,,,,,,,,,,,,,,,,,,,,,,,,,,,,,,,,,,,,,,,,,,,,,,,,,,,,,,,,,,,,,,,,,,,,,,46GULT,train_x,blue_star,top_left,2025-05-26_16h04.38.251,HideSeek_v1,2022.2.5,59.5252268207156,
,,,,,,,,,,,,,,,0,0,0,0,7,0,7,0,,,,,,,,,,,,,,,,,,,,,,,,,,,,,,,conditions/schedules/train_x_first/blue_star_00/top_left/instructions/Slide8.png,conditions/schedules/train_x_first/blue_star_00/top_left/instructions/Audio8.wav,1050.9246062999591,1050.9241903599816,8,"[2.9409433000255376, 17.96533909998834, 16.332878299988806, 19.146797999972478, 4.251102899899706, 5.032526299939491, 5.404782900004648, 11.589179400005378]","[0.051082000019960105, 0.014482300030067563, 0.031330600031651556, 0.03125269990414381, 0.04689600004348904, 0.049434499931521714, 0.11287920002359897, 11.58918580005411]",0,,,,,,,,,,,,,,,,,,,,,,,,,,,,,,,,,,,,,,,,,,,,,,,,,,,,,,,,,,,,,,,,,,,,,,,,,,,,,,,,,,,,,,,,,,,,,,,,,,,,,,,,,,,,,,,,,,,,,,,,,,,,46GULT,train_x,blue_star,top_left,2025-05-26_16h04.38.251,HideSeek_v1,2022.2.5,59.5252268207156,
,,,,,,,,,,,,,,,0,0,0,0,8,0,8,0,,,,,,,,,,,,,,,,,,,,,,,,,,,,,,,conditions/schedules/train_x_first/blue_star_00/top_left/instructions/Slide9.png,conditions/schedules/train_x_first/blue_star_00/top_left/instructions/Audio9.wav,1062.5834019000176,1062.583226000017,9,"[2.9409433000255376, 17.96533909998834, 16.332878299988806, 19.146797999972478, 4.251102899899706, 5.032526299939491, 5.404782900004648, 11.589179400005378, 6.019022800028324]","[0.051082000019960105, 0.014482300030067563, 0.031330600031651556, 0.03125269990414381, 0.04689600004348904, 0.049434499931521714, 0.11287920002359897, 0.06378249998670071, 6.019030199968256]",0,,,,,,,,,,,,,,,,,,,,,,,,,,,,,,,,,,,,,,,,,,,,,,,,,,,,,,,,,,,,,,,,,,,,,,,,,,,,,,,,,,,,,,,,,,,,,,,,,,,,,,,,,,,,,,,,,,,,,,,,,,,,46GULT,train_x,blue_star,top_left,2025-05-26_16h04.38.251,HideSeek_v1,2022.2.5,59.5252268207156,
,,,,,,,,,,,,,,,0,0,0,0,9,0,9,0,,,,,,,,,,,,,,,,,,,,,,,,,,,,,,,conditions/schedules/train_x_first/blue_star_00/top_left/instructions/Slide10.png,conditions/schedules/train_x_first/blue_star_00/top_left/instructions/Audio10.wav,1068.6397548000095,1068.6379742199904,10,"[2.9409433000255376, 17.96533909998834, 16.332878299988806, 19.146797999972478, 4.251102899899706, 5.032526299939491, 5.404782900004648, 11.589179400005378, 6.019022800028324, 7.31808789994102]","[0.051082000019960105, 0.014482300030067563, 0.031330600031651556, 0.03125269990414381, 0.04689600004348904, 0.049434499931521714, 0.11287920002359897, 0.06378249998670071, 0.0796192999696359, 7.318094599992037]",0,,,,,,,,,,,,,,,,,,,,,,,,,,,,,,,,,,,,,,,,,,,,,,,,,,,,,,,,,,,,,,,,,,,,,,,,,,,,,,,,,,,,,,,,,,,,,,,,,,,,,,,,,,,,,,,,,,,,,,,,,,,,46GULT,train_x,blue_star,top_left,2025-05-26_16h04.38.251,HideSeek_v1,2022.2.5,59.5252268207156,
,,,,,,,,,,,,,,,0,0,0,0,10,0,10,0,,,,,,,,,,,,,,,,,,,,,,,,,,,,,,,conditions/schedules/train_x_first/blue_star_00/top_left/instructions/Slide11.png,conditions/schedules/train_x_first/blue_star_00/top_left/instructions/Audio11.wav,1076.012077499996,1076.0107293600215,11,"[2.9409433000255376, 17.96533909998834, 16.332878299988806, 19.146797999972478, 4.251102899899706, 5.032526299939491, 5.404782900004648, 11.589179400005378, 6.019022800028324, 7.31808789994102, 9.754411699948832]","[0.051082000019960105, 0.014482300030067563, 0.031330600031651556, 0.03125269990414381, 0.04689600004348904, 0.049434499931521714, 0.11287920002359897, 0.06378249998670071, 0.0796192999696359, 0.04731799999717623, 9.754418700002134]",0,,,,,,,,,,,,,,,,,,,,,,,,,,,,,,,,,,,,,,,,,,,,,,,,,,,,,,,,,,,,,,,,,,,,,,,,,,,,,,,,,,,,,,,,,,,,,,,,,,,,,,,,,,,,,,,,,,,,,,,,,,,,46GULT,train_x,blue_star,top_left,2025-05-26_16h04.38.251,HideSeek_v1,2022.2.5,59.5252268207156,
,,,,,,,,,,,,,,,0,0,0,0,11,0,11,0,,,,,,,,,,,,,,,,,,,,,,,,,,,,,,,conditions/schedules/train_x_first/blue_star_00/top_left/instructions/Slide12.png,conditions/schedules/train_x_first/blue_star_00/top_left/instructions/Audio12.wav,1085.8195416999515,1085.8189101599621,12,"[2.9409433000255376, 17.96533909998834, 16.332878299988806, 19.146797999972478, 4.251102899899706, 5.032526299939491, 5.404782900004648, 11.589179400005378, 6.019022800028324, 7.31808789994102, 9.754411699948832, 12.657430700026453]","[0.051082000019960105, 0.014482300030067563, 0.031330600031651556, 0.03125269990414381, 0.04689600004348904, 0.049434499931521714, 0.11287920002359897, 0.06378249998670071, 0.0796192999696359, 0.04731799999717623, 0.06376980000641197, 12.65743740007747]",0,,,,,,,,,,,,,,,,,,,,,,,,,,,,,,,,,,,,,,,,,,,,,,,,,,,,,,,,,,,,,,,,,,,,,,,,,,,,,,,,,,,,,,,,,,,,,,,,,,,,,,,,,,,,,,,,,,,,,,,,,,,,46GULT,train_x,blue_star,top_left,2025-05-26_16h04.38.251,HideSeek_v1,2022.2.5,59.5252268207156,
1,4,5,9,5,5,0,11,2,instr_dim1_1,,,,,,0,0,0,0,,,,,0,0,0,0,,,,,,,,,,,,,,,,,,,,,,,,,,,,,,,,,,,,,stimuli/alien_stimuli/11.png,conditions/schedules/train_x_first/blue_star_00/top_left/inputInstr_1.xlsx,stimuli/alien_stimuli/11.png,1098.5813793999841,1098.5813793999841,1098.5813793999841,1098.5813793999841,1098.5795354799948,return,10.886011100024916,"[-0.16, -0.08, 0, 0.08, 0.16, 0.24, 0.32, 0.4, 0.48, 0.56]","[-0.4, -0.32, -0.24, -0.16, -0.08, 0, 0.08, 0.16, 0.24, 0.32]",5,5,9,4,0.0,0.4,1109.6358378999867,1109.6358378999867,1109.6358378999867,1109.6358378999867,1109.6358378999867,1109.6358378999867,1109.6358378999867,1109.621712659986,9.375431099906564,return,9.209554799948819,stimuli/alien_stimuli/11.png,11,4,1,,,,,,,,,,,,,,,,,,,,,,,,,,,,,,,,,,,,,,,,,,,,,,,,,,,,,,,,,,,,,,,,,,,,,,,,,,,,,,,,,,,,,,,,,46GULT,train_x,blue_star,top_left,2025-05-26_16h04.38.251,HideSeek_v1,2022.2.5,59.5252268207156,
,,,,,,,,,,,30,,,,0,0,0,0,,,,,,,,,,,,,,,,,,,,,,,,,,,,,,,,,,,,,,,,,,,,,,,,,,,,,,,,,,,,,,,,,,,,,,,,,,,,,,21,0.7,0,0,99,1,30,0,conditions/schedules/train_x_first/blue_star_00/top_left/inputTrain_1.1.xlsx,99,1,1,1,0,,,,,,,,,,,,,,,,,,,,,,,,,,,,,,,,,,,,,,,,,,,,,,,,,,,,,,,,,,,,,,,,,,,,,,,,,,,46GULT,train_x,blue_star,top_left,2025-05-26_16h04.38.251,HideSeek_v1,2022.2.5,59.5252268207156,
,,,,,,,,,,,,,,,1,0,1,0,0,0,0,0,,,,,,,,,,,,,,,,,,,,,,,,,,,,,,,conditions/schedules/train_x_first/blue_star_00/top_left/instructions/Slide13.png,conditions/schedules/train_x_first/blue_star_00/top_left/instructions/Audio13.wav,1118.994014899945,1118.996253459982,13,"[2.9409433000255376, 17.96533909998834, 16.332878299988806, 19.146797999972478, 4.251102899899706, 5.032526299939491, 5.404782900004648, 11.589179400005378, 6.019022800028324, 7.31808789994102, 9.754411699948832, 12.657430700026453, 16.647055700072087]","[0.051082000019960105, 0.014482300030067563, 0.031330600031651556, 0.03125269990414381, 0.04689600004348904, 0.049434499931521714, 0.11287920002359897, 0.06378249998670071, 0.0796192999696359, 0.04731799999717623, 0.06376980000641197, 12.65743740007747, 16.647063000011258]",0,,,,,,,,,,,,,,,,,,,,,,,,,,,,,,,,,,,,,,,,,,,,,,,,,,,,,,,,,,,,,,,,,,,,,,,,,,,,,,,,,,,,,,,,,,,,,,,,,,,,,,,,,,,,,,,,,,,,,,,,,,,,46GULT,train_x,blue_star,top_left,2025-05-26_16h04.38.251,HideSeek_v1,2022.2.5,59.5252268207156,
,,,,,,,,,,,,,,,1,0,1,0,1,0,1,0,,,,,,,,,,,,,,,,,,,,,,,,,,,,,,,conditions/schedules/train_x_first/blue_star_00/top_left/instructions/Slide14.png,conditions/schedules/train_x_first/blue_star_00/top_left/instructions/Audio14.wav,1135.7087016999722,1135.7102367999614,14,"[2.9409433000255376, 17.96533909998834, 16.332878299988806, 19.146797999972478, 4.251102899899706, 5.032526299939491, 5.404782900004648, 11.589179400005378, 6.019022800028324, 7.31808789994102, 9.754411699948832, 12.657430700026453, 16.647055700072087, 13.259509499999695]","[0.051082000019960105, 0.014482300030067563, 0.031330600031651556, 0.03125269990414381, 0.04689600004348904, 0.049434499931521714, 0.11287920002359897, 0.06378249998670071, 0.0796192999696359, 0.04731799999717623, 0.06376980000641197, 12.65743740007747, 0.013767999946139753, 13.25951639993582]",0,,,,,,,,,,,,,,,,,,,,,,,,,,,,,,,,,,,,,,,,,,,,,,,,,,,,,,,,,,,,,,,,,,,,,,,,,,,,,,,,,,,,,,,,,,,,,,,,,,,,,,,,,,,,,,,,,,,,,,,,,,,,46GULT,train_x,blue_star,top_left,2025-05-26_16h04.38.251,HideSeek_v1,2022.2.5,59.5252268207156,
2,3,7,3,7,0,0,61,2,instr_dim1_1,,,,,,1,0,1,0,,,,,0,0,0,0,,,,,,,,,,,,,,,,,,,,,,,,,,,,,,,,,,,,,stimuli/alien_stimuli/61.png,conditions/schedules/train_x_first/blue_star_00/top_left/inputInstr_1.xlsx,stimuli/alien_stimuli/61.png,1149.0613061999902,1149.0613061999902,1149.0613061999902,1149.0613061999902,1149.0545194399542,return,8.428663400001824,"[-0.16, -0.08, 0, 0.08, 0.16, 0.24, 0.32, 0.4, 0.48, 0.56]","[-0.4, -0.32, -0.24, -0.16, -0.08, 0, 0.08, 0.16, 0.24, 0.32]",7,7,3,3,0.0,0.0,1157.6415206999518,1157.6415206999518,1157.6415206999518,1157.6415206999518,1157.6415206999518,1157.6415206999518,1157.6415206999518,1157.6283237199066,10.342607299913652,return,10.18903909996152,stimuli/alien_stimuli/61.png,61,3,2,,,,,,,,,,,,,,,,,,,,,,,,,,,,,,,,,,,,,,,,,,,,,,,,,,,,,,,,,,,,,,,,,,,,,,,,,,,,,,,,,,,,,,,,,46GULT,train_x,blue_star,top_left,2025-05-26_16h04.38.251,HideSeek_v1,2022.2.5,59.5252268207156,
,,,,,,,,,,,30,,,,1,0,1,0,,,,,,,,,,,,,,,,,,,,,,,,,,,,,,,,,,,,,,,,,,,,,,,,,,,,,,,,,,,,,,,,,,,,,,,,,,,,,,21,0.7,0,0,99,1,30,0,conditions/schedules/train_x_first/blue_star_00/top_left/inputTrain_1.1.xlsx,99,1,1,1,0,,,,,,,,,,,,,,,,,,,,,,,,,,,,,,,,,,,,,,,,,,,,,,,,,,,,,,,,,,,,,,,,,,,,,,,,,,,46GULT,train_x,blue_star,top_left,2025-05-26_16h04.38.251,HideSeek_v1,2022.2.5,59.5252268207156,
,,,,,,,,,,,,,,,2,0,2,0,0,0,0,0,,,,,,,,,,,,,,,,,,,,,,,,,,,,,,,conditions/schedules/train_x_first/blue_star_00/top_left/instructions/Slide15.png,conditions/schedules/train_x_first/blue_star_00/top_left/instructions/Audio15.wav,1167.9924278999679,1167.9867876599658,15,"[2.9409433000255376, 17.96533909998834, 16.332878299988806, 19.146797999972478, 4.251102899899706, 5.032526299939491, 5.404782900004648, 11.589179400005378, 6.019022800028324, 7.31808789994102, 9.754411699948832, 12.657430700026453, 16.647055700072087, 13.259509499999695, 31.017129199928604]","[0.051082000019960105, 0.014482300030067563, 0.031330600031651556, 0.03125269990414381, 0.04689600004348904, 0.049434499931521714, 0.11287920002359897, 0.06378249998670071, 0.0796192999696359, 0.04731799999717623, 0.06376980000641197, 12.65743740007747, 0.013767999946139753, 13.25951639993582, 31.01713779999409]",0,,,,,,,,,,,,,,,,,,,,,,,,,,,,,,,,,,,,,,,,,,,,,,,,,,,,,,,,,,,,,,,,,,,,,,,,,,,,,,,,,,,,,,,,,,,,,,,,,,,,,,,,,,,,,,,,,,,,,,,,,,,,46GULT,train_x,blue_star,top_left,2025-05-26_16h04.38.251,HideSeek_v1,2022.2.5,59.5252268207156,
,,,,,,,,,,,,,,,2,0,2,0,1,0,1,0,,,,,,,,,,,,,,,,,,,,,,,,,,,,,,,conditions/schedules/train_x_first/blue_star_00/top_left/instructions/Slide16.png,conditions/schedules/train_x_first/blue_star_00/top_left/instructions/Audio16.wav,1199.0882483000169,1199.0788184999838,16,"[2.9409433000255376, 17.96533909998834, 16.332878299988806, 19.146797999972478, 4.251102899899706, 5.032526299939491, 5.404782900004648, 11.589179400005378, 6.019022800028324, 7.31808789994102, 9.754411699948832, 12.657430700026453, 16.647055700072087, 13.259509499999695, 31.017129199928604, 22.541404400020838]","[0.051082000019960105, 0.014482300030067563, 0.031330600031651556, 0.03125269990414381, 0.04689600004348904, 0.049434499931521714, 0.11287920002359897, 0.06378249998670071, 0.0796192999696359, 0.04731799999717623, 0.06376980000641197, 12.65743740007747, 0.013767999946139753, 13.25951639993582, 0.05516040010843426, 22.54141140007414]",0,,,,,,,,,,,,,,,,,,,,,,,,,,,,,,,,,,,,,,,,,,,,,,,,,,,,,,,,,,,,,,,,,,,,,,,,,,,,,,,,,,,,,,,,,,,,,,,,,,,,,,,,,,,,,,,,,,,,,,,,,,,,46GULT,train_x,blue_star,top_left,2025-05-26_16h04.38.251,HideSeek_v1,2022.2.5,59.5252268207156,
,2,6,5,6,3,0,31,,train_dim1_1,1,30,,,,2,0,2,0,,,,,,,,,0,0,0,0,0,0,0,0,0,0,0,0,,,,,,,,,,,,,,,,,,,,,,,,,stimuli/alien_stimuli/31.png,,,,,,,,,,,,,,,,,,,,,,,,,,,,,,,,,,,,,,,30,,,,,,,,1221.7283788999775,1221.7283788999775,1221.7283788999775,1221.7283788999775,1221.7283788999775,down,13.603258299990557,0,0,0,99,0,0.0,down,13.500754600041546,,,,,,,,,,,,,,,,,,,,,,,,,,,,,,,,,,,,,,,,,,,,,,,,,,,,,,,,,,,,46GULT,train_x,blue_star,top_left,2025-05-26_16h04.38.251,HideSeek_v1,2022.2.5,59.5252268207156,
,2,6,5,6,3,0,31,,train_dim1_1,1,30,,,,2,0,2,0,,,,,,,,,0,0,0,0,0,0,0,0,1,0,1,0,,,,,,,,,,,,,,,,,,,,,,,,,,,,,,,,,,,,,,,,,,,,,,,,,,,,,,,,,,,,,,,,30,,,,,,,,1235.342421600013,1235.342421600013,1235.342421600013,1235.342421600013,1235.342421600013,down,1.29391659994144,0,0,0,99,0,-0.08,down,1.1864694999530911,,,,,,,,,,,,,,,,,,,,,,,,,,,,,,,,,,,,,,,,,,,,,,,,,,,,,,,,,,,,46GULT,train_x,blue_star,top_left,2025-05-26_16h04.38.251,HideSeek_v1,2022.2.5,59.5252268207156,
,2,6,5,6,3,0,31,,train_dim1_1,1,30,,,,2,0,2,0,,,,,,,,,0,0,0,0,0,0,0,0,2,0,2,0,,,,,,,,,,,,,,,,,,,,,,,,,,,,,,,,,,,,,,,,,,,,,,,,,,,,,,,,,,,,,,,,30,,,,,,,,1236.6242888999404,1236.6242888999404,1236.6242888999404,1236.6242888999404,1236.6242888999404,left,1.8940923000918701,0,0,0,99,-0.08,-0.08,left,1.8146998999873176,,,,,,,,,,,,,,,,,,,,,,,,,,,,,,,,,,,,,,,,,,,,,,,,,,,,,,,,,,,,46GULT,train_x,blue_star,top_left,2025-05-26_16h04.38.251,HideSeek_v1,2022.2.5,59.5252268207156,
,2,6,5,6,3,0,31,,train_dim1_1,1,30,,,,2,0,2,0,,,,,,,,,0,0,0,0,0,0,0,0,3,0,3,0,,,,,,,,,,,,,,,,,,,,,,,,,,,,,,,,,,,,,,,,,,,,,,,,,,,,,,,,,,,,,,,,30,,,,,,,,1238.5250272999983,1238.5250272999983,1238.5250272999983,1238.5250272999983,1238.5250272999983,left,1.361216599936597,0,0,0,99,-0.16,-0.08,left,1.2814353000139818,,,,,,,,,,,,,,,,,,,,,,,,,,,,,,,,,,,,,,,,,,,,,,,,,,,,,,,,,,,,46GULT,train_x,blue_star,top_left,2025-05-26_16h04.38.251,HideSeek_v1,2022.2.5,59.5252268207156,
,2,6,5,6,3,0,31,,train_dim1_1,1,30,,,,2,0,2,0,,,,,,,,,0,0,0,0,0,0,0,0,4,0,4,0,,,,,,,,,,,,,,,,,,,,,,,,,,,,,,,,,,,,,,,,,,,,,,,,,,,,,,,,,,,,,,,,30,,,,,,,,1239.8931732999627,1239.8931732999627,1239.8931732999627,1239.8931732999627,1239.8931732999627,return,1.3273407000815496,0,0,0,0,-0.16,-0.08,return,1.2437078000511974,-2,-2,-0.16,-0.08,,,,,,,,,,,,,,,,,,,,,,,,,,,,,,,,,,,,,,,,,,,,,,,,,,,,,,,,46GULT,train_x,blue_star,top_left,2025-05-26_16h04.38.251,HideSeek_v1,2022.2.5,59.5252268207156,
,2,9,7,9,5,0,11,,train_dim1_1,2,30,,,,2,0,2,0,,,,,,,,,0,0,0,0,0,1,1,1,0,0,0,0,,,,,,,,,,,,,,,,,,,,,,,,,stimuli/alien_stimuli/11.png,,,,,,,,,,,,,,,,,,,,,,,,,,,,,stimuli/alien_stimuli/31.png,31,2,3,,,,,,,30,,,,,,,,1255.2938621999929,1255.2938621999929,1255.2938621999929,1255.2938621999929,1255.2938621999929,down,9.442754599964246,0,0,0,99,0,0.24,down,9.326289999997243,,,,,1253.7083637999604,1255.2938621999929,0.24,0.08,0.0,0.24,0.08,0.24,0.12,0.24,0.08,1242.7999309999868,1242.7999309999868,1242.7999309999868,1242.7999309999868,1242.7999309999868,1242.7999309999868,1242.7999309999868,1242.7999309999868,1242.7989896200131,11.028226800030097,return,10.889336800086312,,,,,,,,,,,,,,,,,,,,,,,,,,,,,,,,,46GULT,train_x,blue_star,top_left,2025-05-26_16h04.38.251,HideSeek_v1,2022.2.5,59.5252268207156,
,2,9,7,9,5,0,11,,train_dim1_1,2,30,,,,2,0,2,0,,,,,,,,,0,0,0,0,0,1,1,1,1,0,1,0,,,,,,,,,,,,,,,,,,,,,,,,,,,,,,,,,,,,,,,,,,,,,,,,,,,,,,,,,,,,,,,,30,,,,,,,,1264.71930779994,1264.71930779994,1264.71930779994,1264.71930779994,1264.71930779994,down,1.0434920999687165,0,0,0,99,0,0.15999999999999998,down,0.9610761000076309,,,,,,,,,,,,,,,,,,,,,,,,,,,,,,,,,,,,,,,,,,,,,,,,,,,,,,,,,,,,46GULT,train_x,blue_star,top_left,2025-05-26_16h04.38.251,HideSeek_v1,2022.2.5,59.5252268207156,
,2,9,7,9,5,0,11,,train_dim1_1,2,30,,,,2,0,2,0,,,,,,,,,0,0,0,0,0,1,1,1,2,0,2,0,,,,,,,,,,,,,,,,,,,,,,,,,,,,,,,,,,,,,,,,,,,,,,,,,,,,,,,,,,,,,,,,30,,,,,,,,1265.768269399996,1265.768269399996,1265.768269399996,1265.768269399996,1265.768269399996,down,0.8940629999851808,0,0,0,99,0,0.07999999999999997,down,0.818191200029105,,,,,,,,,,,,,,,,,,,,,,,,,,,,,,,,,,,,,,,,,,,,,,,,,,,,,,,,,,,,46GULT,train_x,blue_star,top_left,2025-05-26_16h04.38.251,HideSeek_v1,2022.2.5,59.5252268207156,
,2,9,7,9,5,0,11,,train_dim1_1,2,30,,,,2,0,2,0,,,,,,,,,0,0,0,0,0,1,1,1,3,0,3,0,,,,,,,,,,,,,,,,,,,,,,,,,,,,,,,,,,,,,,,,,,,,,,,,,,,,,,,,,,,,,,,,30,,,,,,,,1266.6693504999857,1266.6693504999857,1266.6693504999857,1266.6693504999857,1266.6693504999857,down,0.6600810999516398,0,0,0,99,0,-2.7755575615628914e-17,down,0.5815968998940662,,,,,,,,,,,,,,,,,,,,,,,,,,,,,,,,,,,,,,,,,,,,,,,,,,,,,,,,,,,,46GULT,train_x,blue_star,top_left,2025-05-26_16h04.38.251,HideSeek_v1,2022.2.5,59.5252268207156,
,2,9,7,9,5,0,11,,train_dim1_1,2,30,,,,2,0,2,0,,,,,,,,,0,0,0,0,0,1,1,1,4,0,4,0,,,,,,,,,,,,,,,,,,,,,,,,,,,,,,,,,,,,,,,,,,,,,,,,,,,,,,,,,,,,,,,,30,,,,,,,,1267.3370284000412,1267.3370284000412,1267.3370284000412,1267.3370284000412,1267.3370284000412,return,1.0768605000339448,0,0,0,0,0,-2.7755575615628914e-17,return,0.9928482000250369,-6,-2,0,-2.7755575615628914e-17,,,,,,,,,,,,,,,,,,,,,,,,,,,,,,,,,,,,,,,,,,,,,,,,,,,,,,,,46GULT,train_x,blue_star,top_left,2025-05-26_16h04.38.251,HideSeek_v1,2022.2.5,59.5252268207156,
,4,9,8,9,4,0,21,,train_dim1_1,3,30,,,,2,0,2,0,,,,,,,,,0,0,0,0,0,2,2,2,0,0,0,0,,,,,,,,,,,,,,,,,,,,,,,,,stimuli/alien_stimuli/21.png,,,,,,,,,,,,,,,,,,,,,,,,,,,,,stimuli/alien_stimuli/11.png,11,2,4,,,,,,,30,,,,,,,,1277.3725258000195,1277.3725258000195,1277.3725258000195,1277.3725258000195,1277.3725258000195,left,7.0951927999267355,0,0,0,99,0.08,0.32,left,7.012197200092487,,,,,1275.8097599999746,1277.3725258000195,0.4,0.32,0.0,0.4,0.32,0.4,0.2,0.4,0.32,1269.9922307999805,1269.9922307999805,1269.9922307999805,1269.9922307999805,1269.9922307999805,1269.9922307999805,1269.9922307999805,1269.9922307999805,1269.9715281799317,5.9402789999730885,return,5.798456700053066,,,,,,,,,,,,,,,,,,,,,,,,,,,,,,,,,46GULT,train_x,blue_star,top_left,2025-05-26_16h04.38.251,HideSeek_v1,2022.2.5,59.5252268207156,
,4,9,8,9,4,0,21,,train_dim1_1,3,30,,,,2,0,2,0,,,,,,,,,0,0,0,0,0,2,2,2,1,0,1,0,,,,,,,,,,,,,,,,,,,,,,,,,,,,,,,,,,,,,,,,,,,,,,,,,,,,,,,,,,,,,,,,30,,,,,,,,1284.469095599954,1284.469095599954,1284.469095599954,1284.469095599954,1284.469095599954,left,0.6431398999411613,0,0,0,99,0.0,0.32,left,0.5583441000198945,,,,,,,,,,,,,,,,,,,,,,,,,,,,,,,,,,,,,,,,,,,,,,,,,,,,,,,,,,,,46GULT,train_x,blue_star,top_left,2025-05-26_16h04.38.251,HideSeek_v1,2022.2.5,59.5252268207156,
,4,9,8,9,4,0,21,,train_dim1_1,3,30,,,,2,0,2,0,,,,,,,,,0,0,0,0,0,2,2,2,2,0,2,0,,,,,,,,,,,,,,,,,,,,,,,,,,,,,,,,,,,,,,,,,,,,,,,,,,,,,,,,,,,,,,,,30,,,,,,,,1285.1186443000333,1285.1186443000333,1285.1186443000333,1285.1186443000333,1285.1186443000333,left,0.6767881000414491,0,0,0,99,-0.08,0.32,left,0.5951081999810413,,,,,,,,,,,,,,,,,,,,,,,,,,,,,,,,,,,,,,,,,,,,,,,,,,,,,,,,,,,,46GULT,train_x,blue_star,top_left,2025-05-26_16h04.38.251,HideSeek_v1,2022.2.5,59.5252268207156,
,4,9,8,9,4,0,21,,train_dim1_1,3,30,,,,2,0,2,0,,,,,,,,,0,0,0,0,0,2,2,2,3,0,3,0,,,,,,,,,,,,,,,,,,,,,,,,,,,,,,,,,,,,,,,,,,,,,,,,,,,,,,,,,,,,,,,,30,,,,,,,,1285.8018874999834,1285.8018874999834,1285.8018874999834,1285.8018874999834,1285.8018874999834,left,1.611100299982354,0,0,0,99,-0.16,0.32,left,1.5304929999401793,,,,,,,,,,,,,,,,,,,,,,,,,,,,,,,,,,,,,,,,,,,,,,,,,,,,,,,,,,,,46GULT,train_x,blue_star,top_left,2025-05-26_16h04.38.251,HideSeek_v1,2022.2.5,59.5252268207156,
,4,9,8,9,4,0,21,,train_dim1_1,3,30,,,,2,0,2,0,,,,,,,,,0,0,0,0,0,2,2,2,4,0,4,0,,,,,,,,,,,,,,,,,,,,,,,,,,,,,,,,,,,,,,,,,,,,,,,,,,,,,,,,,,,,,,,,30,,,,,,,,1287.4198952999432,1287.4198952999432,1287.4198952999432,1287.4198952999432,1287.4198952999432,return,1.0606391000328586,0,0,0,0,-0.16,0.32,return,0.9834222999634221,-6,-6,-0.16,0.32,,,,,,,,,,,,,,,,,,,,,,,,,,,,,,,,,,,,,,,,,,,,,,,,,,,,,,,,46GULT,train_x,blue_star,top_left,2025-05-26_16h04.38.251,HideSeek_v1,2022.2.5,59.5252268207156,
,2,8,3,8,1,0,51,,train_dim1_1,4,30,,,,2,0,2,0,,,,,,,,,0,0,0,0,0,3,3,3,0,0,0,0,,,,,,,,,,,,,,,,,,,,,,,,,stimuli/alien_stimuli/51.png,,,,,,,,,,,,,,,,,,,,,,,,,,,,,stimuli/alien_stimuli/21.png,21,4,5,,,,,,,30,,,,,,,,1297.8411915999604,1297.8411915999604,1297.8411915999604,1297.8411915999604,1297.8411915999604,right,3.554997800034471,0,0,0,99,0.08,0.24,right,3.468214699998498,,,,,1296.276611499954,1297.8411915999604,0.48,0.32,0.0,0.32,0.32,0.48,0.32,0.48,0.32,1290.0616848999634,1290.0616848999634,1290.0616848999634,1290.0616848999634,1290.0616848999634,1290.0616848999634,1290.0616848999634,1290.0616848999634,1290.0547480199718,6.340812099981122,return,6.184940899955109,,,,,,,,,,,,,,,,,,,,,,,,,,,,,,,,,46GULT,train_x,blue_star,top_left,2025-05-26_16h04.38.251,HideSeek_v1,2022.2.5,59.5252268207156,
,2,8,3,8,1,0,51,,train_dim1_1,4,30,,,,2,0,2,0,,,,,,,,,0,0,0,0,0,3,3,3,1,0,1,0,,,,,,,,,,,,,,,,,,,,,,,,,,,,,,,,,,,,,,,,,,,,,,,,,,,,,,,,,,,,,,,,30,,,,,,,,1301.396827599965,1301.396827599965,1301.396827599965,1301.396827599965,1301.396827599965,right,0.7433374000247568,0,0,0,99,0.16,0.24,right,0.6659573999932036,,,,,,,,,,,,,,,,,,,,,,,,,,,,,,,,,,,,,,,,,,,,,,,,,,,,,,,,,,,,46GULT,train_x,blue_star,top_left,2025-05-26_16h04.38.251,HideSeek_v1,2022.2.5,59.5252268207156,
,2,8,3,8,1,0,51,,train_dim1_1,4,30,,,,2,0,2,0,,,,,,,,,0,0,0,0,0,3,3,3,2,0,2,0,,,,,,,,,,,,,,,,,,,,,,,,,,,,,,,,,,,,,,,,,,,,,,,,,,,,,,,,,,,,,,,,30,,,,,,,,1302.14723709994,1302.14723709994,1302.14723709994,1302.14723709994,1302.14723709994,right,0.9106303000589833,0,0,0,99,0.24,0.24,right,0.8219287999672815,,,,,,,,,,,,,,,,,,,,,,,,,,,,,,,,,,,,,,,,,,,,,,,,,,,,,,,,,,,,46GULT,train_x,blue_star,top_left,2025-05-26_16h04.38.251,HideSeek_v1,2022.2.5,59.5252268207156,
,2,8,3,8,1,0,51,,train_dim1_1,4,30,,,,2,0,2,0,,,,,,,,,0,0,0,0,0,3,3,3,3,0,3,0,,,,,,,,,,,,,,,,,,,,,,,,,,,,,,,,,,,,,,,,,,,,,,,,,,,,,,,,,,,,,,,,30,,,,,,,,1303.0641102000372,1303.0641102000372,1303.0641102000372,1303.0641102000372,1303.0641102000372,right,0.6935748000396416,0,0,0,99,0.32,0.24,right,0.6171405999921262,,,,,,,,,,,,,,,,,,,,,,,,,,,,,,,,,,,,,,,,,,,,,,,,,,,,,,,,,,,,46GULT,train_x,blue_star,top_left,2025-05-26_16h04.38.251,HideSeek_v1,2022.2.5,59.5252268207156,
,2,8,3,8,1,0,51,,train_dim1_1,4,30,,,,2,0,2,0,,,,,,,,,0,0,0,0,0,3,3,3,4,0,4,0,,,,,,,,,,,,,,,,,,,,,,,,,,,,,,,,,,,,,,,,,,,,,,,,,,,,,,,,,,,,,,,,30,,,,,,,,1303.765519700013,1303.765519700013,1303.765519700013,1303.765519700013,1303.765519700013,right,0.5430957999778911,0,0,0,99,0.4,0.24,right,0.4681593000423163,,,,,,,,,,,,,,,,,,,,,,,,,,,,,,,,,,,,,,,,,,,,,,,,,,,,,,,,,,,,46GULT,train_x,blue_star,top_left,2025-05-26_16h04.38.251,HideSeek_v1,2022.2.5,59.5252268207156,
,2,8,3,8,1,0,51,,train_dim1_1,4,30,,,,2,0,2,0,,,,,,,,,0,0,0,0,0,3,3,3,5,0,5,0,,,,,,,,,,,,,,,,,,,,,,,,,,,,,,,,,,,,,,,,,,,,,,,,,,,,,,,,,,,,,,,,30,,,,,,,,1304.3152894999366,1304.3152894999366,1304.3152894999366,1304.3152894999366,1304.3152894999366,return,1.3441485000075772,0,0,0,0,0.4,0.24,return,1.254020499996841,-6,-1,0.4,0.24,,,,,,,,,,,,,,,,,,,,,,,,,,,,,,,,,,,,,,,,,,,,,,,,,,,,,,,,46GULT,train_x,blue_star,top_left,2025-05-26_16h04.38.251,HideSeek_v1,2022.2.5,59.5252268207156,
,0,7,0,7,0,0,61,,train_dim1_1,5,30,,,,2,0,2,0,,,,,,,,,0,0,0,0,0,4,4,4,0,0,0,0,,,,,,,,,,,,,,,,,,,,,,,,,stimuli/alien_stimuli/61.png,,,,,,,,,,,,,,,,,,,,,,,,,,,,,stimuli/alien_stimuli/51.png,51,2,6,,,,,,,30,,,,,,,,1313.0984058999456,1313.0984058999456,1313.0984058999456,1313.0984058999456,1313.0984058999456,right,5.993637100094929,0,0,0,99,-0.08,0.16,right,5.909529000055045,,,,,1311.5395751999458,1313.0984058999456,0.08,0.24,0.0,0.08,0.24,0.08,0.04,0.08,0.24,1307.242062699981,1307.242062699981,1307.242062699981,1307.242062699981,1307.242062699981,1307.242062699981,1307.242062699981,1307.242062699981,1307.2357242200057,4.42308940005023,return,4.2817520999815315,,,,,,,,,,,,,,,,,,,,,,,,,,,,,,,,,46GULT,train_x,blue_star,top_left,2025-05-26_16h04.38.251,HideSeek_v1,2022.2.5,59.5252268207156,
,0,7,0,7,0,0,61,,train_dim1_1,5,30,,,,2,0,2,0,,,,,,,,,0,0,0,0,0,4,4,4,1,0,1,0,,,,,,,,,,,,,,,,,,,,,,,,,,,,,,,,,,,,,,,,,,,,,,,,,,,,,,,,,,,,,,,,30,,,,,,,,1319.0944953999715,1319.0944953999715,1319.0944953999715,1319.0944953999715,1319.0944953999715,down,1.026688399957493,0,0,0,99,-0.08,0.08,down,0.9481564000016078,,,,,,,,,,,,,,,,,,,,,,,,,,,,,,,,,,,,,,,,,,,,,,,,,,,,,,,,,,,,46GULT,train_x,blue_star,top_left,2025-05-26_16h04.38.251,HideSeek_v1,2022.2.5,59.5252268207156,
,0,7,0,7,0,0,61,,train_dim1_1,5,30,,,,2,0,2,0,,,,,,,,,0,0,0,0,0,4,4,4,2,0,2,0,,,,,,,,,,,,,,,,,,,,,,,,,,,,,,,,,,,,,,,,,,,,,,,,,,,,,,,,,,,,,,,,30,,,,,,,,1320.1269994999748,1320.1269994999748,1320.1269994999748,1320.1269994999748,1320.1269994999748,right,2.24490509997122,0,0,0,99,0.0,0.08,right,2.1642457999987528,,,,,,,,,,,,,,,,,,,,,,,,,,,,,,,,,,,,,,,,,,,,,,,,,,,,,,,,,,,,46GULT,train_x,blue_star,top_left,2025-05-26_16h04.38.251,HideSeek_v1,2022.2.5,59.5252268207156,
,0,7,0,7,0,0,61,,train_dim1_1,5,30,,,,2,0,2,0,,,,,,,,,0,0,0,0,0,4,4,4,3,0,3,0,,,,,,,,,,,,,,,,,,,,,,,,,,,,,,,,,,,,,,,,,,,,,,,,,,,,,,,,,,,,,,,,30,,,,,,,,1322.379048999981,1322.379048999981,1322.379048999981,1322.379048999981,1322.379048999981,return,0.9772349999984726,0,0,0,0,0.0,0.08,return,0.8905434999614954,-7,1,0.0,0.08,,,,,,,,,,,,,,,,,,,,,,,,,,,,,,,,,,,,,,,,,,,,,,,,,,,,,,,,46GULT,train_x,blue_star,top_left,2025-05-26_16h04.38.251,HideSeek_v1,2022.2.5,59.5252268207156,
,0,5,4,5,4,0,21,,train_dim1_1,6,30,,,,2,0,2,0,,,,,,,,,0,0,0,0,0,5,5,5,0,0,0,0,,,,,,,,,,,,,,,,,,,,,,,,,stimuli/alien_stimuli/21.png,,,,,,,,,,,,,,,,,,,,,,,,,,,,,stimuli/alien_stimuli/61.png,61,0,7,,,,,,,30,,,,,,,,1331.8696962000104,1331.8696962000104,1331.8696962000104,1331.8696962000104,1331.8696962000104,right,3.756663199979812,0,0,0,99,-0.08,0,right,3.666493900003843,,,,,1330.305128899985,1331.8696962000104,-0.16,0.16,0.0,0.0,0.16,-0.16,-0.16,-0.16,0.16,1324.9335709000006,1324.9335709000006,1324.9335709000006,1324.9335709000006,1324.9335709000006,1324.9335709000006,1324.9335709000006,1324.9335709000006,1324.917193279939,5.490235400036909,return,5.35305050003808,,,,,,,,,,,,,,,,,,,,,,,,,,,,,,,,,46GULT,train_x,blue_star,top_left,2025-05-26_16h04.38.251,HideSeek_v1,2022.2.5,59.5252268207156,
,0,5,4,5,4,0,21,,train_dim1_1,6,30,,,,2,0,2,0,,,,,,,,,0,0,0,0,0,5,5,5,1,0,1,0,,,,,,,,,,,,,,,,,,,,,,,,,,,,,,,,,,,,,,,,,,,,,,,,,,,,,,,,,,,,,,,,30,,,,,,,,1335.6282762000337,1335.6282762000337,1335.6282762000337,1335.6282762000337,1335.6282762000337,right,0.5094652000116184,0,0,0,99,0.0,0,right,0.42263270006515086,,,,,,,,,,,,,,,,,,,,,,,,,,,,,,,,,,,,,,,,,,,,,,,,,,,,,,,,,,,,46GULT,train_x,blue_star,top_left,2025-05-26_16h04.38.251,HideSeek_v1,2022.2.5,59.5252268207156,
,0,5,4,5,4,0,21,,train_dim1_1,6,30,,,,2,0,2,0,,,,,,,,,0,0,0,0,0,5,5,5,2,0,2,0,,,,,,,,,,,,,,,,,,,,,,,,,,,,,,,,,,,,,,,,,,,,,,,,,,,,,,,,,,,,,,,,30,,,,,,,,1336.1438407000387,1336.1438407000387,1336.1438407000387,1336.1438407000387,1336.1438407000387,right,0.49347700004000217,0,0,0,99,0.08,0,right,0.4091566000133753,,,,,,,,,,,,,,,,,,,,,,,,,,,,,,,,,,,,,,,,,,,,,,,,,,,,,,,,,,,,46GULT,train_x,blue_star,top_left,2025-05-26_16h04.38.251,HideSeek_v1,2022.2.5,59.5252268207156,
,0,5,4,5,4,0,21,,train_dim1_1,6,30,,,,2,0,2,0,,,,,,,,,0,0,0,0,0,5,5,5,3,0,3,0,,,,,,,,,,,,,,,,,,,,,,,,,,,,,,,,,,,,,,,,,,,,,,,,,,,,,,,,,,,,,,,,30,,,,,,,,1336.6442717999453,1336.6442717999453,1336.6442717999453,1336.6442717999453,1336.6442717999453,right,0.47667700005695224,0,0,0,99,0.16,0,right,0.3870877999579534,,,,,,,,,,,,,,,,,,,,,,,,,,,,,,,,,,,,,,,,,,,,,,,,,,,,,,,,,,,,46GULT,train_x,blue_star,top_left,2025-05-26_16h04.38.251,HideSeek_v1,2022.2.5,59.5252268207156,
,0,5,4,5,4,0,21,,train_dim1_1,6,30,,,,2,0,2,0,,,,,,,,,0,0,0,0,0,5,5,5,4,0,4,0,,,,,,,,,,,,,,,,,,,,,,,,,,,,,,,,,,,,,,,,,,,,,,,,,,,,,,,,,,,,,,,,30,,,,,,,,1337.1296685000416,1337.1296685000416,1337.1296685000416,1337.1296685000416,1337.1296685000416,return,1.0937191999983042,1,0,0,1,0.16,0,return,1.0147356999805197,-7,5,0.16,0,,,,,,,,,,,,,,,,,,,,,,,,,,,,,,,,,,,,,,,,,,,,,,,,,,,,,,,,46GULT,train_x,blue_star,top_left,2025-05-26_16h04.38.251,HideSeek_v1,2022.2.5,59.5252268207156,
,3,5,3,5,0,0,61,,train_dim1_1,7,30,,,,2,0,2,0,,,,,,,,,0,0,0,0,0,6,6,6,0,0,0,0,,,,,,,,,,,,,,,,,,,,,,,,,stimuli/alien_stimuli/61.png,,,,,,,,,,,,,,,,,,,,,,,,,,,,,stimuli/alien_stimuli/21.png,21,0,8,,,,,,,30,,,,,,,,1348.1807817999506,1348.1807817999506,1348.1807817999506,1348.1807817999506,1348.1807817999506,return,1.8542621999513358,2,0,0,1,0.08,0,return,1.7615476000355557,-7,5,0.08,0,1346.618525799946,1348.1807817999506,0.16,0,0.0,0.32,0.0,0.16,0.0,0.16,0,1339.8032668000087,1339.8032668000087,1339.8032668000087,1339.8032668000087,1339.8032668000087,1339.8032668000087,1339.8032668000087,1339.8032668000087,1339.796245719958,6.941523000015877,return,6.799466100055724,,,,,,,,,,,,,,,,,,,,,,,,,,,,,,,,,46GULT,train_x,blue_star,top_left,2025-05-26_16h04.38.251,HideSeek_v1,2022.2.5,59.5252268207156,
,0,9,3,9,3,0,31,,train_dim1_1,8,30,,,,2,0,2,0,,,,,,,,,0,0,0,0,0,7,7,7,0,0,0,0,,,,,,,,,,,,,,,,,,,,,,,,,stimuli/alien_stimuli/31.png,,,,,,,,,,,,,,,,,,,,,,,,,,,,,stimuli/alien_stimuli/61.png,61,3,9,,,,,,,30,,,,,,,,1355.7024014999624,1355.7024014999624,1355.7024014999624,1355.7024014999624,1355.7024014999624,right,2.8564995999913663,2,0,0,99,-0.08,0.32,right,2.7716890000738204,,,,,1354.1414176999824,1355.7024014999624,0.08,0,0.0,0.0,0.0,0.08,0.08,0.08,0,1351.6058264999883,1351.6058264999883,1351.6058264999883,1351.6058264999883,1351.6058264999883,1351.6058264999883,1351.6058264999883,1351.6058264999883,1351.5893221800097,2.6542008001124486,return,2.504399299970828,,,,,,,,,,,,,,,,,,,,,,,,,,,,,,,,,46GULT,train_x,blue_star,top_left,2025-05-26_16h04.38.251,HideSeek_v1,2022.2.5,59.5252268207156,
,0,9,3,9,3,0,31,,train_dim1_1,8,30,,,,2,0,2,0,,,,,,,,,0,0,0,0,0,7,7,7,1,0,1,0,,,,,,,,,,,,,,,,,,,,,,,,,,,,,,,,,,,,,,,,,,,,,,,,,,,,,,,,,,,,,,,,30,,,,,,,,1358.558848100016,1358.558848100016,1358.558848100016,1358.558848100016,1358.558848100016,right,0.45956879993900657,2,0,0,99,0.0,0.32,right,0.3766310999635607,,,,,,,,,,,,,,,,,,,,,,,,,,,,,,,,,,,,,,,,,,,,,,,,,,,,,,,,,,,,46GULT,train_x,blue_star,top_left,2025-05-26_16h04.38.251,HideSeek_v1,2022.2.5,59.5252268207156,
,0,9,3,9,3,0,31,,train_dim1_1,8,30,,,,2,0,2,0,,,,,,,,,0,0,0,0,0,7,7,7,2,0,2,0,,,,,,,,,,,,,,,,,,,,,,,,,,,,,,,,,,,,,,,,,,,,,,,,,,,,,,,,,,,,,,,,30,,,,,,,,1359.0248994999565,1359.0248994999565,1359.0248994999565,1359.0248994999565,1359.0248994999565,right,0.47687620006036013,2,0,0,99,0.08,0.32,right,0.3995971000986174,,,,,,,,,,,,,,,,,,,,,,,,,,,,,,,,,,,,,,,,,,,,,,,,,,,,,,,,,,,,46GULT,train_x,blue_star,top_left,2025-05-26_16h04.38.251,HideSeek_v1,2022.2.5,59.5252268207156,
,0,9,3,9,3,0,31,,train_dim1_1,8,30,,,,2,0,2,0,,,,,,,,,0,0,0,0,0,7,7,7,3,0,3,0,,,,,,,,,,,,,,,,,,,,,,,,,,,,,,,,,,,,,,,,,,,,,,,,,,,,,,,,,,,,,,,,30,,,,,,,,1359.509048899985,1359.509048899985,1359.509048899985,1359.509048899985,1359.509048899985,right,2.945279899984598,2,0,0,99,0.16,0.32,right,2.8672657000133768,,,,,,,,,,,,,,,,,,,,,,,,,,,,,,,,,,,,,,,,,,,,,,,,,,,,,,,,,,,,46GULT,train_x,blue_star,top_left,2025-05-26_16h04.38.251,HideSeek_v1,2022.2.5,59.5252268207156,
,0,9,3,9,3,0,31,,train_dim1_1,8,30,,,,2,0,2,0,,,,,,,,,0,0,0,0,0,7,7,7,4,0,4,0,,,,,,,,,,,,,,,,,,,,,,,,,,,,,,,,,,,,,,,,,,,,,,,,,,,,,,,,,,,,,,,,30,,,,,,,,1362.4607418000232,1362.4607418000232,1362.4607418000232,1362.4607418000232,1362.4607418000232,right,0.6435822000494227,2,0,0,99,0.24,0.32,right,0.5662073999410495,,,,,,,,,,,,,,,,,,,,,,,,,,,,,,,,,,,,,,,,,,,,,,,,,,,,,,,,,,,,46GULT,train_x,blue_star,top_left,2025-05-26_16h04.38.251,HideSeek_v1,2022.2.5,59.5252268207156,
,0,9,3,9,3,0,31,,train_dim1_1,8,30,,,,2,0,2,0,,,,,,,,,0,0,0,0,0,7,7,7,5,0,5,0,,,,,,,,,,,,,,,,,,,,,,,,,,,,,,,,,,,,,,,,,,,,,,,,,,,,,,,,,,,,,,,,30,,,,,,,,1363.1123736000154,1363.1123736000154,1363.1123736000154,1363.1123736000154,1363.1123736000154,return,0.693554800003767,2,0,0,0,0.24,0.32,return,0.6120406000409275,-7,10,0.24,0.32,,,,,,,,,,,,,,,,,,,,,,,,,,,,,,,,,,,,,,,,,,,,,,,,,,,,,,,,46GULT,train_x,blue_star,top_left,2025-05-26_16h04.38.251,HideSeek_v1,2022.2.5,59.5252268207156,
,1,5,2,5,1,0,51,,train_dim1_1,9,30,,,,2,0,2,0,,,,,,,,,0,0,0,0,0,8,8,8,0,0,0,0,,,,,,,,,,,,,,,,,,,,,,,,,stimuli/alien_stimuli/51.png,,,,,,,,,,,,,,,,,,,,,,,,,,,,,stimuli/alien_stimuli/31.png,31,0,10,,,,,,,30,,,,,,,,1370.216354800039,1370.216354800039,1370.216354800039,1370.216354800039,1370.216354800039,right,4.707632499979809,2,0,0,99,0.0,0,right,4.620353099890053,,,,,1368.6534491999773,1370.216354800039,0.08,0.32,0.0,0.24,0.32,0.08,-0.04,0.08,0.32,1365.385016300017,1365.385016300017,1365.385016300017,1365.385016300017,1365.385016300017,1365.385016300017,1365.385016300017,1365.385016300017,1365.3673046799258,3.3883050000295043,return,3.2512207999825478,,,,,,,,,,,,,,,,,,,,,,,,,,,,,,,,,46GULT,train_x,blue_star,top_left,2025-05-26_16h04.38.251,HideSeek_v1,2022.2.5,59.5252268207156,
,1,5,2,5,1,0,51,,train_dim1_1,9,30,,,,2,0,2,0,,,,,,,,,0,0,0,0,0,8,8,8,1,0,1,0,,,,,,,,,,,,,,,,,,,,,,,,,,,,,,,,,,,,,,,,,,,,,,,,,,,,,,,,,,,,,,,,30,,,,,,,,1374.9250614999328,1374.9250614999328,1374.9250614999328,1374.9250614999328,1374.9250614999328,right,1.17683999997098,2,0,0,99,0.08,0,right,1.0910570999840274,,,,,,,,,,,,,,,,,,,,,,,,,,,,,,,,,,,,,,,,,,,,,,,,,,,,,,,,,,,,46GULT,train_x,blue_star,top_left,2025-05-26_16h04.38.251,HideSeek_v1,2022.2.5,59.5252268207156,
,1,5,2,5,1,0,51,,train_dim1_1,9,30,,,,2,0,2,0,,,,,,,,,0,0,0,0,0,8,8,8,2,0,2,0,,,,,,,,,,,,,,,,,,,,,,,,,,,,,,,,,,,,,,,,,,,,,,,,,,,,,,,,,,,,,,,,30,,,,,,,,1376.1087648000102,1376.1087648000102,1376.1087648000102,1376.1087648000102,1376.1087648000102,right,1.0773024000227451,2,0,0,99,0.16,0,right,0.9894770999671891,,,,,,,,,,,,,,,,,,,,,,,,,,,,,,,,,,,,,,,,,,,,,,,,,,,,,,,,,,,,46GULT,train_x,blue_star,top_left,2025-05-26_16h04.38.251,HideSeek_v1,2022.2.5,59.5252268207156,
,1,5,2,5,1,0,51,,train_dim1_1,9,30,,,,2,0,2,0,,,,,,,,,0,0,0,0,0,8,8,8,3,0,3,0,,,,,,,,,,,,,,,,,,,,,,,,,,,,,,,,,,,,,,,,,,,,,,,,,,,,,,,,,,,,,,,,30,,,,,,,,1377.1923977000406,1377.1923977000406,1377.1923977000406,1377.1923977000406,1377.1923977000406,right,2.2114440000150353,2,0,0,99,0.24,0,right,2.129887100076303,,,,,,,,,,,,,,,,,,,,,,,,,,,,,,,,,,,,,,,,,,,,,,,,,,,,,,,,,,,,46GULT,train_x,blue_star,top_left,2025-05-26_16h04.38.251,HideSeek_v1,2022.2.5,59.5252268207156,
,1,5,2,5,1,0,51,,train_dim1_1,9,30,,,,2,0,2,0,,,,,,,,,0,0,0,0,0,8,8,8,4,0,4,0,,,,,,,,,,,,,,,,,,,,,,,,,,,,,,,,,,,,,,,,,,,,,,,,,,,,,,,,,,,,,,,,30,,,,,,,,1379.410904099932,1379.410904099932,1379.410904099932,1379.410904099932,1379.410904099932,return,1.0440772000001743,2,0,0,0,0.24,0,return,0.9687768999719992,-7,14,0.24,0,,,,,,,,,,,,,,,,,,,,,,,,,,,,,,,,,,,,,,,,,,,,,,,,,,,,,,,,46GULT,train_x,blue_star,top_left,2025-05-26_16h04.38.251,HideSeek_v1,2022.2.5,59.5252268207156,
,0,8,5,8,5,0,11,,train_dim1_1,10,30,,,,2,0,2,0,,,,,,,,,0,0,0,0,0,9,9,9,0,0,0,0,,,,,,,,,,,,,,,,,,,,,,,,,stimuli/alien_stimuli/11.png,,,,,,,,,,,,,,,,,,,,,,,,,,,,,stimuli/alien_stimuli/51.png,51,1,11,,,,,,,30,,,,,,,,1386.7330629000207,1386.7330629000207,1386.7330629000207,1386.7330629000207,1386.7330629000207,right,2.804519400000572,2,0,0,99,-0.08,0.24,right,2.7066662999568507,,,,,1385.167092400021,1386.7330629000207,0,0,0.0,0.08,0.0,0,-0.04,0,0,1382.0314363000216,1382.0314363000216,1382.0314363000216,1382.0314363000216,1382.0314363000216,1382.0314363000216,1382.0314363000216,1382.0314363000216,1382.0144397800204,3.255186600028537,return,3.1179871999192983,,,,,,,,,,,,,,,,,,,,,,,,,,,,,,,,,46GULT,train_x,blue_star,top_left,2025-05-26_16h04.38.251,HideSeek_v1,2022.2.5,59.5252268207156,
,0,8,5,8,5,0,11,,train_dim1_1,10,30,,,,2,0,2,0,,,,,,,,,0,0,0,0,0,9,9,9,1,0,1,0,,,,,,,,,,,,,,,,,,,,,,,,,,,,,,,,,,,,,,,,,,,,,,,,,,,,,,,,,,,,,,,,30,,,,,,,,1389.538570099976,1389.538570099976,1389.538570099976,1389.538570099976,1389.538570099976,right,0.47642359999008477,2,0,0,99,0.0,0.24,right,0.3894423000747338,,,,,,,,,,,,,,,,,,,,,,,,,,,,,,,,,,,,,,,,,,,,,,,,,,,,,,,,,,,,46GULT,train_x,blue_star,top_left,2025-05-26_16h04.38.251,HideSeek_v1,2022.2.5,59.5252268207156,
,0,8,5,8,5,0,11,,train_dim1_1,10,30,,,,2,0,2,0,,,,,,,,,0,0,0,0,0,9,9,9,2,0,2,0,,,,,,,,,,,,,,,,,,,,,,,,,,,,,,,,,,,,,,,,,,,,,,,,,,,,,,,,,,,,,,,,30,,,,,,,,1390.021374700009,1390.021374700009,1390.021374700009,1390.021374700009,1390.021374700009,right,0.47721589996945113,2,0,0,99,0.08,0.24,right,0.38602049998007715,,,,,,,,,,,,,,,,,,,,,,,,,,,,,,,,,,,,,,,,,,,,,,,,,,,,,,,,,,,,46GULT,train_x,blue_star,top_left,2025-05-26_16h04.38.251,HideSeek_v1,2022.2.5,59.5252268207156,
,0,8,5,8,5,0,11,,train_dim1_1,10,30,,,,2,0,2,0,,,,,,,,,0,0,0,0,0,9,9,9,3,0,3,0,,,,,,,,,,,,,,,,,,,,,,,,,,,,,,,,,,,,,,,,,,,,,,,,,,,,,,,,,,,,,,,,30,,,,,,,,1390.5063253999688,1390.5063253999688,1390.5063253999688,1390.5063253999688,1390.5063253999688,right,0.49255980004090816,2,0,0,99,0.16,0.24,right,0.40308980003464967,,,,,,,,,,,,,,,,,,,,,,,,,,,,,,,,,,,,,,,,,,,,,,,,,,,,,,,,,,,,46GULT,train_x,blue_star,top_left,2025-05-26_16h04.38.251,HideSeek_v1,2022.2.5,59.5252268207156,
,0,8,5,8,5,0,11,,train_dim1_1,10,30,,,,2,0,2,0,,,,,,,,,0,0,0,0,0,9,9,9,4,0,4,0,,,,,,,,,,,,,,,,,,,,,,,,,,,,,,,,,,,,,,,,,,,,,,,,,,,,,,,,,,,,,,,,30,,,,,,,,1391.005666699959,1391.005666699959,1391.005666699959,1391.005666699959,1391.005666699959,right,0.5935847999062389,2,0,0,99,0.24,0.24,right,0.5044754999689758,,,,,,,,,,,,,,,,,,,,,,,,,,,,,,,,,,,,,,,,,,,,,,,,,,,,,,,,,,,,46GULT,train_x,blue_star,top_left,2025-05-26_16h04.38.251,HideSeek_v1,2022.2.5,59.5252268207156,
,0,8,5,8,5,0,11,,train_dim1_1,10,30,,,,2,0,2,0,,,,,,,,,0,0,0,0,0,9,9,9,5,0,5,0,,,,,,,,,,,,,,,,,,,,,,,,,,,,,,,,,,,,,,,,,,,,,,,,,,,,,,,,,,,,,,,,30,,,,,,,,1391.609346400015,1391.609346400015,1391.609346400015,1391.609346400015,1391.609346400015,return,2.6435553999617696,3,0,0,1,0.24,0.24,return,2.560856599942781,-7,19,0.24,0.24,,,,,,,,,,,,,,,,,,,,,,,,,,,,,,,,,,,,,,,,,,,,,,,,,,,,,,,,46GULT,train_x,blue_star,top_left,2025-05-26_16h04.38.251,HideSeek_v1,2022.2.5,59.5252268207156,
,2,7,5,7,3,0,31,,train_dim1_1,11,30,,,,2,0,2,0,,,,,,,,,0,0,0,0,0,10,10,10,0,0,0,0,,,,,,,,,,,,,,,,,,,,,,,,,stimuli/alien_stimuli/31.png,,,,,,,,,,,,,,,,,,,,,,,,,,,,,stimuli/alien_stimuli/11.png,11,0,12,,,,,,,30,,,,,,,,1399.2634247000096,1399.2634247000096,1399.2634247000096,1399.2634247000096,1399.2634247000096,right,4.575565499952063,3,0,0,99,0.08,0.16,right,4.472595099941827,,,,,1397.6943113999441,1399.2634247000096,0.24,0.24,0.0,0.4,0.24,0.24,0.039999999999999994,0.24,0.24,1395.838910499937,1395.838910499937,1395.838910499937,1395.838910499937,1395.838910499937,1395.838910499937,1395.838910499937,1395.838910499937,1395.8260499200085,1.986960000009276,return,1.8381611000513658,,,,,,,,,,,,,,,,,,,,,,,,,,,,,,,,,46GULT,train_x,blue_star,top_left,2025-05-26_16h04.38.251,HideSeek_v1,2022.2.5,59.5252268207156,
,2,7,5,7,3,0,31,,train_dim1_1,11,30,,,,2,0,2,0,,,,,,,,,0,0,0,0,0,10,10,10,1,0,1,0,,,,,,,,,,,,,,,,,,,,,,,,,,,,,,,,,,,,,,,,,,,,,,,,,,,,,,,,,,,,,,,,30,,,,,,,,1403.8306425999617,1403.8306425999617,1403.8306425999617,1403.8306425999617,1403.8306425999617,right,0.643199700047262,3,0,0,99,0.16,0.16,right,0.5557129000080749,,,,,,,,,,,,,,,,,,,,,,,,,,,,,,,,,,,,,,,,,,,,,,,,,,,,,,,,,,,,46GULT,train_x,blue_star,top_left,2025-05-26_16h04.38.251,HideSeek_v1,2022.2.5,59.5252268207156,
,2,7,5,7,3,0,31,,train_dim1_1,11,30,,,,2,0,2,0,,,,,,,,,0,0,0,0,0,10,10,10,2,0,2,0,,,,,,,,,,,,,,,,,,,,,,,,,,,,,,,,,,,,,,,,,,,,,,,,,,,,,,,,,,,,,,,,30,,,,,,,,1404.4794469999615,1404.4794469999615,1404.4794469999615,1404.4794469999615,1404.4794469999615,right,0.5602077000075951,3,0,0,99,0.24,0.16,right,0.48246490000747144,,,,,,,,,,,,,,,,,,,,,,,,,,,,,,,,,,,,,,,,,,,,,,,,,,,,,,,,,,,,46GULT,train_x,blue_star,top_left,2025-05-26_16h04.38.251,HideSeek_v1,2022.2.5,59.5252268207156,
,2,7,5,7,3,0,31,,train_dim1_1,11,30,,,,2,0,2,0,,,,,,,,,0,0,0,0,0,10,10,10,3,0,3,0,,,,,,,,,,,,,,,,,,,,,,,,,,,,,,,,,,,,,,,,,,,,,,,,,,,,,,,,,,,,,,,,30,,,,,,,,1405.047027499997,1405.047027499997,1405.047027499997,1405.047027499997,1405.047027499997,return,0.8604457000037655,4,0,0,1,0.24,0.16,return,0.7869949999731034,-7,22,0.24,0.16,,,,,,,,,,,,,,,,,,,,,,,,,,,,,,,,,,,,,,,,,,,,,,,,,,,,,,,,46GULT,train_x,blue_star,top_left,2025-05-26_16h04.38.251,HideSeek_v1,2022.2.5,59.5252268207156,
,0,5,4,5,4,0,21,,train_dim1_1,12,30,,,,2,0,2,0,,,,,,,,,0,0,0,0,0,11,11,11,0,0,0,0,,,,,,,,,,,,,,,,,,,,,,,,,stimuli/alien_stimuli/21.png,,,,,,,,,,,,,,,,,,,,,,,,,,,,,stimuli/alien_stimuli/31.png,31,2,13,,,,,,,30,,,,,,,,1411.333929299959,1411.333929299959,1411.333929299959,1411.333929299959,1411.333929299959,right,4.439770599943586,4,0,0,99,-0.08,0,right,4.328109099995345,,,,,1409.7540767999599,1411.333929299959,0.24,0.16,0.0,0.24,0.16,0.24,0.12,0.24,0.16,1407.4716134000337,1407.4716134000337,1407.4716134000337,1407.4716134000337,1407.4716134000337,1407.4716134000337,1407.4716134000337,1407.4716134000337,1407.4521399400196,2.387559200054966,return,2.2609235999407247,,,,,,,,,,,,,,,,,,,,,,,,,,,,,,,,,46GULT,train_x,blue_star,top_left,2025-05-26_16h04.38.251,HideSeek_v1,2022.2.5,59.5252268207156,
,0,5,4,5,4,0,21,,train_dim1_1,12,30,,,,2,0,2,0,,,,,,,,,0,0,0,0,0,11,11,11,1,0,1,0,,,,,,,,,,,,,,,,,,,,,,,,,,,,,,,,,,,,,,,,,,,,,,,,,,,,,,,,,,,,,,,,30,,,,,,,,1415.760411700001,1415.760411700001,1415.760411700001,1415.760411700001,1415.760411700001,right,0.5263744000112638,4,0,0,99,0.0,0,right,0.43414160003885627,,,,,,,,,,,,,,,,,,,,,,,,,,,,,,,,,,,,,,,,,,,,,,,,,,,,,,,,,,,,46GULT,train_x,blue_star,top_left,2025-05-26_16h04.38.251,HideSeek_v1,2022.2.5,59.5252268207156,
,0,5,4,5,4,0,21,,train_dim1_1,12,30,,,,2,0,2,0,,,,,,,,,0,0,0,0,0,11,11,11,2,0,2,0,,,,,,,,,,,,,,,,,,,,,,,,,,,,,,,,,,,,,,,,,,,,,,,,,,,,,,,,,,,,,,,,30,,,,,,,,1416.292617799947,1416.292617799947,1416.292617799947,1416.292617799947,1416.292617799947,right,0.5268030000152066,4,0,0,99,0.08,0,right,0.44631570007186383,,,,,,,,,,,,,,,,,,,,,,,,,,,,,,,,,,,,,,,,,,,,,,,,,,,,,,,,,,,,46GULT,train_x,blue_star,top_left,2025-05-26_16h04.38.251,HideSeek_v1,2022.2.5,59.5252268207156,
,0,5,4,5,4,0,21,,train_dim1_1,12,30,,,,2,0,2,0,,,,,,,,,0,0,0,0,0,11,11,11,3,0,3,0,,,,,,,,,,,,,,,,,,,,,,,,,,,,,,,,,,,,,,,,,,,,,,,,,,,,,,,,,,,,,,,,30,,,,,,,,1416.8272975999862,1416.8272975999862,1416.8272975999862,1416.8272975999862,1416.8272975999862,right,0.5436843000352383,4,0,0,99,0.16,0,right,0.462228300049901,,,,,,,,,,,,,,,,,,,,,,,,,,,,,,,,,,,,,,,,,,,,,,,,,,,,,,,,,,,,46GULT,train_x,blue_star,top_left,2025-05-26_16h04.38.251,HideSeek_v1,2022.2.5,59.5252268207156,
,0,5,4,5,4,0,21,,train_dim1_1,12,30,,,,2,0,2,0,,,,,,,,,0,0,0,0,0,11,11,11,4,0,4,0,,,,,,,,,,,,,,,,,,,,,,,,,,,,,,,,,,,,,,,,,,,,,,,,,,,,,,,,,,,,,,,,30,,,,,,,,1417.377648600028,1417.377648600028,1417.377648600028,1417.377648600028,1417.377648600028,return,0.6601916999788955,5,0,0,1,0.16,0,return,0.5804811000125483,-7,26,0.16,0,,,,,,,,,,,,,,,,,,,,,,,,,,,,,,,,,,,,,,,,,,,,,,,,,,,,,,,,46GULT,train_x,blue_star,top_left,2025-05-26_16h04.38.251,HideSeek_v1,2022.2.5,59.5252268207156,
,0,9,1,9,1,0,51,,train_dim1_1,13,30,,,,2,0,2,0,,,,,,,,,0,0,0,0,0,12,12,12,0,0,0,0,,,,,,,,,,,,,,,,,,,,,,,,,stimuli/alien_stimuli/51.png,,,,,,,,,,,,,,,,,,,,,,,,,,,,,stimuli/alien_stimuli/21.png,21,0,14,,,,,,,30,,,,,,,,1422.9997693999903,1422.9997693999903,1422.9997693999903,1422.9997693999903,1422.9997693999903,right,3.0566427999874577,5,0,0,99,-0.08,0.32,right,2.967359700007364,,,,,1421.430523399962,1422.9997693999903,0.16,0,0.0,0.32,0.0,0.16,0.0,0.16,0,1419.6264168999624,1419.6264168999624,1419.6264168999624,1419.6264168999624,1419.6264168999624,1419.6264168999624,1419.6264168999624,1419.6264168999624,1419.6123165199067,1.936953300028108,return,1.7802446000277996,,,,,,,,,,,,,,,,,,,,,,,,,,,,,,,,,46GULT,train_x,blue_star,top_left,2025-05-26_16h04.38.251,HideSeek_v1,2022.2.5,59.5252268207156,
,0,9,1,9,1,0,51,,train_dim1_1,13,30,,,,2,0,2,0,,,,,,,,,0,0,0,0,0,12,12,12,1,0,1,0,,,,,,,,,,,,,,,,,,,,,,,,,,,,,,,,,,,,,,,,,,,,,,,,,,,,,,,,,,,,,,,,30,,,,,,,,1426.05249989999,1426.05249989999,1426.05249989999,1426.05249989999,1426.05249989999,return,0.6745495999930426,6,0,0,1,-0.08,0.32,return,0.5986650000559166,-7,27,-0.08,0.32,,,,,,,,,,,,,,,,,,,,,,,,,,,,,,,,,,,,,,,,,,,,,,,,,,,,,,,,46GULT,train_x,blue_star,top_left,2025-05-26_16h04.38.251,HideSeek_v1,2022.2.5,59.5252268207156,
,4,8,9,8,5,0,11,,train_dim1_1,14,30,,,,2,0,2,0,,,,,,,,,0,0,0,0,0,13,13,13,0,0,0,0,,,,,,,,,,,,,,,,,,,,,,,,,stimuli/alien_stimuli/11.png,,,,,,,,,,,,,,,,,,,,,,,,,,,,,stimuli/alien_stimuli/51.png,51,0,15,,,,,,,30,,,,,,,,1431.5621156999841,1431.5621156999841,1431.5621156999841,1431.5621156999841,1431.5621156999841,right,1.9406185999978334,6,0,0,99,0.24,0.24,right,1.84493019990623,,,,,1429.975511400029,1428.2938913999824,-0.08,0.32,0.0,0.08,0.32,-0.08,-0.12,-0.08,0.32,1428.2938913999824,1428.2938913999824,1428.2938913999824,1428.2938913999824,1428.2938913999824,1428.2938913999824,1428.2938913999824,1428.2938913999824,1428.2863048799218,1.7923538000322878,return,1.6654869000194594,,,,,,,,,,,,,,,,,,,,,,,,,,,,,,,,,46GULT,train_x,blue_star,top_left,2025-05-26_16h04.38.251,HideSeek_v1,2022.2.5,59.5252268207156,
,4,8,9,8,5,0,11,,train_dim1_1,14,30,,,,2,0,2,0,,,,,,,,,0,0,0,0,0,13,13,13,1,0,1,0,,,,,,,,,,,,,,,,,,,,,,,,,,,,,,,,,,,,,,,,,,,,,,,,,,,,,,,,,,,,,,,,30,,,,,,,,1433.4919474000344,1433.4919474000344,1433.4919474000344,1433.4919474000344,1433.4919474000344,right,0.4929800999816507,6,0,0,99,0.32,0.24,right,0.4041934999404475,,,,,,,,,,,,,,,,,,,,,,,,,,,,,,,,,,,,,,,,,,,,,,,,,,,,,,,,,,,,46GULT,train_x,blue_star,top_left,2025-05-26_16h04.38.251,HideSeek_v1,2022.2.5,59.5252268207156,
,4,8,9,8,5,0,11,,train_dim1_1,14,30,,,,2,0,2,0,,,,,,,,,0,0,0,0,0,13,13,13,2,0,2,0,,,,,,,,,,,,,,,,,,,,,,,,,,,,,,,,,,,,,,,,,,,,,,,,,,,,,,,,,,,,,,,,30,,,,,,,,1433.9917419999838,1433.9917419999838,1433.9917419999838,1433.9917419999838,1433.9917419999838,right,0.4934187000617385,6,0,0,99,0.4,0.24,right,0.41186360002029687,,,,,,,,,,,,,,,,,,,,,,,,,,,,,,,,,,,,,,,,,,,,,,,,,,,,,,,,,,,,46GULT,train_x,blue_star,top_left,2025-05-26_16h04.38.251,HideSeek_v1,2022.2.5,59.5252268207156,
,4,8,9,8,5,0,11,,train_dim1_1,14,30,,,,2,0,2,0,,,,,,,,,0,0,0,0,0,13,13,13,3,0,3,0,,,,,,,,,,,,,,,,,,,,,,,,,,,,,,,,,,,,,,,,,,,,,,,,,,,,,,,,,,,,,,,,30,,,,,,,,1434.4915526999393,1434.4915526999393,1434.4915526999393,1434.4915526999393,1434.4915526999393,right,0.5099049001000822,6,0,0,99,0.48000000000000004,0.24,right,0.4228422000305727,,,,,,,,,,,,,,,,,,,,,,,,,,,,,,,,,,,,,,,,,,,,,,,,,,,,,,,,,,,,46GULT,train_x,blue_star,top_left,2025-05-26_16h04.38.251,HideSeek_v1,2022.2.5,59.5252268207156,
,4,8,9,8,5,0,11,,train_dim1_1,14,30,,,,2,0,2,0,,,,,,,,,0,0,0,0,0,13,13,13,4,0,4,0,,,,,,,,,,,,,,,,,,,,,,,,,,,,,,,,,,,,,,,,,,,,,,,,,,,,,,,,,,,,,,,,30,,,,,,,,1435.009664800018,1435.009664800018,1435.009664800018,1435.009664800018,1435.009664800018,right,1.6610118999378756,6,0,0,99,0.56,0.24,right,1.5800416000420228,,,,,,,,,,,,,,,,,,,,,,,,,,,,,,,,,,,,,,,,,,,,,,,,,,,,,,,,,,,,46GULT,train_x,blue_star,top_left,2025-05-26_16h04.38.251,HideSeek_v1,2022.2.5,59.5252268207156,
,4,8,9,8,5,0,11,,train_dim1_1,14,30,,,,2,0,2,0,,,,,,,,,0,0,0,0,0,13,13,13,5,0,5,0,,,,,,,,,,,,,,,,,,,,,,,,,,,,,,,,,,,,,,,,,,,,,,,,,,,,,,,,,,,,,,,,30,,,,,,,,1436.677284299978,1436.677284299978,1436.677284299978,1436.677284299978,1436.677284299978,return,0.8103924000170082,7,0,0,1,0.56,0.24,return,0.732865700032562,-7,32,0.56,0.24,,,,,,,,,,,,,,,,,,,,,,,,,,,,,,,,,,,,,,,,,,,,,,,,,,,,,,,,46GULT,train_x,blue_star,top_left,2025-05-26_16h04.38.251,HideSeek_v1,2022.2.5,59.5252268207156,
,4,7,4,7,0,0,61,,train_dim1_1,15,30,,,,2,0,2,0,,,,,,,,,0,0,0,0,0,14,14,14,0,0,0,0,,,,,,,,,,,,,,,,,,,,,,,,,stimuli/alien_stimuli/61.png,,,,,,,,,,,,,,,,,,,,,,,,,,,,,stimuli/alien_stimuli/11.png,11,4,16,,,,,,,30,,,,,,,,1442.871367799933,1442.871367799933,1442.871367799933,1442.871367799933,1442.871367799933,return,2.021666600019671,8,0,0,1,0.16,0.16,return,1.9257064000703394,-7,32,0.16,0.16,1441.2969212000025,1442.871367799933,0.56,0.24,0.0,0.4,0.24,0.56,0.36000000000000004,0.56,0.24,1439.075068700011,1439.075068700011,1439.075068700011,1439.075068700011,1439.075068700011,1439.075068700011,1439.075068700011,1439.075068700011,1439.0618231199448,2.353939999942668,return,2.1984168000053614,,,,,,,,,,,,,,,,,,,,,,,,,,,,,,,,,46GULT,train_x,blue_star,top_left,2025-05-26_16h04.38.251,HideSeek_v1,2022.2.5,59.5252268207156,
,3,8,4,8,1,0,51,,train_dim1_1,16,30,,,,2,0,2,0,,,,,,,,,0,0,0,0,0,15,15,15,0,0,0,0,,,,,,,,,,,,,,,,,,,,,,,,,stimuli/alien_stimuli/51.png,,,,,,,,,,,,,,,,,,,,,,,,,,,,,stimuli/alien_stimuli/61.png,61,4,17,,,,,,,30,,,,,,,,1449.7786526000127,1449.7786526000127,1449.7786526000127,1449.7786526000127,1449.7786526000127,right,4.991014500032179,8,0,0,99,0.16,0.24,right,4.895493399933912,,,,,1448.2027857999783,1449.7786526000127,0.16,0.16,0.0,0.0,0.16,0.16,0.16,0.16,0.16,1446.433668200043,1446.433668200043,1446.433668200043,1446.433668200043,1446.433668200043,1446.433668200043,1446.433668200043,1446.433668200043,1446.4177067399955,1.8707910999655724,return,1.7521565000060946,,,,,,,,,,,,,,,,,,,,,,,,,,,,,,,,,46GULT,train_x,blue_star,top_left,2025-05-26_16h04.38.251,HideSeek_v1,2022.2.5,59.5252268207156,
,3,8,4,8,1,0,51,,train_dim1_1,16,30,,,,2,0,2,0,,,,,,,,,0,0,0,0,0,15,15,15,1,0,1,0,,,,,,,,,,,,,,,,,,,,,,,,,,,,,,,,,,,,,,,,,,,,,,,,,,,,,,,,,,,,,,,,30,,,,,,,,1454.758612100035,1454.758612100035,1454.758612100035,1454.758612100035,1454.758612100035,right,2.6615578000200912,8,0,0,99,0.24,0.24,right,2.572747500031255,,,,,,,,,,,,,,,,,,,,,,,,,,,,,,,,,,,,,,,,,,,,,,,,,,,,,,,,,,,,46GULT,train_x,blue_star,top_left,2025-05-26_16h04.38.251,HideSeek_v1,2022.2.5,59.5252268207156,
,3,8,4,8,1,0,51,,train_dim1_1,16,30,,,,2,0,2,0,,,,,,,,,0,0,0,0,0,15,15,15,2,0,2,0,,,,,,,,,,,,,,,,,,,,,,,,,,,,,,,,,,,,,,,,,,,,,,,,,,,,,,,,,,,,,,,,30,,,,,,,,1457.4252090000082,1457.4252090000082,1457.4252090000082,1457.4252090000082,1457.4252090000082,return,0.6437512999400496,8,1,0,0,0.24,0.24,return,0.5587673999834806,-7,34,0.24,0.24,,,,,,,,,,,,,,,,,,,,,,,,,,,,,,,,,,,,,,,,,,,,,,,,,,,,,,,,46GULT,train_x,blue_star,top_left,2025-05-26_16h04.38.251,HideSeek_v1,2022.2.5,59.5252268207156,
,2,9,6,9,4,0,21,,train_dim1_1,17,30,,,,2,0,2,0,,,,,,,,,0,0,0,0,0,16,16,16,0,0,0,0,,,,,,,,,,,,,,,,,,,,,,,,,stimuli/alien_stimuli/21.png,,,,,,,,,,,,,,,,,,,,,,,,,,,,,stimuli/alien_stimuli/51.png,51,3,18,,,,,,,30,,,,,,,,1464.97834469995,1464.97834469995,1464.97834469995,1464.97834469995,1464.97834469995,right,5.827321799937636,8,1,0,99,0.08,0.32,right,5.727604000014253,,,,,1463.4154068999924,1464.97834469995,0.16,0.24,0.0,0.08,0.24,0.16,0.12,0.16,0.24,1459.6467495999532,1459.6467495999532,1459.6467495999532,1459.6467495999532,1459.6467495999532,1459.6467495999532,1459.6467495999532,1459.6467495999532,1459.6289090799282,3.8888644999824464,return,3.7406272999942303,,,,,,,,,,,,,,,,,,,,,,,,,,,,,,,,,46GULT,train_x,blue_star,top_left,2025-05-26_16h04.38.251,HideSeek_v1,2022.2.5,59.5252268207156,
,2,9,6,9,4,0,21,,train_dim1_1,17,30,,,,2,0,2,0,,,,,,,,,0,0,0,0,0,16,16,16,1,0,1,0,,,,,,,,,,,,,,,,,,,,,,,,,,,,,,,,,,,,,,,,,,,,,,,,,,,,,,,,,,,,,,,,30,,,,,,,,1470.8093943999847,1470.8093943999847,1470.8093943999847,1470.8093943999847,1470.8093943999847,right,0.6755771999014542,8,1,0,99,0.16,0.32,right,0.5865753999678418,,,,,,,,,,,,,,,,,,,,,,,,,,,,,,,,,,,,,,,,,,,,,,,,,,,,,,,,,,,,46GULT,train_x,blue_star,top_left,2025-05-26_16h04.38.251,HideSeek_v1,2022.2.5,59.5252268207156,
,2,9,6,9,4,0,21,,train_dim1_1,17,30,,,,2,0,2,0,,,,,,,,,0,0,0,0,0,16,16,16,2,0,2,0,,,,,,,,,,,,,,,,,,,,,,,,,,,,,,,,,,,,,,,,,,,,,,,,,,,,,,,,,,,,,,,,30,,,,,,,,1471.489809499937,1471.489809499937,1471.489809499937,1471.489809499937,1471.489809499937,right,0.6107377000153065,8,1,0,99,0.24,0.32,right,0.5223393000196666,,,,,,,,,,,,,,,,,,,,,,,,,,,,,,,,,,,,,,,,,,,,,,,,,,,,,,,,,,,,46GULT,train_x,blue_star,top_left,2025-05-26_16h04.38.251,HideSeek_v1,2022.2.5,59.5252268207156,
,2,9,6,9,4,0,21,,train_dim1_1,17,30,,,,2,0,2,0,,,,,,,,,0,0,0,0,0,16,16,16,3,0,3,0,,,,,,,,,,,,,,,,,,,,,,,,,,,,,,,,,,,,,,,,,,,,,,,,,,,,,,,,,,,,,,,,30,,,,,,,,1472.1076868999517,1472.1076868999517,1472.1076868999517,1472.1076868999517,1472.1076868999517,right,0.6251366999931633,8,1,0,99,0.32,0.32,right,0.5392985000507906,,,,,,,,,,,,,,,,,,,,,,,,,,,,,,,,,,,,,,,,,,,,,,,,,,,,,,,,,,,,46GULT,train_x,blue_star,top_left,2025-05-26_16h04.38.251,HideSeek_v1,2022.2.5,59.5252268207156,
,2,9,6,9,4,0,21,,train_dim1_1,17,30,,,,2,0,2,0,,,,,,,,,0,0,0,0,0,16,16,16,4,0,4,0,,,,,,,,,,,,,,,,,,,,,,,,,,,,,,,,,,,,,,,,,,,,,,,,,,,,,,,,,,,,,,,,30,,,,,,,,1472.7410016999347,1472.7410016999347,1472.7410016999347,1472.7410016999347,1472.7410016999347,return,0.6772087999852374,9,0,0,1,0.32,0.32,return,0.5901227999711409,-7,38,0.32,0.32,,,,,,,,,,,,,,,,,,,,,,,,,,,,,,,,,,,,,,,,,,,,,,,,,,,,,,,,46GULT,train_x,blue_star,top_left,2025-05-26_16h04.38.251,HideSeek_v1,2022.2.5,59.5252268207156,
,2,6,2,6,0,0,61,,train_dim1_1,18,30,,,,2,0,2,0,,,,,,,,,0,0,0,0,0,17,17,17,0,0,0,0,,,,,,,,,,,,,,,,,,,,,,,,,stimuli/alien_stimuli/61.png,,,,,,,,,,,,,,,,,,,,,,,,,,,,,stimuli/alien_stimuli/21.png,21,2,19,,,,,,,30,,,,,,,,1478.3493087999523,1478.3493087999523,1478.3493087999523,1478.3493087999523,1478.3493087999523,return,1.8070802999427542,10,0,0,1,0,0.08,return,1.708827199996449,-7,38,0,0.08,1476.776333399932,1478.3493087999523,0.32,0.32,0.0,0.32,0.32,0.32,0.16,0.32,0.32,1474.9959060000256,1474.9959060000256,1474.9959060000256,1474.9959060000256,1474.9959060000256,1474.9959060000256,1474.9959060000256,1474.9959060000256,1474.974931079999,1.9039829999674112,return,1.7540399000281468,,,,,,,,,,,,,,,,,,,,,,,,,,,,,,,,,46GULT,train_x,blue_star,top_left,2025-05-26_16h04.38.251,HideSeek_v1,2022.2.5,59.5252268207156,
,0,8,3,8,3,0,31,,train_dim1_1,19,30,,,,2,0,2,0,,,,,,,,,0,0,0,0,0,18,18,18,0,0,0,0,,,,,,,,,,,,,,,,,,,,,,,,,stimuli/alien_stimuli/31.png,,,,,,,,,,,,,,,,,,,,,,,,,,,,,stimuli/alien_stimuli/61.png,61,2,20,,,,,,,30,,,,,,,,1486.7594605999766,1486.7594605999766,1486.7594605999766,1486.7594605999766,1486.7594605999766,right,3.190079699968919,10,0,0,99,-0.08,0.24,right,3.1064922000514343,,,,,1485.2000080000143,1486.7594605999766,0,0.08,0.0,0.0,0.08,0,0.0,0,0.08,1481.6984955000225,1481.6984955000225,1481.6984955000225,1481.6984955000225,1481.6984955000225,1481.6984955000225,1481.6984955000225,1481.6984955000225,1481.680359239946,3.6054534999420866,return,3.470440399949439,,,,,,,,,,,,,,,,,,,,,,,,,,,,,,,,,46GULT,train_x,blue_star,top_left,2025-05-26_16h04.38.251,HideSeek_v1,2022.2.5,59.5252268207156,
,0,8,3,8,3,0,31,,train_dim1_1,19,30,,,,2,0,2,0,,,,,,,,,0,0,0,0,0,18,18,18,1,0,1,0,,,,,,,,,,,,,,,,,,,,,,,,,,,,,,,,,,,,,,,,,,,,,,,,,,,,,,,,,,,,,,,,30,,,,,,,,1489.9513593999436,1489.9513593999436,1489.9513593999436,1489.9513593999436,1489.9513593999436,right,0.6094447000650689,10,0,0,99,0.0,0.24,right,0.5287570001091808,,,,,,,,,,,,,,,,,,,,,,,,,,,,,,,,,,,,,,,,,,,,,,,,,,,,,,,,,,,,46GULT,train_x,blue_star,top_left,2025-05-26_16h04.38.251,HideSeek_v1,2022.2.5,59.5252268207156,
,0,8,3,8,3,0,31,,train_dim1_1,19,30,,,,2,0,2,0,,,,,,,,,0,0,0,0,0,18,18,18,2,0,2,0,,,,,,,,,,,,,,,,,,,,,,,,,,,,,,,,,,,,,,,,,,,,,,,,,,,,,,,,,,,,,,,,30,,,,,,,,1490.56862549996,1490.56862549996,1490.56862549996,1490.56862549996,1490.56862549996,right,2.544885899988003,10,0,0,99,0.08,0.24,right,2.4701844999799505,,,,,,,,,,,,,,,,,,,,,,,,,,,,,,,,,,,,,,,,,,,,,,,,,,,,,,,,,,,,46GULT,train_x,blue_star,top_left,2025-05-26_16h04.38.251,HideSeek_v1,2022.2.5,59.5252268207156,
,0,8,3,8,3,0,31,,train_dim1_1,19,30,,,,2,0,2,0,,,,,,,,,0,0,0,0,0,18,18,18,3,0,3,0,,,,,,,,,,,,,,,,,,,,,,,,,,,,,,,,,,,,,,,,,,,,,,,,,,,,,,,,,,,,,,,,30,,,,,,,,1493.1200054000365,1493.1200054000365,1493.1200054000365,1493.1200054000365,1493.1200054000365,return,0.6601948000025004,11,0,0,1,0.08,0.24,return,0.582196700037457,-7,41,0.08,0.24,,,,,,,,,,,,,,,,,,,,,,,,,,,,,,,,,,,,,,,,,,,,,,,,,,,,,,,,46GULT,train_x,blue_star,top_left,2025-05-26_16h04.38.251,HideSeek_v1,2022.2.5,59.5252268207156,
,0,6,5,6,5,0,11,,train_dim1_1,20,30,,,,2,0,2,0,,,,,,,,,0,0,0,0,0,19,19,19,0,0,0,0,,,,,,,,,,,,,,,,,,,,,,,,,stimuli/alien_stimuli/11.png,,,,,,,,,,,,,,,,,,,,,,,,,,,,,stimuli/alien_stimuli/31.png,31,0,21,,,,,,,30,,,,,,,,1498.2515564999776,1498.2515564999776,1498.2515564999776,1498.2515564999776,1498.2515564999776,right,2.305512599996291,11,0,0,99,-0.08,0.08,right,2.2026296999538317,,,,,1496.6761355999624,1498.2515564999776,0.08,0.24,0.0,0.24,0.24,0.08,-0.04,0.08,0.24,1495.359248499968,1495.359248499968,1495.359248499968,1495.359248499968,1495.359248499968,1495.359248499968,1495.359248499968,1495.359248499968,1495.3417613799566,1.4365779999643564,return,1.2955725999781862,,,,,,,,,,,,,,,,,,,,,,,,,,,,,,,,,46GULT,train_x,blue_star,top_left,2025-05-26_16h04.38.251,HideSeek_v1,2022.2.5,59.5252268207156,
,0,6,5,6,5,0,11,,train_dim1_1,20,30,,,,2,0,2,0,,,,,,,,,0,0,0,0,0,19,19,19,1,0,1,0,,,,,,,,,,,,,,,,,,,,,,,,,,,,,,,,,,,,,,,,,,,,,,,,,,,,,,,,,,,,,,,,30,,,,,,,,1500.5478845000034,1500.5478845000034,1500.5478845000034,1500.5478845000034,1500.5478845000034,right,2.328060800093226,11,0,0,99,0.0,0.08,right,2.245941999950446,,,,,,,,,,,,,,,,,,,,,,,,,,,,,,,,,,,,,,,,,,,,,,,,,,,,,,,,,,,,46GULT,train_x,blue_star,top_left,2025-05-26_16h04.38.251,HideSeek_v1,2022.2.5,59.5252268207156,
,0,6,5,6,5,0,11,,train_dim1_1,20,30,,,,2,0,2,0,,,,,,,,,0,0,0,0,0,19,19,19,2,0,2,0,,,,,,,,,,,,,,,,,,,,,,,,,,,,,,,,,,,,,,,,,,,,,,,,,,,,,,,,,,,,,,,,30,,,,,,,,1502.8877052000025,1502.8877052000025,1502.8877052000025,1502.8877052000025,1502.8877052000025,right,0.9743159000063315,11,0,0,99,0.08,0.08,right,0.8903476999839768,,,,,,,,,,,,,,,,,,,,,,,,,,,,,,,,,,,,,,,,,,,,,,,,,,,,,,,,,,,,46GULT,train_x,blue_star,top_left,2025-05-26_16h04.38.251,HideSeek_v1,2022.2.5,59.5252268207156,
,0,6,5,6,5,0,11,,train_dim1_1,20,30,,,,2,0,2,0,,,,,,,,,0,0,0,0,0,19,19,19,3,0,3,0,,,,,,,,,,,,,,,,,,,,,,,,,,,,,,,,,,,,,,,,,,,,,,,,,,,,,,,,,,,,,,,,30,,,,,,,,1503.8656321000308,1503.8656321000308,1503.8656321000308,1503.8656321000308,1503.8656321000308,right,0.6435550999594852,11,0,0,99,0.16,0.08,right,0.5577476000180468,,,,,,,,,,,,,,,,,,,,,,,,,,,,,,,,,,,,,,,,,,,,,,,,,,,,,,,,,,,,46GULT,train_x,blue_star,top_left,2025-05-26_16h04.38.251,HideSeek_v1,2022.2.5,59.5252268207156,
,0,6,5,6,5,0,11,,train_dim1_1,20,30,,,,2,0,2,0,,,,,,,,,0,0,0,0,0,19,19,19,4,0,4,0,,,,,,,,,,,,,,,,,,,,,,,,,,,,,,,,,,,,,,,,,,,,,,,,,,,,,,,,,,,,,,,,30,,,,,,,,1504.5182661999715,1504.5182661999715,1504.5182661999715,1504.5182661999715,1504.5182661999715,right,0.509515899932012,11,0,0,99,0.24,0.08,right,0.41868490003980696,,,,,,,,,,,,,,,,,,,,,,,,,,,,,,,,,,,,,,,,,,,,,,,,,,,,,,,,,,,,46GULT,train_x,blue_star,top_left,2025-05-26_16h04.38.251,HideSeek_v1,2022.2.5,59.5252268207156,
,0,6,5,6,5,0,11,,train_dim1_1,20,30,,,,2,0,2,0,,,,,,,,,0,0,0,0,0,19,19,19,5,0,5,0,,,,,,,,,,,,,,,,,,,,,,,,,,,,,,,,,,,,,,,,,,,,,,,,,,,,,,,,,,,,,,,,30,,,,,,,,1505.033968499978,1505.033968499978,1505.033968499978,1505.033968499978,1505.033968499978,return,1.37694750004448,12,0,0,1,0.24,0.08,return,1.2904701000079513,-7,46,0.24,0.08,,,,,,,,,,,,,,,,,,,,,,,,,,,,,,,,,,,,,,,,,,,,,,,,,,,,,,,,46GULT,train_x,blue_star,top_left,2025-05-26_16h04.38.251,HideSeek_v1,2022.2.5,59.5252268207156,
,4,7,7,7,3,0,31,,train_dim1_1,21,30,,,,2,0,2,0,,,,,,,,,0,0,0,0,0,20,20,20,0,0,0,0,,,,,,,,,,,,,,,,,,,,,,,,,stimuli/alien_stimuli/31.png,,,,,,,,,,,,,,,,,,,,,,,,,,,,,stimuli/alien_stimuli/11.png,11,0,22,,,,,,,30,,,,,,,,1511.8700863999547,1511.8700863999547,1511.8700863999547,1511.8700863999547,1511.8700863999547,right,2.491593200014904,12,0,0,99,0.24,0.16,right,2.396043699933216,,,,,1510.3042894999962,1511.8700863999547,0.24,0.08,0.0,0.4,0.08,0.24,0.039999999999999994,0.24,0.08,1507.9935591999674,1507.9935591999674,1507.9935591999674,1507.9935591999674,1507.9935591999674,1507.9935591999674,1507.9935591999674,1507.9935591999674,1507.9854889199603,2.4376121000386775,return,2.28741419990547,,,,,,,,,,,,,,,,,,,,,,,,,,,,,,,,,46GULT,train_x,blue_star,top_left,2025-05-26_16h04.38.251,HideSeek_v1,2022.2.5,59.5252268207156,
,4,7,7,7,3,0,31,,train_dim1_1,21,30,,,,2,0,2,0,,,,,,,,,0,0,0,0,0,20,20,20,1,0,1,0,,,,,,,,,,,,,,,,,,,,,,,,,,,,,,,,,,,,,,,,,,,,,,,,,,,,,,,,,,,,,,,,30,,,,,,,,1514.3554126999807,1514.3554126999807,1514.3554126999807,1514.3554126999807,1514.3554126999807,right,0.9933118999470025,12,0,0,99,0.32,0.16,right,0.9120830999454483,,,,,,,,,,,,,,,,,,,,,,,,,,,,,,,,,,,,,,,,,,,,,,,,,,,,,,,,,,,,46GULT,train_x,blue_star,top_left,2025-05-26_16h04.38.251,HideSeek_v1,2022.2.5,59.5252268207156,
,4,7,7,7,3,0,31,,train_dim1_1,21,30,,,,2,0,2,0,,,,,,,,,0,0,0,0,0,20,20,20,2,0,2,0,,,,,,,,,,,,,,,,,,,,,,,,,,,,,,,,,,,,,,,,,,,,,,,,,,,,,,,,,,,,,,,,30,,,,,,,,1515.3580497000366,1515.3580497000366,1515.3580497000366,1515.3580497000366,1515.3580497000366,right,0.7106493000173941,12,0,0,99,0.4,0.16,right,0.6247372999787331,,,,,,,,,,,,,,,,,,,,,,,,,,,,,,,,,,,,,,,,,,,,,,,,,,,,,,,,,,,,46GULT,train_x,blue_star,top_left,2025-05-26_16h04.38.251,HideSeek_v1,2022.2.5,59.5252268207156,
,4,7,7,7,3,0,31,,train_dim1_1,21,30,,,,2,0,2,0,,,,,,,,,0,0,0,0,0,20,20,20,3,0,3,0,,,,,,,,,,,,,,,,,,,,,,,,,,,,,,,,,,,,,,,,,,,,,,,,,,,,,,,,,,,,,,,,30,,,,,,,,1516.072637300007,1516.072637300007,1516.072637300007,1516.072637300007,1516.072637300007,return,0.6435008000116795,13,0,0,1,0.4,0.16,return,0.5656965000089258,-7,49,0.4,0.16,,,,,,,,,,,,,,,,,,,,,,,,,,,,,,,,,,,,,,,,,,,,,,,,,,,,,,,,46GULT,train_x,blue_star,top_left,2025-05-26_16h04.38.251,HideSeek_v1,2022.2.5,59.5252268207156,
,1,5,5,5,4,0,21,,train_dim1_1,22,30,,,,2,0,2,0,,,,,,,,,0,0,0,0,0,21,21,21,0,0,0,0,,,,,,,,,,,,,,,,,,,,,,,,,stimuli/alien_stimuli/21.png,,,,,,,,,,,,,,,,,,,,,,,,,,,,,stimuli/alien_stimuli/31.png,31,4,23,,,,,,,30,,,,,,,,1521.1906536000315,1521.1906536000315,1521.1906536000315,1521.1906536000315,1521.1906536000315,right,2.0218460999894887,13,0,0,99,0.0,0,right,1.9193472999613732,,,,,1519.6117257999722,1521.1906536000315,0.4,0.16,0.0,0.24,0.16,0.4,0.28,0.4,0.16,1518.2811440000078,1518.2811440000078,1518.2811440000078,1518.2811440000078,1518.2811440000078,1518.2811440000078,1518.2811440000078,1518.2811440000078,1518.260740740015,1.437164800008759,return,1.312076500034891,,,,,,,,,,,,,,,,,,,,,,,,,,,,,,,,,46GULT,train_x,blue_star,top_left,2025-05-26_16h04.38.251,HideSeek_v1,2022.2.5,59.5252268207156,
,1,5,5,5,4,0,21,,train_dim1_1,22,30,,,,2,0,2,0,,,,,,,,,0,0,0,0,0,21,21,21,1,0,1,0,,,,,,,,,,,,,,,,,,,,,,,,,,,,,,,,,,,,,,,,,,,,,,,,,,,,,,,,,,,,,,,,30,,,,,,,,1523.199298099964,1523.199298099964,1523.199298099964,1523.199298099964,1523.199298099964,right,0.5101142000639811,13,0,0,99,0.08,0,right,0.4284504000097513,,,,,,,,,,,,,,,,,,,,,,,,,,,,,,,,,,,,,,,,,,,,,,,,,,,,,,,,,,,,46GULT,train_x,blue_star,top_left,2025-05-26_16h04.38.251,HideSeek_v1,2022.2.5,59.5252268207156,
,1,5,5,5,4,0,21,,train_dim1_1,22,30,,,,2,0,2,0,,,,,,,,,0,0,0,0,0,21,21,21,2,0,2,0,,,,,,,,,,,,,,,,,,,,,,,,,,,,,,,,,,,,,,,,,,,,,,,,,,,,,,,,,,,,,,,,30,,,,,,,,1523.7163528000237,1523.7163528000237,1523.7163528000237,1523.7163528000237,1523.7163528000237,right,0.47604630002751946,13,0,0,99,0.16,0,right,0.38689010008238256,,,,,,,,,,,,,,,,,,,,,,,,,,,,,,,,,,,,,,,,,,,,,,,,,,,,,,,,,,,,46GULT,train_x,blue_star,top_left,2025-05-26_16h04.38.251,HideSeek_v1,2022.2.5,59.5252268207156,
,1,5,5,5,4,0,21,,train_dim1_1,22,30,,,,2,0,2,0,,,,,,,,,0,0,0,0,0,21,21,21,3,0,3,0,,,,,,,,,,,,,,,,,,,,,,,,,,,,,,,,,,,,,,,,,,,,,,,,,,,,,,,,,,,,,,,,30,,,,,,,,1524.1984546999447,1524.1984546999447,1524.1984546999447,1524.1984546999447,1524.1984546999447,right,0.5269489999627694,13,0,0,99,0.24,0,right,0.4444682999746874,,,,,,,,,,,,,,,,,,,,,,,,,,,,,,,,,,,,,,,,,,,,,,,,,,,,,,,,,,,,46GULT,train_x,blue_star,top_left,2025-05-26_16h04.38.251,HideSeek_v1,2022.2.5,59.5252268207156,
,1,5,5,5,4,0,21,,train_dim1_1,22,30,,,,2,0,2,0,,,,,,,,,0,0,0,0,0,21,21,21,4,0,4,0,,,,,,,,,,,,,,,,,,,,,,,,,,,,,,,,,,,,,,,,,,,,,,,,,,,,,,,,,,,,,,,,30,,,,,,,,1524.7335994000314,1524.7335994000314,1524.7335994000314,1524.7335994000314,1524.7335994000314,return,0.4931848000269383,14,0,0,1,0.24,0,return,0.40178860002197325,-7,53,0.24,0,,,,,,,,,,,,,,,,,,,,,,,,,,,,,,,,,,,,,,,,,,,,,,,,,,,,,,,,46GULT,train_x,blue_star,top_left,2025-05-26_16h04.38.251,HideSeek_v1,2022.2.5,59.5252268207156,
,2,6,2,6,0,0,61,,train_dim1_1,23,30,,,,2,0,2,0,,,,,,,,,0,0,0,0,0,22,22,22,0,0,0,0,,,,,,,,,,,,,,,,,,,,,,,,,stimuli/alien_stimuli/61.png,,,,,,,,,,,,,,,,,,,,,,,,,,,,,stimuli/alien_stimuli/21.png,21,1,24,,,,,,,30,,,,,,,,1531.037499499973,1531.037499499973,1531.037499499973,1531.037499499973,1531.037499499973,return,1.4812286999076605,15,0,0,1,0,0.08,return,1.3945011000614613,-7,53,0,0.08,1529.470346200047,1531.037499499973,0.24,0,0.0,0.32,0.0,0.24,0.07999999999999999,0.24,0,1526.792692399933,1526.792692399933,1526.792692399933,1526.792692399933,1526.792692399933,1526.792692399933,1526.792692399933,1526.792692399933,1526.7846015799905,2.7880577000323683,return,2.647950999904424,,,,,,,,,,,,,,,,,,,,,,,,,,,,,,,,,46GULT,train_x,blue_star,top_left,2025-05-26_16h04.38.251,HideSeek_v1,2022.2.5,59.5252268207156,
,4,9,5,9,1,0,51,,train_dim1_1,24,30,,,,2,0,2,0,,,,,,,,,0,0,0,0,0,23,23,23,0,0,0,0,,,,,,,,,,,,,,,,,,,,,,,,,stimuli/alien_stimuli/51.png,,,,,,,,,,,,,,,,,,,,,,,,,,,,,stimuli/alien_stimuli/61.png,61,2,25,,,,,,,30,,,,,,,,1537.5659758000402,1537.5659758000402,1537.5659758000402,1537.5659758000402,1537.5659758000402,right,3.8750187000259757,15,0,0,99,0.24,0.32,right,3.767645499901846,,,,,1535.9922133999644,1537.5659758000402,0,0.08,0.0,0.0,0.08,0,0.0,0,0.08,1534.077157999971,1534.077157999971,1534.077157999971,1534.077157999971,1534.077157999971,1534.077157999971,1534.077157999971,1534.077157999971,1534.0572956400224,2.0205411000642926,return,1.8933305999962613,,,,,,,,,,,,,,,,,,,,,,,,,,,,,,,,,46GULT,train_x,blue_star,top_left,2025-05-26_16h04.38.251,HideSeek_v1,2022.2.5,59.5252268207156,
,4,9,5,9,1,0,51,,train_dim1_1,24,30,,,,2,0,2,0,,,,,,,,,0,0,0,0,0,23,23,23,1,0,1,0,,,,,,,,,,,,,,,,,,,,,,,,,,,,,,,,,,,,,,,,,,,,,,,,,,,,,,,,,,,,,,,,30,,,,,,,,1541.4318158000242,1541.4318158000242,1541.4318158000242,1541.4318158000242,1541.4318158000242,return,1.1428450000239536,16,0,0,1,0.24,0.32,return,1.0506891999393702,-7,54,0.24,0.32,,,,,,,,,,,,,,,,,,,,,,,,,,,,,,,,,,,,,,,,,,,,,,,,,,,,,,,,46GULT,train_x,blue_star,top_left,2025-05-26_16h04.38.251,HideSeek_v1,2022.2.5,59.5252268207156,
,3,5,8,5,5,0,11,,train_dim1_1,25,30,,,,2,0,2,0,,,,,,,,,0,0,0,0,0,24,24,24,0,0,0,0,,,,,,,,,,,,,,,,,,,,,,,,,stimuli/alien_stimuli/11.png,,,,,,,,,,,,,,,,,,,,,,,,,,,,,stimuli/alien_stimuli/51.png,51,4,26,,,,,,,30,,,,,,,,1547.0638546999544,1547.0638546999544,1547.0638546999544,1547.0638546999544,1547.0638546999544,right,1.3368583000265062,16,0,0,99,0.16,0,right,1.2231386000057682,,,,,1545.483283199952,1547.0638546999544,0.24,0.32,0.0,0.08,0.32,0.24,0.2,0.24,0.32,1544.1406071999809,1544.1406071999809,1544.1406071999809,1544.1406071999809,1544.1406071999809,1544.1406071999809,1544.1406071999809,1544.1406071999809,1544.132261979964,1.4531289999140427,return,1.3131144000217319,,,,,,,,,,,,,,,,,,,,,,,,,,,,,,,,,46GULT,train_x,blue_star,top_left,2025-05-26_16h04.38.251,HideSeek_v1,2022.2.5,59.5252268207156,
,3,5,8,5,5,0,11,,train_dim1_1,25,30,,,,2,0,2,0,,,,,,,,,0,0,0,0,0,24,24,24,1,0,1,0,,,,,,,,,,,,,,,,,,,,,,,,,,,,,,,,,,,,,,,,,,,,,,,,,,,,,,,,,,,,,,,,30,,,,,,,,1548.3877448999556,1548.3877448999556,1548.3877448999556,1548.3877448999556,1548.3877448999556,right,0.5096615999937057,16,0,0,99,0.24,0,right,0.4253605999983847,,,,,,,,,,,,,,,,,,,,,,,,,,,,,,,,,,,,,,,,,,,,,,,,,,,,,,,,,,,,46GULT,train_x,blue_star,top_left,2025-05-26_16h04.38.251,HideSeek_v1,2022.2.5,59.5252268207156,
,3,5,8,5,5,0,11,,train_dim1_1,25,30,,,,2,0,2,0,,,,,,,,,0,0,0,0,0,24,24,24,2,0,2,0,,,,,,,,,,,,,,,,,,,,,,,,,,,,,,,,,,,,,,,,,,,,,,,,,,,,,,,,,,,,,,,,30,,,,,,,,1548.9034065000014,1548.9034065000014,1548.9034065000014,1548.9034065000014,1548.9034065000014,right,0.5100344999227673,16,0,0,99,0.32,0,right,0.4289551000110805,,,,,,,,,,,,,,,,,,,,,,,,,,,,,,,,,,,,,,,,,,,,,,,,,,,,,,,,,,,,46GULT,train_x,blue_star,top_left,2025-05-26_16h04.38.251,HideSeek_v1,2022.2.5,59.5252268207156,
,3,5,8,5,5,0,11,,train_dim1_1,25,30,,,,2,0,2,0,,,,,,,,,0,0,0,0,0,24,24,24,3,0,3,0,,,,,,,,,,,,,,,,,,,,,,,,,,,,,,,,,,,,,,,,,,,,,,,,,,,,,,,,,,,,,,,,30,,,,,,,,1549.420186799951,1549.420186799951,1549.420186799951,1549.420186799951,1549.420186799951,right,0.7601898000575602,16,0,0,99,0.4,0,right,0.6812366000376642,,,,,,,,,,,,,,,,,,,,,,,,,,,,,,,,,,,,,,,,,,,,,,,,,,,,,,,,,,,,46GULT,train_x,blue_star,top_left,2025-05-26_16h04.38.251,HideSeek_v1,2022.2.5,59.5252268207156,
,3,5,8,5,5,0,11,,train_dim1_1,25,30,,,,2,0,2,0,,,,,,,,,0,0,0,0,0,24,24,24,4,0,4,0,,,,,,,,,,,,,,,,,,,,,,,,,,,,,,,,,,,,,,,,,,,,,,,,,,,,,,,,,,,,,,,,30,,,,,,,,1550.1872798999539,1550.1872798999539,1550.1872798999539,1550.1872798999539,1550.1872798999539,return,0.7437012000009418,16,1,0,0,0.4,0,return,0.652893100050278,-7,58,0.4,0,,,,,,,,,,,,,,,,,,,,,,,,,,,,,,,,,,,,,,,,,,,,,,,,,,,,,,,,46GULT,train_x,blue_star,top_left,2025-05-26_16h04.38.251,HideSeek_v1,2022.2.5,59.5252268207156,
,1,6,1,6,0,0,61,,train_dim1_1,26,30,,,,2,0,2,0,,,,,,,,,0,0,0,0,0,25,25,25,0,0,0,0,,,,,,,,,,,,,,,,,,,,,,,,,stimuli/alien_stimuli/61.png,,,,,,,,,,,,,,,,,,,,,,,,,,,,,stimuli/alien_stimuli/11.png,11,3,27,,,,,,,30,,,,,,,,1557.6352675999515,1557.6352675999515,1557.6352675999515,1557.6352675999515,1557.6352675999515,return,1.672176800086163,17,0,0,1,-0.08,0.08,return,1.584030200028792,-7,58,-0.08,0.08,1556.0755677999696,1557.6352675999515,0.48,0,0.0,0.4,0.0,0.48,0.27999999999999997,0.48,0,1552.4968290999532,1552.4968290999532,1552.4968290999532,1552.4968290999532,1552.4968290999532,1552.4968290999532,1552.4968290999532,1552.4968290999532,1552.4893524799145,3.688613099977374,return,3.554278300027363,,,,,,,,,,,,,,,,,,,,,,,,,,,,,,,,,46GULT,train_x,blue_star,top_left,2025-05-26_16h04.38.251,HideSeek_v1,2022.2.5,59.5252268207156,
,0,6,3,6,3,0,31,,train_dim1_1,27,30,,,,2,0,2,0,,,,,,,,,0,0,0,0,0,26,26,26,0,0,0,0,,,,,,,,,,,,,,,,,,,,,,,,,stimuli/alien_stimuli/31.png,,,,,,,,,,,,,,,,,,,,,,,,,,,,,stimuli/alien_stimuli/61.png,61,1,28,,,,,,,30,,,,,,,,1565.477429099963,1565.477429099963,1565.477429099963,1565.477429099963,1565.477429099963,right,2.438973000040278,17,0,0,99,-0.08,0.08,right,2.3576181000098586,,,,,1563.9151930999942,1565.477429099963,-0.08,0.08,0.0,0.0,0.08,-0.08,-0.08,-0.08,0.08,1560.8642386000138,1560.8642386000138,1560.8642386000138,1560.8642386000138,1560.8642386000138,1560.8642386000138,1560.8642386000138,1560.8642386000138,1560.8462714399443,3.154874900006689,return,3.032693700050004,,,,,,,,,,,,,,,,,,,,,,,,,,,,,,,,,46GULT,train_x,blue_star,top_left,2025-05-26_16h04.38.251,HideSeek_v1,2022.2.5,59.5252268207156,
,0,6,3,6,3,0,31,,train_dim1_1,27,30,,,,2,0,2,0,,,,,,,,,0,0,0,0,0,26,26,26,1,0,1,0,,,,,,,,,,,,,,,,,,,,,,,,,,,,,,,,,,,,,,,,,,,,,,,,,,,,,,,,,,,,,,,,30,,,,,,,,1567.9152884000214,1567.9152884000214,1567.9152884000214,1567.9152884000214,1567.9152884000214,right,1.1436358999926597,17,0,0,99,0.0,0.08,right,1.0593413000460714,,,,,,,,,,,,,,,,,,,,,,,,,,,,,,,,,,,,,,,,,,,,,,,,,,,,,,,,,,,,46GULT,train_x,blue_star,top_left,2025-05-26_16h04.38.251,HideSeek_v1,2022.2.5,59.5252268207156,
,0,6,3,6,3,0,31,,train_dim1_1,27,30,,,,2,0,2,0,,,,,,,,,0,0,0,0,0,26,26,26,2,0,2,0,,,,,,,,,,,,,,,,,,,,,,,,,,,,,,,,,,,,,,,,,,,,,,,,,,,,,,,,,,,,,,,,30,,,,,,,,1569.0668286000146,1569.0668286000146,1569.0668286000146,1569.0668286000146,1569.0668286000146,right,0.8601746999192983,17,0,0,99,0.08,0.08,right,0.7713989999610931,,,,,,,,,,,,,,,,,,,,,,,,,,,,,,,,,,,,,,,,,,,,,,,,,,,,,,,,,,,,46GULT,train_x,blue_star,top_left,2025-05-26_16h04.38.251,HideSeek_v1,2022.2.5,59.5252268207156,
,0,6,3,6,3,0,31,,train_dim1_1,27,30,,,,2,0,2,0,,,,,,,,,0,0,0,0,0,26,26,26,3,0,3,0,,,,,,,,,,,,,,,,,,,,,,,,,,,,,,,,,,,,,,,,,,,,,,,,,,,,,,,,,,,,,,,,30,,,,,,,,1569.9338619000046,1569.9338619000046,1569.9338619000046,1569.9338619000046,1569.9338619000046,return,0.6101679999846965,18,0,0,1,0.08,0.08,return,0.5260326999705285,-7,61,0.08,0.08,,,,,,,,,,,,,,,,,,,,,,,,,,,,,,,,,,,,,,,,,,,,,,,,,,,,,,,,46GULT,train_x,blue_star,top_left,2025-05-26_16h04.38.251,HideSeek_v1,2022.2.5,59.5252268207156,
,3,6,7,6,4,0,21,,train_dim1_1,28,30,,,,2,0,2,0,,,,,,,,,0,0,0,0,0,27,27,27,0,0,0,0,,,,,,,,,,,,,,,,,,,,,,,,,stimuli/alien_stimuli/21.png,,,,,,,,,,,,,,,,,,,,,,,,,,,,,stimuli/alien_stimuli/31.png,31,0,29,,,,,,,30,,,,,,,,1575.9916594999377,1575.9916594999377,1575.9916594999377,1575.9916594999377,1575.9916594999377,right,2.2191447999794036,18,0,0,99,0.16,0.08,right,2.1182556999847293,,,,,1574.4075491999974,1575.9916594999377,0.08,0.08,0.0,0.24,0.08,0.08,-0.04,0.08,0.08,1572.1096129999496,1572.1096129999496,1572.1096129999496,1572.1096129999496,1572.1096129999496,1572.1096129999496,1572.1096129999496,1572.1096129999496,1572.0888941399985,2.404352099983953,return,2.2761916999006644,,,,,,,,,,,,,,,,,,,,,,,,,,,,,,,,,46GULT,train_x,blue_star,top_left,2025-05-26_16h04.38.251,HideSeek_v1,2022.2.5,59.5252268207156,
,3,6,7,6,4,0,21,,train_dim1_1,28,30,,,,2,0,2,0,,,,,,,,,0,0,0,0,0,27,27,27,1,0,1,0,,,,,,,,,,,,,,,,,,,,,,,,,,,,,,,,,,,,,,,,,,,,,,,,,,,,,,,,,,,,,,,,30,,,,,,,,1578.195559600019,1578.195559600019,1578.195559600019,1578.195559600019,1578.195559600019,right,0.5266151999821886,18,0,0,99,0.24,0.08,right,0.44177050003781915,,,,,,,,,,,,,,,,,,,,,,,,,,,,,,,,,,,,,,,,,,,,,,,,,,,,,,,,,,,,46GULT,train_x,blue_star,top_left,2025-05-26_16h04.38.251,HideSeek_v1,2022.2.5,59.5252268207156,
,3,6,7,6,4,0,21,,train_dim1_1,28,30,,,,2,0,2,0,,,,,,,,,0,0,0,0,0,27,27,27,2,0,2,0,,,,,,,,,,,,,,,,,,,,,,,,,,,,,,,,,,,,,,,,,,,,,,,,,,,,,,,,,,,,,,,,30,,,,,,,,1578.7276707999408,1578.7276707999408,1578.7276707999408,1578.7276707999408,1578.7276707999408,right,0.5436647000024095,18,0,0,99,0.32,0.08,right,0.45176700002048165,,,,,,,,,,,,,,,,,,,,,,,,,,,,,,,,,,,,,,,,,,,,,,,,,,,,,,,,,,,,46GULT,train_x,blue_star,top_left,2025-05-26_16h04.38.251,HideSeek_v1,2022.2.5,59.5252268207156,
,3,6,7,6,4,0,21,,train_dim1_1,28,30,,,,2,0,2,0,,,,,,,,,0,0,0,0,0,27,27,27,3,0,3,0,,,,,,,,,,,,,,,,,,,,,,,,,,,,,,,,,,,,,,,,,,,,,,,,,,,,,,,,,,,,,,,,30,,,,,,,,1579.2794198000338,1579.2794198000338,1579.2794198000338,1579.2794198000338,1579.2794198000338,right,0.543038799893111,18,0,0,99,0.4,0.08,right,0.4623644999228418,,,,,,,,,,,,,,,,,,,,,,,,,,,,,,,,,,,,,,,,,,,,,,,,,,,,,,,,,,,,46GULT,train_x,blue_star,top_left,2025-05-26_16h04.38.251,HideSeek_v1,2022.2.5,59.5252268207156,
,3,6,7,6,4,0,21,,train_dim1_1,28,30,,,,2,0,2,0,,,,,,,,,0,0,0,0,0,27,27,27,4,0,4,0,,,,,,,,,,,,,,,,,,,,,,,,,,,,,,,,,,,,,,,,,,,,,,,,,,,,,,,,,,,,,,,,30,,,,,,,,1579.8290999999736,1579.8290999999736,1579.8290999999736,1579.8290999999736,1579.8290999999736,return,0.8939399000955746,19,0,0,1,0.4,0.08,return,0.8166509000584483,-7,65,0.4,0.08,,,,,,,,,,,,,,,,,,,,,,,,,,,,,,,,,,,,,,,,,,,,,,,,,,,,,,,,46GULT,train_x,blue_star,top_left,2025-05-26_16h04.38.251,HideSeek_v1,2022.2.5,59.5252268207156,
,4,5,5,5,1,0,51,,train_dim1_1,29,30,,,,2,0,2,0,,,,,,,,,0,0,0,0,0,28,28,28,0,0,0,0,,,,,,,,,,,,,,,,,,,,,,,,,stimuli/alien_stimuli/51.png,,,,,,,,,,,,,,,,,,,,,,,,,,,,,stimuli/alien_stimuli/21.png,21,3,30,,,,,,,30,,,,,,,,1587.8793890000088,1587.8793890000088,1587.8793890000088,1587.8793890000088,1587.8793890000088,right,2.0721056000329554,19,0,0,99,0.24,0,right,1.9754303999943659,,,,,1586.317167100031,1587.8793890000088,0.4,0.08,0.0,0.32,0.08,0.4,0.24000000000000002,0.4,0.08,1582.2909576999955,1582.2909576999955,1582.2909576999955,1582.2909576999955,1582.2909576999955,1582.2909576999955,1582.2909576999955,1582.2909576999955,1582.2804850799612,4.138975800015032,return,4.000566699891351,,,,,,,,,,,,,,,,,,,,,,,,,,,,,,,,,46GULT,train_x,blue_star,top_left,2025-05-26_16h04.38.251,HideSeek_v1,2022.2.5,59.5252268207156,
,4,5,5,5,1,0,51,,train_dim1_1,29,30,,,,2,0,2,0,,,,,,,,,0,0,0,0,0,28,28,28,1,0,1,0,,,,,,,,,,,,,,,,,,,,,,,,,,,,,,,,,,,,,,,,,,,,,,,,,,,,,,,,,,,,,,,,30,,,,,,,,1589.9528740999522,1589.9528740999522,1589.9528740999522,1589.9528740999522,1589.9528740999522,return,0.5096430999692529,20,0,0,1,0.24,0,return,0.4294687999645248,-7,66,0.24,0,,,,,,,,,,,,,,,,,,,,,,,,,,,,,,,,,,,,,,,,,,,,,,,,,,,,,,,,46GULT,train_x,blue_star,top_left,2025-05-26_16h04.38.251,HideSeek_v1,2022.2.5,59.5252268207156,
,2,7,7,7,5,0,11,,train_dim1_1,30,30,,,,2,0,2,0,,,,,,,,,0,0,0,0,0,29,29,29,0,0,0,0,,,,,,,,,,,,,,,,,,,,,,,,,stimuli/alien_stimuli/11.png,,,,,,,,,,,,,,,,,,,,,,,,,,,,,stimuli/alien_stimuli/51.png,51,4,31,,,,,,,30,,,,,,,,1595.855089699966,1595.855089699966,1595.855089699966,1595.855089699966,1595.855089699966,right,1.8731131999520585,20,0,0,99,0.08,0.16,right,1.760282599949278,,,,,1594.2737853999715,1595.855089699966,0.24,0,0.0,0.08,0.0,0.24,0.2,0.24,0,1592.0288275999483,1592.0288275999483,1592.0288275999483,1592.0288275999483,1592.0288275999483,1592.0288275999483,1592.0288275999483,1592.0288275999483,1592.0218927799606,2.3540705000050366,return,2.2171317000174895,,,,,,,,,,,,,,,,,,,,,,,,,,,,,,,,,46GULT,train_x,blue_star,top_left,2025-05-26_16h04.38.251,HideSeek_v1,2022.2.5,59.5252268207156,
,2,7,7,7,5,0,11,,train_dim1_1,30,30,,,,2,0,2,0,,,,,,,,,0,0,0,0,0,29,29,29,1,0,1,0,,,,,,,,,,,,,,,,,,,,,,,,,,,,,,,,,,,,,,,,,,,,,,,,,,,,,,,,,,,,,,,,30,,,,,,,,1597.7115592999617,1597.7115592999617,1597.7115592999617,1597.7115592999617,1597.7115592999617,right,0.5430460999486968,20,0,0,99,0.16,0.16,right,0.4578167999861762,,,,,,,,,,,,,,,,,,,,,,,,,,,,,,,,,,,,,,,,,,,,,,,,,,,,,,,,,,,,46GULT,train_x,blue_star,top_left,2025-05-26_16h04.38.251,HideSeek_v1,2022.2.5,59.5252268207156,
,2,7,7,7,5,0,11,,train_dim1_1,30,30,,,,2,0,2,0,,,,,,,,,0,0,0,0,0,29,29,29,2,0,2,0,,,,,,,,,,,,,,,,,,,,,,,,,,,,,,,,,,,,,,,,,,,,,,,,,,,,,,,,,,,,,,,,30,,,,,,,,1598.2613203999354,1598.2613203999354,1598.2613203999354,1598.2613203999354,1598.2613203999354,right,0.543210000032559,20,0,0,99,0.24,0.16,right,0.4593944000080228,,,,,,,,,,,,,,,,,,,,,,,,,,,,,,,,,,,,,,,,,,,,,,,,,,,,,,,,,,,,46GULT,train_x,blue_star,top_left,2025-05-26_16h04.38.251,HideSeek_v1,2022.2.5,59.5252268207156,
,2,7,7,7,5,0,11,,train_dim1_1,30,30,,,,2,0,2,0,,,,,,,,,0,0,0,0,0,29,29,29,3,0,3,0,,,,,,,,,,,,,,,,,,,,,,,,,,,,,,,,,,,,,,,,,,,,,,,,,,,,,,,,,,,,,,,,30,,,,,,,,1598.8133598000277,1598.8133598000277,1598.8133598000277,1598.8133598000277,1598.8133598000277,right,2.859856800059788,20,0,0,99,0.32,0.16,right,2.772528500063345,,,,,,,,,,,,,,,,,,,,,,,,,,,,,,,,,,,,,,,,,,,,,,,,,,,,,,,,,,,,46GULT,train_x,blue_star,top_left,2025-05-26_16h04.38.251,HideSeek_v1,2022.2.5,59.5252268207156,
,2,7,7,7,5,0,11,,train_dim1_1,30,30,,,,2,0,2,0,,,,,,,,,0,0,0,0,0,29,29,29,4,0,4,0,,,,,,,,,,,,,,,,,,,,,,,,,,,,,,,,,,,,,,,,,,,,,,,,,,,,,,,,,,,,,,,,30,,,,,,,,1601.6798275000183,1601.6798275000183,1601.6798275000183,1601.6798275000183,1601.6798275000183,right,0.46033109992276877,20,0,0,99,0.4,0.16,right,0.373655500006862,,,,,,,,,,,,,,,,,,,,,,,,,,,,,,,,,,,,,,,,,,,,,,,,,,,,,,,,,,,,46GULT,train_x,blue_star,top_left,2025-05-26_16h04.38.251,HideSeek_v1,2022.2.5,59.5252268207156,
,2,7,7,7,5,0,11,,train_dim1_1,30,30,,,,2,0,2,0,,,,,,,,,0,0,0,0,0,29,29,29,5,0,5,0,,,,,,,,,,,,,,,,,,,,,,,,,,,,,,,,,,,,,,,,,,,,,,,,,,,,,,,,,,,,,,,,30,,,,,,,,1602.1485703999642,1602.1485703999642,1602.1485703999642,1602.1485703999642,1602.1485703999642,return,0.5262486999854445,21,0,0,1,0.4,0.16,return,0.4482896000845358,-7,71,0.4,0.16,,,,,,,,,,,,,,,,,,,,,,,,,,,,,,,,,,,,,,,,,,,,,,,,,,,,,,,,46GULT,train_x,blue_star,top_left,2025-05-26_16h04.38.251,HideSeek_v1,2022.2.5,59.5252268207156,
,,,,,,,,,,,30,,,,2,0,2,0,,,,,,,,,,,,,,,,,,,,,,,,,,,,,,,,,,,,,,,,,,,,,,,,,,,,,,,,,,,,,,,,,,,,,,,,,,stimuli/alien_stimuli/11.png,11,2,32,21,0.7,0.875,1,1,1,30,0,conditions/schedules/train_x_first/blue_star_00/top_left/inputTrain_2.1.xlsx,99,1,2,1,0,,,,,,,,,,,1,,,,,,,,,1606.0502759999363,1607.6113416999578,0.4,0.16,0.0,0.4,0.16,0.4,0.2,0.4,0.16,1604.2589875999838,1604.2589875999838,1604.2589875999838,1604.2589875999838,1604.2589875999838,1604.2589875999838,1604.2589875999838,1604.2589875999838,1604.2488099199952,1.9206884000450373,return,1.7714680000208318,0,0.9,0,1,21,,,,,,,,,,,,,,,,,,,,,,,,,,,,46GULT,train_x,blue_star,top_left,2025-05-26_16h04.38.251,HideSeek_v1,2022.2.5,59.5252268207156,
,,,,,,,,,,,,,,,3,0,3,0,0,0,0,0,,,,,,,,,,,,,,,,,,,,,,,,,,,,,,,conditions/schedules/train_x_first/blue_star_00/top_left/instructions/Slide17.png,conditions/schedules/train_x_first/blue_star_00/top_left/instructions/Audio17.wav,1607.6113416999578,1607.6014926599803,17,"[2.9409433000255376, 17.96533909998834, 16.332878299988806, 19.146797999972478, 4.251102899899706, 5.032526299939491, 5.404782900004648, 11.589179400005378, 6.019022800028324, 7.31808789994102, 9.754411699948832, 12.657430700026453, 16.647055700072087, 13.259509499999695, 31.017129199928604, 22.541404400020838, 71.5314173999941]","[0.051082000019960105, 0.014482300030067563, 0.031330600031651556, 0.03125269990414381, 0.04689600004348904, 0.049434499931521714, 0.11287920002359897, 0.06378249998670071, 0.0796192999696359, 0.04731799999717623, 0.06376980000641197, 12.65743740007747, 0.013767999946139753, 13.25951639993582, 0.05516040010843426, 22.54141140007414, 71.53142510005273]",0,,,,,,,,,,,,,,,,,,,,,,,,,,,,,,,,,,,,,,,,,,,,,,,,,,,,,,,,,,,,,,,,,,,,,,,,,,,,,,,,,,,,,,,,,,,,,,,,,,,,,,,,,,,,,,,,,,,,,,,,,,,,46GULT,train_x,blue_star,top_left,2025-05-26_16h04.38.251,HideSeek_v1,2022.2.5,59.5252268207156,
,,,,,,,,,,,,,,,3,0,3,0,1,0,1,0,,,,,,,,,,,,,,,,,,,,,,,,,,,,,,,conditions/schedules/train_x_first/blue_star_00/top_left/instructions/Slide18.png,conditions/schedules/train_x_first/blue_star_00/top_left/instructions/Audio18.wav,1679.212812499958,1679.211100400018,18,"[2.9409433000255376, 17.96533909998834, 16.332878299988806, 19.146797999972478, 4.251102899899706, 5.032526299939491, 5.404782900004648, 11.589179400005378, 6.019022800028324, 7.31808789994102, 9.754411699948832, 12.657430700026453, 16.647055700072087, 13.259509499999695, 31.017129199928604, 22.541404400020838, 71.5314173999941, 5.683632400003262]","[0.051082000019960105, 0.014482300030067563, 0.031330600031651556, 0.03125269990414381, 0.04689600004348904, 0.049434499931521714, 0.11287920002359897, 0.06378249998670071, 0.0796192999696359, 0.04731799999717623, 0.06376980000641197, 12.65743740007747, 0.013767999946139753, 13.25951639993582, 0.05516040010843426, 22.54141140007414, 0.03043219994287938, 5.683639599941671]",0,,,,,,,,,,,,,,,,,,,,,,,,,,,,,,,,,,,,,,,,,,,,,,,,,,,,,,,,,,,,,,,,,,,,,,,,,,,,,,,,,,,,,,,,,,,,,,,,,,,,,,,,,,,,,,,,,,,,,,,,,,,,46GULT,train_x,blue_star,top_left,2025-05-26_16h04.38.251,HideSeek_v1,2022.2.5,59.5252268207156,
,,,,,,,,,,,,,,,3,0,3,0,2,0,2,0,,,,,,,,,,,,,,,,,,,,,,,,,,,,,,,conditions/schedules/train_x_first/blue_star_00/top_left/instructions/Slide19.png,conditions/schedules/train_x_first/blue_star_00/top_left/instructions/Audio19.wav,1684.9370875000022,1684.9322996200178,19,"[2.9409433000255376, 17.96533909998834, 16.332878299988806, 19.146797999972478, 4.251102899899706, 5.032526299939491, 5.404782900004648, 11.589179400005378, 6.019022800028324, 7.31808789994102, 9.754411699948832, 12.657430700026453, 16.647055700072087, 13.259509499999695, 31.017129199928604, 22.541404400020838, 71.5314173999941, 5.683632400003262, 9.884725899901241]","[0.051082000019960105, 0.014482300030067563, 0.031330600031651556, 0.03125269990414381, 0.04689600004348904, 0.049434499931521714, 0.11287920002359897, 0.06378249998670071, 0.0796192999696359, 0.04731799999717623, 0.06376980000641197, 12.65743740007747, 0.013767999946139753, 13.25951639993582, 0.05516040010843426, 22.54141140007414, 0.03043219994287938, 0.04821579996496439, 9.884732099948451]",0,,,,,,,,,,,,,,,,,,,,,,,,,,,,,,,,,,,,,,,,,,,,,,,,,,,,,,,,,,,,,,,,,,,,,,,,,,,,,,,,,,,,,,,,,,,,,,,,,,,,,,,,,,,,,,,,,,,,,,,,,,,,46GULT,train_x,blue_star,top_left,2025-05-26_16h04.38.251,HideSeek_v1,2022.2.5,59.5252268207156,
,,,,,,,,,,,,,,,3,0,3,0,3,0,3,0,,,,,,,,,,,,,,,,,,,,,,,,,,,,,,,conditions/schedules/train_x_first/blue_star_00/top_left/instructions/Slide20.png,conditions/schedules/train_x_first/blue_star_00/top_left/instructions/Audio20.wav,1694.8767082999693,1694.8742991599486,20,"[2.9409433000255376, 17.96533909998834, 16.332878299988806, 19.146797999972478, 4.251102899899706, 5.032526299939491, 5.404782900004648, 11.589179400005378, 6.019022800028324, 7.31808789994102, 9.754411699948832, 12.657430700026453, 16.647055700072087, 13.259509499999695, 31.017129199928604, 22.541404400020838, 71.5314173999941, 5.683632400003262, 9.884725899901241, 14.506794600049034]","[0.051082000019960105, 0.014482300030067563, 0.031330600031651556, 0.03125269990414381, 0.04689600004348904, 0.049434499931521714, 0.11287920002359897, 0.06378249998670071, 0.0796192999696359, 0.04731799999717623, 0.06376980000641197, 12.65743740007747, 0.013767999946139753, 13.25951639993582, 0.05516040010843426, 22.54141140007414, 0.03043219994287938, 0.04821579996496439, 0.046795699978247285, 14.506802099989727]",0,,,,,,,,,,,,,,,,,,,,,,,,,,,,,,,,,,,,,,,,,,,,,,,,,,,,,,,,,,,,,,,,,,,,,,,,,,,,,,,,,,,,,,,,,,,,,,,,,,,,,,,,,,,,,,,,,,,,,,,,,,,,46GULT,train_x,blue_star,top_left,2025-05-26_16h04.38.251,HideSeek_v1,2022.2.5,59.5252268207156,
1,0,8,0,3,0,-5,66,2,instr_dim1_2,,,,,,3,0,3,0,,,,,0,0,0,0,,,,,,,,,,,,,,,,,,,,,,,,,,,,,,,,,,,,,stimuli/alien_stimuli/66.png,conditions/schedules/train_x_first/blue_star_00/top_left/inputInstr_2.xlsx,stimuli/alien_stimuli/66.png,1709.4816408000188,1709.4816408000188,1709.4816408000188,1709.4816408000188,1709.486095279909,return,6.668814599979669,"[-0.16, -0.08, 0, 0.08, 0.16, 0.24, 0.32, 0.4, 0.48, 0.56]","[-0.4, -0.32, -0.24, -0.16, -0.08, 0, 0.08, 0.16, 0.24, 0.32]",3,8,0,0,0.4,0.0,1716.3109859999968,1716.3109859999968,1716.3109859999968,1716.3109859999968,1716.3109859999968,1716.3109859999968,1716.3109859999968,1716.3082180599797,7.1909931999398395,return,7.034826199989766,stimuli/alien_stimuli/66.png,66,0,1,,,,,,,,,,,,,,,,,,,,,,,,,,,,,,,,,,,,,,,,,,,,,,,,,,,,,,,,,,,,,,,,,,,,,,,,,,,,,,,,,,,,,,,,,46GULT,train_x,blue_star,top_left,2025-05-26_16h04.38.251,HideSeek_v1,2022.2.5,59.5252268207156,
,,,,,,,,,,,30,,,,3,0,3,0,,,,,,,,,,,,,,,,,,,,,,,,,,,,,,,,,,,,,,,,,,,,,,,,,,,,,,,,,,,,,,,,,,,,,,,,,,,,,,21,0.7,0.875,1,99,2,30,0,conditions/schedules/train_x_first/blue_star_00/top_left/inputTrain_2.1.xlsx,99,1,2,1,0,,,,,,,,,,,,,,,,,,,,,,,,,,,,,,,,,,,,,,,,,,,,,,,,,,,,,,,,,,,,,,,,,,,,,,,,,,,46GULT,train_x,blue_star,top_left,2025-05-26_16h04.38.251,HideSeek_v1,2022.2.5,59.5252268207156,
,,,,,,,,,,,,,,,4,0,4,0,0,0,0,0,,,,,,,,,,,,,,,,,,,,,,,,,,,,,,,conditions/schedules/train_x_first/blue_star_00/top_left/instructions/Slide21.png,conditions/schedules/train_x_first/blue_star_00/top_left/instructions/Audio21.wav,1723.4970362000167,1723.497917559964,21,"[2.9409433000255376, 17.96533909998834, 16.332878299988806, 19.146797999972478, 4.251102899899706, 5.032526299939491, 5.404782900004648, 11.589179400005378, 6.019022800028324, 7.31808789994102, 9.754411699948832, 12.657430700026453, 16.647055700072087, 13.259509499999695, 31.017129199928604, 22.541404400020838, 71.5314173999941, 5.683632400003262, 9.884725899901241, 14.506794600049034, 16.695392100024037]","[0.051082000019960105, 0.014482300030067563, 0.031330600031651556, 0.03125269990414381, 0.04689600004348904, 0.049434499931521714, 0.11287920002359897, 0.06378249998670071, 0.0796192999696359, 0.04731799999717623, 0.06376980000641197, 12.65743740007747, 0.013767999946139753, 13.25951639993582, 0.05516040010843426, 22.54141140007414, 0.03043219994287938, 0.04821579996496439, 0.046795699978247285, 14.506802099989727, 16.69540089997463]",0,,,,,,,,,,,,,,,,,,,,,,,,,,,,,,,,,,,,,,,,,,,,,,,,,,,,,,,,,,,,,,,,,,,,,,,,,,,,,,,,,,,,,,,,,,,,,,,,,,,,,,,,,,,,,,,,,,,,,,,,,,,,46GULT,train_x,blue_star,top_left,2025-05-26_16h04.38.251,HideSeek_v1,2022.2.5,59.5252268207156,
2,2,8,2,8,0,0,61,2,instr_dim1_2,,,,,,4,0,4,0,,,,,0,0,0,0,,,,,,,,,,,,,,,,,,,,,,,,,,,,,,,,,,,,,stimuli/alien_stimuli/61.png,conditions/schedules/train_x_first/blue_star_00/top_left/inputInstr_2.xlsx,stimuli/alien_stimuli/61.png,1740.2898930000374,1740.2898930000374,1740.2898930000374,1740.2898930000374,1740.2950351799254,return,6.395486099994741,"[-0.16, -0.08, 0, 0.08, 0.16, 0.24, 0.32, 0.4, 0.48, 0.56]","[-0.4, -0.32, -0.24, -0.16, -0.08, 0, 0.08, 0.16, 0.24, 0.32]",8,8,2,2,0.0,0.0,1746.8386350999353,1746.8386350999353,1746.8386350999353,1746.8386350999353,1746.8386350999353,1746.8386350999353,1746.8386350999353,1746.8336591199738,7.757695599924773,return,7.618294800049625,stimuli/alien_stimuli/61.png,61,2,2,,,,,,,,,,,,,,,,,,,,,,,,,,,,,,,,,,,,,,,,,,,,,,,,,,,,,,,,,,,,,,,,,,,,,,,,,,,,,,,,,,,,,,,,,46GULT,train_x,blue_star,top_left,2025-05-26_16h04.38.251,HideSeek_v1,2022.2.5,59.5252268207156,
,,,,,,,,,,,30,,,,4,0,4,0,,,,,,,,,,,,,,,,,,,,,,,,,,,,,,,,,,,,,,,,,,,,,,,,,,,,,,,,,,,,,,,,,,,,,,,,,,,,,,21,0.7,0.875,1,99,2,30,0,conditions/schedules/train_x_first/blue_star_00/top_left/inputTrain_2.1.xlsx,99,1,2,1,0,,,,,,,,,,,,,,,,,,,,,,,,,,,,,,,,,,,,,,,,,,,,,,,,,,,,,,,,,,,,,,,,,,,,,,,,,,,46GULT,train_x,blue_star,top_left,2025-05-26_16h04.38.251,HideSeek_v1,2022.2.5,59.5252268207156,
,,,,,,,,,,,,,,,5,0,5,0,0,0,0,0,,,,,,,,,,,,,,,,,,,,,,,,,,,,,,,conditions/schedules/train_x_first/blue_star_00/top_left/instructions/Slide22.png,conditions/schedules/train_x_first/blue_star_00/top_left/instructions/Audio22.wav,1754.6144169999752,1754.6068422599112,22,"[2.9409433000255376, 17.96533909998834, 16.332878299988806, 19.146797999972478, 4.251102899899706, 5.032526299939491, 5.404782900004648, 11.589179400005378, 6.019022800028324, 7.31808789994102, 9.754411699948832, 12.657430700026453, 16.647055700072087, 13.259509499999695, 31.017129199928604, 22.541404400020838, 71.5314173999941, 5.683632400003262, 9.884725899901241, 14.506794600049034, 16.695392100024037, 43.20873880002182]","[0.051082000019960105, 0.014482300030067563, 0.031330600031651556, 0.03125269990414381, 0.04689600004348904, 0.049434499931521714, 0.11287920002359897, 0.06378249998670071, 0.0796192999696359, 0.04731799999717623, 0.06376980000641197, 12.65743740007747, 0.013767999946139753, 13.25951639993582, 0.05516040010843426, 22.54141140007414, 0.03043219994287938, 0.04821579996496439, 0.046795699978247285, 14.506802099989727, 16.69540089997463, 43.20874630007893]",0,,,,,,,,,,,,,,,,,,,,,,,,,,,,,,,,,,,,,,,,,,,,,,,,,,,,,,,,,,,,,,,,,,,,,,,,,,,,,,,,,,,,,,,,,,,,,,,,,,,,,,,,,,,,,,,,,,,,,,,,,,,,46GULT,train_x,blue_star,top_left,2025-05-26_16h04.38.251,HideSeek_v1,2022.2.5,59.5252268207156,
,0,5,0,1,0,-4,65,,train_dim1_2,1,30,,,,5,0,5,0,,,,,,,,,0,0,0,0,0,0,0,0,0,0,0,0,,,,,,,,,,,,,,,,,,,,,,,,,stimuli/alien_stimuli/65.png,,,,,,,,,,,,,,,,,,,,,,,,,,,,,,,,,,,,,,,30,,,,,,,,1797.9276620999444,1797.9276620999444,1797.9276620999444,1797.9276620999444,1797.9276620999444,down,4.330989700043574,0,0,0,99,-0.16,-0.08,down,4.224677299964242,,,,,,,,,,,,,,,,,,,,,,,,,,,,,,,,,,,,,,,,,,,,,,,,,,,,,,,,,,,,46GULT,train_x,blue_star,top_left,2025-05-26_16h04.38.251,HideSeek_v1,2022.2.5,59.5252268207156,
,0,5,0,1,0,-4,65,,train_dim1_2,1,30,,,,5,0,5,0,,,,,,,,,0,0,0,0,0,0,0,0,1,0,1,0,,,,,,,,,,,,,,,,,,,,,,,,,,,,,,,,,,,,,,,,,,,,,,,,,,,,,,,,,,,,,,,,30,,,,,,,,1802.2444186999928,1802.2444186999928,1802.2444186999928,1802.2444186999928,1802.2444186999928,down,0.7595636999467388,0,0,0,99,-0.16,-0.16,down,0.6813462999416515,,,,,,,,,,,,,,,,,,,,,,,,,,,,,,,,,,,,,,,,,,,,,,,,,,,,,,,,,,,,46GULT,train_x,blue_star,top_left,2025-05-26_16h04.38.251,HideSeek_v1,2022.2.5,59.5252268207156,
,0,5,0,1,0,-4,65,,train_dim1_2,1,30,,,,5,0,5,0,,,,,,,,,0,0,0,0,0,0,0,0,2,0,2,0,,,,,,,,,,,,,,,,,,,,,,,,,,,,,,,,,,,,,,,,,,,,,,,,,,,,,,,,,,,,,,,,30,,,,,,,,1803.0100552999647,1803.0100552999647,1803.0100552999647,1803.0100552999647,1803.0100552999647,down,1.7441759000066668,0,0,0,99,-0.16,-0.24,down,1.6613590000197291,,,,,,,,,,,,,,,,,,,,,,,,,,,,,,,,,,,,,,,,,,,,,,,,,,,,,,,,,,,,46GULT,train_x,blue_star,top_left,2025-05-26_16h04.38.251,HideSeek_v1,2022.2.5,59.5252268207156,
,0,5,0,1,0,-4,65,,train_dim1_2,1,30,,,,5,0,5,0,,,,,,,,,0,0,0,0,0,0,0,0,3,0,3,0,,,,,,,,,,,,,,,,,,,,,,,,,,,,,,,,,,,,,,,,,,,,,,,,,,,,,,,,,,,,,,,,30,,,,,,,,1804.7611207000446,1804.7611207000446,1804.7611207000446,1804.7611207000446,1804.7611207000446,down,0.760338099906221,0,0,0,99,-0.16,-0.32,down,0.672393299988471,,,,,,,,,,,,,,,,,,,,,,,,,,,,,,,,,,,,,,,,,,,,,,,,,,,,,,,,,,,,46GULT,train_x,blue_star,top_left,2025-05-26_16h04.38.251,HideSeek_v1,2022.2.5,59.5252268207156,
,0,5,0,1,0,-4,65,,train_dim1_2,1,30,,,,5,0,5,0,,,,,,,,,0,0,0,0,0,0,0,0,4,0,4,0,,,,,,,,,,,,,,,,,,,,,,,,,,,,,,,,,,,,,,,,,,,,,,,,,,,,,,,,,,,,,,,,30,,,,,,,,1805.5282044999767,1805.5282044999767,1805.5282044999767,1805.5282044999767,1805.5282044999767,down,0.5766855999827385,0,0,0,99,-0.16,-0.4,down,0.5012835999950767,,,,,,,,,,,,,,,,,,,,,,,,,,,,,,,,,,,,,,,,,,,,,,,,,,,,,,,,,,,,46GULT,train_x,blue_star,top_left,2025-05-26_16h04.38.251,HideSeek_v1,2022.2.5,59.5252268207156,
,0,5,0,1,0,-4,65,,train_dim1_2,1,30,,,,5,0,5,0,,,,,,,,,0,0,0,0,0,0,0,0,5,0,5,0,,,,,,,,,,,,,,,,,,,,,,,,,,,,,,,,,,,,,,,,,,,,,,,,,,,,,,,,,,,,,,,,30,,,,,,,,1806.1117370999418,1806.1117370999418,1806.1117370999418,1806.1117370999418,1806.1117370999418,return,1.0272238999605179,0,1,0,0,-0.16,-0.4,return,0.9539287000661716,-12,71,-0.16,-0.4,,,,,,,,,,,,,,,,,,,,,,,,,,,,,,,,,,,,,,,,,,,,,,,,,,,,,,,,46GULT,train_x,blue_star,top_left,2025-05-26_16h04.38.251,HideSeek_v1,2022.2.5,59.5252268207156,
