trialInstr,x_fixStart,y_fixStart,x_corrSteps,y_corrSteps,x_nrSteps,y_nrSteps,alienID,trialLength,version,trialTrain,praclen,testlen,trial_label,break_on_off,beforeExpLoop.thisRepN,beforeExpLoop.thisTrialN,beforeExpLoop.thisN,beforeExpLoop.thisIndex,mini_instr_trials.thisRepN,mini_instr_trials.thisTrialN,mini_instr_trials.thisN,mini_instr_trials.thisIndex,instrLoop.thisRepN,instrLoop.thisTrialN,instrLoop.thisN,instrLoop.thisIndex,repeat_prac.thisRepN,repeat_prac.thisTrialN,repeat_prac.thisN,repeat_prac.thisIndex,trainLoop.thisRepN,trainLoop.thisTrialN,trainLoop.thisN,trainLoop.thisIndex,moveLoop_train.thisRepN,moveLoop_train.thisTrialN,moveLoop_train.thisN,moveLoop_train.thisIndex,experiment.thisRepN,experiment.thisTrialN,experiment.thisN,experiment.thisIndex,moveLoop_test.thisRepN,moveLoop_test.thisTrialN,moveLoop_test.thisN,moveLoop_test.thisIndex,mini_instr2_trials.thisRepN,mini_instr2_trials.thisTrialN,mini_instr2_trials.thisN,mini_instr2_trials.thisIndex,start_all_time,url,slideStim,audioStim,slides.started,sounds.started,nextButton.numClicks,nextButton.timesOn,nextButton.timesOff,prev_but.numClicks,prev_but.timesOn,prev_but.timesOff,alienStim,instrFile,alienStim_instr,gridImage_instr.started,startPos_3.started,key_instr.started,alienImage_3.started,sounds_1.started,key_instr.keys,key_instr.rt,all_x,all_y,FBy_corrSteps,FBy_fixStart,FBx_corrSteps,FBx_fixStart,FBy_pathSize_check,FBx_pathSize_check,gridImage_9.started,alienImageFB_3.started,startPosFB_3.started,keyFB_3.started,pathLine_ydir_2.started,pathLine_xdir_2.started,alienFace_3.started,sounds_2.started,RTFB_instr,keyFB_3.keys,keyFB_3.rt,draw_alienStim,draw_alienID,test_x,nrepcount,perfthres,percthres,earlierperf,earlystop,nextPrac,fileidx,praclen,saveACC_train,pracFile,nextPrac_train,addNrep,fileidx_endr,repExp,showearly,gridImage_4.started,startPos.started,movePos.started,key_resp.started,alienImage.started,buttonPress_train,RTchoice_train,cumAcctrain,aCorr,saveACC_choice,corrAns,x_movePos_end,y_movePos_end,key_resp.keys,key_resp.rt,wLy_dir,wLx_dir,x_movePos,y_movePos,text_2.started,text_2.stopped,aft_x_corrPos,aft_y_corrPos,y_pathSize_check,x_pathSize_check,y_pathdirY,x_pathdirY,x_pathdirX,x_corrPos,y_corrPos,gridImage_6.started,alienImageFB_2.started,startPosFB_2.started,movePosFB_2.started,keyFB_2.started,pathLine_xdir.started,pathLine_ydir.started,alienFace.started,sounds_4.started,RT_FBtrain,keyFB_2.keys,keyFB_2.rt,saveACC_pre,ACC,within_saveACC_train,earlystop_wloop,cumAcctrain_check,gridImage_3.started,alienImage_test.started,startPos_test.started,movePos_test.started,key_resp_test.started,wLy_dir_test,wLx_dir_test,buttonPress_test,RTchoice_test,cumAcctest,corrAns_test,key_resp_test.keys,key_resp_test.rt,text_3.started,text_3.stopped,total_time,end_all_time,key_resp_3.keys,slides_2.started,sounds_3.started,nextButton_2.numClicks,nextButton_2.timesOn,nextButton_2.timesOff,prev_but_2.numClicks,prev_but_2.timesOn,prev_but_2.timesOff,bye.started,participant,train_first,00_coordinate,starting corner,date,expName,psychopyVersion,frameRate,
,,,,,,,,,,,,,,,0,0,0,0,0,0,0,0,,,,,,,,,,,,,,,,,,,,,,,,,,,,,start_all_time,testround,conditions/schedules/train_y_first/blue_star_00/top_right/instructions/Slide1.png,conditions/schedules/train_y_first/blue_star_00/top_right/instructions/Audio1.wav,55.98372639995068,55.92812238037586,1,[8.175597500056028],[8.175604399992153],0,,,,,,,,,,,,,,,,,,,,,,,,,,,,,,,,,,,,,,,,,,,,,,,,,,,,,,,,,,,,,,,,,,,,,,,,,,,,,,,,,,,,,,,,,,,,,,,,,,,,,,,,,,,,,,,,,,,,,,,,,,,,4727MG,train_y,blue_star,top_right,2025-09-13_16h46.10.980,HideSeek_v1,2022.2.5,59.92925949366861,
,,,,,,,,,,,,,,,0,0,0,0,1,0,1,0,,,,,,,,,,,,,,,,,,,,,,,,,,,,,,,conditions/schedules/train_y_first/blue_star_00/top_right/instructions/Slide2.png,conditions/schedules/train_y_first/blue_star_00/top_right/instructions/Audio2.wav,64.17938519991003,64.16554412003607,2,"[8.175597500056028, 18.39940689993091]","[0.00022629997693002224, 18.39941389998421]",0,,,,,,,,,,,,,,,,,,,,,,,,,,,,,,,,,,,,,,,,,,,,,,,,,,,,,,,,,,,,,,,,,,,,,,,,,,,,,,,,,,,,,,,,,,,,,,,,,,,,,,,,,,,,,,,,,,,,,,,,,,,,4727MG,train_y,blue_star,top_right,2025-09-13_16h46.10.980,HideSeek_v1,2022.2.5,59.92925949366861,
,,,,,,,,,,,,,,,0,0,0,0,2,0,2,0,,,,,,,,,,,,,,,,,,,,,,,,,,,,,,,conditions/schedules/train_y_first/blue_star_00/top_right/instructions/Slide3.png,conditions/schedules/train_y_first/blue_star_00/top_right/instructions/Audio3.wav,82.64571790001355,82.64747569989413,3,"[8.175597500056028, 18.39940689993091, 15.929907200159505]","[0.00022629997693002224, 0.014661699999123812, 15.929914700100198]",0,,,,,,,,,,,,,,,,,,,,,,,,,,,,,,,,,,,,,,,,,,,,,,,,,,,,,,,,,,,,,,,,,,,,,,,,,,,,,,,,,,,,,,,,,,,,,,,,,,,,,,,,,,,,,,,,,,,,,,,,,,,,4727MG,train_y,blue_star,top_right,2025-09-13_16h46.10.980,HideSeek_v1,2022.2.5,59.92925949366861,
,,,,,,,,,,,,,,,0,0,0,0,3,0,3,0,,,,,,,,,,,,,,,,,,,,,,,,,,,,,,,conditions/schedules/train_y_first/blue_star_00/top_right/instructions/Slide4.png,conditions/schedules/train_y_first/blue_star_00/top_right/instructions/Audio4.wav,98.65868570003659,98.6608614799101,4,"[8.175597500056028, 18.39940689993091, 15.929907200159505, 19.365886999992654]","[0.00022629997693002224, 0.014661699999123812, 0.01448000012896955, 19.365894100163132]",0,,,,,,,,,,,,,,,,,,,,,,,,,,,,,,,,,,,,,,,,,,,,,,,,,,,,,,,,,,,,,,,,,,,,,,,,,,,,,,,,,,,,,,,,,,,,,,,,,,,,,,,,,,,,,,,,,,,,,,,,,,,,4727MG,train_y,blue_star,top_right,2025-09-13_16h46.10.980,HideSeek_v1,2022.2.5,59.92925949366861,
,,,,,,,,,,,,,,,0,0,0,0,4,0,4,0,,,,,,,,,,,,,,,,,,,,,,,,,,,,,,,conditions/schedules/train_y_first/blue_star_00/top_right/instructions/Slide5.png,conditions/schedules/train_y_first/blue_star_00/top_right/instructions/Audio5.wav,118.09552700002678,118.09339780011214,5,"[8.175597500056028, 18.39940689993091, 15.929907200159505, 19.365886999992654, 4.53359859995544]","[0.00022629997693002224, 0.014661699999123812, 0.01448000012896955, 0.03149339999072254, 4.533606400014833]",0,,,,,,,,,,,,,,,,,,,,,,,,,,,,,,,,,,,,,,,,,,,,,,,,,,,,,,,,,,,,,,,,,,,,,,,,,,,,,,,,,,,,,,,,,,,,,,,,,,,,,,,,,,,,,,,,,,,,,,,,,,,,4727MG,train_y,blue_star,top_right,2025-09-13_16h46.10.980,HideSeek_v1,2022.2.5,59.92925949366861,
,,,,,,,,,,,,,,,0,0,0,0,5,0,5,0,,,,,,,,,,,,,,,,,,,,,,,,,,,,,,,conditions/schedules/train_y_first/blue_star_00/top_right/instructions/Slide6.png,conditions/schedules/train_y_first/blue_star_00/top_right/instructions/Audio6.wav,122.6797060999088,122.68081391989254,6,"[8.175597500056028, 18.39940689993091, 15.929907200159505, 19.365886999992654, 4.53359859995544, 4.953020599903539]","[0.00022629997693002224, 0.014661699999123812, 0.01448000012896955, 0.03149339999072254, 0.048957299906760454, 4.953027399955317]",0,,,,,,,,,,,,,,,,,,,,,,,,,,,,,,,,,,,,,,,,,,,,,,,,,,,,,,,,,,,,,,,,,,,,,,,,,,,,,,,,,,,,,,,,,,,,,,,,,,,,,,,,,,,,,,,,,,,,,,,,,,,,4727MG,train_y,blue_star,top_right,2025-09-13_16h46.10.980,HideSeek_v1,2022.2.5,59.92925949366861,
,,,,,,,,,,,,,,,0,0,0,0,6,0,6,0,,,,,,,,,,,,,,,,,,,,,,,,,,,,,,,conditions/schedules/train_y_first/blue_star_00/top_right/instructions/Slide7.png,conditions/schedules/train_y_first/blue_star_00/top_right/instructions/Audio7.wav,127.69254430010915,127.68446051995271,7,"[8.175597500056028, 18.39940689993091, 15.929907200159505, 19.365886999992654, 4.53359859995544, 4.953020599903539, 6.1646317997947335]","[0.00022629997693002224, 0.014661699999123812, 0.01448000012896955, 0.03149339999072254, 0.048957299906760454, 0.07628539996221662, 6.164638399844989]",0,,,,,,,,,,,,,,,,,,,,,,,,,,,,,,,,,,,,,,,,,,,,,,,,,,,,,,,,,,,,,,,,,,,,,,,,,,,,,,,,,,,,,,,,,,,,,,,,,,,,,,,,,,,,,,,,,,,,,,,,,,,,4727MG,train_y,blue_star,top_right,2025-09-13_16h46.10.980,HideSeek_v1,2022.2.5,59.92925949366861,
,,,,,,,,,,,,,,,0,0,0,0,7,0,7,0,,,,,,,,,,,,,,,,,,,,,,,,,,,,,,,conditions/schedules/train_y_first/blue_star_00/top_right/instructions/Slide8.png,conditions/schedules/train_y_first/blue_star_00/top_right/instructions/Audio8.wav,133.91614799993113,133.90646541994064,8,"[8.175597500056028, 18.39940689993091, 15.929907200159505, 19.365886999992654, 4.53359859995544, 4.953020599903539, 6.1646317997947335, 10.947325699962676]","[0.00022629997693002224, 0.014661699999123812, 0.01448000012896955, 0.03149339999072254, 0.048957299906760454, 0.07628539996221662, 0.00021900003775954247, 10.947332500014454]",0,,,,,,,,,,,,,,,,,,,,,,,,,,,,,,,,,,,,,,,,,,,,,,,,,,,,,,,,,,,,,,,,,,,,,,,,,,,,,,,,,,,,,,,,,,,,,,,,,,,,,,,,,,,,,,,,,,,,,,,,,,,,4727MG,train_y,blue_star,top_right,2025-09-13_16h46.10.980,HideSeek_v1,2022.2.5,59.92925949366861,
,,,,,,,,,,,,,,,0,0,0,0,8,0,8,0,,,,,,,,,,,,,,,,,,,,,,,,,,,,,,,conditions/schedules/train_y_first/blue_star_00/top_right/instructions/Slide9.png,conditions/schedules/train_y_first/blue_star_00/top_right/instructions/Audio9.wav,144.934052699944,144.9321145999711,9,"[8.175597500056028, 18.39940689993091, 15.929907200159505, 19.365886999992654, 4.53359859995544, 4.953020599903539, 6.1646317997947335, 10.947325699962676, 5.1828825999982655]","[0.00022629997693002224, 0.014661699999123812, 0.01448000012896955, 0.03149339999072254, 0.048957299906760454, 0.07628539996221662, 0.00021900003775954247, 0.06267639994621277, 5.1828911998309195]",0,,,,,,,,,,,,,,,,,,,,,,,,,,,,,,,,,,,,,,,,,,,,,,,,,,,,,,,,,,,,,,,,,,,,,,,,,,,,,,,,,,,,,,,,,,,,,,,,,,,,,,,,,,,,,,,,,,,,,,,,,,,,4727MG,train_y,blue_star,top_right,2025-09-13_16h46.10.980,HideSeek_v1,2022.2.5,59.92925949366861,
,,,,,,,,,,,,,,,0,0,0,0,9,0,9,0,,,,,,,,,,,,,,,,,,,,,,,,,,,,,,,conditions/schedules/train_y_first/blue_star_00/top_right/instructions/Slide10.png,conditions/schedules/train_y_first/blue_star_00/top_right/instructions/Audio10.wav,150.15754289994948,150.1532810400706,10,"[8.175597500056028, 18.39940689993091, 15.929907200159505, 19.365886999992654, 4.53359859995544, 4.953020599903539, 6.1646317997947335, 10.947325699962676, 5.1828825999982655, 6.3816335999872535]","[0.00022629997693002224, 0.014661699999123812, 0.01448000012896955, 0.03149339999072254, 0.048957299906760454, 0.07628539996221662, 0.00021900003775954247, 0.06267639994621277, 0.06418950017541647, 6.381640300154686]",0,,,,,,,,,,,,,,,,,,,,,,,,,,,,,,,,,,,,,,,,,,,,,,,,,,,,,,,,,,,,,,,,,,,,,,,,,,,,,,,,,,,,,,,,,,,,,,,,,,,,,,,,,,,,,,,,,,,,,,,,,,,,4727MG,train_y,blue_star,top_right,2025-09-13_16h46.10.980,HideSeek_v1,2022.2.5,59.92925949366861,
,,,,,,,,,,,,,,,0,0,0,0,10,0,10,0,,,,,,,,,,,,,,,,,,,,,,,,,,,,,,,conditions/schedules/train_y_first/blue_star_00/top_right/instructions/Slide11.png,conditions/schedules/train_y_first/blue_star_00/top_right/instructions/Audio11.wav,156.57698550005443,156.57552504008638,11,"[8.175597500056028, 18.39940689993091, 15.929907200159505, 19.365886999992654, 4.53359859995544, 4.953020599903539, 6.1646317997947335, 10.947325699962676, 5.1828825999982655, 6.3816335999872535, 10.237737799994648]","[0.00022629997693002224, 0.014661699999123812, 0.01448000012896955, 0.03149339999072254, 0.048957299906760454, 0.07628539996221662, 0.00021900003775954247, 0.06267639994621277, 0.06418950017541647, 0.048138200072571635, 10.237744400044903]",0,,,,,,,,,,,,,,,,,,,,,,,,,,,,,,,,,,,,,,,,,,,,,,,,,,,,,,,,,,,,,,,,,,,,,,,,,,,,,,,,,,,,,,,,,,,,,,,,,,,,,,,,,,,,,,,,,,,,,,,,,,,,4727MG,train_y,blue_star,top_right,2025-09-13_16h46.10.980,HideSeek_v1,2022.2.5,59.92925949366861,
,,,,,,,,,,,,,,,0,0,0,0,11,0,11,0,,,,,,,,,,,,,,,,,,,,,,,,,,,,,,,conditions/schedules/train_y_first/blue_star_00/top_right/instructions/Slide12.png,conditions/schedules/train_y_first/blue_star_00/top_right/instructions/Audio12.wav,166.88351109996438,166.88412000006065,12,"[8.175597500056028, 18.39940689993091, 15.929907200159505, 19.365886999992654, 4.53359859995544, 4.953020599903539, 6.1646317997947335, 10.947325699962676, 5.1828825999982655, 6.3816335999872535, 10.237737799994648, 13.87602820014581]","[0.00022629997693002224, 0.014661699999123812, 0.01448000012896955, 0.03149339999072254, 0.048957299906760454, 0.07628539996221662, 0.00021900003775954247, 0.06267639994621277, 0.06418950017541647, 0.048138200072571635, 0.014086600160226226, 13.876035100081936]",0,,,,,,,,,,,,,,,,,,,,,,,,,,,,,,,,,,,,,,,,,,,,,,,,,,,,,,,,,,,,,,,,,,,,,,,,,,,,,,,,,,,,,,,,,,,,,,,,,,,,,,,,,,,,,,,,,,,,,,,,,,,,4727MG,train_y,blue_star,top_right,2025-09-13_16h46.10.980,HideSeek_v1,2022.2.5,59.92925949366861,
1,5,8,5,3,0,-5,66,2,instr_dim1_1,,,,,,0,0,0,0,,,,,0,0,0,0,,,,,,,,,,,,,,,,,,,,,,,,,,,,,,,,,,,,,stimuli/alien_stimuli/66.png,conditions/schedules/train_y_first/blue_star_00/top_right/inputInstr_1.xlsx,stimuli/alien_stimuli/66.png,180.85934390011244,180.85934390011244,180.85934390011244,180.85934390011244,180.84538288004697,return,58.747737100115046,"[-0.16, -0.08, 0, 0.08, 0.16, 0.24, 0.32, 0.4, 0.48, 0.56]","[-0.4, -0.32, -0.24, -0.16, -0.08, 0, 0.08, 0.16, 0.24, 0.32]",3,8,5,5,0.4,0.0,239.79092930001207,239.79092930001207,239.79092930001207,239.79092930001207,239.79092930001207,239.79092930001207,239.79092930001207,239.7776603999082,7.656974099809304,return,7.46765170013532,stimuli/alien_stimuli/66.png,66,5,1,,,,,,,,,,,,,,,,,,,,,,,,,,,,,,,,,,,,,,,,,,,,,,,,,,,,,,,,,,,,,,,,,,,,,,,,,,,,,,,,,,,,,,,,,4727MG,train_y,blue_star,top_right,2025-09-13_16h46.10.980,HideSeek_v1,2022.2.5,59.92925949366861,
,,,,,,,,,,,30,,,,0,0,0,0,,,,,,,,,,,,,,,,,,,,,,,,,,,,,,,,,,,,,,,,,,,,,,,,,,,,,,,,,,,,,,,,,,,,,,,,,,,,,,21,0.7,0,0,99,1,30,0,conditions/schedules/train_y_first/blue_star_00/top_right/inputTrain_1.1.xlsx,99,1,1,1,0,,,,,,,,,,,,,,,,,,,,,,,,,,,,,,,,,,,,,,,,,,,,,,,,,,,,,,,,,,,,,,,,,,,,,,,,,,,4727MG,train_y,blue_star,top_right,2025-09-13_16h46.10.980,HideSeek_v1,2022.2.5,59.92925949366861,
,,,,,,,,,,,,,,,1,0,1,0,0,0,0,0,,,,,,,,,,,,,,,,,,,,,,,,,,,,,,,conditions/schedules/train_y_first/blue_star_00/top_right/instructions/Slide13.png,conditions/schedules/train_y_first/blue_star_00/top_right/instructions/Audio13.wav,247.4383415998891,247.4342614999041,13,"[8.175597500056028, 18.39940689993091, 15.929907200159505, 19.365886999992654, 4.53359859995544, 4.953020599903539, 6.1646317997947335, 10.947325699962676, 5.1828825999982655, 6.3816335999872535, 10.237737799994648, 13.87602820014581, 17.324809599900618]","[0.00022629997693002224, 0.014661699999123812, 0.01448000012896955, 0.03149339999072254, 0.048957299906760454, 0.07628539996221662, 0.00021900003775954247, 0.06267639994621277, 0.06418950017541647, 0.048138200072571635, 0.014086600160226226, 13.876035100081936, 17.324817599961534]",0,,,,,,,,,,,,,,,,,,,,,,,,,,,,,,,,,,,,,,,,,,,,,,,,,,,,,,,,,,,,,,,,,,,,,,,,,,,,,,,,,,,,,,,,,,,,,,,,,,,,,,,,,,,,,,,,,,,,,,,,,,,,4727MG,train_y,blue_star,top_right,2025-09-13_16h46.10.980,HideSeek_v1,2022.2.5,59.92925949366861,
,,,,,,,,,,,,,,,1,0,1,0,1,0,1,0,,,,,,,,,,,,,,,,,,,,,,,,,,,,,,,conditions/schedules/train_y_first/blue_star_00/top_right/instructions/Slide14.png,conditions/schedules/train_y_first/blue_star_00/top_right/instructions/Audio14.wav,264.82717019994743,264.8151935200672,14,"[8.175597500056028, 18.39940689993091, 15.929907200159505, 19.365886999992654, 4.53359859995544, 4.953020599903539, 6.1646317997947335, 10.947325699962676, 5.1828825999982655, 6.3816335999872535, 10.237737799994648, 13.87602820014581, 17.324809599900618, 17.283589099999517]","[0.00022629997693002224, 0.014661699999123812, 0.01448000012896955, 0.03149339999072254, 0.048957299906760454, 0.07628539996221662, 0.00021900003775954247, 0.06267639994621277, 0.06418950017541647, 0.048138200072571635, 0.014086600160226226, 13.876035100081936, 0.0002337999176234007, 17.283597100060433]",0,,,,,,,,,,,,,,,,,,,,,,,,,,,,,,,,,,,,,,,,,,,,,,,,,,,,,,,,,,,,,,,,,,,,,,,,,,,,,,,,,,,,,,,,,,,,,,,,,,,,,,,,,,,,,,,,,,,,,,,,,,,,4727MG,train_y,blue_star,top_right,2025-09-13_16h46.10.980,HideSeek_v1,2022.2.5,59.92925949366861,
2,7,8,7,8,0,0,61,2,instr_dim1_1,,,,,,1,0,1,0,,,,,0,0,0,0,,,,,,,,,,,,,,,,,,,,,,,,,,,,,,,,,,,,,stimuli/alien_stimuli/61.png,conditions/schedules/train_y_first/blue_star_00/top_right/inputInstr_1.xlsx,stimuli/alien_stimuli/61.png,282.2055399999954,282.2055399999954,282.2055399999954,282.2055399999954,282.19618338006546,return,7.9833454000763595,"[-0.16, -0.08, 0, 0.08, 0.16, 0.24, 0.32, 0.4, 0.48, 0.56]","[-0.4, -0.32, -0.24, -0.16, -0.08, 0, 0.08, 0.16, 0.24, 0.32]",8,8,7,7,0.0,0.0,290.3579714000225,290.3579714000225,290.3579714000225,290.3579714000225,290.3579714000225,290.3579714000225,290.3579714000225,290.35300571997647,7.691253500059247,return,7.5340531000401825,stimuli/alien_stimuli/61.png,61,7,2,,,,,,,,,,,,,,,,,,,,,,,,,,,,,,,,,,,,,,,,,,,,,,,,,,,,,,,,,,,,,,,,,,,,,,,,,,,,,,,,,,,,,,,,,4727MG,train_y,blue_star,top_right,2025-09-13_16h46.10.980,HideSeek_v1,2022.2.5,59.92925949366861,
,,,,,,,,,,,30,,,,1,0,1,0,,,,,,,,,,,,,,,,,,,,,,,,,,,,,,,,,,,,,,,,,,,,,,,,,,,,,,,,,,,,,,,,,,,,,,,,,,,,,,21,0.7,0,0,99,1,30,0,conditions/schedules/train_y_first/blue_star_00/top_right/inputTrain_1.1.xlsx,99,1,1,1,0,,,,,,,,,,,,,,,,,,,,,,,,,,,,,,,,,,,,,,,,,,,,,,,,,,,,,,,,,,,,,,,,,,,,,,,,,,,4727MG,train_y,blue_star,top_right,2025-09-13_16h46.10.980,HideSeek_v1,2022.2.5,59.92925949366861,
,,,,,,,,,,,,,,,2,0,2,0,0,0,0,0,,,,,,,,,,,,,,,,,,,,,,,,,,,,,,,conditions/schedules/train_y_first/blue_star_00/top_right/instructions/Slide15.png,conditions/schedules/train_y_first/blue_star_00/top_right/instructions/Audio15.wav,298.093913000077,298.09287335998374,15,"[8.175597500056028, 18.39940689993091, 15.929907200159505, 19.365886999992654, 4.53359859995544, 4.953020599903539, 6.1646317997947335, 10.947325699962676, 5.1828825999982655, 6.3816335999872535, 10.237737799994648, 13.87602820014581, 17.324809599900618, 17.283589099999517, 51.07215659995563]","[0.00022629997693002224, 0.014661699999123812, 0.01448000012896955, 0.03149339999072254, 0.048957299906760454, 0.07628539996221662, 0.00021900003775954247, 0.06267639994621277, 0.06418950017541647, 0.048138200072571635, 0.014086600160226226, 13.876035100081936, 0.0002337999176234007, 17.283597100060433, 51.07216369989328]",0,,,,,,,,,,,,,,,,,,,,,,,,,,,,,,,,,,,,,,,,,,,,,,,,,,,,,,,,,,,,,,,,,,,,,,,,,,,,,,,,,,,,,,,,,,,,,,,,,,,,,,,,,,,,,,,,,,,,,,,,,,,,4727MG,train_y,blue_star,top_right,2025-09-13_16h46.10.980,HideSeek_v1,2022.2.5,59.92925949366861,
,,,,,,,,,,,,,,,2,0,2,0,1,0,1,0,,,,,,,,,,,,,,,,,,,,,,,,,,,,,,,conditions/schedules/train_y_first/blue_star_00/top_right/instructions/Slide16.png,conditions/schedules/train_y_first/blue_star_00/top_right/instructions/Audio16.wav,349.23997449991293,349.23544700001366,16,"[8.175597500056028, 18.39940689993091, 15.929907200159505, 19.365886999992654, 4.53359859995544, 4.953020599903539, 6.1646317997947335, 10.947325699962676, 5.1828825999982655, 6.3816335999872535, 10.237737799994648, 13.87602820014581, 17.324809599900618, 17.283589099999517, 51.07215659995563, 21.711226399987936]","[0.00022629997693002224, 0.014661699999123812, 0.01448000012896955, 0.03149339999072254, 0.048957299906760454, 0.07628539996221662, 0.00021900003775954247, 0.06267639994621277, 0.06418950017541647, 0.048138200072571635, 0.014086600160226226, 13.876035100081936, 0.0002337999176234007, 17.283597100060433, 0.06420889985747635, 21.711233400041237]",0,,,,,,,,,,,,,,,,,,,,,,,,,,,,,,,,,,,,,,,,,,,,,,,,,,,,,,,,,,,,,,,,,,,,,,,,,,,,,,,,,,,,,,,,,,,,,,,,,,,,,,,,,,,,,,,,,,,,,,,,,,,,4727MG,train_y,blue_star,top_right,2025-09-13_16h46.10.980,HideSeek_v1,2022.2.5,59.92925949366861,
,5,5,5,1,0,-4,65,,train_dim1_1,1,30,,,,2,0,2,0,,,,,,,,,0,0,0,0,0,0,0,0,0,0,0,0,,,,,,,,,,,,,,,,,,,,,,,,,stimuli/alien_stimuli/65.png,,,,,,,,,,,,,,,,,,,,,,,,,,,,,,,,,,,,,,,30,,,,,,,,371.050173799973,371.050173799973,371.050173799973,371.050173799973,371.050173799973,down,2.447885900037363,0,0,0,99,0.24,-0.08,down,2.350020600249991,,,,,,,,,,,,,,,,,,,,,,,,,,,,,,,,,,,,,,,,,,,,,,,,,,,,,,,,,,,,4727MG,train_y,blue_star,top_right,2025-09-13_16h46.10.980,HideSeek_v1,2022.2.5,59.92925949366861,
,5,5,5,1,0,-4,65,,train_dim1_1,1,30,,,,2,0,2,0,,,,,,,,,0,0,0,0,0,0,0,0,1,0,1,0,,,,,,,,,,,,,,,,,,,,,,,,,,,,,,,,,,,,,,,,,,,,,,,,,,,,,,,,,,,,,,,,30,,,,,,,,373.48667569993995,373.48667569993995,373.48667569993995,373.48667569993995,373.48667569993995,down,0.40915860002860427,0,0,0,99,0.24,-0.16,down,0.32648709998466074,,,,,,,,,,,,,,,,,,,,,,,,,,,,,,,,,,,,,,,,,,,,,,,,,,,,,,,,,,,,4727MG,train_y,blue_star,top_right,2025-09-13_16h46.10.980,HideSeek_v1,2022.2.5,59.92925949366861,
,5,5,5,1,0,-4,65,,train_dim1_1,1,30,,,,2,0,2,0,,,,,,,,,0,0,0,0,0,0,0,0,2,0,2,0,,,,,,,,,,,,,,,,,,,,,,,,,,,,,,,,,,,,,,,,,,,,,,,,,,,,,,,,,,,,,,,,30,,,,,,,,373.90738030010834,373.90738030010834,373.90738030010834,373.90738030010834,373.90738030010834,down,0.5902911999728531,0,0,0,99,0.24,-0.24,down,0.501228200038895,,,,,,,,,,,,,,,,,,,,,,,,,,,,,,,,,,,,,,,,,,,,,,,,,,,,,,,,,,,,4727MG,train_y,blue_star,top_right,2025-09-13_16h46.10.980,HideSeek_v1,2022.2.5,59.92925949366861,
,5,5,5,1,0,-4,65,,train_dim1_1,1,30,,,,2,0,2,0,,,,,,,,,0,0,0,0,0,0,0,0,3,0,3,0,,,,,,,,,,,,,,,,,,,,,,,,,,,,,,,,,,,,,,,,,,,,,,,,,,,,,,,,,,,,,,,,30,,,,,,,,374.50205589993857,374.50205589993857,374.50205589993857,374.50205589993857,374.50205589993857,down,0.3601956001948565,0,0,0,99,0.24,-0.32,down,0.28293070010840893,,,,,,,,,,,,,,,,,,,,,,,,,,,,,,,,,,,,,,,,,,,,,,,,,,,,,,,,,,,,4727MG,train_y,blue_star,top_right,2025-09-13_16h46.10.980,HideSeek_v1,2022.2.5,59.92925949366861,
,5,5,5,1,0,-4,65,,train_dim1_1,1,30,,,,2,0,2,0,,,,,,,,,0,0,0,0,0,0,0,0,4,0,4,0,,,,,,,,,,,,,,,,,,,,,,,,,,,,,,,,,,,,,,,,,,,,,,,,,,,,,,,,,,,,,,,,30,,,,,,,,374.87117590010166,374.87117590010166,374.87117590010166,374.87117590010166,374.87117590010166,down,0.343541800044477,0,0,0,99,0.24,-0.4,down,0.2682297001592815,,,,,,,,,,,,,,,,,,,,,,,,,,,,,,,,,,,,,,,,,,,,,,,,,,,,,,,,,,,,4727MG,train_y,blue_star,top_right,2025-09-13_16h46.10.980,HideSeek_v1,2022.2.5,59.92925949366861,
,5,5,5,1,0,-4,65,,train_dim1_1,1,30,,,,2,0,2,0,,,,,,,,,0,0,0,0,0,0,0,0,5,0,5,0,,,,,,,,,,,,,,,,,,,,,,,,,,,,,,,,,,,,,,,,,,,,,,,,,,,,,,,,,,,,,,,,30,,,,,,,,375.2253539999947,375.2253539999947,375.2253539999947,375.2253539999947,375.2253539999947,return,0.6772397998720407,0,1,0,0,0.24,-0.4,return,0.5851527000777423,-5,0,0.24,-0.4,,,,,,,,,,,,,,,,,,,,,,,,,,,,,,,,,,,,,,,,,,,,,,,,,,,,,,,,4727MG,train_y,blue_star,top_right,2025-09-13_16h46.10.980,HideSeek_v1,2022.2.5,59.92925949366861,
,8,7,8,2,0,-5,66,,train_dim1_1,2,30,,,,2,0,2,0,,,,,,,,,0,0,0,0,0,1,1,1,0,0,0,0,,,,,,,,,,,,,,,,,,,,,,,,,stimuli/alien_stimuli/66.png,,,,,,,,,,,,,,,,,,,,,,,,,,,,,stimuli/alien_stimuli/65.png,65,5,3,,,,,,,30,,,,,,,,393.8151249999646,393.8151249999646,393.8151249999646,393.8151249999646,393.8151249999646,down,4.89348839991726,0,1,0,99,0.48,0.08,down,4.810517699923366,,,,,392.2541133998893,393.8151249999646,0.24,-0.32,0.32,0.0,-0.16,0.24,0.24,0.24,-0.32,377.47755510010757,377.47755510010757,377.47755510010757,377.47755510010757,377.47755510010757,377.47755510010757,377.47755510010757,377.47755510010757,377.4584521599579,14.898415299830958,return,14.756137300282717,,,,,,,,,,,,,,,,,,,,,,,,,,,,,,,,,4727MG,train_y,blue_star,top_right,2025-09-13_16h46.10.980,HideSeek_v1,2022.2.5,59.92925949366861,
,8,7,8,2,0,-5,66,,train_dim1_1,2,30,,,,2,0,2,0,,,,,,,,,0,0,0,0,0,1,1,1,1,0,1,0,,,,,,,,,,,,,,,,,,,,,,,,,,,,,,,,,,,,,,,,,,,,,,,,,,,,,,,,,,,,,,,,30,,,,,,,,398.7076928000897,398.7076928000897,398.7076928000897,398.7076928000897,398.7076928000897,down,0.2594794000033289,0,1,0,99,0.48,0.0,down,0.18460360006429255,,,,,,,,,,,,,,,,,,,,,,,,,,,,,,,,,,,,,,,,,,,,,,,,,,,,,,,,,,,,4727MG,train_y,blue_star,top_right,2025-09-13_16h46.10.980,HideSeek_v1,2022.2.5,59.92925949366861,
,8,7,8,2,0,-5,66,,train_dim1_1,2,30,,,,2,0,2,0,,,,,,,,,0,0,0,0,0,1,1,1,2,0,2,0,,,,,,,,,,,,,,,,,,,,,,,,,,,,,,,,,,,,,,,,,,,,,,,,,,,,,,,,,,,,,,,,30,,,,,,,,398.9757815001067,398.9757815001067,398.9757815001067,398.9757815001067,398.9757815001067,down,0.3602587999776006,0,1,0,99,0.48,-0.08,down,0.27956599998287857,,,,,,,,,,,,,,,,,,,,,,,,,,,,,,,,,,,,,,,,,,,,,,,,,,,,,,,,,,,,4727MG,train_y,blue_star,top_right,2025-09-13_16h46.10.980,HideSeek_v1,2022.2.5,59.92925949366861,
,8,7,8,2,0,-5,66,,train_dim1_1,2,30,,,,2,0,2,0,,,,,,,,,0,0,0,0,0,1,1,1,3,0,3,0,,,,,,,,,,,,,,,,,,,,,,,,,,,,,,,,,,,,,,,,,,,,,,,,,,,,,,,,,,,,,,,,30,,,,,,,,399.3444872999098,399.3444872999098,399.3444872999098,399.3444872999098,399.3444872999098,down,0.3266809000633657,0,1,0,99,0.48,-0.16,down,0.23738280008547008,,,,,,,,,,,,,,,,,,,,,,,,,,,,,,,,,,,,,,,,,,,,,,,,,,,,,,,,,,,,4727MG,train_y,blue_star,top_right,2025-09-13_16h46.10.980,HideSeek_v1,2022.2.5,59.92925949366861,
,8,7,8,2,0,-5,66,,train_dim1_1,2,30,,,,2,0,2,0,,,,,,,,,0,0,0,0,0,1,1,1,4,0,4,0,,,,,,,,,,,,,,,,,,,,,,,,,,,,,,,,,,,,,,,,,,,,,,,,,,,,,,,,,,,,,,,,30,,,,,,,,399.67445160006173,399.67445160006173,399.67445160006173,399.67445160006173,399.67445160006173,down,0.30981200002133846,0,1,0,99,0.48,-0.24,down,0.23469329997897148,,,,,,,,,,,,,,,,,,,,,,,,,,,,,,,,,,,,,,,,,,,,,,,,,,,,,,,,,,,,4727MG,train_y,blue_star,top_right,2025-09-13_16h46.10.980,HideSeek_v1,2022.2.5,59.92925949366861,
,8,7,8,2,0,-5,66,,train_dim1_1,2,30,,,,2,0,2,0,,,,,,,,,0,0,0,0,0,1,1,1,5,0,5,0,,,,,,,,,,,,,,,,,,,,,,,,,,,,,,,,,,,,,,,,,,,,,,,,,,,,,,,,,,,,,,,,30,,,,,,,,399.993799299933,399.993799299933,399.993799299933,399.993799299933,399.993799299933,return,0.35785480006597936,1,0,0,1,0.48,-0.24,return,0.28335640020668507,-10,0,0.48,-0.24,,,,,,,,,,,,,,,,,,,,,,,,,,,,,,,,,,,,,,,,,,,,,,,,,,,,,,,,4727MG,train_y,blue_star,top_right,2025-09-13_16h46.10.980,HideSeek_v1,2022.2.5,59.92925949366861,
,7,8,7,5,0,-3,64,,train_dim1_1,3,30,,,,2,0,2,0,,,,,,,,,0,0,0,0,0,2,2,2,0,0,0,0,,,,,,,,,,,,,,,,,,,,,,,,,stimuli/alien_stimuli/64.png,,,,,,,,,,,,,,,,,,,,,,,,,,,,,stimuli/alien_stimuli/66.png,66,8,4,,,,,,,30,,,,,,,,410.1041687000543,410.1041687000543,410.1041687000543,410.1041687000543,410.1041687000543,down,2.2906857000198215,1,0,0,99,0.4,0.15999999999999998,down,2.2158155001234263,,,,,408.55103360000066,410.1041687000543,0.48,-0.24,0.4,0.0,-0.039999999999999994,0.48,0.48,0.48,-0.24,401.9162443000823,401.9162443000823,401.9162443000823,401.9162443000823,401.9162443000823,401.9162443000823,401.9162443000823,401.9162443000823,401.91210026009935,6.741133200004697,return,6.613468100083992,,,,,,,,,,,,,,,,,,,,,,,,,,,,,,,,,4727MG,train_y,blue_star,top_right,2025-09-13_16h46.10.980,HideSeek_v1,2022.2.5,59.92925949366861,
,7,8,7,5,0,-3,64,,train_dim1_1,3,30,,,,2,0,2,0,,,,,,,,,0,0,0,0,0,2,2,2,1,0,1,0,,,,,,,,,,,,,,,,,,,,,,,,,,,,,,,,,,,,,,,,,,,,,,,,,,,,,,,,,,,,,,,,30,,,,,,,,412.4038907000795,412.4038907000795,412.4038907000795,412.4038907000795,412.4038907000795,down,0.7572340997867286,1,0,0,99,0.4,0.07999999999999997,down,0.6788761001080275,,,,,,,,,,,,,,,,,,,,,,,,,,,,,,,,,,,,,,,,,,,,,,,,,,,,,,,,,,,,4727MG,train_y,blue_star,top_right,2025-09-13_16h46.10.980,HideSeek_v1,2022.2.5,59.92925949366861,
,7,8,7,5,0,-3,64,,train_dim1_1,3,30,,,,2,0,2,0,,,,,,,,,0,0,0,0,0,2,2,2,2,0,2,0,,,,,,,,,,,,,,,,,,,,,,,,,,,,,,,,,,,,,,,,,,,,,,,,,,,,,,,,,,,,,,,,30,,,,,,,,413.1671792000998,413.1671792000998,413.1671792000998,413.1671792000998,413.1671792000998,down,0.27710300008766353,1,0,0,99,0.4,-2.7755575615628914e-17,down,0.19733580015599728,,,,,,,,,,,,,,,,,,,,,,,,,,,,,,,,,,,,,,,,,,,,,,,,,,,,,,,,,,,,4727MG,train_y,blue_star,top_right,2025-09-13_16h46.10.980,HideSeek_v1,2022.2.5,59.92925949366861,
,7,8,7,5,0,-3,64,,train_dim1_1,3,30,,,,2,0,2,0,,,,,,,,,0,0,0,0,0,2,2,2,3,0,3,0,,,,,,,,,,,,,,,,,,,,,,,,,,,,,,,,,,,,,,,,,,,,,,,,,,,,,,,,,,,,,,,,30,,,,,,,,413.4521824999247,413.4521824999247,413.4521824999247,413.4521824999247,413.4521824999247,return,15.205296800006181,2,0,0,1,0.4,-2.7755575615628914e-17,return,15.123938100179657,-13,0,0.4,-2.7755575615628914e-17,,,,,,,,,,,,,,,,,,,,,,,,,,,,,,,,,,,,,,,,,,,,,,,,,,,,,,,,4727MG,train_y,blue_star,top_right,2025-09-13_16h46.10.980,HideSeek_v1,2022.2.5,59.92925949366861,
,5,6,5,5,0,-1,62,,train_dim1_1,4,30,,,,2,0,2,0,,,,,,,,,0,0,0,0,0,3,3,3,0,0,0,0,,,,,,,,,,,,,,,,,,,,,,,,,stimuli/alien_stimuli/62.png,,,,,,,,,,,,,,,,,,,,,,,,,,,,,stimuli/alien_stimuli/64.png,64,7,5,,,,,,,30,,,,,,,,435.95869189989753,435.95869189989753,435.95869189989753,435.95869189989753,435.95869189989753,return,2.6750886000227183,2,1,0,0,0.24,0.08,return,2.6001526000909507,-13,0,0.24,0.08,434.40586919989437,435.95869189989753,0.4,0,0.24,0.0,0.12,0.4,0.4,0.4,0,430.2454929999076,430.2454929999076,430.2454929999076,430.2454929999076,430.2454929999076,430.2454929999076,430.2454929999076,430.2454929999076,430.23569383989087,4.288929000031203,return,4.13525260030292,,,,,,,,,,,,,,,,,,,,,,,,,,,,,,,,,4727MG,train_y,blue_star,top_right,2025-09-13_16h46.10.980,HideSeek_v1,2022.2.5,59.92925949366861,
,8,8,8,8,0,0,61,,train_dim1_1,5,30,,,,2,0,2,0,,,,,,,,,0,0,0,0,0,4,4,4,0,0,0,0,,,,,,,,,,,,,,,,,,,,,,,,,stimuli/alien_stimuli/61.png,,,,,,,,,,,,,,,,,,,,,,,,,,,,,stimuli/alien_stimuli/62.png,62,5,6,,,,,,,30,,,,,,,,445.1381012001075,445.1381012001075,445.1381012001075,445.1381012001075,445.1381012001075,return,2.3852035000454634,3,0,0,1,0.48,0.24,return,2.307540000183508,-13,0,0.48,0.24,443.5802023001015,445.1381012001075,0.24,0,0.08,0.0,0.04,0.24,0.24,0.24,0,440.18469580006786,440.18469580006786,440.18469580006786,440.18469580006786,440.18469580006786,440.18469580006786,440.18469580006786,440.18469580006786,440.177333779959,3.488512600073591,return,3.3707827001344413,,,,,,,,,,,,,,,,,,,,,,,,,,,,,,,,,4727MG,train_y,blue_star,top_right,2025-09-13_16h46.10.980,HideSeek_v1,2022.2.5,59.92925949366861,
,6,9,6,8,0,-1,62,,train_dim1_1,6,30,,,,2,0,2,0,,,,,,,,,0,0,0,0,0,5,5,5,0,0,0,0,,,,,,,,,,,,,,,,,,,,,,,,,stimuli/alien_stimuli/62.png,,,,,,,,,,,,,,,,,,,,,,,,,,,,,stimuli/alien_stimuli/61.png,61,8,7,,,,,,,30,,,,,,,,452.14057209994644,452.14057209994644,452.14057209994644,452.14057209994644,452.14057209994644,down,2.955942199798301,3,0,0,99,0.32,0.24,down,2.8676448999904096,,,,,450.58592030010186,452.14057209994644,0.48,0.24,0.0,0.0,0.24,0.48,0.48,0.48,0.24,449.0760699000675,449.0760699000675,449.0760699000675,449.0760699000675,449.0760699000675,449.0760699000675,449.0760699000675,449.0760699000675,449.06807148000223,1.6035881000570953,return,1.4839619002304971,,,,,,,,,,,,,,,,,,,,,,,,,,,,,,,,,4727MG,train_y,blue_star,top_right,2025-09-13_16h46.10.980,HideSeek_v1,2022.2.5,59.92925949366861,
,6,9,6,8,0,-1,62,,train_dim1_1,6,30,,,,2,0,2,0,,,,,,,,,0,0,0,0,0,5,5,5,1,0,1,0,,,,,,,,,,,,,,,,,,,,,,,,,,,,,,,,,,,,,,,,,,,,,,,,,,,,,,,,,,,,,,,,30,,,,,,,,455.1043078999501,455.1043078999501,455.1043078999501,455.1043078999501,455.1043078999501,return,1.7441499000415206,4,0,0,1,0.32,0.24,return,1.6619947999715805,-14,0,0.32,0.24,,,,,,,,,,,,,,,,,,,,,,,,,,,,,,,,,,,,,,,,,,,,,,,,,,,,,,,,4727MG,train_y,blue_star,top_right,2025-09-13_16h46.10.980,HideSeek_v1,2022.2.5,59.92925949366861,
,6,8,6,5,0,-3,64,,train_dim1_1,7,30,,,,2,0,2,0,,,,,,,,,0,0,0,0,0,6,6,6,0,0,0,0,,,,,,,,,,,,,,,,,,,,,,,,,stimuli/alien_stimuli/64.png,,,,,,,,,,,,,,,,,,,,,,,,,,,,,stimuli/alien_stimuli/62.png,62,6,8,,,,,,,30,,,,,,,,461.6779213999398,461.6779213999398,461.6779213999398,461.6779213999398,461.6779213999398,down,2.057532100006938,4,0,0,99,0.32,0.15999999999999998,down,1.973719400120899,,,,,460.1271897999104,461.6779213999398,0.32,0.24,0.08,0.0,0.28,0.32,0.32,0.32,0.24,458.40434639994055,458.40434639994055,458.40434639994055,458.40434639994055,458.40434639994055,458.40434639994055,458.40434639994055,458.40434639994055,458.3922925799619,1.8205938001628965,return,1.7057511999737471,,,,,,,,,,,,,,,,,,,,,,,,,,,,,,,,,4727MG,train_y,blue_star,top_right,2025-09-13_16h46.10.980,HideSeek_v1,2022.2.5,59.92925949366861,
,6,8,6,5,0,-3,64,,train_dim1_1,7,30,,,,2,0,2,0,,,,,,,,,0,0,0,0,0,6,6,6,1,0,1,0,,,,,,,,,,,,,,,,,,,,,,,,,,,,,,,,,,,,,,,,,,,,,,,,,,,,,,,,,,,,,,,,30,,,,,,,,463.743640499888,463.743640499888,463.743640499888,463.743640499888,463.743640499888,down,0.3930005000438541,4,0,0,99,0.32,0.07999999999999997,down,0.3129278002306819,,,,,,,,,,,,,,,,,,,,,,,,,,,,,,,,,,,,,,,,,,,,,,,,,,,,,,,,,,,,4727MG,train_y,blue_star,top_right,2025-09-13_16h46.10.980,HideSeek_v1,2022.2.5,59.92925949366861,
,6,8,6,5,0,-3,64,,train_dim1_1,7,30,,,,2,0,2,0,,,,,,,,,0,0,0,0,0,6,6,6,2,0,2,0,,,,,,,,,,,,,,,,,,,,,,,,,,,,,,,,,,,,,,,,,,,,,,,,,,,,,,,,,,,,,,,,30,,,,,,,,464.14711789996363,464.14711789996363,464.14711789996363,464.14711789996363,464.14711789996363,down,0.3400338999927044,4,0,0,99,0.32,-2.7755575615628914e-17,down,0.2548603001050651,,,,,,,,,,,,,,,,,,,,,,,,,,,,,,,,,,,,,,,,,,,,,,,,,,,,,,,,,,,,4727MG,train_y,blue_star,top_right,2025-09-13_16h46.10.980,HideSeek_v1,2022.2.5,59.92925949366861,
,6,8,6,5,0,-3,64,,train_dim1_1,7,30,,,,2,0,2,0,,,,,,,,,0,0,0,0,0,6,6,6,3,0,3,0,,,,,,,,,,,,,,,,,,,,,,,,,,,,,,,,,,,,,,,,,,,,,,,,,,,,,,,,,,,,,,,,30,,,,,,,,464.49500570003875,464.49500570003875,464.49500570003875,464.49500570003875,464.49500570003875,return,0.3602210998069495,5,0,0,1,0.32,-2.7755575615628914e-17,return,0.2862082002684474,-17,0,0.32,-2.7755575615628914e-17,,,,,,,,,,,,,,,,,,,,,,,,,,,,,,,,,,,,,,,,,,,,,,,,,,,,,,,,4727MG,train_y,blue_star,top_right,2025-09-13_16h46.10.980,HideSeek_v1,2022.2.5,59.92925949366861,
,9,7,9,7,0,0,61,,train_dim1_1,8,30,,,,2,0,2,0,,,,,,,,,0,0,0,0,0,7,7,7,0,0,0,0,,,,,,,,,,,,,,,,,,,,,,,,,stimuli/alien_stimuli/61.png,,,,,,,,,,,,,,,,,,,,,,,,,,,,,stimuli/alien_stimuli/64.png,64,6,9,,,,,,,30,,,,,,,,469.61887430003844,469.61887430003844,469.61887430003844,469.61887430003844,469.61887430003844,return,2.8275339000392705,6,0,0,1,0.56,0.16,return,2.746548200258985,-17,0,0.56,0.16,468.0503364999313,469.61887430003844,0.32,0,0.24,0.0,0.12,0.32,0.32,0.32,0,466.4198292000219,466.4198292000219,466.4198292000219,466.4198292000219,466.4198292000219,466.4198292000219,466.4198292000219,466.4198292000219,466.4153346600476,1.7374552001710981,return,1.6100419003050774,,,,,,,,,,,,,,,,,,,,,,,,,,,,,,,,,4727MG,train_y,blue_star,top_right,2025-09-13_16h46.10.980,HideSeek_v1,2022.2.5,59.92925949366861,
,9,8,9,4,0,-4,65,,train_dim1_1,9,30,,,,2,0,2,0,,,,,,,,,0,0,0,0,0,8,8,8,0,0,0,0,,,,,,,,,,,,,,,,,,,,,,,,,stimuli/alien_stimuli/65.png,,,,,,,,,,,,,,,,,,,,,,,,,,,,,stimuli/alien_stimuli/61.png,61,9,10,,,,,,,30,,,,,,,,476.3868474001065,476.3868474001065,476.3868474001065,476.3868474001065,476.3868474001065,down,1.4039306999184191,6,0,0,99,0.56,0.15999999999999998,down,1.3213395001366735,,,,,474.82275660010055,476.3868474001065,0.56,0.16,0.0,0.0,0.16,0.56,0.56,0.56,0.16,474.0130513999611,474.0130513999611,474.0130513999611,474.0130513999611,474.0130513999611,474.0130513999611,474.0130513999611,474.0130513999611,474.0051145798992,0.9035719998646528,return,0.786212099948898,,,,,,,,,,,,,,,,,,,,,,,,,,,,,,,,,4727MG,train_y,blue_star,top_right,2025-09-13_16h46.10.980,HideSeek_v1,2022.2.5,59.92925949366861,
,9,8,9,4,0,-4,65,,train_dim1_1,9,30,,,,2,0,2,0,,,,,,,,,0,0,0,0,0,8,8,8,1,0,1,0,,,,,,,,,,,,,,,,,,,,,,,,,,,,,,,,,,,,,,,,,,,,,,,,,,,,,,,,,,,,,,,,30,,,,,,,,477.78815710009076,477.78815710009076,477.78815710009076,477.78815710009076,477.78815710009076,down,0.359882699791342,6,0,0,99,0.56,0.07999999999999997,down,0.28568580001592636,,,,,,,,,,,,,,,,,,,,,,,,,,,,,,,,,,,,,,,,,,,,,,,,,,,,,,,,,,,,4727MG,train_y,blue_star,top_right,2025-09-13_16h46.10.980,HideSeek_v1,2022.2.5,59.92925949366861,
,9,8,9,4,0,-4,65,,train_dim1_1,9,30,,,,2,0,2,0,,,,,,,,,0,0,0,0,0,8,8,8,2,0,2,0,,,,,,,,,,,,,,,,,,,,,,,,,,,,,,,,,,,,,,,,,,,,,,,,,,,,,,,,,,,,,,,,30,,,,,,,,478.15575110004283,478.15575110004283,478.15575110004283,478.15575110004283,478.15575110004283,down,0.37672329996712506,6,0,0,99,0.56,-2.7755575615628914e-17,down,0.2933904000092298,,,,,,,,,,,,,,,,,,,,,,,,,,,,,,,,,,,,,,,,,,,,,,,,,,,,,,,,,,,,4727MG,train_y,blue_star,top_right,2025-09-13_16h46.10.980,HideSeek_v1,2022.2.5,59.92925949366861,
,9,8,9,4,0,-4,65,,train_dim1_1,9,30,,,,2,0,2,0,,,,,,,,,0,0,0,0,0,8,8,8,3,0,3,0,,,,,,,,,,,,,,,,,,,,,,,,,,,,,,,,,,,,,,,,,,,,,,,,,,,,,,,,,,,,,,,,30,,,,,,,,478.54227970005013,478.54227970005013,478.54227970005013,478.54227970005013,478.54227970005013,down,0.3081304000224918,6,0,0,99,0.56,-0.08000000000000003,down,0.23471270012669265,,,,,,,,,,,,,,,,,,,,,,,,,,,,,,,,,,,,,,,,,,,,,,,,,,,,,,,,,,,,4727MG,train_y,blue_star,top_right,2025-09-13_16h46.10.980,HideSeek_v1,2022.2.5,59.92925949366861,
,9,8,9,4,0,-4,65,,train_dim1_1,9,30,,,,2,0,2,0,,,,,,,,,0,0,0,0,0,8,8,8,4,0,4,0,,,,,,,,,,,,,,,,,,,,,,,,,,,,,,,,,,,,,,,,,,,,,,,,,,,,,,,,,,,,,,,,30,,,,,,,,478.8606263999827,478.8606263999827,478.8606263999827,478.8606263999827,478.8606263999827,return,1.0747006998863071,7,0,0,1,0.56,-0.08000000000000003,return,0.9898343002423644,-21,0,0.56,-0.08000000000000003,,,,,,,,,,,,,,,,,,,,,,,,,,,,,,,,,,,,,,,,,,,,,,,,,,,,,,,,4727MG,train_y,blue_star,top_right,2025-09-13_16h46.10.980,HideSeek_v1,2022.2.5,59.92925949366861,
,7,7,7,2,0,-5,66,,train_dim1_1,10,30,,,,2,0,2,0,,,,,,,,,0,0,0,0,0,9,9,9,0,0,0,0,,,,,,,,,,,,,,,,,,,,,,,,,stimuli/alien_stimuli/66.png,,,,,,,,,,,,,,,,,,,,,,,,,,,,,stimuli/alien_stimuli/65.png,65,9,11,,,,,,,30,,,,,,,,485.28152359998785,485.28152359998785,485.28152359998785,485.28152359998785,485.28152359998785,return,0.8900899000000209,7,0,0,0,0.4,0.16,return,0.816596900112927,-21,0,0.4,0.16,483.7298493999988,485.28152359998785,0.56,-0.08,0.32,0.0,0.07999999999999999,0.56,0.56,0.56,-0.08,481.4839059000369,481.4839059000369,481.4839059000369,481.4839059000369,481.4839059000369,481.4839059000369,481.4839059000369,481.4839059000369,481.4783088800963,2.3373873999807984,return,2.215078700101003,,,,,,,,,,,,,,,,,,,,,,,,,,,,,,,,,4727MG,train_y,blue_star,top_right,2025-09-13_16h46.10.980,HideSeek_v1,2022.2.5,59.92925949366861,
,9,6,9,2,0,-4,65,,train_dim1_1,11,30,,,,2,0,2,0,,,,,,,,,0,0,0,0,0,10,10,10,0,0,0,0,,,,,,,,,,,,,,,,,,,,,,,,,stimuli/alien_stimuli/65.png,,,,,,,,,,,,,,,,,,,,,,,,,,,,,stimuli/alien_stimuli/66.png,66,7,12,,,,,,,30,,,,,,,,491.92136849998496,491.92136849998496,491.92136849998496,491.92136849998496,491.92136849998496,down,7.4618053999729455,7,0,0,99,0.56,0.0,down,7.378583600046113,,,,,490.3686486000661,491.92136849998496,0.4,-0.24,0.4,0.0,-0.039999999999999994,0.4,0.4,0.4,-0.24,487.7246970999986,487.7246970999986,487.7246970999986,487.7246970999986,487.7246970999986,487.7246970999986,487.7246970999986,487.7246970999986,487.716723780008,2.7378774997778237,return,2.6188223999924958,,,,,,,,,,,,,,,,,,,,,,,,,,,,,,,,,4727MG,train_y,blue_star,top_right,2025-09-13_16h46.10.980,HideSeek_v1,2022.2.5,59.92925949366861,
,9,6,9,2,0,-4,65,,train_dim1_1,11,30,,,,2,0,2,0,,,,,,,,,0,0,0,0,0,10,10,10,1,0,1,0,,,,,,,,,,,,,,,,,,,,,,,,,,,,,,,,,,,,,,,,,,,,,,,,,,,,,,,,,,,,,,,,30,,,,,,,,499.3914359000046,499.3914359000046,499.3914359000046,499.3914359000046,499.3914359000046,down,0.4266778000164777,7,0,0,99,0.56,-0.08,down,0.3516810000874102,,,,,,,,,,,,,,,,,,,,,,,,,,,,,,,,,,,,,,,,,,,,,,,,,,,,,,,,,,,,4727MG,train_y,blue_star,top_right,2025-09-13_16h46.10.980,HideSeek_v1,2022.2.5,59.92925949366861,
,9,6,9,2,0,-4,65,,train_dim1_1,11,30,,,,2,0,2,0,,,,,,,,,0,0,0,0,0,10,10,10,2,0,2,0,,,,,,,,,,,,,,,,,,,,,,,,,,,,,,,,,,,,,,,,,,,,,,,,,,,,,,,,,,,,,,,,30,,,,,,,,499.82475359993987,499.82475359993987,499.82475359993987,499.82475359993987,499.82475359993987,down,0.5599454001057893,7,0,0,99,0.56,-0.16,down,0.48379840003326535,,,,,,,,,,,,,,,,,,,,,,,,,,,,,,,,,,,,,,,,,,,,,,,,,,,,,,,,,,,,4727MG,train_y,blue_star,top_right,2025-09-13_16h46.10.980,HideSeek_v1,2022.2.5,59.92925949366861,
,9,6,9,2,0,-4,65,,train_dim1_1,11,30,,,,2,0,2,0,,,,,,,,,0,0,0,0,0,10,10,10,3,0,3,0,,,,,,,,,,,,,,,,,,,,,,,,,,,,,,,,,,,,,,,,,,,,,,,,,,,,,,,,,,,,,,,,30,,,,,,,,500.39100129995495,500.39100129995495,500.39100129995495,500.39100129995495,500.39100129995495,down,0.3765906998887658,7,0,0,99,0.56,-0.24,down,0.288420099997893,,,,,,,,,,,,,,,,,,,,,,,,,,,,,,,,,,,,,,,,,,,,,,,,,,,,,,,,,,,,4727MG,train_y,blue_star,top_right,2025-09-13_16h46.10.980,HideSeek_v1,2022.2.5,59.92925949366861,
,9,6,9,2,0,-4,65,,train_dim1_1,11,30,,,,2,0,2,0,,,,,,,,,0,0,0,0,0,10,10,10,4,0,4,0,,,,,,,,,,,,,,,,,,,,,,,,,,,,,,,,,,,,,,,,,,,,,,,,,,,,,,,,,,,,,,,,30,,,,,,,,500.7765595000237,500.7765595000237,500.7765595000237,500.7765595000237,500.7765595000237,return,0.44236449990421534,8,0,0,1,0.56,-0.24,return,0.3563099002931267,-25,0,0.56,-0.24,,,,,,,,,,,,,,,,,,,,,,,,,,,,,,,,,,,,,,,,,,,,,,,,,,,,,,,,4727MG,train_y,blue_star,top_right,2025-09-13_16h46.10.980,HideSeek_v1,2022.2.5,59.92925949366861,
,5,5,5,5,0,0,61,,train_dim1_1,12,30,,,,2,0,2,0,,,,,,,,,0,0,0,0,0,11,11,11,0,0,0,0,,,,,,,,,,,,,,,,,,,,,,,,,stimuli/alien_stimuli/61.png,,,,,,,,,,,,,,,,,,,,,,,,,,,,,stimuli/alien_stimuli/65.png,65,9,13,,,,,,,30,,,,,,,,505.53560449997894,505.53560449997894,505.53560449997894,505.53560449997894,505.53560449997894,down,2.639192800037563,8,0,0,99,0.24,-0.08,down,2.559468800202012,,,,,503.98029419989325,505.53560449997894,0.56,-0.24,0.32,0.0,-0.07999999999999999,0.56,0.56,0.56,-0.24,502.78394469991326,502.78394469991326,502.78394469991326,502.78394469991326,502.78394469991326,502.78394469991326,502.78394469991326,502.78394469991326,502.77940756008024,1.303216600092128,return,1.1785665000788867,,,,,,,,,,,,,,,,,,,,,,,,,,,,,,,,,4727MG,train_y,blue_star,top_right,2025-09-13_16h46.10.980,HideSeek_v1,2022.2.5,59.92925949366861,
,5,5,5,5,0,0,61,,train_dim1_1,12,30,,,,2,0,2,0,,,,,,,,,0,0,0,0,0,11,11,11,1,0,1,0,,,,,,,,,,,,,,,,,,,,,,,,,,,,,,,,,,,,,,,,,,,,,,,,,,,,,,,,,,,,,,,,30,,,,,,,,508.1824950000737,508.1824950000737,508.1824950000737,508.1824950000737,508.1824950000737,down,0.3082721000537276,8,0,0,99,0.24,-0.16,down,0.22737570013850927,,,,,,,,,,,,,,,,,,,,,,,,,,,,,,,,,,,,,,,,,,,,,,,,,,,,,,,,,,,,4727MG,train_y,blue_star,top_right,2025-09-13_16h46.10.980,HideSeek_v1,2022.2.5,59.92925949366861,
,5,5,5,5,0,0,61,,train_dim1_1,12,30,,,,2,0,2,0,,,,,,,,,0,0,0,0,0,11,11,11,2,0,2,0,,,,,,,,,,,,,,,,,,,,,,,,,,,,,,,,,,,,,,,,,,,,,,,,,,,,,,,,,,,,,,,,30,,,,,,,,508.49728009989485,508.49728009989485,508.49728009989485,508.49728009989485,508.49728009989485,down,0.3098901000339538,8,0,0,99,0.24,-0.24,down,0.23243990004993975,,,,,,,,,,,,,,,,,,,,,,,,,,,,,,,,,,,,,,,,,,,,,,,,,,,,,,,,,,,,4727MG,train_y,blue_star,top_right,2025-09-13_16h46.10.980,HideSeek_v1,2022.2.5,59.92925949366861,
,5,5,5,5,0,0,61,,train_dim1_1,12,30,,,,2,0,2,0,,,,,,,,,0,0,0,0,0,11,11,11,3,0,3,0,,,,,,,,,,,,,,,,,,,,,,,,,,,,,,,,,,,,,,,,,,,,,,,,,,,,,,,,,,,,,,,,30,,,,,,,,508.81568969995715,508.81568969995715,508.81568969995715,508.81568969995715,508.81568969995715,up,1.126521399943158,8,0,0,99,0.24,-0.15999999999999998,up,1.0505387000739574,,,,,,,,,,,,,,,,,,,,,,,,,,,,,,,,,,,,,,,,,,,,,,,,,,,,,,,,,,,,4727MG,train_y,blue_star,top_right,2025-09-13_16h46.10.980,HideSeek_v1,2022.2.5,59.92925949366861,
,5,5,5,5,0,0,61,,train_dim1_1,12,30,,,,2,0,2,0,,,,,,,,,0,0,0,0,0,11,11,11,4,0,4,0,,,,,,,,,,,,,,,,,,,,,,,,,,,,,,,,,,,,,,,,,,,,,,,,,,,,,,,,,,,,,,,,30,,,,,,,,509.9480828999076,509.9480828999076,509.9480828999076,509.9480828999076,509.9480828999076,up,0.3268600001465529,8,0,0,99,0.24,-0.07999999999999997,up,0.24992810026742518,,,,,,,,,,,,,,,,,,,,,,,,,,,,,,,,,,,,,,,,,,,,,,,,,,,,,,,,,,,,4727MG,train_y,blue_star,top_right,2025-09-13_16h46.10.980,HideSeek_v1,2022.2.5,59.92925949366861,
,5,5,5,5,0,0,61,,train_dim1_1,12,30,,,,2,0,2,0,,,,,,,,,0,0,0,0,0,11,11,11,5,0,5,0,,,,,,,,,,,,,,,,,,,,,,,,,,,,,,,,,,,,,,,,,,,,,,,,,,,,,,,,,,,,,,,,30,,,,,,,,510.2829783000052,510.2829783000052,510.2829783000052,510.2829783000052,510.2829783000052,return,1.1439137000124902,8,1,0,0,0.24,-0.07999999999999997,return,1.0628818001132458,-26,0,0.24,-0.07999999999999997,,,,,,,,,,,,,,,,,,,,,,,,,,,,,,,,,,,,,,,,,,,,,,,,,,,,,,,,4727MG,train_y,blue_star,top_right,2025-09-13_16h46.10.980,HideSeek_v1,2022.2.5,59.92925949366861,
,9,8,9,7,0,-1,62,,train_dim1_1,13,30,,,,2,0,2,0,,,,,,,,,0,0,0,0,0,12,12,12,0,0,0,0,,,,,,,,,,,,,,,,,,,,,,,,,stimuli/alien_stimuli/62.png,,,,,,,,,,,,,,,,,,,,,,,,,,,,,stimuli/alien_stimuli/61.png,61,5,14,,,,,,,30,,,,,,,,517.1451363000087,517.1451363000087,517.1451363000087,517.1451363000087,517.1451363000087,down,2.0051973001100123,8,1,0,99,0.56,0.15999999999999998,down,1.9187504001893103,,,,,515.5898635000922,517.1451363000087,0.24,0,0.0,0.0,0.0,0.24,0.24,0.24,0,512.9812394999899,512.9812394999899,512.9812394999899,512.9812394999899,512.9812394999899,512.9812394999899,512.9812394999899,512.9812394999899,512.9707871799823,2.704973200103268,return,2.5919107999652624,,,,,,,,,,,,,,,,,,,,,,,,,,,,,,,,,4727MG,train_y,blue_star,top_right,2025-09-13_16h46.10.980,HideSeek_v1,2022.2.5,59.92925949366861,
,9,8,9,7,0,-1,62,,train_dim1_1,13,30,,,,2,0,2,0,,,,,,,,,0,0,0,0,0,12,12,12,1,0,1,0,,,,,,,,,,,,,,,,,,,,,,,,,,,,,,,,,,,,,,,,,,,,,,,,,,,,,,,,,,,,,,,,30,,,,,,,,519.1756047001109,519.1756047001109,519.1756047001109,519.1756047001109,519.1756047001109,return,0.23917689989320934,9,0,0,1,0.56,0.15999999999999998,return,0.14295390015468,-27,0,0.56,0.15999999999999998,,,,,,,,,,,,,,,,,,,,,,,,,,,,,,,,,,,,,,,,,,,,,,,,,,,,,,,,4727MG,train_y,blue_star,top_right,2025-09-13_16h46.10.980,HideSeek_v1,2022.2.5,59.92925949366861,
,7,7,7,2,0,-5,66,,train_dim1_1,14,30,,,,2,0,2,0,,,,,,,,,0,0,0,0,0,13,13,13,0,0,0,0,,,,,,,,,,,,,,,,,,,,,,,,,stimuli/alien_stimuli/66.png,,,,,,,,,,,,,,,,,,,,,,,,,,,,,stimuli/alien_stimuli/62.png,62,9,15,,,,,,,30,,,,,,,,523.9312432999723,523.9312432999723,523.9312432999723,523.9312432999723,523.9312432999723,down,1.3565736999735236,9,0,0,99,0.4,0.08,down,1.2782709000166506,,,,,522.3787390000653,523.9312432999723,0.56,0.16,0.08,0.0,0.2,0.56,0.56,0.56,0.16,520.9544259998947,520.9544259998947,520.9544259998947,520.9544259998947,520.9544259998947,520.9544259998947,520.9544259998947,520.9544259998947,520.9441516800783,1.5201447999570519,return,1.3994831999298185,,,,,,,,,,,,,,,,,,,,,,,,,,,,,,,,,4727MG,train_y,blue_star,top_right,2025-09-13_16h46.10.980,HideSeek_v1,2022.2.5,59.92925949366861,
,7,7,7,2,0,-5,66,,train_dim1_1,14,30,,,,2,0,2,0,,,,,,,,,0,0,0,0,0,13,13,13,1,0,1,0,,,,,,,,,,,,,,,,,,,,,,,,,,,,,,,,,,,,,,,,,,,,,,,,,,,,,,,,,,,,,,,,30,,,,,,,,525.2948694999795,525.2948694999795,525.2948694999795,525.2948694999795,525.2948694999795,down,0.3430222000461072,9,0,0,99,0.4,0.0,down,0.25755580002442,,,,,,,,,,,,,,,,,,,,,,,,,,,,,,,,,,,,,,,,,,,,,,,,,,,,,,,,,,,,4727MG,train_y,blue_star,top_right,2025-09-13_16h46.10.980,HideSeek_v1,2022.2.5,59.92925949366861,
,7,7,7,2,0,-5,66,,train_dim1_1,14,30,,,,2,0,2,0,,,,,,,,,0,0,0,0,0,13,13,13,2,0,2,0,,,,,,,,,,,,,,,,,,,,,,,,,,,,,,,,,,,,,,,,,,,,,,,,,,,,,,,,,,,,,,,,30,,,,,,,,525.6459902999923,525.6459902999923,525.6459902999923,525.6459902999923,525.6459902999923,down,0.34293339983560145,9,0,0,99,0.4,-0.08,down,0.26201200019568205,,,,,,,,,,,,,,,,,,,,,,,,,,,,,,,,,,,,,,,,,,,,,,,,,,,,,,,,,,,,4727MG,train_y,blue_star,top_right,2025-09-13_16h46.10.980,HideSeek_v1,2022.2.5,59.92925949366861,
,7,7,7,2,0,-5,66,,train_dim1_1,14,30,,,,2,0,2,0,,,,,,,,,0,0,0,0,0,13,13,13,3,0,3,0,,,,,,,,,,,,,,,,,,,,,,,,,,,,,,,,,,,,,,,,,,,,,,,,,,,,,,,,,,,,,,,,30,,,,,,,,525.9955293000676,525.9955293000676,525.9955293000676,525.9955293000676,525.9955293000676,down,0.30951940012164414,9,0,0,99,0.4,-0.16,down,0.2210540003143251,,,,,,,,,,,,,,,,,,,,,,,,,,,,,,,,,,,,,,,,,,,,,,,,,,,,,,,,,,,,4727MG,train_y,blue_star,top_right,2025-09-13_16h46.10.980,HideSeek_v1,2022.2.5,59.92925949366861,
,7,7,7,2,0,-5,66,,train_dim1_1,14,30,,,,2,0,2,0,,,,,,,,,0,0,0,0,0,13,13,13,4,0,4,0,,,,,,,,,,,,,,,,,,,,,,,,,,,,,,,,,,,,,,,,,,,,,,,,,,,,,,,,,,,,,,,,30,,,,,,,,526.3127927999012,526.3127927999012,526.3127927999012,526.3127927999012,526.3127927999012,down,0.2759511999320239,9,0,0,99,0.4,-0.24,down,0.20278930012136698,,,,,,,,,,,,,,,,,,,,,,,,,,,,,,,,,,,,,,,,,,,,,,,,,,,,,,,,,,,,4727MG,train_y,blue_star,top_right,2025-09-13_16h46.10.980,HideSeek_v1,2022.2.5,59.92925949366861,
,7,7,7,2,0,-5,66,,train_dim1_1,14,30,,,,2,0,2,0,,,,,,,,,0,0,0,0,0,13,13,13,5,0,5,0,,,,,,,,,,,,,,,,,,,,,,,,,,,,,,,,,,,,,,,,,,,,,,,,,,,,,,,,,,,,,,,,30,,,,,,,,526.5996262999251,526.5996262999251,526.5996262999251,526.5996262999251,526.5996262999251,return,0.40822479990310967,10,0,0,1,0.4,-0.24,return,0.32821000018157065,-32,0,0.4,-0.24,,,,,,,,,,,,,,,,,,,,,,,,,,,,,,,,,,,,,,,,,,,,,,,,,,,,,,,,4727MG,train_y,blue_star,top_right,2025-09-13_16h46.10.980,HideSeek_v1,2022.2.5,59.92925949366861,
,6,9,6,6,0,-3,64,,train_dim1_1,15,30,,,,2,0,2,0,,,,,,,,,0,0,0,0,0,14,14,14,0,0,0,0,,,,,,,,,,,,,,,,,,,,,,,,,stimuli/alien_stimuli/64.png,,,,,,,,,,,,,,,,,,,,,,,,,,,,,stimuli/alien_stimuli/66.png,66,7,16,,,,,,,30,,,,,,,,531.8725266000256,531.8725266000256,531.8725266000256,531.8725266000256,531.8725266000256,down,1.3713038999121636,10,0,0,99,0.32,0.24,down,1.2940189000219107,,,,,530.3185926999431,531.8725266000256,0.4,-0.24,0.4,0.0,-0.039999999999999994,0.4,0.4,0.4,-0.24,528.5758110000752,528.5758110000752,528.5758110000752,528.5758110000752,528.5758110000752,528.5758110000752,528.5758110000752,528.5758110000752,528.5674049600027,1.8538923999294639,return,1.7197351001668721,,,,,,,,,,,,,,,,,,,,,,,,,,,,,,,,,4727MG,train_y,blue_star,top_right,2025-09-13_16h46.10.980,HideSeek_v1,2022.2.5,59.92925949366861,
,6,9,6,6,0,-3,64,,train_dim1_1,15,30,,,,2,0,2,0,,,,,,,,,0,0,0,0,0,14,14,14,1,0,1,0,,,,,,,,,,,,,,,,,,,,,,,,,,,,,,,,,,,,,,,,,,,,,,,,,,,,,,,,,,,,,,,,30,,,,,,,,533.2516892000567,533.2516892000567,533.2516892000567,533.2516892000567,533.2516892000567,down,1.310341800097376,10,0,0,99,0.32,0.15999999999999998,down,1.236087900120765,,,,,,,,,,,,,,,,,,,,,,,,,,,,,,,,,,,,,,,,,,,,,,,,,,,,,,,,,,,,4727MG,train_y,blue_star,top_right,2025-09-13_16h46.10.980,HideSeek_v1,2022.2.5,59.92925949366861,
,6,9,6,6,0,-3,64,,train_dim1_1,15,30,,,,2,0,2,0,,,,,,,,,0,0,0,0,0,14,14,14,2,0,2,0,,,,,,,,,,,,,,,,,,,,,,,,,,,,,,,,,,,,,,,,,,,,,,,,,,,,,,,,,,,,,,,,30,,,,,,,,534.5697631998919,534.5697631998919,534.5697631998919,534.5697631998919,534.5697631998919,down,0.2930978999938816,10,0,0,99,0.32,0.07999999999999997,down,0.20459690014831722,,,,,,,,,,,,,,,,,,,,,,,,,,,,,,,,,,,,,,,,,,,,,,,,,,,,,,,,,,,,4727MG,train_y,blue_star,top_right,2025-09-13_16h46.10.980,HideSeek_v1,2022.2.5,59.92925949366861,
,6,9,6,6,0,-3,64,,train_dim1_1,15,30,,,,2,0,2,0,,,,,,,,,0,0,0,0,0,14,14,14,3,0,3,0,,,,,,,,,,,,,,,,,,,,,,,,,,,,,,,,,,,,,,,,,,,,,,,,,,,,,,,,,,,,,,,,30,,,,,,,,534.8690615000669,534.8690615000669,534.8690615000669,534.8690615000669,534.8690615000669,return,1.09364670002833,11,0,0,1,0.32,0.07999999999999997,return,1.0107309999875724,-35,0,0.32,0.07999999999999997,,,,,,,,,,,,,,,,,,,,,,,,,,,,,,,,,,,,,,,,,,,,,,,,,,,,,,,,4727MG,train_y,blue_star,top_right,2025-09-13_16h46.10.980,HideSeek_v1,2022.2.5,59.92925949366861,
,9,5,9,1,0,-4,65,,train_dim1_1,16,30,,,,2,0,2,0,,,,,,,,,0,0,0,0,0,15,15,15,0,0,0,0,,,,,,,,,,,,,,,,,,,,,,,,,stimuli/alien_stimuli/65.png,,,,,,,,,,,,,,,,,,,,,,,,,,,,,stimuli/alien_stimuli/64.png,64,6,17,,,,,,,30,,,,,,,,539.995172600029,539.995172600029,539.995172600029,539.995172600029,539.995172600029,down,1.1383831000421196,11,0,0,99,0.56,-0.08,down,1.0577387001831084,,,,,538.4421602000948,539.995172600029,0.32,0.08,0.24,0.0,0.2,0.32,0.32,0.32,0.08,537.5139597000089,537.5139597000089,537.5139597000089,537.5139597000089,537.5139597000089,537.5139597000089,537.5139597000089,537.5139597000089,537.5079913799185,1.0193594999145716,return,0.9040155000984669,,,,,,,,,,,,,,,,,,,,,,,,,,,,,,,,,4727MG,train_y,blue_star,top_right,2025-09-13_16h46.10.980,HideSeek_v1,2022.2.5,59.92925949366861,
,9,5,9,1,0,-4,65,,train_dim1_1,16,30,,,,2,0,2,0,,,,,,,,,0,0,0,0,0,15,15,15,1,0,1,0,,,,,,,,,,,,,,,,,,,,,,,,,,,,,,,,,,,,,,,,,,,,,,,,,,,,,,,,,,,,,,,,30,,,,,,,,541.1412762999535,541.1412762999535,541.1412762999535,541.1412762999535,541.1412762999535,down,0.37622079998254776,11,0,0,99,0.56,-0.16,down,0.2960177001077682,,,,,,,,,,,,,,,,,,,,,,,,,,,,,,,,,,,,,,,,,,,,,,,,,,,,,,,,,,,,4727MG,train_y,blue_star,top_right,2025-09-13_16h46.10.980,HideSeek_v1,2022.2.5,59.92925949366861,
,9,5,9,1,0,-4,65,,train_dim1_1,16,30,,,,2,0,2,0,,,,,,,,,0,0,0,0,0,15,15,15,2,0,2,0,,,,,,,,,,,,,,,,,,,,,,,,,,,,,,,,,,,,,,,,,,,,,,,,,,,,,,,,,,,,,,,,30,,,,,,,,541.525583300041,541.525583300041,541.525583300041,541.525583300041,541.525583300041,down,0.2931113999802619,11,0,0,99,0.56,-0.24,down,0.21870560012757778,,,,,,,,,,,,,,,,,,,,,,,,,,,,,,,,,,,,,,,,,,,,,,,,,,,,,,,,,,,,4727MG,train_y,blue_star,top_right,2025-09-13_16h46.10.980,HideSeek_v1,2022.2.5,59.92925949366861,
,9,5,9,1,0,-4,65,,train_dim1_1,16,30,,,,2,0,2,0,,,,,,,,,0,0,0,0,0,15,15,15,3,0,3,0,,,,,,,,,,,,,,,,,,,,,,,,,,,,,,,,,,,,,,,,,,,,,,,,,,,,,,,,,,,,,,,,30,,,,,,,,541.8255175999366,541.8255175999366,541.8255175999366,541.8255175999366,541.8255175999366,down,0.4102508998475969,11,0,0,99,0.56,-0.32,down,0.3315869001671672,,,,,,,,,,,,,,,,,,,,,,,,,,,,,,,,,,,,,,,,,,,,,,,,,,,,,,,,,,,,4727MG,train_y,blue_star,top_right,2025-09-13_16h46.10.980,HideSeek_v1,2022.2.5,59.92925949366861,
,9,5,9,1,0,-4,65,,train_dim1_1,16,30,,,,2,0,2,0,,,,,,,,,0,0,0,0,0,15,15,15,4,0,4,0,,,,,,,,,,,,,,,,,,,,,,,,,,,,,,,,,,,,,,,,,,,,,,,,,,,,,,,,,,,,,,,,30,,,,,,,,542.2422305000946,542.2422305000946,542.2422305000946,542.2422305000946,542.2422305000946,return,0.7437742999754846,12,0,0,1,0.56,-0.32,return,0.6680678001139313,-39,0,0.56,-0.32,,,,,,,,,,,,,,,,,,,,,,,,,,,,,,,,,,,,,,,,,,,,,,,,,,,,,,,,4727MG,train_y,blue_star,top_right,2025-09-13_16h46.10.980,HideSeek_v1,2022.2.5,59.92925949366861,
,8,8,8,5,0,-3,64,,train_dim1_1,17,30,,,,2,0,2,0,,,,,,,,,0,0,0,0,0,16,16,16,0,0,0,0,,,,,,,,,,,,,,,,,,,,,,,,,stimuli/alien_stimuli/64.png,,,,,,,,,,,,,,,,,,,,,,,,,,,,,stimuli/alien_stimuli/65.png,65,9,18,,,,,,,30,,,,,,,,547.0169927999377,547.0169927999377,547.0169927999377,547.0169927999377,547.0169927999377,down,0.9553688999731094,12,0,0,99,0.48,0.15999999999999998,down,0.872017600107938,,,,,545.4643588999752,547.0169927999377,0.56,-0.32,0.32,0.0,-0.16,0.56,0.56,0.56,-0.32,544.539741500048,544.539741500048,544.539741500048,544.539741500048,544.539741500048,544.539741500048,544.539741500048,544.539741500048,544.5311324799899,1.01899450016208,return,0.8948058001697063,,,,,,,,,,,,,,,,,,,,,,,,,,,,,,,,,4727MG,train_y,blue_star,top_right,2025-09-13_16h46.10.980,HideSeek_v1,2022.2.5,59.92925949366861,
,8,8,8,5,0,-3,64,,train_dim1_1,17,30,,,,2,0,2,0,,,,,,,,,0,0,0,0,0,16,16,16,1,0,1,0,,,,,,,,,,,,,,,,,,,,,,,,,,,,,,,,,,,,,,,,,,,,,,,,,,,,,,,,,,,,,,,,30,,,,,,,,547.9808205999434,547.9808205999434,547.9808205999434,547.9808205999434,547.9808205999434,down,0.3427999000996351,12,0,0,99,0.48,0.07999999999999997,down,0.2692199000157416,,,,,,,,,,,,,,,,,,,,,,,,,,,,,,,,,,,,,,,,,,,,,,,,,,,,,,,,,,,,4727MG,train_y,blue_star,top_right,2025-09-13_16h46.10.980,HideSeek_v1,2022.2.5,59.92925949366861,
,8,8,8,5,0,-3,64,,train_dim1_1,17,30,,,,2,0,2,0,,,,,,,,,0,0,0,0,0,16,16,16,2,0,2,0,,,,,,,,,,,,,,,,,,,,,,,,,,,,,,,,,,,,,,,,,,,,,,,,,,,,,,,,,,,,,,,,30,,,,,,,,548.3332583999727,548.3332583999727,548.3332583999727,548.3332583999727,548.3332583999727,down,0.356702100019902,12,0,0,99,0.48,-2.7755575615628914e-17,down,0.2822602002415806,,,,,,,,,,,,,,,,,,,,,,,,,,,,,,,,,,,,,,,,,,,,,,,,,,,,,,,,,,,,4727MG,train_y,blue_star,top_right,2025-09-13_16h46.10.980,HideSeek_v1,2022.2.5,59.92925949366861,
,8,8,8,5,0,-3,64,,train_dim1_1,17,30,,,,2,0,2,0,,,,,,,,,0,0,0,0,0,16,16,16,3,0,3,0,,,,,,,,,,,,,,,,,,,,,,,,,,,,,,,,,,,,,,,,,,,,,,,,,,,,,,,,,,,,,,,,30,,,,,,,,548.6972159000579,548.6972159000579,548.6972159000579,548.6972159000579,548.6972159000579,return,0.4435121000278741,13,0,0,1,0.48,-2.7755575615628914e-17,return,0.35705830017104745,-42,0,0.48,-2.7755575615628914e-17,,,,,,,,,,,,,,,,,,,,,,,,,,,,,,,,,,,,,,,,,,,,,,,,,,,,,,,,4727MG,train_y,blue_star,top_right,2025-09-13_16h46.10.980,HideSeek_v1,2022.2.5,59.92925949366861,
,7,6,7,6,0,0,61,,train_dim1_1,18,30,,,,2,0,2,0,,,,,,,,,0,0,0,0,0,17,17,17,0,0,0,0,,,,,,,,,,,,,,,,,,,,,,,,,stimuli/alien_stimuli/61.png,,,,,,,,,,,,,,,,,,,,,,,,,,,,,stimuli/alien_stimuli/64.png,64,8,19,,,,,,,30,,,,,,,,553.1565431999043,553.1565431999043,553.1565431999043,553.1565431999043,553.1565431999043,down,0.9384218000341207,13,0,0,99,0.4,0.0,down,0.8499207003042102,,,,,551.6030204999261,553.1565431999043,0.48,0,0.24,0.0,0.12,0.48,0.48,0.48,0,550.6904056998901,550.6904056998901,550.6904056998901,550.6904056998901,550.6904056998901,550.6904056998901,550.6904056998901,550.6904056998901,550.685448580049,1.0031367999035865,return,0.8821282002609223,,,,,,,,,,,,,,,,,,,,,,,,,,,,,,,,,4727MG,train_y,blue_star,top_right,2025-09-13_16h46.10.980,HideSeek_v1,2022.2.5,59.92925949366861,
,7,6,7,6,0,0,61,,train_dim1_1,18,30,,,,2,0,2,0,,,,,,,,,0,0,0,0,0,17,17,17,1,0,1,0,,,,,,,,,,,,,,,,,,,,,,,,,,,,,,,,,,,,,,,,,,,,,,,,,,,,,,,,,,,,,,,,30,,,,,,,,554.1029081000015,554.1029081000015,554.1029081000015,554.1029081000015,554.1029081000015,down,0.35918850009329617,13,0,0,99,0.4,-0.08,down,0.2795452002901584,,,,,,,,,,,,,,,,,,,,,,,,,,,,,,,,,,,,,,,,,,,,,,,,,,,,,,,,,,,,4727MG,train_y,blue_star,top_right,2025-09-13_16h46.10.980,HideSeek_v1,2022.2.5,59.92925949366861,
,7,6,7,6,0,0,61,,train_dim1_1,18,30,,,,2,0,2,0,,,,,,,,,0,0,0,0,0,17,17,17,2,0,2,0,,,,,,,,,,,,,,,,,,,,,,,,,,,,,,,,,,,,,,,,,,,,,,,,,,,,,,,,,,,,,,,,30,,,,,,,,554.4710895998869,554.4710895998869,554.4710895998869,554.4710895998869,554.4710895998869,down,0.3750442999880761,13,0,0,99,0.4,-0.16,down,0.29659350006841123,,,,,,,,,,,,,,,,,,,,,,,,,,,,,,,,,,,,,,,,,,,,,,,,,,,,,,,,,,,,4727MG,train_y,blue_star,top_right,2025-09-13_16h46.10.980,HideSeek_v1,2022.2.5,59.92925949366861,
,7,6,7,6,0,0,61,,train_dim1_1,18,30,,,,2,0,2,0,,,,,,,,,0,0,0,0,0,17,17,17,3,0,3,0,,,,,,,,,,,,,,,,,,,,,,,,,,,,,,,,,,,,,,,,,,,,,,,,,,,,,,,,,,,,,,,,30,,,,,,,,554.8534113001078,554.8534113001078,554.8534113001078,554.8534113001078,554.8534113001078,up,1.6941837000194937,13,0,0,99,0.4,-0.08,up,1.6158917001448572,,,,,,,,,,,,,,,,,,,,,,,,,,,,,,,,,,,,,,,,,,,,,,,,,,,,,,,,,,,,4727MG,train_y,blue_star,top_right,2025-09-13_16h46.10.980,HideSeek_v1,2022.2.5,59.92925949366861,
,7,6,7,6,0,0,61,,train_dim1_1,18,30,,,,2,0,2,0,,,,,,,,,0,0,0,0,0,17,17,17,4,0,4,0,,,,,,,,,,,,,,,,,,,,,,,,,,,,,,,,,,,,,,,,,,,,,,,,,,,,,,,,,,,,,,,,30,,,,,,,,556.5538488999009,556.5538488999009,556.5538488999009,556.5538488999009,556.5538488999009,up,0.35987780010327697,13,0,0,99,0.4,0.0,up,0.27168350014835596,,,,,,,,,,,,,,,,,,,,,,,,,,,,,,,,,,,,,,,,,,,,,,,,,,,,,,,,,,,,4727MG,train_y,blue_star,top_right,2025-09-13_16h46.10.980,HideSeek_v1,2022.2.5,59.92925949366861,
,7,6,7,6,0,0,61,,train_dim1_1,18,30,,,,2,0,2,0,,,,,,,,,0,0,0,0,0,17,17,17,5,0,5,0,,,,,,,,,,,,,,,,,,,,,,,,,,,,,,,,,,,,,,,,,,,,,,,,,,,,,,,,,,,,,,,,30,,,,,,,,556.9215688998811,556.9215688998811,556.9215688998811,556.9215688998811,556.9215688998811,return,0.5100442999973893,13,1,0,0,0.4,0.0,return,0.42288160021416843,-43,0,0.4,0.0,,,,,,,,,,,,,,,,,,,,,,,,,,,,,,,,,,,,,,,,,,,,,,,,,,,,,,,,4727MG,train_y,blue_star,top_right,2025-09-13_16h46.10.980,HideSeek_v1,2022.2.5,59.92925949366861,
,5,9,5,8,0,-1,62,,train_dim1_1,19,30,,,,2,0,2,0,,,,,,,,,0,0,0,0,0,18,18,18,0,0,0,0,,,,,,,,,,,,,,,,,,,,,,,,,stimuli/alien_stimuli/62.png,,,,,,,,,,,,,,,,,,,,,,,,,,,,,stimuli/alien_stimuli/61.png,61,7,20,,,,,,,30,,,,,,,,562.6655268999748,562.6655268999748,562.6655268999748,562.6655268999748,562.6655268999748,down,1.2379163999576122,13,1,0,99,0.24,0.24,down,1.1583952999208122,,,,,561.1109585999511,562.6655268999748,0.4,0.08,0.0,0.0,0.08,0.4,0.4,0.4,0.08,558.9826974000316,558.9826974000316,558.9826974000316,558.9826974000316,558.9826974000316,558.9826974000316,558.9826974000316,558.9826974000316,558.9755945800338,2.2213282000739127,return,2.101236700080335,,,,,,,,,,,,,,,,,,,,,,,,,,,,,,,,,4727MG,train_y,blue_star,top_right,2025-09-13_16h46.10.980,HideSeek_v1,2022.2.5,59.92925949366861,
,5,9,5,8,0,-1,62,,train_dim1_1,19,30,,,,2,0,2,0,,,,,,,,,0,0,0,0,0,18,18,18,1,0,1,0,,,,,,,,,,,,,,,,,,,,,,,,,,,,,,,,,,,,,,,,,,,,,,,,,,,,,,,,,,,,,,,,30,,,,,,,,563.9103105999529,563.9103105999529,563.9103105999529,563.9103105999529,563.9103105999529,return,0.6765536998864263,14,0,0,1,0.24,0.24,return,0.5965117001906037,-44,0,0.24,0.24,,,,,,,,,,,,,,,,,,,,,,,,,,,,,,,,,,,,,,,,,,,,,,,,,,,,,,,,4727MG,train_y,blue_star,top_right,2025-09-13_16h46.10.980,HideSeek_v1,2022.2.5,59.92925949366861,
,7,5,7,0,0,-5,66,,train_dim1_1,20,30,,,,2,0,2,0,,,,,,,,,0,0,0,0,0,19,19,19,0,0,0,0,,,,,,,,,,,,,,,,,,,,,,,,,stimuli/alien_stimuli/66.png,,,,,,,,,,,,,,,,,,,,,,,,,,,,,stimuli/alien_stimuli/62.png,62,5,21,,,,,,,30,,,,,,,,570.5209166998975,570.5209166998975,570.5209166998975,570.5209166998975,570.5209166998975,down,1.8061455998104066,14,0,0,99,0.4,-0.08,down,1.7336005000397563,,,,,568.9673427001107,570.5209166998975,0.24,0.24,0.08,0.0,0.28,0.24,0.24,0.24,0.24,566.1389907000121,566.1389907000121,566.1389907000121,566.1389907000121,566.1389907000121,566.1389907000121,566.1389907000121,566.1389907000121,566.1311229798943,2.9221041998825967,return,2.8061876001302153,,,,,,,,,,,,,,,,,,,,,,,,,,,,,,,,,4727MG,train_y,blue_star,top_right,2025-09-13_16h46.10.980,HideSeek_v1,2022.2.5,59.92925949366861,
,7,5,7,0,0,-5,66,,train_dim1_1,20,30,,,,2,0,2,0,,,,,,,,,0,0,0,0,0,19,19,19,1,0,1,0,,,,,,,,,,,,,,,,,,,,,,,,,,,,,,,,,,,,,,,,,,,,,,,,,,,,,,,,,,,,,,,,30,,,,,,,,572.3347901001107,572.3347901001107,572.3347901001107,572.3347901001107,572.3347901001107,down,0.4760209999512881,14,0,0,99,0.4,-0.16,down,0.39485769998282194,,,,,,,,,,,,,,,,,,,,,,,,,,,,,,,,,,,,,,,,,,,,,,,,,,,,,,,,,,,,4727MG,train_y,blue_star,top_right,2025-09-13_16h46.10.980,HideSeek_v1,2022.2.5,59.92925949366861,
,7,5,7,0,0,-5,66,,train_dim1_1,20,30,,,,2,0,2,0,,,,,,,,,0,0,0,0,0,19,19,19,2,0,2,0,,,,,,,,,,,,,,,,,,,,,,,,,,,,,,,,,,,,,,,,,,,,,,,,,,,,,,,,,,,,,,,,30,,,,,,,,572.8214404999744,572.8214404999744,572.8214404999744,572.8214404999744,572.8214404999744,down,0.3902763999067247,14,0,0,99,0.4,-0.24,down,0.3009027000516653,,,,,,,,,,,,,,,,,,,,,,,,,,,,,,,,,,,,,,,,,,,,,,,,,,,,,,,,,,,,4727MG,train_y,blue_star,top_right,2025-09-13_16h46.10.980,HideSeek_v1,2022.2.5,59.92925949366861,
,7,5,7,0,0,-5,66,,train_dim1_1,20,30,,,,2,0,2,0,,,,,,,,,0,0,0,0,0,19,19,19,3,0,3,0,,,,,,,,,,,,,,,,,,,,,,,,,,,,,,,,,,,,,,,,,,,,,,,,,,,,,,,,,,,,,,,,30,,,,,,,,573.2177687999792,573.2177687999792,573.2177687999792,573.2177687999792,573.2177687999792,down,0.4433337999507785,14,0,0,99,0.4,-0.32,down,0.35945680015720427,,,,,,,,,,,,,,,,,,,,,,,,,,,,,,,,,,,,,,,,,,,,,,,,,,,,,,,,,,,,4727MG,train_y,blue_star,top_right,2025-09-13_16h46.10.980,HideSeek_v1,2022.2.5,59.92925949366861,
,7,5,7,0,0,-5,66,,train_dim1_1,20,30,,,,2,0,2,0,,,,,,,,,0,0,0,0,0,19,19,19,4,0,4,0,,,,,,,,,,,,,,,,,,,,,,,,,,,,,,,,,,,,,,,,,,,,,,,,,,,,,,,,,,,,,,,,30,,,,,,,,573.6676787000615,573.6676787000615,573.6676787000615,573.6676787000615,573.6676787000615,down,0.46017530001699924,14,0,0,99,0.4,-0.4,down,0.37626180006191134,,,,,,,,,,,,,,,,,,,,,,,,,,,,,,,,,,,,,,,,,,,,,,,,,,,,,,,,,,,,4727MG,train_y,blue_star,top_right,2025-09-13_16h46.10.980,HideSeek_v1,2022.2.5,59.92925949366861,
,7,5,7,0,0,-5,66,,train_dim1_1,20,30,,,,2,0,2,0,,,,,,,,,0,0,0,0,0,19,19,19,5,0,5,0,,,,,,,,,,,,,,,,,,,,,,,,,,,,,,,,,,,,,,,,,,,,,,,,,,,,,,,,,,,,,,,,30,,,,,,,,574.1366485999897,574.1366485999897,574.1366485999897,574.1366485999897,574.1366485999897,return,0.37620200007222593,15,0,0,1,0.4,-0.4,return,0.29958350001834333,-49,0,0.4,-0.4,,,,,,,,,,,,,,,,,,,,,,,,,,,,,,,,,,,,,,,,,,,,,,,,,,,,,,,,4727MG,train_y,blue_star,top_right,2025-09-13_16h46.10.980,HideSeek_v1,2022.2.5,59.92925949366861,
,7,9,7,5,0,-4,65,,train_dim1_1,21,30,,,,2,0,2,0,,,,,,,,,0,0,0,0,0,20,20,20,0,0,0,0,,,,,,,,,,,,,,,,,,,,,,,,,stimuli/alien_stimuli/65.png,,,,,,,,,,,,,,,,,,,,,,,,,,,,,stimuli/alien_stimuli/66.png,66,7,22,,,,,,,30,,,,,,,,578.6934911999851,578.6934911999851,578.6934911999851,578.6934911999851,578.6934911999851,down,1.2397302999161184,15,0,0,99,0.4,0.24,down,1.1665346000809222,,,,,577.1409579000901,578.6934911999851,0.4,-0.4,0.4,0.0,-0.2,0.4,0.4,0.4,-0.4,576.0668059999589,576.0668059999589,576.0668059999589,576.0668059999589,576.0668059999589,576.0668059999589,576.0668059999589,576.0668059999589,576.0567266799975,1.1694785000290722,return,1.0418680000584573,,,,,,,,,,,,,,,,,,,,,,,,,,,,,,,,,4727MG,train_y,blue_star,top_right,2025-09-13_16h46.10.980,HideSeek_v1,2022.2.5,59.92925949366861,
,7,9,7,5,0,-4,65,,train_dim1_1,21,30,,,,2,0,2,0,,,,,,,,,0,0,0,0,0,20,20,20,1,0,1,0,,,,,,,,,,,,,,,,,,,,,,,,,,,,,,,,,,,,,,,,,,,,,,,,,,,,,,,,,,,,,,,,30,,,,,,,,579.9399703999516,579.9399703999516,579.9399703999516,579.9399703999516,579.9399703999516,down,0.3765094999689609,15,0,0,99,0.4,0.15999999999999998,down,0.29118290008045733,,,,,,,,,,,,,,,,,,,,,,,,,,,,,,,,,,,,,,,,,,,,,,,,,,,,,,,,,,,,4727MG,train_y,blue_star,top_right,2025-09-13_16h46.10.980,HideSeek_v1,2022.2.5,59.92925949366861,
,7,9,7,5,0,-4,65,,train_dim1_1,21,30,,,,2,0,2,0,,,,,,,,,0,0,0,0,0,20,20,20,2,0,2,0,,,,,,,,,,,,,,,,,,,,,,,,,,,,,,,,,,,,,,,,,,,,,,,,,,,,,,,,,,,,,,,,30,,,,,,,,580.3247340999078,580.3247340999078,580.3247340999078,580.3247340999078,580.3247340999078,down,0.27628650004044175,15,0,0,99,0.4,0.07999999999999997,down,0.19001070014201105,,,,,,,,,,,,,,,,,,,,,,,,,,,,,,,,,,,,,,,,,,,,,,,,,,,,,,,,,,,,4727MG,train_y,blue_star,top_right,2025-09-13_16h46.10.980,HideSeek_v1,2022.2.5,59.92925949366861,
,7,9,7,5,0,-4,65,,train_dim1_1,21,30,,,,2,0,2,0,,,,,,,,,0,0,0,0,0,20,20,20,3,0,3,0,,,,,,,,,,,,,,,,,,,,,,,,,,,,,,,,,,,,,,,,,,,,,,,,,,,,,,,,,,,,,,,,30,,,,,,,,580.6080499000382,580.6080499000382,580.6080499000382,580.6080499000382,580.6080499000382,down,0.30998410005122423,15,0,0,99,0.4,-2.7755575615628914e-17,down,0.22046420024707913,,,,,,,,,,,,,,,,,,,,,,,,,,,,,,,,,,,,,,,,,,,,,,,,,,,,,,,,,,,,4727MG,train_y,blue_star,top_right,2025-09-13_16h46.10.980,HideSeek_v1,2022.2.5,59.92925949366861,
,7,9,7,5,0,-4,65,,train_dim1_1,21,30,,,,2,0,2,0,,,,,,,,,0,0,0,0,0,20,20,20,4,0,4,0,,,,,,,,,,,,,,,,,,,,,,,,,,,,,,,,,,,,,,,,,,,,,,,,,,,,,,,,,,,,,,,,30,,,,,,,,580.9250837001018,580.9250837001018,580.9250837001018,580.9250837001018,580.9250837001018,return,0.4433181998319924,16,0,0,1,0.4,-2.7755575615628914e-17,return,0.3626005002297461,-53,0,0.4,-2.7755575615628914e-17,,,,,,,,,,,,,,,,,,,,,,,,,,,,,,,,,,,,,,,,,,,,,,,,,,,,,,,,4727MG,train_y,blue_star,top_right,2025-09-13_16h46.10.980,HideSeek_v1,2022.2.5,59.92925949366861,
,5,7,5,4,0,-3,64,,train_dim1_1,22,30,,,,2,0,2,0,,,,,,,,,0,0,0,0,0,21,21,21,0,0,0,0,,,,,,,,,,,,,,,,,,,,,,,,,stimuli/alien_stimuli/64.png,,,,,,,,,,,,,,,,,,,,,,,,,,,,,stimuli/alien_stimuli/65.png,65,7,23,,,,,,,30,,,,,,,,585.4182752999477,585.4182752999477,585.4182752999477,585.4182752999477,585.4182752999477,down,1.31897549983114,16,0,0,99,0.24,0.08,down,1.2466718000359833,,,,,583.8593206000514,582.9192389999516,0.4,0,0.32,0.0,0.16,0.4,0.4,0.4,0,582.9192389999516,582.9192389999516,582.9192389999516,582.9192389999516,582.9192389999516,582.9192389999516,582.9192389999516,582.9192389999516,582.9122889799531,1.0292020000051707,return,0.9164053001441061,,,,,,,,,,,,,,,,,,,,,,,,,,,,,,,,,4727MG,train_y,blue_star,top_right,2025-09-13_16h46.10.980,HideSeek_v1,2022.2.5,59.92925949366861,
,5,7,5,4,0,-3,64,,train_dim1_1,22,30,,,,2,0,2,0,,,,,,,,,0,0,0,0,0,21,21,21,1,0,1,0,,,,,,,,,,,,,,,,,,,,,,,,,,,,,,,,,,,,,,,,,,,,,,,,,,,,,,,,,,,,,,,,30,,,,,,,,586.7460439999122,586.7460439999122,586.7460439999122,586.7460439999122,586.7460439999122,down,0.29249169980175793,16,0,0,99,0.24,0.0,down,0.20888260006904602,,,,,,,,,,,,,,,,,,,,,,,,,,,,,,,,,,,,,,,,,,,,,,,,,,,,,,,,,,,,4727MG,train_y,blue_star,top_right,2025-09-13_16h46.10.980,HideSeek_v1,2022.2.5,59.92925949366861,
,5,7,5,4,0,-3,64,,train_dim1_1,22,30,,,,2,0,2,0,,,,,,,,,0,0,0,0,0,21,21,21,2,0,2,0,,,,,,,,,,,,,,,,,,,,,,,,,,,,,,,,,,,,,,,,,,,,,,,,,,,,,,,,,,,,,,,,30,,,,,,,,587.0472838999704,587.0472838999704,587.0472838999704,587.0472838999704,587.0472838999704,down,0.2429113001562655,16,0,0,99,0.24,-0.08,down,0.1611308001447469,,,,,,,,,,,,,,,,,,,,,,,,,,,,,,,,,,,,,,,,,,,,,,,,,,,,,,,,,,,,4727MG,train_y,blue_star,top_right,2025-09-13_16h46.10.980,HideSeek_v1,2022.2.5,59.92925949366861,
,5,7,5,4,0,-3,64,,train_dim1_1,22,30,,,,2,0,2,0,,,,,,,,,0,0,0,0,0,21,21,21,3,0,3,0,,,,,,,,,,,,,,,,,,,,,,,,,,,,,,,,,,,,,,,,,,,,,,,,,,,,,,,,,,,,,,,,30,,,,,,,,587.2964592000935,587.2964592000935,587.2964592000935,587.2964592000935,587.2964592000935,return,0.2766309999860823,17,0,0,1,0.24,-0.08,return,0.19550579995848238,-56,0,0.24,-0.08,,,,,,,,,,,,,,,,,,,,,,,,,,,,,,,,,,,,,,,,,,,,,,,,,,,,,,,,4727MG,train_y,blue_star,top_right,2025-09-13_16h46.10.980,HideSeek_v1,2022.2.5,59.92925949366861,
,5,8,5,8,0,0,61,,train_dim1_1,23,30,,,,2,0,2,0,,,,,,,,,0,0,0,0,0,22,22,22,0,0,0,0,,,,,,,,,,,,,,,,,,,,,,,,,stimuli/alien_stimuli/61.png,,,,,,,,,,,,,,,,,,,,,,,,,,,,,stimuli/alien_stimuli/64.png,64,5,24,,,,,,,30,,,,,,,,592.7562160999514,592.7562160999514,592.7562160999514,592.7562160999514,592.7562160999514,down,1.1226353000383824,17,0,0,99,0.24,0.15999999999999998,down,1.0362684002611786,,,,,591.2024972999934,592.7562160999514,0.24,-0.08,0.24,0.0,0.04,0.24,0.24,0.24,-0.08,589.1269839000888,589.1269839000888,589.1269839000888,589.1269839000888,589.1269839000888,589.1269839000888,589.1269839000888,589.1269839000888,589.1173092800658,2.1708253000397235,return,2.043956399895251,,,,,,,,,,,,,,,,,,,,,,,,,,,,,,,,,4727MG,train_y,blue_star,top_right,2025-09-13_16h46.10.980,HideSeek_v1,2022.2.5,59.92925949366861,
,5,8,5,8,0,0,61,,train_dim1_1,23,30,,,,2,0,2,0,,,,,,,,,0,0,0,0,0,22,22,22,1,0,1,0,,,,,,,,,,,,,,,,,,,,,,,,,,,,,,,,,,,,,,,,,,,,,,,,,,,,,,,,,,,,,,,,30,,,,,,,,593.8933866000734,593.8933866000734,593.8933866000734,593.8933866000734,593.8933866000734,down,0.6092034999746829,17,0,0,99,0.24,0.07999999999999997,down,0.5237350000534207,,,,,,,,,,,,,,,,,,,,,,,,,,,,,,,,,,,,,,,,,,,,,,,,,,,,,,,,,,,,4727MG,train_y,blue_star,top_right,2025-09-13_16h46.10.980,HideSeek_v1,2022.2.5,59.92925949366861,
,5,8,5,8,0,0,61,,train_dim1_1,23,30,,,,2,0,2,0,,,,,,,,,0,0,0,0,0,22,22,22,2,0,2,0,,,,,,,,,,,,,,,,,,,,,,,,,,,,,,,,,,,,,,,,,,,,,,,,,,,,,,,,,,,,,,,,30,,,,,,,,594.5023650999647,594.5023650999647,594.5023650999647,594.5023650999647,594.5023650999647,up,1.5774661998730153,17,0,0,99,0.24,0.15999999999999998,up,1.497432000003755,,,,,,,,,,,,,,,,,,,,,,,,,,,,,,,,,,,,,,,,,,,,,,,,,,,,,,,,,,,,4727MG,train_y,blue_star,top_right,2025-09-13_16h46.10.980,HideSeek_v1,2022.2.5,59.92925949366861,
,5,8,5,8,0,0,61,,train_dim1_1,23,30,,,,2,0,2,0,,,,,,,,,0,0,0,0,0,22,22,22,3,0,3,0,,,,,,,,,,,,,,,,,,,,,,,,,,,,,,,,,,,,,,,,,,,,,,,,,,,,,,,,,,,,,,,,30,,,,,,,,596.0902543999255,596.0902543999255,596.0902543999255,596.0902543999255,596.0902543999255,up,0.44093889999203384,17,0,0,99,0.24,0.24,up,0.3571529001928866,,,,,,,,,,,,,,,,,,,,,,,,,,,,,,,,,,,,,,,,,,,,,,,,,,,,,,,,,,,,4727MG,train_y,blue_star,top_right,2025-09-13_16h46.10.980,HideSeek_v1,2022.2.5,59.92925949366861,
,5,8,5,8,0,0,61,,train_dim1_1,23,30,,,,2,0,2,0,,,,,,,,,0,0,0,0,0,22,22,22,4,0,4,0,,,,,,,,,,,,,,,,,,,,,,,,,,,,,,,,,,,,,,,,,,,,,,,,,,,,,,,,,,,,,,,,30,,,,,,,,596.5369947000872,596.5369947000872,596.5369947000872,596.5369947000872,596.5369947000872,return,1.2438954000826925,18,0,0,1,0.24,0.24,return,1.1620414000935853,-56,0,0.24,0.24,,,,,,,,,,,,,,,,,,,,,,,,,,,,,,,,,,,,,,,,,,,,,,,,,,,,,,,,4727MG,train_y,blue_star,top_right,2025-09-13_16h46.10.980,HideSeek_v1,2022.2.5,59.92925949366861,
,8,7,8,2,0,-5,66,,train_dim1_1,24,30,,,,2,0,2,0,,,,,,,,,0,0,0,0,0,23,23,23,0,0,0,0,,,,,,,,,,,,,,,,,,,,,,,,,stimuli/alien_stimuli/66.png,,,,,,,,,,,,,,,,,,,,,,,,,,,,,stimuli/alien_stimuli/61.png,61,5,25,,,,,,,30,,,,,,,,602.3626602001023,602.3626602001023,602.3626602001023,602.3626602001023,602.3626602001023,down,4.7098252000287175,18,0,0,99,0.48,0.08,down,4.628753900062293,,,,,600.8104991000146,602.3626602001023,0.24,0.24,0.0,0.0,0.24,0.24,0.24,0.24,0.24,599.3340020000469,599.3340020000469,599.3340020000469,599.3340020000469,599.3340020000469,599.3340020000469,599.3340020000469,599.3340020000469,599.3256778799463,1.5701983000617474,return,1.4496991001069546,,,,,,,,,,,,,,,,,,,,,,,,,,,,,,,,,4727MG,train_y,blue_star,top_right,2025-09-13_16h46.10.980,HideSeek_v1,2022.2.5,59.92925949366861,
,8,7,8,2,0,-5,66,,train_dim1_1,24,30,,,,2,0,2,0,,,,,,,,,0,0,0,0,0,23,23,23,1,0,1,0,,,,,,,,,,,,,,,,,,,,,,,,,,,,,,,,,,,,,,,,,,,,,,,,,,,,,,,,,,,,,,,,30,,,,,,,,607.0856037999038,607.0856037999038,607.0856037999038,607.0856037999038,607.0856037999038,down,0.48790089995600283,18,0,0,99,0.48,0.0,down,0.4038710000459105,,,,,,,,,,,,,,,,,,,,,,,,,,,,,,,,,,,,,,,,,,,,,,,,,,,,,,,,,,,,4727MG,train_y,blue_star,top_right,2025-09-13_16h46.10.980,HideSeek_v1,2022.2.5,59.92925949366861,
,8,7,8,2,0,-5,66,,train_dim1_1,24,30,,,,2,0,2,0,,,,,,,,,0,0,0,0,0,23,23,23,2,0,2,0,,,,,,,,,,,,,,,,,,,,,,,,,,,,,,,,,,,,,,,,,,,,,,,,,,,,,,,,,,,,,,,,30,,,,,,,,607.5813959999941,607.5813959999941,607.5813959999941,607.5813959999941,607.5813959999941,down,1.0604009998496622,18,0,0,99,0.48,-0.08,down,0.9778986000455916,,,,,,,,,,,,,,,,,,,,,,,,,,,,,,,,,,,,,,,,,,,,,,,,,,,,,,,,,,,,4727MG,train_y,blue_star,top_right,2025-09-13_16h46.10.980,HideSeek_v1,2022.2.5,59.92925949366861,
,8,7,8,2,0,-5,66,,train_dim1_1,24,30,,,,2,0,2,0,,,,,,,,,0,0,0,0,0,23,23,23,3,0,3,0,,,,,,,,,,,,,,,,,,,,,,,,,,,,,,,,,,,,,,,,,,,,,,,,,,,,,,,,,,,,,,,,30,,,,,,,,608.648385199951,608.648385199951,608.648385199951,608.648385199951,608.648385199951,down,0.39247550000436604,18,0,0,99,0.48,-0.16,down,0.3115949002094567,,,,,,,,,,,,,,,,,,,,,,,,,,,,,,,,,,,,,,,,,,,,,,,,,,,,,,,,,,,,4727MG,train_y,blue_star,top_right,2025-09-13_16h46.10.980,HideSeek_v1,2022.2.5,59.92925949366861,
,8,7,8,2,0,-5,66,,train_dim1_1,24,30,,,,2,0,2,0,,,,,,,,,0,0,0,0,0,23,23,23,4,0,4,0,,,,,,,,,,,,,,,,,,,,,,,,,,,,,,,,,,,,,,,,,,,,,,,,,,,,,,,,,,,,,,,,30,,,,,,,,609.0476816000883,609.0476816000883,609.0476816000883,609.0476816000883,609.0476816000883,down,0.4434324000030756,18,0,0,99,0.48,-0.24,down,0.35776370018720627,,,,,,,,,,,,,,,,,,,,,,,,,,,,,,,,,,,,,,,,,,,,,,,,,,,,,,,,,,,,4727MG,train_y,blue_star,top_right,2025-09-13_16h46.10.980,HideSeek_v1,2022.2.5,59.92925949366861,
,8,7,8,2,0,-5,66,,train_dim1_1,24,30,,,,2,0,2,0,,,,,,,,,0,0,0,0,0,23,23,23,5,0,5,0,,,,,,,,,,,,,,,,,,,,,,,,,,,,,,,,,,,,,,,,,,,,,,,,,,,,,,,,,,,,,,,,30,,,,,,,,609.4983365000226,609.4983365000226,609.4983365000226,609.4983365000226,609.4983365000226,return,0.8104681000113487,19,0,0,1,0.48,-0.24,return,0.721220700070262,-61,0,0.48,-0.24,,,,,,,,,,,,,,,,,,,,,,,,,,,,,,,,,,,,,,,,,,,,,,,,,,,,,,,,4727MG,train_y,blue_star,top_right,2025-09-13_16h46.10.980,HideSeek_v1,2022.2.5,59.92925949366861,
,8,8,8,7,0,-1,62,,train_dim1_1,25,30,,,,2,0,2,0,,,,,,,,,0,0,0,0,0,24,24,24,0,0,0,0,,,,,,,,,,,,,,,,,,,,,,,,,stimuli/alien_stimuli/62.png,,,,,,,,,,,,,,,,,,,,,,,,,,,,,stimuli/alien_stimuli/66.png,66,8,26,,,,,,,30,,,,,,,,614.1731064999476,614.1731064999476,614.1731064999476,614.1731064999476,614.1731064999476,down,3.7256601001136005,19,0,0,99,0.48,0.15999999999999998,down,3.6471277000382543,,,,,612.6203326999675,614.1731064999476,0.48,-0.24,0.4,0.0,-0.039999999999999994,0.48,0.48,0.48,-0.24,611.8759999000467,611.8759999000467,611.8759999000467,611.8759999000467,611.8759999000467,611.8759999000467,611.8759999000467,611.8759999000467,611.8695548600051,0.8527385001070797,return,0.7230608002282679,,,,,,,,,,,,,,,,,,,,,,,,,,,,,,,,,4727MG,train_y,blue_star,top_right,2025-09-13_16h46.10.980,HideSeek_v1,2022.2.5,59.92925949366861,
,8,8,8,7,0,-1,62,,train_dim1_1,25,30,,,,2,0,2,0,,,,,,,,,0,0,0,0,0,24,24,24,1,0,1,0,,,,,,,,,,,,,,,,,,,,,,,,,,,,,,,,,,,,,,,,,,,,,,,,,,,,,,,,,,,,,,,,30,,,,,,,,617.905608400004,617.905608400004,617.905608400004,617.905608400004,617.905608400004,return,0.3261981999967247,20,0,0,1,0.48,0.15999999999999998,return,0.24704160005785525,-62,0,0.48,0.15999999999999998,,,,,,,,,,,,,,,,,,,,,,,,,,,,,,,,,,,,,,,,,,,,,,,,,,,,,,,,4727MG,train_y,blue_star,top_right,2025-09-13_16h46.10.980,HideSeek_v1,2022.2.5,59.92925949366861,
,9,9,9,6,0,-3,64,,train_dim1_1,26,30,,,,2,0,2,0,,,,,,,,,0,0,0,0,0,25,25,25,0,0,0,0,,,,,,,,,,,,,,,,,,,,,,,,,stimuli/alien_stimuli/64.png,,,,,,,,,,,,,,,,,,,,,,,,,,,,,stimuli/alien_stimuli/62.png,62,8,27,,,,,,,30,,,,,,,,621.9151665000245,621.9151665000245,621.9151665000245,621.9151665000245,621.9151665000245,down,1.0861048998776823,20,0,0,99,0.56,0.24,down,1.0084069001022726,,,,,620.3601536999922,621.9151665000245,0.48,0.16,0.08,0.0,0.2,0.48,0.48,0.48,0.16,619.7850001000334,619.7850001000334,619.7850001000334,619.7850001000334,619.7850001000334,619.7850001000334,619.7850001000334,619.7850001000334,619.7762892798986,0.6694883001036942,return,0.5450330001767725,,,,,,,,,,,,,,,,,,,,,,,,,,,,,,,,,4727MG,train_y,blue_star,top_right,2025-09-13_16h46.10.980,HideSeek_v1,2022.2.5,59.92925949366861,
,9,9,9,6,0,-3,64,,train_dim1_1,26,30,,,,2,0,2,0,,,,,,,,,0,0,0,0,0,25,25,25,1,0,1,0,,,,,,,,,,,,,,,,,,,,,,,,,,,,,,,,,,,,,,,,,,,,,,,,,,,,,,,,,,,,,,,,30,,,,,,,,623.0099893000443,623.0099893000443,623.0099893000443,623.0099893000443,623.0099893000443,down,0.25986000010743737,20,0,0,99,0.56,0.15999999999999998,down,0.17385190003551543,,,,,,,,,,,,,,,,,,,,,,,,,,,,,,,,,,,,,,,,,,,,,,,,,,,,,,,,,,,,4727MG,train_y,blue_star,top_right,2025-09-13_16h46.10.980,HideSeek_v1,2022.2.5,59.92925949366861,
,9,9,9,6,0,-3,64,,train_dim1_1,26,30,,,,2,0,2,0,,,,,,,,,0,0,0,0,0,25,25,25,2,0,2,0,,,,,,,,,,,,,,,,,,,,,,,,,,,,,,,,,,,,,,,,,,,,,,,,,,,,,,,,,,,,,,,,30,,,,,,,,623.2763980999589,623.2763980999589,623.2763980999589,623.2763980999589,623.2763980999589,down,0.24288409994915128,20,0,0,99,0.56,0.07999999999999997,down,0.16028850013390183,,,,,,,,,,,,,,,,,,,,,,,,,,,,,,,,,,,,,,,,,,,,,,,,,,,,,,,,,,,,4727MG,train_y,blue_star,top_right,2025-09-13_16h46.10.980,HideSeek_v1,2022.2.5,59.92925949366861,
,9,9,9,6,0,-3,64,,train_dim1_1,26,30,,,,2,0,2,0,,,,,,,,,0,0,0,0,0,25,25,25,3,0,3,0,,,,,,,,,,,,,,,,,,,,,,,,,,,,,,,,,,,,,,,,,,,,,,,,,,,,,,,,,,,,,,,,30,,,,,,,,623.5268542999402,623.5268542999402,623.5268542999402,623.5268542999402,623.5268542999402,return,0.20999209978617728,21,0,0,1,0.56,0.07999999999999997,return,0.1311822000425309,-65,0,0.56,0.07999999999999997,,,,,,,,,,,,,,,,,,,,,,,,,,,,,,,,,,,,,,,,,,,,,,,,,,,,,,,,4727MG,train_y,blue_star,top_right,2025-09-13_16h46.10.980,HideSeek_v1,2022.2.5,59.92925949366861,
,8,9,8,4,0,-5,66,,train_dim1_1,27,30,,,,2,0,2,0,,,,,,,,,0,0,0,0,0,26,26,26,0,0,0,0,,,,,,,,,,,,,,,,,,,,,,,,,stimuli/alien_stimuli/66.png,,,,,,,,,,,,,,,,,,,,,,,,,,,,,stimuli/alien_stimuli/64.png,64,9,28,,,,,,,30,,,,,,,,627.7176566999406,627.7176566999406,627.7176566999406,627.7176566999406,627.7176566999406,down,1.1388387000188231,21,0,0,99,0.48,0.24,down,1.0506718002725393,,,,,626.1646614999045,627.7176566999406,0.56,0.08,0.24,0.0,0.2,0.56,0.56,0.56,0.08,625.2943245000206,625.2943245000206,625.2943245000206,625.2943245000206,625.2943245000206,625.2943245000206,625.2943245000206,625.2943245000206,625.2808648800477,0.9701725000049919,return,0.8486907002516091,,,,,,,,,,,,,,,,,,,,,,,,,,,,,,,,,4727MG,train_y,blue_star,top_right,2025-09-13_16h46.10.980,HideSeek_v1,2022.2.5,59.92925949366861,
,8,9,8,4,0,-5,66,,train_dim1_1,27,30,,,,2,0,2,0,,,,,,,,,0,0,0,0,0,26,26,26,1,0,1,0,,,,,,,,,,,,,,,,,,,,,,,,,,,,,,,,,,,,,,,,,,,,,,,,,,,,,,,,,,,,,,,,30,,,,,,,,628.8648651998956,628.8648651998956,628.8648651998956,628.8648651998956,628.8648651998956,down,0.24298590002581477,21,0,0,99,0.48,0.15999999999999998,down,0.16890520020388067,,,,,,,,,,,,,,,,,,,,,,,,,,,,,,,,,,,,,,,,,,,,,,,,,,,,,,,,,,,,4727MG,train_y,blue_star,top_right,2025-09-13_16h46.10.980,HideSeek_v1,2022.2.5,59.92925949366861,
,8,9,8,4,0,-5,66,,train_dim1_1,27,30,,,,2,0,2,0,,,,,,,,,0,0,0,0,0,26,26,26,2,0,2,0,,,,,,,,,,,,,,,,,,,,,,,,,,,,,,,,,,,,,,,,,,,,,,,,,,,,,,,,,,,,,,,,30,,,,,,,,629.1184439000208,629.1184439000208,629.1184439000208,629.1184439000208,629.1184439000208,down,0.2401386999990791,21,0,0,99,0.48,0.07999999999999997,down,0.1612883002962917,,,,,,,,,,,,,,,,,,,,,,,,,,,,,,,,,,,,,,,,,,,,,,,,,,,,,,,,,,,,4727MG,train_y,blue_star,top_right,2025-09-13_16h46.10.980,HideSeek_v1,2022.2.5,59.92925949366861,
,8,9,8,4,0,-5,66,,train_dim1_1,27,30,,,,2,0,2,0,,,,,,,,,0,0,0,0,0,26,26,26,3,0,3,0,,,,,,,,,,,,,,,,,,,,,,,,,,,,,,,,,,,,,,,,,,,,,,,,,,,,,,,,,,,,,,,,30,,,,,,,,629.3679547999054,629.3679547999054,629.3679547999054,629.3679547999054,629.3679547999054,down,0.24088349984958768,21,0,0,99,0.48,-2.7755575615628914e-17,down,0.16690460010431707,,,,,,,,,,,,,,,,,,,,,,,,,,,,,,,,,,,,,,,,,,,,,,,,,,,,,,,,,,,,4727MG,train_y,blue_star,top_right,2025-09-13_16h46.10.980,HideSeek_v1,2022.2.5,59.92925949366861,
,8,9,8,4,0,-5,66,,train_dim1_1,27,30,,,,2,0,2,0,,,,,,,,,0,0,0,0,0,26,26,26,4,0,4,0,,,,,,,,,,,,,,,,,,,,,,,,,,,,,,,,,,,,,,,,,,,,,,,,,,,,,,,,,,,,,,,,30,,,,,,,,629.6169827999547,629.6169827999547,629.6169827999547,629.6169827999547,629.6169827999547,down,0.24152010004036129,21,0,0,99,0.48,-0.08000000000000003,down,0.1529987002722919,,,,,,,,,,,,,,,,,,,,,,,,,,,,,,,,,,,,,,,,,,,,,,,,,,,,,,,,,,,,4727MG,train_y,blue_star,top_right,2025-09-13_16h46.10.980,HideSeek_v1,2022.2.5,59.92925949366861,
,8,9,8,4,0,-5,66,,train_dim1_1,27,30,,,,2,0,2,0,,,,,,,,,0,0,0,0,0,26,26,26,5,0,5,0,,,,,,,,,,,,,,,,,,,,,,,,,,,,,,,,,,,,,,,,,,,,,,,,,,,,,,,,,,,,,,,,30,,,,,,,,629.8664913000539,629.8664913000539,629.8664913000539,629.8664913000539,629.8664913000539,return,0.30982749979011714,22,0,0,1,0.48,-0.08000000000000003,return,0.22389320004731417,-70,0,0.48,-0.08000000000000003,,,,,,,,,,,,,,,,,,,,,,,,,,,,,,,,,,,,,,,,,,,,,,,,,,,,,,,,4727MG,train_y,blue_star,top_right,2025-09-13_16h46.10.980,HideSeek_v1,2022.2.5,59.92925949366861,
,9,6,9,6,0,0,61,,train_dim1_1,28,30,,,,2,0,2,0,,,,,,,,,0,0,0,0,0,27,27,27,0,0,0,0,,,,,,,,,,,,,,,,,,,,,,,,,stimuli/alien_stimuli/61.png,,,,,,,,,,,,,,,,,,,,,,,,,,,,,stimuli/alien_stimuli/66.png,66,8,29,,,,,,,30,,,,,,,,633.8881359999068,633.8881359999068,633.8881359999068,633.8881359999068,633.8881359999068,down,1.1565984000917524,22,0,0,99,0.56,0.0,down,1.0796363002154976,,,,,632.3365273999516,633.8881359999068,0.48,-0.08,0.4,0.0,0.12,0.48,0.48,0.48,-0.08,631.7268272999208,631.7268272999208,631.7268272999208,631.7268272999208,631.7268272999208,631.7268272999208,631.7268272999208,631.7268272999208,631.7192927800119,0.703080200124532,return,0.5833801000844687,,,,,,,,,,,,,,,,,,,,,,,,,,,,,,,,,4727MG,train_y,blue_star,top_right,2025-09-13_16h46.10.980,HideSeek_v1,2022.2.5,59.92925949366861,
,9,6,9,6,0,0,61,,train_dim1_1,28,30,,,,2,0,2,0,,,,,,,,,0,0,0,0,0,27,27,27,1,0,1,0,,,,,,,,,,,,,,,,,,,,,,,,,,,,,,,,,,,,,,,,,,,,,,,,,,,,,,,,,,,,,,,,30,,,,,,,,635.0561311000492,635.0561311000492,635.0561311000492,635.0561311000492,635.0561311000492,down,0.23984770011156797,22,0,0,99,0.56,-0.08,down,0.16125160013325512,,,,,,,,,,,,,,,,,,,,,,,,,,,,,,,,,,,,,,,,,,,,,,,,,,,,,,,,,,,,4727MG,train_y,blue_star,top_right,2025-09-13_16h46.10.980,HideSeek_v1,2022.2.5,59.92925949366861,
,9,6,9,6,0,0,61,,train_dim1_1,28,30,,,,2,0,2,0,,,,,,,,,0,0,0,0,0,27,27,27,2,0,2,0,,,,,,,,,,,,,,,,,,,,,,,,,,,,,,,,,,,,,,,,,,,,,,,,,,,,,,,,,,,,,,,,30,,,,,,,,635.3033123998903,635.3033123998903,635.3033123998903,635.3033123998903,635.3033123998903,down,0.2597620999440551,22,0,0,99,0.56,-0.16,down,0.17077450011856854,,,,,,,,,,,,,,,,,,,,,,,,,,,,,,,,,,,,,,,,,,,,,,,,,,,,,,,,,,,,4727MG,train_y,blue_star,top_right,2025-09-13_16h46.10.980,HideSeek_v1,2022.2.5,59.92925949366861,
,9,6,9,6,0,0,61,,train_dim1_1,28,30,,,,2,0,2,0,,,,,,,,,0,0,0,0,0,27,27,27,3,0,3,0,,,,,,,,,,,,,,,,,,,,,,,,,,,,,,,,,,,,,,,,,,,,,,,,,,,,,,,,,,,,,,,,30,,,,,,,,635.5721348000225,635.5721348000225,635.5721348000225,635.5721348000225,635.5721348000225,down,0.2431431000586599,22,0,0,99,0.56,-0.24,down,0.1661194001790136,,,,,,,,,,,,,,,,,,,,,,,,,,,,,,,,,,,,,,,,,,,,,,,,,,,,,,,,,,,,4727MG,train_y,blue_star,top_right,2025-09-13_16h46.10.980,HideSeek_v1,2022.2.5,59.92925949366861,
,9,6,9,6,0,0,61,,train_dim1_1,28,30,,,,2,0,2,0,,,,,,,,,0,0,0,0,0,27,27,27,4,0,4,0,,,,,,,,,,,,,,,,,,,,,,,,,,,,,,,,,,,,,,,,,,,,,,,,,,,,,,,,,,,,,,,,30,,,,,,,,635.8215556000359,635.8215556000359,635.8215556000359,635.8215556000359,635.8215556000359,down,0.243775499984622,22,0,0,99,0.56,-0.32,down,0.1608649999834597,,,,,,,,,,,,,,,,,,,,,,,,,,,,,,,,,,,,,,,,,,,,,,,,,,,,,,,,,,,,4727MG,train_y,blue_star,top_right,2025-09-13_16h46.10.980,HideSeek_v1,2022.2.5,59.92925949366861,
,9,6,9,6,0,0,61,,train_dim1_1,28,30,,,,2,0,2,0,,,,,,,,,0,0,0,0,0,27,27,27,5,0,5,0,,,,,,,,,,,,,,,,,,,,,,,,,,,,,,,,,,,,,,,,,,,,,,,,,,,,,,,,,,,,,,,,30,,,,,,,,636.0706066999119,636.0706066999119,636.0706066999119,636.0706066999119,636.0706066999119,up,1.0434647998772562,22,0,0,99,0.56,-0.24,up,0.9679317001719028,,,,,,,,,,,,,,,,,,,,,,,,,,,,,,,,,,,,,,,,,,,,,,,,,,,,,,,,,,,,4727MG,train_y,blue_star,top_right,2025-09-13_16h46.10.980,HideSeek_v1,2022.2.5,59.92925949366861,
,9,6,9,6,0,0,61,,train_dim1_1,28,30,,,,2,0,2,0,,,,,,,,,0,0,0,0,0,27,27,27,6,0,6,0,,,,,,,,,,,,,,,,,,,,,,,,,,,,,,,,,,,,,,,,,,,,,,,,,,,,,,,,,,,,,,,,30,,,,,,,,637.1247016000561,637.1247016000561,637.1247016000561,637.1247016000561,637.1247016000561,up,0.2572641000151634,22,0,0,99,0.56,-0.15999999999999998,up,0.1836123000830412,,,,,,,,,,,,,,,,,,,,,,,,,,,,,,,,,,,,,,,,,,,,,,,,,,,,,,,,,,,,4727MG,train_y,blue_star,top_right,2025-09-13_16h46.10.980,HideSeek_v1,2022.2.5,59.92925949366861,
,9,6,9,6,0,0,61,,train_dim1_1,28,30,,,,2,0,2,0,,,,,,,,,0,0,0,0,0,27,27,27,7,0,7,0,,,,,,,,,,,,,,,,,,,,,,,,,,,,,,,,,,,,,,,,,,,,,,,,,,,,,,,,,,,,,,,,30,,,,,,,,637.3934309999458,637.3934309999458,637.3934309999458,637.3934309999458,637.3934309999458,up,0.20626120013184845,22,0,0,99,0.56,-0.07999999999999997,up,0.1308673000894487,,,,,,,,,,,,,,,,,,,,,,,,,,,,,,,,,,,,,,,,,,,,,,,,,,,,,,,,,,,,4727MG,train_y,blue_star,top_right,2025-09-13_16h46.10.980,HideSeek_v1,2022.2.5,59.92925949366861,
,9,6,9,6,0,0,61,,train_dim1_1,28,30,,,,2,0,2,0,,,,,,,,,0,0,0,0,0,27,27,27,8,0,8,0,,,,,,,,,,,,,,,,,,,,,,,,,,,,,,,,,,,,,,,,,,,,,,,,,,,,,,,,,,,,,,,,30,,,,,,,,637.6068790999707,637.6068790999707,637.6068790999707,637.6068790999707,637.6068790999707,up,0.19334590015932918,22,0,0,99,0.56,2.7755575615628914e-17,up,0.1057540001347661,,,,,,,,,,,,,,,,,,,,,,,,,,,,,,,,,,,,,,,,,,,,,,,,,,,,,,,,,,,,4727MG,train_y,blue_star,top_right,2025-09-13_16h46.10.980,HideSeek_v1,2022.2.5,59.92925949366861,
,9,6,9,6,0,0,61,,train_dim1_1,28,30,,,,2,0,2,0,,,,,,,,,0,0,0,0,0,27,27,27,9,0,9,0,,,,,,,,,,,,,,,,,,,,,,,,,,,,,,,,,,,,,,,,,,,,,,,,,,,,,,,,,,,,,,,,30,,,,,,,,637.8069486999884,637.8069486999884,637.8069486999884,637.8069486999884,637.8069486999884,up,0.20968300011008978,22,0,0,99,0.56,0.08000000000000003,up,0.12678000004962087,,,,,,,,,,,,,,,,,,,,,,,,,,,,,,,,,,,,,,,,,,,,,,,,,,,,,,,,,,,,4727MG,train_y,blue_star,top_right,2025-09-13_16h46.10.980,HideSeek_v1,2022.2.5,59.92925949366861,
,9,6,9,6,0,0,61,,train_dim1_1,28,30,,,,2,0,2,0,,,,,,,,,0,0,0,0,0,27,27,27,10,0,10,0,,,,,,,,,,,,,,,,,,,,,,,,,,,,,,,,,,,,,,,,,,,,,,,,,,,,,,,,,,,,,,,,30,,,,,,,,638.0248557000887,638.0248557000887,638.0248557000887,638.0248557000887,638.0248557000887,up,0.20982200000435114,22,0,0,99,0.56,0.16000000000000003,up,0.12736300006508827,,,,,,,,,,,,,,,,,,,,,,,,,,,,,,,,,,,,,,,,,,,,,,,,,,,,,,,,,,,,4727MG,train_y,blue_star,top_right,2025-09-13_16h46.10.980,HideSeek_v1,2022.2.5,59.92925949366861,
,9,6,9,6,0,0,61,,train_dim1_1,28,30,,,,2,0,2,0,,,,,,,,,0,0,0,0,0,27,27,27,11,0,11,0,,,,,,,,,,,,,,,,,,,,,,,,,,,,,,,,,,,,,,,,,,,,,,,,,,,,,,,,,,,,,,,,30,,,,,,,,638.2421707999893,638.2421707999893,638.2421707999893,638.2421707999893,638.2421707999893,return,0.24096169997937977,22,1,0,0,0.56,0.16000000000000003,return,0.16686380002647638,-69,0,0.56,0.16000000000000003,,,,,,,,,,,,,,,,,,,,,,,,,,,,,,,,,,,,,,,,,,,,,,,,,,,,,,,,4727MG,train_y,blue_star,top_right,2025-09-13_16h46.10.980,HideSeek_v1,2022.2.5,59.92925949366861,
,7,7,7,6,0,-1,62,,train_dim1_1,29,30,,,,2,0,2,0,,,,,,,,,0,0,0,0,0,28,28,28,0,0,0,0,,,,,,,,,,,,,,,,,,,,,,,,,stimuli/alien_stimuli/62.png,,,,,,,,,,,,,,,,,,,,,,,,,,,,,stimuli/alien_stimuli/61.png,61,9,30,,,,,,,30,,,,,,,,642.7135179000907,642.7135179000907,642.7135179000907,642.7135179000907,642.7135179000907,down,2.7417260999791324,22,1,0,99,0.4,0.08,down,2.6581135999877006,,,,,641.1606354000978,642.7135179000907,0.56,0.08,0.0,0.0,0.08,0.56,0.56,0.56,0.08,640.044115500059,640.044115500059,640.044115500059,640.044115500059,640.044115500059,640.044115500059,640.044115500059,640.044115500059,640.043780560093,1.2188299999106675,return,1.0939296002034098,,,,,,,,,,,,,,,,,,,,,,,,,,,,,,,,,4727MG,train_y,blue_star,top_right,2025-09-13_16h46.10.980,HideSeek_v1,2022.2.5,59.92925949366861,
,7,7,7,6,0,-1,62,,train_dim1_1,29,30,,,,2,0,2,0,,,,,,,,,0,0,0,0,0,28,28,28,1,0,1,0,,,,,,,,,,,,,,,,,,,,,,,,,,,,,,,,,,,,,,,,,,,,,,,,,,,,,,,,,,,,,,,,30,,,,,,,,645.4620433999225,645.4620433999225,645.4620433999225,645.4620433999225,645.4620433999225,return,0.17601340007968247,23,0,0,1,0.4,0.08,return,0.09742770018056035,-70,0,0.4,0.08,,,,,,,,,,,,,,,,,,,,,,,,,,,,,,,,,,,,,,,,,,,,,,,,,,,,,,,,4727MG,train_y,blue_star,top_right,2025-09-13_16h46.10.980,HideSeek_v1,2022.2.5,59.92925949366861,
,5,6,5,2,0,-4,65,,train_dim1_1,30,30,,,,2,0,2,0,,,,,,,,,0,0,0,0,0,29,29,29,0,0,0,0,,,,,,,,,,,,,,,,,,,,,,,,,stimuli/alien_stimuli/65.png,,,,,,,,,,,,,,,,,,,,,,,,,,,,,stimuli/alien_stimuli/62.png,62,7,31,,,,,,,30,,,,,,,,649.5186755000614,649.5186755000614,649.5186755000614,649.5186755000614,649.5186755000614,down,0.9229372998233885,23,0,0,99,0.24,0.0,down,0.8450414000544697,,,,,647.9660078999586,649.5186755000614,0.4,0.08,0.08,0.0,0.12,0.4,0.4,0.4,0.08,647.1889881999232,647.1889881999232,647.1889881999232,647.1889881999232,647.1889881999232,647.1889881999232,647.1889881999232,647.1889881999232,647.182449780032,0.8693361999467015,return,0.7507214001379907,,,,,,,,,,,,,,,,,,,,,,,,,,,,,,,,,4727MG,train_y,blue_star,top_right,2025-09-13_16h46.10.980,HideSeek_v1,2022.2.5,59.92925949366861,
,5,6,5,2,0,-4,65,,train_dim1_1,30,30,,,,2,0,2,0,,,,,,,,,0,0,0,0,0,29,29,29,1,0,1,0,,,,,,,,,,,,,,,,,,,,,,,,,,,,,,,,,,,,,,,,,,,,,,,,,,,,,,,,,,,,,,,,30,,,,,,,,650.4488262999803,650.4488262999803,650.4488262999803,650.4488262999803,650.4488262999803,down,0.22613089997321367,23,0,0,99,0.24,-0.08,down,0.15112369996495545,,,,,,,,,,,,,,,,,,,,,,,,,,,,,,,,,,,,,,,,,,,,,,,,,,,,,,,,,,,,4727MG,train_y,blue_star,top_right,2025-09-13_16h46.10.980,HideSeek_v1,2022.2.5,59.92925949366861,
,5,6,5,2,0,-4,65,,train_dim1_1,30,30,,,,2,0,2,0,,,,,,,,,0,0,0,0,0,29,29,29,2,0,2,0,,,,,,,,,,,,,,,,,,,,,,,,,,,,,,,,,,,,,,,,,,,,,,,,,,,,,,,,,,,,,,,,30,,,,,,,,650.6884065999184,650.6884065999184,650.6884065999184,650.6884065999184,650.6884065999184,down,0.793703000061214,23,0,0,99,0.24,-0.16,down,0.7107818000949919,,,,,,,,,,,,,,,,,,,,,,,,,,,,,,,,,,,,,,,,,,,,,,,,,,,,,,,,,,,,4727MG,train_y,blue_star,top_right,2025-09-13_16h46.10.980,HideSeek_v1,2022.2.5,59.92925949366861,
,5,6,5,2,0,-4,65,,train_dim1_1,30,30,,,,2,0,2,0,,,,,,,,,0,0,0,0,0,29,29,29,3,0,3,0,,,,,,,,,,,,,,,,,,,,,,,,,,,,,,,,,,,,,,,,,,,,,,,,,,,,,,,,,,,,,,,,30,,,,,,,,651.4858095000964,651.4858095000964,651.4858095000964,651.4858095000964,651.4858095000964,down,0.24023040011525154,23,0,0,99,0.24,-0.24,down,0.16592800011858344,,,,,,,,,,,,,,,,,,,,,,,,,,,,,,,,,,,,,,,,,,,,,,,,,,,,,,,,,,,,4727MG,train_y,blue_star,top_right,2025-09-13_16h46.10.980,HideSeek_v1,2022.2.5,59.92925949366861,
,5,6,5,2,0,-4,65,,train_dim1_1,30,30,,,,2,0,2,0,,,,,,,,,0,0,0,0,0,29,29,29,4,0,4,0,,,,,,,,,,,,,,,,,,,,,,,,,,,,,,,,,,,,,,,,,,,,,,,,,,,,,,,,,,,,,,,,30,,,,,,,,651.7311068000272,651.7311068000272,651.7311068000272,651.7311068000272,651.7311068000272,return,0.5437694999855012,24,0,0,1,0.24,-0.24,return,0.46242800005711615,-74,0,0.24,-0.24,,,,,,,,,,,,,,,,,,,,,,,,,,,,,,,,,,,,,,,,,,,,,,,,,,,,,,,,4727MG,train_y,blue_star,top_right,2025-09-13_16h46.10.980,HideSeek_v1,2022.2.5,59.92925949366861,
,,,,,,,,,,,30,,,,2,0,2,0,,,,,,,,,,,,,,,,,,,,,,,,,,,,,,,,,,,,,,,,,,,,,,,,,,,,,,,,,,,,,,,,,,,,,,,,,,stimuli/alien_stimuli/65.png,65,5,32,21,0.7,1.0,1,1,1,30,0,conditions/schedules/train_y_first/blue_star_00/top_right/inputTrain_2.1.xlsx,99,1,2,1,0,,,,,,,,,,,1,,,,,,,,,663.7294763999525,665.287404099945,0.24,-0.24,0.32,0.0,-0.07999999999999999,0.24,0.24,0.24,-0.24,653.8255741999019,653.8255741999019,653.8255741999019,653.8255741999019,653.8255741999019,653.8255741999019,653.8255741999019,653.8255741999019,653.8209313800093,9.993843799922615,return,9.884722799994051,0,0.9,0,1,24,,,,,,,,,,,,,,,,,,,,,,,,,,,,4727MG,train_y,blue_star,top_right,2025-09-13_16h46.10.980,HideSeek_v1,2022.2.5,59.92925949366861,
,,,,,,,,,,,,,,,3,0,3,0,0,0,0,0,,,,,,,,,,,,,,,,,,,,,,,,,,,,,,,conditions/schedules/train_y_first/blue_star_00/top_right/instructions/Slide17.png,conditions/schedules/train_y_first/blue_star_00/top_right/instructions/Audio17.wav,665.287404099945,665.2807462200523,17,"[8.175597500056028, 18.39940689993091, 15.929907200159505, 19.365886999992654, 4.53359859995544, 4.953020599903539, 6.1646317997947335, 10.947325699962676, 5.1828825999982655, 6.3816335999872535, 10.237737799994648, 13.87602820014581, 17.324809599900618, 17.283589099999517, 51.07215659995563, 21.711226399987936, 45.82857729983516]","[0.00022629997693002224, 0.014661699999123812, 0.01448000012896955, 0.03149339999072254, 0.048957299906760454, 0.07628539996221662, 0.00021900003775954247, 0.06267639994621277, 0.06418950017541647, 0.048138200072571635, 0.014086600160226226, 13.876035100081936, 0.0002337999176234007, 17.283597100060433, 0.06420889985747635, 21.711233400041237, 45.82858489989303]",0,,,,,,,,,,,,,,,,,,,,,,,,,,,,,,,,,,,,,,,,,,,,,,,,,,,,,,,,,,,,,,,,,,,,,,,,,,,,,,,,,,,,,,,,,,,,,,,,,,,,,,,,,,,,,,,,,,,,,,,,,,,,4727MG,train_y,blue_star,top_right,2025-09-13_16h46.10.980,HideSeek_v1,2022.2.5,59.92925949366861,
,,,,,,,,,,,,,,,3,0,3,0,1,0,1,0,,,,,,,,,,,,,,,,,,,,,,,,,,,,,,,conditions/schedules/train_y_first/blue_star_00/top_right/instructions/Slide18.png,conditions/schedules/train_y_first/blue_star_00/top_right/instructions/Audio18.wav,711.1859108000062,711.1854864000343,18,"[8.175597500056028, 18.39940689993091, 15.929907200159505, 19.365886999992654, 4.53359859995544, 4.953020599903539, 6.1646317997947335, 10.947325699962676, 5.1828825999982655, 6.3816335999872535, 10.237737799994648, 13.87602820014581, 17.324809599900618, 17.283589099999517, 51.07215659995563, 21.711226399987936, 45.82857729983516, 5.536121799843386]","[0.00022629997693002224, 0.014661699999123812, 0.01448000012896955, 0.03149339999072254, 0.048957299906760454, 0.07628539996221662, 0.00021900003775954247, 0.06267639994621277, 0.06418950017541647, 0.048138200072571635, 0.014086600160226226, 13.876035100081936, 0.0002337999176234007, 17.283597100060433, 0.06420889985747635, 21.711233400041237, 0.00020999996922910213, 5.53612899989821]",0,,,,,,,,,,,,,,,,,,,,,,,,,,,,,,,,,,,,,,,,,,,,,,,,,,,,,,,,,,,,,,,,,,,,,,,,,,,,,,,,,,,,,,,,,,,,,,,,,,,,,,,,,,,,,,,,,,,,,,,,,,,,4727MG,train_y,blue_star,top_right,2025-09-13_16h46.10.980,HideSeek_v1,2022.2.5,59.92925949366861,
,,,,,,,,,,,,,,,3,0,3,0,2,0,2,0,,,,,,,,,,,,,,,,,,,,,,,,,,,,,,,conditions/schedules/train_y_first/blue_star_00/top_right/instructions/Slide19.png,conditions/schedules/train_y_first/blue_star_00/top_right/instructions/Audio19.wav,716.7749930000864,716.7734190199059,19,"[8.175597500056028, 18.39940689993091, 15.929907200159505, 19.365886999992654, 4.53359859995544, 4.953020599903539, 6.1646317997947335, 10.947325699962676, 5.1828825999982655, 6.3816335999872535, 10.237737799994648, 13.87602820014581, 17.324809599900618, 17.283589099999517, 51.07215659995563, 21.711226399987936, 45.82857729983516, 5.536121799843386, 10.472443500068039]","[0.00022629997693002224, 0.014661699999123812, 0.01448000012896955, 0.03149339999072254, 0.048957299906760454, 0.07628539996221662, 0.00021900003775954247, 0.06267639994621277, 0.06418950017541647, 0.048138200072571635, 0.014086600160226226, 13.876035100081936, 0.0002337999176234007, 17.283597100060433, 0.06420889985747635, 21.711233400041237, 0.00020999996922910213, 0.031188799999654293, 10.472450899891555]",0,,,,,,,,,,,,,,,,,,,,,,,,,,,,,,,,,,,,,,,,,,,,,,,,,,,,,,,,,,,,,,,,,,,,,,,,,,,,,,,,,,,,,,,,,,,,,,,,,,,,,,,,,,,,,,,,,,,,,,,,,,,,4727MG,train_y,blue_star,top_right,2025-09-13_16h46.10.980,HideSeek_v1,2022.2.5,59.92925949366861,
,,,,,,,,,,,,,,,3,0,3,0,3,0,3,0,,,,,,,,,,,,,,,,,,,,,,,,,,,,,,,conditions/schedules/train_y_first/blue_star_00/top_right/instructions/Slide20.png,conditions/schedules/train_y_first/blue_star_00/top_right/instructions/Audio20.wav,727.3180813998915,727.3157770999242,20,"[8.175597500056028, 18.39940689993091, 15.929907200159505, 19.365886999992654, 4.53359859995544, 4.953020599903539, 6.1646317997947335, 10.947325699962676, 5.1828825999982655, 6.3816335999872535, 10.237737799994648, 13.87602820014581, 17.324809599900618, 17.283589099999517, 51.07215659995563, 21.711226399987936, 45.82857729983516, 5.536121799843386, 10.472443500068039, 17.65981479990296]","[0.00022629997693002224, 0.014661699999123812, 0.01448000012896955, 0.03149339999072254, 0.048957299906760454, 0.07628539996221662, 0.00021900003775954247, 0.06267639994621277, 0.06418950017541647, 0.048138200072571635, 0.014086600160226226, 13.876035100081936, 0.0002337999176234007, 17.283597100060433, 0.06420889985747635, 21.711233400041237, 0.00020999996922910213, 0.031188799999654293, 0.01443239999935031, 17.65982189984061]",0,,,,,,,,,,,,,,,,,,,,,,,,,,,,,,,,,,,,,,,,,,,,,,,,,,,,,,,,,,,,,,,,,,,,,,,,,,,,,,,,,,,,,,,,,,,,,,,,,,,,,,,,,,,,,,,,,,,,,,,,,,,,4727MG,train_y,blue_star,top_right,2025-09-13_16h46.10.980,HideSeek_v1,2022.2.5,59.92925949366861,
1,9,5,4,5,-5,0,11,2,instr_dim1_2,,,,,,3,0,3,0,,,,,0,0,0,0,,,,,,,,,,,,,,,,,,,,,,,,,,,,,,,,,,,,,stimuli/alien_stimuli/11.png,conditions/schedules/train_y_first/blue_star_00/top_right/inputInstr_2.xlsx,stimuli/alien_stimuli/11.png,745.0877054999582,745.0877054999582,745.0877054999582,745.0877054999582,745.0801025600638,return,11.48242810019292,"[-0.16, -0.08, 0, 0.08, 0.16, 0.24, 0.32, 0.4, 0.48, 0.56]","[-0.4, -0.32, -0.24, -0.16, -0.08, 0, 0.08, 0.16, 0.24, 0.32]",5,5,4,9,0.0,0.4,756.7523505999707,756.7523505999707,756.7523505999707,756.7523505999707,756.7523505999707,756.7523505999707,756.7523505999707,756.7399100000039,8.140567099908367,return,7.947734200162813,stimuli/alien_stimuli/11.png,11,9,1,,,,,,,,,,,,,,,,,,,,,,,,,,,,,,,,,,,,,,,,,,,,,,,,,,,,,,,,,,,,,,,,,,,,,,,,,,,,,,,,,,,,,,,,,4727MG,train_y,blue_star,top_right,2025-09-13_16h46.10.980,HideSeek_v1,2022.2.5,59.92925949366861,
,,,,,,,,,,,30,,,,3,0,3,0,,,,,,,,,,,,,,,,,,,,,,,,,,,,,,,,,,,,,,,,,,,,,,,,,,,,,,,,,,,,,,,,,,,,,,,,,,,,,,21,0.7,1.0,1,99,2,30,0,conditions/schedules/train_y_first/blue_star_00/top_right/inputTrain_2.1.xlsx,99,1,2,1,0,,,,,,,,,,,,,,,,,,,,,,,,,,,,,,,,,,,,,,,,,,,,,,,,,,,,,,,,,,,,,,,,,,,,,,,,,,,4727MG,train_y,blue_star,top_right,2025-09-13_16h46.10.980,HideSeek_v1,2022.2.5,59.92925949366861,
,,,,,,,,,,,,,,,4,0,4,0,0,0,0,0,,,,,,,,,,,,,,,,,,,,,,,,,,,,,,,conditions/schedules/train_y_first/blue_star_00/top_right/instructions/Slide21.png,conditions/schedules/train_y_first/blue_star_00/top_right/instructions/Audio21.wav,764.8791926999111,764.8797488999553,21,"[8.175597500056028, 18.39940689993091, 15.929907200159505, 19.365886999992654, 4.53359859995544, 4.953020599903539, 6.1646317997947335, 10.947325699962676, 5.1828825999982655, 6.3816335999872535, 10.237737799994648, 13.87602820014581, 17.324809599900618, 17.283589099999517, 51.07215659995563, 21.711226399987936, 45.82857729983516, 5.536121799843386, 10.472443500068039, 17.65981479990296, 12.95895479992032]","[0.00022629997693002224, 0.014661699999123812, 0.01448000012896955, 0.03149339999072254, 0.048957299906760454, 0.07628539996221662, 0.00021900003775954247, 0.06267639994621277, 0.06418950017541647, 0.048138200072571635, 0.014086600160226226, 13.876035100081936, 0.0002337999176234007, 17.283597100060433, 0.06420889985747635, 21.711233400041237, 0.00020999996922910213, 0.031188799999654293, 0.01443239999935031, 17.65982189984061, 12.958962500095367]",0,,,,,,,,,,,,,,,,,,,,,,,,,,,,,,,,,,,,,,,,,,,,,,,,,,,,,,,,,,,,,,,,,,,,,,,,,,,,,,,,,,,,,,,,,,,,,,,,,,,,,,,,,,,,,,,,,,,,,,,,,,,,4727MG,train_y,blue_star,top_right,2025-09-13_16h46.10.980,HideSeek_v1,2022.2.5,59.92925949366861,
2,8,7,8,7,0,0,61,2,instr_dim1_2,,,,,,4,0,4,0,,,,,0,0,0,0,,,,,,,,,,,,,,,,,,,,,,,,,,,,,,,,,,,,,stimuli/alien_stimuli/61.png,conditions/schedules/train_y_first/blue_star_00/top_right/inputInstr_2.xlsx,stimuli/alien_stimuli/61.png,777.9404311999679,777.9404311999679,777.9404311999679,777.9404311999679,777.9408185600303,return,1.6355428001843393,"[-0.16, -0.08, 0, 0.08, 0.16, 0.24, 0.32, 0.4, 0.48, 0.56]","[-0.4, -0.32, -0.24, -0.16, -0.08, 0, 0.08, 0.16, 0.24, 0.32]",7,7,8,8,0.0,0.0,779.7479763000738,779.7479763000738,779.7479763000738,779.7479763000738,779.7479763000738,779.7479763000738,779.7479763000738,779.7257056399714,5.671986999921501,return,5.508036500075832,stimuli/alien_stimuli/61.png,61,8,2,,,,,,,,,,,,,,,,,,,,,,,,,,,,,,,,,,,,,,,,,,,,,,,,,,,,,,,,,,,,,,,,,,,,,,,,,,,,,,,,,,,,,,,,,4727MG,train_y,blue_star,top_right,2025-09-13_16h46.10.980,HideSeek_v1,2022.2.5,59.92925949366861,
