trialInstr,x_fixStart,y_fixStart,x_corrSteps,y_corrSteps,x_nrSteps,y_nrSteps,alienID,trialLength,version,trialTrain,praclen,testlen,trial_label,break_on_off,beforeExpLoop.thisRepN,beforeExpLoop.thisTrialN,beforeExpLoop.thisN,beforeExpLoop.thisIndex,mini_instr_trials.thisRepN,mini_instr_trials.thisTrialN,mini_instr_trials.thisN,mini_instr_trials.thisIndex,instrLoop.thisRepN,instrLoop.thisTrialN,instrLoop.thisN,instrLoop.thisIndex,repeat_prac.thisRepN,repeat_prac.thisTrialN,repeat_prac.thisN,repeat_prac.thisIndex,trainLoop.thisRepN,trainLoop.thisTrialN,trainLoop.thisN,trainLoop.thisIndex,moveLoop_train.thisRepN,moveLoop_train.thisTrialN,moveLoop_train.thisN,moveLoop_train.thisIndex,experiment.thisRepN,experiment.thisTrialN,experiment.thisN,experiment.thisIndex,moveLoop_test.thisRepN,moveLoop_test.thisTrialN,moveLoop_test.thisN,moveLoop_test.thisIndex,mini_instr2_trials.thisRepN,mini_instr2_trials.thisTrialN,mini_instr2_trials.thisN,mini_instr2_trials.thisIndex,start_all_time,url,slideStim,audioStim,slides.started,sounds.started,nextButton.numClicks,nextButton.timesOn,nextButton.timesOff,prev_but.numClicks,prev_but.timesOn,prev_but.timesOff,alienStim,instrFile,alienStim_instr,gridImage_instr.started,startPos_3.started,key_instr.started,alienImage_3.started,sounds_1.started,key_instr.keys,key_instr.rt,all_x,all_y,FBy_corrSteps,FBy_fixStart,FBx_corrSteps,FBx_fixStart,FBy_pathSize_check,FBx_pathSize_check,gridImage_9.started,alienImageFB_3.started,startPosFB_3.started,keyFB_3.started,pathLine_ydir_2.started,pathLine_xdir_2.started,alienFace_3.started,sounds_2.started,RTFB_instr,keyFB_3.keys,keyFB_3.rt,draw_alienStim,draw_alienID,test_x,nrepcount,perfthres,percthres,earlierperf,earlystop,nextPrac,fileidx,praclen,saveACC_train,pracFile,nextPrac_train,addNrep,fileidx_endr,repExp,showearly,gridImage_4.started,startPos.started,movePos.started,key_resp.started,alienImage.started,buttonPress_train,RTchoice_train,cumAcctrain,aCorr,saveACC_choice,corrAns,x_movePos_end,y_movePos_end,key_resp.keys,key_resp.rt,wLy_dir,wLx_dir,x_movePos,y_movePos,text_2.started,text_2.stopped,aft_x_corrPos,aft_y_corrPos,y_pathSize_check,x_pathSize_check,y_pathdirY,x_pathdirY,x_pathdirX,x_corrPos,y_corrPos,gridImage_6.started,alienImageFB_2.started,startPosFB_2.started,movePosFB_2.started,keyFB_2.started,pathLine_xdir.started,pathLine_ydir.started,alienFace.started,sounds_4.started,RT_FBtrain,keyFB_2.keys,keyFB_2.rt,saveACC_pre,ACC,within_saveACC_train,earlystop_wloop,cumAcctrain_check,gridImage_3.started,alienImage_test.started,startPos_test.started,movePos_test.started,key_resp_test.started,wLy_dir_test,wLx_dir_test,buttonPress_test,RTchoice_test,cumAcctest,corrAns_test,key_resp_test.keys,key_resp_test.rt,text_3.started,text_3.stopped,total_time,end_all_time,key_resp_3.keys,slides_2.started,sounds_3.started,nextButton_2.numClicks,nextButton_2.timesOn,nextButton_2.timesOff,prev_but_2.numClicks,prev_but_2.timesOn,prev_but_2.timesOff,bye.started,participant,train_first,00_coordinate,starting corner,date,expName,psychopyVersion,frameRate,
,,,,,,,,,,,,,,,0,0,0,0,0,0,0,0,,,,,,,,,,,,,,,,,,,,,,,,,,,,,start_all_time,testround,conditions/schedules/train_x_first/blue_star_00/top_right/instructions/Slide1.png,conditions/schedules/train_x_first/blue_star_00/top_right/instructions/Audio1.wav,708.5211264998652,708.4683757447173,1,[5.73539109993726],[5.735405900049955],0,,,,,,,,,,,,,,,,,,,,,,,,,,,,,,,,,,,,,,,,,,,,,,,,,,,,,,,,,,,,,,,,,,,,,,,,,,,,,,,,,,,,,,,,,,,,,,,,,,,,,,,,,,,,,,,,,,,,,,,,,,,,4MA242,train_x,blue_star,top_right,2025-02-07_09h57.54.225,HideSeek_v1,2022.2.5,59.84476270179578,
,,,,,,,,,,,,,,,0,0,0,0,1,0,1,0,,,,,,,,,,,,,,,,,,,,,,,,,,,,,,,conditions/schedules/train_x_first/blue_star_00/top_right/instructions/Slide2.png,conditions/schedules/train_x_first/blue_star_00/top_right/instructions/Audio2.wav,714.2728700998705,714.2712561000371,2,"[5.73539109993726, 18.01156369992532]","[5.735405900049955, 18.011576399905607]",0,,,,,,,,,,,,,,,,,,,,,,,,,,,,,,,,,,,,,,,,,,,,,,,,,,,,,,,,,,,,,,,,,,,,,,,,,,,,,,,,,,,,,,,,,,,,,,,,,,,,,,,,,,,,,,,,,,,,,,,,,,,,4MA242,train_x,blue_star,top_right,2025-02-07_09h57.54.225,HideSeek_v1,2022.2.5,59.84476270179578,
,,,,,,,,,,,,,,,0,0,0,0,2,0,2,0,,,,,,,,,,,,,,,,,,,,,,,,,,,,,,,conditions/schedules/train_x_first/blue_star_00/top_right/instructions/Slide3.png,conditions/schedules/train_x_first/blue_star_00/top_right/instructions/Audio3.wav,732.3613557999488,732.3531359998742,3,"[5.73539109993726, 18.01156369992532, 16.45749589987099]","[5.735405900049955, 0.038409800035879016, 16.45750580006279]",0,,,,,,,,,,,,,,,,,,,,,,,,,,,,,,,,,,,,,,,,,,,,,,,,,,,,,,,,,,,,,,,,,,,,,,,,,,,,,,,,,,,,,,,,,,,,,,,,,,,,,,,,,,,,,,,,,,,,,,,,,,,,4MA242,train_x,blue_star,top_right,2025-02-07_09h57.54.225,HideSeek_v1,2022.2.5,59.84476270179578,
,,,,,,,,,,,,,,,0,0,0,0,3,0,3,0,,,,,,,,,,,,,,,,,,,,,,,,,,,,,,,conditions/schedules/train_x_first/blue_star_00/top_right/instructions/Slide4.png,conditions/schedules/train_x_first/blue_star_00/top_right/instructions/Audio4.wav,748.8935469998978,748.8856634000549,4,"[5.73539109993726, 18.01156369992532, 16.45749589987099, 19.504510200116783]","[5.735405900049955, 0.038409800035879016, 0.12427270016632974, 19.504520000191405]",0,,,,,,,,,,,,,,,,,,,,,,,,,,,,,,,,,,,,,,,,,,,,,,,,,,,,,,,,,,,,,,,,,,,,,,,,,,,,,,,,,,,,,,,,,,,,,,,,,,,,,,,,,,,,,,,,,,,,,,,,,,,,4MA242,train_x,blue_star,top_right,2025-02-07_09h57.54.225,HideSeek_v1,2022.2.5,59.84476270179578,
,,,,,,,,,,,,,,,0,0,0,0,4,0,4,0,,,,,,,,,,,,,,,,,,,,,,,,,,,,,,,conditions/schedules/train_x_first/blue_star_00/top_right/instructions/Slide5.png,conditions/schedules/train_x_first/blue_star_00/top_right/instructions/Audio5.wav,768.4717835998163,768.4665720999474,5,"[5.73539109993726, 18.01156369992532, 16.45749589987099, 19.504510200116783, 4.947490199934691]","[5.735405900049955, 0.038409800035879016, 0.12427270016632974, 0.04607510007917881, 4.947500400012359]",0,,,,,,,,,,,,,,,,,,,,,,,,,,,,,,,,,,,,,,,,,,,,,,,,,,,,,,,,,,,,,,,,,,,,,,,,,,,,,,,,,,,,,,,,,,,,,,,,,,,,,,,,,,,,,,,,,,,,,,,,,,,,4MA242,train_x,blue_star,top_right,2025-02-07_09h57.54.225,HideSeek_v1,2022.2.5,59.84476270179578,
,,,,,,,,,,,,,,,0,0,0,0,5,0,5,0,,,,,,,,,,,,,,,,,,,,,,,,,,,,,,,conditions/schedules/train_x_first/blue_star_00/top_right/instructions/Slide6.png,conditions/schedules/train_x_first/blue_star_00/top_right/instructions/Audio6.wav,773.4744252997916,773.4710086198523,6,"[5.73539109993726, 18.01156369992532, 16.45749589987099, 19.504510200116783, 4.947490199934691, 5.198870799969882]","[5.735405900049955, 0.038409800035879016, 0.12427270016632974, 0.04607510007917881, 0.013562300009652972, 5.198881900170818]",0,,,,,,,,,,,,,,,,,,,,,,,,,,,,,,,,,,,,,,,,,,,,,,,,,,,,,,,,,,,,,,,,,,,,,,,,,,,,,,,,,,,,,,,,,,,,,,,,,,,,,,,,,,,,,,,,,,,,,,,,,,,,4MA242,train_x,blue_star,top_right,2025-02-07_09h57.54.225,HideSeek_v1,2022.2.5,59.84476270179578,
,,,,,,,,,,,,,,,0,0,0,0,6,0,6,0,,,,,,,,,,,,,,,,,,,,,,,,,,,,,,,conditions/schedules/train_x_first/blue_star_00/top_right/instructions/Slide7.png,conditions/schedules/train_x_first/blue_star_00/top_right/instructions/Audio7.wav,778.7281957999803,778.7254812199157,7,"[5.73539109993726, 18.01156369992532, 16.45749589987099, 19.504510200116783, 4.947490199934691, 5.198870799969882, 5.870454199844971]","[5.735405900049955, 0.038409800035879016, 0.12427270016632974, 0.04607510007917881, 0.013562300009652972, 0.06446079979650676, 5.870466299820691]",0,,,,,,,,,,,,,,,,,,,,,,,,,,,,,,,,,,,,,,,,,,,,,,,,,,,,,,,,,,,,,,,,,,,,,,,,,,,,,,,,,,,,,,,,,,,,,,,,,,,,,,,,,,,,,,,,,,,,,,,,,,,,4MA242,train_x,blue_star,top_right,2025-02-07_09h57.54.225,HideSeek_v1,2022.2.5,59.84476270179578,
,,,,,,,,,,,,,,,0,0,0,0,7,0,7,0,,,,,,,,,,,,,,,,,,,,,,,,,,,,,,,conditions/schedules/train_x_first/blue_star_00/top_right/instructions/Slide8.png,conditions/schedules/train_x_first/blue_star_00/top_right/instructions/Audio8.wav,784.6613453999162,784.6498395200819,8,"[5.73539109993726, 18.01156369992532, 16.45749589987099, 19.504510200116783, 4.947490199934691, 5.198870799969882, 5.870454199844971, 11.8283848001156]","[5.735405900049955, 0.038409800035879016, 0.12427270016632974, 0.04607510007917881, 0.013562300009652972, 0.06446079979650676, 0.08787010004743934, 11.828399900114164]",0,,,,,,,,,,,,,,,,,,,,,,,,,,,,,,,,,,,,,,,,,,,,,,,,,,,,,,,,,,,,,,,,,,,,,,,,,,,,,,,,,,,,,,,,,,,,,,,,,,,,,,,,,,,,,,,,,,,,,,,,,,,,4MA242,train_x,blue_star,top_right,2025-02-07_09h57.54.225,HideSeek_v1,2022.2.5,59.84476270179578,
,,,,,,,,,,,,,,,0,0,0,0,8,0,8,0,,,,,,,,,,,,,,,,,,,,,,,,,,,,,,,conditions/schedules/train_x_first/blue_star_00/top_right/instructions/Slide9.png,conditions/schedules/train_x_first/blue_star_00/top_right/instructions/Audio9.wav,796.5547631999943,796.540251519857,9,"[5.73539109993726, 18.01156369992532, 16.45749589987099, 19.504510200116783, 4.947490199934691, 5.198870799969882, 5.870454199844971, 11.8283848001156, 6.058426799951121]","[5.735405900049955, 0.038409800035879016, 0.12427270016632974, 0.04607510007917881, 0.013562300009652972, 0.06446079979650676, 0.08787010004743934, 0.06974599999375641, 6.058439200045541]",0,,,,,,,,,,,,,,,,,,,,,,,,,,,,,,,,,,,,,,,,,,,,,,,,,,,,,,,,,,,,,,,,,,,,,,,,,,,,,,,,,,,,,,,,,,,,,,,,,,,,,,,,,,,,,,,,,,,,,,,,,,,,4MA242,train_x,blue_star,top_right,2025-02-07_09h57.54.225,HideSeek_v1,2022.2.5,59.84476270179578,
,,,,,,,,,,,,,,,0,0,0,0,9,0,9,0,,,,,,,,,,,,,,,,,,,,,,,,,,,,,,,conditions/schedules/train_x_first/blue_star_00/top_right/instructions/Slide10.png,conditions/schedules/train_x_first/blue_star_00/top_right/instructions/Audio10.wav,802.6506669998635,802.6456449400401,10,"[5.73539109993726, 18.01156369992532, 16.45749589987099, 19.504510200116783, 4.947490199934691, 5.198870799969882, 5.870454199844971, 11.8283848001156, 6.058426799951121, 7.03292699996382]","[5.735405900049955, 0.038409800035879016, 0.12427270016632974, 0.04607510007917881, 0.013562300009652972, 0.06446079979650676, 0.08787010004743934, 0.06974599999375641, 0.09420659998431802, 7.032938800053671]",0,,,,,,,,,,,,,,,,,,,,,,,,,,,,,,,,,,,,,,,,,,,,,,,,,,,,,,,,,,,,,,,,,,,,,,,,,,,,,,,,,,,,,,,,,,,,,,,,,,,,,,,,,,,,,,,,,,,,,,,,,,,,4MA242,train_x,blue_star,top_right,2025-02-07_09h57.54.225,HideSeek_v1,2022.2.5,59.84476270179578,
,,,,,,,,,,,,,,,0,0,0,0,10,0,10,0,,,,,,,,,,,,,,,,,,,,,,,,,,,,,,,conditions/schedules/train_x_first/blue_star_00/top_right/instructions/Slide11.png,conditions/schedules/train_x_first/blue_star_00/top_right/instructions/Audio11.wav,809.7429778999649,809.7344816199969,11,"[5.73539109993726, 18.01156369992532, 16.45749589987099, 19.504510200116783, 4.947490199934691, 5.198870799969882, 5.870454199844971, 11.8283848001156, 6.058426799951121, 7.03292699996382, 11.034114600159228]","[5.735405900049955, 0.038409800035879016, 0.12427270016632974, 0.04607510007917881, 0.013562300009652972, 0.06446079979650676, 0.08787010004743934, 0.06974599999375641, 0.09420659998431802, 0.09150180011056364, 11.034124199999496]",0,,,,,,,,,,,,,,,,,,,,,,,,,,,,,,,,,,,,,,,,,,,,,,,,,,,,,,,,,,,,,,,,,,,,,,,,,,,,,,,,,,,,,,,,,,,,,,,,,,,,,,,,,,,,,,,,,,,,,,,,,,,,4MA242,train_x,blue_star,top_right,2025-02-07_09h57.54.225,HideSeek_v1,2022.2.5,59.84476270179578,
,,,,,,,,,,,,,,,0,0,0,0,11,0,11,0,,,,,,,,,,,,,,,,,,,,,,,,,,,,,,,conditions/schedules/train_x_first/blue_star_00/top_right/instructions/Slide12.png,conditions/schedules/train_x_first/blue_star_00/top_right/instructions/Audio12.wav,820.8469228998292,820.843389900052,12,"[5.73539109993726, 18.01156369992532, 16.45749589987099, 19.504510200116783, 4.947490199934691, 5.198870799969882, 5.870454199844971, 11.8283848001156, 6.058426799951121, 7.03292699996382, 11.034114600159228, 12.974716699915007]","[5.735405900049955, 0.038409800035879016, 0.12427270016632974, 0.04607510007917881, 0.013562300009652972, 0.06446079979650676, 0.08787010004743934, 0.06974599999375641, 0.09420659998431802, 0.09150180011056364, 0.07940170005895197, 12.974723200080916]",0,,,,,,,,,,,,,,,,,,,,,,,,,,,,,,,,,,,,,,,,,,,,,,,,,,,,,,,,,,,,,,,,,,,,,,,,,,,,,,,,,,,,,,,,,,,,,,,,,,,,,,,,,,,,,,,,,,,,,,,,,,,,4MA242,train_x,blue_star,top_right,2025-02-07_09h57.54.225,HideSeek_v1,2022.2.5,59.84476270179578,
1,9,5,4,5,-5,0,11,2,instr_dim1_1,,,,,,0,0,0,0,,,,,0,0,0,0,,,,,,,,,,,,,,,,,,,,,,,,,,,,,,,,,,,,,stimuli/alien_stimuli/11.png,conditions/schedules/train_x_first/blue_star_00/top_right/inputInstr_1.xlsx,stimuli/alien_stimuli/11.png,833.91613649996,833.91613649996,833.91613649996,833.91613649996,833.9065576800145,return,9.986004600068554,"[-0.16, -0.08, 0, 0.08, 0.16, 0.24, 0.32, 0.4, 0.48, 0.56]","[-0.4, -0.32, -0.24, -0.16, -0.08, 0, 0.08, 0.16, 0.24, 0.32]",5,5,4,9,0.0,0.4,844.0708465999924,844.0708465999924,844.0708465999924,844.0708465999924,844.0708465999924,844.0708465999924,844.0708465999924,844.0616239199647,7.307263999944553,return,7.135612100129947,stimuli/alien_stimuli/11.png,11,9,1,,,,,,,,,,,,,,,,,,,,,,,,,,,,,,,,,,,,,,,,,,,,,,,,,,,,,,,,,,,,,,,,,,,,,,,,,,,,,,,,,,,,,,,,,4MA242,train_x,blue_star,top_right,2025-02-07_09h57.54.225,HideSeek_v1,2022.2.5,59.84476270179578,
,,,,,,,,,,,30,,,,0,0,0,0,,,,,,,,,,,,,,,,,,,,,,,,,,,,,,,,,,,,,,,,,,,,,,,,,,,,,,,,,,,,,,,,,,,,,,,,,,,,,,21,0.7,0,0,99,1,30,0,conditions/schedules/train_x_first/blue_star_00/top_right/inputTrain_1.1.xlsx,99,1,1,1,0,,,,,,,,,,,,,,,,,,,,,,,,,,,,,,,,,,,,,,,,,,,,,,,,,,,,,,,,,,,,,,,,,,,,,,,,,,,4MA242,train_x,blue_star,top_right,2025-02-07_09h57.54.225,HideSeek_v1,2022.2.5,59.84476270179578,
,,,,,,,,,,,,,,,1,0,1,0,0,0,0,0,,,,,,,,,,,,,,,,,,,,,,,,,,,,,,,conditions/schedules/train_x_first/blue_star_00/top_right/instructions/Slide13.png,conditions/schedules/train_x_first/blue_star_00/top_right/instructions/Audio13.wav,851.3773703998886,851.3678909200011,13,"[5.73539109993726, 18.01156369992532, 16.45749589987099, 19.504510200116783, 4.947490199934691, 5.198870799969882, 5.870454199844971, 11.8283848001156, 6.058426799951121, 7.03292699996382, 11.034114600159228, 12.974716699915007, 28.61421799985692]","[5.735405900049955, 0.038409800035879016, 0.12427270016632974, 0.04607510007917881, 0.013562300009652972, 0.06446079979650676, 0.08787010004743934, 0.06974599999375641, 0.09420659998431802, 0.09150180011056364, 0.07940170005895197, 12.974723200080916, 28.614237800007686]",0,,,,,,,,,,,,,,,,,,,,,,,,,,,,,,,,,,,,,,,,,,,,,,,,,,,,,,,,,,,,,,,,,,,,,,,,,,,,,,,,,,,,,,,,,,,,,,,,,,,,,,,,,,,,,,,,,,,,,,,,,,,,4MA242,train_x,blue_star,top_right,2025-02-07_09h57.54.225,HideSeek_v1,2022.2.5,59.84476270179578,
,,,,,,,,,,,,,,,1,0,1,0,1,0,1,0,,,,,,,,,,,,,,,,,,,,,,,,,,,,,,,conditions/schedules/train_x_first/blue_star_00/top_right/instructions/Slide14.png,conditions/schedules/train_x_first/blue_star_00/top_right/instructions/Audio14.wav,880.0676763998345,880.0609079998685,14,"[5.73539109993726, 18.01156369992532, 16.45749589987099, 19.504510200116783, 4.947490199934691, 5.198870799969882, 5.870454199844971, 11.8283848001156, 6.058426799951121, 7.03292699996382, 11.034114600159228, 12.974716699915007, 28.61421799985692, 13.401620599906892]","[5.735405900049955, 0.038409800035879016, 0.12427270016632974, 0.04607510007917881, 0.013562300009652972, 0.06446079979650676, 0.08787010004743934, 0.06974599999375641, 0.09420659998431802, 0.09150180011056364, 0.07940170005895197, 12.974723200080916, 0.014730999944731593, 13.40162879996933]",0,,,,,,,,,,,,,,,,,,,,,,,,,,,,,,,,,,,,,,,,,,,,,,,,,,,,,,,,,,,,,,,,,,,,,,,,,,,,,,,,,,,,,,,,,,,,,,,,,,,,,,,,,,,,,,,,,,,,,,,,,,,,4MA242,train_x,blue_star,top_right,2025-02-07_09h57.54.225,HideSeek_v1,2022.2.5,59.84476270179578,
2,8,7,8,7,0,0,61,2,instr_dim1_1,,,,,,1,0,1,0,,,,,0,0,0,0,,,,,,,,,,,,,,,,,,,,,,,,,,,,,,,,,,,,,stimuli/alien_stimuli/61.png,conditions/schedules/train_x_first/blue_star_00/top_right/inputInstr_1.xlsx,stimuli/alien_stimuli/61.png,893.5737874999177,893.5737874999177,893.5737874999177,893.5737874999177,893.5701501599281,return,7.461765900021419,"[-0.16, -0.08, 0, 0.08, 0.16, 0.24, 0.32, 0.4, 0.48, 0.56]","[-0.4, -0.32, -0.24, -0.16, -0.08, 0, 0.08, 0.16, 0.24, 0.32]",7,7,8,8,0.0,0.0,901.2013077999,901.2013077999,901.2013077999,901.2013077999,901.2013077999,901.2013077999,901.2013077999,901.1927155200159,7.857480499893427,return,7.69991230010055,stimuli/alien_stimuli/61.png,61,8,2,,,,,,,,,,,,,,,,,,,,,,,,,,,,,,,,,,,,,,,,,,,,,,,,,,,,,,,,,,,,,,,,,,,,,,,,,,,,,,,,,,,,,,,,,4MA242,train_x,blue_star,top_right,2025-02-07_09h57.54.225,HideSeek_v1,2022.2.5,59.84476270179578,
,,,,,,,,,,,30,,,,1,0,1,0,,,,,,,,,,,,,,,,,,,,,,,,,,,,,,,,,,,,,,,,,,,,,,,,,,,,,,,,,,,,,,,,,,,,,,,,,,,,,,21,0.7,0,0,99,1,30,0,conditions/schedules/train_x_first/blue_star_00/top_right/inputTrain_1.1.xlsx,99,1,1,1,0,,,,,,,,,,,,,,,,,,,,,,,,,,,,,,,,,,,,,,,,,,,,,,,,,,,,,,,,,,,,,,,,,,,,,,,,,,,4MA242,train_x,blue_star,top_right,2025-02-07_09h57.54.225,HideSeek_v1,2022.2.5,59.84476270179578,
,,,,,,,,,,,,,,,2,0,2,0,0,0,0,0,,,,,,,,,,,,,,,,,,,,,,,,,,,,,,,conditions/schedules/train_x_first/blue_star_00/top_right/instructions/Slide15.png,conditions/schedules/train_x_first/blue_star_00/top_right/instructions/Audio15.wav,909.0664818999358,909.0664558000863,15,"[5.73539109993726, 18.01156369992532, 16.45749589987099, 19.504510200116783, 4.947490199934691, 5.198870799969882, 5.870454199844971, 11.8283848001156, 6.058426799951121, 7.03292699996382, 11.034114600159228, 12.974716699915007, 28.61421799985692, 13.401620599906892, 30.90596740017645]","[5.735405900049955, 0.038409800035879016, 0.12427270016632974, 0.04607510007917881, 0.013562300009652972, 0.06446079979650676, 0.08787010004743934, 0.06974599999375641, 0.09420659998431802, 0.09150180011056364, 0.07940170005895197, 12.974723200080916, 0.014730999944731593, 13.40162879996933, 30.905976600013673]",0,,,,,,,,,,,,,,,,,,,,,,,,,,,,,,,,,,,,,,,,,,,,,,,,,,,,,,,,,,,,,,,,,,,,,,,,,,,,,,,,,,,,,,,,,,,,,,,,,,,,,,,,,,,,,,,,,,,,,,,,,,,,4MA242,train_x,blue_star,top_right,2025-02-07_09h57.54.225,HideSeek_v1,2022.2.5,59.84476270179578,
,,,,,,,,,,,,,,,2,0,2,0,1,0,1,0,,,,,,,,,,,,,,,,,,,,,,,,,,,,,,,conditions/schedules/train_x_first/blue_star_00/top_right/instructions/Slide16.png,conditions/schedules/train_x_first/blue_star_00/top_right/instructions/Audio16.wav,940.0486924999859,940.0429182999069,16,"[5.73539109993726, 18.01156369992532, 16.45749589987099, 19.504510200116783, 4.947490199934691, 5.198870799969882, 5.870454199844971, 11.8283848001156, 6.058426799951121, 7.03292699996382, 11.034114600159228, 12.974716699915007, 28.61421799985692, 13.401620599906892, 30.90596740017645, 21.195265100104734]","[5.735405900049955, 0.038409800035879016, 0.12427270016632974, 0.04607510007917881, 0.013562300009652972, 0.06446079979650676, 0.08787010004743934, 0.06974599999375641, 0.09420659998431802, 0.09150180011056364, 0.07940170005895197, 12.974723200080916, 0.014730999944731593, 13.40162879996933, 0.04486909997649491, 21.19527389993891]",0,,,,,,,,,,,,,,,,,,,,,,,,,,,,,,,,,,,,,,,,,,,,,,,,,,,,,,,,,,,,,,,,,,,,,,,,,,,,,,,,,,,,,,,,,,,,,,,,,,,,,,,,,,,,,,,,,,,,,,,,,,,,4MA242,train_x,blue_star,top_right,2025-02-07_09h57.54.225,HideSeek_v1,2022.2.5,59.84476270179578,
,7,6,4,6,-3,0,31,,train_dim1_1,1,30,,,,2,0,2,0,,,,,,,,,0,0,0,0,0,0,0,0,0,0,0,0,,,,,,,,,,,,,,,,,,,,,,,,,stimuli/alien_stimuli/31.png,,,,,,,,,,,,,,,,,,,,,,,,,,,,,,,,,,,,,,,30,,,,,,,,961.342884299811,961.342884299811,961.342884299811,961.342884299811,961.342884299811,left,3.958844800014049,0,0,0,99,0.32,0.08,left,3.8675659999717027,,,,,,,,,,,,,,,,,,,,,,,,,,,,,,,,,,,,,,,,,,,,,,,,,,,,,,,,,,,,4MA242,train_x,blue_star,top_right,2025-02-07_09h57.54.225,HideSeek_v1,2022.2.5,59.84476270179578,
,7,6,4,6,-3,0,31,,train_dim1_1,1,30,,,,2,0,2,0,,,,,,,,,0,0,0,0,0,0,0,0,1,0,1,0,,,,,,,,,,,,,,,,,,,,,,,,,,,,,,,,,,,,,,,,,,,,,,,,,,,,,,,,,,,,,,,,30,,,,,,,,965.298130699899,965.298130699899,965.298130699899,965.298130699899,965.298130699899,left,0.49228319991379976,0,0,0,99,0.24,0.08,left,0.40633340016938746,,,,,,,,,,,,,,,,,,,,,,,,,,,,,,,,,,,,,,,,,,,,,,,,,,,,,,,,,,,,4MA242,train_x,blue_star,top_right,2025-02-07_09h57.54.225,HideSeek_v1,2022.2.5,59.84476270179578,
,7,6,4,6,-3,0,31,,train_dim1_1,1,30,,,,2,0,2,0,,,,,,,,,0,0,0,0,0,0,0,0,2,0,2,0,,,,,,,,,,,,,,,,,,,,,,,,,,,,,,,,,,,,,,,,,,,,,,,,,,,,,,,,,,,,,,,,30,,,,,,,,965.7970839999616,965.7970839999616,965.7970839999616,965.7970839999616,965.7970839999616,left,0.6597454999573529,0,0,0,99,0.15999999999999998,0.08,left,0.5701556999702007,,,,,,,,,,,,,,,,,,,,,,,,,,,,,,,,,,,,,,,,,,,,,,,,,,,,,,,,,,,,4MA242,train_x,blue_star,top_right,2025-02-07_09h57.54.225,HideSeek_v1,2022.2.5,59.84476270179578,
,7,6,4,6,-3,0,31,,train_dim1_1,1,30,,,,2,0,2,0,,,,,,,,,0,0,0,0,0,0,0,0,3,0,3,0,,,,,,,,,,,,,,,,,,,,,,,,,,,,,,,,,,,,,,,,,,,,,,,,,,,,,,,,,,,,,,,,30,,,,,,,,966.4638543999754,966.4638543999754,966.4638543999754,966.4638543999754,966.4638543999754,left,2.295731700025499,0,0,0,99,0.07999999999999997,0.08,left,2.2073241001926363,,,,,,,,,,,,,,,,,,,,,,,,,,,,,,,,,,,,,,,,,,,,,,,,,,,,,,,,,,,,4MA242,train_x,blue_star,top_right,2025-02-07_09h57.54.225,HideSeek_v1,2022.2.5,59.84476270179578,
,7,6,4,6,-3,0,31,,train_dim1_1,1,30,,,,2,0,2,0,,,,,,,,,0,0,0,0,0,0,0,0,4,0,4,0,,,,,,,,,,,,,,,,,,,,,,,,,,,,,,,,,,,,,,,,,,,,,,,,,,,,,,,,,,,,,,,,30,,,,,,,,968.7674378999509,968.7674378999509,968.7674378999509,968.7674378999509,968.7674378999509,return,0.9252532999962568,0,1,0,0,0.07999999999999997,0.08,return,0.8424708999227732,0,-4,0.07999999999999997,0.08,,,,,,,,,,,,,,,,,,,,,,,,,,,,,,,,,,,,,,,,,,,,,,,,,,,,,,,,4MA242,train_x,blue_star,top_right,2025-02-07_09h57.54.225,HideSeek_v1,2022.2.5,59.84476270179578,
,7,9,2,9,-5,0,11,,train_dim1_1,2,30,,,,2,0,2,0,,,,,,,,,0,0,0,0,0,1,1,1,0,0,0,0,,,,,,,,,,,,,,,,,,,,,,,,,stimuli/alien_stimuli/11.png,,,,,,,,,,,,,,,,,,,,,,,,,,,,,stimuli/alien_stimuli/31.png,31,7,3,,,,,,,30,,,,,,,,998.0698004998267,998.0698004998267,998.0698004998267,998.0698004998267,998.0698004998267,left,7.578058799961582,0,1,0,99,0.32,0.32,left,7.470399799989536,,,,,996.4899781998247,998.0698004998267,0.16,0.08,0.0,0.24,0.08,0.16,0.28,0.16,0.08,971.2697668999899,971.2697668999899,971.2697668999899,971.2697668999899,971.2697668999899,971.2697668999899,971.2697668999899,971.2697668999899,971.2690537401476,25.33916630013846,return,25.203563999850303,,,,,,,,,,,,,,,,,,,,,,,,,,,,,,,,,4MA242,train_x,blue_star,top_right,2025-02-07_09h57.54.225,HideSeek_v1,2022.2.5,59.84476270179578,
,7,9,2,9,-5,0,11,,train_dim1_1,2,30,,,,2,0,2,0,,,,,,,,,0,0,0,0,0,1,1,1,1,0,1,0,,,,,,,,,,,,,,,,,,,,,,,,,,,,,,,,,,,,,,,,,,,,,,,,,,,,,,,,,,,,,,,,30,,,,,,,,1005.6364689997863,1005.6364689997863,1005.6364689997863,1005.6364689997863,1005.6364689997863,left,0.37527260021306574,0,1,0,99,0.24,0.32,left,0.2903219999279827,,,,,,,,,,,,,,,,,,,,,,,,,,,,,,,,,,,,,,,,,,,,,,,,,,,,,,,,,,,,4MA242,train_x,blue_star,top_right,2025-02-07_09h57.54.225,HideSeek_v1,2022.2.5,59.84476270179578,
,7,9,2,9,-5,0,11,,train_dim1_1,2,30,,,,2,0,2,0,,,,,,,,,0,0,0,0,0,1,1,1,2,0,2,0,,,,,,,,,,,,,,,,,,,,,,,,,,,,,,,,,,,,,,,,,,,,,,,,,,,,,,,,,,,,,,,,30,,,,,,,,1006.0198637999129,1006.0198637999129,1006.0198637999129,1006.0198637999129,1006.0198637999129,left,0.3925924999639392,0,1,0,99,0.15999999999999998,0.32,left,0.31109369988553226,,,,,,,,,,,,,,,,,,,,,,,,,,,,,,,,,,,,,,,,,,,,,,,,,,,,,,,,,,,,4MA242,train_x,blue_star,top_right,2025-02-07_09h57.54.225,HideSeek_v1,2022.2.5,59.84476270179578,
,7,9,2,9,-5,0,11,,train_dim1_1,2,30,,,,2,0,2,0,,,,,,,,,0,0,0,0,0,1,1,1,3,0,3,0,,,,,,,,,,,,,,,,,,,,,,,,,,,,,,,,,,,,,,,,,,,,,,,,,,,,,,,,,,,,,,,,30,,,,,,,,1006.4178038998507,1006.4178038998507,1006.4178038998507,1006.4178038998507,1006.4178038998507,left,0.6264436000492424,0,1,0,99,0.07999999999999997,0.32,left,0.5428204000927508,,,,,,,,,,,,,,,,,,,,,,,,,,,,,,,,,,,,,,,,,,,,,,,,,,,,,,,,,,,,4MA242,train_x,blue_star,top_right,2025-02-07_09h57.54.225,HideSeek_v1,2022.2.5,59.84476270179578,
,7,9,2,9,-5,0,11,,train_dim1_1,2,30,,,,2,0,2,0,,,,,,,,,0,0,0,0,0,1,1,1,4,0,4,0,,,,,,,,,,,,,,,,,,,,,,,,,,,,,,,,,,,,,,,,,,,,,,,,,,,,,,,,,,,,,,,,30,,,,,,,,1007.0507913997862,1007.0507913997862,1007.0507913997862,1007.0507913997862,1007.0507913997862,left,2.9635895998217165,0,1,0,99,-2.7755575615628914e-17,0.32,left,2.8797799001913518,,,,,,,,,,,,,,,,,,,,,,,,,,,,,,,,,,,,,,,,,,,,,,,,,,,,,,,,,,,,4MA242,train_x,blue_star,top_right,2025-02-07_09h57.54.225,HideSeek_v1,2022.2.5,59.84476270179578,
,7,9,2,9,-5,0,11,,train_dim1_1,2,30,,,,2,0,2,0,,,,,,,,,0,0,0,0,0,1,1,1,5,0,5,0,,,,,,,,,,,,,,,,,,,,,,,,,,,,,,,,,,,,,,,,,,,,,,,,,,,,,,,,,,,,,,,,30,,,,,,,,1010.0225815998856,1010.0225815998856,1010.0225815998856,1010.0225815998856,1010.0225815998856,return,0.3746950998902321,1,0,0,1,-2.7755575615628914e-17,0.32,return,0.2938830000348389,0,-9,-2.7755575615628914e-17,0.32,,,,,,,,,,,,,,,,,,,,,,,,,,,,,,,,,,,,,,,,,,,,,,,,,,,,,,,,4MA242,train_x,blue_star,top_right,2025-02-07_09h57.54.225,HideSeek_v1,2022.2.5,59.84476270179578,
,9,9,5,9,-4,0,21,,train_dim1_1,3,30,,,,2,0,2,0,,,,,,,,,0,0,0,0,0,2,2,2,0,0,0,0,,,,,,,,,,,,,,,,,,,,,,,,,stimuli/alien_stimuli/21.png,,,,,,,,,,,,,,,,,,,,,,,,,,,,,stimuli/alien_stimuli/11.png,11,7,4,,,,,,,30,,,,,,,,1024.259223099798,1024.259223099798,1024.259223099798,1024.259223099798,1024.259223099798,left,3.024809799855575,1,0,0,99,0.48000000000000004,0.32,left,2.9239488998427987,,,,,1022.6778671999928,1024.259223099798,0,0.32,0.0,0.4,0.32,0,0.2,0,0.32,1011.9833443998359,1011.9833443998359,1011.9833443998359,1011.9833443998359,1011.9833443998359,1011.9833443998359,1011.9833443998359,1011.9833443998359,1011.9680792400148,10.828906999900937,return,10.675499700009823,,,,,,,,,,,,,,,,,,,,,,,,,,,,,,,,,4MA242,train_x,blue_star,top_right,2025-02-07_09h57.54.225,HideSeek_v1,2022.2.5,59.84476270179578,
,9,9,5,9,-4,0,21,,train_dim1_1,3,30,,,,2,0,2,0,,,,,,,,,0,0,0,0,0,2,2,2,1,0,1,0,,,,,,,,,,,,,,,,,,,,,,,,,,,,,,,,,,,,,,,,,,,,,,,,,,,,,,,,,,,,,,,,30,,,,,,,,1027.2681427998468,1027.2681427998468,1027.2681427998468,1027.2681427998468,1027.2681427998468,left,0.2753820999059826,1,0,0,99,0.4,0.32,left,0.18562999996356666,,,,,,,,,,,,,,,,,,,,,,,,,,,,,,,,,,,,,,,,,,,,,,,,,,,,,,,,,,,,4MA242,train_x,blue_star,top_right,2025-02-07_09h57.54.225,HideSeek_v1,2022.2.5,59.84476270179578,
,9,9,5,9,-4,0,21,,train_dim1_1,3,30,,,,2,0,2,0,,,,,,,,,0,0,0,0,0,2,2,2,2,0,2,0,,,,,,,,,,,,,,,,,,,,,,,,,,,,,,,,,,,,,,,,,,,,,,,,,,,,,,,,,,,,,,,,30,,,,,,,,1027.5500480998307,1027.5500480998307,1027.5500480998307,1027.5500480998307,1027.5500480998307,left,0.27631759992800653,1,0,0,99,0.32,0.32,left,0.18397879996336997,,,,,,,,,,,,,,,,,,,,,,,,,,,,,,,,,,,,,,,,,,,,,,,,,,,,,,,,,,,,4MA242,train_x,blue_star,top_right,2025-02-07_09h57.54.225,HideSeek_v1,2022.2.5,59.84476270179578,
,9,9,5,9,-4,0,21,,train_dim1_1,3,30,,,,2,0,2,0,,,,,,,,,0,0,0,0,0,2,2,2,3,0,3,0,,,,,,,,,,,,,,,,,,,,,,,,,,,,,,,,,,,,,,,,,,,,,,,,,,,,,,,,,,,,,,,,30,,,,,,,,1027.8375506999437,1027.8375506999437,1027.8375506999437,1027.8375506999437,1027.8375506999437,left,0.27795370016247034,1,0,0,99,0.24,0.32,left,0.18825219990685582,,,,,,,,,,,,,,,,,,,,,,,,,,,,,,,,,,,,,,,,,,,,,,,,,,,,,,,,,,,,4MA242,train_x,blue_star,top_right,2025-02-07_09h57.54.225,HideSeek_v1,2022.2.5,59.84476270179578,
,9,9,5,9,-4,0,21,,train_dim1_1,3,30,,,,2,0,2,0,,,,,,,,,0,0,0,0,0,2,2,2,4,0,4,0,,,,,,,,,,,,,,,,,,,,,,,,,,,,,,,,,,,,,,,,,,,,,,,,,,,,,,,,,,,,,,,,30,,,,,,,,1028.1214567997959,1028.1214567997959,1028.1214567997959,1028.1214567997959,1028.1214567997959,return,2.376264499966055,2,0,0,1,0.24,0.32,return,2.2978199999779463,0,-13,0.24,0.32,,,,,,,,,,,,,,,,,,,,,,,,,,,,,,,,,,,,,,,,,,,,,,,,,,,,,,,,4MA242,train_x,blue_star,top_right,2025-02-07_09h57.54.225,HideSeek_v1,2022.2.5,59.84476270179578,
,7,8,6,8,-1,0,51,,train_dim1_1,4,30,,,,2,0,2,0,,,,,,,,,0,0,0,0,0,3,3,3,0,0,0,0,,,,,,,,,,,,,,,,,,,,,,,,,stimuli/alien_stimuli/51.png,,,,,,,,,,,,,,,,,,,,,,,,,,,,,stimuli/alien_stimuli/21.png,21,9,5,,,,,,,30,,,,,,,,1036.5058877998963,1036.5058877998963,1036.5058877998963,1036.5058877998963,1036.5058877998963,left,5.958605400053784,2,0,0,99,0.32,0.24,left,5.862124100094661,,,,,1034.938067899784,1036.5058877998963,0.24,0.32,0.0,0.32,0.32,0.24,0.4,0.24,0.32,1032.0768709999975,1032.0768709999975,1032.0768709999975,1032.0768709999975,1032.0768709999975,1032.0768709999975,1032.0768709999975,1032.0768709999975,1032.069736140035,2.9865315998904407,return,2.838003900134936,,,,,,,,,,,,,,,,,,,,,,,,,,,,,,,,,4MA242,train_x,blue_star,top_right,2025-02-07_09h57.54.225,HideSeek_v1,2022.2.5,59.84476270179578,
,7,8,6,8,-1,0,51,,train_dim1_1,4,30,,,,2,0,2,0,,,,,,,,,0,0,0,0,0,3,3,3,1,0,1,0,,,,,,,,,,,,,,,,,,,,,,,,,,,,,,,,,,,,,,,,,,,,,,,,,,,,,,,,,,,,,,,,30,,,,,,,,1042.4668443999253,1042.4668443999253,1042.4668443999253,1042.4668443999253,1042.4668443999253,right,3.392782799899578,2,0,0,99,0.4,0.24,right,3.2993092997930944,,,,,,,,,,,,,,,,,,,,,,,,,,,,,,,,,,,,,,,,,,,,,,,,,,,,,,,,,,,,4MA242,train_x,blue_star,top_right,2025-02-07_09h57.54.225,HideSeek_v1,2022.2.5,59.84476270179578,
,7,8,6,8,-1,0,51,,train_dim1_1,4,30,,,,2,0,2,0,,,,,,,,,0,0,0,0,0,3,3,3,2,0,2,0,,,,,,,,,,,,,,,,,,,,,,,,,,,,,,,,,,,,,,,,,,,,,,,,,,,,,,,,,,,,,,,,30,,,,,,,,1045.8662401000038,1045.8662401000038,1045.8662401000038,1045.8662401000038,1045.8662401000038,return,0.40967550012283027,2,1,0,0,0.4,0.24,return,0.322496100096032,0,-13,0.4,0.24,,,,,,,,,,,,,,,,,,,,,,,,,,,,,,,,,,,,,,,,,,,,,,,,,,,,,,,,4MA242,train_x,blue_star,top_right,2025-02-07_09h57.54.225,HideSeek_v1,2022.2.5,59.84476270179578,
,5,7,5,7,0,0,61,,train_dim1_1,5,30,,,,2,0,2,0,,,,,,,,,0,0,0,0,0,4,4,4,0,0,0,0,,,,,,,,,,,,,,,,,,,,,,,,,stimuli/alien_stimuli/61.png,,,,,,,,,,,,,,,,,,,,,,,,,,,,,stimuli/alien_stimuli/51.png,51,7,6,,,,,,,30,,,,,,,,1051.4693454999942,1051.4693454999942,1051.4693454999942,1051.4693454999942,1051.4693454999942,return,1.3074547001160681,3,0,0,1,0.24,0.16,return,1.2129808000754565,0,-13,0.24,0.16,1049.901907299878,1051.4693454999942,0.32,0.24,0.0,0.08,0.24,0.32,0.36,0.32,0.24,1047.8530237998348,1047.8530237998348,1047.8530237998348,1047.8530237998348,1047.8530237998348,1047.8530237998348,1047.8530237998348,1047.8530237998348,1047.847581139952,2.1710538000334054,return,2.023827499942854,,,,,,,,,,,,,,,,,,,,,,,,,,,,,,,,,4MA242,train_x,blue_star,top_right,2025-02-07_09h57.54.225,HideSeek_v1,2022.2.5,59.84476270179578,
,5,5,1,5,-4,0,21,,train_dim1_1,6,30,,,,2,0,2,0,,,,,,,,,0,0,0,0,0,5,5,5,0,0,0,0,,,,,,,,,,,,,,,,,,,,,,,,,stimuli/alien_stimuli/21.png,,,,,,,,,,,,,,,,,,,,,,,,,,,,,stimuli/alien_stimuli/61.png,61,5,7,,,,,,,30,,,,,,,,1057.891292099841,1057.891292099841,1057.891292099841,1057.891292099841,1057.891292099841,left,2.2234367998316884,3,0,0,99,0.15999999999999998,0,left,2.133379700127989,,,,,1056.3228434999473,1057.891292099841,0.24,0.16,0.0,0.0,0.16,0.24,0.24,0.24,0.16,1054.3412393999752,1054.3412393999752,1054.3412393999752,1054.3412393999752,1054.3412393999752,1054.3412393999752,1054.3412393999752,1054.3412393999752,1054.3365077599183,2.088628700003028,return,1.957310900092125,,,,,,,,,,,,,,,,,,,,,,,,,,,,,,,,,4MA242,train_x,blue_star,top_right,2025-02-07_09h57.54.225,HideSeek_v1,2022.2.5,59.84476270179578,
,5,5,1,5,-4,0,21,,train_dim1_1,6,30,,,,2,0,2,0,,,,,,,,,0,0,0,0,0,5,5,5,1,0,1,0,,,,,,,,,,,,,,,,,,,,,,,,,,,,,,,,,,,,,,,,,,,,,,,,,,,,,,,,,,,,,,,,30,,,,,,,,1060.1120903999545,1060.1120903999545,1060.1120903999545,1060.1120903999545,1060.1120903999545,left,0.27540080016478896,3,0,0,99,0.07999999999999997,0,left,0.19588969997130334,,,,,,,,,,,,,,,,,,,,,,,,,,,,,,,,,,,,,,,,,,,,,,,,,,,,,,,,,,,,4MA242,train_x,blue_star,top_right,2025-02-07_09h57.54.225,HideSeek_v1,2022.2.5,59.84476270179578,
,5,5,1,5,-4,0,21,,train_dim1_1,6,30,,,,2,0,2,0,,,,,,,,,0,0,0,0,0,5,5,5,2,0,2,0,,,,,,,,,,,,,,,,,,,,,,,,,,,,,,,,,,,,,,,,,,,,,,,,,,,,,,,,,,,,,,,,30,,,,,,,,1060.3978938998189,1060.3978938998189,1060.3978938998189,1060.3978938998189,1060.3978938998189,left,0.6932333000004292,3,0,0,99,-2.7755575615628914e-17,0,left,0.6056236999575049,,,,,,,,,,,,,,,,,,,,,,,,,,,,,,,,,,,,,,,,,,,,,,,,,,,,,,,,,,,,4MA242,train_x,blue_star,top_right,2025-02-07_09h57.54.225,HideSeek_v1,2022.2.5,59.84476270179578,
,5,5,1,5,-4,0,21,,train_dim1_1,6,30,,,,2,0,2,0,,,,,,,,,0,0,0,0,0,5,5,5,3,0,3,0,,,,,,,,,,,,,,,,,,,,,,,,,,,,,,,,,,,,,,,,,,,,,,,,,,,,,,,,,,,,,,,,30,,,,,,,,1061.0958248998504,1061.0958248998504,1061.0958248998504,1061.0958248998504,1061.0958248998504,left,2.010747699998319,3,0,0,99,-0.08000000000000003,0,left,1.9173524999059737,,,,,,,,,,,,,,,,,,,,,,,,,,,,,,,,,,,,,,,,,,,,,,,,,,,,,,,,,,,,4MA242,train_x,blue_star,top_right,2025-02-07_09h57.54.225,HideSeek_v1,2022.2.5,59.84476270179578,
,5,5,1,5,-4,0,21,,train_dim1_1,6,30,,,,2,0,2,0,,,,,,,,,0,0,0,0,0,5,5,5,4,0,4,0,,,,,,,,,,,,,,,,,,,,,,,,,,,,,,,,,,,,,,,,,,,,,,,,,,,,,,,,,,,,,,,,30,,,,,,,,1063.1144778998569,1063.1144778998569,1063.1144778998569,1063.1144778998569,1063.1144778998569,return,2.9964195999782532,4,0,0,1,-0.08000000000000003,0,return,2.9066775999963284,0,-17,-0.08000000000000003,0,,,,,,,,,,,,,,,,,,,,,,,,,,,,,,,,,,,,,,,,,,,,,,,,,,,,,,,,4MA242,train_x,blue_star,top_right,2025-02-07_09h57.54.225,HideSeek_v1,2022.2.5,59.84476270179578,
,8,5,8,5,0,0,61,,train_dim1_1,7,30,,,,2,0,2,0,,,,,,,,,0,0,0,0,0,6,6,6,0,0,0,0,,,,,,,,,,,,,,,,,,,,,,,,,stimuli/alien_stimuli/61.png,,,,,,,,,,,,,,,,,,,,,,,,,,,,,stimuli/alien_stimuli/21.png,21,5,8,,,,,,,30,,,,,,,,1071.190620899899,1071.190620899899,1071.190620899899,1071.190620899899,1071.190620899899,return,2.6576592999044806,5,0,0,1,0.48,0,return,2.5645899001974612,0,-17,0.48,0,1069.6060067999642,,-0.08,0,0.0,0.32,0.0,-0.08,0.07999999999999999,-0.08,0,1067.7135777999647,1067.7135777999647,1067.7135777999647,1067.7135777999647,1067.7135777999647,1067.7135777999647,1067.7135777999647,1067.7135777999647,1067.699513540091,2.0264369000215083,return,1.8742006001994014,,,,,,,,,,,,,,,,,,,,,,,,,,,,,,,,,4MA242,train_x,blue_star,top_right,2025-02-07_09h57.54.225,HideSeek_v1,2022.2.5,59.84476270179578,
,5,9,2,9,-3,0,31,,train_dim1_1,8,30,,,,2,0,2,0,,,,,,,,,0,0,0,0,0,7,7,7,0,0,0,0,,,,,,,,,,,,,,,,,,,,,,,,,stimuli/alien_stimuli/31.png,,,,,,,,,,,,,,,,,,,,,,,,,,,,,stimuli/alien_stimuli/61.png,61,8,9,,,,,,,30,,,,,,,,1078.2339136998635,1078.2339136998635,1078.2339136998635,1078.2339136998635,1078.2339136998635,left,1.6734251000452787,5,0,0,99,0.15999999999999998,0.32,left,1.5915189001243562,,,,,1076.6726072998717,1078.2339136998635,0.48,0,0.0,0.0,0.0,0.48,0.48,0.48,0,1075.415351799922,1075.415351799922,1075.415351799922,1075.415351799922,1075.415351799922,1075.415351799922,1075.415351799922,1075.415351799922,1075.4039815400727,1.3868343001231551,return,1.2293209999334067,,,,,,,,,,,,,,,,,,,,,,,,,,,,,,,,,4MA242,train_x,blue_star,top_right,2025-02-07_09h57.54.225,HideSeek_v1,2022.2.5,59.84476270179578,
,5,9,2,9,-3,0,31,,train_dim1_1,8,30,,,,2,0,2,0,,,,,,,,,0,0,0,0,0,7,7,7,1,0,1,0,,,,,,,,,,,,,,,,,,,,,,,,,,,,,,,,,,,,,,,,,,,,,,,,,,,,,,,,,,,,,,,,30,,,,,,,,1079.907853799872,1079.907853799872,1079.907853799872,1079.907853799872,1079.907853799872,left,0.6942356000654399,5,0,0,99,0.07999999999999997,0.32,left,0.603527800180018,,,,,,,,,,,,,,,,,,,,,,,,,,,,,,,,,,,,,,,,,,,,,,,,,,,,,,,,,,,,4MA242,train_x,blue_star,top_right,2025-02-07_09h57.54.225,HideSeek_v1,2022.2.5,59.84476270179578,
,5,9,2,9,-3,0,31,,train_dim1_1,8,30,,,,2,0,2,0,,,,,,,,,0,0,0,0,0,7,7,7,2,0,2,0,,,,,,,,,,,,,,,,,,,,,,,,,,,,,,,,,,,,,,,,,,,,,,,,,,,,,,,,,,,,,,,,30,,,,,,,,1080.6095655998215,1080.6095655998215,1080.6095655998215,1080.6095655998215,1080.6095655998215,left,0.24103219993412495,5,0,0,99,-2.7755575615628914e-17,0.32,left,0.15725759998895228,,,,,,,,,,,,,,,,,,,,,,,,,,,,,,,,,,,,,,,,,,,,,,,,,,,,,,,,,,,,4MA242,train_x,blue_star,top_right,2025-02-07_09h57.54.225,HideSeek_v1,2022.2.5,59.84476270179578,
,5,9,2,9,-3,0,31,,train_dim1_1,8,30,,,,2,0,2,0,,,,,,,,,0,0,0,0,0,7,7,7,3,0,3,0,,,,,,,,,,,,,,,,,,,,,,,,,,,,,,,,,,,,,,,,,,,,,,,,,,,,,,,,,,,,,,,,30,,,,,,,,1080.8581647998653,1080.8581647998653,1080.8581647998653,1080.8581647998653,1080.8581647998653,return,1.326926900073886,6,0,0,1,-2.7755575615628914e-17,0.32,return,1.2431700001470745,0,-20,-2.7755575615628914e-17,0.32,,,,,,,,,,,,,,,,,,,,,,,,,,,,,,,,,,,,,,,,,,,,,,,,,,,,,,,,4MA242,train_x,blue_star,top_right,2025-02-07_09h57.54.225,HideSeek_v1,2022.2.5,59.84476270179578,
,6,5,5,5,-1,0,51,,train_dim1_1,9,30,,,,2,0,2,0,,,,,,,,,0,0,0,0,0,8,8,8,0,0,0,0,,,,,,,,,,,,,,,,,,,,,,,,,stimuli/alien_stimuli/51.png,,,,,,,,,,,,,,,,,,,,,,,,,,,,,stimuli/alien_stimuli/31.png,31,5,10,,,,,,,30,,,,,,,,1086.2865691999905,1086.2865691999905,1086.2865691999905,1086.2865691999905,1086.2865691999905,left,1.2227511999662966,6,0,0,99,0.24,0,left,1.1275704000145197,,,,,1084.713825599989,1086.2865691999905,0,0.32,0.0,0.24,0.32,0,0.12,0,0.32,1083.7500157998875,1083.7500157998875,1083.7500157998875,1083.7500157998875,1083.7500157998875,1083.7500157998875,1083.7500157998875,1083.7500157998875,1083.7440720600307,1.073021899908781,return,0.9356482001021504,,,,,,,,,,,,,,,,,,,,,,,,,,,,,,,,,4MA242,train_x,blue_star,top_right,2025-02-07_09h57.54.225,HideSeek_v1,2022.2.5,59.84476270179578,
,6,5,5,5,-1,0,51,,train_dim1_1,9,30,,,,2,0,2,0,,,,,,,,,0,0,0,0,0,8,8,8,1,0,1,0,,,,,,,,,,,,,,,,,,,,,,,,,,,,,,,,,,,,,,,,,,,,,,,,,,,,,,,,,,,,,,,,30,,,,,,,,1087.501215999946,1087.501215999946,1087.501215999946,1087.501215999946,1087.501215999946,return,0.45848369994200766,7,0,0,1,0.24,0,return,0.36582469986751676,0,-21,0.24,0,,,,,,,,,,,,,,,,,,,,,,,,,,,,,,,,,,,,,,,,,,,,,,,,,,,,,,,,4MA242,train_x,blue_star,top_right,2025-02-07_09h57.54.225,HideSeek_v1,2022.2.5,59.84476270179578,
,5,8,0,8,-5,0,11,,train_dim1_1,10,30,,,,2,0,2,0,,,,,,,,,0,0,0,0,0,9,9,9,0,0,0,0,,,,,,,,,,,,,,,,,,,,,,,,,stimuli/alien_stimuli/11.png,,,,,,,,,,,,,,,,,,,,,,,,,,,,,stimuli/alien_stimuli/51.png,51,6,11,,,,,,,30,,,,,,,,1092.3816003999673,1092.3816003999673,1092.3816003999673,1092.3816003999673,1092.3816003999673,left,2.5091752000153065,7,0,0,99,0.15999999999999998,0.24,left,2.392610999988392,,,,,1090.8010950000025,1092.3816003999673,0.24,0,0.0,0.08,0.0,0.24,0.28,0.24,0,1089.5259669998195,1089.5259669998195,1089.5259669998195,1089.5259669998195,1089.5259669998195,1089.5259669998195,1089.5259669998195,1089.5259669998195,1089.515731060109,1.3870483001228422,return,1.2567165000364184,,,,,,,,,,,,,,,,,,,,,,,,,,,,,,,,,4MA242,train_x,blue_star,top_right,2025-02-07_09h57.54.225,HideSeek_v1,2022.2.5,59.84476270179578,
,5,8,0,8,-5,0,11,,train_dim1_1,10,30,,,,2,0,2,0,,,,,,,,,0,0,0,0,0,9,9,9,1,0,1,0,,,,,,,,,,,,,,,,,,,,,,,,,,,,,,,,,,,,,,,,,,,,,,,,,,,,,,,,,,,,,,,,30,,,,,,,,1094.8771299999207,1094.8771299999207,1094.8771299999207,1094.8771299999207,1094.8771299999207,left,0.39109309995546937,7,0,0,99,0.07999999999999997,0.24,left,0.30860190000385046,,,,,,,,,,,,,,,,,,,,,,,,,,,,,,,,,,,,,,,,,,,,,,,,,,,,,,,,,,,,4MA242,train_x,blue_star,top_right,2025-02-07_09h57.54.225,HideSeek_v1,2022.2.5,59.84476270179578,
,5,8,0,8,-5,0,11,,train_dim1_1,10,30,,,,2,0,2,0,,,,,,,,,0,0,0,0,0,9,9,9,2,0,2,0,,,,,,,,,,,,,,,,,,,,,,,,,,,,,,,,,,,,,,,,,,,,,,,,,,,,,,,,,,,,,,,,30,,,,,,,,1095.2738028999884,1095.2738028999884,1095.2738028999884,1095.2738028999884,1095.2738028999884,left,0.4597487999126315,7,0,0,99,-2.7755575615628914e-17,0.24,left,0.3695501999463886,,,,,,,,,,,,,,,,,,,,,,,,,,,,,,,,,,,,,,,,,,,,,,,,,,,,,,,,,,,,4MA242,train_x,blue_star,top_right,2025-02-07_09h57.54.225,HideSeek_v1,2022.2.5,59.84476270179578,
,5,8,0,8,-5,0,11,,train_dim1_1,10,30,,,,2,0,2,0,,,,,,,,,0,0,0,0,0,9,9,9,3,0,3,0,,,,,,,,,,,,,,,,,,,,,,,,,,,,,,,,,,,,,,,,,,,,,,,,,,,,,,,,,,,,,,,,30,,,,,,,,1095.7412197999656,1095.7412197999656,1095.7412197999656,1095.7412197999656,1095.7412197999656,left,0.39253870001994073,7,0,0,99,-0.08000000000000003,0.24,left,0.3150732000358403,,,,,,,,,,,,,,,,,,,,,,,,,,,,,,,,,,,,,,,,,,,,,,,,,,,,,,,,,,,,4MA242,train_x,blue_star,top_right,2025-02-07_09h57.54.225,HideSeek_v1,2022.2.5,59.84476270179578,
,5,8,0,8,-5,0,11,,train_dim1_1,10,30,,,,2,0,2,0,,,,,,,,,0,0,0,0,0,9,9,9,4,0,4,0,,,,,,,,,,,,,,,,,,,,,,,,,,,,,,,,,,,,,,,,,,,,,,,,,,,,,,,,,,,,,,,,30,,,,,,,,1096.1412697997876,1096.1412697997876,1096.1412697997876,1096.1412697997876,1096.1412697997876,left,0.3596163000911474,7,0,0,99,-0.16000000000000003,0.24,left,0.2774052999448031,,,,,,,,,,,,,,,,,,,,,,,,,,,,,,,,,,,,,,,,,,,,,,,,,,,,,,,,,,,,4MA242,train_x,blue_star,top_right,2025-02-07_09h57.54.225,HideSeek_v1,2022.2.5,59.84476270179578,
,5,8,0,8,-5,0,11,,train_dim1_1,10,30,,,,2,0,2,0,,,,,,,,,0,0,0,0,0,9,9,9,5,0,5,0,,,,,,,,,,,,,,,,,,,,,,,,,,,,,,,,,,,,,,,,,,,,,,,,,,,,,,,,,,,,,,,,30,,,,,,,,1096.508368599927,1096.508368599927,1096.508368599927,1096.508368599927,1096.508368599927,return,0.3092781000304967,8,0,0,1,-0.16000000000000003,0.24,return,0.23226950014941394,0,-26,-0.16000000000000003,0.24,,,,,,,,,,,,,,,,,,,,,,,,,,,,,,,,,,,,,,,,,,,,,,,,,,,,,,,,4MA242,train_x,blue_star,top_right,2025-02-07_09h57.54.225,HideSeek_v1,2022.2.5,59.84476270179578,
,7,7,4,7,-3,0,31,,train_dim1_1,11,30,,,,2,0,2,0,,,,,,,,,0,0,0,0,0,10,10,10,0,0,0,0,,,,,,,,,,,,,,,,,,,,,,,,,stimuli/alien_stimuli/31.png,,,,,,,,,,,,,,,,,,,,,,,,,,,,,stimuli/alien_stimuli/11.png,11,5,12,,,,,,,30,,,,,,,,1101.379447599873,1101.379447599873,1101.379447599873,1101.379447599873,1101.379447599873,left,1.8237019998487085,8,0,0,99,0.32,0.16,left,1.7331974999979138,,,,,1099.7970277999993,1098.3835295999888,-0.16,0.24,0.0,0.4,0.24,-0.16,0.039999999999999994,-0.16,0.24,1098.3835295999888,1098.3835295999888,1098.3835295999888,1098.3835295999888,1098.3835295999888,1098.3835295999888,1098.3835295999888,1098.3835295999888,1098.3728859600842,1.5263235000893474,return,1.3844399000518024,,,,,,,,,,,,,,,,,,,,,,,,,,,,,,,,,4MA242,train_x,blue_star,top_right,2025-02-07_09h57.54.225,HideSeek_v1,2022.2.5,59.84476270179578,
,7,7,4,7,-3,0,31,,train_dim1_1,11,30,,,,2,0,2,0,,,,,,,,,0,0,0,0,0,10,10,10,1,0,1,0,,,,,,,,,,,,,,,,,,,,,,,,,,,,,,,,,,,,,,,,,,,,,,,,,,,,,,,,,,,,,,,,30,,,,,,,,1103.1936648997944,1103.1936648997944,1103.1936648997944,1103.1936648997944,1103.1936648997944,left,0.3754944000393152,8,0,0,99,0.24,0.16,left,0.29713790002278984,,,,,,,,,,,,,,,,,,,,,,,,,,,,,,,,,,,,,,,,,,,,,,,,,,,,,,,,,,,,4MA242,train_x,blue_star,top_right,2025-02-07_09h57.54.225,HideSeek_v1,2022.2.5,59.84476270179578,
,7,7,4,7,-3,0,31,,train_dim1_1,11,30,,,,2,0,2,0,,,,,,,,,0,0,0,0,0,10,10,10,2,0,2,0,,,,,,,,,,,,,,,,,,,,,,,,,,,,,,,,,,,,,,,,,,,,,,,,,,,,,,,,,,,,,,,,30,,,,,,,,1103.5771801997907,1103.5771801997907,1103.5771801997907,1103.5771801997907,1103.5771801997907,left,0.5596492998301983,8,0,0,99,0.15999999999999998,0.16,left,0.48079299996607006,,,,,,,,,,,,,,,,,,,,,,,,,,,,,,,,,,,,,,,,,,,,,,,,,,,,,,,,,,,,4MA242,train_x,blue_star,top_right,2025-02-07_09h57.54.225,HideSeek_v1,2022.2.5,59.84476270179578,
,7,7,4,7,-3,0,31,,train_dim1_1,11,30,,,,2,0,2,0,,,,,,,,,0,0,0,0,0,10,10,10,3,0,3,0,,,,,,,,,,,,,,,,,,,,,,,,,,,,,,,,,,,,,,,,,,,,,,,,,,,,,,,,,,,,,,,,30,,,,,,,,1104.1445018998347,1104.1445018998347,1104.1445018998347,1104.1445018998347,1104.1445018998347,return,0.6429268999490887,9,0,0,1,0.15999999999999998,0.16,return,0.5674694001208991,0,-29,0.15999999999999998,0.16,,,,,,,,,,,,,,,,,,,,,,,,,,,,,,,,,,,,,,,,,,,,,,,,,,,,,,,,4MA242,train_x,blue_star,top_right,2025-02-07_09h57.54.225,HideSeek_v1,2022.2.5,59.84476270179578,
,5,5,1,5,-4,0,21,,train_dim1_1,12,30,,,,2,0,2,0,,,,,,,,,0,0,0,0,0,11,11,11,0,0,0,0,,,,,,,,,,,,,,,,,,,,,,,,,stimuli/alien_stimuli/21.png,,,,,,,,,,,,,,,,,,,,,,,,,,,,,stimuli/alien_stimuli/31.png,31,7,13,,,,,,,30,,,,,,,,1108.9291670999955,1108.9291670999955,1108.9291670999955,1108.9291670999955,1108.9291670999955,left,1.3543612000066787,9,0,0,99,0.15999999999999998,0,left,1.2523861001245677,,,,,1107.34850559989,1108.9291670999955,0.16,0.16,0.0,0.24,0.16,0.16,0.28,0.16,0.16,1106.3535244998056,1106.3535244998056,1106.3535244998056,1106.3535244998056,1106.3535244998056,1106.3535244998056,1106.3535244998056,1106.3535244998056,1106.3463387600377,1.1042367001064122,return,0.9665722998324782,,,,,,,,,,,,,,,,,,,,,,,,,,,,,,,,,4MA242,train_x,blue_star,top_right,2025-02-07_09h57.54.225,HideSeek_v1,2022.2.5,59.84476270179578,
,5,5,1,5,-4,0,21,,train_dim1_1,12,30,,,,2,0,2,0,,,,,,,,,0,0,0,0,0,11,11,11,1,0,1,0,,,,,,,,,,,,,,,,,,,,,,,,,,,,,,,,,,,,,,,,,,,,,,,,,,,,,,,,,,,,,,,,30,,,,,,,,1110.2753678997979,1110.2753678997979,1110.2753678997979,1110.2753678997979,1110.2753678997979,left,0.2908578999340534,9,0,0,99,0.07999999999999997,0,left,0.19848180003464222,,,,,,,,,,,,,,,,,,,,,,,,,,,,,,,,,,,,,,,,,,,,,,,,,,,,,,,,,,,,4MA242,train_x,blue_star,top_right,2025-02-07_09h57.54.225,HideSeek_v1,2022.2.5,59.84476270179578,
,5,5,1,5,-4,0,21,,train_dim1_1,12,30,,,,2,0,2,0,,,,,,,,,0,0,0,0,0,11,11,11,2,0,2,0,,,,,,,,,,,,,,,,,,,,,,,,,,,,,,,,,,,,,,,,,,,,,,,,,,,,,,,,,,,,,,,,30,,,,,,,,1110.5742996998597,1110.5742996998597,1110.5742996998597,1110.5742996998597,1110.5742996998597,left,0.2755883999634534,9,0,0,99,-2.7755575615628914e-17,0,left,0.19403339992277324,,,,,,,,,,,,,,,,,,,,,,,,,,,,,,,,,,,,,,,,,,,,,,,,,,,,,,,,,,,,4MA242,train_x,blue_star,top_right,2025-02-07_09h57.54.225,HideSeek_v1,2022.2.5,59.84476270179578,
,5,5,1,5,-4,0,21,,train_dim1_1,12,30,,,,2,0,2,0,,,,,,,,,0,0,0,0,0,11,11,11,3,0,3,0,,,,,,,,,,,,,,,,,,,,,,,,,,,,,,,,,,,,,,,,,,,,,,,,,,,,,,,,,,,,,,,,30,,,,,,,,1110.8528606998734,1110.8528606998734,1110.8528606998734,1110.8528606998734,1110.8528606998734,left,0.29272580007091165,9,0,0,99,-0.08000000000000003,0,left,0.20156050007790327,,,,,,,,,,,,,,,,,,,,,,,,,,,,,,,,,,,,,,,,,,,,,,,,,,,,,,,,,,,,4MA242,train_x,blue_star,top_right,2025-02-07_09h57.54.225,HideSeek_v1,2022.2.5,59.84476270179578,
,5,5,1,5,-4,0,21,,train_dim1_1,12,30,,,,2,0,2,0,,,,,,,,,0,0,0,0,0,11,11,11,4,0,4,0,,,,,,,,,,,,,,,,,,,,,,,,,,,,,,,,,,,,,,,,,,,,,,,,,,,,,,,,,,,,,,,,30,,,,,,,,1111.1532608999405,1111.1532608999405,1111.1532608999405,1111.1532608999405,1111.1532608999405,return,0.29242019983939826,10,0,0,1,-0.08000000000000003,0,return,0.2026257999241352,0,-33,-0.08000000000000003,0,,,,,,,,,,,,,,,,,,,,,,,,,,,,,,,,,,,,,,,,,,,,,,,,,,,,,,,,4MA242,train_x,blue_star,top_right,2025-02-07_09h57.54.225,HideSeek_v1,2022.2.5,59.84476270179578,
,5,9,4,9,-1,0,51,,train_dim1_1,13,30,,,,2,0,2,0,,,,,,,,,0,0,0,0,0,12,12,12,0,0,0,0,,,,,,,,,,,,,,,,,,,,,,,,,stimuli/alien_stimuli/51.png,,,,,,,,,,,,,,,,,,,,,,,,,,,,,stimuli/alien_stimuli/21.png,21,5,14,,,,,,,30,,,,,,,,1115.7847561999224,1115.7847561999224,1115.7847561999224,1115.7847561999224,1115.7847561999224,left,1.1223955999594182,10,0,0,99,0.15999999999999998,0.32,left,1.0267576999031007,,,,,1114.2226207999047,1115.7847561999224,-0.08,0,0.0,0.32,0.0,-0.08,0.07999999999999999,-0.08,0,1113.0120360997971,1113.0120360997971,1113.0120360997971,1113.0120360997971,1113.0120360997971,1113.0120360997971,1113.0120360997971,1113.0120360997971,1113.0017230600815,1.320692699868232,return,1.181899999966845,,,,,,,,,,,,,,,,,,,,,,,,,,,,,,,,,4MA242,train_x,blue_star,top_right,2025-02-07_09h57.54.225,HideSeek_v1,2022.2.5,59.84476270179578,
,5,9,4,9,-1,0,51,,train_dim1_1,13,30,,,,2,0,2,0,,,,,,,,,0,0,0,0,0,12,12,12,1,0,1,0,,,,,,,,,,,,,,,,,,,,,,,,,,,,,,,,,,,,,,,,,,,,,,,,,,,,,,,,,,,,,,,,30,,,,,,,,1116.908764099935,1116.908764099935,1116.908764099935,1116.908764099935,1116.908764099935,return,0.3923337999731302,11,0,0,1,0.15999999999999998,0.32,return,0.3118009997997433,0,-34,0.15999999999999998,0.32,,,,,,,,,,,,,,,,,,,,,,,,,,,,,,,,,,,,,,,,,,,,,,,,,,,,,,,,4MA242,train_x,blue_star,top_right,2025-02-07_09h57.54.225,HideSeek_v1,2022.2.5,59.84476270179578,
,9,8,4,8,-5,0,11,,train_dim1_1,14,30,,,,2,0,2,0,,,,,,,,,0,0,0,0,0,13,13,13,0,0,0,0,,,,,,,,,,,,,,,,,,,,,,,,,stimuli/alien_stimuli/11.png,,,,,,,,,,,,,,,,,,,,,,,,,,,,,stimuli/alien_stimuli/51.png,51,5,15,,,,,,,30,,,,,,,,1121.492343599908,1121.492343599908,1121.492343599908,1121.492343599908,1121.492343599908,left,1.2710116999223828,11,0,0,99,0.48000000000000004,0.24,left,1.1841712999157608,,,,,1119.9254823999945,1121.492343599908,0.16,0.32,0.0,0.08,0.32,0.16,0.2,0.16,0.32,1118.8663872999605,1118.8663872999605,1118.8663872999605,1118.8663872999605,1118.8663872999605,1118.8663872999605,1118.8663872999605,1118.8663872999605,1118.856574260094,1.1705602000001818,return,1.0355656000319868,,,,,,,,,,,,,,,,,,,,,,,,,,,,,,,,,4MA242,train_x,blue_star,top_right,2025-02-07_09h57.54.225,HideSeek_v1,2022.2.5,59.84476270179578,
,9,8,4,8,-5,0,11,,train_dim1_1,14,30,,,,2,0,2,0,,,,,,,,,0,0,0,0,0,13,13,13,1,0,1,0,,,,,,,,,,,,,,,,,,,,,,,,,,,,,,,,,,,,,,,,,,,,,,,,,,,,,,,,,,,,,,,,30,,,,,,,,1122.7664145999588,1122.7664145999588,1122.7664145999588,1122.7664145999588,1122.7664145999588,left,0.4088925998657942,11,0,0,99,0.4,0.24,left,0.3241034001111984,,,,,,,,,,,,,,,,,,,,,,,,,,,,,,,,,,,,,,,,,,,,,,,,,,,,,,,,,,,,4MA242,train_x,blue_star,top_right,2025-02-07_09h57.54.225,HideSeek_v1,2022.2.5,59.84476270179578,
,9,8,4,8,-5,0,11,,train_dim1_1,14,30,,,,2,0,2,0,,,,,,,,,0,0,0,0,0,13,13,13,2,0,2,0,,,,,,,,,,,,,,,,,,,,,,,,,,,,,,,,,,,,,,,,,,,,,,,,,,,,,,,,,,,,,,,,30,,,,,,,,1123.1800916998181,1123.1800916998181,1123.1800916998181,1123.1800916998181,1123.1800916998181,left,0.4929076998960227,11,0,0,99,0.32,0.24,left,0.410797200165689,,,,,,,,,,,,,,,,,,,,,,,,,,,,,,,,,,,,,,,,,,,,,,,,,,,,,,,,,,,,4MA242,train_x,blue_star,top_right,2025-02-07_09h57.54.225,HideSeek_v1,2022.2.5,59.84476270179578,
,9,8,4,8,-5,0,11,,train_dim1_1,14,30,,,,2,0,2,0,,,,,,,,,0,0,0,0,0,13,13,13,3,0,3,0,,,,,,,,,,,,,,,,,,,,,,,,,,,,,,,,,,,,,,,,,,,,,,,,,,,,,,,,,,,,,,,,30,,,,,,,,1123.6810663999058,1123.6810663999058,1123.6810663999058,1123.6810663999058,1123.6810663999058,left,0.4762510999571532,11,0,0,99,0.24,0.24,left,0.39324190001934767,,,,,,,,,,,,,,,,,,,,,,,,,,,,,,,,,,,,,,,,,,,,,,,,,,,,,,,,,,,,4MA242,train_x,blue_star,top_right,2025-02-07_09h57.54.225,HideSeek_v1,2022.2.5,59.84476270179578,
,9,8,4,8,-5,0,11,,train_dim1_1,14,30,,,,2,0,2,0,,,,,,,,,0,0,0,0,0,13,13,13,4,0,4,0,,,,,,,,,,,,,,,,,,,,,,,,,,,,,,,,,,,,,,,,,,,,,,,,,,,,,,,,,,,,,,,,30,,,,,,,,1124.1647489999887,1124.1647489999887,1124.1647489999887,1124.1647489999887,1124.1647489999887,left,0.35912529984489083,11,0,0,99,0.15999999999999998,0.24,left,0.27564299991354346,,,,,,,,,,,,,,,,,,,,,,,,,,,,,,,,,,,,,,,,,,,,,,,,,,,,,,,,,,,,4MA242,train_x,blue_star,top_right,2025-02-07_09h57.54.225,HideSeek_v1,2022.2.5,59.84476270179578,
,9,8,4,8,-5,0,11,,train_dim1_1,14,30,,,,2,0,2,0,,,,,,,,,0,0,0,0,0,13,13,13,5,0,5,0,,,,,,,,,,,,,,,,,,,,,,,,,,,,,,,,,,,,,,,,,,,,,,,,,,,,,,,,,,,,,,,,30,,,,,,,,1124.5322604000103,1124.5322604000103,1124.5322604000103,1124.5322604000103,1124.5322604000103,return,0.82656339998357,12,0,0,1,0.15999999999999998,0.24,return,0.7444261000491679,0,-39,0.15999999999999998,0.24,,,,,,,,,,,,,,,,,,,,,,,,,,,,,,,,,,,,,,,,,,,,,,,,,,,,,,,,4MA242,train_x,blue_star,top_right,2025-02-07_09h57.54.225,HideSeek_v1,2022.2.5,59.84476270179578,
,9,7,9,7,0,0,61,,train_dim1_1,15,30,,,,2,0,2,0,,,,,,,,,0,0,0,0,0,14,14,14,0,0,0,0,,,,,,,,,,,,,,,,,,,,,,,,,stimuli/alien_stimuli/61.png,,,,,,,,,,,,,,,,,,,,,,,,,,,,,stimuli/alien_stimuli/11.png,11,9,16,,,,,,,30,,,,,,,,1130.0252795999404,1130.0252795999404,1130.0252795999404,1130.0252795999404,1130.0252795999404,return,1.0067227000836283,13,0,0,1,0.56,0.16,return,0.9084956999868155,0,-39,0.56,0.16,1128.4491179999895,1130.0252795999404,0.16,0.24,0.0,0.4,0.24,0.16,0.36000000000000004,0.16,0.24,1126.9249539999291,1126.9249539999291,1126.9249539999291,1126.9249539999291,1126.9249539999291,1126.9249539999291,1126.9249539999291,1126.9249539999291,1126.913461760082,1.637122199870646,return,1.4995105999987572,,,,,,,,,,,,,,,,,,,,,,,,,,,,,,,,,4MA242,train_x,blue_star,top_right,2025-02-07_09h57.54.225,HideSeek_v1,2022.2.5,59.84476270179578,
,8,8,7,8,-1,0,51,,train_dim1_1,16,30,,,,2,0,2,0,,,,,,,,,0,0,0,0,0,15,15,15,0,0,0,0,,,,,,,,,,,,,,,,,,,,,,,,,stimuli/alien_stimuli/51.png,,,,,,,,,,,,,,,,,,,,,,,,,,,,,stimuli/alien_stimuli/61.png,61,9,17,,,,,,,30,,,,,,,,1135.2682465999387,1135.2682465999387,1135.2682465999387,1135.2682465999387,1135.2682465999387,left,1.0393550000153482,13,0,0,99,0.39999999999999997,0.24,left,0.9403568999841809,,,,,1133.7047440998722,1135.2682465999387,0.56,0.16,0.0,0.0,0.16,0.56,0.56,0.56,0.16,1132.5788068999536,1132.5788068999536,1132.5788068999536,1132.5788068999536,1132.5788068999536,1132.5788068999536,1132.5788068999536,1132.5788068999536,1132.568038759916,1.239825100172311,return,1.109405100112781,,,,,,,,,,,,,,,,,,,,,,,,,,,,,,,,,4MA242,train_x,blue_star,top_right,2025-02-07_09h57.54.225,HideSeek_v1,2022.2.5,59.84476270179578,
,8,8,7,8,-1,0,51,,train_dim1_1,16,30,,,,2,0,2,0,,,,,,,,,0,0,0,0,0,15,15,15,1,0,1,0,,,,,,,,,,,,,,,,,,,,,,,,,,,,,,,,,,,,,,,,,,,,,,,,,,,,,,,,,,,,,,,,30,,,,,,,,1136.3067739999387,1136.3067739999387,1136.3067739999387,1136.3067739999387,1136.3067739999387,return,0.392445300007239,14,0,0,1,0.39999999999999997,0.24,return,0.309415299911052,0,-40,0.39999999999999997,0.24,,,,,,,,,,,,,,,,,,,,,,,,,,,,,,,,,,,,,,,,,,,,,,,,,,,,,,,,4MA242,train_x,blue_star,top_right,2025-02-07_09h57.54.225,HideSeek_v1,2022.2.5,59.84476270179578,
,7,9,3,9,-4,0,21,,train_dim1_1,17,30,,,,2,0,2,0,,,,,,,,,0,0,0,0,0,16,16,16,0,0,0,0,,,,,,,,,,,,,,,,,,,,,,,,,stimuli/alien_stimuli/21.png,,,,,,,,,,,,,,,,,,,,,,,,,,,,,stimuli/alien_stimuli/51.png,51,8,18,,,,,,,30,,,,,,,,1140.9075928998645,1140.9075928998645,1140.9075928998645,1140.9075928998645,1140.9075928998645,left,1.1241661999374628,14,0,0,99,0.32,0.32,left,1.0321665999945253,,,,,1139.3411708998028,1140.9075928998645,0.4,0.24,0.0,0.08,0.24,0.4,0.44,0.4,0.24,1138.2670109998435,1138.2670109998435,1138.2670109998435,1138.2670109998435,1138.2670109998435,1138.2670109998435,1138.2670109998435,1138.2670109998435,1138.2562970599856,1.1870387999806553,return,1.0571751999668777,,,,,,,,,,,,,,,,,,,,,,,,,,,,,,,,,4MA242,train_x,blue_star,top_right,2025-02-07_09h57.54.225,HideSeek_v1,2022.2.5,59.84476270179578,
,7,9,3,9,-4,0,21,,train_dim1_1,17,30,,,,2,0,2,0,,,,,,,,,0,0,0,0,0,16,16,16,1,0,1,0,,,,,,,,,,,,,,,,,,,,,,,,,,,,,,,,,,,,,,,,,,,,,,,,,,,,,,,,,,,,,,,,30,,,,,,,,1142.0326223999728,1142.0326223999728,1142.0326223999728,1142.0326223999728,1142.0326223999728,left,0.35752730001695454,14,0,0,99,0.24,0.32,left,0.26325539988465607,,,,,,,,,,,,,,,,,,,,,,,,,,,,,,,,,,,,,,,,,,,,,,,,,,,,,,,,,,,,4MA242,train_x,blue_star,top_right,2025-02-07_09h57.54.225,HideSeek_v1,2022.2.5,59.84476270179578,
,7,9,3,9,-4,0,21,,train_dim1_1,17,30,,,,2,0,2,0,,,,,,,,,0,0,0,0,0,16,16,16,2,0,2,0,,,,,,,,,,,,,,,,,,,,,,,,,,,,,,,,,,,,,,,,,,,,,,,,,,,,,,,,,,,,,,,,30,,,,,,,,1142.396704299841,1142.396704299841,1142.396704299841,1142.396704299841,1142.396704299841,left,0.3593886001035571,14,0,0,99,0.15999999999999998,0.32,left,0.2766980000305921,,,,,,,,,,,,,,,,,,,,,,,,,,,,,,,,,,,,,,,,,,,,,,,,,,,,,,,,,,,,4MA242,train_x,blue_star,top_right,2025-02-07_09h57.54.225,HideSeek_v1,2022.2.5,59.84476270179578,
,7,9,3,9,-4,0,21,,train_dim1_1,17,30,,,,2,0,2,0,,,,,,,,,0,0,0,0,0,16,16,16,3,0,3,0,,,,,,,,,,,,,,,,,,,,,,,,,,,,,,,,,,,,,,,,,,,,,,,,,,,,,,,,,,,,,,,,30,,,,,,,,1142.7648801999167,1142.7648801999167,1142.7648801999167,1142.7648801999167,1142.7648801999167,left,0.4424121999181807,14,0,0,99,0.07999999999999997,0.32,left,0.3538038001861423,,,,,,,,,,,,,,,,,,,,,,,,,,,,,,,,,,,,,,,,,,,,,,,,,,,,,,,,,,,,4MA242,train_x,blue_star,top_right,2025-02-07_09h57.54.225,HideSeek_v1,2022.2.5,59.84476270179578,
,7,9,3,9,-4,0,21,,train_dim1_1,17,30,,,,2,0,2,0,,,,,,,,,0,0,0,0,0,16,16,16,4,0,4,0,,,,,,,,,,,,,,,,,,,,,,,,,,,,,,,,,,,,,,,,,,,,,,,,,,,,,,,,,,,,,,,,30,,,,,,,,1143.2124399999157,1143.2124399999157,1143.2124399999157,1143.2124399999157,1143.2124399999157,return,0.3945149998180568,15,0,0,1,0.07999999999999997,0.32,return,0.3131397000979632,0,-44,0.07999999999999997,0.32,,,,,,,,,,,,,,,,,,,,,,,,,,,,,,,,,,,,,,,,,,,,,,,,,,,,,,,,4MA242,train_x,blue_star,top_right,2025-02-07_09h57.54.225,HideSeek_v1,2022.2.5,59.84476270179578,
,7,6,7,6,0,0,61,,train_dim1_1,18,30,,,,2,0,2,0,,,,,,,,,0,0,0,0,0,17,17,17,0,0,0,0,,,,,,,,,,,,,,,,,,,,,,,,,stimuli/alien_stimuli/61.png,,,,,,,,,,,,,,,,,,,,,,,,,,,,,stimuli/alien_stimuli/21.png,21,7,19,,,,,,,30,,,,,,,,1147.983123399783,1147.983123399783,1147.983123399783,1147.983123399783,1147.983123399783,return,0.9308277999516577,16,0,0,1,0.4,0.08,return,0.8332903999835253,0,-44,0.4,0.08,1146.3975541999098,1147.983123399783,0.08,0.32,0.0,0.32,0.32,0.08,0.24000000000000002,0.08,0.32,1145.173063499853,1145.173063499853,1145.173063499853,1145.173063499853,1145.173063499853,1145.173063499853,1145.173063499853,1145.173063499853,1145.1615768600486,1.3386503998190165,return,1.1927291001193225,,,,,,,,,,,,,,,,,,,,,,,,,,,,,,,,,4MA242,train_x,blue_star,top_right,2025-02-07_09h57.54.225,HideSeek_v1,2022.2.5,59.84476270179578,
,5,8,2,8,-3,0,31,,train_dim1_1,19,30,,,,2,0,2,0,,,,,,,,,0,0,0,0,0,18,18,18,0,0,0,0,,,,,,,,,,,,,,,,,,,,,,,,,stimuli/alien_stimuli/31.png,,,,,,,,,,,,,,,,,,,,,,,,,,,,,stimuli/alien_stimuli/61.png,61,7,20,,,,,,,30,,,,,,,,1152.3637976997998,1152.3637976997998,1152.3637976997998,1152.3637976997998,1152.3637976997998,left,1.356823300011456,16,0,0,99,0.15999999999999998,0.24,left,1.2687232999596745,,,,,1150.787829999812,1150.4577192999423,0.4,0.08,0.0,0.0,0.08,0.4,0.4,0.4,0.08,1150.4577192999423,1150.4577192999423,1150.4577192999423,1150.4577192999423,1150.4577192999423,1150.4577192999423,1150.4577192999423,1150.4577192999423,1150.4497919601154,0.4398554000072181,return,0.31065799994394183,,,,,,,,,,,,,,,,,,,,,,,,,,,,,,,,,4MA242,train_x,blue_star,top_right,2025-02-07_09h57.54.225,HideSeek_v1,2022.2.5,59.84476270179578,
,5,8,2,8,-3,0,31,,train_dim1_1,19,30,,,,2,0,2,0,,,,,,,,,0,0,0,0,0,18,18,18,1,0,1,0,,,,,,,,,,,,,,,,,,,,,,,,,,,,,,,,,,,,,,,,,,,,,,,,,,,,,,,,,,,,,,,,30,,,,,,,,1153.7208470997866,1153.7208470997866,1153.7208470997866,1153.7208470997866,1153.7208470997866,left,0.37461689999327064,16,0,0,99,0.07999999999999997,0.24,left,0.28507880005054176,,,,,,,,,,,,,,,,,,,,,,,,,,,,,,,,,,,,,,,,,,,,,,,,,,,,,,,,,,,,4MA242,train_x,blue_star,top_right,2025-02-07_09h57.54.225,HideSeek_v1,2022.2.5,59.84476270179578,
,5,8,2,8,-3,0,31,,train_dim1_1,19,30,,,,2,0,2,0,,,,,,,,,0,0,0,0,0,18,18,18,2,0,2,0,,,,,,,,,,,,,,,,,,,,,,,,,,,,,,,,,,,,,,,,,,,,,,,,,,,,,,,,,,,,,,,,30,,,,,,,,1154.1035552998073,1154.1035552998073,1154.1035552998073,1154.1035552998073,1154.1035552998073,left,0.4273449999745935,16,0,0,99,-2.7755575615628914e-17,0.24,left,0.33520259987562895,,,,,,,,,,,,,,,,,,,,,,,,,,,,,,,,,,,,,,,,,,,,,,,,,,,,,,,,,,,,4MA242,train_x,blue_star,top_right,2025-02-07_09h57.54.225,HideSeek_v1,2022.2.5,59.84476270179578,
,5,8,2,8,-3,0,31,,train_dim1_1,19,30,,,,2,0,2,0,,,,,,,,,0,0,0,0,0,18,18,18,3,0,3,0,,,,,,,,,,,,,,,,,,,,,,,,,,,,,,,,,,,,,,,,,,,,,,,,,,,,,,,,,,,,,,,,30,,,,,,,,1154.5375664997846,1154.5375664997846,1154.5375664997846,1154.5375664997846,1154.5375664997846,return,0.35848849988542497,17,0,0,1,-2.7755575615628914e-17,0.24,return,0.26937499991618097,0,-47,-2.7755575615628914e-17,0.24,,,,,,,,,,,,,,,,,,,,,,,,,,,,,,,,,,,,,,,,,,,,,,,,,,,,,,,,4MA242,train_x,blue_star,top_right,2025-02-07_09h57.54.225,HideSeek_v1,2022.2.5,59.84476270179578,
,5,6,0,6,-5,0,11,,train_dim1_1,20,30,,,,2,0,2,0,,,,,,,,,0,0,0,0,0,19,19,19,0,0,0,0,,,,,,,,,,,,,,,,,,,,,,,,,stimuli/alien_stimuli/11.png,,,,,,,,,,,,,,,,,,,,,,,,,,,,,stimuli/alien_stimuli/31.png,31,5,21,,,,,,,30,,,,,,,,1158.8387693997938,1158.8387693997938,1158.8387693997938,1158.8387693997938,1158.8387693997938,left,0.6895846000406891,17,0,0,99,0.15999999999999998,0.08,left,0.6025809000711888,,,,,1157.2585640999023,1156.4615302998573,0,0.24,0.0,0.24,0.24,0,0.12,0,0.24,1156.4615302998573,1156.4615302998573,1156.4615302998573,1156.4615302998573,1156.4615302998573,1156.4615302998573,1156.4615302998573,1156.4615302998573,1156.454298559972,0.9054805000778288,return,0.7737652999348938,,,,,,,,,,,,,,,,,,,,,,,,,,,,,,,,,4MA242,train_x,blue_star,top_right,2025-02-07_09h57.54.225,HideSeek_v1,2022.2.5,59.84476270179578,
,5,6,0,6,-5,0,11,,train_dim1_1,20,30,,,,2,0,2,0,,,,,,,,,0,0,0,0,0,19,19,19,1,0,1,0,,,,,,,,,,,,,,,,,,,,,,,,,,,,,,,,,,,,,,,,,,,,,,,,,,,,,,,,,,,,,,,,30,,,,,,,,1159.5301260999404,1159.5301260999404,1159.5301260999404,1159.5301260999404,1159.5301260999404,left,0.342319100163877,17,0,0,99,0.07999999999999997,0.08,left,0.2569959000684321,,,,,,,,,,,,,,,,,,,,,,,,,,,,,,,,,,,,,,,,,,,,,,,,,,,,,,,,,,,,4MA242,train_x,blue_star,top_right,2025-02-07_09h57.54.225,HideSeek_v1,2022.2.5,59.84476270179578,
,5,6,0,6,-5,0,11,,train_dim1_1,20,30,,,,2,0,2,0,,,,,,,,,0,0,0,0,0,19,19,19,2,0,2,0,,,,,,,,,,,,,,,,,,,,,,,,,,,,,,,,,,,,,,,,,,,,,,,,,,,,,,,,,,,,,,,,30,,,,,,,,1159.8768630998675,1159.8768630998675,1159.8768630998675,1159.8768630998675,1159.8768630998675,left,0.2943659999873489,17,0,0,99,-2.7755575615628914e-17,0.08,left,0.2057982999831438,,,,,,,,,,,,,,,,,,,,,,,,,,,,,,,,,,,,,,,,,,,,,,,,,,,,,,,,,,,,4MA242,train_x,blue_star,top_right,2025-02-07_09h57.54.225,HideSeek_v1,2022.2.5,59.84476270179578,
,5,6,0,6,-5,0,11,,train_dim1_1,20,30,,,,2,0,2,0,,,,,,,,,0,0,0,0,0,19,19,19,3,0,3,0,,,,,,,,,,,,,,,,,,,,,,,,,,,,,,,,,,,,,,,,,,,,,,,,,,,,,,,,,,,,,,,,30,,,,,,,,1160.1807799998205,1160.1807799998205,1160.1807799998205,1160.1807799998205,1160.1807799998205,left,0.29124639998190105,17,0,0,99,-0.08000000000000003,0.08,left,0.2111053999979049,,,,,,,,,,,,,,,,,,,,,,,,,,,,,,,,,,,,,,,,,,,,,,,,,,,,,,,,,,,,4MA242,train_x,blue_star,top_right,2025-02-07_09h57.54.225,HideSeek_v1,2022.2.5,59.84476270179578,
,5,6,0,6,-5,0,11,,train_dim1_1,20,30,,,,2,0,2,0,,,,,,,,,0,0,0,0,0,19,19,19,4,0,4,0,,,,,,,,,,,,,,,,,,,,,,,,,,,,,,,,,,,,,,,,,,,,,,,,,,,,,,,,,,,,,,,,30,,,,,,,,1160.4788519998547,1160.4788519998547,1160.4788519998547,1160.4788519998547,1160.4788519998547,left,0.25901769986376166,17,0,0,99,-0.16000000000000003,0.08,left,0.1663168000523001,,,,,,,,,,,,,,,,,,,,,,,,,,,,,,,,,,,,,,,,,,,,,,,,,,,,,,,,,,,,4MA242,train_x,blue_star,top_right,2025-02-07_09h57.54.225,HideSeek_v1,2022.2.5,59.84476270179578,
,5,6,0,6,-5,0,11,,train_dim1_1,20,30,,,,2,0,2,0,,,,,,,,,0,0,0,0,0,19,19,19,5,0,5,0,,,,,,,,,,,,,,,,,,,,,,,,,,,,,,,,,,,,,,,,,,,,,,,,,,,,,,,,,,,,,,,,30,,,,,,,,1160.7448718999512,1160.7448718999512,1160.7448718999512,1160.7448718999512,1160.7448718999512,return,0.24216890009120107,18,0,0,1,-0.16000000000000003,0.08,return,0.16052819998003542,0,-52,-0.16000000000000003,0.08,,,,,,,,,,,,,,,,,,,,,,,,,,,,,,,,,,,,,,,,,,,,,,,,,,,,,,,,4MA242,train_x,blue_star,top_right,2025-02-07_09h57.54.225,HideSeek_v1,2022.2.5,59.84476270179578,
,9,7,6,7,-3,0,31,,train_dim1_1,21,30,,,,2,0,2,0,,,,,,,,,0,0,0,0,0,20,20,20,0,0,0,0,,,,,,,,,,,,,,,,,,,,,,,,,stimuli/alien_stimuli/31.png,,,,,,,,,,,,,,,,,,,,,,,,,,,,,stimuli/alien_stimuli/11.png,11,5,22,,,,,,,30,,,,,,,,1164.891817299882,1164.891817299882,1164.891817299882,1164.891817299882,1164.891817299882,left,1.2205711998976767,18,0,0,99,0.48000000000000004,0.16,left,1.1293623000383377,,,,,1163.3299163999036,1164.891817299882,-0.16,0.08,0.0,0.4,0.08,-0.16,0.039999999999999994,-0.16,0.08,1162.556362999836,1162.556362999836,1162.556362999836,1162.556362999836,1162.556362999836,1162.556362999836,1162.556362999836,1162.556362999836,1162.5443811599862,0.8863733001053333,return,0.7515096000861377,,,,,,,,,,,,,,,,,,,,,,,,,,,,,,,,,4MA242,train_x,blue_star,top_right,2025-02-07_09h57.54.225,HideSeek_v1,2022.2.5,59.84476270179578,
,9,7,6,7,-3,0,31,,train_dim1_1,21,30,,,,2,0,2,0,,,,,,,,,0,0,0,0,0,20,20,20,1,0,1,0,,,,,,,,,,,,,,,,,,,,,,,,,,,,,,,,,,,,,,,,,,,,,,,,,,,,,,,,,,,,,,,,30,,,,,,,,1166.113364199875,1166.113364199875,1166.113364199875,1166.113364199875,1166.113364199875,left,0.26113880006596446,18,0,0,99,0.4,0.16,left,0.18105449993163347,,,,,,,,,,,,,,,,,,,,,,,,,,,,,,,,,,,,,,,,,,,,,,,,,,,,,,,,,,,,4MA242,train_x,blue_star,top_right,2025-02-07_09h57.54.225,HideSeek_v1,2022.2.5,59.84476270179578,
,9,7,6,7,-3,0,31,,train_dim1_1,21,30,,,,2,0,2,0,,,,,,,,,0,0,0,0,0,20,20,20,2,0,2,0,,,,,,,,,,,,,,,,,,,,,,,,,,,,,,,,,,,,,,,,,,,,,,,,,,,,,,,,,,,,,,,,30,,,,,,,,1166.3817804998253,1166.3817804998253,1166.3817804998253,1166.3817804998253,1166.3817804998253,left,0.2931993999518454,18,0,0,99,0.32,0.16,left,0.21279490017332137,,,,,,,,,,,,,,,,,,,,,,,,,,,,,,,,,,,,,,,,,,,,,,,,,,,,,,,,,,,,4MA242,train_x,blue_star,top_right,2025-02-07_09h57.54.225,HideSeek_v1,2022.2.5,59.84476270179578,
,9,7,6,7,-3,0,31,,train_dim1_1,21,30,,,,2,0,2,0,,,,,,,,,0,0,0,0,0,20,20,20,3,0,3,0,,,,,,,,,,,,,,,,,,,,,,,,,,,,,,,,,,,,,,,,,,,,,,,,,,,,,,,,,,,,,,,,30,,,,,,,,1166.6821930999868,1166.6821930999868,1166.6821930999868,1166.6821930999868,1166.6821930999868,return,0.3599322000518441,19,0,0,1,0.32,0.16,return,0.2793966999743134,0,-55,0.32,0.16,,,,,,,,,,,,,,,,,,,,,,,,,,,,,,,,,,,,,,,,,,,,,,,,,,,,,,,,4MA242,train_x,blue_star,top_right,2025-02-07_09h57.54.225,HideSeek_v1,2022.2.5,59.84476270179578,
,6,5,2,5,-4,0,21,,train_dim1_1,22,30,,,,2,0,2,0,,,,,,,,,0,0,0,0,0,21,21,21,0,0,0,0,,,,,,,,,,,,,,,,,,,,,,,,,stimuli/alien_stimuli/21.png,,,,,,,,,,,,,,,,,,,,,,,,,,,,,stimuli/alien_stimuli/31.png,31,9,23,,,,,,,30,,,,,,,,1171.2664770998526,1171.2664770998526,1171.2664770998526,1171.2664770998526,1171.2664770998526,left,0.7052738000638783,19,0,0,99,0.24,0,left,0.6047694000881165,,,,,1169.7016007998027,1171.2664770998526,0.32,0.16,0.0,0.24,0.16,0.32,0.44000000000000006,0.32,0.16,1168.6197399999946,1168.6197399999946,1168.6197399999946,1168.6197399999946,1168.6197399999946,1168.6197399999946,1168.6197399999946,1168.6197399999946,1168.6142902599413,1.1881623999215662,return,1.0607934000436217,,,,,,,,,,,,,,,,,,,,,,,,,,,,,,,,,4MA242,train_x,blue_star,top_right,2025-02-07_09h57.54.225,HideSeek_v1,2022.2.5,59.84476270179578,
,6,5,2,5,-4,0,21,,train_dim1_1,22,30,,,,2,0,2,0,,,,,,,,,0,0,0,0,0,21,21,21,1,0,1,0,,,,,,,,,,,,,,,,,,,,,,,,,,,,,,,,,,,,,,,,,,,,,,,,,,,,,,,,,,,,,,,,30,,,,,,,,1171.9731600999366,1171.9731600999366,1171.9731600999366,1171.9731600999366,1171.9731600999366,left,0.3086922001093626,19,0,0,99,0.15999999999999998,0,left,0.2213777001015842,,,,,,,,,,,,,,,,,,,,,,,,,,,,,,,,,,,,,,,,,,,,,,,,,,,,,,,,,,,,4MA242,train_x,blue_star,top_right,2025-02-07_09h57.54.225,HideSeek_v1,2022.2.5,59.84476270179578,
,6,5,2,5,-4,0,21,,train_dim1_1,22,30,,,,2,0,2,0,,,,,,,,,0,0,0,0,0,21,21,21,2,0,2,0,,,,,,,,,,,,,,,,,,,,,,,,,,,,,,,,,,,,,,,,,,,,,,,,,,,,,,,,,,,,,,,,30,,,,,,,,1172.2883664998226,1172.2883664998226,1172.2883664998226,1172.2883664998226,1172.2883664998226,left,0.4431471999268979,19,0,0,99,0.07999999999999997,0,left,0.35362039995379746,,,,,,,,,,,,,,,,,,,,,,,,,,,,,,,,,,,,,,,,,,,,,,,,,,,,,,,,,,,,4MA242,train_x,blue_star,top_right,2025-02-07_09h57.54.225,HideSeek_v1,2022.2.5,59.84476270179578,
,6,5,2,5,-4,0,21,,train_dim1_1,22,30,,,,2,0,2,0,,,,,,,,,0,0,0,0,0,21,21,21,3,0,3,0,,,,,,,,,,,,,,,,,,,,,,,,,,,,,,,,,,,,,,,,,,,,,,,,,,,,,,,,,,,,,,,,30,,,,,,,,1172.7417501998134,1172.7417501998134,1172.7417501998134,1172.7417501998134,1172.7417501998134,left,0.37525769998319447,19,0,0,99,-2.7755575615628914e-17,0,left,0.2938447999767959,,,,,,,,,,,,,,,,,,,,,,,,,,,,,,,,,,,,,,,,,,,,,,,,,,,,,,,,,,,,4MA242,train_x,blue_star,top_right,2025-02-07_09h57.54.225,HideSeek_v1,2022.2.5,59.84476270179578,
,6,5,2,5,-4,0,21,,train_dim1_1,22,30,,,,2,0,2,0,,,,,,,,,0,0,0,0,0,21,21,21,4,0,4,0,,,,,,,,,,,,,,,,,,,,,,,,,,,,,,,,,,,,,,,,,,,,,,,,,,,,,,,,,,,,,,,,30,,,,,,,,1173.121101199882,1173.121101199882,1173.121101199882,1173.121101199882,1173.121101199882,return,0.39341449993662536,20,0,0,1,-2.7755575615628914e-17,0,return,0.3002205998636782,0,-59,-2.7755575615628914e-17,0,,,,,,,,,,,,,,,,,,,,,,,,,,,,,,,,,,,,,,,,,,,,,,,,,,,,,,,,4MA242,train_x,blue_star,top_right,2025-02-07_09h57.54.225,HideSeek_v1,2022.2.5,59.84476270179578,
,7,6,7,6,0,0,61,,train_dim1_1,23,30,,,,2,0,2,0,,,,,,,,,0,0,0,0,0,22,22,22,0,0,0,0,,,,,,,,,,,,,,,,,,,,,,,,,stimuli/alien_stimuli/61.png,,,,,,,,,,,,,,,,,,,,,,,,,,,,,stimuli/alien_stimuli/21.png,21,6,24,,,,,,,30,,,,,,,,1177.5852677999064,1177.5852677999064,1177.5852677999064,1177.5852677999064,1177.5852677999064,return,0.90575490007177,21,0,0,1,0.4,0.08,return,0.8217887999489903,0,-59,0.4,0.08,1176.0222814998124,1177.5852677999064,0,0,0.0,0.32,0.0,0,0.16,0,0,1175.0822143999394,1175.0822143999394,1175.0822143999394,1175.0822143999394,1175.0822143999394,1175.0822143999394,1175.0822143999394,1175.0822143999394,1175.0698573600266,1.0550828999839723,return,0.9180596999358386,,,,,,,,,,,,,,,,,,,,,,,,,,,,,,,,,4MA242,train_x,blue_star,top_right,2025-02-07_09h57.54.225,HideSeek_v1,2022.2.5,59.84476270179578,
,9,9,8,9,-1,0,51,,train_dim1_1,24,30,,,,2,0,2,0,,,,,,,,,0,0,0,0,0,23,23,23,0,0,0,0,,,,,,,,,,,,,,,,,,,,,,,,,stimuli/alien_stimuli/51.png,,,,,,,,,,,,,,,,,,,,,,,,,,,,,stimuli/alien_stimuli/61.png,61,7,25,,,,,,,30,,,,,,,,1182.7891241998877,1182.7891241998877,1182.7891241998877,1182.7891241998877,1182.7891241998877,left,1.0047367000952363,21,0,0,99,0.48000000000000004,0.32,left,0.9198147000279278,,,,,1181.215244699968,,0.4,0.08,0.0,0.0,0.08,0.4,0.4,0.4,0.08,1180.0640154997818,1180.0640154997818,1180.0640154997818,1180.0640154997818,1180.0640154997818,1180.0640154997818,1180.0640154997818,1180.0640154997818,1180.0575205599189,1.2604374000802636,return,1.127091099973768,,,,,,,,,,,,,,,,,,,,,,,,,,,,,,,,,4MA242,train_x,blue_star,top_right,2025-02-07_09h57.54.225,HideSeek_v1,2022.2.5,59.84476270179578,
,9,9,8,9,-1,0,51,,train_dim1_1,24,30,,,,2,0,2,0,,,,,,,,,0,0,0,0,0,23,23,23,1,0,1,0,,,,,,,,,,,,,,,,,,,,,,,,,,,,,,,,,,,,,,,,,,,,,,,,,,,,,,,,,,,,,,,,30,,,,,,,,1183.7968521998264,1183.7968521998264,1183.7968521998264,1183.7968521998264,1183.7968521998264,return,0.3756905000191182,22,0,0,1,0.48000000000000004,0.32,return,0.2870258998591453,0,-60,0.48000000000000004,0.32,,,,,,,,,,,,,,,,,,,,,,,,,,,,,,,,,,,,,,,,,,,,,,,,,,,,,,,,4MA242,train_x,blue_star,top_right,2025-02-07_09h57.54.225,HideSeek_v1,2022.2.5,59.84476270179578,
,8,5,3,5,-5,0,11,,train_dim1_1,25,30,,,,2,0,2,0,,,,,,,,,0,0,0,0,0,24,24,24,0,0,0,0,,,,,,,,,,,,,,,,,,,,,,,,,stimuli/alien_stimuli/11.png,,,,,,,,,,,,,,,,,,,,,,,,,,,,,stimuli/alien_stimuli/51.png,51,9,26,,,,,,,30,,,,,,,,1188.1306978999637,1188.1306978999637,1188.1306978999637,1188.1306978999637,1188.1306978999637,left,0.838163600070402,22,0,0,99,0.39999999999999997,0,left,0.7456179999280721,,,,,1186.564439999871,1188.1306978999637,0.48,0.32,0.0,0.08,0.32,0.48,0.52,0.48,0.32,1185.738230599789,1185.738230599789,1185.738230599789,1185.738230599789,1185.738230599789,1185.738230599789,1185.738230599789,1185.738230599789,1185.7288014599353,0.9385659999679774,return,0.8055914998985827,,,,,,,,,,,,,,,,,,,,,,,,,,,,,,,,,4MA242,train_x,blue_star,top_right,2025-02-07_09h57.54.225,HideSeek_v1,2022.2.5,59.84476270179578,
,8,5,3,5,-5,0,11,,train_dim1_1,25,30,,,,2,0,2,0,,,,,,,,,0,0,0,0,0,24,24,24,1,0,1,0,,,,,,,,,,,,,,,,,,,,,,,,,,,,,,,,,,,,,,,,,,,,,,,,,,,,,,,,,,,,,,,,30,,,,,,,,1188.9708989998326,1188.9708989998326,1188.9708989998326,1188.9708989998326,1188.9708989998326,left,0.3089595001656562,22,0,0,99,0.31999999999999995,0,left,0.2194383000023663,,,,,,,,,,,,,,,,,,,,,,,,,,,,,,,,,,,,,,,,,,,,,,,,,,,,,,,,,,,,4MA242,train_x,blue_star,top_right,2025-02-07_09h57.54.225,HideSeek_v1,2022.2.5,59.84476270179578,
,8,5,3,5,-5,0,11,,train_dim1_1,25,30,,,,2,0,2,0,,,,,,,,,0,0,0,0,0,24,24,24,2,0,2,0,,,,,,,,,,,,,,,,,,,,,,,,,,,,,,,,,,,,,,,,,,,,,,,,,,,,,,,,,,,,,,,,30,,,,,,,,1189.2855856998358,1189.2855856998358,1189.2855856998358,1189.2855856998358,1189.2855856998358,left,0.3592858000192791,22,0,0,99,0.23999999999999994,0,left,0.26930820010602474,,,,,,,,,,,,,,,,,,,,,,,,,,,,,,,,,,,,,,,,,,,,,,,,,,,,,,,,,,,,4MA242,train_x,blue_star,top_right,2025-02-07_09h57.54.225,HideSeek_v1,2022.2.5,59.84476270179578,
,8,5,3,5,-5,0,11,,train_dim1_1,25,30,,,,2,0,2,0,,,,,,,,,0,0,0,0,0,24,24,24,3,0,3,0,,,,,,,,,,,,,,,,,,,,,,,,,,,,,,,,,,,,,,,,,,,,,,,,,,,,,,,,,,,,,,,,30,,,,,,,,1189.6577748998534,1189.6577748998534,1189.6577748998534,1189.6577748998534,1189.6577748998534,left,0.440385099966079,22,0,0,99,0.15999999999999992,0,left,0.35862950002774596,,,,,,,,,,,,,,,,,,,,,,,,,,,,,,,,,,,,,,,,,,,,,,,,,,,,,,,,,,,,4MA242,train_x,blue_star,top_right,2025-02-07_09h57.54.225,HideSeek_v1,2022.2.5,59.84476270179578,
,8,5,3,5,-5,0,11,,train_dim1_1,25,30,,,,2,0,2,0,,,,,,,,,0,0,0,0,0,24,24,24,4,0,4,0,,,,,,,,,,,,,,,,,,,,,,,,,,,,,,,,,,,,,,,,,,,,,,,,,,,,,,,,,,,,,,,,30,,,,,,,,1190.1049811998382,1190.1049811998382,1190.1049811998382,1190.1049811998382,1190.1049811998382,left,0.37584679992869496,22,0,0,99,0.07999999999999992,0,left,0.2892981998156756,,,,,,,,,,,,,,,,,,,,,,,,,,,,,,,,,,,,,,,,,,,,,,,,,,,,,,,,,,,,4MA242,train_x,blue_star,top_right,2025-02-07_09h57.54.225,HideSeek_v1,2022.2.5,59.84476270179578,
,8,5,3,5,-5,0,11,,train_dim1_1,25,30,,,,2,0,2,0,,,,,,,,,0,0,0,0,0,24,24,24,5,0,5,0,,,,,,,,,,,,,,,,,,,,,,,,,,,,,,,,,,,,,,,,,,,,,,,,,,,,,,,,,,,,,,,,30,,,,,,,,1190.4871135998983,1190.4871135998983,1190.4871135998983,1190.4871135998983,1190.4871135998983,return,0.32728179986588657,23,0,0,1,0.07999999999999992,0,return,0.248327000066638,0,-65,0.07999999999999992,0,,,,,,,,,,,,,,,,,,,,,,,,,,,,,,,,,,,,,,,,,,,,,,,,,,,,,,,,4MA242,train_x,blue_star,top_right,2025-02-07_09h57.54.225,HideSeek_v1,2022.2.5,59.84476270179578,
,6,6,6,6,0,0,61,,train_dim1_1,26,30,,,,2,0,2,0,,,,,,,,,0,0,0,0,0,25,25,25,0,0,0,0,,,,,,,,,,,,,,,,,,,,,,,,,stimuli/alien_stimuli/61.png,,,,,,,,,,,,,,,,,,,,,,,,,,,,,stimuli/alien_stimuli/11.png,11,8,27,,,,,,,30,,,,,,,,1196.312042800011,1196.312042800011,1196.312042800011,1196.312042800011,1196.312042800011,return,1.3889026001561433,24,0,0,1,0.32,0.08,return,1.288498800015077,0,-65,0.32,0.08,1194.7378293999936,1196.312042800011,0.08,0,0.0,0.4,0.0,0.08,0.27999999999999997,0.08,0,1192.376840399811,1192.376840399811,1192.376840399811,1192.376840399811,1192.376840399811,1192.376840399811,1192.376840399811,1192.376840399811,1192.367487460072,2.4730519000440836,return,2.344996300060302,,,,,,,,,,,,,,,,,,,,,,,,,,,,,,,,,4MA242,train_x,blue_star,top_right,2025-02-07_09h57.54.225,HideSeek_v1,2022.2.5,59.84476270179578,
,5,6,2,6,-3,0,31,,train_dim1_1,27,30,,,,2,0,2,0,,,,,,,,,0,0,0,0,0,26,26,26,0,0,0,0,,,,,,,,,,,,,,,,,,,,,,,,,stimuli/alien_stimuli/31.png,,,,,,,,,,,,,,,,,,,,,,,,,,,,,stimuli/alien_stimuli/61.png,61,6,28,,,,,,,30,,,,,,,,1201.93728549988,1201.93728549988,1201.93728549988,1201.93728549988,1201.93728549988,left,0.9714531002100557,24,0,0,99,0.15999999999999998,0.08,left,0.8751534998882562,,,,,1200.3640261997934,1199.2495635999367,0.32,0.08,0.0,0.0,0.08,0.32,0.32,0.32,0.08,1199.2495635999367,1199.2495635999367,1199.2495635999367,1199.2495635999367,1199.2495635999367,1199.2495635999367,1199.2495635999367,1199.2495635999367,1199.2400163599987,1.2257513999938965,return,1.09631730010733,,,,,,,,,,,,,,,,,,,,,,,,,,,,,,,,,4MA242,train_x,blue_star,top_right,2025-02-07_09h57.54.225,HideSeek_v1,2022.2.5,59.84476270179578,
,5,6,2,6,-3,0,31,,train_dim1_1,27,30,,,,2,0,2,0,,,,,,,,,0,0,0,0,0,26,26,26,1,0,1,0,,,,,,,,,,,,,,,,,,,,,,,,,,,,,,,,,,,,,,,,,,,,,,,,,,,,,,,,,,,,,,,,30,,,,,,,,1202.9114381999243,1202.9114381999243,1202.9114381999243,1202.9114381999243,1202.9114381999243,left,0.2586560999043286,24,0,0,99,0.07999999999999997,0.08,left,0.1843042999971658,,,,,,,,,,,,,,,,,,,,,,,,,,,,,,,,,,,,,,,,,,,,,,,,,,,,,,,,,,,,4MA242,train_x,blue_star,top_right,2025-02-07_09h57.54.225,HideSeek_v1,2022.2.5,59.84476270179578,
,5,6,2,6,-3,0,31,,train_dim1_1,27,30,,,,2,0,2,0,,,,,,,,,0,0,0,0,0,26,26,26,2,0,2,0,,,,,,,,,,,,,,,,,,,,,,,,,,,,,,,,,,,,,,,,,,,,,,,,,,,,,,,,,,,,,,,,30,,,,,,,,1203.1775798997842,1203.1775798997842,1203.1775798997842,1203.1775798997842,1203.1775798997842,left,0.30853540007956326,24,0,0,99,-2.7755575615628914e-17,0.08,left,0.2254066001623869,,,,,,,,,,,,,,,,,,,,,,,,,,,,,,,,,,,,,,,,,,,,,,,,,,,,,,,,,,,,4MA242,train_x,blue_star,top_right,2025-02-07_09h57.54.225,HideSeek_v1,2022.2.5,59.84476270179578,
,5,6,2,6,-3,0,31,,train_dim1_1,27,30,,,,2,0,2,0,,,,,,,,,0,0,0,0,0,26,26,26,3,0,3,0,,,,,,,,,,,,,,,,,,,,,,,,,,,,,,,,,,,,,,,,,,,,,,,,,,,,,,,,,,,,,,,,30,,,,,,,,1203.4915612998884,1203.4915612998884,1203.4915612998884,1203.4915612998884,1203.4915612998884,return,0.4933275000657886,25,0,0,1,-2.7755575615628914e-17,0.08,return,0.4080862000118941,0,-68,-2.7755575615628914e-17,0.08,,,,,,,,,,,,,,,,,,,,,,,,,,,,,,,,,,,,,,,,,,,,,,,,,,,,,,,,4MA242,train_x,blue_star,top_right,2025-02-07_09h57.54.225,HideSeek_v1,2022.2.5,59.84476270179578,
,8,6,4,6,-4,0,21,,train_dim1_1,28,30,,,,2,0,2,0,,,,,,,,,0,0,0,0,0,27,27,27,0,0,0,0,,,,,,,,,,,,,,,,,,,,,,,,,stimuli/alien_stimuli/21.png,,,,,,,,,,,,,,,,,,,,,,,,,,,,,stimuli/alien_stimuli/31.png,31,5,29,,,,,,,30,,,,,,,,1208.3483439998236,1208.3483439998236,1208.3483439998236,1208.3483439998236,1208.3483439998236,left,1.037470699986443,25,0,0,99,0.39999999999999997,0.08,left,0.9432469999883324,,,,,1206.782678999938,1208.3483439998236,0,0.08,0.0,0.24,0.08,0,0.12,0,0.08,1205.5528120999224,1205.5528120999224,1205.5528120999224,1205.5528120999224,1205.5528120999224,1205.5528120999224,1205.5528120999224,1205.5528120999224,1205.5447934599824,1.3382250000722706,return,1.2128755000885576,,,,,,,,,,,,,,,,,,,,,,,,,,,,,,,,,4MA242,train_x,blue_star,top_right,2025-02-07_09h57.54.225,HideSeek_v1,2022.2.5,59.84476270179578,
,8,6,4,6,-4,0,21,,train_dim1_1,28,30,,,,2,0,2,0,,,,,,,,,0,0,0,0,0,27,27,27,1,0,1,0,,,,,,,,,,,,,,,,,,,,,,,,,,,,,,,,,,,,,,,,,,,,,,,,,,,,,,,,,,,,,,,,30,,,,,,,,1209.3882247998845,1209.3882247998845,1209.3882247998845,1209.3882247998845,1209.3882247998845,left,0.2920992998406291,25,0,0,99,0.31999999999999995,0.08,left,0.21158539992757142,,,,,,,,,,,,,,,,,,,,,,,,,,,,,,,,,,,,,,,,,,,,,,,,,,,,,,,,,,,,4MA242,train_x,blue_star,top_right,2025-02-07_09h57.54.225,HideSeek_v1,2022.2.5,59.84476270179578,
,8,6,4,6,-4,0,21,,train_dim1_1,28,30,,,,2,0,2,0,,,,,,,,,0,0,0,0,0,27,27,27,2,0,2,0,,,,,,,,,,,,,,,,,,,,,,,,,,,,,,,,,,,,,,,,,,,,,,,,,,,,,,,,,,,,,,,,30,,,,,,,,1209.6890946999192,1209.6890946999192,1209.6890946999192,1209.6890946999192,1209.6890946999192,left,0.5597932999953628,25,0,0,99,0.23999999999999994,0.08,left,0.46710680006071925,,,,,,,,,,,,,,,,,,,,,,,,,,,,,,,,,,,,,,,,,,,,,,,,,,,,,,,,,,,,4MA242,train_x,blue_star,top_right,2025-02-07_09h57.54.225,HideSeek_v1,2022.2.5,59.84476270179578,
,8,6,4,6,-4,0,21,,train_dim1_1,28,30,,,,2,0,2,0,,,,,,,,,0,0,0,0,0,27,27,27,3,0,3,0,,,,,,,,,,,,,,,,,,,,,,,,,,,,,,,,,,,,,,,,,,,,,,,,,,,,,,,,,,,,,,,,30,,,,,,,,1210.2557481999975,1210.2557481999975,1210.2557481999975,1210.2557481999975,1210.2557481999975,left,0.5589433999266475,25,0,0,99,0.15999999999999992,0.08,left,0.47937469999305904,,,,,,,,,,,,,,,,,,,,,,,,,,,,,,,,,,,,,,,,,,,,,,,,,,,,,,,,,,,,4MA242,train_x,blue_star,top_right,2025-02-07_09h57.54.225,HideSeek_v1,2022.2.5,59.84476270179578,
,8,6,4,6,-4,0,21,,train_dim1_1,28,30,,,,2,0,2,0,,,,,,,,,0,0,0,0,0,27,27,27,4,0,4,0,,,,,,,,,,,,,,,,,,,,,,,,,,,,,,,,,,,,,,,,,,,,,,,,,,,,,,,,,,,,,,,,30,,,,,,,,1210.8197591998614,1210.8197591998614,1210.8197591998614,1210.8197591998614,1210.8197591998614,return,1.010264600161463,26,0,0,1,0.15999999999999992,0.08,return,0.9201750999782234,0,-72,0.15999999999999992,0.08,,,,,,,,,,,,,,,,,,,,,,,,,,,,,,,,,,,,,,,,,,,,,,,,,,,,,,,,4MA242,train_x,blue_star,top_right,2025-02-07_09h57.54.225,HideSeek_v1,2022.2.5,59.84476270179578,
,9,5,8,5,-1,0,51,,train_dim1_1,29,30,,,,2,0,2,0,,,,,,,,,0,0,0,0,0,28,28,28,0,0,0,0,,,,,,,,,,,,,,,,,,,,,,,,,stimuli/alien_stimuli/51.png,,,,,,,,,,,,,,,,,,,,,,,,,,,,,stimuli/alien_stimuli/21.png,21,8,30,,,,,,,30,,,,,,,,1216.1760465998668,1216.1760465998668,1216.1760465998668,1216.1760465998668,1216.1760465998668,left,0.905500799883157,26,0,0,99,0.48000000000000004,0,left,0.800376099999994,,,,,1214.603128099814,1216.1760465998668,0.16,0.08,0.0,0.32,0.08,0.16,0.32,0.16,0.08,1213.396526800003,1213.396526800003,1213.396526800003,1213.396526800003,1213.396526800003,1213.396526800003,1213.396526800003,1213.396526800003,1213.3851085600209,1.3201673000585288,return,1.1835102001205087,,,,,,,,,,,,,,,,,,,,,,,,,,,,,,,,,4MA242,train_x,blue_star,top_right,2025-02-07_09h57.54.225,HideSeek_v1,2022.2.5,59.84476270179578,
,9,5,8,5,-1,0,51,,train_dim1_1,29,30,,,,2,0,2,0,,,,,,,,,0,0,0,0,0,28,28,28,1,0,1,0,,,,,,,,,,,,,,,,,,,,,,,,,,,,,,,,,,,,,,,,,,,,,,,,,,,,,,,,,,,,,,,,30,,,,,,,,1217.074263999937,1217.074263999937,1217.074263999937,1217.074263999937,1217.074263999937,return,0.34246430010534823,27,0,0,1,0.48000000000000004,0,return,0.2502864000853151,0,-73,0.48000000000000004,0,,,,,,,,,,,,,,,,,,,,,,,,,,,,,,,,,,,,,,,,,,,,,,,,,,,,,,,,4MA242,train_x,blue_star,top_right,2025-02-07_09h57.54.225,HideSeek_v1,2022.2.5,59.84476270179578,
,7,7,2,7,-5,0,11,,train_dim1_1,30,30,,,,2,0,2,0,,,,,,,,,0,0,0,0,0,29,29,29,0,0,0,0,,,,,,,,,,,,,,,,,,,,,,,,,stimuli/alien_stimuli/11.png,,,,,,,,,,,,,,,,,,,,,,,,,,,,,stimuli/alien_stimuli/51.png,51,9,31,,,,,,,30,,,,,,,,1221.7249374999665,1221.7249374999665,1221.7249374999665,1221.7249374999665,1221.7249374999665,left,0.8404441999737173,27,0,0,99,0.32,0.16,left,0.7508553999941796,,,,,1220.1594958999194,1221.7249374999665,0.48,0,0.0,0.08,0.0,0.48,0.52,0.48,0,1218.9822240998037,1218.9822240998037,1218.9822240998037,1218.9822240998037,1218.9822240998037,1218.9822240998037,1218.9822240998037,1218.9822240998037,1218.9729212600969,1.2895484999753535,return,1.158577100140974,,,,,,,,,,,,,,,,,,,,,,,,,,,,,,,,,4MA242,train_x,blue_star,top_right,2025-02-07_09h57.54.225,HideSeek_v1,2022.2.5,59.84476270179578,
,7,7,2,7,-5,0,11,,train_dim1_1,30,30,,,,2,0,2,0,,,,,,,,,0,0,0,0,0,29,29,29,1,0,1,0,,,,,,,,,,,,,,,,,,,,,,,,,,,,,,,,,,,,,,,,,,,,,,,,,,,,,,,,,,,,,,,,30,,,,,,,,1222.5667535997927,1222.5667535997927,1222.5667535997927,1222.5667535997927,1222.5667535997927,left,0.37426179996691644,27,0,0,99,0.24,0.16,left,0.28410240006633103,,,,,,,,,,,,,,,,,,,,,,,,,,,,,,,,,,,,,,,,,,,,,,,,,,,,,,,,,,,,4MA242,train_x,blue_star,top_right,2025-02-07_09h57.54.225,HideSeek_v1,2022.2.5,59.84476270179578,
,7,7,2,7,-5,0,11,,train_dim1_1,30,30,,,,2,0,2,0,,,,,,,,,0,0,0,0,0,29,29,29,2,0,2,0,,,,,,,,,,,,,,,,,,,,,,,,,,,,,,,,,,,,,,,,,,,,,,,,,,,,,,,,,,,,,,,,30,,,,,,,,1222.949780699797,1222.949780699797,1222.949780699797,1222.949780699797,1222.949780699797,left,0.4427157000172883,27,0,0,99,0.15999999999999998,0.16,left,0.3571686001960188,,,,,,,,,,,,,,,,,,,,,,,,,,,,,,,,,,,,,,,,,,,,,,,,,,,,,,,,,,,,4MA242,train_x,blue_star,top_right,2025-02-07_09h57.54.225,HideSeek_v1,2022.2.5,59.84476270179578,
,7,7,2,7,-5,0,11,,train_dim1_1,30,30,,,,2,0,2,0,,,,,,,,,0,0,0,0,0,29,29,29,3,0,3,0,,,,,,,,,,,,,,,,,,,,,,,,,,,,,,,,,,,,,,,,,,,,,,,,,,,,,,,,,,,,,,,,30,,,,,,,,1223.3970867998432,1223.3970867998432,1223.3970867998432,1223.3970867998432,1223.3970867998432,left,0.44290809985250235,27,0,0,99,0.07999999999999997,0.16,left,0.3602354999165982,,,,,,,,,,,,,,,,,,,,,,,,,,,,,,,,,,,,,,,,,,,,,,,,,,,,,,,,,,,,4MA242,train_x,blue_star,top_right,2025-02-07_09h57.54.225,HideSeek_v1,2022.2.5,59.84476270179578,
,7,7,2,7,-5,0,11,,train_dim1_1,30,30,,,,2,0,2,0,,,,,,,,,0,0,0,0,0,29,29,29,4,0,4,0,,,,,,,,,,,,,,,,,,,,,,,,,,,,,,,,,,,,,,,,,,,,,,,,,,,,,,,,,,,,,,,,30,,,,,,,,1223.8480577999726,1223.8480577999726,1223.8480577999726,1223.8480577999726,1223.8480577999726,left,0.44455399992875755,27,0,0,99,-2.7755575615628914e-17,0.16,left,0.3494257000274956,,,,,,,,,,,,,,,,,,,,,,,,,,,,,,,,,,,,,,,,,,,,,,,,,,,,,,,,,,,,4MA242,train_x,blue_star,top_right,2025-02-07_09h57.54.225,HideSeek_v1,2022.2.5,59.84476270179578,
,7,7,2,7,-5,0,11,,train_dim1_1,30,30,,,,2,0,2,0,,,,,,,,,0,0,0,0,0,29,29,29,5,0,5,0,,,,,,,,,,,,,,,,,,,,,,,,,,,,,,,,,,,,,,,,,,,,,,,,,,,,,,,,,,,,,,,,30,,,,,,,,1224.3005384998396,1224.3005384998396,1224.3005384998396,1224.3005384998396,1224.3005384998396,return,0.407862399937585,28,0,0,1,-2.7755575615628914e-17,0.16,return,0.3283961000852287,0,-78,-2.7755575615628914e-17,0.16,,,,,,,,,,,,,,,,,,,,,,,,,,,,,,,,,,,,,,,,,,,,,,,,,,,,,,,,4MA242,train_x,blue_star,top_right,2025-02-07_09h57.54.225,HideSeek_v1,2022.2.5,59.84476270179578,
,,,,,,,,,,,30,,,,2,0,2,0,,,,,,,,,,,,,,,,,,,,,,,,,,,,,,,,,,,,,,,,,,,,,,,,,,,,,,,,,,,,,,,,,,,,,,,,,,stimuli/alien_stimuli/11.png,11,7,32,21,0.7,1.1666666666666667,1,1,1,30,0,conditions/schedules/train_x_first/blue_star_00/top_right/inputTrain_2.1.xlsx,99,1,2,1,0,,,,,,,,,,,1,,,,,,,,,1227.5200403998606,1226.2729318998754,0,0.16,0.0,0.4,0.16,0,0.2,0,0.16,1226.2729318998754,1226.2729318998754,1226.2729318998754,1226.2729318998754,1226.2729318998754,1226.2729318998754,1226.2729318998754,1226.2729318998754,1226.2623470599528,1.3595627001486719,return,1.2266559000127017,0,0.9,0,1,28,,,,,,,,,,,,,,,,,,,,,,,,,,,,4MA242,train_x,blue_star,top_right,2025-02-07_09h57.54.225,HideSeek_v1,2022.2.5,59.84476270179578,
,,,,,,,,,,,,,,,3,0,3,0,0,0,0,0,,,,,,,,,,,,,,,,,,,,,,,,,,,,,,,conditions/schedules/train_x_first/blue_star_00/top_right/instructions/Slide17.png,conditions/schedules/train_x_first/blue_star_00/top_right/instructions/Audio17.wav,1229.0752297998406,1229.0667602399596,17,"[5.73539109993726, 18.01156369992532, 16.45749589987099, 19.504510200116783, 4.947490199934691, 5.198870799969882, 5.870454199844971, 11.8283848001156, 6.058426799951121, 7.03292699996382, 11.034114600159228, 12.974716699915007, 28.61421799985692, 13.401620599906892, 30.90596740017645, 21.195265100104734, 40.43890670011751]","[5.735405900049955, 0.038409800035879016, 0.12427270016632974, 0.04607510007917881, 0.013562300009652972, 0.06446079979650676, 0.08787010004743934, 0.06974599999375641, 0.09420659998431802, 0.09150180011056364, 0.07940170005895197, 12.974723200080916, 0.014730999944731593, 13.40162879996933, 0.04486909997649491, 21.19527389993891, 40.43891590018757]",0,,,,,,,,,,,,,,,,,,,,,,,,,,,,,,,,,,,,,,,,,,,,,,,,,,,,,,,,,,,,,,,,,,,,,,,,,,,,,,,,,,,,,,,,,,,,,,,,,,,,,,,,,,,,,,,,,,,,,,,,,,,,4MA242,train_x,blue_star,top_right,2025-02-07_09h57.54.225,HideSeek_v1,2022.2.5,59.84476270179578,
,,,,,,,,,,,,,,,3,0,3,0,1,0,1,0,,,,,,,,,,,,,,,,,,,,,,,,,,,,,,,conditions/schedules/train_x_first/blue_star_00/top_right/instructions/Slide18.png,conditions/schedules/train_x_first/blue_star_00/top_right/instructions/Audio18.wav,1269.5821155998856,1269.5844202999724,18,"[5.73539109993726, 18.01156369992532, 16.45749589987099, 19.504510200116783, 4.947490199934691, 5.198870799969882, 5.870454199844971, 11.8283848001156, 6.058426799951121, 7.03292699996382, 11.034114600159228, 12.974716699915007, 28.61421799985692, 13.401620599906892, 30.90596740017645, 21.195265100104734, 40.43890670011751, 6.672943900106475]","[5.735405900049955, 0.038409800035879016, 0.12427270016632974, 0.04607510007917881, 0.013562300009652972, 0.06446079979650676, 0.08787010004743934, 0.06974599999375641, 0.09420659998431802, 0.09150180011056364, 0.07940170005895197, 12.974723200080916, 0.014730999944731593, 13.40162879996933, 0.04486909997649491, 21.19527389993891, 0.014109400101006031, 6.672960099996999]",0,,,,,,,,,,,,,,,,,,,,,,,,,,,,,,,,,,,,,,,,,,,,,,,,,,,,,,,,,,,,,,,,,,,,,,,,,,,,,,,,,,,,,,,,,,,,,,,,,,,,,,,,,,,,,,,,,,,,,,,,,,,,4MA242,train_x,blue_star,top_right,2025-02-07_09h57.54.225,HideSeek_v1,2022.2.5,59.84476270179578,
,,,,,,,,,,,,,,,3,0,3,0,2,0,2,0,,,,,,,,,,,,,,,,,,,,,,,,,,,,,,,conditions/schedules/train_x_first/blue_star_00/top_right/instructions/Slide19.png,conditions/schedules/train_x_first/blue_star_00/top_right/instructions/Audio19.wav,1276.2957420998719,1276.289968740032,19,"[5.73539109993726, 18.01156369992532, 16.45749589987099, 19.504510200116783, 4.947490199934691, 5.198870799969882, 5.870454199844971, 11.8283848001156, 6.058426799951121, 7.03292699996382, 11.034114600159228, 12.974716699915007, 28.61421799985692, 13.401620599906892, 30.90596740017645, 21.195265100104734, 40.43890670011751, 6.672943900106475, 10.665753900073469]","[5.735405900049955, 0.038409800035879016, 0.12427270016632974, 0.04607510007917881, 0.013562300009652972, 0.06446079979650676, 0.08787010004743934, 0.06974599999375641, 0.09420659998431802, 0.09150180011056364, 0.07940170005895197, 12.974723200080916, 0.014730999944731593, 13.40162879996933, 0.04486909997649491, 21.19527389993891, 0.014109400101006031, 0.03701790003105998, 10.665761600015685]",0,,,,,,,,,,,,,,,,,,,,,,,,,,,,,,,,,,,,,,,,,,,,,,,,,,,,,,,,,,,,,,,,,,,,,,,,,,,,,,,,,,,,,,,,,,,,,,,,,,,,,,,,,,,,,,,,,,,,,,,,,,,,4MA242,train_x,blue_star,top_right,2025-02-07_09h57.54.225,HideSeek_v1,2022.2.5,59.84476270179578,
,,,,,,,,,,,,,,,3,0,3,0,3,0,3,0,,,,,,,,,,,,,,,,,,,,,,,,,,,,,,,conditions/schedules/train_x_first/blue_star_00/top_right/instructions/Slide20.png,conditions/schedules/train_x_first/blue_star_00/top_right/instructions/Audio20.wav,1287.032057999866,1287.0298771000234,20,"[5.73539109993726, 18.01156369992532, 16.45749589987099, 19.504510200116783, 4.947490199934691, 5.198870799969882, 5.870454199844971, 11.8283848001156, 6.058426799951121, 7.03292699996382, 11.034114600159228, 12.974716699915007, 28.61421799985692, 13.401620599906892, 30.90596740017645, 21.195265100104734, 40.43890670011751, 6.672943900106475, 10.665753900073469, 14.090268700150773]","[5.735405900049955, 0.038409800035879016, 0.12427270016632974, 0.04607510007917881, 0.013562300009652972, 0.06446079979650676, 0.08787010004743934, 0.06974599999375641, 0.09420659998431802, 0.09150180011056364, 0.07940170005895197, 12.974723200080916, 0.014730999944731593, 13.40162879996933, 0.04486909997649491, 21.19527389993891, 0.014109400101006031, 0.03701790003105998, 0.029833300039172173, 14.09028540016152]",0,,,,,,,,,,,,,,,,,,,,,,,,,,,,,,,,,,,,,,,,,,,,,,,,,,,,,,,,,,,,,,,,,,,,,,,,,,,,,,,,,,,,,,,,,,,,,,,,,,,,,,,,,,,,,,,,,,,,,,,,,,,,4MA242,train_x,blue_star,top_right,2025-02-07_09h57.54.225,HideSeek_v1,2022.2.5,59.84476270179578,
1,5,8,5,3,0,-5,66,2,instr_dim1_2,,,,,,3,0,3,0,,,,,0,0,0,0,,,,,,,,,,,,,,,,,,,,,,,,,,,,,,,,,,,,,stimuli/alien_stimuli/66.png,conditions/schedules/train_x_first/blue_star_00/top_right/inputInstr_2.xlsx,stimuli/alien_stimuli/66.png,1301.2233474999666,1301.2233474999666,1301.2233474999666,1301.2233474999666,1301.224404859985,return,7.9450874999165535,"[-0.16, -0.08, 0, 0.08, 0.16, 0.24, 0.32, 0.4, 0.48, 0.56]","[-0.4, -0.32, -0.24, -0.16, -0.08, 0, 0.08, 0.16, 0.24, 0.32]",3,8,5,5,0.4,0.0,1309.3241784998681,1309.3241784998681,1309.3241784998681,1309.3241784998681,1309.3241784998681,1309.3241784998681,1309.3241784998681,1309.313754540123,6.590450400020927,return,6.436271399958059,stimuli/alien_stimuli/66.png,66,5,1,,,,,,,,,,,,,,,,,,,,,,,,,,,,,,,,,,,,,,,,,,,,,,,,,,,,,,,,,,,,,,,,,,,,,,,,,,,,,,,,,,,,,,,,,4MA242,train_x,blue_star,top_right,2025-02-07_09h57.54.225,HideSeek_v1,2022.2.5,59.84476270179578,
,,,,,,,,,,,30,,,,3,0,3,0,,,,,,,,,,,,,,,,,,,,,,,,,,,,,,,,,,,,,,,,,,,,,,,,,,,,,,,,,,,,,,,,,,,,,,,,,,,,,,21,0.7,1.1666666666666667,1,99,2,30,0,conditions/schedules/train_x_first/blue_star_00/top_right/inputTrain_2.1.xlsx,99,1,2,1,0,,,,,,,,,,,,,,,,,,,,,,,,,,,,,,,,,,,,,,,,,,,,,,,,,,,,,,,,,,,,,,,,,,,,,,,,,,,4MA242,train_x,blue_star,top_right,2025-02-07_09h57.54.225,HideSeek_v1,2022.2.5,59.84476270179578,
,,,,,,,,,,,,,,,4,0,4,0,0,0,0,0,,,,,,,,,,,,,,,,,,,,,,,,,,,,,,,conditions/schedules/train_x_first/blue_star_00/top_right/instructions/Slide21.png,conditions/schedules/train_x_first/blue_star_00/top_right/instructions/Audio21.wav,1315.9471336998977,1315.9361342999619,21,"[5.73539109993726, 18.01156369992532, 16.45749589987099, 19.504510200116783, 4.947490199934691, 5.198870799969882, 5.870454199844971, 11.8283848001156, 6.058426799951121, 7.03292699996382, 11.034114600159228, 12.974716699915007, 28.61421799985692, 13.401620599906892, 30.90596740017645, 21.195265100104734, 40.43890670011751, 6.672943900106475, 10.665753900073469, 14.090268700150773, 16.80140160000883]","[5.735405900049955, 0.038409800035879016, 0.12427270016632974, 0.04607510007917881, 0.013562300009652972, 0.06446079979650676, 0.08787010004743934, 0.06974599999375641, 0.09420659998431802, 0.09150180011056364, 0.07940170005895197, 12.974723200080916, 0.014730999944731593, 13.40162879996933, 0.04486909997649491, 21.19527389993891, 0.014109400101006031, 0.03701790003105998, 0.029833300039172173, 14.09028540016152, 16.801411100197583]",0,,,,,,,,,,,,,,,,,,,,,,,,,,,,,,,,,,,,,,,,,,,,,,,,,,,,,,,,,,,,,,,,,,,,,,,,,,,,,,,,,,,,,,,,,,,,,,,,,,,,,,,,,,,,,,,,,,,,,,,,,,,,4MA242,train_x,blue_star,top_right,2025-02-07_09h57.54.225,HideSeek_v1,2022.2.5,59.84476270179578,
2,7,8,7,8,0,0,61,2,instr_dim1_2,,,,,,4,0,4,0,,,,,0,0,0,0,,,,,,,,,,,,,,,,,,,,,,,,,,,,,,,,,,,,,stimuli/alien_stimuli/61.png,conditions/schedules/train_x_first/blue_star_00/top_right/inputInstr_2.xlsx,stimuli/alien_stimuli/61.png,1332.8505279999226,1332.8505279999226,1332.8505279999226,1332.8505279999226,1332.850441459962,return,7.69643809995614,"[-0.16, -0.08, 0, 0.08, 0.16, 0.24, 0.32, 0.4, 0.48, 0.56]","[-0.4, -0.32, -0.24, -0.16, -0.08, 0, 0.08, 0.16, 0.24, 0.32]",8,8,7,7,0.0,0.0,1340.7016266998835,1340.7016266998835,1340.7016266998835,1340.7016266998835,1340.7016266998835,1340.7016266998835,1340.7016266998835,1340.6903918401338,6.339233499951661,return,6.181063399882987,stimuli/alien_stimuli/61.png,61,7,2,,,,,,,,,,,,,,,,,,,,,,,,,,,,,,,,,,,,,,,,,,,,,,,,,,,,,,,,,,,,,,,,,,,,,,,,,,,,,,,,,,,,,,,,,4MA242,train_x,blue_star,top_right,2025-02-07_09h57.54.225,HideSeek_v1,2022.2.5,59.84476270179578,
,,,,,,,,,,,30,,,,4,0,4,0,,,,,,,,,,,,,,,,,,,,,,,,,,,,,,,,,,,,,,,,,,,,,,,,,,,,,,,,,,,,,,,,,,,,,,,,,,,,,,21,0.7,1.1666666666666667,1,99,2,30,0,conditions/schedules/train_x_first/blue_star_00/top_right/inputTrain_2.1.xlsx,99,1,2,1,0,,,,,,,,,,,,,,,,,,,,,,,,,,,,,,,,,,,,,,,,,,,,,,,,,,,,,,,,,,,,,,,,,,,,,,,,,,,4MA242,train_x,blue_star,top_right,2025-02-07_09h57.54.225,HideSeek_v1,2022.2.5,59.84476270179578,
,,,,,,,,,,,,,,,5,0,5,0,0,0,0,0,,,,,,,,,,,,,,,,,,,,,,,,,,,,,,,conditions/schedules/train_x_first/blue_star_00/top_right/instructions/Slide22.png,conditions/schedules/train_x_first/blue_star_00/top_right/instructions/Audio22.wav,1347.0751260998659,1347.0781072799814,22,"[5.73539109993726, 18.01156369992532, 16.45749589987099, 19.504510200116783, 4.947490199934691, 5.198870799969882, 5.870454199844971, 11.8283848001156, 6.058426799951121, 7.03292699996382, 11.034114600159228, 12.974716699915007, 28.61421799985692, 13.401620599906892, 30.90596740017645, 21.195265100104734, 40.43890670011751, 6.672943900106475, 10.665753900073469, 14.090268700150773, 16.80140160000883, 43.55378710012883]","[5.735405900049955, 0.038409800035879016, 0.12427270016632974, 0.04607510007917881, 0.013562300009652972, 0.06446079979650676, 0.08787010004743934, 0.06974599999375641, 0.09420659998431802, 0.09150180011056364, 0.07940170005895197, 12.974723200080916, 0.014730999944731593, 13.40162879996933, 0.04486909997649491, 21.19527389993891, 0.014109400101006031, 0.03701790003105998, 0.029833300039172173, 14.09028540016152, 16.801411100197583, 43.55380170000717]",0,,,,,,,,,,,,,,,,,,,,,,,,,,,,,,,,,,,,,,,,,,,,,,,,,,,,,,,,,,,,,,,,,,,,,,,,,,,,,,,,,,,,,,,,,,,,,,,,,,,,,,,,,,,,,,,,,,,,,,,,,,,,4MA242,train_x,blue_star,top_right,2025-02-07_09h57.54.225,HideSeek_v1,2022.2.5,59.84476270179578,
,5,5,5,1,0,-4,65,,train_dim1_2,1,30,,,,5,0,5,0,,,,,,,,,0,0,0,0,0,0,0,0,0,0,0,0,,,,,,,,,,,,,,,,,,,,,,,,,stimuli/alien_stimuli/65.png,,,,,,,,,,,,,,,,,,,,,,,,,,,,,,,,,,,,,,,30,,,,,,,,1390.7384704998694,1390.7384704998694,1390.7384704998694,1390.7384704998694,1390.7384704998694,down,1.8598251000512391,0,0,0,99,0.24,-0.08,down,1.7616708998102695,,,,,,,,,,,,,,,,,,,,,,,,,,,,,,,,,,,,,,,,,,,,,,,,,,,,,,,,,,,,4MA242,train_x,blue_star,top_right,2025-02-07_09h57.54.225,HideSeek_v1,2022.2.5,59.84476270179578,
,5,5,5,1,0,-4,65,,train_dim1_2,1,30,,,,5,0,5,0,,,,,,,,,0,0,0,0,0,0,0,0,1,0,1,0,,,,,,,,,,,,,,,,,,,,,,,,,,,,,,,,,,,,,,,,,,,,,,,,,,,,,,,,,,,,,,,,30,,,,,,,,1392.584745500004,1392.584745500004,1392.584745500004,1392.584745500004,1392.584745500004,down,0.4422332998365164,0,0,0,99,0.24,-0.16,down,0.35240540001541376,,,,,,,,,,,,,,,,,,,,,,,,,,,,,,,,,,,,,,,,,,,,,,,,,,,,,,,,,,,,4MA242,train_x,blue_star,top_right,2025-02-07_09h57.54.225,HideSeek_v1,2022.2.5,59.84476270179578,
,5,5,5,1,0,-4,65,,train_dim1_2,1,30,,,,5,0,5,0,,,,,,,,,0,0,0,0,0,0,0,0,2,0,2,0,,,,,,,,,,,,,,,,,,,,,,,,,,,,,,,,,,,,,,,,,,,,,,,,,,,,,,,,,,,,,,,,30,,,,,,,,1393.034347599838,1393.034347599838,1393.034347599838,1393.034347599838,1393.034347599838,down,0.6259896999690682,0,0,0,99,0.24,-0.24,down,0.5391484999563545,,,,,,,,,,,,,,,,,,,,,,,,,,,,,,,,,,,,,,,,,,,,,,,,,,,,,,,,,,,,4MA242,train_x,blue_star,top_right,2025-02-07_09h57.54.225,HideSeek_v1,2022.2.5,59.84476270179578,
,5,5,5,1,0,-4,65,,train_dim1_2,1,30,,,,5,0,5,0,,,,,,,,,0,0,0,0,0,0,0,0,3,0,3,0,,,,,,,,,,,,,,,,,,,,,,,,,,,,,,,,,,,,,,,,,,,,,,,,,,,,,,,,,,,,,,,,30,,,,,,,,1393.6675453998614,1393.6675453998614,1393.6675453998614,1393.6675453998614,1393.6675453998614,down,0.5762356999330223,0,0,0,99,0.24,-0.32,down,0.4931343998759985,,,,,,,,,,,,,,,,,,,,,,,,,,,,,,,,,,,,,,,,,,,,,,,,,,,,,,,,,,,,4MA242,train_x,blue_star,top_right,2025-02-07_09h57.54.225,HideSeek_v1,2022.2.5,59.84476270179578,
,5,5,5,1,0,-4,65,,train_dim1_2,1,30,,,,5,0,5,0,,,,,,,,,0,0,0,0,0,0,0,0,4,0,4,0,,,,,,,,,,,,,,,,,,,,,,,,,,,,,,,,,,,,,,,,,,,,,,,,,,,,,,,,,,,,,,,,30,,,,,,,,1394.2513562999666,1394.2513562999666,1394.2513562999666,1394.2513562999666,1394.2513562999666,return,0.9432514000218362,1,0,0,1,0.24,-0.32,return,0.8601367000956088,-4,-78,0.24,-0.32,,,,,,,,,,,,,,,,,,,,,,,,,,,,,,,,,,,,,,,,,,,,,,,,,,,,,,,,4MA242,train_x,blue_star,top_right,2025-02-07_09h57.54.225,HideSeek_v1,2022.2.5,59.84476270179578,
,8,7,8,2,0,-5,66,,train_dim1_2,2,30,,,,5,0,5,0,,,,,,,,,0,0,0,0,0,1,1,1,0,0,0,0,,,,,,,,,,,,,,,,,,,,,,,,,stimuli/alien_stimuli/66.png,,,,,,,,,,,,,,,,,,,,,,,,,,,,,stimuli/alien_stimuli/65.png,65,5,3,,,,,,,30,,,,,,,,1399.9023382999003,1399.9023382999003,1399.9023382999003,1399.9023382999003,1399.9023382999003,down,2.699062299914658,1,0,0,99,0.48,0.08,down,2.6252206000499427,,,,,1398.3290873998776,1396.7848866998684,0.24,-0.32,0.32,0.0,-0.16,0.24,0.24,0.24,-0.32,1396.7848866998684,1396.7848866998684,1396.7848866998684,1396.7848866998684,1396.7848866998684,1396.7848866998684,1396.7848866998684,1396.7848866998684,1396.7724280401133,1.674428999889642,return,1.5179123999550939,,,,,,,,,,,,,,,,,,,,,,,,,,,,,,,,,4MA242,train_x,blue_star,top_right,2025-02-07_09h57.54.225,HideSeek_v1,2022.2.5,59.84476270179578,
,8,7,8,2,0,-5,66,,train_dim1_2,2,30,,,,5,0,5,0,,,,,,,,,0,0,0,0,0,1,1,1,1,0,1,0,,,,,,,,,,,,,,,,,,,,,,,,,,,,,,,,,,,,,,,,,,,,,,,,,,,,,,,,,,,,,,,,30,,,,,,,,1402.6091690999456,1402.6091690999456,1402.6091690999456,1402.6091690999456,1402.6091690999456,down,0.47578189987689257,1,0,0,99,0.48,0.0,down,0.40375669999048114,,,,,,,,,,,,,,,,,,,,,,,,,,,,,,,,,,,,,,,,,,,,,,,,,,,,,,,,,,,,4MA242,train_x,blue_star,top_right,2025-02-07_09h57.54.225,HideSeek_v1,2022.2.5,59.84476270179578,
,8,7,8,2,0,-5,66,,train_dim1_2,2,30,,,,5,0,5,0,,,,,,,,,0,0,0,0,0,1,1,1,2,0,2,0,,,,,,,,,,,,,,,,,,,,,,,,,,,,,,,,,,,,,,,,,,,,,,,,,,,,,,,,,,,,,,,,30,,,,,,,,1403.0926206998993,1403.0926206998993,1403.0926206998993,1403.0926206998993,1403.0926206998993,down,0.49288030015304685,1,0,0,99,0.48,-0.08,down,0.4108484999742359,,,,,,,,,,,,,,,,,,,,,,,,,,,,,,,,,,,,,,,,,,,,,,,,,,,,,,,,,,,,4MA242,train_x,blue_star,top_right,2025-02-07_09h57.54.225,HideSeek_v1,2022.2.5,59.84476270179578,
,8,7,8,2,0,-5,66,,train_dim1_2,2,30,,,,5,0,5,0,,,,,,,,,0,0,0,0,0,1,1,1,3,0,3,0,,,,,,,,,,,,,,,,,,,,,,,,,,,,,,,,,,,,,,,,,,,,,,,,,,,,,,,,,,,,,,,,30,,,,,,,,1403.5926953000017,1403.5926953000017,1403.5926953000017,1403.5926953000017,1403.5926953000017,down,0.7782423000317067,1,0,0,99,0.48,-0.16,down,0.6971040999051183,,,,,,,,,,,,,,,,,,,,,,,,,,,,,,,,,,,,,,,,,,,,,,,,,,,,,,,,,,,,4MA242,train_x,blue_star,top_right,2025-02-07_09h57.54.225,HideSeek_v1,2022.2.5,59.84476270179578,
,8,7,8,2,0,-5,66,,train_dim1_2,2,30,,,,5,0,5,0,,,,,,,,,0,0,0,0,0,1,1,1,4,0,4,0,,,,,,,,,,,,,,,,,,,,,,,,,,,,,,,,,,,,,,,,,,,,,,,,,,,,,,,,,,,,,,,,30,,,,,,,,1404.3775752999354,1404.3775752999354,1404.3775752999354,1404.3775752999354,1404.3775752999354,down,0.6582769001834095,1,0,0,99,0.48,-0.24,down,0.5752020999789238,,,,,,,,,,,,,,,,,,,,,,,,,,,,,,,,,,,,,,,,,,,,,,,,,,,,,,,,,,,,4MA242,train_x,blue_star,top_right,2025-02-07_09h57.54.225,HideSeek_v1,2022.2.5,59.84476270179578,
,8,7,8,2,0,-5,66,,train_dim1_2,2,30,,,,5,0,5,0,,,,,,,,,0,0,0,0,0,1,1,1,5,0,5,0,,,,,,,,,,,,,,,,,,,,,,,,,,,,,,,,,,,,,,,,,,,,,,,,,,,,,,,,,,,,,,,,30,,,,,,,,1405.0446809998248,1405.0446809998248,1405.0446809998248,1405.0446809998248,1405.0446809998248,return,0.3931489000096917,2,0,0,1,0.48,-0.24,return,0.3180526001378894,-9,-78,0.48,-0.24,,,,,,,,,,,,,,,,,,,,,,,,,,,,,,,,,,,,,,,,,,,,,,,,,,,,,,,,4MA242,train_x,blue_star,top_right,2025-02-07_09h57.54.225,HideSeek_v1,2022.2.5,59.84476270179578,
