trialInstr,x_fixStart,y_fixStart,x_corrSteps,y_corrSteps,x_nrSteps,y_nrSteps,alienID,trialLength,version,trialTrain,praclen,testlen,trial_label,break_on_off,beforeExpLoop.thisRepN,beforeExpLoop.thisTrialN,beforeExpLoop.thisN,beforeExpLoop.thisIndex,mini_instr_trials.thisRepN,mini_instr_trials.thisTrialN,mini_instr_trials.thisN,mini_instr_trials.thisIndex,instrLoop.thisRepN,instrLoop.thisTrialN,instrLoop.thisN,instrLoop.thisIndex,repeat_prac.thisRepN,repeat_prac.thisTrialN,repeat_prac.thisN,repeat_prac.thisIndex,trainLoop.thisRepN,trainLoop.thisTrialN,trainLoop.thisN,trainLoop.thisIndex,moveLoop_train.thisRepN,moveLoop_train.thisTrialN,moveLoop_train.thisN,moveLoop_train.thisIndex,experiment.thisRepN,experiment.thisTrialN,experiment.thisN,experiment.thisIndex,moveLoop_test.thisRepN,moveLoop_test.thisTrialN,moveLoop_test.thisN,moveLoop_test.thisIndex,mini_instr2_trials.thisRepN,mini_instr2_trials.thisTrialN,mini_instr2_trials.thisN,mini_instr2_trials.thisIndex,start_all_time,url,slideStim,audioStim,slides.started,sounds.started,nextButton.numClicks,nextButton.timesOn,nextButton.timesOff,prev_but.numClicks,prev_but.timesOn,prev_but.timesOff,alienStim,instrFile,alienStim_instr,gridImage_instr.started,startPos_3.started,key_instr.started,alienImage_3.started,sounds_1.started,key_instr.keys,key_instr.rt,all_x,all_y,FBy_corrSteps,FBy_fixStart,FBx_corrSteps,FBx_fixStart,FBy_pathSize_check,FBx_pathSize_check,gridImage_9.started,alienImageFB_3.started,startPosFB_3.started,keyFB_3.started,pathLine_ydir_2.started,pathLine_xdir_2.started,alienFace_3.started,sounds_2.started,RTFB_instr,keyFB_3.keys,keyFB_3.rt,draw_alienStim,draw_alienID,test_x,nrepcount,perfthres,percthres,earlierperf,earlystop,nextPrac,fileidx,praclen,saveACC_train,pracFile,nextPrac_train,addNrep,fileidx_endr,repExp,showearly,gridImage_4.started,startPos.started,movePos.started,key_resp.started,alienImage.started,buttonPress_train,RTchoice_train,cumAcctrain,aCorr,saveACC_choice,corrAns,x_movePos_end,y_movePos_end,key_resp.keys,key_resp.rt,wLy_dir,wLx_dir,x_movePos,y_movePos,text_2.started,text_2.stopped,aft_x_corrPos,aft_y_corrPos,y_pathSize_check,x_pathSize_check,y_pathdirY,x_pathdirY,x_pathdirX,x_corrPos,y_corrPos,gridImage_6.started,alienImageFB_2.started,startPosFB_2.started,movePosFB_2.started,keyFB_2.started,pathLine_xdir.started,pathLine_ydir.started,alienFace.started,sounds_4.started,RT_FBtrain,keyFB_2.keys,keyFB_2.rt,saveACC_pre,ACC,within_saveACC_train,earlystop_wloop,cumAcctrain_check,gridImage_3.started,alienImage_test.started,startPos_test.started,movePos_test.started,key_resp_test.started,wLy_dir_test,wLx_dir_test,buttonPress_test,RTchoice_test,cumAcctest,corrAns_test,key_resp_test.keys,key_resp_test.rt,text_3.started,text_3.stopped,total_time,end_all_time,key_resp_3.keys,slides_2.started,sounds_3.started,nextButton_2.numClicks,nextButton_2.timesOn,nextButton_2.timesOff,prev_but_2.numClicks,prev_but_2.timesOn,prev_but_2.timesOff,bye.started,participant,train_first,00_coordinate,starting corner,date,expName,psychopyVersion,frameRate,
,,,,,,,,,,,,,,,0,0,0,0,0,0,0,0,,,,,,,,,,,,,,,,,,,,,,,,,,,,,start_all_time,testround,conditions/schedules/train_y_first/blue_star_00/bottom_left/instructions/Slide1.png,conditions/schedules/train_y_first/blue_star_00/bottom_left/instructions/Audio1.wav,404.6892117001116,404.6402001369279,1,[2.7429118000436574],[2.742932500084862],0,,,,,,,,,,,,,,,,,,,,,,,,,,,,,,,,,,,,,,,,,,,,,,,,,,,,,,,,,,,,,,,,,,,,,,,,,,,,,,,,,,,,,,,,,,,,,,,,,,,,,,,,,,,,,,,,,,,,,,,,,,,,4U1NM1,train_y,blue_star,bottom_left,2025-07-28_17h05.47.222,HideSeek_v1,2022.2.5,59.92886438467879,
,,,,,,,,,,,,,,,0,0,0,0,1,0,1,0,,,,,,,,,,,,,,,,,,,,,,,,,,,,,,,conditions/schedules/train_y_first/blue_star_00/bottom_left/instructions/Slide2.png,conditions/schedules/train_y_first/blue_star_00/bottom_left/instructions/Audio2.wav,407.44890660000965,407.4487332998542,2,"[2.7429118000436574, 19.34654560009949]","[2.742932500084862, 19.346552200149745]",0,,,,,,,,,,,,,,,,,,,,,,,,,,,,,,,,,,,,,,,,,,,,,,,,,,,,,,,,,,,,,,,,,,,,,,,,,,,,,,,,,,,,,,,,,,,,,,,,,,,,,,,,,,,,,,,,,,,,,,,,,,,,4U1NM1,train_y,blue_star,bottom_left,2025-07-28_17h05.47.222,HideSeek_v1,2022.2.5,59.92886438467879,
,,,,,,,,,,,,,,,0,0,0,0,2,0,2,0,,,,,,,,,,,,,,,,,,,,,,,,,,,,,,,conditions/schedules/train_y_first/blue_star_00/bottom_left/instructions/Slide3.png,conditions/schedules/train_y_first/blue_star_00/bottom_left/instructions/Audio3.wav,426.8696586000733,426.8648245000513,3,"[2.7429118000436574, 19.34654560009949, 16.055819100001827]","[2.742932500084862, 0.014401299878954887, 16.055827599950135]",0,,,,,,,,,,,,,,,,,,,,,,,,,,,,,,,,,,,,,,,,,,,,,,,,,,,,,,,,,,,,,,,,,,,,,,,,,,,,,,,,,,,,,,,,,,,,,,,,,,,,,,,,,,,,,,,,,,,,,,,,,,,,4U1NM1,train_y,blue_star,bottom_left,2025-07-28_17h05.47.222,HideSeek_v1,2022.2.5,59.92886438467879,
,,,,,,,,,,,,,,,0,0,0,0,3,0,3,0,,,,,,,,,,,,,,,,,,,,,,,,,,,,,,,conditions/schedules/train_y_first/blue_star_00/bottom_left/instructions/Slide4.png,conditions/schedules/train_y_first/blue_star_00/bottom_left/instructions/Audio4.wav,443.00533269997686,442.99473380006384,4,"[2.7429118000436574, 19.34654560009949, 16.055819100001827, 18.620686099864542]","[2.742932500084862, 0.014401299878954887, 0.014557600021362305, 18.620693000033498]",0,,,,,,,,,,,,,,,,,,,,,,,,,,,,,,,,,,,,,,,,,,,,,,,,,,,,,,,,,,,,,,,,,,,,,,,,,,,,,,,,,,,,,,,,,,,,,,,,,,,,,,,,,,,,,,,,,,,,,,,,,,,,4U1NM1,train_y,blue_star,bottom_left,2025-07-28_17h05.47.222,HideSeek_v1,2022.2.5,59.92886438467879,
,,,,,,,,,,,,,,,0,0,0,0,4,0,4,0,,,,,,,,,,,,,,,,,,,,,,,,,,,,,,,conditions/schedules/train_y_first/blue_star_00/bottom_left/instructions/Slide5.png,conditions/schedules/train_y_first/blue_star_00/bottom_left/instructions/Audio5.wav,461.6902701999061,461.6781891200226,5,"[2.7429118000436574, 19.34654560009949, 16.055819100001827, 18.620686099864542, 3.5535575000103563]","[2.742932500084862, 0.014401299878954887, 0.014557600021362305, 0.05027389992028475, 3.553564299829304]",0,,,,,,,,,,,,,,,,,,,,,,,,,,,,,,,,,,,,,,,,,,,,,,,,,,,,,,,,,,,,,,,,,,,,,,,,,,,,,,,,,,,,,,,,,,,,,,,,,,,,,,,,,,,,,,,,,,,,,,,,,,,,4U1NM1,train_y,blue_star,bottom_left,2025-07-28_17h05.47.222,HideSeek_v1,2022.2.5,59.92886438467879,
,,,,,,,,,,,,,,,0,0,0,0,5,0,5,0,,,,,,,,,,,,,,,,,,,,,,,,,,,,,,,conditions/schedules/train_y_first/blue_star_00/bottom_left/instructions/Slide6.png,conditions/schedules/train_y_first/blue_star_00/bottom_left/instructions/Audio6.wav,465.2947025001049,465.2967022198718,6,"[2.7429118000436574, 19.34654560009949, 16.055819100001827, 18.620686099864542, 3.5535575000103563, 4.20308839995414]","[2.742932500084862, 0.014401299878954887, 0.014557600021362305, 0.05027389992028475, 0.09965340001508594, 4.203095099888742]",0,,,,,,,,,,,,,,,,,,,,,,,,,,,,,,,,,,,,,,,,,,,,,,,,,,,,,,,,,,,,,,,,,,,,,,,,,,,,,,,,,,,,,,,,,,,,,,,,,,,,,,,,,,,,,,,,,,,,,,,,,,,,4U1NM1,train_y,blue_star,bottom_left,2025-07-28_17h05.47.222,HideSeek_v1,2022.2.5,59.92886438467879,
,,,,,,,,,,,,,,,0,0,0,0,6,0,6,0,,,,,,,,,,,,,,,,,,,,,,,,,,,,,,,conditions/schedules/train_y_first/blue_star_00/bottom_left/instructions/Slide7.png,conditions/schedules/train_y_first/blue_star_00/bottom_left/instructions/Audio7.wav,469.54842379991896,469.550237020012,7,"[2.7429118000436574, 19.34654560009949, 16.055819100001827, 18.620686099864542, 3.5535575000103563, 4.20308839995414, 5.086797299794853]","[2.742932500084862, 0.014401299878954887, 0.014557600021362305, 0.05027389992028475, 0.09965340001508594, 0.03268139995634556, 5.086803999962285]",0,,,,,,,,,,,,,,,,,,,,,,,,,,,,,,,,,,,,,,,,,,,,,,,,,,,,,,,,,,,,,,,,,,,,,,,,,,,,,,,,,,,,,,,,,,,,,,,,,,,,,,,,,,,,,,,,,,,,,,,,,,,,4U1NM1,train_y,blue_star,bottom_left,2025-07-28_17h05.47.222,HideSeek_v1,2022.2.5,59.92886438467879,
,,,,,,,,,,,,,,,0,0,0,0,7,0,7,0,,,,,,,,,,,,,,,,,,,,,,,,,,,,,,,conditions/schedules/train_y_first/blue_star_00/bottom_left/instructions/Slide8.png,conditions/schedules/train_y_first/blue_star_00/bottom_left/instructions/Audio8.wav,474.6880260000471,474.687935319962,8,"[2.7429118000436574, 19.34654560009949, 16.055819100001827, 18.620686099864542, 3.5535575000103563, 4.20308839995414, 5.086797299794853, 12.32386549981311]","[2.742932500084862, 0.014401299878954887, 0.014557600021362305, 0.05027389992028475, 0.09965340001508594, 0.03268139995634556, 0.047118299873545766, 12.323872099863365]",0,,,,,,,,,,,,,,,,,,,,,,,,,,,,,,,,,,,,,,,,,,,,,,,,,,,,,,,,,,,,,,,,,,,,,,,,,,,,,,,,,,,,,,,,,,,,,,,,,,,,,,,,,,,,,,,,,,,,,,,,,,,,4U1NM1,train_y,blue_star,bottom_left,2025-07-28_17h05.47.222,HideSeek_v1,2022.2.5,59.92886438467879,
,,,,,,,,,,,,,,,0,0,0,0,8,0,8,0,,,,,,,,,,,,,,,,,,,,,,,,,,,,,,,conditions/schedules/train_y_first/blue_star_00/bottom_left/instructions/Slide9.png,conditions/schedules/train_y_first/blue_star_00/bottom_left/instructions/Audio9.wav,487.07935380004346,487.0815042000031,9,"[2.7429118000436574, 19.34654560009949, 16.055819100001827, 18.620686099864542, 3.5535575000103563, 4.20308839995414, 5.086797299794853, 12.32386549981311, 5.337319900048897]","[2.742932500084862, 0.014401299878954887, 0.014557600021362305, 0.05027389992028475, 0.09965340001508594, 0.03268139995634556, 0.047118299873545766, 0.00020870007574558258, 5.337326700100675]",0,,,,,,,,,,,,,,,,,,,,,,,,,,,,,,,,,,,,,,,,,,,,,,,,,,,,,,,,,,,,,,,,,,,,,,,,,,,,,,,,,,,,,,,,,,,,,,,,,,,,,,,,,,,,,,,,,,,,,,,,,,,,4U1NM1,train_y,blue_star,bottom_left,2025-07-28_17h05.47.222,HideSeek_v1,2022.2.5,59.92886438467879,
,,,,,,,,,,,,,,,0,0,0,0,9,0,9,0,,,,,,,,,,,,,,,,,,,,,,,,,,,,,,,conditions/schedules/train_y_first/blue_star_00/bottom_left/instructions/Slide10.png,conditions/schedules/train_y_first/blue_star_00/bottom_left/instructions/Audio10.wav,492.4541766999755,492.4528197400505,10,"[2.7429118000436574, 19.34654560009949, 16.055819100001827, 18.620686099864542, 3.5535575000103563, 4.20308839995414, 5.086797299794853, 12.32386549981311, 5.337319900048897, 6.584599300054833]","[2.742932500084862, 0.014401299878954887, 0.014557600021362305, 0.05027389992028475, 0.09965340001508594, 0.03268139995634556, 0.047118299873545766, 0.00020870007574558258, 0.06318629998713732, 6.584605599986389]",0,,,,,,,,,,,,,,,,,,,,,,,,,,,,,,,,,,,,,,,,,,,,,,,,,,,,,,,,,,,,,,,,,,,,,,,,,,,,,,,,,,,,,,,,,,,,,,,,,,,,,,,,,,,,,,,,,,,,,,,,,,,,4U1NM1,train_y,blue_star,bottom_left,2025-07-28_17h05.47.222,HideSeek_v1,2022.2.5,59.92886438467879,
,,,,,,,,,,,,,,,0,0,0,0,10,0,10,0,,,,,,,,,,,,,,,,,,,,,,,,,,,,,,,conditions/schedules/train_y_first/blue_star_00/bottom_left/instructions/Slide11.png,conditions/schedules/train_y_first/blue_star_00/bottom_left/instructions/Audio11.wav,499.07811239990406,499.0750515399268,11,"[2.7429118000436574, 19.34654560009949, 16.055819100001827, 18.620686099864542, 3.5535575000103563, 4.20308839995414, 5.086797299794853, 12.32386549981311, 5.337319900048897, 6.584599300054833, 9.719572300091386]","[2.742932500084862, 0.014401299878954887, 0.014557600021362305, 0.05027389992028475, 0.09965340001508594, 0.03268139995634556, 0.047118299873545766, 0.00020870007574558258, 0.06318629998713732, 0.031358900014311075, 9.719579300144687]",0,,,,,,,,,,,,,,,,,,,,,,,,,,,,,,,,,,,,,,,,,,,,,,,,,,,,,,,,,,,,,,,,,,,,,,,,,,,,,,,,,,,,,,,,,,,,,,,,,,,,,,,,,,,,,,,,,,,,,,,,,,,,4U1NM1,train_y,blue_star,bottom_left,2025-07-28_17h05.47.222,HideSeek_v1,2022.2.5,59.92886438467879,
,,,,,,,,,,,,,,,0,0,0,0,11,0,11,0,,,,,,,,,,,,,,,,,,,,,,,,,,,,,,,conditions/schedules/train_y_first/blue_star_00/bottom_left/instructions/Slide12.png,conditions/schedules/train_y_first/blue_star_00/bottom_left/instructions/Audio12.wav,508.8519154000096,508.85027241986245,12,"[2.7429118000436574, 19.34654560009949, 16.055819100001827, 18.620686099864542, 3.5535575000103563, 4.20308839995414, 5.086797299794853, 12.32386549981311, 5.337319900048897, 6.584599300054833, 9.719572300091386, 13.4063456999138]","[2.742932500084862, 0.014401299878954887, 0.014557600021362305, 0.05027389992028475, 0.09965340001508594, 0.03268139995634556, 0.047118299873545766, 0.00020870007574558258, 0.06318629998713732, 0.031358900014311075, 0.048629399854689837, 13.406352499965578]",0,,,,,,,,,,,,,,,,,,,,,,,,,,,,,,,,,,,,,,,,,,,,,,,,,,,,,,,,,,,,,,,,,,,,,,,,,,,,,,,,,,,,,,,,,,,,,,,,,,,,,,,,,,,,,,,,,,,,,,,,,,,,4U1NM1,train_y,blue_star,bottom_left,2025-07-28_17h05.47.222,HideSeek_v1,2022.2.5,59.92886438467879,
1,0,3,0,8,0,5,66,2,instr_dim1_1,,,,,,0,0,0,0,,,,,0,0,0,0,,,,,,,,,,,,,,,,,,,,,,,,,,,,,,,,,,,,,stimuli/alien_stimuli/66.png,conditions/schedules/train_y_first/blue_star_00/bottom_left/inputInstr_1.xlsx,stimuli/alien_stimuli/66.png,522.3620500999968,522.3620500999968,522.3620500999968,522.3620500999968,522.360959059908,return,10.480649199802428,"[-0.16, -0.08, 0, 0.08, 0.16, 0.24, 0.32, 0.4, 0.48, 0.56]","[-0.4, -0.32, -0.24, -0.16, -0.08, 0, 0.08, 0.16, 0.24, 0.32]",8,3,0,0,0.4,0.0,533.0037920000032,533.0037920000032,533.0037920000032,533.0037920000032,533.0037920000032,533.0037920000032,533.0037920000032,532.9871130399406,27.189678699942306,return,27.032650499837473,stimuli/alien_stimuli/66.png,66,0,1,,,,,,,,,,,,,,,,,,,,,,,,,,,,,,,,,,,,,,,,,,,,,,,,,,,,,,,,,,,,,,,,,,,,,,,,,,,,,,,,,,,,,,,,,4U1NM1,train_y,blue_star,bottom_left,2025-07-28_17h05.47.222,HideSeek_v1,2022.2.5,59.92886438467879,
,,,,,,,,,,,30,,,,0,0,0,0,,,,,,,,,,,,,,,,,,,,,,,,,,,,,,,,,,,,,,,,,,,,,,,,,,,,,,,,,,,,,,,,,,,,,,,,,,,,,,21,0.7,0,0,99,1,30,0,conditions/schedules/train_y_first/blue_star_00/bottom_left/inputTrain_1.1.xlsx,99,1,1,1,0,,,,,,,,,,,,,,,,,,,,,,,,,,,,,,,,,,,,,,,,,,,,,,,,,,,,,,,,,,,,,,,,,,,,,,,,,,,4U1NM1,train_y,blue_star,bottom_left,2025-07-28_17h05.47.222,HideSeek_v1,2022.2.5,59.92886438467879,
,,,,,,,,,,,,,,,1,0,1,0,0,0,0,0,,,,,,,,,,,,,,,,,,,,,,,,,,,,,,,conditions/schedules/train_y_first/blue_star_00/bottom_left/instructions/Slide13.png,conditions/schedules/train_y_first/blue_star_00/bottom_left/instructions/Audio13.wav,560.2008034000173,560.1924528199015,13,"[2.7429118000436574, 19.34654560009949, 16.055819100001827, 18.620686099864542, 3.5535575000103563, 4.20308839995414, 5.086797299794853, 12.32386549981311, 5.337319900048897, 6.584599300054833, 9.719572300091386, 13.4063456999138, 17.35329670016654]","[2.742932500084862, 0.014401299878954887, 0.014557600021362305, 0.05027389992028475, 0.09965340001508594, 0.03268139995634556, 0.047118299873545766, 0.00020870007574558258, 0.06318629998713732, 0.031358900014311075, 0.048629399854689837, 13.406352499965578, 17.35330420010723]",0,,,,,,,,,,,,,,,,,,,,,,,,,,,,,,,,,,,,,,,,,,,,,,,,,,,,,,,,,,,,,,,,,,,,,,,,,,,,,,,,,,,,,,,,,,,,,,,,,,,,,,,,,,,,,,,,,,,,,,,,,,,,4U1NM1,train_y,blue_star,bottom_left,2025-07-28_17h05.47.222,HideSeek_v1,2022.2.5,59.92886438467879,
,,,,,,,,,,,,,,,1,0,1,0,1,0,1,0,,,,,,,,,,,,,,,,,,,,,,,,,,,,,,,conditions/schedules/train_y_first/blue_star_00/bottom_left/instructions/Slide14.png,conditions/schedules/train_y_first/blue_star_00/bottom_left/instructions/Audio14.wav,577.6309022998903,577.6236901000375,14,"[2.7429118000436574, 19.34654560009949, 16.055819100001827, 18.620686099864542, 3.5535575000103563, 4.20308839995414, 5.086797299794853, 12.32386549981311, 5.337319900048897, 6.584599300054833, 9.719572300091386, 13.4063456999138, 17.35329670016654, 16.5371477000881]","[2.742932500084862, 0.014401299878954887, 0.014557600021362305, 0.05027389992028475, 0.09965340001508594, 0.03268139995634556, 0.047118299873545766, 0.00020870007574558258, 0.06318629998713732, 0.031358900014311075, 0.048629399854689837, 13.406352499965578, 0.035909300204366446, 16.5371547001414]",0,,,,,,,,,,,,,,,,,,,,,,,,,,,,,,,,,,,,,,,,,,,,,,,,,,,,,,,,,,,,,,,,,,,,,,,,,,,,,,,,,,,,,,,,,,,,,,,,,,,,,,,,,,,,,,,,,,,,,,,,,,,,4U1NM1,train_y,blue_star,bottom_left,2025-07-28_17h05.47.222,HideSeek_v1,2022.2.5,59.92886438467879,
2,2,3,2,3,0,0,61,2,instr_dim1_1,,,,,,1,0,1,0,,,,,0,0,0,0,,,,,,,,,,,,,,,,,,,,,,,,,,,,,,,,,,,,,stimuli/alien_stimuli/61.png,conditions/schedules/train_y_first/blue_star_00/bottom_left/inputInstr_1.xlsx,stimuli/alien_stimuli/61.png,594.26158270007,594.26158270007,594.26158270007,594.26158270007,594.2541650799103,return,7.8275404998566955,"[-0.16, -0.08, 0, 0.08, 0.16, 0.24, 0.32, 0.4, 0.48, 0.56]","[-0.4, -0.32, -0.24, -0.16, -0.08, 0, 0.08, 0.16, 0.24, 0.32]",3,3,2,2,0.0,0.0,602.2310218999628,602.2310218999628,602.2310218999628,602.2310218999628,602.2310218999628,602.2310218999628,602.2310218999628,602.2276293400209,9.992578099947423,return,9.854670099681243,stimuli/alien_stimuli/61.png,61,2,2,,,,,,,,,,,,,,,,,,,,,,,,,,,,,,,,,,,,,,,,,,,,,,,,,,,,,,,,,,,,,,,,,,,,,,,,,,,,,,,,,,,,,,,,,4U1NM1,train_y,blue_star,bottom_left,2025-07-28_17h05.47.222,HideSeek_v1,2022.2.5,59.92886438467879,
,,,,,,,,,,,30,,,,1,0,1,0,,,,,,,,,,,,,,,,,,,,,,,,,,,,,,,,,,,,,,,,,,,,,,,,,,,,,,,,,,,,,,,,,,,,,,,,,,,,,,21,0.7,0,0,99,1,30,0,conditions/schedules/train_y_first/blue_star_00/bottom_left/inputTrain_1.1.xlsx,99,1,1,1,0,,,,,,,,,,,,,,,,,,,,,,,,,,,,,,,,,,,,,,,,,,,,,,,,,,,,,,,,,,,,,,,,,,,,,,,,,,,4U1NM1,train_y,blue_star,bottom_left,2025-07-28_17h05.47.222,HideSeek_v1,2022.2.5,59.92886438467879,
,,,,,,,,,,,,,,,2,0,2,0,0,0,0,0,,,,,,,,,,,,,,,,,,,,,,,,,,,,,,,conditions/schedules/train_y_first/blue_star_00/bottom_left/instructions/Slide15.png,conditions/schedules/train_y_first/blue_star_00/bottom_left/instructions/Audio15.wav,612.2565132000018,612.2525491998531,15,"[2.7429118000436574, 19.34654560009949, 16.055819100001827, 18.620686099864542, 3.5535575000103563, 4.20308839995414, 5.086797299794853, 12.32386549981311, 5.337319900048897, 6.584599300054833, 9.719572300091386, 13.4063456999138, 17.35329670016654, 16.5371477000881, 42.79567949986085]","[2.742932500084862, 0.014401299878954887, 0.014557600021362305, 0.05027389992028475, 0.09965340001508594, 0.03268139995634556, 0.047118299873545766, 0.00020870007574558258, 0.06318629998713732, 0.031358900014311075, 0.048629399854689837, 13.406352499965578, 0.035909300204366446, 16.5371547001414, 42.79568709991872]",0,,,,,,,,,,,,,,,,,,,,,,,,,,,,,,,,,,,,,,,,,,,,,,,,,,,,,,,,,,,,,,,,,,,,,,,,,,,,,,,,,,,,,,,,,,,,,,,,,,,,,,,,,,,,,,,,,,,,,,,,,,,,4U1NM1,train_y,blue_star,bottom_left,2025-07-28_17h05.47.222,HideSeek_v1,2022.2.5,59.92886438467879,
,,,,,,,,,,,,,,,2,0,2,0,1,0,1,0,,,,,,,,,,,,,,,,,,,,,,,,,,,,,,,conditions/schedules/train_y_first/blue_star_00/bottom_left/instructions/Slide16.png,conditions/schedules/train_y_first/blue_star_00/bottom_left/instructions/Audio16.wav,655.1248272000812,655.1213176999008,16,"[2.7429118000436574, 19.34654560009949, 16.055819100001827, 18.620686099864542, 3.5535575000103563, 4.20308839995414, 5.086797299794853, 12.32386549981311, 5.337319900048897, 6.584599300054833, 9.719572300091386, 13.4063456999138, 17.35329670016654, 16.5371477000881, 42.79567949986085, 21.312352300155908]","[2.742932500084862, 0.014401299878954887, 0.014557600021362305, 0.05027389992028475, 0.09965340001508594, 0.03268139995634556, 0.047118299873545766, 0.00020870007574558258, 0.06318629998713732, 0.031358900014311075, 0.048629399854689837, 13.406352499965578, 0.035909300204366446, 16.5371547001414, 0.08109769993461668, 21.31235869997181]",0,,,,,,,,,,,,,,,,,,,,,,,,,,,,,,,,,,,,,,,,,,,,,,,,,,,,,,,,,,,,,,,,,,,,,,,,,,,,,,,,,,,,,,,,,,,,,,,,,,,,,,,,,,,,,,,,,,,,,,,,,,,,4U1NM1,train_y,blue_star,bottom_left,2025-07-28_17h05.47.222,HideSeek_v1,2022.2.5,59.92886438467879,
,0,0,0,4,0,4,65,,train_dim1_1,1,30,,,,2,0,2,0,,,,,,,,,0,0,0,0,0,0,0,0,0,0,0,0,,,,,,,,,,,,,,,,,,,,,,,,,stimuli/alien_stimuli/65.png,,,,,,,,,,,,,,,,,,,,,,,,,,,,,,,,,,,,,,,30,,,,,,,,676.5420023999177,676.5420023999177,676.5420023999177,676.5420023999177,676.5420023999177,right,6.332340500084683,0,0,0,99,-0.08,-0.4,right,6.224264099961147,,,,,,,,,,,,,,,,,,,,,,,,,,,,,,,,,,,,,,,,,,,,,,,,,,,,,,,,,,,,4U1NM1,train_y,blue_star,bottom_left,2025-07-28_17h05.47.222,HideSeek_v1,2022.2.5,59.92886438467879,
,0,0,0,4,0,4,65,,train_dim1_1,1,30,,,,2,0,2,0,,,,,,,,,0,0,0,0,0,0,0,0,1,0,1,0,,,,,,,,,,,,,,,,,,,,,,,,,,,,,,,,,,,,,,,,,,,,,,,,,,,,,,,,,,,,,,,,30,,,,,,,,682.8604609998874,682.8604609998874,682.8604609998874,682.8604609998874,682.8604609998874,right,0.707945300033316,0,0,0,99,0.0,-0.4,right,0.6187325997743756,,,,,,,,,,,,,,,,,,,,,,,,,,,,,,,,,,,,,,,,,,,,,,,,,,,,,,,,,,,,4U1NM1,train_y,blue_star,bottom_left,2025-07-28_17h05.47.222,HideSeek_v1,2022.2.5,59.92886438467879,
,0,0,0,4,0,4,65,,train_dim1_1,1,30,,,,2,0,2,0,,,,,,,,,0,0,0,0,0,0,0,0,2,0,2,0,,,,,,,,,,,,,,,,,,,,,,,,,,,,,,,,,,,,,,,,,,,,,,,,,,,,,,,,,,,,,,,,30,,,,,,,,683.5750194001012,683.5750194001012,683.5750194001012,683.5750194001012,683.5750194001012,right,0.6270261001773179,0,0,0,99,0.08,-0.4,right,0.5473034998867661,,,,,,,,,,,,,,,,,,,,,,,,,,,,,,,,,,,,,,,,,,,,,,,,,,,,,,,,,,,,4U1NM1,train_y,blue_star,bottom_left,2025-07-28_17h05.47.222,HideSeek_v1,2022.2.5,59.92886438467879,
,0,0,0,4,0,4,65,,train_dim1_1,1,30,,,,2,0,2,0,,,,,,,,,0,0,0,0,0,0,0,0,3,0,3,0,,,,,,,,,,,,,,,,,,,,,,,,,,,,,,,,,,,,,,,,,,,,,,,,,,,,,,,,,,,,,,,,30,,,,,,,,684.208358099917,684.208358099917,684.208358099917,684.208358099917,684.208358099917,up,1.0771951999049634,0,0,0,99,0.08,-0.32,up,0.992624499835074,,,,,,,,,,,,,,,,,,,,,,,,,,,,,,,,,,,,,,,,,,,,,,,,,,,,,,,,,,,,4U1NM1,train_y,blue_star,bottom_left,2025-07-28_17h05.47.222,HideSeek_v1,2022.2.5,59.92886438467879,
,0,0,0,4,0,4,65,,train_dim1_1,1,30,,,,2,0,2,0,,,,,,,,,0,0,0,0,0,0,0,0,4,0,4,0,,,,,,,,,,,,,,,,,,,,,,,,,,,,,,,,,,,,,,,,,,,,,,,,,,,,,,,,,,,,,,,,30,,,,,,,,685.2926266998984,685.2926266998984,685.2926266998984,685.2926266998984,685.2926266998984,up,0.527403499931097,0,0,0,99,0.08,-0.24,up,0.4460855999495834,,,,,,,,,,,,,,,,,,,,,,,,,,,,,,,,,,,,,,,,,,,,,,,,,,,,,,,,,,,,4U1NM1,train_y,blue_star,bottom_left,2025-07-28_17h05.47.222,HideSeek_v1,2022.2.5,59.92886438467879,
,0,0,0,4,0,4,65,,train_dim1_1,1,30,,,,2,0,2,0,,,,,,,,,0,0,0,0,0,0,0,0,5,0,5,0,,,,,,,,,,,,,,,,,,,,,,,,,,,,,,,,,,,,,,,,,,,,,,,,,,,,,,,,,,,,,,,,30,,,,,,,,685.8271963000298,685.8271963000298,685.8271963000298,685.8271963000298,685.8271963000298,up,0.5265678998548537,0,0,0,99,0.08,-0.15999999999999998,up,0.4398884999100119,,,,,,,,,,,,,,,,,,,,,,,,,,,,,,,,,,,,,,,,,,,,,,,,,,,,,,,,,,,,4U1NM1,train_y,blue_star,bottom_left,2025-07-28_17h05.47.222,HideSeek_v1,2022.2.5,59.92886438467879,
,0,0,0,4,0,4,65,,train_dim1_1,1,30,,,,2,0,2,0,,,,,,,,,0,0,0,0,0,0,0,0,6,0,6,0,,,,,,,,,,,,,,,,,,,,,,,,,,,,,,,,,,,,,,,,,,,,,,,,,,,,,,,,,,,,,,,,30,,,,,,,,686.3606688000727,686.3606688000727,686.3606688000727,686.3606688000727,686.3606688000727,up,0.4436527001671493,0,0,0,99,0.08,-0.07999999999999997,up,0.3590706998948008,,,,,,,,,,,,,,,,,,,,,,,,,,,,,,,,,,,,,,,,,,,,,,,,,,,,,,,,,,,,4U1NM1,train_y,blue_star,bottom_left,2025-07-28_17h05.47.222,HideSeek_v1,2022.2.5,59.92886438467879,
,0,0,0,4,0,4,65,,train_dim1_1,1,30,,,,2,0,2,0,,,,,,,,,0,0,0,0,0,0,0,0,7,0,7,0,,,,,,,,,,,,,,,,,,,,,,,,,,,,,,,,,,,,,,,,,,,,,,,,,,,,,,,,,,,,,,,,30,,,,,,,,686.8129185999278,686.8129185999278,686.8129185999278,686.8129185999278,686.8129185999278,up,0.5091604001354426,0,0,0,99,0.08,2.7755575615628914e-17,up,0.4346942000556737,,,,,,,,,,,,,,,,,,,,,,,,,,,,,,,,,,,,,,,,,,,,,,,,,,,,,,,,,,,,4U1NM1,train_y,blue_star,bottom_left,2025-07-28_17h05.47.222,HideSeek_v1,2022.2.5,59.92886438467879,
,0,0,0,4,0,4,65,,train_dim1_1,1,30,,,,2,0,2,0,,,,,,,,,0,0,0,0,0,0,0,0,8,0,8,0,,,,,,,,,,,,,,,,,,,,,,,,,,,,,,,,,,,,,,,,,,,,,,,,,,,,,,,,,,,,,,,,30,,,,,,,,687.338571399916,687.338571399916,687.338571399916,687.338571399916,687.338571399916,up,0.46024950011633337,0,0,0,99,0.08,0.08000000000000003,up,0.3762840998824686,,,,,,,,,,,,,,,,,,,,,,,,,,,,,,,,,,,,,,,,,,,,,,,,,,,,,,,,,,,,4U1NM1,train_y,blue_star,bottom_left,2025-07-28_17h05.47.222,HideSeek_v1,2022.2.5,59.92886438467879,
,0,0,0,4,0,4,65,,train_dim1_1,1,30,,,,2,0,2,0,,,,,,,,,0,0,0,0,0,0,0,0,9,0,9,0,,,,,,,,,,,,,,,,,,,,,,,,,,,,,,,,,,,,,,,,,,,,,,,,,,,,,,,,,,,,,,,,30,,,,,,,,687.7955440001097,687.7955440001097,687.7955440001097,687.7955440001097,687.7955440001097,return,1.010297100059688,0,0,0,0,0.08,0.08000000000000003,return,0.9293975997716188,6,3,0.08,0.08000000000000003,,,,,,,,,,,,,,,,,,,,,,,,,,,,,,,,,,,,,,,,,,,,,,,,,,,,,,,,4U1NM1,train_y,blue_star,bottom_left,2025-07-28_17h05.47.222,HideSeek_v1,2022.2.5,59.92886438467879,
,3,2,3,7,0,5,66,,train_dim1_1,2,30,,,,2,0,2,0,,,,,,,,,0,0,0,0,0,1,1,1,0,0,0,0,,,,,,,,,,,,,,,,,,,,,,,,,stimuli/alien_stimuli/66.png,,,,,,,,,,,,,,,,,,,,,,,,,,,,,stimuli/alien_stimuli/65.png,65,0,3,,,,,,,30,,,,,,,,713.1658920000773,713.1658920000773,713.1658920000773,713.1658920000773,713.1658920000773,up,4.304685499984771,0,0,0,99,0.08,-0.15999999999999998,up,4.206976699875668,,,,,711.584744800115,713.1658920000773,-0.16,-0.08,0.32,0.0,-0.24000000000000002,-0.16,-0.16,-0.16,-0.08,690.3831833999138,690.3831833999138,690.3831833999138,690.3831833999138,690.3831833999138,690.3831833999138,690.3831833999138,690.3831833999138,690.3676679598866,21.319754200056195,return,21.175982399843633,,,,,,,,,,,,,,,,,,,,,,,,,,,,,,,,,4U1NM1,train_y,blue_star,bottom_left,2025-07-28_17h05.47.222,HideSeek_v1,2022.2.5,59.92886438467879,
,3,2,3,7,0,5,66,,train_dim1_1,2,30,,,,2,0,2,0,,,,,,,,,0,0,0,0,0,1,1,1,1,0,1,0,,,,,,,,,,,,,,,,,,,,,,,,,,,,,,,,,,,,,,,,,,,,,,,,,,,,,,,,,,,,,,,,30,,,,,,,,717.4614653000608,717.4614653000608,717.4614653000608,717.4614653000608,717.4614653000608,up,0.6266947998665273,0,0,0,99,0.08,-0.07999999999999997,up,0.5454996998887509,,,,,,,,,,,,,,,,,,,,,,,,,,,,,,,,,,,,,,,,,,,,,,,,,,,,,,,,,,,,4U1NM1,train_y,blue_star,bottom_left,2025-07-28_17h05.47.222,HideSeek_v1,2022.2.5,59.92886438467879,
,3,2,3,7,0,5,66,,train_dim1_1,2,30,,,,2,0,2,0,,,,,,,,,0,0,0,0,0,1,1,1,2,0,2,0,,,,,,,,,,,,,,,,,,,,,,,,,,,,,,,,,,,,,,,,,,,,,,,,,,,,,,,,,,,,,,,,30,,,,,,,,718.0884414999746,718.0884414999746,718.0884414999746,718.0884414999746,718.0884414999746,up,0.6433246999513358,0,0,0,99,0.08,2.7755575615628914e-17,up,0.5616555998567492,,,,,,,,,,,,,,,,,,,,,,,,,,,,,,,,,,,,,,,,,,,,,,,,,,,,,,,,,,,,4U1NM1,train_y,blue_star,bottom_left,2025-07-28_17h05.47.222,HideSeek_v1,2022.2.5,59.92886438467879,
,3,2,3,7,0,5,66,,train_dim1_1,2,30,,,,2,0,2,0,,,,,,,,,0,0,0,0,0,1,1,1,3,0,3,0,,,,,,,,,,,,,,,,,,,,,,,,,,,,,,,,,,,,,,,,,,,,,,,,,,,,,,,,,,,,,,,,30,,,,,,,,718.7391758000012,718.7391758000012,718.7391758000012,718.7391758000012,718.7391758000012,return,2.19420969998464,0,0,0,0,0.08,2.7755575615628914e-17,return,2.1179078998975456,9,3,0.08,2.7755575615628914e-17,,,,,,,,,,,,,,,,,,,,,,,,,,,,,,,,,,,,,,,,,,,,,,,,,,,,,,,,4U1NM1,train_y,blue_star,bottom_left,2025-07-28_17h05.47.222,HideSeek_v1,2022.2.5,59.92886438467879,
,2,3,2,6,0,3,64,,train_dim1_1,3,30,,,,2,0,2,0,,,,,,,,,0,0,0,0,0,2,2,2,0,0,0,0,,,,,,,,,,,,,,,,,,,,,,,,,stimuli/alien_stimuli/64.png,,,,,,,,,,,,,,,,,,,,,,,,,,,,,stimuli/alien_stimuli/66.png,66,3,4,,,,,,,30,,,,,,,,728.8714286000468,728.8714286000468,728.8714286000468,728.8714286000468,728.8714286000468,right,5.6570970001630485,0,0,0,99,0.08,-0.16,right,5.5709295000415295,,,,,727.3144209999591,728.8714286000468,0.08,0.16,0.4,0.0,-0.039999999999999994,0.08,0.08,0.08,0.16,722.499493899988,722.499493899988,722.499493899988,722.499493899988,722.499493899988,722.499493899988,722.499493899988,722.499493899988,722.4939866600325,4.922877000179142,return,4.786802100017667,,,,,,,,,,,,,,,,,,,,,,,,,,,,,,,,,4U1NM1,train_y,blue_star,bottom_left,2025-07-28_17h05.47.222,HideSeek_v1,2022.2.5,59.92886438467879,
,2,3,2,6,0,3,64,,train_dim1_1,3,30,,,,2,0,2,0,,,,,,,,,0,0,0,0,0,2,2,2,1,0,1,0,,,,,,,,,,,,,,,,,,,,,,,,,,,,,,,,,,,,,,,,,,,,,,,,,,,,,,,,,,,,,,,,30,,,,,,,,734.5351537000388,734.5351537000388,734.5351537000388,734.5351537000388,734.5351537000388,right,0.6765846000052989,0,0,0,99,0.16,-0.16,right,0.5987981997895986,,,,,,,,,,,,,,,,,,,,,,,,,,,,,,,,,,,,,,,,,,,,,,,,,,,,,,,,,,,,4U1NM1,train_y,blue_star,bottom_left,2025-07-28_17h05.47.222,HideSeek_v1,2022.2.5,59.92886438467879,
,2,3,2,6,0,3,64,,train_dim1_1,3,30,,,,2,0,2,0,,,,,,,,,0,0,0,0,0,2,2,2,2,0,2,0,,,,,,,,,,,,,,,,,,,,,,,,,,,,,,,,,,,,,,,,,,,,,,,,,,,,,,,,,,,,,,,,30,,,,,,,,735.218517600093,735.218517600093,735.218517600093,735.218517600093,735.218517600093,right,0.8601502000819892,0,0,0,99,0.24,-0.16,right,0.7763360000681132,,,,,,,,,,,,,,,,,,,,,,,,,,,,,,,,,,,,,,,,,,,,,,,,,,,,,,,,,,,,4U1NM1,train_y,blue_star,bottom_left,2025-07-28_17h05.47.222,HideSeek_v1,2022.2.5,59.92886438467879,
,2,3,2,6,0,3,64,,train_dim1_1,3,30,,,,2,0,2,0,,,,,,,,,0,0,0,0,0,2,2,2,3,0,3,0,,,,,,,,,,,,,,,,,,,,,,,,,,,,,,,,,,,,,,,,,,,,,,,,,,,,,,,,,,,,,,,,30,,,,,,,,736.0850494001061,736.0850494001061,736.0850494001061,736.0850494001061,736.0850494001061,right,0.6937015999574214,0,0,0,99,0.32,-0.16,right,0.6049355997238308,,,,,,,,,,,,,,,,,,,,,,,,,,,,,,,,,,,,,,,,,,,,,,,,,,,,,,,,,,,,4U1NM1,train_y,blue_star,bottom_left,2025-07-28_17h05.47.222,HideSeek_v1,2022.2.5,59.92886438467879,
,2,3,2,6,0,3,64,,train_dim1_1,3,30,,,,2,0,2,0,,,,,,,,,0,0,0,0,0,2,2,2,4,0,4,0,,,,,,,,,,,,,,,,,,,,,,,,,,,,,,,,,,,,,,,,,,,,,,,,,,,,,,,,,,,,,,,,30,,,,,,,,736.7855499000289,736.7855499000289,736.7855499000289,736.7855499000289,736.7855499000289,return,0.8436763000208884,0,0,0,0,0.32,-0.16,return,0.7589297997765243,9,7,0.32,-0.16,,,,,,,,,,,,,,,,,,,,,,,,,,,,,,,,,,,,,,,,,,,,,,,,,,,,,,,,4U1NM1,train_y,blue_star,bottom_left,2025-07-28_17h05.47.222,HideSeek_v1,2022.2.5,59.92886438467879,
,0,1,0,2,0,1,62,,train_dim1_1,4,30,,,,2,0,2,0,,,,,,,,,0,0,0,0,0,3,3,3,0,0,0,0,,,,,,,,,,,,,,,,,,,,,,,,,stimuli/alien_stimuli/62.png,,,,,,,,,,,,,,,,,,,,,,,,,,,,,stimuli/alien_stimuli/64.png,64,2,5,,,,,,,30,,,,,,,,746.0866980999708,746.0866980999708,746.0866980999708,746.0866980999708,746.0866980999708,up,4.406222000019625,0,0,0,99,-0.16,-0.24,up,4.315980999963358,,,,,744.5288533999119,746.0866980999708,0,0.08,0.24,0.0,-0.04,0,0.0,0,0.08,739.199097200064,739.199097200064,739.199097200064,739.199097200064,739.199097200064,739.199097200064,739.199097200064,739.199097200064,739.1915985598462,5.440029700053856,return,5.312212099786848,,,,,,,,,,,,,,,,,,,,,,,,,,,,,,,,,4U1NM1,train_y,blue_star,bottom_left,2025-07-28_17h05.47.222,HideSeek_v1,2022.2.5,59.92886438467879,
,0,1,0,2,0,1,62,,train_dim1_1,4,30,,,,2,0,2,0,,,,,,,,,0,0,0,0,0,3,3,3,1,0,1,0,,,,,,,,,,,,,,,,,,,,,,,,,,,,,,,,,,,,,,,,,,,,,,,,,,,,,,,,,,,,,,,,30,,,,,,,,750.4991721999831,750.4991721999831,750.4991721999831,750.4991721999831,750.4991721999831,return,0.4923929001670331,1,0,0,1,-0.16,-0.24,return,0.4121311998460442,10,7,-0.16,-0.24,,,,,,,,,,,,,,,,,,,,,,,,,,,,,,,,,,,,,,,,,,,,,,,,,,,,,,,,4U1NM1,train_y,blue_star,bottom_left,2025-07-28_17h05.47.222,HideSeek_v1,2022.2.5,59.92886438467879,
,3,3,3,3,0,0,61,,train_dim1_1,5,30,,,,2,0,2,0,,,,,,,,,0,0,0,0,0,4,4,4,0,0,0,0,,,,,,,,,,,,,,,,,,,,,,,,,stimuli/alien_stimuli/61.png,,,,,,,,,,,,,,,,,,,,,,,,,,,,,stimuli/alien_stimuli/62.png,62,0,6,,,,,,,30,,,,,,,,757.5433360000607,757.5433360000607,757.5433360000607,757.5433360000607,757.5433360000607,up,1.6881595999002457,1,0,0,99,0.08,-0.08,up,1.6029717000201344,,,,,755.9884520000778,757.5433360000607,-0.16,-0.24,0.08,0.0,-0.28,-0.16,-0.16,-0.16,-0.24,752.5627890999895,752.5627890999895,752.5627890999895,752.5627890999895,752.5627890999895,752.5627890999895,752.5627890999895,752.5627890999895,752.5525450598216,3.5382389998994768,return,3.3956186999566853,,,,,,,,,,,,,,,,,,,,,,,,,,,,,,,,,4U1NM1,train_y,blue_star,bottom_left,2025-07-28_17h05.47.222,HideSeek_v1,2022.2.5,59.92886438467879,
,3,3,3,3,0,0,61,,train_dim1_1,5,30,,,,2,0,2,0,,,,,,,,,0,0,0,0,0,4,4,4,1,0,1,0,,,,,,,,,,,,,,,,,,,,,,,,,,,,,,,,,,,,,,,,,,,,,,,,,,,,,,,,,,,,,,,,30,,,,,,,,759.2391582001001,759.2391582001001,759.2391582001001,759.2391582001001,759.2391582001001,return,0.5256507999729365,1,1,0,0,0.08,-0.08,return,0.45028169988654554,11,7,0.08,-0.08,,,,,,,,,,,,,,,,,,,,,,,,,,,,,,,,,,,,,,,,,,,,,,,,,,,,,,,,4U1NM1,train_y,blue_star,bottom_left,2025-07-28_17h05.47.222,HideSeek_v1,2022.2.5,59.92886438467879,
,1,4,1,5,0,1,62,,train_dim1_1,6,30,,,,2,0,2,0,,,,,,,,,0,0,0,0,0,5,5,5,0,0,0,0,,,,,,,,,,,,,,,,,,,,,,,,,stimuli/alien_stimuli/62.png,,,,,,,,,,,,,,,,,,,,,,,,,,,,,stimuli/alien_stimuli/61.png,61,3,7,,,,,,,30,,,,,,,,766.3371204000432,766.3371204000432,766.3371204000432,766.3371204000432,766.3371204000432,return,10.960951999993995,1,1,0,0,-0.08,-0.08,return,10.878781700041145,11,7,-0.08,-0.08,764.779077900108,766.3371204000432,0.08,-0.16,0.0,0.0,-0.16,0.08,0.08,0.08,-0.16,761.3204189001117,761.3204189001117,761.3204189001117,761.3204189001117,761.3204189001117,761.3204189001117,761.3204189001117,761.3204189001117,761.3097275800537,3.554786700056866,return,3.434684499865398,,,,,,,,,,,,,,,,,,,,,,,,,,,,,,,,,4U1NM1,train_y,blue_star,bottom_left,2025-07-28_17h05.47.222,HideSeek_v1,2022.2.5,59.92886438467879,
,1,3,1,6,0,3,64,,train_dim1_1,7,30,,,,2,0,2,0,,,,,,,,,0,0,0,0,0,6,6,6,0,0,0,0,,,,,,,,,,,,,,,,,,,,,,,,,stimuli/alien_stimuli/64.png,,,,,,,,,,,,,,,,,,,,,,,,,,,,,stimuli/alien_stimuli/62.png,62,1,8,,,,,,,30,,,,,,,,784.5337219999637,784.5337219999637,784.5337219999637,784.5337219999637,784.5337219999637,up,2.2381400999147445,1,1,0,99,-0.08,-0.08,up,2.1600995000917464,,,,,782.9776936001144,784.5337219999637,-0.08,0,0.08,0.0,-0.04,-0.08,-0.08,-0.08,0,778.890985300066,778.890985300066,778.890985300066,778.890985300066,778.890985300066,778.890985300066,778.890985300066,778.890985300066,778.8913078199839,4.222033099969849,return,4.058670899830759,,,,,,,,,,,,,,,,,,,,,,,,,,,,,,,,,4U1NM1,train_y,blue_star,bottom_left,2025-07-28_17h05.47.222,HideSeek_v1,2022.2.5,59.92886438467879,
,1,3,1,6,0,3,64,,train_dim1_1,7,30,,,,2,0,2,0,,,,,,,,,0,0,0,0,0,6,6,6,1,0,1,0,,,,,,,,,,,,,,,,,,,,,,,,,,,,,,,,,,,,,,,,,,,,,,,,,,,,,,,,,,,,,,,,30,,,,,,,,786.7782258000225,786.7782258000225,786.7782258000225,786.7782258000225,786.7782258000225,up,0.3762816998641938,1,1,0,99,-0.08,0.0,up,0.29793679993599653,,,,,,,,,,,,,,,,,,,,,,,,,,,,,,,,,,,,,,,,,,,,,,,,,,,,,,,,,,,,4U1NM1,train_y,blue_star,bottom_left,2025-07-28_17h05.47.222,HideSeek_v1,2022.2.5,59.92886438467879,
,1,3,1,6,0,3,64,,train_dim1_1,7,30,,,,2,0,2,0,,,,,,,,,0,0,0,0,0,6,6,6,2,0,2,0,,,,,,,,,,,,,,,,,,,,,,,,,,,,,,,,,,,,,,,,,,,,,,,,,,,,,,,,,,,,,,,,30,,,,,,,,787.1614284000825,787.1614284000825,787.1614284000825,787.1614284000825,787.1614284000825,up,1.1766464998945594,1,1,0,99,-0.08,0.08,up,1.0893602997530252,,,,,,,,,,,,,,,,,,,,,,,,,,,,,,,,,,,,,,,,,,,,,,,,,,,,,,,,,,,,4U1NM1,train_y,blue_star,bottom_left,2025-07-28_17h05.47.222,HideSeek_v1,2022.2.5,59.92886438467879,
,1,3,1,6,0,3,64,,train_dim1_1,7,30,,,,2,0,2,0,,,,,,,,,0,0,0,0,0,6,6,6,3,0,3,0,,,,,,,,,,,,,,,,,,,,,,,,,,,,,,,,,,,,,,,,,,,,,,,,,,,,,,,,,,,,,,,,30,,,,,,,,788.344516400015,788.344516400015,788.344516400015,788.344516400015,788.344516400015,return,0.6437452000100166,2,0,0,1,-0.08,0.08,return,0.5688481999095529,14,7,-0.08,0.08,,,,,,,,,,,,,,,,,,,,,,,,,,,,,,,,,,,,,,,,,,,,,,,,,,,,,,,,4U1NM1,train_y,blue_star,bottom_left,2025-07-28_17h05.47.222,HideSeek_v1,2022.2.5,59.92886438467879,
,4,2,4,2,0,0,61,,train_dim1_1,8,30,,,,2,0,2,0,,,,,,,,,0,0,0,0,0,7,7,7,0,0,0,0,,,,,,,,,,,,,,,,,,,,,,,,,stimuli/alien_stimuli/61.png,,,,,,,,,,,,,,,,,,,,,,,,,,,,,stimuli/alien_stimuli/64.png,64,1,9,,,,,,,30,,,,,,,,794.7090529999696,794.7090529999696,794.7090529999696,794.7090529999696,794.7090529999696,up,1.6869757999666035,2,0,0,99,0.16,-0.15999999999999998,up,1.6029170998372138,,,,,793.1525584000628,794.7090529999696,-0.08,0.08,0.24,0.0,-0.04,-0.08,-0.08,-0.08,0.08,790.5567648001015,790.5567648001015,790.5567648001015,790.5567648001015,790.5567648001015,790.5567648001015,790.5567648001015,790.5567648001015,790.5510586599121,2.7039342001080513,return,2.5644624999258667,,,,,,,,,,,,,,,,,,,,,,,,,,,,,,,,,4U1NM1,train_y,blue_star,bottom_left,2025-07-28_17h05.47.222,HideSeek_v1,2022.2.5,59.92886438467879,
,4,2,4,2,0,0,61,,train_dim1_1,8,30,,,,2,0,2,0,,,,,,,,,0,0,0,0,0,7,7,7,1,0,1,0,,,,,,,,,,,,,,,,,,,,,,,,,,,,,,,,,,,,,,,,,,,,,,,,,,,,,,,,,,,,,,,,30,,,,,,,,796.4035259000957,796.4035259000957,796.4035259000957,796.4035259000957,796.4035259000957,return,0.4262413999531418,2,1,0,0,0.16,-0.15999999999999998,return,0.3369358996860683,15,7,0.16,-0.15999999999999998,,,,,,,,,,,,,,,,,,,,,,,,,,,,,,,,,,,,,,,,,,,,,,,,,,,,,,,,4U1NM1,train_y,blue_star,bottom_left,2025-07-28_17h05.47.222,HideSeek_v1,2022.2.5,59.92886438467879,
,4,3,4,7,0,4,65,,train_dim1_1,9,30,,,,2,0,2,0,,,,,,,,,0,0,0,0,0,8,8,8,0,0,0,0,,,,,,,,,,,,,,,,,,,,,,,,,stimuli/alien_stimuli/65.png,,,,,,,,,,,,,,,,,,,,,,,,,,,,,stimuli/alien_stimuli/61.png,61,4,10,,,,,,,30,,,,,,,,803.3676346000284,803.3676346000284,803.3676346000284,803.3676346000284,803.3676346000284,up,2.1688115999568254,2,1,0,99,0.16,-0.08,up,2.0890454999171197,,,,,801.8098313999362,803.3676346000284,0.16,-0.24,0.0,0.0,-0.24,0.16,0.16,0.16,-0.24,798.3818612000905,798.3818612000905,798.3818612000905,798.3818612000905,798.3818612000905,798.3818612000905,798.3818612000905,798.3818612000905,798.3739259799477,3.521948699839413,return,3.4107580999843776,,,,,,,,,,,,,,,,,,,,,,,,,,,,,,,,,4U1NM1,train_y,blue_star,bottom_left,2025-07-28_17h05.47.222,HideSeek_v1,2022.2.5,59.92886438467879,
,4,3,4,7,0,4,65,,train_dim1_1,9,30,,,,2,0,2,0,,,,,,,,,0,0,0,0,0,8,8,8,1,0,1,0,,,,,,,,,,,,,,,,,,,,,,,,,,,,,,,,,,,,,,,,,,,,,,,,,,,,,,,,,,,,,,,,30,,,,,,,,805.543386500096,805.543386500096,805.543386500096,805.543386500096,805.543386500096,up,0.4095938999671489,2,1,0,99,0.16,0.0,up,0.33645769977010787,,,,,,,,,,,,,,,,,,,,,,,,,,,,,,,,,,,,,,,,,,,,,,,,,,,,,,,,,,,,4U1NM1,train_y,blue_star,bottom_left,2025-07-28_17h05.47.222,HideSeek_v1,2022.2.5,59.92886438467879,
,4,3,4,7,0,4,65,,train_dim1_1,9,30,,,,2,0,2,0,,,,,,,,,0,0,0,0,0,8,8,8,2,0,2,0,,,,,,,,,,,,,,,,,,,,,,,,,,,,,,,,,,,,,,,,,,,,,,,,,,,,,,,,,,,,,,,,30,,,,,,,,805.9611521998886,805.9611521998886,805.9611521998886,805.9611521998886,805.9611521998886,up,0.4269314000848681,2,1,0,99,0.16,0.08,up,0.33689289982430637,,,,,,,,,,,,,,,,,,,,,,,,,,,,,,,,,,,,,,,,,,,,,,,,,,,,,,,,,,,,4U1NM1,train_y,blue_star,bottom_left,2025-07-28_17h05.47.222,HideSeek_v1,2022.2.5,59.92886438467879,
,4,3,4,7,0,4,65,,train_dim1_1,9,30,,,,2,0,2,0,,,,,,,,,0,0,0,0,0,8,8,8,3,0,3,0,,,,,,,,,,,,,,,,,,,,,,,,,,,,,,,,,,,,,,,,,,,,,,,,,,,,,,,,,,,,,,,,30,,,,,,,,806.3932801000774,806.3932801000774,806.3932801000774,806.3932801000774,806.3932801000774,up,0.4434970000293106,2,1,0,99,0.16,0.16,up,0.35682999971322715,,,,,,,,,,,,,,,,,,,,,,,,,,,,,,,,,,,,,,,,,,,,,,,,,,,,,,,,,,,,4U1NM1,train_y,blue_star,bottom_left,2025-07-28_17h05.47.222,HideSeek_v1,2022.2.5,59.92886438467879,
,4,3,4,7,0,4,65,,train_dim1_1,9,30,,,,2,0,2,0,,,,,,,,,0,0,0,0,0,8,8,8,4,0,4,0,,,,,,,,,,,,,,,,,,,,,,,,,,,,,,,,,,,,,,,,,,,,,,,,,,,,,,,,,,,,,,,,30,,,,,,,,806.8458479000255,806.8458479000255,806.8458479000255,806.8458479000255,806.8458479000255,up,0.39217899995855987,2,1,0,99,0.16,0.24,up,0.31200979999266565,,,,,,,,,,,,,,,,,,,,,,,,,,,,,,,,,,,,,,,,,,,,,,,,,,,,,,,,,,,,4U1NM1,train_y,blue_star,bottom_left,2025-07-28_17h05.47.222,HideSeek_v1,2022.2.5,59.92886438467879,
,4,3,4,7,0,4,65,,train_dim1_1,9,30,,,,2,0,2,0,,,,,,,,,0,0,0,0,0,8,8,8,5,0,5,0,,,,,,,,,,,,,,,,,,,,,,,,,,,,,,,,,,,,,,,,,,,,,,,,,,,,,,,,,,,,,,,,30,,,,,,,,807.2446375000291,807.2446375000291,807.2446375000291,807.2446375000291,807.2446375000291,return,0.5937068001367152,2,1,0,0,0.16,0.24,return,0.5200644999276847,20,7,0.16,0.24,,,,,,,,,,,,,,,,,,,,,,,,,,,,,,,,,,,,,,,,,,,,,,,,,,,,,,,,4U1NM1,train_y,blue_star,bottom_left,2025-07-28_17h05.47.222,HideSeek_v1,2022.2.5,59.92886438467879,
,2,2,2,7,0,5,66,,train_dim1_1,10,30,,,,2,0,2,0,,,,,,,,,0,0,0,0,0,9,9,9,0,0,0,0,,,,,,,,,,,,,,,,,,,,,,,,,stimuli/alien_stimuli/66.png,,,,,,,,,,,,,,,,,,,,,,,,,,,,,stimuli/alien_stimuli/65.png,65,4,11,,,,,,,30,,,,,,,,815.0094711999409,815.0094711999409,815.0094711999409,815.0094711999409,815.0094711999409,up,3.1382661999668926,2,1,0,99,0,-0.15999999999999998,up,3.0490630997810513,,,,,813.4529381999746,815.0094711999409,0.16,0.16,0.32,0.0,0.0,0.16,0.16,0.16,0.16,809.4036723999307,809.4036723999307,809.4036723999307,809.4036723999307,809.4036723999307,809.4036723999307,809.4036723999307,809.4036723999307,809.3999168599257,4.155458899913356,return,4.02200339990668,,,,,,,,,,,,,,,,,,,,,,,,,,,,,,,,,4U1NM1,train_y,blue_star,bottom_left,2025-07-28_17h05.47.222,HideSeek_v1,2022.2.5,59.92886438467879,
,2,2,2,7,0,5,66,,train_dim1_1,10,30,,,,2,0,2,0,,,,,,,,,0,0,0,0,0,9,9,9,1,0,1,0,,,,,,,,,,,,,,,,,,,,,,,,,,,,,,,,,,,,,,,,,,,,,,,,,,,,,,,,,,,,,,,,30,,,,,,,,818.155277099926,818.155277099926,818.155277099926,818.155277099926,818.155277099926,up,0.258669399889186,2,1,0,99,0,-0.07999999999999997,up,0.17396759986877441,,,,,,,,,,,,,,,,,,,,,,,,,,,,,,,,,,,,,,,,,,,,,,,,,,,,,,,,,,,,4U1NM1,train_y,blue_star,bottom_left,2025-07-28_17h05.47.222,HideSeek_v1,2022.2.5,59.92886438467879,
,2,2,2,7,0,5,66,,train_dim1_1,10,30,,,,2,0,2,0,,,,,,,,,0,0,0,0,0,9,9,9,2,0,2,0,,,,,,,,,,,,,,,,,,,,,,,,,,,,,,,,,,,,,,,,,,,,,,,,,,,,,,,,,,,,,,,,30,,,,,,,,818.4204512001015,818.4204512001015,818.4204512001015,818.4204512001015,818.4204512001015,up,0.2603929000906646,2,1,0,99,0,2.7755575615628914e-17,up,0.174968299921602,,,,,,,,,,,,,,,,,,,,,,,,,,,,,,,,,,,,,,,,,,,,,,,,,,,,,,,,,,,,4U1NM1,train_y,blue_star,bottom_left,2025-07-28_17h05.47.222,HideSeek_v1,2022.2.5,59.92886438467879,
,2,2,2,7,0,5,66,,train_dim1_1,10,30,,,,2,0,2,0,,,,,,,,,0,0,0,0,0,9,9,9,3,0,3,0,,,,,,,,,,,,,,,,,,,,,,,,,,,,,,,,,,,,,,,,,,,,,,,,,,,,,,,,,,,,,,,,30,,,,,,,,818.688074799953,818.688074799953,818.688074799953,818.688074799953,818.688074799953,up,0.29299440002068877,2,1,0,99,0,0.08000000000000003,up,0.21509419986978173,,,,,,,,,,,,,,,,,,,,,,,,,,,,,,,,,,,,,,,,,,,,,,,,,,,,,,,,,,,,4U1NM1,train_y,blue_star,bottom_left,2025-07-28_17h05.47.222,HideSeek_v1,2022.2.5,59.92886438467879,
,2,2,2,7,0,5,66,,train_dim1_1,10,30,,,,2,0,2,0,,,,,,,,,0,0,0,0,0,9,9,9,4,0,4,0,,,,,,,,,,,,,,,,,,,,,,,,,,,,,,,,,,,,,,,,,,,,,,,,,,,,,,,,,,,,,,,,30,,,,,,,,818.9883932000957,818.9883932000957,818.9883932000957,818.9883932000957,818.9883932000957,up,0.3767055000644177,2,1,0,99,0,0.16000000000000003,up,0.28767220000736415,,,,,,,,,,,,,,,,,,,,,,,,,,,,,,,,,,,,,,,,,,,,,,,,,,,,,,,,,,,,4U1NM1,train_y,blue_star,bottom_left,2025-07-28_17h05.47.222,HideSeek_v1,2022.2.5,59.92886438467879,
,2,2,2,7,0,5,66,,train_dim1_1,10,30,,,,2,0,2,0,,,,,,,,,0,0,0,0,0,9,9,9,5,0,5,0,,,,,,,,,,,,,,,,,,,,,,,,,,,,,,,,,,,,,,,,,,,,,,,,,,,,,,,,,,,,,,,,30,,,,,,,,819.3712096998934,819.3712096998934,819.3712096998934,819.3712096998934,819.3712096998934,return,0.4600434999447316,3,0,0,1,0,0.16000000000000003,return,0.3804268997628242,25,7,0,0.16000000000000003,,,,,,,,,,,,,,,,,,,,,,,,,,,,,,,,,,,,,,,,,,,,,,,,,,,,,,,,4U1NM1,train_y,blue_star,bottom_left,2025-07-28_17h05.47.222,HideSeek_v1,2022.2.5,59.92886438467879,
,4,1,4,5,0,4,65,,train_dim1_1,11,30,,,,2,0,2,0,,,,,,,,,0,0,0,0,0,10,10,10,0,0,0,0,,,,,,,,,,,,,,,,,,,,,,,,,stimuli/alien_stimuli/65.png,,,,,,,,,,,,,,,,,,,,,,,,,,,,,stimuli/alien_stimuli/66.png,66,2,12,,,,,,,30,,,,,,,,825.7183697000146,825.7183697000146,825.7183697000146,825.7183697000146,825.7183697000146,up,1.736892499960959,3,0,0,99,0.16,-0.24,up,1.6521071998868138,,,,,824.1618957999162,825.7183697000146,0,0.16,0.4,0.0,-0.039999999999999994,0,0.0,0,0.16,821.3995040000882,821.3995040000882,821.3995040000882,821.3995040000882,821.3995040000882,821.3995040000882,821.3995040000882,821.3995040000882,821.3932966600405,2.8708834999706596,return,2.7378856998402625,,,,,,,,,,,,,,,,,,,,,,,,,,,,,,,,,4U1NM1,train_y,blue_star,bottom_left,2025-07-28_17h05.47.222,HideSeek_v1,2022.2.5,59.92886438467879,
,4,1,4,5,0,4,65,,train_dim1_1,11,30,,,,2,0,2,0,,,,,,,,,0,0,0,0,0,10,10,10,1,0,1,0,,,,,,,,,,,,,,,,,,,,,,,,,,,,,,,,,,,,,,,,,,,,,,,,,,,,,,,,,,,,,,,,30,,,,,,,,827.4632129999809,827.4632129999809,827.4632129999809,827.4632129999809,827.4632129999809,up,0.3253244000952691,3,0,0,99,0.16,-0.15999999999999998,up,0.23657619976438582,,,,,,,,,,,,,,,,,,,,,,,,,,,,,,,,,,,,,,,,,,,,,,,,,,,,,,,,,,,,4U1NM1,train_y,blue_star,bottom_left,2025-07-28_17h05.47.222,HideSeek_v1,2022.2.5,59.92886438467879,
,4,1,4,5,0,4,65,,train_dim1_1,11,30,,,,2,0,2,0,,,,,,,,,0,0,0,0,0,10,10,10,2,0,2,0,,,,,,,,,,,,,,,,,,,,,,,,,,,,,,,,,,,,,,,,,,,,,,,,,,,,,,,,,,,,,,,,30,,,,,,,,827.7948396999855,827.7948396999855,827.7948396999855,827.7948396999855,827.7948396999855,up,0.310148699907586,3,0,0,99,0.16,-0.07999999999999997,up,0.22802249970845878,,,,,,,,,,,,,,,,,,,,,,,,,,,,,,,,,,,,,,,,,,,,,,,,,,,,,,,,,,,,4U1NM1,train_y,blue_star,bottom_left,2025-07-28_17h05.47.222,HideSeek_v1,2022.2.5,59.92886438467879,
,4,1,4,5,0,4,65,,train_dim1_1,11,30,,,,2,0,2,0,,,,,,,,,0,0,0,0,0,10,10,10,3,0,3,0,,,,,,,,,,,,,,,,,,,,,,,,,,,,,,,,,,,,,,,,,,,,,,,,,,,,,,,,,,,,,,,,30,,,,,,,,828.1123160999268,828.1123160999268,828.1123160999268,828.1123160999268,828.1123160999268,up,0.3600815001409501,3,0,0,99,0.16,2.7755575615628914e-17,up,0.2860141999553889,,,,,,,,,,,,,,,,,,,,,,,,,,,,,,,,,,,,,,,,,,,,,,,,,,,,,,,,,,,,4U1NM1,train_y,blue_star,bottom_left,2025-07-28_17h05.47.222,HideSeek_v1,2022.2.5,59.92886438467879,
,4,1,4,5,0,4,65,,train_dim1_1,11,30,,,,2,0,2,0,,,,,,,,,0,0,0,0,0,10,10,10,4,0,4,0,,,,,,,,,,,,,,,,,,,,,,,,,,,,,,,,,,,,,,,,,,,,,,,,,,,,,,,,,,,,,,,,30,,,,,,,,828.4786157000344,828.4786157000344,828.4786157000344,828.4786157000344,828.4786157000344,return,0.4100642998237163,4,0,0,1,0.16,2.7755575615628914e-17,return,0.33303099987097085,29,7,0.16,2.7755575615628914e-17,,,,,,,,,,,,,,,,,,,,,,,,,,,,,,,,,,,,,,,,,,,,,,,,,,,,,,,,4U1NM1,train_y,blue_star,bottom_left,2025-07-28_17h05.47.222,HideSeek_v1,2022.2.5,59.92886438467879,
,0,0,0,0,0,0,61,,train_dim1_1,12,30,,,,2,0,2,0,,,,,,,,,0,0,0,0,0,11,11,11,0,0,0,0,,,,,,,,,,,,,,,,,,,,,,,,,stimuli/alien_stimuli/61.png,,,,,,,,,,,,,,,,,,,,,,,,,,,,,stimuli/alien_stimuli/65.png,65,4,13,,,,,,,30,,,,,,,,833.9914933999535,833.9914933999535,833.9914933999535,833.9914933999535,833.9914933999535,up,1.6034518000669777,4,0,0,99,-0.16,-0.32,up,1.5176778000313789,,,,,832.4354481999762,833.9914933999535,0.16,0,0.32,0.0,-0.16,0.16,0.16,0.16,0,830.4602669999003,830.4602669999003,830.4602669999003,830.4602669999003,830.4602669999003,830.4602669999003,830.4602669999003,830.4602669999003,830.4508864599047,2.0867014001123607,return,1.9507648998405784,,,,,,,,,,,,,,,,,,,,,,,,,,,,,,,,,4U1NM1,train_y,blue_star,bottom_left,2025-07-28_17h05.47.222,HideSeek_v1,2022.2.5,59.92886438467879,
,0,0,0,0,0,0,61,,train_dim1_1,12,30,,,,2,0,2,0,,,,,,,,,0,0,0,0,0,11,11,11,1,0,1,0,,,,,,,,,,,,,,,,,,,,,,,,,,,,,,,,,,,,,,,,,,,,,,,,,,,,,,,,,,,,,,,,30,,,,,,,,835.6037421000656,835.6037421000656,835.6037421000656,835.6037421000656,835.6037421000656,return,0.5595059997867793,4,1,0,0,-0.16,-0.32,return,0.4829155998304486,30,7,-0.16,-0.32,,,,,,,,,,,,,,,,,,,,,,,,,,,,,,,,,,,,,,,,,,,,,,,,,,,,,,,,4U1NM1,train_y,blue_star,bottom_left,2025-07-28_17h05.47.222,HideSeek_v1,2022.2.5,59.92886438467879,
,4,3,4,4,0,1,62,,train_dim1_1,13,30,,,,2,0,2,0,,,,,,,,,0,0,0,0,0,12,12,12,0,0,0,0,,,,,,,,,,,,,,,,,,,,,,,,,stimuli/alien_stimuli/62.png,,,,,,,,,,,,,,,,,,,,,,,,,,,,,stimuli/alien_stimuli/61.png,61,0,14,,,,,,,30,,,,,,,,841.498524799943,841.498524799943,841.498524799943,841.498524799943,841.498524799943,return,6.99120289995335,4,1,0,0,0.16,-0.16,return,6.916768499882892,30,7,0.16,-0.16,839.9417189001106,841.498524799943,-0.16,-0.4,0.0,0.0,-0.4,-0.16,-0.16,-0.16,-0.4,837.7139624000993,837.7139624000993,837.7139624000993,837.7139624000993,837.7139624000993,837.7139624000993,837.7139624000993,837.7139624000993,837.7067493798677,2.3206870001740754,return,2.2008354999125004,,,,,,,,,,,,,,,,,,,,,,,,,,,,,,,,,4U1NM1,train_y,blue_star,bottom_left,2025-07-28_17h05.47.222,HideSeek_v1,2022.2.5,59.92886438467879,
,2,2,2,7,0,5,66,,train_dim1_1,14,30,,,,2,0,2,0,,,,,,,,,0,0,0,0,0,13,13,13,0,0,0,0,,,,,,,,,,,,,,,,,,,,,,,,,stimuli/alien_stimuli/66.png,,,,,,,,,,,,,,,,,,,,,,,,,,,,,stimuli/alien_stimuli/62.png,62,4,15,,,,,,,30,,,,,,,,853.5092235000338,853.5092235000338,853.5092235000338,853.5092235000338,853.5092235000338,up,1.7352352000307292,4,1,0,99,0,-0.15999999999999998,up,1.6481456998735666,,,,,851.951546400087,853.5092235000338,0.16,-0.08,0.08,0.0,-0.12,0.16,0.16,0.16,-0.08,850.0662378000561,850.0662378000561,850.0662378000561,850.0662378000561,850.0662378000561,850.0662378000561,850.0662378000561,850.0662378000561,850.0672104398254,2.003543399972841,return,1.8557682998944074,,,,,,,,,,,,,,,,,,,,,,,,,,,,,,,,,4U1NM1,train_y,blue_star,bottom_left,2025-07-28_17h05.47.222,HideSeek_v1,2022.2.5,59.92886438467879,
,2,2,2,7,0,5,66,,train_dim1_1,14,30,,,,2,0,2,0,,,,,,,,,0,0,0,0,0,13,13,13,1,0,1,0,,,,,,,,,,,,,,,,,,,,,,,,,,,,,,,,,,,,,,,,,,,,,,,,,,,,,,,,,,,,,,,,30,,,,,,,,855.2511917001102,855.2511917001102,855.2511917001102,855.2511917001102,855.2511917001102,up,0.4431933001615107,4,1,0,99,0,-0.07999999999999997,up,0.3594656998757273,,,,,,,,,,,,,,,,,,,,,,,,,,,,,,,,,,,,,,,,,,,,,,,,,,,,,,,,,,,,4U1NM1,train_y,blue_star,bottom_left,2025-07-28_17h05.47.222,HideSeek_v1,2022.2.5,59.92886438467879,
,2,2,2,7,0,5,66,,train_dim1_1,14,30,,,,2,0,2,0,,,,,,,,,0,0,0,0,0,13,13,13,2,0,2,0,,,,,,,,,,,,,,,,,,,,,,,,,,,,,,,,,,,,,,,,,,,,,,,,,,,,,,,,,,,,,,,,30,,,,,,,,855.7021538000554,855.7021538000554,855.7021538000554,855.7021538000554,855.7021538000554,up,0.4933791998773813,4,1,0,99,0,2.7755575615628914e-17,up,0.4147910000756383,,,,,,,,,,,,,,,,,,,,,,,,,,,,,,,,,,,,,,,,,,,,,,,,,,,,,,,,,,,,4U1NM1,train_y,blue_star,bottom_left,2025-07-28_17h05.47.222,HideSeek_v1,2022.2.5,59.92886438467879,
,2,2,2,7,0,5,66,,train_dim1_1,14,30,,,,2,0,2,0,,,,,,,,,0,0,0,0,0,13,13,13,3,0,3,0,,,,,,,,,,,,,,,,,,,,,,,,,,,,,,,,,,,,,,,,,,,,,,,,,,,,,,,,,,,,,,,,30,,,,,,,,856.2039799001068,856.2039799001068,856.2039799001068,856.2039799001068,856.2039799001068,up,0.6100159001071006,4,1,0,99,0,0.08000000000000003,up,0.5228273998945951,,,,,,,,,,,,,,,,,,,,,,,,,,,,,,,,,,,,,,,,,,,,,,,,,,,,,,,,,,,,4U1NM1,train_y,blue_star,bottom_left,2025-07-28_17h05.47.222,HideSeek_v1,2022.2.5,59.92886438467879,
,2,2,2,7,0,5,66,,train_dim1_1,14,30,,,,2,0,2,0,,,,,,,,,0,0,0,0,0,13,13,13,4,0,4,0,,,,,,,,,,,,,,,,,,,,,,,,,,,,,,,,,,,,,,,,,,,,,,,,,,,,,,,,,,,,,,,,30,,,,,,,,856.8233413000125,856.8233413000125,856.8233413000125,856.8233413000125,856.8233413000125,up,0.42629879992455244,4,1,0,99,0,0.16000000000000003,up,0.34863729984499514,,,,,,,,,,,,,,,,,,,,,,,,,,,,,,,,,,,,,,,,,,,,,,,,,,,,,,,,,,,,4U1NM1,train_y,blue_star,bottom_left,2025-07-28_17h05.47.222,HideSeek_v1,2022.2.5,59.92886438467879,
,2,2,2,7,0,5,66,,train_dim1_1,14,30,,,,2,0,2,0,,,,,,,,,0,0,0,0,0,13,13,13,5,0,5,0,,,,,,,,,,,,,,,,,,,,,,,,,,,,,,,,,,,,,,,,,,,,,,,,,,,,,,,,,,,,,,,,30,,,,,,,,857.2566698000301,857.2566698000301,857.2566698000301,857.2566698000301,857.2566698000301,return,0.8412309000268579,5,0,0,1,0,0.16000000000000003,return,0.7598255998454988,35,7,0,0.16000000000000003,,,,,,,,,,,,,,,,,,,,,,,,,,,,,,,,,,,,,,,,,,,,,,,,,,,,,,,,4U1NM1,train_y,blue_star,bottom_left,2025-07-28_17h05.47.222,HideSeek_v1,2022.2.5,59.92886438467879,
,1,4,1,7,0,3,64,,train_dim1_1,15,30,,,,2,0,2,0,,,,,,,,,0,0,0,0,0,14,14,14,0,0,0,0,,,,,,,,,,,,,,,,,,,,,,,,,stimuli/alien_stimuli/64.png,,,,,,,,,,,,,,,,,,,,,,,,,,,,,stimuli/alien_stimuli/66.png,66,2,16,,,,,,,30,,,,,,,,863.7681100000627,863.7681100000627,863.7681100000627,863.7681100000627,863.7681100000627,up,2.5861686000134796,5,0,0,99,-0.08,0.0,up,2.499980899738148,,,,,862.2101966000628,863.7681100000627,0,0.16,0.4,0.0,-0.039999999999999994,0,0.0,0,0.16,859.6659117999952,859.6659117999952,859.6659117999952,859.6659117999952,859.6659117999952,859.6659117999952,859.6659117999952,859.6659117999952,859.6582902598893,2.6543595001567155,return,2.5227616999763995,,,,,,,,,,,,,,,,,,,,,,,,,,,,,,,,,4U1NM1,train_y,blue_star,bottom_left,2025-07-28_17h05.47.222,HideSeek_v1,2022.2.5,59.92886438467879,
,1,4,1,7,0,3,64,,train_dim1_1,15,30,,,,2,0,2,0,,,,,,,,,0,0,0,0,0,14,14,14,1,0,1,0,,,,,,,,,,,,,,,,,,,,,,,,,,,,,,,,,,,,,,,,,,,,,,,,,,,,,,,,,,,,,,,,30,,,,,,,,866.3622274000663,866.3622274000663,866.3622274000663,866.3622274000663,866.3622274000663,up,0.24242389993742108,5,0,0,99,-0.08,0.08,up,0.16828129976056516,,,,,,,,,,,,,,,,,,,,,,,,,,,,,,,,,,,,,,,,,,,,,,,,,,,,,,,,,,,,4U1NM1,train_y,blue_star,bottom_left,2025-07-28_17h05.47.222,HideSeek_v1,2022.2.5,59.92886438467879,
,1,4,1,7,0,3,64,,train_dim1_1,15,30,,,,2,0,2,0,,,,,,,,,0,0,0,0,0,14,14,14,2,0,2,0,,,,,,,,,,,,,,,,,,,,,,,,,,,,,,,,,,,,,,,,,,,,,,,,,,,,,,,,,,,,,,,,30,,,,,,,,866.61226850003,866.61226850003,866.61226850003,866.61226850003,866.61226850003,up,0.2931881002150476,5,0,0,99,-0.08,0.16,up,0.2167965997941792,,,,,,,,,,,,,,,,,,,,,,,,,,,,,,,,,,,,,,,,,,,,,,,,,,,,,,,,,,,,4U1NM1,train_y,blue_star,bottom_left,2025-07-28_17h05.47.222,HideSeek_v1,2022.2.5,59.92886438467879,
,1,4,1,7,0,3,64,,train_dim1_1,15,30,,,,2,0,2,0,,,,,,,,,0,0,0,0,0,14,14,14,3,0,3,0,,,,,,,,,,,,,,,,,,,,,,,,,,,,,,,,,,,,,,,,,,,,,,,,,,,,,,,,,,,,,,,,30,,,,,,,,866.9097299999557,866.9097299999557,866.9097299999557,866.9097299999557,866.9097299999557,return,0.49348810012452304,6,0,0,1,-0.08,0.16,return,0.40716779977083206,38,7,-0.08,0.16,,,,,,,,,,,,,,,,,,,,,,,,,,,,,,,,,,,,,,,,,,,,,,,,,,,,,,,,4U1NM1,train_y,blue_star,bottom_left,2025-07-28_17h05.47.222,HideSeek_v1,2022.2.5,59.92886438467879,
,4,0,4,4,0,4,65,,train_dim1_1,16,30,,,,2,0,2,0,,,,,,,,,0,0,0,0,0,15,15,15,0,0,0,0,,,,,,,,,,,,,,,,,,,,,,,,,stimuli/alien_stimuli/65.png,,,,,,,,,,,,,,,,,,,,,,,,,,,,,stimuli/alien_stimuli/64.png,64,1,17,,,,,,,30,,,,,,,,871.6701708999462,871.6701708999462,871.6701708999462,871.6701708999462,871.6701708999462,up,2.4065942000597715,6,0,0,99,0.16,-0.32,up,2.3309623000677675,,,,,870.1168549999129,871.6701708999462,-0.08,0.16,0.24,0.0,0.04,-0.08,-0.08,-0.08,0.16,868.972710999893,868.972710999893,868.972710999893,868.972710999893,868.972710999893,868.972710999893,868.972710999893,868.972710999893,868.9660074600251,1.2532792000565678,return,1.1227510997559875,,,,,,,,,,,,,,,,,,,,,,,,,,,,,,,,,4U1NM1,train_y,blue_star,bottom_left,2025-07-28_17h05.47.222,HideSeek_v1,2022.2.5,59.92886438467879,
,4,0,4,4,0,4,65,,train_dim1_1,16,30,,,,2,0,2,0,,,,,,,,,0,0,0,0,0,15,15,15,1,0,1,0,,,,,,,,,,,,,,,,,,,,,,,,,,,,,,,,,,,,,,,,,,,,,,,,,,,,,,,,,,,,,,,,30,,,,,,,,874.0845236000605,874.0845236000605,874.0845236000605,874.0845236000605,874.0845236000605,up,0.4258675999008119,6,0,0,99,0.16,-0.24,up,0.3522508000023663,,,,,,,,,,,,,,,,,,,,,,,,,,,,,,,,,,,,,,,,,,,,,,,,,,,,,,,,,,,,4U1NM1,train_y,blue_star,bottom_left,2025-07-28_17h05.47.222,HideSeek_v1,2022.2.5,59.92886438467879,
,4,0,4,4,0,4,65,,train_dim1_1,16,30,,,,2,0,2,0,,,,,,,,,0,0,0,0,0,15,15,15,2,0,2,0,,,,,,,,,,,,,,,,,,,,,,,,,,,,,,,,,,,,,,,,,,,,,,,,,,,,,,,,,,,,,,,,30,,,,,,,,874.5172449001111,874.5172449001111,874.5172449001111,874.5172449001111,874.5172449001111,up,0.41014120006002486,6,0,0,99,0.16,-0.15999999999999998,up,0.32189429993741214,,,,,,,,,,,,,,,,,,,,,,,,,,,,,,,,,,,,,,,,,,,,,,,,,,,,,,,,,,,,4U1NM1,train_y,blue_star,bottom_left,2025-07-28_17h05.47.222,HideSeek_v1,2022.2.5,59.92886438467879,
,4,0,4,4,0,4,65,,train_dim1_1,16,30,,,,2,0,2,0,,,,,,,,,0,0,0,0,0,15,15,15,3,0,3,0,,,,,,,,,,,,,,,,,,,,,,,,,,,,,,,,,,,,,,,,,,,,,,,,,,,,,,,,,,,,,,,,30,,,,,,,,874.9339672001079,874.9339672001079,874.9339672001079,874.9339672001079,874.9339672001079,up,0.5602828001137823,6,0,0,99,0.16,-0.07999999999999997,up,0.48027909989468753,,,,,,,,,,,,,,,,,,,,,,,,,,,,,,,,,,,,,,,,,,,,,,,,,,,,,,,,,,,,4U1NM1,train_y,blue_star,bottom_left,2025-07-28_17h05.47.222,HideSeek_v1,2022.2.5,59.92886438467879,
,4,0,4,4,0,4,65,,train_dim1_1,16,30,,,,2,0,2,0,,,,,,,,,0,0,0,0,0,15,15,15,4,0,4,0,,,,,,,,,,,,,,,,,,,,,,,,,,,,,,,,,,,,,,,,,,,,,,,,,,,,,,,,,,,,,,,,30,,,,,,,,875.5034119999036,875.5034119999036,875.5034119999036,875.5034119999036,875.5034119999036,return,0.4255183001514524,7,0,0,1,0.16,-0.07999999999999997,return,0.33685379987582564,42,7,0.16,-0.07999999999999997,,,,,,,,,,,,,,,,,,,,,,,,,,,,,,,,,,,,,,,,,,,,,,,,,,,,,,,,4U1NM1,train_y,blue_star,bottom_left,2025-07-28_17h05.47.222,HideSeek_v1,2022.2.5,59.92886438467879,
,3,3,3,6,0,3,64,,train_dim1_1,17,30,,,,2,0,2,0,,,,,,,,,0,0,0,0,0,16,16,16,0,0,0,0,,,,,,,,,,,,,,,,,,,,,,,,,stimuli/alien_stimuli/64.png,,,,,,,,,,,,,,,,,,,,,,,,,,,,,stimuli/alien_stimuli/65.png,65,4,18,,,,,,,30,,,,,,,,880.1789273000322,880.1789273000322,880.1789273000322,880.1789273000322,880.1789273000322,up,1.2204160001128912,7,0,0,99,0.08,-0.08,up,1.143671999918297,,,,,878.623934000032,880.1789273000322,0.16,-0.08,0.32,0.0,-0.24000000000000002,0.16,0.16,0.16,-0.08,877.5024546000641,877.5024546000641,877.5024546000641,877.5024546000641,877.5024546000641,877.5024546000641,877.5024546000641,877.5024546000641,877.4896144600352,1.2365880999714136,return,1.0893868999555707,,,,,,,,,,,,,,,,,,,,,,,,,,,,,,,,,4U1NM1,train_y,blue_star,bottom_left,2025-07-28_17h05.47.222,HideSeek_v1,2022.2.5,59.92886438467879,
,3,3,3,6,0,3,64,,train_dim1_1,17,30,,,,2,0,2,0,,,,,,,,,0,0,0,0,0,16,16,16,1,0,1,0,,,,,,,,,,,,,,,,,,,,,,,,,,,,,,,,,,,,,,,,,,,,,,,,,,,,,,,,,,,,,,,,30,,,,,,,,881.4061424999963,881.4061424999963,881.4061424999963,881.4061424999963,881.4061424999963,up,0.24312840006314218,7,0,0,99,0.08,0.0,up,0.17014459986239672,,,,,,,,,,,,,,,,,,,,,,,,,,,,,,,,,,,,,,,,,,,,,,,,,,,,,,,,,,,,4U1NM1,train_y,blue_star,bottom_left,2025-07-28_17h05.47.222,HideSeek_v1,2022.2.5,59.92886438467879,
,3,3,3,6,0,3,64,,train_dim1_1,17,30,,,,2,0,2,0,,,,,,,,,0,0,0,0,0,16,16,16,2,0,2,0,,,,,,,,,,,,,,,,,,,,,,,,,,,,,,,,,,,,,,,,,,,,,,,,,,,,,,,,,,,,,,,,30,,,,,,,,881.6598749000113,881.6598749000113,881.6598749000113,881.6598749000113,881.6598749000113,up,0.2935943000484258,7,0,0,99,0.08,0.08,up,0.20952620008029044,,,,,,,,,,,,,,,,,,,,,,,,,,,,,,,,,,,,,,,,,,,,,,,,,,,,,,,,,,,,4U1NM1,train_y,blue_star,bottom_left,2025-07-28_17h05.47.222,HideSeek_v1,2022.2.5,59.92886438467879,
,3,3,3,6,0,3,64,,train_dim1_1,17,30,,,,2,0,2,0,,,,,,,,,0,0,0,0,0,16,16,16,3,0,3,0,,,,,,,,,,,,,,,,,,,,,,,,,,,,,,,,,,,,,,,,,,,,,,,,,,,,,,,,,,,,,,,,30,,,,,,,,881.9566997000948,881.9566997000948,881.9566997000948,881.9566997000948,881.9566997000948,return,0.5599432000890374,8,0,0,1,0.08,0.08,return,0.48574869986623526,45,7,0.08,0.08,,,,,,,,,,,,,,,,,,,,,,,,,,,,,,,,,,,,,,,,,,,,,,,,,,,,,,,,4U1NM1,train_y,blue_star,bottom_left,2025-07-28_17h05.47.222,HideSeek_v1,2022.2.5,59.92886438467879,
,2,1,2,1,0,0,61,,train_dim1_1,18,30,,,,2,0,2,0,,,,,,,,,0,0,0,0,0,17,17,17,0,0,0,0,,,,,,,,,,,,,,,,,,,,,,,,,stimuli/alien_stimuli/61.png,,,,,,,,,,,,,,,,,,,,,,,,,,,,,stimuli/alien_stimuli/64.png,64,3,19,,,,,,,30,,,,,,,,886.6038794000633,886.6038794000633,886.6038794000633,886.6038794000633,886.6038794000633,up,2.9696859000250697,8,0,0,99,0,-0.24,up,2.884733699960634,,,,,885.0459382999688,886.6038794000633,0.08,0.08,0.24,0.0,-0.04,0.08,0.08,0.08,0.08,884.0745006001089,884.0745006001089,884.0745006001089,884.0745006001089,884.0745006001089,884.0745006001089,884.0745006001089,884.0745006001089,884.0620115799829,1.0692978999577463,return,0.9421941998880357,,,,,,,,,,,,,,,,,,,,,,,,,,,,,,,,,4U1NM1,train_y,blue_star,bottom_left,2025-07-28_17h05.47.222,HideSeek_v1,2022.2.5,59.92886438467879,
,2,1,2,1,0,0,61,,train_dim1_1,18,30,,,,2,0,2,0,,,,,,,,,0,0,0,0,0,17,17,17,1,0,1,0,,,,,,,,,,,,,,,,,,,,,,,,,,,,,,,,,,,,,,,,,,,,,,,,,,,,,,,,,,,,,,,,30,,,,,,,,889.5892028999515,889.5892028999515,889.5892028999515,889.5892028999515,889.5892028999515,down,2.1945299999788404,8,0,0,99,0,-0.32,down,2.102327900007367,,,,,,,,,,,,,,,,,,,,,,,,,,,,,,,,,,,,,,,,,,,,,,,,,,,,,,,,,,,,4U1NM1,train_y,blue_star,bottom_left,2025-07-28_17h05.47.222,HideSeek_v1,2022.2.5,59.92886438467879,
,2,1,2,1,0,0,61,,train_dim1_1,18,30,,,,2,0,2,0,,,,,,,,,0,0,0,0,0,17,17,17,2,0,2,0,,,,,,,,,,,,,,,,,,,,,,,,,,,,,,,,,,,,,,,,,,,,,,,,,,,,,,,,,,,,,,,,30,,,,,,,,891.7838689999189,891.7838689999189,891.7838689999189,891.7838689999189,891.7838689999189,return,0.6422803001478314,9,0,0,1,0,-0.32,return,0.5678886999376118,45,7,0,-0.32,,,,,,,,,,,,,,,,,,,,,,,,,,,,,,,,,,,,,,,,,,,,,,,,,,,,,,,,4U1NM1,train_y,blue_star,bottom_left,2025-07-28_17h05.47.222,HideSeek_v1,2022.2.5,59.92886438467879,
,0,4,0,5,0,1,62,,train_dim1_1,19,30,,,,2,0,2,0,,,,,,,,,0,0,0,0,0,18,18,18,0,0,0,0,,,,,,,,,,,,,,,,,,,,,,,,,stimuli/alien_stimuli/62.png,,,,,,,,,,,,,,,,,,,,,,,,,,,,,stimuli/alien_stimuli/61.png,61,2,20,,,,,,,30,,,,,,,,896.6110922000371,896.6110922000371,896.6110922000371,896.6110922000371,896.6110922000371,up,4.054820599965751,9,0,0,99,-0.16,0.0,up,3.965643899748102,,,,,895.0542462000158,896.6110922000371,0,-0.32,0.0,0.0,-0.32,0,0.0,0,-0.32,893.9792559000198,893.9792559000198,893.9792559000198,893.9792559000198,893.9792559000198,893.9792559000198,893.9792559000198,893.9792559000198,893.970236379886,1.1697027999907732,return,1.0569452999625355,,,,,,,,,,,,,,,,,,,,,,,,,,,,,,,,,4U1NM1,train_y,blue_star,bottom_left,2025-07-28_17h05.47.222,HideSeek_v1,2022.2.5,59.92886438467879,
,0,4,0,5,0,1,62,,train_dim1_1,19,30,,,,2,0,2,0,,,,,,,,,0,0,0,0,0,18,18,18,1,0,1,0,,,,,,,,,,,,,,,,,,,,,,,,,,,,,,,,,,,,,,,,,,,,,,,,,,,,,,,,,,,,,,,,30,,,,,,,,900.674197500106,900.674197500106,900.674197500106,900.674197500106,900.674197500106,return,1.2595947999507189,10,0,0,1,-0.16,0.0,return,1.1833577000070363,46,7,-0.16,0.0,,,,,,,,,,,,,,,,,,,,,,,,,,,,,,,,,,,,,,,,,,,,,,,,,,,,,,,,4U1NM1,train_y,blue_star,bottom_left,2025-07-28_17h05.47.222,HideSeek_v1,2022.2.5,59.92886438467879,
,2,0,2,5,0,5,66,,train_dim1_1,20,30,,,,2,0,2,0,,,,,,,,,0,0,0,0,0,19,19,19,0,0,0,0,,,,,,,,,,,,,,,,,,,,,,,,,stimuli/alien_stimuli/66.png,,,,,,,,,,,,,,,,,,,,,,,,,,,,,stimuli/alien_stimuli/62.png,62,0,21,,,,,,,30,,,,,,,,905.8195815000217,905.8195815000217,905.8195815000217,905.8195815000217,905.8195815000217,up,0.834507699823007,10,0,0,99,0,-0.32,up,0.760513300076127,,,,,904.2619036000688,905.8195815000217,-0.16,0,0.08,0.0,-0.04,-0.16,-0.16,-0.16,0,903.5043502000626,903.5043502000626,903.5043502000626,903.5043502000626,903.5043502000626,903.5043502000626,903.5043502000626,903.5043502000626,903.494873460033,0.8692387000191957,return,0.726116499863565,,,,,,,,,,,,,,,,,,,,,,,,,,,,,,,,,4U1NM1,train_y,blue_star,bottom_left,2025-07-28_17h05.47.222,HideSeek_v1,2022.2.5,59.92886438467879,
,2,0,2,5,0,5,66,,train_dim1_1,20,30,,,,2,0,2,0,,,,,,,,,0,0,0,0,0,19,19,19,1,0,1,0,,,,,,,,,,,,,,,,,,,,,,,,,,,,,,,,,,,,,,,,,,,,,,,,,,,,,,,,,,,,,,,,30,,,,,,,,906.6601700999308,906.6601700999308,906.6601700999308,906.6601700999308,906.6601700999308,up,0.2930125999264419,10,0,0,99,0,-0.24,up,0.220822999952361,,,,,,,,,,,,,,,,,,,,,,,,,,,,,,,,,,,,,,,,,,,,,,,,,,,,,,,,,,,,4U1NM1,train_y,blue_star,bottom_left,2025-07-28_17h05.47.222,HideSeek_v1,2022.2.5,59.92886438467879,
,2,0,2,5,0,5,66,,train_dim1_1,20,30,,,,2,0,2,0,,,,,,,,,0,0,0,0,0,19,19,19,2,0,2,0,,,,,,,,,,,,,,,,,,,,,,,,,,,,,,,,,,,,,,,,,,,,,,,,,,,,,,,,,,,,,,,,30,,,,,,,,906.9624791999813,906.9624791999813,906.9624791999813,906.9624791999813,906.9624791999813,up,0.4265997000038624,10,0,0,99,0,-0.15999999999999998,up,0.3479958998505026,,,,,,,,,,,,,,,,,,,,,,,,,,,,,,,,,,,,,,,,,,,,,,,,,,,,,,,,,,,,4U1NM1,train_y,blue_star,bottom_left,2025-07-28_17h05.47.222,HideSeek_v1,2022.2.5,59.92886438467879,
,2,0,2,5,0,5,66,,train_dim1_1,20,30,,,,2,0,2,0,,,,,,,,,0,0,0,0,0,19,19,19,3,0,3,0,,,,,,,,,,,,,,,,,,,,,,,,,,,,,,,,,,,,,,,,,,,,,,,,,,,,,,,,,,,,,,,,30,,,,,,,,907.3996441001073,907.3996441001073,907.3996441001073,907.3996441001073,907.3996441001073,up,0.39312170003540814,10,0,0,99,0,-0.07999999999999997,up,0.31459770002402365,,,,,,,,,,,,,,,,,,,,,,,,,,,,,,,,,,,,,,,,,,,,,,,,,,,,,,,,,,,,4U1NM1,train_y,blue_star,bottom_left,2025-07-28_17h05.47.222,HideSeek_v1,2022.2.5,59.92886438467879,
,2,0,2,5,0,5,66,,train_dim1_1,20,30,,,,2,0,2,0,,,,,,,,,0,0,0,0,0,19,19,19,4,0,4,0,,,,,,,,,,,,,,,,,,,,,,,,,,,,,,,,,,,,,,,,,,,,,,,,,,,,,,,,,,,,,,,,30,,,,,,,,907.7958903999534,907.7958903999534,907.7958903999534,907.7958903999534,907.7958903999534,up,0.40978560014627874,10,0,0,99,0,2.7755575615628914e-17,up,0.32341499999165535,,,,,,,,,,,,,,,,,,,,,,,,,,,,,,,,,,,,,,,,,,,,,,,,,,,,,,,,,,,,4U1NM1,train_y,blue_star,bottom_left,2025-07-28_17h05.47.222,HideSeek_v1,2022.2.5,59.92886438467879,
,2,0,2,5,0,5,66,,train_dim1_1,20,30,,,,2,0,2,0,,,,,,,,,0,0,0,0,0,19,19,19,5,0,5,0,,,,,,,,,,,,,,,,,,,,,,,,,,,,,,,,,,,,,,,,,,,,,,,,,,,,,,,,,,,,,,,,30,,,,,,,,908.2121832999401,908.2121832999401,908.2121832999401,908.2121832999401,908.2121832999401,return,0.44335320009849966,11,0,0,1,0,2.7755575615628914e-17,return,0.35539099969901145,51,7,0,2.7755575615628914e-17,,,,,,,,,,,,,,,,,,,,,,,,,,,,,,,,,,,,,,,,,,,,,,,,,,,,,,,,4U1NM1,train_y,blue_star,bottom_left,2025-07-28_17h05.47.222,HideSeek_v1,2022.2.5,59.92886438467879,
,2,4,2,8,0,4,65,,train_dim1_1,21,30,,,,2,0,2,0,,,,,,,,,0,0,0,0,0,20,20,20,0,0,0,0,,,,,,,,,,,,,,,,,,,,,,,,,stimuli/alien_stimuli/65.png,,,,,,,,,,,,,,,,,,,,,,,,,,,,,stimuli/alien_stimuli/66.png,66,2,22,,,,,,,30,,,,,,,,913.0066094000358,913.0066094000358,913.0066094000358,913.0066094000358,913.0066094000358,up,1.2870448001194745,11,0,0,99,0,0.0,up,1.2084705999586731,,,,,911.4509896000382,913.0066094000358,0,0,0.4,0.0,-0.2,0,0.0,0,0,910.208296299912,910.208296299912,910.208296299912,910.208296299912,910.208296299912,910.208296299912,910.208296299912,910.208296299912,910.2003568799701,1.336644300026819,return,1.2232222000602633,,,,,,,,,,,,,,,,,,,,,,,,,,,,,,,,,4U1NM1,train_y,blue_star,bottom_left,2025-07-28_17h05.47.222,HideSeek_v1,2022.2.5,59.92886438467879,
,2,4,2,8,0,4,65,,train_dim1_1,21,30,,,,2,0,2,0,,,,,,,,,0,0,0,0,0,20,20,20,1,0,1,0,,,,,,,,,,,,,,,,,,,,,,,,,,,,,,,,,,,,,,,,,,,,,,,,,,,,,,,,,,,,,,,,30,,,,,,,,914.3012590999715,914.3012590999715,914.3012590999715,914.3012590999715,914.3012590999715,up,0.30941520002670586,11,0,0,99,0,0.08,up,0.22074929997324944,,,,,,,,,,,,,,,,,,,,,,,,,,,,,,,,,,,,,,,,,,,,,,,,,,,,,,,,,,,,4U1NM1,train_y,blue_star,bottom_left,2025-07-28_17h05.47.222,HideSeek_v1,2022.2.5,59.92886438467879,
,2,4,2,8,0,4,65,,train_dim1_1,21,30,,,,2,0,2,0,,,,,,,,,0,0,0,0,0,20,20,20,2,0,2,0,,,,,,,,,,,,,,,,,,,,,,,,,,,,,,,,,,,,,,,,,,,,,,,,,,,,,,,,,,,,,,,,30,,,,,,,,914.6177944999654,914.6177944999654,914.6177944999654,914.6177944999654,914.6177944999654,up,0.34372249990701675,11,0,0,99,0,0.16,up,0.2633212998043746,,,,,,,,,,,,,,,,,,,,,,,,,,,,,,,,,,,,,,,,,,,,,,,,,,,,,,,,,,,,4U1NM1,train_y,blue_star,bottom_left,2025-07-28_17h05.47.222,HideSeek_v1,2022.2.5,59.92886438467879,
,2,4,2,8,0,4,65,,train_dim1_1,21,30,,,,2,0,2,0,,,,,,,,,0,0,0,0,0,20,20,20,3,0,3,0,,,,,,,,,,,,,,,,,,,,,,,,,,,,,,,,,,,,,,,,,,,,,,,,,,,,,,,,,,,,,,,,30,,,,,,,,914.9679986999836,914.9679986999836,914.9679986999836,914.9679986999836,914.9679986999836,up,0.4098318999167532,11,0,0,99,0,0.24,up,0.3302178999874741,,,,,,,,,,,,,,,,,,,,,,,,,,,,,,,,,,,,,,,,,,,,,,,,,,,,,,,,,,,,4U1NM1,train_y,blue_star,bottom_left,2025-07-28_17h05.47.222,HideSeek_v1,2022.2.5,59.92886438467879,
,2,4,2,8,0,4,65,,train_dim1_1,21,30,,,,2,0,2,0,,,,,,,,,0,0,0,0,0,20,20,20,4,0,4,0,,,,,,,,,,,,,,,,,,,,,,,,,,,,,,,,,,,,,,,,,,,,,,,,,,,,,,,,,,,,,,,,30,,,,,,,,915.3845645000692,915.3845645000692,915.3845645000692,915.3845645000692,915.3845645000692,return,0.6437554000876844,12,0,0,1,0,0.24,return,0.563587199896574,55,7,0,0.24,,,,,,,,,,,,,,,,,,,,,,,,,,,,,,,,,,,,,,,,,,,,,,,,,,,,,,,,4U1NM1,train_y,blue_star,bottom_left,2025-07-28_17h05.47.222,HideSeek_v1,2022.2.5,59.92886438467879,
,0,2,0,5,0,3,64,,train_dim1_1,22,30,,,,2,0,2,0,,,,,,,,,0,0,0,0,0,21,21,21,0,0,0,0,,,,,,,,,,,,,,,,,,,,,,,,,stimuli/alien_stimuli/64.png,,,,,,,,,,,,,,,,,,,,,,,,,,,,,stimuli/alien_stimuli/65.png,65,2,23,,,,,,,30,,,,,,,,920.0120075999293,920.0120075999293,920.0120075999293,920.0120075999293,920.0120075999293,up,0.8698309001047164,12,0,0,99,-0.16,-0.15999999999999998,up,0.7877932998817414,,,,,918.4568692001048,920.0120075999293,0,0.24,0.32,0.0,0.07999999999999999,0,0.0,0,0.24,917.5843505999073,917.5843505999073,917.5843505999073,917.5843505999073,917.5843505999073,917.5843505999073,917.5843505999073,917.5843505999073,917.5732039799914,0.9695260999724269,return,0.8447807000484318,,,,,,,,,,,,,,,,,,,,,,,,,,,,,,,,,4U1NM1,train_y,blue_star,bottom_left,2025-07-28_17h05.47.222,HideSeek_v1,2022.2.5,59.92886438467879,
,0,2,0,5,0,3,64,,train_dim1_1,22,30,,,,2,0,2,0,,,,,,,,,0,0,0,0,0,21,21,21,1,0,1,0,,,,,,,,,,,,,,,,,,,,,,,,,,,,,,,,,,,,,,,,,,,,,,,,,,,,,,,,,,,,,,,,30,,,,,,,,920.8896011998877,920.8896011998877,920.8896011998877,920.8896011998877,920.8896011998877,up,0.35943259997293353,12,0,0,99,-0.16,-0.07999999999999997,up,0.2734470998402685,,,,,,,,,,,,,,,,,,,,,,,,,,,,,,,,,,,,,,,,,,,,,,,,,,,,,,,,,,,,4U1NM1,train_y,blue_star,bottom_left,2025-07-28_17h05.47.222,HideSeek_v1,2022.2.5,59.92886438467879,
,0,2,0,5,0,3,64,,train_dim1_1,22,30,,,,2,0,2,0,,,,,,,,,0,0,0,0,0,21,21,21,2,0,2,0,,,,,,,,,,,,,,,,,,,,,,,,,,,,,,,,,,,,,,,,,,,,,,,,,,,,,,,,,,,,,,,,30,,,,,,,,921.2628077000845,921.2628077000845,921.2628077000845,921.2628077000845,921.2628077000845,up,0.3268307000398636,12,0,0,99,-0.16,2.7755575615628914e-17,up,0.23945009987801313,,,,,,,,,,,,,,,,,,,,,,,,,,,,,,,,,,,,,,,,,,,,,,,,,,,,,,,,,,,,4U1NM1,train_y,blue_star,bottom_left,2025-07-28_17h05.47.222,HideSeek_v1,2022.2.5,59.92886438467879,
,0,2,0,5,0,3,64,,train_dim1_1,22,30,,,,2,0,2,0,,,,,,,,,0,0,0,0,0,21,21,21,3,0,3,0,,,,,,,,,,,,,,,,,,,,,,,,,,,,,,,,,,,,,,,,,,,,,,,,,,,,,,,,,,,,,,,,30,,,,,,,,921.5894474999513,921.5894474999513,921.5894474999513,921.5894474999513,921.5894474999513,return,0.3766503999941051,13,0,0,1,-0.16,2.7755575615628914e-17,return,0.30202899989672005,58,7,-0.16,2.7755575615628914e-17,,,,,,,,,,,,,,,,,,,,,,,,,,,,,,,,,,,,,,,,,,,,,,,,,,,,,,,,4U1NM1,train_y,blue_star,bottom_left,2025-07-28_17h05.47.222,HideSeek_v1,2022.2.5,59.92886438467879,
,0,3,0,3,0,0,61,,train_dim1_1,23,30,,,,2,0,2,0,,,,,,,,,0,0,0,0,0,22,22,22,0,0,0,0,,,,,,,,,,,,,,,,,,,,,,,,,stimuli/alien_stimuli/61.png,,,,,,,,,,,,,,,,,,,,,,,,,,,,,stimuli/alien_stimuli/64.png,64,0,24,,,,,,,30,,,,,,,,925.9821538000833,925.9821538000833,925.9821538000833,925.9821538000833,925.9821538000833,return,3.208975200075656,14,0,0,1,-0.16,-0.16,return,3.118549699895084,58,7,-0.16,-0.16,924.4286203000229,925.9821538000833,-0.16,0,0.24,0.0,-0.12,-0.16,-0.16,-0.16,0,923.5216530000325,923.5216530000325,923.5216530000325,923.5216530000325,923.5216530000325,923.5216530000325,923.5216530000325,923.5216530000325,923.5113947798964,1.0031693000346422,return,0.8895080999936908,,,,,,,,,,,,,,,,,,,,,,,,,,,,,,,,,4U1NM1,train_y,blue_star,bottom_left,2025-07-28_17h05.47.222,HideSeek_v1,2022.2.5,59.92886438467879,
,3,2,3,7,0,5,66,,train_dim1_1,24,30,,,,2,0,2,0,,,,,,,,,0,0,0,0,0,23,23,23,0,0,0,0,,,,,,,,,,,,,,,,,,,,,,,,,stimuli/alien_stimuli/66.png,,,,,,,,,,,,,,,,,,,,,,,,,,,,,stimuli/alien_stimuli/61.png,61,0,25,,,,,,,30,,,,,,,,933.2584140000399,933.2584140000399,933.2584140000399,933.2584140000399,933.2584140000399,up,0.8523757001385093,14,0,0,99,0.08,-0.15999999999999998,up,0.7701774998567998,,,,,931.7012199000455,933.2584140000399,-0.16,-0.16,0.0,0.0,-0.16,-0.16,-0.16,-0.16,-0.16,930.7650534999557,930.7650534999557,930.7650534999557,930.7650534999557,930.7650534999557,930.7650534999557,930.7650534999557,930.7650534999557,930.751058859867,1.0527990001719445,return,0.906850699800998,,,,,,,,,,,,,,,,,,,,,,,,,,,,,,,,,4U1NM1,train_y,blue_star,bottom_left,2025-07-28_17h05.47.222,HideSeek_v1,2022.2.5,59.92886438467879,
,3,2,3,7,0,5,66,,train_dim1_1,24,30,,,,2,0,2,0,,,,,,,,,0,0,0,0,0,23,23,23,1,0,1,0,,,,,,,,,,,,,,,,,,,,,,,,,,,,,,,,,,,,,,,,,,,,,,,,,,,,,,,,,,,,,,,,30,,,,,,,,934.1188697000034,934.1188697000034,934.1188697000034,934.1188697000034,934.1188697000034,up,0.27562809991650283,14,0,0,99,0.08,-0.07999999999999997,up,0.1919541999232024,,,,,,,,,,,,,,,,,,,,,,,,,,,,,,,,,,,,,,,,,,,,,,,,,,,,,,,,,,,,4U1NM1,train_y,blue_star,bottom_left,2025-07-28_17h05.47.222,HideSeek_v1,2022.2.5,59.92886438467879,
,3,2,3,7,0,5,66,,train_dim1_1,24,30,,,,2,0,2,0,,,,,,,,,0,0,0,0,0,23,23,23,2,0,2,0,,,,,,,,,,,,,,,,,,,,,,,,,,,,,,,,,,,,,,,,,,,,,,,,,,,,,,,,,,,,,,,,30,,,,,,,,934.4025902999565,934.4025902999565,934.4025902999565,934.4025902999565,934.4025902999565,up,0.2765026001725346,14,0,0,99,0.08,2.7755575615628914e-17,up,0.18940129992552102,,,,,,,,,,,,,,,,,,,,,,,,,,,,,,,,,,,,,,,,,,,,,,,,,,,,,,,,,,,,4U1NM1,train_y,blue_star,bottom_left,2025-07-28_17h05.47.222,HideSeek_v1,2022.2.5,59.92886438467879,
,3,2,3,7,0,5,66,,train_dim1_1,24,30,,,,2,0,2,0,,,,,,,,,0,0,0,0,0,23,23,23,3,0,3,0,,,,,,,,,,,,,,,,,,,,,,,,,,,,,,,,,,,,,,,,,,,,,,,,,,,,,,,,,,,,,,,,30,,,,,,,,934.6847033000086,934.6847033000086,934.6847033000086,934.6847033000086,934.6847033000086,up,0.2768196000251919,14,0,0,99,0.08,0.08000000000000003,up,0.20007509971037507,,,,,,,,,,,,,,,,,,,,,,,,,,,,,,,,,,,,,,,,,,,,,,,,,,,,,,,,,,,,4U1NM1,train_y,blue_star,bottom_left,2025-07-28_17h05.47.222,HideSeek_v1,2022.2.5,59.92886438467879,
,3,2,3,7,0,5,66,,train_dim1_1,24,30,,,,2,0,2,0,,,,,,,,,0,0,0,0,0,23,23,23,4,0,4,0,,,,,,,,,,,,,,,,,,,,,,,,,,,,,,,,,,,,,,,,,,,,,,,,,,,,,,,,,,,,,,,,30,,,,,,,,934.96839919989,934.96839919989,934.96839919989,934.96839919989,934.96839919989,return,0.3934379001148045,14,1,0,0,0.08,0.08000000000000003,return,0.30887750000692904,62,7,0.08,0.08000000000000003,,,,,,,,,,,,,,,,,,,,,,,,,,,,,,,,,,,,,,,,,,,,,,,,,,,,,,,,4U1NM1,train_y,blue_star,bottom_left,2025-07-28_17h05.47.222,HideSeek_v1,2022.2.5,59.92886438467879,
,3,3,3,4,0,1,62,,train_dim1_1,25,30,,,,2,0,2,0,,,,,,,,,0,0,0,0,0,24,24,24,0,0,0,0,,,,,,,,,,,,,,,,,,,,,,,,,stimuli/alien_stimuli/62.png,,,,,,,,,,,,,,,,,,,,,,,,,,,,,stimuli/alien_stimuli/66.png,66,3,26,,,,,,,30,,,,,,,,940.3587491000071,940.3587491000071,940.3587491000071,940.3587491000071,940.3587491000071,up,4.956033500144258,14,1,0,99,0.08,-0.08,up,4.865263900021091,,,,,938.7907006000169,940.3587491000071,0.08,0.16,0.4,0.0,-0.039999999999999994,0.08,0.08,0.08,0.16,936.916899099946,936.916899099946,936.916899099946,936.916899099946,936.916899099946,936.916899099946,936.916899099946,936.916899099946,936.9059929798823,1.9700180999934673,return,1.84134990000166,,,,,,,,,,,,,,,,,,,,,,,,,,,,,,,,,4U1NM1,train_y,blue_star,bottom_left,2025-07-28_17h05.47.222,HideSeek_v1,2022.2.5,59.92886438467879,
,3,3,3,4,0,1,62,,train_dim1_1,25,30,,,,2,0,2,0,,,,,,,,,0,0,0,0,0,24,24,24,1,0,1,0,,,,,,,,,,,,,,,,,,,,,,,,,,,,,,,,,,,,,,,,,,,,,,,,,,,,,,,,,,,,,,,,30,,,,,,,,945.3104584000539,945.3104584000539,945.3104584000539,945.3104584000539,945.3104584000539,return,0.4430968000087887,15,0,0,1,0.08,-0.08,return,0.36474249977618456,63,7,0.08,-0.08,,,,,,,,,,,,,,,,,,,,,,,,,,,,,,,,,,,,,,,,,,,,,,,,,,,,,,,,4U1NM1,train_y,blue_star,bottom_left,2025-07-28_17h05.47.222,HideSeek_v1,2022.2.5,59.92886438467879,
,4,4,4,7,0,3,64,,train_dim1_1,26,30,,,,2,0,2,0,,,,,,,,,0,0,0,0,0,25,25,25,0,0,0,0,,,,,,,,,,,,,,,,,,,,,,,,,stimuli/alien_stimuli/64.png,,,,,,,,,,,,,,,,,,,,,,,,,,,,,stimuli/alien_stimuli/62.png,62,3,27,,,,,,,30,,,,,,,,949.7385082999244,949.7385082999244,949.7385082999244,949.7385082999244,949.7385082999244,up,0.9016513000242412,15,0,0,99,0.16,0.0,up,0.8253597998991609,,,,,948.1817044001073,949.7385082999244,0.08,-0.08,0.08,0.0,-0.12,0.08,0.08,0.08,-0.08,947.326836500084,947.326836500084,947.326836500084,947.326836500084,947.326836500084,947.326836500084,947.326836500084,947.326836500084,947.3147089598933,0.9693985998164862,return,0.8333021998405457,,,,,,,,,,,,,,,,,,,,,,,,,,,,,,,,,4U1NM1,train_y,blue_star,bottom_left,2025-07-28_17h05.47.222,HideSeek_v1,2022.2.5,59.92886438467879,
,4,4,4,7,0,3,64,,train_dim1_1,26,30,,,,2,0,2,0,,,,,,,,,0,0,0,0,0,25,25,25,1,0,1,0,,,,,,,,,,,,,,,,,,,,,,,,,,,,,,,,,,,,,,,,,,,,,,,,,,,,,,,,,,,,,,,,30,,,,,,,,950.649841299979,950.649841299979,950.649841299979,950.649841299979,950.649841299979,up,0.24319580011069775,15,0,0,99,0.16,0.08,up,0.1623403998091817,,,,,,,,,,,,,,,,,,,,,,,,,,,,,,,,,,,,,,,,,,,,,,,,,,,,,,,,,,,,4U1NM1,train_y,blue_star,bottom_left,2025-07-28_17h05.47.222,HideSeek_v1,2022.2.5,59.92886438467879,
,4,4,4,7,0,3,64,,train_dim1_1,26,30,,,,2,0,2,0,,,,,,,,,0,0,0,0,0,25,25,25,2,0,2,0,,,,,,,,,,,,,,,,,,,,,,,,,,,,,,,,,,,,,,,,,,,,,,,,,,,,,,,,,,,,,,,,30,,,,,,,,950.8974983000662,950.8974983000662,950.8974983000662,950.8974983000662,950.8974983000662,up,0.27624529995955527,15,0,0,99,0.16,0.16,up,0.1992863998748362,,,,,,,,,,,,,,,,,,,,,,,,,,,,,,,,,,,,,,,,,,,,,,,,,,,,,,,,,,,,4U1NM1,train_y,blue_star,bottom_left,2025-07-28_17h05.47.222,HideSeek_v1,2022.2.5,59.92886438467879,
,4,4,4,7,0,3,64,,train_dim1_1,26,30,,,,2,0,2,0,,,,,,,,,0,0,0,0,0,25,25,25,3,0,3,0,,,,,,,,,,,,,,,,,,,,,,,,,,,,,,,,,,,,,,,,,,,,,,,,,,,,,,,,,,,,,,,,30,,,,,,,,951.1803872000892,951.1803872000892,951.1803872000892,951.1803872000892,951.1803872000892,return,0.6436439999379218,16,0,0,1,0.16,0.16,return,0.5617789998650551,66,7,0.16,0.16,,,,,,,,,,,,,,,,,,,,,,,,,,,,,,,,,,,,,,,,,,,,,,,,,,,,,,,,4U1NM1,train_y,blue_star,bottom_left,2025-07-28_17h05.47.222,HideSeek_v1,2022.2.5,59.92886438467879,
,3,4,3,9,0,5,66,,train_dim1_1,27,30,,,,2,0,2,0,,,,,,,,,0,0,0,0,0,26,26,26,0,0,0,0,,,,,,,,,,,,,,,,,,,,,,,,,stimuli/alien_stimuli/66.png,,,,,,,,,,,,,,,,,,,,,,,,,,,,,stimuli/alien_stimuli/64.png,64,4,28,,,,,,,30,,,,,,,,957.8593150998931,957.8593150998931,957.8593150998931,957.8593150998931,957.8593150998931,up,0.6876487000845373,16,0,0,99,0.08,0.0,up,0.6013810997828841,,,,,956.3053294999991,957.8593150998931,0.16,0.16,0.24,0.0,0.04,0.16,0.16,0.16,0.16,953.3767031000461,953.3767031000461,953.3767031000461,953.3767031000461,953.3767031000461,953.3767031000461,953.3767031000461,953.3767031000461,953.3696412800346,3.0218194001354277,return,2.8983298998791724,,,,,,,,,,,,,,,,,,,,,,,,,,,,,,,,,4U1NM1,train_y,blue_star,bottom_left,2025-07-28_17h05.47.222,HideSeek_v1,2022.2.5,59.92886438467879,
,3,4,3,9,0,5,66,,train_dim1_1,27,30,,,,2,0,2,0,,,,,,,,,0,0,0,0,0,26,26,26,1,0,1,0,,,,,,,,,,,,,,,,,,,,,,,,,,,,,,,,,,,,,,,,,,,,,,,,,,,,,,,,,,,,,,,,30,,,,,,,,958.555734399939,958.555734399939,958.555734399939,958.555734399939,958.555734399939,up,0.27575900009833276,16,0,0,99,0.08,0.08,up,0.1957735000178218,,,,,,,,,,,,,,,,,,,,,,,,,,,,,,,,,,,,,,,,,,,,,,,,,,,,,,,,,,,,4U1NM1,train_y,blue_star,bottom_left,2025-07-28_17h05.47.222,HideSeek_v1,2022.2.5,59.92886438467879,
,3,4,3,9,0,5,66,,train_dim1_1,27,30,,,,2,0,2,0,,,,,,,,,0,0,0,0,0,26,26,26,2,0,2,0,,,,,,,,,,,,,,,,,,,,,,,,,,,,,,,,,,,,,,,,,,,,,,,,,,,,,,,,,,,,,,,,30,,,,,,,,958.8385123999324,958.8385123999324,958.8385123999324,958.8385123999324,958.8385123999324,up,0.3266514001879841,16,0,0,99,0.08,0.16,up,0.245797700015828,,,,,,,,,,,,,,,,,,,,,,,,,,,,,,,,,,,,,,,,,,,,,,,,,,,,,,,,,,,,4U1NM1,train_y,blue_star,bottom_left,2025-07-28_17h05.47.222,HideSeek_v1,2022.2.5,59.92886438467879,
,3,4,3,9,0,5,66,,train_dim1_1,27,30,,,,2,0,2,0,,,,,,,,,0,0,0,0,0,26,26,26,3,0,3,0,,,,,,,,,,,,,,,,,,,,,,,,,,,,,,,,,,,,,,,,,,,,,,,,,,,,,,,,,,,,,,,,30,,,,,,,,959.1720553000923,959.1720553000923,959.1720553000923,959.1720553000923,959.1720553000923,up,0.3432680999394506,16,0,0,99,0.08,0.24,up,0.2673142999410629,,,,,,,,,,,,,,,,,,,,,,,,,,,,,,,,,,,,,,,,,,,,,,,,,,,,,,,,,,,,4U1NM1,train_y,blue_star,bottom_left,2025-07-28_17h05.47.222,HideSeek_v1,2022.2.5,59.92886438467879,
,3,4,3,9,0,5,66,,train_dim1_1,27,30,,,,2,0,2,0,,,,,,,,,0,0,0,0,0,26,26,26,4,0,4,0,,,,,,,,,,,,,,,,,,,,,,,,,,,,,,,,,,,,,,,,,,,,,,,,,,,,,,,,,,,,,,,,30,,,,,,,,959.5234107999131,959.5234107999131,959.5234107999131,959.5234107999131,959.5234107999131,up,0.4269310999661684,16,0,0,99,0.08,0.32,up,0.3417956999037415,,,,,,,,,,,,,,,,,,,,,,,,,,,,,,,,,,,,,,,,,,,,,,,,,,,,,,,,,,,,4U1NM1,train_y,blue_star,bottom_left,2025-07-28_17h05.47.222,HideSeek_v1,2022.2.5,59.92886438467879,
,3,4,3,9,0,5,66,,train_dim1_1,27,30,,,,2,0,2,0,,,,,,,,,0,0,0,0,0,26,26,26,5,0,5,0,,,,,,,,,,,,,,,,,,,,,,,,,,,,,,,,,,,,,,,,,,,,,,,,,,,,,,,,,,,,,,,,30,,,,,,,,959.9570379999932,959.9570379999932,959.9570379999932,959.9570379999932,959.9570379999932,return,0.40851420001126826,17,0,0,1,0.08,0.32,return,0.32506949990056455,71,7,0.08,0.32,,,,,,,,,,,,,,,,,,,,,,,,,,,,,,,,,,,,,,,,,,,,,,,,,,,,,,,,4U1NM1,train_y,blue_star,bottom_left,2025-07-28_17h05.47.222,HideSeek_v1,2022.2.5,59.92886438467879,
,4,1,4,1,0,0,61,,train_dim1_1,28,30,,,,2,0,2,0,,,,,,,,,0,0,0,0,0,27,27,27,0,0,0,0,,,,,,,,,,,,,,,,,,,,,,,,,stimuli/alien_stimuli/61.png,,,,,,,,,,,,,,,,,,,,,,,,,,,,,stimuli/alien_stimuli/66.png,66,3,29,,,,,,,30,,,,,,,,965.9201191000175,965.9201191000175,965.9201191000175,965.9201191000175,965.9201191000175,return,3.9535743000451475,18,0,0,1,0.16,-0.32,return,3.878636899869889,71,7,0.16,-0.32,964.3620871999301,965.9201191000175,0.08,0.32,0.4,0.0,0.12,0.08,0.08,0.08,0.32,961.9256269000471,961.9256269000471,961.9256269000471,961.9256269000471,961.9256269000471,961.9256269000471,961.9256269000471,961.9256269000471,961.9270159598673,2.5369315000716597,return,2.404086999827996,,,,,,,,,,,,,,,,,,,,,,,,,,,,,,,,,4U1NM1,train_y,blue_star,bottom_left,2025-07-28_17h05.47.222,HideSeek_v1,2022.2.5,59.92886438467879,
,2,2,2,3,0,1,62,,train_dim1_1,29,30,,,,2,0,2,0,,,,,,,,,0,0,0,0,0,28,28,28,0,0,0,0,,,,,,,,,,,,,,,,,,,,,,,,,stimuli/alien_stimuli/62.png,,,,,,,,,,,,,,,,,,,,,,,,,,,,,stimuli/alien_stimuli/61.png,61,4,30,,,,,,,30,,,,,,,,973.8897788000759,973.8897788000759,973.8897788000759,973.8897788000759,973.8897788000759,up,1.9029471999965608,18,0,0,99,0,-0.15999999999999998,up,1.8007091998588294,,,,,972.3184072999284,973.8897788000759,0.16,-0.32,0.0,0.0,-0.32,0.16,0.16,0.16,-0.32,971.4287853999995,971.4287853999995,971.4287853999995,971.4287853999995,971.4287853999995,971.4287853999995,971.4287853999995,971.4287853999995,971.4180141799152,0.9861177001148462,return,0.8584690000861883,,,,,,,,,,,,,,,,,,,,,,,,,,,,,,,,,4U1NM1,train_y,blue_star,bottom_left,2025-07-28_17h05.47.222,HideSeek_v1,2022.2.5,59.92886438467879,
,2,2,2,3,0,1,62,,train_dim1_1,29,30,,,,2,0,2,0,,,,,,,,,0,0,0,0,0,28,28,28,1,0,1,0,,,,,,,,,,,,,,,,,,,,,,,,,,,,,,,,,,,,,,,,,,,,,,,,,,,,,,,,,,,,,,,,30,,,,,,,,975.7848547000904,975.7848547000904,975.7848547000904,975.7848547000904,975.7848547000904,return,0.3262957001570612,19,0,0,1,0,-0.15999999999999998,return,0.24339149985462427,72,7,0,-0.15999999999999998,,,,,,,,,,,,,,,,,,,,,,,,,,,,,,,,,,,,,,,,,,,,,,,,,,,,,,,,4U1NM1,train_y,blue_star,bottom_left,2025-07-28_17h05.47.222,HideSeek_v1,2022.2.5,59.92886438467879,
,0,1,0,5,0,4,65,,train_dim1_1,30,30,,,,2,0,2,0,,,,,,,,,0,0,0,0,0,29,29,29,0,0,0,0,,,,,,,,,,,,,,,,,,,,,,,,,stimuli/alien_stimuli/65.png,,,,,,,,,,,,,,,,,,,,,,,,,,,,,stimuli/alien_stimuli/62.png,62,2,31,,,,,,,30,,,,,,,,980.2635659999214,980.2635659999214,980.2635659999214,980.2635659999214,980.2635659999214,up,1.6528811000753194,19,0,0,99,-0.16,-0.24,up,1.575613700086251,,,,,978.7073454998899,980.2635659999214,0,-0.16,0.08,0.0,-0.2,0,0.0,0,-0.16,977.6652234999929,977.6652234999929,977.6652234999929,977.6652234999929,977.6652234999929,977.6652234999929,977.6652234999929,977.6652234999929,977.6564263799228,1.136402599979192,return,1.011625099927187,,,,,,,,,,,,,,,,,,,,,,,,,,,,,,,,,4U1NM1,train_y,blue_star,bottom_left,2025-07-28_17h05.47.222,HideSeek_v1,2022.2.5,59.92886438467879,
,0,1,0,5,0,4,65,,train_dim1_1,30,30,,,,2,0,2,0,,,,,,,,,0,0,0,0,0,29,29,29,1,0,1,0,,,,,,,,,,,,,,,,,,,,,,,,,,,,,,,,,,,,,,,,,,,,,,,,,,,,,,,,,,,,,,,,30,,,,,,,,981.9246157000307,981.9246157000307,981.9246157000307,981.9246157000307,981.9246157000307,up,0.3591688999440521,19,0,0,99,-0.16,-0.15999999999999998,up,0.27593409991823137,,,,,,,,,,,,,,,,,,,,,,,,,,,,,,,,,,,,,,,,,,,,,,,,,,,,,,,,,,,,4U1NM1,train_y,blue_star,bottom_left,2025-07-28_17h05.47.222,HideSeek_v1,2022.2.5,59.92886438467879,
,0,1,0,5,0,4,65,,train_dim1_1,30,30,,,,2,0,2,0,,,,,,,,,0,0,0,0,0,29,29,29,2,0,2,0,,,,,,,,,,,,,,,,,,,,,,,,,,,,,,,,,,,,,,,,,,,,,,,,,,,,,,,,,,,,,,,,30,,,,,,,,982.2895921999589,982.2895921999589,982.2895921999589,982.2895921999589,982.2895921999589,up,0.39330430002883077,19,0,0,99,-0.16,-0.07999999999999997,up,0.30750689981505275,,,,,,,,,,,,,,,,,,,,,,,,,,,,,,,,,,,,,,,,,,,,,,,,,,,,,,,,,,,,4U1NM1,train_y,blue_star,bottom_left,2025-07-28_17h05.47.222,HideSeek_v1,2022.2.5,59.92886438467879,
,0,1,0,5,0,4,65,,train_dim1_1,30,30,,,,2,0,2,0,,,,,,,,,0,0,0,0,0,29,29,29,3,0,3,0,,,,,,,,,,,,,,,,,,,,,,,,,,,,,,,,,,,,,,,,,,,,,,,,,,,,,,,,,,,,,,,,30,,,,,,,,982.6902950000949,982.6902950000949,982.6902950000949,982.6902950000949,982.6902950000949,up,0.4434982999227941,19,0,0,99,-0.16,2.7755575615628914e-17,up,0.3700756998732686,,,,,,,,,,,,,,,,,,,,,,,,,,,,,,,,,,,,,,,,,,,,,,,,,,,,,,,,,,,,4U1NM1,train_y,blue_star,bottom_left,2025-07-28_17h05.47.222,HideSeek_v1,2022.2.5,59.92886438467879,
,0,1,0,5,0,4,65,,train_dim1_1,30,30,,,,2,0,2,0,,,,,,,,,0,0,0,0,0,29,29,29,4,0,4,0,,,,,,,,,,,,,,,,,,,,,,,,,,,,,,,,,,,,,,,,,,,,,,,,,,,,,,,,,,,,,,,,30,,,,,,,,983.1400673000608,983.1400673000608,983.1400673000608,983.1400673000608,983.1400673000608,return,0.41016420000232756,20,0,0,1,-0.16,2.7755575615628914e-17,return,0.33768029999919236,76,7,-0.16,2.7755575615628914e-17,,,,,,,,,,,,,,,,,,,,,,,,,,,,,,,,,,,,,,,,,,,,,,,,,,,,,,,,4U1NM1,train_y,blue_star,bottom_left,2025-07-28_17h05.47.222,HideSeek_v1,2022.2.5,59.92886438467879,
,,,,,,,,,,,30,,,,2,0,2,0,,,,,,,,,,,,,,,,,,,,,,,,,,,,,,,,,,,,,,,,,,,,,,,,,,,,,,,,,,,,,,,,,,,,,,,,,,stimuli/alien_stimuli/65.png,65,0,32,21,0.7,0.8333333333333335,1,1,1,30,0,conditions/schedules/train_y_first/blue_star_00/bottom_left/inputTrain_2.1.xlsx,99,1,2,1,0,,,,,,,,,,,1,,,,,,,,,985.7963531999849,987.3641886999831,-0.16,0,0.32,0.0,-0.16,-0.16,-0.16,-0.16,0,985.1069249000866,985.1069249000866,985.1069249000866,985.1069249000866,985.1069249000866,985.1069249000866,985.1069249000866,985.1069249000866,985.0961099800188,0.7860517001245171,return,0.6638191000092775,0,0.9,0,1,20,,,,,,,,,,,,,,,,,,,,,,,,,,,,4U1NM1,train_y,blue_star,bottom_left,2025-07-28_17h05.47.222,HideSeek_v1,2022.2.5,59.92886438467879,
,,,,,,,,,,,,,,,3,0,3,0,0,0,0,0,,,,,,,,,,,,,,,,,,,,,,,,,,,,,,,conditions/schedules/train_y_first/blue_star_00/bottom_left/instructions/Slide17.png,conditions/schedules/train_y_first/blue_star_00/bottom_left/instructions/Audio17.wav,987.3641886999831,987.3644749998348,17,"[2.7429118000436574, 19.34654560009949, 16.055819100001827, 18.620686099864542, 3.5535575000103563, 4.20308839995414, 5.086797299794853, 12.32386549981311, 5.337319900048897, 6.584599300054833, 9.719572300091386, 13.4063456999138, 17.35329670016654, 16.5371477000881, 42.79567949986085, 21.312352300155908, 94.34334909985773]","[2.742932500084862, 0.014401299878954887, 0.014557600021362305, 0.05027389992028475, 0.09965340001508594, 0.03268139995634556, 0.047118299873545766, 0.00020870007574558258, 0.06318629998713732, 0.031358900014311075, 0.048629399854689837, 13.406352499965578, 0.035909300204366446, 16.5371547001414, 0.08109769993461668, 21.31235869997181, 94.34335779980756]",0,,,,,,,,,,,,,,,,,,,,,,,,,,,,,,,,,,,,,,,,,,,,,,,,,,,,,,,,,,,,,,,,,,,,,,,,,,,,,,,,,,,,,,,,,,,,,,,,,,,,,,,,,,,,,,,,,,,,,,,,,,,,4U1NM1,train_y,blue_star,bottom_left,2025-07-28_17h05.47.222,HideSeek_v1,2022.2.5,59.92886438467879,
,,,,,,,,,,,,,,,3,0,3,0,1,0,1,0,,,,,,,,,,,,,,,,,,,,,,,,,,,,,,,conditions/schedules/train_y_first/blue_star_00/bottom_left/instructions/Slide18.png,conditions/schedules/train_y_first/blue_star_00/bottom_left/instructions/Audio18.wav,1081.7769265000243,1081.776591099915,18,"[2.7429118000436574, 19.34654560009949, 16.055819100001827, 18.620686099864542, 3.5535575000103563, 4.20308839995414, 5.086797299794853, 12.32386549981311, 5.337319900048897, 6.584599300054833, 9.719572300091386, 13.4063456999138, 17.35329670016654, 16.5371477000881, 42.79567949986085, 21.312352300155908, 94.34334909985773, 5.68521700007841]","[2.742932500084862, 0.014401299878954887, 0.014557600021362305, 0.05027389992028475, 0.09965340001508594, 0.03268139995634556, 0.047118299873545766, 0.00020870007574558258, 0.06318629998713732, 0.031358900014311075, 0.048629399854689837, 13.406352499965578, 0.035909300204366446, 16.5371547001414, 0.08109769993461668, 21.31235869997181, 0.014427999965846539, 5.685223799897358]",0,,,,,,,,,,,,,,,,,,,,,,,,,,,,,,,,,,,,,,,,,,,,,,,,,,,,,,,,,,,,,,,,,,,,,,,,,,,,,,,,,,,,,,,,,,,,,,,,,,,,,,,,,,,,,,,,,,,,,,,,,,,,4U1NM1,train_y,blue_star,bottom_left,2025-07-28_17h05.47.222,HideSeek_v1,2022.2.5,59.92886438467879,
,,,,,,,,,,,,,,,3,0,3,0,2,0,2,0,,,,,,,,,,,,,,,,,,,,,,,,,,,,,,,conditions/schedules/train_y_first/blue_star_00/bottom_left/instructions/Slide19.png,conditions/schedules/train_y_first/blue_star_00/bottom_left/instructions/Audio19.wav,1087.5373724999372,1087.5310705999145,19,"[2.7429118000436574, 19.34654560009949, 16.055819100001827, 18.620686099864542, 3.5535575000103563, 4.20308839995414, 5.086797299794853, 12.32386549981311, 5.337319900048897, 6.584599300054833, 9.719572300091386, 13.4063456999138, 17.35329670016654, 16.5371477000881, 42.79567949986085, 21.312352300155908, 94.34334909985773, 5.68521700007841, 9.298915600171313]","[2.742932500084862, 0.014401299878954887, 0.014557600021362305, 0.05027389992028475, 0.09965340001508594, 0.03268139995634556, 0.047118299873545766, 0.00020870007574558258, 0.06318629998713732, 0.031358900014311075, 0.048629399854689837, 13.406352499965578, 0.035909300204366446, 16.5371547001414, 0.08109769993461668, 21.31235869997181, 0.014427999965846539, 0.01382670016027987, 9.298922300105914]",0,,,,,,,,,,,,,,,,,,,,,,,,,,,,,,,,,,,,,,,,,,,,,,,,,,,,,,,,,,,,,,,,,,,,,,,,,,,,,,,,,,,,,,,,,,,,,,,,,,,,,,,,,,,,,,,,,,,,,,,,,,,,4U1NM1,train_y,blue_star,bottom_left,2025-07-28_17h05.47.222,HideSeek_v1,2022.2.5,59.92886438467879,
,,,,,,,,,,,,,,,3,0,3,0,3,0,3,0,,,,,,,,,,,,,,,,,,,,,,,,,,,,,,,conditions/schedules/train_y_first/blue_star_00/bottom_left/instructions/Slide20.png,conditions/schedules/train_y_first/blue_star_00/bottom_left/instructions/Audio20.wav,1096.893834900111,1096.8891297199298,20,"[2.7429118000436574, 19.34654560009949, 16.055819100001827, 18.620686099864542, 3.5535575000103563, 4.20308839995414, 5.086797299794853, 12.32386549981311, 5.337319900048897, 6.584599300054833, 9.719572300091386, 13.4063456999138, 17.35329670016654, 16.5371477000881, 42.79567949986085, 21.312352300155908, 94.34334909985773, 5.68521700007841, 9.298915600171313, 12.703174400143325]","[2.742932500084862, 0.014401299878954887, 0.014557600021362305, 0.05027389992028475, 0.09965340001508594, 0.03268139995634556, 0.047118299873545766, 0.00020870007574558258, 0.06318629998713732, 0.031358900014311075, 0.048629399854689837, 13.406352499965578, 0.035909300204366446, 16.5371547001414, 0.08109769993461668, 21.31235869997181, 0.014427999965846539, 0.01382670016027987, 0.04833170003257692, 12.70318099996075]",0,,,,,,,,,,,,,,,,,,,,,,,,,,,,,,,,,,,,,,,,,,,,,,,,,,,,,,,,,,,,,,,,,,,,,,,,,,,,,,,,,,,,,,,,,,,,,,,,,,,,,,,,,,,,,,,,,,,,,,,,,,,,4U1NM1,train_y,blue_star,bottom_left,2025-07-28_17h05.47.222,HideSeek_v1,2022.2.5,59.92886438467879,
1,4,0,9,0,5,0,11,2,instr_dim1_2,,,,,,3,0,3,0,,,,,0,0,0,0,,,,,,,,,,,,,,,,,,,,,,,,,,,,,,,,,,,,,stimuli/alien_stimuli/11.png,conditions/schedules/train_y_first/blue_star_00/bottom_left/inputInstr_2.xlsx,stimuli/alien_stimuli/11.png,1109.7034565000795,1109.7034565000795,1109.7034565000795,1109.7034565000795,1109.6995524599915,return,6.2786550999153405,"[-0.16, -0.08, 0, 0.08, 0.16, 0.24, 0.32, 0.4, 0.48, 0.56]","[-0.4, -0.32, -0.24, -0.16, -0.08, 0, 0.08, 0.16, 0.24, 0.32]",0,0,9,4,0.0,0.4,1116.1323434999213,1116.1323434999213,1116.1323434999213,1116.1323434999213,1116.1323434999213,1116.1323434999213,1116.1323434999213,1116.1217030398548,7.290380199905485,return,7.140753400046378,stimuli/alien_stimuli/11.png,11,4,1,,,,,,,,,,,,,,,,,,,,,,,,,,,,,,,,,,,,,,,,,,,,,,,,,,,,,,,,,,,,,,,,,,,,,,,,,,,,,,,,,,,,,,,,,4U1NM1,train_y,blue_star,bottom_left,2025-07-28_17h05.47.222,HideSeek_v1,2022.2.5,59.92886438467879,
,,,,,,,,,,,30,,,,3,0,3,0,,,,,,,,,,,,,,,,,,,,,,,,,,,,,,,,,,,,,,,,,,,,,,,,,,,,,,,,,,,,,,,,,,,,,,,,,,,,,,21,0.7,0.8333333333333335,1,99,2,30,0,conditions/schedules/train_y_first/blue_star_00/bottom_left/inputTrain_2.1.xlsx,99,1,2,1,0,,,,,,,,,,,,,,,,,,,,,,,,,,,,,,,,,,,,,,,,,,,,,,,,,,,,,,,,,,,,,,,,,,,,,,,,,,,4U1NM1,train_y,blue_star,bottom_left,2025-07-28_17h05.47.222,HideSeek_v1,2022.2.5,59.92886438467879,
,,,,,,,,,,,,,,,4,0,4,0,0,0,0,0,,,,,,,,,,,,,,,,,,,,,,,,,,,,,,,conditions/schedules/train_y_first/blue_star_00/bottom_left/instructions/Slide21.png,conditions/schedules/train_y_first/blue_star_00/bottom_left/instructions/Audio21.wav,1123.4279179000296,1123.4277900200104,21,"[2.7429118000436574, 19.34654560009949, 16.055819100001827, 18.620686099864542, 3.5535575000103563, 4.20308839995414, 5.086797299794853, 12.32386549981311, 5.337319900048897, 6.584599300054833, 9.719572300091386, 13.4063456999138, 17.35329670016654, 16.5371477000881, 42.79567949986085, 21.312352300155908, 94.34334909985773, 5.68521700007841, 9.298915600171313, 12.703174400143325, 13.941954699810594]","[2.742932500084862, 0.014401299878954887, 0.014557600021362305, 0.05027389992028475, 0.09965340001508594, 0.03268139995634556, 0.047118299873545766, 0.00020870007574558258, 0.06318629998713732, 0.031358900014311075, 0.048629399854689837, 13.406352499965578, 0.035909300204366446, 16.5371547001414, 0.08109769993461668, 21.31235869997181, 0.014427999965846539, 0.01382670016027987, 0.04833170003257692, 12.70318099996075, 13.941962299868464]",0,,,,,,,,,,,,,,,,,,,,,,,,,,,,,,,,,,,,,,,,,,,,,,,,,,,,,,,,,,,,,,,,,,,,,,,,,,,,,,,,,,,,,,,,,,,,,,,,,,,,,,,,,,,,,,,,,,,,,,,,,,,,4U1NM1,train_y,blue_star,bottom_left,2025-07-28_17h05.47.222,HideSeek_v1,2022.2.5,59.92886438467879,
2,3,2,3,2,0,0,61,2,instr_dim1_2,,,,,,4,0,4,0,,,,,0,0,0,0,,,,,,,,,,,,,,,,,,,,,,,,,,,,,,,,,,,,,stimuli/alien_stimuli/61.png,conditions/schedules/train_y_first/blue_star_00/bottom_left/inputInstr_2.xlsx,stimuli/alien_stimuli/61.png,1137.4583626000676,1137.4583626000676,1137.4583626000676,1137.4583626000676,1137.456015579868,return,4.22810720000416,"[-0.16, -0.08, 0, 0.08, 0.16, 0.24, 0.32, 0.4, 0.48, 0.56]","[-0.4, -0.32, -0.24, -0.16, -0.08, 0, 0.08, 0.16, 0.24, 0.32]",2,2,3,3,0.0,0.0,1141.842167200055,1141.842167200055,1141.842167200055,1141.842167200055,1141.842167200055,1141.842167200055,1141.842167200055,1141.8264115399215,5.93915140000172,return,5.779583099996671,stimuli/alien_stimuli/61.png,61,3,2,,,,,,,,,,,,,,,,,,,,,,,,,,,,,,,,,,,,,,,,,,,,,,,,,,,,,,,,,,,,,,,,,,,,,,,,,,,,,,,,,,,,,,,,,4U1NM1,train_y,blue_star,bottom_left,2025-07-28_17h05.47.222,HideSeek_v1,2022.2.5,59.92886438467879,
,,,,,,,,,,,30,,,,4,0,4,0,,,,,,,,,,,,,,,,,,,,,,,,,,,,,,,,,,,,,,,,,,,,,,,,,,,,,,,,,,,,,,,,,,,,,,,,,,,,,,21,0.7,0.8333333333333335,1,99,2,30,0,conditions/schedules/train_y_first/blue_star_00/bottom_left/inputTrain_2.1.xlsx,99,1,2,1,0,,,,,,,,,,,,,,,,,,,,,,,,,,,,,,,,,,,,,,,,,,,,,,,,,,,,,,,,,,,,,,,,,,,,,,,,,,,4U1NM1,train_y,blue_star,bottom_left,2025-07-28_17h05.47.222,HideSeek_v1,2022.2.5,59.92886438467879,
,,,,,,,,,,,,,,,5,0,5,0,0,0,0,0,,,,,,,,,,,,,,,,,,,,,,,,,,,,,,,conditions/schedules/train_y_first/blue_star_00/bottom_left/instructions/Slide22.png,conditions/schedules/train_y_first/blue_star_00/bottom_left/instructions/Audio22.wav,1147.7830308000557,1147.7814058199292,22,"[2.7429118000436574, 19.34654560009949, 16.055819100001827, 18.620686099864542, 3.5535575000103563, 4.20308839995414, 5.086797299794853, 12.32386549981311, 5.337319900048897, 6.584599300054833, 9.719572300091386, 13.4063456999138, 17.35329670016654, 16.5371477000881, 42.79567949986085, 21.312352300155908, 94.34334909985773, 5.68521700007841, 9.298915600171313, 12.703174400143325, 13.941954699810594, 30.07037810003385]","[2.742932500084862, 0.014401299878954887, 0.014557600021362305, 0.05027389992028475, 0.09965340001508594, 0.03268139995634556, 0.047118299873545766, 0.00020870007574558258, 0.06318629998713732, 0.031358900014311075, 0.048629399854689837, 13.406352499965578, 0.035909300204366446, 16.5371547001414, 0.08109769993461668, 21.31235869997181, 0.014427999965846539, 0.01382670016027987, 0.04833170003257692, 12.70318099996075, 13.941962299868464, 30.070385300088674]",0,,,,,,,,,,,,,,,,,,,,,,,,,,,,,,,,,,,,,,,,,,,,,,,,,,,,,,,,,,,,,,,,,,,,,,,,,,,,,,,,,,,,,,,,,,,,,,,,,,,,,,,,,,,,,,,,,,,,,,,,,,,,4U1NM1,train_y,blue_star,bottom_left,2025-07-28_17h05.47.222,HideSeek_v1,2022.2.5,59.92886438467879,
,2,1,5,1,3,0,31,,train_dim1_2,1,30,,,,5,0,5,0,,,,,,,,,0,0,0,0,0,0,0,0,0,0,0,0,,,,,,,,,,,,,,,,,,,,,,,,,stimuli/alien_stimuli/31.png,,,,,,,,,,,,,,,,,,,,,,,,,,,,,,,,,,,,,,,30,,,,,,,,1177.9605197000783,1177.9605197000783,1177.9605197000783,1177.9605197000783,1177.9605197000783,return,2.5956927000079304,0,0,0,0,0,-0.32,return,2.4834816998336464,76,7,0,-0.32,,,,,,,,,,,,,,,,,,,,,,,,,,,,,,,,,,,,,,,,,,,,,,,,,,,,,,,,4U1NM1,train_y,blue_star,bottom_left,2025-07-28_17h05.47.222,HideSeek_v1,2022.2.5,59.92886438467879,
,2,4,7,4,5,0,11,,train_dim1_2,2,30,,,,5,0,5,0,,,,,,,,,0,0,0,0,0,1,1,1,0,0,0,0,,,,,,,,,,,,,,,,,,,,,,,,,stimuli/alien_stimuli/11.png,,,,,,,,,,,,,,,,,,,,,,,,,,,,,stimuli/alien_stimuli/31.png,31,2,3,,,,,,,30,,,,,,,,1189.5977829000913,1189.5977829000913,1189.5977829000913,1189.5977829000913,1189.5977829000913,right,2.137068700045347,0,0,0,99,0.08,-0.08,right,2.044731699861586,,,,,1188.0312675999012,1189.5977829000913,0.24,-0.32,0.0,0.24,-0.32,0.24,0.12,0.24,-0.32,1182.1186029999517,1182.1186029999517,1182.1186029999517,1182.1186029999517,1182.1186029999517,1182.1186029999517,1182.1186029999517,1182.1186029999517,1182.1099882398266,6.04064240003936,return,5.894041599938646,,,,,,,,,,,,,,,,,,,,,,,,,,,,,,,,,4U1NM1,train_y,blue_star,bottom_left,2025-07-28_17h05.47.222,HideSeek_v1,2022.2.5,59.92886438467879,
,2,4,7,4,5,0,11,,train_dim1_2,2,30,,,,5,0,5,0,,,,,,,,,0,0,0,0,0,1,1,1,1,0,1,0,,,,,,,,,,,,,,,,,,,,,,,,,,,,,,,,,,,,,,,,,,,,,,,,,,,,,,,,,,,,,,,,30,,,,,,,,1191.735347500071,1191.735347500071,1191.735347500071,1191.735347500071,1191.735347500071,left,2.1276081998366863,0,0,0,99,0.0,-0.08,left,2.0457668998278677,,,,,,,,,,,,,,,,,,,,,,,,,,,,,,,,,,,,,,,,,,,,,,,,,,,,,,,,,,,,4U1NM1,train_y,blue_star,bottom_left,2025-07-28_17h05.47.222,HideSeek_v1,2022.2.5,59.92886438467879,
,2,4,7,4,5,0,11,,train_dim1_2,2,30,,,,5,0,5,0,,,,,,,,,0,0,0,0,0,1,1,1,2,0,2,0,,,,,,,,,,,,,,,,,,,,,,,,,,,,,,,,,,,,,,,,,,,,,,,,,,,,,,,,,,,,,,,,30,,,,,,,,1193.8700514999218,1193.8700514999218,1193.8700514999218,1193.8700514999218,1193.8700514999218,return,4.4467803000006825,0,0,0,0,0.0,-0.08,return,4.355301300063729,76,7,0.0,-0.08,,,,,,,,,,,,,,,,,,,,,,,,,,,,,,,,,,,,,,,,,,,,,,,,,,,,,,,,4U1NM1,train_y,blue_star,bottom_left,2025-07-28_17h05.47.222,HideSeek_v1,2022.2.5,59.92886438467879,
,4,4,8,4,4,0,21,,train_dim1_2,3,30,,,,5,0,5,0,,,,,,,,,0,0,0,0,0,2,2,2,0,0,0,0,,,,,,,,,,,,,,,,,,,,,,,,,stimuli/alien_stimuli/21.png,,,,,,,,,,,,,,,,,,,,,,,,,,,,,stimuli/alien_stimuli/11.png,11,2,4,,,,,,,30,,,,,,,,1203.4070755001158,1203.4070755001158,1203.4070755001158,1203.4070755001158,1203.4070755001158,right,2.5567158998455852,0,0,0,99,0.24,-0.08,right,2.445253799902275,,,,,1201.8262352000456,1203.4070755001158,0.4,-0.08,0.0,0.4,-0.08,0.4,0.2,0.4,-0.08,1199.9090750000905,1199.9090750000905,1199.9090750000905,1199.9090750000905,1199.9090750000905,1199.9090750000905,1199.9090750000905,1199.9090750000905,1199.8913790399674,2.0543792000971735,return,1.8952875998802483,,,,,,,,,,,,,,,,,,,,,,,,,,,,,,,,,4U1NM1,train_y,blue_star,bottom_left,2025-07-28_17h05.47.222,HideSeek_v1,2022.2.5,59.92886438467879,
,4,4,8,4,4,0,21,,train_dim1_2,3,30,,,,5,0,5,0,,,,,,,,,0,0,0,0,0,2,2,2,1,0,1,0,,,,,,,,,,,,,,,,,,,,,,,,,,,,,,,,,,,,,,,,,,,,,,,,,,,,,,,,,,,,,,,,30,,,,,,,,1205.947727800114,1205.947727800114,1205.947727800114,1205.947727800114,1205.947727800114,right,0.49307490000501275,0,0,0,99,0.32,-0.08,right,0.40178359975107014,,,,,,,,,,,,,,,,,,,,,,,,,,,,,,,,,,,,,,,,,,,,,,,,,,,,,,,,,,,,4U1NM1,train_y,blue_star,bottom_left,2025-07-28_17h05.47.222,HideSeek_v1,2022.2.5,59.92886438467879,
,4,4,8,4,4,0,21,,train_dim1_2,3,30,,,,5,0,5,0,,,,,,,,,0,0,0,0,0,2,2,2,2,0,2,0,,,,,,,,,,,,,,,,,,,,,,,,,,,,,,,,,,,,,,,,,,,,,,,,,,,,,,,,,,,,,,,,30,,,,,,,,1206.4473768998869,1206.4473768998869,1206.4473768998869,1206.4473768998869,1206.4473768998869,right,0.5603688999544829,0,0,0,99,0.4,-0.08,right,0.47053959988988936,,,,,,,,,,,,,,,,,,,,,,,,,,,,,,,,,,,,,,,,,,,,,,,,,,,,,,,,,,,,4U1NM1,train_y,blue_star,bottom_left,2025-07-28_17h05.47.222,HideSeek_v1,2022.2.5,59.92886438467879,
,4,4,8,4,4,0,21,,train_dim1_2,3,30,,,,5,0,5,0,,,,,,,,,0,0,0,0,0,2,2,2,3,0,3,0,,,,,,,,,,,,,,,,,,,,,,,,,,,,,,,,,,,,,,,,,,,,,,,,,,,,,,,,,,,,,,,,30,,,,,,,,1207.0144356000237,1207.0144356000237,1207.0144356000237,1207.0144356000237,1207.0144356000237,right,0.4932890001218766,0,0,0,99,0.48000000000000004,-0.08,right,0.40989549993537366,,,,,,,,,,,,,,,,,,,,,,,,,,,,,,,,,,,,,,,,,,,,,,,,,,,,,,,,,,,,4U1NM1,train_y,blue_star,bottom_left,2025-07-28_17h05.47.222,HideSeek_v1,2022.2.5,59.92886438467879,
,4,4,8,4,4,0,21,,train_dim1_2,3,30,,,,5,0,5,0,,,,,,,,,0,0,0,0,0,2,2,2,4,0,4,0,,,,,,,,,,,,,,,,,,,,,,,,,,,,,,,,,,,,,,,,,,,,,,,,,,,,,,,,,,,,,,,,30,,,,,,,,1207.515561599983,1207.515561599983,1207.515561599983,1207.515561599983,1207.515561599983,right,0.4769371999427676,0,0,0,99,0.56,-0.08,right,0.387077399995178,,,,,,,,,,,,,,,,,,,,,,,,,,,,,,,,,,,,,,,,,,,,,,,,,,,,,,,,,,,,4U1NM1,train_y,blue_star,bottom_left,2025-07-28_17h05.47.222,HideSeek_v1,2022.2.5,59.92886438467879,
