trialInstr,x_fixStart,y_fixStart,x_corrSteps,y_corrSteps,x_nrSteps,y_nrSteps,alienID,trialLength,version,trialTrain,praclen,testlen,trial_label,break_on_off,beforeExpLoop.thisRepN,beforeExpLoop.thisTrialN,beforeExpLoop.thisN,beforeExpLoop.thisIndex,mini_instr_trials.thisRepN,mini_instr_trials.thisTrialN,mini_instr_trials.thisN,mini_instr_trials.thisIndex,instrLoop.thisRepN,instrLoop.thisTrialN,instrLoop.thisN,instrLoop.thisIndex,repeat_prac.thisRepN,repeat_prac.thisTrialN,repeat_prac.thisN,repeat_prac.thisIndex,trainLoop.thisRepN,trainLoop.thisTrialN,trainLoop.thisN,trainLoop.thisIndex,moveLoop_train.thisRepN,moveLoop_train.thisTrialN,moveLoop_train.thisN,moveLoop_train.thisIndex,experiment.thisRepN,experiment.thisTrialN,experiment.thisN,experiment.thisIndex,moveLoop_test.thisRepN,moveLoop_test.thisTrialN,moveLoop_test.thisN,moveLoop_test.thisIndex,mini_instr2_trials.thisRepN,mini_instr2_trials.thisTrialN,mini_instr2_trials.thisN,mini_instr2_trials.thisIndex,start_all_time,url,slideStim,audioStim,slides.started,sounds.started,nextButton.numClicks,nextButton.timesOn,nextButton.timesOff,prev_but.numClicks,prev_but.timesOn,prev_but.timesOff,alienStim,instrFile,alienStim_instr,gridImage_instr.started,startPos_3.started,key_instr.started,alienImage_3.started,sounds_1.started,key_instr.keys,key_instr.rt,all_x,all_y,FBy_corrSteps,FBy_fixStart,FBx_corrSteps,FBx_fixStart,FBy_pathSize_check,FBx_pathSize_check,gridImage_9.started,alienImageFB_3.started,startPosFB_3.started,keyFB_3.started,pathLine_ydir_2.started,pathLine_xdir_2.started,alienFace_3.started,sounds_2.started,RTFB_instr,keyFB_3.keys,keyFB_3.rt,draw_alienStim,draw_alienID,test_x,nrepcount,perfthres,percthres,earlierperf,earlystop,nextPrac,fileidx,praclen,saveACC_train,pracFile,nextPrac_train,addNrep,fileidx_endr,repExp,showearly,gridImage_4.started,startPos.started,movePos.started,key_resp.started,alienImage.started,buttonPress_train,RTchoice_train,cumAcctrain,aCorr,saveACC_choice,corrAns,x_movePos_end,y_movePos_end,key_resp.keys,key_resp.rt,wLy_dir,wLx_dir,x_movePos,y_movePos,text_2.started,text_2.stopped,aft_x_corrPos,aft_y_corrPos,y_pathSize_check,x_pathSize_check,y_pathdirY,x_pathdirY,x_pathdirX,x_corrPos,y_corrPos,gridImage_6.started,alienImageFB_2.started,startPosFB_2.started,movePosFB_2.started,keyFB_2.started,pathLine_xdir.started,pathLine_ydir.started,alienFace.started,sounds_4.started,RT_FBtrain,keyFB_2.keys,keyFB_2.rt,saveACC_pre,ACC,within_saveACC_train,earlystop_wloop,cumAcctrain_check,gridImage_3.started,alienImage_test.started,startPos_test.started,movePos_test.started,key_resp_test.started,wLy_dir_test,wLx_dir_test,buttonPress_test,RTchoice_test,cumAcctest,corrAns_test,key_resp_test.keys,key_resp_test.rt,text_3.started,text_3.stopped,total_time,end_all_time,key_resp_3.keys,slides_2.started,sounds_3.started,nextButton_2.numClicks,nextButton_2.timesOn,nextButton_2.timesOff,prev_but_2.numClicks,prev_but_2.timesOn,prev_but_2.timesOff,bye.started,participant,train_first,00_coordinate,starting corner,date,expName,psychopyVersion,frameRate,
,,,,,,,,,,,,,,,0,0,0,0,0,0,0,0,,,,,,,,,,,,,,,,,,,,,,,,,,,,,start_all_time,testround,conditions/schedules/train_y_first/red_square_00/top_right/instructions/Slide1.png,conditions/schedules/train_y_first/red_square_00/top_right/instructions/Audio1.wav,2069.835622299928,2069.7838101906236,1,[6.918544200249016],[6.918552000075579],0,,,,,,,,,,,,,,,,,,,,,,,,,,,,,,,,,,,,,,,,,,,,,,,,,,,,,,,,,,,,,,,,,,,,,,,,,,,,,,,,,,,,,,,,,,,,,,,,,,,,,,,,,,,,,,,,,,,,,,,,,,,,4V3JLH,train_y,red_square,top_right,2025-03-06_17h51.03.052,HideSeek_v1,2022.2.5,59.93231233570991,
,,,,,,,,,,,,,,,0,0,0,0,1,0,1,0,,,,,,,,,,,,,,,,,,,,,,,,,,,,,,,conditions/schedules/train_y_first/red_square_00/top_right/instructions/Slide2.png,conditions/schedules/train_y_first/red_square_00/top_right/instructions/Audio2.wav,2076.7753586000763,2076.7775715996977,2,"[6.918544200249016, 18.115473000332713]","[0.00022040028125047684, 18.11548040015623]",0,,,,,,,,,,,,,,,,,,,,,,,,,,,,,,,,,,,,,,,,,,,,,,,,,,,,,,,,,,,,,,,,,,,,,,,,,,,,,,,,,,,,,,,,,,,,,,,,,,,,,,,,,,,,,,,,,,,,,,,,,,,,4V3JLH,train_y,red_square,top_right,2025-03-06_17h51.03.052,HideSeek_v1,2022.2.5,59.93231233570991,
,,,,,,,,,,,,,,,0,0,0,0,2,0,2,0,,,,,,,,,,,,,,,,,,,,,,,,,,,,,,,conditions/schedules/train_y_first/red_square_00/top_right/instructions/Slide3.png,conditions/schedules/train_y_first/red_square_00/top_right/instructions/Audio3.wav,2094.959624500014,2094.959362199763,3,"[6.918544200249016, 18.115473000332713, 16.99509620014578]","[0.00022040028125047684, 0.031150999944657087, 16.995103700086474]",0,,,,,,,,,,,,,,,,,,,,,,,,,,,,,,,,,,,,,,,,,,,,,,,,,,,,,,,,,,,,,,,,,,,,,,,,,,,,,,,,,,,,,,,,,,,,,,,,,,,,,,,,,,,,,,,,,,,,,,,,,,,,4V3JLH,train_y,red_square,top_right,2025-03-06_17h51.03.052,HideSeek_v1,2022.2.5,59.93231233570991,
,,,,,,,,,,,,,,,0,0,0,0,3,0,3,0,,,,,,,,,,,,,,,,,,,,,,,,,,,,,,,conditions/schedules/train_y_first/red_square_00/top_right/instructions/Slide4.png,conditions/schedules/train_y_first/red_square_00/top_right/instructions/Audio4.wav,2112.039025499951,2112.0401255995966,4,"[6.918544200249016, 18.115473000332713, 16.99509620014578, 19.39861229993403]","[0.00022040028125047684, 0.031150999944657087, 0.03240730008110404, 19.398620499763638]",0,,,,,,,,,,,,,,,,,,,,,,,,,,,,,,,,,,,,,,,,,,,,,,,,,,,,,,,,,,,,,,,,,,,,,,,,,,,,,,,,,,,,,,,,,,,,,,,,,,,,,,,,,,,,,,,,,,,,,,,,,,,,4V3JLH,train_y,red_square,top_right,2025-03-06_17h51.03.052,HideSeek_v1,2022.2.5,59.93231233570991,
,,,,,,,,,,,,,,,0,0,0,0,4,0,4,0,,,,,,,,,,,,,,,,,,,,,,,,,,,,,,,conditions/schedules/train_y_first/red_square_00/top_right/instructions/Slide5.png,conditions/schedules/train_y_first/red_square_00/top_right/instructions/Audio5.wav,2131.508066999726,2131.506201999495,5,"[6.918544200249016, 18.115473000332713, 16.99509620014578, 19.39861229993403, 5.016870600171387]","[0.00022040028125047684, 0.031150999944657087, 0.03240730008110404, 0.04753729980438948, 5.016878500115126]",0,,,,,,,,,,,,,,,,,,,,,,,,,,,,,,,,,,,,,,,,,,,,,,,,,,,,,,,,,,,,,,,,,,,,,,,,,,,,,,,,,,,,,,,,,,,,,,,,,,,,,,,,,,,,,,,,,,,,,,,,,,,,4V3JLH,train_y,red_square,top_right,2025-03-06_17h51.03.052,HideSeek_v1,2022.2.5,59.93231233570991,
,,,,,,,,,,,,,,,0,0,0,0,5,0,5,0,,,,,,,,,,,,,,,,,,,,,,,,,,,,,,,conditions/schedules/train_y_first/red_square_00/top_right/instructions/Slide6.png,conditions/schedules/train_y_first/red_square_00/top_right/instructions/Audio6.wav,2136.5767423999496,2136.5773236998357,6,"[6.918544200249016, 18.115473000332713, 16.99509620014578, 19.39861229993403, 5.016870600171387, 4.652072499971837]","[0.00022040028125047684, 0.031150999944657087, 0.03240730008110404, 0.04753729980438948, 0.11495619965717196, 4.652079599909484]",0,,,,,,,,,,,,,,,,,,,,,,,,,,,,,,,,,,,,,,,,,,,,,,,,,,,,,,,,,,,,,,,,,,,,,,,,,,,,,,,,,,,,,,,,,,,,,,,,,,,,,,,,,,,,,,,,,,,,,,,,,,,,4V3JLH,train_y,red_square,top_right,2025-03-06_17h51.03.052,HideSeek_v1,2022.2.5,59.93231233570991,
,,,,,,,,,,,,,,,0,0,0,0,6,0,6,0,,,,,,,,,,,,,,,,,,,,,,,,,,,,,,,conditions/schedules/train_y_first/red_square_00/top_right/instructions/Slide7.png,conditions/schedules/train_y_first/red_square_00/top_right/instructions/Audio7.wav,2141.2803031997755,2141.2809843998402,7,"[6.918544200249016, 18.115473000332713, 16.99509620014578, 19.39861229993403, 5.016870600171387, 4.652072499971837, 5.719718300271779]","[0.00022040028125047684, 0.031150999944657087, 0.03240730008110404, 0.04753729980438948, 0.11495619965717196, 0.08175020013004541, 5.719725700095296]",0,,,,,,,,,,,,,,,,,,,,,,,,,,,,,,,,,,,,,,,,,,,,,,,,,,,,,,,,,,,,,,,,,,,,,,,,,,,,,,,,,,,,,,,,,,,,,,,,,,,,,,,,,,,,,,,,,,,,,,,,,,,,4V3JLH,train_y,red_square,top_right,2025-03-06_17h51.03.052,HideSeek_v1,2022.2.5,59.93231233570991,
,,,,,,,,,,,,,,,0,0,0,0,7,0,7,0,,,,,,,,,,,,,,,,,,,,,,,,,,,,,,,conditions/schedules/train_y_first/red_square_00/top_right/instructions/Slide8.png,conditions/schedules/train_y_first/red_square_00/top_right/instructions/Audio8.wav,2147.052900099661,2147.052288899664,8,"[6.918544200249016, 18.115473000332713, 16.99509620014578, 19.39861229993403, 5.016870600171387, 4.652072499971837, 5.719718300271779, 11.840251700021327]","[0.00022040028125047684, 0.031150999944657087, 0.03240730008110404, 0.04753729980438948, 0.11495619965717196, 0.08175020013004541, 0.04751619976013899, 11.840259099844843]",0,,,,,,,,,,,,,,,,,,,,,,,,,,,,,,,,,,,,,,,,,,,,,,,,,,,,,,,,,,,,,,,,,,,,,,,,,,,,,,,,,,,,,,,,,,,,,,,,,,,,,,,,,,,,,,,,,,,,,,,,,,,,4V3JLH,train_y,red_square,top_right,2025-03-06_17h51.03.052,HideSeek_v1,2022.2.5,59.93231233570991,
,,,,,,,,,,,,,,,0,0,0,0,8,0,8,0,,,,,,,,,,,,,,,,,,,,,,,,,,,,,,,conditions/schedules/train_y_first/red_square_00/top_right/instructions/Slide9.png,conditions/schedules/train_y_first/red_square_00/top_right/instructions/Audio9.wav,2158.964265299961,2158.9622932996135,9,"[6.918544200249016, 18.115473000332713, 16.99509620014578, 19.39861229993403, 5.016870600171387, 4.652072499971837, 5.719718300271779, 11.840251700021327, 6.084393199998885]","[0.00022040028125047684, 0.031150999944657087, 0.03240730008110404, 0.04753729980438948, 0.11495619965717196, 0.08175020013004541, 0.04751619976013899, 0.09789810003712773, 6.084400900173932]",0,,,,,,,,,,,,,,,,,,,,,,,,,,,,,,,,,,,,,,,,,,,,,,,,,,,,,,,,,,,,,,,,,,,,,,,,,,,,,,,,,,,,,,,,,,,,,,,,,,,,,,,,,,,,,,,,,,,,,,,,,,,,4V3JLH,train_y,red_square,top_right,2025-03-06_17h51.03.052,HideSeek_v1,2022.2.5,59.93231233570991,
,,,,,,,,,,,,,,,0,0,0,0,9,0,9,0,,,,,,,,,,,,,,,,,,,,,,,,,,,,,,,conditions/schedules/train_y_first/red_square_00/top_right/instructions/Slide10.png,conditions/schedules/train_y_first/red_square_00/top_right/instructions/Audio10.wav,2165.08720119996,2165.084288999671,10,"[6.918544200249016, 18.115473000332713, 16.99509620014578, 19.39861229993403, 5.016870600171387, 4.652072499971837, 5.719718300271779, 11.840251700021327, 6.084393199998885, 6.666478000115603]","[0.00022040028125047684, 0.031150999944657087, 0.03240730008110404, 0.04753729980438948, 0.11495619965717196, 0.08175020013004541, 0.04751619976013899, 0.09789810003712773, 0.07866729982197285, 6.666487500071526]",0,,,,,,,,,,,,,,,,,,,,,,,,,,,,,,,,,,,,,,,,,,,,,,,,,,,,,,,,,,,,,,,,,,,,,,,,,,,,,,,,,,,,,,,,,,,,,,,,,,,,,,,,,,,,,,,,,,,,,,,,,,,,4V3JLH,train_y,red_square,top_right,2025-03-06_17h51.03.052,HideSeek_v1,2022.2.5,59.93231233570991,
,,,,,,,,,,,,,,,0,0,0,0,10,0,10,0,,,,,,,,,,,,,,,,,,,,,,,,,,,,,,,conditions/schedules/train_y_first/red_square_00/top_right/instructions/Slide11.png,conditions/schedules/train_y_first/red_square_00/top_right/instructions/Audio11.wav,2171.7930421000347,2171.789747999748,11,"[6.918544200249016, 18.115473000332713, 16.99509620014578, 19.39861229993403, 5.016870600171387, 4.652072499971837, 5.719718300271779, 11.840251700021327, 6.084393199998885, 6.666478000115603, 10.753032699692994]","[0.00022040028125047684, 0.031150999944657087, 0.03240730008110404, 0.04753729980438948, 0.11495619965717196, 0.08175020013004541, 0.04751619976013899, 0.09789810003712773, 0.07866729982197285, 0.11375709995627403, 10.753039499744773]",0,,,,,,,,,,,,,,,,,,,,,,,,,,,,,,,,,,,,,,,,,,,,,,,,,,,,,,,,,,,,,,,,,,,,,,,,,,,,,,,,,,,,,,,,,,,,,,,,,,,,,,,,,,,,,,,,,,,,,,,,,,,,4V3JLH,train_y,red_square,top_right,2025-03-06_17h51.03.052,HideSeek_v1,2022.2.5,59.93231233570991,
,,,,,,,,,,,,,,,0,0,0,0,11,0,11,0,,,,,,,,,,,,,,,,,,,,,,,,,,,,,,,conditions/schedules/train_y_first/red_square_00/top_right/instructions/Slide12.png,conditions/schedules/train_y_first/red_square_00/top_right/instructions/Audio12.wav,2182.6198219996877,2182.615524399793,12,"[6.918544200249016, 18.115473000332713, 16.99509620014578, 19.39861229993403, 5.016870600171387, 4.652072499971837, 5.719718300271779, 11.840251700021327, 6.084393199998885, 6.666478000115603, 10.753032699692994, 13.788135500159115]","[0.00022040028125047684, 0.031150999944657087, 0.03240730008110404, 0.04753729980438948, 0.11495619965717196, 0.08175020013004541, 0.04751619976013899, 0.09789810003712773, 0.07866729982197285, 0.11375709995627403, 0.047350500244647264, 13.788142899982631]",0,,,,,,,,,,,,,,,,,,,,,,,,,,,,,,,,,,,,,,,,,,,,,,,,,,,,,,,,,,,,,,,,,,,,,,,,,,,,,,,,,,,,,,,,,,,,,,,,,,,,,,,,,,,,,,,,,,,,,,,,,,,,4V3JLH,train_y,red_square,top_right,2025-03-06_17h51.03.052,HideSeek_v1,2022.2.5,59.93231233570991,
1,7,8,7,3,0,-5,11,2,instr_dim1_1,,,,,,0,0,0,0,,,,,0,0,0,0,,,,,,,,,,,,,,,,,,,,,,,,,,,,,,,,,,,,,stimuli/alien_stimuli/11.png,conditions/schedules/train_y_first/red_square_00/top_right/inputInstr_1.xlsx,stimuli/alien_stimuli/11.png,2196.5101862996817,2196.5101862996817,2196.5101862996817,2196.5101862996817,2196.5101814994123,return,9.00976729998365,"[-0.16, -0.08, 0, 0.08, 0.16, 0.24, 0.32, 0.4, 0.48, 0.56]","[-0.4, -0.32, -0.24, -0.16, -0.08, 0, 0.08, 0.16, 0.24, 0.32]",3,8,7,7,0.4,0.0,2205.6757876998745,2205.6757876998745,2205.6757876998745,2205.6757876998745,2205.6757876998745,2205.6757876998745,2205.6757876998745,2205.6670221998356,8.492011500056833,return,8.34834499983117,stimuli/alien_stimuli/11.png,11,7,1,,,,,,,,,,,,,,,,,,,,,,,,,,,,,,,,,,,,,,,,,,,,,,,,,,,,,,,,,,,,,,,,,,,,,,,,,,,,,,,,,,,,,,,,,4V3JLH,train_y,red_square,top_right,2025-03-06_17h51.03.052,HideSeek_v1,2022.2.5,59.93231233570991,
,,,,,,,,,,,30,,,,0,0,0,0,,,,,,,,,,,,,,,,,,,,,,,,,,,,,,,,,,,,,,,,,,,,,,,,,,,,,,,,,,,,,,,,,,,,,,,,,,,,,,21,0.7,0,0,99,1,30,0,conditions/schedules/train_y_first/red_square_00/top_right/inputTrain_1.1.xlsx,99,1,1,1,0,,,,,,,,,,,,,,,,,,,,,,,,,,,,,,,,,,,,,,,,,,,,,,,,,,,,,,,,,,,,,,,,,,,,,,,,,,,4V3JLH,train_y,red_square,top_right,2025-03-06_17h51.03.052,HideSeek_v1,2022.2.5,59.93231233570991,
,,,,,,,,,,,,,,,1,0,1,0,0,0,0,0,,,,,,,,,,,,,,,,,,,,,,,,,,,,,,,conditions/schedules/train_y_first/red_square_00/top_right/instructions/Slide13.png,conditions/schedules/train_y_first/red_square_00/top_right/instructions/Audio13.wav,2214.1728586996906,2214.174527099589,13,"[6.918544200249016, 18.115473000332713, 16.99509620014578, 19.39861229993403, 5.016870600171387, 4.652072499971837, 5.719718300271779, 11.840251700021327, 6.084393199998885, 6.666478000115603, 10.753032699692994, 13.788135500159115, 27.472150899935514]","[0.00022040028125047684, 0.031150999944657087, 0.03240730008110404, 0.04753729980438948, 0.11495619965717196, 0.08175020013004541, 0.04751619976013899, 0.09789810003712773, 0.07866729982197285, 0.11375709995627403, 0.047350500244647264, 13.788142899982631, 27.472158099990338]",0,,,,,,,,,,,,,,,,,,,,,,,,,,,,,,,,,,,,,,,,,,,,,,,,,,,,,,,,,,,,,,,,,,,,,,,,,,,,,,,,,,,,,,,,,,,,,,,,,,,,,,,,,,,,,,,,,,,,,,,,,,,,4V3JLH,train_y,red_square,top_right,2025-03-06_17h51.03.052,HideSeek_v1,2022.2.5,59.93231233570991,
,,,,,,,,,,,,,,,1,0,1,0,1,0,1,0,,,,,,,,,,,,,,,,,,,,,,,,,,,,,,,conditions/schedules/train_y_first/red_square_00/top_right/instructions/Slide14.png,conditions/schedules/train_y_first/red_square_00/top_right/instructions/Audio14.wav,2241.7121387999505,2241.714363699546,14,"[6.918544200249016, 18.115473000332713, 16.99509620014578, 19.39861229993403, 5.016870600171387, 4.652072499971837, 5.719718300271779, 11.840251700021327, 6.084393199998885, 6.666478000115603, 10.753032699692994, 13.788135500159115, 27.472150899935514, 16.963935500010848]","[0.00022040028125047684, 0.031150999944657087, 0.03240730008110404, 0.04753729980438948, 0.11495619965717196, 0.08175020013004541, 0.04751619976013899, 0.09789810003712773, 0.07866729982197285, 0.11375709995627403, 0.047350500244647264, 13.788142899982631, 0.014148999936878681, 16.963943999726325]",0,,,,,,,,,,,,,,,,,,,,,,,,,,,,,,,,,,,,,,,,,,,,,,,,,,,,,,,,,,,,,,,,,,,,,,,,,,,,,,,,,,,,,,,,,,,,,,,,,,,,,,,,,,,,,,,,,,,,,,,,,,,,4V3JLH,train_y,red_square,top_right,2025-03-06_17h51.03.052,HideSeek_v1,2022.2.5,59.93231233570991,
2,5,8,5,8,0,0,16,2,instr_dim1_1,,,,,,1,0,1,0,,,,,0,0,0,0,,,,,,,,,,,,,,,,,,,,,,,,,,,,,,,,,,,,,stimuli/alien_stimuli/16.png,conditions/schedules/train_y_first/red_square_00/top_right/inputInstr_1.xlsx,stimuli/alien_stimuli/16.png,2258.776871299837,2258.776871299837,2258.776871299837,2258.776871299837,2258.7783169995528,return,8.373368200380355,"[-0.16, -0.08, 0, 0.08, 0.16, 0.24, 0.32, 0.4, 0.48, 0.56]","[-0.4, -0.32, -0.24, -0.16, -0.08, 0, 0.08, 0.16, 0.24, 0.32]",8,8,5,5,0.0,0.0,2267.3006317000836,2267.3006317000836,2267.3006317000836,2267.3006317000836,2267.3006317000836,2267.3006317000836,2267.3006317000836,2267.3019700997975,8.791404800023884,return,8.6283905999735,stimuli/alien_stimuli/16.png,16,5,2,,,,,,,,,,,,,,,,,,,,,,,,,,,,,,,,,,,,,,,,,,,,,,,,,,,,,,,,,,,,,,,,,,,,,,,,,,,,,,,,,,,,,,,,,4V3JLH,train_y,red_square,top_right,2025-03-06_17h51.03.052,HideSeek_v1,2022.2.5,59.93231233570991,
,,,,,,,,,,,30,,,,1,0,1,0,,,,,,,,,,,,,,,,,,,,,,,,,,,,,,,,,,,,,,,,,,,,,,,,,,,,,,,,,,,,,,,,,,,,,,,,,,,,,,21,0.7,0,0,99,1,30,0,conditions/schedules/train_y_first/red_square_00/top_right/inputTrain_1.1.xlsx,99,1,1,1,0,,,,,,,,,,,,,,,,,,,,,,,,,,,,,,,,,,,,,,,,,,,,,,,,,,,,,,,,,,,,,,,,,,,,,,,,,,,4V3JLH,train_y,red_square,top_right,2025-03-06_17h51.03.052,HideSeek_v1,2022.2.5,59.93231233570991,
,,,,,,,,,,,,,,,2,0,2,0,0,0,0,0,,,,,,,,,,,,,,,,,,,,,,,,,,,,,,,conditions/schedules/train_y_first/red_square_00/top_right/instructions/Slide15.png,conditions/schedules/train_y_first/red_square_00/top_right/instructions/Audio15.wav,2276.118383599911,2276.1093205995858,15,"[6.918544200249016, 18.115473000332713, 16.99509620014578, 19.39861229993403, 5.016870600171387, 4.652072499971837, 5.719718300271779, 11.840251700021327, 6.084393199998885, 6.666478000115603, 10.753032699692994, 13.788135500159115, 27.472150899935514, 16.963935500010848, 43.8412973000668]","[0.00022040028125047684, 0.031150999944657087, 0.03240730008110404, 0.04753729980438948, 0.11495619965717196, 0.08175020013004541, 0.04751619976013899, 0.09789810003712773, 0.07866729982197285, 0.11375709995627403, 0.047350500244647264, 13.788142899982631, 0.014148999936878681, 16.963943999726325, 43.84130480000749]",0,,,,,,,,,,,,,,,,,,,,,,,,,,,,,,,,,,,,,,,,,,,,,,,,,,,,,,,,,,,,,,,,,,,,,,,,,,,,,,,,,,,,,,,,,,,,,,,,,,,,,,,,,,,,,,,,,,,,,,,,,,,,4V3JLH,train_y,red_square,top_right,2025-03-06_17h51.03.052,HideSeek_v1,2022.2.5,59.93231233570991,
,,,,,,,,,,,,,,,2,0,2,0,1,0,1,0,,,,,,,,,,,,,,,,,,,,,,,,,,,,,,,conditions/schedules/train_y_first/red_square_00/top_right/instructions/Slide16.png,conditions/schedules/train_y_first/red_square_00/top_right/instructions/Audio16.wav,2320.027722999919,2320.0291322998237,16,"[6.918544200249016, 18.115473000332713, 16.99509620014578, 19.39861229993403, 5.016870600171387, 4.652072499971837, 5.719718300271779, 11.840251700021327, 6.084393199998885, 6.666478000115603, 10.753032699692994, 13.788135500159115, 27.472150899935514, 16.963935500010848, 43.8412973000668, 21.15008380031213]","[0.00022040028125047684, 0.031150999944657087, 0.03240730008110404, 0.04753729980438948, 0.11495619965717196, 0.08175020013004541, 0.04751619976013899, 0.09789810003712773, 0.07866729982197285, 0.11375709995627403, 0.047350500244647264, 13.788142899982631, 0.014148999936878681, 16.963943999726325, 0.014285600278526545, 21.15009110001847]",0,,,,,,,,,,,,,,,,,,,,,,,,,,,,,,,,,,,,,,,,,,,,,,,,,,,,,,,,,,,,,,,,,,,,,,,,,,,,,,,,,,,,,,,,,,,,,,,,,,,,,,,,,,,,,,,,,,,,,,,,,,,,4V3JLH,train_y,red_square,top_right,2025-03-06_17h51.03.052,HideSeek_v1,2022.2.5,59.93231233570991,
,5,5,5,4,0,-1,15,,train_dim1_1,1,30,,,,2,0,2,0,,,,,,,,,0,0,0,0,0,0,0,0,0,0,0,0,,,,,,,,,,,,,,,,,,,,,,,,,stimuli/alien_stimuli/15.png,,,,,,,,,,,,,,,,,,,,,,,,,,,,,,,,,,,,,,,30,,,,,,,,2341.285872099921,2341.285872099921,2341.285872099921,2341.285872099921,2341.285872099921,up,35.57398370001465,0,0,0,99,0.24,0.08,up,35.4640122000128,,,,,,,,,,,,,,,,,,,,,,,,,,,,,,,,,,,,,,,,,,,,,,,,,,,,,,,,,,,,4V3JLH,train_y,red_square,top_right,2025-03-06_17h51.03.052,HideSeek_v1,2022.2.5,59.93231233570991,
,5,5,5,4,0,-1,15,,train_dim1_1,1,30,,,,2,0,2,0,,,,,,,,,0,0,0,0,0,0,0,0,1,0,1,0,,,,,,,,,,,,,,,,,,,,,,,,,,,,,,,,,,,,,,,,,,,,,,,,,,,,,,,,,,,,,,,,30,,,,,,,,2376.86505929986,2376.86505929986,2376.86505929986,2376.86505929986,2376.86505929986,up,2.142544699832797,0,0,0,99,0.24,0.16,up,2.0346873998641968,,,,,,,,,,,,,,,,,,,,,,,,,,,,,,,,,,,,,,,,,,,,,,,,,,,,,,,,,,,,4V3JLH,train_y,red_square,top_right,2025-03-06_17h51.03.052,HideSeek_v1,2022.2.5,59.93231233570991,
,5,5,5,4,0,-1,15,,train_dim1_1,1,30,,,,2,0,2,0,,,,,,,,,0,0,0,0,0,0,0,0,2,0,2,0,,,,,,,,,,,,,,,,,,,,,,,,,,,,,,,,,,,,,,,,,,,,,,,,,,,,,,,,,,,,,,,,30,,,,,,,,2378.9957134998403,2378.9957134998403,2378.9957134998403,2378.9957134998403,2378.9957134998403,left,1.3103976999409497,0,0,0,99,0.15999999999999998,0.16,left,1.2235762001946568,,,,,,,,,,,,,,,,,,,,,,,,,,,,,,,,,,,,,,,,,,,,,,,,,,,,,,,,,,,,4V3JLH,train_y,red_square,top_right,2025-03-06_17h51.03.052,HideSeek_v1,2022.2.5,59.93231233570991,
,5,5,5,4,0,-1,15,,train_dim1_1,1,30,,,,2,0,2,0,,,,,,,,,0,0,0,0,0,0,0,0,3,0,3,0,,,,,,,,,,,,,,,,,,,,,,,,,,,,,,,,,,,,,,,,,,,,,,,,,,,,,,,,,,,,,,,,30,,,,,,,,2380.3144660997204,2380.3144660997204,2380.3144660997204,2380.3144660997204,2380.3144660997204,down,3.495288699865341,0,0,0,99,0.15999999999999998,0.08,down,3.410824100021273,,,,,,,,,,,,,,,,,,,,,,,,,,,,,,,,,,,,,,,,,,,,,,,,,,,,,,,,,,,,4V3JLH,train_y,red_square,top_right,2025-03-06_17h51.03.052,HideSeek_v1,2022.2.5,59.93231233570991,
,5,5,5,4,0,-1,15,,train_dim1_1,1,30,,,,2,0,2,0,,,,,,,,,0,0,0,0,0,0,0,0,4,0,4,0,,,,,,,,,,,,,,,,,,,,,,,,,,,,,,,,,,,,,,,,,,,,,,,,,,,,,,,,,,,,,,,,30,,,,,,,,2383.819514299743,2383.819514299743,2383.819514299743,2383.819514299743,2383.819514299743,right,1.8594353999942541,0,0,0,99,0.24,0.08,right,1.7653250000439584,,,,,,,,,,,,,,,,,,,,,,,,,,,,,,,,,,,,,,,,,,,,,,,,,,,,,,,,,,,,4V3JLH,train_y,red_square,top_right,2025-03-06_17h51.03.052,HideSeek_v1,2022.2.5,59.93231233570991,
,5,5,5,4,0,-1,15,,train_dim1_1,1,30,,,,2,0,2,0,,,,,,,,,0,0,0,0,0,0,0,0,5,0,5,0,,,,,,,,,,,,,,,,,,,,,,,,,,,,,,,,,,,,,,,,,,,,,,,,,,,,,,,,,,,,,,,,30,,,,,,,,2385.685436199885,2385.685436199885,2385.685436199885,2385.685436199885,2385.685436199885,right,0.40958369988948107,0,0,0,99,0.32,0.08,right,0.3236834998242557,,,,,,,,,,,,,,,,,,,,,,,,,,,,,,,,,,,,,,,,,,,,,,,,,,,,,,,,,,,,4V3JLH,train_y,red_square,top_right,2025-03-06_17h51.03.052,HideSeek_v1,2022.2.5,59.93231233570991,
,5,5,5,4,0,-1,15,,train_dim1_1,1,30,,,,2,0,2,0,,,,,,,,,0,0,0,0,0,0,0,0,6,0,6,0,,,,,,,,,,,,,,,,,,,,,,,,,,,,,,,,,,,,,,,,,,,,,,,,,,,,,,,,,,,,,,,,30,,,,,,,,2386.102111999877,2386.102111999877,2386.102111999877,2386.102111999877,2386.102111999877,right,0.6105308998376131,0,0,0,99,0.4,0.08,right,0.5300222001969814,,,,,,,,,,,,,,,,,,,,,,,,,,,,,,,,,,,,,,,,,,,,,,,,,,,,,,,,,,,,4V3JLH,train_y,red_square,top_right,2025-03-06_17h51.03.052,HideSeek_v1,2022.2.5,59.93231233570991,
,5,5,5,4,0,-1,15,,train_dim1_1,1,30,,,,2,0,2,0,,,,,,,,,0,0,0,0,0,0,0,0,7,0,7,0,,,,,,,,,,,,,,,,,,,,,,,,,,,,,,,,,,,,,,,,,,,,,,,,,,,,,,,,,,,,,,,,30,,,,,,,,2386.720532400068,2386.720532400068,2386.720532400068,2386.720532400068,2386.720532400068,down,1.4099968001246452,0,0,0,99,0.4,0.0,down,1.3272938998416066,,,,,,,,,,,,,,,,,,,,,,,,,,,,,,,,,,,,,,,,,,,,,,,,,,,,,,,,,,,,4V3JLH,train_y,red_square,top_right,2025-03-06_17h51.03.052,HideSeek_v1,2022.2.5,59.93231233570991,
,5,5,5,4,0,-1,15,,train_dim1_1,1,30,,,,2,0,2,0,,,,,,,,,0,0,0,0,0,0,0,0,8,0,8,0,,,,,,,,,,,,,,,,,,,,,,,,,,,,,,,,,,,,,,,,,,,,,,,,,,,,,,,,,,,,,,,,30,,,,,,,,2388.137299099937,2388.137299099937,2388.137299099937,2388.137299099937,2388.137299099937,down,1.1930247000418603,0,0,0,99,0.4,-0.08,down,1.1066506002098322,,,,,,,,,,,,,,,,,,,,,,,,,,,,,,,,,,,,,,,,,,,,,,,,,,,,,,,,,,,,4V3JLH,train_y,red_square,top_right,2025-03-06_17h51.03.052,HideSeek_v1,2022.2.5,59.93231233570991,
,5,5,5,4,0,-1,15,,train_dim1_1,1,30,,,,2,0,2,0,,,,,,,,,0,0,0,0,0,0,0,0,9,0,9,0,,,,,,,,,,,,,,,,,,,,,,,,,,,,,,,,,,,,,,,,,,,,,,,,,,,,,,,,,,,,,,,,30,,,,,,,,2389.338176500052,2389.338176500052,2389.338176500052,2389.338176500052,2389.338176500052,down,1.1774083999916911,0,0,0,99,0.4,-0.16,down,1.0925305001437664,,,,,,,,,,,,,,,,,,,,,,,,,,,,,,,,,,,,,,,,,,,,,,,,,,,,,,,,,,,,4V3JLH,train_y,red_square,top_right,2025-03-06_17h51.03.052,HideSeek_v1,2022.2.5,59.93231233570991,
,5,5,5,4,0,-1,15,,train_dim1_1,1,30,,,,2,0,2,0,,,,,,,,,0,0,0,0,0,0,0,0,10,0,10,0,,,,,,,,,,,,,,,,,,,,,,,,,,,,,,,,,,,,,,,,,,,,,,,,,,,,,,,,,,,,,,,,30,,,,,,,,2390.523825299926,2390.523825299926,2390.523825299926,2390.523825299926,2390.523825299926,left,2.0932156001217663,0,0,0,99,0.32,-0.16,left,2.014507600106299,,,,,,,,,,,,,,,,,,,,,,,,,,,,,,,,,,,,,,,,,,,,,,,,,,,,,,,,,,,,4V3JLH,train_y,red_square,top_right,2025-03-06_17h51.03.052,HideSeek_v1,2022.2.5,59.93231233570991,
,5,5,5,4,0,-1,15,,train_dim1_1,1,30,,,,2,0,2,0,,,,,,,,,0,0,0,0,0,0,0,0,11,0,11,0,,,,,,,,,,,,,,,,,,,,,,,,,,,,,,,,,,,,,,,,,,,,,,,,,,,,,,,,,,,,,,,,30,,,,,,,,2392.6270870999433,2392.6270870999433,2392.6270870999433,2392.6270870999433,2392.6270870999433,left,0.6750525999814272,0,0,0,99,0.24,-0.16,left,0.5917911999858916,,,,,,,,,,,,,,,,,,,,,,,,,,,,,,,,,,,,,,,,,,,,,,,,,,,,,,,,,,,,4V3JLH,train_y,red_square,top_right,2025-03-06_17h51.03.052,HideSeek_v1,2022.2.5,59.93231233570991,
,5,5,5,4,0,-1,15,,train_dim1_1,1,30,,,,2,0,2,0,,,,,,,,,0,0,0,0,0,0,0,0,12,0,12,0,,,,,,,,,,,,,,,,,,,,,,,,,,,,,,,,,,,,,,,,,,,,,,,,,,,,,,,,,,,,,,,,30,,,,,,,,2393.308104099706,2393.308104099706,2393.308104099706,2393.308104099706,2393.308104099706,down,1.2439407999627292,0,0,0,99,0.24,-0.24,down,1.1669286000542343,,,,,,,,,,,,,,,,,,,,,,,,,,,,,,,,,,,,,,,,,,,,,,,,,,,,,,,,,,,,4V3JLH,train_y,red_square,top_right,2025-03-06_17h51.03.052,HideSeek_v1,2022.2.5,59.93231233570991,
,5,5,5,4,0,-1,15,,train_dim1_1,1,30,,,,2,0,2,0,,,,,,,,,0,0,0,0,0,0,0,0,13,0,13,0,,,,,,,,,,,,,,,,,,,,,,,,,,,,,,,,,,,,,,,,,,,,,,,,,,,,,,,,,,,,,,,,30,,,,,,,,2394.5597982998006,2394.5597982998006,2394.5597982998006,2394.5597982998006,2394.5597982998006,return,0.7266422002576292,0,0,0,0,0.24,-0.24,return,0.6383583000861108,-3,0,0.24,-0.24,,,,,,,,,,,,,,,,,,,,,,,,,,,,,,,,,,,,,,,,,,,,,,,,,,,,,,,,4V3JLH,train_y,red_square,top_right,2025-03-06_17h51.03.052,HideSeek_v1,2022.2.5,59.93231233570991,
,8,7,8,7,0,0,16,,train_dim1_1,2,30,,,,2,0,2,0,,,,,,,,,0,0,0,0,0,1,1,1,0,0,0,0,,,,,,,,,,,,,,,,,,,,,,,,,stimuli/alien_stimuli/16.png,,,,,,,,,,,,,,,,,,,,,,,,,,,,,stimuli/alien_stimuli/15.png,15,5,3,,,,,,,30,,,,,,,,2418.6612227000296,2418.6612227000296,2418.6612227000296,2418.6612227000296,2418.6612227000296,left,4.622035999782383,0,0,0,99,0.39999999999999997,0.16,left,4.5211045001633465,,,,,2417.092996600084,2418.6612227000296,0.24,-0.08,0.08,0.0,-0.04,0.24,0.24,0.24,-0.08,2396.872313799802,2396.872313799802,2396.872313799802,2396.872313799802,2396.872313799802,2396.872313799802,2396.872313799802,2396.872313799802,2396.859427599702,20.352397099602968,return,20.192411000374705,,,,,,,,,,,,,,,,,,,,,,,,,,,,,,,,,4V3JLH,train_y,red_square,top_right,2025-03-06_17h51.03.052,HideSeek_v1,2022.2.5,59.93231233570991,
,8,7,8,7,0,0,16,,train_dim1_1,2,30,,,,2,0,2,0,,,,,,,,,0,0,0,0,0,1,1,1,1,0,1,0,,,,,,,,,,,,,,,,,,,,,,,,,,,,,,,,,,,,,,,,,,,,,,,,,,,,,,,,,,,,,,,,30,,,,,,,,2423.2841467000544,2423.2841467000544,2423.2841467000544,2423.2841467000544,2423.2841467000544,left,0.5423127003014088,0,0,0,99,0.31999999999999995,0.16,left,0.4490372999571264,,,,,,,,,,,,,,,,,,,,,,,,,,,,,,,,,,,,,,,,,,,,,,,,,,,,,,,,,,,,4V3JLH,train_y,red_square,top_right,2025-03-06_17h51.03.052,HideSeek_v1,2022.2.5,59.93231233570991,
,8,7,8,7,0,0,16,,train_dim1_1,2,30,,,,2,0,2,0,,,,,,,,,0,0,0,0,0,1,1,1,2,0,2,0,,,,,,,,,,,,,,,,,,,,,,,,,,,,,,,,,,,,,,,,,,,,,,,,,,,,,,,,,,,,,,,,30,,,,,,,,2423.8326262999326,2423.8326262999326,2423.8326262999326,2423.8326262999326,2423.8326262999326,down,6.314840300008655,0,0,0,99,0.31999999999999995,0.08,down,6.222797399852425,,,,,,,,,,,,,,,,,,,,,,,,,,,,,,,,,,,,,,,,,,,,,,,,,,,,,,,,,,,,4V3JLH,train_y,red_square,top_right,2025-03-06_17h51.03.052,HideSeek_v1,2022.2.5,59.93231233570991,
,8,7,8,7,0,0,16,,train_dim1_1,2,30,,,,2,0,2,0,,,,,,,,,0,0,0,0,0,1,1,1,3,0,3,0,,,,,,,,,,,,,,,,,,,,,,,,,,,,,,,,,,,,,,,,,,,,,,,,,,,,,,,,,,,,,,,,30,,,,,,,,2430.1573542999104,2430.1573542999104,2430.1573542999104,2430.1573542999104,2430.1573542999104,left,4.528661199845374,0,0,0,99,0.23999999999999994,0.08,left,4.445551400072873,,,,,,,,,,,,,,,,,,,,,,,,,,,,,,,,,,,,,,,,,,,,,,,,,,,,,,,,,,,,4V3JLH,train_y,red_square,top_right,2025-03-06_17h51.03.052,HideSeek_v1,2022.2.5,59.93231233570991,
,8,7,8,7,0,0,16,,train_dim1_1,2,30,,,,2,0,2,0,,,,,,,,,0,0,0,0,0,1,1,1,4,0,4,0,,,,,,,,,,,,,,,,,,,,,,,,,,,,,,,,,,,,,,,,,,,,,,,,,,,,,,,,,,,,,,,,30,,,,,,,,2434.6965645998716,2434.6965645998716,2434.6965645998716,2434.6965645998716,2434.6965645998716,return,5.713641999755055,0,0,0,0,0.23999999999999994,0.08,return,5.631395500153303,-4,-3,0.23999999999999994,0.08,,,,,,,,,,,,,,,,,,,,,,,,,,,,,,,,,,,,,,,,,,,,,,,,,,,,,,,,4V3JLH,train_y,red_square,top_right,2025-03-06_17h51.03.052,HideSeek_v1,2022.2.5,59.93231233570991,
,7,8,7,5,0,-3,13,,train_dim1_1,3,30,,,,2,0,2,0,,,,,,,,,0,0,0,0,0,2,2,2,0,0,0,0,,,,,,,,,,,,,,,,,,,,,,,,,stimuli/alien_stimuli/13.png,,,,,,,,,,,,,,,,,,,,,,,,,,,,,stimuli/alien_stimuli/16.png,16,8,4,,,,,,,30,,,,,,,,2450.8796603996307,2450.8796603996307,2450.8796603996307,2450.8796603996307,2450.8796603996307,down,7.144611699972302,0,0,0,99,0.4,0.15999999999999998,down,7.057450100313872,,,,,2449.319834299851,2450.8796603996307,0.48,0.16,0.0,0.0,0.16,0.48,0.48,0.48,0.16,2441.9792789998464,2441.9792789998464,2441.9792789998464,2441.9792789998464,2441.9792789998464,2441.9792789998464,2441.9792789998464,2441.9792789998464,2441.9799393997528,7.458534899633378,return,7.315845100209117,,,,,,,,,,,,,,,,,,,,,,,,,,,,,,,,,4V3JLH,train_y,red_square,top_right,2025-03-06_17h51.03.052,HideSeek_v1,2022.2.5,59.93231233570991,
,7,8,7,5,0,-3,13,,train_dim1_1,3,30,,,,2,0,2,0,,,,,,,,,0,0,0,0,0,2,2,2,1,0,1,0,,,,,,,,,,,,,,,,,,,,,,,,,,,,,,,,,,,,,,,,,,,,,,,,,,,,,,,,,,,,,,,,30,,,,,,,,2458.028033999726,2458.028033999726,2458.028033999726,2458.028033999726,2458.028033999726,down,1.6437391000799835,0,0,0,99,0.4,0.07999999999999997,down,1.5558373997919261,,,,,,,,,,,,,,,,,,,,,,,,,,,,,,,,,,,,,,,,,,,,,,,,,,,,,,,,,,,,4V3JLH,train_y,red_square,top_right,2025-03-06_17h51.03.052,HideSeek_v1,2022.2.5,59.93231233570991,
,7,8,7,5,0,-3,13,,train_dim1_1,3,30,,,,2,0,2,0,,,,,,,,,0,0,0,0,0,2,2,2,2,0,2,0,,,,,,,,,,,,,,,,,,,,,,,,,,,,,,,,,,,,,,,,,,,,,,,,,,,,,,,,,,,,,,,,30,,,,,,,,2459.683836899698,2459.683836899698,2459.683836899698,2459.683836899698,2459.683836899698,left,1.5105567001737654,0,0,0,99,0.32,0.07999999999999997,left,1.4262632001191378,,,,,,,,,,,,,,,,,,,,,,,,,,,,,,,,,,,,,,,,,,,,,,,,,,,,,,,,,,,,4V3JLH,train_y,red_square,top_right,2025-03-06_17h51.03.052,HideSeek_v1,2022.2.5,59.93231233570991,
,7,8,7,5,0,-3,13,,train_dim1_1,3,30,,,,2,0,2,0,,,,,,,,,0,0,0,0,0,2,2,2,3,0,3,0,,,,,,,,,,,,,,,,,,,,,,,,,,,,,,,,,,,,,,,,,,,,,,,,,,,,,,,,,,,,,,,,30,,,,,,,,2461.197090199683,2461.197090199683,2461.197090199683,2461.197090199683,2461.197090199683,left,0.8932829000987113,0,0,0,99,0.24,0.07999999999999997,left,0.8119255001656711,,,,,,,,,,,,,,,,,,,,,,,,,,,,,,,,,,,,,,,,,,,,,,,,,,,,,,,,,,,,4V3JLH,train_y,red_square,top_right,2025-03-06_17h51.03.052,HideSeek_v1,2022.2.5,59.93231233570991,
,7,8,7,5,0,-3,13,,train_dim1_1,3,30,,,,2,0,2,0,,,,,,,,,0,0,0,0,0,2,2,2,4,0,4,0,,,,,,,,,,,,,,,,,,,,,,,,,,,,,,,,,,,,,,,,,,,,,,,,,,,,,,,,,,,,,,,,30,,,,,,,,2462.097967099864,2462.097967099864,2462.097967099864,2462.097967099864,2462.097967099864,up,3.062346199993044,0,0,0,99,0.24,0.15999999999999998,up,2.9860344999469817,,,,,,,,,,,,,,,,,,,,,,,,,,,,,,,,,,,,,,,,,,,,,,,,,,,,,,,,,,,,4V3JLH,train_y,red_square,top_right,2025-03-06_17h51.03.052,HideSeek_v1,2022.2.5,59.93231233570991,
,7,8,7,5,0,-3,13,,train_dim1_1,3,30,,,,2,0,2,0,,,,,,,,,0,0,0,0,0,2,2,2,5,0,5,0,,,,,,,,,,,,,,,,,,,,,,,,,,,,,,,,,,,,,,,,,,,,,,,,,,,,,,,,,,,,,,,,30,,,,,,,,2465.169726399705,2465.169726399705,2465.169726399705,2465.169726399705,2465.169726399705,return,2.8093528002500534,0,0,0,0,0.24,0.15999999999999998,return,2.727699300274253,-5,-5,0.24,0.15999999999999998,,,,,,,,,,,,,,,,,,,,,,,,,,,,,,,,,,,,,,,,,,,,,,,,,,,,,,,,4V3JLH,train_y,red_square,top_right,2025-03-06_17h51.03.052,HideSeek_v1,2022.2.5,59.93231233570991,
,5,6,5,2,0,-4,12,,train_dim1_1,4,30,,,,2,0,2,0,,,,,,,,,0,0,0,0,0,3,3,3,0,0,0,0,,,,,,,,,,,,,,,,,,,,,,,,,stimuli/alien_stimuli/12.png,,,,,,,,,,,,,,,,,,,,,,,,,,,,,stimuli/alien_stimuli/13.png,13,7,5,,,,,,,30,,,,,,,,2477.44076259993,2477.44076259993,2477.44076259993,2477.44076259993,2477.44076259993,down,4.66827780008316,0,0,0,99,0.24,0.0,down,4.5845639002509415,,,,,2475.875039599836,2477.44076259993,0.4,0,0.24,0.0,0.12,0.4,0.4,0.4,0,2469.5498620998114,2469.5498620998114,2469.5498620998114,2469.5498620998114,2469.5498620998114,2469.5498620998114,2469.5498620998114,2469.5498620998114,2469.5362775998656,6.440600799862295,return,6.306828800123185,,,,,,,,,,,,,,,,,,,,,,,,,,,,,,,,,4V3JLH,train_y,red_square,top_right,2025-03-06_17h51.03.052,HideSeek_v1,2022.2.5,59.93231233570991,
,5,6,5,2,0,-4,12,,train_dim1_1,4,30,,,,2,0,2,0,,,,,,,,,0,0,0,0,0,3,3,3,1,0,1,0,,,,,,,,,,,,,,,,,,,,,,,,,,,,,,,,,,,,,,,,,,,,,,,,,,,,,,,,,,,,,,,,30,,,,,,,,2482.115298599936,2482.115298599936,2482.115298599936,2482.115298599936,2482.115298599936,right,1.526796099729836,0,0,0,99,0.32,0.0,right,1.4403333999216557,,,,,,,,,,,,,,,,,,,,,,,,,,,,,,,,,,,,,,,,,,,,,,,,,,,,,,,,,,,,4V3JLH,train_y,red_square,top_right,2025-03-06_17h51.03.052,HideSeek_v1,2022.2.5,59.93231233570991,
,5,6,5,2,0,-4,12,,train_dim1_1,4,30,,,,2,0,2,0,,,,,,,,,0,0,0,0,0,3,3,3,2,0,2,0,,,,,,,,,,,,,,,,,,,,,,,,,,,,,,,,,,,,,,,,,,,,,,,,,,,,,,,,,,,,,,,,30,,,,,,,,2483.649627499748,2483.649627499748,2483.649627499748,2483.649627499748,2483.649627499748,up,1.8772076000459492,0,0,0,99,0.32,0.08,up,1.7849820000119507,,,,,,,,,,,,,,,,,,,,,,,,,,,,,,,,,,,,,,,,,,,,,,,,,,,,,,,,,,,,4V3JLH,train_y,red_square,top_right,2025-03-06_17h51.03.052,HideSeek_v1,2022.2.5,59.93231233570991,
,5,6,5,2,0,-4,12,,train_dim1_1,4,30,,,,2,0,2,0,,,,,,,,,0,0,0,0,0,3,3,3,3,0,3,0,,,,,,,,,,,,,,,,,,,,,,,,,,,,,,,,,,,,,,,,,,,,,,,,,,,,,,,,,,,,,,,,30,,,,,,,,2485.5335319000296,2485.5335319000296,2485.5335319000296,2485.5335319000296,2485.5335319000296,up,0.5597659000195563,0,0,0,99,0.32,0.16,up,0.48154590046033263,,,,,,,,,,,,,,,,,,,,,,,,,,,,,,,,,,,,,,,,,,,,,,,,,,,,,,,,,,,,4V3JLH,train_y,red_square,top_right,2025-03-06_17h51.03.052,HideSeek_v1,2022.2.5,59.93231233570991,
,5,6,5,2,0,-4,12,,train_dim1_1,4,30,,,,2,0,2,0,,,,,,,,,0,0,0,0,0,3,3,3,4,0,4,0,,,,,,,,,,,,,,,,,,,,,,,,,,,,,,,,,,,,,,,,,,,,,,,,,,,,,,,,,,,,,,,,30,,,,,,,,2486.10154409986,2486.10154409986,2486.10154409986,2486.10154409986,2486.10154409986,left,1.2274883999489248,0,0,0,99,0.24,0.16,left,1.143225200008601,,,,,,,,,,,,,,,,,,,,,,,,,,,,,,,,,,,,,,,,,,,,,,,,,,,,,,,,,,,,4V3JLH,train_y,red_square,top_right,2025-03-06_17h51.03.052,HideSeek_v1,2022.2.5,59.93231233570991,
,5,6,5,2,0,-4,12,,train_dim1_1,4,30,,,,2,0,2,0,,,,,,,,,0,0,0,0,0,3,3,3,5,0,5,0,,,,,,,,,,,,,,,,,,,,,,,,,,,,,,,,,,,,,,,,,,,,,,,,,,,,,,,,,,,,,,,,30,,,,,,,,2487.337130599655,2487.337130599655,2487.337130599655,2487.337130599655,2487.337130599655,up,0.5585500001907349,0,0,0,99,0.24,0.24,up,0.4757766998372972,,,,,,,,,,,,,,,,,,,,,,,,,,,,,,,,,,,,,,,,,,,,,,,,,,,,,,,,,,,,4V3JLH,train_y,red_square,top_right,2025-03-06_17h51.03.052,HideSeek_v1,2022.2.5,59.93231233570991,
,5,6,5,2,0,-4,12,,train_dim1_1,4,30,,,,2,0,2,0,,,,,,,,,0,0,0,0,0,3,3,3,6,0,6,0,,,,,,,,,,,,,,,,,,,,,,,,,,,,,,,,,,,,,,,,,,,,,,,,,,,,,,,,,,,,,,,,30,,,,,,,,2487.9069970999844,2487.9069970999844,2487.9069970999844,2487.9069970999844,2487.9069970999844,return,1.210417800117284,0,0,0,0,0.24,0.24,return,1.1280557001009583,-3,-5,0.24,0.24,,,,,,,,,,,,,,,,,,,,,,,,,,,,,,,,,,,,,,,,,,,,,,,,,,,,,,,,4V3JLH,train_y,red_square,top_right,2025-03-06_17h51.03.052,HideSeek_v1,2022.2.5,59.93231233570991,
,8,8,8,3,0,-5,11,,train_dim1_1,5,30,,,,2,0,2,0,,,,,,,,,0,0,0,0,0,4,4,4,0,0,0,0,,,,,,,,,,,,,,,,,,,,,,,,,stimuli/alien_stimuli/11.png,,,,,,,,,,,,,,,,,,,,,,,,,,,,,stimuli/alien_stimuli/12.png,12,5,6,,,,,,,30,,,,,,,,2497.5321752997115,2497.5321752997115,2497.5321752997115,2497.5321752997115,2497.5321752997115,left,2.2735365997068584,0,0,0,99,0.39999999999999997,0.24,left,2.186844900250435,,,,,2495.975677599665,2497.5321752997115,0.24,-0.24,0.32,0.0,-0.07999999999999999,0.24,0.24,0.24,-0.24,2490.6894251997583,2490.6894251997583,2490.6894251997583,2490.6894251997583,2490.6894251997583,2490.6894251997583,2490.6894251997583,2490.6894251997583,2490.6872201994993,5.407029000110924,return,5.261864100117236,,,,,,,,,,,,,,,,,,,,,,,,,,,,,,,,,4V3JLH,train_y,red_square,top_right,2025-03-06_17h51.03.052,HideSeek_v1,2022.2.5,59.93231233570991,
,8,8,8,3,0,-5,11,,train_dim1_1,5,30,,,,2,0,2,0,,,,,,,,,0,0,0,0,0,4,4,4,1,0,1,0,,,,,,,,,,,,,,,,,,,,,,,,,,,,,,,,,,,,,,,,,,,,,,,,,,,,,,,,,,,,,,,,30,,,,,,,,2499.8135057999752,2499.8135057999752,2499.8135057999752,2499.8135057999752,2499.8135057999752,left,0.4255798999220133,0,0,0,99,0.31999999999999995,0.24,left,0.3488506004214287,,,,,,,,,,,,,,,,,,,,,,,,,,,,,,,,,,,,,,,,,,,,,,,,,,,,,,,,,,,,4V3JLH,train_y,red_square,top_right,2025-03-06_17h51.03.052,HideSeek_v1,2022.2.5,59.93231233570991,
,8,8,8,3,0,-5,11,,train_dim1_1,5,30,,,,2,0,2,0,,,,,,,,,0,0,0,0,0,4,4,4,2,0,2,0,,,,,,,,,,,,,,,,,,,,,,,,,,,,,,,,,,,,,,,,,,,,,,,,,,,,,,,,,,,,,,,,30,,,,,,,,2500.247032699641,2500.247032699641,2500.247032699641,2500.247032699641,2500.247032699641,left,0.4764927001670003,0,0,0,99,0.23999999999999994,0.24,left,0.3934321003034711,,,,,,,,,,,,,,,,,,,,,,,,,,,,,,,,,,,,,,,,,,,,,,,,,,,,,,,,,,,,4V3JLH,train_y,red_square,top_right,2025-03-06_17h51.03.052,HideSeek_v1,2022.2.5,59.93231233570991,
,8,8,8,3,0,-5,11,,train_dim1_1,5,30,,,,2,0,2,0,,,,,,,,,0,0,0,0,0,4,4,4,3,0,3,0,,,,,,,,,,,,,,,,,,,,,,,,,,,,,,,,,,,,,,,,,,,,,,,,,,,,,,,,,,,,,,,,30,,,,,,,,2500.729960099794,2500.729960099794,2500.729960099794,2500.729960099794,2500.729960099794,down,1.1771420002914965,0,0,0,99,0.23999999999999994,0.15999999999999998,down,1.0925933001562953,,,,,,,,,,,,,,,,,,,,,,,,,,,,,,,,,,,,,,,,,,,,,,,,,,,,,,,,,,,,4V3JLH,train_y,red_square,top_right,2025-03-06_17h51.03.052,HideSeek_v1,2022.2.5,59.93231233570991,
,8,8,8,3,0,-5,11,,train_dim1_1,5,30,,,,2,0,2,0,,,,,,,,,0,0,0,0,0,4,4,4,4,0,4,0,,,,,,,,,,,,,,,,,,,,,,,,,,,,,,,,,,,,,,,,,,,,,,,,,,,,,,,,,,,,,,,,30,,,,,,,,2501.914007099811,2501.914007099811,2501.914007099811,2501.914007099811,2501.914007099811,down,0.42690820014104247,0,0,0,99,0.23999999999999994,0.07999999999999997,down,0.3445994001813233,,,,,,,,,,,,,,,,,,,,,,,,,,,,,,,,,,,,,,,,,,,,,,,,,,,,,,,,,,,,4V3JLH,train_y,red_square,top_right,2025-03-06_17h51.03.052,HideSeek_v1,2022.2.5,59.93231233570991,
,8,8,8,3,0,-5,11,,train_dim1_1,5,30,,,,2,0,2,0,,,,,,,,,0,0,0,0,0,4,4,4,5,0,5,0,,,,,,,,,,,,,,,,,,,,,,,,,,,,,,,,,,,,,,,,,,,,,,,,,,,,,,,,,,,,,,,,30,,,,,,,,2502.348025799729,2502.348025799729,2502.348025799729,2502.348025799729,2502.348025799729,down,0.44288739981129766,0,0,0,99,0.23999999999999994,-2.7755575615628914e-17,down,0.3654352999292314,,,,,,,,,,,,,,,,,,,,,,,,,,,,,,,,,,,,,,,,,,,,,,,,,,,,,,,,,,,,4V3JLH,train_y,red_square,top_right,2025-03-06_17h51.03.052,HideSeek_v1,2022.2.5,59.93231233570991,
,8,8,8,3,0,-5,11,,train_dim1_1,5,30,,,,2,0,2,0,,,,,,,,,0,0,0,0,0,4,4,4,6,0,6,0,,,,,,,,,,,,,,,,,,,,,,,,,,,,,,,,,,,,,,,,,,,,,,,,,,,,,,,,,,,,,,,,30,,,,,,,,2502.798490599729,2502.798490599729,2502.798490599729,2502.798490599729,2502.798490599729,right,1.6109996000304818,0,0,0,99,0.31999999999999995,-2.7755575615628914e-17,right,1.534132500179112,,,,,,,,,,,,,,,,,,,,,,,,,,,,,,,,,,,,,,,,,,,,,,,,,,,,,,,,,,,,4V3JLH,train_y,red_square,top_right,2025-03-06_17h51.03.052,HideSeek_v1,2022.2.5,59.93231233570991,
,8,8,8,3,0,-5,11,,train_dim1_1,5,30,,,,2,0,2,0,,,,,,,,,0,0,0,0,0,4,4,4,7,0,7,0,,,,,,,,,,,,,,,,,,,,,,,,,,,,,,,,,,,,,,,,,,,,,,,,,,,,,,,,,,,,,,,,30,,,,,,,,2504.416160199791,2504.416160199791,2504.416160199791,2504.416160199791,2504.416160199791,right,0.42639270005747676,0,0,0,99,0.39999999999999997,-2.7755575615628914e-17,right,0.33900219993665814,,,,,,,,,,,,,,,,,,,,,,,,,,,,,,,,,,,,,,,,,,,,,,,,,,,,,,,,,,,,4V3JLH,train_y,red_square,top_right,2025-03-06_17h51.03.052,HideSeek_v1,2022.2.5,59.93231233570991,
,8,8,8,3,0,-5,11,,train_dim1_1,5,30,,,,2,0,2,0,,,,,,,,,0,0,0,0,0,4,4,4,8,0,8,0,,,,,,,,,,,,,,,,,,,,,,,,,,,,,,,,,,,,,,,,,,,,,,,,,,,,,,,,,,,,,,,,30,,,,,,,,2504.849654099904,2504.849654099904,2504.849654099904,2504.849654099904,2504.849654099904,right,0.3931311001069844,0,0,0,99,0.48,-2.7755575615628914e-17,right,0.3160605002194643,,,,,,,,,,,,,,,,,,,,,,,,,,,,,,,,,,,,,,,,,,,,,,,,,,,,,,,,,,,,4V3JLH,train_y,red_square,top_right,2025-03-06_17h51.03.052,HideSeek_v1,2022.2.5,59.93231233570991,
,8,8,8,3,0,-5,11,,train_dim1_1,5,30,,,,2,0,2,0,,,,,,,,,0,0,0,0,0,4,4,4,9,0,9,0,,,,,,,,,,,,,,,,,,,,,,,,,,,,,,,,,,,,,,,,,,,,,,,,,,,,,,,,,,,,,,,,30,,,,,,,,2505.2502310997806,2505.2502310997806,2505.2502310997806,2505.2502310997806,2505.2502310997806,return,0.7767299003899097,0,0,0,0,0.48,-2.7755575615628914e-17,return,0.6905649001710117,-6,-5,0.48,-2.7755575615628914e-17,,,,,,,,,,,,,,,,,,,,,,,,,,,,,,,,,,,,,,,,,,,,,,,,,,,,,,,,4V3JLH,train_y,red_square,top_right,2025-03-06_17h51.03.052,HideSeek_v1,2022.2.5,59.93231233570991,
,6,9,6,5,0,-4,12,,train_dim1_1,6,30,,,,2,0,2,0,,,,,,,,,0,0,0,0,0,5,5,5,0,0,0,0,,,,,,,,,,,,,,,,,,,,,,,,,stimuli/alien_stimuli/12.png,,,,,,,,,,,,,,,,,,,,,,,,,,,,,stimuli/alien_stimuli/11.png,11,8,7,,,,,,,30,,,,,,,,2515.853560799733,2515.853560799733,2515.853560799733,2515.853560799733,2515.853560799733,down,2.051344499923289,0,0,0,99,0.32,0.24,down,1.9668362000957131,,,,,2514.290218899958,2515.853560799733,0.48,-0.16,0.4,0.0,0.039999999999999994,0.48,0.48,0.48,-0.16,2507.599944199901,2507.599944199901,2507.599944199901,2507.599944199901,2507.599944199901,2507.599944199901,2507.599944199901,2507.599944199901,2507.6012422996573,6.807747900020331,return,6.6650384003296494,,,,,,,,,,,,,,,,,,,,,,,,,,,,,,,,,4V3JLH,train_y,red_square,top_right,2025-03-06_17h51.03.052,HideSeek_v1,2022.2.5,59.93231233570991,
,6,9,6,5,0,-4,12,,train_dim1_1,6,30,,,,2,0,2,0,,,,,,,,,0,0,0,0,0,5,5,5,1,0,1,0,,,,,,,,,,,,,,,,,,,,,,,,,,,,,,,,,,,,,,,,,,,,,,,,,,,,,,,,,,,,,,,,30,,,,,,,,2517.9112176997587,2517.9112176997587,2517.9112176997587,2517.9112176997587,2517.9112176997587,down,0.5930102998390794,0,0,0,99,0.32,0.15999999999999998,down,0.5041469000279903,,,,,,,,,,,,,,,,,,,,,,,,,,,,,,,,,,,,,,,,,,,,,,,,,,,,,,,,,,,,4V3JLH,train_y,red_square,top_right,2025-03-06_17h51.03.052,HideSeek_v1,2022.2.5,59.93231233570991,
,6,9,6,5,0,-4,12,,train_dim1_1,6,30,,,,2,0,2,0,,,,,,,,,0,0,0,0,0,5,5,5,2,0,2,0,,,,,,,,,,,,,,,,,,,,,,,,,,,,,,,,,,,,,,,,,,,,,,,,,,,,,,,,,,,,,,,,30,,,,,,,,2518.5112328999676,2518.5112328999676,2518.5112328999676,2518.5112328999676,2518.5112328999676,down,0.7099642995744944,0,0,0,99,0.32,0.07999999999999997,down,0.6179291000589728,,,,,,,,,,,,,,,,,,,,,,,,,,,,,,,,,,,,,,,,,,,,,,,,,,,,,,,,,,,,4V3JLH,train_y,red_square,top_right,2025-03-06_17h51.03.052,HideSeek_v1,2022.2.5,59.93231233570991,
,6,9,6,5,0,-4,12,,train_dim1_1,6,30,,,,2,0,2,0,,,,,,,,,0,0,0,0,0,5,5,5,3,0,3,0,,,,,,,,,,,,,,,,,,,,,,,,,,,,,,,,,,,,,,,,,,,,,,,,,,,,,,,,,,,,,,,,30,,,,,,,,2519.2285266998224,2519.2285266998224,2519.2285266998224,2519.2285266998224,2519.2285266998224,right,2.077671100385487,0,0,0,99,0.4,0.07999999999999997,right,2.000079299788922,,,,,,,,,,,,,,,,,,,,,,,,,,,,,,,,,,,,,,,,,,,,,,,,,,,,,,,,,,,,4V3JLH,train_y,red_square,top_right,2025-03-06_17h51.03.052,HideSeek_v1,2022.2.5,59.93231233570991,
,6,9,6,5,0,-4,12,,train_dim1_1,6,30,,,,2,0,2,0,,,,,,,,,0,0,0,0,0,5,5,5,4,0,4,0,,,,,,,,,,,,,,,,,,,,,,,,,,,,,,,,,,,,,,,,,,,,,,,,,,,,,,,,,,,,,,,,30,,,,,,,,2521.3129122997634,2521.3129122997634,2521.3129122997634,2521.3129122997634,2521.3129122997634,down,3.963105299975723,0,0,0,99,0.4,-2.7755575615628914e-17,down,3.872770800255239,,,,,,,,,,,,,,,,,,,,,,,,,,,,,,,,,,,,,,,,,,,,,,,,,,,,,,,,,,,,4V3JLH,train_y,red_square,top_right,2025-03-06_17h51.03.052,HideSeek_v1,2022.2.5,59.93231233570991,
,6,9,6,5,0,-4,12,,train_dim1_1,6,30,,,,2,0,2,0,,,,,,,,,0,0,0,0,0,5,5,5,5,0,5,0,,,,,,,,,,,,,,,,,,,,,,,,,,,,,,,,,,,,,,,,,,,,,,,,,,,,,,,,,,,,,,,,30,,,,,,,,2525.28484189976,2525.28484189976,2525.28484189976,2525.28484189976,2525.28484189976,down,1.0597722004167736,0,0,0,99,0.4,-0.08000000000000003,down,0.9750797003507614,,,,,,,,,,,,,,,,,,,,,,,,,,,,,,,,,,,,,,,,,,,,,,,,,,,,,,,,,,,,4V3JLH,train_y,red_square,top_right,2025-03-06_17h51.03.052,HideSeek_v1,2022.2.5,59.93231233570991,
,6,9,6,5,0,-4,12,,train_dim1_1,6,30,,,,2,0,2,0,,,,,,,,,0,0,0,0,0,5,5,5,6,0,6,0,,,,,,,,,,,,,,,,,,,,,,,,,,,,,,,,,,,,,,,,,,,,,,,,,,,,,,,,,,,,,,,,30,,,,,,,,2526.3513662000187,2526.3513662000187,2526.3513662000187,2526.3513662000187,2526.3513662000187,left,1.77744169998914,0,0,0,99,0.32,-0.08000000000000003,left,1.6927935001440346,,,,,,,,,,,,,,,,,,,,,,,,,,,,,,,,,,,,,,,,,,,,,,,,,,,,,,,,,,,,4V3JLH,train_y,red_square,top_right,2025-03-06_17h51.03.052,HideSeek_v1,2022.2.5,59.93231233570991,
,6,9,6,5,0,-4,12,,train_dim1_1,6,30,,,,2,0,2,0,,,,,,,,,0,0,0,0,0,5,5,5,7,0,7,0,,,,,,,,,,,,,,,,,,,,,,,,,,,,,,,,,,,,,,,,,,,,,,,,,,,,,,,,,,,,,,,,30,,,,,,,,2528.137245999649,2528.137245999649,2528.137245999649,2528.137245999649,2528.137245999649,return,1.843716099858284,0,1,0,0,0.32,-0.08000000000000003,return,1.7656092997640371,-11,-5,0.32,-0.08000000000000003,,,,,,,,,,,,,,,,,,,,,,,,,,,,,,,,,,,,,,,,,,,,,,,,,,,,,,,,4V3JLH,train_y,red_square,top_right,2025-03-06_17h51.03.052,HideSeek_v1,2022.2.5,59.93231233570991,
,6,8,6,5,0,-3,13,,train_dim1_1,7,30,,,,2,0,2,0,,,,,,,,,0,0,0,0,0,6,6,6,0,0,0,0,,,,,,,,,,,,,,,,,,,,,,,,,stimuli/alien_stimuli/13.png,,,,,,,,,,,,,,,,,,,,,,,,,,,,,stimuli/alien_stimuli/12.png,12,6,8,,,,,,,30,,,,,,,,2549.8252491997555,2549.8252491997555,2549.8252491997555,2549.8252491997555,2549.8252491997555,left,1.937107200268656,0,1,0,99,0.24,0.24,left,1.8333823001012206,,,,,2548.253408599645,2549.8252491997555,0.32,0,0.32,0.0,0.16,0.32,0.32,0.32,0,2531.556607000064,2531.556607000064,2531.556607000064,2531.556607000064,2531.556607000064,2531.556607000064,2531.556607000064,2531.556607000064,2531.5544756995514,16.81875339988619,return,16.67778450017795,,,,,,,,,,,,,,,,,,,,,,,,,,,,,,,,,4V3JLH,train_y,red_square,top_right,2025-03-06_17h51.03.052,HideSeek_v1,2022.2.5,59.93231233570991,
,6,8,6,5,0,-3,13,,train_dim1_1,7,30,,,,2,0,2,0,,,,,,,,,0,0,0,0,0,6,6,6,1,0,1,0,,,,,,,,,,,,,,,,,,,,,,,,,,,,,,,,,,,,,,,,,,,,,,,,,,,,,,,,,,,,,,,,30,,,,,,,,2551.755424999632,2551.755424999632,2551.755424999632,2551.755424999632,2551.755424999632,left,0.3929821001365781,0,1,0,99,0.15999999999999998,0.24,left,0.3150364998728037,,,,,,,,,,,,,,,,,,,,,,,,,,,,,,,,,,,,,,,,,,,,,,,,,,,,,,,,,,,,4V3JLH,train_y,red_square,top_right,2025-03-06_17h51.03.052,HideSeek_v1,2022.2.5,59.93231233570991,
,6,8,6,5,0,-3,13,,train_dim1_1,7,30,,,,2,0,2,0,,,,,,,,,0,0,0,0,0,6,6,6,2,0,2,0,,,,,,,,,,,,,,,,,,,,,,,,,,,,,,,,,,,,,,,,,,,,,,,,,,,,,,,,,,,,,,,,30,,,,,,,,2552.1553675998002,2552.1553675998002,2552.1553675998002,2552.1553675998002,2552.1553675998002,down,0.9266293002292514,0,1,0,99,0.15999999999999998,0.15999999999999998,down,0.8499648999422789,,,,,,,,,,,,,,,,,,,,,,,,,,,,,,,,,,,,,,,,,,,,,,,,,,,,,,,,,,,,4V3JLH,train_y,red_square,top_right,2025-03-06_17h51.03.052,HideSeek_v1,2022.2.5,59.93231233570991,
,6,8,6,5,0,-3,13,,train_dim1_1,7,30,,,,2,0,2,0,,,,,,,,,0,0,0,0,0,6,6,6,3,0,3,0,,,,,,,,,,,,,,,,,,,,,,,,,,,,,,,,,,,,,,,,,,,,,,,,,,,,,,,,,,,,,,,,30,,,,,,,,2553.0918854000047,2553.0918854000047,2553.0918854000047,2553.0918854000047,2553.0918854000047,down,0.424209900200367,0,1,0,99,0.15999999999999998,0.07999999999999997,down,0.33983250008895993,,,,,,,,,,,,,,,,,,,,,,,,,,,,,,,,,,,,,,,,,,,,,,,,,,,,,,,,,,,,4V3JLH,train_y,red_square,top_right,2025-03-06_17h51.03.052,HideSeek_v1,2022.2.5,59.93231233570991,
,6,8,6,5,0,-3,13,,train_dim1_1,7,30,,,,2,0,2,0,,,,,,,,,0,0,0,0,0,6,6,6,4,0,4,0,,,,,,,,,,,,,,,,,,,,,,,,,,,,,,,,,,,,,,,,,,,,,,,,,,,,,,,,,,,,,,,,30,,,,,,,,2553.5231824000366,2553.5231824000366,2553.5231824000366,2553.5231824000366,2553.5231824000366,down,0.5094819003716111,0,1,0,99,0.15999999999999998,-2.7755575615628914e-17,down,0.425806799903512,,,,,,,,,,,,,,,,,,,,,,,,,,,,,,,,,,,,,,,,,,,,,,,,,,,,,,,,,,,,4V3JLH,train_y,red_square,top_right,2025-03-06_17h51.03.052,HideSeek_v1,2022.2.5,59.93231233570991,
,6,8,6,5,0,-3,13,,train_dim1_1,7,30,,,,2,0,2,0,,,,,,,,,0,0,0,0,0,6,6,6,5,0,5,0,,,,,,,,,,,,,,,,,,,,,,,,,,,,,,,,,,,,,,,,,,,,,,,,,,,,,,,,,,,,,,,,30,,,,,,,,2554.040675099939,2554.040675099939,2554.040675099939,2554.040675099939,2554.040675099939,left,1.9115132000297308,0,1,0,99,0.07999999999999997,-2.7755575615628914e-17,left,1.829821899998933,,,,,,,,,,,,,,,,,,,,,,,,,,,,,,,,,,,,,,,,,,,,,,,,,,,,,,,,,,,,4V3JLH,train_y,red_square,top_right,2025-03-06_17h51.03.052,HideSeek_v1,2022.2.5,59.93231233570991,
,6,8,6,5,0,-3,13,,train_dim1_1,7,30,,,,2,0,2,0,,,,,,,,,0,0,0,0,0,6,6,6,6,0,6,0,,,,,,,,,,,,,,,,,,,,,,,,,,,,,,,,,,,,,,,,,,,,,,,,,,,,,,,,,,,,,,,,30,,,,,,,,2555.958854199853,2555.958854199853,2555.958854199853,2555.958854199853,2555.958854199853,right,1.677174299955368,0,1,0,99,0.15999999999999998,-2.7755575615628914e-17,right,1.596047000028193,,,,,,,,,,,,,,,,,,,,,,,,,,,,,,,,,,,,,,,,,,,,,,,,,,,,,,,,,,,,4V3JLH,train_y,red_square,top_right,2025-03-06_17h51.03.052,HideSeek_v1,2022.2.5,59.93231233570991,
,6,8,6,5,0,-3,13,,train_dim1_1,7,30,,,,2,0,2,0,,,,,,,,,0,0,0,0,0,6,6,6,7,0,7,0,,,,,,,,,,,,,,,,,,,,,,,,,,,,,,,,,,,,,,,,,,,,,,,,,,,,,,,,,,,,,,,,30,,,,,,,,2557.643588899635,2557.643588899635,2557.643588899635,2557.643588899635,2557.643588899635,right,0.39330910006538033,0,1,0,99,0.24,-2.7755575615628914e-17,right,0.30717070028185844,,,,,,,,,,,,,,,,,,,,,,,,,,,,,,,,,,,,,,,,,,,,,,,,,,,,,,,,,,,,4V3JLH,train_y,red_square,top_right,2025-03-06_17h51.03.052,HideSeek_v1,2022.2.5,59.93231233570991,
,6,8,6,5,0,-3,13,,train_dim1_1,7,30,,,,2,0,2,0,,,,,,,,,0,0,0,0,0,6,6,6,8,0,8,0,,,,,,,,,,,,,,,,,,,,,,,,,,,,,,,,,,,,,,,,,,,,,,,,,,,,,,,,,,,,,,,,30,,,,,,,,2558.044023499824,2558.044023499824,2558.044023499824,2558.044023499824,2558.044023499824,right,0.4096682998351753,0,1,0,99,0.32,-2.7755575615628914e-17,right,0.33361269999295473,,,,,,,,,,,,,,,,,,,,,,,,,,,,,,,,,,,,,,,,,,,,,,,,,,,,,,,,,,,,4V3JLH,train_y,red_square,top_right,2025-03-06_17h51.03.052,HideSeek_v1,2022.2.5,59.93231233570991,
,6,8,6,5,0,-3,13,,train_dim1_1,7,30,,,,2,0,2,0,,,,,,,,,0,0,0,0,0,6,6,6,9,0,9,0,,,,,,,,,,,,,,,,,,,,,,,,,,,,,,,,,,,,,,,,,,,,,,,,,,,,,,,,,,,,,,,,30,,,,,,,,2558.4695950997993,2558.4695950997993,2558.4695950997993,2558.4695950997993,2558.4695950997993,down,1.0436684000305831,0,1,0,99,0.32,-0.08000000000000003,down,0.9560322999022901,,,,,,,,,,,,,,,,,,,,,,,,,,,,,,,,,,,,,,,,,,,,,,,,,,,,,,,,,,,,4V3JLH,train_y,red_square,top_right,2025-03-06_17h51.03.052,HideSeek_v1,2022.2.5,59.93231233570991,
,6,8,6,5,0,-3,13,,train_dim1_1,7,30,,,,2,0,2,0,,,,,,,,,0,0,0,0,0,6,6,6,10,0,10,0,,,,,,,,,,,,,,,,,,,,,,,,,,,,,,,,,,,,,,,,,,,,,,,,,,,,,,,,,,,,,,,,30,,,,,,,,2559.5124079999514,2559.5124079999514,2559.5124079999514,2559.5124079999514,2559.5124079999514,right,1.8606046000495553,0,1,0,99,0.4,-0.08000000000000003,right,1.7689493000507355,,,,,,,,,,,,,,,,,,,,,,,,,,,,,,,,,,,,,,,,,,,,,,,,,,,,,,,,,,,,4V3JLH,train_y,red_square,top_right,2025-03-06_17h51.03.052,HideSeek_v1,2022.2.5,59.93231233570991,
,6,8,6,5,0,-3,13,,train_dim1_1,7,30,,,,2,0,2,0,,,,,,,,,0,0,0,0,0,6,6,6,11,0,11,0,,,,,,,,,,,,,,,,,,,,,,,,,,,,,,,,,,,,,,,,,,,,,,,,,,,,,,,,,,,,,,,,30,,,,,,,,2561.384560399689,2561.384560399689,2561.384560399689,2561.384560399689,2561.384560399689,return,0.7399218999780715,0,0,0,0,0.4,-0.08000000000000003,return,0.655073500238359,-15,-4,0.4,-0.08000000000000003,,,,,,,,,,,,,,,,,,,,,,,,,,,,,,,,,,,,,,,,,,,,,,,,,,,,,,,,4V3JLH,train_y,red_square,top_right,2025-03-06_17h51.03.052,HideSeek_v1,2022.2.5,59.93231233570991,
,9,7,9,2,0,-5,11,,train_dim1_1,8,30,,,,2,0,2,0,,,,,,,,,0,0,0,0,0,7,7,7,0,0,0,0,,,,,,,,,,,,,,,,,,,,,,,,,stimuli/alien_stimuli/11.png,,,,,,,,,,,,,,,,,,,,,,,,,,,,,stimuli/alien_stimuli/13.png,13,6,9,,,,,,,30,,,,,,,,2570.929288199637,2570.929288199637,2570.929288199637,2570.929288199637,2570.929288199637,left,1.9211764996871352,0,0,0,99,0.48000000000000004,0.16,left,1.8380123004317284,,,,,2569.3691491000354,2570.929288199637,0.32,0,0.24,0.0,0.12,0.32,0.32,0.32,0,2563.6934504997917,2563.6934504997917,2563.6934504997917,2563.6934504997917,2563.6934504997917,2563.6934504997917,2563.6934504997917,2563.6934504997917,2563.6808757998515,5.790812400169671,return,5.655542300082743,,,,,,,,,,,,,,,,,,,,,,,,,,,,,,,,,4V3JLH,train_y,red_square,top_right,2025-03-06_17h51.03.052,HideSeek_v1,2022.2.5,59.93231233570991,
,9,7,9,2,0,-5,11,,train_dim1_1,8,30,,,,2,0,2,0,,,,,,,,,0,0,0,0,0,7,7,7,1,0,1,0,,,,,,,,,,,,,,,,,,,,,,,,,,,,,,,,,,,,,,,,,,,,,,,,,,,,,,,,,,,,,,,,30,,,,,,,,2572.857090299949,2572.857090299949,2572.857090299949,2572.857090299949,2572.857090299949,left,0.39275490026921034,0,0,0,99,0.4,0.16,left,0.30842679971829057,,,,,,,,,,,,,,,,,,,,,,,,,,,,,,,,,,,,,,,,,,,,,,,,,,,,,,,,,,,,4V3JLH,train_y,red_square,top_right,2025-03-06_17h51.03.052,HideSeek_v1,2022.2.5,59.93231233570991,
,9,7,9,2,0,-5,11,,train_dim1_1,8,30,,,,2,0,2,0,,,,,,,,,0,0,0,0,0,7,7,7,2,0,2,0,,,,,,,,,,,,,,,,,,,,,,,,,,,,,,,,,,,,,,,,,,,,,,,,,,,,,,,,,,,,,,,,30,,,,,,,,2573.257129599806,2573.257129599806,2573.257129599806,2573.257129599806,2573.257129599806,left,0.5097370999865234,0,0,0,99,0.32,0.16,left,0.42228900035843253,,,,,,,,,,,,,,,,,,,,,,,,,,,,,,,,,,,,,,,,,,,,,,,,,,,,,,,,,,,,4V3JLH,train_y,red_square,top_right,2025-03-06_17h51.03.052,HideSeek_v1,2022.2.5,59.93231233570991,
,9,7,9,2,0,-5,11,,train_dim1_1,8,30,,,,2,0,2,0,,,,,,,,,0,0,0,0,0,7,7,7,3,0,3,0,,,,,,,,,,,,,,,,,,,,,,,,,,,,,,,,,,,,,,,,,,,,,,,,,,,,,,,,,,,,,,,,30,,,,,,,,2573.7746898997575,2573.7746898997575,2573.7746898997575,2573.7746898997575,2573.7746898997575,return,2.9618619000539184,0,0,0,0,0.32,0.16,return,2.8790125004015863,-15,-7,0.32,0.16,,,,,,,,,,,,,,,,,,,,,,,,,,,,,,,,,,,,,,,,,,,,,,,,,,,,,,,,4V3JLH,train_y,red_square,top_right,2025-03-06_17h51.03.052,HideSeek_v1,2022.2.5,59.93231233570991,
,9,8,9,7,0,-1,15,,train_dim1_1,9,30,,,,2,0,2,0,,,,,,,,,0,0,0,0,0,8,8,8,0,0,0,0,,,,,,,,,,,,,,,,,,,,,,,,,stimuli/alien_stimuli/15.png,,,,,,,,,,,,,,,,,,,,,,,,,,,,,stimuli/alien_stimuli/11.png,11,9,10,,,,,,,30,,,,,,,,2585.6933873998933,2585.6933873998933,2585.6933873998933,2585.6933873998933,2585.6933873998933,down,3.1860585999675095,0,0,0,99,0.56,0.15999999999999998,down,3.1015535998158157,,,,,2584.131596900057,2585.6933873998933,0.56,-0.24,0.4,0.0,-0.039999999999999994,0.56,0.56,0.56,-0.24,2578.310640699696,2578.310640699696,2578.310640699696,2578.310640699696,2578.310640699696,2578.310640699696,2578.310640699696,2578.310640699696,2578.309868199751,5.9404997997917235,return,5.789267799817026,,,,,,,,,,,,,,,,,,,,,,,,,,,,,,,,,4V3JLH,train_y,red_square,top_right,2025-03-06_17h51.03.052,HideSeek_v1,2022.2.5,59.93231233570991,
,9,8,9,7,0,-1,15,,train_dim1_1,9,30,,,,2,0,2,0,,,,,,,,,0,0,0,0,0,8,8,8,1,0,1,0,,,,,,,,,,,,,,,,,,,,,,,,,,,,,,,,,,,,,,,,,,,,,,,,,,,,,,,,,,,,,,,,30,,,,,,,,2588.889748599846,2588.889748599846,2588.889748599846,2588.889748599846,2588.889748599846,down,0.4254562999121845,0,0,0,99,0.56,0.07999999999999997,down,0.3389138001948595,,,,,,,,,,,,,,,,,,,,,,,,,,,,,,,,,,,,,,,,,,,,,,,,,,,,,,,,,,,,4V3JLH,train_y,red_square,top_right,2025-03-06_17h51.03.052,HideSeek_v1,2022.2.5,59.93231233570991,
,9,8,9,7,0,-1,15,,train_dim1_1,9,30,,,,2,0,2,0,,,,,,,,,0,0,0,0,0,8,8,8,2,0,2,0,,,,,,,,,,,,,,,,,,,,,,,,,,,,,,,,,,,,,,,,,,,,,,,,,,,,,,,,,,,,,,,,30,,,,,,,,2589.3224807996303,2589.3224807996303,2589.3224807996303,2589.3224807996303,2589.3224807996303,down,0.37409069994464517,0,0,0,99,0.56,-2.7755575615628914e-17,down,0.2868746002204716,,,,,,,,,,,,,,,,,,,,,,,,,,,,,,,,,,,,,,,,,,,,,,,,,,,,,,,,,,,,4V3JLH,train_y,red_square,top_right,2025-03-06_17h51.03.052,HideSeek_v1,2022.2.5,59.93231233570991,
,9,8,9,7,0,-1,15,,train_dim1_1,9,30,,,,2,0,2,0,,,,,,,,,0,0,0,0,0,8,8,8,3,0,3,0,,,,,,,,,,,,,,,,,,,,,,,,,,,,,,,,,,,,,,,,,,,,,,,,,,,,,,,,,,,,,,,,30,,,,,,,,2589.705182499718,2589.705182499718,2589.705182499718,2589.705182499718,2589.705182499718,down,0.8436671001836658,0,0,0,99,0.56,-0.08000000000000003,down,0.7608282002620399,,,,,,,,,,,,,,,,,,,,,,,,,,,,,,,,,,,,,,,,,,,,,,,,,,,,,,,,,,,,4V3JLH,train_y,red_square,top_right,2025-03-06_17h51.03.052,HideSeek_v1,2022.2.5,59.93231233570991,
,9,8,9,7,0,-1,15,,train_dim1_1,9,30,,,,2,0,2,0,,,,,,,,,0,0,0,0,0,8,8,8,4,0,4,0,,,,,,,,,,,,,,,,,,,,,,,,,,,,,,,,,,,,,,,,,,,,,,,,,,,,,,,,,,,,,,,,30,,,,,,,,2590.5548852998763,2590.5548852998763,2590.5548852998763,2590.5548852998763,2590.5548852998763,return,0.993765200022608,0,0,0,0,0.56,-0.08000000000000003,return,0.9012441001832485,-19,-7,0.56,-0.08000000000000003,,,,,,,,,,,,,,,,,,,,,,,,,,,,,,,,,,,,,,,,,,,,,,,,,,,,,,,,4V3JLH,train_y,red_square,top_right,2025-03-06_17h51.03.052,HideSeek_v1,2022.2.5,59.93231233570991,
,7,7,7,7,0,0,16,,train_dim1_1,10,30,,,,2,0,2,0,,,,,,,,,0,0,0,0,0,9,9,9,0,0,0,0,,,,,,,,,,,,,,,,,,,,,,,,,stimuli/alien_stimuli/16.png,,,,,,,,,,,,,,,,,,,,,,,,,,,,,stimuli/alien_stimuli/15.png,15,9,11,,,,,,,30,,,,,,,,2599.836604899727,2599.836604899727,2599.836604899727,2599.836604899727,2599.836604899727,right,5.690192999783903,0,0,0,99,0.48000000000000004,0.16,right,5.60838170023635,,,,,2598.276522899978,2599.836604899727,0.56,0.16,0.08,0.0,0.2,0.56,0.56,0.56,0.16,2593.1275459998287,2593.1275459998287,2593.1275459998287,2593.1275459998287,2593.1275459998287,2593.1275459998287,2593.1275459998287,2593.1275459998287,2593.1221787994727,5.272821099963039,return,5.12066760007292,,,,,,,,,,,,,,,,,,,,,,,,,,,,,,,,,4V3JLH,train_y,red_square,top_right,2025-03-06_17h51.03.052,HideSeek_v1,2022.2.5,59.93231233570991,
,7,7,7,7,0,0,16,,train_dim1_1,10,30,,,,2,0,2,0,,,,,,,,,0,0,0,0,0,9,9,9,1,0,1,0,,,,,,,,,,,,,,,,,,,,,,,,,,,,,,,,,,,,,,,,,,,,,,,,,,,,,,,,,,,,,,,,30,,,,,,,,2605.5348160997964,2605.5348160997964,2605.5348160997964,2605.5348160997964,2605.5348160997964,right,0.3921337998472154,0,0,0,99,0.56,0.16,right,0.3111811000853777,,,,,,,,,,,,,,,,,,,,,,,,,,,,,,,,,,,,,,,,,,,,,,,,,,,,,,,,,,,,4V3JLH,train_y,red_square,top_right,2025-03-06_17h51.03.052,HideSeek_v1,2022.2.5,59.93231233570991,
,7,7,7,7,0,0,16,,train_dim1_1,10,30,,,,2,0,2,0,,,,,,,,,0,0,0,0,0,9,9,9,2,0,2,0,,,,,,,,,,,,,,,,,,,,,,,,,,,,,,,,,,,,,,,,,,,,,,,,,,,,,,,,,,,,,,,,30,,,,,,,,2605.9335324997082,2605.9335324997082,2605.9335324997082,2605.9335324997082,2605.9335324997082,return,0.7765061999671161,0,0,0,0,0.56,0.16,return,0.6973065999336541,-19,-5,0.56,0.16,,,,,,,,,,,,,,,,,,,,,,,,,,,,,,,,,,,,,,,,,,,,,,,,,,,,,,,,4V3JLH,train_y,red_square,top_right,2025-03-06_17h51.03.052,HideSeek_v1,2022.2.5,59.93231233570991,
,9,6,9,5,0,-1,15,,train_dim1_1,11,30,,,,2,0,2,0,,,,,,,,,0,0,0,0,0,10,10,10,0,0,0,0,,,,,,,,,,,,,,,,,,,,,,,,,stimuli/alien_stimuli/15.png,,,,,,,,,,,,,,,,,,,,,,,,,,,,,stimuli/alien_stimuli/16.png,16,7,12,,,,,,,30,,,,,,,,2615.3638581996784,2615.3638581996784,2615.3638581996784,2615.3638581996784,2615.3638581996784,left,1.505183500237763,0,0,0,99,0.48000000000000004,0.08,left,1.4262941000051796,,,,,2613.805774099659,2615.3638581996784,0.4,0.16,0.0,0.0,0.16,0.4,0.4,0.4,0.16,2608.28092020005,2608.28092020005,2608.28092020005,2608.28092020005,2608.28092020005,2608.28092020005,2608.28092020005,2608.28092020005,2608.2679868994746,5.640394899994135,return,5.493736200034618,,,,,,,,,,,,,,,,,,,,,,,,,,,,,,,,,4V3JLH,train_y,red_square,top_right,2025-03-06_17h51.03.052,HideSeek_v1,2022.2.5,59.93231233570991,
,9,6,9,5,0,-1,15,,train_dim1_1,11,30,,,,2,0,2,0,,,,,,,,,0,0,0,0,0,10,10,10,1,0,1,0,,,,,,,,,,,,,,,,,,,,,,,,,,,,,,,,,,,,,,,,,,,,,,,,,,,,,,,,,,,,,,,,30,,,,,,,,2616.877248799894,2616.877248799894,2616.877248799894,2616.877248799894,2616.877248799894,left,0.5929085998795927,0,0,0,99,0.4,0.08,left,0.5063896998763084,,,,,,,,,,,,,,,,,,,,,,,,,,,,,,,,,,,,,,,,,,,,,,,,,,,,,,,,,,,,4V3JLH,train_y,red_square,top_right,2025-03-06_17h51.03.052,HideSeek_v1,2022.2.5,59.93231233570991,
,9,6,9,5,0,-1,15,,train_dim1_1,11,30,,,,2,0,2,0,,,,,,,,,0,0,0,0,0,10,10,10,2,0,2,0,,,,,,,,,,,,,,,,,,,,,,,,,,,,,,,,,,,,,,,,,,,,,,,,,,,,,,,,,,,,,,,,30,,,,,,,,2617.4807911999524,2617.4807911999524,2617.4807911999524,2617.4807911999524,2617.4807911999524,down,2.1278384998440742,0,0,0,99,0.4,0.0,down,2.038597700186074,,,,,,,,,,,,,,,,,,,,,,,,,,,,,,,,,,,,,,,,,,,,,,,,,,,,,,,,,,,,4V3JLH,train_y,red_square,top_right,2025-03-06_17h51.03.052,HideSeek_v1,2022.2.5,59.93231233570991,
,9,6,9,5,0,-1,15,,train_dim1_1,11,30,,,,2,0,2,0,,,,,,,,,0,0,0,0,0,10,10,10,3,0,3,0,,,,,,,,,,,,,,,,,,,,,,,,,,,,,,,,,,,,,,,,,,,,,,,,,,,,,,,,,,,,,,,,30,,,,,,,,2619.628984000068,2619.628984000068,2619.628984000068,2619.628984000068,2619.628984000068,down,0.54325329978019,0,0,0,99,0.4,-0.08,down,0.44428000040352345,,,,,,,,,,,,,,,,,,,,,,,,,,,,,,,,,,,,,,,,,,,,,,,,,,,,,,,,,,,,4V3JLH,train_y,red_square,top_right,2025-03-06_17h51.03.052,HideSeek_v1,2022.2.5,59.93231233570991,
,9,6,9,5,0,-1,15,,train_dim1_1,11,30,,,,2,0,2,0,,,,,,,,,0,0,0,0,0,10,10,10,4,0,4,0,,,,,,,,,,,,,,,,,,,,,,,,,,,,,,,,,,,,,,,,,,,,,,,,,,,,,,,,,,,,,,,,30,,,,,,,,2620.162179999985,2620.162179999985,2620.162179999985,2620.162179999985,2620.162179999985,down,0.49309680005535483,0,0,0,99,0.4,-0.16,down,0.40093470038846135,,,,,,,,,,,,,,,,,,,,,,,,,,,,,,,,,,,,,,,,,,,,,,,,,,,,,,,,,,,,4V3JLH,train_y,red_square,top_right,2025-03-06_17h51.03.052,HideSeek_v1,2022.2.5,59.93231233570991,
,9,6,9,5,0,-1,15,,train_dim1_1,11,30,,,,2,0,2,0,,,,,,,,,0,0,0,0,0,10,10,10,5,0,5,0,,,,,,,,,,,,,,,,,,,,,,,,,,,,,,,,,,,,,,,,,,,,,,,,,,,,,,,,,,,,,,,,30,,,,,,,,2620.663362499792,2620.663362499792,2620.663362499792,2620.663362499792,2620.663362499792,left,1.0601817998103797,0,0,0,99,0.32,-0.16,left,0.9819434001110494,,,,,,,,,,,,,,,,,,,,,,,,,,,,,,,,,,,,,,,,,,,,,,,,,,,,,,,,,,,,4V3JLH,train_y,red_square,top_right,2025-03-06_17h51.03.052,HideSeek_v1,2022.2.5,59.93231233570991,
,9,6,9,5,0,-1,15,,train_dim1_1,11,30,,,,2,0,2,0,,,,,,,,,0,0,0,0,0,10,10,10,6,0,6,0,,,,,,,,,,,,,,,,,,,,,,,,,,,,,,,,,,,,,,,,,,,,,,,,,,,,,,,,,,,,,,,,30,,,,,,,,2621.7312749000266,2621.7312749000266,2621.7312749000266,2621.7312749000266,2621.7312749000266,left,0.4766521002165973,0,0,0,99,0.24,-0.16,left,0.3991473000496626,,,,,,,,,,,,,,,,,,,,,,,,,,,,,,,,,,,,,,,,,,,,,,,,,,,,,,,,,,,,4V3JLH,train_y,red_square,top_right,2025-03-06_17h51.03.052,HideSeek_v1,2022.2.5,59.93231233570991,
,9,6,9,5,0,-1,15,,train_dim1_1,11,30,,,,2,0,2,0,,,,,,,,,0,0,0,0,0,10,10,10,7,0,7,0,,,,,,,,,,,,,,,,,,,,,,,,,,,,,,,,,,,,,,,,,,,,,,,,,,,,,,,,,,,,,,,,30,,,,,,,,2622.2143105999567,2622.2143105999567,2622.2143105999567,2622.2143105999567,2622.2143105999567,left,1.4607241000048816,0,0,0,99,0.15999999999999998,-0.16,left,1.3684253999963403,,,,,,,,,,,,,,,,,,,,,,,,,,,,,,,,,,,,,,,,,,,,,,,,,,,,,,,,,,,,4V3JLH,train_y,red_square,top_right,2025-03-06_17h51.03.052,HideSeek_v1,2022.2.5,59.93231233570991,
,9,6,9,5,0,-1,15,,train_dim1_1,11,30,,,,2,0,2,0,,,,,,,,,0,0,0,0,0,10,10,10,8,0,8,0,,,,,,,,,,,,,,,,,,,,,,,,,,,,,,,,,,,,,,,,,,,,,,,,,,,,,,,,,,,,,,,,30,,,,,,,,2623.691267099697,2623.691267099697,2623.691267099697,2623.691267099697,2623.691267099697,up,0.743601500056684,0,0,0,99,0.15999999999999998,-0.08,up,0.6518639996647835,,,,,,,,,,,,,,,,,,,,,,,,,,,,,,,,,,,,,,,,,,,,,,,,,,,,,,,,,,,,4V3JLH,train_y,red_square,top_right,2025-03-06_17h51.03.052,HideSeek_v1,2022.2.5,59.93231233570991,
,9,6,9,5,0,-1,15,,train_dim1_1,11,30,,,,2,0,2,0,,,,,,,,,0,0,0,0,0,10,10,10,9,0,9,0,,,,,,,,,,,,,,,,,,,,,,,,,,,,,,,,,,,,,,,,,,,,,,,,,,,,,,,,,,,,,,,,30,,,,,,,,2624.4326200997457,2624.4326200997457,2624.4326200997457,2624.4326200997457,2624.4326200997457,up,0.40968939987942576,0,0,0,99,0.15999999999999998,0.0,up,0.32011180045083165,,,,,,,,,,,,,,,,,,,,,,,,,,,,,,,,,,,,,,,,,,,,,,,,,,,,,,,,,,,,4V3JLH,train_y,red_square,top_right,2025-03-06_17h51.03.052,HideSeek_v1,2022.2.5,59.93231233570991,
,9,6,9,5,0,-1,15,,train_dim1_1,11,30,,,,2,0,2,0,,,,,,,,,0,0,0,0,0,10,10,10,10,0,10,0,,,,,,,,,,,,,,,,,,,,,,,,,,,,,,,,,,,,,,,,,,,,,,,,,,,,,,,,,,,,,,,,30,,,,,,,,2624.8506346996874,2624.8506346996874,2624.8506346996874,2624.8506346996874,2624.8506346996874,up,0.41002399986609817,0,0,0,99,0.15999999999999998,0.08,up,0.3238702998496592,,,,,,,,,,,,,,,,,,,,,,,,,,,,,,,,,,,,,,,,,,,,,,,,,,,,,,,,,,,,4V3JLH,train_y,red_square,top_right,2025-03-06_17h51.03.052,HideSeek_v1,2022.2.5,59.93231233570991,
,9,6,9,5,0,-1,15,,train_dim1_1,11,30,,,,2,0,2,0,,,,,,,,,0,0,0,0,0,10,10,10,11,0,11,0,,,,,,,,,,,,,,,,,,,,,,,,,,,,,,,,,,,,,,,,,,,,,,,,,,,,,,,,,,,,,,,,30,,,,,,,,2625.2673959997483,2625.2673959997483,2625.2673959997483,2625.2673959997483,2625.2673959997483,up,0.9100104002282023,0,0,0,99,0.15999999999999998,0.16,up,0.8263190002180636,,,,,,,,,,,,,,,,,,,,,,,,,,,,,,,,,,,,,,,,,,,,,,,,,,,,,,,,,,,,4V3JLH,train_y,red_square,top_right,2025-03-06_17h51.03.052,HideSeek_v1,2022.2.5,59.93231233570991,
,9,6,9,5,0,-1,15,,train_dim1_1,11,30,,,,2,0,2,0,,,,,,,,,0,0,0,0,0,10,10,10,12,0,12,0,,,,,,,,,,,,,,,,,,,,,,,,,,,,,,,,,,,,,,,,,,,,,,,,,,,,,,,,,,,,,,,,30,,,,,,,,2626.18504770007,2626.18504770007,2626.18504770007,2626.18504770007,2626.18504770007,right,1.294034699909389,0,0,0,99,0.24,0.16,right,1.2133836997672915,,,,,,,,,,,,,,,,,,,,,,,,,,,,,,,,,,,,,,,,,,,,,,,,,,,,,,,,,,,,4V3JLH,train_y,red_square,top_right,2025-03-06_17h51.03.052,HideSeek_v1,2022.2.5,59.93231233570991,
,9,6,9,5,0,-1,15,,train_dim1_1,11,30,,,,2,0,2,0,,,,,,,,,0,0,0,0,0,10,10,10,13,0,13,0,,,,,,,,,,,,,,,,,,,,,,,,,,,,,,,,,,,,,,,,,,,,,,,,,,,,,,,,,,,,,,,,30,,,,,,,,2627.49463059986,2627.49463059986,2627.49463059986,2627.49463059986,2627.49463059986,return,1.5601372001692653,0,0,0,0,0.24,0.16,return,1.466133899986744,-18,-9,0.24,0.16,,,,,,,,,,,,,,,,,,,,,,,,,,,,,,,,,,,,,,,,,,,,,,,,,,,,,,,,4V3JLH,train_y,red_square,top_right,2025-03-06_17h51.03.052,HideSeek_v1,2022.2.5,59.93231233570991,
,5,5,5,0,0,-5,11,,train_dim1_1,12,30,,,,2,0,2,0,,,,,,,,,0,0,0,0,0,11,11,11,0,0,0,0,,,,,,,,,,,,,,,,,,,,,,,,,stimuli/alien_stimuli/11.png,,,,,,,,,,,,,,,,,,,,,,,,,,,,,stimuli/alien_stimuli/15.png,15,9,13,,,,,,,30,,,,,,,,2638.8032987997867,2638.8032987997867,2638.8032987997867,2638.8032987997867,2638.8032987997867,up,2.070209600031376,0,0,0,99,0.24,0.08,up,1.987667900044471,,,,,2637.242364999838,2638.8032987997867,0.56,0,0.08,0.0,0.04,0.56,0.56,0.56,0,2630.621490899939,2630.621490899939,2630.621490899939,2630.621490899939,2630.621490899939,2630.621490899939,2630.621490899939,2630.621490899939,2630.619834299665,6.7410389999859035,return,6.588419199921191,,,,,,,,,,,,,,,,,,,,,,,,,,,,,,,,,4V3JLH,train_y,red_square,top_right,2025-03-06_17h51.03.052,HideSeek_v1,2022.2.5,59.93231233570991,
,5,5,5,0,0,-5,11,,train_dim1_1,12,30,,,,2,0,2,0,,,,,,,,,0,0,0,0,0,11,11,11,1,0,1,0,,,,,,,,,,,,,,,,,,,,,,,,,,,,,,,,,,,,,,,,,,,,,,,,,,,,,,,,,,,,,,,,30,,,,,,,,2640.879689499736,2640.879689499736,2640.879689499736,2640.879689499736,2640.879689499736,up,0.30930359987542033,0,0,0,99,0.24,0.16,up,0.21931680012494326,,,,,,,,,,,,,,,,,,,,,,,,,,,,,,,,,,,,,,,,,,,,,,,,,,,,,,,,,,,,4V3JLH,train_y,red_square,top_right,2025-03-06_17h51.03.052,HideSeek_v1,2022.2.5,59.93231233570991,
,5,5,5,0,0,-5,11,,train_dim1_1,12,30,,,,2,0,2,0,,,,,,,,,0,0,0,0,0,11,11,11,2,0,2,0,,,,,,,,,,,,,,,,,,,,,,,,,,,,,,,,,,,,,,,,,,,,,,,,,,,,,,,,,,,,,,,,30,,,,,,,,2641.205950899981,2641.205950899981,2641.205950899981,2641.205950899981,2641.205950899981,return,0.6932990001514554,0,0,0,0,0.24,0.16,return,0.6057728002779186,-16,-9,0.24,0.16,,,,,,,,,,,,,,,,,,,,,,,,,,,,,,,,,,,,,,,,,,,,,,,,,,,,,,,,4V3JLH,train_y,red_square,top_right,2025-03-06_17h51.03.052,HideSeek_v1,2022.2.5,59.93231233570991,
,9,8,9,4,0,-4,12,,train_dim1_1,13,30,,,,2,0,2,0,,,,,,,,,0,0,0,0,0,12,12,12,0,0,0,0,,,,,,,,,,,,,,,,,,,,,,,,,stimuli/alien_stimuli/12.png,,,,,,,,,,,,,,,,,,,,,,,,,,,,,stimuli/alien_stimuli/11.png,11,5,14,,,,,,,30,,,,,,,,2651.14534180006,2651.14534180006,2651.14534180006,2651.14534180006,2651.14534180006,return,13.998022799845785,0,0,0,0,0.56,0.24,return,13.906567400321364,-16,-9,0.56,0.24,2649.5858105998486,2651.14534180006,0.24,-0.4,0.4,0.0,-0.2,0.24,0.24,0.24,-0.4,2643.4601644999348,2643.4601644999348,2643.4601644999348,2643.4601644999348,2643.4601644999348,2643.4601644999348,2643.4601644999348,2643.4601644999348,2643.447182899574,6.240698600187898,return,6.097893500234932,,,,,,,,,,,,,,,,,,,,,,,,,,,,,,,,,4V3JLH,train_y,red_square,top_right,2025-03-06_17h51.03.052,HideSeek_v1,2022.2.5,59.93231233570991,
,7,7,7,7,0,0,16,,train_dim1_1,14,30,,,,2,0,2,0,,,,,,,,,0,0,0,0,0,13,13,13,0,0,0,0,,,,,,,,,,,,,,,,,,,,,,,,,stimuli/alien_stimuli/16.png,,,,,,,,,,,,,,,,,,,,,,,,,,,,,stimuli/alien_stimuli/12.png,12,9,15,,,,,,,30,,,,,,,,2671.51107509993,2671.51107509993,2671.51107509993,2671.51107509993,2671.51107509993,down,3.122604599688202,0,0,0,99,0.4,0.08,down,3.046215300448239,,,,,2669.9527258998714,2671.51107509993,0.56,-0.08,0.32,0.0,0.07999999999999999,0.56,0.56,0.56,-0.08,2666.737677899655,2666.737677899655,2666.737677899655,2666.737677899655,2666.737677899655,2666.737677899655,2666.737677899655,2666.737677899655,2666.7331967994105,3.3550885999575257,return,3.1943920999765396,,,,,,,,,,,,,,,,,,,,,,,,,,,,,,,,,4V3JLH,train_y,red_square,top_right,2025-03-06_17h51.03.052,HideSeek_v1,2022.2.5,59.93231233570991,
,7,7,7,7,0,0,16,,train_dim1_1,14,30,,,,2,0,2,0,,,,,,,,,0,0,0,0,0,13,13,13,1,0,1,0,,,,,,,,,,,,,,,,,,,,,,,,,,,,,,,,,,,,,,,,,,,,,,,,,,,,,,,,,,,,,,,,30,,,,,,,,2674.641871099826,2674.641871099826,2674.641871099826,2674.641871099826,2674.641871099826,down,0.8930278001353145,0,0,0,99,0.4,0.0,down,0.8133768001571298,,,,,,,,,,,,,,,,,,,,,,,,,,,,,,,,,,,,,,,,,,,,,,,,,,,,,,,,,,,,4V3JLH,train_y,red_square,top_right,2025-03-06_17h51.03.052,HideSeek_v1,2022.2.5,59.93231233570991,
,7,7,7,7,0,0,16,,train_dim1_1,14,30,,,,2,0,2,0,,,,,,,,,0,0,0,0,0,13,13,13,2,0,2,0,,,,,,,,,,,,,,,,,,,,,,,,,,,,,,,,,,,,,,,,,,,,,,,,,,,,,,,,,,,,,,,,30,,,,,,,,2675.5415781997144,2675.5415781997144,2675.5415781997144,2675.5415781997144,2675.5415781997144,down,0.7099827001802623,0,0,0,99,0.4,-0.08,down,0.6185117000713944,,,,,,,,,,,,,,,,,,,,,,,,,,,,,,,,,,,,,,,,,,,,,,,,,,,,,,,,,,,,4V3JLH,train_y,red_square,top_right,2025-03-06_17h51.03.052,HideSeek_v1,2022.2.5,59.93231233570991,
,7,7,7,7,0,0,16,,train_dim1_1,14,30,,,,2,0,2,0,,,,,,,,,0,0,0,0,0,13,13,13,3,0,3,0,,,,,,,,,,,,,,,,,,,,,,,,,,,,,,,,,,,,,,,,,,,,,,,,,,,,,,,,,,,,,,,,30,,,,,,,,2676.261944899801,2676.261944899801,2676.261944899801,2676.261944899801,2676.261944899801,left,1.5096331001259387,0,0,0,99,0.32,-0.08,left,1.4151809001341462,,,,,,,,,,,,,,,,,,,,,,,,,,,,,,,,,,,,,,,,,,,,,,,,,,,,,,,,,,,,4V3JLH,train_y,red_square,top_right,2025-03-06_17h51.03.052,HideSeek_v1,2022.2.5,59.93231233570991,
,7,7,7,7,0,0,16,,train_dim1_1,14,30,,,,2,0,2,0,,,,,,,,,0,0,0,0,0,13,13,13,4,0,4,0,,,,,,,,,,,,,,,,,,,,,,,,,,,,,,,,,,,,,,,,,,,,,,,,,,,,,,,,,,,,,,,,30,,,,,,,,2677.776479399763,2677.776479399763,2677.776479399763,2677.776479399763,2677.776479399763,left,0.6934654000215232,0,0,0,99,0.24,-0.08,left,0.6092590000480413,,,,,,,,,,,,,,,,,,,,,,,,,,,,,,,,,,,,,,,,,,,,,,,,,,,,,,,,,,,,4V3JLH,train_y,red_square,top_right,2025-03-06_17h51.03.052,HideSeek_v1,2022.2.5,59.93231233570991,
,7,7,7,7,0,0,16,,train_dim1_1,14,30,,,,2,0,2,0,,,,,,,,,0,0,0,0,0,13,13,13,5,0,5,0,,,,,,,,,,,,,,,,,,,,,,,,,,,,,,,,,,,,,,,,,,,,,,,,,,,,,,,,,,,,,,,,30,,,,,,,,2678.478532299865,2678.478532299865,2678.478532299865,2678.478532299865,2678.478532299865,up,0.9268380999565125,0,0,0,99,0.24,0.0,up,0.8443129998631775,,,,,,,,,,,,,,,,,,,,,,,,,,,,,,,,,,,,,,,,,,,,,,,,,,,,,,,,,,,,4V3JLH,train_y,red_square,top_right,2025-03-06_17h51.03.052,HideSeek_v1,2022.2.5,59.93231233570991,
,7,7,7,7,0,0,16,,train_dim1_1,14,30,,,,2,0,2,0,,,,,,,,,0,0,0,0,0,13,13,13,6,0,6,0,,,,,,,,,,,,,,,,,,,,,,,,,,,,,,,,,,,,,,,,,,,,,,,,,,,,,,,,,,,,,,,,30,,,,,,,,2679.4116376000457,2679.4116376000457,2679.4116376000457,2679.4116376000457,2679.4116376000457,up,0.5434304000809789,0,0,0,99,0.24,0.08,up,0.45378120010718703,,,,,,,,,,,,,,,,,,,,,,,,,,,,,,,,,,,,,,,,,,,,,,,,,,,,,,,,,,,,4V3JLH,train_y,red_square,top_right,2025-03-06_17h51.03.052,HideSeek_v1,2022.2.5,59.93231233570991,
,7,7,7,7,0,0,16,,train_dim1_1,14,30,,,,2,0,2,0,,,,,,,,,0,0,0,0,0,13,13,13,7,0,7,0,,,,,,,,,,,,,,,,,,,,,,,,,,,,,,,,,,,,,,,,,,,,,,,,,,,,,,,,,,,,,,,,30,,,,,,,,2679.961770999711,2679.961770999711,2679.961770999711,2679.961770999711,2679.961770999711,up,0.8268082998692989,0,0,0,99,0.24,0.16,up,0.7357724001631141,,,,,,,,,,,,,,,,,,,,,,,,,,,,,,,,,,,,,,,,,,,,,,,,,,,,,,,,,,,,4V3JLH,train_y,red_square,top_right,2025-03-06_17h51.03.052,HideSeek_v1,2022.2.5,59.93231233570991,
,7,7,7,7,0,0,16,,train_dim1_1,14,30,,,,2,0,2,0,,,,,,,,,0,0,0,0,0,13,13,13,8,0,8,0,,,,,,,,,,,,,,,,,,,,,,,,,,,,,,,,,,,,,,,,,,,,,,,,,,,,,,,,,,,,,,,,30,,,,,,,,2680.7962552998215,2680.7962552998215,2680.7962552998215,2680.7962552998215,2680.7962552998215,return,1.210557300131768,0,0,0,0,0.24,0.16,return,1.12900419998914,-16,-11,0.24,0.16,,,,,,,,,,,,,,,,,,,,,,,,,,,,,,,,,,,,,,,,,,,,,,,,,,,,,,,,4V3JLH,train_y,red_square,top_right,2025-03-06_17h51.03.052,HideSeek_v1,2022.2.5,59.93231233570991,
,6,9,6,6,0,-3,13,,train_dim1_1,15,30,,,,2,0,2,0,,,,,,,,,0,0,0,0,0,14,14,14,0,0,0,0,,,,,,,,,,,,,,,,,,,,,,,,,stimuli/alien_stimuli/13.png,,,,,,,,,,,,,,,,,,,,,,,,,,,,,stimuli/alien_stimuli/16.png,16,7,16,,,,,,,30,,,,,,,,2689.726882399991,2689.726882399991,2689.726882399991,2689.726882399991,2689.726882399991,down,2.421340299770236,0,0,0,99,0.32,0.24,down,2.329507799819112,,,,,2688.1677480996586,2689.726882399991,0.4,0.16,0.0,0.0,0.16,0.4,0.4,0.4,0.16,2683.5796848996542,2683.5796848996542,2683.5796848996542,2683.5796848996542,2683.5796848996542,2683.5796848996542,2683.5796848996542,2683.5796848996542,2683.580724099651,4.705906399991363,return,4.561759900301695,,,,,,,,,,,,,,,,,,,,,,,,,,,,,,,,,4V3JLH,train_y,red_square,top_right,2025-03-06_17h51.03.052,HideSeek_v1,2022.2.5,59.93231233570991,
,6,9,6,6,0,-3,13,,train_dim1_1,15,30,,,,2,0,2,0,,,,,,,,,0,0,0,0,0,14,14,14,1,0,1,0,,,,,,,,,,,,,,,,,,,,,,,,,,,,,,,,,,,,,,,,,,,,,,,,,,,,,,,,,,,,,,,,30,,,,,,,,2692.154543600045,2692.154543600045,2692.154543600045,2692.154543600045,2692.154543600045,down,0.7931359997019172,0,0,0,99,0.32,0.15999999999999998,down,0.7083266004920006,,,,,,,,,,,,,,,,,,,,,,,,,,,,,,,,,,,,,,,,,,,,,,,,,,,,,,,,,,,,4V3JLH,train_y,red_square,top_right,2025-03-06_17h51.03.052,HideSeek_v1,2022.2.5,59.93231233570991,
,6,9,6,6,0,-3,13,,train_dim1_1,15,30,,,,2,0,2,0,,,,,,,,,0,0,0,0,0,14,14,14,2,0,2,0,,,,,,,,,,,,,,,,,,,,,,,,,,,,,,,,,,,,,,,,,,,,,,,,,,,,,,,,,,,,,,,,30,,,,,,,,2692.9612536998466,2692.9612536998466,2692.9612536998466,2692.9612536998466,2692.9612536998466,down,0.5099051003344357,0,0,0,99,0.32,0.07999999999999997,down,0.41741300048306584,,,,,,,,,,,,,,,,,,,,,,,,,,,,,,,,,,,,,,,,,,,,,,,,,,,,,,,,,,,,4V3JLH,train_y,red_square,top_right,2025-03-06_17h51.03.052,HideSeek_v1,2022.2.5,59.93231233570991,
,6,9,6,6,0,-3,13,,train_dim1_1,15,30,,,,2,0,2,0,,,,,,,,,0,0,0,0,0,14,14,14,3,0,3,0,,,,,,,,,,,,,,,,,,,,,,,,,,,,,,,,,,,,,,,,,,,,,,,,,,,,,,,,,,,,,,,,30,,,,,,,,2693.4726048000157,2693.4726048000157,2693.4726048000157,2693.4726048000157,2693.4726048000157,down,0.3268380998633802,0,0,0,99,0.32,-2.7755575615628914e-17,down,0.24797180015593767,,,,,,,,,,,,,,,,,,,,,,,,,,,,,,,,,,,,,,,,,,,,,,,,,,,,,,,,,,,,4V3JLH,train_y,red_square,top_right,2025-03-06_17h51.03.052,HideSeek_v1,2022.2.5,59.93231233570991,
,6,9,6,6,0,-3,13,,train_dim1_1,15,30,,,,2,0,2,0,,,,,,,,,0,0,0,0,0,14,14,14,4,0,4,0,,,,,,,,,,,,,,,,,,,,,,,,,,,,,,,,,,,,,,,,,,,,,,,,,,,,,,,,,,,,,,,,30,,,,,,,,2693.806956899818,2693.806956899818,2693.806956899818,2693.806956899818,2693.806956899818,up,2.5946035999804735,0,0,0,99,0.32,0.07999999999999997,up,2.502141000237316,,,,,,,,,,,,,,,,,,,,,,,,,,,,,,,,,,,,,,,,,,,,,,,,,,,,,,,,,,,,4V3JLH,train_y,red_square,top_right,2025-03-06_17h51.03.052,HideSeek_v1,2022.2.5,59.93231233570991,
,6,9,6,6,0,-3,13,,train_dim1_1,15,30,,,,2,0,2,0,,,,,,,,,0,0,0,0,0,14,14,14,5,0,5,0,,,,,,,,,,,,,,,,,,,,,,,,,,,,,,,,,,,,,,,,,,,,,,,,,,,,,,,,,,,,,,,,30,,,,,,,,2696.4102495000698,2696.4102495000698,2696.4102495000698,2696.4102495000698,2696.4102495000698,up,0.2585473000071943,0,0,0,99,0.32,0.15999999999999998,up,0.17916049994528294,,,,,,,,,,,,,,,,,,,,,,,,,,,,,,,,,,,,,,,,,,,,,,,,,,,,,,,,,,,,4V3JLH,train_y,red_square,top_right,2025-03-06_17h51.03.052,HideSeek_v1,2022.2.5,59.93231233570991,
,6,9,6,6,0,-3,13,,train_dim1_1,15,30,,,,2,0,2,0,,,,,,,,,0,0,0,0,0,14,14,14,6,0,6,0,,,,,,,,,,,,,,,,,,,,,,,,,,,,,,,,,,,,,,,,,,,,,,,,,,,,,,,,,,,,,,,,30,,,,,,,,2696.6758367996663,2696.6758367996663,2696.6758367996663,2696.6758367996663,2696.6758367996663,up,0.3263072003610432,0,0,0,99,0.32,0.24,up,0.23396660014986992,,,,,,,,,,,,,,,,,,,,,,,,,,,,,,,,,,,,,,,,,,,,,,,,,,,,,,,,,,,,4V3JLH,train_y,red_square,top_right,2025-03-06_17h51.03.052,HideSeek_v1,2022.2.5,59.93231233570991,
,6,9,6,6,0,-3,13,,train_dim1_1,15,30,,,,2,0,2,0,,,,,,,,,0,0,0,0,0,14,14,14,7,0,7,0,,,,,,,,,,,,,,,,,,,,,,,,,,,,,,,,,,,,,,,,,,,,,,,,,,,,,,,,,,,,,,,,30,,,,,,,,2697.007956299931,2697.007956299931,2697.007956299931,2697.007956299931,2697.007956299931,up,0.42643450014293194,0,0,0,99,0.32,0.32,up,0.34591659996658564,,,,,,,,,,,,,,,,,,,,,,,,,,,,,,,,,,,,,,,,,,,,,,,,,,,,,,,,,,,,4V3JLH,train_y,red_square,top_right,2025-03-06_17h51.03.052,HideSeek_v1,2022.2.5,59.93231233570991,
,6,9,6,6,0,-3,13,,train_dim1_1,15,30,,,,2,0,2,0,,,,,,,,,0,0,0,0,0,14,14,14,8,0,8,0,,,,,,,,,,,,,,,,,,,,,,,,,,,,,,,,,,,,,,,,,,,,,,,,,,,,,,,,,,,,,,,,30,,,,,,,,2697.4421047000214,2697.4421047000214,2697.4421047000214,2697.4421047000214,2697.4421047000214,left,1.2605034997686744,0,0,0,99,0.24,0.32,left,1.1826776005327702,,,,,,,,,,,,,,,,,,,,,,,,,,,,,,,,,,,,,,,,,,,,,,,,,,,,,,,,,,,,4V3JLH,train_y,red_square,top_right,2025-03-06_17h51.03.052,HideSeek_v1,2022.2.5,59.93231233570991,
,6,9,6,6,0,-3,13,,train_dim1_1,15,30,,,,2,0,2,0,,,,,,,,,0,0,0,0,0,14,14,14,9,0,9,0,,,,,,,,,,,,,,,,,,,,,,,,,,,,,,,,,,,,,,,,,,,,,,,,,,,,,,,,,,,,,,,,30,,,,,,,,2698.710243599955,2698.710243599955,2698.710243599955,2698.710243599955,2698.710243599955,left,0.34299169993028045,0,0,0,99,0.15999999999999998,0.32,left,0.2506862999871373,,,,,,,,,,,,,,,,,,,,,,,,,,,,,,,,,,,,,,,,,,,,,,,,,,,,,,,,,,,,4V3JLH,train_y,red_square,top_right,2025-03-06_17h51.03.052,HideSeek_v1,2022.2.5,59.93231233570991,
,6,9,6,6,0,-3,13,,train_dim1_1,15,30,,,,2,0,2,0,,,,,,,,,0,0,0,0,0,14,14,14,10,0,10,0,,,,,,,,,,,,,,,,,,,,,,,,,,,,,,,,,,,,,,,,,,,,,,,,,,,,,,,,,,,,,,,,30,,,,,,,,2699.060557599645,2699.060557599645,2699.060557599645,2699.060557599645,2699.060557599645,left,0.35980920027941465,0,0,0,99,0.07999999999999997,0.32,left,0.2710738000459969,,,,,,,,,,,,,,,,,,,,,,,,,,,,,,,,,,,,,,,,,,,,,,,,,,,,,,,,,,,,4V3JLH,train_y,red_square,top_right,2025-03-06_17h51.03.052,HideSeek_v1,2022.2.5,59.93231233570991,
,6,9,6,6,0,-3,13,,train_dim1_1,15,30,,,,2,0,2,0,,,,,,,,,0,0,0,0,0,14,14,14,11,0,11,0,,,,,,,,,,,,,,,,,,,,,,,,,,,,,,,,,,,,,,,,,,,,,,,,,,,,,,,,,,,,,,,,30,,,,,,,,2699.427073699888,2699.427073699888,2699.427073699888,2699.427073699888,2699.427073699888,left,0.3431545998901129,0,0,0,99,-2.7755575615628914e-17,0.32,left,0.2576728998683393,,,,,,,,,,,,,,,,,,,,,,,,,,,,,,,,,,,,,,,,,,,,,,,,,,,,,,,,,,,,4V3JLH,train_y,red_square,top_right,2025-03-06_17h51.03.052,HideSeek_v1,2022.2.5,59.93231233570991,
,6,9,6,6,0,-3,13,,train_dim1_1,15,30,,,,2,0,2,0,,,,,,,,,0,0,0,0,0,14,14,14,12,0,12,0,,,,,,,,,,,,,,,,,,,,,,,,,,,,,,,,,,,,,,,,,,,,,,,,,,,,,,,,,,,,,,,,30,,,,,,,,2699.7784227998927,2699.7784227998927,2699.7784227998927,2699.7784227998927,2699.7784227998927,return,1.4442282998934388,0,0,0,0,-2.7755575615628914e-17,0.32,return,1.3565701004117727,-16,-15,-2.7755575615628914e-17,0.32,,,,,,,,,,,,,,,,,,,,,,,,,,,,,,,,,,,,,,,,,,,,,,,,,,,,,,,,4V3JLH,train_y,red_square,top_right,2025-03-06_17h51.03.052,HideSeek_v1,2022.2.5,59.93231233570991,
,9,5,9,4,0,-1,15,,train_dim1_1,16,30,,,,2,0,2,0,,,,,,,,,0,0,0,0,0,15,15,15,0,0,0,0,,,,,,,,,,,,,,,,,,,,,,,,,stimuli/alien_stimuli/15.png,,,,,,,,,,,,,,,,,,,,,,,,,,,,,stimuli/alien_stimuli/13.png,13,6,17,,,,,,,30,,,,,,,,2709.0102087999694,2709.0102087999694,2709.0102087999694,2709.0102087999694,2709.0102087999694,left,2.755345900077373,0,0,0,99,0.48000000000000004,0,left,2.667661900166422,,,,,2707.45019519981,2709.0102087999694,0.32,0.08,0.24,0.0,0.2,0.32,0.32,0.32,0.08,2702.7937580998987,2702.7937580998987,2702.7937580998987,2702.7937580998987,2702.7937580998987,2702.7937580998987,2702.7937580998987,2702.7937580998987,2702.7796691998374,4.77285399986431,return,4.624536600429565,,,,,,,,,,,,,,,,,,,,,,,,,,,,,,,,,4V3JLH,train_y,red_square,top_right,2025-03-06_17h51.03.052,HideSeek_v1,2022.2.5,59.93231233570991,
,9,5,9,4,0,-1,15,,train_dim1_1,16,30,,,,2,0,2,0,,,,,,,,,0,0,0,0,0,15,15,15,1,0,1,0,,,,,,,,,,,,,,,,,,,,,,,,,,,,,,,,,,,,,,,,,,,,,,,,,,,,,,,,,,,,,,,,30,,,,,,,,2711.7719290000387,2711.7719290000387,2711.7719290000387,2711.7719290000387,2711.7719290000387,up,0.7096393997780979,0,0,0,99,0.48000000000000004,0.08,up,0.6230286001227796,,,,,,,,,,,,,,,,,,,,,,,,,,,,,,,,,,,,,,,,,,,,,,,,,,,,,,,,,,,,4V3JLH,train_y,red_square,top_right,2025-03-06_17h51.03.052,HideSeek_v1,2022.2.5,59.93231233570991,
,9,5,9,4,0,-1,15,,train_dim1_1,16,30,,,,2,0,2,0,,,,,,,,,0,0,0,0,0,15,15,15,2,0,2,0,,,,,,,,,,,,,,,,,,,,,,,,,,,,,,,,,,,,,,,,,,,,,,,,,,,,,,,,,,,,,,,,30,,,,,,,,2712.4896732000634,2712.4896732000634,2712.4896732000634,2712.4896732000634,2712.4896732000634,up,0.34317889995872974,0,0,0,99,0.48000000000000004,0.16,up,0.25067640002816916,,,,,,,,,,,,,,,,,,,,,,,,,,,,,,,,,,,,,,,,,,,,,,,,,,,,,,,,,,,,4V3JLH,train_y,red_square,top_right,2025-03-06_17h51.03.052,HideSeek_v1,2022.2.5,59.93231233570991,
,9,5,9,4,0,-1,15,,train_dim1_1,16,30,,,,2,0,2,0,,,,,,,,,0,0,0,0,0,15,15,15,3,0,3,0,,,,,,,,,,,,,,,,,,,,,,,,,,,,,,,,,,,,,,,,,,,,,,,,,,,,,,,,,,,,,,,,30,,,,,,,,2712.840618999675,2712.840618999675,2712.840618999675,2712.840618999675,2712.840618999675,up,0.309543099720031,0,0,0,99,0.48000000000000004,0.24,up,0.22449900023639202,,,,,,,,,,,,,,,,,,,,,,,,,,,,,,,,,,,,,,,,,,,,,,,,,,,,,,,,,,,,4V3JLH,train_y,red_square,top_right,2025-03-06_17h51.03.052,HideSeek_v1,2022.2.5,59.93231233570991,
,9,5,9,4,0,-1,15,,train_dim1_1,16,30,,,,2,0,2,0,,,,,,,,,0,0,0,0,0,15,15,15,4,0,4,0,,,,,,,,,,,,,,,,,,,,,,,,,,,,,,,,,,,,,,,,,,,,,,,,,,,,,,,,,,,,,,,,30,,,,,,,,2713.155937399715,2713.155937399715,2713.155937399715,2713.155937399715,2713.155937399715,return,1.5608485001139343,0,0,0,0,0.48000000000000004,0.24,return,1.483432900160551,-13,-16,0.48000000000000004,0.24,,,,,,,,,,,,,,,,,,,,,,,,,,,,,,,,,,,,,,,,,,,,,,,,,,,,,,,,4V3JLH,train_y,red_square,top_right,2025-03-06_17h51.03.052,HideSeek_v1,2022.2.5,59.93231233570991,
,8,8,8,5,0,-3,13,,train_dim1_1,17,30,,,,2,0,2,0,,,,,,,,,0,0,0,0,0,16,16,16,0,0,0,0,,,,,,,,,,,,,,,,,,,,,,,,,stimuli/alien_stimuli/13.png,,,,,,,,,,,,,,,,,,,,,,,,,,,,,stimuli/alien_stimuli/15.png,15,9,18,,,,,,,30,,,,,,,,2723.4380127997138,2723.4380127997138,2723.4380127997138,2723.4380127997138,2723.4380127997138,down,1.2204230003990233,0,0,0,99,0.48,0.15999999999999998,down,1.1362300999462605,,,,,2721.8791817999445,2723.4380127997138,0.56,-0.08,0.08,0.0,-0.04,0.56,0.56,0.56,-0.08,2716.2927839998156,2716.2927839998156,2716.2927839998156,2716.2927839998156,2716.2927839998156,2716.2927839998156,2716.2927839998156,2716.2927839998156,2716.2908147997223,5.707218599971384,return,5.569471099879593,,,,,,,,,,,,,,,,,,,,,,,,,,,,,,,,,4V3JLH,train_y,red_square,top_right,2025-03-06_17h51.03.052,HideSeek_v1,2022.2.5,59.93231233570991,
,8,8,8,5,0,-3,13,,train_dim1_1,17,30,,,,2,0,2,0,,,,,,,,,0,0,0,0,0,16,16,16,1,0,1,0,,,,,,,,,,,,,,,,,,,,,,,,,,,,,,,,,,,,,,,,,,,,,,,,,,,,,,,,,,,,,,,,30,,,,,,,,2724.6658616000786,2724.6658616000786,2724.6658616000786,2724.6658616000786,2724.6658616000786,down,0.4762424002401531,0,0,0,99,0.48,0.07999999999999997,down,0.3967773001641035,,,,,,,,,,,,,,,,,,,,,,,,,,,,,,,,,,,,,,,,,,,,,,,,,,,,,,,,,,,,4V3JLH,train_y,red_square,top_right,2025-03-06_17h51.03.052,HideSeek_v1,2022.2.5,59.93231233570991,
,8,8,8,5,0,-3,13,,train_dim1_1,17,30,,,,2,0,2,0,,,,,,,,,0,0,0,0,0,16,16,16,2,0,2,0,,,,,,,,,,,,,,,,,,,,,,,,,,,,,,,,,,,,,,,,,,,,,,,,,,,,,,,,,,,,,,,,30,,,,,,,,2725.1496570999734,2725.1496570999734,2725.1496570999734,2725.1496570999734,2725.1496570999734,down,0.3928360999561846,0,0,0,99,0.48,-2.7755575615628914e-17,down,0.30906399991363287,,,,,,,,,,,,,,,,,,,,,,,,,,,,,,,,,,,,,,,,,,,,,,,,,,,,,,,,,,,,4V3JLH,train_y,red_square,top_right,2025-03-06_17h51.03.052,HideSeek_v1,2022.2.5,59.93231233570991,
,8,8,8,5,0,-3,13,,train_dim1_1,17,30,,,,2,0,2,0,,,,,,,,,0,0,0,0,0,16,16,16,3,0,3,0,,,,,,,,,,,,,,,,,,,,,,,,,,,,,,,,,,,,,,,,,,,,,,,,,,,,,,,,,,,,,,,,30,,,,,,,,2725.549267400056,2725.549267400056,2725.549267400056,2725.549267400056,2725.549267400056,left,1.493648000061512,0,0,0,99,0.39999999999999997,-2.7755575615628914e-17,left,1.4167490000836551,,,,,,,,,,,,,,,,,,,,,,,,,,,,,,,,,,,,,,,,,,,,,,,,,,,,,,,,,,,,4V3JLH,train_y,red_square,top_right,2025-03-06_17h51.03.052,HideSeek_v1,2022.2.5,59.93231233570991,
,8,8,8,5,0,-3,13,,train_dim1_1,17,30,,,,2,0,2,0,,,,,,,,,0,0,0,0,0,16,16,16,4,0,4,0,,,,,,,,,,,,,,,,,,,,,,,,,,,,,,,,,,,,,,,,,,,,,,,,,,,,,,,,,,,,,,,,30,,,,,,,,2727.0504421996884,2727.0504421996884,2727.0504421996884,2727.0504421996884,2727.0504421996884,left,1.6776638999581337,0,0,0,99,0.31999999999999995,-2.7755575615628914e-17,left,1.591913599986583,,,,,,,,,,,,,,,,,,,,,,,,,,,,,,,,,,,,,,,,,,,,,,,,,,,,,,,,,,,,4V3JLH,train_y,red_square,top_right,2025-03-06_17h51.03.052,HideSeek_v1,2022.2.5,59.93231233570991,
,8,8,8,5,0,-3,13,,train_dim1_1,17,30,,,,2,0,2,0,,,,,,,,,0,0,0,0,0,16,16,16,5,0,5,0,,,,,,,,,,,,,,,,,,,,,,,,,,,,,,,,,,,,,,,,,,,,,,,,,,,,,,,,,,,,,,,,30,,,,,,,,2728.7397815999575,2728.7397815999575,2728.7397815999575,2728.7397815999575,2728.7397815999575,right,1.5910982000641525,0,0,0,99,0.39999999999999997,-2.7755575615628914e-17,right,1.5115822004154325,,,,,,,,,,,,,,,,,,,,,,,,,,,,,,,,,,,,,,,,,,,,,,,,,,,,,,,,,,,,4V3JLH,train_y,red_square,top_right,2025-03-06_17h51.03.052,HideSeek_v1,2022.2.5,59.93231233570991,
,8,8,8,5,0,-3,13,,train_dim1_1,17,30,,,,2,0,2,0,,,,,,,,,0,0,0,0,0,16,16,16,6,0,6,0,,,,,,,,,,,,,,,,,,,,,,,,,,,,,,,,,,,,,,,,,,,,,,,,,,,,,,,,,,,,,,,,30,,,,,,,,2730.3366284999065,2730.3366284999065,2730.3366284999065,2730.3366284999065,2730.3366284999065,right,0.2928464999422431,0,0,0,99,0.48,-2.7755575615628914e-17,right,0.20130080031231046,,,,,,,,,,,,,,,,,,,,,,,,,,,,,,,,,,,,,,,,,,,,,,,,,,,,,,,,,,,,4V3JLH,train_y,red_square,top_right,2025-03-06_17h51.03.052,HideSeek_v1,2022.2.5,59.93231233570991,
,8,8,8,5,0,-3,13,,train_dim1_1,17,30,,,,2,0,2,0,,,,,,,,,0,0,0,0,0,16,16,16,7,0,7,0,,,,,,,,,,,,,,,,,,,,,,,,,,,,,,,,,,,,,,,,,,,,,,,,,,,,,,,,,,,,,,,,30,,,,,,,,2730.637261699885,2730.637261699885,2730.637261699885,2730.637261699885,2730.637261699885,up,0.9770070002414286,0,0,0,99,0.48,0.07999999999999997,up,0.9005999001674354,,,,,,,,,,,,,,,,,,,,,,,,,,,,,,,,,,,,,,,,,,,,,,,,,,,,,,,,,,,,4V3JLH,train_y,red_square,top_right,2025-03-06_17h51.03.052,HideSeek_v1,2022.2.5,59.93231233570991,
,8,8,8,5,0,-3,13,,train_dim1_1,17,30,,,,2,0,2,0,,,,,,,,,0,0,0,0,0,16,16,16,8,0,8,0,,,,,,,,,,,,,,,,,,,,,,,,,,,,,,,,,,,,,,,,,,,,,,,,,,,,,,,,,,,,,,,,30,,,,,,,,2731.6212613000534,2731.6212613000534,2731.6212613000534,2731.6212613000534,2731.6212613000534,up,0.24290339974686503,0,0,0,99,0.48,0.15999999999999998,up,0.15627569984644651,,,,,,,,,,,,,,,,,,,,,,,,,,,,,,,,,,,,,,,,,,,,,,,,,,,,,,,,,,,,4V3JLH,train_y,red_square,top_right,2025-03-06_17h51.03.052,HideSeek_v1,2022.2.5,59.93231233570991,
,8,8,8,5,0,-3,13,,train_dim1_1,17,30,,,,2,0,2,0,,,,,,,,,0,0,0,0,0,16,16,16,9,0,9,0,,,,,,,,,,,,,,,,,,,,,,,,,,,,,,,,,,,,,,,,,,,,,,,,,,,,,,,,,,,,,,,,30,,,,,,,,2731.871555299964,2731.871555299964,2731.871555299964,2731.871555299964,2731.871555299964,up,0.3268046001903713,0,0,0,99,0.48,0.24,up,0.23923150030896068,,,,,,,,,,,,,,,,,,,,,,,,,,,,,,,,,,,,,,,,,,,,,,,,,,,,,,,,,,,,4V3JLH,train_y,red_square,top_right,2025-03-06_17h51.03.052,HideSeek_v1,2022.2.5,59.93231233570991,
,8,8,8,5,0,-3,13,,train_dim1_1,17,30,,,,2,0,2,0,,,,,,,,,0,0,0,0,0,16,16,16,10,0,10,0,,,,,,,,,,,,,,,,,,,,,,,,,,,,,,,,,,,,,,,,,,,,,,,,,,,,,,,,,,,,,,,,30,,,,,,,,2732.206152800005,2732.206152800005,2732.206152800005,2732.206152800005,2732.206152800005,return,0.7597937998361886,0,0,0,0,0.48,0.24,return,0.6809943998232484,-13,-16,0.48,0.24,,,,,,,,,,,,,,,,,,,,,,,,,,,,,,,,,,,,,,,,,,,,,,,,,,,,,,,,4V3JLH,train_y,red_square,top_right,2025-03-06_17h51.03.052,HideSeek_v1,2022.2.5,59.93231233570991,
,7,6,7,1,0,-5,11,,train_dim1_1,18,30,,,,2,0,2,0,,,,,,,,,0,0,0,0,0,17,17,17,0,0,0,0,,,,,,,,,,,,,,,,,,,,,,,,,stimuli/alien_stimuli/11.png,,,,,,,,,,,,,,,,,,,,,,,,,,,,,stimuli/alien_stimuli/13.png,13,8,19,,,,,,,30,,,,,,,,2741.0350003996864,2741.0350003996864,2741.0350003996864,2741.0350003996864,2741.0350003996864,down,1.3884025001898408,0,0,0,99,0.4,0.0,down,1.295802100095898,,,,,2739.477212499827,2741.0350003996864,0.48,0,0.24,0.0,0.12,0.48,0.48,0.48,0,2734.539663099684,2734.539663099684,2734.539663099684,2734.539663099684,2734.539663099684,2734.539663099684,2734.539663099684,2734.539663099684,2734.5393338995054,5.0562372002750635,return,4.910906500183046,,,,,,,,,,,,,,,,,,,,,,,,,,,,,,,,,4V3JLH,train_y,red_square,top_right,2025-03-06_17h51.03.052,HideSeek_v1,2022.2.5,59.93231233570991,
,7,6,7,1,0,-5,11,,train_dim1_1,18,30,,,,2,0,2,0,,,,,,,,,0,0,0,0,0,17,17,17,1,0,1,0,,,,,,,,,,,,,,,,,,,,,,,,,,,,,,,,,,,,,,,,,,,,,,,,,,,,,,,,,,,,,,,,30,,,,,,,,2742.430428300053,2742.430428300053,2742.430428300053,2742.430428300053,2742.430428300053,down,0.5596467996947467,0,0,0,99,0.4,-0.08,down,0.47844830015674233,,,,,,,,,,,,,,,,,,,,,,,,,,,,,,,,,,,,,,,,,,,,,,,,,,,,,,,,,,,,4V3JLH,train_y,red_square,top_right,2025-03-06_17h51.03.052,HideSeek_v1,2022.2.5,59.93231233570991,
,7,6,7,1,0,-5,11,,train_dim1_1,18,30,,,,2,0,2,0,,,,,,,,,0,0,0,0,0,17,17,17,2,0,2,0,,,,,,,,,,,,,,,,,,,,,,,,,,,,,,,,,,,,,,,,,,,,,,,,,,,,,,,,,,,,,,,,30,,,,,,,,2742.998999899719,2742.998999899719,2742.998999899719,2742.998999899719,2742.998999899719,down,0.5100984000600874,0,0,0,99,0.4,-0.16,down,0.42279599979519844,,,,,,,,,,,,,,,,,,,,,,,,,,,,,,,,,,,,,,,,,,,,,,,,,,,,,,,,,,,,4V3JLH,train_y,red_square,top_right,2025-03-06_17h51.03.052,HideSeek_v1,2022.2.5,59.93231233570991,
,7,6,7,1,0,-5,11,,train_dim1_1,18,30,,,,2,0,2,0,,,,,,,,,0,0,0,0,0,17,17,17,3,0,3,0,,,,,,,,,,,,,,,,,,,,,,,,,,,,,,,,,,,,,,,,,,,,,,,,,,,,,,,,,,,,,,,,30,,,,,,,,2743.5150265996344,2743.5150265996344,2743.5150265996344,2743.5150265996344,2743.5150265996344,left,1.3601809996180236,0,0,0,99,0.32,-0.16,left,1.278297800105065,,,,,,,,,,,,,,,,,,,,,,,,,,,,,,,,,,,,,,,,,,,,,,,,,,,,,,,,,,,,4V3JLH,train_y,red_square,top_right,2025-03-06_17h51.03.052,HideSeek_v1,2022.2.5,59.93231233570991,
,7,6,7,1,0,-5,11,,train_dim1_1,18,30,,,,2,0,2,0,,,,,,,,,0,0,0,0,0,17,17,17,4,0,4,0,,,,,,,,,,,,,,,,,,,,,,,,,,,,,,,,,,,,,,,,,,,,,,,,,,,,,,,,,,,,,,,,30,,,,,,,,2744.88201439986,2744.88201439986,2744.88201439986,2744.88201439986,2744.88201439986,up,1.3775980998761952,0,0,0,99,0.32,-0.08,up,1.2987891999073327,,,,,,,,,,,,,,,,,,,,,,,,,,,,,,,,,,,,,,,,,,,,,,,,,,,,,,,,,,,,4V3JLH,train_y,red_square,top_right,2025-03-06_17h51.03.052,HideSeek_v1,2022.2.5,59.93231233570991,
,7,6,7,1,0,-5,11,,train_dim1_1,18,30,,,,2,0,2,0,,,,,,,,,0,0,0,0,0,17,17,17,5,0,5,0,,,,,,,,,,,,,,,,,,,,,,,,,,,,,,,,,,,,,,,,,,,,,,,,,,,,,,,,,,,,,,,,30,,,,,,,,2746.266669699922,2746.266669699922,2746.266669699922,2746.266669699922,2746.266669699922,left,1.1771128000691533,0,0,0,99,0.24,-0.08,left,1.0883030998520553,,,,,,,,,,,,,,,,,,,,,,,,,,,,,,,,,,,,,,,,,,,,,,,,,,,,,,,,,,,,4V3JLH,train_y,red_square,top_right,2025-03-06_17h51.03.052,HideSeek_v1,2022.2.5,59.93231233570991,
,7,6,7,1,0,-5,11,,train_dim1_1,18,30,,,,2,0,2,0,,,,,,,,,0,0,0,0,0,17,17,17,6,0,6,0,,,,,,,,,,,,,,,,,,,,,,,,,,,,,,,,,,,,,,,,,,,,,,,,,,,,,,,,,,,,,,,,30,,,,,,,,2747.4513185997494,2747.4513185997494,2747.4513185997494,2747.4513185997494,2747.4513185997494,right,9.801206599920988,0,0,0,99,0.32,-0.08,right,9.718937499914318,,,,,,,,,,,,,,,,,,,,,,,,,,,,,,,,,,,,,,,,,,,,,,,,,,,,,,,,,,,,4V3JLH,train_y,red_square,top_right,2025-03-06_17h51.03.052,HideSeek_v1,2022.2.5,59.93231233570991,
,7,6,7,1,0,-5,11,,train_dim1_1,18,30,,,,2,0,2,0,,,,,,,,,0,0,0,0,0,17,17,17,7,0,7,0,,,,,,,,,,,,,,,,,,,,,,,,,,,,,,,,,,,,,,,,,,,,,,,,,,,,,,,,,,,,,,,,30,,,,,,,,2757.261720399838,2757.261720399838,2757.261720399838,2757.261720399838,2757.261720399838,right,0.3414432001300156,0,0,0,99,0.4,-0.08,right,0.25509570026770234,,,,,,,,,,,,,,,,,,,,,,,,,,,,,,,,,,,,,,,,,,,,,,,,,,,,,,,,,,,,4V3JLH,train_y,red_square,top_right,2025-03-06_17h51.03.052,HideSeek_v1,2022.2.5,59.93231233570991,
,7,6,7,1,0,-5,11,,train_dim1_1,18,30,,,,2,0,2,0,,,,,,,,,0,0,0,0,0,17,17,17,8,0,8,0,,,,,,,,,,,,,,,,,,,,,,,,,,,,,,,,,,,,,,,,,,,,,,,,,,,,,,,,,,,,,,,,30,,,,,,,,2757.6106531000696,2757.6106531000696,2757.6106531000696,2757.6106531000696,2757.6106531000696,right,0.3265646998770535,0,0,0,99,0.48000000000000004,-0.08,right,0.23601249977946281,,,,,,,,,,,,,,,,,,,,,,,,,,,,,,,,,,,,,,,,,,,,,,,,,,,,,,,,,,,,4V3JLH,train_y,red_square,top_right,2025-03-06_17h51.03.052,HideSeek_v1,2022.2.5,59.93231233570991,
,7,6,7,1,0,-5,11,,train_dim1_1,18,30,,,,2,0,2,0,,,,,,,,,0,0,0,0,0,17,17,17,9,0,9,0,,,,,,,,,,,,,,,,,,,,,,,,,,,,,,,,,,,,,,,,,,,,,,,,,,,,,,,,,,,,,,,,30,,,,,,,,2757.9434698997065,2757.9434698997065,2757.9434698997065,2757.9434698997065,2757.9434698997065,right,0.7931661996990442,0,0,0,99,0.56,-0.08,right,0.7090611001476645,,,,,,,,,,,,,,,,,,,,,,,,,,,,,,,,,,,,,,,,,,,,,,,,,,,,,,,,,,,,4V3JLH,train_y,red_square,top_right,2025-03-06_17h51.03.052,HideSeek_v1,2022.2.5,59.93231233570991,
,7,6,7,1,0,-5,11,,train_dim1_1,18,30,,,,2,0,2,0,,,,,,,,,0,0,0,0,0,17,17,17,10,0,10,0,,,,,,,,,,,,,,,,,,,,,,,,,,,,,,,,,,,,,,,,,,,,,,,,,,,,,,,,,,,,,,,,30,,,,,,,,2758.74533519987,2758.74533519987,2758.74533519987,2758.74533519987,2758.74533519987,return,5.796724599786103,0,0,0,0,0.56,-0.08,return,5.706022800412029,-15,-14,0.56,-0.08,,,,,,,,,,,,,,,,,,,,,,,,,,,,,,,,,,,,,,,,,,,,,,,,,,,,,,,,4V3JLH,train_y,red_square,top_right,2025-03-06_17h51.03.052,HideSeek_v1,2022.2.5,59.93231233570991,
,5,9,5,5,0,-4,12,,train_dim1_1,19,30,,,,2,0,2,0,,,,,,,,,0,0,0,0,0,18,18,18,0,0,0,0,,,,,,,,,,,,,,,,,,,,,,,,,stimuli/alien_stimuli/12.png,,,,,,,,,,,,,,,,,,,,,,,,,,,,,stimuli/alien_stimuli/11.png,11,7,20,,,,,,,30,,,,,,,,2775.048032899853,2775.048032899853,2775.048032899853,2775.048032899853,2775.048032899853,down,2.0717763998545706,0,0,0,99,0.24,0.24,down,1.988625300116837,,,,,2773.4885503998958,2775.048032899853,0.4,-0.32,0.4,0.0,-0.12,0.4,0.4,0.4,-0.32,2766.110851000063,2766.110851000063,2766.110851000063,2766.110851000063,2766.110851000063,2766.110851000063,2766.110851000063,2766.110851000063,2766.099087999435,7.491650999989361,return,7.359070100355893,,,,,,,,,,,,,,,,,,,,,,,,,,,,,,,,,4V3JLH,train_y,red_square,top_right,2025-03-06_17h51.03.052,HideSeek_v1,2022.2.5,59.93231233570991,
,5,9,5,5,0,-4,12,,train_dim1_1,19,30,,,,2,0,2,0,,,,,,,,,0,0,0,0,0,18,18,18,1,0,1,0,,,,,,,,,,,,,,,,,,,,,,,,,,,,,,,,,,,,,,,,,,,,,,,,,,,,,,,,,,,,,,,,30,,,,,,,,2777.1263950997964,2777.1263950997964,2777.1263950997964,2777.1263950997964,2777.1263950997964,down,0.4928083000704646,0,0,0,99,0.24,0.15999999999999998,down,0.41490620002150536,,,,,,,,,,,,,,,,,,,,,,,,,,,,,,,,,,,,,,,,,,,,,,,,,,,,,,,,,,,,4V3JLH,train_y,red_square,top_right,2025-03-06_17h51.03.052,HideSeek_v1,2022.2.5,59.93231233570991,
,5,9,5,5,0,-4,12,,train_dim1_1,19,30,,,,2,0,2,0,,,,,,,,,0,0,0,0,0,18,18,18,2,0,2,0,,,,,,,,,,,,,,,,,,,,,,,,,,,,,,,,,,,,,,,,,,,,,,,,,,,,,,,,,,,,,,,,30,,,,,,,,2777.6285163997672,2777.6285163997672,2777.6285163997672,2777.6285163997672,2777.6285163997672,down,1.6260501998476684,0,0,0,99,0.24,0.07999999999999997,down,1.5366143002174795,,,,,,,,,,,,,,,,,,,,,,,,,,,,,,,,,,,,,,,,,,,,,,,,,,,,,,,,,,,,4V3JLH,train_y,red_square,top_right,2025-03-06_17h51.03.052,HideSeek_v1,2022.2.5,59.93231233570991,
,5,9,5,5,0,-4,12,,train_dim1_1,19,30,,,,2,0,2,0,,,,,,,,,0,0,0,0,0,18,18,18,3,0,3,0,,,,,,,,,,,,,,,,,,,,,,,,,,,,,,,,,,,,,,,,,,,,,,,,,,,,,,,,,,,,,,,,30,,,,,,,,2779.261962499935,2779.261962499935,2779.261962499935,2779.261962499935,2779.261962499935,down,1.4602369000203907,0,0,0,99,0.24,-2.7755575615628914e-17,down,1.3751162998378277,,,,,,,,,,,,,,,,,,,,,,,,,,,,,,,,,,,,,,,,,,,,,,,,,,,,,,,,,,,,4V3JLH,train_y,red_square,top_right,2025-03-06_17h51.03.052,HideSeek_v1,2022.2.5,59.93231233570991,
,5,9,5,5,0,-4,12,,train_dim1_1,19,30,,,,2,0,2,0,,,,,,,,,0,0,0,0,0,18,18,18,4,0,4,0,,,,,,,,,,,,,,,,,,,,,,,,,,,,,,,,,,,,,,,,,,,,,,,,,,,,,,,,,,,,,,,,30,,,,,,,,2780.7288297996856,2780.7288297996856,2780.7288297996856,2780.7288297996856,2780.7288297996856,right,0.7600998003035784,0,0,0,99,0.32,-2.7755575615628914e-17,right,0.6679114000871778,,,,,,,,,,,,,,,,,,,,,,,,,,,,,,,,,,,,,,,,,,,,,,,,,,,,,,,,,,,,4V3JLH,train_y,red_square,top_right,2025-03-06_17h51.03.052,HideSeek_v1,2022.2.5,59.93231233570991,
,5,9,5,5,0,-4,12,,train_dim1_1,19,30,,,,2,0,2,0,,,,,,,,,0,0,0,0,0,18,18,18,5,0,5,0,,,,,,,,,,,,,,,,,,,,,,,,,,,,,,,,,,,,,,,,,,,,,,,,,,,,,,,,,,,,,,,,30,,,,,,,,2781.4959650998935,2781.4959650998935,2781.4959650998935,2781.4959650998935,2781.4959650998935,right,0.3430987000465393,0,0,0,99,0.4,-2.7755575615628914e-17,right,0.2627519001252949,,,,,,,,,,,,,,,,,,,,,,,,,,,,,,,,,,,,,,,,,,,,,,,,,,,,,,,,,,,,4V3JLH,train_y,red_square,top_right,2025-03-06_17h51.03.052,HideSeek_v1,2022.2.5,59.93231233570991,
,5,9,5,5,0,-4,12,,train_dim1_1,19,30,,,,2,0,2,0,,,,,,,,,0,0,0,0,0,18,18,18,6,0,6,0,,,,,,,,,,,,,,,,,,,,,,,,,,,,,,,,,,,,,,,,,,,,,,,,,,,,,,,,,,,,,,,,30,,,,,,,,2781.8483191998675,2781.8483191998675,2781.8483191998675,2781.8483191998675,2781.8483191998675,right,0.3251720000989735,0,0,0,99,0.48000000000000004,-2.7755575615628914e-17,right,0.24814360029995441,,,,,,,,,,,,,,,,,,,,,,,,,,,,,,,,,,,,,,,,,,,,,,,,,,,,,,,,,,,,4V3JLH,train_y,red_square,top_right,2025-03-06_17h51.03.052,HideSeek_v1,2022.2.5,59.93231233570991,
,5,9,5,5,0,-4,12,,train_dim1_1,19,30,,,,2,0,2,0,,,,,,,,,0,0,0,0,0,18,18,18,7,0,7,0,,,,,,,,,,,,,,,,,,,,,,,,,,,,,,,,,,,,,,,,,,,,,,,,,,,,,,,,,,,,,,,,30,,,,,,,,2782.179405400064,2782.179405400064,2782.179405400064,2782.179405400064,2782.179405400064,up,1.6109418999403715,0,0,0,99,0.48000000000000004,0.07999999999999997,up,1.531981599982828,,,,,,,,,,,,,,,,,,,,,,,,,,,,,,,,,,,,,,,,,,,,,,,,,,,,,,,,,,,,4V3JLH,train_y,red_square,top_right,2025-03-06_17h51.03.052,HideSeek_v1,2022.2.5,59.93231233570991,
,5,9,5,5,0,-4,12,,train_dim1_1,19,30,,,,2,0,2,0,,,,,,,,,0,0,0,0,0,18,18,18,8,0,8,0,,,,,,,,,,,,,,,,,,,,,,,,,,,,,,,,,,,,,,,,,,,,,,,,,,,,,,,,,,,,,,,,30,,,,,,,,2783.7987249996513,2783.7987249996513,2783.7987249996513,2783.7987249996513,2783.7987249996513,up,0.5102818002924323,0,0,0,99,0.48000000000000004,0.15999999999999998,up,0.42189390026032925,,,,,,,,,,,,,,,,,,,,,,,,,,,,,,,,,,,,,,,,,,,,,,,,,,,,,,,,,,,,4V3JLH,train_y,red_square,top_right,2025-03-06_17h51.03.052,HideSeek_v1,2022.2.5,59.93231233570991,
,5,9,5,5,0,-4,12,,train_dim1_1,19,30,,,,2,0,2,0,,,,,,,,,0,0,0,0,0,18,18,18,9,0,9,0,,,,,,,,,,,,,,,,,,,,,,,,,,,,,,,,,,,,,,,,,,,,,,,,,,,,,,,,,,,,,,,,30,,,,,,,,2784.3153474000283,2784.3153474000283,2784.3153474000283,2784.3153474000283,2784.3153474000283,up,0.3760303002782166,0,0,0,99,0.48000000000000004,0.24,up,0.29469319991767406,,,,,,,,,,,,,,,,,,,,,,,,,,,,,,,,,,,,,,,,,,,,,,,,,,,,,,,,,,,,4V3JLH,train_y,red_square,top_right,2025-03-06_17h51.03.052,HideSeek_v1,2022.2.5,59.93231233570991,
,5,9,5,5,0,-4,12,,train_dim1_1,19,30,,,,2,0,2,0,,,,,,,,,0,0,0,0,0,18,18,18,10,0,10,0,,,,,,,,,,,,,,,,,,,,,,,,,,,,,,,,,,,,,,,,,,,,,,,,,,,,,,,,,,,,,,,,30,,,,,,,,2784.6997034000233,2784.6997034000233,2784.6997034000233,2784.6997034000233,2784.6997034000233,return,1.160372699610889,0,0,0,0,0.48000000000000004,0.24,return,1.0724358004517853,-16,-11,0.48000000000000004,0.24,,,,,,,,,,,,,,,,,,,,,,,,,,,,,,,,,,,,,,,,,,,,,,,,,,,,,,,,4V3JLH,train_y,red_square,top_right,2025-03-06_17h51.03.052,HideSeek_v1,2022.2.5,59.93231233570991,
,7,5,7,5,0,0,16,,train_dim1_1,20,30,,,,2,0,2,0,,,,,,,,,0,0,0,0,0,19,19,19,0,0,0,0,,,,,,,,,,,,,,,,,,,,,,,,,stimuli/alien_stimuli/16.png,,,,,,,,,,,,,,,,,,,,,,,,,,,,,stimuli/alien_stimuli/12.png,12,5,21,,,,,,,30,,,,,,,,2794.1301156999543,2794.1301156999543,2794.1301156999543,2794.1301156999543,2794.1301156999543,left,1.9044308997690678,0,0,0,99,0.32,0,left,1.8227499001659453,,,,,2792.570837999694,2794.1301156999543,0.24,0,0.32,0.0,0.16,0.24,0.24,0.24,0,2787.428746699821,2787.428746699821,2787.428746699821,2787.428746699821,2787.428746699821,2787.428746699821,2787.428746699821,2787.428746699821,2787.4165636997204,5.257479699794203,return,5.119597400072962,,,,,,,,,,,,,,,,,,,,,,,,,,,,,,,,,4V3JLH,train_y,red_square,top_right,2025-03-06_17h51.03.052,HideSeek_v1,2022.2.5,59.93231233570991,
