trialInstr,x_fixStart,y_fixStart,x_corrSteps,y_corrSteps,x_nrSteps,y_nrSteps,alienID,trialLength,version,trialTrain,praclen,testlen,trial_label,break_on_off,beforeExpLoop.thisRepN,beforeExpLoop.thisTrialN,beforeExpLoop.thisN,beforeExpLoop.thisIndex,mini_instr_trials.thisRepN,mini_instr_trials.thisTrialN,mini_instr_trials.thisN,mini_instr_trials.thisIndex,instrLoop.thisRepN,instrLoop.thisTrialN,instrLoop.thisN,instrLoop.thisIndex,repeat_prac.thisRepN,repeat_prac.thisTrialN,repeat_prac.thisN,repeat_prac.thisIndex,trainLoop.thisRepN,trainLoop.thisTrialN,trainLoop.thisN,trainLoop.thisIndex,moveLoop_train.thisRepN,moveLoop_train.thisTrialN,moveLoop_train.thisN,moveLoop_train.thisIndex,experiment.thisRepN,experiment.thisTrialN,experiment.thisN,experiment.thisIndex,moveLoop_test.thisRepN,moveLoop_test.thisTrialN,moveLoop_test.thisN,moveLoop_test.thisIndex,mini_instr2_trials.thisRepN,mini_instr2_trials.thisTrialN,mini_instr2_trials.thisN,mini_instr2_trials.thisIndex,start_all_time,url,slideStim,audioStim,slides.started,sounds.started,nextButton.numClicks,nextButton.timesOn,nextButton.timesOff,prev_but.numClicks,prev_but.timesOn,prev_but.timesOff,alienStim,instrFile,alienStim_instr,gridImage_instr.started,startPos_3.started,key_instr.started,alienImage_3.started,sounds_1.started,key_instr.keys,key_instr.rt,all_x,all_y,FBy_corrSteps,FBy_fixStart,FBx_corrSteps,FBx_fixStart,FBy_pathSize_check,FBx_pathSize_check,gridImage_9.started,alienImageFB_3.started,startPosFB_3.started,keyFB_3.started,pathLine_ydir_2.started,pathLine_xdir_2.started,alienFace_3.started,sounds_2.started,RTFB_instr,keyFB_3.keys,keyFB_3.rt,draw_alienStim,draw_alienID,test_x,nrepcount,perfthres,percthres,earlierperf,earlystop,nextPrac,fileidx,praclen,saveACC_train,pracFile,nextPrac_train,addNrep,fileidx_endr,repExp,showearly,gridImage_4.started,startPos.started,movePos.started,key_resp.started,alienImage.started,buttonPress_train,RTchoice_train,cumAcctrain,aCorr,saveACC_choice,corrAns,x_movePos_end,y_movePos_end,key_resp.keys,key_resp.rt,wLy_dir,wLx_dir,x_movePos,y_movePos,text_2.started,text_2.stopped,aft_x_corrPos,aft_y_corrPos,y_pathSize_check,x_pathSize_check,y_pathdirY,x_pathdirY,x_pathdirX,x_corrPos,y_corrPos,gridImage_6.started,alienImageFB_2.started,startPosFB_2.started,movePosFB_2.started,keyFB_2.started,pathLine_xdir.started,pathLine_ydir.started,alienFace.started,sounds_4.started,RT_FBtrain,keyFB_2.keys,keyFB_2.rt,saveACC_pre,ACC,within_saveACC_train,earlystop_wloop,cumAcctrain_check,gridImage_3.started,alienImage_test.started,startPos_test.started,movePos_test.started,key_resp_test.started,wLy_dir_test,wLx_dir_test,buttonPress_test,RTchoice_test,cumAcctest,corrAns_test,key_resp_test.keys,key_resp_test.rt,text_3.started,text_3.stopped,total_time,end_all_time,key_resp_3.keys,slides_2.started,sounds_3.started,nextButton_2.numClicks,nextButton_2.timesOn,nextButton_2.timesOff,prev_but_2.numClicks,prev_but_2.timesOn,prev_but_2.timesOff,bye.started,participant,train_first,00_coordinate,starting corner,date,expName,psychopyVersion,frameRate,
,,,,,,,,,,,,,,,0,0,0,0,0,0,0,0,,,,,,,,,,,,,,,,,,,,,,,,,,,,,start_all_time,testround,conditions/schedules/train_x_first/blue_star_00/bottom_left/instructions/Slide1.png,conditions/schedules/train_x_first/blue_star_00/bottom_left/instructions/Audio1.wav,561.5133643997833,561.4639589957893,1,[3.2050600997172296],[3.2050684997811913],0,,,,,,,,,,,,,,,,,,,,,,,,,,,,,,,,,,,,,,,,,,,,,,,,,,,,,,,,,,,,,,,,,,,,,,,,,,,,,,,,,,,,,,,,,,,,,,,,,,,,,,,,,,,,,,,,,,,,,,,,,,,,57L54L,train_x,blue_star,bottom_left,2025-04-23_11h09.31.436,HideSeek_v1,2022.2.5,59.952972892906295,
,,,,,,,,,,,,,,,0,0,0,0,1,0,1,0,,,,,,,,,,,,,,,,,,,,,,,,,,,,,,,conditions/schedules/train_x_first/blue_star_00/bottom_left/instructions/Slide2.png,conditions/schedules/train_x_first/blue_star_00/bottom_left/instructions/Audio2.wav,564.7416494996287,564.7430329998024,2,"[3.2050600997172296, 18.013616899959743]","[0.0002302001230418682, 18.01362509978935]",0,,,,,,,,,,,,,,,,,,,,,,,,,,,,,,,,,,,,,,,,,,,,,,,,,,,,,,,,,,,,,,,,,,,,,,,,,,,,,,,,,,,,,,,,,,,,,,,,,,,,,,,,,,,,,,,,,,,,,,,,,,,,57L54L,train_x,blue_star,bottom_left,2025-04-23_11h09.31.436,HideSeek_v1,2022.2.5,59.952972892906295,
,,,,,,,,,,,,,,,0,0,0,0,2,0,2,0,,,,,,,,,,,,,,,,,,,,,,,,,,,,,,,conditions/schedules/train_x_first/blue_star_00/bottom_left/instructions/Slide3.png,conditions/schedules/train_x_first/blue_star_00/bottom_left/instructions/Audio3.wav,582.8333586999215,582.8248440995812,3,"[3.2050600997172296, 18.013616899959743, 16.568704099860042]","[0.0002302001230418682, 0.034086599946022034, 16.568713599815965]",0,,,,,,,,,,,,,,,,,,,,,,,,,,,,,,,,,,,,,,,,,,,,,,,,,,,,,,,,,,,,,,,,,,,,,,,,,,,,,,,,,,,,,,,,,,,,,,,,,,,,,,,,,,,,,,,,,,,,,,,,,,,,57L54L,train_x,blue_star,bottom_left,2025-04-23_11h09.31.436,HideSeek_v1,2022.2.5,59.952972892906295,
,,,,,,,,,,,,,,,0,0,0,0,3,0,3,0,,,,,,,,,,,,,,,,,,,,,,,,,,,,,,,conditions/schedules/train_x_first/blue_star_00/bottom_left/instructions/Slide4.png,conditions/schedules/train_x_first/blue_star_00/bottom_left/instructions/Audio4.wav,599.4763666000217,599.4717333996668,4,"[3.2050600997172296, 18.013616899959743, 16.568704099860042, 19.508838299661875]","[0.0002302001230418682, 0.034086599946022034, 0.03118589986115694, 19.50884659960866]",0,,,,,,,,,,,,,,,,,,,,,,,,,,,,,,,,,,,,,,,,,,,,,,,,,,,,,,,,,,,,,,,,,,,,,,,,,,,,,,,,,,,,,,,,,,,,,,,,,,,,,,,,,,,,,,,,,,,,,,,,,,,,57L54L,train_x,blue_star,bottom_left,2025-04-23_11h09.31.436,HideSeek_v1,2022.2.5,59.952972892906295,
,,,,,,,,,,,,,,,0,0,0,0,4,0,4,0,,,,,,,,,,,,,,,,,,,,,,,,,,,,,,,conditions/schedules/train_x_first/blue_star_00/bottom_left/instructions/Slide5.png,conditions/schedules/train_x_first/blue_star_00/bottom_left/instructions/Audio5.wav,619.048267999664,619.0380307998508,5,"[3.2050600997172296, 18.013616899959743, 16.568704099860042, 19.508838299661875, 4.5235647996887565]","[0.0002302001230418682, 0.034086599946022034, 0.03118589986115694, 0.05336109967902303, 4.523573599755764]",0,,,,,,,,,,,,,,,,,,,,,,,,,,,,,,,,,,,,,,,,,,,,,,,,,,,,,,,,,,,,,,,,,,,,,,,,,,,,,,,,,,,,,,,,,,,,,,,,,,,,,,,,,,,,,,,,,,,,,,,,,,,,57L54L,train_x,blue_star,bottom_left,2025-04-23_11h09.31.436,HideSeek_v1,2022.2.5,59.952972892906295,
,,,,,,,,,,,,,,,0,0,0,0,5,0,5,0,,,,,,,,,,,,,,,,,,,,,,,,,,,,,,,conditions/schedules/train_x_first/blue_star_00/bottom_left/instructions/Slide6.png,conditions/schedules/train_x_first/blue_star_00/bottom_left/instructions/Audio6.wav,623.6239416999742,623.6251405998133,6,"[3.2050600997172296, 18.013616899959743, 16.568704099860042, 19.508838299661875, 4.5235647996887565, 4.952266700100154]","[0.0002302001230418682, 0.034086599946022034, 0.03118589986115694, 0.05336109967902303, 0.031672799959778786, 4.952275100164115]",0,,,,,,,,,,,,,,,,,,,,,,,,,,,,,,,,,,,,,,,,,,,,,,,,,,,,,,,,,,,,,,,,,,,,,,,,,,,,,,,,,,,,,,,,,,,,,,,,,,,,,,,,,,,,,,,,,,,,,,,,,,,,57L54L,train_x,blue_star,bottom_left,2025-04-23_11h09.31.436,HideSeek_v1,2022.2.5,59.952972892906295,
,,,,,,,,,,,,,,,0,0,0,0,6,0,6,0,,,,,,,,,,,,,,,,,,,,,,,,,,,,,,,conditions/schedules/train_x_first/blue_star_00/bottom_left/instructions/Slide7.png,conditions/schedules/train_x_first/blue_star_00/bottom_left/instructions/Audio7.wav,628.6274076998234,628.6292503996752,7,"[3.2050600997172296, 18.013616899959743, 16.568704099860042, 19.508838299661875, 4.5235647996887565, 4.952266700100154, 5.953498799819499]","[0.0002302001230418682, 0.034086599946022034, 0.03118589986115694, 0.05336109967902303, 0.031672799959778786, 0.048727700021117926, 5.95350780012086]",0,,,,,,,,,,,,,,,,,,,,,,,,,,,,,,,,,,,,,,,,,,,,,,,,,,,,,,,,,,,,,,,,,,,,,,,,,,,,,,,,,,,,,,,,,,,,,,,,,,,,,,,,,,,,,,,,,,,,,,,,,,,,57L54L,train_x,blue_star,bottom_left,2025-04-23_11h09.31.436,HideSeek_v1,2022.2.5,59.952972892906295,
,,,,,,,,,,,,,,,0,0,0,0,7,0,7,0,,,,,,,,,,,,,,,,,,,,,,,,,,,,,,,conditions/schedules/train_x_first/blue_star_00/bottom_left/instructions/Slide8.png,conditions/schedules/train_x_first/blue_star_00/bottom_left/instructions/Audio8.wav,634.6345089999959,634.6341505999677,8,"[3.2050600997172296, 18.013616899959743, 16.568704099860042, 19.508838299661875, 4.5235647996887565, 4.952266700100154, 5.953498799819499, 12.440737899858505]","[0.0002302001230418682, 0.034086599946022034, 0.03118589986115694, 0.05336109967902303, 0.031672799959778786, 0.048727700021117926, 0.029948999639600515, 12.440747199580073]",0,,,,,,,,,,,,,,,,,,,,,,,,,,,,,,,,,,,,,,,,,,,,,,,,,,,,,,,,,,,,,,,,,,,,,,,,,,,,,,,,,,,,,,,,,,,,,,,,,,,,,,,,,,,,,,,,,,,,,,,,,,,,57L54L,train_x,blue_star,bottom_left,2025-04-23_11h09.31.436,HideSeek_v1,2022.2.5,59.952972892906295,
,,,,,,,,,,,,,,,0,0,0,0,8,0,8,0,,,,,,,,,,,,,,,,,,,,,,,,,,,,,,,conditions/schedules/train_x_first/blue_star_00/bottom_left/instructions/Slide9.png,conditions/schedules/train_x_first/blue_star_00/bottom_left/instructions/Audio9.wav,647.1431938996539,647.1449219998904,9,"[3.2050600997172296, 18.013616899959743, 16.568704099860042, 19.508838299661875, 4.5235647996887565, 4.952266700100154, 5.953498799819499, 12.440737899858505, 6.288007800001651]","[0.0002302001230418682, 0.034086599946022034, 0.03118589986115694, 0.05336109967902303, 0.031672799959778786, 0.048727700021117926, 0.029948999639600515, 0.09842689987272024, 6.2880160002969205]",0,,,,,,,,,,,,,,,,,,,,,,,,,,,,,,,,,,,,,,,,,,,,,,,,,,,,,,,,,,,,,,,,,,,,,,,,,,,,,,,,,,,,,,,,,,,,,,,,,,,,,,,,,,,,,,,,,,,,,,,,,,,,57L54L,train_x,blue_star,bottom_left,2025-04-23_11h09.31.436,HideSeek_v1,2022.2.5,59.952972892906295,
,,,,,,,,,,,,,,,0,0,0,0,9,0,9,0,,,,,,,,,,,,,,,,,,,,,,,,,,,,,,,conditions/schedules/train_x_first/blue_star_00/bottom_left/instructions/Slide10.png,conditions/schedules/train_x_first/blue_star_00/bottom_left/instructions/Audio10.wav,653.4790944000706,653.4671504998579,10,"[3.2050600997172296, 18.013616899959743, 16.568704099860042, 19.508838299661875, 4.5235647996887565, 4.952266700100154, 5.953498799819499, 12.440737899858505, 6.288007800001651, 7.156760700047016]","[0.0002302001230418682, 0.034086599946022034, 0.03118589986115694, 0.05336109967902303, 0.031672799959778786, 0.048727700021117926, 0.029948999639600515, 0.09842689987272024, 0.05048219999298453, 7.156769599765539]",0,,,,,,,,,,,,,,,,,,,,,,,,,,,,,,,,,,,,,,,,,,,,,,,,,,,,,,,,,,,,,,,,,,,,,,,,,,,,,,,,,,,,,,,,,,,,,,,,,,,,,,,,,,,,,,,,,,,,,,,,,,,,57L54L,train_x,blue_star,bottom_left,2025-04-23_11h09.31.436,HideSeek_v1,2022.2.5,59.952972892906295,
,,,,,,,,,,,,,,,0,0,0,0,10,0,10,0,,,,,,,,,,,,,,,,,,,,,,,,,,,,,,,conditions/schedules/train_x_first/blue_star_00/bottom_left/instructions/Slide11.png,conditions/schedules/train_x_first/blue_star_00/bottom_left/instructions/Audio11.wav,660.7081915000454,660.7058762996458,11,"[3.2050600997172296, 18.013616899959743, 16.568704099860042, 19.508838299661875, 4.5235647996887565, 4.952266700100154, 5.953498799819499, 12.440737899858505, 6.288007800001651, 7.156760700047016, 9.852847000118345]","[0.0002302001230418682, 0.034086599946022034, 0.03118589986115694, 0.05336109967902303, 0.031672799959778786, 0.048727700021117926, 0.029948999639600515, 0.09842689987272024, 0.05048219999298453, 0.03028120007365942, 9.852855700068176]",0,,,,,,,,,,,,,,,,,,,,,,,,,,,,,,,,,,,,,,,,,,,,,,,,,,,,,,,,,,,,,,,,,,,,,,,,,,,,,,,,,,,,,,,,,,,,,,,,,,,,,,,,,,,,,,,,,,,,,,,,,,,,57L54L,train_x,blue_star,bottom_left,2025-04-23_11h09.31.436,HideSeek_v1,2022.2.5,59.952972892906295,
,,,,,,,,,,,,,,,0,0,0,0,11,0,11,0,,,,,,,,,,,,,,,,,,,,,,,,,,,,,,,conditions/schedules/train_x_first/blue_star_00/bottom_left/instructions/Slide12.png,conditions/schedules/train_x_first/blue_star_00/bottom_left/instructions/Audio12.wav,670.6141963996924,670.6140708996915,12,"[3.2050600997172296, 18.013616899959743, 16.568704099860042, 19.508838299661875, 4.5235647996887565, 4.952266700100154, 5.953498799819499, 12.440737899858505, 6.288007800001651, 7.156760700047016, 9.852847000118345, 12.273722199723125]","[0.0002302001230418682, 0.034086599946022034, 0.03118589986115694, 0.05336109967902303, 0.031672799959778786, 0.048727700021117926, 0.029948999639600515, 0.09842689987272024, 0.05048219999298453, 0.03028120007365942, 0.11363080004230142, 12.27373049966991]",0,,,,,,,,,,,,,,,,,,,,,,,,,,,,,,,,,,,,,,,,,,,,,,,,,,,,,,,,,,,,,,,,,,,,,,,,,,,,,,,,,,,,,,,,,,,,,,,,,,,,,,,,,,,,,,,,,,,,,,,,,,,,57L54L,train_x,blue_star,bottom_left,2025-04-23_11h09.31.436,HideSeek_v1,2022.2.5,59.952972892906295,
1,4,0,9,0,5,0,11,2,instr_dim1_1,,,,,,0,0,0,0,,,,,0,0,0,0,,,,,,,,,,,,,,,,,,,,,,,,,,,,,,,,,,,,,stimuli/alien_stimuli/11.png,conditions/schedules/train_x_first/blue_star_00/bottom_left/inputInstr_1.xlsx,stimuli/alien_stimuli/11.png,682.9912344999611,682.9912344999611,682.9912344999611,682.9912344999611,682.9914879996329,return,10.633755099959671,"[-0.16, -0.08, 0, 0.08, 0.16, 0.24, 0.32, 0.4, 0.48, 0.56]","[-0.4, -0.32, -0.24, -0.16, -0.08, 0, 0.08, 0.16, 0.24, 0.32]",0,0,9,4,0.0,0.4,693.7941246996634,693.7941246996634,693.7941246996634,693.7941246996634,693.7941246996634,693.7941246996634,693.7941246996634,693.7838980996981,12.628378499764949,return,12.46423890022561,stimuli/alien_stimuli/11.png,11,4,1,,,,,,,,,,,,,,,,,,,,,,,,,,,,,,,,,,,,,,,,,,,,,,,,,,,,,,,,,,,,,,,,,,,,,,,,,,,,,,,,,,,,,,,,,57L54L,train_x,blue_star,bottom_left,2025-04-23_11h09.31.436,HideSeek_v1,2022.2.5,59.952972892906295,
,,,,,,,,,,,30,,,,0,0,0,0,,,,,,,,,,,,,,,,,,,,,,,,,,,,,,,,,,,,,,,,,,,,,,,,,,,,,,,,,,,,,,,,,,,,,,,,,,,,,,21,0.7,0,0,99,1,30,0,conditions/schedules/train_x_first/blue_star_00/bottom_left/inputTrain_1.1.xlsx,99,1,1,1,0,,,,,,,,,,,,,,,,,,,,,,,,,,,,,,,,,,,,,,,,,,,,,,,,,,,,,,,,,,,,,,,,,,,,,,,,,,,57L54L,train_x,blue_star,bottom_left,2025-04-23_11h09.31.436,HideSeek_v1,2022.2.5,59.952972892906295,
,,,,,,,,,,,,,,,1,0,1,0,0,0,0,0,,,,,,,,,,,,,,,,,,,,,,,,,,,,,,,conditions/schedules/train_x_first/blue_star_00/bottom_left/instructions/Slide13.png,conditions/schedules/train_x_first/blue_star_00/bottom_left/instructions/Audio13.wav,706.4204050996341,706.4111141999252,13,"[3.2050600997172296, 18.013616899959743, 16.568704099860042, 19.508838299661875, 4.5235647996887565, 4.952266700100154, 5.953498799819499, 12.440737899858505, 6.288007800001651, 7.156760700047016, 9.852847000118345, 12.273722199723125, 24.62625710014254]","[0.0002302001230418682, 0.034086599946022034, 0.03118589986115694, 0.05336109967902303, 0.031672799959778786, 0.048727700021117926, 0.029948999639600515, 0.09842689987272024, 0.05048219999298453, 0.03028120007365942, 0.11363080004230142, 12.27373049966991, 24.626287600025535]",0,,,,,,,,,,,,,,,,,,,,,,,,,,,,,,,,,,,,,,,,,,,,,,,,,,,,,,,,,,,,,,,,,,,,,,,,,,,,,,,,,,,,,,,,,,,,,,,,,,,,,,,,,,,,,,,,,,,,,,,,,,,,57L54L,train_x,blue_star,bottom_left,2025-04-23_11h09.31.436,HideSeek_v1,2022.2.5,59.952972892906295,
,,,,,,,,,,,,,,,1,0,1,0,1,0,1,0,,,,,,,,,,,,,,,,,,,,,,,,,,,,,,,conditions/schedules/train_x_first/blue_star_00/bottom_left/instructions/Slide14.png,conditions/schedules/train_x_first/blue_star_00/bottom_left/instructions/Audio14.wav,731.1332161999308,731.1329176999628,14,"[3.2050600997172296, 18.013616899959743, 16.568704099860042, 19.508838299661875, 4.5235647996887565, 4.952266700100154, 5.953498799819499, 12.440737899858505, 6.288007800001651, 7.156760700047016, 9.852847000118345, 12.273722199723125, 24.62625710014254, 12.672337000258267]","[0.0002302001230418682, 0.034086599946022034, 0.03118589986115694, 0.05336109967902303, 0.031672799959778786, 0.048727700021117926, 0.029948999639600515, 0.09842689987272024, 0.05048219999298453, 0.03028120007365942, 0.11363080004230142, 12.27373049966991, 0.00021800026297569275, 12.672345300205052]",0,,,,,,,,,,,,,,,,,,,,,,,,,,,,,,,,,,,,,,,,,,,,,,,,,,,,,,,,,,,,,,,,,,,,,,,,,,,,,,,,,,,,,,,,,,,,,,,,,,,,,,,,,,,,,,,,,,,,,,,,,,,,57L54L,train_x,blue_star,bottom_left,2025-04-23_11h09.31.436,HideSeek_v1,2022.2.5,59.952972892906295,
2,3,2,3,2,0,0,61,2,instr_dim1_1,,,,,,1,0,1,0,,,,,0,0,0,0,,,,,,,,,,,,,,,,,,,,,,,,,,,,,,,,,,,,,stimuli/alien_stimuli/61.png,conditions/schedules/train_x_first/blue_star_00/bottom_left/inputInstr_1.xlsx,stimuli/alien_stimuli/61.png,743.9005856998265,743.9005856998265,743.9005856998265,743.9005856998265,743.8918190999888,return,6.68744680006057,"[-0.16, -0.08, 0, 0.08, 0.16, 0.24, 0.32, 0.4, 0.48, 0.56]","[-0.4, -0.32, -0.24, -0.16, -0.08, 0, 0.08, 0.16, 0.24, 0.32]",2,2,3,3,0.0,0.0,750.7442410998046,750.7442410998046,750.7442410998046,750.7442410998046,750.7442410998046,750.7442410998046,750.7442410998046,750.7309531996026,9.892502299975604,return,9.733521900139749,stimuli/alien_stimuli/61.png,61,3,2,,,,,,,,,,,,,,,,,,,,,,,,,,,,,,,,,,,,,,,,,,,,,,,,,,,,,,,,,,,,,,,,,,,,,,,,,,,,,,,,,,,,,,,,,57L54L,train_x,blue_star,bottom_left,2025-04-23_11h09.31.436,HideSeek_v1,2022.2.5,59.952972892906295,
,,,,,,,,,,,30,,,,1,0,1,0,,,,,,,,,,,,,,,,,,,,,,,,,,,,,,,,,,,,,,,,,,,,,,,,,,,,,,,,,,,,,,,,,,,,,,,,,,,,,,21,0.7,0,0,99,1,30,0,conditions/schedules/train_x_first/blue_star_00/bottom_left/inputTrain_1.1.xlsx,99,1,1,1,0,,,,,,,,,,,,,,,,,,,,,,,,,,,,,,,,,,,,,,,,,,,,,,,,,,,,,,,,,,,,,,,,,,,,,,,,,,,57L54L,train_x,blue_star,bottom_left,2025-04-23_11h09.31.436,HideSeek_v1,2022.2.5,59.952972892906295,
,,,,,,,,,,,,,,,2,0,2,0,0,0,0,0,,,,,,,,,,,,,,,,,,,,,,,,,,,,,,,conditions/schedules/train_x_first/blue_star_00/bottom_left/instructions/Slide15.png,conditions/schedules/train_x_first/blue_star_00/bottom_left/instructions/Audio15.wav,760.6409239997156,760.639405099582,15,"[3.2050600997172296, 18.013616899959743, 16.568704099860042, 19.508838299661875, 4.5235647996887565, 4.952266700100154, 5.953498799819499, 12.440737899858505, 6.288007800001651, 7.156760700047016, 9.852847000118345, 12.273722199723125, 24.62625710014254, 12.672337000258267, 30.886791500262916]","[0.0002302001230418682, 0.034086599946022034, 0.03118589986115694, 0.05336109967902303, 0.031672799959778786, 0.048727700021117926, 0.029948999639600515, 0.09842689987272024, 0.05048219999298453, 0.03028120007365942, 0.11363080004230142, 12.27373049966991, 0.00021800026297569275, 12.672345300205052, 30.88679930008948]",0,,,,,,,,,,,,,,,,,,,,,,,,,,,,,,,,,,,,,,,,,,,,,,,,,,,,,,,,,,,,,,,,,,,,,,,,,,,,,,,,,,,,,,,,,,,,,,,,,,,,,,,,,,,,,,,,,,,,,,,,,,,,57L54L,train_x,blue_star,bottom_left,2025-04-23_11h09.31.436,HideSeek_v1,2022.2.5,59.952972892906295,
,,,,,,,,,,,,,,,2,0,2,0,1,0,1,0,,,,,,,,,,,,,,,,,,,,,,,,,,,,,,,conditions/schedules/train_x_first/blue_star_00/bottom_left/instructions/Slide16.png,conditions/schedules/train_x_first/blue_star_00/bottom_left/instructions/Audio16.wav,791.6043821997009,791.5980517999269,16,"[3.2050600997172296, 18.013616899959743, 16.568704099860042, 19.508838299661875, 4.5235647996887565, 4.952266700100154, 5.953498799819499, 12.440737899858505, 6.288007800001651, 7.156760700047016, 9.852847000118345, 12.273722199723125, 24.62625710014254, 12.672337000258267, 30.886791500262916, 21.49187789997086]","[0.0002302001230418682, 0.034086599946022034, 0.03118589986115694, 0.05336109967902303, 0.031672799959778786, 0.048727700021117926, 0.029948999639600515, 0.09842689987272024, 0.05048219999298453, 0.03028120007365942, 0.11363080004230142, 12.27373049966991, 0.00021800026297569275, 12.672345300205052, 30.88679930008948, 21.49188629956916]",0,,,,,,,,,,,,,,,,,,,,,,,,,,,,,,,,,,,,,,,,,,,,,,,,,,,,,,,,,,,,,,,,,,,,,,,,,,,,,,,,,,,,,,,,,,,,,,,,,,,,,,,,,,,,,,,,,,,,,,,,,,,,57L54L,train_x,blue_star,bottom_left,2025-04-23_11h09.31.436,HideSeek_v1,2022.2.5,59.952972892906295,
,2,1,5,1,3,0,31,,train_dim1_1,1,30,,,,2,0,2,0,,,,,,,,,0,0,0,0,0,0,0,0,0,0,0,0,,,,,,,,,,,,,,,,,,,,,,,,,stimuli/alien_stimuli/31.png,,,,,,,,,,,,,,,,,,,,,,,,,,,,,,,,,,,,,,,30,,,,,,,,813.1960612996481,813.1960612996481,813.1960612996481,813.1960612996481,813.1960612996481,right,13.506631199736148,0,0,0,99,0.08,-0.32,right,13.407256800215691,,,,,,,,,,,,,,,,,,,,,,,,,,,,,,,,,,,,,,,,,,,,,,,,,,,,,,,,,,,,57L54L,train_x,blue_star,bottom_left,2025-04-23_11h09.31.436,HideSeek_v1,2022.2.5,59.952972892906295,
,2,1,5,1,3,0,31,,train_dim1_1,1,30,,,,2,0,2,0,,,,,,,,,0,0,0,0,0,0,0,0,1,0,1,0,,,,,,,,,,,,,,,,,,,,,,,,,,,,,,,,,,,,,,,,,,,,,,,,,,,,,,,,,,,,,,,,30,,,,,,,,826.7037557000294,826.7037557000294,826.7037557000294,826.7037557000294,826.7037557000294,right,5.0970001998357475,0,0,0,99,0.16,-0.32,right,5.003827900160104,,,,,,,,,,,,,,,,,,,,,,,,,,,,,,,,,,,,,,,,,,,,,,,,,,,,,,,,,,,,57L54L,train_x,blue_star,bottom_left,2025-04-23_11h09.31.436,HideSeek_v1,2022.2.5,59.952972892906295,
,2,1,5,1,3,0,31,,train_dim1_1,1,30,,,,2,0,2,0,,,,,,,,,0,0,0,0,0,0,0,0,2,0,2,0,,,,,,,,,,,,,,,,,,,,,,,,,,,,,,,,,,,,,,,,,,,,,,,,,,,,,,,,,,,,,,,,30,,,,,,,,831.7982413000427,831.7982413000427,831.7982413000427,831.7982413000427,831.7982413000427,right,1.0241014999337494,0,0,0,99,0.24,-0.32,right,0.9380827001295984,,,,,,,,,,,,,,,,,,,,,,,,,,,,,,,,,,,,,,,,,,,,,,,,,,,,,,,,,,,,57L54L,train_x,blue_star,bottom_left,2025-04-23_11h09.31.436,HideSeek_v1,2022.2.5,59.952972892906295,
,2,1,5,1,3,0,31,,train_dim1_1,1,30,,,,2,0,2,0,,,,,,,,,0,0,0,0,0,0,0,0,3,0,3,0,,,,,,,,,,,,,,,,,,,,,,,,,,,,,,,,,,,,,,,,,,,,,,,,,,,,,,,,,,,,,,,,30,,,,,,,,832.8289532996714,832.8289532996714,832.8289532996714,832.8289532996714,832.8289532996714,right,0.8760890001431108,0,0,0,99,0.32,-0.32,right,0.799091599881649,,,,,,,,,,,,,,,,,,,,,,,,,,,,,,,,,,,,,,,,,,,,,,,,,,,,,,,,,,,,57L54L,train_x,blue_star,bottom_left,2025-04-23_11h09.31.436,HideSeek_v1,2022.2.5,59.952972892906295,
,2,1,5,1,3,0,31,,train_dim1_1,1,30,,,,2,0,2,0,,,,,,,,,0,0,0,0,0,0,0,0,4,0,4,0,,,,,,,,,,,,,,,,,,,,,,,,,,,,,,,,,,,,,,,,,,,,,,,,,,,,,,,,,,,,,,,,30,,,,,,,,833.712329799775,833.712329799775,833.712329799775,833.712329799775,833.712329799775,right,0.643737300299108,0,0,0,99,0.4,-0.32,right,0.5713365999981761,,,,,,,,,,,,,,,,,,,,,,,,,,,,,,,,,,,,,,,,,,,,,,,,,,,,,,,,,,,,57L54L,train_x,blue_star,bottom_left,2025-04-23_11h09.31.436,HideSeek_v1,2022.2.5,59.952972892906295,
,2,1,5,1,3,0,31,,train_dim1_1,1,30,,,,2,0,2,0,,,,,,,,,0,0,0,0,0,0,0,0,5,0,5,0,,,,,,,,,,,,,,,,,,,,,,,,,,,,,,,,,,,,,,,,,,,,,,,,,,,,,,,,,,,,,,,,30,,,,,,,,834.3633316997439,834.3633316997439,834.3633316997439,834.3633316997439,834.3633316997439,return,12.219884099904448,0,0,0,0,0.4,-0.32,return,12.146097499877214,0,5,0.4,-0.32,,,,,,,,,,,,,,,,,,,,,,,,,,,,,,,,,,,,,,,,,,,,,,,,,,,,,,,,57L54L,train_x,blue_star,bottom_left,2025-04-23_11h09.31.436,HideSeek_v1,2022.2.5,59.952972892906295,
,2,4,7,4,5,0,11,,train_dim1_1,2,30,,,,2,0,2,0,,,,,,,,,0,0,0,0,0,1,1,1,0,0,0,0,,,,,,,,,,,,,,,,,,,,,,,,,stimuli/alien_stimuli/11.png,,,,,,,,,,,,,,,,,,,,,,,,,,,,,stimuli/alien_stimuli/31.png,31,2,3,,,,,,,30,,,,,,,,871.0448660999537,871.0448660999537,871.0448660999537,871.0448660999537,871.0448660999537,up,9.660508899949491,0,0,0,99,0,0.0,up,9.546995699871331,,,,,869.4619825999252,871.0448660999537,0.24,-0.32,0.0,0.24,-0.32,0.24,0.12,0.24,-0.32,848.1743977996521,848.1743977996521,848.1743977996521,848.1743977996521,848.1743977996521,848.1743977996521,848.1743977996521,848.1743977996521,848.1621206996962,21.419853100087494,return,21.258026299998164,,,,,,,,,,,,,,,,,,,,,,,,,,,,,,,,,57L54L,train_x,blue_star,bottom_left,2025-04-23_11h09.31.436,HideSeek_v1,2022.2.5,59.952972892906295,
,2,4,7,4,5,0,11,,train_dim1_1,2,30,,,,2,0,2,0,,,,,,,,,0,0,0,0,0,1,1,1,1,0,1,0,,,,,,,,,,,,,,,,,,,,,,,,,,,,,,,,,,,,,,,,,,,,,,,,,,,,,,,,,,,,,,,,30,,,,,,,,880.6925980998203,880.6925980998203,880.6925980998203,880.6925980998203,880.6925980998203,up,0.7406448996625841,0,0,0,99,0,0.08,up,0.6516259997151792,,,,,,,,,,,,,,,,,,,,,,,,,,,,,,,,,,,,,,,,,,,,,,,,,,,,,,,,,,,,57L54L,train_x,blue_star,bottom_left,2025-04-23_11h09.31.436,HideSeek_v1,2022.2.5,59.952972892906295,
,2,4,7,4,5,0,11,,train_dim1_1,2,30,,,,2,0,2,0,,,,,,,,,0,0,0,0,0,1,1,1,2,0,2,0,,,,,,,,,,,,,,,,,,,,,,,,,,,,,,,,,,,,,,,,,,,,,,,,,,,,,,,,,,,,,,,,30,,,,,,,,881.4389312998392,881.4389312998392,881.4389312998392,881.4389312998392,881.4389312998392,up,0.7103452999144793,0,0,0,99,0,0.16,up,0.6259540999308228,,,,,,,,,,,,,,,,,,,,,,,,,,,,,,,,,,,,,,,,,,,,,,,,,,,,,,,,,,,,57L54L,train_x,blue_star,bottom_left,2025-04-23_11h09.31.436,HideSeek_v1,2022.2.5,59.952972892906295,
,2,4,7,4,5,0,11,,train_dim1_1,2,30,,,,2,0,2,0,,,,,,,,,0,0,0,0,0,1,1,1,3,0,3,0,,,,,,,,,,,,,,,,,,,,,,,,,,,,,,,,,,,,,,,,,,,,,,,,,,,,,,,,,,,,,,,,30,,,,,,,,882.1558154998347,882.1558154998347,882.1558154998347,882.1558154998347,882.1558154998347,right,3.1290679001249373,0,0,0,99,0.08,0.16,right,3.046511000022292,,,,,,,,,,,,,,,,,,,,,,,,,,,,,,,,,,,,,,,,,,,,,,,,,,,,,,,,,,,,57L54L,train_x,blue_star,bottom_left,2025-04-23_11h09.31.436,HideSeek_v1,2022.2.5,59.952972892906295,
,2,4,7,4,5,0,11,,train_dim1_1,2,30,,,,2,0,2,0,,,,,,,,,0,0,0,0,0,1,1,1,4,0,4,0,,,,,,,,,,,,,,,,,,,,,,,,,,,,,,,,,,,,,,,,,,,,,,,,,,,,,,,,,,,,,,,,30,,,,,,,,885.2953820996918,885.2953820996918,885.2953820996918,885.2953820996918,885.2953820996918,return,7.8147456999868155,0,0,0,0,0.08,0.16,return,7.731336200144142,3,6,0.08,0.16,,,,,,,,,,,,,,,,,,,,,,,,,,,,,,,,,,,,,,,,,,,,,,,,,,,,,,,,57L54L,train_x,blue_star,bottom_left,2025-04-23_11h09.31.436,HideSeek_v1,2022.2.5,59.952972892906295,
,4,4,8,4,4,0,21,,train_dim1_1,3,30,,,,2,0,2,0,,,,,,,,,0,0,0,0,0,2,2,2,0,0,0,0,,,,,,,,,,,,,,,,,,,,,,,,,stimuli/alien_stimuli/21.png,,,,,,,,,,,,,,,,,,,,,,,,,,,,,stimuli/alien_stimuli/11.png,11,2,4,,,,,,,30,,,,,,,,905.3058350998908,905.3058350998908,905.3058350998908,905.3058350998908,905.3058350998908,right,5.5247999001294374,0,0,0,99,0.24,-0.08,right,5.438944399822503,,,,,903.7404298000038,905.3058350998908,0.4,-0.08,0.0,0.4,-0.08,0.4,0.2,0.4,-0.08,894.6934703998268,894.6934703998268,894.6934703998268,894.6934703998268,894.6934703998268,894.6934703998268,894.6934703998268,894.6934703998268,894.6841604996472,9.176180500071496,return,9.020854000002146,,,,,,,,,,,,,,,,,,,,,,,,,,,,,,,,,57L54L,train_x,blue_star,bottom_left,2025-04-23_11h09.31.436,HideSeek_v1,2022.2.5,59.952972892906295,
,4,4,8,4,4,0,21,,train_dim1_1,3,30,,,,2,0,2,0,,,,,,,,,0,0,0,0,0,2,2,2,1,0,1,0,,,,,,,,,,,,,,,,,,,,,,,,,,,,,,,,,,,,,,,,,,,,,,,,,,,,,,,,,,,,,,,,30,,,,,,,,910.8346484000795,910.8346484000795,910.8346484000795,910.8346484000795,910.8346484000795,right,0.7072461000643671,0,0,0,99,0.32,-0.08,right,0.6248666001483798,,,,,,,,,,,,,,,,,,,,,,,,,,,,,,,,,,,,,,,,,,,,,,,,,,,,,,,,,,,,57L54L,train_x,blue_star,bottom_left,2025-04-23_11h09.31.436,HideSeek_v1,2022.2.5,59.952972892906295,
,4,4,8,4,4,0,21,,train_dim1_1,3,30,,,,2,0,2,0,,,,,,,,,0,0,0,0,0,2,2,2,2,0,2,0,,,,,,,,,,,,,,,,,,,,,,,,,,,,,,,,,,,,,,,,,,,,,,,,,,,,,,,,,,,,,,,,30,,,,,,,,911.5475169997662,911.5475169997662,911.5475169997662,911.5475169997662,911.5475169997662,right,0.7605520999059081,0,0,0,99,0.4,-0.08,right,0.6771995001472533,,,,,,,,,,,,,,,,,,,,,,,,,,,,,,,,,,,,,,,,,,,,,,,,,,,,,,,,,,,,57L54L,train_x,blue_star,bottom_left,2025-04-23_11h09.31.436,HideSeek_v1,2022.2.5,59.952972892906295,
,4,4,8,4,4,0,21,,train_dim1_1,3,30,,,,2,0,2,0,,,,,,,,,0,0,0,0,0,2,2,2,3,0,3,0,,,,,,,,,,,,,,,,,,,,,,,,,,,,,,,,,,,,,,,,,,,,,,,,,,,,,,,,,,,,,,,,30,,,,,,,,912.3143008998595,912.3143008998595,912.3143008998595,912.3143008998595,912.3143008998595,return,1.844732899684459,0,1,0,0,0.4,-0.08,return,1.7603674000129104,3,9,0.4,-0.08,,,,,,,,,,,,,,,,,,,,,,,,,,,,,,,,,,,,,,,,,,,,,,,,,,,,,,,,57L54L,train_x,blue_star,bottom_left,2025-04-23_11h09.31.436,HideSeek_v1,2022.2.5,59.952972892906295,
,2,3,3,3,1,0,51,,train_dim1_1,4,30,,,,2,0,2,0,,,,,,,,,0,0,0,0,0,3,3,3,0,0,0,0,,,,,,,,,,,,,,,,,,,,,,,,,stimuli/alien_stimuli/51.png,,,,,,,,,,,,,,,,,,,,,,,,,,,,,stimuli/alien_stimuli/21.png,21,4,5,,,,,,,30,,,,,,,,933.0471612997353,933.0471612997353,933.0471612997353,933.0471612997353,933.0471612997353,up,16.744725900236517,0,1,0,99,0,-0.08,up,16.643942200113088,,,,,931.4635189999826,933.0471612997353,0.48,-0.08,0.0,0.32,-0.08,0.48,0.32,0.48,-0.08,915.7435586000793,915.7435586000793,915.7435586000793,915.7435586000793,915.7435586000793,915.7435586000793,915.7435586000793,915.7435586000793,915.7348616996779,15.848609100095928,return,15.695186599623412,,,,,,,,,,,,,,,,,,,,,,,,,,,,,,,,,57L54L,train_x,blue_star,bottom_left,2025-04-23_11h09.31.436,HideSeek_v1,2022.2.5,59.952972892906295,
,2,3,3,3,1,0,51,,train_dim1_1,4,30,,,,2,0,2,0,,,,,,,,,0,0,0,0,0,3,3,3,1,0,1,0,,,,,,,,,,,,,,,,,,,,,,,,,,,,,,,,,,,,,,,,,,,,,,,,,,,,,,,,,,,,,,,,30,,,,,,,,949.7959431996569,949.7959431996569,949.7959431996569,949.7959431996569,949.7959431996569,up,0.7594868000596762,0,1,0,99,0,0.0,up,0.6548839001916349,,,,,,,,,,,,,,,,,,,,,,,,,,,,,,,,,,,,,,,,,,,,,,,,,,,,,,,,,,,,57L54L,train_x,blue_star,bottom_left,2025-04-23_11h09.31.436,HideSeek_v1,2022.2.5,59.952972892906295,
,2,3,3,3,1,0,51,,train_dim1_1,4,30,,,,2,0,2,0,,,,,,,,,0,0,0,0,0,3,3,3,2,0,2,0,,,,,,,,,,,,,,,,,,,,,,,,,,,,,,,,,,,,,,,,,,,,,,,,,,,,,,,,,,,,,,,,30,,,,,,,,950.5482772998512,950.5482772998512,950.5482772998512,950.5482772998512,950.5482772998512,up,2.5599719998426735,0,1,0,99,0,0.08,up,2.4790163999423385,,,,,,,,,,,,,,,,,,,,,,,,,,,,,,,,,,,,,,,,,,,,,,,,,,,,,,,,,,,,57L54L,train_x,blue_star,bottom_left,2025-04-23_11h09.31.436,HideSeek_v1,2022.2.5,59.952972892906295,
,2,3,3,3,1,0,51,,train_dim1_1,4,30,,,,2,0,2,0,,,,,,,,,0,0,0,0,0,3,3,3,3,0,3,0,,,,,,,,,,,,,,,,,,,,,,,,,,,,,,,,,,,,,,,,,,,,,,,,,,,,,,,,,,,,,,,,30,,,,,,,,953.1145569998771,953.1145569998771,953.1145569998771,953.1145569998771,953.1145569998771,down,8.199761100113392,0,1,0,99,0,0.0,down,8.112617999780923,,,,,,,,,,,,,,,,,,,,,,,,,,,,,,,,,,,,,,,,,,,,,,,,,,,,,,,,,,,,57L54L,train_x,blue_star,bottom_left,2025-04-23_11h09.31.436,HideSeek_v1,2022.2.5,59.952972892906295,
,2,3,3,3,1,0,51,,train_dim1_1,4,30,,,,2,0,2,0,,,,,,,,,0,0,0,0,0,3,3,3,4,0,4,0,,,,,,,,,,,,,,,,,,,,,,,,,,,,,,,,,,,,,,,,,,,,,,,,,,,,,,,,,,,,,,,,30,,,,,,,,961.3391465996392,961.3391465996392,961.3391465996392,961.3391465996392,961.3391465996392,down,0.4928850997239351,0,1,0,99,0,-0.08,down,0.38951660040766,,,,,,,,,,,,,,,,,,,,,,,,,,,,,,,,,,,,,,,,,,,,,,,,,,,,,,,,,,,,57L54L,train_x,blue_star,bottom_left,2025-04-23_11h09.31.436,HideSeek_v1,2022.2.5,59.952972892906295,
,2,3,3,3,1,0,51,,train_dim1_1,4,30,,,,2,0,2,0,,,,,,,,,0,0,0,0,0,3,3,3,5,0,5,0,,,,,,,,,,,,,,,,,,,,,,,,,,,,,,,,,,,,,,,,,,,,,,,,,,,,,,,,,,,,,,,,30,,,,,,,,961.8216205998324,961.8216205998324,961.8216205998324,961.8216205998324,961.8216205998324,down,1.4609794998541474,0,1,0,99,0,-0.16,down,1.381038899999112,,,,,,,,,,,,,,,,,,,,,,,,,,,,,,,,,,,,,,,,,,,,,,,,,,,,,,,,,,,,57L54L,train_x,blue_star,bottom_left,2025-04-23_11h09.31.436,HideSeek_v1,2022.2.5,59.952972892906295,
,2,3,3,3,1,0,51,,train_dim1_1,4,30,,,,2,0,2,0,,,,,,,,,0,0,0,0,0,3,3,3,6,0,6,0,,,,,,,,,,,,,,,,,,,,,,,,,,,,,,,,,,,,,,,,,,,,,,,,,,,,,,,,,,,,,,,,30,,,,,,,,963.2892319997773,963.2892319997773,963.2892319997773,963.2892319997773,963.2892319997773,right,1.460858200211078,0,1,0,99,0.08,-0.16,right,1.3705011000856757,,,,,,,,,,,,,,,,,,,,,,,,,,,,,,,,,,,,,,,,,,,,,,,,,,,,,,,,,,,,57L54L,train_x,blue_star,bottom_left,2025-04-23_11h09.31.436,HideSeek_v1,2022.2.5,59.952972892906295,
,2,3,3,3,1,0,51,,train_dim1_1,4,30,,,,2,0,2,0,,,,,,,,,0,0,0,0,0,3,3,3,7,0,7,0,,,,,,,,,,,,,,,,,,,,,,,,,,,,,,,,,,,,,,,,,,,,,,,,,,,,,,,,,,,,,,,,30,,,,,,,,964.7613605000079,964.7613605000079,964.7613605000079,964.7613605000079,964.7613605000079,right,0.6090135001577437,0,1,0,99,0.16,-0.16,right,0.5230163997039199,,,,,,,,,,,,,,,,,,,,,,,,,,,,,,,,,,,,,,,,,,,,,,,,,,,,,,,,,,,,57L54L,train_x,blue_star,bottom_left,2025-04-23_11h09.31.436,HideSeek_v1,2022.2.5,59.952972892906295,
,2,3,3,3,1,0,51,,train_dim1_1,4,30,,,,2,0,2,0,,,,,,,,,0,0,0,0,0,3,3,3,8,0,8,0,,,,,,,,,,,,,,,,,,,,,,,,,,,,,,,,,,,,,,,,,,,,,,,,,,,,,,,,,,,,,,,,30,,,,,,,,965.374696099665,965.374696099665,965.374696099665,965.374696099665,965.374696099665,right,1.1100483001209795,0,1,0,99,0.24,-0.16,right,1.0299741001799703,,,,,,,,,,,,,,,,,,,,,,,,,,,,,,,,,,,,,,,,,,,,,,,,,,,,,,,,,,,,57L54L,train_x,blue_star,bottom_left,2025-04-23_11h09.31.436,HideSeek_v1,2022.2.5,59.952972892906295,
,2,3,3,3,1,0,51,,train_dim1_1,4,30,,,,2,0,2,0,,,,,,,,,0,0,0,0,0,3,3,3,9,0,9,0,,,,,,,,,,,,,,,,,,,,,,,,,,,,,,,,,,,,,,,,,,,,,,,,,,,,,,,,,,,,,,,,30,,,,,,,,966.4913166998886,966.4913166998886,966.4913166998886,966.4913166998886,966.4913166998886,up,2.862396599724889,0,1,0,99,0.24,-0.08,up,2.777972700074315,,,,,,,,,,,,,,,,,,,,,,,,,,,,,,,,,,,,,,,,,,,,,,,,,,,,,,,,,,,,57L54L,train_x,blue_star,bottom_left,2025-04-23_11h09.31.436,HideSeek_v1,2022.2.5,59.952972892906295,
,2,3,3,3,1,0,51,,train_dim1_1,4,30,,,,2,0,2,0,,,,,,,,,0,0,0,0,0,3,3,3,10,0,10,0,,,,,,,,,,,,,,,,,,,,,,,,,,,,,,,,,,,,,,,,,,,,,,,,,,,,,,,,,,,,,,,,30,,,,,,,,969.3630295996554,969.3630295996554,969.3630295996554,969.3630295996554,969.3630295996554,return,1.0758009999990463,0,0,0,0,0.24,-0.08,return,0.9945259001106024,4,12,0.24,-0.08,,,,,,,,,,,,,,,,,,,,,,,,,,,,,,,,,,,,,,,,,,,,,,,,,,,,,,,,57L54L,train_x,blue_star,bottom_left,2025-04-23_11h09.31.436,HideSeek_v1,2022.2.5,59.952972892906295,
,0,2,0,2,0,0,61,,train_dim1_1,5,30,,,,2,0,2,0,,,,,,,,,0,0,0,0,0,4,4,4,0,0,0,0,,,,,,,,,,,,,,,,,,,,,,,,,stimuli/alien_stimuli/61.png,,,,,,,,,,,,,,,,,,,,,,,,,,,,,stimuli/alien_stimuli/51.png,51,2,6,,,,,,,30,,,,,,,,980.8469438999891,980.8469438999891,980.8469438999891,980.8469438999891,980.8469438999891,right,5.558365700300783,0,0,0,99,-0.08,-0.24,right,5.465201599989086,,,,,979.2864653998986,980.8469438999891,0.08,-0.16,0.0,0.08,-0.16,0.08,0.04,0.08,-0.16,972.0150603000075,972.0150603000075,972.0150603000075,972.0150603000075,972.0150603000075,972.0150603000075,972.0150603000075,972.0150603000075,971.9981045999564,7.391545299906284,return,7.247215199749917,,,,,,,,,,,,,,,,,,,,,,,,,,,,,,,,,57L54L,train_x,blue_star,bottom_left,2025-04-23_11h09.31.436,HideSeek_v1,2022.2.5,59.952972892906295,
,0,2,0,2,0,0,61,,train_dim1_1,5,30,,,,2,0,2,0,,,,,,,,,0,0,0,0,0,4,4,4,1,0,1,0,,,,,,,,,,,,,,,,,,,,,,,,,,,,,,,,,,,,,,,,,,,,,,,,,,,,,,,,,,,,,,,,30,,,,,,,,986.4068553997204,986.4068553997204,986.4068553997204,986.4068553997204,986.4068553997204,right,0.5260454001836479,0,0,0,99,0.0,-0.24,right,0.44529279973357916,,,,,,,,,,,,,,,,,,,,,,,,,,,,,,,,,,,,,,,,,,,,,,,,,,,,,,,,,,,,57L54L,train_x,blue_star,bottom_left,2025-04-23_11h09.31.436,HideSeek_v1,2022.2.5,59.952972892906295,
,0,2,0,2,0,0,61,,train_dim1_1,5,30,,,,2,0,2,0,,,,,,,,,0,0,0,0,0,4,4,4,2,0,2,0,,,,,,,,,,,,,,,,,,,,,,,,,,,,,,,,,,,,,,,,,,,,,,,,,,,,,,,,,,,,,,,,30,,,,,,,,986.9408499998972,986.9408499998972,986.9408499998972,986.9408499998972,986.9408499998972,return,2.1448726998642087,0,0,0,0,0.0,-0.24,return,2.060462399851531,4,14,0.0,-0.24,,,,,,,,,,,,,,,,,,,,,,,,,,,,,,,,,,,,,,,,,,,,,,,,,,,,,,,,57L54L,train_x,blue_star,bottom_left,2025-04-23_11h09.31.436,HideSeek_v1,2022.2.5,59.952972892906295,
,0,0,4,0,4,0,21,,train_dim1_1,6,30,,,,2,0,2,0,,,,,,,,,0,0,0,0,0,5,5,5,0,0,0,0,,,,,,,,,,,,,,,,,,,,,,,,,stimuli/alien_stimuli/21.png,,,,,,,,,,,,,,,,,,,,,,,,,,,,,stimuli/alien_stimuli/61.png,61,0,7,,,,,,,30,,,,,,,,997.3524142000824,997.3524142000824,997.3524142000824,997.3524142000824,997.3524142000824,right,4.473204999696463,0,0,0,99,-0.08,-0.4,right,4.3857597997412086,,,,,995.7837001997977,997.3524142000824,-0.16,-0.24,0.0,0.0,-0.24,-0.16,-0.16,-0.16,-0.24,990.6613965998404,990.6613965998404,990.6613965998404,990.6613965998404,990.6613965998404,990.6613965998404,990.6613965998404,990.6613965998404,990.6470477997325,5.239622300025076,return,5.093101600185037,,,,,,,,,,,,,,,,,,,,,,,,,,,,,,,,,57L54L,train_x,blue_star,bottom_left,2025-04-23_11h09.31.436,HideSeek_v1,2022.2.5,59.952972892906295,
,0,0,4,0,4,0,21,,train_dim1_1,6,30,,,,2,0,2,0,,,,,,,,,0,0,0,0,0,5,5,5,1,0,1,0,,,,,,,,,,,,,,,,,,,,,,,,,,,,,,,,,,,,,,,,,,,,,,,,,,,,,,,,,,,,,,,,30,,,,,,,,1001.823746799957,1001.823746799957,1001.823746799957,1001.823746799957,1001.823746799957,right,1.243699500337243,0,0,0,99,0.0,-0.4,right,1.165153699927032,,,,,,,,,,,,,,,,,,,,,,,,,,,,,,,,,,,,,,,,,,,,,,,,,,,,,,,,,,,,57L54L,train_x,blue_star,bottom_left,2025-04-23_11h09.31.436,HideSeek_v1,2022.2.5,59.952972892906295,
,0,0,4,0,4,0,21,,train_dim1_1,6,30,,,,2,0,2,0,,,,,,,,,0,0,0,0,0,5,5,5,2,0,2,0,,,,,,,,,,,,,,,,,,,,,,,,,,,,,,,,,,,,,,,,,,,,,,,,,,,,,,,,,,,,,,,,30,,,,,,,,1003.0742826997302,1003.0742826997302,1003.0742826997302,1003.0742826997302,1003.0742826997302,right,0.7429934996180236,0,0,0,99,0.08,-0.4,right,0.6637512003071606,,,,,,,,,,,,,,,,,,,,,,,,,,,,,,,,,,,,,,,,,,,,,,,,,,,,,,,,,,,,57L54L,train_x,blue_star,bottom_left,2025-04-23_11h09.31.436,HideSeek_v1,2022.2.5,59.952972892906295,
,0,0,4,0,4,0,21,,train_dim1_1,6,30,,,,2,0,2,0,,,,,,,,,0,0,0,0,0,5,5,5,3,0,3,0,,,,,,,,,,,,,,,,,,,,,,,,,,,,,,,,,,,,,,,,,,,,,,,,,,,,,,,,,,,,,,,,30,,,,,,,,1003.8247930998914,1003.8247930998914,1003.8247930998914,1003.8247930998914,1003.8247930998914,right,1.3608233002014458,0,0,0,99,0.16,-0.4,right,1.2809383999556303,,,,,,,,,,,,,,,,,,,,,,,,,,,,,,,,,,,,,,,,,,,,,,,,,,,,,,,,,,,,57L54L,train_x,blue_star,bottom_left,2025-04-23_11h09.31.436,HideSeek_v1,2022.2.5,59.952972892906295,
,0,0,4,0,4,0,21,,train_dim1_1,6,30,,,,2,0,2,0,,,,,,,,,0,0,0,0,0,5,5,5,4,0,4,0,,,,,,,,,,,,,,,,,,,,,,,,,,,,,,,,,,,,,,,,,,,,,,,,,,,,,,,,,,,,,,,,30,,,,,,,,1005.1938432999887,1005.1938432999887,1005.1938432999887,1005.1938432999887,1005.1938432999887,return,1.4103005002252758,1,0,0,1,0.16,-0.4,return,1.3200121000409126,4,18,0.16,-0.4,,,,,,,,,,,,,,,,,,,,,,,,,,,,,,,,,,,,,,,,,,,,,,,,,,,,,,,,57L54L,train_x,blue_star,bottom_left,2025-04-23_11h09.31.436,HideSeek_v1,2022.2.5,59.952972892906295,
,3,0,3,0,0,0,61,,train_dim1_1,7,30,,,,2,0,2,0,,,,,,,,,0,0,0,0,0,6,6,6,0,0,0,0,,,,,,,,,,,,,,,,,,,,,,,,,stimuli/alien_stimuli/61.png,,,,,,,,,,,,,,,,,,,,,,,,,,,,,stimuli/alien_stimuli/21.png,21,0,8,,,,,,,30,,,,,,,,1020.4416054999456,1020.4416054999456,1020.4416054999456,1020.4416054999456,1020.4416054999456,right,6.84287970000878,1,0,0,99,0.16,-0.4,right,6.749189599882811,,,,,1018.8690265999176,1020.4416054999456,0.16,-0.4,0.0,0.32,-0.4,0.16,0.0,0.16,-0.4,1008.1879638000391,1008.1879638000391,1008.1879638000391,1008.1879638000391,1008.1879638000391,1008.1879638000391,1008.1879638000391,1008.1879638000391,1008.1785213996656,10.810912400018424,return,10.65473850024864,,,,,,,,,,,,,,,,,,,,,,,,,,,,,,,,,57L54L,train_x,blue_star,bottom_left,2025-04-23_11h09.31.436,HideSeek_v1,2022.2.5,59.952972892906295,
,3,0,3,0,0,0,61,,train_dim1_1,7,30,,,,2,0,2,0,,,,,,,,,0,0,0,0,0,6,6,6,1,0,1,0,,,,,,,,,,,,,,,,,,,,,,,,,,,,,,,,,,,,,,,,,,,,,,,,,,,,,,,,,,,,,,,,30,,,,,,,,1027.2735864999704,1027.2735864999704,1027.2735864999704,1027.2735864999704,1027.2735864999704,left,0.8431577999144793,1,0,0,99,0.08,-0.4,left,0.7698265998624265,,,,,,,,,,,,,,,,,,,,,,,,,,,,,,,,,,,,,,,,,,,,,,,,,,,,,,,,,,,,57L54L,train_x,blue_star,bottom_left,2025-04-23_11h09.31.436,HideSeek_v1,2022.2.5,59.952972892906295,
,3,0,3,0,0,0,61,,train_dim1_1,7,30,,,,2,0,2,0,,,,,,,,,0,0,0,0,0,6,6,6,2,0,2,0,,,,,,,,,,,,,,,,,,,,,,,,,,,,,,,,,,,,,,,,,,,,,,,,,,,,,,,,,,,,,,,,30,,,,,,,,1028.1237798999064,1028.1237798999064,1028.1237798999064,1028.1237798999064,1028.1237798999064,return,1.277675500139594,2,0,0,1,0.08,-0.4,return,1.201304899994284,4,18,0.08,-0.4,,,,,,,,,,,,,,,,,,,,,,,,,,,,,,,,,,,,,,,,,,,,,,,,,,,,,,,,57L54L,train_x,blue_star,bottom_left,2025-04-23_11h09.31.436,HideSeek_v1,2022.2.5,59.952972892906295,
,0,4,3,4,3,0,31,,train_dim1_1,8,30,,,,2,0,2,0,,,,,,,,,0,0,0,0,0,7,7,7,0,0,0,0,,,,,,,,,,,,,,,,,,,,,,,,,stimuli/alien_stimuli/31.png,,,,,,,,,,,,,,,,,,,,,,,,,,,,,stimuli/alien_stimuli/61.png,61,3,9,,,,,,,30,,,,,,,,1036.261459399946,1036.261459399946,1036.261459399946,1036.261459399946,1036.261459399946,right,4.506420799996704,2,0,0,99,-0.08,-0.08,right,4.426242200192064,,,,,1034.6993525996804,1036.261459399946,0.08,-0.4,0.0,0.0,-0.4,0.08,0.08,0.08,-0.4,1030.9781689997762,1030.9781689997762,1030.9781689997762,1030.9781689997762,1030.9781689997762,1030.9781689997762,1030.9781689997762,1030.9781689997762,1030.964028399624,3.8383204001002014,return,3.6992647000588477,,,,,,,,,,,,,,,,,,,,,,,,,,,,,,,,,57L54L,train_x,blue_star,bottom_left,2025-04-23_11h09.31.436,HideSeek_v1,2022.2.5,59.952972892906295,
,0,4,3,4,3,0,31,,train_dim1_1,8,30,,,,2,0,2,0,,,,,,,,,0,0,0,0,0,7,7,7,1,0,1,0,,,,,,,,,,,,,,,,,,,,,,,,,,,,,,,,,,,,,,,,,,,,,,,,,,,,,,,,,,,,,,,,30,,,,,,,,1040.768282099627,1040.768282099627,1040.768282099627,1040.768282099627,1040.768282099627,right,0.5263380999676883,2,0,0,99,0.0,-0.08,right,0.450320300180465,,,,,,,,,,,,,,,,,,,,,,,,,,,,,,,,,,,,,,,,,,,,,,,,,,,,,,,,,,,,57L54L,train_x,blue_star,bottom_left,2025-04-23_11h09.31.436,HideSeek_v1,2022.2.5,59.952972892906295,
,0,4,3,4,3,0,31,,train_dim1_1,8,30,,,,2,0,2,0,,,,,,,,,0,0,0,0,0,7,7,7,2,0,2,0,,,,,,,,,,,,,,,,,,,,,,,,,,,,,,,,,,,,,,,,,,,,,,,,,,,,,,,,,,,,,,,,30,,,,,,,,1041.3002382996492,1041.3002382996492,1041.3002382996492,1041.3002382996492,1041.3002382996492,right,0.5099587002769113,2,0,0,99,0.08,-0.08,right,0.43362020002678037,,,,,,,,,,,,,,,,,,,,,,,,,,,,,,,,,,,,,,,,,,,,,,,,,,,,,,,,,,,,57L54L,train_x,blue_star,bottom_left,2025-04-23_11h09.31.436,HideSeek_v1,2022.2.5,59.952972892906295,
,0,4,3,4,3,0,31,,train_dim1_1,8,30,,,,2,0,2,0,,,,,,,,,0,0,0,0,0,7,7,7,3,0,3,0,,,,,,,,,,,,,,,,,,,,,,,,,,,,,,,,,,,,,,,,,,,,,,,,,,,,,,,,,,,,,,,,30,,,,,,,,1041.8172220997512,1041.8172220997512,1041.8172220997512,1041.8172220997512,1041.8172220997512,right,0.5436669997870922,2,0,0,99,0.16,-0.08,right,0.4631361002102494,,,,,,,,,,,,,,,,,,,,,,,,,,,,,,,,,,,,,,,,,,,,,,,,,,,,,,,,,,,,57L54L,train_x,blue_star,bottom_left,2025-04-23_11h09.31.436,HideSeek_v1,2022.2.5,59.952972892906295,
,0,4,3,4,3,0,31,,train_dim1_1,8,30,,,,2,0,2,0,,,,,,,,,0,0,0,0,0,7,7,7,4,0,4,0,,,,,,,,,,,,,,,,,,,,,,,,,,,,,,,,,,,,,,,,,,,,,,,,,,,,,,,,,,,,,,,,30,,,,,,,,1042.3684616000392,1042.3684616000392,1042.3684616000392,1042.3684616000392,1042.3684616000392,return,0.960689099971205,2,1,0,0,0.16,-0.08,return,0.8880555997602642,4,22,0.16,-0.08,,,,,,,,,,,,,,,,,,,,,,,,,,,,,,,,,,,,,,,,,,,,,,,,,,,,,,,,57L54L,train_x,blue_star,bottom_left,2025-04-23_11h09.31.436,HideSeek_v1,2022.2.5,59.952972892906295,
,1,0,2,0,1,0,51,,train_dim1_1,9,30,,,,2,0,2,0,,,,,,,,,0,0,0,0,0,8,8,8,0,0,0,0,,,,,,,,,,,,,,,,,,,,,,,,,stimuli/alien_stimuli/51.png,,,,,,,,,,,,,,,,,,,,,,,,,,,,,stimuli/alien_stimuli/31.png,31,0,10,,,,,,,30,,,,,,,,1050.457738999743,1050.457738999743,1050.457738999743,1050.457738999743,1050.457738999743,right,5.50691399956122,2,1,0,99,0.0,-0.4,right,5.419272999744862,,,,,1048.8943646000698,1050.457738999743,0.08,-0.08,0.0,0.24,-0.08,0.08,-0.04,0.08,-0.08,1044.8929369999096,1044.8929369999096,1044.8929369999096,1044.8929369999096,1044.8929369999096,1044.8929369999096,1044.8929369999096,1044.8929369999096,1044.875077299867,4.105446999892592,return,3.9787612999789417,,,,,,,,,,,,,,,,,,,,,,,,,,,,,,,,,57L54L,train_x,blue_star,bottom_left,2025-04-23_11h09.31.436,HideSeek_v1,2022.2.5,59.952972892906295,
,1,0,2,0,1,0,51,,train_dim1_1,9,30,,,,2,0,2,0,,,,,,,,,0,0,0,0,0,8,8,8,1,0,1,0,,,,,,,,,,,,,,,,,,,,,,,,,,,,,,,,,,,,,,,,,,,,,,,,,,,,,,,,,,,,,,,,30,,,,,,,,1055.966375600081,1055.966375600081,1055.966375600081,1055.966375600081,1055.966375600081,return,0.9097943999804556,3,0,0,1,0.0,-0.4,return,0.8280004998669028,4,23,0.0,-0.4,,,,,,,,,,,,,,,,,,,,,,,,,,,,,,,,,,,,,,,,,,,,,,,,,,,,,,,,57L54L,train_x,blue_star,bottom_left,2025-04-23_11h09.31.436,HideSeek_v1,2022.2.5,59.952972892906295,
,0,3,5,3,5,0,11,,train_dim1_1,10,30,,,,2,0,2,0,,,,,,,,,0,0,0,0,0,9,9,9,0,0,0,0,,,,,,,,,,,,,,,,,,,,,,,,,stimuli/alien_stimuli/11.png,,,,,,,,,,,,,,,,,,,,,,,,,,,,,stimuli/alien_stimuli/51.png,51,1,11,,,,,,,30,,,,,,,,1062.7373424000107,1062.7373424000107,1062.7373424000107,1062.7373424000107,1062.7373424000107,right,3.688384700100869,3,0,0,99,-0.08,-0.16,right,3.5978330997750163,,,,,1061.1714510996826,1062.7373424000107,0,-0.4,0.0,0.08,-0.4,0,-0.04,0,-0.4,1058.4508557999507,1058.4508557999507,1058.4508557999507,1058.4508557999507,1058.4508557999507,1058.4508557999507,1058.4508557999507,1058.4508557999507,1058.4367062996143,2.837784799747169,return,2.7013848000206053,,,,,,,,,,,,,,,,,,,,,,,,,,,,,,,,,57L54L,train_x,blue_star,bottom_left,2025-04-23_11h09.31.436,HideSeek_v1,2022.2.5,59.952972892906295,
,0,3,5,3,5,0,11,,train_dim1_1,10,30,,,,2,0,2,0,,,,,,,,,0,0,0,0,0,9,9,9,1,0,1,0,,,,,,,,,,,,,,,,,,,,,,,,,,,,,,,,,,,,,,,,,,,,,,,,,,,,,,,,,,,,,,,,30,,,,,,,,1066.426787899807,1066.426787899807,1066.426787899807,1066.426787899807,1066.426787899807,right,0.47646839963272214,3,0,0,99,0.0,-0.16,right,0.3919194000773132,,,,,,,,,,,,,,,,,,,,,,,,,,,,,,,,,,,,,,,,,,,,,,,,,,,,,,,,,,,,57L54L,train_x,blue_star,bottom_left,2025-04-23_11h09.31.436,HideSeek_v1,2022.2.5,59.952972892906295,
,0,3,5,3,5,0,11,,train_dim1_1,10,30,,,,2,0,2,0,,,,,,,,,0,0,0,0,0,9,9,9,2,0,2,0,,,,,,,,,,,,,,,,,,,,,,,,,,,,,,,,,,,,,,,,,,,,,,,,,,,,,,,,,,,,,,,,30,,,,,,,,1066.9121028999798,1066.9121028999798,1066.9121028999798,1066.9121028999798,1066.9121028999798,right,0.47657989989966154,3,0,0,99,0.08,-0.16,right,0.3938587000593543,,,,,,,,,,,,,,,,,,,,,,,,,,,,,,,,,,,,,,,,,,,,,,,,,,,,,,,,,,,,57L54L,train_x,blue_star,bottom_left,2025-04-23_11h09.31.436,HideSeek_v1,2022.2.5,59.952972892906295,
,0,3,5,3,5,0,11,,train_dim1_1,10,30,,,,2,0,2,0,,,,,,,,,0,0,0,0,0,9,9,9,3,0,3,0,,,,,,,,,,,,,,,,,,,,,,,,,,,,,,,,,,,,,,,,,,,,,,,,,,,,,,,,,,,,,,,,30,,,,,,,,1067.3946475996636,1067.3946475996636,1067.3946475996636,1067.3946475996636,1067.3946475996636,right,0.509249699767679,3,0,0,99,0.16,-0.16,right,0.4165969002060592,,,,,,,,,,,,,,,,,,,,,,,,,,,,,,,,,,,,,,,,,,,,,,,,,,,,,,,,,,,,57L54L,train_x,blue_star,bottom_left,2025-04-23_11h09.31.436,HideSeek_v1,2022.2.5,59.952972892906295,
,0,3,5,3,5,0,11,,train_dim1_1,10,30,,,,2,0,2,0,,,,,,,,,0,0,0,0,0,9,9,9,4,0,4,0,,,,,,,,,,,,,,,,,,,,,,,,,,,,,,,,,,,,,,,,,,,,,,,,,,,,,,,,,,,,,,,,30,,,,,,,,1067.910363599658,1067.910363599658,1067.910363599658,1067.910363599658,1067.910363599658,right,0.5274327001534402,3,0,0,99,0.24,-0.16,right,0.43561419984325767,,,,,,,,,,,,,,,,,,,,,,,,,,,,,,,,,,,,,,,,,,,,,,,,,,,,,,,,,,,,57L54L,train_x,blue_star,bottom_left,2025-04-23_11h09.31.436,HideSeek_v1,2022.2.5,59.952972892906295,
,0,3,5,3,5,0,11,,train_dim1_1,10,30,,,,2,0,2,0,,,,,,,,,0,0,0,0,0,9,9,9,5,0,5,0,,,,,,,,,,,,,,,,,,,,,,,,,,,,,,,,,,,,,,,,,,,,,,,,,,,,,,,,,,,,,,,,30,,,,,,,,1068.4452245999128,1068.4452245999128,1068.4452245999128,1068.4452245999128,1068.4452245999128,return,0.7937818001955748,4,0,0,1,0.24,-0.16,return,0.7096875999122858,4,28,0.24,-0.16,,,,,,,,,,,,,,,,,,,,,,,,,,,,,,,,,,,,,,,,,,,,,,,,,,,,,,,,57L54L,train_x,blue_star,bottom_left,2025-04-23_11h09.31.436,HideSeek_v1,2022.2.5,59.952972892906295,
,2,2,5,2,3,0,31,,train_dim1_1,11,30,,,,2,0,2,0,,,,,,,,,0,0,0,0,0,10,10,10,0,0,0,0,,,,,,,,,,,,,,,,,,,,,,,,,stimuli/alien_stimuli/31.png,,,,,,,,,,,,,,,,,,,,,,,,,,,,,stimuli/alien_stimuli/11.png,11,0,12,,,,,,,30,,,,,,,,1074.9774529999122,1074.9774529999122,1074.9774529999122,1074.9774529999122,1074.9774529999122,right,4.787668599747121,4,0,0,99,0.08,-0.24,right,4.689290899783373,,,,,1073.3981643998995,1074.9774529999122,0.24,-0.16,0.0,0.4,-0.16,0.24,0.039999999999999994,0.24,-0.16,1070.8297596997581,1070.8297596997581,1070.8297596997581,1070.8297596997581,1070.8297596997581,1070.8297596997581,1070.8297596997581,1070.8297596997581,1070.8139449998737,2.70379009982571,return,2.5461371997371316,,,,,,,,,,,,,,,,,,,,,,,,,,,,,,,,,57L54L,train_x,blue_star,bottom_left,2025-04-23_11h09.31.436,HideSeek_v1,2022.2.5,59.952972892906295,
,2,2,5,2,3,0,31,,train_dim1_1,11,30,,,,2,0,2,0,,,,,,,,,0,0,0,0,0,10,10,10,1,0,1,0,,,,,,,,,,,,,,,,,,,,,,,,,,,,,,,,,,,,,,,,,,,,,,,,,,,,,,,,,,,,,,,,30,,,,,,,,1079.7534439996816,1079.7534439996816,1079.7534439996816,1079.7534439996816,1079.7534439996816,right,0.5415189997293055,4,0,0,99,0.16,-0.24,right,0.4634625003673136,,,,,,,,,,,,,,,,,,,,,,,,,,,,,,,,,,,,,,,,,,,,,,,,,,,,,,,,,,,,57L54L,train_x,blue_star,bottom_left,2025-04-23_11h09.31.436,HideSeek_v1,2022.2.5,59.952972892906295,
,2,2,5,2,3,0,31,,train_dim1_1,11,30,,,,2,0,2,0,,,,,,,,,0,0,0,0,0,10,10,10,2,0,2,0,,,,,,,,,,,,,,,,,,,,,,,,,,,,,,,,,,,,,,,,,,,,,,,,,,,,,,,,,,,,,,,,30,,,,,,,,1080.3003120999783,1080.3003120999783,1080.3003120999783,1080.3003120999783,1080.3003120999783,right,0.5103699001483619,4,0,0,99,0.24,-0.24,right,0.4315380002371967,,,,,,,,,,,,,,,,,,,,,,,,,,,,,,,,,,,,,,,,,,,,,,,,,,,,,,,,,,,,57L54L,train_x,blue_star,bottom_left,2025-04-23_11h09.31.436,HideSeek_v1,2022.2.5,59.952972892906295,
,2,2,5,2,3,0,31,,train_dim1_1,11,30,,,,2,0,2,0,,,,,,,,,0,0,0,0,0,10,10,10,3,0,3,0,,,,,,,,,,,,,,,,,,,,,,,,,,,,,,,,,,,,,,,,,,,,,,,,,,,,,,,,,,,,,,,,30,,,,,,,,1080.817043500021,1080.817043500021,1080.817043500021,1080.817043500021,1080.817043500021,return,0.7269501001574099,5,0,0,1,0.24,-0.24,return,0.6553990002721548,4,31,0.24,-0.24,,,,,,,,,,,,,,,,,,,,,,,,,,,,,,,,,,,,,,,,,,,,,,,,,,,,,,,,57L54L,train_x,blue_star,bottom_left,2025-04-23_11h09.31.436,HideSeek_v1,2022.2.5,59.952972892906295,
,0,0,4,0,4,0,21,,train_dim1_1,12,30,,,,2,0,2,0,,,,,,,,,0,0,0,0,0,11,11,11,0,0,0,0,,,,,,,,,,,,,,,,,,,,,,,,,stimuli/alien_stimuli/21.png,,,,,,,,,,,,,,,,,,,,,,,,,,,,,stimuli/alien_stimuli/31.png,31,2,13,,,,,,,30,,,,,,,,1087.0362617997453,1087.0362617997453,1087.0362617997453,1087.0362617997453,1087.0362617997453,right,6.131603599991649,5,0,0,99,-0.08,-0.4,right,6.023971599992365,,,,,1085.4418069999665,1087.0362617997453,0.24,-0.24,0.0,0.24,-0.24,0.24,0.12,0.24,-0.24,1083.1113102999516,1083.1113102999516,1083.1113102999516,1083.1113102999516,1083.1113102999516,1083.1113102999516,1083.1113102999516,1083.1113102999516,1083.0902035996319,2.4372470998205245,return,2.305473499931395,,,,,,,,,,,,,,,,,,,,,,,,,,,,,,,,,57L54L,train_x,blue_star,bottom_left,2025-04-23_11h09.31.436,HideSeek_v1,2022.2.5,59.952972892906295,
,0,0,4,0,4,0,21,,train_dim1_1,12,30,,,,2,0,2,0,,,,,,,,,0,0,0,0,0,11,11,11,1,0,1,0,,,,,,,,,,,,,,,,,,,,,,,,,,,,,,,,,,,,,,,,,,,,,,,,,,,,,,,,,,,,,,,,30,,,,,,,,1093.1495153000578,1093.1495153000578,1093.1495153000578,1093.1495153000578,1093.1495153000578,right,0.5766627001576126,5,0,0,99,0.0,-0.4,right,0.4976816000416875,,,,,,,,,,,,,,,,,,,,,,,,,,,,,,,,,,,,,,,,,,,,,,,,,,,,,,,,,,,,57L54L,train_x,blue_star,bottom_left,2025-04-23_11h09.31.436,HideSeek_v1,2022.2.5,59.952972892906295,
,0,0,4,0,4,0,21,,train_dim1_1,12,30,,,,2,0,2,0,,,,,,,,,0,0,0,0,0,11,11,11,2,0,2,0,,,,,,,,,,,,,,,,,,,,,,,,,,,,,,,,,,,,,,,,,,,,,,,,,,,,,,,,,,,,,,,,30,,,,,,,,1093.7322284998372,1093.7322284998372,1093.7322284998372,1093.7322284998372,1093.7322284998372,right,0.5768904997967184,5,0,0,99,0.08,-0.4,right,0.4958619000390172,,,,,,,,,,,,,,,,,,,,,,,,,,,,,,,,,,,,,,,,,,,,,,,,,,,,,,,,,,,,57L54L,train_x,blue_star,bottom_left,2025-04-23_11h09.31.436,HideSeek_v1,2022.2.5,59.952972892906295,
,0,0,4,0,4,0,21,,train_dim1_1,12,30,,,,2,0,2,0,,,,,,,,,0,0,0,0,0,11,11,11,3,0,3,0,,,,,,,,,,,,,,,,,,,,,,,,,,,,,,,,,,,,,,,,,,,,,,,,,,,,,,,,,,,,,,,,30,,,,,,,,1094.315755999647,1094.315755999647,1094.315755999647,1094.315755999647,1094.315755999647,right,0.5264614997431636,5,0,0,99,0.16,-0.4,right,0.44896299997344613,,,,,,,,,,,,,,,,,,,,,,,,,,,,,,,,,,,,,,,,,,,,,,,,,,,,,,,,,,,,57L54L,train_x,blue_star,bottom_left,2025-04-23_11h09.31.436,HideSeek_v1,2022.2.5,59.952972892906295,
,0,0,4,0,4,0,21,,train_dim1_1,12,30,,,,2,0,2,0,,,,,,,,,0,0,0,0,0,11,11,11,4,0,4,0,,,,,,,,,,,,,,,,,,,,,,,,,,,,,,,,,,,,,,,,,,,,,,,,,,,,,,,,,,,,,,,,30,,,,,,,,1094.849311299622,1094.849311299622,1094.849311299622,1094.849311299622,1094.849311299622,return,0.7270508999936283,6,0,0,1,0.16,-0.4,return,0.6480558002367616,4,35,0.16,-0.4,,,,,,,,,,,,,,,,,,,,,,,,,,,,,,,,,,,,,,,,,,,,,,,,,,,,,,,,57L54L,train_x,blue_star,bottom_left,2025-04-23_11h09.31.436,HideSeek_v1,2022.2.5,59.952972892906295,
,0,4,1,4,1,0,51,,train_dim1_1,13,30,,,,2,0,2,0,,,,,,,,,0,0,0,0,0,12,12,12,0,0,0,0,,,,,,,,,,,,,,,,,,,,,,,,,stimuli/alien_stimuli/51.png,,,,,,,,,,,,,,,,,,,,,,,,,,,,,stimuli/alien_stimuli/21.png,21,0,14,,,,,,,30,,,,,,,,1101.0286954999901,1101.0286954999901,1101.0286954999901,1101.0286954999901,1101.0286954999901,right,2.738323099911213,6,0,0,99,-0.08,-0.08,right,2.629122400190681,,,,,1099.4531212998554,1101.0286954999901,0.16,-0.4,0.0,0.32,-0.4,0.16,0.0,0.16,-0.4,1097.164944099728,1097.164944099728,1097.164944099728,1097.164944099728,1097.164944099728,1097.164944099728,1097.164944099728,1097.164944099728,1097.1524670997635,2.42073140013963,return,2.2591071003116667,,,,,,,,,,,,,,,,,,,,,,,,,,,,,,,,,57L54L,train_x,blue_star,bottom_left,2025-04-23_11h09.31.436,HideSeek_v1,2022.2.5,59.952972892906295,
,0,4,1,4,1,0,51,,train_dim1_1,13,30,,,,2,0,2,0,,,,,,,,,0,0,0,0,0,12,12,12,1,0,1,0,,,,,,,,,,,,,,,,,,,,,,,,,,,,,,,,,,,,,,,,,,,,,,,,,,,,,,,,,,,,,,,,30,,,,,,,,1103.7582052000798,1103.7582052000798,1103.7582052000798,1103.7582052000798,1103.7582052000798,return,1.1592347999103367,7,0,0,1,-0.08,-0.08,return,1.0773098999634385,4,36,-0.08,-0.08,,,,,,,,,,,,,,,,,,,,,,,,,,,,,,,,,,,,,,,,,,,,,,,,,,,,,,,,57L54L,train_x,blue_star,bottom_left,2025-04-23_11h09.31.436,HideSeek_v1,2022.2.5,59.952972892906295,
,4,3,9,3,5,0,11,,train_dim1_1,14,30,,,,2,0,2,0,,,,,,,,,0,0,0,0,0,13,13,13,0,0,0,0,,,,,,,,,,,,,,,,,,,,,,,,,stimuli/alien_stimuli/11.png,,,,,,,,,,,,,,,,,,,,,,,,,,,,,stimuli/alien_stimuli/51.png,51,0,15,,,,,,,30,,,,,,,,1109.8646064000204,1109.8646064000204,1109.8646064000204,1109.8646064000204,1109.8646064000204,right,2.855033400002867,7,0,0,99,0.24,-0.16,right,2.7469516000710428,,,,,1108.2771433996968,1109.8646064000204,-0.08,-0.08,0.0,0.08,-0.08,-0.08,-0.12,-0.08,-0.08,1106.4872742998414,1106.4872742998414,1106.4872742998414,1106.4872742998414,1106.4872742998414,1106.4872742998414,1106.4872742998414,1106.4872742998414,1106.4766242999585,1.9037688001990318,return,1.7587751997634768,,,,,,,,,,,,,,,,,,,,,,,,,,,,,,,,,57L54L,train_x,blue_star,bottom_left,2025-04-23_11h09.31.436,HideSeek_v1,2022.2.5,59.952972892906295,
,4,3,9,3,5,0,11,,train_dim1_1,14,30,,,,2,0,2,0,,,,,,,,,0,0,0,0,0,13,13,13,1,0,1,0,,,,,,,,,,,,,,,,,,,,,,,,,,,,,,,,,,,,,,,,,,,,,,,,,,,,,,,,,,,,,,,,30,,,,,,,,1112.7012975998223,1112.7012975998223,1112.7012975998223,1112.7012975998223,1112.7012975998223,right,0.49172670021653175,7,0,0,99,0.32,-0.16,right,0.4003554997034371,,,,,,,,,,,,,,,,,,,,,,,,,,,,,,,,,,,,,,,,,,,,,,,,,,,,,,,,,,,,57L54L,train_x,blue_star,bottom_left,2025-04-23_11h09.31.436,HideSeek_v1,2022.2.5,59.952972892906295,
,4,3,9,3,5,0,11,,train_dim1_1,14,30,,,,2,0,2,0,,,,,,,,,0,0,0,0,0,13,13,13,2,0,2,0,,,,,,,,,,,,,,,,,,,,,,,,,,,,,,,,,,,,,,,,,,,,,,,,,,,,,,,,,,,,,,,,30,,,,,,,,1113.198284899816,1113.198284899816,1113.198284899816,1113.198284899816,1113.198284899816,right,0.459946499671787,7,0,0,99,0.4,-0.16,right,0.37506770016625524,,,,,,,,,,,,,,,,,,,,,,,,,,,,,,,,,,,,,,,,,,,,,,,,,,,,,,,,,,,,57L54L,train_x,blue_star,bottom_left,2025-04-23_11h09.31.436,HideSeek_v1,2022.2.5,59.952972892906295,
,4,3,9,3,5,0,11,,train_dim1_1,14,30,,,,2,0,2,0,,,,,,,,,0,0,0,0,0,13,13,13,3,0,3,0,,,,,,,,,,,,,,,,,,,,,,,,,,,,,,,,,,,,,,,,,,,,,,,,,,,,,,,,,,,,,,,,30,,,,,,,,1113.6661072997376,1113.6661072997376,1113.6661072997376,1113.6661072997376,1113.6661072997376,right,0.5096389995887876,7,0,0,99,0.48000000000000004,-0.16,right,0.4189490997232497,,,,,,,,,,,,,,,,,,,,,,,,,,,,,,,,,,,,,,,,,,,,,,,,,,,,,,,,,,,,57L54L,train_x,blue_star,bottom_left,2025-04-23_11h09.31.436,HideSeek_v1,2022.2.5,59.952972892906295,
,4,3,9,3,5,0,11,,train_dim1_1,14,30,,,,2,0,2,0,,,,,,,,,0,0,0,0,0,13,13,13,4,0,4,0,,,,,,,,,,,,,,,,,,,,,,,,,,,,,,,,,,,,,,,,,,,,,,,,,,,,,,,,,,,,,,,,30,,,,,,,,1114.1834468999878,1114.1834468999878,1114.1834468999878,1114.1834468999878,1114.1834468999878,right,0.4767812001518905,7,0,0,99,0.56,-0.16,right,0.38344789994880557,,,,,,,,,,,,,,,,,,,,,,,,,,,,,,,,,,,,,,,,,,,,,,,,,,,,,,,,,,,,57L54L,train_x,blue_star,bottom_left,2025-04-23_11h09.31.436,HideSeek_v1,2022.2.5,59.952972892906295,
,4,3,9,3,5,0,11,,train_dim1_1,14,30,,,,2,0,2,0,,,,,,,,,0,0,0,0,0,13,13,13,5,0,5,0,,,,,,,,,,,,,,,,,,,,,,,,,,,,,,,,,,,,,,,,,,,,,,,,,,,,,,,,,,,,,,,,30,,,,,,,,1114.666189899668,1114.666189899668,1114.666189899668,1114.666189899668,1114.666189899668,return,0.8104690997861326,8,0,0,1,0.56,-0.16,return,0.7248751004226506,4,41,0.56,-0.16,,,,,,,,,,,,,,,,,,,,,,,,,,,,,,,,,,,,,,,,,,,,,,,,,,,,,,,,57L54L,train_x,blue_star,bottom_left,2025-04-23_11h09.31.436,HideSeek_v1,2022.2.5,59.952972892906295,
,4,2,4,2,0,0,61,,train_dim1_1,15,30,,,,2,0,2,0,,,,,,,,,0,0,0,0,0,14,14,14,0,0,0,0,,,,,,,,,,,,,,,,,,,,,,,,,stimuli/alien_stimuli/61.png,,,,,,,,,,,,,,,,,,,,,,,,,,,,,stimuli/alien_stimuli/11.png,11,4,16,,,,,,,30,,,,,,,,1120.45938059967,1120.45938059967,1120.45938059967,1120.45938059967,1120.45938059967,right,4.072751900181174,8,0,0,99,0.24,-0.24,right,3.9726436999626458,,,,,1118.8858952997252,1120.45938059967,0.56,-0.16,0.0,0.4,-0.16,0.56,0.36000000000000004,0.56,-0.16,1117.0626993998885,1117.0626993998885,1117.0626993998885,1117.0626993998885,1117.0626993998885,1117.0626993998885,1117.0626993998885,1117.0626993998885,1117.0522919998505,1.9536065002903342,return,1.7954368996433914,,,,,,,,,,,,,,,,,,,,,,,,,,,,,,,,,57L54L,train_x,blue_star,bottom_left,2025-04-23_11h09.31.436,HideSeek_v1,2022.2.5,59.952972892906295,
,4,2,4,2,0,0,61,,train_dim1_1,15,30,,,,2,0,2,0,,,,,,,,,0,0,0,0,0,14,14,14,1,0,1,0,,,,,,,,,,,,,,,,,,,,,,,,,,,,,,,,,,,,,,,,,,,,,,,,,,,,,,,,,,,,,,,,30,,,,,,,,1124.5204705996439,1124.5204705996439,1124.5204705996439,1124.5204705996439,1124.5204705996439,return,0.7433159002102911,8,1,0,0,0.24,-0.24,return,0.6656589000485837,4,42,0.24,-0.24,,,,,,,,,,,,,,,,,,,,,,,,,,,,,,,,,,,,,,,,,,,,,,,,,,,,,,,,57L54L,train_x,blue_star,bottom_left,2025-04-23_11h09.31.436,HideSeek_v1,2022.2.5,59.952972892906295,
,3,3,4,3,1,0,51,,train_dim1_1,16,30,,,,2,0,2,0,,,,,,,,,0,0,0,0,0,15,15,15,0,0,0,0,,,,,,,,,,,,,,,,,,,,,,,,,stimuli/alien_stimuli/51.png,,,,,,,,,,,,,,,,,,,,,,,,,,,,,stimuli/alien_stimuli/61.png,61,4,17,,,,,,,30,,,,,,,,1131.6450793999247,1131.6450793999247,1131.6450793999247,1131.6450793999247,1131.6450793999247,right,1.685819000005722,8,1,0,99,0.16,-0.16,right,1.6026177001185715,,,,,1130.0784350000322,1131.6450793999247,0.16,-0.24,0.0,0.0,-0.24,0.16,0.16,0.16,-0.24,1126.8320969999768,1126.8320969999768,1126.8320969999768,1126.8320969999768,1126.8320969999768,1126.8320969999768,1126.8320969999768,1126.8320969999768,1126.810129999742,3.354466199874878,return,3.218874199781567,,,,,,,,,,,,,,,,,,,,,,,,,,,,,,,,,57L54L,train_x,blue_star,bottom_left,2025-04-23_11h09.31.436,HideSeek_v1,2022.2.5,59.952972892906295,
,3,3,4,3,1,0,51,,train_dim1_1,16,30,,,,2,0,2,0,,,,,,,,,0,0,0,0,0,15,15,15,1,0,1,0,,,,,,,,,,,,,,,,,,,,,,,,,,,,,,,,,,,,,,,,,,,,,,,,,,,,,,,,,,,,,,,,30,,,,,,,,1133.334739800077,1133.334739800077,1133.334739800077,1133.334739800077,1133.334739800077,return,1.2412123000249267,9,0,0,1,0.16,-0.16,return,1.1634712000377476,4,43,0.16,-0.16,,,,,,,,,,,,,,,,,,,,,,,,,,,,,,,,,,,,,,,,,,,,,,,,,,,,,,,,57L54L,train_x,blue_star,bottom_left,2025-04-23_11h09.31.436,HideSeek_v1,2022.2.5,59.952972892906295,
,2,4,6,4,4,0,21,,train_dim1_1,17,30,,,,2,0,2,0,,,,,,,,,0,0,0,0,0,16,16,16,0,0,0,0,,,,,,,,,,,,,,,,,,,,,,,,,stimuli/alien_stimuli/21.png,,,,,,,,,,,,,,,,,,,,,,,,,,,,,stimuli/alien_stimuli/51.png,51,3,18,,,,,,,30,,,,,,,,1139.5730288997293,1139.5730288997293,1139.5730288997293,1139.5730288997293,1139.5730288997293,right,2.48669709963724,9,0,0,99,0.08,-0.08,right,2.377217400353402,,,,,1137.9851552997716,1139.5730288997293,0.16,-0.16,0.0,0.08,-0.16,0.16,0.12,0.16,-0.16,1136.1440009996295,1136.1440009996295,1136.1440009996295,1136.1440009996295,1136.1440009996295,1136.1440009996295,1136.1440009996295,1136.1440009996295,1136.1345367996955,1.953794099856168,return,1.815253000240773,,,,,,,,,,,,,,,,,,,,,,,,,,,,,,,,,57L54L,train_x,blue_star,bottom_left,2025-04-23_11h09.31.436,HideSeek_v1,2022.2.5,59.952972892906295,
,2,4,6,4,4,0,21,,train_dim1_1,17,30,,,,2,0,2,0,,,,,,,,,0,0,0,0,0,16,16,16,1,0,1,0,,,,,,,,,,,,,,,,,,,,,,,,,,,,,,,,,,,,,,,,,,,,,,,,,,,,,,,,,,,,,,,,30,,,,,,,,1142.0395096000284,1142.0395096000284,1142.0395096000284,1142.0395096000284,1142.0395096000284,right,0.5094138998538256,9,0,0,99,0.16,-0.08,right,0.4207406002096832,,,,,,,,,,,,,,,,,,,,,,,,,,,,,,,,,,,,,,,,,,,,,,,,,,,,,,,,,,,,57L54L,train_x,blue_star,bottom_left,2025-04-23_11h09.31.436,HideSeek_v1,2022.2.5,59.952972892906295,
,2,4,6,4,4,0,21,,train_dim1_1,17,30,,,,2,0,2,0,,,,,,,,,0,0,0,0,0,16,16,16,2,0,2,0,,,,,,,,,,,,,,,,,,,,,,,,,,,,,,,,,,,,,,,,,,,,,,,,,,,,,,,,,,,,,,,,30,,,,,,,,1142.5557598997839,1142.5557598997839,1142.5557598997839,1142.5557598997839,1142.5557598997839,right,0.5268995999358594,9,0,0,99,0.24,-0.08,right,0.44723069993779063,,,,,,,,,,,,,,,,,,,,,,,,,,,,,,,,,,,,,,,,,,,,,,,,,,,,,,,,,,,,57L54L,train_x,blue_star,bottom_left,2025-04-23_11h09.31.436,HideSeek_v1,2022.2.5,59.952972892906295,
,2,4,6,4,4,0,21,,train_dim1_1,17,30,,,,2,0,2,0,,,,,,,,,0,0,0,0,0,16,16,16,3,0,3,0,,,,,,,,,,,,,,,,,,,,,,,,,,,,,,,,,,,,,,,,,,,,,,,,,,,,,,,,,,,,,,,,30,,,,,,,,1143.0893773999996,1143.0893773999996,1143.0893773999996,1143.0893773999996,1143.0893773999996,return,0.7934427000582218,9,1,0,0,0.24,-0.08,return,0.7080559995956719,4,46,0.24,-0.08,,,,,,,,,,,,,,,,,,,,,,,,,,,,,,,,,,,,,,,,,,,,,,,,,,,,,,,,57L54L,train_x,blue_star,bottom_left,2025-04-23_11h09.31.436,HideSeek_v1,2022.2.5,59.952972892906295,
,2,1,2,1,0,0,61,,train_dim1_1,18,30,,,,2,0,2,0,,,,,,,,,0,0,0,0,0,17,17,17,0,0,0,0,,,,,,,,,,,,,,,,,,,,,,,,,stimuli/alien_stimuli/61.png,,,,,,,,,,,,,,,,,,,,,,,,,,,,,stimuli/alien_stimuli/21.png,21,2,19,,,,,,,30,,,,,,,,1150.6745098000392,1150.6745098000392,1150.6745098000392,1150.6745098000392,1150.6745098000392,right,3.1203419002704322,9,1,0,99,0.08,-0.32,right,3.024720699992031,,,,,1149.1110938000493,1150.6745098000392,0.32,-0.08,0.0,0.32,-0.08,0.32,0.16,0.32,-0.08,1145.4506448996253,1145.4506448996253,1145.4506448996253,1145.4506448996253,1145.4506448996253,1145.4506448996253,1145.4506448996253,1145.4506448996253,1145.4423108996825,3.7721212999895215,return,3.6285576997324824,,,,,,,,,,,,,,,,,,,,,,,,,,,,,,,,,57L54L,train_x,blue_star,bottom_left,2025-04-23_11h09.31.436,HideSeek_v1,2022.2.5,59.952972892906295,
,2,1,2,1,0,0,61,,train_dim1_1,18,30,,,,2,0,2,0,,,,,,,,,0,0,0,0,0,17,17,17,1,0,1,0,,,,,,,,,,,,,,,,,,,,,,,,,,,,,,,,,,,,,,,,,,,,,,,,,,,,,,,,,,,,,,,,30,,,,,,,,1153.7956015998498,1153.7956015998498,1153.7956015998498,1153.7956015998498,1153.7956015998498,left,0.7763616000302136,9,1,0,99,0.0,-0.32,left,0.6990716997534037,,,,,,,,,,,,,,,,,,,,,,,,,,,,,,,,,,,,,,,,,,,,,,,,,,,,,,,,,,,,57L54L,train_x,blue_star,bottom_left,2025-04-23_11h09.31.436,HideSeek_v1,2022.2.5,59.952972892906295,
,2,1,2,1,0,0,61,,train_dim1_1,18,30,,,,2,0,2,0,,,,,,,,,0,0,0,0,0,17,17,17,2,0,2,0,,,,,,,,,,,,,,,,,,,,,,,,,,,,,,,,,,,,,,,,,,,,,,,,,,,,,,,,,,,,,,,,30,,,,,,,,1154.5786774996668,1154.5786774996668,1154.5786774996668,1154.5786774996668,1154.5786774996668,return,0.9438888998702168,10,0,0,1,0.0,-0.32,return,0.870588700287044,4,46,0.0,-0.32,,,,,,,,,,,,,,,,,,,,,,,,,,,,,,,,,,,,,,,,,,,,,,,,,,,,,,,,57L54L,train_x,blue_star,bottom_left,2025-04-23_11h09.31.436,HideSeek_v1,2022.2.5,59.952972892906295,
,0,3,3,3,3,0,31,,train_dim1_1,19,30,,,,2,0,2,0,,,,,,,,,0,0,0,0,0,18,18,18,0,0,0,0,,,,,,,,,,,,,,,,,,,,,,,,,stimuli/alien_stimuli/31.png,,,,,,,,,,,,,,,,,,,,,,,,,,,,,stimuli/alien_stimuli/61.png,61,2,20,,,,,,,30,,,,,,,,1160.3058341997676,1160.3058341997676,1160.3058341997676,1160.3058341997676,1160.3058341997676,right,3.0065484000369906,10,0,0,99,-0.08,-0.16,right,2.9059065002948046,,,,,1158.7355460999534,1160.3058341997676,0,-0.32,0.0,0.0,-0.32,0,0.0,0,-0.32,1157.1116309999488,1157.1116309999488,1157.1116309999488,1157.1116309999488,1157.1116309999488,1157.1116309999488,1157.1116309999488,1157.1116309999488,1157.1022695999593,1.7532060998491943,return,1.5935553996823728,,,,,,,,,,,,,,,,,,,,,,,,,,,,,,,,,57L54L,train_x,blue_star,bottom_left,2025-04-23_11h09.31.436,HideSeek_v1,2022.2.5,59.952972892906295,
,0,3,3,3,3,0,31,,train_dim1_1,19,30,,,,2,0,2,0,,,,,,,,,0,0,0,0,0,18,18,18,1,0,1,0,,,,,,,,,,,,,,,,,,,,,,,,,,,,,,,,,,,,,,,,,,,,,,,,,,,,,,,,,,,,,,,,30,,,,,,,,1163.3081660000607,1163.3081660000607,1163.3081660000607,1163.3081660000607,1163.3081660000607,right,0.5904300999827683,10,0,0,99,0.0,-0.16,right,0.5104529997333884,,,,,,,,,,,,,,,,,,,,,,,,,,,,,,,,,,,,,,,,,,,,,,,,,,,,,,,,,,,,57L54L,train_x,blue_star,bottom_left,2025-04-23_11h09.31.436,HideSeek_v1,2022.2.5,59.952972892906295,
,0,3,3,3,3,0,31,,train_dim1_1,19,30,,,,2,0,2,0,,,,,,,,,0,0,0,0,0,18,18,18,2,0,2,0,,,,,,,,,,,,,,,,,,,,,,,,,,,,,,,,,,,,,,,,,,,,,,,,,,,,,,,,,,,,,,,,30,,,,,,,,1163.9037513998337,1163.9037513998337,1163.9037513998337,1163.9037513998337,1163.9037513998337,right,0.9604075998067856,10,0,0,99,0.08,-0.16,right,0.8719465998001397,,,,,,,,,,,,,,,,,,,,,,,,,,,,,,,,,,,,,,,,,,,,,,,,,,,,,,,,,,,,57L54L,train_x,blue_star,bottom_left,2025-04-23_11h09.31.436,HideSeek_v1,2022.2.5,59.952972892906295,
,0,3,3,3,3,0,31,,train_dim1_1,19,30,,,,2,0,2,0,,,,,,,,,0,0,0,0,0,18,18,18,3,0,3,0,,,,,,,,,,,,,,,,,,,,,,,,,,,,,,,,,,,,,,,,,,,,,,,,,,,,,,,,,,,,,,,,30,,,,,,,,1164.8714115996845,1164.8714115996845,1164.8714115996845,1164.8714115996845,1164.8714115996845,right,2.1784553001634777,10,0,0,99,0.16,-0.16,right,2.0923939999192953,,,,,,,,,,,,,,,,,,,,,,,,,,,,,,,,,,,,,,,,,,,,,,,,,,,,,,,,,,,,57L54L,train_x,blue_star,bottom_left,2025-04-23_11h09.31.436,HideSeek_v1,2022.2.5,59.952972892906295,
,0,3,3,3,3,0,31,,train_dim1_1,19,30,,,,2,0,2,0,,,,,,,,,0,0,0,0,0,18,18,18,4,0,4,0,,,,,,,,,,,,,,,,,,,,,,,,,,,,,,,,,,,,,,,,,,,,,,,,,,,,,,,,,,,,,,,,30,,,,,,,,1167.0560134998523,1167.0560134998523,1167.0560134998523,1167.0560134998523,1167.0560134998523,return,0.9103349996730685,10,1,0,0,0.16,-0.16,return,0.8256576000712812,4,50,0.16,-0.16,,,,,,,,,,,,,,,,,,,,,,,,,,,,,,,,,,,,,,,,,,,,,,,,,,,,,,,,57L54L,train_x,blue_star,bottom_left,2025-04-23_11h09.31.436,HideSeek_v1,2022.2.5,59.952972892906295,
,0,1,5,1,5,0,11,,train_dim1_1,20,30,,,,2,0,2,0,,,,,,,,,0,0,0,0,0,19,19,19,0,0,0,0,,,,,,,,,,,,,,,,,,,,,,,,,stimuli/alien_stimuli/11.png,,,,,,,,,,,,,,,,,,,,,,,,,,,,,stimuli/alien_stimuli/31.png,31,0,21,,,,,,,30,,,,,,,,1173.2606315999292,1173.2606315999292,1173.2606315999292,1173.2606315999292,1173.2606315999292,right,2.0352533999830484,10,1,0,99,-0.08,-0.32,right,1.9342528996057808,,,,,1171.6797825000249,1173.2606315999292,0.08,-0.16,0.0,0.24,-0.16,0.08,-0.04,0.08,-0.16,1169.5390900997445,1169.5390900997445,1169.5390900997445,1169.5390900997445,1169.5390900997445,1169.5390900997445,1169.5390900997445,1169.5390900997445,1169.5290664999748,2.2536411001347005,return,2.111153899691999,,,,,,,,,,,,,,,,,,,,,,,,,,,,,,,,,57L54L,train_x,blue_star,bottom_left,2025-04-23_11h09.31.436,HideSeek_v1,2022.2.5,59.952972892906295,
,0,1,5,1,5,0,11,,train_dim1_1,20,30,,,,2,0,2,0,,,,,,,,,0,0,0,0,0,19,19,19,1,0,1,0,,,,,,,,,,,,,,,,,,,,,,,,,,,,,,,,,,,,,,,,,,,,,,,,,,,,,,,,,,,,,,,,30,,,,,,,,1175.2848584996536,1175.2848584996536,1175.2848584996536,1175.2848584996536,1175.2848584996536,right,0.40903000021353364,10,1,0,99,0.0,-0.32,right,0.326490200124681,,,,,,,,,,,,,,,,,,,,,,,,,,,,,,,,,,,,,,,,,,,,,,,,,,,,,,,,,,,,57L54L,train_x,blue_star,bottom_left,2025-04-23_11h09.31.436,HideSeek_v1,2022.2.5,59.952972892906295,
,0,1,5,1,5,0,11,,train_dim1_1,20,30,,,,2,0,2,0,,,,,,,,,0,0,0,0,0,19,19,19,2,0,2,0,,,,,,,,,,,,,,,,,,,,,,,,,,,,,,,,,,,,,,,,,,,,,,,,,,,,,,,,,,,,,,,,30,,,,,,,,1175.7005257997662,1175.7005257997662,1175.7005257997662,1175.7005257997662,1175.7005257997662,right,0.4266351000405848,10,1,0,99,0.08,-0.32,right,0.3382657002657652,,,,,,,,,,,,,,,,,,,,,,,,,,,,,,,,,,,,,,,,,,,,,,,,,,,,,,,,,,,,57L54L,train_x,blue_star,bottom_left,2025-04-23_11h09.31.436,HideSeek_v1,2022.2.5,59.952972892906295,
,0,1,5,1,5,0,11,,train_dim1_1,20,30,,,,2,0,2,0,,,,,,,,,0,0,0,0,0,19,19,19,3,0,3,0,,,,,,,,,,,,,,,,,,,,,,,,,,,,,,,,,,,,,,,,,,,,,,,,,,,,,,,,,,,,,,,,30,,,,,,,,1176.1346092997119,1176.1346092997119,1176.1346092997119,1176.1346092997119,1176.1346092997119,right,0.4601918999105692,10,1,0,99,0.16,-0.32,right,0.37607340002432466,,,,,,,,,,,,,,,,,,,,,,,,,,,,,,,,,,,,,,,,,,,,,,,,,,,,,,,,,,,,57L54L,train_x,blue_star,bottom_left,2025-04-23_11h09.31.436,HideSeek_v1,2022.2.5,59.952972892906295,
,0,1,5,1,5,0,11,,train_dim1_1,20,30,,,,2,0,2,0,,,,,,,,,0,0,0,0,0,19,19,19,4,0,4,0,,,,,,,,,,,,,,,,,,,,,,,,,,,,,,,,,,,,,,,,,,,,,,,,,,,,,,,,,,,,,,,,30,,,,,,,,1176.600908299908,1176.600908299908,1176.600908299908,1176.600908299908,1176.600908299908,right,0.4766159001737833,10,1,0,99,0.24,-0.32,right,0.39227320021018386,,,,,,,,,,,,,,,,,,,,,,,,,,,,,,,,,,,,,,,,,,,,,,,,,,,,,,,,,,,,57L54L,train_x,blue_star,bottom_left,2025-04-23_11h09.31.436,HideSeek_v1,2022.2.5,59.952972892906295,
,0,1,5,1,5,0,11,,train_dim1_1,20,30,,,,2,0,2,0,,,,,,,,,0,0,0,0,0,19,19,19,5,0,5,0,,,,,,,,,,,,,,,,,,,,,,,,,,,,,,,,,,,,,,,,,,,,,,,,,,,,,,,,,,,,,,,,30,,,,,,,,1177.0866572996601,1177.0866572996601,1177.0866572996601,1177.0866572996601,1177.0866572996601,return,0.710035499650985,11,0,0,1,0.24,-0.32,return,0.6215357002802193,4,55,0.24,-0.32,,,,,,,,,,,,,,,,,,,,,,,,,,,,,,,,,,,,,,,,,,,,,,,,,,,,,,,,57L54L,train_x,blue_star,bottom_left,2025-04-23_11h09.31.436,HideSeek_v1,2022.2.5,59.952972892906295,
,4,2,7,2,3,0,31,,train_dim1_1,21,30,,,,2,0,2,0,,,,,,,,,0,0,0,0,0,20,20,20,0,0,0,0,,,,,,,,,,,,,,,,,,,,,,,,,stimuli/alien_stimuli/31.png,,,,,,,,,,,,,,,,,,,,,,,,,,,,,stimuli/alien_stimuli/11.png,11,0,22,,,,,,,30,,,,,,,,1182.97067900002,1182.97067900002,1182.97067900002,1182.97067900002,1182.97067900002,right,2.986649500206113,11,0,0,99,0.24,-0.24,right,2.8869948997162282,,,,,1181.3877975996584,1182.97067900002,0.24,-0.32,0.0,0.4,-0.32,0.24,0.039999999999999994,0.24,-0.32,1179.3656524997205,1179.3656524997205,1179.3656524997205,1179.3656524997205,1179.3656524997205,1179.3656524997205,1179.3656524997205,1179.3656524997205,1179.3538553996013,2.1372206998057663,return,2.0042751003056765,,,,,,,,,,,,,,,,,,,,,,,,,,,,,,,,,57L54L,train_x,blue_star,bottom_left,2025-04-23_11h09.31.436,HideSeek_v1,2022.2.5,59.952972892906295,
,4,2,7,2,3,0,31,,train_dim1_1,21,30,,,,2,0,2,0,,,,,,,,,0,0,0,0,0,20,20,20,1,0,1,0,,,,,,,,,,,,,,,,,,,,,,,,,,,,,,,,,,,,,,,,,,,,,,,,,,,,,,,,,,,,,,,,30,,,,,,,,1185.9392710998654,1185.9392710998654,1185.9392710998654,1185.9392710998654,1185.9392710998654,right,0.509788999799639,11,0,0,99,0.32,-0.24,right,0.4266511998139322,,,,,,,,,,,,,,,,,,,,,,,,,,,,,,,,,,,,,,,,,,,,,,,,,,,,,,,,,,,,57L54L,train_x,blue_star,bottom_left,2025-04-23_11h09.31.436,HideSeek_v1,2022.2.5,59.952972892906295,
,4,2,7,2,3,0,31,,train_dim1_1,21,30,,,,2,0,2,0,,,,,,,,,0,0,0,0,0,20,20,20,2,0,2,0,,,,,,,,,,,,,,,,,,,,,,,,,,,,,,,,,,,,,,,,,,,,,,,,,,,,,,,,,,,,,,,,30,,,,,,,,1186.4546081000008,1186.4546081000008,1186.4546081000008,1186.4546081000008,1186.4546081000008,right,0.5102023999206722,11,0,0,99,0.4,-0.24,right,0.4231346999295056,,,,,,,,,,,,,,,,,,,,,,,,,,,,,,,,,,,,,,,,,,,,,,,,,,,,,,,,,,,,57L54L,train_x,blue_star,bottom_left,2025-04-23_11h09.31.436,HideSeek_v1,2022.2.5,59.952972892906295,
,4,2,7,2,3,0,31,,train_dim1_1,21,30,,,,2,0,2,0,,,,,,,,,0,0,0,0,0,20,20,20,3,0,3,0,,,,,,,,,,,,,,,,,,,,,,,,,,,,,,,,,,,,,,,,,,,,,,,,,,,,,,,,,,,,,,,,30,,,,,,,,1186.9720879998058,1186.9720879998058,1186.9720879998058,1186.9720879998058,1186.9720879998058,return,0.9772490002214909,12,0,0,1,0.4,-0.24,return,0.9037956004031003,4,58,0.4,-0.24,,,,,,,,,,,,,,,,,,,,,,,,,,,,,,,,,,,,,,,,,,,,,,,,,,,,,,,,57L54L,train_x,blue_star,bottom_left,2025-04-23_11h09.31.436,HideSeek_v1,2022.2.5,59.952972892906295,
,1,0,5,0,4,0,21,,train_dim1_1,22,30,,,,2,0,2,0,,,,,,,,,0,0,0,0,0,21,21,21,0,0,0,0,,,,,,,,,,,,,,,,,,,,,,,,,stimuli/alien_stimuli/21.png,,,,,,,,,,,,,,,,,,,,,,,,,,,,,stimuli/alien_stimuli/31.png,31,4,23,,,,,,,30,,,,,,,,1192.6887201997451,1192.6887201997451,1192.6887201997451,1192.6887201997451,1192.6887201997451,right,2.722369800321758,12,0,0,99,0.0,-0.4,right,2.6269613998010755,,,,,1191.1125404997729,1192.6887201997451,0.4,-0.24,0.0,0.24,-0.24,0.4,0.28,0.4,-0.24,1189.5263664997183,1189.5263664997183,1189.5263664997183,1189.5263664997183,1189.5263664997183,1189.5263664997183,1189.5263664997183,1189.5263664997183,1189.5124400995674,1.703100400045514,return,1.5577786997891963,,,,,,,,,,,,,,,,,,,,,,,,,,,,,,,,,57L54L,train_x,blue_star,bottom_left,2025-04-23_11h09.31.436,HideSeek_v1,2022.2.5,59.952972892906295,
,1,0,5,0,4,0,21,,train_dim1_1,22,30,,,,2,0,2,0,,,,,,,,,0,0,0,0,0,21,21,21,1,0,1,0,,,,,,,,,,,,,,,,,,,,,,,,,,,,,,,,,,,,,,,,,,,,,,,,,,,,,,,,,,,,,,,,30,,,,,,,,1195.4050753000192,1195.4050753000192,1195.4050753000192,1195.4050753000192,1195.4050753000192,right,0.5260459999553859,12,0,0,99,0.08,-0.4,right,0.4445711001753807,,,,,,,,,,,,,,,,,,,,,,,,,,,,,,,,,,,,,,,,,,,,,,,,,,,,,,,,,,,,57L54L,train_x,blue_star,bottom_left,2025-04-23_11h09.31.436,HideSeek_v1,2022.2.5,59.952972892906295,
,1,0,5,0,4,0,21,,train_dim1_1,22,30,,,,2,0,2,0,,,,,,,,,0,0,0,0,0,21,21,21,2,0,2,0,,,,,,,,,,,,,,,,,,,,,,,,,,,,,,,,,,,,,,,,,,,,,,,,,,,,,,,,,,,,,,,,30,,,,,,,,1195.9347784998827,1195.9347784998827,1195.9347784998827,1195.9347784998827,1195.9347784998827,right,0.4599111997522414,12,0,0,99,0.16,-0.4,right,0.3703963002189994,,,,,,,,,,,,,,,,,,,,,,,,,,,,,,,,,,,,,,,,,,,,,,,,,,,,,,,,,,,,57L54L,train_x,blue_star,bottom_left,2025-04-23_11h09.31.436,HideSeek_v1,2022.2.5,59.952972892906295,
,1,0,5,0,4,0,21,,train_dim1_1,22,30,,,,2,0,2,0,,,,,,,,,0,0,0,0,0,21,21,21,3,0,3,0,,,,,,,,,,,,,,,,,,,,,,,,,,,,,,,,,,,,,,,,,,,,,,,,,,,,,,,,,,,,,,,,30,,,,,,,,1196.400834699627,1196.400834699627,1196.400834699627,1196.400834699627,1196.400834699627,right,0.4938780996017158,12,0,0,99,0.24,-0.4,right,0.4036632003262639,,,,,,,,,,,,,,,,,,,,,,,,,,,,,,,,,,,,,,,,,,,,,,,,,,,,,,,,,,,,57L54L,train_x,blue_star,bottom_left,2025-04-23_11h09.31.436,HideSeek_v1,2022.2.5,59.952972892906295,
,1,0,5,0,4,0,21,,train_dim1_1,22,30,,,,2,0,2,0,,,,,,,,,0,0,0,0,0,21,21,21,4,0,4,0,,,,,,,,,,,,,,,,,,,,,,,,,,,,,,,,,,,,,,,,,,,,,,,,,,,,,,,,,,,,,,,,30,,,,,,,,1196.9019777998328,1196.9019777998328,1196.9019777998328,1196.9019777998328,1196.9019777998328,return,1.4272012002766132,13,0,0,1,0.24,-0.4,return,1.335524500347674,4,62,0.24,-0.4,,,,,,,,,,,,,,,,,,,,,,,,,,,,,,,,,,,,,,,,,,,,,,,,,,,,,,,,57L54L,train_x,blue_star,bottom_left,2025-04-23_11h09.31.436,HideSeek_v1,2022.2.5,59.952972892906295,
,2,1,2,1,0,0,61,,train_dim1_1,23,30,,,,2,0,2,0,,,,,,,,,0,0,0,0,0,22,22,22,0,0,0,0,,,,,,,,,,,,,,,,,,,,,,,,,stimuli/alien_stimuli/61.png,,,,,,,,,,,,,,,,,,,,,,,,,,,,,stimuli/alien_stimuli/21.png,21,1,24,,,,,,,30,,,,,,,,1203.268683400005,1203.268683400005,1203.268683400005,1203.268683400005,1203.268683400005,right,2.9512005001306534,13,0,0,99,0.08,-0.32,right,2.853575900197029,,,,,1201.6880601998419,1203.268683400005,0.24,-0.4,0.0,0.32,-0.4,0.24,0.07999999999999999,0.24,-0.4,1199.8961954000406,1199.8961954000406,1199.8961954000406,1199.8961954000406,1199.8961954000406,1199.8961954000406,1199.8961954000406,1199.8961954000406,1199.8879340996036,1.9029589002020657,return,1.769132100045681,,,,,,,,,,,,,,,,,,,,,,,,,,,,,,,,,57L54L,train_x,blue_star,bottom_left,2025-04-23_11h09.31.436,HideSeek_v1,2022.2.5,59.952972892906295,
,2,1,2,1,0,0,61,,train_dim1_1,23,30,,,,2,0,2,0,,,,,,,,,0,0,0,0,0,22,22,22,1,0,1,0,,,,,,,,,,,,,,,,,,,,,,,,,,,,,,,,,,,,,,,,,,,,,,,,,,,,,,,,,,,,,,,,30,,,,,,,,1206.208780999761,1206.208780999761,1206.208780999761,1206.208780999761,1206.208780999761,left,0.6576900002546608,13,0,0,99,0.0,-0.32,left,0.5698685999959707,,,,,,,,,,,,,,,,,,,,,,,,,,,,,,,,,,,,,,,,,,,,,,,,,,,,,,,,,,,,57L54L,train_x,blue_star,bottom_left,2025-04-23_11h09.31.436,HideSeek_v1,2022.2.5,59.952972892906295,
,2,1,2,1,0,0,61,,train_dim1_1,23,30,,,,2,0,2,0,,,,,,,,,0,0,0,0,0,22,22,22,2,0,2,0,,,,,,,,,,,,,,,,,,,,,,,,,,,,,,,,,,,,,,,,,,,,,,,,,,,,,,,,,,,,,,,,30,,,,,,,,1206.8715603998862,1206.8715603998862,1206.8715603998862,1206.8715603998862,1206.8715603998862,return,0.7936325999908149,14,0,0,1,0.0,-0.32,return,0.7202765997499228,4,62,0.0,-0.32,,,,,,,,,,,,,,,,,,,,,,,,,,,,,,,,,,,,,,,,,,,,,,,,,,,,,,,,57L54L,train_x,blue_star,bottom_left,2025-04-23_11h09.31.436,HideSeek_v1,2022.2.5,59.952972892906295,
,4,4,5,4,1,0,51,,train_dim1_1,24,30,,,,2,0,2,0,,,,,,,,,0,0,0,0,0,23,23,23,0,0,0,0,,,,,,,,,,,,,,,,,,,,,,,,,stimuli/alien_stimuli/51.png,,,,,,,,,,,,,,,,,,,,,,,,,,,,,stimuli/alien_stimuli/61.png,61,2,25,,,,,,,30,,,,,,,,1212.0731072998606,1212.0731072998606,1212.0731072998606,1212.0731072998606,1212.0731072998606,right,2.2051885998807847,14,0,0,99,0.24,-0.08,right,2.0968581000342965,,,,,1210.495255399961,1212.0731072998606,0,-0.32,0.0,0.0,-0.32,0,0.0,0,-0.32,1209.2344435998239,1209.2344435998239,1209.2344435998239,1209.2344435998239,1209.2344435998239,1209.2344435998239,1209.2344435998239,1209.2344435998239,1209.228752999753,1.369468499906361,return,1.2293620998971164,,,,,,,,,,,,,,,,,,,,,,,,,,,,,,,,,57L54L,train_x,blue_star,bottom_left,2025-04-23_11h09.31.436,HideSeek_v1,2022.2.5,59.952972892906295,
,4,4,5,4,1,0,51,,train_dim1_1,24,30,,,,2,0,2,0,,,,,,,,,0,0,0,0,0,23,23,23,1,0,1,0,,,,,,,,,,,,,,,,,,,,,,,,,,,,,,,,,,,,,,,,,,,,,,,,,,,,,,,,,,,,,,,,30,,,,,,,,1214.2677341997623,1214.2677341997623,1214.2677341997623,1214.2677341997623,1214.2677341997623,return,0.9415897997096181,15,0,0,1,0.24,-0.08,return,0.8578686001710594,4,63,0.24,-0.08,,,,,,,,,,,,,,,,,,,,,,,,,,,,,,,,,,,,,,,,,,,,,,,,,,,,,,,,57L54L,train_x,blue_star,bottom_left,2025-04-23_11h09.31.436,HideSeek_v1,2022.2.5,59.952972892906295,
,3,0,8,0,5,0,11,,train_dim1_1,25,30,,,,2,0,2,0,,,,,,,,,0,0,0,0,0,24,24,24,0,0,0,0,,,,,,,,,,,,,,,,,,,,,,,,,stimuli/alien_stimuli/11.png,,,,,,,,,,,,,,,,,,,,,,,,,,,,,stimuli/alien_stimuli/51.png,51,4,26,,,,,,,30,,,,,,,,1220.016464999877,1220.016464999877,1220.016464999877,1220.016464999877,1220.016464999877,right,2.0852680997923017,15,0,0,99,0.16,-0.4,right,1.9762329002842307,,,,,1218.435398099944,1220.016464999877,0.24,-0.08,0.0,0.08,-0.08,0.24,0.2,0.24,-0.08,1216.77442289982,1216.77442289982,1216.77442289982,1216.77442289982,1216.77442289982,1216.77442289982,1216.77442289982,1216.77442289982,1216.7682352999227,1.770531399641186,return,1.634270299691707,,,,,,,,,,,,,,,,,,,,,,,,,,,,,,,,,57L54L,train_x,blue_star,bottom_left,2025-04-23_11h09.31.436,HideSeek_v1,2022.2.5,59.952972892906295,
,3,0,8,0,5,0,11,,train_dim1_1,25,30,,,,2,0,2,0,,,,,,,,,0,0,0,0,0,24,24,24,1,0,1,0,,,,,,,,,,,,,,,,,,,,,,,,,,,,,,,,,,,,,,,,,,,,,,,,,,,,,,,,,,,,,,,,30,,,,,,,,1222.0899649998173,1222.0899649998173,1222.0899649998173,1222.0899649998173,1222.0899649998173,right,0.3765961998142302,15,0,0,99,0.24,-0.4,right,0.28409509966149926,,,,,,,,,,,,,,,,,,,,,,,,,,,,,,,,,,,,,,,,,,,,,,,,,,,,,,,,,,,,57L54L,train_x,blue_star,bottom_left,2025-04-23_11h09.31.436,HideSeek_v1,2022.2.5,59.952972892906295,
,3,0,8,0,5,0,11,,train_dim1_1,25,30,,,,2,0,2,0,,,,,,,,,0,0,0,0,0,24,24,24,2,0,2,0,,,,,,,,,,,,,,,,,,,,,,,,,,,,,,,,,,,,,,,,,,,,,,,,,,,,,,,,,,,,,,,,30,,,,,,,,1222.4730810998008,1222.4730810998008,1222.4730810998008,1222.4730810998008,1222.4730810998008,right,0.37629409972578287,15,0,0,99,0.32,-0.4,right,0.29974980000406504,,,,,,,,,,,,,,,,,,,,,,,,,,,,,,,,,,,,,,,,,,,,,,,,,,,,,,,,,,,,57L54L,train_x,blue_star,bottom_left,2025-04-23_11h09.31.436,HideSeek_v1,2022.2.5,59.952972892906295,
,3,0,8,0,5,0,11,,train_dim1_1,25,30,,,,2,0,2,0,,,,,,,,,0,0,0,0,0,24,24,24,3,0,3,0,,,,,,,,,,,,,,,,,,,,,,,,,,,,,,,,,,,,,,,,,,,,,,,,,,,,,,,,,,,,,,,,30,,,,,,,,1222.8579363999888,1222.8579363999888,1222.8579363999888,1222.8579363999888,1222.8579363999888,right,0.4268101002089679,15,0,0,99,0.4,-0.4,right,0.34795109974220395,,,,,,,,,,,,,,,,,,,,,,,,,,,,,,,,,,,,,,,,,,,,,,,,,,,,,,,,,,,,57L54L,train_x,blue_star,bottom_left,2025-04-23_11h09.31.436,HideSeek_v1,2022.2.5,59.952972892906295,
,3,0,8,0,5,0,11,,train_dim1_1,25,30,,,,2,0,2,0,,,,,,,,,0,0,0,0,0,24,24,24,4,0,4,0,,,,,,,,,,,,,,,,,,,,,,,,,,,,,,,,,,,,,,,,,,,,,,,,,,,,,,,,,,,,,,,,30,,,,,,,,1223.2902175998315,1223.2902175998315,1223.2902175998315,1223.2902175998315,1223.2902175998315,right,0.46009139996021986,15,0,0,99,0.48000000000000004,-0.4,right,0.3674308001063764,,,,,,,,,,,,,,,,,,,,,,,,,,,,,,,,,,,,,,,,,,,,,,,,,,,,,,,,,,,,57L54L,train_x,blue_star,bottom_left,2025-04-23_11h09.31.436,HideSeek_v1,2022.2.5,59.952972892906295,
,3,0,8,0,5,0,11,,train_dim1_1,25,30,,,,2,0,2,0,,,,,,,,,0,0,0,0,0,24,24,24,5,0,5,0,,,,,,,,,,,,,,,,,,,,,,,,,,,,,,,,,,,,,,,,,,,,,,,,,,,,,,,,,,,,,,,,30,,,,,,,,1223.7584506999701,1223.7584506999701,1223.7584506999701,1223.7584506999701,1223.7584506999701,return,0.6920334002934396,16,0,0,1,0.48000000000000004,-0.4,return,0.6080918996594846,4,68,0.48000000000000004,-0.4,,,,,,,,,,,,,,,,,,,,,,,,,,,,,,,,,,,,,,,,,,,,,,,,,,,,,,,,57L54L,train_x,blue_star,bottom_left,2025-04-23_11h09.31.436,HideSeek_v1,2022.2.5,59.952972892906295,
,1,1,1,1,0,0,61,,train_dim1_1,26,30,,,,2,0,2,0,,,,,,,,,0,0,0,0,0,25,25,25,0,0,0,0,,,,,,,,,,,,,,,,,,,,,,,,,stimuli/alien_stimuli/61.png,,,,,,,,,,,,,,,,,,,,,,,,,,,,,stimuli/alien_stimuli/11.png,11,3,27,,,,,,,30,,,,,,,,1228.9346709996462,1228.9346709996462,1228.9346709996462,1228.9346709996462,1228.9346709996462,right,1.6219773995690048,16,0,0,99,0.0,-0.32,right,1.5156696001067758,,,,,1227.3594595999457,1228.9346709996462,0.48,-0.4,0.0,0.4,-0.4,0.48,0.27999999999999997,0.48,-0.4,1226.0349729997106,1226.0349729997106,1226.0349729997106,1226.0349729997106,1226.0349729997106,1226.0349729997106,1226.0349729997106,1226.0349729997106,1226.0259938996287,1.4368761000223458,return,1.2943249996751547,,,,,,,,,,,,,,,,,,,,,,,,,,,,,,,,,57L54L,train_x,blue_star,bottom_left,2025-04-23_11h09.31.436,HideSeek_v1,2022.2.5,59.952972892906295,
,1,1,1,1,0,0,61,,train_dim1_1,26,30,,,,2,0,2,0,,,,,,,,,0,0,0,0,0,25,25,25,1,0,1,0,,,,,,,,,,,,,,,,,,,,,,,,,,,,,,,,,,,,,,,,,,,,,,,,,,,,,,,,,,,,,,,,30,,,,,,,,1230.543326599989,1230.543326599989,1230.543326599989,1230.543326599989,1230.543326599989,left,0.8425877001136541,16,0,0,99,-0.08,-0.32,left,0.7610855000093579,,,,,,,,,,,,,,,,,,,,,,,,,,,,,,,,,,,,,,,,,,,,,,,,,,,,,,,,,,,,57L54L,train_x,blue_star,bottom_left,2025-04-23_11h09.31.436,HideSeek_v1,2022.2.5,59.952972892906295,
,1,1,1,1,0,0,61,,train_dim1_1,26,30,,,,2,0,2,0,,,,,,,,,0,0,0,0,0,25,25,25,2,0,2,0,,,,,,,,,,,,,,,,,,,,,,,,,,,,,,,,,,,,,,,,,,,,,,,,,,,,,,,,,,,,,,,,30,,,,,,,,1231.3926304997876,1231.3926304997876,1231.3926304997876,1231.3926304997876,1231.3926304997876,return,0.49388449965044856,17,0,0,1,-0.08,-0.32,return,0.41542540024966,4,68,-0.08,-0.32,,,,,,,,,,,,,,,,,,,,,,,,,,,,,,,,,,,,,,,,,,,,,,,,,,,,,,,,57L54L,train_x,blue_star,bottom_left,2025-04-23_11h09.31.436,HideSeek_v1,2022.2.5,59.952972892906295,
,0,1,3,1,3,0,31,,train_dim1_1,27,30,,,,2,0,2,0,,,,,,,,,0,0,0,0,0,26,26,26,0,0,0,0,,,,,,,,,,,,,,,,,,,,,,,,,stimuli/alien_stimuli/31.png,,,,,,,,,,,,,,,,,,,,,,,,,,,,,stimuli/alien_stimuli/61.png,61,1,28,,,,,,,30,,,,,,,,1236.5939241996966,1236.5939241996966,1236.5939241996966,1236.5939241996966,1236.5939241996966,right,1.5869358000345528,17,0,0,99,-0.08,-0.32,right,1.5033379001542926,,,,,1235.0321939997375,1236.5939241996966,-0.08,-0.32,0.0,0.0,-0.32,-0.08,-0.08,-0.08,-0.32,1233.4526728997007,1233.4526728997007,1233.4526728997007,1233.4526728997007,1233.4526728997007,1233.4526728997007,1233.4526728997007,1233.4526728997007,1233.43201179998,1.6864809999242425,return,1.5475407000631094,,,,,,,,,,,,,,,,,,,,,,,,,,,,,,,,,57L54L,train_x,blue_star,bottom_left,2025-04-23_11h09.31.436,HideSeek_v1,2022.2.5,59.952972892906295,
,0,1,3,1,3,0,31,,train_dim1_1,27,30,,,,2,0,2,0,,,,,,,,,0,0,0,0,0,26,26,26,1,0,1,0,,,,,,,,,,,,,,,,,,,,,,,,,,,,,,,,,,,,,,,,,,,,,,,,,,,,,,,,,,,,,,,,30,,,,,,,,1238.1836554999463,1238.1836554999463,1238.1836554999463,1238.1836554999463,1238.1836554999463,right,0.47538300044834614,17,0,0,99,0.0,-0.32,right,0.3910859995521605,,,,,,,,,,,,,,,,,,,,,,,,,,,,,,,,,,,,,,,,,,,,,,,,,,,,,,,,,,,,57L54L,train_x,blue_star,bottom_left,2025-04-23_11h09.31.436,HideSeek_v1,2022.2.5,59.952972892906295,
,0,1,3,1,3,0,31,,train_dim1_1,27,30,,,,2,0,2,0,,,,,,,,,0,0,0,0,0,26,26,26,2,0,2,0,,,,,,,,,,,,,,,,,,,,,,,,,,,,,,,,,,,,,,,,,,,,,,,,,,,,,,,,,,,,,,,,30,,,,,,,,1238.669334099628,1238.669334099628,1238.669334099628,1238.669334099628,1238.669334099628,right,0.4570463001728058,17,0,0,99,0.08,-0.32,right,0.37937390012666583,,,,,,,,,,,,,,,,,,,,,,,,,,,,,,,,,,,,,,,,,,,,,,,,,,,,,,,,,,,,57L54L,train_x,blue_star,bottom_left,2025-04-23_11h09.31.436,HideSeek_v1,2022.2.5,59.952972892906295,
,0,1,3,1,3,0,31,,train_dim1_1,27,30,,,,2,0,2,0,,,,,,,,,0,0,0,0,0,26,26,26,3,0,3,0,,,,,,,,,,,,,,,,,,,,,,,,,,,,,,,,,,,,,,,,,,,,,,,,,,,,,,,,,,,,,,,,30,,,,,,,,1239.132215899881,1239.132215899881,1239.132215899881,1239.132215899881,1239.132215899881,return,0.6604096996597946,18,0,0,1,0.08,-0.32,return,0.5834244000725448,4,71,0.08,-0.32,,,,,,,,,,,,,,,,,,,,,,,,,,,,,,,,,,,,,,,,,,,,,,,,,,,,,,,,57L54L,train_x,blue_star,bottom_left,2025-04-23_11h09.31.436,HideSeek_v1,2022.2.5,59.952972892906295,
,3,1,7,1,4,0,21,,train_dim1_1,28,30,,,,2,0,2,0,,,,,,,,,0,0,0,0,0,27,27,27,0,0,0,0,,,,,,,,,,,,,,,,,,,,,,,,,stimuli/alien_stimuli/21.png,,,,,,,,,,,,,,,,,,,,,,,,,,,,,stimuli/alien_stimuli/31.png,31,0,29,,,,,,,30,,,,,,,,1244.2522251000628,1244.2522251000628,1244.2522251000628,1244.2522251000628,1244.2522251000628,right,2.774243399966508,18,0,0,99,0.16,-0.32,right,2.65922910021618,,,,,1242.6723273997195,1244.2522251000628,0.08,-0.32,0.0,0.24,-0.32,0.08,-0.04,0.08,-0.32,1241.360179899726,1241.360179899726,1241.360179899726,1241.360179899726,1241.360179899726,1241.360179899726,1241.360179899726,1241.360179899726,1241.3384584999644,1.4200105001218617,return,1.2831306997686625,,,,,,,,,,,,,,,,,,,,,,,,,,,,,,,,,57L54L,train_x,blue_star,bottom_left,2025-04-23_11h09.31.436,HideSeek_v1,2022.2.5,59.952972892906295,
,3,1,7,1,4,0,21,,train_dim1_1,28,30,,,,2,0,2,0,,,,,,,,,0,0,0,0,0,27,27,27,1,0,1,0,,,,,,,,,,,,,,,,,,,,,,,,,,,,,,,,,,,,,,,,,,,,,,,,,,,,,,,,,,,,,,,,30,,,,,,,,1247.0111349998042,1247.0111349998042,1247.0111349998042,1247.0111349998042,1247.0111349998042,right,0.47581900004297495,18,0,0,99,0.24,-0.32,right,0.39663329999893904,,,,,,,,,,,,,,,,,,,,,,,,,,,,,,,,,,,,,,,,,,,,,,,,,,,,,,,,,,,,57L54L,train_x,blue_star,bottom_left,2025-04-23_11h09.31.436,HideSeek_v1,2022.2.5,59.952972892906295,
,3,1,7,1,4,0,21,,train_dim1_1,28,30,,,,2,0,2,0,,,,,,,,,0,0,0,0,0,27,27,27,2,0,2,0,,,,,,,,,,,,,,,,,,,,,,,,,,,,,,,,,,,,,,,,,,,,,,,,,,,,,,,,,,,,,,,,30,,,,,,,,1247.4942349996418,1247.4942349996418,1247.4942349996418,1247.4942349996418,1247.4942349996418,right,0.47665120009332895,18,0,0,99,0.32,-0.32,right,0.38340390007942915,,,,,,,,,,,,,,,,,,,,,,,,,,,,,,,,,,,,,,,,,,,,,,,,,,,,,,,,,,,,57L54L,train_x,blue_star,bottom_left,2025-04-23_11h09.31.436,HideSeek_v1,2022.2.5,59.952972892906295,
,3,1,7,1,4,0,21,,train_dim1_1,28,30,,,,2,0,2,0,,,,,,,,,0,0,0,0,0,27,27,27,3,0,3,0,,,,,,,,,,,,,,,,,,,,,,,,,,,,,,,,,,,,,,,,,,,,,,,,,,,,,,,,,,,,,,,,30,,,,,,,,1247.977211699821,1247.977211699821,1247.977211699821,1247.977211699821,1247.977211699821,right,0.4596380000002682,18,0,0,99,0.4,-0.32,right,0.38138810032978654,,,,,,,,,,,,,,,,,,,,,,,,,,,,,,,,,,,,,,,,,,,,,,,,,,,,,,,,,,,,57L54L,train_x,blue_star,bottom_left,2025-04-23_11h09.31.436,HideSeek_v1,2022.2.5,59.952972892906295,
,3,1,7,1,4,0,21,,train_dim1_1,28,30,,,,2,0,2,0,,,,,,,,,0,0,0,0,0,27,27,27,4,0,4,0,,,,,,,,,,,,,,,,,,,,,,,,,,,,,,,,,,,,,,,,,,,,,,,,,,,,,,,,,,,,,,,,30,,,,,,,,1248.4458878999576,1248.4458878999576,1248.4458878999576,1248.4458878999576,1248.4458878999576,return,0.6262765997089446,19,0,0,1,0.4,-0.32,return,0.546108600217849,4,75,0.4,-0.32,,,,,,,,,,,,,,,,,,,,,,,,,,,,,,,,,,,,,,,,,,,,,,,,,,,,,,,,57L54L,train_x,blue_star,bottom_left,2025-04-23_11h09.31.436,HideSeek_v1,2022.2.5,59.952972892906295,
,4,0,5,0,1,0,51,,train_dim1_1,29,30,,,,2,0,2,0,,,,,,,,,0,0,0,0,0,28,28,28,0,0,0,0,,,,,,,,,,,,,,,,,,,,,,,,,stimuli/alien_stimuli/51.png,,,,,,,,,,,,,,,,,,,,,,,,,,,,,stimuli/alien_stimuli/21.png,21,3,30,,,,,,,30,,,,,,,,1253.3257313999347,1253.3257313999347,1253.3257313999347,1253.3257313999347,1253.3257313999347,right,3.0042995996773243,19,0,0,99,0.24,-0.4,right,2.892714099958539,,,,,1251.746165599674,1253.3257313999347,0.4,-0.32,0.0,0.32,-0.32,0.4,0.24000000000000002,0.4,-0.32,1250.6386389997788,1250.6386389997788,1250.6386389997788,1250.6386389997788,1250.6386389997788,1250.6386389997788,1250.6386389997788,1250.6386389997788,1250.6298215996476,1.2195231998339295,return,1.0760055002756417,,,,,,,,,,,,,,,,,,,,,,,,,,,,,,,,,57L54L,train_x,blue_star,bottom_left,2025-04-23_11h09.31.436,HideSeek_v1,2022.2.5,59.952972892906295,
,4,0,5,0,1,0,51,,train_dim1_1,29,30,,,,2,0,2,0,,,,,,,,,0,0,0,0,0,28,28,28,1,0,1,0,,,,,,,,,,,,,,,,,,,,,,,,,,,,,,,,,,,,,,,,,,,,,,,,,,,,,,,,,,,,,,,,30,,,,,,,,1256.3165509998798,1256.3165509998798,1256.3165509998798,1256.3165509998798,1256.3165509998798,return,0.526460699737072,20,0,0,1,0.24,-0.4,return,0.44248640025034547,4,76,0.24,-0.4,,,,,,,,,,,,,,,,,,,,,,,,,,,,,,,,,,,,,,,,,,,,,,,,,,,,,,,,57L54L,train_x,blue_star,bottom_left,2025-04-23_11h09.31.436,HideSeek_v1,2022.2.5,59.952972892906295,
,2,2,7,2,5,0,11,,train_dim1_1,30,30,,,,2,0,2,0,,,,,,,,,0,0,0,0,0,29,29,29,0,0,0,0,,,,,,,,,,,,,,,,,,,,,,,,,stimuli/alien_stimuli/11.png,,,,,,,,,,,,,,,,,,,,,,,,,,,,,stimuli/alien_stimuli/51.png,51,4,31,,,,,,,30,,,,,,,,1261.640046800021,1261.640046800021,1261.640046800021,1261.640046800021,1261.640046800021,right,1.5701278997585177,20,0,0,99,0.08,-0.24,right,1.451349399983883,,,,,1260.053327600006,1261.640046800021,0.24,-0.4,0.0,0.08,-0.4,0.24,0.2,0.24,-0.4,1258.41257199971,1258.41257199971,1258.41257199971,1258.41257199971,1258.41257199971,1258.41257199971,1258.41257199971,1258.41257199971,1258.4028971998023,1.7531987000256777,return,1.6121499999426305,,,,,,,,,,,,,,,,,,,,,,,,,,,,,,,,,57L54L,train_x,blue_star,bottom_left,2025-04-23_11h09.31.436,HideSeek_v1,2022.2.5,59.952972892906295,
,2,2,7,2,5,0,11,,train_dim1_1,30,30,,,,2,0,2,0,,,,,,,,,0,0,0,0,0,29,29,29,1,0,1,0,,,,,,,,,,,,,,,,,,,,,,,,,,,,,,,,,,,,,,,,,,,,,,,,,,,,,,,,,,,,,,,,30,,,,,,,,1263.1972596999258,1263.1972596999258,1263.1972596999258,1263.1972596999258,1263.1972596999258,right,0.4546517003327608,20,0,0,99,0.16,-0.24,right,0.36346769984811544,,,,,,,,,,,,,,,,,,,,,,,,,,,,,,,,,,,,,,,,,,,,,,,,,,,,,,,,,,,,57L54L,train_x,blue_star,bottom_left,2025-04-23_11h09.31.436,HideSeek_v1,2022.2.5,59.952972892906295,
,2,2,7,2,5,0,11,,train_dim1_1,30,30,,,,2,0,2,0,,,,,,,,,0,0,0,0,0,29,29,29,2,0,2,0,,,,,,,,,,,,,,,,,,,,,,,,,,,,,,,,,,,,,,,,,,,,,,,,,,,,,,,,,,,,,,,,30,,,,,,,,1263.6571955997497,1263.6571955997497,1263.6571955997497,1263.6571955997497,1263.6571955997497,right,0.44328629970550537,20,0,0,99,0.24,-0.24,right,0.3528248001821339,,,,,,,,,,,,,,,,,,,,,,,,,,,,,,,,,,,,,,,,,,,,,,,,,,,,,,,,,,,,57L54L,train_x,blue_star,bottom_left,2025-04-23_11h09.31.436,HideSeek_v1,2022.2.5,59.952972892906295,
,2,2,7,2,5,0,11,,train_dim1_1,30,30,,,,2,0,2,0,,,,,,,,,0,0,0,0,0,29,29,29,3,0,3,0,,,,,,,,,,,,,,,,,,,,,,,,,,,,,,,,,,,,,,,,,,,,,,,,,,,,,,,,,,,,,,,,30,,,,,,,,1264.1073240996338,1264.1073240996338,1264.1073240996338,1264.1073240996338,1264.1073240996338,right,0.47671829955652356,20,0,0,99,0.32,-0.24,right,0.3907852997072041,,,,,,,,,,,,,,,,,,,,,,,,,,,,,,,,,,,,,,,,,,,,,,,,,,,,,,,,,,,,57L54L,train_x,blue_star,bottom_left,2025-04-23_11h09.31.436,HideSeek_v1,2022.2.5,59.952972892906295,
,2,2,7,2,5,0,11,,train_dim1_1,30,30,,,,2,0,2,0,,,,,,,,,0,0,0,0,0,29,29,29,4,0,4,0,,,,,,,,,,,,,,,,,,,,,,,,,,,,,,,,,,,,,,,,,,,,,,,,,,,,,,,,,,,,,,,,30,,,,,,,,1264.5934729999863,1264.5934729999863,1264.5934729999863,1264.5934729999863,1264.5934729999863,right,0.5410492001101375,20,0,0,99,0.4,-0.24,right,0.456534500233829,,,,,,,,,,,,,,,,,,,,,,,,,,,,,,,,,,,,,,,,,,,,,,,,,,,,,,,,,,,,57L54L,train_x,blue_star,bottom_left,2025-04-23_11h09.31.436,HideSeek_v1,2022.2.5,59.952972892906295,
,2,2,7,2,5,0,11,,train_dim1_1,30,30,,,,2,0,2,0,,,,,,,,,0,0,0,0,0,29,29,29,5,0,5,0,,,,,,,,,,,,,,,,,,,,,,,,,,,,,,,,,,,,,,,,,,,,,,,,,,,,,,,,,,,,,,,,30,,,,,,,,1265.1428291997872,1265.1428291997872,1265.1428291997872,1265.1428291997872,1265.1428291997872,return,0.9928748998790979,21,0,0,1,0.4,-0.24,return,0.913939599879086,4,81,0.4,-0.24,,,,,,,,,,,,,,,,,,,,,,,,,,,,,,,,,,,,,,,,,,,,,,,,,,,,,,,,57L54L,train_x,blue_star,bottom_left,2025-04-23_11h09.31.436,HideSeek_v1,2022.2.5,59.952972892906295,
,,,,,,,,,,,30,,,,2,0,2,0,,,,,,,,,,,,,,,,,,,,,,,,,,,,,,,,,,,,,,,,,,,,,,,,,,,,,,,,,,,,,,,,,,,,,,,,,,stimuli/alien_stimuli/11.png,11,2,32,21,0.7,0.875,1,1,1,30,0,conditions/schedules/train_x_first/blue_star_00/bottom_left/inputTrain_2.1.xlsx,99,1,2,1,0,,,,,,,,,,,1,,,,,,,,,1269.2775912997313,1270.8345457999967,0.4,-0.24,0.0,0.4,-0.24,0.4,0.2,0.4,-0.24,1267.699407399632,1267.699407399632,1267.699407399632,1267.699407399632,1267.699407399632,1267.699407399632,1267.699407399632,1267.699407399632,1267.6939037998209,1.687015200033784,return,1.5508449003100395,0,0.9,0,1,21,,,,,,,,,,,,,,,,,,,,,,,,,,,,57L54L,train_x,blue_star,bottom_left,2025-04-23_11h09.31.436,HideSeek_v1,2022.2.5,59.952972892906295,
,,,,,,,,,,,,,,,3,0,3,0,0,0,0,0,,,,,,,,,,,,,,,,,,,,,,,,,,,,,,,conditions/schedules/train_x_first/blue_star_00/bottom_left/instructions/Slide17.png,conditions/schedules/train_x_first/blue_star_00/bottom_left/instructions/Audio17.wav,1270.8345457999967,1270.8293800995687,17,"[3.2050600997172296, 18.013616899959743, 16.568704099860042, 19.508838299661875, 4.5235647996887565, 4.952266700100154, 5.953498799819499, 12.440737899858505, 6.288007800001651, 7.156760700047016, 9.852847000118345, 12.273722199723125, 24.62625710014254, 12.672337000258267, 30.886791500262916, 21.49187789997086, 30.4678559997119]","[0.0002302001230418682, 0.034086599946022034, 0.03118589986115694, 0.05336109967902303, 0.031672799959778786, 0.048727700021117926, 0.029948999639600515, 0.09842689987272024, 0.05048219999298453, 0.03028120007365942, 0.11363080004230142, 12.27373049966991, 0.00021800026297569275, 12.672345300205052, 30.88679930008948, 21.49188629956916, 30.46786479977891]",0,,,,,,,,,,,,,,,,,,,,,,,,,,,,,,,,,,,,,,,,,,,,,,,,,,,,,,,,,,,,,,,,,,,,,,,,,,,,,,,,,,,,,,,,,,,,,,,,,,,,,,,,,,,,,,,,,,,,,,,,,,,,57L54L,train_x,blue_star,bottom_left,2025-04-23_11h09.31.436,HideSeek_v1,2022.2.5,59.952972892906295,
,,,,,,,,,,,,,,,3,0,3,0,1,0,1,0,,,,,,,,,,,,,,,,,,,,,,,,,,,,,,,conditions/schedules/train_x_first/blue_star_00/bottom_left/instructions/Slide18.png,conditions/schedules/train_x_first/blue_star_00/bottom_left/instructions/Audio18.wav,1301.3667651000433,1301.3550820996986,18,"[3.2050600997172296, 18.013616899959743, 16.568704099860042, 19.508838299661875, 4.5235647996887565, 4.952266700100154, 5.953498799819499, 12.440737899858505, 6.288007800001651, 7.156760700047016, 9.852847000118345, 12.273722199723125, 24.62625710014254, 12.672337000258267, 30.886791500262916, 21.49187789997086, 30.4678559997119, 6.457312799990177]","[0.0002302001230418682, 0.034086599946022034, 0.03118589986115694, 0.05336109967902303, 0.031672799959778786, 0.048727700021117926, 0.029948999639600515, 0.09842689987272024, 0.05048219999298453, 0.03028120007365942, 0.11363080004230142, 12.27373049966991, 0.00021800026297569275, 12.672345300205052, 30.88679930008948, 21.49188629956916, 0.014556299895048141, 6.457321899943054]",0,,,,,,,,,,,,,,,,,,,,,,,,,,,,,,,,,,,,,,,,,,,,,,,,,,,,,,,,,,,,,,,,,,,,,,,,,,,,,,,,,,,,,,,,,,,,,,,,,,,,,,,,,,,,,,,,,,,,,,,,,,,,57L54L,train_x,blue_star,bottom_left,2025-04-23_11h09.31.436,HideSeek_v1,2022.2.5,59.952972892906295,
,,,,,,,,,,,,,,,3,0,3,0,2,0,2,0,,,,,,,,,,,,,,,,,,,,,,,,,,,,,,,conditions/schedules/train_x_first/blue_star_00/bottom_left/instructions/Slide19.png,conditions/schedules/train_x_first/blue_star_00/bottom_left/instructions/Audio19.wav,1307.863004299812,1307.8599604999647,19,"[3.2050600997172296, 18.013616899959743, 16.568704099860042, 19.508838299661875, 4.5235647996887565, 4.952266700100154, 5.953498799819499, 12.440737899858505, 6.288007800001651, 7.156760700047016, 9.852847000118345, 12.273722199723125, 24.62625710014254, 12.672337000258267, 30.886791500262916, 21.49187789997086, 30.4678559997119, 6.457312799990177, 10.235781399998814]","[0.0002302001230418682, 0.034086599946022034, 0.03118589986115694, 0.05336109967902303, 0.031672799959778786, 0.048727700021117926, 0.029948999639600515, 0.09842689987272024, 0.05048219999298453, 0.03028120007365942, 0.11363080004230142, 12.27373049966991, 0.00021800026297569275, 12.672345300205052, 30.88679930008948, 21.49188629956916, 0.014556299895048141, 0.06206470029428601, 10.235794000327587]",0,,,,,,,,,,,,,,,,,,,,,,,,,,,,,,,,,,,,,,,,,,,,,,,,,,,,,,,,,,,,,,,,,,,,,,,,,,,,,,,,,,,,,,,,,,,,,,,,,,,,,,,,,,,,,,,,,,,,,,,,,,,,57L54L,train_x,blue_star,bottom_left,2025-04-23_11h09.31.436,HideSeek_v1,2022.2.5,59.952972892906295,
,,,,,,,,,,,,,,,3,0,3,0,3,0,3,0,,,,,,,,,,,,,,,,,,,,,,,,,,,,,,,conditions/schedules/train_x_first/blue_star_00/bottom_left/instructions/Slide20.png,conditions/schedules/train_x_first/blue_star_00/bottom_left/instructions/Audio20.wav,1318.1744144000113,1318.1688524996862,20,"[3.2050600997172296, 18.013616899959743, 16.568704099860042, 19.508838299661875, 4.5235647996887565, 4.952266700100154, 5.953498799819499, 12.440737899858505, 6.288007800001651, 7.156760700047016, 9.852847000118345, 12.273722199723125, 24.62625710014254, 12.672337000258267, 30.886791500262916, 21.49187789997086, 30.4678559997119, 6.457312799990177, 10.235781399998814, 13.535848199855536]","[0.0002302001230418682, 0.034086599946022034, 0.03118589986115694, 0.05336109967902303, 0.031672799959778786, 0.048727700021117926, 0.029948999639600515, 0.09842689987272024, 0.05048219999298453, 0.03028120007365942, 0.11363080004230142, 12.27373049966991, 0.00021800026297569275, 12.672345300205052, 30.88679930008948, 21.49188629956916, 0.014556299895048141, 0.06206470029428601, 0.030326299834996462, 13.535856499802321]",0,,,,,,,,,,,,,,,,,,,,,,,,,,,,,,,,,,,,,,,,,,,,,,,,,,,,,,,,,,,,,,,,,,,,,,,,,,,,,,,,,,,,,,,,,,,,,,,,,,,,,,,,,,,,,,,,,,,,,,,,,,,,57L54L,train_x,blue_star,bottom_left,2025-04-23_11h09.31.436,HideSeek_v1,2022.2.5,59.952972892906295,
1,0,3,0,8,0,5,66,2,instr_dim1_2,,,,,,3,0,3,0,,,,,0,0,0,0,,,,,,,,,,,,,,,,,,,,,,,,,,,,,,,,,,,,,stimuli/alien_stimuli/66.png,conditions/schedules/train_x_first/blue_star_00/bottom_left/inputInstr_2.xlsx,stimuli/alien_stimuli/66.png,1331.8067184998654,1331.8067184998654,1331.8067184998654,1331.8067184998654,1331.797080099676,return,9.18157560005784,"[-0.16, -0.08, 0, 0.08, 0.16, 0.24, 0.32, 0.4, 0.48, 0.56]","[-0.4, -0.32, -0.24, -0.16, -0.08, 0, 0.08, 0.16, 0.24, 0.32]",8,3,0,0,0.4,0.0,1341.1612457996234,1341.1612457996234,1341.1612457996234,1341.1612457996234,1341.1612457996234,1341.1612457996234,1341.1612457996234,1341.1550439995715,10.376256700139493,return,10.207968099974096,stimuli/alien_stimuli/66.png,66,0,1,,,,,,,,,,,,,,,,,,,,,,,,,,,,,,,,,,,,,,,,,,,,,,,,,,,,,,,,,,,,,,,,,,,,,,,,,,,,,,,,,,,,,,,,,57L54L,train_x,blue_star,bottom_left,2025-04-23_11h09.31.436,HideSeek_v1,2022.2.5,59.952972892906295,
,,,,,,,,,,,30,,,,3,0,3,0,,,,,,,,,,,,,,,,,,,,,,,,,,,,,,,,,,,,,,,,,,,,,,,,,,,,,,,,,,,,,,,,,,,,,,,,,,,,,,21,0.7,0.875,1,99,2,30,0,conditions/schedules/train_x_first/blue_star_00/bottom_left/inputTrain_2.1.xlsx,99,1,2,1,0,,,,,,,,,,,,,,,,,,,,,,,,,,,,,,,,,,,,,,,,,,,,,,,,,,,,,,,,,,,,,,,,,,,,,,,,,,,57L54L,train_x,blue_star,bottom_left,2025-04-23_11h09.31.436,HideSeek_v1,2022.2.5,59.952972892906295,
,,,,,,,,,,,,,,,4,0,4,0,0,0,0,0,,,,,,,,,,,,,,,,,,,,,,,,,,,,,,,conditions/schedules/train_x_first/blue_star_00/bottom_left/instructions/Slide21.png,conditions/schedules/train_x_first/blue_star_00/bottom_left/instructions/Audio21.wav,1351.547194499988,1351.5471737994812,21,"[3.2050600997172296, 18.013616899959743, 16.568704099860042, 19.508838299661875, 4.5235647996887565, 4.952266700100154, 5.953498799819499, 12.440737899858505, 6.288007800001651, 7.156760700047016, 9.852847000118345, 12.273722199723125, 24.62625710014254, 12.672337000258267, 30.886791500262916, 21.49187789997086, 30.4678559997119, 6.457312799990177, 10.235781399998814, 13.535848199855536, 16.659641500096768]","[0.0002302001230418682, 0.034086599946022034, 0.03118589986115694, 0.05336109967902303, 0.031672799959778786, 0.048727700021117926, 0.029948999639600515, 0.09842689987272024, 0.05048219999298453, 0.03028120007365942, 0.11363080004230142, 12.27373049966991, 0.00021800026297569275, 12.672345300205052, 30.88679930008948, 21.49188629956916, 0.014556299895048141, 0.06206470029428601, 0.030326299834996462, 13.535856499802321, 16.65964960027486]",0,,,,,,,,,,,,,,,,,,,,,,,,,,,,,,,,,,,,,,,,,,,,,,,,,,,,,,,,,,,,,,,,,,,,,,,,,,,,,,,,,,,,,,,,,,,,,,,,,,,,,,,,,,,,,,,,,,,,,,,,,,,,57L54L,train_x,blue_star,bottom_left,2025-04-23_11h09.31.436,HideSeek_v1,2022.2.5,59.952972892906295,
