trialInstr,x_fixStart,y_fixStart,x_corrSteps,y_corrSteps,x_nrSteps,y_nrSteps,alienID,trialLength,version,trialTrain,praclen,testlen,trial_label,break_on_off,beforeExpLoop.thisRepN,beforeExpLoop.thisTrialN,beforeExpLoop.thisN,beforeExpLoop.thisIndex,mini_instr_trials.thisRepN,mini_instr_trials.thisTrialN,mini_instr_trials.thisN,mini_instr_trials.thisIndex,instrLoop.thisRepN,instrLoop.thisTrialN,instrLoop.thisN,instrLoop.thisIndex,repeat_prac.thisRepN,repeat_prac.thisTrialN,repeat_prac.thisN,repeat_prac.thisIndex,trainLoop.thisRepN,trainLoop.thisTrialN,trainLoop.thisN,trainLoop.thisIndex,moveLoop_train.thisRepN,moveLoop_train.thisTrialN,moveLoop_train.thisN,moveLoop_train.thisIndex,experiment.thisRepN,experiment.thisTrialN,experiment.thisN,experiment.thisIndex,moveLoop_test.thisRepN,moveLoop_test.thisTrialN,moveLoop_test.thisN,moveLoop_test.thisIndex,mini_instr2_trials.thisRepN,mini_instr2_trials.thisTrialN,mini_instr2_trials.thisN,mini_instr2_trials.thisIndex,start_all_time,url,slideStim,audioStim,slides.started,sounds.started,nextButton.numClicks,nextButton.timesOn,nextButton.timesOff,prev_but.numClicks,prev_but.timesOn,prev_but.timesOff,alienStim,instrFile,alienStim_instr,gridImage_instr.started,startPos_3.started,key_instr.started,alienImage_3.started,sounds_1.started,key_instr.keys,key_instr.rt,all_x,all_y,FBy_corrSteps,FBy_fixStart,FBx_corrSteps,FBx_fixStart,FBy_pathSize_check,FBx_pathSize_check,gridImage_9.started,alienImageFB_3.started,startPosFB_3.started,keyFB_3.started,pathLine_ydir_2.started,pathLine_xdir_2.started,alienFace_3.started,sounds_2.started,RTFB_instr,keyFB_3.keys,keyFB_3.rt,draw_alienStim,draw_alienID,test_x,nrepcount,perfthres,percthres,earlierperf,earlystop,nextPrac,fileidx,praclen,saveACC_train,pracFile,nextPrac_train,addNrep,fileidx_endr,repExp,showearly,gridImage_4.started,startPos.started,movePos.started,key_resp.started,alienImage.started,buttonPress_train,RTchoice_train,cumAcctrain,aCorr,saveACC_choice,corrAns,x_movePos_end,y_movePos_end,key_resp.keys,key_resp.rt,wLy_dir,wLx_dir,x_movePos,y_movePos,text_2.started,text_2.stopped,aft_x_corrPos,aft_y_corrPos,y_pathSize_check,x_pathSize_check,y_pathdirY,x_pathdirY,x_pathdirX,x_corrPos,y_corrPos,gridImage_6.started,alienImageFB_2.started,startPosFB_2.started,movePosFB_2.started,keyFB_2.started,pathLine_xdir.started,pathLine_ydir.started,alienFace.started,sounds_4.started,RT_FBtrain,keyFB_2.keys,keyFB_2.rt,saveACC_pre,ACC,within_saveACC_train,earlystop_wloop,cumAcctrain_check,gridImage_3.started,alienImage_test.started,startPos_test.started,movePos_test.started,key_resp_test.started,wLy_dir_test,wLx_dir_test,buttonPress_test,RTchoice_test,cumAcctest,corrAns_test,key_resp_test.keys,key_resp_test.rt,text_3.started,text_3.stopped,total_time,end_all_time,key_resp_3.keys,slides_2.started,sounds_3.started,nextButton_2.numClicks,nextButton_2.timesOn,nextButton_2.timesOff,prev_but_2.numClicks,prev_but_2.timesOn,prev_but_2.timesOff,bye.started,participant,train_first,00_coordinate,starting corner,date,expName,psychopyVersion,frameRate,
,,,,,,,,,,,,,,,0,0,0,0,0,0,0,0,,,,,,,,,,,,,,,,,,,,,,,,,,,,,start_all_time,testround,conditions/schedules/train_y_first/blue_star_00/bottom_left/instructions/Slide1.png,conditions/schedules/train_y_first/blue_star_00/bottom_left/instructions/Audio1.wav,1923.7562307000626,1923.7006537041161,1,[6.962562799919397],[6.962569599971175],0,,,,,,,,,,,,,,,,,,,,,,,,,,,,,,,,,,,,,,,,,,,,,,,,,,,,,,,,,,,,,,,,,,,,,,,,,,,,,,,,,,,,,,,,,,,,,,,,,,,,,,,,,,,,,,,,,,,,,,,,,,,,59V09D,train_y,blue_star,bottom_left,2025-04-07_15h11.24.813,HideSeek_v1,2022.2.5,59.76103951061015,
,,,,,,,,,,,,,,,0,0,0,0,1,0,1,0,,,,,,,,,,,,,,,,,,,,,,,,,,,,,,,conditions/schedules/train_y_first/blue_star_00/bottom_left/instructions/Slide2.png,conditions/schedules/train_y_first/blue_star_00/bottom_left/instructions/Audio2.wav,1930.7355826999992,1930.737916000071,2,"[6.962562799919397, 18.33194059995003]","[0.0002965000458061695, 18.33194740000181]",0,,,,,,,,,,,,,,,,,,,,,,,,,,,,,,,,,,,,,,,,,,,,,,,,,,,,,,,,,,,,,,,,,,,,,,,,,,,,,,,,,,,,,,,,,,,,,,,,,,,,,,,,,,,,,,,,,,,,,,,,,,,,59V09D,train_y,blue_star,bottom_left,2025-04-07_15h11.24.813,HideSeek_v1,2022.2.5,59.76103951061015,
,,,,,,,,,,,,,,,0,0,0,0,2,0,2,0,,,,,,,,,,,,,,,,,,,,,,,,,,,,,,,conditions/schedules/train_y_first/blue_star_00/bottom_left/instructions/Slide3.png,conditions/schedules/train_y_first/blue_star_00/bottom_left/instructions/Audio3.wav,1949.139971600147,1949.136360000237,3,"[6.962562799919397, 18.33194059995003, 16.658281000098214]","[0.0002965000458061695, 0.00020759995095431805, 16.658288900041953]",0,,,,,,,,,,,,,,,,,,,,,,,,,,,,,,,,,,,,,,,,,,,,,,,,,,,,,,,,,,,,,,,,,,,,,,,,,,,,,,,,,,,,,,,,,,,,,,,,,,,,,,,,,,,,,,,,,,,,,,,,,,,,59V09D,train_y,blue_star,bottom_left,2025-04-07_15h11.24.813,HideSeek_v1,2022.2.5,59.76103951061015,
,,,,,,,,,,,,,,,0,0,0,0,3,0,3,0,,,,,,,,,,,,,,,,,,,,,,,,,,,,,,,conditions/schedules/train_y_first/blue_star_00/bottom_left/instructions/Slide4.png,conditions/schedules/train_y_first/blue_star_00/bottom_left/instructions/Audio4.wav,1965.8751549001317,1965.8669394002063,4,"[6.962562799919397, 18.33194059995003, 16.658281000098214, 19.10554170003161]","[0.0002965000458061695, 0.00020759995095431805, 0.014313000021502376, 19.105549299856648]",0,,,,,,,,,,,,,,,,,,,,,,,,,,,,,,,,,,,,,,,,,,,,,,,,,,,,,,,,,,,,,,,,,,,,,,,,,,,,,,,,,,,,,,,,,,,,,,,,,,,,,,,,,,,,,,,,,,,,,,,,,,,,59V09D,train_y,blue_star,bottom_left,2025-04-07_15h11.24.813,HideSeek_v1,2022.2.5,59.76103951061015,
,,,,,,,,,,,,,,,0,0,0,0,4,0,4,0,,,,,,,,,,,,,,,,,,,,,,,,,,,,,,,conditions/schedules/train_y_first/blue_star_00/bottom_left/instructions/Slide5.png,conditions/schedules/train_y_first/blue_star_00/bottom_left/instructions/Audio5.wav,1985.0485865999945,1985.0496150002582,5,"[6.962562799919397, 18.33194059995003, 16.658281000098214, 19.10554170003161, 4.252090699970722]","[0.0002965000458061695, 0.00020759995095431805, 0.014313000021502376, 0.03143789991736412, 4.252097700024024]",0,,,,,,,,,,,,,,,,,,,,,,,,,,,,,,,,,,,,,,,,,,,,,,,,,,,,,,,,,,,,,,,,,,,,,,,,,,,,,,,,,,,,,,,,,,,,,,,,,,,,,,,,,,,,,,,,,,,,,,,,,,,,59V09D,train_y,blue_star,bottom_left,2025-04-07_15h11.24.813,HideSeek_v1,2022.2.5,59.76103951061015,
,,,,,,,,,,,,,,,0,0,0,0,5,0,5,0,,,,,,,,,,,,,,,,,,,,,,,,,,,,,,,conditions/schedules/train_y_first/blue_star_00/bottom_left/instructions/Slide6.png,conditions/schedules/train_y_first/blue_star_00/bottom_left/instructions/Audio6.wav,1989.3510333001614,1989.3532735201063,6,"[6.962562799919397, 18.33194059995003, 16.658281000098214, 19.10554170003161, 4.252090699970722, 4.453375899931416]","[0.0002965000458061695, 0.00020759995095431805, 0.014313000021502376, 0.03143789991736412, 0.04953740001656115, 4.4533826999831945]",0,,,,,,,,,,,,,,,,,,,,,,,,,,,,,,,,,,,,,,,,,,,,,,,,,,,,,,,,,,,,,,,,,,,,,,,,,,,,,,,,,,,,,,,,,,,,,,,,,,,,,,,,,,,,,,,,,,,,,,,,,,,,59V09D,train_y,blue_star,bottom_left,2025-04-07_15h11.24.813,HideSeek_v1,2022.2.5,59.76103951061015,
,,,,,,,,,,,,,,,0,0,0,0,6,0,6,0,,,,,,,,,,,,,,,,,,,,,,,,,,,,,,,conditions/schedules/train_y_first/blue_star_00/bottom_left/instructions/Slide7.png,conditions/schedules/train_y_first/blue_star_00/bottom_left/instructions/Audio7.wav,1993.8555284000468,1993.8569746202322,7,"[6.962562799919397, 18.33194059995003, 16.658281000098214, 19.10554170003161, 4.252090699970722, 4.453375899931416, 4.752920999890193]","[0.0002965000458061695, 0.00020759995095431805, 0.014313000021502376, 0.03143789991736412, 0.04953740001656115, 0.0489071998745203, 4.752928399946541]",0,,,,,,,,,,,,,,,,,,,,,,,,,,,,,,,,,,,,,,,,,,,,,,,,,,,,,,,,,,,,,,,,,,,,,,,,,,,,,,,,,,,,,,,,,,,,,,,,,,,,,,,,,,,,,,,,,,,,,,,,,,,,59V09D,train_y,blue_star,bottom_left,2025-04-07_15h11.24.813,HideSeek_v1,2022.2.5,59.76103951061015,
,,,,,,,,,,,,,,,0,0,0,0,7,0,7,0,,,,,,,,,,,,,,,,,,,,,,,,,,,,,,,conditions/schedules/train_y_first/blue_star_00/bottom_left/instructions/Slide8.png,conditions/schedules/train_y_first/blue_star_00/bottom_left/instructions/Audio8.wav,1998.6614670001436,1998.6608805201015,8,"[6.962562799919397, 18.33194059995003, 16.658281000098214, 19.10554170003161, 4.252090699970722, 4.453375899931416, 4.752920999890193, 11.573006800143048]","[0.0002965000458061695, 0.00020759995095431805, 0.014313000021502376, 0.03143789991736412, 0.04953740001656115, 0.0489071998745203, 0.0468745999969542, 11.573013399960473]",0,,,,,,,,,,,,,,,,,,,,,,,,,,,,,,,,,,,,,,,,,,,,,,,,,,,,,,,,,,,,,,,,,,,,,,,,,,,,,,,,,,,,,,,,,,,,,,,,,,,,,,,,,,,,,,,,,,,,,,,,,,,,59V09D,train_y,blue_star,bottom_left,2025-04-07_15h11.24.813,HideSeek_v1,2022.2.5,59.76103951061015,
,,,,,,,,,,,,,,,0,0,0,0,8,0,8,0,,,,,,,,,,,,,,,,,,,,,,,,,,,,,,,conditions/schedules/train_y_first/blue_star_00/bottom_left/instructions/Slide9.png,conditions/schedules/train_y_first/blue_star_00/bottom_left/instructions/Audio9.wav,2010.2992518001702,2010.2871880201621,9,"[6.962562799919397, 18.33194059995003, 16.658281000098214, 19.10554170003161, 4.252090699970722, 4.453375899931416, 4.752920999890193, 11.573006800143048, 6.0067997998557985]","[0.0002965000458061695, 0.00020759995095431805, 0.014313000021502376, 0.03143789991736412, 0.04953740001656115, 0.0489071998745203, 0.0468745999969542, 0.05223089992068708, 6.006806599907577]",0,,,,,,,,,,,,,,,,,,,,,,,,,,,,,,,,,,,,,,,,,,,,,,,,,,,,,,,,,,,,,,,,,,,,,,,,,,,,,,,,,,,,,,,,,,,,,,,,,,,,,,,,,,,,,,,,,,,,,,,,,,,,59V09D,train_y,blue_star,bottom_left,2025-04-07_15h11.24.813,HideSeek_v1,2022.2.5,59.76103951061015,
,,,,,,,,,,,,,,,0,0,0,0,9,0,9,0,,,,,,,,,,,,,,,,,,,,,,,,,,,,,,,conditions/schedules/train_y_first/blue_star_00/bottom_left/instructions/Slide10.png,conditions/schedules/train_y_first/blue_star_00/bottom_left/instructions/Audio10.wav,2016.352159400005,2016.3421483401441,10,"[6.962562799919397, 18.33194059995003, 16.658281000098214, 19.10554170003161, 4.252090699970722, 4.453375899931416, 4.752920999890193, 11.573006800143048, 6.0067997998557985, 6.7095627000089735]","[0.0002965000458061695, 0.00020759995095431805, 0.014313000021502376, 0.03143789991736412, 0.04953740001656115, 0.0489071998745203, 0.0468745999969542, 0.05223089992068708, 0.05388899985700846, 6.70957009983249]",0,,,,,,,,,,,,,,,,,,,,,,,,,,,,,,,,,,,,,,,,,,,,,,,,,,,,,,,,,,,,,,,,,,,,,,,,,,,,,,,,,,,,,,,,,,,,,,,,,,,,,,,,,,,,,,,,,,,,,,,,,,,,59V09D,train_y,blue_star,bottom_left,2025-04-07_15h11.24.813,HideSeek_v1,2022.2.5,59.76103951061015,
,,,,,,,,,,,,,,,0,0,0,0,10,0,10,0,,,,,,,,,,,,,,,,,,,,,,,,,,,,,,,conditions/schedules/train_y_first/blue_star_00/bottom_left/instructions/Slide11.png,conditions/schedules/train_y_first/blue_star_00/bottom_left/instructions/Audio11.wav,2023.1179037999827,2023.1146537201478,11,"[6.962562799919397, 18.33194059995003, 16.658281000098214, 19.10554170003161, 4.252090699970722, 4.453375899931416, 4.752920999890193, 11.573006800143048, 6.0067997998557985, 6.7095627000089735, 10.285548199899495]","[0.0002965000458061695, 0.00020759995095431805, 0.014313000021502376, 0.03143789991736412, 0.04953740001656115, 0.0489071998745203, 0.0468745999969542, 0.05223089992068708, 0.05388899985700846, 0.07745589991100132, 10.285555499838665]",0,,,,,,,,,,,,,,,,,,,,,,,,,,,,,,,,,,,,,,,,,,,,,,,,,,,,,,,,,,,,,,,,,,,,,,,,,,,,,,,,,,,,,,,,,,,,,,,,,,,,,,,,,,,,,,,,,,,,,,,,,,,,59V09D,train_y,blue_star,bottom_left,2025-04-07_15h11.24.813,HideSeek_v1,2022.2.5,59.76103951061015,
,,,,,,,,,,,,,,,0,0,0,0,11,0,11,0,,,,,,,,,,,,,,,,,,,,,,,,,,,,,,,conditions/schedules/train_y_first/blue_star_00/bottom_left/instructions/Slide12.png,conditions/schedules/train_y_first/blue_star_00/bottom_left/instructions/Audio12.wav,2033.4733574001584,2033.4731230001198,12,"[6.962562799919397, 18.33194059995003, 16.658281000098214, 19.10554170003161, 4.252090699970722, 4.453375899931416, 4.752920999890193, 11.573006800143048, 6.0067997998557985, 6.7095627000089735, 10.285548199899495, 13.875798099907115]","[0.0002965000458061695, 0.00020759995095431805, 0.014313000021502376, 0.03143789991736412, 0.04953740001656115, 0.0489071998745203, 0.0468745999969542, 0.05223089992068708, 0.05388899985700846, 0.07745589991100132, 0.08029769989661872, 13.875805699964985]",0,,,,,,,,,,,,,,,,,,,,,,,,,,,,,,,,,,,,,,,,,,,,,,,,,,,,,,,,,,,,,,,,,,,,,,,,,,,,,,,,,,,,,,,,,,,,,,,,,,,,,,,,,,,,,,,,,,,,,,,,,,,,59V09D,train_y,blue_star,bottom_left,2025-04-07_15h11.24.813,HideSeek_v1,2022.2.5,59.76103951061015,
1,0,3,0,8,0,5,66,2,instr_dim1_1,,,,,,0,0,0,0,,,,,0,0,0,0,,,,,,,,,,,,,,,,,,,,,,,,,,,,,,,,,,,,,stimuli/alien_stimuli/66.png,conditions/schedules/train_y_first/blue_star_00/bottom_left/inputInstr_1.xlsx,stimuli/alien_stimuli/66.png,2047.4505171000492,2047.4505171000492,2047.4505171000492,2047.4505171000492,2047.451571160159,return,9.398744899779558,"[-0.16, -0.08, 0, 0.08, 0.16, 0.24, 0.32, 0.4, 0.48, 0.56]","[-0.4, -0.32, -0.24, -0.16, -0.08, 0, 0.08, 0.16, 0.24, 0.32]",8,3,0,0,0.4,0.0,2057.003850700101,2057.003850700101,2057.003850700101,2057.003850700101,2057.003850700101,2057.003850700101,2057.003850700101,2056.99261394022,11.327142999973148,return,11.181090799858794,stimuli/alien_stimuli/66.png,66,0,1,,,,,,,,,,,,,,,,,,,,,,,,,,,,,,,,,,,,,,,,,,,,,,,,,,,,,,,,,,,,,,,,,,,,,,,,,,,,,,,,,,,,,,,,,59V09D,train_y,blue_star,bottom_left,2025-04-07_15h11.24.813,HideSeek_v1,2022.2.5,59.76103951061015,
,,,,,,,,,,,30,,,,0,0,0,0,,,,,,,,,,,,,,,,,,,,,,,,,,,,,,,,,,,,,,,,,,,,,,,,,,,,,,,,,,,,,,,,,,,,,,,,,,,,,,21,0.7,0,0,99,1,30,0,conditions/schedules/train_y_first/blue_star_00/bottom_left/inputTrain_1.1.xlsx,99,1,1,1,0,,,,,,,,,,,,,,,,,,,,,,,,,,,,,,,,,,,,,,,,,,,,,,,,,,,,,,,,,,,,,,,,,,,,,,,,,,,59V09D,train_y,blue_star,bottom_left,2025-04-07_15h11.24.813,HideSeek_v1,2022.2.5,59.76103951061015,
,,,,,,,,,,,,,,,1,0,1,0,0,0,0,0,,,,,,,,,,,,,,,,,,,,,,,,,,,,,,,conditions/schedules/train_y_first/blue_star_00/bottom_left/instructions/Slide13.png,conditions/schedules/train_y_first/blue_star_00/bottom_left/instructions/Audio13.wav,2068.3453706,2068.3352988201427,13,"[6.962562799919397, 18.33194059995003, 16.658281000098214, 19.10554170003161, 4.252090699970722, 4.453375899931416, 4.752920999890193, 11.573006800143048, 6.0067997998557985, 6.7095627000089735, 10.285548199899495, 13.875798099907115, 23.50916469981894]","[0.0002965000458061695, 0.00020759995095431805, 0.014313000021502376, 0.03143789991736412, 0.04953740001656115, 0.0489071998745203, 0.0468745999969542, 0.05223089992068708, 0.05388899985700846, 0.07745589991100132, 0.08029769989661872, 13.875805699964985, 23.509173600003123]",0,,,,,,,,,,,,,,,,,,,,,,,,,,,,,,,,,,,,,,,,,,,,,,,,,,,,,,,,,,,,,,,,,,,,,,,,,,,,,,,,,,,,,,,,,,,,,,,,,,,,,,,,,,,,,,,,,,,,,,,,,,,,59V09D,train_y,blue_star,bottom_left,2025-04-07_15h11.24.813,HideSeek_v1,2022.2.5,59.76103951061015,
,,,,,,,,,,,,,,,1,0,1,0,1,0,1,0,,,,,,,,,,,,,,,,,,,,,,,,,,,,,,,conditions/schedules/train_y_first/blue_star_00/bottom_left/instructions/Slide14.png,conditions/schedules/train_y_first/blue_star_00/bottom_left/instructions/Audio14.wav,2091.927029500017,2091.9215495000826,14,"[6.962562799919397, 18.33194059995003, 16.658281000098214, 19.10554170003161, 4.252090699970722, 4.453375899931416, 4.752920999890193, 11.573006800143048, 6.0067997998557985, 6.7095627000089735, 10.285548199899495, 13.875798099907115, 23.50916469981894, 16.071983100147918]","[0.0002965000458061695, 0.00020759995095431805, 0.014313000021502376, 0.03143789991736412, 0.04953740001656115, 0.0489071998745203, 0.0468745999969542, 0.05223089992068708, 0.05388899985700846, 0.07745589991100132, 0.08029769989661872, 13.875805699964985, 0.0002188000362366438, 16.07199009996839]",0,,,,,,,,,,,,,,,,,,,,,,,,,,,,,,,,,,,,,,,,,,,,,,,,,,,,,,,,,,,,,,,,,,,,,,,,,,,,,,,,,,,,,,,,,,,,,,,,,,,,,,,,,,,,,,,,,,,,,,,,,,,,59V09D,train_y,blue_star,bottom_left,2025-04-07_15h11.24.813,HideSeek_v1,2022.2.5,59.76103951061015,
2,2,3,2,3,0,0,61,2,instr_dim1_1,,,,,,1,0,1,0,,,,,0,0,0,0,,,,,,,,,,,,,,,,,,,,,,,,,,,,,,,,,,,,,stimuli/alien_stimuli/61.png,conditions/schedules/train_y_first/blue_star_00/bottom_left/inputInstr_1.xlsx,stimuli/alien_stimuli/61.png,2108.0981352000963,2108.0981352000963,2108.0981352000963,2108.0981352000963,2108.101841560262,return,3.8989763997960836,"[-0.16, -0.08, 0, 0.08, 0.16, 0.24, 0.32, 0.4, 0.48, 0.56]","[-0.4, -0.32, -0.24, -0.16, -0.08, 0, 0.08, 0.16, 0.24, 0.32]",3,3,2,2,0.0,0.0,2112.145377300214,2112.145377300214,2112.145377300214,2112.145377300214,2112.145377300214,2112.145377300214,2112.145377300214,2112.1385108401996,11.360535700106993,return,11.213026700075716,stimuli/alien_stimuli/61.png,61,2,2,,,,,,,,,,,,,,,,,,,,,,,,,,,,,,,,,,,,,,,,,,,,,,,,,,,,,,,,,,,,,,,,,,,,,,,,,,,,,,,,,,,,,,,,,59V09D,train_y,blue_star,bottom_left,2025-04-07_15h11.24.813,HideSeek_v1,2022.2.5,59.76103951061015,
,,,,,,,,,,,30,,,,1,0,1,0,,,,,,,,,,,,,,,,,,,,,,,,,,,,,,,,,,,,,,,,,,,,,,,,,,,,,,,,,,,,,,,,,,,,,,,,,,,,,,21,0.7,0,0,99,1,30,0,conditions/schedules/train_y_first/blue_star_00/bottom_left/inputTrain_1.1.xlsx,99,1,1,1,0,,,,,,,,,,,,,,,,,,,,,,,,,,,,,,,,,,,,,,,,,,,,,,,,,,,,,,,,,,,,,,,,,,,,,,,,,,,59V09D,train_y,blue_star,bottom_left,2025-04-07_15h11.24.813,HideSeek_v1,2022.2.5,59.76103951061015,
,,,,,,,,,,,,,,,2,0,2,0,0,0,0,0,,,,,,,,,,,,,,,,,,,,,,,,,,,,,,,conditions/schedules/train_y_first/blue_star_00/bottom_left/instructions/Slide15.png,conditions/schedules/train_y_first/blue_star_00/bottom_left/instructions/Audio15.wav,2123.532805000199,2123.531188300345,15,"[6.962562799919397, 18.33194059995003, 16.658281000098214, 19.10554170003161, 4.252090699970722, 4.453375899931416, 4.752920999890193, 11.573006800143048, 6.0067997998557985, 6.7095627000089735, 10.285548199899495, 13.875798099907115, 23.50916469981894, 16.071983100147918, 42.314950900152326]","[0.0002965000458061695, 0.00020759995095431805, 0.014313000021502376, 0.03143789991736412, 0.04953740001656115, 0.0489071998745203, 0.0468745999969542, 0.05223089992068708, 0.05388899985700846, 0.07745589991100132, 0.08029769989661872, 13.875805699964985, 0.0002188000362366438, 16.07199009996839, 42.31495940010063]",0,,,,,,,,,,,,,,,,,,,,,,,,,,,,,,,,,,,,,,,,,,,,,,,,,,,,,,,,,,,,,,,,,,,,,,,,,,,,,,,,,,,,,,,,,,,,,,,,,,,,,,,,,,,,,,,,,,,,,,,,,,,,59V09D,train_y,blue_star,bottom_left,2025-04-07_15h11.24.813,HideSeek_v1,2022.2.5,59.76103951061015,
,,,,,,,,,,,,,,,2,0,2,0,1,0,1,0,,,,,,,,,,,,,,,,,,,,,,,,,,,,,,,conditions/schedules/train_y_first/blue_star_00/bottom_left/instructions/Slide16.png,conditions/schedules/train_y_first/blue_star_00/bottom_left/instructions/Audio16.wav,2165.9165418001357,2165.916564600193,16,"[6.962562799919397, 18.33194059995003, 16.658281000098214, 19.10554170003161, 4.252090699970722, 4.453375899931416, 4.752920999890193, 11.573006800143048, 6.0067997998557985, 6.7095627000089735, 10.285548199899495, 13.875798099907115, 23.50916469981894, 16.071983100147918, 42.314950900152326, 23.000147399958223]","[0.0002965000458061695, 0.00020759995095431805, 0.014313000021502376, 0.03143789991736412, 0.04953740001656115, 0.0489071998745203, 0.0468745999969542, 0.05223089992068708, 0.05388899985700846, 0.07745589991100132, 0.08029769989661872, 13.875805699964985, 0.0002188000362366438, 16.07199009996839, 0.014351099962368608, 23.000154699897394]",0,,,,,,,,,,,,,,,,,,,,,,,,,,,,,,,,,,,,,,,,,,,,,,,,,,,,,,,,,,,,,,,,,,,,,,,,,,,,,,,,,,,,,,,,,,,,,,,,,,,,,,,,,,,,,,,,,,,,,,,,,,,,59V09D,train_y,blue_star,bottom_left,2025-04-07_15h11.24.813,HideSeek_v1,2022.2.5,59.76103951061015,
,0,0,0,4,0,4,65,,train_dim1_1,1,30,,,,2,0,2,0,,,,,,,,,0,0,0,0,0,0,0,0,0,0,0,0,,,,,,,,,,,,,,,,,,,,,,,,,stimuli/alien_stimuli/65.png,,,,,,,,,,,,,,,,,,,,,,,,,,,,,,,,,,,,,,,30,,,,,,,,2189.019925700035,2189.019925700035,2189.019925700035,2189.019925700035,2189.019925700035,right,2.2125166000332683,0,0,0,99,-0.08,-0.4,right,2.1175221998710185,,,,,,,,,,,,,,,,,,,,,,,,,,,,,,,,,,,,,,,,,,,,,,,,,,,,,,,,,,,,59V09D,train_y,blue_star,bottom_left,2025-04-07_15h11.24.813,HideSeek_v1,2022.2.5,59.76103951061015,
,0,0,0,4,0,4,65,,train_dim1_1,1,30,,,,2,0,2,0,,,,,,,,,0,0,0,0,0,0,0,0,1,0,1,0,,,,,,,,,,,,,,,,,,,,,,,,,,,,,,,,,,,,,,,,,,,,,,,,,,,,,,,,,,,,,,,,30,,,,,,,,2191.217592100147,2191.217592100147,2191.217592100147,2191.217592100147,2191.217592100147,right,0.993482599966228,0,0,0,99,0.0,-0.4,right,0.9058280999306589,,,,,,,,,,,,,,,,,,,,,,,,,,,,,,,,,,,,,,,,,,,,,,,,,,,,,,,,,,,,59V09D,train_y,blue_star,bottom_left,2025-04-07_15h11.24.813,HideSeek_v1,2022.2.5,59.76103951061015,
,0,0,0,4,0,4,65,,train_dim1_1,1,30,,,,2,0,2,0,,,,,,,,,0,0,0,0,0,0,0,0,2,0,2,0,,,,,,,,,,,,,,,,,,,,,,,,,,,,,,,,,,,,,,,,,,,,,,,,,,,,,,,,,,,,,,,,30,,,,,,,,2192.217164100148,2192.217164100148,2192.217164100148,2192.217164100148,2192.217164100148,up,1.1602612000424415,0,0,0,99,0.0,-0.32,up,1.0811141000594944,,,,,,,,,,,,,,,,,,,,,,,,,,,,,,,,,,,,,,,,,,,,,,,,,,,,,,,,,,,,59V09D,train_y,blue_star,bottom_left,2025-04-07_15h11.24.813,HideSeek_v1,2022.2.5,59.76103951061015,
,0,0,0,4,0,4,65,,train_dim1_1,1,30,,,,2,0,2,0,,,,,,,,,0,0,0,0,0,0,0,0,3,0,3,0,,,,,,,,,,,,,,,,,,,,,,,,,,,,,,,,,,,,,,,,,,,,,,,,,,,,,,,,,,,,,,,,30,,,,,,,,2193.385045800125,2193.385045800125,2193.385045800125,2193.385045800125,2193.385045800125,right,2.011135400040075,0,0,0,99,0.08,-0.32,right,1.9333986998535693,,,,,,,,,,,,,,,,,,,,,,,,,,,,,,,,,,,,,,,,,,,,,,,,,,,,,,,,,,,,59V09D,train_y,blue_star,bottom_left,2025-04-07_15h11.24.813,HideSeek_v1,2022.2.5,59.76103951061015,
,0,0,0,4,0,4,65,,train_dim1_1,1,30,,,,2,0,2,0,,,,,,,,,0,0,0,0,0,0,0,0,4,0,4,0,,,,,,,,,,,,,,,,,,,,,,,,,,,,,,,,,,,,,,,,,,,,,,,,,,,,,,,,,,,,,,,,30,,,,,,,,2195.403268400114,2195.403268400114,2195.403268400114,2195.403268400114,2195.403268400114,up,0.9441515000071377,0,0,0,99,0.08,-0.24,up,0.8620124999433756,,,,,,,,,,,,,,,,,,,,,,,,,,,,,,,,,,,,,,,,,,,,,,,,,,,,,,,,,,,,59V09D,train_y,blue_star,bottom_left,2025-04-07_15h11.24.813,HideSeek_v1,2022.2.5,59.76103951061015,
,0,0,0,4,0,4,65,,train_dim1_1,1,30,,,,2,0,2,0,,,,,,,,,0,0,0,0,0,0,0,0,5,0,5,0,,,,,,,,,,,,,,,,,,,,,,,,,,,,,,,,,,,,,,,,,,,,,,,,,,,,,,,,,,,,,,,,30,,,,,,,,2196.353949500015,2196.353949500015,2196.353949500015,2196.353949500015,2196.353949500015,left,2.077819500118494,0,0,0,99,0.0,-0.24,left,2.0023248998913914,,,,,,,,,,,,,,,,,,,,,,,,,,,,,,,,,,,,,,,,,,,,,,,,,,,,,,,,,,,,59V09D,train_y,blue_star,bottom_left,2025-04-07_15h11.24.813,HideSeek_v1,2022.2.5,59.76103951061015,
,0,0,0,4,0,4,65,,train_dim1_1,1,30,,,,2,0,2,0,,,,,,,,,0,0,0,0,0,0,0,0,6,0,6,0,,,,,,,,,,,,,,,,,,,,,,,,,,,,,,,,,,,,,,,,,,,,,,,,,,,,,,,,,,,,,,,,30,,,,,,,,2198.438716400182,2198.438716400182,2198.438716400182,2198.438716400182,2198.438716400182,left,0.29352509998716414,0,0,0,99,-0.08,-0.24,left,0.22119309986010194,,,,,,,,,,,,,,,,,,,,,,,,,,,,,,,,,,,,,,,,,,,,,,,,,,,,,,,,,,,,59V09D,train_y,blue_star,bottom_left,2025-04-07_15h11.24.813,HideSeek_v1,2022.2.5,59.76103951061015,
,0,0,0,4,0,4,65,,train_dim1_1,1,30,,,,2,0,2,0,,,,,,,,,0,0,0,0,0,0,0,0,7,0,7,0,,,,,,,,,,,,,,,,,,,,,,,,,,,,,,,,,,,,,,,,,,,,,,,,,,,,,,,,,,,,,,,,30,,,,,,,,2198.7402259001974,2198.7402259001974,2198.7402259001974,2198.7402259001974,2198.7402259001974,down,1.6109718999359757,0,0,0,99,-0.08,-0.32,down,1.5330488998442888,,,,,,,,,,,,,,,,,,,,,,,,,,,,,,,,,,,,,,,,,,,,,,,,,,,,,,,,,,,,59V09D,train_y,blue_star,bottom_left,2025-04-07_15h11.24.813,HideSeek_v1,2022.2.5,59.76103951061015,
,0,0,0,4,0,4,65,,train_dim1_1,1,30,,,,2,0,2,0,,,,,,,,,0,0,0,0,0,0,0,0,8,0,8,0,,,,,,,,,,,,,,,,,,,,,,,,,,,,,,,,,,,,,,,,,,,,,,,,,,,,,,,,,,,,,,,,30,,,,,,,,2200.3576096000616,2200.3576096000616,2200.3576096000616,2200.3576096000616,2200.3576096000616,return,1.7111893000546843,0,0,0,0,-0.08,-0.32,return,1.634423099923879,1,1,-0.08,-0.32,,,,,,,,,,,,,,,,,,,,,,,,,,,,,,,,,,,,,,,,,,,,,,,,,,,,,,,,59V09D,train_y,blue_star,bottom_left,2025-04-07_15h11.24.813,HideSeek_v1,2022.2.5,59.76103951061015,
,3,2,3,7,0,5,66,,train_dim1_1,2,30,,,,2,0,2,0,,,,,,,,,0,0,0,0,0,1,1,1,0,0,0,0,,,,,,,,,,,,,,,,,,,,,,,,,stimuli/alien_stimuli/66.png,,,,,,,,,,,,,,,,,,,,,,,,,,,,,stimuli/alien_stimuli/65.png,65,0,3,,,,,,,30,,,,,,,,2219.6322548000608,2219.6322548000608,2219.6322548000608,2219.6322548000608,2219.6322548000608,up,1.3387406000401825,0,0,0,99,0.08,-0.15999999999999998,up,1.2466332998592407,,,,,2218.059916900005,2219.6322548000608,-0.16,-0.08,0.32,0.0,-0.24000000000000002,-0.16,-0.16,-0.16,-0.08,2203.6429014999885,2203.6429014999885,2203.6429014999885,2203.6429014999885,2203.6429014999885,2203.6429014999885,2203.6429014999885,2203.6429014999885,2203.6311645602573,14.530933199916035,return,14.393237199867144,,,,,,,,,,,,,,,,,,,,,,,,,,,,,,,,,59V09D,train_y,blue_star,bottom_left,2025-04-07_15h11.24.813,HideSeek_v1,2022.2.5,59.76103951061015,
,3,2,3,7,0,5,66,,train_dim1_1,2,30,,,,2,0,2,0,,,,,,,,,0,0,0,0,0,1,1,1,1,0,1,0,,,,,,,,,,,,,,,,,,,,,,,,,,,,,,,,,,,,,,,,,,,,,,,,,,,,,,,,,,,,,,,,30,,,,,,,,2220.9614916001447,2220.9614916001447,2220.9614916001447,2220.9614916001447,2220.9614916001447,up,0.34281620010733604,0,0,0,99,0.08,-0.07999999999999997,up,0.2672894997522235,,,,,,,,,,,,,,,,,,,,,,,,,,,,,,,,,,,,,,,,,,,,,,,,,,,,,,,,,,,,59V09D,train_y,blue_star,bottom_left,2025-04-07_15h11.24.813,HideSeek_v1,2022.2.5,59.76103951061015,
,3,2,3,7,0,5,66,,train_dim1_1,2,30,,,,2,0,2,0,,,,,,,,,0,0,0,0,0,1,1,1,2,0,2,0,,,,,,,,,,,,,,,,,,,,,,,,,,,,,,,,,,,,,,,,,,,,,,,,,,,,,,,,,,,,,,,,30,,,,,,,,2221.308735900093,2221.308735900093,2221.308735900093,2221.308735900093,2221.308735900093,right,1.1939531001262367,0,0,0,99,0.16,-0.07999999999999997,right,1.1147185997106135,,,,,,,,,,,,,,,,,,,,,,,,,,,,,,,,,,,,,,,,,,,,,,,,,,,,,,,,,,,,59V09D,train_y,blue_star,bottom_left,2025-04-07_15h11.24.813,HideSeek_v1,2022.2.5,59.76103951061015,
,3,2,3,7,0,5,66,,train_dim1_1,2,30,,,,2,0,2,0,,,,,,,,,0,0,0,0,0,1,1,1,3,0,3,0,,,,,,,,,,,,,,,,,,,,,,,,,,,,,,,,,,,,,,,,,,,,,,,,,,,,,,,,,,,,,,,,30,,,,,,,,2222.510105600115,2222.510105600115,2222.510105600115,2222.510105600115,2222.510105600115,up,0.6759699999820441,0,0,0,99,0.16,2.7755575615628914e-17,up,0.6027794999536127,,,,,,,,,,,,,,,,,,,,,,,,,,,,,,,,,,,,,,,,,,,,,,,,,,,,,,,,,,,,59V09D,train_y,blue_star,bottom_left,2025-04-07_15h11.24.813,HideSeek_v1,2022.2.5,59.76103951061015,
,3,2,3,7,0,5,66,,train_dim1_1,2,30,,,,2,0,2,0,,,,,,,,,0,0,0,0,0,1,1,1,4,0,4,0,,,,,,,,,,,,,,,,,,,,,,,,,,,,,,,,,,,,,,,,,,,,,,,,,,,,,,,,,,,,,,,,30,,,,,,,,2223.194022900192,2223.194022900192,2223.194022900192,2223.194022900192,2223.194022900192,right,1.3778612001333386,0,0,0,99,0.24,2.7755575615628914e-17,right,1.2912132998462766,,,,,,,,,,,,,,,,,,,,,,,,,,,,,,,,,,,,,,,,,,,,,,,,,,,,,,,,,,,,59V09D,train_y,blue_star,bottom_left,2025-04-07_15h11.24.813,HideSeek_v1,2022.2.5,59.76103951061015,
,3,2,3,7,0,5,66,,train_dim1_1,2,30,,,,2,0,2,0,,,,,,,,,0,0,0,0,0,1,1,1,5,0,5,0,,,,,,,,,,,,,,,,,,,,,,,,,,,,,,,,,,,,,,,,,,,,,,,,,,,,,,,,,,,,,,,,30,,,,,,,,2224.5780305000953,2224.5780305000953,2224.5780305000953,2224.5780305000953,2224.5780305000953,right,0.2429182999767363,0,0,0,99,0.32,2.7755575615628914e-17,right,0.15950059983879328,,,,,,,,,,,,,,,,,,,,,,,,,,,,,,,,,,,,,,,,,,,,,,,,,,,,,,,,,,,,59V09D,train_y,blue_star,bottom_left,2025-04-07_15h11.24.813,HideSeek_v1,2022.2.5,59.76103951061015,
,3,2,3,7,0,5,66,,train_dim1_1,2,30,,,,2,0,2,0,,,,,,,,,0,0,0,0,0,1,1,1,6,0,6,0,,,,,,,,,,,,,,,,,,,,,,,,,,,,,,,,,,,,,,,,,,,,,,,,,,,,,,,,,,,,,,,,30,,,,,,,,2224.8285694001243,2224.8285694001243,2224.8285694001243,2224.8285694001243,2224.8285694001243,left,1.2607995001599193,0,0,0,99,0.24,2.7755575615628914e-17,left,1.1735574000049382,,,,,,,,,,,,,,,,,,,,,,,,,,,,,,,,,,,,,,,,,,,,,,,,,,,,,,,,,,,,59V09D,train_y,blue_star,bottom_left,2025-04-07_15h11.24.813,HideSeek_v1,2022.2.5,59.76103951061015,
,3,2,3,7,0,5,66,,train_dim1_1,2,30,,,,2,0,2,0,,,,,,,,,0,0,0,0,0,1,1,1,7,0,7,0,,,,,,,,,,,,,,,,,,,,,,,,,,,,,,,,,,,,,,,,,,,,,,,,,,,,,,,,,,,,,,,,30,,,,,,,,2226.096760299988,2226.096760299988,2226.096760299988,2226.096760299988,2226.096760299988,up,0.34316690010018647,0,0,0,99,0.24,0.08000000000000003,up,0.2608437999151647,,,,,,,,,,,,,,,,,,,,,,,,,,,,,,,,,,,,,,,,,,,,,,,,,,,,,,,,,,,,59V09D,train_y,blue_star,bottom_left,2025-04-07_15h11.24.813,HideSeek_v1,2022.2.5,59.76103951061015,
,3,2,3,7,0,5,66,,train_dim1_1,2,30,,,,2,0,2,0,,,,,,,,,0,0,0,0,0,1,1,1,8,0,8,0,,,,,,,,,,,,,,,,,,,,,,,,,,,,,,,,,,,,,,,,,,,,,,,,,,,,,,,,,,,,,,,,30,,,,,,,,2226.4462065000553,2226.4462065000553,2226.4462065000553,2226.4462065000553,2226.4462065000553,up,0.9607108999043703,0,0,0,99,0.24,0.16000000000000003,up,0.8873304999433458,,,,,,,,,,,,,,,,,,,,,,,,,,,,,,,,,,,,,,,,,,,,,,,,,,,,,,,,,,,,59V09D,train_y,blue_star,bottom_left,2025-04-07_15h11.24.813,HideSeek_v1,2022.2.5,59.76103951061015,
,3,2,3,7,0,5,66,,train_dim1_1,2,30,,,,2,0,2,0,,,,,,,,,0,0,0,0,0,1,1,1,9,0,9,0,,,,,,,,,,,,,,,,,,,,,,,,,,,,,,,,,,,,,,,,,,,,,,,,,,,,,,,,,,,,,,,,30,,,,,,,,2227.418594600167,2227.418594600167,2227.418594600167,2227.418594600167,2227.418594600167,left,0.39262249995954335,0,0,0,99,0.15999999999999998,0.16000000000000003,left,0.30156289995647967,,,,,,,,,,,,,,,,,,,,,,,,,,,,,,,,,,,,,,,,,,,,,,,,,,,,,,,,,,,,59V09D,train_y,blue_star,bottom_left,2025-04-07_15h11.24.813,HideSeek_v1,2022.2.5,59.76103951061015,
,3,2,3,7,0,5,66,,train_dim1_1,2,30,,,,2,0,2,0,,,,,,,,,0,0,0,0,0,1,1,1,10,0,10,0,,,,,,,,,,,,,,,,,,,,,,,,,,,,,,,,,,,,,,,,,,,,,,,,,,,,,,,,,,,,,,,,30,,,,,,,,2227.8143498001155,2227.8143498001155,2227.8143498001155,2227.8143498001155,2227.8143498001155,down,1.5613226999994367,0,0,0,99,0.15999999999999998,0.08000000000000003,down,1.4743025000207126,,,,,,,,,,,,,,,,,,,,,,,,,,,,,,,,,,,,,,,,,,,,,,,,,,,,,,,,,,,,59V09D,train_y,blue_star,bottom_left,2025-04-07_15h11.24.813,HideSeek_v1,2022.2.5,59.76103951061015,
,3,2,3,7,0,5,66,,train_dim1_1,2,30,,,,2,0,2,0,,,,,,,,,0,0,0,0,0,1,1,1,11,0,11,0,,,,,,,,,,,,,,,,,,,,,,,,,,,,,,,,,,,,,,,,,,,,,,,,,,,,,,,,,,,,,,,,30,,,,,,,,2229.3820845000446,2229.3820845000446,2229.3820845000446,2229.3820845000446,2229.3820845000446,right,0.36011090013198555,0,0,0,99,0.24,0.08000000000000003,right,0.28586639999412,,,,,,,,,,,,,,,,,,,,,,,,,,,,,,,,,,,,,,,,,,,,,,,,,,,,,,,,,,,,59V09D,train_y,blue_star,bottom_left,2025-04-07_15h11.24.813,HideSeek_v1,2022.2.5,59.76103951061015,
,3,2,3,7,0,5,66,,train_dim1_1,2,30,,,,2,0,2,0,,,,,,,,,0,0,0,0,0,1,1,1,12,0,12,0,,,,,,,,,,,,,,,,,,,,,,,,,,,,,,,,,,,,,,,,,,,,,,,,,,,,,,,,,,,,,,,,30,,,,,,,,2229.7497475000564,2229.7497475000564,2229.7497475000564,2229.7497475000564,2229.7497475000564,right,0.7935017000418156,0,0,0,99,0.32,0.08000000000000003,right,0.71122289984487,,,,,,,,,,,,,,,,,,,,,,,,,,,,,,,,,,,,,,,,,,,,,,,,,,,,,,,,,,,,59V09D,train_y,blue_star,bottom_left,2025-04-07_15h11.24.813,HideSeek_v1,2022.2.5,59.76103951061015,
,3,2,3,7,0,5,66,,train_dim1_1,2,30,,,,2,0,2,0,,,,,,,,,0,0,0,0,0,1,1,1,13,0,13,0,,,,,,,,,,,,,,,,,,,,,,,,,,,,,,,,,,,,,,,,,,,,,,,,,,,,,,,,,,,,,,,,30,,,,,,,,2230.5490920001175,2230.5490920001175,2230.5490920001175,2230.5490920001175,2230.5490920001175,up,0.5431822000537068,0,0,0,99,0.32,0.16000000000000003,up,0.47248659981414676,,,,,,,,,,,,,,,,,,,,,,,,,,,,,,,,,,,,,,,,,,,,,,,,,,,,,,,,,,,,59V09D,train_y,blue_star,bottom_left,2025-04-07_15h11.24.813,HideSeek_v1,2022.2.5,59.76103951061015,
,3,2,3,7,0,5,66,,train_dim1_1,2,30,,,,2,0,2,0,,,,,,,,,0,0,0,0,0,1,1,1,14,0,14,0,,,,,,,,,,,,,,,,,,,,,,,,,,,,,,,,,,,,,,,,,,,,,,,,,,,,,,,,,,,,,,,,30,,,,,,,,2231.09962480003,2231.09962480003,2231.09962480003,2231.09962480003,2231.09962480003,left,0.6436727000400424,0,0,0,99,0.24,0.16000000000000003,left,0.5559024999383837,,,,,,,,,,,,,,,,,,,,,,,,,,,,,,,,,,,,,,,,,,,,,,,,,,,,,,,,,,,,59V09D,train_y,blue_star,bottom_left,2025-04-07_15h11.24.813,HideSeek_v1,2022.2.5,59.76103951061015,
,3,2,3,7,0,5,66,,train_dim1_1,2,30,,,,2,0,2,0,,,,,,,,,0,0,0,0,0,1,1,1,15,0,15,0,,,,,,,,,,,,,,,,,,,,,,,,,,,,,,,,,,,,,,,,,,,,,,,,,,,,,,,,,,,,,,,,30,,,,,,,,2231.7510823002085,2231.7510823002085,2231.7510823002085,2231.7510823002085,2231.7510823002085,return,0.6767885000444949,0,0,0,0,0.24,0.16000000000000003,return,0.5943250998388976,6,3,0.24,0.16000000000000003,,,,,,,,,,,,,,,,,,,,,,,,,,,,,,,,,,,,,,,,,,,,,,,,,,,,,,,,59V09D,train_y,blue_star,bottom_left,2025-04-07_15h11.24.813,HideSeek_v1,2022.2.5,59.76103951061015,
,2,3,2,6,0,3,64,,train_dim1_1,3,30,,,,2,0,2,0,,,,,,,,,0,0,0,0,0,2,2,2,0,0,0,0,,,,,,,,,,,,,,,,,,,,,,,,,stimuli/alien_stimuli/64.png,,,,,,,,,,,,,,,,,,,,,,,,,,,,,stimuli/alien_stimuli/66.png,66,3,4,,,,,,,30,,,,,,,,2240.6141495001502,2240.6141495001502,2240.6141495001502,2240.6141495001502,2240.6141495001502,right,4.475208500167355,0,0,0,99,0.08,-0.16,right,4.396560499910265,,,,,2239.0605464000255,2240.6141495001502,0.08,0.16,0.4,0.0,-0.039999999999999994,0.08,0.08,0.08,0.16,2233.996509600198,2233.996509600198,2233.996509600198,2233.996509600198,2233.996509600198,2233.996509600198,2233.996509600198,2233.996509600198,2233.9896474601,5.173062300076708,return,5.046863799681887,,,,,,,,,,,,,,,,,,,,,,,,,,,,,,,,,59V09D,train_y,blue_star,bottom_left,2025-04-07_15h11.24.813,HideSeek_v1,2022.2.5,59.76103951061015,
,2,3,2,6,0,3,64,,train_dim1_1,3,30,,,,2,0,2,0,,,,,,,,,0,0,0,0,0,2,2,2,1,0,1,0,,,,,,,,,,,,,,,,,,,,,,,,,,,,,,,,,,,,,,,,,,,,,,,,,,,,,,,,,,,,,,,,30,,,,,,,,2245.09565760009,2245.09565760009,2245.09565760009,2245.09565760009,2245.09565760009,right,0.7762877000495791,0,0,0,99,0.16,-0.16,right,0.6996351999696344,,,,,,,,,,,,,,,,,,,,,,,,,,,,,,,,,,,,,,,,,,,,,,,,,,,,,,,,,,,,59V09D,train_y,blue_star,bottom_left,2025-04-07_15h11.24.813,HideSeek_v1,2022.2.5,59.76103951061015,
,2,3,2,6,0,3,64,,train_dim1_1,3,30,,,,2,0,2,0,,,,,,,,,0,0,0,0,0,2,2,2,2,0,2,0,,,,,,,,,,,,,,,,,,,,,,,,,,,,,,,,,,,,,,,,,,,,,,,,,,,,,,,,,,,,,,,,30,,,,,,,,2245.8784539001063,2245.8784539001063,2245.8784539001063,2245.8784539001063,2245.8784539001063,down,1.6277197001036257,0,0,0,99,0.16,-0.24,down,1.5442608997691423,,,,,,,,,,,,,,,,,,,,,,,,,,,,,,,,,,,,,,,,,,,,,,,,,,,,,,,,,,,,59V09D,train_y,blue_star,bottom_left,2025-04-07_15h11.24.813,HideSeek_v1,2022.2.5,59.76103951061015,
,2,3,2,6,0,3,64,,train_dim1_1,3,30,,,,2,0,2,0,,,,,,,,,0,0,0,0,0,2,2,2,3,0,3,0,,,,,,,,,,,,,,,,,,,,,,,,,,,,,,,,,,,,,,,,,,,,,,,,,,,,,,,,,,,,,,,,30,,,,,,,,2247.5131863001734,2247.5131863001734,2247.5131863001734,2247.5131863001734,2247.5131863001734,left,0.3598047997802496,0,0,0,99,0.08,-0.24,left,0.27650610008277,,,,,,,,,,,,,,,,,,,,,,,,,,,,,,,,,,,,,,,,,,,,,,,,,,,,,,,,,,,,59V09D,train_y,blue_star,bottom_left,2025-04-07_15h11.24.813,HideSeek_v1,2022.2.5,59.76103951061015,
,2,3,2,6,0,3,64,,train_dim1_1,3,30,,,,2,0,2,0,,,,,,,,,0,0,0,0,0,2,2,2,4,0,4,0,,,,,,,,,,,,,,,,,,,,,,,,,,,,,,,,,,,,,,,,,,,,,,,,,,,,,,,,,,,,,,,,30,,,,,,,,2247.880208700197,2247.880208700197,2247.880208700197,2247.880208700197,2247.880208700197,left,0.3600071999244392,0,0,0,99,0.0,-0.24,left,0.27727119997143745,,,,,,,,,,,,,,,,,,,,,,,,,,,,,,,,,,,,,,,,,,,,,,,,,,,,,,,,,,,,59V09D,train_y,blue_star,bottom_left,2025-04-07_15h11.24.813,HideSeek_v1,2022.2.5,59.76103951061015,
,2,3,2,6,0,3,64,,train_dim1_1,3,30,,,,2,0,2,0,,,,,,,,,0,0,0,0,0,2,2,2,5,0,5,0,,,,,,,,,,,,,,,,,,,,,,,,,,,,,,,,,,,,,,,,,,,,,,,,,,,,,,,,,,,,,,,,30,,,,,,,,2248.248253100086,2248.248253100086,2248.248253100086,2248.248253100086,2248.248253100086,left,1.3273304000031203,0,0,0,99,-0.08,-0.24,left,1.245418699691072,,,,,,,,,,,,,,,,,,,,,,,,,,,,,,,,,,,,,,,,,,,,,,,,,,,,,,,,,,,,59V09D,train_y,blue_star,bottom_left,2025-04-07_15h11.24.813,HideSeek_v1,2022.2.5,59.76103951061015,
,2,3,2,6,0,3,64,,train_dim1_1,3,30,,,,2,0,2,0,,,,,,,,,0,0,0,0,0,2,2,2,6,0,6,0,,,,,,,,,,,,,,,,,,,,,,,,,,,,,,,,,,,,,,,,,,,,,,,,,,,,,,,,,,,,,,,,30,,,,,,,,2249.5805957000703,2249.5805957000703,2249.5805957000703,2249.5805957000703,2249.5805957000703,up,0.32675340003333986,0,0,0,99,-0.08,-0.15999999999999998,up,0.25337739987298846,,,,,,,,,,,,,,,,,,,,,,,,,,,,,,,,,,,,,,,,,,,,,,,,,,,,,,,,,,,,59V09D,train_y,blue_star,bottom_left,2025-04-07_15h11.24.813,HideSeek_v1,2022.2.5,59.76103951061015,
,2,3,2,6,0,3,64,,train_dim1_1,3,30,,,,2,0,2,0,,,,,,,,,0,0,0,0,0,2,2,2,7,0,7,0,,,,,,,,,,,,,,,,,,,,,,,,,,,,,,,,,,,,,,,,,,,,,,,,,,,,,,,,,,,,,,,,30,,,,,,,,2249.914953800151,2249.914953800151,2249.914953800151,2249.914953800151,2249.914953800151,left,0.9105724999681115,0,0,0,99,-0.16,-0.15999999999999998,left,0.8254992999136448,,,,,,,,,,,,,,,,,,,,,,,,,,,,,,,,,,,,,,,,,,,,,,,,,,,,,,,,,,,,59V09D,train_y,blue_star,bottom_left,2025-04-07_15h11.24.813,HideSeek_v1,2022.2.5,59.76103951061015,
,2,3,2,6,0,3,64,,train_dim1_1,3,30,,,,2,0,2,0,,,,,,,,,0,0,0,0,0,2,2,2,8,0,8,0,,,,,,,,,,,,,,,,,,,,,,,,,,,,,,,,,,,,,,,,,,,,,,,,,,,,,,,,,,,,,,,,30,,,,,,,,2250.833257100079,2250.833257100079,2250.833257100079,2250.833257100079,2250.833257100079,up,0.35947080003097653,0,0,0,99,-0.16,-0.07999999999999997,up,0.2867499999701977,,,,,,,,,,,,,,,,,,,,,,,,,,,,,,,,,,,,,,,,,,,,,,,,,,,,,,,,,,,,59V09D,train_y,blue_star,bottom_left,2025-04-07_15h11.24.813,HideSeek_v1,2022.2.5,59.76103951061015,
,2,3,2,6,0,3,64,,train_dim1_1,3,30,,,,2,0,2,0,,,,,,,,,0,0,0,0,0,2,2,2,9,0,9,0,,,,,,,,,,,,,,,,,,,,,,,,,,,,,,,,,,,,,,,,,,,,,,,,,,,,,,,,,,,,,,,,30,,,,,,,,2251.199033800047,2251.199033800047,2251.199033800047,2251.199033800047,2251.199033800047,up,0.2934854000341147,0,0,0,99,-0.16,2.7755575615628914e-17,up,0.22178509994409978,,,,,,,,,,,,,,,,,,,,,,,,,,,,,,,,,,,,,,,,,,,,,,,,,,,,,,,,,,,,59V09D,train_y,blue_star,bottom_left,2025-04-07_15h11.24.813,HideSeek_v1,2022.2.5,59.76103951061015,
,2,3,2,6,0,3,64,,train_dim1_1,3,30,,,,2,0,2,0,,,,,,,,,0,0,0,0,0,2,2,2,10,0,10,0,,,,,,,,,,,,,,,,,,,,,,,,,,,,,,,,,,,,,,,,,,,,,,,,,,,,,,,,,,,,,,,,30,,,,,,,,2251.4996418000665,2251.4996418000665,2251.4996418000665,2251.4996418000665,2251.4996418000665,up,0.25974220014177263,0,0,0,99,-0.16,0.08000000000000003,up,0.17381939990445971,,,,,,,,,,,,,,,,,,,,,,,,,,,,,,,,,,,,,,,,,,,,,,,,,,,,,,,,,,,,59V09D,train_y,blue_star,bottom_left,2025-04-07_15h11.24.813,HideSeek_v1,2022.2.5,59.76103951061015,
,2,3,2,6,0,3,64,,train_dim1_1,3,30,,,,2,0,2,0,,,,,,,,,0,0,0,0,0,2,2,2,11,0,11,0,,,,,,,,,,,,,,,,,,,,,,,,,,,,,,,,,,,,,,,,,,,,,,,,,,,,,,,,,,,,,,,,30,,,,,,,,2251.766786799999,2251.766786799999,2251.766786799999,2251.766786799999,2251.766786799999,right,1.0773406000807881,0,0,0,99,-0.08,0.08000000000000003,right,0.9903639999683946,,,,,,,,,,,,,,,,,,,,,,,,,,,,,,,,,,,,,,,,,,,,,,,,,,,,,,,,,,,,59V09D,train_y,blue_star,bottom_left,2025-04-07_15h11.24.813,HideSeek_v1,2022.2.5,59.76103951061015,
,2,3,2,6,0,3,64,,train_dim1_1,3,30,,,,2,0,2,0,,,,,,,,,0,0,0,0,0,2,2,2,12,0,12,0,,,,,,,,,,,,,,,,,,,,,,,,,,,,,,,,,,,,,,,,,,,,,,,,,,,,,,,,,,,,,,,,30,,,,,,,,2252.8507390001323,2252.8507390001323,2252.8507390001323,2252.8507390001323,2252.8507390001323,right,0.19273440004326403,0,0,0,99,0.0,0.08000000000000003,right,0.11679289978928864,,,,,,,,,,,,,,,,,,,,,,,,,,,,,,,,,,,,,,,,,,,,,,,,,,,,,,,,,,,,59V09D,train_y,blue_star,bottom_left,2025-04-07_15h11.24.813,HideSeek_v1,2022.2.5,59.76103951061015,
,2,3,2,6,0,3,64,,train_dim1_1,3,30,,,,2,0,2,0,,,,,,,,,0,0,0,0,0,2,2,2,13,0,13,0,,,,,,,,,,,,,,,,,,,,,,,,,,,,,,,,,,,,,,,,,,,,,,,,,,,,,,,,,,,,,,,,30,,,,,,,,2253.050515800016,2253.050515800016,2253.050515800016,2253.050515800016,2253.050515800016,right,0.2100557000376284,0,0,0,99,0.08,0.08000000000000003,right,0.1294588998425752,,,,,,,,,,,,,,,,,,,,,,,,,,,,,,,,,,,,,,,,,,,,,,,,,,,,,,,,,,,,59V09D,train_y,blue_star,bottom_left,2025-04-07_15h11.24.813,HideSeek_v1,2022.2.5,59.76103951061015,
,2,3,2,6,0,3,64,,train_dim1_1,3,30,,,,2,0,2,0,,,,,,,,,0,0,0,0,0,2,2,2,14,0,14,0,,,,,,,,,,,,,,,,,,,,,,,,,,,,,,,,,,,,,,,,,,,,,,,,,,,,,,,,,,,,,,,,30,,,,,,,,2253.2681557000615,2253.2681557000615,2253.2681557000615,2253.2681557000615,2253.2681557000615,up,0.543373400112614,0,0,0,99,0.08,0.16000000000000003,up,0.4628946997690946,,,,,,,,,,,,,,,,,,,,,,,,,,,,,,,,,,,,,,,,,,,,,,,,,,,,,,,,,,,,59V09D,train_y,blue_star,bottom_left,2025-04-07_15h11.24.813,HideSeek_v1,2022.2.5,59.76103951061015,
,2,3,2,6,0,3,64,,train_dim1_1,3,30,,,,2,0,2,0,,,,,,,,,0,0,0,0,0,2,2,2,15,0,15,0,,,,,,,,,,,,,,,,,,,,,,,,,,,,,,,,,,,,,,,,,,,,,,,,,,,,,,,,,,,,,,,,30,,,,,,,,2253.818832800025,2253.818832800025,2253.818832800025,2253.818832800025,2253.818832800025,return,1.2611247999593616,0,0,0,0,0.08,0.16000000000000003,return,1.1791833997704089,10,4,0.08,0.16000000000000003,,,,,,,,,,,,,,,,,,,,,,,,,,,,,,,,,,,,,,,,,,,,,,,,,,,,,,,,59V09D,train_y,blue_star,bottom_left,2025-04-07_15h11.24.813,HideSeek_v1,2022.2.5,59.76103951061015,
,0,1,0,2,0,1,62,,train_dim1_1,4,30,,,,2,0,2,0,,,,,,,,,0,0,0,0,0,3,3,3,0,0,0,0,,,,,,,,,,,,,,,,,,,,,,,,,stimuli/alien_stimuli/62.png,,,,,,,,,,,,,,,,,,,,,,,,,,,,,stimuli/alien_stimuli/64.png,64,2,5,,,,,,,30,,,,,,,,2262.9655945000704,2262.9655945000704,2262.9655945000704,2262.9655945000704,2262.9655945000704,right,1.4239201999735087,0,0,0,99,-0.08,-0.32,right,1.3375947996973991,,,,,2261.4123815000057,2262.9655945000704,0,0.08,0.24,0.0,-0.04,0,0.0,0,0.08,2256.6474980001803,2256.6474980001803,2256.6474980001803,2256.6474980001803,2256.6474980001803,2256.6474980001803,2256.6474980001803,2256.6474980001803,2256.64183376024,4.8727540001273155,return,4.7389303997624665,,,,,,,,,,,,,,,,,,,,,,,,,,,,,,,,,59V09D,train_y,blue_star,bottom_left,2025-04-07_15h11.24.813,HideSeek_v1,2022.2.5,59.76103951061015,
,0,1,0,2,0,1,62,,train_dim1_1,4,30,,,,2,0,2,0,,,,,,,,,0,0,0,0,0,3,3,3,1,0,1,0,,,,,,,,,,,,,,,,,,,,,,,,,,,,,,,,,,,,,,,,,,,,,,,,,,,,,,,,,,,,,,,,30,,,,,,,,2264.3954366000835,2264.3954366000835,2264.3954366000835,2264.3954366000835,2264.3954366000835,right,0.20887570013292134,0,0,0,99,0.0,-0.32,right,0.1269050999544561,,,,,,,,,,,,,,,,,,,,,,,,,,,,,,,,,,,,,,,,,,,,,,,,,,,,,,,,,,,,59V09D,train_y,blue_star,bottom_left,2025-04-07_15h11.24.813,HideSeek_v1,2022.2.5,59.76103951061015,
,0,1,0,2,0,1,62,,train_dim1_1,4,30,,,,2,0,2,0,,,,,,,,,0,0,0,0,0,3,3,3,2,0,2,0,,,,,,,,,,,,,,,,,,,,,,,,,,,,,,,,,,,,,,,,,,,,,,,,,,,,,,,,,,,,,,,,30,,,,,,,,2264.611063600052,2264.611063600052,2264.611063600052,2264.611063600052,2264.611063600052,up,0.49331720010377467,0,0,0,99,0.0,-0.24,up,0.41315989987924695,,,,,,,,,,,,,,,,,,,,,,,,,,,,,,,,,,,,,,,,,,,,,,,,,,,,,,,,,,,,59V09D,train_y,blue_star,bottom_left,2025-04-07_15h11.24.813,HideSeek_v1,2022.2.5,59.76103951061015,
,0,1,0,2,0,1,62,,train_dim1_1,4,30,,,,2,0,2,0,,,,,,,,,0,0,0,0,0,3,3,3,3,0,3,0,,,,,,,,,,,,,,,,,,,,,,,,,,,,,,,,,,,,,,,,,,,,,,,,,,,,,,,,,,,,,,,,30,,,,,,,,2265.111115900101,2265.111115900101,2265.111115900101,2265.111115900101,2265.111115900101,left,0.4767285999841988,0,0,0,99,-0.08,-0.24,left,0.3967105997726321,,,,,,,,,,,,,,,,,,,,,,,,,,,,,,,,,,,,,,,,,,,,,,,,,,,,,,,,,,,,59V09D,train_y,blue_star,bottom_left,2025-04-07_15h11.24.813,HideSeek_v1,2022.2.5,59.76103951061015,
,0,1,0,2,0,1,62,,train_dim1_1,4,30,,,,2,0,2,0,,,,,,,,,0,0,0,0,0,3,3,3,4,0,4,0,,,,,,,,,,,,,,,,,,,,,,,,,,,,,,,,,,,,,,,,,,,,,,,,,,,,,,,,,,,,,,,,30,,,,,,,,2265.595418000128,2265.595418000128,2265.595418000128,2265.595418000128,2265.595418000128,up,0.37686270009726286,0,0,0,99,-0.08,-0.15999999999999998,up,0.3025449998676777,,,,,,,,,,,,,,,,,,,,,,,,,,,,,,,,,,,,,,,,,,,,,,,,,,,,,,,,,,,,59V09D,train_y,blue_star,bottom_left,2025-04-07_15h11.24.813,HideSeek_v1,2022.2.5,59.76103951061015,
,0,1,0,2,0,1,62,,train_dim1_1,4,30,,,,2,0,2,0,,,,,,,,,0,0,0,0,0,3,3,3,5,0,5,0,,,,,,,,,,,,,,,,,,,,,,,,,,,,,,,,,,,,,,,,,,,,,,,,,,,,,,,,,,,,,,,,30,,,,,,,,2265.9793684000615,2265.9793684000615,2265.9793684000615,2265.9793684000615,2265.9793684000615,right,0.6600862999912351,0,0,0,99,0.0,-0.15999999999999998,right,0.58321229997091,,,,,,,,,,,,,,,,,,,,,,,,,,,,,,,,,,,,,,,,,,,,,,,,,,,,,,,,,,,,59V09D,train_y,blue_star,bottom_left,2025-04-07_15h11.24.813,HideSeek_v1,2022.2.5,59.76103951061015,
,0,1,0,2,0,1,62,,train_dim1_1,4,30,,,,2,0,2,0,,,,,,,,,0,0,0,0,0,3,3,3,6,0,6,0,,,,,,,,,,,,,,,,,,,,,,,,,,,,,,,,,,,,,,,,,,,,,,,,,,,,,,,,,,,,,,,,30,,,,,,,,2266.6465419000015,2266.6465419000015,2266.6465419000015,2266.6465419000015,2266.6465419000015,left,0.510198500007391,0,0,0,99,-0.08,-0.15999999999999998,left,0.43521689996123314,,,,,,,,,,,,,,,,,,,,,,,,,,,,,,,,,,,,,,,,,,,,,,,,,,,,,,,,,,,,59V09D,train_y,blue_star,bottom_left,2025-04-07_15h11.24.813,HideSeek_v1,2022.2.5,59.76103951061015,
,0,1,0,2,0,1,62,,train_dim1_1,4,30,,,,2,0,2,0,,,,,,,,,0,0,0,0,0,3,3,3,7,0,7,0,,,,,,,,,,,,,,,,,,,,,,,,,,,,,,,,,,,,,,,,,,,,,,,,,,,,,,,,,,,,,,,,30,,,,,,,,2267.162690800149,2267.162690800149,2267.162690800149,2267.162690800149,2267.162690800149,up,0.2768472000025213,0,0,0,99,-0.08,-0.07999999999999997,up,0.20395809970796108,,,,,,,,,,,,,,,,,,,,,,,,,,,,,,,,,,,,,,,,,,,,,,,,,,,,,,,,,,,,59V09D,train_y,blue_star,bottom_left,2025-04-07_15h11.24.813,HideSeek_v1,2022.2.5,59.76103951061015,
,0,1,0,2,0,1,62,,train_dim1_1,4,30,,,,2,0,2,0,,,,,,,,,0,0,0,0,0,3,3,3,8,0,8,0,,,,,,,,,,,,,,,,,,,,,,,,,,,,,,,,,,,,,,,,,,,,,,,,,,,,,,,,,,,,,,,,30,,,,,,,,2267.4478062000126,2267.4478062000126,2267.4478062000126,2267.4478062000126,2267.4478062000126,up,0.47659040009602904,0,0,0,99,-0.08,2.7755575615628914e-17,up,0.3935358999297023,,,,,,,,,,,,,,,,,,,,,,,,,,,,,,,,,,,,,,,,,,,,,,,,,,,,,,,,,,,,59V09D,train_y,blue_star,bottom_left,2025-04-07_15h11.24.813,HideSeek_v1,2022.2.5,59.76103951061015,
,0,1,0,2,0,1,62,,train_dim1_1,4,30,,,,2,0,2,0,,,,,,,,,0,0,0,0,0,3,3,3,9,0,9,0,,,,,,,,,,,,,,,,,,,,,,,,,,,,,,,,,,,,,,,,,,,,,,,,,,,,,,,,,,,,,,,,30,,,,,,,,2267.930592500139,2267.930592500139,2267.930592500139,2267.930592500139,2267.930592500139,left,0.29317209986038506,0,0,0,99,-0.16,2.7755575615628914e-17,left,0.21126379980705678,,,,,,,,,,,,,,,,,,,,,,,,,,,,,,,,,,,,,,,,,,,,,,,,,,,,,,,,,,,,59V09D,train_y,blue_star,bottom_left,2025-04-07_15h11.24.813,HideSeek_v1,2022.2.5,59.76103951061015,
,0,1,0,2,0,1,62,,train_dim1_1,4,30,,,,2,0,2,0,,,,,,,,,0,0,0,0,0,3,3,3,10,0,10,0,,,,,,,,,,,,,,,,,,,,,,,,,,,,,,,,,,,,,,,,,,,,,,,,,,,,,,,,,,,,,,,,30,,,,,,,,2268.2304822001606,2268.2304822001606,2268.2304822001606,2268.2304822001606,2268.2304822001606,right,0.24320970010012388,0,0,0,99,-0.08,2.7755575615628914e-17,right,0.1627934998832643,,,,,,,,,,,,,,,,,,,,,,,,,,,,,,,,,,,,,,,,,,,,,,,,,,,,,,,,,,,,59V09D,train_y,blue_star,bottom_left,2025-04-07_15h11.24.813,HideSeek_v1,2022.2.5,59.76103951061015,
,0,1,0,2,0,1,62,,train_dim1_1,4,30,,,,2,0,2,0,,,,,,,,,0,0,0,0,0,3,3,3,11,0,11,0,,,,,,,,,,,,,,,,,,,,,,,,,,,,,,,,,,,,,,,,,,,,,,,,,,,,,,,,,,,,,,,,30,,,,,,,,2268.481145700207,2268.481145700207,2268.481145700207,2268.481145700207,2268.481145700207,left,0.3102047999855131,0,0,0,99,-0.16,2.7755575615628914e-17,left,0.2252776997629553,,,,,,,,,,,,,,,,,,,,,,,,,,,,,,,,,,,,,,,,,,,,,,,,,,,,,,,,,,,,59V09D,train_y,blue_star,bottom_left,2025-04-07_15h11.24.813,HideSeek_v1,2022.2.5,59.76103951061015,
,0,1,0,2,0,1,62,,train_dim1_1,4,30,,,,2,0,2,0,,,,,,,,,0,0,0,0,0,3,3,3,12,0,12,0,,,,,,,,,,,,,,,,,,,,,,,,,,,,,,,,,,,,,,,,,,,,,,,,,,,,,,,,,,,,,,,,30,,,,,,,,2268.8017621000763,2268.8017621000763,2268.8017621000763,2268.8017621000763,2268.8017621000763,right,0.4098002000246197,0,0,0,99,-0.08,2.7755575615628914e-17,right,0.3192536998540163,,,,,,,,,,,,,,,,,,,,,,,,,,,,,,,,,,,,,,,,,,,,,,,,,,,,,,,,,,,,59V09D,train_y,blue_star,bottom_left,2025-04-07_15h11.24.813,HideSeek_v1,2022.2.5,59.76103951061015,
,0,1,0,2,0,1,62,,train_dim1_1,4,30,,,,2,0,2,0,,,,,,,,,0,0,0,0,0,3,3,3,13,0,13,0,,,,,,,,,,,,,,,,,,,,,,,,,,,,,,,,,,,,,,,,,,,,,,,,,,,,,,,,,,,,,,,,30,,,,,,,,2269.214812300168,2269.214812300168,2269.214812300168,2269.214812300168,2269.214812300168,up,0.3100564000196755,0,0,0,99,-0.08,0.08000000000000003,up,0.23847159976139665,,,,,,,,,,,,,,,,,,,,,,,,,,,,,,,,,,,,,,,,,,,,,,,,,,,,,,,,,,,,59V09D,train_y,blue_star,bottom_left,2025-04-07_15h11.24.813,HideSeek_v1,2022.2.5,59.76103951061015,
,0,1,0,2,0,1,62,,train_dim1_1,4,30,,,,2,0,2,0,,,,,,,,,0,0,0,0,0,3,3,3,14,0,14,0,,,,,,,,,,,,,,,,,,,,,,,,,,,,,,,,,,,,,,,,,,,,,,,,,,,,,,,,,,,,,,,,30,,,,,,,,2269.532619500067,2269.532619500067,2269.532619500067,2269.532619500067,2269.532619500067,left,0.36006159987300634,0,0,0,99,-0.16,0.08000000000000003,left,0.28058649972081184,,,,,,,,,,,,,,,,,,,,,,,,,,,,,,,,,,,,,,,,,,,,,,,,,,,,,,,,,,,,59V09D,train_y,blue_star,bottom_left,2025-04-07_15h11.24.813,HideSeek_v1,2022.2.5,59.76103951061015,
,0,1,0,2,0,1,62,,train_dim1_1,4,30,,,,2,0,2,0,,,,,,,,,0,0,0,0,0,3,3,3,15,0,15,0,,,,,,,,,,,,,,,,,,,,,,,,,,,,,,,,,,,,,,,,,,,,,,,,,,,,,,,,,,,,,,,,30,,,,,,,,2269.899322299985,2269.899322299985,2269.899322299985,2269.899322299985,2269.899322299985,right,0.2930401999037713,0,0,0,99,-0.08,0.08000000000000003,right,0.21573599986732006,,,,,,,,,,,,,,,,,,,,,,,,,,,,,,,,,,,,,,,,,,,,,,,,,,,,,,,,,,,,59V09D,train_y,blue_star,bottom_left,2025-04-07_15h11.24.813,HideSeek_v1,2022.2.5,59.76103951061015,
,0,1,0,2,0,1,62,,train_dim1_1,4,30,,,,2,0,2,0,,,,,,,,,0,0,0,0,0,3,3,3,16,0,16,0,,,,,,,,,,,,,,,,,,,,,,,,,,,,,,,,,,,,,,,,,,,,,,,,,,,,,,,,,,,,,,,,30,,,,,,,,2270.199012900004,2270.199012900004,2270.199012900004,2270.199012900004,2270.199012900004,right,0.37681599985808134,0,0,0,99,0.0,0.08000000000000003,right,0.299934099894017,,,,,,,,,,,,,,,,,,,,,,,,,,,,,,,,,,,,,,,,,,,,,,,,,,,,,,,,,,,,59V09D,train_y,blue_star,bottom_left,2025-04-07_15h11.24.813,HideSeek_v1,2022.2.5,59.76103951061015,
,0,1,0,2,0,1,62,,train_dim1_1,4,30,,,,2,0,2,0,,,,,,,,,0,0,0,0,0,3,3,3,17,0,17,0,,,,,,,,,,,,,,,,,,,,,,,,,,,,,,,,,,,,,,,,,,,,,,,,,,,,,,,,,,,,,,,,30,,,,,,,,2270.5832648000214,2270.5832648000214,2270.5832648000214,2270.5832648000214,2270.5832648000214,up,0.7768687999341637,0,0,0,99,0.0,0.16000000000000003,up,0.6968403998762369,,,,,,,,,,,,,,,,,,,,,,,,,,,,,,,,,,,,,,,,,,,,,,,,,,,,,,,,,,,,59V09D,train_y,blue_star,bottom_left,2025-04-07_15h11.24.813,HideSeek_v1,2022.2.5,59.76103951061015,
,0,1,0,2,0,1,62,,train_dim1_1,4,30,,,,2,0,2,0,,,,,,,,,0,0,0,0,0,3,3,3,18,0,18,0,,,,,,,,,,,,,,,,,,,,,,,,,,,,,,,,,,,,,,,,,,,,,,,,,,,,,,,,,,,,,,,,30,,,,,,,,2271.367498200154,2271.367498200154,2271.367498200154,2271.367498200154,2271.367498200154,right,0.32633650000207126,0,0,0,99,0.08,0.16000000000000003,right,0.2462877999059856,,,,,,,,,,,,,,,,,,,,,,,,,,,,,,,,,,,,,,,,,,,,,,,,,,,,,,,,,,,,59V09D,train_y,blue_star,bottom_left,2025-04-07_15h11.24.813,HideSeek_v1,2022.2.5,59.76103951061015,
,0,1,0,2,0,1,62,,train_dim1_1,4,30,,,,2,0,2,0,,,,,,,,,0,0,0,0,0,3,3,3,19,0,19,0,,,,,,,,,,,,,,,,,,,,,,,,,,,,,,,,,,,,,,,,,,,,,,,,,,,,,,,,,,,,,,,,30,,,,,,,,2271.7006119000725,2271.7006119000725,2271.7006119000725,2271.7006119000725,2271.7006119000725,left,0.6269787000492215,0,0,0,99,0.0,0.16000000000000003,left,0.5496067998465151,,,,,,,,,,,,,,,,,,,,,,,,,,,,,,,,,,,,,,,,,,,,,,,,,,,,,,,,,,,,59V09D,train_y,blue_star,bottom_left,2025-04-07_15h11.24.813,HideSeek_v1,2022.2.5,59.76103951061015,
,0,1,0,2,0,1,62,,train_dim1_1,4,30,,,,2,0,2,0,,,,,,,,,0,0,0,0,0,3,3,3,20,0,20,0,,,,,,,,,,,,,,,,,,,,,,,,,,,,,,,,,,,,,,,,,,,,,,,,,,,,,,,,,,,,,,,,30,,,,,,,,2272.334416100057,2272.334416100057,2272.334416100057,2272.334416100057,2272.334416100057,right,0.5268688998185098,0,0,0,99,0.08,0.16000000000000003,right,0.448036199901253,,,,,,,,,,,,,,,,,,,,,,,,,,,,,,,,,,,,,,,,,,,,,,,,,,,,,,,,,,,,59V09D,train_y,blue_star,bottom_left,2025-04-07_15h11.24.813,HideSeek_v1,2022.2.5,59.76103951061015,
,0,1,0,2,0,1,62,,train_dim1_1,4,30,,,,2,0,2,0,,,,,,,,,0,0,0,0,0,3,3,3,21,0,21,0,,,,,,,,,,,,,,,,,,,,,,,,,,,,,,,,,,,,,,,,,,,,,,,,,,,,,,,,,,,,,,,,30,,,,,,,,2272.868697100086,2272.868697100086,2272.868697100086,2272.868697100086,2272.868697100086,return,0.21048519993200898,0,0,0,0,0.08,0.16000000000000003,return,0.1352445997763425,16,7,0.08,0.16000000000000003,,,,,,,,,,,,,,,,,,,,,,,,,,,,,,,,,,,,,,,,,,,,,,,,,,,,,,,,59V09D,train_y,blue_star,bottom_left,2025-04-07_15h11.24.813,HideSeek_v1,2022.2.5,59.76103951061015,
,3,3,3,3,0,0,61,,train_dim1_1,5,30,,,,2,0,2,0,,,,,,,,,0,0,0,0,0,4,4,4,0,0,0,0,,,,,,,,,,,,,,,,,,,,,,,,,stimuli/alien_stimuli/61.png,,,,,,,,,,,,,,,,,,,,,,,,,,,,,stimuli/alien_stimuli/62.png,62,0,6,,,,,,,30,,,,,,,,2280.1114874000195,2280.1114874000195,2280.1114874000195,2280.1114874000195,2280.1114874000195,left,1.8573215000797063,0,0,0,99,0.0,-0.16,left,1.7847037997562438,,,,,2278.5601552000735,2280.1114874000195,-0.16,-0.24,0.08,0.0,-0.28,-0.16,-0.16,-0.16,-0.24,2274.6416260001715,2274.6416260001715,2274.6416260001715,2274.6416260001715,2274.6416260001715,2274.6416260001715,2274.6416260001715,2274.6416260001715,2274.640096460166,4.0222583001013845,return,3.8868854998145252,,,,,,,,,,,,,,,,,,,,,,,,,,,,,,,,,59V09D,train_y,blue_star,bottom_left,2025-04-07_15h11.24.813,HideSeek_v1,2022.2.5,59.76103951061015,
,3,3,3,3,0,0,61,,train_dim1_1,5,30,,,,2,0,2,0,,,,,,,,,0,0,0,0,0,4,4,4,1,0,1,0,,,,,,,,,,,,,,,,,,,,,,,,,,,,,,,,,,,,,,,,,,,,,,,,,,,,,,,,,,,,,,,,30,,,,,,,,2281.975915700197,2281.975915700197,2281.975915700197,2281.975915700197,2281.975915700197,up,0.6933130999095738,0,0,0,99,0.0,-0.08,up,0.608314499957487,,,,,,,,,,,,,,,,,,,,,,,,,,,,,,,,,,,,,,,,,,,,,,,,,,,,,,,,,,,,59V09D,train_y,blue_star,bottom_left,2025-04-07_15h11.24.813,HideSeek_v1,2022.2.5,59.76103951061015,
,3,3,3,3,0,0,61,,train_dim1_1,5,30,,,,2,0,2,0,,,,,,,,,0,0,0,0,0,4,4,4,2,0,2,0,,,,,,,,,,,,,,,,,,,,,,,,,,,,,,,,,,,,,,,,,,,,,,,,,,,,,,,,,,,,,,,,30,,,,,,,,2282.677126500057,2282.677126500057,2282.677126500057,2282.677126500057,2282.677126500057,right,0.7935180000495166,0,0,0,99,0.08,-0.08,right,0.7130235999356955,,,,,,,,,,,,,,,,,,,,,,,,,,,,,,,,,,,,,,,,,,,,,,,,,,,,,,,,,,,,59V09D,train_y,blue_star,bottom_left,2025-04-07_15h11.24.813,HideSeek_v1,2022.2.5,59.76103951061015,
,3,3,3,3,0,0,61,,train_dim1_1,5,30,,,,2,0,2,0,,,,,,,,,0,0,0,0,0,4,4,4,3,0,3,0,,,,,,,,,,,,,,,,,,,,,,,,,,,,,,,,,,,,,,,,,,,,,,,,,,,,,,,,,,,,,,,,30,,,,,,,,2283.4787332999986,2283.4787332999986,2283.4787332999986,2283.4787332999986,2283.4787332999986,left,0.20987229980528355,0,0,0,99,0.0,-0.08,left,0.13511699996888638,,,,,,,,,,,,,,,,,,,,,,,,,,,,,,,,,,,,,,,,,,,,,,,,,,,,,,,,,,,,59V09D,train_y,blue_star,bottom_left,2025-04-07_15h11.24.813,HideSeek_v1,2022.2.5,59.76103951061015,
,3,3,3,3,0,0,61,,train_dim1_1,5,30,,,,2,0,2,0,,,,,,,,,0,0,0,0,0,4,4,4,4,0,4,0,,,,,,,,,,,,,,,,,,,,,,,,,,,,,,,,,,,,,,,,,,,,,,,,,,,,,,,,,,,,,,,,30,,,,,,,,2283.693430100102,2283.693430100102,2283.693430100102,2283.693430100102,2283.693430100102,up,0.21016409993171692,0,0,0,99,0.0,0.0,up,0.13042080006562173,,,,,,,,,,,,,,,,,,,,,,,,,,,,,,,,,,,,,,,,,,,,,,,,,,,,,,,,,,,,59V09D,train_y,blue_star,bottom_left,2025-04-07_15h11.24.813,HideSeek_v1,2022.2.5,59.76103951061015,
,3,3,3,3,0,0,61,,train_dim1_1,5,30,,,,2,0,2,0,,,,,,,,,0,0,0,0,0,4,4,4,5,0,5,0,,,,,,,,,,,,,,,,,,,,,,,,,,,,,,,,,,,,,,,,,,,,,,,,,,,,,,,,,,,,,,,,30,,,,,,,,2283.91114810016,2283.91114810016,2283.91114810016,2283.91114810016,2283.91114810016,right,0.9927937998436391,0,0,0,99,0.08,0.0,right,0.9061165999155492,,,,,,,,,,,,,,,,,,,,,,,,,,,,,,,,,,,,,,,,,,,,,,,,,,,,,,,,,,,,59V09D,train_y,blue_star,bottom_left,2025-04-07_15h11.24.813,HideSeek_v1,2022.2.5,59.76103951061015,
,3,3,3,3,0,0,61,,train_dim1_1,5,30,,,,2,0,2,0,,,,,,,,,0,0,0,0,0,4,4,4,6,0,6,0,,,,,,,,,,,,,,,,,,,,,,,,,,,,,,,,,,,,,,,,,,,,,,,,,,,,,,,,,,,,,,,,30,,,,,,,,2284.9117720001377,2284.9117720001377,2284.9117720001377,2284.9117720001377,2284.9117720001377,left,0.25879970006644726,0,0,0,99,0.0,0.0,left,0.18136749998666346,,,,,,,,,,,,,,,,,,,,,,,,,,,,,,,,,,,,,,,,,,,,,,,,,,,,,,,,,,,,59V09D,train_y,blue_star,bottom_left,2025-04-07_15h11.24.813,HideSeek_v1,2022.2.5,59.76103951061015,
,3,3,3,3,0,0,61,,train_dim1_1,5,30,,,,2,0,2,0,,,,,,,,,0,0,0,0,0,4,4,4,7,0,7,0,,,,,,,,,,,,,,,,,,,,,,,,,,,,,,,,,,,,,,,,,,,,,,,,,,,,,,,,,,,,,,,,30,,,,,,,,2285.1788687000517,2285.1788687000517,2285.1788687000517,2285.1788687000517,2285.1788687000517,up,0.2102248000446707,0,0,0,99,0.0,0.08,up,0.13503100001253188,,,,,,,,,,,,,,,,,,,,,,,,,,,,,,,,,,,,,,,,,,,,,,,,,,,,,,,,,,,,59V09D,train_y,blue_star,bottom_left,2025-04-07_15h11.24.813,HideSeek_v1,2022.2.5,59.76103951061015,
,3,3,3,3,0,0,61,,train_dim1_1,5,30,,,,2,0,2,0,,,,,,,,,0,0,0,0,0,4,4,4,8,0,8,0,,,,,,,,,,,,,,,,,,,,,,,,,,,,,,,,,,,,,,,,,,,,,,,,,,,,,,,,,,,,,,,,30,,,,,,,,2285.395373800071,2285.395373800071,2285.395373800071,2285.395373800071,2285.395373800071,down,0.3431923999451101,0,0,0,99,0.0,0.0,down,0.2651402000337839,,,,,,,,,,,,,,,,,,,,,,,,,,,,,,,,,,,,,,,,,,,,,,,,,,,,,,,,,,,,59V09D,train_y,blue_star,bottom_left,2025-04-07_15h11.24.813,HideSeek_v1,2022.2.5,59.76103951061015,
,3,3,3,3,0,0,61,,train_dim1_1,5,30,,,,2,0,2,0,,,,,,,,,0,0,0,0,0,4,4,4,9,0,9,0,,,,,,,,,,,,,,,,,,,,,,,,,,,,,,,,,,,,,,,,,,,,,,,,,,,,,,,,,,,,,,,,30,,,,,,,,2285.746618100209,2285.746618100209,2285.746618100209,2285.746618100209,2285.746618100209,up,0.24301610002294183,0,0,0,99,0.0,0.08,up,0.16641929978504777,,,,,,,,,,,,,,,,,,,,,,,,,,,,,,,,,,,,,,,,,,,,,,,,,,,,,,,,,,,,59V09D,train_y,blue_star,bottom_left,2025-04-07_15h11.24.813,HideSeek_v1,2022.2.5,59.76103951061015,
,3,3,3,3,0,0,61,,train_dim1_1,5,30,,,,2,0,2,0,,,,,,,,,0,0,0,0,0,4,4,4,10,0,10,0,,,,,,,,,,,,,,,,,,,,,,,,,,,,,,,,,,,,,,,,,,,,,,,,,,,,,,,,,,,,,,,,30,,,,,,,,2285.995923800161,2285.995923800161,2285.995923800161,2285.995923800161,2285.995923800161,left,0.3936552000232041,0,0,0,99,-0.08,0.08,left,0.3064602999947965,,,,,,,,,,,,,,,,,,,,,,,,,,,,,,,,,,,,,,,,,,,,,,,,,,,,,,,,,,,,59V09D,train_y,blue_star,bottom_left,2025-04-07_15h11.24.813,HideSeek_v1,2022.2.5,59.76103951061015,
,3,3,3,3,0,0,61,,train_dim1_1,5,30,,,,2,0,2,0,,,,,,,,,0,0,0,0,0,4,4,4,11,0,11,0,,,,,,,,,,,,,,,,,,,,,,,,,,,,,,,,,,,,,,,,,,,,,,,,,,,,,,,,,,,,,,,,30,,,,,,,,2286.3959348001517,2286.3959348001517,2286.3959348001517,2286.3959348001517,2286.3959348001517,right,0.3097693999297917,0,0,0,99,0.0,0.08,right,0.23517079977318645,,,,,,,,,,,,,,,,,,,,,,,,,,,,,,,,,,,,,,,,,,,,,,,,,,,,,,,,,,,,59V09D,train_y,blue_star,bottom_left,2025-04-07_15h11.24.813,HideSeek_v1,2022.2.5,59.76103951061015,
,3,3,3,3,0,0,61,,train_dim1_1,5,30,,,,2,0,2,0,,,,,,,,,0,0,0,0,0,4,4,4,12,0,12,0,,,,,,,,,,,,,,,,,,,,,,,,,,,,,,,,,,,,,,,,,,,,,,,,,,,,,,,,,,,,,,,,30,,,,,,,,2286.7132198000327,2286.7132198000327,2286.7132198000327,2286.7132198000327,2286.7132198000327,left,0.2766096000559628,0,0,0,99,-0.08,0.08,left,0.18946069991216063,,,,,,,,,,,,,,,,,,,,,,,,,,,,,,,,,,,,,,,,,,,,,,,,,,,,,,,,,,,,59V09D,train_y,blue_star,bottom_left,2025-04-07_15h11.24.813,HideSeek_v1,2022.2.5,59.76103951061015,
,3,3,3,3,0,0,61,,train_dim1_1,5,30,,,,2,0,2,0,,,,,,,,,0,0,0,0,0,4,4,4,13,0,13,0,,,,,,,,,,,,,,,,,,,,,,,,,,,,,,,,,,,,,,,,,,,,,,,,,,,,,,,,,,,,,,,,30,,,,,,,,2286.9968564000446,2286.9968564000446,2286.9968564000446,2286.9968564000446,2286.9968564000446,up,0.15971999987959862,0,0,0,99,-0.08,0.16,up,0.07478059991262853,,,,,,,,,,,,,,,,,,,,,,,,,,,,,,,,,,,,,,,,,,,,,,,,,,,,,,,,,,,,59V09D,train_y,blue_star,bottom_left,2025-04-07_15h11.24.813,HideSeek_v1,2022.2.5,59.76103951061015,
,3,3,3,3,0,0,61,,train_dim1_1,5,30,,,,2,0,2,0,,,,,,,,,0,0,0,0,0,4,4,4,14,0,14,0,,,,,,,,,,,,,,,,,,,,,,,,,,,,,,,,,,,,,,,,,,,,,,,,,,,,,,,,,,,,,,,,30,,,,,,,,2287.163464900106,2287.163464900106,2287.163464900106,2287.163464900106,2287.163464900106,down,0.6432708001229912,0,0,0,99,-0.08,0.08,down,0.5603482997976243,,,,,,,,,,,,,,,,,,,,,,,,,,,,,,,,,,,,,,,,,,,,,,,,,,,,,,,,,,,,59V09D,train_y,blue_star,bottom_left,2025-04-07_15h11.24.813,HideSeek_v1,2022.2.5,59.76103951061015,
,3,3,3,3,0,0,61,,train_dim1_1,5,30,,,,2,0,2,0,,,,,,,,,0,0,0,0,0,4,4,4,15,0,15,0,,,,,,,,,,,,,,,,,,,,,,,,,,,,,,,,,,,,,,,,,,,,,,,,,,,,,,,,,,,,,,,,30,,,,,,,,2287.8137711000163,2287.8137711000163,2287.8137711000163,2287.8137711000163,2287.8137711000163,return,0.6269906000234187,0,0,0,0,-0.08,0.08,return,0.5398820000700653,19,5,-0.08,0.08,,,,,,,,,,,,,,,,,,,,,,,,,,,,,,,,,,,,,,,,,,,,,,,,,,,,,,,,59V09D,train_y,blue_star,bottom_left,2025-04-07_15h11.24.813,HideSeek_v1,2022.2.5,59.76103951061015,
,1,4,1,5,0,1,62,,train_dim1_1,6,30,,,,2,0,2,0,,,,,,,,,0,0,0,0,0,5,5,5,0,0,0,0,,,,,,,,,,,,,,,,,,,,,,,,,stimuli/alien_stimuli/62.png,,,,,,,,,,,,,,,,,,,,,,,,,,,,,stimuli/alien_stimuli/61.png,61,3,7,,,,,,,30,,,,,,,,2294.8413747001905,2294.8413747001905,2294.8413747001905,2294.8413747001905,2294.8413747001905,return,3.425430699950084,0,1,0,0,-0.08,-0.08,return,3.342597499722615,19,5,-0.08,-0.08,2293.2889711000025,2294.8413747001905,0.08,-0.16,0.0,0.0,-0.16,0.08,0.08,0.08,-0.16,2290.005361100193,2290.005361100193,2290.005361100193,2290.005361100193,2290.005361100193,2290.005361100193,2290.005361100193,2290.005361100193,2290.0029634602133,3.3882699999958277,return,3.2520498000085354,,,,,,,,,,,,,,,,,,,,,,,,,,,,,,,,,59V09D,train_y,blue_star,bottom_left,2025-04-07_15h11.24.813,HideSeek_v1,2022.2.5,59.76103951061015,
,1,3,1,6,0,3,64,,train_dim1_1,7,30,,,,2,0,2,0,,,,,,,,,0,0,0,0,0,6,6,6,0,0,0,0,,,,,,,,,,,,,,,,,,,,,,,,,stimuli/alien_stimuli/64.png,,,,,,,,,,,,,,,,,,,,,,,,,,,,,stimuli/alien_stimuli/62.png,62,1,8,,,,,,,30,,,,,,,,2320.459821100114,2320.459821100114,2320.459821100114,2320.459821100114,2320.459821100114,up,3.0245008999481797,0,1,0,99,-0.08,-0.08,up,2.921957999933511,,,,,2318.893592900131,2320.459821100114,-0.08,0,0.08,0.0,-0.04,-0.08,-0.08,-0.08,0,2299.8180151002016,2299.8180151002016,2299.8180151002016,2299.8180151002016,2299.8180151002016,2299.8180151002016,2299.8180151002016,2299.8180151002016,2299.8111466801724,19.168096099980175,return,19.054769299924374,,,,,,,,,,,,,,,,,,,,,,,,,,,,,,,,,59V09D,train_y,blue_star,bottom_left,2025-04-07_15h11.24.813,HideSeek_v1,2022.2.5,59.76103951061015,
,1,3,1,6,0,3,64,,train_dim1_1,7,30,,,,2,0,2,0,,,,,,,,,0,0,0,0,0,6,6,6,1,0,1,0,,,,,,,,,,,,,,,,,,,,,,,,,,,,,,,,,,,,,,,,,,,,,,,,,,,,,,,,,,,,,,,,30,,,,,,,,2323.4771585001145,2323.4771585001145,2323.4771585001145,2323.4771585001145,2323.4771585001145,up,0.7096430000383407,0,1,0,99,-0.08,0.0,up,0.6305266998242587,,,,,,,,,,,,,,,,,,,,,,,,,,,,,,,,,,,,,,,,,,,,,,,,,,,,,,,,,,,,59V09D,train_y,blue_star,bottom_left,2025-04-07_15h11.24.813,HideSeek_v1,2022.2.5,59.76103951061015,
,1,3,1,6,0,3,64,,train_dim1_1,7,30,,,,2,0,2,0,,,,,,,,,0,0,0,0,0,6,6,6,2,0,2,0,,,,,,,,,,,,,,,,,,,,,,,,,,,,,,,,,,,,,,,,,,,,,,,,,,,,,,,,,,,,,,,,30,,,,,,,,2324.1952005000785,2324.1952005000785,2324.1952005000785,2324.1952005000785,2324.1952005000785,up,0.6602569001261145,0,1,0,99,-0.08,0.08,up,0.5860726998653263,,,,,,,,,,,,,,,,,,,,,,,,,,,,,,,,,,,,,,,,,,,,,,,,,,,,,,,,,,,,59V09D,train_y,blue_star,bottom_left,2025-04-07_15h11.24.813,HideSeek_v1,2022.2.5,59.76103951061015,
,1,3,1,6,0,3,64,,train_dim1_1,7,30,,,,2,0,2,0,,,,,,,,,0,0,0,0,0,6,6,6,3,0,3,0,,,,,,,,,,,,,,,,,,,,,,,,,,,,,,,,,,,,,,,,,,,,,,,,,,,,,,,,,,,,,,,,30,,,,,,,,2324.85999490018,2324.85999490018,2324.85999490018,2324.85999490018,2324.85999490018,return,0.7939059000927955,1,0,0,1,-0.08,0.08,return,0.7236654998268932,22,5,-0.08,0.08,,,,,,,,,,,,,,,,,,,,,,,,,,,,,,,,,,,,,,,,,,,,,,,,,,,,,,,,59V09D,train_y,blue_star,bottom_left,2025-04-07_15h11.24.813,HideSeek_v1,2022.2.5,59.76103951061015,
,4,2,4,2,0,0,61,,train_dim1_1,8,30,,,,2,0,2,0,,,,,,,,,0,0,0,0,0,7,7,7,0,0,0,0,,,,,,,,,,,,,,,,,,,,,,,,,stimuli/alien_stimuli/61.png,,,,,,,,,,,,,,,,,,,,,,,,,,,,,stimuli/alien_stimuli/64.png,64,1,9,,,,,,,30,,,,,,,,2335.7258227001876,2335.7258227001876,2335.7258227001876,2335.7258227001876,2335.7258227001876,up,3.258238899987191,1,0,0,99,0.16,-0.15999999999999998,up,3.1707605998963118,,,,,2334.172652100213,2335.7258227001876,-0.08,0.08,0.24,0.0,-0.04,-0.08,-0.08,-0.08,0.08,2327.2232632001396,2327.2232632001396,2327.2232632001396,2327.2232632001396,2327.2232632001396,2327.2232632001396,2327.2232632001396,2327.2232632001396,2327.2177482602883,7.057519800029695,return,6.932029099902138,,,,,,,,,,,,,,,,,,,,,,,,,,,,,,,,,59V09D,train_y,blue_star,bottom_left,2025-04-07_15h11.24.813,HideSeek_v1,2022.2.5,59.76103951061015,
,4,2,4,2,0,0,61,,train_dim1_1,8,30,,,,2,0,2,0,,,,,,,,,0,0,0,0,0,7,7,7,1,0,1,0,,,,,,,,,,,,,,,,,,,,,,,,,,,,,,,,,,,,,,,,,,,,,,,,,,,,,,,,,,,,,,,,30,,,,,,,,2338.9899724000134,2338.9899724000134,2338.9899724000134,2338.9899724000134,2338.9899724000134,return,1.226839300012216,1,1,0,0,0.16,-0.15999999999999998,return,1.1537662998307496,23,5,0.16,-0.15999999999999998,,,,,,,,,,,,,,,,,,,,,,,,,,,,,,,,,,,,,,,,,,,,,,,,,,,,,,,,59V09D,train_y,blue_star,bottom_left,2025-04-07_15h11.24.813,HideSeek_v1,2022.2.5,59.76103951061015,
,4,3,4,7,0,4,65,,train_dim1_1,9,30,,,,2,0,2,0,,,,,,,,,0,0,0,0,0,8,8,8,0,0,0,0,,,,,,,,,,,,,,,,,,,,,,,,,stimuli/alien_stimuli/65.png,,,,,,,,,,,,,,,,,,,,,,,,,,,,,stimuli/alien_stimuli/61.png,61,4,10,,,,,,,30,,,,,,,,2351.3702408000827,2351.3702408000827,2351.3702408000827,2351.3702408000827,2351.3702408000827,up,2.3745549998711795,1,1,0,99,0.16,-0.08,up,2.289802599698305,,,,,2349.8190703000873,2351.3702408000827,0.16,-0.24,0.0,0.0,-0.24,0.16,0.16,0.16,-0.24,2341.78513510013,2341.78513510013,2341.78513510013,2341.78513510013,2341.78513510013,2341.78513510013,2341.78513510013,2341.78513510013,2341.7794135601025,8.141877699876204,return,8.0037809999194,,,,,,,,,,,,,,,,,,,,,,,,,,,,,,,,,59V09D,train_y,blue_star,bottom_left,2025-04-07_15h11.24.813,HideSeek_v1,2022.2.5,59.76103951061015,
,4,3,4,7,0,4,65,,train_dim1_1,9,30,,,,2,0,2,0,,,,,,,,,0,0,0,0,0,8,8,8,1,0,1,0,,,,,,,,,,,,,,,,,,,,,,,,,,,,,,,,,,,,,,,,,,,,,,,,,,,,,,,,,,,,,,,,30,,,,,,,,2353.751761500025,2353.751761500025,2353.751761500025,2353.751761500025,2353.751761500025,up,0.2095298001077026,1,1,0,99,0.16,0.0,up,0.13767029996961355,,,,,,,,,,,,,,,,,,,,,,,,,,,,,,,,,,,,,,,,,,,,,,,,,,,,,,,,,,,,59V09D,train_y,blue_star,bottom_left,2025-04-07_15h11.24.813,HideSeek_v1,2022.2.5,59.76103951061015,
,4,3,4,7,0,4,65,,train_dim1_1,9,30,,,,2,0,2,0,,,,,,,,,0,0,0,0,0,8,8,8,2,0,2,0,,,,,,,,,,,,,,,,,,,,,,,,,,,,,,,,,,,,,,,,,,,,,,,,,,,,,,,,,,,,,,,,30,,,,,,,,2353.9688086002134,2353.9688086002134,2353.9688086002134,2353.9688086002134,2353.9688086002134,up,0.39315690007060766,1,1,0,99,0.16,0.08,up,0.3058992000296712,,,,,,,,,,,,,,,,,,,,,,,,,,,,,,,,,,,,,,,,,,,,,,,,,,,,,,,,,,,,59V09D,train_y,blue_star,bottom_left,2025-04-07_15h11.24.813,HideSeek_v1,2022.2.5,59.76103951061015,
,4,3,4,7,0,4,65,,train_dim1_1,9,30,,,,2,0,2,0,,,,,,,,,0,0,0,0,0,8,8,8,3,0,3,0,,,,,,,,,,,,,,,,,,,,,,,,,,,,,,,,,,,,,,,,,,,,,,,,,,,,,,,,,,,,,,,,30,,,,,,,,2354.368063500151,2354.368063500151,2354.368063500151,2354.368063500151,2354.368063500151,return,1.4943934998009354,1,1,0,0,0.16,0.08,return,1.4103080998174846,26,5,0.16,0.08,,,,,,,,,,,,,,,,,,,,,,,,,,,,,,,,,,,,,,,,,,,,,,,,,,,,,,,,59V09D,train_y,blue_star,bottom_left,2025-04-07_15h11.24.813,HideSeek_v1,2022.2.5,59.76103951061015,
,2,2,2,7,0,5,66,,train_dim1_1,10,30,,,,2,0,2,0,,,,,,,,,0,0,0,0,0,9,9,9,0,0,0,0,,,,,,,,,,,,,,,,,,,,,,,,,stimuli/alien_stimuli/66.png,,,,,,,,,,,,,,,,,,,,,,,,,,,,,stimuli/alien_stimuli/65.png,65,4,11,,,,,,,30,,,,,,,,2361.9137841002084,2361.9137841002084,2361.9137841002084,2361.9137841002084,2361.9137841002084,up,1.607360500143841,1,1,0,99,0,-0.15999999999999998,up,1.525781799806282,,,,,2360.3613923999947,2361.9137841002084,0.16,0.16,0.32,0.0,0.0,0.16,0.16,0.16,0.16,2357.4315754000563,2357.4315754000563,2357.4315754000563,2357.4315754000563,2357.4315754000563,2357.4315754000563,2357.4315754000563,2357.4315754000563,2357.425359760108,3.0384152000769973,return,2.91226499970071,,,,,,,,,,,,,,,,,,,,,,,,,,,,,,,,,59V09D,train_y,blue_star,bottom_left,2025-04-07_15h11.24.813,HideSeek_v1,2022.2.5,59.76103951061015,
,2,2,2,7,0,5,66,,train_dim1_1,10,30,,,,2,0,2,0,,,,,,,,,0,0,0,0,0,9,9,9,1,0,1,0,,,,,,,,,,,,,,,,,,,,,,,,,,,,,,,,,,,,,,,,,,,,,,,,,,,,,,,,,,,,,,,,30,,,,,,,,2363.5286357000005,2363.5286357000005,2363.5286357000005,2363.5286357000005,2363.5286357000005,up,3.1947780000045896,1,1,0,99,0,-0.07999999999999997,up,3.107480499893427,,,,,,,,,,,,,,,,,,,,,,,,,,,,,,,,,,,,,,,,,,,,,,,,,,,,,,,,,,,,59V09D,train_y,blue_star,bottom_left,2025-04-07_15h11.24.813,HideSeek_v1,2022.2.5,59.76103951061015,
,2,2,2,7,0,5,66,,train_dim1_1,10,30,,,,2,0,2,0,,,,,,,,,0,0,0,0,0,9,9,9,2,0,2,0,,,,,,,,,,,,,,,,,,,,,,,,,,,,,,,,,,,,,,,,,,,,,,,,,,,,,,,,,,,,,,,,30,,,,,,,,2366.729983800091,2366.729983800091,2366.729983800091,2366.729983800091,2366.729983800091,up,0.5264822000171989,1,1,0,99,0,2.7755575615628914e-17,up,0.43854659982025623,,,,,,,,,,,,,,,,,,,,,,,,,,,,,,,,,,,,,,,,,,,,,,,,,,,,,,,,,,,,59V09D,train_y,blue_star,bottom_left,2025-04-07_15h11.24.813,HideSeek_v1,2022.2.5,59.76103951061015,
,2,2,2,7,0,5,66,,train_dim1_1,10,30,,,,2,0,2,0,,,,,,,,,0,0,0,0,0,9,9,9,3,0,3,0,,,,,,,,,,,,,,,,,,,,,,,,,,,,,,,,,,,,,,,,,,,,,,,,,,,,,,,,,,,,,,,,30,,,,,,,,2367.263351000147,2367.263351000147,2367.263351000147,2367.263351000147,2367.263351000147,return,1.0603839000687003,1,0,0,0,0,2.7755575615628914e-17,return,0.9824238999281079,29,5,0,2.7755575615628914e-17,,,,,,,,,,,,,,,,,,,,,,,,,,,,,,,,,,,,,,,,,,,,,,,,,,,,,,,,59V09D,train_y,blue_star,bottom_left,2025-04-07_15h11.24.813,HideSeek_v1,2022.2.5,59.76103951061015,
,4,1,4,5,0,4,65,,train_dim1_1,11,30,,,,2,0,2,0,,,,,,,,,0,0,0,0,0,10,10,10,0,0,0,0,,,,,,,,,,,,,,,,,,,,,,,,,stimuli/alien_stimuli/65.png,,,,,,,,,,,,,,,,,,,,,,,,,,,,,stimuli/alien_stimuli/66.png,66,2,12,,,,,,,30,,,,,,,,2372.2880658002105,2372.2880658002105,2372.2880658002105,2372.2880658002105,2372.2880658002105,up,1.5904639000073075,1,0,0,99,0.16,-0.24,up,1.5104450997896492,,,,,2370.7367057001684,2372.2880658002105,0,0.16,0.4,0.0,-0.039999999999999994,0,0.0,0,0.16,2369.8912619000766,2369.8912619000766,2369.8912619000766,2369.8912619000766,2369.8912619000766,2369.8912619000766,2369.8912619000766,2369.8912619000766,2369.886025860137,0.9531739000231028,return,0.827476599952206,,,,,,,,,,,,,,,,,,,,,,,,,,,,,,,,,59V09D,train_y,blue_star,bottom_left,2025-04-07_15h11.24.813,HideSeek_v1,2022.2.5,59.76103951061015,
,4,1,4,5,0,4,65,,train_dim1_1,11,30,,,,2,0,2,0,,,,,,,,,0,0,0,0,0,10,10,10,1,0,1,0,,,,,,,,,,,,,,,,,,,,,,,,,,,,,,,,,,,,,,,,,,,,,,,,,,,,,,,,,,,,,,,,30,,,,,,,,2373.886132000014,2373.886132000014,2373.886132000014,2373.886132000014,2373.886132000014,up,0.6096391999162734,1,0,0,99,0.16,-0.15999999999999998,up,0.5368562997318804,,,,,,,,,,,,,,,,,,,,,,,,,,,,,,,,,,,,,,,,,,,,,,,,,,,,,,,,,,,,59V09D,train_y,blue_star,bottom_left,2025-04-07_15h11.24.813,HideSeek_v1,2022.2.5,59.76103951061015,
,4,1,4,5,0,4,65,,train_dim1_1,11,30,,,,2,0,2,0,,,,,,,,,0,0,0,0,0,10,10,10,2,0,2,0,,,,,,,,,,,,,,,,,,,,,,,,,,,,,,,,,,,,,,,,,,,,,,,,,,,,,,,,,,,,,,,,30,,,,,,,,2374.502995500108,2374.502995500108,2374.502995500108,2374.502995500108,2374.502995500108,up,0.5765207998920232,1,0,0,99,0.16,-0.07999999999999997,up,0.49954399978742003,,,,,,,,,,,,,,,,,,,,,,,,,,,,,,,,,,,,,,,,,,,,,,,,,,,,,,,,,,,,59V09D,train_y,blue_star,bottom_left,2025-04-07_15h11.24.813,HideSeek_v1,2022.2.5,59.76103951061015,
,4,1,4,5,0,4,65,,train_dim1_1,11,30,,,,2,0,2,0,,,,,,,,,0,0,0,0,0,10,10,10,3,0,3,0,,,,,,,,,,,,,,,,,,,,,,,,,,,,,,,,,,,,,,,,,,,,,,,,,,,,,,,,,,,,,,,,30,,,,,,,,2375.0870789000764,2375.0870789000764,2375.0870789000764,2375.0870789000764,2375.0870789000764,up,0.7601356999948621,1,0,0,99,0.16,2.7755575615628914e-17,up,0.6828077000100166,,,,,,,,,,,,,,,,,,,,,,,,,,,,,,,,,,,,,,,,,,,,,,,,,,,,,,,,,,,,59V09D,train_y,blue_star,bottom_left,2025-04-07_15h11.24.813,HideSeek_v1,2022.2.5,59.76103951061015,
,4,1,4,5,0,4,65,,train_dim1_1,11,30,,,,2,0,2,0,,,,,,,,,0,0,0,0,0,10,10,10,4,0,4,0,,,,,,,,,,,,,,,,,,,,,,,,,,,,,,,,,,,,,,,,,,,,,,,,,,,,,,,,,,,,,,,,30,,,,,,,,2375.8531840001233,2375.8531840001233,2375.8531840001233,2375.8531840001233,2375.8531840001233,up,0.6101286001503468,1,0,0,99,0.16,0.08000000000000003,up,0.5249599998351187,,,,,,,,,,,,,,,,,,,,,,,,,,,,,,,,,,,,,,,,,,,,,,,,,,,,,,,,,,,,59V09D,train_y,blue_star,bottom_left,2025-04-07_15h11.24.813,HideSeek_v1,2022.2.5,59.76103951061015,
,4,1,4,5,0,4,65,,train_dim1_1,11,30,,,,2,0,2,0,,,,,,,,,0,0,0,0,0,10,10,10,5,0,5,0,,,,,,,,,,,,,,,,,,,,,,,,,,,,,,,,,,,,,,,,,,,,,,,,,,,,,,,,,,,,,,,,30,,,,,,,,2376.470287800068,2376.470287800068,2376.470287800068,2376.470287800068,2376.470287800068,return,0.7936867999378592,1,1,0,0,0.16,0.08000000000000003,return,0.7215891997329891,34,5,0.16,0.08000000000000003,,,,,,,,,,,,,,,,,,,,,,,,,,,,,,,,,,,,,,,,,,,,,,,,,,,,,,,,59V09D,train_y,blue_star,bottom_left,2025-04-07_15h11.24.813,HideSeek_v1,2022.2.5,59.76103951061015,
,0,0,0,0,0,0,61,,train_dim1_1,12,30,,,,2,0,2,0,,,,,,,,,0,0,0,0,0,11,11,11,0,0,0,0,,,,,,,,,,,,,,,,,,,,,,,,,stimuli/alien_stimuli/61.png,,,,,,,,,,,,,,,,,,,,,,,,,,,,,stimuli/alien_stimuli/65.png,65,4,13,,,,,,,30,,,,,,,,2384.5494888999965,2384.5494888999965,2384.5494888999965,2384.5494888999965,2384.5494888999965,return,2.7401100997813046,2,0,0,1,-0.16,-0.4,return,2.6617692997679114,34,5,-0.16,-0.4,2382.9969479001593,2384.5494888999965,0.16,0,0.32,0.0,-0.16,0.16,0.16,0.16,0,2378.8135854001157,2378.8135854001157,2378.8135854001157,2378.8135854001157,2378.8135854001157,2378.8135854001157,2378.8135854001157,2378.8135854001157,2378.809770880174,4.272764099994674,return,4.164713399950415,,,,,,,,,,,,,,,,,,,,,,,,,,,,,,,,,59V09D,train_y,blue_star,bottom_left,2025-04-07_15h11.24.813,HideSeek_v1,2022.2.5,59.76103951061015,
,4,3,4,4,0,1,62,,train_dim1_1,13,30,,,,2,0,2,0,,,,,,,,,0,0,0,0,0,12,12,12,0,0,0,0,,,,,,,,,,,,,,,,,,,,,,,,,stimuli/alien_stimuli/62.png,,,,,,,,,,,,,,,,,,,,,,,,,,,,,stimuli/alien_stimuli/61.png,61,0,14,,,,,,,30,,,,,,,,2393.289257600205,2393.289257600205,2393.289257600205,2393.289257600205,2393.289257600205,return,2.3913253999780864,2,1,0,0,0.16,-0.16,return,2.304714199854061,34,5,0.16,-0.16,2391.73737680004,2393.289257600205,-0.16,-0.4,0.0,0.0,-0.4,-0.16,-0.16,-0.16,-0.4,2388.840629399987,2388.840629399987,2388.840629399987,2388.840629399987,2388.840629399987,2388.840629399987,2388.840629399987,2388.840629399987,2388.835121480189,2.9878618998918682,return,2.8784860000014305,,,,,,,,,,,,,,,,,,,,,,,,,,,,,,,,,59V09D,train_y,blue_star,bottom_left,2025-04-07_15h11.24.813,HideSeek_v1,2022.2.5,59.76103951061015,
,2,2,2,7,0,5,66,,train_dim1_1,14,30,,,,2,0,2,0,,,,,,,,,0,0,0,0,0,13,13,13,0,0,0,0,,,,,,,,,,,,,,,,,,,,,,,,,stimuli/alien_stimuli/66.png,,,,,,,,,,,,,,,,,,,,,,,,,,,,,stimuli/alien_stimuli/62.png,62,4,15,,,,,,,30,,,,,,,,2401.328804100165,2401.328804100165,2401.328804100165,2401.328804100165,2401.328804100165,up,1.7565768000204116,2,1,0,99,0,-0.15999999999999998,up,1.6800500000827014,,,,,2399.7773904001806,2401.328804100165,0.16,-0.08,0.08,0.0,-0.12,0.16,0.16,0.16,-0.08,2397.2312932000495,2397.2312932000495,2397.2312932000495,2397.2312932000495,2397.2312932000495,2397.2312932000495,2397.2312932000495,2397.2312932000495,2397.225299880281,2.6375837000086904,return,2.519011999713257,,,,,,,,,,,,,,,,,,,,,,,,,,,,,,,,,59V09D,train_y,blue_star,bottom_left,2025-04-07_15h11.24.813,HideSeek_v1,2022.2.5,59.76103951061015,
,2,2,2,7,0,5,66,,train_dim1_1,14,30,,,,2,0,2,0,,,,,,,,,0,0,0,0,0,13,13,13,1,0,1,0,,,,,,,,,,,,,,,,,,,,,,,,,,,,,,,,,,,,,,,,,,,,,,,,,,,,,,,,,,,,,,,,30,,,,,,,,2403.0932311001234,2403.0932311001234,2403.0932311001234,2403.0932311001234,2403.0932311001234,up,0.5768006001599133,2,1,0,99,0,-0.07999999999999997,up,0.4885606998577714,,,,,,,,,,,,,,,,,,,,,,,,,,,,,,,,,,,,,,,,,,,,,,,,,,,,,,,,,,,,59V09D,train_y,blue_star,bottom_left,2025-04-07_15h11.24.813,HideSeek_v1,2022.2.5,59.76103951061015,
,2,2,2,7,0,5,66,,train_dim1_1,14,30,,,,2,0,2,0,,,,,,,,,0,0,0,0,0,13,13,13,2,0,2,0,,,,,,,,,,,,,,,,,,,,,,,,,,,,,,,,,,,,,,,,,,,,,,,,,,,,,,,,,,,,,,,,30,,,,,,,,2403.676614700118,2403.676614700118,2403.676614700118,2403.676614700118,2403.676614700118,up,0.8770184000022709,2,1,0,99,0,2.7755575615628914e-17,up,0.7902502999641001,,,,,,,,,,,,,,,,,,,,,,,,,,,,,,,,,,,,,,,,,,,,,,,,,,,,,,,,,,,,59V09D,train_y,blue_star,bottom_left,2025-04-07_15h11.24.813,HideSeek_v1,2022.2.5,59.76103951061015,
,2,2,2,7,0,5,66,,train_dim1_1,14,30,,,,2,0,2,0,,,,,,,,,0,0,0,0,0,13,13,13,3,0,3,0,,,,,,,,,,,,,,,,,,,,,,,,,,,,,,,,,,,,,,,,,,,,,,,,,,,,,,,,,,,,,,,,30,,,,,,,,2404.560739400098,2404.560739400098,2404.560739400098,2404.560739400098,2404.560739400098,up,0.5265067999716848,2,1,0,99,0,0.08000000000000003,up,0.43906279979273677,,,,,,,,,,,,,,,,,,,,,,,,,,,,,,,,,,,,,,,,,,,,,,,,,,,,,,,,,,,,59V09D,train_y,blue_star,bottom_left,2025-04-07_15h11.24.813,HideSeek_v1,2022.2.5,59.76103951061015,
,2,2,2,7,0,5,66,,train_dim1_1,14,30,,,,2,0,2,0,,,,,,,,,0,0,0,0,0,13,13,13,4,0,4,0,,,,,,,,,,,,,,,,,,,,,,,,,,,,,,,,,,,,,,,,,,,,,,,,,,,,,,,,,,,,,,,,30,,,,,,,,2405.0948918000795,2405.0948918000795,2405.0948918000795,2405.0948918000795,2405.0948918000795,return,1.661013799952343,2,1,0,0,0,0.08000000000000003,return,1.5734515998046845,38,5,0,0.08000000000000003,,,,,,,,,,,,,,,,,,,,,,,,,,,,,,,,,,,,,,,,,,,,,,,,,,,,,,,,59V09D,train_y,blue_star,bottom_left,2025-04-07_15h11.24.813,HideSeek_v1,2022.2.5,59.76103951061015,
,1,4,1,7,0,3,64,,train_dim1_1,15,30,,,,2,0,2,0,,,,,,,,,0,0,0,0,0,14,14,14,0,0,0,0,,,,,,,,,,,,,,,,,,,,,,,,,stimuli/alien_stimuli/64.png,,,,,,,,,,,,,,,,,,,,,,,,,,,,,stimuli/alien_stimuli/66.png,66,2,16,,,,,,,30,,,,,,,,2412.8718010000885,2412.8718010000885,2412.8718010000885,2412.8718010000885,2412.8718010000885,up,2.6748326998203993,2,1,0,99,-0.08,0.0,up,2.5926482998766005,,,,,2411.3203490001615,2412.8718010000885,0,0.16,0.4,0.0,-0.039999999999999994,0,0.0,0,0.16,2408.323744600173,2408.323744600173,2408.323744600173,2408.323744600173,2408.323744600173,2408.323744600173,2408.323744600173,2408.323744600173,2408.317912860238,3.1046453998424113,return,2.9668401998933405,,,,,,,,,,,,,,,,,,,,,,,,,,,,,,,,,59V09D,train_y,blue_star,bottom_left,2025-04-07_15h11.24.813,HideSeek_v1,2022.2.5,59.76103951061015,
,1,4,1,7,0,3,64,,train_dim1_1,15,30,,,,2,0,2,0,,,,,,,,,0,0,0,0,0,14,14,14,1,0,1,0,,,,,,,,,,,,,,,,,,,,,,,,,,,,,,,,,,,,,,,,,,,,,,,,,,,,,,,,,,,,,,,,30,,,,,,,,2415.553502500057,2415.553502500057,2415.553502500057,2415.553502500057,2415.553502500057,up,0.3931946998927742,2,1,0,99,-0.08,0.08,up,0.3088545997161418,,,,,,,,,,,,,,,,,,,,,,,,,,,,,,,,,,,,,,,,,,,,,,,,,,,,,,,,,,,,59V09D,train_y,blue_star,bottom_left,2025-04-07_15h11.24.813,HideSeek_v1,2022.2.5,59.76103951061015,
,1,4,1,7,0,3,64,,train_dim1_1,15,30,,,,2,0,2,0,,,,,,,,,0,0,0,0,0,14,14,14,2,0,2,0,,,,,,,,,,,,,,,,,,,,,,,,,,,,,,,,,,,,,,,,,,,,,,,,,,,,,,,,,,,,,,,,30,,,,,,,,2415.9534714000765,2415.9534714000765,2415.9534714000765,2415.9534714000765,2415.9534714000765,up,0.4765232999343425,2,1,0,99,-0.08,0.16,up,0.3898407998494804,,,,,,,,,,,,,,,,,,,,,,,,,,,,,,,,,,,,,,,,,,,,,,,,,,,,,,,,,,,,59V09D,train_y,blue_star,bottom_left,2025-04-07_15h11.24.813,HideSeek_v1,2022.2.5,59.76103951061015,
,1,4,1,7,0,3,64,,train_dim1_1,15,30,,,,2,0,2,0,,,,,,,,,0,0,0,0,0,14,14,14,3,0,3,0,,,,,,,,,,,,,,,,,,,,,,,,,,,,,,,,,,,,,,,,,,,,,,,,,,,,,,,,,,,,,,,,30,,,,,,,,2416.436885900097,2416.436885900097,2416.436885900097,2416.436885900097,2416.436885900097,return,0.6603441999759525,3,0,0,1,-0.08,0.16,return,0.572735299821943,41,5,-0.08,0.16,,,,,,,,,,,,,,,,,,,,,,,,,,,,,,,,,,,,,,,,,,,,,,,,,,,,,,,,59V09D,train_y,blue_star,bottom_left,2025-04-07_15h11.24.813,HideSeek_v1,2022.2.5,59.76103951061015,
,4,0,4,4,0,4,65,,train_dim1_1,16,30,,,,2,0,2,0,,,,,,,,,0,0,0,0,0,15,15,15,0,0,0,0,,,,,,,,,,,,,,,,,,,,,,,,,stimuli/alien_stimuli/65.png,,,,,,,,,,,,,,,,,,,,,,,,,,,,,stimuli/alien_stimuli/64.png,64,1,17,,,,,,,30,,,,,,,,2422.2298757000826,2422.2298757000826,2422.2298757000826,2422.2298757000826,2422.2298757000826,up,2.5412538999225944,3,0,0,99,0.16,-0.32,up,2.4677231998648494,,,,,2420.6778365001082,2422.2298757000826,-0.08,0.16,0.24,0.0,0.04,-0.08,-0.08,-0.08,0.16,2418.6473951002117,2418.6473951002117,2418.6473951002117,2418.6473951002117,2418.6473951002117,2418.6473951002117,2418.6473951002117,2418.6473951002117,2418.642927580187,2.1206527000758797,return,2.006509499857202,,,,,,,,,,,,,,,,,,,,,,,,,,,,,,,,,59V09D,train_y,blue_star,bottom_left,2025-04-07_15h11.24.813,HideSeek_v1,2022.2.5,59.76103951061015,
,4,0,4,4,0,4,65,,train_dim1_1,16,30,,,,2,0,2,0,,,,,,,,,0,0,0,0,0,15,15,15,1,0,1,0,,,,,,,,,,,,,,,,,,,,,,,,,,,,,,,,,,,,,,,,,,,,,,,,,,,,,,,,,,,,,,,,30,,,,,,,,2424.7779396001715,2424.7779396001715,2424.7779396001715,2424.7779396001715,2424.7779396001715,up,0.6263053000438958,3,0,0,99,0.16,-0.24,up,0.5485336999408901,,,,,,,,,,,,,,,,,,,,,,,,,,,,,,,,,,,,,,,,,,,,,,,,,,,,,,,,,,,,59V09D,train_y,blue_star,bottom_left,2025-04-07_15h11.24.813,HideSeek_v1,2022.2.5,59.76103951061015,
,4,0,4,4,0,4,65,,train_dim1_1,16,30,,,,2,0,2,0,,,,,,,,,0,0,0,0,0,15,15,15,2,0,2,0,,,,,,,,,,,,,,,,,,,,,,,,,,,,,,,,,,,,,,,,,,,,,,,,,,,,,,,,,,,,,,,,30,,,,,,,,2425.411403000122,2425.411403000122,2425.411403000122,2425.411403000122,2425.411403000122,up,0.7601576999295503,3,0,0,99,0.16,-0.15999999999999998,up,0.676445199875161,,,,,,,,,,,,,,,,,,,,,,,,,,,,,,,,,,,,,,,,,,,,,,,,,,,,,,,,,,,,59V09D,train_y,blue_star,bottom_left,2025-04-07_15h11.24.813,HideSeek_v1,2022.2.5,59.76103951061015,
,4,0,4,4,0,4,65,,train_dim1_1,16,30,,,,2,0,2,0,,,,,,,,,0,0,0,0,0,15,15,15,3,0,3,0,,,,,,,,,,,,,,,,,,,,,,,,,,,,,,,,,,,,,,,,,,,,,,,,,,,,,,,,,,,,,,,,30,,,,,,,,2426.178605500143,2426.178605500143,2426.178605500143,2426.178605500143,2426.178605500143,up,0.7268680999986827,3,0,0,99,0.16,-0.07999999999999997,up,0.6533486999105662,,,,,,,,,,,,,,,,,,,,,,,,,,,,,,,,,,,,,,,,,,,,,,,,,,,,,,,,,,,,59V09D,train_y,blue_star,bottom_left,2025-04-07_15h11.24.813,HideSeek_v1,2022.2.5,59.76103951061015,
,4,0,4,4,0,4,65,,train_dim1_1,16,30,,,,2,0,2,0,,,,,,,,,0,0,0,0,0,15,15,15,4,0,4,0,,,,,,,,,,,,,,,,,,,,,,,,,,,,,,,,,,,,,,,,,,,,,,,,,,,,,,,,,,,,,,,,30,,,,,,,,2426.9131468001287,2426.9131468001287,2426.9131468001287,2426.9131468001287,2426.9131468001287,return,0.8934428999200463,4,0,0,1,0.16,-0.07999999999999997,return,0.8080436999443918,45,5,0.16,-0.07999999999999997,,,,,,,,,,,,,,,,,,,,,,,,,,,,,,,,,,,,,,,,,,,,,,,,,,,,,,,,59V09D,train_y,blue_star,bottom_left,2025-04-07_15h11.24.813,HideSeek_v1,2022.2.5,59.76103951061015,
,3,3,3,6,0,3,64,,train_dim1_1,17,30,,,,2,0,2,0,,,,,,,,,0,0,0,0,0,16,16,16,0,0,0,0,,,,,,,,,,,,,,,,,,,,,,,,,stimuli/alien_stimuli/64.png,,,,,,,,,,,,,,,,,,,,,,,,,,,,,stimuli/alien_stimuli/65.png,65,4,18,,,,,,,30,,,,,,,,2432.5398390002083,2432.5398390002083,2432.5398390002083,2432.5398390002083,2432.5398390002083,up,2.2722767998930067,4,0,0,99,0.08,-0.08,up,2.190664299763739,,,,,2430.9865352001507,2432.5398390002083,0.16,-0.08,0.32,0.0,-0.24000000000000002,0.16,0.16,0.16,-0.08,2429.375017500017,2429.375017500017,2429.375017500017,2429.375017500017,2429.375017500017,2429.375017500017,2429.375017500017,2429.375017500017,2429.3685674601466,1.720310099888593,return,1.580761699937284,,,,,,,,,,,,,,,,,,,,,,,,,,,,,,,,,59V09D,train_y,blue_star,bottom_left,2025-04-07_15h11.24.813,HideSeek_v1,2022.2.5,59.76103951061015,
,3,3,3,6,0,3,64,,train_dim1_1,17,30,,,,2,0,2,0,,,,,,,,,0,0,0,0,0,16,16,16,1,0,1,0,,,,,,,,,,,,,,,,,,,,,,,,,,,,,,,,,,,,,,,,,,,,,,,,,,,,,,,,,,,,,,,,30,,,,,,,,2434.8187643000856,2434.8187643000856,2434.8187643000856,2434.8187643000856,2434.8187643000856,up,0.44287450006231666,4,0,0,99,0.08,0.0,up,0.35913529992103577,,,,,,,,,,,,,,,,,,,,,,,,,,,,,,,,,,,,,,,,,,,,,,,,,,,,,,,,,,,,59V09D,train_y,blue_star,bottom_left,2025-04-07_15h11.24.813,HideSeek_v1,2022.2.5,59.76103951061015,
,3,3,3,6,0,3,64,,train_dim1_1,17,30,,,,2,0,2,0,,,,,,,,,0,0,0,0,0,16,16,16,2,0,2,0,,,,,,,,,,,,,,,,,,,,,,,,,,,,,,,,,,,,,,,,,,,,,,,,,,,,,,,,,,,,,,,,30,,,,,,,,2435.2696431002114,2435.2696431002114,2435.2696431002114,2435.2696431002114,2435.2696431002114,up,0.4935214000288397,4,0,0,99,0.08,0.08,up,0.4207932997960597,,,,,,,,,,,,,,,,,,,,,,,,,,,,,,,,,,,,,,,,,,,,,,,,,,,,,,,,,,,,59V09D,train_y,blue_star,bottom_left,2025-04-07_15h11.24.813,HideSeek_v1,2022.2.5,59.76103951061015,
,3,3,3,6,0,3,64,,train_dim1_1,17,30,,,,2,0,2,0,,,,,,,,,0,0,0,0,0,16,16,16,3,0,3,0,,,,,,,,,,,,,,,,,,,,,,,,,,,,,,,,,,,,,,,,,,,,,,,,,,,,,,,,,,,,,,,,30,,,,,,,,2435.7694469001144,2435.7694469001144,2435.7694469001144,2435.7694469001144,2435.7694469001144,return,0.7102120001800358,5,0,0,1,0.08,0.08,return,0.633916299790144,48,5,0.08,0.08,,,,,,,,,,,,,,,,,,,,,,,,,,,,,,,,,,,,,,,,,,,,,,,,,,,,,,,,59V09D,train_y,blue_star,bottom_left,2025-04-07_15h11.24.813,HideSeek_v1,2022.2.5,59.76103951061015,
,2,1,2,1,0,0,61,,train_dim1_1,18,30,,,,2,0,2,0,,,,,,,,,0,0,0,0,0,17,17,17,0,0,0,0,,,,,,,,,,,,,,,,,,,,,,,,,stimuli/alien_stimuli/61.png,,,,,,,,,,,,,,,,,,,,,,,,,,,,,stimuli/alien_stimuli/64.png,64,3,19,,,,,,,30,,,,,,,,2440.8615374001674,2440.8615374001674,2440.8615374001674,2440.8615374001674,2440.8615374001674,up,2.741507099941373,5,0,0,99,0,-0.24,up,2.666155899874866,,,,,2439.310028200038,2440.8615374001674,0.08,0.08,0.24,0.0,-0.04,0.08,0.08,0.08,0.08,2438.0293133000378,2438.0293133000378,2438.0293133000378,2438.0293133000378,2438.0293133000378,2438.0293133000378,2438.0293133000378,2438.0293133000378,2438.026018680213,1.369741200003773,return,1.2495813998393714,,,,,,,,,,,,,,,,,,,,,,,,,,,,,,,,,59V09D,train_y,blue_star,bottom_left,2025-04-07_15h11.24.813,HideSeek_v1,2022.2.5,59.76103951061015,
,2,1,2,1,0,0,61,,train_dim1_1,18,30,,,,2,0,2,0,,,,,,,,,0,0,0,0,0,17,17,17,1,0,1,0,,,,,,,,,,,,,,,,,,,,,,,,,,,,,,,,,,,,,,,,,,,,,,,,,,,,,,,,,,,,,,,,30,,,,,,,,2443.610403700033,2443.610403700033,2443.610403700033,2443.610403700033,2443.610403700033,up,0.8261042998638004,5,0,0,99,0,-0.15999999999999998,up,0.7524836000520736,,,,,,,,,,,,,,,,,,,,,,,,,,,,,,,,,,,,,,,,,,,,,,,,,,,,,,,,,,,,59V09D,train_y,blue_star,bottom_left,2025-04-07_15h11.24.813,HideSeek_v1,2022.2.5,59.76103951061015,
,2,1,2,1,0,0,61,,train_dim1_1,18,30,,,,2,0,2,0,,,,,,,,,0,0,0,0,0,17,17,17,2,0,2,0,,,,,,,,,,,,,,,,,,,,,,,,,,,,,,,,,,,,,,,,,,,,,,,,,,,,,,,,,,,,,,,,30,,,,,,,,2444.444743100088,2444.444743100088,2444.444743100088,2444.444743100088,2444.444743100088,up,0.8937015000265092,5,0,0,99,0,-0.07999999999999997,up,0.8154270998202264,,,,,,,,,,,,,,,,,,,,,,,,,,,,,,,,,,,,,,,,,,,,,,,,,,,,,,,,,,,,59V09D,train_y,blue_star,bottom_left,2025-04-07_15h11.24.813,HideSeek_v1,2022.2.5,59.76103951061015,
,2,1,2,1,0,0,61,,train_dim1_1,18,30,,,,2,0,2,0,,,,,,,,,0,0,0,0,0,17,17,17,3,0,3,0,,,,,,,,,,,,,,,,,,,,,,,,,,,,,,,,,,,,,,,,,,,,,,,,,,,,,,,,,,,,,,,,30,,,,,,,,2445.3443568001967,2445.3443568001967,2445.3443568001967,2445.3443568001967,2445.3443568001967,up,1.9280985998921096,5,0,0,99,0,2.7755575615628914e-17,up,1.8407414997927845,,,,,,,,,,,,,,,,,,,,,,,,,,,,,,,,,,,,,,,,,,,,,,,,,,,,,,,,,,,,59V09D,train_y,blue_star,bottom_left,2025-04-07_15h11.24.813,HideSeek_v1,2022.2.5,59.76103951061015,
,2,1,2,1,0,0,61,,train_dim1_1,18,30,,,,2,0,2,0,,,,,,,,,0,0,0,0,0,17,17,17,4,0,4,0,,,,,,,,,,,,,,,,,,,,,,,,,,,,,,,,,,,,,,,,,,,,,,,,,,,,,,,,,,,,,,,,30,,,,,,,,2447.2799141001888,2447.2799141001888,2447.2799141001888,2447.2799141001888,2447.2799141001888,return,0.9103172000031918,5,0,0,0,0,2.7755575615628914e-17,return,0.830208599800244,52,5,0,2.7755575615628914e-17,,,,,,,,,,,,,,,,,,,,,,,,,,,,,,,,,,,,,,,,,,,,,,,,,,,,,,,,59V09D,train_y,blue_star,bottom_left,2025-04-07_15h11.24.813,HideSeek_v1,2022.2.5,59.76103951061015,
,0,4,0,5,0,1,62,,train_dim1_1,19,30,,,,2,0,2,0,,,,,,,,,0,0,0,0,0,18,18,18,0,0,0,0,,,,,,,,,,,,,,,,,,,,,,,,,stimuli/alien_stimuli/62.png,,,,,,,,,,,,,,,,,,,,,,,,,,,,,stimuli/alien_stimuli/61.png,61,2,20,,,,,,,30,,,,,,,,2453.839800900081,2453.839800900081,2453.839800900081,2453.839800900081,2453.839800900081,return,2.0239107001107186,5,1,0,0,-0.16,-0.08,return,1.9507266997825354,52,5,-0.16,-0.08,2452.2871387000196,2453.839800900081,0,-0.32,0.0,0.0,-0.32,0,0.0,0,-0.32,2449.7631316999905,2449.7631316999905,2449.7631316999905,2449.7631316999905,2449.7631316999905,2449.7631316999905,2449.7631316999905,2449.7631316999905,2449.7521219602086,2.637352199992165,return,2.4964572999160737,,,,,,,,,,,,,,,,,,,,,,,,,,,,,,,,,59V09D,train_y,blue_star,bottom_left,2025-04-07_15h11.24.813,HideSeek_v1,2022.2.5,59.76103951061015,
,2,0,2,5,0,5,66,,train_dim1_1,20,30,,,,2,0,2,0,,,,,,,,,0,0,0,0,0,19,19,19,0,0,0,0,,,,,,,,,,,,,,,,,,,,,,,,,stimuli/alien_stimuli/66.png,,,,,,,,,,,,,,,,,,,,,,,,,,,,,stimuli/alien_stimuli/62.png,62,0,21,,,,,,,30,,,,,,,,2460.7946249002125,2460.7946249002125,2460.7946249002125,2460.7946249002125,2460.7946249002125,up,1.4239753999281675,5,1,0,99,0,-0.32,up,1.3442769998218864,,,,,2459.2433752000798,2460.7946249002125,-0.16,0,0.08,0.0,-0.04,-0.16,-0.16,-0.16,0,2457.412613700144,2457.412613700144,2457.412613700144,2457.412613700144,2457.412613700144,2457.412613700144,2457.412613700144,2457.412613700144,2457.4085024801548,1.9206856000237167,return,1.813316199928522,,,,,,,,,,,,,,,,,,,,,,,,,,,,,,,,,59V09D,train_y,blue_star,bottom_left,2025-04-07_15h11.24.813,HideSeek_v1,2022.2.5,59.76103951061015,
,2,0,2,5,0,5,66,,train_dim1_1,20,30,,,,2,0,2,0,,,,,,,,,0,0,0,0,0,19,19,19,1,0,1,0,,,,,,,,,,,,,,,,,,,,,,,,,,,,,,,,,,,,,,,,,,,,,,,,,,,,,,,,,,,,,,,,30,,,,,,,,2462.226202300051,2462.226202300051,2462.226202300051,2462.226202300051,2462.226202300051,up,0.3258446999825537,5,1,0,99,0,-0.24,up,0.23905599978752434,,,,,,,,,,,,,,,,,,,,,,,,,,,,,,,,,,,,,,,,,,,,,,,,,,,,,,,,,,,,59V09D,train_y,blue_star,bottom_left,2025-04-07_15h11.24.813,HideSeek_v1,2022.2.5,59.76103951061015,
,2,0,2,5,0,5,66,,train_dim1_1,20,30,,,,2,0,2,0,,,,,,,,,0,0,0,0,0,19,19,19,2,0,2,0,,,,,,,,,,,,,,,,,,,,,,,,,,,,,,,,,,,,,,,,,,,,,,,,,,,,,,,,,,,,,,,,30,,,,,,,,2462.5596309001558,2462.5596309001558,2462.5596309001558,2462.5596309001558,2462.5596309001558,up,0.42608100012876093,5,1,0,99,0,-0.15999999999999998,up,0.346312599722296,,,,,,,,,,,,,,,,,,,,,,,,,,,,,,,,,,,,,,,,,,,,,,,,,,,,,,,,,,,,59V09D,train_y,blue_star,bottom_left,2025-04-07_15h11.24.813,HideSeek_v1,2022.2.5,59.76103951061015,
,2,0,2,5,0,5,66,,train_dim1_1,20,30,,,,2,0,2,0,,,,,,,,,0,0,0,0,0,19,19,19,3,0,3,0,,,,,,,,,,,,,,,,,,,,,,,,,,,,,,,,,,,,,,,,,,,,,,,,,,,,,,,,,,,,,,,,30,,,,,,,,2462.992080600001,2462.992080600001,2462.992080600001,2462.992080600001,2462.992080600001,up,1.026809699833393,5,1,0,99,0,-0.07999999999999997,up,0.9466478999238461,,,,,,,,,,,,,,,,,,,,,,,,,,,,,,,,,,,,,,,,,,,,,,,,,,,,,,,,,,,,59V09D,train_y,blue_star,bottom_left,2025-04-07_15h11.24.813,HideSeek_v1,2022.2.5,59.76103951061015,
,2,0,2,5,0,5,66,,train_dim1_1,20,30,,,,2,0,2,0,,,,,,,,,0,0,0,0,0,19,19,19,4,0,4,0,,,,,,,,,,,,,,,,,,,,,,,,,,,,,,,,,,,,,,,,,,,,,,,,,,,,,,,,,,,,,,,,30,,,,,,,,2464.0266808001325,2464.0266808001325,2464.0266808001325,2464.0266808001325,2464.0266808001325,return,0.710698900045827,5,1,0,0,0,-0.07999999999999997,return,0.6359310999978334,56,5,0,-0.07999999999999997,,,,,,,,,,,,,,,,,,,,,,,,,,,,,,,,,,,,,,,,,,,,,,,,,,,,,,,,59V09D,train_y,blue_star,bottom_left,2025-04-07_15h11.24.813,HideSeek_v1,2022.2.5,59.76103951061015,
,2,4,2,8,0,4,65,,train_dim1_1,21,30,,,,2,0,2,0,,,,,,,,,0,0,0,0,0,20,20,20,0,0,0,0,,,,,,,,,,,,,,,,,,,,,,,,,stimuli/alien_stimuli/65.png,,,,,,,,,,,,,,,,,,,,,,,,,,,,,stimuli/alien_stimuli/66.png,66,2,22,,,,,,,30,,,,,,,,2469.3513490001205,2469.3513490001205,2469.3513490001205,2469.3513490001205,2469.3513490001205,up,2.1243863999843597,5,1,0,99,0,0.0,up,2.0373589999508113,,,,,2467.800736900186,2469.3513490001205,0,0,0.4,0.0,-0.2,0,0.0,0,0,2466.286973300157,2466.286973300157,2466.286973300157,2466.286973300157,2466.286973300157,2466.286973300157,2466.286973300157,2466.286973300157,2466.282853280101,1.6034944001585245,return,1.4828861998394132,,,,,,,,,,,,,,,,,,,,,,,,,,,,,,,,,59V09D,train_y,blue_star,bottom_left,2025-04-07_15h11.24.813,HideSeek_v1,2022.2.5,59.76103951061015,
,2,4,2,8,0,4,65,,train_dim1_1,21,30,,,,2,0,2,0,,,,,,,,,0,0,0,0,0,20,20,20,1,0,1,0,,,,,,,,,,,,,,,,,,,,,,,,,,,,,,,,,,,,,,,,,,,,,,,,,,,,,,,,,,,,,,,,30,,,,,,,,2471.483518900117,2471.483518900117,2471.483518900117,2471.483518900117,2471.483518900117,up,0.7598538000602275,5,1,0,99,0,0.08,up,0.6725262000691146,,,,,,,,,,,,,,,,,,,,,,,,,,,,,,,,,,,,,,,,,,,,,,,,,,,,,,,,,,,,59V09D,train_y,blue_star,bottom_left,2025-04-07_15h11.24.813,HideSeek_v1,2022.2.5,59.76103951061015,
,2,4,2,8,0,4,65,,train_dim1_1,21,30,,,,2,0,2,0,,,,,,,,,0,0,0,0,0,20,20,20,2,0,2,0,,,,,,,,,,,,,,,,,,,,,,,,,,,,,,,,,,,,,,,,,,,,,,,,,,,,,,,,,,,,,,,,30,,,,,,,,2472.249473800184,2472.249473800184,2472.249473800184,2472.249473800184,2472.249473800184,up,0.6272533000446856,5,1,0,99,0,0.16,up,0.5474120997823775,,,,,,,,,,,,,,,,,,,,,,,,,,,,,,,,,,,,,,,,,,,,,,,,,,,,,,,,,,,,59V09D,train_y,blue_star,bottom_left,2025-04-07_15h11.24.813,HideSeek_v1,2022.2.5,59.76103951061015,
,2,4,2,8,0,4,65,,train_dim1_1,21,30,,,,2,0,2,0,,,,,,,,,0,0,0,0,0,20,20,20,3,0,3,0,,,,,,,,,,,,,,,,,,,,,,,,,,,,,,,,,,,,,,,,,,,,,,,,,,,,,,,,,,,,,,,,30,,,,,,,,2472.8848928001244,2472.8848928001244,2472.8848928001244,2472.8848928001244,2472.8848928001244,up,0.6102738999761641,5,1,0,99,0,0.24,up,0.5240471998695284,,,,,,,,,,,,,,,,,,,,,,,,,,,,,,,,,,,,,,,,,,,,,,,,,,,,,,,,,,,,59V09D,train_y,blue_star,bottom_left,2025-04-07_15h11.24.813,HideSeek_v1,2022.2.5,59.76103951061015,
,2,4,2,8,0,4,65,,train_dim1_1,21,30,,,,2,0,2,0,,,,,,,,,0,0,0,0,0,20,20,20,4,0,4,0,,,,,,,,,,,,,,,,,,,,,,,,,,,,,,,,,,,,,,,,,,,,,,,,,,,,,,,,,,,,,,,,30,,,,,,,,2473.50188970007,2473.50188970007,2473.50188970007,2473.50188970007,2473.50188970007,return,0.5261570001021028,6,0,0,1,0,0.24,return,0.4453834998421371,60,5,0,0.24,,,,,,,,,,,,,,,,,,,,,,,,,,,,,,,,,,,,,,,,,,,,,,,,,,,,,,,,59V09D,train_y,blue_star,bottom_left,2025-04-07_15h11.24.813,HideSeek_v1,2022.2.5,59.76103951061015,
,0,2,0,5,0,3,64,,train_dim1_1,22,30,,,,2,0,2,0,,,,,,,,,0,0,0,0,0,21,21,21,0,0,0,0,,,,,,,,,,,,,,,,,,,,,,,,,stimuli/alien_stimuli/64.png,,,,,,,,,,,,,,,,,,,,,,,,,,,,,stimuli/alien_stimuli/65.png,65,2,23,,,,,,,30,,,,,,,,2478.7591185001656,2478.7591185001656,2478.7591185001656,2478.7591185001656,2478.7591185001656,up,1.440411999821663,6,0,0,99,-0.16,-0.15999999999999998,up,1.3652016997803003,,,,,2477.2081550001167,2478.7591185001656,0,0.24,0.32,0.0,0.07999999999999999,0,0.0,0,0.24,2475.579339500051,2475.579339500051,2475.579339500051,2475.579339500051,2475.579339500051,2475.579339500051,2475.579339500051,2475.579339500051,2475.573798680119,1.7200849000364542,return,1.604795599821955,,,,,,,,,,,,,,,,,,,,,,,,,,,,,,,,,59V09D,train_y,blue_star,bottom_left,2025-04-07_15h11.24.813,HideSeek_v1,2022.2.5,59.76103951061015,
,0,2,0,5,0,3,64,,train_dim1_1,22,30,,,,2,0,2,0,,,,,,,,,0,0,0,0,0,21,21,21,1,0,1,0,,,,,,,,,,,,,,,,,,,,,,,,,,,,,,,,,,,,,,,,,,,,,,,,,,,,,,,,,,,,,,,,30,,,,,,,,2480.2072224000003,2480.2072224000003,2480.2072224000003,2480.2072224000003,2480.2072224000003,up,0.29316759994253516,6,0,0,99,-0.16,-0.07999999999999997,up,0.2114417999982834,,,,,,,,,,,,,,,,,,,,,,,,,,,,,,,,,,,,,,,,,,,,,,,,,,,,,,,,,,,,59V09D,train_y,blue_star,bottom_left,2025-04-07_15h11.24.813,HideSeek_v1,2022.2.5,59.76103951061015,
,0,2,0,5,0,3,64,,train_dim1_1,22,30,,,,2,0,2,0,,,,,,,,,0,0,0,0,0,21,21,21,2,0,2,0,,,,,,,,,,,,,,,,,,,,,,,,,,,,,,,,,,,,,,,,,,,,,,,,,,,,,,,,,,,,,,,,30,,,,,,,,2480.507036300143,2480.507036300143,2480.507036300143,2480.507036300143,2480.507036300143,up,0.3094972998369485,6,0,0,99,-0.16,2.7755575615628914e-17,up,0.22844399977475405,,,,,,,,,,,,,,,,,,,,,,,,,,,,,,,,,,,,,,,,,,,,,,,,,,,,,,,,,,,,59V09D,train_y,blue_star,bottom_left,2025-04-07_15h11.24.813,HideSeek_v1,2022.2.5,59.76103951061015,
,0,2,0,5,0,3,64,,train_dim1_1,22,30,,,,2,0,2,0,,,,,,,,,0,0,0,0,0,21,21,21,3,0,3,0,,,,,,,,,,,,,,,,,,,,,,,,,,,,,,,,,,,,,,,,,,,,,,,,,,,,,,,,,,,,,,,,30,,,,,,,,2480.823875800008,2480.823875800008,2480.823875800008,2480.823875800008,2480.823875800008,return,0.6601062000263482,7,0,0,1,-0.16,2.7755575615628914e-17,return,0.5876362000126392,63,5,-0.16,2.7755575615628914e-17,,,,,,,,,,,,,,,,,,,,,,,,,,,,,,,,,,,,,,,,,,,,,,,,,,,,,,,,59V09D,train_y,blue_star,bottom_left,2025-04-07_15h11.24.813,HideSeek_v1,2022.2.5,59.76103951061015,
,0,3,0,3,0,0,61,,train_dim1_1,23,30,,,,2,0,2,0,,,,,,,,,0,0,0,0,0,22,22,22,0,0,0,0,,,,,,,,,,,,,,,,,,,,,,,,,stimuli/alien_stimuli/61.png,,,,,,,,,,,,,,,,,,,,,,,,,,,,,stimuli/alien_stimuli/64.png,64,0,24,,,,,,,30,,,,,,,,2486.1325046999846,2486.1325046999846,2486.1325046999846,2486.1325046999846,2486.1325046999846,return,3.1084687998518348,8,0,0,1,-0.16,-0.16,return,3.020774899981916,63,5,-0.16,-0.16,2484.581200900022,2486.1325046999846,-0.16,0,0.24,0.0,-0.12,-0.16,-0.16,-0.16,0,2483.033528300002,2483.033528300002,2483.033528300002,2483.033528300002,2483.033528300002,2483.033528300002,2483.033528300002,2483.033528300002,2483.029997580126,1.6367190000601113,return,1.5210340998601168,,,,,,,,,,,,,,,,,,,,,,,,,,,,,,,,,59V09D,train_y,blue_star,bottom_left,2025-04-07_15h11.24.813,HideSeek_v1,2022.2.5,59.76103951061015,
,3,2,3,7,0,5,66,,train_dim1_1,24,30,,,,2,0,2,0,,,,,,,,,0,0,0,0,0,23,23,23,0,0,0,0,,,,,,,,,,,,,,,,,,,,,,,,,stimuli/alien_stimuli/66.png,,,,,,,,,,,,,,,,,,,,,,,,,,,,,stimuli/alien_stimuli/61.png,61,0,25,,,,,,,30,,,,,,,,2494.0560996001586,2494.0560996001586,2494.0560996001586,2494.0560996001586,2494.0560996001586,up,1.5238402001559734,8,0,0,99,0.08,-0.15999999999999998,up,1.4498248999007046,,,,,2492.504554100102,2494.0560996001586,-0.16,-0.16,0.0,0.0,-0.16,-0.16,-0.16,-0.16,-0.16,2490.7918046000414,2490.7918046000414,2490.7918046000414,2490.7918046000414,2490.7918046000414,2490.7918046000414,2490.7918046000414,2490.7918046000414,2490.7863962800707,1.8036303999833763,return,1.687952799955383,,,,,,,,,,,,,,,,,,,,,,,,,,,,,,,,,59V09D,train_y,blue_star,bottom_left,2025-04-07_15h11.24.813,HideSeek_v1,2022.2.5,59.76103951061015,
,3,2,3,7,0,5,66,,train_dim1_1,24,30,,,,2,0,2,0,,,,,,,,,0,0,0,0,0,23,23,23,1,0,1,0,,,,,,,,,,,,,,,,,,,,,,,,,,,,,,,,,,,,,,,,,,,,,,,,,,,,,,,,,,,,,,,,30,,,,,,,,2495.58655430004,2495.58655430004,2495.58655430004,2495.58655430004,2495.58655430004,up,0.3931665001437068,8,0,0,99,0.08,-0.07999999999999997,up,0.30925259995274246,,,,,,,,,,,,,,,,,,,,,,,,,,,,,,,,,,,,,,,,,,,,,,,,,,,,,,,,,,,,59V09D,train_y,blue_star,bottom_left,2025-04-07_15h11.24.813,HideSeek_v1,2022.2.5,59.76103951061015,
,3,2,3,7,0,5,66,,train_dim1_1,24,30,,,,2,0,2,0,,,,,,,,,0,0,0,0,0,23,23,23,2,0,2,0,,,,,,,,,,,,,,,,,,,,,,,,,,,,,,,,,,,,,,,,,,,,,,,,,,,,,,,,,,,,,,,,30,,,,,,,,2495.986949400045,2495.986949400045,2495.986949400045,2495.986949400045,2495.986949400045,up,0.4264922998845577,8,0,0,99,0.08,2.7755575615628914e-17,up,0.34021699987351894,,,,,,,,,,,,,,,,,,,,,,,,,,,,,,,,,,,,,,,,,,,,,,,,,,,,,,,,,,,,59V09D,train_y,blue_star,bottom_left,2025-04-07_15h11.24.813,HideSeek_v1,2022.2.5,59.76103951061015,
,3,2,3,7,0,5,66,,train_dim1_1,24,30,,,,2,0,2,0,,,,,,,,,0,0,0,0,0,23,23,23,3,0,3,0,,,,,,,,,,,,,,,,,,,,,,,,,,,,,,,,,,,,,,,,,,,,,,,,,,,,,,,,,,,,,,,,30,,,,,,,,2496.4201493000146,2496.4201493000146,2496.4201493000146,2496.4201493000146,2496.4201493000146,up,0.3602450001053512,8,0,0,99,0.08,0.08000000000000003,up,0.28659299993887544,,,,,,,,,,,,,,,,,,,,,,,,,,,,,,,,,,,,,,,,,,,,,,,,,,,,,,,,,,,,59V09D,train_y,blue_star,bottom_left,2025-04-07_15h11.24.813,HideSeek_v1,2022.2.5,59.76103951061015,
,3,2,3,7,0,5,66,,train_dim1_1,24,30,,,,2,0,2,0,,,,,,,,,0,0,0,0,0,23,23,23,4,0,4,0,,,,,,,,,,,,,,,,,,,,,,,,,,,,,,,,,,,,,,,,,,,,,,,,,,,,,,,,,,,,,,,,30,,,,,,,,2496.787851200206,2496.787851200206,2496.787851200206,2496.787851200206,2496.787851200206,up,0.5266648000106215,8,0,0,99,0.08,0.16000000000000003,up,0.4472161999437958,,,,,,,,,,,,,,,,,,,,,,,,,,,,,,,,,,,,,,,,,,,,,,,,,,,,,,,,,,,,59V09D,train_y,blue_star,bottom_left,2025-04-07_15h11.24.813,HideSeek_v1,2022.2.5,59.76103951061015,
,3,2,3,7,0,5,66,,train_dim1_1,24,30,,,,2,0,2,0,,,,,,,,,0,0,0,0,0,23,23,23,5,0,5,0,,,,,,,,,,,,,,,,,,,,,,,,,,,,,,,,,,,,,,,,,,,,,,,,,,,,,,,,,,,,,,,,30,,,,,,,,2497.321393500082,2497.321393500082,2497.321393500082,2497.321393500082,2497.321393500082,return,0.7938484000042081,9,0,0,1,0.08,0.16000000000000003,return,0.7221241998486221,68,5,0.08,0.16000000000000003,,,,,,,,,,,,,,,,,,,,,,,,,,,,,,,,,,,,,,,,,,,,,,,,,,,,,,,,59V09D,train_y,blue_star,bottom_left,2025-04-07_15h11.24.813,HideSeek_v1,2022.2.5,59.76103951061015,
,3,3,3,4,0,1,62,,train_dim1_1,25,30,,,,2,0,2,0,,,,,,,,,0,0,0,0,0,24,24,24,0,0,0,0,,,,,,,,,,,,,,,,,,,,,,,,,stimuli/alien_stimuli/62.png,,,,,,,,,,,,,,,,,,,,,,,,,,,,,stimuli/alien_stimuli/66.png,66,3,26,,,,,,,30,,,,,,,,2502.4299627,2502.4299627,2502.4299627,2502.4299627,2502.4299627,up,2.275003000162542,9,0,0,99,0.08,-0.08,up,2.194401699816808,,,,,2500.878061800031,2502.4299627,0.08,0.16,0.4,0.0,-0.039999999999999994,0.08,0.08,0.08,0.16,2499.66810440016,2499.66810440016,2499.66810440016,2499.66810440016,2499.66810440016,2499.66810440016,2499.66810440016,2499.66810440016,2499.6603759801014,1.3033414999954402,return,1.1848571998998523,,,,,,,,,,,,,,,,,,,,,,,,,,,,,,,,,59V09D,train_y,blue_star,bottom_left,2025-04-07_15h11.24.813,HideSeek_v1,2022.2.5,59.76103951061015,
,3,3,3,4,0,1,62,,train_dim1_1,25,30,,,,2,0,2,0,,,,,,,,,0,0,0,0,0,24,24,24,1,0,1,0,,,,,,,,,,,,,,,,,,,,,,,,,,,,,,,,,,,,,,,,,,,,,,,,,,,,,,,,,,,,,,,,30,,,,,,,,2504.7135621001944,2504.7135621001944,2504.7135621001944,2504.7135621001944,2504.7135621001944,return,0.908395899925381,10,0,0,1,0.08,-0.08,return,0.8259604997001588,69,5,0.08,-0.08,,,,,,,,,,,,,,,,,,,,,,,,,,,,,,,,,,,,,,,,,,,,,,,,,,,,,,,,59V09D,train_y,blue_star,bottom_left,2025-04-07_15h11.24.813,HideSeek_v1,2022.2.5,59.76103951061015,
,4,4,4,7,0,3,64,,train_dim1_1,26,30,,,,2,0,2,0,,,,,,,,,0,0,0,0,0,25,25,25,0,0,0,0,,,,,,,,,,,,,,,,,,,,,,,,,stimuli/alien_stimuli/64.png,,,,,,,,,,,,,,,,,,,,,,,,,,,,,stimuli/alien_stimuli/62.png,62,3,27,,,,,,,30,,,,,,,,2510.353612100007,2510.353612100007,2510.353612100007,2510.353612100007,2510.353612100007,up,1.7739057000726461,10,0,0,99,0.16,0.0,up,1.6858061999082565,,,,,2508.8014947001357,2510.353612100007,0.08,-0.08,0.08,0.0,-0.12,0.08,0.08,0.08,-0.08,2507.1895856000483,2507.1895856000483,2507.1895856000483,2507.1895856000483,2507.1895856000483,2507.1895856000483,2507.1895856000483,2507.1895856000483,2507.183359160251,1.72008080012165,return,1.5915546000469476,,,,,,,,,,,,,,,,,,,,,,,,,,,,,,,,,59V09D,train_y,blue_star,bottom_left,2025-04-07_15h11.24.813,HideSeek_v1,2022.2.5,59.76103951061015,
