trialInstr,x_fixStart,y_fixStart,x_corrSteps,y_corrSteps,x_nrSteps,y_nrSteps,alienID,trialLength,version,trialTrain,praclen,testlen,trial_label,break_on_off,beforeExpLoop.thisRepN,beforeExpLoop.thisTrialN,beforeExpLoop.thisN,beforeExpLoop.thisIndex,mini_instr_trials.thisRepN,mini_instr_trials.thisTrialN,mini_instr_trials.thisN,mini_instr_trials.thisIndex,instrLoop.thisRepN,instrLoop.thisTrialN,instrLoop.thisN,instrLoop.thisIndex,repeat_prac.thisRepN,repeat_prac.thisTrialN,repeat_prac.thisN,repeat_prac.thisIndex,trainLoop.thisRepN,trainLoop.thisTrialN,trainLoop.thisN,trainLoop.thisIndex,moveLoop_train.thisRepN,moveLoop_train.thisTrialN,moveLoop_train.thisN,moveLoop_train.thisIndex,experiment.thisRepN,experiment.thisTrialN,experiment.thisN,experiment.thisIndex,moveLoop_test.thisRepN,moveLoop_test.thisTrialN,moveLoop_test.thisN,moveLoop_test.thisIndex,mini_instr2_trials.thisRepN,mini_instr2_trials.thisTrialN,mini_instr2_trials.thisN,mini_instr2_trials.thisIndex,start_all_time,url,slideStim,audioStim,slides.started,sounds.started,nextButton.numClicks,nextButton.timesOn,nextButton.timesOff,prev_but.numClicks,prev_but.timesOn,prev_but.timesOff,alienStim,instrFile,alienStim_instr,gridImage_instr.started,startPos_3.started,key_instr.started,alienImage_3.started,sounds_1.started,key_instr.keys,key_instr.rt,all_x,all_y,FBy_corrSteps,FBy_fixStart,FBx_corrSteps,FBx_fixStart,FBy_pathSize_check,FBx_pathSize_check,gridImage_9.started,alienImageFB_3.started,startPosFB_3.started,keyFB_3.started,pathLine_ydir_2.started,pathLine_xdir_2.started,alienFace_3.started,sounds_2.started,RTFB_instr,keyFB_3.keys,keyFB_3.rt,draw_alienStim,draw_alienID,test_x,nrepcount,perfthres,percthres,earlierperf,earlystop,nextPrac,fileidx,praclen,saveACC_train,pracFile,nextPrac_train,addNrep,fileidx_endr,repExp,showearly,gridImage_4.started,startPos.started,movePos.started,key_resp.started,alienImage.started,buttonPress_train,RTchoice_train,cumAcctrain,aCorr,saveACC_choice,corrAns,x_movePos_end,y_movePos_end,key_resp.keys,key_resp.rt,wLy_dir,wLx_dir,x_movePos,y_movePos,text_2.started,text_2.stopped,aft_x_corrPos,aft_y_corrPos,y_pathSize_check,x_pathSize_check,y_pathdirY,x_pathdirY,x_pathdirX,x_corrPos,y_corrPos,gridImage_6.started,alienImageFB_2.started,startPosFB_2.started,movePosFB_2.started,keyFB_2.started,pathLine_xdir.started,pathLine_ydir.started,alienFace.started,sounds_4.started,RT_FBtrain,keyFB_2.keys,keyFB_2.rt,saveACC_pre,ACC,within_saveACC_train,earlystop_wloop,cumAcctrain_check,gridImage_3.started,alienImage_test.started,startPos_test.started,movePos_test.started,key_resp_test.started,wLy_dir_test,wLx_dir_test,buttonPress_test,RTchoice_test,cumAcctest,corrAns_test,key_resp_test.keys,key_resp_test.rt,text_3.started,text_3.stopped,total_time,end_all_time,key_resp_3.keys,slides_2.started,sounds_3.started,nextButton_2.numClicks,nextButton_2.timesOn,nextButton_2.timesOff,prev_but_2.numClicks,prev_but_2.timesOn,prev_but_2.timesOff,bye.started,participant,train_first,00_coordinate,starting corner,date,expName,psychopyVersion,frameRate,
,,,,,,,,,,,,,,,0,0,0,0,0,0,0,0,,,,,,,,,,,,,,,,,,,,,,,,,,,,,start_all_time,testround,conditions/schedules/train_x_first/blue_star_00/bottom_right/instructions/Slide1.png,conditions/schedules/train_x_first/blue_star_00/bottom_right/instructions/Audio1.wav,395.2428784999065,395.1958847807371,1,[3.902677899925038],[3.9026847999775782],0,,,,,,,,,,,,,,,,,,,,,,,,,,,,,,,,,,,,,,,,,,,,,,,,,,,,,,,,,,,,,,,,,,,,,,,,,,,,,,,,,,,,,,,,,,,,,,,,,,,,,,,,,,,,,,,,,,,,,,,,,,,,5DTLXW,train_x,blue_star,bottom_right,2025-09-08_15h10.13.688,HideSeek_v1,2022.2.5,59.94053897915899,
,,,,,,,,,,,,,,,0,0,0,0,1,0,1,0,,,,,,,,,,,,,,,,,,,,,,,,,,,,,,,conditions/schedules/train_x_first/blue_star_00/bottom_right/instructions/Slide2.png,conditions/schedules/train_x_first/blue_star_00/bottom_right/instructions/Audio2.wav,399.1652126999106,399.1651658999617,2,"[3.902677899925038, 18.39604889997281]","[3.9026847999775782, 18.39605570002459]",0,,,,,,,,,,,,,,,,,,,,,,,,,,,,,,,,,,,,,,,,,,,,,,,,,,,,,,,,,,,,,,,,,,,,,,,,,,,,,,,,,,,,,,,,,,,,,,,,,,,,,,,,,,,,,,,,,,,,,,,,,,,,5DTLXW,train_x,blue_star,bottom_right,2025-09-08_15h10.13.688,HideSeek_v1,2022.2.5,59.94053897915899,
,,,,,,,,,,,,,,,0,0,0,0,2,0,2,0,,,,,,,,,,,,,,,,,,,,,,,,,,,,,,,conditions/schedules/train_x_first/blue_star_00/bottom_right/instructions/Slide3.png,conditions/schedules/train_x_first/blue_star_00/bottom_right/instructions/Audio3.wav,417.64075809996575,417.6302645999822,3,"[3.902677899925038, 18.39604889997281, 16.20067090005614]","[3.9026847999775782, 0.033489600056782365, 16.20068040001206]",0,,,,,,,,,,,,,,,,,,,,,,,,,,,,,,,,,,,,,,,,,,,,,,,,,,,,,,,,,,,,,,,,,,,,,,,,,,,,,,,,,,,,,,,,,,,,,,,,,,,,,,,,,,,,,,,,,,,,,,,,,,,,5DTLXW,train_x,blue_star,bottom_right,2025-09-08_15h10.13.688,HideSeek_v1,2022.2.5,59.94053897915899,
,,,,,,,,,,,,,,,0,0,0,0,3,0,3,0,,,,,,,,,,,,,,,,,,,,,,,,,,,,,,,conditions/schedules/train_x_first/blue_star_00/bottom_right/instructions/Slide4.png,conditions/schedules/train_x_first/blue_star_00/bottom_right/instructions/Audio4.wav,433.9178555998951,433.9105739999213,4,"[3.902677899925038, 18.39604889997281, 16.20067090005614, 19.773536899941973]","[3.9026847999775782, 0.033489600056782365, 0.014265500009059906, 19.77354359999299]",0,,,,,,,,,,,,,,,,,,,,,,,,,,,,,,,,,,,,,,,,,,,,,,,,,,,,,,,,,,,,,,,,,,,,,,,,,,,,,,,,,,,,,,,,,,,,,,,,,,,,,,,,,,,,,,,,,,,,,,,,,,,,5DTLXW,train_x,blue_star,bottom_right,2025-09-08_15h10.13.688,HideSeek_v1,2022.2.5,59.94053897915899,
,,,,,,,,,,,,,,,0,0,0,0,4,0,4,0,,,,,,,,,,,,,,,,,,,,,,,,,,,,,,,conditions/schedules/train_x_first/blue_star_00/bottom_right/instructions/Slide5.png,conditions/schedules/train_x_first/blue_star_00/bottom_right/instructions/Audio5.wav,453.7569414000027,453.74365387992003,5,"[3.902677899925038, 18.39604889997281, 16.20067090005614, 19.773536899941973, 4.654876700020395]","[3.9026847999775782, 0.033489600056782365, 0.014265500009059906, 0.03407689998857677, 4.654883400071412]",0,,,,,,,,,,,,,,,,,,,,,,,,,,,,,,,,,,,,,,,,,,,,,,,,,,,,,,,,,,,,,,,,,,,,,,,,,,,,,,,,,,,,,,,,,,,,,,,,,,,,,,,,,,,,,,,,,,,,,,,,,,,,5DTLXW,train_x,blue_star,bottom_right,2025-09-08_15h10.13.688,HideSeek_v1,2022.2.5,59.94053897915899,
,,,,,,,,,,,,,,,0,0,0,0,5,0,5,0,,,,,,,,,,,,,,,,,,,,,,,,,,,,,,,conditions/schedules/train_x_first/blue_star_00/bottom_right/instructions/Slide6.png,conditions/schedules/train_x_first/blue_star_00/bottom_right/instructions/Audio6.wav,458.46447309991345,458.4643963799579,6,"[3.902677899925038, 18.39604889997281, 16.20067090005614, 19.773536899941973, 4.654876700020395, 4.701762599986978]","[3.9026847999775782, 0.033489600056782365, 0.014265500009059906, 0.03407689998857677, 0.04844100004993379, 4.701769400038756]",0,,,,,,,,,,,,,,,,,,,,,,,,,,,,,,,,,,,,,,,,,,,,,,,,,,,,,,,,,,,,,,,,,,,,,,,,,,,,,,,,,,,,,,,,,,,,,,,,,,,,,,,,,,,,,,,,,,,,,,,,,,,,5DTLXW,train_x,blue_star,bottom_right,2025-09-08_15h10.13.688,HideSeek_v1,2022.2.5,59.94053897915899,
,,,,,,,,,,,,,,,0,0,0,0,6,0,6,0,,,,,,,,,,,,,,,,,,,,,,,,,,,,,,,conditions/schedules/train_x_first/blue_star_00/bottom_right/instructions/Slide7.png,conditions/schedules/train_x_first/blue_star_00/bottom_right/instructions/Audio7.wav,463.21703319996595,463.21824407991954,7,"[3.902677899925038, 18.39604889997281, 16.20067090005614, 19.773536899941973, 4.654876700020395, 4.701762599986978, 5.403398199938238]","[3.9026847999775782, 0.033489600056782365, 0.014265500009059906, 0.03407689998857677, 0.04844100004993379, 0.06543869990855455, 5.403404899989255]",0,,,,,,,,,,,,,,,,,,,,,,,,,,,,,,,,,,,,,,,,,,,,,,,,,,,,,,,,,,,,,,,,,,,,,,,,,,,,,,,,,,,,,,,,,,,,,,,,,,,,,,,,,,,,,,,,,,,,,,,,,,,,5DTLXW,train_x,blue_star,bottom_right,2025-09-08_15h10.13.688,HideSeek_v1,2022.2.5,59.94053897915899,
,,,,,,,,,,,,,,,0,0,0,0,7,0,7,0,,,,,,,,,,,,,,,,,,,,,,,,,,,,,,,conditions/schedules/train_x_first/blue_star_00/bottom_right/instructions/Slide8.png,conditions/schedules/train_x_first/blue_star_00/bottom_right/instructions/Audio8.wav,468.6995286999736,468.68939839996165,8,"[3.902677899925038, 18.39604889997281, 16.20067090005614, 19.773536899941973, 4.654876700020395, 4.701762599986978, 5.403398199938238, 11.413034999975935]","[3.9026847999775782, 0.033489600056782365, 0.014265500009059906, 0.03407689998857677, 0.04844100004993379, 0.06543869990855455, 0.08708430000115186, 11.413041000021622]",0,,,,,,,,,,,,,,,,,,,,,,,,,,,,,,,,,,,,,,,,,,,,,,,,,,,,,,,,,,,,,,,,,,,,,,,,,,,,,,,,,,,,,,,,,,,,,,,,,,,,,,,,,,,,,,,,,,,,,,,,,,,,5DTLXW,train_x,blue_star,bottom_right,2025-09-08_15h10.13.688,HideSeek_v1,2022.2.5,59.94053897915899,
,,,,,,,,,,,,,,,0,0,0,0,8,0,8,0,,,,,,,,,,,,,,,,,,,,,,,,,,,,,,,conditions/schedules/train_x_first/blue_star_00/bottom_right/instructions/Slide9.png,conditions/schedules/train_x_first/blue_star_00/bottom_right/instructions/Audio9.wav,480.1654525999911,480.16551028001123,9,"[3.902677899925038, 18.39604889997281, 16.20067090005614, 19.773536899941973, 4.654876700020395, 4.701762599986978, 5.403398199938238, 11.413034999975935, 5.568892400013283]","[3.9026847999775782, 0.033489600056782365, 0.014265500009059906, 0.03407689998857677, 0.04844100004993379, 0.06543869990855455, 0.08708430000115186, 0.08072710002306849, 5.568899399950169]",0,,,,,,,,,,,,,,,,,,,,,,,,,,,,,,,,,,,,,,,,,,,,,,,,,,,,,,,,,,,,,,,,,,,,,,,,,,,,,,,,,,,,,,,,,,,,,,,,,,,,,,,,,,,,,,,,,,,,,,,,,,,,5DTLXW,train_x,blue_star,bottom_right,2025-09-08_15h10.13.688,HideSeek_v1,2022.2.5,59.94053897915899,
,,,,,,,,,,,,,,,0,0,0,0,9,0,9,0,,,,,,,,,,,,,,,,,,,,,,,,,,,,,,,conditions/schedules/train_x_first/blue_star_00/bottom_right/instructions/Slide10.png,conditions/schedules/train_x_first/blue_star_00/bottom_right/instructions/Audio10.wav,485.77358089992777,485.770042959915,10,"[3.902677899925038, 18.39604889997281, 16.20067090005614, 19.773536899941973, 4.654876700020395, 4.701762599986978, 5.403398199938238, 11.413034999975935, 5.568892400013283, 6.483356399927288]","[3.9026847999775782, 0.033489600056782365, 0.014265500009059906, 0.03407689998857677, 0.04844100004993379, 0.06543869990855455, 0.08708430000115186, 0.08072710002306849, 0.13086509995628148, 6.483363099978305]",0,,,,,,,,,,,,,,,,,,,,,,,,,,,,,,,,,,,,,,,,,,,,,,,,,,,,,,,,,,,,,,,,,,,,,,,,,,,,,,,,,,,,,,,,,,,,,,,,,,,,,,,,,,,,,,,,,,,,,,,,,,,,5DTLXW,train_x,blue_star,bottom_right,2025-09-08_15h10.13.688,HideSeek_v1,2022.2.5,59.94053897915899,
,,,,,,,,,,,,,,,0,0,0,0,10,0,10,0,,,,,,,,,,,,,,,,,,,,,,,,,,,,,,,conditions/schedules/train_x_first/blue_star_00/bottom_right/instructions/Slide11.png,conditions/schedules/train_x_first/blue_star_00/bottom_right/instructions/Audio11.wav,492.3118815999478,492.30895067991224,11,"[3.902677899925038, 18.39604889997281, 16.20067090005614, 19.773536899941973, 4.654876700020395, 4.701762599986978, 5.403398199938238, 11.413034999975935, 5.568892400013283, 6.483356399927288, 9.986505800043233]","[3.9026847999775782, 0.033489600056782365, 0.014265500009059906, 0.03407689998857677, 0.04844100004993379, 0.06543869990855455, 0.08708430000115186, 0.08072710002306849, 0.13086509995628148, 0.11130240000784397, 9.98651289998088]",0,,,,,,,,,,,,,,,,,,,,,,,,,,,,,,,,,,,,,,,,,,,,,,,,,,,,,,,,,,,,,,,,,,,,,,,,,,,,,,,,,,,,,,,,,,,,,,,,,,,,,,,,,,,,,,,,,,,,,,,,,,,,5DTLXW,train_x,blue_star,bottom_right,2025-09-08_15h10.13.688,HideSeek_v1,2022.2.5,59.94053897915899,
,,,,,,,,,,,,,,,0,0,0,0,11,0,11,0,,,,,,,,,,,,,,,,,,,,,,,,,,,,,,,conditions/schedules/train_x_first/blue_star_00/bottom_right/instructions/Slide12.png,conditions/schedules/train_x_first/blue_star_00/bottom_right/instructions/Audio12.wav,502.3716144999489,502.36721889994806,12,"[3.902677899925038, 18.39604889997281, 16.20067090005614, 19.773536899941973, 4.654876700020395, 4.701762599986978, 5.403398199938238, 11.413034999975935, 5.568892400013283, 6.483356399927288, 9.986505800043233, 12.470069300034083]","[3.9026847999775782, 0.033489600056782365, 0.014265500009059906, 0.03407689998857677, 0.04844100004993379, 0.06543869990855455, 0.08708430000115186, 0.08072710002306849, 0.13086509995628148, 0.11130240000784397, 0.04667389998212457, 12.470075799967162]",0,,,,,,,,,,,,,,,,,,,,,,,,,,,,,,,,,,,,,,,,,,,,,,,,,,,,,,,,,,,,,,,,,,,,,,,,,,,,,,,,,,,,,,,,,,,,,,,,,,,,,,,,,,,,,,,,,,,,,,,,,,,,5DTLXW,train_x,blue_star,bottom_right,2025-09-08_15h10.13.688,HideSeek_v1,2022.2.5,59.94053897915899,
1,9,0,4,0,-5,0,11,2,instr_dim1_1,,,,,,0,0,0,0,,,,,0,0,0,0,,,,,,,,,,,,,,,,,,,,,,,,,,,,,,,,,,,,,stimuli/alien_stimuli/11.png,conditions/schedules/train_x_first/blue_star_00/bottom_right/inputInstr_1.xlsx,stimuli/alien_stimuli/11.png,514.9310512999073,514.9310512999073,514.9310512999073,514.9310512999073,514.9276647199179,return,10.070395500049926,"[-0.16, -0.08, 0, 0.08, 0.16, 0.24, 0.32, 0.4, 0.48, 0.56]","[-0.4, -0.32, -0.24, -0.16, -0.08, 0, 0.08, 0.16, 0.24, 0.32]",0,0,4,9,0.0,0.4,525.1621236999054,525.1621236999054,525.1621236999054,525.1621236999054,525.1621236999054,525.1621236999054,525.1621236999054,525.1529937799904,7.623350600013509,return,7.4532058000331745,stimuli/alien_stimuli/11.png,11,9,1,,,,,,,,,,,,,,,,,,,,,,,,,,,,,,,,,,,,,,,,,,,,,,,,,,,,,,,,,,,,,,,,,,,,,,,,,,,,,,,,,,,,,,,,,5DTLXW,train_x,blue_star,bottom_right,2025-09-08_15h10.13.688,HideSeek_v1,2022.2.5,59.94053897915899,
,,,,,,,,,,,30,,,,0,0,0,0,,,,,,,,,,,,,,,,,,,,,,,,,,,,,,,,,,,,,,,,,,,,,,,,,,,,,,,,,,,,,,,,,,,,,,,,,,,,,,21,0.7,0,0,99,1,30,0,conditions/schedules/train_x_first/blue_star_00/bottom_right/inputTrain_1.1.xlsx,99,1,1,1,0,,,,,,,,,,,,,,,,,,,,,,,,,,,,,,,,,,,,,,,,,,,,,,,,,,,,,,,,,,,,,,,,,,,,,,,,,,,5DTLXW,train_x,blue_star,bottom_right,2025-09-08_15h10.13.688,HideSeek_v1,2022.2.5,59.94053897915899,
,,,,,,,,,,,,,,,1,0,1,0,0,0,0,0,,,,,,,,,,,,,,,,,,,,,,,,,,,,,,,conditions/schedules/train_x_first/blue_star_00/bottom_right/instructions/Slide13.png,conditions/schedules/train_x_first/blue_star_00/bottom_right/instructions/Audio13.wav,532.81595869991,532.8090929200291,13,"[3.902677899925038, 18.39604889997281, 16.20067090005614, 19.773536899941973, 4.654876700020395, 4.701762599986978, 5.403398199938238, 11.413034999975935, 5.568892400013283, 6.483356399927288, 9.986505800043233, 12.470069300034083, 16.354617800097913]","[3.9026847999775782, 0.033489600056782365, 0.014265500009059906, 0.03407689998857677, 0.04844100004993379, 0.06543869990855455, 0.08708430000115186, 0.08072710002306849, 0.13086509995628148, 0.11130240000784397, 0.04667389998212457, 12.470075799967162, 16.354625400039367]",0,,,,,,,,,,,,,,,,,,,,,,,,,,,,,,,,,,,,,,,,,,,,,,,,,,,,,,,,,,,,,,,,,,,,,,,,,,,,,,,,,,,,,,,,,,,,,,,,,,,,,,,,,,,,,,,,,,,,,,,,,,,,5DTLXW,train_x,blue_star,bottom_right,2025-09-08_15h10.13.688,HideSeek_v1,2022.2.5,59.94053897915899,
,,,,,,,,,,,,,,,1,0,1,0,1,0,1,0,,,,,,,,,,,,,,,,,,,,,,,,,,,,,,,conditions/schedules/train_x_first/blue_star_00/bottom_right/instructions/Slide14.png,conditions/schedules/train_x_first/blue_star_00/bottom_right/instructions/Audio14.wav,549.2398032000056,549.2394805999356,14,"[3.902677899925038, 18.39604889997281, 16.20067090005614, 19.773536899941973, 4.654876700020395, 4.701762599986978, 5.403398199938238, 11.413034999975935, 5.568892400013283, 6.483356399927288, 9.986505800043233, 12.470069300034083, 16.354617800097913, 13.42447379999794]","[3.9026847999775782, 0.033489600056782365, 0.014265500009059906, 0.03407689998857677, 0.04844100004993379, 0.06543869990855455, 0.08708430000115186, 0.08072710002306849, 0.13086509995628148, 0.11130240000784397, 0.04667389998212457, 12.470075799967162, 0.04741170001216233, 13.424480199930258]",0,,,,,,,,,,,,,,,,,,,,,,,,,,,,,,,,,,,,,,,,,,,,,,,,,,,,,,,,,,,,,,,,,,,,,,,,,,,,,,,,,,,,,,,,,,,,,,,,,,,,,,,,,,,,,,,,,,,,,,,,,,,,5DTLXW,train_x,blue_star,bottom_right,2025-09-08_15h10.13.688,HideSeek_v1,2022.2.5,59.94053897915899,
2,8,2,8,2,0,0,61,2,instr_dim1_1,,,,,,1,0,1,0,,,,,0,0,0,0,,,,,,,,,,,,,,,,,,,,,,,,,,,,,,,,,,,,,stimuli/alien_stimuli/61.png,conditions/schedules/train_x_first/blue_star_00/bottom_right/inputInstr_1.xlsx,stimuli/alien_stimuli/61.png,562.7694568999577,562.7694568999577,562.7694568999577,562.7694568999577,562.7673087399803,return,7.532503299997188,"[-0.16, -0.08, 0, 0.08, 0.16, 0.24, 0.32, 0.4, 0.48, 0.56]","[-0.4, -0.32, -0.24, -0.16, -0.08, 0, 0.08, 0.16, 0.24, 0.32]",2,2,8,8,0.0,0.0,570.4567522999132,570.4567522999132,570.4567522999132,570.4567522999132,570.4567522999132,570.4567522999132,570.4567522999132,570.4404265600257,7.673813799978234,return,7.519615899887867,stimuli/alien_stimuli/61.png,61,8,2,,,,,,,,,,,,,,,,,,,,,,,,,,,,,,,,,,,,,,,,,,,,,,,,,,,,,,,,,,,,,,,,,,,,,,,,,,,,,,,,,,,,,,,,,5DTLXW,train_x,blue_star,bottom_right,2025-09-08_15h10.13.688,HideSeek_v1,2022.2.5,59.94053897915899,
,,,,,,,,,,,30,,,,1,0,1,0,,,,,,,,,,,,,,,,,,,,,,,,,,,,,,,,,,,,,,,,,,,,,,,,,,,,,,,,,,,,,,,,,,,,,,,,,,,,,,21,0.7,0,0,99,1,30,0,conditions/schedules/train_x_first/blue_star_00/bottom_right/inputTrain_1.1.xlsx,99,1,1,1,0,,,,,,,,,,,,,,,,,,,,,,,,,,,,,,,,,,,,,,,,,,,,,,,,,,,,,,,,,,,,,,,,,,,,,,,,,,,5DTLXW,train_x,blue_star,bottom_right,2025-09-08_15h10.13.688,HideSeek_v1,2022.2.5,59.94053897915899,
,,,,,,,,,,,,,,,2,0,2,0,0,0,0,0,,,,,,,,,,,,,,,,,,,,,,,,,,,,,,,conditions/schedules/train_x_first/blue_star_00/bottom_right/instructions/Slide15.png,conditions/schedules/train_x_first/blue_star_00/bottom_right/instructions/Audio15.wav,578.1698209999595,578.1634675200214,15,"[3.902677899925038, 18.39604889997281, 16.20067090005614, 19.773536899941973, 4.654876700020395, 4.701762599986978, 5.403398199938238, 11.413034999975935, 5.568892400013283, 6.483356399927288, 9.986505800043233, 12.470069300034083, 16.354617800097913, 13.42447379999794, 30.516474900068715]","[3.9026847999775782, 0.033489600056782365, 0.014265500009059906, 0.03407689998857677, 0.04844100004993379, 0.06543869990855455, 0.08708430000115186, 0.08072710002306849, 0.13086509995628148, 0.11130240000784397, 0.04667389998212457, 12.470075799967162, 0.04741170001216233, 13.424480199930258, 30.516481300001033]",0,,,,,,,,,,,,,,,,,,,,,,,,,,,,,,,,,,,,,,,,,,,,,,,,,,,,,,,,,,,,,,,,,,,,,,,,,,,,,,,,,,,,,,,,,,,,,,,,,,,,,,,,,,,,,,,,,,,,,,,,,,,,5DTLXW,train_x,blue_star,bottom_right,2025-09-08_15h10.13.688,HideSeek_v1,2022.2.5,59.94053897915899,
,,,,,,,,,,,,,,,2,0,2,0,1,0,1,0,,,,,,,,,,,,,,,,,,,,,,,,,,,,,,,conditions/schedules/train_x_first/blue_star_00/bottom_right/instructions/Slide16.png,conditions/schedules/train_x_first/blue_star_00/bottom_right/instructions/Audio16.wav,608.7615052999463,608.7554597999551,16,"[3.902677899925038, 18.39604889997281, 16.20067090005614, 19.773536899941973, 4.654876700020395, 4.701762599986978, 5.403398199938238, 11.413034999975935, 5.568892400013283, 6.483356399927288, 9.986505800043233, 12.470069300034083, 16.354617800097913, 13.42447379999794, 30.516474900068715, 22.593778799986467]","[3.9026847999775782, 0.033489600056782365, 0.014265500009059906, 0.03407689998857677, 0.04844100004993379, 0.06543869990855455, 0.08708430000115186, 0.08072710002306849, 0.13086509995628148, 0.11130240000784397, 0.04667389998212457, 12.470075799967162, 0.04741170001216233, 13.424480199930258, 0.06360489991493523, 22.593785299919546]",0,,,,,,,,,,,,,,,,,,,,,,,,,,,,,,,,,,,,,,,,,,,,,,,,,,,,,,,,,,,,,,,,,,,,,,,,,,,,,,,,,,,,,,,,,,,,,,,,,,,,,,,,,,,,,,,,,,,,,,,,,,,,5DTLXW,train_x,blue_star,bottom_right,2025-09-08_15h10.13.688,HideSeek_v1,2022.2.5,59.94053897915899,
,7,1,4,1,-3,0,31,,train_dim1_1,1,30,,,,2,0,2,0,,,,,,,,,0,0,0,0,0,0,0,0,0,0,0,0,,,,,,,,,,,,,,,,,,,,,,,,,stimuli/alien_stimuli/31.png,,,,,,,,,,,,,,,,,,,,,,,,,,,,,,,,,,,,,,,30,,,,,,,,631.4621328999056,631.4621328999056,631.4621328999056,631.4621328999056,631.4621328999056,up,3.057813199935481,0,0,0,99,0.4,-0.24,up,2.9591837000334635,,,,,,,,,,,,,,,,,,,,,,,,,,,,,,,,,,,,,,,,,,,,,,,,,,,,,,,,,,,,5DTLXW,train_x,blue_star,bottom_right,2025-09-08_15h10.13.688,HideSeek_v1,2022.2.5,59.94053897915899,
,7,1,4,1,-3,0,31,,train_dim1_1,1,30,,,,2,0,2,0,,,,,,,,,0,0,0,0,0,0,0,0,1,0,1,0,,,,,,,,,,,,,,,,,,,,,,,,,,,,,,,,,,,,,,,,,,,,,,,,,,,,,,,,,,,,,,,,30,,,,,,,,634.50819339999,634.50819339999,634.50819339999,634.50819339999,634.50819339999,up,1.6937881000339985,0,0,0,99,0.4,-0.15999999999999998,up,1.6172254999401048,,,,,,,,,,,,,,,,,,,,,,,,,,,,,,,,,,,,,,,,,,,,,,,,,,,,,,,,,,,,5DTLXW,train_x,blue_star,bottom_right,2025-09-08_15h10.13.688,HideSeek_v1,2022.2.5,59.94053897915899,
,7,1,4,1,-3,0,31,,train_dim1_1,1,30,,,,2,0,2,0,,,,,,,,,0,0,0,0,0,0,0,0,2,0,2,0,,,,,,,,,,,,,,,,,,,,,,,,,,,,,,,,,,,,,,,,,,,,,,,,,,,,,,,,,,,,,,,,30,,,,,,,,636.20981879998,636.20981879998,636.20981879998,636.20981879998,636.20981879998,up,3.161713400040753,0,0,0,99,0.4,-0.07999999999999997,up,3.072371599962935,,,,,,,,,,,,,,,,,,,,,,,,,,,,,,,,,,,,,,,,,,,,,,,,,,,,,,,,,,,,5DTLXW,train_x,blue_star,bottom_right,2025-09-08_15h10.13.688,HideSeek_v1,2022.2.5,59.94053897915899,
,7,1,4,1,-3,0,31,,train_dim1_1,1,30,,,,2,0,2,0,,,,,,,,,0,0,0,0,0,0,0,0,3,0,3,0,,,,,,,,,,,,,,,,,,,,,,,,,,,,,,,,,,,,,,,,,,,,,,,,,,,,,,,,,,,,,,,,30,,,,,,,,639.3795495999511,639.3795495999511,639.3795495999511,639.3795495999511,639.3795495999511,up,0.5594183000503108,0,0,0,99,0.4,2.7755575615628914e-17,up,0.48634930001571774,,,,,,,,,,,,,,,,,,,,,,,,,,,,,,,,,,,,,,,,,,,,,,,,,,,,,,,,,,,,5DTLXW,train_x,blue_star,bottom_right,2025-09-08_15h10.13.688,HideSeek_v1,2022.2.5,59.94053897915899,
,7,1,4,1,-3,0,31,,train_dim1_1,1,30,,,,2,0,2,0,,,,,,,,,0,0,0,0,0,0,0,0,4,0,4,0,,,,,,,,,,,,,,,,,,,,,,,,,,,,,,,,,,,,,,,,,,,,,,,,,,,,,,,,,,,,,,,,30,,,,,,,,639.9460383999394,639.9460383999394,639.9460383999394,639.9460383999394,639.9460383999394,return,0.743542299955152,0,0,0,0,0.4,2.7755575615628914e-17,return,0.6595313000725582,4,0,0.4,2.7755575615628914e-17,,,,,,,,,,,,,,,,,,,,,,,,,,,,,,,,,,,,,,,,,,,,,,,,,,,,,,,,5DTLXW,train_x,blue_star,bottom_right,2025-09-08_15h10.13.688,HideSeek_v1,2022.2.5,59.94053897915899,
,7,4,2,4,-5,0,11,,train_dim1_1,2,30,,,,2,0,2,0,,,,,,,,,0,0,0,0,0,1,1,1,0,0,0,0,,,,,,,,,,,,,,,,,,,,,,,,,stimuli/alien_stimuli/11.png,,,,,,,,,,,,,,,,,,,,,,,,,,,,,stimuli/alien_stimuli/31.png,31,7,3,,,,,,,30,,,,,,,,660.2467166999122,660.2467166999122,660.2467166999122,660.2467166999122,660.2467166999122,left,2.4853220999939367,0,0,0,99,0.32,-0.08,left,2.3818494000006467,,,,,658.6635969999479,660.2467166999122,0.16,-0.32,0.0,0.24,-0.32,0.16,0.28,0.16,-0.32,642.2658010999439,642.2658010999439,642.2658010999439,642.2658010999439,642.2658010999439,642.2658010999439,642.2658010999439,642.2658010999439,642.2499994399609,16.51605470001232,return,16.37845219997689,,,,,,,,,,,,,,,,,,,,,,,,,,,,,,,,,5DTLXW,train_x,blue_star,bottom_right,2025-09-08_15h10.13.688,HideSeek_v1,2022.2.5,59.94053897915899,
,7,4,2,4,-5,0,11,,train_dim1_1,2,30,,,,2,0,2,0,,,,,,,,,0,0,0,0,0,1,1,1,1,0,1,0,,,,,,,,,,,,,,,,,,,,,,,,,,,,,,,,,,,,,,,,,,,,,,,,,,,,,,,,,,,,,,,,30,,,,,,,,662.7186901998939,662.7186901998939,662.7186901998939,662.7186901998939,662.7186901998939,left,0.425988300004974,0,0,0,99,0.24,-0.08,left,0.3389874999411404,,,,,,,,,,,,,,,,,,,,,,,,,,,,,,,,,,,,,,,,,,,,,,,,,,,,,,,,,,,,5DTLXW,train_x,blue_star,bottom_right,2025-09-08_15h10.13.688,HideSeek_v1,2022.2.5,59.94053897915899,
,7,4,2,4,-5,0,11,,train_dim1_1,2,30,,,,2,0,2,0,,,,,,,,,0,0,0,0,0,1,1,1,2,0,2,0,,,,,,,,,,,,,,,,,,,,,,,,,,,,,,,,,,,,,,,,,,,,,,,,,,,,,,,,,,,,,,,,30,,,,,,,,663.1521116999211,663.1521116999211,663.1521116999211,663.1521116999211,663.1521116999211,left,0.3267258999403566,0,0,0,99,0.15999999999999998,-0.08,left,0.24581470002885908,,,,,,,,,,,,,,,,,,,,,,,,,,,,,,,,,,,,,,,,,,,,,,,,,,,,,,,,,,,,5DTLXW,train_x,blue_star,bottom_right,2025-09-08_15h10.13.688,HideSeek_v1,2022.2.5,59.94053897915899,
,7,4,2,4,-5,0,11,,train_dim1_1,2,30,,,,2,0,2,0,,,,,,,,,0,0,0,0,0,1,1,1,3,0,3,0,,,,,,,,,,,,,,,,,,,,,,,,,,,,,,,,,,,,,,,,,,,,,,,,,,,,,,,,,,,,,,,,30,,,,,,,,663.4855026999721,663.4855026999721,663.4855026999721,663.4855026999721,663.4855026999721,left,0.3099830000428483,0,0,0,99,0.07999999999999997,-0.08,left,0.22783180000260472,,,,,,,,,,,,,,,,,,,,,,,,,,,,,,,,,,,,,,,,,,,,,,,,,,,,,,,,,,,,5DTLXW,train_x,blue_star,bottom_right,2025-09-08_15h10.13.688,HideSeek_v1,2022.2.5,59.94053897915899,
,7,4,2,4,-5,0,11,,train_dim1_1,2,30,,,,2,0,2,0,,,,,,,,,0,0,0,0,0,1,1,1,4,0,4,0,,,,,,,,,,,,,,,,,,,,,,,,,,,,,,,,,,,,,,,,,,,,,,,,,,,,,,,,,,,,,,,,30,,,,,,,,663.8017921999563,663.8017921999563,663.8017921999563,663.8017921999563,663.8017921999563,left,0.2930560000240803,0,0,0,99,-2.7755575615628914e-17,-0.08,left,0.21175250003580004,,,,,,,,,,,,,,,,,,,,,,,,,,,,,,,,,,,,,,,,,,,,,,,,,,,,,,,,,,,,5DTLXW,train_x,blue_star,bottom_right,2025-09-08_15h10.13.688,HideSeek_v1,2022.2.5,59.94053897915899,
,7,4,2,4,-5,0,11,,train_dim1_1,2,30,,,,2,0,2,0,,,,,,,,,0,0,0,0,0,1,1,1,5,0,5,0,,,,,,,,,,,,,,,,,,,,,,,,,,,,,,,,,,,,,,,,,,,,,,,,,,,,,,,,,,,,,,,,30,,,,,,,,664.1029558998998,664.1029558998998,664.1029558998998,664.1029558998998,664.1029558998998,return,0.5102476999163628,1,0,0,1,-2.7755575615628914e-17,-0.08,return,0.418854899937287,4,-5,-2.7755575615628914e-17,-0.08,,,,,,,,,,,,,,,,,,,,,,,,,,,,,,,,,,,,,,,,,,,,,,,,,,,,,,,,5DTLXW,train_x,blue_star,bottom_right,2025-09-08_15h10.13.688,HideSeek_v1,2022.2.5,59.94053897915899,
,9,4,5,4,-4,0,21,,train_dim1_1,3,30,,,,2,0,2,0,,,,,,,,,0,0,0,0,0,2,2,2,0,0,0,0,,,,,,,,,,,,,,,,,,,,,,,,,stimuli/alien_stimuli/21.png,,,,,,,,,,,,,,,,,,,,,,,,,,,,,stimuli/alien_stimuli/11.png,11,7,4,,,,,,,30,,,,,,,,672.2226986999158,672.2226986999158,672.2226986999158,672.2226986999158,672.2226986999158,left,5.990174499922432,1,0,0,99,0.48000000000000004,-0.08,left,5.904536499991082,,,,,670.6568097999552,672.2226986999158,0,-0.08,0.0,0.4,-0.08,0,0.2,0,-0.08,666.2027180999285,666.2027180999285,666.2027180999285,666.2027180999285,666.2027180999285,666.2027180999285,666.2027180999285,666.2027180999285,666.1868096599588,4.588877200032584,return,4.437007799977437,,,,,,,,,,,,,,,,,,,,,,,,,,,,,,,,,5DTLXW,train_x,blue_star,bottom_right,2025-09-08_15h10.13.688,HideSeek_v1,2022.2.5,59.94053897915899,
,9,4,5,4,-4,0,21,,train_dim1_1,3,30,,,,2,0,2,0,,,,,,,,,0,0,0,0,0,2,2,2,1,0,1,0,,,,,,,,,,,,,,,,,,,,,,,,,,,,,,,,,,,,,,,,,,,,,,,,,,,,,,,,,,,,,,,,30,,,,,,,,678.221246299916,678.221246299916,678.221246299916,678.221246299916,678.221246299916,left,0.1898466000566259,1,0,0,99,0.4,-0.08,left,0.10472830000799149,,,,,,,,,,,,,,,,,,,,,,,,,,,,,,,,,,,,,,,,,,,,,,,,,,,,,,,,,,,,5DTLXW,train_x,blue_star,bottom_right,2025-09-08_15h10.13.688,HideSeek_v1,2022.2.5,59.94053897915899,
,9,4,5,4,-4,0,21,,train_dim1_1,3,30,,,,2,0,2,0,,,,,,,,,0,0,0,0,0,2,2,2,2,0,2,0,,,,,,,,,,,,,,,,,,,,,,,,,,,,,,,,,,,,,,,,,,,,,,,,,,,,,,,,,,,,,,,,30,,,,,,,,678.4149533999152,678.4149533999152,678.4149533999152,678.4149533999152,678.4149533999152,left,0.2432734000030905,1,0,0,99,0.32,-0.08,left,0.16043640009593219,,,,,,,,,,,,,,,,,,,,,,,,,,,,,,,,,,,,,,,,,,,,,,,,,,,,,,,,,,,,5DTLXW,train_x,blue_star,bottom_right,2025-09-08_15h10.13.688,HideSeek_v1,2022.2.5,59.94053897915899,
,9,4,5,4,-4,0,21,,train_dim1_1,3,30,,,,2,0,2,0,,,,,,,,,0,0,0,0,0,2,2,2,3,0,3,0,,,,,,,,,,,,,,,,,,,,,,,,,,,,,,,,,,,,,,,,,,,,,,,,,,,,,,,,,,,,,,,,30,,,,,,,,678.6654095998965,678.6654095998965,678.6654095998965,678.6654095998965,678.6654095998965,return,0.7937264000065625,1,1,0,0,0.32,-0.08,return,0.7102261999389157,4,-8,0.32,-0.08,,,,,,,,,,,,,,,,,,,,,,,,,,,,,,,,,,,,,,,,,,,,,,,,,,,,,,,,5DTLXW,train_x,blue_star,bottom_right,2025-09-08_15h10.13.688,HideSeek_v1,2022.2.5,59.94053897915899,
,7,3,6,3,-1,0,51,,train_dim1_1,4,30,,,,2,0,2,0,,,,,,,,,0,0,0,0,0,3,3,3,0,0,0,0,,,,,,,,,,,,,,,,,,,,,,,,,stimuli/alien_stimuli/51.png,,,,,,,,,,,,,,,,,,,,,,,,,,,,,stimuli/alien_stimuli/21.png,21,9,5,,,,,,,30,,,,,,,,694.825314699905,694.825314699905,694.825314699905,694.825314699905,694.825314699905,right,1.8049152999883518,1,1,0,99,0.48000000000000004,-0.16,right,1.6956026999978349,,,,,693.2422811998986,694.825314699905,0.24,-0.08,0.0,0.32,-0.08,0.24,0.4,0.24,-0.08,681.0310290999478,681.0310290999478,681.0310290999478,681.0310290999478,681.0310290999478,681.0310290999478,681.0310290999478,681.0310290999478,681.0153968399741,12.329076699912548,return,12.183337999973446,,,,,,,,,,,,,,,,,,,,,,,,,,,,,,,,,5DTLXW,train_x,blue_star,bottom_right,2025-09-08_15h10.13.688,HideSeek_v1,2022.2.5,59.94053897915899,
,7,3,6,3,-1,0,51,,train_dim1_1,4,30,,,,2,0,2,0,,,,,,,,,0,0,0,0,0,3,3,3,1,0,1,0,,,,,,,,,,,,,,,,,,,,,,,,,,,,,,,,,,,,,,,,,,,,,,,,,,,,,,,,,,,,,,,,30,,,,,,,,696.6115530999377,696.6115530999377,696.6115530999377,696.6115530999377,696.6115530999377,return,0.5097578000277281,1,0,0,0,0.48000000000000004,-0.16,return,0.4223878999473527,4,-7,0.48000000000000004,-0.16,,,,,,,,,,,,,,,,,,,,,,,,,,,,,,,,,,,,,,,,,,,,,,,,,,,,,,,,5DTLXW,train_x,blue_star,bottom_right,2025-09-08_15h10.13.688,HideSeek_v1,2022.2.5,59.94053897915899,
,5,2,5,2,0,0,61,,train_dim1_1,5,30,,,,2,0,2,0,,,,,,,,,0,0,0,0,0,4,4,4,0,0,0,0,,,,,,,,,,,,,,,,,,,,,,,,,stimuli/alien_stimuli/61.png,,,,,,,,,,,,,,,,,,,,,,,,,,,,,stimuli/alien_stimuli/51.png,51,7,6,,,,,,,30,,,,,,,,704.7986503998982,704.7986503998982,704.7986503998982,704.7986503998982,704.7986503998982,left,2.436232200008817,1,0,0,99,0.15999999999999998,-0.24,left,2.3401611000299454,,,,,703.2339411999565,704.7986503998982,0.32,-0.16,0.0,0.08,-0.16,0.32,0.36,0.32,-0.16,698.7052813000046,698.7052813000046,698.7052813000046,698.7052813000046,698.7052813000046,698.7052813000046,698.7052813000046,698.7052813000046,698.6969271599315,4.655657400027849,return,4.51143630000297,,,,,,,,,,,,,,,,,,,,,,,,,,,,,,,,,5DTLXW,train_x,blue_star,bottom_right,2025-09-08_15h10.13.688,HideSeek_v1,2022.2.5,59.94053897915899,
,5,2,5,2,0,0,61,,train_dim1_1,5,30,,,,2,0,2,0,,,,,,,,,0,0,0,0,0,4,4,4,1,0,1,0,,,,,,,,,,,,,,,,,,,,,,,,,,,,,,,,,,,,,,,,,,,,,,,,,,,,,,,,,,,,,,,,30,,,,,,,,707.2397453999147,707.2397453999147,707.2397453999147,707.2397453999147,707.2397453999147,return,0.3928598000202328,1,1,0,0,0.15999999999999998,-0.24,return,0.3044474000344053,4,-8,0.15999999999999998,-0.24,,,,,,,,,,,,,,,,,,,,,,,,,,,,,,,,,,,,,,,,,,,,,,,,,,,,,,,,5DTLXW,train_x,blue_star,bottom_right,2025-09-08_15h10.13.688,HideSeek_v1,2022.2.5,59.94053897915899,
,5,0,1,0,-4,0,21,,train_dim1_1,6,30,,,,2,0,2,0,,,,,,,,,0,0,0,0,0,5,5,5,0,0,0,0,,,,,,,,,,,,,,,,,,,,,,,,,stimuli/alien_stimuli/21.png,,,,,,,,,,,,,,,,,,,,,,,,,,,,,stimuli/alien_stimuli/61.png,61,5,7,,,,,,,30,,,,,,,,715.9627283998998,715.9627283998998,715.9627283998998,715.9627283998998,715.9627283998998,left,2.6352491999277845,1,1,0,99,0.15999999999999998,-0.4,left,2.549813500023447,,,,,714.3932076999918,715.9627283998998,0.24,-0.24,0.0,0.0,-0.24,0.24,0.24,0.24,-0.24,709.1979218999622,709.1979218999622,709.1979218999622,709.1979218999622,709.1979218999622,709.1979218999622,709.1979218999622,709.1979218999622,709.1889579400072,5.306463000015356,return,5.176447100006044,,,,,,,,,,,,,,,,,,,,,,,,,,,,,,,,,5DTLXW,train_x,blue_star,bottom_right,2025-09-08_15h10.13.688,HideSeek_v1,2022.2.5,59.94053897915899,
,5,0,1,0,-4,0,21,,train_dim1_1,6,30,,,,2,0,2,0,,,,,,,,,0,0,0,0,0,5,5,5,1,0,1,0,,,,,,,,,,,,,,,,,,,,,,,,,,,,,,,,,,,,,,,,,,,,,,,,,,,,,,,,,,,,,,,,30,,,,,,,,718.6014562000055,718.6014562000055,718.6014562000055,718.6014562000055,718.6014562000055,left,0.8733943999977782,1,1,0,99,0.07999999999999997,-0.4,left,0.7837302000261843,,,,,,,,,,,,,,,,,,,,,,,,,,,,,,,,,,,,,,,,,,,,,,,,,,,,,,,,,,,,5DTLXW,train_x,blue_star,bottom_right,2025-09-08_15h10.13.688,HideSeek_v1,2022.2.5,59.94053897915899,
,5,0,1,0,-4,0,21,,train_dim1_1,6,30,,,,2,0,2,0,,,,,,,,,0,0,0,0,0,5,5,5,2,0,2,0,,,,,,,,,,,,,,,,,,,,,,,,,,,,,,,,,,,,,,,,,,,,,,,,,,,,,,,,,,,,,,,,30,,,,,,,,719.4857677998953,719.4857677998953,719.4857677998953,719.4857677998953,719.4857677998953,left,0.7240253000054508,1,1,0,99,-2.7755575615628914e-17,-0.4,left,0.6423073000041768,,,,,,,,,,,,,,,,,,,,,,,,,,,,,,,,,,,,,,,,,,,,,,,,,,,,,,,,,,,,5DTLXW,train_x,blue_star,bottom_right,2025-09-08_15h10.13.688,HideSeek_v1,2022.2.5,59.94053897915899,
,5,0,1,0,-4,0,21,,train_dim1_1,6,30,,,,2,0,2,0,,,,,,,,,0,0,0,0,0,5,5,5,3,0,3,0,,,,,,,,,,,,,,,,,,,,,,,,,,,,,,,,,,,,,,,,,,,,,,,,,,,,,,,,,,,,,,,,30,,,,,,,,720.2207904999377,720.2207904999377,720.2207904999377,720.2207904999377,720.2207904999377,return,0.9740515999728814,1,1,0,0,-2.7755575615628914e-17,-0.4,return,0.8906671999720857,4,-11,-2.7755575615628914e-17,-0.4,,,,,,,,,,,,,,,,,,,,,,,,,,,,,,,,,,,,,,,,,,,,,,,,,,,,,,,,5DTLXW,train_x,blue_star,bottom_right,2025-09-08_15h10.13.688,HideSeek_v1,2022.2.5,59.94053897915899,
,8,0,8,0,0,0,61,,train_dim1_1,7,30,,,,2,0,2,0,,,,,,,,,0,0,0,0,0,6,6,6,0,0,0,0,,,,,,,,,,,,,,,,,,,,,,,,,stimuli/alien_stimuli/61.png,,,,,,,,,,,,,,,,,,,,,,,,,,,,,stimuli/alien_stimuli/21.png,21,5,8,,,,,,,30,,,,,,,,728.8321360999253,728.8321360999253,728.8321360999253,728.8321360999253,728.8321360999253,return,1.7045120999682695,2,0,0,1,0.48,-0.4,return,1.6119139000074938,4,-11,0.48,-0.4,727.2705725999549,728.8321360999253,-0.08,-0.4,0.0,0.32,-0.4,-0.08,0.07999999999999999,-0.08,-0.4,722.7782667999854,722.7782667999854,722.7782667999854,722.7782667999854,722.7782667999854,722.7782667999854,722.7782667999854,722.7782667999854,722.7666928599589,4.622791500063613,return,4.471100199967623,,,,,,,,,,,,,,,,,,,,,,,,,,,,,,,,,5DTLXW,train_x,blue_star,bottom_right,2025-09-08_15h10.13.688,HideSeek_v1,2022.2.5,59.94053897915899,
,5,4,2,4,-3,0,31,,train_dim1_1,8,30,,,,2,0,2,0,,,,,,,,,0,0,0,0,0,7,7,7,0,0,0,0,,,,,,,,,,,,,,,,,,,,,,,,,stimuli/alien_stimuli/31.png,,,,,,,,,,,,,,,,,,,,,,,,,,,,,stimuli/alien_stimuli/61.png,61,8,9,,,,,,,30,,,,,,,,739.1434471999528,739.1434471999528,739.1434471999528,739.1434471999528,739.1434471999528,left,16.416610500076786,2,0,0,99,0.15999999999999998,-0.08,left,16.32972429995425,,,,,737.579044999904,739.1434471999528,0.48,-0.4,0.0,0.0,-0.4,0.48,0.48,0.48,-0.4,732.1005012999522,732.1005012999522,732.1005012999522,732.1005012999522,732.1005012999522,732.1005012999522,732.1005012999522,732.1005012999522,732.0913821399795,5.589877699967474,return,5.462069200002588,,,,,,,,,,,,,,,,,,,,,,,,,,,,,,,,,5DTLXW,train_x,blue_star,bottom_right,2025-09-08_15h10.13.688,HideSeek_v1,2022.2.5,59.94053897915899,
,5,4,2,4,-3,0,31,,train_dim1_1,8,30,,,,2,0,2,0,,,,,,,,,0,0,0,0,0,7,7,7,1,0,1,0,,,,,,,,,,,,,,,,,,,,,,,,,,,,,,,,,,,,,,,,,,,,,,,,,,,,,,,,,,,,,,,,30,,,,,,,,755.5667388999136,755.5667388999136,755.5667388999136,755.5667388999136,755.5667388999136,left,0.37613210000563413,2,0,0,99,0.07999999999999997,-0.08,left,0.28860400000121444,,,,,,,,,,,,,,,,,,,,,,,,,,,,,,,,,,,,,,,,,,,,,,,,,,,,,,,,,,,,5DTLXW,train_x,blue_star,bottom_right,2025-09-08_15h10.13.688,HideSeek_v1,2022.2.5,59.94053897915899,
,5,4,2,4,-3,0,31,,train_dim1_1,8,30,,,,2,0,2,0,,,,,,,,,0,0,0,0,0,7,7,7,2,0,2,0,,,,,,,,,,,,,,,,,,,,,,,,,,,,,,,,,,,,,,,,,,,,,,,,,,,,,,,,,,,,,,,,30,,,,,,,,755.9440117999911,755.9440117999911,755.9440117999911,755.9440117999911,755.9440117999911,left,0.3240110999904573,2,0,0,99,-2.7755575615628914e-17,-0.08,left,0.25074449996463954,,,,,,,,,,,,,,,,,,,,,,,,,,,,,,,,,,,,,,,,,,,,,,,,,,,,,,,,,,,,5DTLXW,train_x,blue_star,bottom_right,2025-09-08_15h10.13.688,HideSeek_v1,2022.2.5,59.94053897915899,
,5,4,2,4,-3,0,31,,train_dim1_1,8,30,,,,2,0,2,0,,,,,,,,,0,0,0,0,0,7,7,7,3,0,3,0,,,,,,,,,,,,,,,,,,,,,,,,,,,,,,,,,,,,,,,,,,,,,,,,,,,,,,,,,,,,,,,,30,,,,,,,,756.2741678999737,756.2741678999737,756.2741678999737,756.2741678999737,756.2741678999737,return,1.277544099953957,3,0,0,1,-2.7755575615628914e-17,-0.08,return,1.1952644999837503,4,-14,-2.7755575615628914e-17,-0.08,,,,,,,,,,,,,,,,,,,,,,,,,,,,,,,,,,,,,,,,,,,,,,,,,,,,,,,,5DTLXW,train_x,blue_star,bottom_right,2025-09-08_15h10.13.688,HideSeek_v1,2022.2.5,59.94053897915899,
,6,0,5,0,-1,0,51,,train_dim1_1,9,30,,,,2,0,2,0,,,,,,,,,0,0,0,0,0,8,8,8,0,0,0,0,,,,,,,,,,,,,,,,,,,,,,,,,stimuli/alien_stimuli/51.png,,,,,,,,,,,,,,,,,,,,,,,,,,,,,stimuli/alien_stimuli/31.png,31,5,10,,,,,,,30,,,,,,,,765.631380799925,765.631380799925,765.631380799925,765.631380799925,765.631380799925,left,2.3889791999245062,3,0,0,99,0.24,-0.4,left,2.3041546000167727,,,,,764.0675939999055,765.631380799925,0,-0.08,0.0,0.24,-0.08,0,0.12,0,-0.08,759.1352682999568,759.1352682999568,759.1352682999568,759.1352682999568,759.1352682999568,759.1352682999568,759.1352682999568,759.1352682999568,759.1138436399983,5.0559806999517605,return,4.910743699991144,,,,,,,,,,,,,,,,,,,,,,,,,,,,,,,,,5DTLXW,train_x,blue_star,bottom_right,2025-09-08_15h10.13.688,HideSeek_v1,2022.2.5,59.94053897915899,
,6,0,5,0,-1,0,51,,train_dim1_1,9,30,,,,2,0,2,0,,,,,,,,,0,0,0,0,0,8,8,8,1,0,1,0,,,,,,,,,,,,,,,,,,,,,,,,,,,,,,,,,,,,,,,,,,,,,,,,,,,,,,,,,,,,,,,,30,,,,,,,,768.0208366999868,768.0208366999868,768.0208366999868,768.0208366999868,768.0208366999868,return,0.5097352000884712,4,0,0,1,0.24,-0.4,return,0.4254837000044063,4,-15,0.24,-0.4,,,,,,,,,,,,,,,,,,,,,,,,,,,,,,,,,,,,,,,,,,,,,,,,,,,,,,,,5DTLXW,train_x,blue_star,bottom_right,2025-09-08_15h10.13.688,HideSeek_v1,2022.2.5,59.94053897915899,
,5,3,0,3,-5,0,11,,train_dim1_1,10,30,,,,2,0,2,0,,,,,,,,,0,0,0,0,0,9,9,9,0,0,0,0,,,,,,,,,,,,,,,,,,,,,,,,,stimuli/alien_stimuli/11.png,,,,,,,,,,,,,,,,,,,,,,,,,,,,,stimuli/alien_stimuli/51.png,51,6,11,,,,,,,30,,,,,,,,775.4267885999288,775.4267885999288,775.4267885999288,775.4267885999288,775.4267885999288,left,2.921187400002964,4,0,0,99,0.15999999999999998,-0.16,left,2.8262716999743134,,,,,773.8592059999937,775.4267885999288,0.24,-0.4,0.0,0.08,-0.4,0.24,0.28,0.24,-0.4,770.1014933999395,770.1014933999395,770.1014933999395,770.1014933999395,770.1014933999395,770.1014933999395,770.1014933999395,770.1014933999395,770.0893449399505,3.8721789999399334,return,3.728167499997653,,,,,,,,,,,,,,,,,,,,,,,,,,,,,,,,,5DTLXW,train_x,blue_star,bottom_right,2025-09-08_15h10.13.688,HideSeek_v1,2022.2.5,59.94053897915899,
,5,3,0,3,-5,0,11,,train_dim1_1,10,30,,,,2,0,2,0,,,,,,,,,0,0,0,0,0,9,9,9,1,0,1,0,,,,,,,,,,,,,,,,,,,,,,,,,,,,,,,,,,,,,,,,,,,,,,,,,,,,,,,,,,,,,,,,30,,,,,,,,778.3482072999468,778.3482072999468,778.3482072999468,778.3482072999468,778.3482072999468,left,0.443037600023672,4,0,0,99,0.07999999999999997,-0.16,left,0.36096229997929186,,,,,,,,,,,,,,,,,,,,,,,,,,,,,,,,,,,,,,,,,,,,,,,,,,,,,,,,,,,,5DTLXW,train_x,blue_star,bottom_right,2025-09-08_15h10.13.688,HideSeek_v1,2022.2.5,59.94053897915899,
,5,3,0,3,-5,0,11,,train_dim1_1,10,30,,,,2,0,2,0,,,,,,,,,0,0,0,0,0,9,9,9,2,0,2,0,,,,,,,,,,,,,,,,,,,,,,,,,,,,,,,,,,,,,,,,,,,,,,,,,,,,,,,,,,,,,,,,30,,,,,,,,778.7984528999077,778.7984528999077,778.7984528999077,778.7984528999077,778.7984528999077,left,0.42627830000128597,4,0,0,99,-2.7755575615628914e-17,-0.16,left,0.3449019000399858,,,,,,,,,,,,,,,,,,,,,,,,,,,,,,,,,,,,,,,,,,,,,,,,,,,,,,,,,,,,5DTLXW,train_x,blue_star,bottom_right,2025-09-08_15h10.13.688,HideSeek_v1,2022.2.5,59.94053897915899,
,5,3,0,3,-5,0,11,,train_dim1_1,10,30,,,,2,0,2,0,,,,,,,,,0,0,0,0,0,9,9,9,3,0,3,0,,,,,,,,,,,,,,,,,,,,,,,,,,,,,,,,,,,,,,,,,,,,,,,,,,,,,,,,,,,,,,,,30,,,,,,,,779.2313351999037,779.2313351999037,779.2313351999037,779.2313351999037,779.2313351999037,left,0.3931449999799952,4,0,0,99,-0.08000000000000003,-0.16,left,0.30028589989524335,,,,,,,,,,,,,,,,,,,,,,,,,,,,,,,,,,,,,,,,,,,,,,,,,,,,,,,,,,,,5DTLXW,train_x,blue_star,bottom_right,2025-09-08_15h10.13.688,HideSeek_v1,2022.2.5,59.94053897915899,
,5,3,0,3,-5,0,11,,train_dim1_1,10,30,,,,2,0,2,0,,,,,,,,,0,0,0,0,0,9,9,9,4,0,4,0,,,,,,,,,,,,,,,,,,,,,,,,,,,,,,,,,,,,,,,,,,,,,,,,,,,,,,,,,,,,,,,,30,,,,,,,,779.6332259000046,779.6332259000046,779.6332259000046,779.6332259000046,779.6332259000046,left,0.3586164000444114,4,0,0,99,-0.16000000000000003,-0.16,left,0.26589589996729046,,,,,,,,,,,,,,,,,,,,,,,,,,,,,,,,,,,,,,,,,,,,,,,,,,,,,,,,,,,,5DTLXW,train_x,blue_star,bottom_right,2025-09-08_15h10.13.688,HideSeek_v1,2022.2.5,59.94053897915899,
,5,3,0,3,-5,0,11,,train_dim1_1,10,30,,,,2,0,2,0,,,,,,,,,0,0,0,0,0,9,9,9,5,0,5,0,,,,,,,,,,,,,,,,,,,,,,,,,,,,,,,,,,,,,,,,,,,,,,,,,,,,,,,,,,,,,,,,30,,,,,,,,779.998806699994,779.998806699994,779.998806699994,779.998806699994,779.998806699994,return,3.6294445999665186,5,0,0,1,-0.16000000000000003,-0.16,return,3.5374236999778077,4,-20,-0.16000000000000003,-0.16,,,,,,,,,,,,,,,,,,,,,,,,,,,,,,,,,,,,,,,,,,,,,,,,,,,,,,,,5DTLXW,train_x,blue_star,bottom_right,2025-09-08_15h10.13.688,HideSeek_v1,2022.2.5,59.94053897915899,
,7,2,4,2,-3,0,31,,train_dim1_1,11,30,,,,2,0,2,0,,,,,,,,,0,0,0,0,0,10,10,10,0,0,0,0,,,,,,,,,,,,,,,,,,,,,,,,,stimuli/alien_stimuli/31.png,,,,,,,,,,,,,,,,,,,,,,,,,,,,,stimuli/alien_stimuli/11.png,11,5,12,,,,,,,30,,,,,,,,792.1519020999549,792.1519020999549,792.1519020999549,792.1519020999549,792.1519020999549,left,2.5559672999661416,5,0,0,99,0.32,-0.24,left,2.4594229999929667,,,,,790.589696799987,792.1519020999549,-0.16,-0.16,0.0,0.4,-0.16,-0.16,0.039999999999999994,-0.16,-0.16,785.2080921999877,785.2080921999877,785.2080921999877,785.2080921999877,785.2080921999877,785.2080921999877,785.2080921999877,785.2080921999877,785.2016980599379,5.506877799984068,return,5.35507160006091,,,,,,,,,,,,,,,,,,,,,,,,,,,,,,,,,5DTLXW,train_x,blue_star,bottom_right,2025-09-08_15h10.13.688,HideSeek_v1,2022.2.5,59.94053897915899,
,7,2,4,2,-3,0,31,,train_dim1_1,11,30,,,,2,0,2,0,,,,,,,,,0,0,0,0,0,10,10,10,1,0,1,0,,,,,,,,,,,,,,,,,,,,,,,,,,,,,,,,,,,,,,,,,,,,,,,,,,,,,,,,,,,,,,,,30,,,,,,,,794.707704499946,794.707704499946,794.707704499946,794.707704499946,794.707704499946,left,0.7262305000331253,5,0,0,99,0.24,-0.24,left,0.6406571000115946,,,,,,,,,,,,,,,,,,,,,,,,,,,,,,,,,,,,,,,,,,,,,,,,,,,,,,,,,,,,5DTLXW,train_x,blue_star,bottom_right,2025-09-08_15h10.13.688,HideSeek_v1,2022.2.5,59.94053897915899,
,7,2,4,2,-3,0,31,,train_dim1_1,11,30,,,,2,0,2,0,,,,,,,,,0,0,0,0,0,10,10,10,2,0,2,0,,,,,,,,,,,,,,,,,,,,,,,,,,,,,,,,,,,,,,,,,,,,,,,,,,,,,,,,,,,,,,,,30,,,,,,,,795.4427796999225,795.4427796999225,795.4427796999225,795.4427796999225,795.4427796999225,left,0.4266126999864355,5,0,0,99,0.15999999999999998,-0.24,left,0.346252900082618,,,,,,,,,,,,,,,,,,,,,,,,,,,,,,,,,,,,,,,,,,,,,,,,,,,,,,,,,,,,5DTLXW,train_x,blue_star,bottom_right,2025-09-08_15h10.13.688,HideSeek_v1,2022.2.5,59.94053897915899,
,7,2,4,2,-3,0,31,,train_dim1_1,11,30,,,,2,0,2,0,,,,,,,,,0,0,0,0,0,10,10,10,3,0,3,0,,,,,,,,,,,,,,,,,,,,,,,,,,,,,,,,,,,,,,,,,,,,,,,,,,,,,,,,,,,,,,,,30,,,,,,,,795.8743356999476,795.8743356999476,795.8743356999476,795.8743356999476,795.8743356999476,return,3.979749499936588,6,0,0,1,0.15999999999999998,-0.24,return,3.8969844999955967,4,-23,0.15999999999999998,-0.24,,,,,,,,,,,,,,,,,,,,,,,,,,,,,,,,,,,,,,,,,,,,,,,,,,,,,,,,5DTLXW,train_x,blue_star,bottom_right,2025-09-08_15h10.13.688,HideSeek_v1,2022.2.5,59.94053897915899,
,5,0,1,0,-4,0,21,,train_dim1_1,12,30,,,,2,0,2,0,,,,,,,,,0,0,0,0,0,11,11,11,0,0,0,0,,,,,,,,,,,,,,,,,,,,,,,,,stimuli/alien_stimuli/21.png,,,,,,,,,,,,,,,,,,,,,,,,,,,,,stimuli/alien_stimuli/31.png,31,7,13,,,,,,,30,,,,,,,,806.9541612999747,806.9541612999747,806.9541612999747,806.9541612999747,806.9541612999747,left,2.9866222999989986,6,0,0,99,0.15999999999999998,-0.4,left,2.9013122000033036,,,,,805.3852644999279,806.9541612999747,0.16,-0.24,0.0,0.24,-0.24,0.16,0.28,0.16,-0.24,801.4299801999005,801.4299801999005,801.4299801999005,801.4299801999005,801.4299801999005,801.4299801999005,801.4299801999005,801.4299801999005,801.4153290399468,4.072487800032832,return,3.9321234000381082,,,,,,,,,,,,,,,,,,,,,,,,,,,,,,,,,5DTLXW,train_x,blue_star,bottom_right,2025-09-08_15h10.13.688,HideSeek_v1,2022.2.5,59.94053897915899,
,5,0,1,0,-4,0,21,,train_dim1_1,12,30,,,,2,0,2,0,,,,,,,,,0,0,0,0,0,11,11,11,1,0,1,0,,,,,,,,,,,,,,,,,,,,,,,,,,,,,,,,,,,,,,,,,,,,,,,,,,,,,,,,,,,,,,,,30,,,,,,,,809.9405564999906,809.9405564999906,809.9405564999906,809.9405564999906,809.9405564999906,left,0.32629260001704097,6,0,0,99,0.07999999999999997,-0.4,left,0.23676909995265305,,,,,,,,,,,,,,,,,,,,,,,,,,,,,,,,,,,,,,,,,,,,,,,,,,,,,,,,,,,,5DTLXW,train_x,blue_star,bottom_right,2025-09-08_15h10.13.688,HideSeek_v1,2022.2.5,59.94053897915899,
,5,0,1,0,-4,0,21,,train_dim1_1,12,30,,,,2,0,2,0,,,,,,,,,0,0,0,0,0,11,11,11,2,0,2,0,,,,,,,,,,,,,,,,,,,,,,,,,,,,,,,,,,,,,,,,,,,,,,,,,,,,,,,,,,,,,,,,30,,,,,,,,810.2752997999778,810.2752997999778,810.2752997999778,810.2752997999778,810.2752997999778,left,0.2927876999601722,6,0,0,99,-2.7755575615628914e-17,-0.4,left,0.19959219999145716,,,,,,,,,,,,,,,,,,,,,,,,,,,,,,,,,,,,,,,,,,,,,,,,,,,,,,,,,,,,5DTLXW,train_x,blue_star,bottom_right,2025-09-08_15h10.13.688,HideSeek_v1,2022.2.5,59.94053897915899,
,5,0,1,0,-4,0,21,,train_dim1_1,12,30,,,,2,0,2,0,,,,,,,,,0,0,0,0,0,11,11,11,3,0,3,0,,,,,,,,,,,,,,,,,,,,,,,,,,,,,,,,,,,,,,,,,,,,,,,,,,,,,,,,,,,,,,,,30,,,,,,,,810.5734190999065,810.5734190999065,810.5734190999065,810.5734190999065,810.5734190999065,left,0.26014949998352677,6,0,0,99,-0.08000000000000003,-0.4,left,0.16753630002494901,,,,,,,,,,,,,,,,,,,,,,,,,,,,,,,,,,,,,,,,,,,,,,,,,,,,,,,,,,,,5DTLXW,train_x,blue_star,bottom_right,2025-09-08_15h10.13.688,HideSeek_v1,2022.2.5,59.94053897915899,
,5,0,1,0,-4,0,21,,train_dim1_1,12,30,,,,2,0,2,0,,,,,,,,,0,0,0,0,0,11,11,11,4,0,4,0,,,,,,,,,,,,,,,,,,,,,,,,,,,,,,,,,,,,,,,,,,,,,,,,,,,,,,,,,,,,,,,,30,,,,,,,,810.8406897999812,810.8406897999812,810.8406897999812,810.8406897999812,810.8406897999812,return,4.179515299969353,7,0,0,1,-0.08000000000000003,-0.4,return,4.096760699991137,4,-27,-0.08000000000000003,-0.4,,,,,,,,,,,,,,,,,,,,,,,,,,,,,,,,,,,,,,,,,,,,,,,,,,,,,,,,5DTLXW,train_x,blue_star,bottom_right,2025-09-08_15h10.13.688,HideSeek_v1,2022.2.5,59.94053897915899,
,5,4,4,4,-1,0,51,,train_dim1_1,13,30,,,,2,0,2,0,,,,,,,,,0,0,0,0,0,12,12,12,0,0,0,0,,,,,,,,,,,,,,,,,,,,,,,,,stimuli/alien_stimuli/51.png,,,,,,,,,,,,,,,,,,,,,,,,,,,,,stimuli/alien_stimuli/21.png,21,5,14,,,,,,,30,,,,,,,,822.5171785999555,822.5171785999555,822.5171785999555,822.5171785999555,822.5171785999555,left,2.035185100045055,7,0,0,99,0.15999999999999998,-0.08,left,1.939941499964334,,,,,820.9481991999783,822.5171785999555,-0.08,-0.4,0.0,0.32,-0.4,-0.08,0.07999999999999999,-0.08,-0.4,816.6086940999376,816.6086940999376,816.6086940999376,816.6086940999376,816.6086940999376,816.6086940999376,816.6086940999376,816.6086940999376,816.5942099599866,4.4729331999551505,return,4.322597500053234,,,,,,,,,,,,,,,,,,,,,,,,,,,,,,,,,5DTLXW,train_x,blue_star,bottom_right,2025-09-08_15h10.13.688,HideSeek_v1,2022.2.5,59.94053897915899,
,5,4,4,4,-1,0,51,,train_dim1_1,13,30,,,,2,0,2,0,,,,,,,,,0,0,0,0,0,12,12,12,1,0,1,0,,,,,,,,,,,,,,,,,,,,,,,,,,,,,,,,,,,,,,,,,,,,,,,,,,,,,,,,,,,,,,,,30,,,,,,,,824.5517633999698,824.5517633999698,824.5517633999698,824.5517633999698,824.5517633999698,return,0.7929332000203431,8,0,0,1,0.15999999999999998,-0.08,return,0.7031455000396818,4,-28,0.15999999999999998,-0.08,,,,,,,,,,,,,,,,,,,,,,,,,,,,,,,,,,,,,,,,,,,,,,,,,,,,,,,,5DTLXW,train_x,blue_star,bottom_right,2025-09-08_15h10.13.688,HideSeek_v1,2022.2.5,59.94053897915899,
,9,3,4,3,-5,0,11,,train_dim1_1,14,30,,,,2,0,2,0,,,,,,,,,0,0,0,0,0,13,13,13,0,0,0,0,,,,,,,,,,,,,,,,,,,,,,,,,stimuli/alien_stimuli/11.png,,,,,,,,,,,,,,,,,,,,,,,,,,,,,stimuli/alien_stimuli/51.png,51,5,15,,,,,,,30,,,,,,,,831.0875859999796,831.0875859999796,831.0875859999796,831.0875859999796,831.0875859999796,left,1.4882994999643415,8,0,0,99,0.48000000000000004,-0.16,left,1.3879586999537423,,,,,829.5218414999545,831.0875859999796,0.16,-0.08,0.0,0.08,-0.08,0.16,0.2,0.16,-0.08,826.9135996999685,826.9135996999685,826.9135996999685,826.9135996999685,826.9135996999685,826.9135996999685,826.9135996999685,826.9135996999685,826.903188439936,2.721445400035009,return,2.5787515999982134,,,,,,,,,,,,,,,,,,,,,,,,,,,,,,,,,5DTLXW,train_x,blue_star,bottom_right,2025-09-08_15h10.13.688,HideSeek_v1,2022.2.5,59.94053897915899,
,9,3,4,3,-5,0,11,,train_dim1_1,14,30,,,,2,0,2,0,,,,,,,,,0,0,0,0,0,13,13,13,1,0,1,0,,,,,,,,,,,,,,,,,,,,,,,,,,,,,,,,,,,,,,,,,,,,,,,,,,,,,,,,,,,,,,,,30,,,,,,,,832.5762327999109,832.5762327999109,832.5762327999109,832.5762327999109,832.5762327999109,left,0.1921279999660328,8,0,0,99,0.4,-0.16,left,0.10759120003785938,,,,,,,,,,,,,,,,,,,,,,,,,,,,,,,,,,,,,,,,,,,,,,,,,,,,,,,,,,,,5DTLXW,train_x,blue_star,bottom_right,2025-09-08_15h10.13.688,HideSeek_v1,2022.2.5,59.94053897915899,
,9,3,4,3,-5,0,11,,train_dim1_1,14,30,,,,2,0,2,0,,,,,,,,,0,0,0,0,0,13,13,13,2,0,2,0,,,,,,,,,,,,,,,,,,,,,,,,,,,,,,,,,,,,,,,,,,,,,,,,,,,,,,,,,,,,,,,,30,,,,,,,,832.7761892999988,832.7761892999988,832.7761892999988,832.7761892999988,832.7761892999988,left,0.2766268999548629,8,0,0,99,0.32,-0.16,left,0.19133839989081025,,,,,,,,,,,,,,,,,,,,,,,,,,,,,,,,,,,,,,,,,,,,,,,,,,,,,,,,,,,,5DTLXW,train_x,blue_star,bottom_right,2025-09-08_15h10.13.688,HideSeek_v1,2022.2.5,59.94053897915899,
,9,3,4,3,-5,0,11,,train_dim1_1,14,30,,,,2,0,2,0,,,,,,,,,0,0,0,0,0,13,13,13,3,0,3,0,,,,,,,,,,,,,,,,,,,,,,,,,,,,,,,,,,,,,,,,,,,,,,,,,,,,,,,,,,,,,,,,30,,,,,,,,833.061964499997,833.061964499997,833.061964499997,833.061964499997,833.061964499997,left,0.25945570005569607,8,0,0,99,0.24,-0.16,left,0.1650365999666974,,,,,,,,,,,,,,,,,,,,,,,,,,,,,,,,,,,,,,,,,,,,,,,,,,,,,,,,,,,,5DTLXW,train_x,blue_star,bottom_right,2025-09-08_15h10.13.688,HideSeek_v1,2022.2.5,59.94053897915899,
,9,3,4,3,-5,0,11,,train_dim1_1,14,30,,,,2,0,2,0,,,,,,,,,0,0,0,0,0,13,13,13,4,0,4,0,,,,,,,,,,,,,,,,,,,,,,,,,,,,,,,,,,,,,,,,,,,,,,,,,,,,,,,,,,,,,,,,30,,,,,,,,833.3307251000078,833.3307251000078,833.3307251000078,833.3307251000078,833.3307251000078,left,0.20698789996095002,8,0,0,99,0.15999999999999998,-0.16,left,0.1162959000794217,,,,,,,,,,,,,,,,,,,,,,,,,,,,,,,,,,,,,,,,,,,,,,,,,,,,,,,,,,,,5DTLXW,train_x,blue_star,bottom_right,2025-09-08_15h10.13.688,HideSeek_v1,2022.2.5,59.94053897915899,
,9,3,4,3,-5,0,11,,train_dim1_1,14,30,,,,2,0,2,0,,,,,,,,,0,0,0,0,0,13,13,13,5,0,5,0,,,,,,,,,,,,,,,,,,,,,,,,,,,,,,,,,,,,,,,,,,,,,,,,,,,,,,,,,,,,,,,,30,,,,,,,,833.5435845999746,833.5435845999746,833.5435845999746,833.5435845999746,833.5435845999746,return,2.4948622999945655,9,0,0,1,0.15999999999999998,-0.16,return,2.4076308000367135,4,-33,0.15999999999999998,-0.16,,,,,,,,,,,,,,,,,,,,,,,,,,,,,,,,,,,,,,,,,,,,,,,,,,,,,,,,5DTLXW,train_x,blue_star,bottom_right,2025-09-08_15h10.13.688,HideSeek_v1,2022.2.5,59.94053897915899,
,9,2,9,2,0,0,61,,train_dim1_1,15,30,,,,2,0,2,0,,,,,,,,,0,0,0,0,0,14,14,14,0,0,0,0,,,,,,,,,,,,,,,,,,,,,,,,,stimuli/alien_stimuli/61.png,,,,,,,,,,,,,,,,,,,,,,,,,,,,,stimuli/alien_stimuli/11.png,11,9,16,,,,,,,30,,,,,,,,840.1649925999809,840.1649925999809,840.1649925999809,840.1649925999809,840.1649925999809,return,4.050228200037964,10,0,0,1,0.56,-0.24,return,3.944733200012706,4,-33,0.56,-0.24,838.5795132999774,840.1649925999809,0.16,-0.16,0.0,0.4,-0.16,0.16,0.36000000000000004,0.16,-0.16,837.6297558000078,837.6297558000078,837.6297558000078,837.6297558000078,837.6297558000078,837.6297558000078,837.6297558000078,837.6297558000078,837.6119710599538,1.0866171000525355,return,0.9312870999565348,,,,,,,,,,,,,,,,,,,,,,,,,,,,,,,,,5DTLXW,train_x,blue_star,bottom_right,2025-09-08_15h10.13.688,HideSeek_v1,2022.2.5,59.94053897915899,
,8,3,7,3,-1,0,51,,train_dim1_1,16,30,,,,2,0,2,0,,,,,,,,,0,0,0,0,0,15,15,15,0,0,0,0,,,,,,,,,,,,,,,,,,,,,,,,,stimuli/alien_stimuli/51.png,,,,,,,,,,,,,,,,,,,,,,,,,,,,,stimuli/alien_stimuli/61.png,61,9,17,,,,,,,30,,,,,,,,849.9379389999667,849.9379389999667,849.9379389999667,849.9379389999667,849.9379389999667,left,1.7691650999477133,10,0,0,99,0.39999999999999997,-0.16,left,1.6817169999703765,,,,,848.3710593999131,849.9379389999667,0.56,-0.24,0.0,0.0,-0.24,0.56,0.56,0.56,-0.24,845.756626599934,845.756626599934,845.756626599934,845.756626599934,845.756626599934,845.756626599934,845.756626599934,845.756626599934,845.7355745200068,2.721081600058824,return,2.5932832999387756,,,,,,,,,,,,,,,,,,,,,,,,,,,,,,,,,5DTLXW,train_x,blue_star,bottom_right,2025-09-08_15h10.13.688,HideSeek_v1,2022.2.5,59.94053897915899,
,8,3,7,3,-1,0,51,,train_dim1_1,16,30,,,,2,0,2,0,,,,,,,,,0,0,0,0,0,15,15,15,1,0,1,0,,,,,,,,,,,,,,,,,,,,,,,,,,,,,,,,,,,,,,,,,,,,,,,,,,,,,,,,,,,,,,,,30,,,,,,,,851.707527599996,851.707527599996,851.707527599996,851.707527599996,851.707527599996,return,0.608834799961187,11,0,0,1,0.39999999999999997,-0.16,return,0.5330806999700144,4,-34,0.39999999999999997,-0.16,,,,,,,,,,,,,,,,,,,,,,,,,,,,,,,,,,,,,,,,,,,,,,,,,,,,,,,,5DTLXW,train_x,blue_star,bottom_right,2025-09-08_15h10.13.688,HideSeek_v1,2022.2.5,59.94053897915899,
,7,4,3,4,-4,0,21,,train_dim1_1,17,30,,,,2,0,2,0,,,,,,,,,0,0,0,0,0,16,16,16,0,0,0,0,,,,,,,,,,,,,,,,,,,,,,,,,stimuli/alien_stimuli/21.png,,,,,,,,,,,,,,,,,,,,,,,,,,,,,stimuli/alien_stimuli/51.png,51,8,18,,,,,,,30,,,,,,,,859.6136129999068,859.6136129999068,859.6136129999068,859.6136129999068,859.6136129999068,left,1.7027769000269473,11,0,0,99,0.32,-0.08,left,1.607155500096269,,,,,858.045560700004,859.6136129999068,0.4,-0.16,0.0,0.08,-0.16,0.4,0.44,0.4,-0.16,853.8839100999758,853.8839100999758,853.8839100999758,853.8839100999758,853.8839100999758,853.8839100999758,853.8839100999758,853.8839100999758,853.8755407400081,4.272323700017296,return,4.137446200009435,,,,,,,,,,,,,,,,,,,,,,,,,,,,,,,,,5DTLXW,train_x,blue_star,bottom_right,2025-09-08_15h10.13.688,HideSeek_v1,2022.2.5,59.94053897915899,
,7,4,3,4,-4,0,21,,train_dim1_1,17,30,,,,2,0,2,0,,,,,,,,,0,0,0,0,0,16,16,16,1,0,1,0,,,,,,,,,,,,,,,,,,,,,,,,,,,,,,,,,,,,,,,,,,,,,,,,,,,,,,,,,,,,,,,,30,,,,,,,,861.3166200999403,861.3166200999403,861.3166200999403,861.3166200999403,861.3166200999403,left,2.127487900084816,11,0,0,99,0.24,-0.08,left,2.0439024000661448,,,,,,,,,,,,,,,,,,,,,,,,,,,,,,,,,,,,,,,,,,,,,,,,,,,,,,,,,,,,5DTLXW,train_x,blue_star,bottom_right,2025-09-08_15h10.13.688,HideSeek_v1,2022.2.5,59.94053897915899,
,7,4,3,4,-4,0,21,,train_dim1_1,17,30,,,,2,0,2,0,,,,,,,,,0,0,0,0,0,16,16,16,2,0,2,0,,,,,,,,,,,,,,,,,,,,,,,,,,,,,,,,,,,,,,,,,,,,,,,,,,,,,,,,,,,,,,,,30,,,,,,,,863.4518280999037,863.4518280999037,863.4518280999037,863.4518280999037,863.4518280999037,left,0.8932346999645233,11,0,0,99,0.15999999999999998,-0.08,left,0.8034341000020504,,,,,,,,,,,,,,,,,,,,,,,,,,,,,,,,,,,,,,,,,,,,,,,,,,,,,,,,,,,,5DTLXW,train_x,blue_star,bottom_right,2025-09-08_15h10.13.688,HideSeek_v1,2022.2.5,59.94053897915899,
,7,4,3,4,-4,0,21,,train_dim1_1,17,30,,,,2,0,2,0,,,,,,,,,0,0,0,0,0,16,16,16,3,0,3,0,,,,,,,,,,,,,,,,,,,,,,,,,,,,,,,,,,,,,,,,,,,,,,,,,,,,,,,,,,,,,,,,30,,,,,,,,864.3537679999135,864.3537679999135,864.3537679999135,864.3537679999135,864.3537679999135,left,0.6603070999262854,11,0,0,99,0.07999999999999997,-0.08,left,0.5765252000419423,,,,,,,,,,,,,,,,,,,,,,,,,,,,,,,,,,,,,,,,,,,,,,,,,,,,,,,,,,,,5DTLXW,train_x,blue_star,bottom_right,2025-09-08_15h10.13.688,HideSeek_v1,2022.2.5,59.94053897915899,
,7,4,3,4,-4,0,21,,train_dim1_1,17,30,,,,2,0,2,0,,,,,,,,,0,0,0,0,0,16,16,16,4,0,4,0,,,,,,,,,,,,,,,,,,,,,,,,,,,,,,,,,,,,,,,,,,,,,,,,,,,,,,,,,,,,,,,,30,,,,,,,,865.0201032999903,865.0201032999903,865.0201032999903,865.0201032999903,865.0201032999903,return,2.9453613000223413,12,0,0,1,0.07999999999999997,-0.08,return,2.8572457999689505,4,-38,0.07999999999999997,-0.08,,,,,,,,,,,,,,,,,,,,,,,,,,,,,,,,,,,,,,,,,,,,,,,,,,,,,,,,5DTLXW,train_x,blue_star,bottom_right,2025-09-08_15h10.13.688,HideSeek_v1,2022.2.5,59.94053897915899,
,7,1,7,1,0,0,61,,train_dim1_1,18,30,,,,2,0,2,0,,,,,,,,,0,0,0,0,0,17,17,17,0,0,0,0,,,,,,,,,,,,,,,,,,,,,,,,,stimuli/alien_stimuli/61.png,,,,,,,,,,,,,,,,,,,,,,,,,,,,,stimuli/alien_stimuli/21.png,21,7,19,,,,,,,30,,,,,,,,872.8797254000092,872.8797254000092,872.8797254000092,872.8797254000092,872.8797254000092,left,3.8881460999837145,12,0,0,99,0.32,-0.32,left,3.7665884000016376,,,,,871.2899246999295,872.8797254000092,0.08,-0.08,0.0,0.32,-0.08,0.08,0.24000000000000002,0.08,-0.08,869.5508761999663,869.5508761999663,869.5508761999663,869.5508761999663,869.5508761999663,869.5508761999663,869.5508761999663,869.5508761999663,869.5384496599669,1.870461400016211,return,1.7172905000625178,,,,,,,,,,,,,,,,,,,,,,,,,,,,,,,,,5DTLXW,train_x,blue_star,bottom_right,2025-09-08_15h10.13.688,HideSeek_v1,2022.2.5,59.94053897915899,
,7,1,7,1,0,0,61,,train_dim1_1,18,30,,,,2,0,2,0,,,,,,,,,0,0,0,0,0,17,17,17,1,0,1,0,,,,,,,,,,,,,,,,,,,,,,,,,,,,,,,,,,,,,,,,,,,,,,,,,,,,,,,,,,,,,,,,30,,,,,,,,876.7435821999097,876.7435821999097,876.7435821999097,876.7435821999097,876.7435821999097,left,0.4254842000082135,12,0,0,99,0.24,-0.32,left,0.35096619999967515,,,,,,,,,,,,,,,,,,,,,,,,,,,,,,,,,,,,,,,,,,,,,,,,,,,,,,,,,,,,5DTLXW,train_x,blue_star,bottom_right,2025-09-08_15h10.13.688,HideSeek_v1,2022.2.5,59.94053897915899,
,7,1,7,1,0,0,61,,train_dim1_1,18,30,,,,2,0,2,0,,,,,,,,,0,0,0,0,0,17,17,17,2,0,2,0,,,,,,,,,,,,,,,,,,,,,,,,,,,,,,,,,,,,,,,,,,,,,,,,,,,,,,,,,,,,,,,,30,,,,,,,,877.1745167999761,877.1745167999761,877.1745167999761,877.1745167999761,877.1745167999761,right,0.39332809997722507,12,0,0,99,0.32,-0.32,right,0.3122786999447271,,,,,,,,,,,,,,,,,,,,,,,,,,,,,,,,,,,,,,,,,,,,,,,,,,,,,,,,,,,,5DTLXW,train_x,blue_star,bottom_right,2025-09-08_15h10.13.688,HideSeek_v1,2022.2.5,59.94053897915899,
,7,1,7,1,0,0,61,,train_dim1_1,18,30,,,,2,0,2,0,,,,,,,,,0,0,0,0,0,17,17,17,3,0,3,0,,,,,,,,,,,,,,,,,,,,,,,,,,,,,,,,,,,,,,,,,,,,,,,,,,,,,,,,,,,,,,,,30,,,,,,,,877.5750460999552,877.5750460999552,877.5750460999552,877.5750460999552,877.5750460999552,right,0.27667839999776334,12,0,0,99,0.4,-0.32,right,0.18892530002631247,,,,,,,,,,,,,,,,,,,,,,,,,,,,,,,,,,,,,,,,,,,,,,,,,,,,,,,,,,,,5DTLXW,train_x,blue_star,bottom_right,2025-09-08_15h10.13.688,HideSeek_v1,2022.2.5,59.94053897915899,
,7,1,7,1,0,0,61,,train_dim1_1,18,30,,,,2,0,2,0,,,,,,,,,0,0,0,0,0,17,17,17,4,0,4,0,,,,,,,,,,,,,,,,,,,,,,,,,,,,,,,,,,,,,,,,,,,,,,,,,,,,,,,,,,,,,,,,30,,,,,,,,877.8589794998989,877.8589794998989,877.8589794998989,877.8589794998989,877.8589794998989,up,0.9766840999945998,12,0,0,99,0.4,-0.24,up,0.90220330003649,,,,,,,,,,,,,,,,,,,,,,,,,,,,,,,,,,,,,,,,,,,,,,,,,,,,,,,,,,,,5DTLXW,train_x,blue_star,bottom_right,2025-09-08_15h10.13.688,HideSeek_v1,2022.2.5,59.94053897915899,
,7,1,7,1,0,0,61,,train_dim1_1,18,30,,,,2,0,2,0,,,,,,,,,0,0,0,0,0,17,17,17,5,0,5,0,,,,,,,,,,,,,,,,,,,,,,,,,,,,,,,,,,,,,,,,,,,,,,,,,,,,,,,,,,,,,,,,30,,,,,,,,878.8442509999732,878.8442509999732,878.8442509999732,878.8442509999732,878.8442509999732,down,0.4766212999820709,12,0,0,99,0.4,-0.32,down,0.3933078999398276,,,,,,,,,,,,,,,,,,,,,,,,,,,,,,,,,,,,,,,,,,,,,,,,,,,,,,,,,,,,5DTLXW,train_x,blue_star,bottom_right,2025-09-08_15h10.13.688,HideSeek_v1,2022.2.5,59.94053897915899,
,7,1,7,1,0,0,61,,train_dim1_1,18,30,,,,2,0,2,0,,,,,,,,,0,0,0,0,0,17,17,17,6,0,6,0,,,,,,,,,,,,,,,,,,,,,,,,,,,,,,,,,,,,,,,,,,,,,,,,,,,,,,,,,,,,,,,,30,,,,,,,,879.3268027999438,879.3268027999438,879.3268027999438,879.3268027999438,879.3268027999438,return,0.8437477999832481,13,0,0,1,0.4,-0.32,return,0.7557641000021249,4,-38,0.4,-0.32,,,,,,,,,,,,,,,,,,,,,,,,,,,,,,,,,,,,,,,,,,,,,,,,,,,,,,,,5DTLXW,train_x,blue_star,bottom_right,2025-09-08_15h10.13.688,HideSeek_v1,2022.2.5,59.94053897915899,
,5,3,2,3,-3,0,31,,train_dim1_1,19,30,,,,2,0,2,0,,,,,,,,,0,0,0,0,0,18,18,18,0,0,0,0,,,,,,,,,,,,,,,,,,,,,,,,,stimuli/alien_stimuli/31.png,,,,,,,,,,,,,,,,,,,,,,,,,,,,,stimuli/alien_stimuli/61.png,61,7,20,,,,,,,30,,,,,,,,889.1637772999238,889.1637772999238,889.1637772999238,889.1637772999238,889.1637772999238,left,1.1565314999315888,13,0,0,99,0.15999999999999998,-0.16,left,1.0671243000542745,,,,,887.603528699954,889.1637772999238,0.4,-0.32,0.0,0.0,-0.32,0.4,0.4,0.4,-0.32,881.7567392999772,881.7567392999772,881.7567392999772,881.7567392999772,881.7567392999772,881.7567392999772,881.7567392999772,881.7567392999772,881.7486662599491,5.9737694000359625,return,5.8210551999509335,,,,,,,,,,,,,,,,,,,,,,,,,,,,,,,,,5DTLXW,train_x,blue_star,bottom_right,2025-09-08_15h10.13.688,HideSeek_v1,2022.2.5,59.94053897915899,
,5,3,2,3,-3,0,31,,train_dim1_1,19,30,,,,2,0,2,0,,,,,,,,,0,0,0,0,0,18,18,18,1,0,1,0,,,,,,,,,,,,,,,,,,,,,,,,,,,,,,,,,,,,,,,,,,,,,,,,,,,,,,,,,,,,,,,,30,,,,,,,,890.3199505999219,890.3199505999219,890.3199505999219,890.3199505999219,890.3199505999219,left,0.6263150998856872,13,0,0,99,0.07999999999999997,-0.16,left,0.5410411000484601,,,,,,,,,,,,,,,,,,,,,,,,,,,,,,,,,,,,,,,,,,,,,,,,,,,,,,,,,,,,5DTLXW,train_x,blue_star,bottom_right,2025-09-08_15h10.13.688,HideSeek_v1,2022.2.5,59.94053897915899,
,5,3,2,3,-3,0,31,,train_dim1_1,19,30,,,,2,0,2,0,,,,,,,,,0,0,0,0,0,18,18,18,2,0,2,0,,,,,,,,,,,,,,,,,,,,,,,,,,,,,,,,,,,,,,,,,,,,,,,,,,,,,,,,,,,,,,,,30,,,,,,,,890.9534629998961,890.9534629998961,890.9534629998961,890.9534629998961,890.9534629998961,left,3.6124690999276936,13,0,0,99,-2.7755575615628914e-17,-0.16,left,3.529678800026886,,,,,,,,,,,,,,,,,,,,,,,,,,,,,,,,,,,,,,,,,,,,,,,,,,,,,,,,,,,,5DTLXW,train_x,blue_star,bottom_right,2025-09-08_15h10.13.688,HideSeek_v1,2022.2.5,59.94053897915899,
,5,3,2,3,-3,0,31,,train_dim1_1,19,30,,,,2,0,2,0,,,,,,,,,0,0,0,0,0,18,18,18,3,0,3,0,,,,,,,,,,,,,,,,,,,,,,,,,,,,,,,,,,,,,,,,,,,,,,,,,,,,,,,,,,,,,,,,30,,,,,,,,894.5744741999079,894.5744741999079,894.5744741999079,894.5744741999079,894.5744741999079,return,0.42635859991423786,14,0,0,1,-2.7755575615628914e-17,-0.16,return,0.3419575000880286,4,-41,-2.7755575615628914e-17,-0.16,,,,,,,,,,,,,,,,,,,,,,,,,,,,,,,,,,,,,,,,,,,,,,,,,,,,,,,,5DTLXW,train_x,blue_star,bottom_right,2025-09-08_15h10.13.688,HideSeek_v1,2022.2.5,59.94053897915899,
,5,1,0,1,-5,0,11,,train_dim1_1,20,30,,,,2,0,2,0,,,,,,,,,0,0,0,0,0,19,19,19,0,0,0,0,,,,,,,,,,,,,,,,,,,,,,,,,stimuli/alien_stimuli/11.png,,,,,,,,,,,,,,,,,,,,,,,,,,,,,stimuli/alien_stimuli/31.png,31,5,21,,,,,,,30,,,,,,,,899.2589876999846,899.2589876999846,899.2589876999846,899.2589876999846,899.2589876999846,left,1.1546220999443904,14,0,0,99,0.15999999999999998,-0.32,left,1.0433726999908686,,,,,897.6785093999933,899.2589876999846,0,-0.16,0.0,0.24,-0.16,0,0.12,0,-0.16,896.583808699972,896.583808699972,896.583808699972,896.583808699972,896.583808699972,896.583808699972,896.583808699972,896.583808699972,896.5611085399637,1.219530800008215,return,1.0669229999184608,,,,,,,,,,,,,,,,,,,,,,,,,,,,,,,,,5DTLXW,train_x,blue_star,bottom_right,2025-09-08_15h10.13.688,HideSeek_v1,2022.2.5,59.94053897915899,
,5,1,0,1,-5,0,11,,train_dim1_1,20,30,,,,2,0,2,0,,,,,,,,,0,0,0,0,0,19,19,19,1,0,1,0,,,,,,,,,,,,,,,,,,,,,,,,,,,,,,,,,,,,,,,,,,,,,,,,,,,,,,,,,,,,,,,,30,,,,,,,,900.3990903999656,900.3990903999656,900.3990903999656,900.3990903999656,900.3990903999656,right,0.9767529000528157,14,0,0,99,0.24,-0.32,right,0.8922650000313297,,,,,,,,,,,,,,,,,,,,,,,,,,,,,,,,,,,,,,,,,,,,,,,,,,,,,,,,,,,,5DTLXW,train_x,blue_star,bottom_right,2025-09-08_15h10.13.688,HideSeek_v1,2022.2.5,59.94053897915899,
,5,1,0,1,-5,0,11,,train_dim1_1,20,30,,,,2,0,2,0,,,,,,,,,0,0,0,0,0,19,19,19,2,0,2,0,,,,,,,,,,,,,,,,,,,,,,,,,,,,,,,,,,,,,,,,,,,,,,,,,,,,,,,,,,,,,,,,30,,,,,,,,901.3878929999191,901.3878929999191,901.3878929999191,901.3878929999191,901.3878929999191,up,1.257461000001058,14,0,0,99,0.24,-0.24,up,1.1676998999901116,,,,,,,,,,,,,,,,,,,,,,,,,,,,,,,,,,,,,,,,,,,,,,,,,,,,,,,,,,,,5DTLXW,train_x,blue_star,bottom_right,2025-09-08_15h10.13.688,HideSeek_v1,2022.2.5,59.94053897915899,
,5,1,0,1,-5,0,11,,train_dim1_1,20,30,,,,2,0,2,0,,,,,,,,,0,0,0,0,0,19,19,19,3,0,3,0,,,,,,,,,,,,,,,,,,,,,,,,,,,,,,,,,,,,,,,,,,,,,,,,,,,,,,,,,,,,,,,,30,,,,,,,,902.6502451999113,902.6502451999113,902.6502451999113,902.6502451999113,902.6502451999113,left,1.2938558999449015,14,0,0,99,0.15999999999999998,-0.24,left,1.2105215000919998,,,,,,,,,,,,,,,,,,,,,,,,,,,,,,,,,,,,,,,,,,,,,,,,,,,,,,,,,,,,5DTLXW,train_x,blue_star,bottom_right,2025-09-08_15h10.13.688,HideSeek_v1,2022.2.5,59.94053897915899,
,5,1,0,1,-5,0,11,,train_dim1_1,20,30,,,,2,0,2,0,,,,,,,,,0,0,0,0,0,19,19,19,4,0,4,0,,,,,,,,,,,,,,,,,,,,,,,,,,,,,,,,,,,,,,,,,,,,,,,,,,,,,,,,,,,,,,,,30,,,,,,,,903.9540842999704,903.9540842999704,903.9540842999704,903.9540842999704,903.9540842999704,left,0.45719490002375096,14,0,0,99,0.07999999999999997,-0.24,left,0.3765662000514567,,,,,,,,,,,,,,,,,,,,,,,,,,,,,,,,,,,,,,,,,,,,,,,,,,,,,,,,,,,,5DTLXW,train_x,blue_star,bottom_right,2025-09-08_15h10.13.688,HideSeek_v1,2022.2.5,59.94053897915899,
,5,1,0,1,-5,0,11,,train_dim1_1,20,30,,,,2,0,2,0,,,,,,,,,0,0,0,0,0,19,19,19,5,0,5,0,,,,,,,,,,,,,,,,,,,,,,,,,,,,,,,,,,,,,,,,,,,,,,,,,,,,,,,,,,,,,,,,30,,,,,,,,904.4200817999663,904.4200817999663,904.4200817999663,904.4200817999663,904.4200817999663,left,0.37494749994948506,14,0,0,99,-2.7755575615628914e-17,-0.24,left,0.2852075999835506,,,,,,,,,,,,,,,,,,,,,,,,,,,,,,,,,,,,,,,,,,,,,,,,,,,,,,,,,,,,5DTLXW,train_x,blue_star,bottom_right,2025-09-08_15h10.13.688,HideSeek_v1,2022.2.5,59.94053897915899,
,5,1,0,1,-5,0,11,,train_dim1_1,20,30,,,,2,0,2,0,,,,,,,,,0,0,0,0,0,19,19,19,6,0,6,0,,,,,,,,,,,,,,,,,,,,,,,,,,,,,,,,,,,,,,,,,,,,,,,,,,,,,,,,,,,,,,,,30,,,,,,,,904.801553199999,904.801553199999,904.801553199999,904.801553199999,904.801553199999,left,0.29310740006621927,14,0,0,99,-0.08000000000000003,-0.24,left,0.21372310002334416,,,,,,,,,,,,,,,,,,,,,,,,,,,,,,,,,,,,,,,,,,,,,,,,,,,,,,,,,,,,5DTLXW,train_x,blue_star,bottom_right,2025-09-08_15h10.13.688,HideSeek_v1,2022.2.5,59.94053897915899,
,5,1,0,1,-5,0,11,,train_dim1_1,20,30,,,,2,0,2,0,,,,,,,,,0,0,0,0,0,19,19,19,7,0,7,0,,,,,,,,,,,,,,,,,,,,,,,,,,,,,,,,,,,,,,,,,,,,,,,,,,,,,,,,,,,,,,,,30,,,,,,,,905.1014969999669,905.1014969999669,905.1014969999669,905.1014969999669,905.1014969999669,left,2.328161699930206,14,0,0,99,-0.16000000000000003,-0.24,left,2.2470139999641106,,,,,,,,,,,,,,,,,,,,,,,,,,,,,,,,,,,,,,,,,,,,,,,,,,,,,,,,,,,,5DTLXW,train_x,blue_star,bottom_right,2025-09-08_15h10.13.688,HideSeek_v1,2022.2.5,59.94053897915899,
,5,1,0,1,-5,0,11,,train_dim1_1,20,30,,,,2,0,2,0,,,,,,,,,0,0,0,0,0,19,19,19,8,0,8,0,,,,,,,,,,,,,,,,,,,,,,,,,,,,,,,,,,,,,,,,,,,,,,,,,,,,,,,,,,,,,,,,30,,,,,,,,907.4407859999919,907.4407859999919,907.4407859999919,907.4407859999919,907.4407859999919,down,0.9773255999898538,14,0,0,99,-0.16000000000000003,-0.32,down,0.8866978998994455,,,,,,,,,,,,,,,,,,,,,,,,,,,,,,,,,,,,,,,,,,,,,,,,,,,,,,,,,,,,5DTLXW,train_x,blue_star,bottom_right,2025-09-08_15h10.13.688,HideSeek_v1,2022.2.5,59.94053897915899,
,5,1,0,1,-5,0,11,,train_dim1_1,20,30,,,,2,0,2,0,,,,,,,,,0,0,0,0,0,19,19,19,9,0,9,0,,,,,,,,,,,,,,,,,,,,,,,,,,,,,,,,,,,,,,,,,,,,,,,,,,,,,,,,,,,,,,,,30,,,,,,,,908.4250612999313,908.4250612999313,908.4250612999313,908.4250612999313,908.4250612999313,down,0.24004669999703765,14,0,0,99,-0.16000000000000003,-0.4,down,0.1620777000207454,,,,,,,,,,,,,,,,,,,,,,,,,,,,,,,,,,,,,,,,,,,,,,,,,,,,,,,,,,,,5DTLXW,train_x,blue_star,bottom_right,2025-09-08_15h10.13.688,HideSeek_v1,2022.2.5,59.94053897915899,
,5,1,0,1,-5,0,11,,train_dim1_1,20,30,,,,2,0,2,0,,,,,,,,,0,0,0,0,0,19,19,19,10,0,10,0,,,,,,,,,,,,,,,,,,,,,,,,,,,,,,,,,,,,,,,,,,,,,,,,,,,,,,,,,,,,,,,,30,,,,,,,,908.6723470999859,908.6723470999859,908.6723470999859,908.6723470999859,908.6723470999859,up,0.877078799996525,14,0,0,99,-0.16000000000000003,-0.32,up,0.7912772999843583,,,,,,,,,,,,,,,,,,,,,,,,,,,,,,,,,,,,,,,,,,,,,,,,,,,,,,,,,,,,5DTLXW,train_x,blue_star,bottom_right,2025-09-08_15h10.13.688,HideSeek_v1,2022.2.5,59.94053897915899,
,5,1,0,1,-5,0,11,,train_dim1_1,20,30,,,,2,0,2,0,,,,,,,,,0,0,0,0,0,19,19,19,11,0,11,0,,,,,,,,,,,,,,,,,,,,,,,,,,,,,,,,,,,,,,,,,,,,,,,,,,,,,,,,,,,,,,,,30,,,,,,,,909.5554856999079,909.5554856999079,909.5554856999079,909.5554856999079,909.5554856999079,return,2.0281271000858396,15,0,0,1,-0.16000000000000003,-0.32,return,1.9440318999113515,4,-46,-0.16000000000000003,-0.32,,,,,,,,,,,,,,,,,,,,,,,,,,,,,,,,,,,,,,,,,,,,,,,,,,,,,,,,5DTLXW,train_x,blue_star,bottom_right,2025-09-08_15h10.13.688,HideSeek_v1,2022.2.5,59.94053897915899,
,9,2,6,2,-3,0,31,,train_dim1_1,21,30,,,,2,0,2,0,,,,,,,,,0,0,0,0,0,20,20,20,0,0,0,0,,,,,,,,,,,,,,,,,,,,,,,,,stimuli/alien_stimuli/31.png,,,,,,,,,,,,,,,,,,,,,,,,,,,,,stimuli/alien_stimuli/11.png,11,5,22,,,,,,,30,,,,,,,,915.7388637999538,915.7388637999538,915.7388637999538,915.7388637999538,915.7388637999538,left,4.034566499991342,15,0,0,99,0.48000000000000004,-0.24,left,3.936648100032471,,,,,914.1588384999195,915.7388637999538,-0.16,-0.32,0.0,0.4,-0.32,-0.16,0.039999999999999994,-0.16,-0.32,913.1691834999947,913.1691834999947,913.1691834999947,913.1691834999947,913.1691834999947,913.1691834999947,913.1691834999947,913.1691834999947,913.1582080599852,1.11956859997008,return,0.962307299952954,,,,,,,,,,,,,,,,,,,,,,,,,,,,,,,,,5DTLXW,train_x,blue_star,bottom_right,2025-09-08_15h10.13.688,HideSeek_v1,2022.2.5,59.94053897915899,
,9,2,6,2,-3,0,31,,train_dim1_1,21,30,,,,2,0,2,0,,,,,,,,,0,0,0,0,0,20,20,20,1,0,1,0,,,,,,,,,,,,,,,,,,,,,,,,,,,,,,,,,,,,,,,,,,,,,,,,,,,,,,,,,,,,,,,,30,,,,,,,,919.7616845999146,919.7616845999146,919.7616845999146,919.7616845999146,919.7616845999146,left,0.8427189000649378,15,0,0,99,0.4,-0.24,left,0.7551323000807315,,,,,,,,,,,,,,,,,,,,,,,,,,,,,,,,,,,,,,,,,,,,,,,,,,,,,,,,,,,,5DTLXW,train_x,blue_star,bottom_right,2025-09-08_15h10.13.688,HideSeek_v1,2022.2.5,59.94053897915899,
,9,2,6,2,-3,0,31,,train_dim1_1,21,30,,,,2,0,2,0,,,,,,,,,0,0,0,0,0,20,20,20,2,0,2,0,,,,,,,,,,,,,,,,,,,,,,,,,,,,,,,,,,,,,,,,,,,,,,,,,,,,,,,,,,,,,,,,30,,,,,,,,920.612384899985,920.612384899985,920.612384899985,920.612384899985,920.612384899985,left,0.5929064999800175,15,0,0,99,0.32,-0.24,left,0.5170568999601528,,,,,,,,,,,,,,,,,,,,,,,,,,,,,,,,,,,,,,,,,,,,,,,,,,,,,,,,,,,,5DTLXW,train_x,blue_star,bottom_right,2025-09-08_15h10.13.688,HideSeek_v1,2022.2.5,59.94053897915899,
,9,2,6,2,-3,0,31,,train_dim1_1,21,30,,,,2,0,2,0,,,,,,,,,0,0,0,0,0,20,20,20,3,0,3,0,,,,,,,,,,,,,,,,,,,,,,,,,,,,,,,,,,,,,,,,,,,,,,,,,,,,,,,,,,,,,,,,30,,,,,,,,921.2119798999047,921.2119798999047,921.2119798999047,921.2119798999047,921.2119798999047,left,1.1103444000473246,15,0,0,99,0.24,-0.24,left,1.0284719000337645,,,,,,,,,,,,,,,,,,,,,,,,,,,,,,,,,,,,,,,,,,,,,,,,,,,,,,,,,,,,5DTLXW,train_x,blue_star,bottom_right,2025-09-08_15h10.13.688,HideSeek_v1,2022.2.5,59.94053897915899,
,9,2,6,2,-3,0,31,,train_dim1_1,21,30,,,,2,0,2,0,,,,,,,,,0,0,0,0,0,20,20,20,4,0,4,0,,,,,,,,,,,,,,,,,,,,,,,,,,,,,,,,,,,,,,,,,,,,,,,,,,,,,,,,,,,,,,,,30,,,,,,,,922.3289698999142,922.3289698999142,922.3289698999142,922.3289698999142,922.3289698999142,return,0.4265412000240758,15,1,0,0,0.24,-0.24,return,0.34596299997065216,4,-50,0.24,-0.24,,,,,,,,,,,,,,,,,,,,,,,,,,,,,,,,,,,,,,,,,,,,,,,,,,,,,,,,5DTLXW,train_x,blue_star,bottom_right,2025-09-08_15h10.13.688,HideSeek_v1,2022.2.5,59.94053897915899,
,6,0,2,0,-4,0,21,,train_dim1_1,22,30,,,,2,0,2,0,,,,,,,,,0,0,0,0,0,21,21,21,0,0,0,0,,,,,,,,,,,,,,,,,,,,,,,,,stimuli/alien_stimuli/21.png,,,,,,,,,,,,,,,,,,,,,,,,,,,,,stimuli/alien_stimuli/31.png,31,9,23,,,,,,,30,,,,,,,,930.2722717999713,930.2722717999713,930.2722717999713,930.2722717999713,930.2722717999713,left,3.8537523999111727,15,1,0,99,0.24,-0.4,left,3.7649845000123605,,,,,928.7041443999624,930.2722717999713,0.32,-0.24,0.0,0.24,-0.24,0.32,0.44000000000000006,0.32,-0.24,924.3340253999922,924.3340253999922,924.3340253999922,924.3340253999922,924.3340253999922,924.3340253999922,924.3340253999922,924.3340253999922,924.317248439917,4.4890257000224665,return,4.3429905999219045,,,,,,,,,,,,,,,,,,,,,,,,,,,,,,,,,5DTLXW,train_x,blue_star,bottom_right,2025-09-08_15h10.13.688,HideSeek_v1,2022.2.5,59.94053897915899,
,6,0,2,0,-4,0,21,,train_dim1_1,22,30,,,,2,0,2,0,,,,,,,,,0,0,0,0,0,21,21,21,1,0,1,0,,,,,,,,,,,,,,,,,,,,,,,,,,,,,,,,,,,,,,,,,,,,,,,,,,,,,,,,,,,,,,,,30,,,,,,,,934.1269879000029,934.1269879000029,934.1269879000029,934.1269879000029,934.1269879000029,left,0.3589176000095904,15,1,0,99,0.15999999999999998,-0.4,left,0.2775087000336498,,,,,,,,,,,,,,,,,,,,,,,,,,,,,,,,,,,,,,,,,,,,,,,,,,,,,,,,,,,,5DTLXW,train_x,blue_star,bottom_right,2025-09-08_15h10.13.688,HideSeek_v1,2022.2.5,59.94053897915899,
,6,0,2,0,-4,0,21,,train_dim1_1,22,30,,,,2,0,2,0,,,,,,,,,0,0,0,0,0,21,21,21,2,0,2,0,,,,,,,,,,,,,,,,,,,,,,,,,,,,,,,,,,,,,,,,,,,,,,,,,,,,,,,,,,,,,,,,30,,,,,,,,934.4961277999682,934.4961277999682,934.4961277999682,934.4961277999682,934.4961277999682,left,0.39123509998898953,15,1,0,99,0.07999999999999997,-0.4,left,0.3006132000591606,,,,,,,,,,,,,,,,,,,,,,,,,,,,,,,,,,,,,,,,,,,,,,,,,,,,,,,,,,,,5DTLXW,train_x,blue_star,bottom_right,2025-09-08_15h10.13.688,HideSeek_v1,2022.2.5,59.94053897915899,
,6,0,2,0,-4,0,21,,train_dim1_1,22,30,,,,2,0,2,0,,,,,,,,,0,0,0,0,0,21,21,21,3,0,3,0,,,,,,,,,,,,,,,,,,,,,,,,,,,,,,,,,,,,,,,,,,,,,,,,,,,,,,,,,,,,,,,,30,,,,,,,,934.8948687999509,934.8948687999509,934.8948687999509,934.8948687999509,934.8948687999509,left,0.3100132999243215,15,1,0,99,-2.7755575615628914e-17,-0.4,left,0.22594589996151626,,,,,,,,,,,,,,,,,,,,,,,,,,,,,,,,,,,,,,,,,,,,,,,,,,,,,,,,,,,,5DTLXW,train_x,blue_star,bottom_right,2025-09-08_15h10.13.688,HideSeek_v1,2022.2.5,59.94053897915899,
,6,0,2,0,-4,0,21,,train_dim1_1,22,30,,,,2,0,2,0,,,,,,,,,0,0,0,0,0,21,21,21,4,0,4,0,,,,,,,,,,,,,,,,,,,,,,,,,,,,,,,,,,,,,,,,,,,,,,,,,,,,,,,,,,,,,,,,30,,,,,,,,935.2110463998979,935.2110463998979,935.2110463998979,935.2110463998979,935.2110463998979,return,1.143855500034988,16,0,0,1,-2.7755575615628914e-17,-0.4,return,1.06586780003272,4,-54,-2.7755575615628914e-17,-0.4,,,,,,,,,,,,,,,,,,,,,,,,,,,,,,,,,,,,,,,,,,,,,,,,,,,,,,,,5DTLXW,train_x,blue_star,bottom_right,2025-09-08_15h10.13.688,HideSeek_v1,2022.2.5,59.94053897915899,
,7,1,7,1,0,0,61,,train_dim1_1,23,30,,,,2,0,2,0,,,,,,,,,0,0,0,0,0,22,22,22,0,0,0,0,,,,,,,,,,,,,,,,,,,,,,,,,stimuli/alien_stimuli/61.png,,,,,,,,,,,,,,,,,,,,,,,,,,,,,stimuli/alien_stimuli/21.png,21,6,24,,,,,,,30,,,,,,,,942.9936506999657,942.9936506999657,942.9936506999657,942.9936506999657,942.9936506999657,up,3.407100999960676,16,0,0,99,0.4,-0.24,up,3.3148684999905527,,,,,941.4314661999233,942.9936506999657,0,-0.4,0.0,0.32,-0.4,0,0.16,0,-0.4,937.9299421999604,937.9299421999604,937.9299421999604,937.9299421999604,937.9299421999604,937.9299421999604,937.9299421999604,937.9299421999604,937.91193143992,3.621966600068845,return,3.471869600005448,,,,,,,,,,,,,,,,,,,,,,,,,,,,,,,,,5DTLXW,train_x,blue_star,bottom_right,2025-09-08_15h10.13.688,HideSeek_v1,2022.2.5,59.94053897915899,
,7,1,7,1,0,0,61,,train_dim1_1,23,30,,,,2,0,2,0,,,,,,,,,0,0,0,0,0,22,22,22,1,0,1,0,,,,,,,,,,,,,,,,,,,,,,,,,,,,,,,,,,,,,,,,,,,,,,,,,,,,,,,,,,,,,,,,30,,,,,,,,946.3987612999044,946.3987612999044,946.3987612999044,946.3987612999044,946.3987612999044,down,0.8099934000056237,16,0,0,99,0.4,-0.32,down,0.7322337999939919,,,,,,,,,,,,,,,,,,,,,,,,,,,,,,,,,,,,,,,,,,,,,,,,,,,,,,,,,,,,5DTLXW,train_x,blue_star,bottom_right,2025-09-08_15h10.13.688,HideSeek_v1,2022.2.5,59.94053897915899,
,7,1,7,1,0,0,61,,train_dim1_1,23,30,,,,2,0,2,0,,,,,,,,,0,0,0,0,0,22,22,22,2,0,2,0,,,,,,,,,,,,,,,,,,,,,,,,,,,,,,,,,,,,,,,,,,,,,,,,,,,,,,,,,,,,,,,,30,,,,,,,,947.2173172999173,947.2173172999173,947.2173172999173,947.2173172999173,947.2173172999173,up,0.7435405999422073,16,0,0,99,0.4,-0.24,up,0.6630085000069812,,,,,,,,,,,,,,,,,,,,,,,,,,,,,,,,,,,,,,,,,,,,,,,,,,,,,,,,,,,,5DTLXW,train_x,blue_star,bottom_right,2025-09-08_15h10.13.688,HideSeek_v1,2022.2.5,59.94053897915899,
,7,1,7,1,0,0,61,,train_dim1_1,23,30,,,,2,0,2,0,,,,,,,,,0,0,0,0,0,22,22,22,3,0,3,0,,,,,,,,,,,,,,,,,,,,,,,,,,,,,,,,,,,,,,,,,,,,,,,,,,,,,,,,,,,,,,,,30,,,,,,,,947.9667592999758,947.9667592999758,947.9667592999758,947.9667592999758,947.9667592999758,down,0.6434296000516042,16,0,0,99,0.4,-0.32,down,0.5634661000221968,,,,,,,,,,,,,,,,,,,,,,,,,,,,,,,,,,,,,,,,,,,,,,,,,,,,,,,,,,,,5DTLXW,train_x,blue_star,bottom_right,2025-09-08_15h10.13.688,HideSeek_v1,2022.2.5,59.94053897915899,
,7,1,7,1,0,0,61,,train_dim1_1,23,30,,,,2,0,2,0,,,,,,,,,0,0,0,0,0,22,22,22,4,0,4,0,,,,,,,,,,,,,,,,,,,,,,,,,,,,,,,,,,,,,,,,,,,,,,,,,,,,,,,,,,,,,,,,30,,,,,,,,948.6199788999511,948.6199788999511,948.6199788999511,948.6199788999511,948.6199788999511,up,0.9435447999276221,16,0,0,99,0.4,-0.24,up,0.8643422001041472,,,,,,,,,,,,,,,,,,,,,,,,,,,,,,,,,,,,,,,,,,,,,,,,,,,,,,,,,,,,5DTLXW,train_x,blue_star,bottom_right,2025-09-08_15h10.13.688,HideSeek_v1,2022.2.5,59.94053897915899,
,7,1,7,1,0,0,61,,train_dim1_1,23,30,,,,2,0,2,0,,,,,,,,,0,0,0,0,0,22,22,22,5,0,5,0,,,,,,,,,,,,,,,,,,,,,,,,,,,,,,,,,,,,,,,,,,,,,,,,,,,,,,,,,,,,,,,,30,,,,,,,,949.5688818999333,949.5688818999333,949.5688818999333,949.5688818999333,949.5688818999333,down,0.49310780002269894,16,0,0,99,0.4,-0.32,down,0.40598589996807277,,,,,,,,,,,,,,,,,,,,,,,,,,,,,,,,,,,,,,,,,,,,,,,,,,,,,,,,,,,,5DTLXW,train_x,blue_star,bottom_right,2025-09-08_15h10.13.688,HideSeek_v1,2022.2.5,59.94053897915899,
,7,1,7,1,0,0,61,,train_dim1_1,23,30,,,,2,0,2,0,,,,,,,,,0,0,0,0,0,22,22,22,6,0,6,0,,,,,,,,,,,,,,,,,,,,,,,,,,,,,,,,,,,,,,,,,,,,,,,,,,,,,,,,,,,,,,,,30,,,,,,,,950.0722508999752,950.0722508999752,950.0722508999752,950.0722508999752,950.0722508999752,return,1.8251125999959186,17,0,0,1,0.4,-0.32,return,1.7369744000025094,4,-54,0.4,-0.32,,,,,,,,,,,,,,,,,,,,,,,,,,,,,,,,,,,,,,,,,,,,,,,,,,,,,,,,5DTLXW,train_x,blue_star,bottom_right,2025-09-08_15h10.13.688,HideSeek_v1,2022.2.5,59.94053897915899,
,9,4,8,4,-1,0,51,,train_dim1_1,24,30,,,,2,0,2,0,,,,,,,,,0,0,0,0,0,23,23,23,0,0,0,0,,,,,,,,,,,,,,,,,,,,,,,,,stimuli/alien_stimuli/51.png,,,,,,,,,,,,,,,,,,,,,,,,,,,,,stimuli/alien_stimuli/61.png,61,7,25,,,,,,,30,,,,,,,,958.2748354999349,958.2748354999349,958.2748354999349,958.2748354999349,958.2748354999349,left,4.140311499941163,17,0,0,99,0.48000000000000004,-0.08,left,4.057103700004518,,,,,956.7108026999049,958.2748354999349,0.4,-0.32,0.0,0.0,-0.32,0.4,0.4,0.4,-0.32,953.4777772999369,953.4777772999369,953.4777772999369,953.4777772999369,953.4777772999369,953.4777772999369,953.4777772999369,953.4777772999369,953.4581406399725,3.3545847999630496,return,3.200980499968864,,,,,,,,,,,,,,,,,,,,,,,,,,,,,,,,,5DTLXW,train_x,blue_star,bottom_right,2025-09-08_15h10.13.688,HideSeek_v1,2022.2.5,59.94053897915899,
,9,4,8,4,-1,0,51,,train_dim1_1,24,30,,,,2,0,2,0,,,,,,,,,0,0,0,0,0,23,23,23,1,0,1,0,,,,,,,,,,,,,,,,,,,,,,,,,,,,,,,,,,,,,,,,,,,,,,,,,,,,,,,,,,,,,,,,30,,,,,,,,962.4152711000061,962.4152711000061,962.4152711000061,962.4152711000061,962.4152711000061,return,1.2598825000459328,18,0,0,1,0.48000000000000004,-0.08,return,1.1701322000008076,4,-55,0.48000000000000004,-0.08,,,,,,,,,,,,,,,,,,,,,,,,,,,,,,,,,,,,,,,,,,,,,,,,,,,,,,,,5DTLXW,train_x,blue_star,bottom_right,2025-09-08_15h10.13.688,HideSeek_v1,2022.2.5,59.94053897915899,
,8,0,3,0,-5,0,11,,train_dim1_1,25,30,,,,2,0,2,0,,,,,,,,,0,0,0,0,0,24,24,24,0,0,0,0,,,,,,,,,,,,,,,,,,,,,,,,,stimuli/alien_stimuli/11.png,,,,,,,,,,,,,,,,,,,,,,,,,,,,,stimuli/alien_stimuli/51.png,51,9,26,,,,,,,30,,,,,,,,971.3555768999504,971.3555768999504,971.3555768999504,971.3555768999504,971.3555768999504,left,2.6212188999634236,18,0,0,99,0.39999999999999997,-0.4,left,2.527588800061494,,,,,969.7882947999751,971.3555768999504,0.48,-0.08,0.0,0.08,-0.08,0.48,0.52,0.48,-0.08,965.2650496999267,965.2650496999267,965.2650496999267,965.2650496999267,965.2650496999267,965.2650496999267,965.2650496999267,965.2650496999267,965.2512534599751,4.65636090002954,return,4.503683699993417,,,,,,,,,,,,,,,,,,,,,,,,,,,,,,,,,5DTLXW,train_x,blue_star,bottom_right,2025-09-08_15h10.13.688,HideSeek_v1,2022.2.5,59.94053897915899,
,8,0,3,0,-5,0,11,,train_dim1_1,25,30,,,,2,0,2,0,,,,,,,,,0,0,0,0,0,24,24,24,1,0,1,0,,,,,,,,,,,,,,,,,,,,,,,,,,,,,,,,,,,,,,,,,,,,,,,,,,,,,,,,,,,,,,,,30,,,,,,,,973.9776063999161,973.9776063999161,973.9776063999161,973.9776063999161,973.9776063999161,left,0.3417483000084758,18,0,0,99,0.31999999999999995,-0.4,left,0.25969310000073165,,,,,,,,,,,,,,,,,,,,,,,,,,,,,,,,,,,,,,,,,,,,,,,,,,,,,,,,,,,,5DTLXW,train_x,blue_star,bottom_right,2025-09-08_15h10.13.688,HideSeek_v1,2022.2.5,59.94053897915899,
,8,0,3,0,-5,0,11,,train_dim1_1,25,30,,,,2,0,2,0,,,,,,,,,0,0,0,0,0,24,24,24,2,0,2,0,,,,,,,,,,,,,,,,,,,,,,,,,,,,,,,,,,,,,,,,,,,,,,,,,,,,,,,,,,,,,,,,30,,,,,,,,974.3277428000001,974.3277428000001,974.3277428000001,974.3277428000001,974.3277428000001,left,0.30974469997454435,18,0,0,99,0.23999999999999994,-0.4,left,0.22304730000905693,,,,,,,,,,,,,,,,,,,,,,,,,,,,,,,,,,,,,,,,,,,,,,,,,,,,,,,,,,,,5DTLXW,train_x,blue_star,bottom_right,2025-09-08_15h10.13.688,HideSeek_v1,2022.2.5,59.94053897915899,
,8,0,3,0,-5,0,11,,train_dim1_1,25,30,,,,2,0,2,0,,,,,,,,,0,0,0,0,0,24,24,24,3,0,3,0,,,,,,,,,,,,,,,,,,,,,,,,,,,,,,,,,,,,,,,,,,,,,,,,,,,,,,,,,,,,,,,,30,,,,,,,,974.6444290999789,974.6444290999789,974.6444290999789,974.6444290999789,974.6444290999789,left,0.24299199995584786,18,0,0,99,0.15999999999999992,-0.4,left,0.165623499895446,,,,,,,,,,,,,,,,,,,,,,,,,,,,,,,,,,,,,,,,,,,,,,,,,,,,,,,,,,,,5DTLXW,train_x,blue_star,bottom_right,2025-09-08_15h10.13.688,HideSeek_v1,2022.2.5,59.94053897915899,
,8,0,3,0,-5,0,11,,train_dim1_1,25,30,,,,2,0,2,0,,,,,,,,,0,0,0,0,0,24,24,24,4,0,4,0,,,,,,,,,,,,,,,,,,,,,,,,,,,,,,,,,,,,,,,,,,,,,,,,,,,,,,,,,,,,,,,,30,,,,,,,,974.8954045999562,974.8954045999562,974.8954045999562,974.8954045999562,974.8954045999562,left,0.25852100003976375,18,0,0,99,0.07999999999999992,-0.4,left,0.17310040001757443,,,,,,,,,,,,,,,,,,,,,,,,,,,,,,,,,,,,,,,,,,,,,,,,,,,,,,,,,,,,5DTLXW,train_x,blue_star,bottom_right,2025-09-08_15h10.13.688,HideSeek_v1,2022.2.5,59.94053897915899,
,8,0,3,0,-5,0,11,,train_dim1_1,25,30,,,,2,0,2,0,,,,,,,,,0,0,0,0,0,24,24,24,5,0,5,0,,,,,,,,,,,,,,,,,,,,,,,,,,,,,,,,,,,,,,,,,,,,,,,,,,,,,,,,,,,,,,,,30,,,,,,,,975.1599397999234,975.1599397999234,975.1599397999234,975.1599397999234,975.1599397999234,return,3.212307299952954,19,0,0,1,0.07999999999999992,-0.4,return,3.1283066000323743,4,-60,0.07999999999999992,-0.4,,,,,,,,,,,,,,,,,,,,,,,,,,,,,,,,,,,,,,,,,,,,,,,,,,,,,,,,5DTLXW,train_x,blue_star,bottom_right,2025-09-08_15h10.13.688,HideSeek_v1,2022.2.5,59.94053897915899,
,6,1,6,1,0,0,61,,train_dim1_1,26,30,,,,2,0,2,0,,,,,,,,,0,0,0,0,0,25,25,25,0,0,0,0,,,,,,,,,,,,,,,,,,,,,,,,,stimuli/alien_stimuli/61.png,,,,,,,,,,,,,,,,,,,,,,,,,,,,,stimuli/alien_stimuli/11.png,11,8,27,,,,,,,30,,,,,,,,986.2187335999915,986.2187335999915,986.2187335999915,986.2187335999915,986.2187335999915,left,8.525541699957103,19,0,0,99,0.24,-0.32,left,8.43600270000752,,,,,984.6505796998972,986.2187335999915,0.08,-0.4,0.0,0.4,-0.4,0.08,0.27999999999999997,0.08,-0.4,979.9539516000077,979.9539516000077,979.9539516000077,979.9539516000077,979.9539516000077,979.9539516000077,979.9539516000077,979.9539516000077,979.9468116599834,4.822532699909061,return,4.664420400047675,,,,,,,,,,,,,,,,,,,,,,,,,,,,,,,,,5DTLXW,train_x,blue_star,bottom_right,2025-09-08_15h10.13.688,HideSeek_v1,2022.2.5,59.94053897915899,
,6,1,6,1,0,0,61,,train_dim1_1,26,30,,,,2,0,2,0,,,,,,,,,0,0,0,0,0,25,25,25,1,0,1,0,,,,,,,,,,,,,,,,,,,,,,,,,,,,,,,,,,,,,,,,,,,,,,,,,,,,,,,,,,,,,,,,30,,,,,,,,994.7445378999691,994.7445378999691,994.7445378999691,994.7445378999691,994.7445378999691,return,3.27822490001563,19,1,0,0,0.24,-0.32,return,3.18488499999512,4,-61,0.24,-0.32,,,,,,,,,,,,,,,,,,,,,,,,,,,,,,,,,,,,,,,,,,,,,,,,,,,,,,,,5DTLXW,train_x,blue_star,bottom_right,2025-09-08_15h10.13.688,HideSeek_v1,2022.2.5,59.94053897915899,
,5,1,2,1,-3,0,31,,train_dim1_1,27,30,,,,2,0,2,0,,,,,,,,,0,0,0,0,0,26,26,26,0,0,0,0,,,,,,,,,,,,,,,,,,,,,,,,,stimuli/alien_stimuli/31.png,,,,,,,,,,,,,,,,,,,,,,,,,,,,,stimuli/alien_stimuli/61.png,61,6,28,,,,,,,30,,,,,,,,1003.7492200999986,1003.7492200999986,1003.7492200999986,1003.7492200999986,1003.7492200999986,left,1.835186899988912,19,1,0,99,0.15999999999999998,-0.32,left,1.748454000102356,,,,,1002.1817680998938,1003.7492200999986,0.32,-0.32,0.0,0.0,-0.32,0.32,0.32,0.32,-0.32,999.6143724999856,999.6143724999856,999.6143724999856,999.6143724999856,999.6143724999856,999.6143724999856,999.6143724999856,999.6143724999856,999.5963757599471,2.7045740999747068,return,2.55088610004168,,,,,,,,,,,,,,,,,,,,,,,,,,,,,,,,,5DTLXW,train_x,blue_star,bottom_right,2025-09-08_15h10.13.688,HideSeek_v1,2022.2.5,59.94053897915899,
,5,1,2,1,-3,0,31,,train_dim1_1,27,30,,,,2,0,2,0,,,,,,,,,0,0,0,0,0,26,26,26,1,0,1,0,,,,,,,,,,,,,,,,,,,,,,,,,,,,,,,,,,,,,,,,,,,,,,,,,,,,,,,,,,,,,,,,30,,,,,,,,1005.5864163999213,1005.5864163999213,1005.5864163999213,1005.5864163999213,1005.5864163999213,left,0.20625389995984733,19,1,0,99,0.07999999999999997,-0.32,left,0.1280288000125438,,,,,,,,,,,,,,,,,,,,,,,,,,,,,,,,,,,,,,,,,,,,,,,,,,,,,,,,,,,,5DTLXW,train_x,blue_star,bottom_right,2025-09-08_15h10.13.688,HideSeek_v1,2022.2.5,59.94053897915899,
,5,1,2,1,-3,0,31,,train_dim1_1,27,30,,,,2,0,2,0,,,,,,,,,0,0,0,0,0,26,26,26,2,0,2,0,,,,,,,,,,,,,,,,,,,,,,,,,,,,,,,,,,,,,,,,,,,,,,,,,,,,,,,,,,,,,,,,30,,,,,,,,1005.7984255999327,1005.7984255999327,1005.7984255999327,1005.7984255999327,1005.7984255999327,left,0.20987469993997365,19,1,0,99,-2.7755575615628914e-17,-0.32,left,0.13090099999681115,,,,,,,,,,,,,,,,,,,,,,,,,,,,,,,,,,,,,,,,,,,,,,,,,,,,,,,,,,,,5DTLXW,train_x,blue_star,bottom_right,2025-09-08_15h10.13.688,HideSeek_v1,2022.2.5,59.94053897915899,
,5,1,2,1,-3,0,31,,train_dim1_1,27,30,,,,2,0,2,0,,,,,,,,,0,0,0,0,0,26,26,26,3,0,3,0,,,,,,,,,,,,,,,,,,,,,,,,,,,,,,,,,,,,,,,,,,,,,,,,,,,,,,,,,,,,,,,,30,,,,,,,,1006.0155713999411,1006.0155713999411,1006.0155713999411,1006.0155713999411,1006.0155713999411,left,0.20974640001077205,19,1,0,99,-0.08000000000000003,-0.32,left,0.12127100001089275,,,,,,,,,,,,,,,,,,,,,,,,,,,,,,,,,,,,,,,,,,,,,,,,,,,,,,,,,,,,5DTLXW,train_x,blue_star,bottom_right,2025-09-08_15h10.13.688,HideSeek_v1,2022.2.5,59.94053897915899,
,5,1,2,1,-3,0,31,,train_dim1_1,27,30,,,,2,0,2,0,,,,,,,,,0,0,0,0,0,26,26,26,4,0,4,0,,,,,,,,,,,,,,,,,,,,,,,,,,,,,,,,,,,,,,,,,,,,,,,,,,,,,,,,,,,,,,,,30,,,,,,,,1006.2343386999564,1006.2343386999564,1006.2343386999564,1006.2343386999564,1006.2343386999564,right,1.091238300083205,19,1,0,99,-2.7755575615628914e-17,-0.32,right,1.0033792000031099,,,,,,,,,,,,,,,,,,,,,,,,,,,,,,,,,,,,,,,,,,,,,,,,,,,,,,,,,,,,5DTLXW,train_x,blue_star,bottom_right,2025-09-08_15h10.13.688,HideSeek_v1,2022.2.5,59.94053897915899,
,5,1,2,1,-3,0,31,,train_dim1_1,27,30,,,,2,0,2,0,,,,,,,,,0,0,0,0,0,26,26,26,5,0,5,0,,,,,,,,,,,,,,,,,,,,,,,,,,,,,,,,,,,,,,,,,,,,,,,,,,,,,,,,,,,,,,,,30,,,,,,,,1007.3341033000033,1007.3341033000033,1007.3341033000033,1007.3341033000033,1007.3341033000033,return,1.9112130999565125,20,0,0,1,-2.7755575615628914e-17,-0.32,return,1.8240639999276027,4,-64,-2.7755575615628914e-17,-0.32,,,,,,,,,,,,,,,,,,,,,,,,,,,,,,,,,,,,,,,,,,,,,,,,,,,,,,,,5DTLXW,train_x,blue_star,bottom_right,2025-09-08_15h10.13.688,HideSeek_v1,2022.2.5,59.94053897915899,
,8,1,4,1,-4,0,21,,train_dim1_1,28,30,,,,2,0,2,0,,,,,,,,,0,0,0,0,0,27,27,27,0,0,0,0,,,,,,,,,,,,,,,,,,,,,,,,,stimuli/alien_stimuli/21.png,,,,,,,,,,,,,,,,,,,,,,,,,,,,,stimuli/alien_stimuli/31.png,31,5,29,,,,,,,30,,,,,,,,1015.5402410000097,1015.5402410000097,1015.5402410000097,1015.5402410000097,1015.5402410000097,left,1.2543736000079662,20,0,0,99,0.39999999999999997,-0.32,left,1.1682703000260517,,,,,1013.9750398999313,1015.5402410000097,0,-0.32,0.0,0.24,-0.32,0,0.12,0,-0.32,1010.8313892999431,1010.8313892999431,1010.8313892999431,1010.8313892999431,1010.8313892999431,1010.8313892999431,1010.8313892999431,1010.8313892999431,1010.8222974599572,3.271415999974124,return,3.1191988000646234,,,,,,,,,,,,,,,,,,,,,,,,,,,,,,,,,5DTLXW,train_x,blue_star,bottom_right,2025-09-08_15h10.13.688,HideSeek_v1,2022.2.5,59.94053897915899,
,8,1,4,1,-4,0,21,,train_dim1_1,28,30,,,,2,0,2,0,,,,,,,,,0,0,0,0,0,27,27,27,1,0,1,0,,,,,,,,,,,,,,,,,,,,,,,,,,,,,,,,,,,,,,,,,,,,,,,,,,,,,,,,,,,,,,,,30,,,,,,,,1016.7965038999682,1016.7965038999682,1016.7965038999682,1016.7965038999682,1016.7965038999682,left,0.4927007999503985,20,0,0,99,0.31999999999999995,-0.32,left,0.40473699988797307,,,,,,,,,,,,,,,,,,,,,,,,,,,,,,,,,,,,,,,,,,,,,,,,,,,,,,,,,,,,5DTLXW,train_x,blue_star,bottom_right,2025-09-08_15h10.13.688,HideSeek_v1,2022.2.5,59.94053897915899,
,8,1,4,1,-4,0,21,,train_dim1_1,28,30,,,,2,0,2,0,,,,,,,,,0,0,0,0,0,27,27,27,2,0,2,0,,,,,,,,,,,,,,,,,,,,,,,,,,,,,,,,,,,,,,,,,,,,,,,,,,,,,,,,,,,,,,,,30,,,,,,,,1017.2953239999479,1017.2953239999479,1017.2953239999479,1017.2953239999479,1017.2953239999479,left,0.7102810000069439,20,0,0,99,0.23999999999999994,-0.32,left,0.6314482999732718,,,,,,,,,,,,,,,,,,,,,,,,,,,,,,,,,,,,,,,,,,,,,,,,,,,,,,,,,,,,5DTLXW,train_x,blue_star,bottom_right,2025-09-08_15h10.13.688,HideSeek_v1,2022.2.5,59.94053897915899,
,8,1,4,1,-4,0,21,,train_dim1_1,28,30,,,,2,0,2,0,,,,,,,,,0,0,0,0,0,27,27,27,3,0,3,0,,,,,,,,,,,,,,,,,,,,,,,,,,,,,,,,,,,,,,,,,,,,,,,,,,,,,,,,,,,,,,,,30,,,,,,,,1018.0135125999805,1018.0135125999805,1018.0135125999805,1018.0135125999805,1018.0135125999805,left,0.6099868000019342,20,0,0,99,0.15999999999999992,-0.32,left,0.5197833999991417,,,,,,,,,,,,,,,,,,,,,,,,,,,,,,,,,,,,,,,,,,,,,,,,,,,,,,,,,,,,5DTLXW,train_x,blue_star,bottom_right,2025-09-08_15h10.13.688,HideSeek_v1,2022.2.5,59.94053897915899,
,8,1,4,1,-4,0,21,,train_dim1_1,28,30,,,,2,0,2,0,,,,,,,,,0,0,0,0,0,27,27,27,4,0,4,0,,,,,,,,,,,,,,,,,,,,,,,,,,,,,,,,,,,,,,,,,,,,,,,,,,,,,,,,,,,,,,,,30,,,,,,,,1018.6308299999218,1018.6308299999218,1018.6308299999218,1018.6308299999218,1018.6308299999218,return,1.5104050999507308,21,0,0,1,0.15999999999999992,-0.32,return,1.4256451000692323,4,-68,0.15999999999999992,-0.32,,,,,,,,,,,,,,,,,,,,,,,,,,,,,,,,,,,,,,,,,,,,,,,,,,,,,,,,5DTLXW,train_x,blue_star,bottom_right,2025-09-08_15h10.13.688,HideSeek_v1,2022.2.5,59.94053897915899,
,9,0,8,0,-1,0,51,,train_dim1_1,29,30,,,,2,0,2,0,,,,,,,,,0,0,0,0,0,28,28,28,0,0,0,0,,,,,,,,,,,,,,,,,,,,,,,,,stimuli/alien_stimuli/51.png,,,,,,,,,,,,,,,,,,,,,,,,,,,,,stimuli/alien_stimuli/21.png,21,8,30,,,,,,,30,,,,,,,,1025.9458282999694,1025.9458282999694,1025.9458282999694,1025.9458282999694,1025.9458282999694,left,1.5054889000020921,21,0,0,99,0.48000000000000004,-0.4,left,1.413784799980931,,,,,1024.3836572999135,1025.9458282999694,0.16,-0.32,0.0,0.32,-0.32,0.16,0.32,0.16,-0.32,1021.7211424999405,1021.7211424999405,1021.7211424999405,1021.7211424999405,1021.7211424999405,1021.7211424999405,1021.7211424999405,1021.7211424999405,1021.7147005599924,2.7877744999714196,return,2.645490500028245,,,,,,,,,,,,,,,,,,,,,,,,,,,,,,,,,5DTLXW,train_x,blue_star,bottom_right,2025-09-08_15h10.13.688,HideSeek_v1,2022.2.5,59.94053897915899,
,9,0,8,0,-1,0,51,,train_dim1_1,29,30,,,,2,0,2,0,,,,,,,,,0,0,0,0,0,28,28,28,1,0,1,0,,,,,,,,,,,,,,,,,,,,,,,,,,,,,,,,,,,,,,,,,,,,,,,,,,,,,,,,,,,,,,,,30,,,,,,,,1027.454992899904,1027.454992899904,1027.454992899904,1027.454992899904,1027.454992899904,return,0.5913674000184983,22,0,0,1,0.48000000000000004,-0.4,return,0.5113103999756277,4,-69,0.48000000000000004,-0.4,,,,,,,,,,,,,,,,,,,,,,,,,,,,,,,,,,,,,,,,,,,,,,,,,,,,,,,,5DTLXW,train_x,blue_star,bottom_right,2025-09-08_15h10.13.688,HideSeek_v1,2022.2.5,59.94053897915899,
,7,2,2,2,-5,0,11,,train_dim1_1,30,30,,,,2,0,2,0,,,,,,,,,0,0,0,0,0,29,29,29,0,0,0,0,,,,,,,,,,,,,,,,,,,,,,,,,stimuli/alien_stimuli/11.png,,,,,,,,,,,,,,,,,,,,,,,,,,,,,stimuli/alien_stimuli/51.png,51,9,31,,,,,,,30,,,,,,,,1032.2188487999374,1032.2188487999374,1032.2188487999374,1032.2188487999374,1032.2188487999374,left,1.3016798000317067,22,0,0,99,0.32,-0.24,left,1.1902882000431418,,,,,1030.6388709999155,1032.2188487999374,0.48,-0.4,0.0,0.08,-0.4,0.48,0.52,0.48,-0.4,1029.6260505999671,1029.6260505999671,1029.6260505999671,1029.6260505999671,1029.6260505999671,1029.6260505999671,1029.6260505999671,1029.6260505999671,1029.6045860399377,1.136302899918519,return,0.9811167999869213,,,,,,,,,,,,,,,,,,,,,,,,,,,,,,,,,5DTLXW,train_x,blue_star,bottom_right,2025-09-08_15h10.13.688,HideSeek_v1,2022.2.5,59.94053897915899,
,7,2,2,2,-5,0,11,,train_dim1_1,30,30,,,,2,0,2,0,,,,,,,,,0,0,0,0,0,29,29,29,1,0,1,0,,,,,,,,,,,,,,,,,,,,,,,,,,,,,,,,,,,,,,,,,,,,,,,,,,,,,,,,,,,,,,,,30,,,,,,,,1033.5114613999613,1033.5114613999613,1033.5114613999613,1033.5114613999613,1033.5114613999613,left,0.3406677999300882,22,0,0,99,0.24,-0.24,left,0.2561684000538662,,,,,,,,,,,,,,,,,,,,,,,,,,,,,,,,,,,,,,,,,,,,,,,,,,,,,,,,,,,,5DTLXW,train_x,blue_star,bottom_right,2025-09-08_15h10.13.688,HideSeek_v1,2022.2.5,59.94053897915899,
,7,2,2,2,-5,0,11,,train_dim1_1,30,30,,,,2,0,2,0,,,,,,,,,0,0,0,0,0,29,29,29,2,0,2,0,,,,,,,,,,,,,,,,,,,,,,,,,,,,,,,,,,,,,,,,,,,,,,,,,,,,,,,,,,,,,,,,30,,,,,,,,1033.859064099961,1033.859064099961,1033.859064099961,1033.859064099961,1033.859064099961,left,0.22661489993333817,22,0,0,99,0.15999999999999998,-0.24,left,0.14167949999682605,,,,,,,,,,,,,,,,,,,,,,,,,,,,,,,,,,,,,,,,,,,,,,,,,,,,,,,,,,,,5DTLXW,train_x,blue_star,bottom_right,2025-09-08_15h10.13.688,HideSeek_v1,2022.2.5,59.94053897915899,
,7,2,2,2,-5,0,11,,train_dim1_1,30,30,,,,2,0,2,0,,,,,,,,,0,0,0,0,0,29,29,29,3,0,3,0,,,,,,,,,,,,,,,,,,,,,,,,,,,,,,,,,,,,,,,,,,,,,,,,,,,,,,,,,,,,,,,,30,,,,,,,,1034.092160100001,1034.092160100001,1034.092160100001,1034.092160100001,1034.092160100001,left,0.3764968999894336,22,0,0,99,0.07999999999999997,-0.24,left,0.29657140001654625,,,,,,,,,,,,,,,,,,,,,,,,,,,,,,,,,,,,,,,,,,,,,,,,,,,,,,,,,,,,5DTLXW,train_x,blue_star,bottom_right,2025-09-08_15h10.13.688,HideSeek_v1,2022.2.5,59.94053897915899,
,7,2,2,2,-5,0,11,,train_dim1_1,30,30,,,,2,0,2,0,,,,,,,,,0,0,0,0,0,29,29,29,4,0,4,0,,,,,,,,,,,,,,,,,,,,,,,,,,,,,,,,,,,,,,,,,,,,,,,,,,,,,,,,,,,,,,,,30,,,,,,,,1034.4759461999638,1034.4759461999638,1034.4759461999638,1034.4759461999638,1034.4759461999638,left,0.2264139000326395,22,0,0,99,-2.7755575615628914e-17,-0.24,left,0.13626499997917563,,,,,,,,,,,,,,,,,,,,,,,,,,,,,,,,,,,,,,,,,,,,,,,,,,,,,,,,,,,,5DTLXW,train_x,blue_star,bottom_right,2025-09-08_15h10.13.688,HideSeek_v1,2022.2.5,59.94053897915899,
,7,2,2,2,-5,0,11,,train_dim1_1,30,30,,,,2,0,2,0,,,,,,,,,0,0,0,0,0,29,29,29,5,0,5,0,,,,,,,,,,,,,,,,,,,,,,,,,,,,,,,,,,,,,,,,,,,,,,,,,,,,,,,,,,,,,,,,30,,,,,,,,1034.7095037999097,1034.7095037999097,1034.7095037999097,1034.7095037999097,1034.7095037999097,return,3.8293671999126673,23,0,0,1,-2.7755575615628914e-17,-0.24,return,3.7450514000374824,4,-74,-2.7755575615628914e-17,-0.24,,,,,,,,,,,,,,,,,,,,,,,,,,,,,,,,,,,,,,,,,,,,,,,,,,,,,,,,5DTLXW,train_x,blue_star,bottom_right,2025-09-08_15h10.13.688,HideSeek_v1,2022.2.5,59.94053897915899,
,,,,,,,,,,,30,,,,2,0,2,0,,,,,,,,,,,,,,,,,,,,,,,,,,,,,,,,,,,,,,,,,,,,,,,,,,,,,,,,,,,,,,,,,,,,,,,,,,stimuli/alien_stimuli/11.png,11,7,32,21,0.7,0.9583333333333335,1,1,1,30,0,conditions/schedules/train_x_first/blue_star_00/bottom_right/inputTrain_2.1.xlsx,99,1,2,1,0,,,,,,,,,,,1,,,,,,,,,1041.5478513999842,1043.1038024999434,0,-0.24,0.0,0.4,-0.24,0,0.2,0,-0.24,1040.124276299961,1040.124276299961,1040.124276299961,1040.124276299961,1040.124276299961,1040.124276299961,1040.124276299961,1040.124276299961,1040.113306159992,1.553240800043568,return,1.3987846000818536,0,0.9,0,1,23,,,,,,,,,,,,,,,,,,,,,,,,,,,,5DTLXW,train_x,blue_star,bottom_right,2025-09-08_15h10.13.688,HideSeek_v1,2022.2.5,59.94053897915899,
,,,,,,,,,,,,,,,3,0,3,0,0,0,0,0,,,,,,,,,,,,,,,,,,,,,,,,,,,,,,,conditions/schedules/train_x_first/blue_star_00/bottom_right/instructions/Slide17.png,conditions/schedules/train_x_first/blue_star_00/bottom_right/instructions/Audio17.wav,1043.1038024999434,1043.099266179907,17,"[3.902677899925038, 18.39604889997281, 16.20067090005614, 19.773536899941973, 4.654876700020395, 4.701762599986978, 5.403398199938238, 11.413034999975935, 5.568892400013283, 6.483356399927288, 9.986505800043233, 12.470069300034083, 16.354617800097913, 13.42447379999794, 30.516474900068715, 22.593778799986467, 55.639104099944234]","[3.9026847999775782, 0.033489600056782365, 0.014265500009059906, 0.03407689998857677, 0.04844100004993379, 0.06543869990855455, 0.08708430000115186, 0.08072710002306849, 0.13086509995628148, 0.11130240000784397, 0.04667389998212457, 12.470075799967162, 0.04741170001216233, 13.424480199930258, 0.06360489991493523, 22.593785299919546, 55.63911089999601]",0,,,,,,,,,,,,,,,,,,,,,,,,,,,,,,,,,,,,,,,,,,,,,,,,,,,,,,,,,,,,,,,,,,,,,,,,,,,,,,,,,,,,,,,,,,,,,,,,,,,,,,,,,,,,,,,,,,,,,,,,,,,,5DTLXW,train_x,blue_star,bottom_right,2025-09-08_15h10.13.688,HideSeek_v1,2022.2.5,59.94053897915899,
,,,,,,,,,,,,,,,3,0,3,0,1,0,1,0,,,,,,,,,,,,,,,,,,,,,,,,,,,,,,,conditions/schedules/train_x_first/blue_star_00/bottom_right/instructions/Slide18.png,conditions/schedules/train_x_first/blue_star_00/bottom_right/instructions/Audio18.wav,1098.805067999987,1098.7954630800057,18,"[3.902677899925038, 18.39604889997281, 16.20067090005614, 19.773536899941973, 4.654876700020395, 4.701762599986978, 5.403398199938238, 11.413034999975935, 5.568892400013283, 6.483356399927288, 9.986505800043233, 12.470069300034083, 16.354617800097913, 13.42447379999794, 30.516474900068715, 22.593778799986467, 55.639104099944234, 5.709507800056599]","[3.9026847999775782, 0.033489600056782365, 0.014265500009059906, 0.03407689998857677, 0.04844100004993379, 0.06543869990855455, 0.08708430000115186, 0.08072710002306849, 0.13086509995628148, 0.11130240000784397, 0.04667389998212457, 12.470075799967162, 0.04741170001216233, 13.424480199930258, 0.06360489991493523, 22.593785299919546, 55.63911089999601, 5.7095158000011]",0,,,,,,,,,,,,,,,,,,,,,,,,,,,,,,,,,,,,,,,,,,,,,,,,,,,,,,,,,,,,,,,,,,,,,,,,,,,,,,,,,,,,,,,,,,,,,,,,,,,,,,,,,,,,,,,,,,,,,,,,,,,,5DTLXW,train_x,blue_star,bottom_right,2025-09-08_15h10.13.688,HideSeek_v1,2022.2.5,59.94053897915899,
,,,,,,,,,,,,,,,3,0,3,0,2,0,2,0,,,,,,,,,,,,,,,,,,,,,,,,,,,,,,,conditions/schedules/train_x_first/blue_star_00/bottom_right/instructions/Slide19.png,conditions/schedules/train_x_first/blue_star_00/bottom_right/instructions/Audio19.wav,1104.5547735999571,1104.5502186600004,19,"[3.902677899925038, 18.39604889997281, 16.20067090005614, 19.773536899941973, 4.654876700020395, 4.701762599986978, 5.403398199938238, 11.413034999975935, 5.568892400013283, 6.483356399927288, 9.986505800043233, 12.470069300034083, 16.354617800097913, 13.42447379999794, 30.516474900068715, 22.593778799986467, 55.639104099944234, 5.709507800056599, 10.351467999978922]","[3.9026847999775782, 0.033489600056782365, 0.014265500009059906, 0.03407689998857677, 0.04844100004993379, 0.06543869990855455, 0.08708430000115186, 0.08072710002306849, 0.13086509995628148, 0.11130240000784397, 0.04667389998212457, 12.470075799967162, 0.04741170001216233, 13.424480199930258, 0.06360489991493523, 22.593785299919546, 55.63911089999601, 0.04681680002249777, 10.3514748000307]",0,,,,,,,,,,,,,,,,,,,,,,,,,,,,,,,,,,,,,,,,,,,,,,,,,,,,,,,,,,,,,,,,,,,,,,,,,,,,,,,,,,,,,,,,,,,,,,,,,,,,,,,,,,,,,,,,,,,,,,,,,,,,5DTLXW,train_x,blue_star,bottom_right,2025-09-08_15h10.13.688,HideSeek_v1,2022.2.5,59.94053897915899,
,,,,,,,,,,,,,,,3,0,3,0,3,0,3,0,,,,,,,,,,,,,,,,,,,,,,,,,,,,,,,conditions/schedules/train_x_first/blue_star_00/bottom_right/instructions/Slide20.png,conditions/schedules/train_x_first/blue_star_00/bottom_right/instructions/Audio20.wav,1114.979929599911,1114.9753401999478,20,"[3.902677899925038, 18.39604889997281, 16.20067090005614, 19.773536899941973, 4.654876700020395, 4.701762599986978, 5.403398199938238, 11.413034999975935, 5.568892400013283, 6.483356399927288, 9.986505800043233, 12.470069300034083, 16.354617800097913, 13.42447379999794, 30.516474900068715, 22.593778799986467, 55.639104099944234, 5.709507800056599, 10.351467999978922, 14.605248100007884]","[3.9026847999775782, 0.033489600056782365, 0.014265500009059906, 0.03407689998857677, 0.04844100004993379, 0.06543869990855455, 0.08708430000115186, 0.08072710002306849, 0.13086509995628148, 0.11130240000784397, 0.04667389998212457, 12.470075799967162, 0.04741170001216233, 13.424480199930258, 0.06360489991493523, 22.593785299919546, 55.63911089999601, 0.04681680002249777, 0.014005300006829202, 14.605254899943247]",0,,,,,,,,,,,,,,,,,,,,,,,,,,,,,,,,,,,,,,,,,,,,,,,,,,,,,,,,,,,,,,,,,,,,,,,,,,,,,,,,,,,,,,,,,,,,,,,,,,,,,,,,,,,,,,,,,,,,,,,,,,,,5DTLXW,train_x,blue_star,bottom_right,2025-09-08_15h10.13.688,HideSeek_v1,2022.2.5,59.94053897915899,
1,5,3,5,8,0,5,66,2,instr_dim1_2,,,,,,3,0,3,0,,,,,0,0,0,0,,,,,,,,,,,,,,,,,,,,,,,,,,,,,,,,,,,,,stimuli/alien_stimuli/66.png,conditions/schedules/train_x_first/blue_star_00/bottom_right/inputInstr_2.xlsx,stimuli/alien_stimuli/66.png,1129.6916381999617,1129.6916381999617,1129.6916381999617,1129.6916381999617,1129.6876890400076,return,8.95846450002864,"[-0.16, -0.08, 0, 0.08, 0.16, 0.24, 0.32, 0.4, 0.48, 0.56]","[-0.4, -0.32, -0.24, -0.16, -0.08, 0, 0.08, 0.16, 0.24, 0.32]",8,3,5,5,0.4,0.0,1138.8038458999945,1138.8038458999945,1138.8038458999945,1138.8038458999945,1138.8038458999945,1138.8038458999945,1138.8038458999945,1138.7951448599576,9.792578699998558,return,9.647460800013505,stimuli/alien_stimuli/66.png,66,5,1,,,,,,,,,,,,,,,,,,,,,,,,,,,,,,,,,,,,,,,,,,,,,,,,,,,,,,,,,,,,,,,,,,,,,,,,,,,,,,,,,,,,,,,,,5DTLXW,train_x,blue_star,bottom_right,2025-09-08_15h10.13.688,HideSeek_v1,2022.2.5,59.94053897915899,
,,,,,,,,,,,30,,,,3,0,3,0,,,,,,,,,,,,,,,,,,,,,,,,,,,,,,,,,,,,,,,,,,,,,,,,,,,,,,,,,,,,,,,,,,,,,,,,,,,,,,21,0.7,0.9583333333333335,1,99,2,30,0,conditions/schedules/train_x_first/blue_star_00/bottom_right/inputTrain_2.1.xlsx,99,1,2,1,0,,,,,,,,,,,,,,,,,,,,,,,,,,,,,,,,,,,,,,,,,,,,,,,,,,,,,,,,,,,,,,,,,,,,,,,,,,,5DTLXW,train_x,blue_star,bottom_right,2025-09-08_15h10.13.688,HideSeek_v1,2022.2.5,59.94053897915899,
