trialInstr,x_fixStart,y_fixStart,x_corrSteps,y_corrSteps,x_nrSteps,y_nrSteps,alienID,trialLength,version,trialTrain,praclen,testlen,trial_label,break_on_off,beforeExpLoop.thisRepN,beforeExpLoop.thisTrialN,beforeExpLoop.thisN,beforeExpLoop.thisIndex,mini_instr_trials.thisRepN,mini_instr_trials.thisTrialN,mini_instr_trials.thisN,mini_instr_trials.thisIndex,instrLoop.thisRepN,instrLoop.thisTrialN,instrLoop.thisN,instrLoop.thisIndex,repeat_prac.thisRepN,repeat_prac.thisTrialN,repeat_prac.thisN,repeat_prac.thisIndex,trainLoop.thisRepN,trainLoop.thisTrialN,trainLoop.thisN,trainLoop.thisIndex,moveLoop_train.thisRepN,moveLoop_train.thisTrialN,moveLoop_train.thisN,moveLoop_train.thisIndex,experiment.thisRepN,experiment.thisTrialN,experiment.thisN,experiment.thisIndex,moveLoop_test.thisRepN,moveLoop_test.thisTrialN,moveLoop_test.thisN,moveLoop_test.thisIndex,mini_instr2_trials.thisRepN,mini_instr2_trials.thisTrialN,mini_instr2_trials.thisN,mini_instr2_trials.thisIndex,start_all_time,url,slideStim,audioStim,slides.started,sounds.started,nextButton.numClicks,nextButton.timesOn,nextButton.timesOff,prev_but.numClicks,prev_but.timesOn,prev_but.timesOff,alienStim,instrFile,alienStim_instr,gridImage_instr.started,startPos_3.started,key_instr.started,alienImage_3.started,sounds_1.started,key_instr.keys,key_instr.rt,all_x,all_y,FBy_corrSteps,FBy_fixStart,FBx_corrSteps,FBx_fixStart,FBy_pathSize_check,FBx_pathSize_check,gridImage_9.started,alienImageFB_3.started,startPosFB_3.started,keyFB_3.started,pathLine_ydir_2.started,pathLine_xdir_2.started,alienFace_3.started,sounds_2.started,RTFB_instr,keyFB_3.keys,keyFB_3.rt,draw_alienStim,draw_alienID,test_x,nrepcount,perfthres,percthres,earlierperf,earlystop,nextPrac,fileidx,praclen,saveACC_train,pracFile,nextPrac_train,addNrep,fileidx_endr,repExp,showearly,gridImage_4.started,startPos.started,movePos.started,key_resp.started,alienImage.started,buttonPress_train,RTchoice_train,cumAcctrain,aCorr,saveACC_choice,corrAns,x_movePos_end,y_movePos_end,key_resp.keys,key_resp.rt,wLy_dir,wLx_dir,x_movePos,y_movePos,text_2.started,text_2.stopped,aft_x_corrPos,aft_y_corrPos,y_pathSize_check,x_pathSize_check,y_pathdirY,x_pathdirY,x_pathdirX,x_corrPos,y_corrPos,gridImage_6.started,alienImageFB_2.started,startPosFB_2.started,movePosFB_2.started,keyFB_2.started,pathLine_xdir.started,pathLine_ydir.started,alienFace.started,sounds_4.started,RT_FBtrain,keyFB_2.keys,keyFB_2.rt,saveACC_pre,ACC,within_saveACC_train,earlystop_wloop,cumAcctrain_check,gridImage_3.started,alienImage_test.started,startPos_test.started,movePos_test.started,key_resp_test.started,wLy_dir_test,wLx_dir_test,buttonPress_test,RTchoice_test,cumAcctest,corrAns_test,key_resp_test.keys,key_resp_test.rt,text_3.started,text_3.stopped,total_time,end_all_time,key_resp_3.keys,slides_2.started,sounds_3.started,nextButton_2.numClicks,nextButton_2.timesOn,nextButton_2.timesOff,prev_but_2.numClicks,prev_but_2.timesOn,prev_but_2.timesOff,bye.started,participant,train_first,00_coordinate,starting corner,date,expName,psychopyVersion,frameRate,
,,,,,,,,,,,,,,,0,0,0,0,0,0,0,0,,,,,,,,,,,,,,,,,,,,,,,,,,,,,start_all_time,testround,conditions/schedules/train_y_first/red_square_00/top_right/instructions/Slide1.png,conditions/schedules/train_y_first/red_square_00/top_right/instructions/Audio1.wav,1277.339017600054,1277.2782985181082,1,[11.41320740012452],[11.413218900095671],0,,,,,,,,,,,,,,,,,,,,,,,,,,,,,,,,,,,,,,,,,,,,,,,,,,,,,,,,,,,,,,,,,,,,,,,,,,,,,,,,,,,,,,,,,,,,,,,,,,,,,,,,,,,,,,,,,,,,,,,,,,,,5LDGLV,train_y,red_square,top_right,2025-04-01_17h05.31.528,HideSeek_v1,2022.2.5,59.9436650031524,
,,,,,,,,,,,,,,,0,0,0,0,1,0,1,0,,,,,,,,,,,,,,,,,,,,,,,,,,,,,,,conditions/schedules/train_y_first/red_square_00/top_right/instructions/Slide2.png,conditions/schedules/train_y_first/red_square_00/top_right/instructions/Audio2.wav,1288.7745135000441,1288.770200100029,2,"[11.41320740012452, 18.675645699957386]","[11.413218900095671, 18.67565350001678]",0,,,,,,,,,,,,,,,,,,,,,,,,,,,,,,,,,,,,,,,,,,,,,,,,,,,,,,,,,,,,,,,,,,,,,,,,,,,,,,,,,,,,,,,,,,,,,,,,,,,,,,,,,,,,,,,,,,,,,,,,,,,,5LDGLV,train_y,red_square,top_right,2025-04-01_17h05.31.528,HideSeek_v1,2022.2.5,59.9436650031524,
,,,,,,,,,,,,,,,0,0,0,0,2,0,2,0,,,,,,,,,,,,,,,,,,,,,,,,,,,,,,,conditions/schedules/train_y_first/red_square_00/top_right/instructions/Slide3.png,conditions/schedules/train_y_first/red_square_00/top_right/instructions/Audio3.wav,1307.5274221000727,1307.5184870001394,3,"[11.41320740012452, 18.675645699957386, 16.46929350006394]","[11.413218900095671, 0.00023239990696310997, 16.469300099881366]",0,,,,,,,,,,,,,,,,,,,,,,,,,,,,,,,,,,,,,,,,,,,,,,,,,,,,,,,,,,,,,,,,,,,,,,,,,,,,,,,,,,,,,,,,,,,,,,,,,,,,,,,,,,,,,,,,,,,,,,,,,,,,5LDGLV,train_y,red_square,top_right,2025-04-01_17h05.31.528,HideSeek_v1,2022.2.5,59.9436650031524,
,,,,,,,,,,,,,,,0,0,0,0,3,0,3,0,,,,,,,,,,,,,,,,,,,,,,,,,,,,,,,conditions/schedules/train_y_first/red_square_00/top_right/instructions/Slide4.png,conditions/schedules/train_y_first/red_square_00/top_right/instructions/Audio4.wav,1324.070353700081,1324.0655739000067,4,"[11.41320740012452, 18.675645699957386, 16.46929350006394, 19.37687679985538]","[11.413218900095671, 0.00023239990696310997, 0.030650899978354573, 19.37688439991325]",0,,,,,,,,,,,,,,,,,,,,,,,,,,,,,,,,,,,,,,,,,,,,,,,,,,,,,,,,,,,,,,,,,,,,,,,,,,,,,,,,,,,,,,,,,,,,,,,,,,,,,,,,,,,,,,,,,,,,,,,,,,,,5LDGLV,train_y,red_square,top_right,2025-04-01_17h05.31.528,HideSeek_v1,2022.2.5,59.9436650031524,
,,,,,,,,,,,,,,,0,0,0,0,4,0,4,0,,,,,,,,,,,,,,,,,,,,,,,,,,,,,,,conditions/schedules/train_y_first/red_square_00/top_right/instructions/Slide5.png,conditions/schedules/train_y_first/red_square_00/top_right/instructions/Audio5.wav,1343.5041704000905,1343.4985152800102,5,"[11.41320740012452, 18.675645699957386, 16.46929350006394, 19.37687679985538, 4.128849999979138]","[11.413218900095671, 0.00023239990696310997, 0.030650899978354573, 0.013894400093704462, 4.1288578999228776]",0,,,,,,,,,,,,,,,,,,,,,,,,,,,,,,,,,,,,,,,,,,,,,,,,,,,,,,,,,,,,,,,,,,,,,,,,,,,,,,,,,,,,,,,,,,,,,,,,,,,,,,,,,,,,,,,,,,,,,,,,,,,,5LDGLV,train_y,red_square,top_right,2025-04-01_17h05.31.528,HideSeek_v1,2022.2.5,59.9436650031524,
,,,,,,,,,,,,,,,0,0,0,0,5,0,5,0,,,,,,,,,,,,,,,,,,,,,,,,,,,,,,,conditions/schedules/train_y_first/red_square_00/top_right/instructions/Slide6.png,conditions/schedules/train_y_first/red_square_00/top_right/instructions/Audio6.wav,1347.6845419001766,1347.685307980096,6,"[11.41320740012452, 18.675645699957386, 16.46929350006394, 19.37687679985538, 4.128849999979138, 4.318352299975231]","[11.413218900095671, 0.00023239990696310997, 0.030650899978354573, 0.013894400093704462, 0.014262299984693527, 4.318358700023964]",0,,,,,,,,,,,,,,,,,,,,,,,,,,,,,,,,,,,,,,,,,,,,,,,,,,,,,,,,,,,,,,,,,,,,,,,,,,,,,,,,,,,,,,,,,,,,,,,,,,,,,,,,,,,,,,,,,,,,,,,,,,,,5LDGLV,train_y,red_square,top_right,2025-04-01_17h05.31.528,HideSeek_v1,2022.2.5,59.9436650031524,
,,,,,,,,,,,,,,,0,0,0,0,6,0,6,0,,,,,,,,,,,,,,,,,,,,,,,,,,,,,,,conditions/schedules/train_y_first/red_square_00/top_right/instructions/Slide7.png,conditions/schedules/train_y_first/red_square_00/top_right/instructions/Audio7.wav,1352.0552275001537,1352.0554945799988,7,"[11.41320740012452, 18.675645699957386, 16.46929350006394, 19.37687679985538, 4.128849999979138, 4.318352299975231, 5.319354899926111]","[11.413218900095671, 0.00023239990696310997, 0.030650899978354573, 0.013894400093704462, 0.014262299984693527, 0.014416399877518415, 5.31936169997789]",0,,,,,,,,,,,,,,,,,,,,,,,,,,,,,,,,,,,,,,,,,,,,,,,,,,,,,,,,,,,,,,,,,,,,,,,,,,,,,,,,,,,,,,,,,,,,,,,,,,,,,,,,,,,,,,,,,,,,,,,,,,,,5LDGLV,train_y,red_square,top_right,2025-04-01_17h05.31.528,HideSeek_v1,2022.2.5,59.9436650031524,
,,,,,,,,,,,,,,,0,0,0,0,7,0,7,0,,,,,,,,,,,,,,,,,,,,,,,,,,,,,,,conditions/schedules/train_y_first/red_square_00/top_right/instructions/Slide8.png,conditions/schedules/train_y_first/red_square_00/top_right/instructions/Audio8.wav,1357.427950200159,1357.4267946801149,8,"[11.41320740012452, 18.675645699957386, 16.46929350006394, 19.37687679985538, 4.128849999979138, 4.318352299975231, 5.319354899926111, 13.173546199919656]","[11.413218900095671, 0.00023239990696310997, 0.030650899978354573, 0.013894400093704462, 0.014262299984693527, 0.014416399877518415, 0.04755620006471872, 13.173552900087088]",0,,,,,,,,,,,,,,,,,,,,,,,,,,,,,,,,,,,,,,,,,,,,,,,,,,,,,,,,,,,,,,,,,,,,,,,,,,,,,,,,,,,,,,,,,,,,,,,,,,,,,,,,,,,,,,,,,,,,,,,,,,,,5LDGLV,train_y,red_square,top_right,2025-04-01_17h05.31.528,HideSeek_v1,2022.2.5,59.9436650031524,
,,,,,,,,,,,,,,,0,0,0,0,8,0,8,0,,,,,,,,,,,,,,,,,,,,,,,,,,,,,,,conditions/schedules/train_y_first/red_square_00/top_right/instructions/Slide9.png,conditions/schedules/train_y_first/red_square_00/top_right/instructions/Audio9.wav,1370.6647473000921,1370.6541618800723,9,"[11.41320740012452, 18.675645699957386, 16.46929350006394, 19.37687679985538, 4.128849999979138, 4.318352299975231, 5.319354899926111, 13.173546199919656, 6.142542799934745]","[11.413218900095671, 0.00023239990696310997, 0.030650899978354573, 0.013894400093704462, 0.014262299984693527, 0.014416399877518415, 0.04755620006471872, 0.0144338000100106, 6.1425496998708695]",0,,,,,,,,,,,,,,,,,,,,,,,,,,,,,,,,,,,,,,,,,,,,,,,,,,,,,,,,,,,,,,,,,,,,,,,,,,,,,,,,,,,,,,,,,,,,,,,,,,,,,,,,,,,,,,,,,,,,,,,,,,,,5LDGLV,train_y,red_square,top_right,2025-04-01_17h05.31.528,HideSeek_v1,2022.2.5,59.9436650031524,
,,,,,,,,,,,,,,,0,0,0,0,9,0,9,0,,,,,,,,,,,,,,,,,,,,,,,,,,,,,,,conditions/schedules/train_y_first/red_square_00/top_right/instructions/Slide10.png,conditions/schedules/train_y_first/red_square_00/top_right/instructions/Audio10.wav,1376.8637438002042,1376.8594646801241,10,"[11.41320740012452, 18.675645699957386, 16.46929350006394, 19.37687679985538, 4.128849999979138, 4.318352299975231, 5.319354899926111, 13.173546199919656, 6.142542799934745, 6.631997799966484]","[11.413218900095671, 0.00023239990696310997, 0.030650899978354573, 0.013894400093704462, 0.014262299984693527, 0.014416399877518415, 0.04755620006471872, 0.0144338000100106, 0.046652899822220206, 6.632004499901086]",0,,,,,,,,,,,,,,,,,,,,,,,,,,,,,,,,,,,,,,,,,,,,,,,,,,,,,,,,,,,,,,,,,,,,,,,,,,,,,,,,,,,,,,,,,,,,,,,,,,,,,,,,,,,,,,,,,,,,,,,,,,,,5LDGLV,train_y,red_square,top_right,2025-04-01_17h05.31.528,HideSeek_v1,2022.2.5,59.9436650031524,
,,,,,,,,,,,,,,,0,0,0,0,10,0,10,0,,,,,,,,,,,,,,,,,,,,,,,,,,,,,,,conditions/schedules/train_y_first/red_square_00/top_right/instructions/Slide11.png,conditions/schedules/train_y_first/red_square_00/top_right/instructions/Audio11.wav,1383.5354928001761,1383.5316348600666,11,"[11.41320740012452, 18.675645699957386, 16.46929350006394, 19.37687679985538, 4.128849999979138, 4.318352299975231, 5.319354899926111, 13.173546199919656, 6.142542799934745, 6.631997799966484, 10.018881500000134]","[11.413218900095671, 0.00023239990696310997, 0.030650899978354573, 0.013894400093704462, 0.014262299984693527, 0.014416399877518415, 0.04755620006471872, 0.0144338000100106, 0.046652899822220206, 0.06390459998510778, 10.018888200167567]",0,,,,,,,,,,,,,,,,,,,,,,,,,,,,,,,,,,,,,,,,,,,,,,,,,,,,,,,,,,,,,,,,,,,,,,,,,,,,,,,,,,,,,,,,,,,,,,,,,,,,,,,,,,,,,,,,,,,,,,,,,,,,5LDGLV,train_y,red_square,top_right,2025-04-01_17h05.31.528,HideSeek_v1,2022.2.5,59.9436650031524,
,,,,,,,,,,,,,,,0,0,0,0,11,0,11,0,,,,,,,,,,,,,,,,,,,,,,,,,,,,,,,conditions/schedules/train_y_first/red_square_00/top_right/instructions/Slide12.png,conditions/schedules/train_y_first/red_square_00/top_right/instructions/Audio12.wav,1393.6094755001832,1393.6068931799848,12,"[11.41320740012452, 18.675645699957386, 16.46929350006394, 19.37687679985538, 4.128849999979138, 4.318352299975231, 5.319354899926111, 13.173546199919656, 6.142542799934745, 6.631997799966484, 10.018881500000134, 13.839677900075912]","[11.413218900095671, 0.00023239990696310997, 0.030650899978354573, 0.013894400093704462, 0.014262299984693527, 0.014416399877518415, 0.04755620006471872, 0.0144338000100106, 0.046652899822220206, 0.06390459998510778, 0.04774460010230541, 13.839684700127691]",0,,,,,,,,,,,,,,,,,,,,,,,,,,,,,,,,,,,,,,,,,,,,,,,,,,,,,,,,,,,,,,,,,,,,,,,,,,,,,,,,,,,,,,,,,,,,,,,,,,,,,,,,,,,,,,,,,,,,,,,,,,,,5LDGLV,train_y,red_square,top_right,2025-04-01_17h05.31.528,HideSeek_v1,2022.2.5,59.9436650031524,
1,7,8,7,3,0,-5,11,2,instr_dim1_1,,,,,,0,0,0,0,,,,,0,0,0,0,,,,,,,,,,,,,,,,,,,,,,,,,,,,,,,,,,,,,stimuli/alien_stimuli/11.png,conditions/schedules/train_y_first/red_square_00/top_right/inputInstr_1.xlsx,stimuli/alien_stimuli/11.png,1407.5515430001542,1407.5515430001542,1407.5515430001542,1407.5515430001542,1407.5516597399487,return,14.520927999867126,"[-0.16, -0.08, 0, 0.08, 0.16, 0.24, 0.32, 0.4, 0.48, 0.56]","[-0.4, -0.32, -0.24, -0.16, -0.08, 0, 0.08, 0.16, 0.24, 0.32]",3,8,7,7,0.4,0.0,1422.2429977001157,1422.2429977001157,1422.2429977001157,1422.2429977001157,1422.2429977001157,1422.2429977001157,1422.2429977001157,1422.2303504799959,11.710744300158694,return,11.536082899896428,stimuli/alien_stimuli/11.png,11,7,1,,,,,,,,,,,,,,,,,,,,,,,,,,,,,,,,,,,,,,,,,,,,,,,,,,,,,,,,,,,,,,,,,,,,,,,,,,,,,,,,,,,,,,,,,5LDGLV,train_y,red_square,top_right,2025-04-01_17h05.31.528,HideSeek_v1,2022.2.5,59.9436650031524,
,,,,,,,,,,,30,,,,0,0,0,0,,,,,,,,,,,,,,,,,,,,,,,,,,,,,,,,,,,,,,,,,,,,,,,,,,,,,,,,,,,,,,,,,,,,,,,,,,,,,,21,0.7,0,0,99,1,30,0,conditions/schedules/train_y_first/red_square_00/top_right/inputTrain_1.1.xlsx,99,1,1,1,0,,,,,,,,,,,,,,,,,,,,,,,,,,,,,,,,,,,,,,,,,,,,,,,,,,,,,,,,,,,,,,,,,,,,,,,,,,,5LDGLV,train_y,red_square,top_right,2025-04-01_17h05.31.528,HideSeek_v1,2022.2.5,59.9436650031524,
,,,,,,,,,,,,,,,1,0,1,0,0,0,0,0,,,,,,,,,,,,,,,,,,,,,,,,,,,,,,,conditions/schedules/train_y_first/red_square_00/top_right/instructions/Slide13.png,conditions/schedules/train_y_first/red_square_00/top_right/instructions/Audio13.wav,1433.95821349998,1433.9569346001372,13,"[11.41320740012452, 18.675645699957386, 16.46929350006394, 19.37687679985538, 4.128849999979138, 4.318352299975231, 5.319354899926111, 13.173546199919656, 6.142542799934745, 6.631997799966484, 10.018881500000134, 13.839677900075912, 17.394473899854347]","[11.413218900095671, 0.00023239990696310997, 0.030650899978354573, 0.013894400093704462, 0.014262299984693527, 0.014416399877518415, 0.04755620006471872, 0.0144338000100106, 0.046652899822220206, 0.06390459998510778, 0.04774460010230541, 13.839684700127691, 17.394480499904603]",0,,,,,,,,,,,,,,,,,,,,,,,,,,,,,,,,,,,,,,,,,,,,,,,,,,,,,,,,,,,,,,,,,,,,,,,,,,,,,,,,,,,,,,,,,,,,,,,,,,,,,,,,,,,,,,,,,,,,,,,,,,,,5LDGLV,train_y,red_square,top_right,2025-04-01_17h05.31.528,HideSeek_v1,2022.2.5,59.9436650031524,
,,,,,,,,,,,,,,,1,0,1,0,1,0,1,0,,,,,,,,,,,,,,,,,,,,,,,,,,,,,,,conditions/schedules/train_y_first/red_square_00/top_right/instructions/Slide14.png,conditions/schedules/train_y_first/red_square_00/top_right/instructions/Audio14.wav,1451.4250971002039,1451.4215798999649,14,"[11.41320740012452, 18.675645699957386, 16.46929350006394, 19.37687679985538, 4.128849999979138, 4.318352299975231, 5.319354899926111, 13.173546199919656, 6.142542799934745, 6.631997799966484, 10.018881500000134, 13.839677900075912, 17.394473899854347, 16.541620700154454]","[11.413218900095671, 0.00023239990696310997, 0.030650899978354573, 0.013894400093704462, 0.014262299984693527, 0.014416399877518415, 0.04755620006471872, 0.0144338000100106, 0.046652899822220206, 0.06390459998510778, 0.04774460010230541, 13.839684700127691, 0.00023900019004940987, 16.54162730020471]",0,,,,,,,,,,,,,,,,,,,,,,,,,,,,,,,,,,,,,,,,,,,,,,,,,,,,,,,,,,,,,,,,,,,,,,,,,,,,,,,,,,,,,,,,,,,,,,,,,,,,,,,,,,,,,,,,,,,,,,,,,,,,5LDGLV,train_y,red_square,top_right,2025-04-01_17h05.31.528,HideSeek_v1,2022.2.5,59.9436650031524,
2,5,8,5,8,0,0,16,2,instr_dim1_1,,,,,,1,0,1,0,,,,,0,0,0,0,,,,,,,,,,,,,,,,,,,,,,,,,,,,,,,,,,,,,stimuli/alien_stimuli/16.png,conditions/schedules/train_y_first/red_square_00/top_right/inputInstr_1.xlsx,stimuli/alien_stimuli/16.png,1468.0619628999848,1468.0619628999848,1468.0619628999848,1468.0619628999848,1468.0519957199692,return,10.016687499824911,"[-0.16, -0.08, 0, 0.08, 0.16, 0.24, 0.32, 0.4, 0.48, 0.56]","[-0.4, -0.32, -0.24, -0.16, -0.08, 0, 0.08, 0.16, 0.24, 0.32]",8,8,5,5,0.0,0.0,1478.2509372001514,1478.2509372001514,1478.2509372001514,1478.2509372001514,1478.2509372001514,1478.2509372001514,1478.2509372001514,1478.2437650799286,10.309707399923354,return,10.136073699919507,stimuli/alien_stimuli/16.png,16,5,2,,,,,,,,,,,,,,,,,,,,,,,,,,,,,,,,,,,,,,,,,,,,,,,,,,,,,,,,,,,,,,,,,,,,,,,,,,,,,,,,,,,,,,,,,5LDGLV,train_y,red_square,top_right,2025-04-01_17h05.31.528,HideSeek_v1,2022.2.5,59.9436650031524,
,,,,,,,,,,,30,,,,1,0,1,0,,,,,,,,,,,,,,,,,,,,,,,,,,,,,,,,,,,,,,,,,,,,,,,,,,,,,,,,,,,,,,,,,,,,,,,,,,,,,,21,0.7,0,0,99,1,30,0,conditions/schedules/train_y_first/red_square_00/top_right/inputTrain_1.1.xlsx,99,1,1,1,0,,,,,,,,,,,,,,,,,,,,,,,,,,,,,,,,,,,,,,,,,,,,,,,,,,,,,,,,,,,,,,,,,,,,,,,,,,,5LDGLV,train_y,red_square,top_right,2025-04-01_17h05.31.528,HideSeek_v1,2022.2.5,59.9436650031524,
,,,,,,,,,,,,,,,2,0,2,0,0,0,0,0,,,,,,,,,,,,,,,,,,,,,,,,,,,,,,,conditions/schedules/train_y_first/red_square_00/top_right/instructions/Slide15.png,conditions/schedules/train_y_first/red_square_00/top_right/instructions/Audio15.wav,1488.5754234001506,1488.5691937000956,15,"[11.41320740012452, 18.675645699957386, 16.46929350006394, 19.37687679985538, 4.128849999979138, 4.318352299975231, 5.319354899926111, 13.173546199919656, 6.142542799934745, 6.631997799966484, 10.018881500000134, 13.839677900075912, 17.394473899854347, 16.541620700154454, 42.79274559998885]","[11.413218900095671, 0.00023239990696310997, 0.030650899978354573, 0.013894400093704462, 0.014262299984693527, 0.014416399877518415, 0.04755620006471872, 0.0144338000100106, 0.046652899822220206, 0.06390459998510778, 0.04774460010230541, 13.839684700127691, 0.00023900019004940987, 16.54162730020471, 42.79275209992193]",0,,,,,,,,,,,,,,,,,,,,,,,,,,,,,,,,,,,,,,,,,,,,,,,,,,,,,,,,,,,,,,,,,,,,,,,,,,,,,,,,,,,,,,,,,,,,,,,,,,,,,,,,,,,,,,,,,,,,,,,,,,,,5LDGLV,train_y,red_square,top_right,2025-04-01_17h05.31.528,HideSeek_v1,2022.2.5,59.9436650031524,
,,,,,,,,,,,,,,,2,0,2,0,1,0,1,0,,,,,,,,,,,,,,,,,,,,,,,,,,,,,,,conditions/schedules/train_y_first/red_square_00/top_right/instructions/Slide16.png,conditions/schedules/train_y_first/red_square_00/top_right/instructions/Audio16.wav,1531.4414872000925,1531.43785690004,16,"[11.41320740012452, 18.675645699957386, 16.46929350006394, 19.37687679985538, 4.128849999979138, 4.318352299975231, 5.319354899926111, 13.173546199919656, 6.142542799934745, 6.631997799966484, 10.018881500000134, 13.839677900075912, 17.394473899854347, 16.541620700154454, 42.79274559998885, 23.146655699936673]","[11.413218900095671, 0.00023239990696310997, 0.030650899978354573, 0.013894400093704462, 0.014262299984693527, 0.014416399877518415, 0.04755620006471872, 0.0144338000100106, 0.046652899822220206, 0.06390459998510778, 0.04774460010230541, 13.839684700127691, 0.00023900019004940987, 16.54162730020471, 0.03125769994221628, 23.146662400104105]",0,,,,,,,,,,,,,,,,,,,,,,,,,,,,,,,,,,,,,,,,,,,,,,,,,,,,,,,,,,,,,,,,,,,,,,,,,,,,,,,,,,,,,,,,,,,,,,,,,,,,,,,,,,,,,,,,,,,,,,,,,,,,5LDGLV,train_y,red_square,top_right,2025-04-01_17h05.31.528,HideSeek_v1,2022.2.5,59.9436650031524,
,5,5,5,4,0,-1,15,,train_dim1_1,1,30,,,,2,0,2,0,,,,,,,,,0,0,0,0,0,0,0,0,0,0,0,0,,,,,,,,,,,,,,,,,,,,,,,,,stimuli/alien_stimuli/15.png,,,,,,,,,,,,,,,,,,,,,,,,,,,,,,,,,,,,,,,30,,,,,,,,1554.6980487999972,1554.6980487999972,1554.6980487999972,1554.6980487999972,1554.6980487999972,left,2.3440705998800695,0,0,0,99,0.15999999999999998,0,left,2.245159599930048,,,,,,,,,,,,,,,,,,,,,,,,,,,,,,,,,,,,,,,,,,,,,,,,,,,,,,,,,,,,5LDGLV,train_y,red_square,top_right,2025-04-01_17h05.31.528,HideSeek_v1,2022.2.5,59.9436650031524,
,5,5,5,4,0,-1,15,,train_dim1_1,1,30,,,,2,0,2,0,,,,,,,,,0,0,0,0,0,0,0,0,1,0,1,0,,,,,,,,,,,,,,,,,,,,,,,,,,,,,,,,,,,,,,,,,,,,,,,,,,,,,,,,,,,,,,,,30,,,,,,,,1557.027592400089,1557.027592400089,1557.027592400089,1557.027592400089,1557.027592400089,right,1.5262629999779165,0,0,0,99,0.24,0,right,1.445034499745816,,,,,,,,,,,,,,,,,,,,,,,,,,,,,,,,,,,,,,,,,,,,,,,,,,,,,,,,,,,,5LDGLV,train_y,red_square,top_right,2025-04-01_17h05.31.528,HideSeek_v1,2022.2.5,59.9436650031524,
,5,5,5,4,0,-1,15,,train_dim1_1,1,30,,,,2,0,2,0,,,,,,,,,0,0,0,0,0,0,0,0,2,0,2,0,,,,,,,,,,,,,,,,,,,,,,,,,,,,,,,,,,,,,,,,,,,,,,,,,,,,,,,,,,,,,,,,30,,,,,,,,1558.5621305999812,1558.5621305999812,1558.5621305999812,1558.5621305999812,1558.5621305999812,right,0.6429580999538302,0,0,0,99,0.32,0,right,0.5504320999607444,,,,,,,,,,,,,,,,,,,,,,,,,,,,,,,,,,,,,,,,,,,,,,,,,,,,,,,,,,,,5LDGLV,train_y,red_square,top_right,2025-04-01_17h05.31.528,HideSeek_v1,2022.2.5,59.9436650031524,
,5,5,5,4,0,-1,15,,train_dim1_1,1,30,,,,2,0,2,0,,,,,,,,,0,0,0,0,0,0,0,0,3,0,3,0,,,,,,,,,,,,,,,,,,,,,,,,,,,,,,,,,,,,,,,,,,,,,,,,,,,,,,,,,,,,,,,,30,,,,,,,,1559.2125351000577,1559.2125351000577,1559.2125351000577,1559.2125351000577,1559.2125351000577,left,0.34265689994208515,0,0,0,99,0.24,0,left,0.2568009998649359,,,,,,,,,,,,,,,,,,,,,,,,,,,,,,,,,,,,,,,,,,,,,,,,,,,,,,,,,,,,5LDGLV,train_y,red_square,top_right,2025-04-01_17h05.31.528,HideSeek_v1,2022.2.5,59.9436650031524,
,5,5,5,4,0,-1,15,,train_dim1_1,1,30,,,,2,0,2,0,,,,,,,,,0,0,0,0,0,0,0,0,4,0,4,0,,,,,,,,,,,,,,,,,,,,,,,,,,,,,,,,,,,,,,,,,,,,,,,,,,,,,,,,,,,,,,,,30,,,,,,,,1559.5634692001622,1559.5634692001622,1559.5634692001622,1559.5634692001622,1559.5634692001622,return,0.9598862000275403,0,1,0,0,0.24,0,return,0.8705861000344157,0,0,0.24,0,,,,,,,,,,,,,,,,,,,,,,,,,,,,,,,,,,,,,,,,,,,,,,,,,,,,,,,,5LDGLV,train_y,red_square,top_right,2025-04-01_17h05.31.528,HideSeek_v1,2022.2.5,59.9436650031524,
,8,7,8,7,0,0,16,,train_dim1_1,2,30,,,,2,0,2,0,,,,,,,,,0,0,0,0,0,1,1,1,0,0,0,0,,,,,,,,,,,,,,,,,,,,,,,,,stimuli/alien_stimuli/16.png,,,,,,,,,,,,,,,,,,,,,,,,,,,,,stimuli/alien_stimuli/15.png,15,5,3,,,,,,,30,,,,,,,,1588.3771483001765,1588.3771483001765,1588.3771483001765,1588.3771483001765,1588.3771483001765,left,1.122662200126797,0,1,0,99,0.39999999999999997,0.16,left,1.0211859999690205,,,,,1586.8004798002075,1588.3771483001765,0.24,-0.08,0.08,0.0,-0.04,0.24,0.24,0.24,-0.08,1562.104986099992,1562.104986099992,1562.104986099992,1562.104986099992,1562.104986099992,1562.104986099992,1562.104986099992,1562.104986099992,1562.096515960153,24.823044600198045,return,24.675257899798453,,,,,,,,,,,,,,,,,,,,,,,,,,,,,,,,,5LDGLV,train_y,red_square,top_right,2025-04-01_17h05.31.528,HideSeek_v1,2022.2.5,59.9436650031524,
,8,7,8,7,0,0,16,,train_dim1_1,2,30,,,,2,0,2,0,,,,,,,,,0,0,0,0,0,1,1,1,1,0,1,0,,,,,,,,,,,,,,,,,,,,,,,,,,,,,,,,,,,,,,,,,,,,,,,,,,,,,,,,,,,,,,,,30,,,,,,,,1589.4882854002062,1589.4882854002062,1589.4882854002062,1589.4882854002062,1589.4882854002062,left,0.2423727000132203,0,1,0,99,0.31999999999999995,0.16,left,0.15654169977642596,,,,,,,,,,,,,,,,,,,,,,,,,,,,,,,,,,,,,,,,,,,,,,,,,,,,,,,,,,,,5LDGLV,train_y,red_square,top_right,2025-04-01_17h05.31.528,HideSeek_v1,2022.2.5,59.9436650031524,
,8,7,8,7,0,0,16,,train_dim1_1,2,30,,,,2,0,2,0,,,,,,,,,0,0,0,0,0,1,1,1,2,0,2,0,,,,,,,,,,,,,,,,,,,,,,,,,,,,,,,,,,,,,,,,,,,,,,,,,,,,,,,,,,,,,,,,30,,,,,,,,1589.7390497000888,1589.7390497000888,1589.7390497000888,1589.7390497000888,1589.7390497000888,left,0.2752098999917507,0,1,0,99,0.23999999999999994,0.16,left,0.18844519974663854,,,,,,,,,,,,,,,,,,,,,,,,,,,,,,,,,,,,,,,,,,,,,,,,,,,,,,,,,,,,5LDGLV,train_y,red_square,top_right,2025-04-01_17h05.31.528,HideSeek_v1,2022.2.5,59.9436650031524,
,8,7,8,7,0,0,16,,train_dim1_1,2,30,,,,2,0,2,0,,,,,,,,,0,0,0,0,0,1,1,1,3,0,3,0,,,,,,,,,,,,,,,,,,,,,,,,,,,,,,,,,,,,,,,,,,,,,,,,,,,,,,,,,,,,,,,,30,,,,,,,,1590.0205620999914,1590.0205620999914,1590.0205620999914,1590.0205620999914,1590.0205620999914,left,0.1591060000937432,0,1,0,99,0.15999999999999992,0.16,left,0.082161899888888,,,,,,,,,,,,,,,,,,,,,,,,,,,,,,,,,,,,,,,,,,,,,,,,,,,,,,,,,,,,5LDGLV,train_y,red_square,top_right,2025-04-01_17h05.31.528,HideSeek_v1,2022.2.5,59.9436650031524,
,8,7,8,7,0,0,16,,train_dim1_1,2,30,,,,2,0,2,0,,,,,,,,,0,0,0,0,0,1,1,1,4,0,4,0,,,,,,,,,,,,,,,,,,,,,,,,,,,,,,,,,,,,,,,,,,,,,,,,,,,,,,,,,,,,,,,,30,,,,,,,,1590.1873368001543,1590.1873368001543,1590.1873368001543,1590.1873368001543,1590.1873368001543,left,0.17584790010005236,0,1,0,99,0.07999999999999992,0.16,left,0.09092599991708994,,,,,,,,,,,,,,,,,,,,,,,,,,,,,,,,,,,,,,,,,,,,,,,,,,,,,,,,,,,,5LDGLV,train_y,red_square,top_right,2025-04-01_17h05.31.528,HideSeek_v1,2022.2.5,59.9436650031524,
,8,7,8,7,0,0,16,,train_dim1_1,2,30,,,,2,0,2,0,,,,,,,,,0,0,0,0,0,1,1,1,5,0,5,0,,,,,,,,,,,,,,,,,,,,,,,,,,,,,,,,,,,,,,,,,,,,,,,,,,,,,,,,,,,,,,,,30,,,,,,,,1590.3720929000992,1590.3720929000992,1590.3720929000992,1590.3720929000992,1590.3720929000992,left,0.14215849991887808,0,1,0,99,-8.326672684688674e-17,0.16,left,0.06016299990005791,,,,,,,,,,,,,,,,,,,,,,,,,,,,,,,,,,,,,,,,,,,,,,,,,,,,,,,,,,,,5LDGLV,train_y,red_square,top_right,2025-04-01_17h05.31.528,HideSeek_v1,2022.2.5,59.9436650031524,
,8,7,8,7,0,0,16,,train_dim1_1,2,30,,,,2,0,2,0,,,,,,,,,0,0,0,0,0,1,1,1,6,0,6,0,,,,,,,,,,,,,,,,,,,,,,,,,,,,,,,,,,,,,,,,,,,,,,,,,,,,,,,,,,,,,,,,30,,,,,,,,1590.522034100024,1590.522034100024,1590.522034100024,1590.522034100024,1590.522034100024,left,0.1425762001890689,0,1,0,99,-0.08000000000000008,0.16,left,0.053095399867743254,,,,,,,,,,,,,,,,,,,,,,,,,,,,,,,,,,,,,,,,,,,,,,,,,,,,,,,,,,,,5LDGLV,train_y,red_square,top_right,2025-04-01_17h05.31.528,HideSeek_v1,2022.2.5,59.9436650031524,
,8,7,8,7,0,0,16,,train_dim1_1,2,30,,,,2,0,2,0,,,,,,,,,0,0,0,0,0,1,1,1,7,0,7,0,,,,,,,,,,,,,,,,,,,,,,,,,,,,,,,,,,,,,,,,,,,,,,,,,,,,,,,,,,,,,,,,30,,,,,,,,1590.6719518001191,1590.6719518001191,1590.6719518001191,1590.6719518001191,1590.6719518001191,down,0.44237899989821017,0,1,0,99,-0.08000000000000008,0.08,down,0.350618900032714,,,,,,,,,,,,,,,,,,,,,,,,,,,,,,,,,,,,,,,,,,,,,,,,,,,,,,,,,,,,5LDGLV,train_y,red_square,top_right,2025-04-01_17h05.31.528,HideSeek_v1,2022.2.5,59.9436650031524,
,8,7,8,7,0,0,16,,train_dim1_1,2,30,,,,2,0,2,0,,,,,,,,,0,0,0,0,0,1,1,1,8,0,8,0,,,,,,,,,,,,,,,,,,,,,,,,,,,,,,,,,,,,,,,,,,,,,,,,,,,,,,,,,,,,,,,,30,,,,,,,,1591.121916900156,1591.121916900156,1591.121916900156,1591.121916900156,1591.121916900156,down,0.10924339992925525,0,1,0,99,-0.08000000000000008,0.0,down,0.017736499896273017,,,,,,,,,,,,,,,,,,,,,,,,,,,,,,,,,,,,,,,,,,,,,,,,,,,,,,,,,,,,5LDGLV,train_y,red_square,top_right,2025-04-01_17h05.31.528,HideSeek_v1,2022.2.5,59.9436650031524,
,8,7,8,7,0,0,16,,train_dim1_1,2,30,,,,2,0,2,0,,,,,,,,,0,0,0,0,0,1,1,1,9,0,9,0,,,,,,,,,,,,,,,,,,,,,,,,,,,,,,,,,,,,,,,,,,,,,,,,,,,,,,,,,,,,,,,,30,,,,,,,,1591.2388552001212,1591.2388552001212,1591.2388552001212,1591.2388552001212,1591.2388552001212,down,0.09254060010425746,0,1,0,99,-0.08000000000000008,-0.08,down,0.008636499987915158,,,,,,,,,,,,,,,,,,,,,,,,,,,,,,,,,,,,,,,,,,,,,,,,,,,,,,,,,,,,5LDGLV,train_y,red_square,top_right,2025-04-01_17h05.31.528,HideSeek_v1,2022.2.5,59.9436650031524,
,8,7,8,7,0,0,16,,train_dim1_1,2,30,,,,2,0,2,0,,,,,,,,,0,0,0,0,0,1,1,1,10,0,10,0,,,,,,,,,,,,,,,,,,,,,,,,,,,,,,,,,,,,,,,,,,,,,,,,,,,,,,,,,,,,,,,,30,,,,,,,,1591.340831000125,1591.340831000125,1591.340831000125,1591.340831000125,1591.340831000125,down,0.09247099980711937,0,1,0,99,-0.08000000000000008,-0.16,down,0.01140049984678626,,,,,,,,,,,,,,,,,,,,,,,,,,,,,,,,,,,,,,,,,,,,,,,,,,,,,,,,,,,,5LDGLV,train_y,red_square,top_right,2025-04-01_17h05.31.528,HideSeek_v1,2022.2.5,59.9436650031524,
,8,7,8,7,0,0,16,,train_dim1_1,2,30,,,,2,0,2,0,,,,,,,,,0,0,0,0,0,1,1,1,11,0,11,0,,,,,,,,,,,,,,,,,,,,,,,,,,,,,,,,,,,,,,,,,,,,,,,,,,,,,,,,,,,,,,,,30,,,,,,,,1591.4525439999998,1591.4525439999998,1591.4525439999998,1591.4525439999998,1591.4525439999998,down,0.1977395999711007,0,1,0,99,-0.08000000000000008,-0.24,down,0.10713589983060956,,,,,,,,,,,,,,,,,,,,,,,,,,,,,,,,,,,,,,,,,,,,,,,,,,,,,,,,,,,,5LDGLV,train_y,red_square,top_right,2025-04-01_17h05.31.528,HideSeek_v1,2022.2.5,59.9436650031524,
,8,7,8,7,0,0,16,,train_dim1_1,2,30,,,,2,0,2,0,,,,,,,,,0,0,0,0,0,1,1,1,12,0,12,0,,,,,,,,,,,,,,,,,,,,,,,,,,,,,,,,,,,,,,,,,,,,,,,,,,,,,,,,,,,,,,,,30,,,,,,,,1591.6556834001094,1591.6556834001094,1591.6556834001094,1591.6556834001094,1591.6556834001094,down,0.10918640019372106,0,1,0,99,-0.08000000000000008,-0.32,down,0.02188190002925694,,,,,,,,,,,,,,,,,,,,,,,,,,,,,,,,,,,,,,,,,,,,,,,,,,,,,,,,,,,,5LDGLV,train_y,red_square,top_right,2025-04-01_17h05.31.528,HideSeek_v1,2022.2.5,59.9436650031524,
,8,7,8,7,0,0,16,,train_dim1_1,2,30,,,,2,0,2,0,,,,,,,,,0,0,0,0,0,1,1,1,13,0,13,0,,,,,,,,,,,,,,,,,,,,,,,,,,,,,,,,,,,,,,,,,,,,,,,,,,,,,,,,,,,,,,,,30,,,,,,,,1591.7720063000452,1591.7720063000452,1591.7720063000452,1591.7720063000452,1591.7720063000452,return,0.4758941999170929,0,0,0,0,-0.08000000000000008,-0.32,return,0.39968949975445867,-6,-7,-0.08000000000000008,-0.32,,,,,,,,,,,,,,,,,,,,,,,,,,,,,,,,,,,,,,,,,,,,,,,,,,,,,,,,5LDGLV,train_y,red_square,top_right,2025-04-01_17h05.31.528,HideSeek_v1,2022.2.5,59.9436650031524,
,7,8,7,5,0,-3,13,,train_dim1_1,3,30,,,,2,0,2,0,,,,,,,,,0,0,0,0,0,2,2,2,0,0,0,0,,,,,,,,,,,,,,,,,,,,,,,,,stimuli/alien_stimuli/13.png,,,,,,,,,,,,,,,,,,,,,,,,,,,,,stimuli/alien_stimuli/16.png,16,8,4,,,,,,,30,,,,,,,,1608.9450004000682,1608.9450004000682,1608.9450004000682,1608.9450004000682,1608.9450004000682,left,1.5547162001021206,0,0,0,99,0.32,0.24,left,1.4439240999054164,,,,,1607.367614600109,1608.9450004000682,0.48,0.16,0.0,0.0,0.16,0.48,0.48,0.48,0.16,1593.8252998001408,1593.8252998001408,1593.8252998001408,1593.8252998001408,1593.8252998001408,1593.8252998001408,1593.8252998001408,1593.8252998001408,1593.8230034600476,13.663620400009677,return,13.511510399868712,,,,,,,,,,,,,,,,,,,,,,,,,,,,,,,,,5LDGLV,train_y,red_square,top_right,2025-04-01_17h05.31.528,HideSeek_v1,2022.2.5,59.9436650031524,
,7,8,7,5,0,-3,13,,train_dim1_1,3,30,,,,2,0,2,0,,,,,,,,,0,0,0,0,0,2,2,2,1,0,1,0,,,,,,,,,,,,,,,,,,,,,,,,,,,,,,,,,,,,,,,,,,,,,,,,,,,,,,,,,,,,,,,,30,,,,,,,,1610.4893281999975,1610.4893281999975,1610.4893281999975,1610.4893281999975,1610.4893281999975,right,0.44165750010870397,0,0,0,99,0.4,0.24,right,0.35695519973523915,,,,,,,,,,,,,,,,,,,,,,,,,,,,,,,,,,,,,,,,,,,,,,,,,,,,,,,,,,,,5LDGLV,train_y,red_square,top_right,2025-04-01_17h05.31.528,HideSeek_v1,2022.2.5,59.9436650031524,
,7,8,7,5,0,-3,13,,train_dim1_1,3,30,,,,2,0,2,0,,,,,,,,,0,0,0,0,0,2,2,2,2,0,2,0,,,,,,,,,,,,,,,,,,,,,,,,,,,,,,,,,,,,,,,,,,,,,,,,,,,,,,,,,,,,,,,,30,,,,,,,,1610.9381703999825,1610.9381703999825,1610.9381703999825,1610.9381703999825,1610.9381703999825,right,0.34267779998481274,0,0,0,99,0.48000000000000004,0.24,right,0.26502629998140037,,,,,,,,,,,,,,,,,,,,,,,,,,,,,,,,,,,,,,,,,,,,,,,,,,,,,,,,,,,,5LDGLV,train_y,red_square,top_right,2025-04-01_17h05.31.528,HideSeek_v1,2022.2.5,59.9436650031524,
,7,8,7,5,0,-3,13,,train_dim1_1,3,30,,,,2,0,2,0,,,,,,,,,0,0,0,0,0,2,2,2,3,0,3,0,,,,,,,,,,,,,,,,,,,,,,,,,,,,,,,,,,,,,,,,,,,,,,,,,,,,,,,,,,,,,,,,30,,,,,,,,1611.288021699991,1611.288021699991,1611.288021699991,1611.288021699991,1611.288021699991,left,0.3924967001657933,0,0,0,99,0.4,0.24,left,0.3119236999191344,,,,,,,,,,,,,,,,,,,,,,,,,,,,,,,,,,,,,,,,,,,,,,,,,,,,,,,,,,,,5LDGLV,train_y,red_square,top_right,2025-04-01_17h05.31.528,HideSeek_v1,2022.2.5,59.9436650031524,
,7,8,7,5,0,-3,13,,train_dim1_1,3,30,,,,2,0,2,0,,,,,,,,,0,0,0,0,0,2,2,2,4,0,4,0,,,,,,,,,,,,,,,,,,,,,,,,,,,,,,,,,,,,,,,,,,,,,,,,,,,,,,,,,,,,,,,,30,,,,,,,,1611.687596600037,1611.687596600037,1611.687596600037,1611.687596600037,1611.687596600037,down,0.5428190000820905,0,0,0,99,0.4,0.15999999999999998,down,0.4671277997549623,,,,,,,,,,,,,,,,,,,,,,,,,,,,,,,,,,,,,,,,,,,,,,,,,,,,,,,,,,,,5LDGLV,train_y,red_square,top_right,2025-04-01_17h05.31.528,HideSeek_v1,2022.2.5,59.9436650031524,
,7,8,7,5,0,-3,13,,train_dim1_1,3,30,,,,2,0,2,0,,,,,,,,,0,0,0,0,0,2,2,2,5,0,5,0,,,,,,,,,,,,,,,,,,,,,,,,,,,,,,,,,,,,,,,,,,,,,,,,,,,,,,,,,,,,,,,,30,,,,,,,,1612.2395564001054,1612.2395564001054,1612.2395564001054,1612.2395564001054,1612.2395564001054,down,0.39251849986612797,0,0,0,99,0.4,0.07999999999999997,down,0.316051899921149,,,,,,,,,,,,,,,,,,,,,,,,,,,,,,,,,,,,,,,,,,,,,,,,,,,,,,,,,,,,5LDGLV,train_y,red_square,top_right,2025-04-01_17h05.31.528,HideSeek_v1,2022.2.5,59.9436650031524,
,7,8,7,5,0,-3,13,,train_dim1_1,3,30,,,,2,0,2,0,,,,,,,,,0,0,0,0,0,2,2,2,6,0,6,0,,,,,,,,,,,,,,,,,,,,,,,,,,,,,,,,,,,,,,,,,,,,,,,,,,,,,,,,,,,,,,,,30,,,,,,,,1612.6387368000578,1612.6387368000578,1612.6387368000578,1612.6387368000578,1612.6387368000578,down,0.3258241000585258,0,0,0,99,0.4,-2.7755575615628914e-17,down,0.23733249981887639,,,,,,,,,,,,,,,,,,,,,,,,,,,,,,,,,,,,,,,,,,,,,,,,,,,,,,,,,,,,5LDGLV,train_y,red_square,top_right,2025-04-01_17h05.31.528,HideSeek_v1,2022.2.5,59.9436650031524,
,7,8,7,5,0,-3,13,,train_dim1_1,3,30,,,,2,0,2,0,,,,,,,,,0,0,0,0,0,2,2,2,7,0,7,0,,,,,,,,,,,,,,,,,,,,,,,,,,,,,,,,,,,,,,,,,,,,,,,,,,,,,,,,,,,,,,,,30,,,,,,,,1612.9727119000163,1612.9727119000163,1612.9727119000163,1612.9727119000163,1612.9727119000163,down,0.32606220012530684,0,0,0,99,0.4,-0.08000000000000003,down,0.24188690003938973,,,,,,,,,,,,,,,,,,,,,,,,,,,,,,,,,,,,,,,,,,,,,,,,,,,,,,,,,,,,5LDGLV,train_y,red_square,top_right,2025-04-01_17h05.31.528,HideSeek_v1,2022.2.5,59.9436650031524,
,7,8,7,5,0,-3,13,,train_dim1_1,3,30,,,,2,0,2,0,,,,,,,,,0,0,0,0,0,2,2,2,8,0,8,0,,,,,,,,,,,,,,,,,,,,,,,,,,,,,,,,,,,,,,,,,,,,,,,,,,,,,,,,,,,,,,,,30,,,,,,,,1613.306285200175,1613.306285200175,1613.306285200175,1613.306285200175,1613.306285200175,up,1.093414899893105,0,0,0,99,0.4,-2.7755575615628914e-17,up,1.0052074997220188,,,,,,,,,,,,,,,,,,,,,,,,,,,,,,,,,,,,,,,,,,,,,,,,,,,,,,,,,,,,5LDGLV,train_y,red_square,top_right,2025-04-01_17h05.31.528,HideSeek_v1,2022.2.5,59.9436650031524,
,7,8,7,5,0,-3,13,,train_dim1_1,3,30,,,,2,0,2,0,,,,,,,,,0,0,0,0,0,2,2,2,9,0,9,0,,,,,,,,,,,,,,,,,,,,,,,,,,,,,,,,,,,,,,,,,,,,,,,,,,,,,,,,,,,,,,,,30,,,,,,,,1614.4072736001108,1614.4072736001108,1614.4072736001108,1614.4072736001108,1614.4072736001108,up,0.17547260015271604,0,0,0,99,0.4,0.07999999999999997,up,0.09338460001163185,,,,,,,,,,,,,,,,,,,,,,,,,,,,,,,,,,,,,,,,,,,,,,,,,,,,,,,,,,,,5LDGLV,train_y,red_square,top_right,2025-04-01_17h05.31.528,HideSeek_v1,2022.2.5,59.9436650031524,
,7,8,7,5,0,-3,13,,train_dim1_1,3,30,,,,2,0,2,0,,,,,,,,,0,0,0,0,0,2,2,2,10,0,10,0,,,,,,,,,,,,,,,,,,,,,,,,,,,,,,,,,,,,,,,,,,,,,,,,,,,,,,,,,,,,,,,,30,,,,,,,,1614.5918650000822,1614.5918650000822,1614.5918650000822,1614.5918650000822,1614.5918650000822,up,0.1759169001597911,0,0,0,99,0.4,0.15999999999999998,up,0.09644309990108013,,,,,,,,,,,,,,,,,,,,,,,,,,,,,,,,,,,,,,,,,,,,,,,,,,,,,,,,,,,,5LDGLV,train_y,red_square,top_right,2025-04-01_17h05.31.528,HideSeek_v1,2022.2.5,59.9436650031524,
,7,8,7,5,0,-3,13,,train_dim1_1,3,30,,,,2,0,2,0,,,,,,,,,0,0,0,0,0,2,2,2,11,0,11,0,,,,,,,,,,,,,,,,,,,,,,,,,,,,,,,,,,,,,,,,,,,,,,,,,,,,,,,,,,,,,,,,30,,,,,,,,1614.7746014001314,1614.7746014001314,1614.7746014001314,1614.7746014001314,1614.7746014001314,up,0.32579739997163415,0,0,0,99,0.4,0.24,up,0.23525999998673797,,,,,,,,,,,,,,,,,,,,,,,,,,,,,,,,,,,,,,,,,,,,,,,,,,,,,,,,,,,,5LDGLV,train_y,red_square,top_right,2025-04-01_17h05.31.528,HideSeek_v1,2022.2.5,59.9436650031524,
,7,8,7,5,0,-3,13,,train_dim1_1,3,30,,,,2,0,2,0,,,,,,,,,0,0,0,0,0,2,2,2,12,0,12,0,,,,,,,,,,,,,,,,,,,,,,,,,,,,,,,,,,,,,,,,,,,,,,,,,,,,,,,,,,,,,,,,30,,,,,,,,1615.1088485000655,1615.1088485000655,1615.1088485000655,1615.1088485000655,1615.1088485000655,right,0.4425757999997586,0,0,0,99,0.48000000000000004,0.24,right,0.3505943997297436,,,,,,,,,,,,,,,,,,,,,,,,,,,,,,,,,,,,,,,,,,,,,,,,,,,,,,,,,,,,5LDGLV,train_y,red_square,top_right,2025-04-01_17h05.31.528,HideSeek_v1,2022.2.5,59.9436650031524,
,7,8,7,5,0,-3,13,,train_dim1_1,3,30,,,,2,0,2,0,,,,,,,,,0,0,0,0,0,2,2,2,13,0,13,0,,,,,,,,,,,,,,,,,,,,,,,,,,,,,,,,,,,,,,,,,,,,,,,,,,,,,,,,,,,,,,,,30,,,,,,,,1615.5578567001503,1615.5578567001503,1615.5578567001503,1615.5578567001503,1615.5578567001503,down,0.4257825000677258,0,0,0,99,0.48000000000000004,0.15999999999999998,down,0.3422278000507504,,,,,,,,,,,,,,,,,,,,,,,,,,,,,,,,,,,,,,,,,,,,,,,,,,,,,,,,,,,,5LDGLV,train_y,red_square,top_right,2025-04-01_17h05.31.528,HideSeek_v1,2022.2.5,59.9436650031524,
,7,8,7,5,0,-3,13,,train_dim1_1,3,30,,,,2,0,2,0,,,,,,,,,0,0,0,0,0,2,2,2,14,0,14,0,,,,,,,,,,,,,,,,,,,,,,,,,,,,,,,,,,,,,,,,,,,,,,,,,,,,,,,,,,,,,,,,30,,,,,,,,1615.9924449000973,1615.9924449000973,1615.9924449000973,1615.9924449000973,1615.9924449000973,down,0.1927179000340402,0,0,0,99,0.48000000000000004,0.07999999999999997,down,0.11198039981536567,,,,,,,,,,,,,,,,,,,,,,,,,,,,,,,,,,,,,,,,,,,,,,,,,,,,,,,,,,,,5LDGLV,train_y,red_square,top_right,2025-04-01_17h05.31.528,HideSeek_v1,2022.2.5,59.9436650031524,
,7,8,7,5,0,-3,13,,train_dim1_1,3,30,,,,2,0,2,0,,,,,,,,,0,0,0,0,0,2,2,2,15,0,15,0,,,,,,,,,,,,,,,,,,,,,,,,,,,,,,,,,,,,,,,,,,,,,,,,,,,,,,,,,,,,,,,,30,,,,,,,,1616.1923678000458,1616.1923678000458,1616.1923678000458,1616.1923678000458,1616.1923678000458,down,0.22582120005972683,0,0,0,99,0.48000000000000004,-2.7755575615628914e-17,down,0.1440975998993963,,,,,,,,,,,,,,,,,,,,,,,,,,,,,,,,,,,,,,,,,,,,,,,,,,,,,,,,,,,,5LDGLV,train_y,red_square,top_right,2025-04-01_17h05.31.528,HideSeek_v1,2022.2.5,59.9436650031524,
,7,8,7,5,0,-3,13,,train_dim1_1,3,30,,,,2,0,2,0,,,,,,,,,0,0,0,0,0,2,2,2,16,0,16,0,,,,,,,,,,,,,,,,,,,,,,,,,,,,,,,,,,,,,,,,,,,,,,,,,,,,,,,,,,,,,,,,30,,,,,,,,1616.4248614001554,1616.4248614001554,1616.4248614001554,1616.4248614001554,1616.4248614001554,down,0.22571690008044243,0,0,0,99,0.48000000000000004,-0.08000000000000003,down,0.13590399990789592,,,,,,,,,,,,,,,,,,,,,,,,,,,,,,,,,,,,,,,,,,,,,,,,,,,,,,,,,,,,5LDGLV,train_y,red_square,top_right,2025-04-01_17h05.31.528,HideSeek_v1,2022.2.5,59.9436650031524,
,7,8,7,5,0,-3,13,,train_dim1_1,3,30,,,,2,0,2,0,,,,,,,,,0,0,0,0,0,2,2,2,17,0,17,0,,,,,,,,,,,,,,,,,,,,,,,,,,,,,,,,,,,,,,,,,,,,,,,,,,,,,,,,,,,,,,,,30,,,,,,,,1616.6592110001948,1616.6592110001948,1616.6592110001948,1616.6592110001948,1616.6592110001948,down,0.1924079000018537,0,0,0,99,0.48000000000000004,-0.16000000000000003,down,0.11646659998223186,,,,,,,,,,,,,,,,,,,,,,,,,,,,,,,,,,,,,,,,,,,,,,,,,,,,,,,,,,,,5LDGLV,train_y,red_square,top_right,2025-04-01_17h05.31.528,HideSeek_v1,2022.2.5,59.9436650031524,
,7,8,7,5,0,-3,13,,train_dim1_1,3,30,,,,2,0,2,0,,,,,,,,,0,0,0,0,0,2,2,2,18,0,18,0,,,,,,,,,,,,,,,,,,,,,,,,,,,,,,,,,,,,,,,,,,,,,,,,,,,,,,,,,,,,,,,,30,,,,,,,,1616.85988610005,1616.85988610005,1616.85988610005,1616.85988610005,1616.85988610005,down,0.19252040004357696,0,0,0,99,0.48000000000000004,-0.24000000000000005,down,0.11134790000505745,,,,,,,,,,,,,,,,,,,,,,,,,,,,,,,,,,,,,,,,,,,,,,,,,,,,,,,,,,,,5LDGLV,train_y,red_square,top_right,2025-04-01_17h05.31.528,HideSeek_v1,2022.2.5,59.9436650031524,
,7,8,7,5,0,-3,13,,train_dim1_1,3,30,,,,2,0,2,0,,,,,,,,,0,0,0,0,0,2,2,2,19,0,19,0,,,,,,,,,,,,,,,,,,,,,,,,,,,,,,,,,,,,,,,,,,,,,,,,,,,,,,,,,,,,,,,,30,,,,,,,,1617.060276400065,1617.060276400065,1617.060276400065,1617.060276400065,1617.060276400065,down,0.19233949994668365,0,0,0,99,0.48000000000000004,-0.32000000000000006,down,0.1119369997177273,,,,,,,,,,,,,,,,,,,,,,,,,,,,,,,,,,,,,,,,,,,,,,,,,,,,,,,,,,,,5LDGLV,train_y,red_square,top_right,2025-04-01_17h05.31.528,HideSeek_v1,2022.2.5,59.9436650031524,
,7,8,7,5,0,-3,13,,train_dim1_1,3,30,,,,2,0,2,0,,,,,,,,,0,0,0,0,0,2,2,2,20,0,20,0,,,,,,,,,,,,,,,,,,,,,,,,,,,,,,,,,,,,,,,,,,,,,,,,,,,,,,,,,,,,,,,,30,,,,,,,,1617.2590768001974,1617.2590768001974,1617.2590768001974,1617.2590768001974,1617.2590768001974,left,0.7930941998492926,0,0,0,99,0.4,-0.32000000000000006,left,0.7131717999000102,,,,,,,,,,,,,,,,,,,,,,,,,,,,,,,,,,,,,,,,,,,,,,,,,,,,,,,,,,,,5LDGLV,train_y,red_square,top_right,2025-04-01_17h05.31.528,HideSeek_v1,2022.2.5,59.9436650031524,
,7,8,7,5,0,-3,13,,train_dim1_1,3,30,,,,2,0,2,0,,,,,,,,,0,0,0,0,0,2,2,2,21,0,21,0,,,,,,,,,,,,,,,,,,,,,,,,,,,,,,,,,,,,,,,,,,,,,,,,,,,,,,,,,,,,,,,,30,,,,,,,,1618.059523700038,1618.059523700038,1618.059523700038,1618.059523700038,1618.059523700038,left,0.17612860002554953,0,0,0,99,0.32,-0.32000000000000006,left,0.09842769987881184,,,,,,,,,,,,,,,,,,,,,,,,,,,,,,,,,,,,,,,,,,,,,,,,,,,,,,,,,,,,5LDGLV,train_y,red_square,top_right,2025-04-01_17h05.31.528,HideSeek_v1,2022.2.5,59.9436650031524,
,7,8,7,5,0,-3,13,,train_dim1_1,3,30,,,,2,0,2,0,,,,,,,,,0,0,0,0,0,2,2,2,22,0,22,0,,,,,,,,,,,,,,,,,,,,,,,,,,,,,,,,,,,,,,,,,,,,,,,,,,,,,,,,,,,,,,,,30,,,,,,,,1618.2441201000474,1618.2441201000474,1618.2441201000474,1618.2441201000474,1618.2441201000474,left,0.1756331000942737,0,0,0,99,0.24,-0.32000000000000006,left,0.09078939980827272,,,,,,,,,,,,,,,,,,,,,,,,,,,,,,,,,,,,,,,,,,,,,,,,,,,,,,,,,,,,5LDGLV,train_y,red_square,top_right,2025-04-01_17h05.31.528,HideSeek_v1,2022.2.5,59.9436650031524,
,7,8,7,5,0,-3,13,,train_dim1_1,3,30,,,,2,0,2,0,,,,,,,,,0,0,0,0,0,2,2,2,23,0,23,0,,,,,,,,,,,,,,,,,,,,,,,,,,,,,,,,,,,,,,,,,,,,,,,,,,,,,,,,,,,,,,,,30,,,,,,,,1618.427476500161,1618.427476500161,1618.427476500161,1618.427476500161,1618.427476500161,down,0.24243640014901757,0,0,0,99,0.24,-0.4000000000000001,down,0.1625842999201268,,,,,,,,,,,,,,,,,,,,,,,,,,,,,,,,,,,,,,,,,,,,,,,,,,,,,,,,,,,,5LDGLV,train_y,red_square,top_right,2025-04-01_17h05.31.528,HideSeek_v1,2022.2.5,59.9436650031524,
,7,8,7,5,0,-3,13,,train_dim1_1,3,30,,,,2,0,2,0,,,,,,,,,0,0,0,0,0,2,2,2,24,0,24,0,,,,,,,,,,,,,,,,,,,,,,,,,,,,,,,,,,,,,,,,,,,,,,,,,,,,,,,,,,,,,,,,30,,,,,,,,1618.6777091000695,1618.6777091000695,1618.6777091000695,1618.6777091000695,1618.6777091000695,up,1.010051399935037,0,0,0,99,0.24,-0.32000000000000006,up,0.9261995998676866,,,,,,,,,,,,,,,,,,,,,,,,,,,,,,,,,,,,,,,,,,,,,,,,,,,,,,,,,,,,5LDGLV,train_y,red_square,top_right,2025-04-01_17h05.31.528,HideSeek_v1,2022.2.5,59.9436650031524,
,7,8,7,5,0,-3,13,,train_dim1_1,3,30,,,,2,0,2,0,,,,,,,,,0,0,0,0,0,2,2,2,25,0,25,0,,,,,,,,,,,,,,,,,,,,,,,,,,,,,,,,,,,,,,,,,,,,,,,,,,,,,,,,,,,,,,,,30,,,,,,,,1619.6944802000653,1619.6944802000653,1619.6944802000653,1619.6944802000653,1619.6944802000653,left,0.2588776999618858,0,0,0,99,0.15999999999999998,-0.32000000000000006,left,0.1833462999202311,,,,,,,,,,,,,,,,,,,,,,,,,,,,,,,,,,,,,,,,,,,,,,,,,,,,,,,,,,,,5LDGLV,train_y,red_square,top_right,2025-04-01_17h05.31.528,HideSeek_v1,2022.2.5,59.9436650031524,
,7,8,7,5,0,-3,13,,train_dim1_1,3,30,,,,2,0,2,0,,,,,,,,,0,0,0,0,0,2,2,2,26,0,26,0,,,,,,,,,,,,,,,,,,,,,,,,,,,,,,,,,,,,,,,,,,,,,,,,,,,,,,,,,,,,,,,,30,,,,,,,,1619.9634360000491,1619.9634360000491,1619.9634360000491,1619.9634360000491,1619.9634360000491,left,0.20893520000390708,0,0,0,99,0.07999999999999997,-0.32000000000000006,left,0.12984219985082746,,,,,,,,,,,,,,,,,,,,,,,,,,,,,,,,,,,,,,,,,,,,,,,,,,,,,,,,,,,,5LDGLV,train_y,red_square,top_right,2025-04-01_17h05.31.528,HideSeek_v1,2022.2.5,59.9436650031524,
,7,8,7,5,0,-3,13,,train_dim1_1,3,30,,,,2,0,2,0,,,,,,,,,0,0,0,0,0,2,2,2,27,0,27,0,,,,,,,,,,,,,,,,,,,,,,,,,,,,,,,,,,,,,,,,,,,,,,,,,,,,,,,,,,,,,,,,30,,,,,,,,1620.1790664000437,1620.1790664000437,1620.1790664000437,1620.1790664000437,1620.1790664000437,left,0.17577229999005795,0,0,0,99,-2.7755575615628914e-17,-0.32000000000000006,left,0.08451259974390268,,,,,,,,,,,,,,,,,,,,,,,,,,,,,,,,,,,,,,,,,,,,,,,,,,,,,,,,,,,,5LDGLV,train_y,red_square,top_right,2025-04-01_17h05.31.528,HideSeek_v1,2022.2.5,59.9436650031524,
,7,8,7,5,0,-3,13,,train_dim1_1,3,30,,,,2,0,2,0,,,,,,,,,0,0,0,0,0,2,2,2,28,0,28,0,,,,,,,,,,,,,,,,,,,,,,,,,,,,,,,,,,,,,,,,,,,,,,,,,,,,,,,,,,,,,,,,30,,,,,,,,1620.3619996001944,1620.3619996001944,1620.3619996001944,1620.3619996001944,1620.3619996001944,left,0.17606549989432096,0,0,0,99,-0.08000000000000003,-0.32000000000000006,left,0.09685189998708665,,,,,,,,,,,,,,,,,,,,,,,,,,,,,,,,,,,,,,,,,,,,,,,,,,,,,,,,,,,,5LDGLV,train_y,red_square,top_right,2025-04-01_17h05.31.528,HideSeek_v1,2022.2.5,59.9436650031524,
,7,8,7,5,0,-3,13,,train_dim1_1,3,30,,,,2,0,2,0,,,,,,,,,0,0,0,0,0,2,2,2,29,0,29,0,,,,,,,,,,,,,,,,,,,,,,,,,,,,,,,,,,,,,,,,,,,,,,,,,,,,,,,,,,,,,,,,30,,,,,,,,1620.5466833000537,1620.5466833000537,1620.5466833000537,1620.5466833000537,1620.5466833000537,left,0.1590698000509292,0,0,0,99,-0.16000000000000003,-0.32000000000000006,left,0.07089559989981353,,,,,,,,,,,,,,,,,,,,,,,,,,,,,,,,,,,,,,,,,,,,,,,,,,,,,,,,,,,,5LDGLV,train_y,red_square,top_right,2025-04-01_17h05.31.528,HideSeek_v1,2022.2.5,59.9436650031524,
,7,8,7,5,0,-3,13,,train_dim1_1,3,30,,,,2,0,2,0,,,,,,,,,0,0,0,0,0,2,2,2,30,0,30,0,,,,,,,,,,,,,,,,,,,,,,,,,,,,,,,,,,,,,,,,,,,,,,,,,,,,,,,,,,,,,,,,30,,,,,,,,1620.7128773001023,1620.7128773001023,1620.7128773001023,1620.7128773001023,1620.7128773001023,right,0.7932155998423696,0,0,0,99,-0.08000000000000003,-0.32000000000000006,right,0.7009466998279095,,,,,,,,,,,,,,,,,,,,,,,,,,,,,,,,,,,,,,,,,,,,,,,,,,,,,,,,,,,,5LDGLV,train_y,red_square,top_right,2025-04-01_17h05.31.528,HideSeek_v1,2022.2.5,59.9436650031524,
,7,8,7,5,0,-3,13,,train_dim1_1,3,30,,,,2,0,2,0,,,,,,,,,0,0,0,0,0,2,2,2,31,0,31,0,,,,,,,,,,,,,,,,,,,,,,,,,,,,,,,,,,,,,,,,,,,,,,,,,,,,,,,,,,,,,,,,30,,,,,,,,1621.5140137001872,1621.5140137001872,1621.5140137001872,1621.5140137001872,1621.5140137001872,up,0.35917979991063476,0,0,0,99,-0.08000000000000003,-0.24000000000000005,up,0.2695754999294877,,,,,,,,,,,,,,,,,,,,,,,,,,,,,,,,,,,,,,,,,,,,,,,,,,,,,,,,,,,,5LDGLV,train_y,red_square,top_right,2025-04-01_17h05.31.528,HideSeek_v1,2022.2.5,59.9436650031524,
,7,8,7,5,0,-3,13,,train_dim1_1,3,30,,,,2,0,2,0,,,,,,,,,0,0,0,0,0,2,2,2,32,0,32,0,,,,,,,,,,,,,,,,,,,,,,,,,,,,,,,,,,,,,,,,,,,,,,,,,,,,,,,,,,,,,,,,30,,,,,,,,1621.8799252000172,1621.8799252000172,1621.8799252000172,1621.8799252000172,1621.8799252000172,up,0.15953480009920895,0,0,0,99,-0.08000000000000003,-0.16000000000000003,up,0.07166679995134473,,,,,,,,,,,,,,,,,,,,,,,,,,,,,,,,,,,,,,,,,,,,,,,,,,,,,,,,,,,,5LDGLV,train_y,red_square,top_right,2025-04-01_17h05.31.528,HideSeek_v1,2022.2.5,59.9436650031524,
,7,8,7,5,0,-3,13,,train_dim1_1,3,30,,,,2,0,2,0,,,,,,,,,0,0,0,0,0,2,2,2,33,0,33,0,,,,,,,,,,,,,,,,,,,,,,,,,,,,,,,,,,,,,,,,,,,,,,,,,,,,,,,,,,,,,,,,30,,,,,,,,1622.0485431000125,1622.0485431000125,1622.0485431000125,1622.0485431000125,1622.0485431000125,up,0.1586175998672843,0,0,0,99,-0.08000000000000003,-0.08000000000000003,up,0.08043410000391304,,,,,,,,,,,,,,,,,,,,,,,,,,,,,,,,,,,,,,,,,,,,,,,,,,,,,,,,,,,,5LDGLV,train_y,red_square,top_right,2025-04-01_17h05.31.528,HideSeek_v1,2022.2.5,59.9436650031524,
,7,8,7,5,0,-3,13,,train_dim1_1,3,30,,,,2,0,2,0,,,,,,,,,0,0,0,0,0,2,2,2,34,0,34,0,,,,,,,,,,,,,,,,,,,,,,,,,,,,,,,,,,,,,,,,,,,,,,,,,,,,,,,,,,,,,,,,30,,,,,,,,1622.2147397000808,1622.2147397000808,1622.2147397000808,1622.2147397000808,1622.2147397000808,up,0.19237160007469356,0,0,0,99,-0.08000000000000003,-2.7755575615628914e-17,up,0.1002895999699831,,,,,,,,,,,,,,,,,,,,,,,,,,,,,,,,,,,,,,,,,,,,,,,,,,,,,,,,,,,,5LDGLV,train_y,red_square,top_right,2025-04-01_17h05.31.528,HideSeek_v1,2022.2.5,59.9436650031524,
,7,8,7,5,0,-3,13,,train_dim1_1,3,30,,,,2,0,2,0,,,,,,,,,0,0,0,0,0,2,2,2,35,0,35,0,,,,,,,,,,,,,,,,,,,,,,,,,,,,,,,,,,,,,,,,,,,,,,,,,,,,,,,,,,,,,,,,30,,,,,,,,1622.4139479000587,1622.4139479000587,1622.4139479000587,1622.4139479000587,1622.4139479000587,up,0.17591729993000627,0,0,0,99,-0.08000000000000003,0.07999999999999997,up,0.08431229973211884,,,,,,,,,,,,,,,,,,,,,,,,,,,,,,,,,,,,,,,,,,,,,,,,,,,,,,,,,,,,5LDGLV,train_y,red_square,top_right,2025-04-01_17h05.31.528,HideSeek_v1,2022.2.5,59.9436650031524,
,7,8,7,5,0,-3,13,,train_dim1_1,3,30,,,,2,0,2,0,,,,,,,,,0,0,0,0,0,2,2,2,36,0,36,0,,,,,,,,,,,,,,,,,,,,,,,,,,,,,,,,,,,,,,,,,,,,,,,,,,,,,,,,,,,,,,,,30,,,,,,,,1622.5978733000811,1622.5978733000811,1622.5978733000811,1622.5978733000811,1622.5978733000811,up,0.17581659997813404,0,0,0,99,-0.08000000000000003,0.15999999999999998,up,0.08408619998954237,,,,,,,,,,,,,,,,,,,,,,,,,,,,,,,,,,,,,,,,,,,,,,,,,,,,,,,,,,,,5LDGLV,train_y,red_square,top_right,2025-04-01_17h05.31.528,HideSeek_v1,2022.2.5,59.9436650031524,
,7,8,7,5,0,-3,13,,train_dim1_1,3,30,,,,2,0,2,0,,,,,,,,,0,0,0,0,0,2,2,2,37,0,37,0,,,,,,,,,,,,,,,,,,,,,,,,,,,,,,,,,,,,,,,,,,,,,,,,,,,,,,,,,,,,,,,,30,,,,,,,,1622.7809369000606,1622.7809369000606,1622.7809369000606,1622.7809369000606,1622.7809369000606,up,0.17597680003382266,0,0,0,99,-0.08000000000000003,0.24,up,0.09198409994132817,,,,,,,,,,,,,,,,,,,,,,,,,,,,,,,,,,,,,,,,,,,,,,,,,,,,,,,,,,,,5LDGLV,train_y,red_square,top_right,2025-04-01_17h05.31.528,HideSeek_v1,2022.2.5,59.9436650031524,
,7,8,7,5,0,-3,13,,train_dim1_1,3,30,,,,2,0,2,0,,,,,,,,,0,0,0,0,0,2,2,2,38,0,38,0,,,,,,,,,,,,,,,,,,,,,,,,,,,,,,,,,,,,,,,,,,,,,,,,,,,,,,,,,,,,,,,,30,,,,,,,,1622.9644218999892,1622.9644218999892,1622.9644218999892,1622.9644218999892,1622.9644218999892,right,0.5594734000042081,0,0,0,99,-2.7755575615628914e-17,0.24,right,0.4813544999342412,,,,,,,,,,,,,,,,,,,,,,,,,,,,,,,,,,,,,,,,,,,,,,,,,,,,,,,,,,,,5LDGLV,train_y,red_square,top_right,2025-04-01_17h05.31.528,HideSeek_v1,2022.2.5,59.9436650031524,
,7,8,7,5,0,-3,13,,train_dim1_1,3,30,,,,2,0,2,0,,,,,,,,,0,0,0,0,0,2,2,2,39,0,39,0,,,,,,,,,,,,,,,,,,,,,,,,,,,,,,,,,,,,,,,,,,,,,,,,,,,,,,,,,,,,,,,,30,,,,,,,,1623.5316031000111,1623.5316031000111,1623.5316031000111,1623.5316031000111,1623.5316031000111,right,0.2093046000227332,0,0,0,99,0.07999999999999997,0.24,right,0.12938149995170534,,,,,,,,,,,,,,,,,,,,,,,,,,,,,,,,,,,,,,,,,,,,,,,,,,,,,,,,,,,,5LDGLV,train_y,red_square,top_right,2025-04-01_17h05.31.528,HideSeek_v1,2022.2.5,59.9436650031524,
,7,8,7,5,0,-3,13,,train_dim1_1,3,30,,,,2,0,2,0,,,,,,,,,0,0,0,0,0,2,2,2,40,0,40,0,,,,,,,,,,,,,,,,,,,,,,,,,,,,,,,,,,,,,,,,,,,,,,,,,,,,,,,,,,,,,,,,30,,,,,,,,1623.7492160000838,1623.7492160000838,1623.7492160000838,1623.7492160000838,1623.7492160000838,right,0.20901519991457462,0,0,0,99,0.15999999999999998,0.24,right,0.1199248000048101,,,,,,,,,,,,,,,,,,,,,,,,,,,,,,,,,,,,,,,,,,,,,,,,,,,,,,,,,,,,5LDGLV,train_y,red_square,top_right,2025-04-01_17h05.31.528,HideSeek_v1,2022.2.5,59.9436650031524,
,7,8,7,5,0,-3,13,,train_dim1_1,3,30,,,,2,0,2,0,,,,,,,,,0,0,0,0,0,2,2,2,41,0,41,0,,,,,,,,,,,,,,,,,,,,,,,,,,,,,,,,,,,,,,,,,,,,,,,,,,,,,,,,,,,,,,,,30,,,,,,,,1623.9654197001364,1623.9654197001364,1623.9654197001364,1623.9654197001364,1623.9654197001364,right,0.1924077000003308,0,0,0,99,0.24,0.24,right,0.10903119994327426,,,,,,,,,,,,,,,,,,,,,,,,,,,,,,,,,,,,,,,,,,,,,,,,,,,,,,,,,,,,5LDGLV,train_y,red_square,top_right,2025-04-01_17h05.31.528,HideSeek_v1,2022.2.5,59.9436650031524,
,7,8,7,5,0,-3,13,,train_dim1_1,3,30,,,,2,0,2,0,,,,,,,,,0,0,0,0,0,2,2,2,42,0,42,0,,,,,,,,,,,,,,,,,,,,,,,,,,,,,,,,,,,,,,,,,,,,,,,,,,,,,,,,,,,,,,,,30,,,,,,,,1624.1651685000397,1624.1651685000397,1624.1651685000397,1624.1651685000397,1624.1651685000397,right,0.20904990006238222,0,0,0,99,0.32,0.24,right,0.1253665997646749,,,,,,,,,,,,,,,,,,,,,,,,,,,,,,,,,,,,,,,,,,,,,,,,,,,,,,,,,,,,5LDGLV,train_y,red_square,top_right,2025-04-01_17h05.31.528,HideSeek_v1,2022.2.5,59.9436650031524,
,7,8,7,5,0,-3,13,,train_dim1_1,3,30,,,,2,0,2,0,,,,,,,,,0,0,0,0,0,2,2,2,43,0,43,0,,,,,,,,,,,,,,,,,,,,,,,,,,,,,,,,,,,,,,,,,,,,,,,,,,,,,,,,,,,,,,,,30,,,,,,,,1624.3854181000497,1624.3854181000497,1624.3854181000497,1624.3854181000497,1624.3854181000497,right,0.2231710001360625,0,0,0,99,0.4,0.24,right,0.13102809991687536,,,,,,,,,,,,,,,,,,,,,,,,,,,,,,,,,,,,,,,,,,,,,,,,,,,,,,,,,,,,5LDGLV,train_y,red_square,top_right,2025-04-01_17h05.31.528,HideSeek_v1,2022.2.5,59.9436650031524,
,7,8,7,5,0,-3,13,,train_dim1_1,3,30,,,,2,0,2,0,,,,,,,,,0,0,0,0,0,2,2,2,44,0,44,0,,,,,,,,,,,,,,,,,,,,,,,,,,,,,,,,,,,,,,,,,,,,,,,,,,,,,,,,,,,,,,,,30,,,,,,,,1624.6161021001171,1624.6161021001171,1624.6161021001171,1624.6161021001171,1624.6161021001171,down,0.8258540001697838,0,0,0,99,0.4,0.15999999999999998,down,0.7495251998770982,,,,,,,,,,,,,,,,,,,,,,,,,,,,,,,,,,,,,,,,,,,,,,,,,,,,,,,,,,,,5LDGLV,train_y,red_square,top_right,2025-04-01_17h05.31.528,HideSeek_v1,2022.2.5,59.9436650031524,
,7,8,7,5,0,-3,13,,train_dim1_1,3,30,,,,2,0,2,0,,,,,,,,,0,0,0,0,0,2,2,2,45,0,45,0,,,,,,,,,,,,,,,,,,,,,,,,,,,,,,,,,,,,,,,,,,,,,,,,,,,,,,,,,,,,,,,,30,,,,,,,,1625.4508039001375,1625.4508039001375,1625.4508039001375,1625.4508039001375,1625.4508039001375,left,1.8939914999064058,0,0,0,99,0.32,0.15999999999999998,left,1.8106078999117017,,,,,,,,,,,,,,,,,,,,,,,,,,,,,,,,,,,,,,,,,,,,,,,,,,,,,,,,,,,,5LDGLV,train_y,red_square,top_right,2025-04-01_17h05.31.528,HideSeek_v1,2022.2.5,59.9436650031524,
,7,8,7,5,0,-3,13,,train_dim1_1,3,30,,,,2,0,2,0,,,,,,,,,0,0,0,0,0,2,2,2,46,0,46,0,,,,,,,,,,,,,,,,,,,,,,,,,,,,,,,,,,,,,,,,,,,,,,,,,,,,,,,,,,,,,,,,30,,,,,,,,1627.3512260001153,1627.3512260001153,1627.3512260001153,1627.3512260001153,1627.3512260001153,down,0.9599164000246674,0,0,0,99,0.32,0.07999999999999997,down,0.8795161999296397,,,,,,,,,,,,,,,,,,,,,,,,,,,,,,,,,,,,,,,,,,,,,,,,,,,,,,,,,,,,5LDGLV,train_y,red_square,top_right,2025-04-01_17h05.31.528,HideSeek_v1,2022.2.5,59.9436650031524,
,7,8,7,5,0,-3,13,,train_dim1_1,3,30,,,,2,0,2,0,,,,,,,,,0,0,0,0,0,2,2,2,47,0,47,0,,,,,,,,,,,,,,,,,,,,,,,,,,,,,,,,,,,,,,,,,,,,,,,,,,,,,,,,,,,,,,,,30,,,,,,,,1628.3186505001504,1628.3186505001504,1628.3186505001504,1628.3186505001504,1628.3186505001504,left,7.2983875998761505,0,0,0,99,0.24,0.07999999999999997,left,7.2196853996720165,,,,,,,,,,,,,,,,,,,,,,,,,,,,,,,,,,,,,,,,,,,,,,,,,,,,,,,,,,,,5LDGLV,train_y,red_square,top_right,2025-04-01_17h05.31.528,HideSeek_v1,2022.2.5,59.9436650031524,
,7,8,7,5,0,-3,13,,train_dim1_1,3,30,,,,2,0,2,0,,,,,,,,,0,0,0,0,0,2,2,2,48,0,48,0,,,,,,,,,,,,,,,,,,,,,,,,,,,,,,,,,,,,,,,,,,,,,,,,,,,,,,,,,,,,,,,,30,,,,,,,,1635.6253758000676,1635.6253758000676,1635.6253758000676,1635.6253758000676,1635.6253758000676,down,0.5095702998805791,0,0,0,99,0.24,-2.7755575615628914e-17,down,0.4316462997812778,,,,,,,,,,,,,,,,,,,,,,,,,,,,,,,,,,,,,,,,,,,,,,,,,,,,,,,,,,,,5LDGLV,train_y,red_square,top_right,2025-04-01_17h05.31.528,HideSeek_v1,2022.2.5,59.9436650031524,
,7,8,7,5,0,-3,13,,train_dim1_1,3,30,,,,2,0,2,0,,,,,,,,,0,0,0,0,0,2,2,2,49,0,49,0,,,,,,,,,,,,,,,,,,,,,,,,,,,,,,,,,,,,,,,,,,,,,,,,,,,,,,,,,,,,,,,,30,,,,,,,,1636.142122300109,1636.142122300109,1636.142122300109,1636.142122300109,1636.142122300109,down,0.2591641000472009,0,0,0,99,0.24,-0.08000000000000003,down,0.18391269980929792,,,,,,,,,,,,,,,,,,,,,,,,,,,,,,,,,,,,,,,,,,,,,,,,,,,,,,,,,,,,5LDGLV,train_y,red_square,top_right,2025-04-01_17h05.31.528,HideSeek_v1,2022.2.5,59.9436650031524,
,7,8,7,5,0,-3,13,,train_dim1_1,3,30,,,,2,0,2,0,,,,,,,,,0,0,0,0,0,2,2,2,50,0,50,0,,,,,,,,,,,,,,,,,,,,,,,,,,,,,,,,,,,,,,,,,,,,,,,,,,,,,,,,,,,,,,,,30,,,,,,,,1636.4104396000039,1636.4104396000039,1636.4104396000039,1636.4104396000039,1636.4104396000039,left,0.27507700002752244,0,0,0,99,0.15999999999999998,-0.08000000000000003,left,0.19600679981522262,,,,,,,,,,,,,,,,,,,,,,,,,,,,,,,,,,,,,,,,,,,,,,,,,,,,,,,,,,,,5LDGLV,train_y,red_square,top_right,2025-04-01_17h05.31.528,HideSeek_v1,2022.2.5,59.9436650031524,
,7,8,7,5,0,-3,13,,train_dim1_1,3,30,,,,2,0,2,0,,,,,,,,,0,0,0,0,0,2,2,2,51,0,51,0,,,,,,,,,,,,,,,,,,,,,,,,,,,,,,,,,,,,,,,,,,,,,,,,,,,,,,,,,,,,,,,,30,,,,,,,,1636.6932581001893,1636.6932581001893,1636.6932581001893,1636.6932581001893,1636.6932581001893,left,0.20899790013208985,0,0,0,99,0.07999999999999997,-0.08000000000000003,left,0.12795439991168678,,,,,,,,,,,,,,,,,,,,,,,,,,,,,,,,,,,,,,,,,,,,,,,,,,,,,,,,,,,,5LDGLV,train_y,red_square,top_right,2025-04-01_17h05.31.528,HideSeek_v1,2022.2.5,59.9436650031524,
,7,8,7,5,0,-3,13,,train_dim1_1,3,30,,,,2,0,2,0,,,,,,,,,0,0,0,0,0,2,2,2,52,0,52,0,,,,,,,,,,,,,,,,,,,,,,,,,,,,,,,,,,,,,,,,,,,,,,,,,,,,,,,,,,,,,,,,30,,,,,,,,1636.9090097001754,1636.9090097001754,1636.9090097001754,1636.9090097001754,1636.9090097001754,up,0.6095843000803143,0,0,0,99,0.07999999999999997,-2.7755575615628914e-17,up,0.5261431997641921,,,,,,,,,,,,,,,,,,,,,,,,,,,,,,,,,,,,,,,,,,,,,,,,,,,,,,,,,,,,5LDGLV,train_y,red_square,top_right,2025-04-01_17h05.31.528,HideSeek_v1,2022.2.5,59.9436650031524,
,7,8,7,5,0,-3,13,,train_dim1_1,3,30,,,,2,0,2,0,,,,,,,,,0,0,0,0,0,2,2,2,53,0,53,0,,,,,,,,,,,,,,,,,,,,,,,,,,,,,,,,,,,,,,,,,,,,,,,,,,,,,,,,,,,,,,,,30,,,,,,,,1637.5270738000982,1637.5270738000982,1637.5270738000982,1637.5270738000982,1637.5270738000982,up,0.2094021001830697,0,0,0,99,0.07999999999999997,0.07999999999999997,up,0.1304053997155279,,,,,,,,,,,,,,,,,,,,,,,,,,,,,,,,,,,,,,,,,,,,,,,,,,,,,,,,,,,,5LDGLV,train_y,red_square,top_right,2025-04-01_17h05.31.528,HideSeek_v1,2022.2.5,59.9436650031524,
,7,8,7,5,0,-3,13,,train_dim1_1,3,30,,,,2,0,2,0,,,,,,,,,0,0,0,0,0,2,2,2,54,0,54,0,,,,,,,,,,,,,,,,,,,,,,,,,,,,,,,,,,,,,,,,,,,,,,,,,,,,,,,,,,,,,,,,30,,,,,,,,1637.7437909999862,1637.7437909999862,1637.7437909999862,1637.7437909999862,1637.7437909999862,up,0.20877670007757843,0,0,0,99,0.07999999999999997,0.15999999999999998,up,0.11915219970978796,,,,,,,,,,,,,,,,,,,,,,,,,,,,,,,,,,,,,,,,,,,,,,,,,,,,,,,,,,,,5LDGLV,train_y,red_square,top_right,2025-04-01_17h05.31.528,HideSeek_v1,2022.2.5,59.9436650031524,
,7,8,7,5,0,-3,13,,train_dim1_1,3,30,,,,2,0,2,0,,,,,,,,,0,0,0,0,0,2,2,2,55,0,55,0,,,,,,,,,,,,,,,,,,,,,,,,,,,,,,,,,,,,,,,,,,,,,,,,,,,,,,,,,,,,,,,,30,,,,,,,,1637.9599938001484,1637.9599938001484,1637.9599938001484,1637.9599938001484,1637.9599938001484,left,0.27590720006264746,0,0,0,99,-2.7755575615628914e-17,0.15999999999999998,left,0.18496660003438592,,,,,,,,,,,,,,,,,,,,,,,,,,,,,,,,,,,,,,,,,,,,,,,,,,,,,,,,,,,,5LDGLV,train_y,red_square,top_right,2025-04-01_17h05.31.528,HideSeek_v1,2022.2.5,59.9436650031524,
,7,8,7,5,0,-3,13,,train_dim1_1,3,30,,,,2,0,2,0,,,,,,,,,0,0,0,0,0,2,2,2,56,0,56,0,,,,,,,,,,,,,,,,,,,,,,,,,,,,,,,,,,,,,,,,,,,,,,,,,,,,,,,,,,,,,,,,30,,,,,,,,1638.2438344000839,1638.2438344000839,1638.2438344000839,1638.2438344000839,1638.2438344000839,right,0.7261685999110341,0,0,0,99,0.07999999999999997,0.15999999999999998,right,0.6377851997967809,,,,,,,,,,,,,,,,,,,,,,,,,,,,,,,,,,,,,,,,,,,,,,,,,,,,,,,,,,,,5LDGLV,train_y,red_square,top_right,2025-04-01_17h05.31.528,HideSeek_v1,2022.2.5,59.9436650031524,
,7,8,7,5,0,-3,13,,train_dim1_1,3,30,,,,2,0,2,0,,,,,,,,,0,0,0,0,0,2,2,2,57,0,57,0,,,,,,,,,,,,,,,,,,,,,,,,,,,,,,,,,,,,,,,,,,,,,,,,,,,,,,,,,,,,,,,,30,,,,,,,,1638.9778003999963,1638.9778003999963,1638.9778003999963,1638.9778003999963,1638.9778003999963,right,0.20949329994618893,0,0,0,99,0.15999999999999998,0.15999999999999998,right,0.1222570997197181,,,,,,,,,,,,,,,,,,,,,,,,,,,,,,,,,,,,,,,,,,,,,,,,,,,,,,,,,,,,5LDGLV,train_y,red_square,top_right,2025-04-01_17h05.31.528,HideSeek_v1,2022.2.5,59.9436650031524,
,7,8,7,5,0,-3,13,,train_dim1_1,3,30,,,,2,0,2,0,,,,,,,,,0,0,0,0,0,2,2,2,58,0,58,0,,,,,,,,,,,,,,,,,,,,,,,,,,,,,,,,,,,,,,,,,,,,,,,,,,,,,,,,,,,,,,,,30,,,,,,,,1639.194866700098,1639.194866700098,1639.194866700098,1639.194866700098,1639.194866700098,right,0.1759750999044627,0,0,0,99,0.24,0.15999999999999998,right,0.09957039984874427,,,,,,,,,,,,,,,,,,,,,,,,,,,,,,,,,,,,,,,,,,,,,,,,,,,,,,,,,,,,5LDGLV,train_y,red_square,top_right,2025-04-01_17h05.31.528,HideSeek_v1,2022.2.5,59.9436650031524,
,7,8,7,5,0,-3,13,,train_dim1_1,3,30,,,,2,0,2,0,,,,,,,,,0,0,0,0,0,2,2,2,59,0,59,0,,,,,,,,,,,,,,,,,,,,,,,,,,,,,,,,,,,,,,,,,,,,,,,,,,,,,,,,,,,,,,,,30,,,,,,,,1639.3787817000411,1639.3787817000411,1639.3787817000411,1639.3787817000411,1639.3787817000411,right,0.2089037001132965,0,0,0,99,0.32,0.15999999999999998,right,0.1186313999351114,,,,,,,,,,,,,,,,,,,,,,,,,,,,,,,,,,,,,,,,,,,,,,,,,,,,,,,,,,,,5LDGLV,train_y,red_square,top_right,2025-04-01_17h05.31.528,HideSeek_v1,2022.2.5,59.9436650031524,
,7,8,7,5,0,-3,13,,train_dim1_1,3,30,,,,2,0,2,0,,,,,,,,,0,0,0,0,0,2,2,2,60,0,60,0,,,,,,,,,,,,,,,,,,,,,,,,,,,,,,,,,,,,,,,,,,,,,,,,,,,,,,,,,,,,,,,,30,,,,,,,,1639.594910300104,1639.594910300104,1639.594910300104,1639.594910300104,1639.594910300104,up,0.7598725999705493,0,0,0,99,0.32,0.24,up,0.6787976997438818,,,,,,,,,,,,,,,,,,,,,,,,,,,,,,,,,,,,,,,,,,,,,,,,,,,,,,,,,,,,5LDGLV,train_y,red_square,top_right,2025-04-01_17h05.31.528,HideSeek_v1,2022.2.5,59.9436650031524,
,7,8,7,5,0,-3,13,,train_dim1_1,3,30,,,,2,0,2,0,,,,,,,,,0,0,0,0,0,2,2,2,61,0,61,0,,,,,,,,,,,,,,,,,,,,,,,,,,,,,,,,,,,,,,,,,,,,,,,,,,,,,,,,,,,,,,,,30,,,,,,,,1640.3620532001369,1640.3620532001369,1640.3620532001369,1640.3620532001369,1640.3620532001369,right,0.559526199940592,0,0,0,99,0.4,0.24,right,0.48002059990540147,,,,,,,,,,,,,,,,,,,,,,,,,,,,,,,,,,,,,,,,,,,,,,,,,,,,,,,,,,,,5LDGLV,train_y,red_square,top_right,2025-04-01_17h05.31.528,HideSeek_v1,2022.2.5,59.9436650031524,
,7,8,7,5,0,-3,13,,train_dim1_1,3,30,,,,2,0,2,0,,,,,,,,,0,0,0,0,0,2,2,2,62,0,62,0,,,,,,,,,,,,,,,,,,,,,,,,,,,,,,,,,,,,,,,,,,,,,,,,,,,,,,,,,,,,,,,,30,,,,,,,,1640.9293251000345,1640.9293251000345,1640.9293251000345,1640.9293251000345,1640.9293251000345,left,0.5429241000674665,0,0,0,99,0.32,0.24,left,0.45885910000652075,,,,,,,,,,,,,,,,,,,,,,,,,,,,,,,,,,,,,,,,,,,,,,,,,,,,,,,,,,,,5LDGLV,train_y,red_square,top_right,2025-04-01_17h05.31.528,HideSeek_v1,2022.2.5,59.9436650031524,
,7,8,7,5,0,-3,13,,train_dim1_1,3,30,,,,2,0,2,0,,,,,,,,,0,0,0,0,0,2,2,2,63,0,63,0,,,,,,,,,,,,,,,,,,,,,,,,,,,,,,,,,,,,,,,,,,,,,,,,,,,,,,,,,,,,,,,,30,,,,,,,,1641.4805588000454,1641.4805588000454,1641.4805588000454,1641.4805588000454,1641.4805588000454,left,0.1924137999303639,0,0,0,99,0.24,0.24,left,0.11057789996266365,,,,,,,,,,,,,,,,,,,,,,,,,,,,,,,,,,,,,,,,,,,,,,,,,,,,,,,,,,,,5LDGLV,train_y,red_square,top_right,2025-04-01_17h05.31.528,HideSeek_v1,2022.2.5,59.9436650031524,
,7,8,7,5,0,-3,13,,train_dim1_1,3,30,,,,2,0,2,0,,,,,,,,,0,0,0,0,0,2,2,2,64,0,64,0,,,,,,,,,,,,,,,,,,,,,,,,,,,,,,,,,,,,,,,,,,,,,,,,,,,,,,,,,,,,,,,,30,,,,,,,,1641.6804981001187,1641.6804981001187,1641.6804981001187,1641.6804981001187,1641.6804981001187,left,0.19233529991470277,0,0,0,99,0.15999999999999998,0.24,left,0.11371989967301488,,,,,,,,,,,,,,,,,,,,,,,,,,,,,,,,,,,,,,,,,,,,,,,,,,,,,,,,,,,,5LDGLV,train_y,red_square,top_right,2025-04-01_17h05.31.528,HideSeek_v1,2022.2.5,59.9436650031524,
,7,8,7,5,0,-3,13,,train_dim1_1,3,30,,,,2,0,2,0,,,,,,,,,0,0,0,0,0,2,2,2,65,0,65,0,,,,,,,,,,,,,,,,,,,,,,,,,,,,,,,,,,,,,,,,,,,,,,,,,,,,,,,,,,,,,,,,30,,,,,,,,1641.879869800061,1641.879869800061,1641.879869800061,1641.879869800061,1641.879869800061,left,0.3425850002095103,0,0,0,99,0.07999999999999997,0.24,left,0.25676659983582795,,,,,,,,,,,,,,,,,,,,,,,,,,,,,,,,,,,,,,,,,,,,,,,,,,,,,,,,,,,,5LDGLV,train_y,red_square,top_right,2025-04-01_17h05.31.528,HideSeek_v1,2022.2.5,59.9436650031524,
,7,8,7,5,0,-3,13,,train_dim1_1,3,30,,,,2,0,2,0,,,,,,,,,0,0,0,0,0,2,2,2,66,0,66,0,,,,,,,,,,,,,,,,,,,,,,,,,,,,,,,,,,,,,,,,,,,,,,,,,,,,,,,,,,,,,,,,30,,,,,,,,1642.2306013000198,1642.2306013000198,1642.2306013000198,1642.2306013000198,1642.2306013000198,left,0.19242019997909665,0,0,0,99,-2.7755575615628914e-17,0.24,left,0.1115317998919636,,,,,,,,,,,,,,,,,,,,,,,,,,,,,,,,,,,,,,,,,,,,,,,,,,,,,,,,,,,,5LDGLV,train_y,red_square,top_right,2025-04-01_17h05.31.528,HideSeek_v1,2022.2.5,59.9436650031524,
,7,8,7,5,0,-3,13,,train_dim1_1,3,30,,,,2,0,2,0,,,,,,,,,0,0,0,0,0,2,2,2,67,0,67,0,,,,,,,,,,,,,,,,,,,,,,,,,,,,,,,,,,,,,,,,,,,,,,,,,,,,,,,,,,,,,,,,30,,,,,,,,1642.4322602001484,1642.4322602001484,1642.4322602001484,1642.4322602001484,1642.4322602001484,left,0.19250299991108477,0,0,0,99,-0.08000000000000003,0.24,left,0.1070167999714613,,,,,,,,,,,,,,,,,,,,,,,,,,,,,,,,,,,,,,,,,,,,,,,,,,,,,,,,,,,,5LDGLV,train_y,red_square,top_right,2025-04-01_17h05.31.528,HideSeek_v1,2022.2.5,59.9436650031524,
,7,8,7,5,0,-3,13,,train_dim1_1,3,30,,,,2,0,2,0,,,,,,,,,0,0,0,0,0,2,2,2,68,0,68,0,,,,,,,,,,,,,,,,,,,,,,,,,,,,,,,,,,,,,,,,,,,,,,,,,,,,,,,,,,,,,,,,30,,,,,,,,1642.6315612001345,1642.6315612001345,1642.6315612001345,1642.6315612001345,1642.6315612001345,left,0.39275099989026785,0,0,0,99,-0.16000000000000003,0.24,left,0.3056636000983417,,,,,,,,,,,,,,,,,,,,,,,,,,,,,,,,,,,,,,,,,,,,,,,,,,,,,,,,,,,,5LDGLV,train_y,red_square,top_right,2025-04-01_17h05.31.528,HideSeek_v1,2022.2.5,59.9436650031524,
,7,8,7,5,0,-3,13,,train_dim1_1,3,30,,,,2,0,2,0,,,,,,,,,0,0,0,0,0,2,2,2,69,0,69,0,,,,,,,,,,,,,,,,,,,,,,,,,,,,,,,,,,,,,,,,,,,,,,,,,,,,,,,,,,,,,,,,30,,,,,,,,1643.0318255000748,1643.0318255000748,1643.0318255000748,1643.0318255000748,1643.0318255000748,down,0.9931497999932617,0,0,0,99,-0.16000000000000003,0.15999999999999998,down,0.9012585997115821,,,,,,,,,,,,,,,,,,,,,,,,,,,,,,,,,,,,,,,,,,,,,,,,,,,,,,,,,,,,5LDGLV,train_y,red_square,top_right,2025-04-01_17h05.31.528,HideSeek_v1,2022.2.5,59.9436650031524,
,7,8,7,5,0,-3,13,,train_dim1_1,3,30,,,,2,0,2,0,,,,,,,,,0,0,0,0,0,2,2,2,70,0,70,0,,,,,,,,,,,,,,,,,,,,,,,,,,,,,,,,,,,,,,,,,,,,,,,,,,,,,,,,,,,,,,,,30,,,,,,,,1644.0318173000123,1644.0318173000123,1644.0318173000123,1644.0318173000123,1644.0318173000123,down,0.24231079989112914,0,0,0,99,-0.16000000000000003,0.07999999999999997,down,0.16175709990784526,,,,,,,,,,,,,,,,,,,,,,,,,,,,,,,,,,,,,,,,,,,,,,,,,,,,,,,,,,,,5LDGLV,train_y,red_square,top_right,2025-04-01_17h05.31.528,HideSeek_v1,2022.2.5,59.9436650031524,
,7,8,7,5,0,-3,13,,train_dim1_1,3,30,,,,2,0,2,0,,,,,,,,,0,0,0,0,0,2,2,2,71,0,71,0,,,,,,,,,,,,,,,,,,,,,,,,,,,,,,,,,,,,,,,,,,,,,,,,,,,,,,,,,,,,,,,,30,,,,,,,,1644.2823702001479,1644.2823702001479,1644.2823702001479,1644.2823702001479,1644.2823702001479,down,0.2091179999988526,0,0,0,99,-0.16000000000000003,-2.7755575615628914e-17,down,0.1194595000706613,,,,,,,,,,,,,,,,,,,,,,,,,,,,,,,,,,,,,,,,,,,,,,,,,,,,,,,,,,,,5LDGLV,train_y,red_square,top_right,2025-04-01_17h05.31.528,HideSeek_v1,2022.2.5,59.9436650031524,
,7,8,7,5,0,-3,13,,train_dim1_1,3,30,,,,2,0,2,0,,,,,,,,,0,0,0,0,0,2,2,2,72,0,72,0,,,,,,,,,,,,,,,,,,,,,,,,,,,,,,,,,,,,,,,,,,,,,,,,,,,,,,,,,,,,,,,,30,,,,,,,,1644.4999700000044,1644.4999700000044,1644.4999700000044,1644.4999700000044,1644.4999700000044,down,0.6926933000795543,0,0,0,99,-0.16000000000000003,-0.08000000000000003,down,0.6081038999836892,,,,,,,,,,,,,,,,,,,,,,,,,,,,,,,,,,,,,,,,,,,,,,,,,,,,,,,,,,,,5LDGLV,train_y,red_square,top_right,2025-04-01_17h05.31.528,HideSeek_v1,2022.2.5,59.9436650031524,
,7,8,7,5,0,-3,13,,train_dim1_1,3,30,,,,2,0,2,0,,,,,,,,,0,0,0,0,0,2,2,2,73,0,73,0,,,,,,,,,,,,,,,,,,,,,,,,,,,,,,,,,,,,,,,,,,,,,,,,,,,,,,,,,,,,,,,,30,,,,,,,,1645.1997421002015,1645.1997421002015,1645.1997421002015,1645.1997421002015,1645.1997421002015,down,0.25981179997324944,0,0,0,99,-0.16000000000000003,-0.16000000000000003,down,0.18086849991232157,,,,,,,,,,,,,,,,,,,,,,,,,,,,,,,,,,,,,,,,,,,,,,,,,,,,,,,,,,,,5LDGLV,train_y,red_square,top_right,2025-04-01_17h05.31.528,HideSeek_v1,2022.2.5,59.9436650031524,
,7,8,7,5,0,-3,13,,train_dim1_1,3,30,,,,2,0,2,0,,,,,,,,,0,0,0,0,0,2,2,2,74,0,74,0,,,,,,,,,,,,,,,,,,,,,,,,,,,,,,,,,,,,,,,,,,,,,,,,,,,,,,,,,,,,,,,,30,,,,,,,,1645.4673770000227,1645.4673770000227,1645.4673770000227,1645.4673770000227,1645.4673770000227,down,0.2088494999334216,0,0,0,99,-0.16000000000000003,-0.24000000000000005,down,0.12397730001248419,,,,,,,,,,,,,,,,,,,,,,,,,,,,,,,,,,,,,,,,,,,,,,,,,,,,,,,,,,,,5LDGLV,train_y,red_square,top_right,2025-04-01_17h05.31.528,HideSeek_v1,2022.2.5,59.9436650031524,
,7,8,7,5,0,-3,13,,train_dim1_1,3,30,,,,2,0,2,0,,,,,,,,,0,0,0,0,0,2,2,2,75,0,75,0,,,,,,,,,,,,,,,,,,,,,,,,,,,,,,,,,,,,,,,,,,,,,,,,,,,,,,,,,,,,,,,,30,,,,,,,,1645.683401599992,1645.683401599992,1645.683401599992,1645.683401599992,1645.683401599992,down,0.20905239996500313,0,0,0,99,-0.16000000000000003,-0.32000000000000006,down,0.12953399983234704,,,,,,,,,,,,,,,,,,,,,,,,,,,,,,,,,,,,,,,,,,,,,,,,,,,,,,,,,,,,5LDGLV,train_y,red_square,top_right,2025-04-01_17h05.31.528,HideSeek_v1,2022.2.5,59.9436650031524,
,7,8,7,5,0,-3,13,,train_dim1_1,3,30,,,,2,0,2,0,,,,,,,,,0,0,0,0,0,2,2,2,76,0,76,0,,,,,,,,,,,,,,,,,,,,,,,,,,,,,,,,,,,,,,,,,,,,,,,,,,,,,,,,,,,,,,,,30,,,,,,,,1645.8997897000518,1645.8997897000518,1645.8997897000518,1645.8997897000518,1645.8997897000518,down,0.1757187000475824,0,0,0,99,-0.16000000000000003,-0.4000000000000001,down,0.09987889998592436,,,,,,,,,,,,,,,,,,,,,,,,,,,,,,,,,,,,,,,,,,,,,,,,,,,,,,,,,,,,5LDGLV,train_y,red_square,top_right,2025-04-01_17h05.31.528,HideSeek_v1,2022.2.5,59.9436650031524,
,7,8,7,5,0,-3,13,,train_dim1_1,3,30,,,,2,0,2,0,,,,,,,,,0,0,0,0,0,2,2,2,77,0,77,0,,,,,,,,,,,,,,,,,,,,,,,,,,,,,,,,,,,,,,,,,,,,,,,,,,,,,,,,,,,,,,,,30,,,,,,,,1646.0837441000622,1646.0837441000622,1646.0837441000622,1646.0837441000622,1646.0837441000622,right,0.726340000052005,0,0,0,99,-0.08000000000000003,-0.4000000000000001,right,0.6463231998495758,,,,,,,,,,,,,,,,,,,,,,,,,,,,,,,,,,,,,,,,,,,,,,,,,,,,,,,,,,,,5LDGLV,train_y,red_square,top_right,2025-04-01_17h05.31.528,HideSeek_v1,2022.2.5,59.9436650031524,
,7,8,7,5,0,-3,13,,train_dim1_1,3,30,,,,2,0,2,0,,,,,,,,,0,0,0,0,0,2,2,2,78,0,78,0,,,,,,,,,,,,,,,,,,,,,,,,,,,,,,,,,,,,,,,,,,,,,,,,,,,,,,,,,,,,,,,,30,,,,,,,,1646.8182310999837,1646.8182310999837,1646.8182310999837,1646.8182310999837,1646.8182310999837,up,0.9096546000801027,0,0,0,99,-0.08000000000000003,-0.32000000000000006,up,0.8285304997116327,,,,,,,,,,,,,,,,,,,,,,,,,,,,,,,,,,,,,,,,,,,,,,,,,,,,,,,,,,,,5LDGLV,train_y,red_square,top_right,2025-04-01_17h05.31.528,HideSeek_v1,2022.2.5,59.9436650031524,
,7,8,7,5,0,-3,13,,train_dim1_1,3,30,,,,2,0,2,0,,,,,,,,,0,0,0,0,0,2,2,2,79,0,79,0,,,,,,,,,,,,,,,,,,,,,,,,,,,,,,,,,,,,,,,,,,,,,,,,,,,,,,,,,,,,,,,,30,,,,,,,,1647.7348879000638,1647.7348879000638,1647.7348879000638,1647.7348879000638,1647.7348879000638,up,0.20972729986533523,0,0,0,99,-0.08000000000000003,-0.24000000000000005,up,0.13205699971877038,,,,,,,,,,,,,,,,,,,,,,,,,,,,,,,,,,,,,,,,,,,,,,,,,,,,,,,,,,,,5LDGLV,train_y,red_square,top_right,2025-04-01_17h05.31.528,HideSeek_v1,2022.2.5,59.9436650031524,
,7,8,7,5,0,-3,13,,train_dim1_1,3,30,,,,2,0,2,0,,,,,,,,,0,0,0,0,0,2,2,2,80,0,80,0,,,,,,,,,,,,,,,,,,,,,,,,,,,,,,,,,,,,,,,,,,,,,,,,,,,,,,,,,,,,,,,,30,,,,,,,,1647.9517669000197,1647.9517669000197,1647.9517669000197,1647.9517669000197,1647.9517669000197,up,0.19212520006112754,0,0,0,99,-0.08000000000000003,-0.16000000000000003,up,0.11560139991343021,,,,,,,,,,,,,,,,,,,,,,,,,,,,,,,,,,,,,,,,,,,,,,,,,,,,,,,,,,,,5LDGLV,train_y,red_square,top_right,2025-04-01_17h05.31.528,HideSeek_v1,2022.2.5,59.9436650031524,
,7,8,7,5,0,-3,13,,train_dim1_1,3,30,,,,2,0,2,0,,,,,,,,,0,0,0,0,0,2,2,2,81,0,81,0,,,,,,,,,,,,,,,,,,,,,,,,,,,,,,,,,,,,,,,,,,,,,,,,,,,,,,,,,,,,,,,,30,,,,,,,,1648.152257699985,1648.152257699985,1648.152257699985,1648.152257699985,1648.152257699985,right,0.5428638998419046,0,0,0,99,-2.7755575615628914e-17,-0.16000000000000003,right,0.4643100998364389,,,,,,,,,,,,,,,,,,,,,,,,,,,,,,,,,,,,,,,,,,,,,,,,,,,,,,,,,,,,5LDGLV,train_y,red_square,top_right,2025-04-01_17h05.31.528,HideSeek_v1,2022.2.5,59.9436650031524,
,7,8,7,5,0,-3,13,,train_dim1_1,3,30,,,,2,0,2,0,,,,,,,,,0,0,0,0,0,2,2,2,82,0,82,0,,,,,,,,,,,,,,,,,,,,,,,,,,,,,,,,,,,,,,,,,,,,,,,,,,,,,,,,,,,,,,,,30,,,,,,,,1648.702593700029,1648.702593700029,1648.702593700029,1648.702593700029,1648.702593700029,right,0.19235090003348887,0,0,0,99,0.07999999999999997,-0.16000000000000003,right,0.11184110003523529,,,,,,,,,,,,,,,,,,,,,,,,,,,,,,,,,,,,,,,,,,,,,,,,,,,,,,,,,,,,5LDGLV,train_y,red_square,top_right,2025-04-01_17h05.31.528,HideSeek_v1,2022.2.5,59.9436650031524,
,7,8,7,5,0,-3,13,,train_dim1_1,3,30,,,,2,0,2,0,,,,,,,,,0,0,0,0,0,2,2,2,83,0,83,0,,,,,,,,,,,,,,,,,,,,,,,,,,,,,,,,,,,,,,,,,,,,,,,,,,,,,,,,,,,,,,,,30,,,,,,,,1648.9027225000318,1648.9027225000318,1648.9027225000318,1648.9027225000318,1648.9027225000318,right,0.19277040008455515,0,0,0,99,0.15999999999999998,-0.16000000000000003,right,0.11478299973532557,,,,,,,,,,,,,,,,,,,,,,,,,,,,,,,,,,,,,,,,,,,,,,,,,,,,,,,,,,,,5LDGLV,train_y,red_square,top_right,2025-04-01_17h05.31.528,HideSeek_v1,2022.2.5,59.9436650031524,
,7,8,7,5,0,-3,13,,train_dim1_1,3,30,,,,2,0,2,0,,,,,,,,,0,0,0,0,0,2,2,2,84,0,84,0,,,,,,,,,,,,,,,,,,,,,,,,,,,,,,,,,,,,,,,,,,,,,,,,,,,,,,,,,,,,,,,,30,,,,,,,,1649.1020394000225,1649.1020394000225,1649.1020394000225,1649.1020394000225,1649.1020394000225,right,0.17625289992429316,0,0,0,99,0.24,-0.16000000000000003,right,0.0903372997418046,,,,,,,,,,,,,,,,,,,,,,,,,,,,,,,,,,,,,,,,,,,,,,,,,,,,,,,,,,,,5LDGLV,train_y,red_square,top_right,2025-04-01_17h05.31.528,HideSeek_v1,2022.2.5,59.9436650031524,
,7,8,7,5,0,-3,13,,train_dim1_1,3,30,,,,2,0,2,0,,,,,,,,,0,0,0,0,0,2,2,2,85,0,85,0,,,,,,,,,,,,,,,,,,,,,,,,,,,,,,,,,,,,,,,,,,,,,,,,,,,,,,,,,,,,,,,,30,,,,,,,,1649.2858890001662,1649.2858890001662,1649.2858890001662,1649.2858890001662,1649.2858890001662,right,0.17552289995364845,0,0,0,99,0.32,-0.16000000000000003,right,0.09105859999544919,,,,,,,,,,,,,,,,,,,,,,,,,,,,,,,,,,,,,,,,,,,,,,,,,,,,,,,,,,,,5LDGLV,train_y,red_square,top_right,2025-04-01_17h05.31.528,HideSeek_v1,2022.2.5,59.9436650031524,
,7,8,7,5,0,-3,13,,train_dim1_1,3,30,,,,2,0,2,0,,,,,,,,,0,0,0,0,0,2,2,2,86,0,86,0,,,,,,,,,,,,,,,,,,,,,,,,,,,,,,,,,,,,,,,,,,,,,,,,,,,,,,,,,,,,,,,,30,,,,,,,,1649.4697524001822,1649.4697524001822,1649.4697524001822,1649.4697524001822,1649.4697524001822,right,0.22595059988088906,0,0,0,99,0.4,-0.16000000000000003,right,0.14491429994814098,,,,,,,,,,,,,,,,,,,,,,,,,,,,,,,,,,,,,,,,,,,,,,,,,,,,,,,,,,,,5LDGLV,train_y,red_square,top_right,2025-04-01_17h05.31.528,HideSeek_v1,2022.2.5,59.9436650031524,
,7,8,7,5,0,-3,13,,train_dim1_1,3,30,,,,2,0,2,0,,,,,,,,,0,0,0,0,0,2,2,2,87,0,87,0,,,,,,,,,,,,,,,,,,,,,,,,,,,,,,,,,,,,,,,,,,,,,,,,,,,,,,,,,,,,,,,,30,,,,,,,,1649.7037963001058,1649.7037963001058,1649.7037963001058,1649.7037963001058,1649.7037963001058,up,0.3760253000073135,0,0,0,99,0.4,-0.08000000000000003,up,0.3000993998721242,,,,,,,,,,,,,,,,,,,,,,,,,,,,,,,,,,,,,,,,,,,,,,,,,,,,,,,,,,,,5LDGLV,train_y,red_square,top_right,2025-04-01_17h05.31.528,HideSeek_v1,2022.2.5,59.9436650031524,
,7,8,7,5,0,-3,13,,train_dim1_1,3,30,,,,2,0,2,0,,,,,,,,,0,0,0,0,0,2,2,2,88,0,88,0,,,,,,,,,,,,,,,,,,,,,,,,,,,,,,,,,,,,,,,,,,,,,,,,,,,,,,,,,,,,,,,,30,,,,,,,,1650.0861115001608,1650.0861115001608,1650.0861115001608,1650.0861115001608,1650.0861115001608,left,0.19293290004134178,0,0,0,99,0.32,-0.08000000000000003,left,0.1142290998250246,,,,,,,,,,,,,,,,,,,,,,,,,,,,,,,,,,,,,,,,,,,,,,,,,,,,,,,,,,,,5LDGLV,train_y,red_square,top_right,2025-04-01_17h05.31.528,HideSeek_v1,2022.2.5,59.9436650031524,
,7,8,7,5,0,-3,13,,train_dim1_1,3,30,,,,2,0,2,0,,,,,,,,,0,0,0,0,0,2,2,2,89,0,89,0,,,,,,,,,,,,,,,,,,,,,,,,,,,,,,,,,,,,,,,,,,,,,,,,,,,,,,,,,,,,,,,,30,,,,,,,,1650.2877059001476,1650.2877059001476,1650.2877059001476,1650.2877059001476,1650.2877059001476,left,0.1922039999626577,0,0,0,99,0.24,-0.08000000000000003,left,0.11573069985024631,,,,,,,,,,,,,,,,,,,,,,,,,,,,,,,,,,,,,,,,,,,,,,,,,,,,,,,,,,,,5LDGLV,train_y,red_square,top_right,2025-04-01_17h05.31.528,HideSeek_v1,2022.2.5,59.9436650031524,
,7,8,7,5,0,-3,13,,train_dim1_1,3,30,,,,2,0,2,0,,,,,,,,,0,0,0,0,0,2,2,2,90,0,90,0,,,,,,,,,,,,,,,,,,,,,,,,,,,,,,,,,,,,,,,,,,,,,,,,,,,,,,,,,,,,,,,,30,,,,,,,,1650.4882732999977,1650.4882732999977,1650.4882732999977,1650.4882732999977,1650.4882732999977,left,0.19256130000576377,0,0,0,99,0.15999999999999998,-0.08000000000000003,left,0.10803180001676083,,,,,,,,,,,,,,,,,,,,,,,,,,,,,,,,,,,,,,,,,,,,,,,,,,,,,,,,,,,,5LDGLV,train_y,red_square,top_right,2025-04-01_17h05.31.528,HideSeek_v1,2022.2.5,59.9436650031524,
,7,8,7,5,0,-3,13,,train_dim1_1,3,30,,,,2,0,2,0,,,,,,,,,0,0,0,0,0,2,2,2,91,0,91,0,,,,,,,,,,,,,,,,,,,,,,,,,,,,,,,,,,,,,,,,,,,,,,,,,,,,,,,,,,,,,,,,30,,,,,,,,1650.687874100171,1650.687874100171,1650.687874100171,1650.687874100171,1650.687874100171,left,0.17559060011990368,0,0,0,99,0.07999999999999997,-0.08000000000000003,left,0.087176299886778,,,,,,,,,,,,,,,,,,,,,,,,,,,,,,,,,,,,,,,,,,,,,,,,,,,,,,,,,,,,5LDGLV,train_y,red_square,top_right,2025-04-01_17h05.31.528,HideSeek_v1,2022.2.5,59.9436650031524,
,7,8,7,5,0,-3,13,,train_dim1_1,3,30,,,,2,0,2,0,,,,,,,,,0,0,0,0,0,2,2,2,92,0,92,0,,,,,,,,,,,,,,,,,,,,,,,,,,,,,,,,,,,,,,,,,,,,,,,,,,,,,,,,,,,,,,,,30,,,,,,,,1650.8714331001975,1650.8714331001975,1650.8714331001975,1650.8714331001975,1650.8714331001975,left,0.17573229991830885,0,0,0,99,-2.7755575615628914e-17,-0.08000000000000003,left,0.09412589971907437,,,,,,,,,,,,,,,,,,,,,,,,,,,,,,,,,,,,,,,,,,,,,,,,,,,,,,,,,,,,5LDGLV,train_y,red_square,top_right,2025-04-01_17h05.31.528,HideSeek_v1,2022.2.5,59.9436650031524,
,7,8,7,5,0,-3,13,,train_dim1_1,3,30,,,,2,0,2,0,,,,,,,,,0,0,0,0,0,2,2,2,93,0,93,0,,,,,,,,,,,,,,,,,,,,,,,,,,,,,,,,,,,,,,,,,,,,,,,,,,,,,,,,,,,,,,,,30,,,,,,,,1651.0539661999792,1651.0539661999792,1651.0539661999792,1651.0539661999792,1651.0539661999792,up,0.22609839984215796,0,0,0,99,-2.7755575615628914e-17,-2.7755575615628914e-17,up,0.1397346998564899,,,,,,,,,,,,,,,,,,,,,,,,,,,,,,,,,,,,,,,,,,,,,,,,,,,,,,,,,,,,5LDGLV,train_y,red_square,top_right,2025-04-01_17h05.31.528,HideSeek_v1,2022.2.5,59.9436650031524,
,7,8,7,5,0,-3,13,,train_dim1_1,3,30,,,,2,0,2,0,,,,,,,,,0,0,0,0,0,2,2,2,94,0,94,0,,,,,,,,,,,,,,,,,,,,,,,,,,,,,,,,,,,,,,,,,,,,,,,,,,,,,,,,,,,,,,,,30,,,,,,,,1651.2883380001877,1651.2883380001877,1651.2883380001877,1651.2883380001877,1651.2883380001877,right,0.259042700054124,0,0,0,99,0.07999999999999997,-2.7755575615628914e-17,right,0.1669526998884976,,,,,,,,,,,,,,,,,,,,,,,,,,,,,,,,,,,,,,,,,,,,,,,,,,,,,,,,,,,,5LDGLV,train_y,red_square,top_right,2025-04-01_17h05.31.528,HideSeek_v1,2022.2.5,59.9436650031524,
,7,8,7,5,0,-3,13,,train_dim1_1,3,30,,,,2,0,2,0,,,,,,,,,0,0,0,0,0,2,2,2,95,0,95,0,,,,,,,,,,,,,,,,,,,,,,,,,,,,,,,,,,,,,,,,,,,,,,,,,,,,,,,,,,,,,,,,30,,,,,,,,1651.5550828000996,1651.5550828000996,1651.5550828000996,1651.5550828000996,1651.5550828000996,right,0.1927374000661075,0,0,0,99,0.15999999999999998,-2.7755575615628914e-17,right,0.11187059967778623,,,,,,,,,,,,,,,,,,,,,,,,,,,,,,,,,,,,,,,,,,,,,,,,,,,,,,,,,,,,5LDGLV,train_y,red_square,top_right,2025-04-01_17h05.31.528,HideSeek_v1,2022.2.5,59.9436650031524,
,7,8,7,5,0,-3,13,,train_dim1_1,3,30,,,,2,0,2,0,,,,,,,,,0,0,0,0,0,2,2,2,96,0,96,0,,,,,,,,,,,,,,,,,,,,,,,,,,,,,,,,,,,,,,,,,,,,,,,,,,,,,,,,,,,,,,,,30,,,,,,,,1651.755950300023,1651.755950300023,1651.755950300023,1651.755950300023,1651.755950300023,right,0.20894829998724163,0,0,0,99,0.24,-2.7755575615628914e-17,right,0.12800319981761277,,,,,,,,,,,,,,,,,,,,,,,,,,,,,,,,,,,,,,,,,,,,,,,,,,,,,,,,,,,,5LDGLV,train_y,red_square,top_right,2025-04-01_17h05.31.528,HideSeek_v1,2022.2.5,59.9436650031524,
,7,8,7,5,0,-3,13,,train_dim1_1,3,30,,,,2,0,2,0,,,,,,,,,0,0,0,0,0,2,2,2,97,0,97,0,,,,,,,,,,,,,,,,,,,,,,,,,,,,,,,,,,,,,,,,,,,,,,,,,,,,,,,,,,,,,,,,30,,,,,,,,1651.972110300092,1651.972110300092,1651.972110300092,1651.972110300092,1651.972110300092,right,0.15910609997808933,0,0,0,99,0.32,-2.7755575615628914e-17,right,0.07172159990295768,,,,,,,,,,,,,,,,,,,,,,,,,,,,,,,,,,,,,,,,,,,,,,,,,,,,,,,,,,,,5LDGLV,train_y,red_square,top_right,2025-04-01_17h05.31.528,HideSeek_v1,2022.2.5,59.9436650031524,
,7,8,7,5,0,-3,13,,train_dim1_1,3,30,,,,2,0,2,0,,,,,,,,,0,0,0,0,0,2,2,2,98,0,98,0,,,,,,,,,,,,,,,,,,,,,,,,,,,,,,,,,,,,,,,,,,,,,,,,,,,,,,,,,,,,,,,,30,,,,,,,,1652.1392703000456,1652.1392703000456,1652.1392703000456,1652.1392703000456,1652.1392703000456,right,0.175416000187397,0,0,0,99,0.4,-2.7755575615628914e-17,right,0.08513220003806055,,,,,,,,,,,,,,,,,,,,,,,,,,,,,,,,,,,,,,,,,,,,,,,,,,,,,,,,,,,,5LDGLV,train_y,red_square,top_right,2025-04-01_17h05.31.528,HideSeek_v1,2022.2.5,59.9436650031524,
,7,8,7,5,0,-3,13,,train_dim1_1,3,30,,,,2,0,2,0,,,,,,,,,0,0,0,0,0,2,2,2,99,0,99,0,,,,,,,,,,,,,,,,,,,,,,,,,,,,,,,,,,,,,,,,,,,,,,,,,,,,,,,,,,,,,,,,30,,,,,,,,1652.3229247001,1652.3229247001,1652.3229247001,1652.3229247001,1652.3229247001,up,0.24243010021746159,0,0,0,99,0.4,0.07999999999999997,up,0.15185839985497296,,,,,,,,,,,,,,,,,,,,,,,,,,,,,,,,,,,,,,,,,,,,,,,,,,,,,,,,,,,,5LDGLV,train_y,red_square,top_right,2025-04-01_17h05.31.528,HideSeek_v1,2022.2.5,59.9436650031524,
,7,8,7,5,0,-3,13,,train_dim1_1,3,30,,,,2,0,2,0,,,,,,,,,0,0,0,0,0,2,2,2,100,0,100,0,,,,,,,,,,,,,,,,,,,,,,,,,,,,,,,,,,,,,,,,,,,,,,,,,,,,,,,,,,,,,,,,30,,,,,,,,1652.5724290001672,1652.5724290001672,1652.5724290001672,1652.5724290001672,1652.5724290001672,left,0.1421936999540776,0,0,0,99,0.32,0.07999999999999997,left,0.05819439981132746,,,,,,,,,,,,,,,,,,,,,,,,,,,,,,,,,,,,,,,,,,,,,,,,,,,,,,,,,,,,5LDGLV,train_y,red_square,top_right,2025-04-01_17h05.31.528,HideSeek_v1,2022.2.5,59.9436650031524,
,7,8,7,5,0,-3,13,,train_dim1_1,3,30,,,,2,0,2,0,,,,,,,,,0,0,0,0,0,2,2,2,101,0,101,0,,,,,,,,,,,,,,,,,,,,,,,,,,,,,,,,,,,,,,,,,,,,,,,,,,,,,,,,,,,,,,,,30,,,,,,,,1652.7228659000248,1652.7228659000248,1652.7228659000248,1652.7228659000248,1652.7228659000248,left,0.19264820008538663,0,0,0,99,0.24,0.07999999999999997,left,0.11700589978136122,,,,,,,,,,,,,,,,,,,,,,,,,,,,,,,,,,,,,,,,,,,,,,,,,,,,,,,,,,,,5LDGLV,train_y,red_square,top_right,2025-04-01_17h05.31.528,HideSeek_v1,2022.2.5,59.9436650031524,
,7,8,7,5,0,-3,13,,train_dim1_1,3,30,,,,2,0,2,0,,,,,,,,,0,0,0,0,0,2,2,2,102,0,102,0,,,,,,,,,,,,,,,,,,,,,,,,,,,,,,,,,,,,,,,,,,,,,,,,,,,,,,,,,,,,,,,,30,,,,,,,,1652.922477300046,1652.922477300046,1652.922477300046,1652.922477300046,1652.922477300046,left,0.17568109999410808,0,0,0,99,0.15999999999999998,0.07999999999999997,left,0.09633689979091287,,,,,,,,,,,,,,,,,,,,,,,,,,,,,,,,,,,,,,,,,,,,,,,,,,,,,,,,,,,,5LDGLV,train_y,red_square,top_right,2025-04-01_17h05.31.528,HideSeek_v1,2022.2.5,59.9436650031524,
,7,8,7,5,0,-3,13,,train_dim1_1,3,30,,,,2,0,2,0,,,,,,,,,0,0,0,0,0,2,2,2,103,0,103,0,,,,,,,,,,,,,,,,,,,,,,,,,,,,,,,,,,,,,,,,,,,,,,,,,,,,,,,,,,,,,,,,30,,,,,,,,1653.1057691001333,1653.1057691001333,1653.1057691001333,1653.1057691001333,1653.1057691001333,left,0.17589559988118708,0,0,0,99,0.07999999999999997,0.07999999999999997,left,0.08775589987635612,,,,,,,,,,,,,,,,,,,,,,,,,,,,,,,,,,,,,,,,,,,,,,,,,,,,,,,,,,,,5LDGLV,train_y,red_square,top_right,2025-04-01_17h05.31.528,HideSeek_v1,2022.2.5,59.9436650031524,
,7,8,7,5,0,-3,13,,train_dim1_1,3,30,,,,2,0,2,0,,,,,,,,,0,0,0,0,0,2,2,2,104,0,104,0,,,,,,,,,,,,,,,,,,,,,,,,,,,,,,,,,,,,,,,,,,,,,,,,,,,,,,,,,,,,,,,,30,,,,,,,,1653.2905937000178,1653.2905937000178,1653.2905937000178,1653.2905937000178,1653.2905937000178,left,0.29231170006096363,0,0,0,99,-2.7755575615628914e-17,0.07999999999999997,left,0.20700059994123876,,,,,,,,,,,,,,,,,,,,,,,,,,,,,,,,,,,,,,,,,,,,,,,,,,,,,,,,,,,,5LDGLV,train_y,red_square,top_right,2025-04-01_17h05.31.528,HideSeek_v1,2022.2.5,59.9436650031524,
,7,8,7,5,0,-3,13,,train_dim1_1,3,30,,,,2,0,2,0,,,,,,,,,0,0,0,0,0,2,2,2,105,0,105,0,,,,,,,,,,,,,,,,,,,,,,,,,,,,,,,,,,,,,,,,,,,,,,,,,,,,,,,,,,,,,,,,30,,,,,,,,1653.5927336001769,1653.5927336001769,1653.5927336001769,1653.5927336001769,1653.5927336001769,left,0.2089541000314057,0,0,0,99,-0.08000000000000003,0.07999999999999997,left,0.12514719972386956,,,,,,,,,,,,,,,,,,,,,,,,,,,,,,,,,,,,,,,,,,,,,,,,,,,,,,,,,,,,5LDGLV,train_y,red_square,top_right,2025-04-01_17h05.31.528,HideSeek_v1,2022.2.5,59.9436650031524,
,7,8,7,5,0,-3,13,,train_dim1_1,3,30,,,,2,0,2,0,,,,,,,,,0,0,0,0,0,2,2,2,106,0,106,0,,,,,,,,,,,,,,,,,,,,,,,,,,,,,,,,,,,,,,,,,,,,,,,,,,,,,,,,,,,,,,,,30,,,,,,,,1653.8074131000321,1653.8074131000321,1653.8074131000321,1653.8074131000321,1653.8074131000321,up,0.25875009992159903,0,0,0,99,-0.08000000000000003,0.15999999999999998,up,0.17474689986556768,,,,,,,,,,,,,,,,,,,,,,,,,,,,,,,,,,,,,,,,,,,,,,,,,,,,,,,,,,,,5LDGLV,train_y,red_square,top_right,2025-04-01_17h05.31.528,HideSeek_v1,2022.2.5,59.9436650031524,
,7,8,7,5,0,-3,13,,train_dim1_1,3,30,,,,2,0,2,0,,,,,,,,,0,0,0,0,0,2,2,2,107,0,107,0,,,,,,,,,,,,,,,,,,,,,,,,,,,,,,,,,,,,,,,,,,,,,,,,,,,,,,,,,,,,,,,,30,,,,,,,,1654.0744517000858,1654.0744517000858,1654.0744517000858,1654.0744517000858,1654.0744517000858,right,0.4920594000723213,0,0,0,99,-2.7755575615628914e-17,0.15999999999999998,right,0.405321299796924,,,,,,,,,,,,,,,,,,,,,,,,,,,,,,,,,,,,,,,,,,,,,,,,,,,,,,,,,,,,5LDGLV,train_y,red_square,top_right,2025-04-01_17h05.31.528,HideSeek_v1,2022.2.5,59.9436650031524,
,7,8,7,5,0,-3,13,,train_dim1_1,3,30,,,,2,0,2,0,,,,,,,,,0,0,0,0,0,2,2,2,108,0,108,0,,,,,,,,,,,,,,,,,,,,,,,,,,,,,,,,,,,,,,,,,,,,,,,,,,,,,,,,,,,,,,,,30,,,,,,,,1654.5751348000485,1654.5751348000485,1654.5751348000485,1654.5751348000485,1654.5751348000485,right,0.1755907000042498,0,0,0,99,0.07999999999999997,0.15999999999999998,right,0.09477659990079701,,,,,,,,,,,,,,,,,,,,,,,,,,,,,,,,,,,,,,,,,,,,,,,,,,,,,,,,,,,,5LDGLV,train_y,red_square,top_right,2025-04-01_17h05.31.528,HideSeek_v1,2022.2.5,59.9436650031524,
,7,8,7,5,0,-3,13,,train_dim1_1,3,30,,,,2,0,2,0,,,,,,,,,0,0,0,0,0,2,2,2,109,0,109,0,,,,,,,,,,,,,,,,,,,,,,,,,,,,,,,,,,,,,,,,,,,,,,,,,,,,,,,,,,,,,,,,30,,,,,,,,1654.758593100123,1654.758593100123,1654.758593100123,1654.758593100123,1654.758593100123,right,0.20895470003597438,0,0,0,99,0.15999999999999998,0.15999999999999998,right,0.1272460997570306,,,,,,,,,,,,,,,,,,,,,,,,,,,,,,,,,,,,,,,,,,,,,,,,,,,,,,,,,,,,5LDGLV,train_y,red_square,top_right,2025-04-01_17h05.31.528,HideSeek_v1,2022.2.5,59.9436650031524,
,7,8,7,5,0,-3,13,,train_dim1_1,3,30,,,,2,0,2,0,,,,,,,,,0,0,0,0,0,2,2,2,110,0,110,0,,,,,,,,,,,,,,,,,,,,,,,,,,,,,,,,,,,,,,,,,,,,,,,,,,,,,,,,,,,,,,,,30,,,,,,,,1654.9745627001394,1654.9745627001394,1654.9745627001394,1654.9745627001394,1654.9745627001394,right,0.4593096999451518,0,0,0,99,0.24,0.15999999999999998,right,0.37953949999064207,,,,,,,,,,,,,,,,,,,,,,,,,,,,,,,,,,,,,,,,,,,,,,,,,,,,,,,,,,,,5LDGLV,train_y,red_square,top_right,2025-04-01_17h05.31.528,HideSeek_v1,2022.2.5,59.9436650031524,
,7,8,7,5,0,-3,13,,train_dim1_1,3,30,,,,2,0,2,0,,,,,,,,,0,0,0,0,0,2,2,2,111,0,111,0,,,,,,,,,,,,,,,,,,,,,,,,,,,,,,,,,,,,,,,,,,,,,,,,,,,,,,,,,,,,,,,,30,,,,,,,,1655.4421912999824,1655.4421912999824,1655.4421912999824,1655.4421912999824,1655.4421912999824,right,0.1923952999059111,0,0,0,99,0.32,0.15999999999999998,right,0.10268899984657764,,,,,,,,,,,,,,,,,,,,,,,,,,,,,,,,,,,,,,,,,,,,,,,,,,,,,,,,,,,,5LDGLV,train_y,red_square,top_right,2025-04-01_17h05.31.528,HideSeek_v1,2022.2.5,59.9436650031524,
,7,8,7,5,0,-3,13,,train_dim1_1,3,30,,,,2,0,2,0,,,,,,,,,0,0,0,0,0,2,2,2,112,0,112,0,,,,,,,,,,,,,,,,,,,,,,,,,,,,,,,,,,,,,,,,,,,,,,,,,,,,,,,,,,,,,,,,30,,,,,,,,1655.6421194002032,1655.6421194002032,1655.6421194002032,1655.6421194002032,1655.6421194002032,right,0.19244739995338023,0,0,0,99,0.4,0.15999999999999998,right,0.1144560999237001,,,,,,,,,,,,,,,,,,,,,,,,,,,,,,,,,,,,,,,,,,,,,,,,,,,,,,,,,,,,5LDGLV,train_y,red_square,top_right,2025-04-01_17h05.31.528,HideSeek_v1,2022.2.5,59.9436650031524,
,7,8,7,5,0,-3,13,,train_dim1_1,3,30,,,,2,0,2,0,,,,,,,,,0,0,0,0,0,2,2,2,113,0,113,0,,,,,,,,,,,,,,,,,,,,,,,,,,,,,,,,,,,,,,,,,,,,,,,,,,,,,,,,,,,,,,,,30,,,,,,,,1655.8417158999946,1655.8417158999946,1655.8417158999946,1655.8417158999946,1655.8417158999946,right,0.2091206000186503,0,0,0,99,0.48000000000000004,0.15999999999999998,right,0.11928759980946779,,,,,,,,,,,,,,,,,,,,,,,,,,,,,,,,,,,,,,,,,,,,,,,,,,,,,,,,,,,,5LDGLV,train_y,red_square,top_right,2025-04-01_17h05.31.528,HideSeek_v1,2022.2.5,59.9436650031524,
,7,8,7,5,0,-3,13,,train_dim1_1,3,30,,,,2,0,2,0,,,,,,,,,0,0,0,0,0,2,2,2,114,0,114,0,,,,,,,,,,,,,,,,,,,,,,,,,,,,,,,,,,,,,,,,,,,,,,,,,,,,,,,,,,,,,,,,30,,,,,,,,1656.0578541001305,1656.0578541001305,1656.0578541001305,1656.0578541001305,1656.0578541001305,right,0.2093477000016719,0,0,0,99,0.56,0.15999999999999998,right,0.11832679994404316,,,,,,,,,,,,,,,,,,,,,,,,,,,,,,,,,,,,,,,,,,,,,,,,,,,,,,,,,,,,5LDGLV,train_y,red_square,top_right,2025-04-01_17h05.31.528,HideSeek_v1,2022.2.5,59.9436650031524,
,7,8,7,5,0,-3,13,,train_dim1_1,3,30,,,,2,0,2,0,,,,,,,,,0,0,0,0,0,2,2,2,115,0,115,0,,,,,,,,,,,,,,,,,,,,,,,,,,,,,,,,,,,,,,,,,,,,,,,,,,,,,,,,,,,,,,,,30,,,,,,,,1656.2763526001945,1656.2763526001945,1656.2763526001945,1656.2763526001945,1656.2763526001945,up,0.409099199809134,0,0,0,99,0.56,0.24,up,0.328171799890697,,,,,,,,,,,,,,,,,,,,,,,,,,,,,,,,,,,,,,,,,,,,,,,,,,,,,,,,,,,,5LDGLV,train_y,red_square,top_right,2025-04-01_17h05.31.528,HideSeek_v1,2022.2.5,59.9436650031524,
,7,8,7,5,0,-3,13,,train_dim1_1,3,30,,,,2,0,2,0,,,,,,,,,0,0,0,0,0,2,2,2,116,0,116,0,,,,,,,,,,,,,,,,,,,,,,,,,,,,,,,,,,,,,,,,,,,,,,,,,,,,,,,,,,,,,,,,30,,,,,,,,1656.6927543000784,1656.6927543000784,1656.6927543000784,1656.6927543000784,1656.6927543000784,left,0.1758200000040233,0,0,0,99,0.48000000000000004,0.24,left,0.09166069980710745,,,,,,,,,,,,,,,,,,,,,,,,,,,,,,,,,,,,,,,,,,,,,,,,,,,,,,,,,,,,5LDGLV,train_y,red_square,top_right,2025-04-01_17h05.31.528,HideSeek_v1,2022.2.5,59.9436650031524,
,7,8,7,5,0,-3,13,,train_dim1_1,3,30,,,,2,0,2,0,,,,,,,,,0,0,0,0,0,2,2,2,117,0,117,0,,,,,,,,,,,,,,,,,,,,,,,,,,,,,,,,,,,,,,,,,,,,,,,,,,,,,,,,,,,,,,,,30,,,,,,,,1656.876209500013,1656.876209500013,1656.876209500013,1656.876209500013,1656.876209500013,left,0.17549279984086752,0,0,0,99,0.4,0.24,left,0.08698599995113909,,,,,,,,,,,,,,,,,,,,,,,,,,,,,,,,,,,,,,,,,,,,,,,,,,,,,,,,,,,,5LDGLV,train_y,red_square,top_right,2025-04-01_17h05.31.528,HideSeek_v1,2022.2.5,59.9436650031524,
,7,8,7,5,0,-3,13,,train_dim1_1,3,30,,,,2,0,2,0,,,,,,,,,0,0,0,0,0,2,2,2,118,0,118,0,,,,,,,,,,,,,,,,,,,,,,,,,,,,,,,,,,,,,,,,,,,,,,,,,,,,,,,,,,,,,,,,30,,,,,,,,1657.0594777001534,1657.0594777001534,1657.0594777001534,1657.0594777001534,1657.0594777001534,left,0.15928120003081858,0,0,0,99,0.32,0.24,left,0.079905099933967,,,,,,,,,,,,,,,,,,,,,,,,,,,,,,,,,,,,,,,,,,,,,,,,,,,,,,,,,,,,5LDGLV,train_y,red_square,top_right,2025-04-01_17h05.31.528,HideSeek_v1,2022.2.5,59.9436650031524,
,7,8,7,5,0,-3,13,,train_dim1_1,3,30,,,,2,0,2,0,,,,,,,,,0,0,0,0,0,2,2,2,119,0,119,0,,,,,,,,,,,,,,,,,,,,,,,,,,,,,,,,,,,,,,,,,,,,,,,,,,,,,,,,,,,,,,,,30,,,,,,,,1657.2275597001426,1657.2275597001426,1657.2275597001426,1657.2275597001426,1657.2275597001426,left,0.174529799958691,0,0,0,99,0.24,0.24,left,0.08406969998031855,,,,,,,,,,,,,,,,,,,,,,,,,,,,,,,,,,,,,,,,,,,,,,,,,,,,,,,,,,,,5LDGLV,train_y,red_square,top_right,2025-04-01_17h05.31.528,HideSeek_v1,2022.2.5,59.9436650031524,
,7,8,7,5,0,-3,13,,train_dim1_1,3,30,,,,2,0,2,0,,,,,,,,,0,0,0,0,0,2,2,2,120,0,120,0,,,,,,,,,,,,,,,,,,,,,,,,,,,,,,,,,,,,,,,,,,,,,,,,,,,,,,,,,,,,,,,,30,,,,,,,,1657.4102690001018,1657.4102690001018,1657.4102690001018,1657.4102690001018,1657.4102690001018,left,0.17565439990721643,0,0,0,99,0.15999999999999998,0.24,left,0.09279719996266067,,,,,,,,,,,,,,,,,,,,,,,,,,,,,,,,,,,,,,,,,,,,,,,,,,,,,,,,,,,,5LDGLV,train_y,red_square,top_right,2025-04-01_17h05.31.528,HideSeek_v1,2022.2.5,59.9436650031524,
,7,8,7,5,0,-3,13,,train_dim1_1,3,30,,,,2,0,2,0,,,,,,,,,0,0,0,0,0,2,2,2,121,0,121,0,,,,,,,,,,,,,,,,,,,,,,,,,,,,,,,,,,,,,,,,,,,,,,,,,,,,,,,,,,,,,,,,30,,,,,,,,1657.5947639001533,1657.5947639001533,1657.5947639001533,1657.5947639001533,1657.5947639001533,left,0.17567819985561073,0,0,0,99,0.07999999999999997,0.24,left,0.08561009983532131,,,,,,,,,,,,,,,,,,,,,,,,,,,,,,,,,,,,,,,,,,,,,,,,,,,,,,,,,,,,5LDGLV,train_y,red_square,top_right,2025-04-01_17h05.31.528,HideSeek_v1,2022.2.5,59.9436650031524,
,7,8,7,5,0,-3,13,,train_dim1_1,3,30,,,,2,0,2,0,,,,,,,,,0,0,0,0,0,2,2,2,122,0,122,0,,,,,,,,,,,,,,,,,,,,,,,,,,,,,,,,,,,,,,,,,,,,,,,,,,,,,,,,,,,,,,,,30,,,,,,,,1657.778895900119,1657.778895900119,1657.778895900119,1657.778895900119,1657.778895900119,left,0.17573369992896914,0,0,0,99,-2.7755575615628914e-17,0.24,left,0.08415899984538555,,,,,,,,,,,,,,,,,,,,,,,,,,,,,,,,,,,,,,,,,,,,,,,,,,,,,,,,,,,,5LDGLV,train_y,red_square,top_right,2025-04-01_17h05.31.528,HideSeek_v1,2022.2.5,59.9436650031524,
,7,8,7,5,0,-3,13,,train_dim1_1,3,30,,,,2,0,2,0,,,,,,,,,0,0,0,0,0,2,2,2,123,0,123,0,,,,,,,,,,,,,,,,,,,,,,,,,,,,,,,,,,,,,,,,,,,,,,,,,,,,,,,,,,,,,,,,30,,,,,,,,1657.9597701001912,1657.9597701001912,1657.9597701001912,1657.9597701001912,1657.9597701001912,left,0.15935140009969473,0,0,0,99,-0.08000000000000003,0.24,left,0.0783203998580575,,,,,,,,,,,,,,,,,,,,,,,,,,,,,,,,,,,,,,,,,,,,,,,,,,,,,,,,,,,,5LDGLV,train_y,red_square,top_right,2025-04-01_17h05.31.528,HideSeek_v1,2022.2.5,59.9436650031524,
,7,8,7,5,0,-3,13,,train_dim1_1,3,30,,,,2,0,2,0,,,,,,,,,0,0,0,0,0,2,2,2,124,0,124,0,,,,,,,,,,,,,,,,,,,,,,,,,,,,,,,,,,,,,,,,,,,,,,,,,,,,,,,,,,,,,,,,30,,,,,,,,1658.1267905000132,1658.1267905000132,1658.1267905000132,1658.1267905000132,1658.1267905000132,left,0.19258969998918474,0,0,0,99,-0.16000000000000003,0.24,left,0.1080638999119401,,,,,,,,,,,,,,,,,,,,,,,,,,,,,,,,,,,,,,,,,,,,,,,,,,,,,,,,,,,,5LDGLV,train_y,red_square,top_right,2025-04-01_17h05.31.528,HideSeek_v1,2022.2.5,59.9436650031524,
,7,8,7,5,0,-3,13,,train_dim1_1,3,30,,,,2,0,2,0,,,,,,,,,0,0,0,0,0,2,2,2,125,0,125,0,,,,,,,,,,,,,,,,,,,,,,,,,,,,,,,,,,,,,,,,,,,,,,,,,,,,,,,,,,,,,,,,30,,,,,,,,1658.3281525999773,1658.3281525999773,1658.3281525999773,1658.3281525999773,1658.3281525999773,up,0.34243810013867915,0,0,0,99,-0.16000000000000003,0.32,up,0.2498404998332262,,,,,,,,,,,,,,,,,,,,,,,,,,,,,,,,,,,,,,,,,,,,,,,,,,,,,,,,,,,,5LDGLV,train_y,red_square,top_right,2025-04-01_17h05.31.528,HideSeek_v1,2022.2.5,59.9436650031524,
,7,8,7,5,0,-3,13,,train_dim1_1,3,30,,,,2,0,2,0,,,,,,,,,0,0,0,0,0,2,2,2,126,0,126,0,,,,,,,,,,,,,,,,,,,,,,,,,,,,,,,,,,,,,,,,,,,,,,,,,,,,,,,,,,,,,,,,30,,,,,,,,1658.678079900099,1658.678079900099,1658.678079900099,1658.678079900099,1658.678079900099,right,0.509232000214979,0,0,0,99,-0.08000000000000003,0.32,right,0.4284767999779433,,,,,,,,,,,,,,,,,,,,,,,,,,,,,,,,,,,,,,,,,,,,,,,,,,,,,,,,,,,,5LDGLV,train_y,red_square,top_right,2025-04-01_17h05.31.528,HideSeek_v1,2022.2.5,59.9436650031524,
,7,8,7,5,0,-3,13,,train_dim1_1,3,30,,,,2,0,2,0,,,,,,,,,0,0,0,0,0,2,2,2,127,0,127,0,,,,,,,,,,,,,,,,,,,,,,,,,,,,,,,,,,,,,,,,,,,,,,,,,,,,,,,,,,,,,,,,30,,,,,,,,1659.1946119000204,1659.1946119000204,1659.1946119000204,1659.1946119000204,1659.1946119000204,right,0.1764035001397133,0,0,0,99,-2.7755575615628914e-17,0.32,right,0.1008341999258846,,,,,,,,,,,,,,,,,,,,,,,,,,,,,,,,,,,,,,,,,,,,,,,,,,,,,,,,,,,,5LDGLV,train_y,red_square,top_right,2025-04-01_17h05.31.528,HideSeek_v1,2022.2.5,59.9436650031524,
,7,8,7,5,0,-3,13,,train_dim1_1,3,30,,,,2,0,2,0,,,,,,,,,0,0,0,0,0,2,2,2,128,0,128,0,,,,,,,,,,,,,,,,,,,,,,,,,,,,,,,,,,,,,,,,,,,,,,,,,,,,,,,,,,,,,,,,30,,,,,,,,1659.37964080018,1659.37964080018,1659.37964080018,1659.37964080018,1659.37964080018,right,0.37520339991897345,0,0,0,99,0.07999999999999997,0.32,right,0.28456639987416565,,,,,,,,,,,,,,,,,,,,,,,,,,,,,,,,,,,,,,,,,,,,,,,,,,,,,,,,,,,,5LDGLV,train_y,red_square,top_right,2025-04-01_17h05.31.528,HideSeek_v1,2022.2.5,59.9436650031524,
,7,8,7,5,0,-3,13,,train_dim1_1,3,30,,,,2,0,2,0,,,,,,,,,0,0,0,0,0,2,2,2,129,0,129,0,,,,,,,,,,,,,,,,,,,,,,,,,,,,,,,,,,,,,,,,,,,,,,,,,,,,,,,,,,,,,,,,30,,,,,,,,1659.7625165001955,1659.7625165001955,1659.7625165001955,1659.7625165001955,1659.7625165001955,right,0.1758122998289764,0,0,0,99,0.15999999999999998,0.32,right,0.08326720003969967,,,,,,,,,,,,,,,,,,,,,,,,,,,,,,,,,,,,,,,,,,,,,,,,,,,,,,,,,,,,5LDGLV,train_y,red_square,top_right,2025-04-01_17h05.31.528,HideSeek_v1,2022.2.5,59.9436650031524,
,7,8,7,5,0,-3,13,,train_dim1_1,3,30,,,,2,0,2,0,,,,,,,,,0,0,0,0,0,2,2,2,130,0,130,0,,,,,,,,,,,,,,,,,,,,,,,,,,,,,,,,,,,,,,,,,,,,,,,,,,,,,,,,,,,,,,,,30,,,,,,,,1659.9458951000124,1659.9458951000124,1659.9458951000124,1659.9458951000124,1659.9458951000124,right,0.17595120007172227,0,0,0,99,0.24,0.32,right,0.09539969987235963,,,,,,,,,,,,,,,,,,,,,,,,,,,,,,,,,,,,,,,,,,,,,,,,,,,,,,,,,,,,5LDGLV,train_y,red_square,top_right,2025-04-01_17h05.31.528,HideSeek_v1,2022.2.5,59.9436650031524,
,7,8,7,5,0,-3,13,,train_dim1_1,3,30,,,,2,0,2,0,,,,,,,,,0,0,0,0,0,2,2,2,131,0,131,0,,,,,,,,,,,,,,,,,,,,,,,,,,,,,,,,,,,,,,,,,,,,,,,,,,,,,,,,,,,,,,,,30,,,,,,,,1660.1304909000173,1660.1304909000173,1660.1304909000173,1660.1304909000173,1660.1304909000173,right,0.19243130018003285,0,0,0,99,0.32,0.32,right,0.11169839976355433,,,,,,,,,,,,,,,,,,,,,,,,,,,,,,,,,,,,,,,,,,,,,,,,,,,,,,,,,,,,5LDGLV,train_y,red_square,top_right,2025-04-01_17h05.31.528,HideSeek_v1,2022.2.5,59.9436650031524,
,7,8,7,5,0,-3,13,,train_dim1_1,3,30,,,,2,0,2,0,,,,,,,,,0,0,0,0,0,2,2,2,132,0,132,0,,,,,,,,,,,,,,,,,,,,,,,,,,,,,,,,,,,,,,,,,,,,,,,,,,,,,,,,,,,,,,,,30,,,,,,,,1660.3291672000196,1660.3291672000196,1660.3291672000196,1660.3291672000196,1660.3291672000196,right,0.1756742000579834,0,0,0,99,0.4,0.32,right,0.09501689998432994,,,,,,,,,,,,,,,,,,,,,,,,,,,,,,,,,,,,,,,,,,,,,,,,,,,,,,,,,,,,5LDGLV,train_y,red_square,top_right,2025-04-01_17h05.31.528,HideSeek_v1,2022.2.5,59.9436650031524,
,7,8,7,5,0,-3,13,,train_dim1_1,3,30,,,,2,0,2,0,,,,,,,,,0,0,0,0,0,2,2,2,133,0,133,0,,,,,,,,,,,,,,,,,,,,,,,,,,,,,,,,,,,,,,,,,,,,,,,,,,,,,,,,,,,,,,,,30,,,,,,,,1660.515475000022,1660.515475000022,1660.515475000022,1660.515475000022,1660.515475000022,right,0.1733949000481516,0,0,0,99,0.48000000000000004,0.32,right,0.09271999984048307,,,,,,,,,,,,,,,,,,,,,,,,,,,,,,,,,,,,,,,,,,,,,,,,,,,,,,,,,,,,5LDGLV,train_y,red_square,top_right,2025-04-01_17h05.31.528,HideSeek_v1,2022.2.5,59.9436650031524,
,7,8,7,5,0,-3,13,,train_dim1_1,3,30,,,,2,0,2,0,,,,,,,,,0,0,0,0,0,2,2,2,134,0,134,0,,,,,,,,,,,,,,,,,,,,,,,,,,,,,,,,,,,,,,,,,,,,,,,,,,,,,,,,,,,,,,,,30,,,,,,,,1660.6964302000124,1660.6964302000124,1660.6964302000124,1660.6964302000124,1660.6964302000124,right,0.1923247000668198,0,0,0,99,0.56,0.32,right,0.10787099995650351,,,,,,,,,,,,,,,,,,,,,,,,,,,,,,,,,,,,,,,,,,,,,,,,,,,,,,,,,,,,5LDGLV,train_y,red_square,top_right,2025-04-01_17h05.31.528,HideSeek_v1,2022.2.5,59.9436650031524,
,7,8,7,5,0,-3,13,,train_dim1_1,3,30,,,,2,0,2,0,,,,,,,,,0,0,0,0,0,2,2,2,135,0,135,0,,,,,,,,,,,,,,,,,,,,,,,,,,,,,,,,,,,,,,,,,,,,,,,,,,,,,,,,,,,,,,,,30,,,,,,,,1660.8966240000445,1660.8966240000445,1660.8966240000445,1660.8966240000445,1660.8966240000445,right,0.15910180006176233,0,0,0,99,0.64,0.32,right,0.08236819971352816,,,,,,,,,,,,,,,,,,,,,,,,,,,,,,,,,,,,,,,,,,,,,,,,,,,,,,,,,,,,5LDGLV,train_y,red_square,top_right,2025-04-01_17h05.31.528,HideSeek_v1,2022.2.5,59.9436650031524,
,7,8,7,5,0,-3,13,,train_dim1_1,3,30,,,,2,0,2,0,,,,,,,,,0,0,0,0,0,2,2,2,136,0,136,0,,,,,,,,,,,,,,,,,,,,,,,,,,,,,,,,,,,,,,,,,,,,,,,,,,,,,,,,,,,,,,,,30,,,,,,,,1661.0625731002074,1661.0625731002074,1661.0625731002074,1661.0625731002074,1661.0625731002074,right,0.7928663000930101,0,0,0,99,0.72,0.32,right,0.7087072997819632,,,,,,,,,,,,,,,,,,,,,,,,,,,,,,,,,,,,,,,,,,,,,,,,,,,,,,,,,,,,5LDGLV,train_y,red_square,top_right,2025-04-01_17h05.31.528,HideSeek_v1,2022.2.5,59.9436650031524,
,7,8,7,5,0,-3,13,,train_dim1_1,3,30,,,,2,0,2,0,,,,,,,,,0,0,0,0,0,2,2,2,137,0,137,0,,,,,,,,,,,,,,,,,,,,,,,,,,,,,,,,,,,,,,,,,,,,,,,,,,,,,,,,,,,,,,,,30,,,,,,,,1661.8628081001807,1661.8628081001807,1661.8628081001807,1661.8628081001807,1661.8628081001807,right,0.4263468999415636,0,0,0,99,0.7999999999999999,0.32,right,0.34929889999330044,,,,,,,,,,,,,,,,,,,,,,,,,,,,,,,,,,,,,,,,,,,,,,,,,,,,,,,,,,,,5LDGLV,train_y,red_square,top_right,2025-04-01_17h05.31.528,HideSeek_v1,2022.2.5,59.9436650031524,
,7,8,7,5,0,-3,13,,train_dim1_1,3,30,,,,2,0,2,0,,,,,,,,,0,0,0,0,0,2,2,2,138,0,138,0,,,,,,,,,,,,,,,,,,,,,,,,,,,,,,,,,,,,,,,,,,,,,,,,,,,,,,,,,,,,,,,,30,,,,,,,,1662.2972405001055,1662.2972405001055,1662.2972405001055,1662.2972405001055,1662.2972405001055,left,0.4257972000632435,0,0,0,99,0.72,0.32,left,0.3350746997166425,,,,,,,,,,,,,,,,,,,,,,,,,,,,,,,,,,,,,,,,,,,,,,,,,,,,,,,,,,,,5LDGLV,train_y,red_square,top_right,2025-04-01_17h05.31.528,HideSeek_v1,2022.2.5,59.9436650031524,
,7,8,7,5,0,-3,13,,train_dim1_1,3,30,,,,2,0,2,0,,,,,,,,,0,0,0,0,0,2,2,2,139,0,139,0,,,,,,,,,,,,,,,,,,,,,,,,,,,,,,,,,,,,,,,,,,,,,,,,,,,,,,,,,,,,,,,,30,,,,,,,,1662.7309775000904,1662.7309775000904,1662.7309775000904,1662.7309775000904,1662.7309775000904,left,0.1758992001414299,0,0,0,99,0.64,0.32,left,0.09126309980638325,,,,,,,,,,,,,,,,,,,,,,,,,,,,,,,,,,,,,,,,,,,,,,,,,,,,,,,,,,,,5LDGLV,train_y,red_square,top_right,2025-04-01_17h05.31.528,HideSeek_v1,2022.2.5,59.9436650031524,
,7,8,7,5,0,-3,13,,train_dim1_1,3,30,,,,2,0,2,0,,,,,,,,,0,0,0,0,0,2,2,2,140,0,140,0,,,,,,,,,,,,,,,,,,,,,,,,,,,,,,,,,,,,,,,,,,,,,,,,,,,,,,,,,,,,,,,,30,,,,,,,,1662.9146497000474,1662.9146497000474,1662.9146497000474,1662.9146497000474,1662.9146497000474,left,0.6592854999471456,0,0,0,99,0.56,0.32,left,0.5827430000063032,,,,,,,,,,,,,,,,,,,,,,,,,,,,,,,,,,,,,,,,,,,,,,,,,,,,,,,,,,,,5LDGLV,train_y,red_square,top_right,2025-04-01_17h05.31.528,HideSeek_v1,2022.2.5,59.9436650031524,
,7,8,7,5,0,-3,13,,train_dim1_1,3,30,,,,2,0,2,0,,,,,,,,,0,0,0,0,0,2,2,2,141,0,141,0,,,,,,,,,,,,,,,,,,,,,,,,,,,,,,,,,,,,,,,,,,,,,,,,,,,,,,,,,,,,,,,,30,,,,,,,,1663.5811064001173,1663.5811064001173,1663.5811064001173,1663.5811064001173,1663.5811064001173,down,0.8264121999964118,0,0,0,99,0.56,0.24,down,0.735421999823302,,,,,,,,,,,,,,,,,,,,,,,,,,,,,,,,,,,,,,,,,,,,,,,,,,,,,,,,,,,,5LDGLV,train_y,red_square,top_right,2025-04-01_17h05.31.528,HideSeek_v1,2022.2.5,59.9436650031524,
,7,8,7,5,0,-3,13,,train_dim1_1,3,30,,,,2,0,2,0,,,,,,,,,0,0,0,0,0,2,2,2,142,0,142,0,,,,,,,,,,,,,,,,,,,,,,,,,,,,,,,,,,,,,,,,,,,,,,,,,,,,,,,,,,,,,,,,30,,,,,,,,1664.4156074000057,1664.4156074000057,1664.4156074000057,1664.4156074000057,1664.4156074000057,down,0.5095159001648426,0,0,0,99,0.56,0.15999999999999998,down,0.4188832000363618,,,,,,,,,,,,,,,,,,,,,,,,,,,,,,,,,,,,,,,,,,,,,,,,,,,,,,,,,,,,5LDGLV,train_y,red_square,top_right,2025-04-01_17h05.31.528,HideSeek_v1,2022.2.5,59.9436650031524,
