trialInstr,x_fixStart,y_fixStart,x_corrSteps,y_corrSteps,x_nrSteps,y_nrSteps,alienID,trialLength,version,trialTrain,praclen,testlen,trial_label,break_on_off,beforeExpLoop.thisRepN,beforeExpLoop.thisTrialN,beforeExpLoop.thisN,beforeExpLoop.thisIndex,mini_instr_trials.thisRepN,mini_instr_trials.thisTrialN,mini_instr_trials.thisN,mini_instr_trials.thisIndex,instrLoop.thisRepN,instrLoop.thisTrialN,instrLoop.thisN,instrLoop.thisIndex,repeat_prac.thisRepN,repeat_prac.thisTrialN,repeat_prac.thisN,repeat_prac.thisIndex,trainLoop.thisRepN,trainLoop.thisTrialN,trainLoop.thisN,trainLoop.thisIndex,moveLoop_train.thisRepN,moveLoop_train.thisTrialN,moveLoop_train.thisN,moveLoop_train.thisIndex,experiment.thisRepN,experiment.thisTrialN,experiment.thisN,experiment.thisIndex,moveLoop_test.thisRepN,moveLoop_test.thisTrialN,moveLoop_test.thisN,moveLoop_test.thisIndex,mini_instr2_trials.thisRepN,mini_instr2_trials.thisTrialN,mini_instr2_trials.thisN,mini_instr2_trials.thisIndex,start_all_time,url,slideStim,audioStim,slides.started,sounds.started,nextButton.numClicks,nextButton.timesOn,nextButton.timesOff,prev_but.numClicks,prev_but.timesOn,prev_but.timesOff,alienStim,instrFile,alienStim_instr,gridImage_instr.started,startPos_3.started,key_instr.started,alienImage_3.started,sounds_1.started,key_instr.keys,key_instr.rt,all_x,all_y,FBy_corrSteps,FBy_fixStart,FBx_corrSteps,FBx_fixStart,FBy_pathSize_check,FBx_pathSize_check,gridImage_9.started,alienImageFB_3.started,startPosFB_3.started,keyFB_3.started,pathLine_ydir_2.started,pathLine_xdir_2.started,alienFace_3.started,sounds_2.started,RTFB_instr,keyFB_3.keys,keyFB_3.rt,draw_alienStim,draw_alienID,test_x,nrepcount,perfthres,percthres,earlierperf,earlystop,nextPrac,fileidx,praclen,saveACC_train,pracFile,nextPrac_train,addNrep,fileidx_endr,repExp,showearly,gridImage_4.started,startPos.started,movePos.started,key_resp.started,alienImage.started,buttonPress_train,RTchoice_train,cumAcctrain,aCorr,saveACC_choice,corrAns,x_movePos_end,y_movePos_end,key_resp.keys,key_resp.rt,wLy_dir,wLx_dir,x_movePos,y_movePos,text_2.started,text_2.stopped,aft_x_corrPos,aft_y_corrPos,y_pathSize_check,x_pathSize_check,y_pathdirY,x_pathdirY,x_pathdirX,x_corrPos,y_corrPos,gridImage_6.started,alienImageFB_2.started,startPosFB_2.started,movePosFB_2.started,keyFB_2.started,pathLine_xdir.started,pathLine_ydir.started,alienFace.started,sounds_4.started,RT_FBtrain,keyFB_2.keys,keyFB_2.rt,saveACC_pre,ACC,within_saveACC_train,earlystop_wloop,cumAcctrain_check,gridImage_3.started,alienImage_test.started,startPos_test.started,movePos_test.started,key_resp_test.started,wLy_dir_test,wLx_dir_test,buttonPress_test,RTchoice_test,cumAcctest,corrAns_test,key_resp_test.keys,key_resp_test.rt,text_3.started,text_3.stopped,total_time,end_all_time,key_resp_3.keys,slides_2.started,sounds_3.started,nextButton_2.numClicks,nextButton_2.timesOn,nextButton_2.timesOff,prev_but_2.numClicks,prev_but_2.timesOn,prev_but_2.timesOff,bye.started,participant,train_first,00_coordinate,starting corner,date,expName,psychopyVersion,frameRate,
,,,,,,,,,,,,,,,0,0,0,0,0,0,0,0,,,,,,,,,,,,,,,,,,,,,,,,,,,,,start_all_time,testround,conditions/schedules/train_x_first/red_square_00/bottom_left/instructions/Slide1.png,conditions/schedules/train_x_first/red_square_00/bottom_left/instructions/Audio1.wav,1024.1959317,1024.1499380498426,1,[5.819384300004458],[5.819394400023157],0,,,,,,,,,,,,,,,,,,,,,,,,,,,,,,,,,,,,,,,,,,,,,,,,,,,,,,,,,,,,,,,,,,,,,,,,,,,,,,,,,,,,,,,,,,,,,,,,,,,,,,,,,,,,,,,,,,,,,,,,,,,,5M1A4Y,train_x,red_square,bottom_left,2025-03-22_11h10.40.316,HideSeek_v1,2022.2.5,59.92972640841288,
,,,,,,,,,,,,,,,0,0,0,0,1,0,1,0,,,,,,,,,,,,,,,,,,,,,,,,,,,,,,,conditions/schedules/train_x_first/red_square_00/bottom_left/instructions/Slide2.png,conditions/schedules/train_x_first/red_square_00/bottom_left/instructions/Audio2.wav,1030.0344839000027,1030.0369858499907,2,"[5.819384300004458, 19.149674199987203]","[5.819394400023157, 19.149681699986104]",0,,,,,,,,,,,,,,,,,,,,,,,,,,,,,,,,,,,,,,,,,,,,,,,,,,,,,,,,,,,,,,,,,,,,,,,,,,,,,,,,,,,,,,,,,,,,,,,,,,,,,,,,,,,,,,,,,,,,,,,,,,,,5M1A4Y,train_x,red_square,bottom_left,2025-03-22_11h10.40.316,HideSeek_v1,2022.2.5,59.92972640841288,
,,,,,,,,,,,,,,,0,0,0,0,2,0,2,0,,,,,,,,,,,,,,,,,,,,,,,,,,,,,,,conditions/schedules/train_x_first/red_square_00/bottom_left/instructions/Slide3.png,conditions/schedules/train_x_first/red_square_00/bottom_left/instructions/Audio3.wav,1049.2576233000145,1049.2530595499848,3,"[5.819384300004458, 19.149674199987203, 17.208027699991362]","[5.819394400023157, 0.00021319999359548092, 17.208034599985695]",0,,,,,,,,,,,,,,,,,,,,,,,,,,,,,,,,,,,,,,,,,,,,,,,,,,,,,,,,,,,,,,,,,,,,,,,,,,,,,,,,,,,,,,,,,,,,,,,,,,,,,,,,,,,,,,,,,,,,,,,,,,,,5M1A4Y,train_x,red_square,bottom_left,2025-03-22_11h10.40.316,HideSeek_v1,2022.2.5,59.92972640841288,
,,,,,,,,,,,,,,,0,0,0,0,3,0,3,0,,,,,,,,,,,,,,,,,,,,,,,,,,,,,,,conditions/schedules/train_x_first/red_square_00/bottom_left/instructions/Slide4.png,conditions/schedules/train_x_first/red_square_00/bottom_left/instructions/Audio4.wav,1066.5420363000012,1066.5340196499892,4,"[5.819384300004458, 19.149674199987203, 17.208027699991362, 19.43914129998302]","[5.819394400023157, 0.00021319999359548092, 0.014342199981911108, 19.439148200006457]",0,,,,,,,,,,,,,,,,,,,,,,,,,,,,,,,,,,,,,,,,,,,,,,,,,,,,,,,,,,,,,,,,,,,,,,,,,,,,,,,,,,,,,,,,,,,,,,,,,,,,,,,,,,,,,,,,,,,,,,,,,,,,5M1A4Y,train_x,red_square,bottom_left,2025-03-22_11h10.40.316,HideSeek_v1,2022.2.5,59.92972640841288,
,,,,,,,,,,,,,,,0,0,0,0,4,0,4,0,,,,,,,,,,,,,,,,,,,,,,,,,,,,,,,conditions/schedules/train_x_first/red_square_00/bottom_left/instructions/Slide5.png,conditions/schedules/train_x_first/red_square_00/bottom_left/instructions/Audio5.wav,1086.0489697000012,1086.0500993499882,5,"[5.819384300004458, 19.149674199987203, 17.208027699991362, 19.43914129998302, 5.387346200004686]","[5.819394400023157, 0.00021319999359548092, 0.014342199981911108, 0.03228600000147708, 5.387353099999018]",0,,,,,,,,,,,,,,,,,,,,,,,,,,,,,,,,,,,,,,,,,,,,,,,,,,,,,,,,,,,,,,,,,,,,,,,,,,,,,,,,,,,,,,,,,,,,,,,,,,,,,,,,,,,,,,,,,,,,,,,,,,,,5M1A4Y,train_x,red_square,bottom_left,2025-03-22_11h10.40.316,HideSeek_v1,2022.2.5,59.92972640841288,
,,,,,,,,,,,,,,,0,0,0,0,5,0,5,0,,,,,,,,,,,,,,,,,,,,,,,,,,,,,,,conditions/schedules/train_x_first/red_square_00/bottom_left/instructions/Slide6.png,conditions/schedules/train_x_first/red_square_00/bottom_left/instructions/Audio6.wav,1091.4899891999958,1091.488553400006,6,"[5.819384300004458, 19.149674199987203, 17.208027699991362, 19.43914129998302, 5.387346200004686, 4.86597189999884]","[5.819394400023157, 0.00021319999359548092, 0.014342199981911108, 0.03228600000147708, 0.029316100000869483, 4.865978299989365]",0,,,,,,,,,,,,,,,,,,,,,,,,,,,,,,,,,,,,,,,,,,,,,,,,,,,,,,,,,,,,,,,,,,,,,,,,,,,,,,,,,,,,,,,,,,,,,,,,,,,,,,,,,,,,,,,,,,,,,,,,,,,,5M1A4Y,train_x,red_square,bottom_left,2025-03-22_11h10.40.316,HideSeek_v1,2022.2.5,59.92972640841288,
,,,,,,,,,,,,,,,0,0,0,0,6,0,6,0,,,,,,,,,,,,,,,,,,,,,,,,,,,,,,,conditions/schedules/train_x_first/red_square_00/bottom_left/instructions/Slide7.png,conditions/schedules/train_x_first/red_square_00/bottom_left/instructions/Audio7.wav,1096.406765599997,1096.4093235000037,7,"[5.819384300004458, 19.149674199987203, 17.208027699991362, 19.43914129998302, 5.387346200004686, 4.86597189999884, 5.704265000007581]","[5.819394400023157, 0.00021319999359548092, 0.014342199981911108, 0.03228600000147708, 0.029316100000869483, 0.04995509999571368, 5.704271800001152]",0,,,,,,,,,,,,,,,,,,,,,,,,,,,,,,,,,,,,,,,,,,,,,,,,,,,,,,,,,,,,,,,,,,,,,,,,,,,,,,,,,,,,,,,,,,,,,,,,,,,,,,,,,,,,,,,,,,,,,,,,,,,,5M1A4Y,train_x,red_square,bottom_left,2025-03-22_11h10.40.316,HideSeek_v1,2022.2.5,59.92972640841288,
,,,,,,,,,,,,,,,0,0,0,0,7,0,7,0,,,,,,,,,,,,,,,,,,,,,,,,,,,,,,,conditions/schedules/train_x_first/red_square_00/bottom_left/instructions/Slide8.png,conditions/schedules/train_x_first/red_square_00/bottom_left/instructions/Audio8.wav,1102.1631699000136,1102.1635413999902,8,"[5.819384300004458, 19.149674199987203, 17.208027699991362, 19.43914129998302, 5.387346200004686, 4.86597189999884, 5.704265000007581, 11.74085100000957]","[5.819394400023157, 0.00021319999359548092, 0.014342199981911108, 0.03228600000147708, 0.029316100000869483, 0.04995509999571368, 0.06476949999341741, 11.74085770000238]",0,,,,,,,,,,,,,,,,,,,,,,,,,,,,,,,,,,,,,,,,,,,,,,,,,,,,,,,,,,,,,,,,,,,,,,,,,,,,,,,,,,,,,,,,,,,,,,,,,,,,,,,,,,,,,,,,,,,,,,,,,,,,5M1A4Y,train_x,red_square,bottom_left,2025-03-22_11h10.40.316,HideSeek_v1,2022.2.5,59.92972640841288,
,,,,,,,,,,,,,,,0,0,0,0,8,0,8,0,,,,,,,,,,,,,,,,,,,,,,,,,,,,,,,conditions/schedules/train_x_first/red_square_00/bottom_left/instructions/Slide9.png,conditions/schedules/train_x_first/red_square_00/bottom_left/instructions/Audio9.wav,1113.9739442999999,1113.9735340499901,9,"[5.819384300004458, 19.149674199987203, 17.208027699991362, 19.43914129998302, 5.387346200004686, 4.86597189999884, 5.704265000007581, 11.74085100000957, 6.0859687000047415]","[5.819394400023157, 0.00021319999359548092, 0.014342199981911108, 0.03228600000147708, 0.029316100000869483, 0.04995509999571368, 0.06476949999341741, 0.06408869998995215, 6.085975599999074]",0,,,,,,,,,,,,,,,,,,,,,,,,,,,,,,,,,,,,,,,,,,,,,,,,,,,,,,,,,,,,,,,,,,,,,,,,,,,,,,,,,,,,,,,,,,,,,,,,,,,,,,,,,,,,,,,,,,,,,,,,,,,,5M1A4Y,train_x,red_square,bottom_left,2025-03-22_11h10.40.316,HideSeek_v1,2022.2.5,59.92972640841288,
,,,,,,,,,,,,,,,0,0,0,0,9,0,9,0,,,,,,,,,,,,,,,,,,,,,,,,,,,,,,,conditions/schedules/train_x_first/red_square_00/bottom_left/instructions/Slide10.png,conditions/schedules/train_x_first/red_square_00/bottom_left/instructions/Audio10.wav,1120.096409299993,1120.0954001499922,10,"[5.819384300004458, 19.149674199987203, 17.208027699991362, 19.43914129998302, 5.387346200004686, 4.86597189999884, 5.704265000007581, 11.74085100000957, 6.0859687000047415, 7.352552199998172]","[5.819394400023157, 0.00021319999359548092, 0.014342199981911108, 0.03228600000147708, 0.029316100000869483, 0.04995509999571368, 0.06476949999341741, 0.06408869998995215, 0.11289829999441281, 7.352559199993266]",0,,,,,,,,,,,,,,,,,,,,,,,,,,,,,,,,,,,,,,,,,,,,,,,,,,,,,,,,,,,,,,,,,,,,,,,,,,,,,,,,,,,,,,,,,,,,,,,,,,,,,,,,,,,,,,,,,,,,,,,,,,,,5M1A4Y,train_x,red_square,bottom_left,2025-03-22_11h10.40.316,HideSeek_v1,2022.2.5,59.92972640841288,
,,,,,,,,,,,,,,,0,0,0,0,10,0,10,0,,,,,,,,,,,,,,,,,,,,,,,,,,,,,,,conditions/schedules/train_x_first/red_square_00/bottom_left/instructions/Slide11.png,conditions/schedules/train_x_first/red_square_00/bottom_left/instructions/Audio11.wav,1127.5030106999911,1127.501537700009,11,"[5.819384300004458, 19.149674199987203, 17.208027699991362, 19.43914129998302, 5.387346200004686, 4.86597189999884, 5.704265000007581, 11.74085100000957, 6.0859687000047415, 7.352552199998172, 9.820985600003041]","[5.819394400023157, 0.00021319999359548092, 0.014342199981911108, 0.03228600000147708, 0.029316100000869483, 0.04995509999571368, 0.06476949999341741, 0.06408869998995215, 0.11289829999441281, 0.0634215000027325, 9.82099219999509]",0,,,,,,,,,,,,,,,,,,,,,,,,,,,,,,,,,,,,,,,,,,,,,,,,,,,,,,,,,,,,,,,,,,,,,,,,,,,,,,,,,,,,,,,,,,,,,,,,,,,,,,,,,,,,,,,,,,,,,,,,,,,,5M1A4Y,train_x,red_square,bottom_left,2025-03-22_11h10.40.316,HideSeek_v1,2022.2.5,59.92972640841288,
,,,,,,,,,,,,,,,0,0,0,0,11,0,11,0,,,,,,,,,,,,,,,,,,,,,,,,,,,,,,,conditions/schedules/train_x_first/red_square_00/bottom_left/instructions/Slide12.png,conditions/schedules/train_x_first/red_square_00/bottom_left/instructions/Audio12.wav,1137.3770419000066,1137.3763435999863,12,"[5.819384300004458, 19.149674199987203, 17.208027699991362, 19.43914129998302, 5.387346200004686, 4.86597189999884, 5.704265000007581, 11.74085100000957, 6.0859687000047415, 7.352552199998172, 9.820985600003041, 13.04066589998547]","[5.819394400023157, 0.00021319999359548092, 0.014342199981911108, 0.03228600000147708, 0.029316100000869483, 0.04995509999571368, 0.06476949999341741, 0.06408869998995215, 0.11289829999441281, 0.0634215000027325, 0.04647479997947812, 13.0406753999996]",0,,,,,,,,,,,,,,,,,,,,,,,,,,,,,,,,,,,,,,,,,,,,,,,,,,,,,,,,,,,,,,,,,,,,,,,,,,,,,,,,,,,,,,,,,,,,,,,,,,,,,,,,,,,,,,,,,,,,,,,,,,,,5M1A4Y,train_x,red_square,bottom_left,2025-03-22_11h10.40.316,HideSeek_v1,2022.2.5,59.92972640841288,
1,3,2,8,2,5,0,66,2,instr_dim1_1,,,,,,0,0,0,0,,,,,0,0,0,0,,,,,,,,,,,,,,,,,,,,,,,,,,,,,,,,,,,,,stimuli/alien_stimuli/66.png,conditions/schedules/train_x_first/red_square_00/bottom_left/inputInstr_1.xlsx,stimuli/alien_stimuli/66.png,1150.521925100009,1150.521925100009,1150.521925100009,1150.521925100009,1150.5204341500066,return,11.879357300000265,"[-0.16, -0.08, 0, 0.08, 0.16, 0.24, 0.32, 0.4, 0.48, 0.56]","[-0.4, -0.32, -0.24, -0.16, -0.08, 0, 0.08, 0.16, 0.24, 0.32]",2,2,8,3,0.0,0.4,1162.5807713000104,1162.5807713000104,1162.5807713000104,1162.5807713000104,1162.5807713000104,1162.5807713000104,1162.5807713000104,1162.563763949991,12.04412350000348,return,11.870579100010218,stimuli/alien_stimuli/66.png,66,3,1,,,,,,,,,,,,,,,,,,,,,,,,,,,,,,,,,,,,,,,,,,,,,,,,,,,,,,,,,,,,,,,,,,,,,,,,,,,,,,,,,,,,,,,,,5M1A4Y,train_x,red_square,bottom_left,2025-03-22_11h10.40.316,HideSeek_v1,2022.2.5,59.92972640841288,
,,,,,,,,,,,30,,,,0,0,0,0,,,,,,,,,,,,,,,,,,,,,,,,,,,,,,,,,,,,,,,,,,,,,,,,,,,,,,,,,,,,,,,,,,,,,,,,,,,,,,21,0.7,0,0,99,1,30,0,conditions/schedules/train_x_first/red_square_00/bottom_left/inputTrain_1.1.xlsx,99,1,1,1,0,,,,,,,,,,,,,,,,,,,,,,,,,,,,,,,,,,,,,,,,,,,,,,,,,,,,,,,,,,,,,,,,,,,,,,,,,,,5M1A4Y,train_x,red_square,bottom_left,2025-03-22_11h10.40.316,HideSeek_v1,2022.2.5,59.92972640841288,
,,,,,,,,,,,,,,,1,0,1,0,0,0,0,0,,,,,,,,,,,,,,,,,,,,,,,,,,,,,,,conditions/schedules/train_x_first/red_square_00/bottom_left/instructions/Slide13.png,conditions/schedules/train_x_first/red_square_00/bottom_left/instructions/Audio13.wav,1174.6186712000053,1174.6068822499947,13,"[5.819384300004458, 19.149674199987203, 17.208027699991362, 19.43914129998302, 5.387346200004686, 4.86597189999884, 5.704265000007581, 11.74085100000957, 6.0859687000047415, 7.352552199998172, 9.820985600003041, 13.04066589998547, 18.16867519999505]","[5.819394400023157, 0.00021319999359548092, 0.014342199981911108, 0.03228600000147708, 0.029316100000869483, 0.04995509999571368, 0.06476949999341741, 0.06408869998995215, 0.11289829999441281, 0.0634215000027325, 0.04647479997947812, 13.0406753999996, 18.168684399977792]",0,,,,,,,,,,,,,,,,,,,,,,,,,,,,,,,,,,,,,,,,,,,,,,,,,,,,,,,,,,,,,,,,,,,,,,,,,,,,,,,,,,,,,,,,,,,,,,,,,,,,,,,,,,,,,,,,,,,,,,,,,,,,5M1A4Y,train_x,red_square,bottom_left,2025-03-22_11h10.40.316,HideSeek_v1,2022.2.5,59.92972640841288,
,,,,,,,,,,,,,,,1,0,1,0,1,0,1,0,,,,,,,,,,,,,,,,,,,,,,,,,,,,,,,conditions/schedules/train_x_first/red_square_00/bottom_left/instructions/Slide14.png,conditions/schedules/train_x_first/red_square_00/bottom_left/instructions/Audio14.wav,1192.8624754000048,1192.8558424499934,14,"[5.819384300004458, 19.149674199987203, 17.208027699991362, 19.43914129998302, 5.387346200004686, 4.86597189999884, 5.704265000007581, 11.74085100000957, 6.0859687000047415, 7.352552199998172, 9.820985600003041, 13.04066589998547, 18.16867519999505, 13.635426900000311]","[5.819394400023157, 0.00021319999359548092, 0.014342199981911108, 0.03228600000147708, 0.029316100000869483, 0.04995509999571368, 0.06476949999341741, 0.06408869998995215, 0.11289829999441281, 0.0634215000027325, 0.04647479997947812, 13.0406753999996, 0.03681310001411475, 13.63543349999236]",0,,,,,,,,,,,,,,,,,,,,,,,,,,,,,,,,,,,,,,,,,,,,,,,,,,,,,,,,,,,,,,,,,,,,,,,,,,,,,,,,,,,,,,,,,,,,,,,,,,,,,,,,,,,,,,,,,,,,,,,,,,,,5M1A4Y,train_x,red_square,bottom_left,2025-03-22_11h10.40.316,HideSeek_v1,2022.2.5,59.92972640841288,
2,4,0,4,0,0,0,16,2,instr_dim1_1,,,,,,1,0,1,0,,,,,0,0,0,0,,,,,,,,,,,,,,,,,,,,,,,,,,,,,,,,,,,,,stimuli/alien_stimuli/16.png,conditions/schedules/train_x_first/red_square_00/bottom_left/inputInstr_1.xlsx,stimuli/alien_stimuli/16.png,1206.6056548999914,1206.6056548999914,1206.6056548999914,1206.6056548999914,1206.6003999499953,return,7.039340100018308,"[-0.16, -0.08, 0, 0.08, 0.16, 0.24, 0.32, 0.4, 0.48, 0.56]","[-0.4, -0.32, -0.24, -0.16, -0.08, 0, 0.08, 0.16, 0.24, 0.32]",0,0,4,4,0.0,0.0,1213.8105884999968,1213.8105884999968,1213.8105884999968,1213.8105884999968,1213.8105884999968,1213.8105884999968,1213.8105884999968,1213.7896305999893,13.112177800008794,return,12.949900300009176,stimuli/alien_stimuli/16.png,16,4,2,,,,,,,,,,,,,,,,,,,,,,,,,,,,,,,,,,,,,,,,,,,,,,,,,,,,,,,,,,,,,,,,,,,,,,,,,,,,,,,,,,,,,,,,,5M1A4Y,train_x,red_square,bottom_left,2025-03-22_11h10.40.316,HideSeek_v1,2022.2.5,59.92972640841288,
,,,,,,,,,,,30,,,,1,0,1,0,,,,,,,,,,,,,,,,,,,,,,,,,,,,,,,,,,,,,,,,,,,,,,,,,,,,,,,,,,,,,,,,,,,,,,,,,,,,,,21,0.7,0,0,99,1,30,0,conditions/schedules/train_x_first/red_square_00/bottom_left/inputTrain_1.1.xlsx,99,1,1,1,0,,,,,,,,,,,,,,,,,,,,,,,,,,,,,,,,,,,,,,,,,,,,,,,,,,,,,,,,,,,,,,,,,,,,,,,,,,,5M1A4Y,train_x,red_square,bottom_left,2025-03-22_11h10.40.316,HideSeek_v1,2022.2.5,59.92972640841288,
,,,,,,,,,,,,,,,2,0,2,0,0,0,0,0,,,,,,,,,,,,,,,,,,,,,,,,,,,,,,,conditions/schedules/train_x_first/red_square_00/bottom_left/instructions/Slide15.png,conditions/schedules/train_x_first/red_square_00/bottom_left/instructions/Audio15.wav,1226.938215000002,1226.9341279999935,15,"[5.819384300004458, 19.149674199987203, 17.208027699991362, 19.43914129998302, 5.387346200004686, 4.86597189999884, 5.704265000007581, 11.74085100000957, 6.0859687000047415, 7.352552199998172, 9.820985600003041, 13.04066589998547, 18.16867519999505, 13.635426900000311, 31.352415100001963]","[5.819394400023157, 0.00021319999359548092, 0.014342199981911108, 0.03228600000147708, 0.029316100000869483, 0.04995509999571368, 0.06476949999341741, 0.06408869998995215, 0.11289829999441281, 0.0634215000027325, 0.04647479997947812, 13.0406753999996, 0.03681310001411475, 13.63543349999236, 31.35242310000467]",0,,,,,,,,,,,,,,,,,,,,,,,,,,,,,,,,,,,,,,,,,,,,,,,,,,,,,,,,,,,,,,,,,,,,,,,,,,,,,,,,,,,,,,,,,,,,,,,,,,,,,,,,,,,,,,,,,,,,,,,,,,,,5M1A4Y,train_x,red_square,bottom_left,2025-03-22_11h10.40.316,HideSeek_v1,2022.2.5,59.92972640841288,
,,,,,,,,,,,,,,,2,0,2,0,1,0,1,0,,,,,,,,,,,,,,,,,,,,,,,,,,,,,,,conditions/schedules/train_x_first/red_square_00/bottom_left/instructions/Slide16.png,conditions/schedules/train_x_first/red_square_00/bottom_left/instructions/Audio16.wav,1258.3585947999964,1258.3602167500067,16,"[5.819384300004458, 19.149674199987203, 17.208027699991362, 19.43914129998302, 5.387346200004686, 4.86597189999884, 5.704265000007581, 11.74085100000957, 6.0859687000047415, 7.352552199998172, 9.820985600003041, 13.04066589998547, 18.16867519999505, 13.635426900000311, 31.352415100001963, 21.600151599996025]","[5.819394400023157, 0.00021319999359548092, 0.014342199981911108, 0.03228600000147708, 0.029316100000869483, 0.04995509999571368, 0.06476949999341741, 0.06408869998995215, 0.11289829999441281, 0.0634215000027325, 0.04647479997947812, 13.0406753999996, 0.03681310001411475, 13.63543349999236, 0.03246359998593107, 21.60015789998579]",0,,,,,,,,,,,,,,,,,,,,,,,,,,,,,,,,,,,,,,,,,,,,,,,,,,,,,,,,,,,,,,,,,,,,,,,,,,,,,,,,,,,,,,,,,,,,,,,,,,,,,,,,,,,,,,,,,,,,,,,,,,,,5M1A4Y,train_x,red_square,bottom_left,2025-03-22_11h10.40.316,HideSeek_v1,2022.2.5,59.92972640841288,
,2,1,5,1,3,0,46,,train_dim1_1,1,30,,,,2,0,2,0,,,,,,,,,0,0,0,0,0,0,0,0,0,0,0,0,,,,,,,,,,,,,,,,,,,,,,,,,stimuli/alien_stimuli/46.png,,,,,,,,,,,,,,,,,,,,,,,,,,,,,,,,,,,,,,,30,,,,,,,,1280.0616448000073,1280.0616448000073,1280.0616448000073,1280.0616448000073,1280.0616448000073,up,6.448739599989494,0,0,0,99,0,-0.24,up,6.350730600010138,,,,,,,,,,,,,,,,,,,,,,,,,,,,,,,,,,,,,,,,,,,,,,,,,,,,,,,,,,,,5M1A4Y,train_x,red_square,bottom_left,2025-03-22_11h10.40.316,HideSeek_v1,2022.2.5,59.92972640841288,
,2,1,5,1,3,0,46,,train_dim1_1,1,30,,,,2,0,2,0,,,,,,,,,0,0,0,0,0,0,0,0,1,0,1,0,,,,,,,,,,,,,,,,,,,,,,,,,,,,,,,,,,,,,,,,,,,,,,,,,,,,,,,,,,,,,,,,30,,,,,,,,1286.4972830000042,1286.4972830000042,1286.4972830000042,1286.4972830000042,1286.4972830000042,up,1.2936740999866743,0,0,0,99,0,-0.15999999999999998,up,1.2182368999929167,,,,,,,,,,,,,,,,,,,,,,,,,,,,,,,,,,,,,,,,,,,,,,,,,,,,,,,,,,,,5M1A4Y,train_x,red_square,bottom_left,2025-03-22_11h10.40.316,HideSeek_v1,2022.2.5,59.92972640841288,
,2,1,5,1,3,0,46,,train_dim1_1,1,30,,,,2,0,2,0,,,,,,,,,0,0,0,0,0,0,0,0,2,0,2,0,,,,,,,,,,,,,,,,,,,,,,,,,,,,,,,,,,,,,,,,,,,,,,,,,,,,,,,,,,,,,,,,30,,,,,,,,1287.7978300999966,1287.7978300999966,1287.7978300999966,1287.7978300999966,1287.7978300999966,return,2.962220999994315,0,0,0,0,0,-0.15999999999999998,return,2.880935099994531,2,0,0,-0.15999999999999998,,,,,,,,,,,,,,,,,,,,,,,,,,,,,,,,,,,,,,,,,,,,,,,,,,,,,,,,5M1A4Y,train_x,red_square,bottom_left,2025-03-22_11h10.40.316,HideSeek_v1,2022.2.5,59.92972640841288,
,2,4,2,4,0,0,16,,train_dim1_1,2,30,,,,2,0,2,0,,,,,,,,,0,0,0,0,0,1,1,1,0,0,0,0,,,,,,,,,,,,,,,,,,,,,,,,,stimuli/alien_stimuli/16.png,,,,,,,,,,,,,,,,,,,,,,,,,,,,,stimuli/alien_stimuli/46.png,46,2,3,,,,,,,30,,,,,,,,1325.8955652999866,1325.8955652999866,1325.8955652999866,1325.8955652999866,1325.8955652999866,right,5.00997380001354,0,0,0,99,0.08,-0.08,right,4.909479399997508,,,,,1324.31491429999,1325.8955652999866,0.24,-0.32,0.0,0.24,-0.32,0.24,0.12,0.24,-0.32,1292.3314843999979,1292.3314843999979,1292.3314843999979,1292.3314843999979,1292.3314843999979,1292.3314843999979,1292.3314843999979,1292.3314843999979,1292.3215970500023,32.09558210000978,return,31.951807300007204,,,,,,,,,,,,,,,,,,,,,,,,,,,,,,,,,5M1A4Y,train_x,red_square,bottom_left,2025-03-22_11h10.40.316,HideSeek_v1,2022.2.5,59.92972640841288,
,2,4,2,4,0,0,16,,train_dim1_1,2,30,,,,2,0,2,0,,,,,,,,,0,0,0,0,0,1,1,1,1,0,1,0,,,,,,,,,,,,,,,,,,,,,,,,,,,,,,,,,,,,,,,,,,,,,,,,,,,,,,,,,,,,,,,,30,,,,,,,,1330.8949397999968,1330.8949397999968,1330.8949397999968,1330.8949397999968,1330.8949397999968,right,5.058653200016124,0,0,0,99,0.16,-0.08,right,4.971481399988988,,,,,,,,,,,,,,,,,,,,,,,,,,,,,,,,,,,,,,,,,,,,,,,,,,,,,,,,,,,,5M1A4Y,train_x,red_square,bottom_left,2025-03-22_11h10.40.316,HideSeek_v1,2022.2.5,59.92972640841288,
,2,4,2,4,0,0,16,,train_dim1_1,2,30,,,,2,0,2,0,,,,,,,,,0,0,0,0,0,1,1,1,2,0,2,0,,,,,,,,,,,,,,,,,,,,,,,,,,,,,,,,,,,,,,,,,,,,,,,,,,,,,,,,,,,,,,,,30,,,,,,,,1335.9594677000132,1335.9594677000132,1335.9594677000132,1335.9594677000132,1335.9594677000132,right,0.8266938999877311,0,0,0,99,0.24,-0.08,right,0.7477254000259563,,,,,,,,,,,,,,,,,,,,,,,,,,,,,,,,,,,,,,,,,,,,,,,,,,,,,,,,,,,,5M1A4Y,train_x,red_square,bottom_left,2025-03-22_11h10.40.316,HideSeek_v1,2022.2.5,59.92972640841288,
,2,4,2,4,0,0,16,,train_dim1_1,2,30,,,,2,0,2,0,,,,,,,,,0,0,0,0,0,1,1,1,3,0,3,0,,,,,,,,,,,,,,,,,,,,,,,,,,,,,,,,,,,,,,,,,,,,,,,,,,,,,,,,,,,,,,,,30,,,,,,,,1336.7914499999897,1336.7914499999897,1336.7914499999897,1336.7914499999897,1336.7914499999897,right,0.893792199989548,0,0,0,99,0.32,-0.08,right,0.804706900002202,,,,,,,,,,,,,,,,,,,,,,,,,,,,,,,,,,,,,,,,,,,,,,,,,,,,,,,,,,,,5M1A4Y,train_x,red_square,bottom_left,2025-03-22_11h10.40.316,HideSeek_v1,2022.2.5,59.92972640841288,
,2,4,2,4,0,0,16,,train_dim1_1,2,30,,,,2,0,2,0,,,,,,,,,0,0,0,0,0,1,1,1,4,0,4,0,,,,,,,,,,,,,,,,,,,,,,,,,,,,,,,,,,,,,,,,,,,,,,,,,,,,,,,,,,,,,,,,30,,,,,,,,1337.693030800001,1337.693030800001,1337.693030800001,1337.693030800001,1337.693030800001,right,2.6116346000053454,0,0,0,99,0.4,-0.08,right,2.529246999998577,,,,,,,,,,,,,,,,,,,,,,,,,,,,,,,,,,,,,,,,,,,,,,,,,,,,,,,,,,,,5M1A4Y,train_x,red_square,bottom_left,2025-03-22_11h10.40.316,HideSeek_v1,2022.2.5,59.92972640841288,
,2,4,2,4,0,0,16,,train_dim1_1,2,30,,,,2,0,2,0,,,,,,,,,0,0,0,0,0,1,1,1,5,0,5,0,,,,,,,,,,,,,,,,,,,,,,,,,,,,,,,,,,,,,,,,,,,,,,,,,,,,,,,,,,,,,,,,30,,,,,,,,1340.3110251000035,1340.3110251000035,1340.3110251000035,1340.3110251000035,1340.3110251000035,return,9.167373100004625,0,0,0,0,0.4,-0.08,return,9.084859299997333,2,5,0.4,-0.08,,,,,,,,,,,,,,,,,,,,,,,,,,,,,,,,,,,,,,,,,,,,,,,,,,,,,,,,5M1A4Y,train_x,red_square,bottom_left,2025-03-22_11h10.40.316,HideSeek_v1,2022.2.5,59.92972640841288,
,4,4,5,4,1,0,26,,train_dim1_1,3,30,,,,2,0,2,0,,,,,,,,,0,0,0,0,0,2,2,2,0,0,0,0,,,,,,,,,,,,,,,,,,,,,,,,,stimuli/alien_stimuli/26.png,,,,,,,,,,,,,,,,,,,,,,,,,,,,,stimuli/alien_stimuli/16.png,16,2,4,,,,,,,30,,,,,,,,1368.3633580000023,1368.3633580000023,1368.3633580000023,1368.3633580000023,1368.3633580000023,right,6.9427078000153415,0,0,0,99,0.24,-0.08,right,6.830428299988853,,,,,1366.7833813999896,1368.3633580000023,0,-0.08,0.0,0.0,-0.08,0,0.0,0,-0.08,1351.0794621999958,1351.0794621999958,1351.0794621999958,1351.0794621999958,1351.0794621999958,1351.0794621999958,1351.0794621999958,1351.0794621999958,1351.0703887499985,15.848648300016066,return,15.68219229998067,,,,,,,,,,,,,,,,,,,,,,,,,,,,,,,,,5M1A4Y,train_x,red_square,bottom_left,2025-03-22_11h10.40.316,HideSeek_v1,2022.2.5,59.92972640841288,
,4,4,5,4,1,0,26,,train_dim1_1,3,30,,,,2,0,2,0,,,,,,,,,0,0,0,0,0,2,2,2,1,0,1,0,,,,,,,,,,,,,,,,,,,,,,,,,,,,,,,,,,,,,,,,,,,,,,,,,,,,,,,,,,,,,,,,30,,,,,,,,1375.2926191999868,1375.2926191999868,1375.2926191999868,1375.2926191999868,1375.2926191999868,return,2.360766400001012,1,0,0,1,0.24,-0.08,return,2.2696904000185896,2,6,0.24,-0.08,,,,,,,,,,,,,,,,,,,,,,,,,,,,,,,,,,,,,,,,,,,,,,,,,,,,,,,,5M1A4Y,train_x,red_square,bottom_left,2025-03-22_11h10.40.316,HideSeek_v1,2022.2.5,59.92972640841288,
,2,3,6,3,4,0,56,,train_dim1_1,4,30,,,,2,0,2,0,,,,,,,,,0,0,0,0,0,3,3,3,0,0,0,0,,,,,,,,,,,,,,,,,,,,,,,,,stimuli/alien_stimuli/56.png,,,,,,,,,,,,,,,,,,,,,,,,,,,,,stimuli/alien_stimuli/26.png,26,4,5,,,,,,,30,,,,,,,,1386.2440893999883,1386.2440893999883,1386.2440893999883,1386.2440893999883,1386.2440893999883,right,24.32418859997415,1,0,0,99,0.08,-0.16,right,24.228871800005436,,,,,1384.6816173999978,1386.2440893999883,0.24,-0.08,0.0,0.08,-0.08,0.24,0.2,0.24,-0.08,1379.2392761000083,1379.2392761000083,1379.2392761000083,1379.2392761000083,1379.2392761000083,1379.2392761000083,1379.2392761000083,1379.2392761000083,1379.227051199996,5.573699700005818,return,5.412652200000593,,,,,,,,,,,,,,,,,,,,,,,,,,,,,,,,,5M1A4Y,train_x,red_square,bottom_left,2025-03-22_11h10.40.316,HideSeek_v1,2022.2.5,59.92972640841288,
,2,3,6,3,4,0,56,,train_dim1_1,4,30,,,,2,0,2,0,,,,,,,,,0,0,0,0,0,3,3,3,1,0,1,0,,,,,,,,,,,,,,,,,,,,,,,,,,,,,,,,,,,,,,,,,,,,,,,,,,,,,,,,,,,,,,,,30,,,,,,,,1410.5773929000134,1410.5773929000134,1410.5773929000134,1410.5773929000134,1410.5773929000134,right,0.5931936999841128,1,0,0,99,0.16,-0.16,right,0.4939666999853216,,,,,,,,,,,,,,,,,,,,,,,,,,,,,,,,,,,,,,,,,,,,,,,,,,,,,,,,,,,,5M1A4Y,train_x,red_square,bottom_left,2025-03-22_11h10.40.316,HideSeek_v1,2022.2.5,59.92972640841288,
,2,3,6,3,4,0,56,,train_dim1_1,4,30,,,,2,0,2,0,,,,,,,,,0,0,0,0,0,3,3,3,2,0,2,0,,,,,,,,,,,,,,,,,,,,,,,,,,,,,,,,,,,,,,,,,,,,,,,,,,,,,,,,,,,,,,,,30,,,,,,,,1411.1688843999873,1411.1688843999873,1411.1688843999873,1411.1688843999873,1411.1688843999873,right,0.9772769999981392,1,0,0,99,0.24,-0.16,right,0.8980830000073183,,,,,,,,,,,,,,,,,,,,,,,,,,,,,,,,,,,,,,,,,,,,,,,,,,,,,,,,,,,,5M1A4Y,train_x,red_square,bottom_left,2025-03-22_11h10.40.316,HideSeek_v1,2022.2.5,59.92972640841288,
,2,3,6,3,4,0,56,,train_dim1_1,4,30,,,,2,0,2,0,,,,,,,,,0,0,0,0,0,3,3,3,3,0,3,0,,,,,,,,,,,,,,,,,,,,,,,,,,,,,,,,,,,,,,,,,,,,,,,,,,,,,,,,,,,,,,,,30,,,,,,,,1412.1566333000083,1412.1566333000083,1412.1566333000083,1412.1566333000083,1412.1566333000083,right,0.4076139999961015,1,0,0,99,0.32,-0.16,right,0.3182192000094801,,,,,,,,,,,,,,,,,,,,,,,,,,,,,,,,,,,,,,,,,,,,,,,,,,,,,,,,,,,,5M1A4Y,train_x,red_square,bottom_left,2025-03-22_11h10.40.316,HideSeek_v1,2022.2.5,59.92972640841288,
,2,3,6,3,4,0,56,,train_dim1_1,4,30,,,,2,0,2,0,,,,,,,,,0,0,0,0,0,3,3,3,4,0,4,0,,,,,,,,,,,,,,,,,,,,,,,,,,,,,,,,,,,,,,,,,,,,,,,,,,,,,,,,,,,,,,,,30,,,,,,,,1412.5701473999943,1412.5701473999943,1412.5701473999943,1412.5701473999943,1412.5701473999943,right,0.7936347000068054,1,0,0,99,0.4,-0.16,right,0.7149315999995451,,,,,,,,,,,,,,,,,,,,,,,,,,,,,,,,,,,,,,,,,,,,,,,,,,,,,,,,,,,,5M1A4Y,train_x,red_square,bottom_left,2025-03-22_11h10.40.316,HideSeek_v1,2022.2.5,59.92972640841288,
,2,3,6,3,4,0,56,,train_dim1_1,4,30,,,,2,0,2,0,,,,,,,,,0,0,0,0,0,3,3,3,5,0,5,0,,,,,,,,,,,,,,,,,,,,,,,,,,,,,,,,,,,,,,,,,,,,,,,,,,,,,,,,,,,,,,,,30,,,,,,,,1413.3701631999866,1413.3701631999866,1413.3701631999866,1413.3701631999866,1413.3701631999866,return,1.4610135999973863,1,1,0,0,0.4,-0.16,return,1.3761425000266172,2,11,0.4,-0.16,,,,,,,,,,,,,,,,,,,,,,,,,,,,,,,,,,,,,,,,,,,,,,,,,,,,,,,,5M1A4Y,train_x,red_square,bottom_left,2025-03-22_11h10.40.316,HideSeek_v1,2022.2.5,59.92972640841288,
,0,2,5,2,5,0,66,,train_dim1_1,5,30,,,,2,0,2,0,,,,,,,,,0,0,0,0,0,4,4,4,0,0,0,0,,,,,,,,,,,,,,,,,,,,,,,,,stimuli/alien_stimuli/66.png,,,,,,,,,,,,,,,,,,,,,,,,,,,,,stimuli/alien_stimuli/56.png,56,2,6,,,,,,,30,,,,,,,,1432.8985811999883,1432.8985811999883,1432.8985811999883,1432.8985811999883,1432.8985811999883,right,3.991642800014233,1,1,0,99,-0.08,-0.24,right,3.88430750000407,,,,,1431.3202417000139,1432.8985811999883,0.32,-0.16,0.0,0.32,-0.16,0.32,0.16,0.32,-0.16,1416.4125457000046,1416.4125457000046,1416.4125457000046,1416.4125457000046,1416.4125457000046,1416.4125457000046,1416.4125457000046,1416.4125457000046,1416.3915919499996,15.031090200005565,return,14.876426600007107,,,,,,,,,,,,,,,,,,,,,,,,,,,,,,,,,5M1A4Y,train_x,red_square,bottom_left,2025-03-22_11h10.40.316,HideSeek_v1,2022.2.5,59.92972640841288,
,0,2,5,2,5,0,66,,train_dim1_1,5,30,,,,2,0,2,0,,,,,,,,,0,0,0,0,0,4,4,4,1,0,1,0,,,,,,,,,,,,,,,,,,,,,,,,,,,,,,,,,,,,,,,,,,,,,,,,,,,,,,,,,,,,,,,,30,,,,,,,,1436.873565099988,1436.873565099988,1436.873565099988,1436.873565099988,1436.873565099988,right,0.7259485000104178,1,1,0,99,0.0,-0.24,right,0.6428333999938332,,,,,,,,,,,,,,,,,,,,,,,,,,,,,,,,,,,,,,,,,,,,,,,,,,,,,,,,,,,,5M1A4Y,train_x,red_square,bottom_left,2025-03-22_11h10.40.316,HideSeek_v1,2022.2.5,59.92972640841288,
,0,2,5,2,5,0,66,,train_dim1_1,5,30,,,,2,0,2,0,,,,,,,,,0,0,0,0,0,4,4,4,2,0,2,0,,,,,,,,,,,,,,,,,,,,,,,,,,,,,,,,,,,,,,,,,,,,,,,,,,,,,,,,,,,,,,,,30,,,,,,,,1437.6047021000122,1437.6047021000122,1437.6047021000122,1437.6047021000122,1437.6047021000122,right,0.7102156000037212,1,1,0,99,0.08,-0.24,right,0.6241389000206254,,,,,,,,,,,,,,,,,,,,,,,,,,,,,,,,,,,,,,,,,,,,,,,,,,,,,,,,,,,,5M1A4Y,train_x,red_square,bottom_left,2025-03-22_11h10.40.316,HideSeek_v1,2022.2.5,59.92972640841288,
,0,2,5,2,5,0,66,,train_dim1_1,5,30,,,,2,0,2,0,,,,,,,,,0,0,0,0,0,4,4,4,3,0,3,0,,,,,,,,,,,,,,,,,,,,,,,,,,,,,,,,,,,,,,,,,,,,,,,,,,,,,,,,,,,,,,,,30,,,,,,,,1438.3223746000149,1438.3223746000149,1438.3223746000149,1438.3223746000149,1438.3223746000149,right,0.7270822999998927,1,1,0,99,0.16,-0.24,right,0.6393806000123732,,,,,,,,,,,,,,,,,,,,,,,,,,,,,,,,,,,,,,,,,,,,,,,,,,,,,,,,,,,,5M1A4Y,train_x,red_square,bottom_left,2025-03-22_11h10.40.316,HideSeek_v1,2022.2.5,59.92972640841288,
,0,2,5,2,5,0,66,,train_dim1_1,5,30,,,,2,0,2,0,,,,,,,,,0,0,0,0,0,4,4,4,4,0,4,0,,,,,,,,,,,,,,,,,,,,,,,,,,,,,,,,,,,,,,,,,,,,,,,,,,,,,,,,,,,,,,,,30,,,,,,,,1439.0570104999933,1439.0570104999933,1439.0570104999933,1439.0570104999933,1439.0570104999933,right,0.6265008999907877,1,1,0,99,0.24,-0.24,right,0.5462251999997534,,,,,,,,,,,,,,,,,,,,,,,,,,,,,,,,,,,,,,,,,,,,,,,,,,,,,,,,,,,,5M1A4Y,train_x,red_square,bottom_left,2025-03-22_11h10.40.316,HideSeek_v1,2022.2.5,59.92972640841288,
,0,2,5,2,5,0,66,,train_dim1_1,5,30,,,,2,0,2,0,,,,,,,,,0,0,0,0,0,4,4,4,5,0,5,0,,,,,,,,,,,,,,,,,,,,,,,,,,,,,,,,,,,,,,,,,,,,,,,,,,,,,,,,,,,,,,,,30,,,,,,,,1439.6896223000076,1439.6896223000076,1439.6896223000076,1439.6896223000076,1439.6896223000076,return,3.446034699998563,2,0,0,1,0.24,-0.24,return,3.3670920000295155,2,16,0.24,-0.24,,,,,,,,,,,,,,,,,,,,,,,,,,,,,,,,,,,,,,,,,,,,,,,,,,,,,,,,5M1A4Y,train_x,red_square,bottom_left,2025-03-22_11h10.40.316,HideSeek_v1,2022.2.5,59.92972640841288,
,0,0,1,0,1,0,26,,train_dim1_1,6,30,,,,2,0,2,0,,,,,,,,,0,0,0,0,0,5,5,5,0,0,0,0,,,,,,,,,,,,,,,,,,,,,,,,,stimuli/alien_stimuli/26.png,,,,,,,,,,,,,,,,,,,,,,,,,,,,,stimuli/alien_stimuli/66.png,66,0,7,,,,,,,30,,,,,,,,1451.7031306000135,1451.7031306000135,1451.7031306000135,1451.7031306000135,1451.7031306000135,return,3.3214647000131663,2,1,0,0,-0.16,-0.4,return,3.2265560000087135,2,16,-0.16,-0.4,1450.1359759999905,1451.7031306000135,0.24,-0.24,0.0,0.4,-0.24,0.24,0.039999999999999994,0.24,-0.24,1444.7159668999957,1444.7159668999957,1444.7159668999957,1444.7159668999957,1444.7159668999957,1444.7159668999957,1444.7159668999957,1444.7159668999957,1444.698187150003,5.540039899991825,return,5.388617000018712,,,,,,,,,,,,,,,,,,,,,,,,,,,,,,,,,5M1A4Y,train_x,red_square,bottom_left,2025-03-22_11h10.40.316,HideSeek_v1,2022.2.5,59.92972640841288,
,3,0,8,0,5,0,66,,train_dim1_1,7,30,,,,2,0,2,0,,,,,,,,,0,0,0,0,0,6,6,6,0,0,0,0,,,,,,,,,,,,,,,,,,,,,,,,,stimuli/alien_stimuli/66.png,,,,,,,,,,,,,,,,,,,,,,,,,,,,,stimuli/alien_stimuli/26.png,26,0,8,,,,,,,30,,,,,,,,1466.0091021000117,1466.0091021000117,1466.0091021000117,1466.0091021000117,1466.0091021000117,right,2.355987599992659,2,1,0,99,0.16,-0.4,right,2.2712302999862004,,,,,1464.4477755000116,1466.0091021000117,-0.08,-0.4,0.0,0.08,-0.4,-0.08,-0.12,-0.08,-0.4,1456.6040652999945,1456.6040652999945,1456.6040652999945,1456.6040652999945,1456.6040652999945,1456.6040652999945,1456.6040652999945,1456.6040652999945,1456.5914353999833,7.975346599996556,return,7.8124252000125125,,,,,,,,,,,,,,,,,,,,,,,,,,,,,,,,,5M1A4Y,train_x,red_square,bottom_left,2025-03-22_11h10.40.316,HideSeek_v1,2022.2.5,59.92972640841288,
,3,0,8,0,5,0,66,,train_dim1_1,7,30,,,,2,0,2,0,,,,,,,,,0,0,0,0,0,6,6,6,1,0,1,0,,,,,,,,,,,,,,,,,,,,,,,,,,,,,,,,,,,,,,,,,,,,,,,,,,,,,,,,,,,,,,,,30,,,,,,,,1468.365425600001,1468.365425600001,1468.365425600001,1468.365425600001,1468.365425600001,right,0.65948160001426,2,1,0,99,0.24,-0.4,right,0.5796341999957804,,,,,,,,,,,,,,,,,,,,,,,,,,,,,,,,,,,,,,,,,,,,,,,,,,,,,,,,,,,,5M1A4Y,train_x,red_square,bottom_left,2025-03-22_11h10.40.316,HideSeek_v1,2022.2.5,59.92972640841288,
,3,0,8,0,5,0,66,,train_dim1_1,7,30,,,,2,0,2,0,,,,,,,,,0,0,0,0,0,6,6,6,2,0,2,0,,,,,,,,,,,,,,,,,,,,,,,,,,,,,,,,,,,,,,,,,,,,,,,,,,,,,,,,,,,,,,,,30,,,,,,,,1469.0308137999964,1469.0308137999964,1469.0308137999964,1469.0308137999964,1469.0308137999964,right,0.6436864999996033,2,1,0,99,0.32,-0.4,right,0.5606393000052776,,,,,,,,,,,,,,,,,,,,,,,,,,,,,,,,,,,,,,,,,,,,,,,,,,,,,,,,,,,,5M1A4Y,train_x,red_square,bottom_left,2025-03-22_11h10.40.316,HideSeek_v1,2022.2.5,59.92972640841288,
,3,0,8,0,5,0,66,,train_dim1_1,7,30,,,,2,0,2,0,,,,,,,,,0,0,0,0,0,6,6,6,3,0,3,0,,,,,,,,,,,,,,,,,,,,,,,,,,,,,,,,,,,,,,,,,,,,,,,,,,,,,,,,,,,,,,,,30,,,,,,,,1469.680918099999,1469.680918099999,1469.680918099999,1469.680918099999,1469.680918099999,right,0.7101281000068411,2,1,0,99,0.4,-0.4,right,0.6238648000289686,,,,,,,,,,,,,,,,,,,,,,,,,,,,,,,,,,,,,,,,,,,,,,,,,,,,,,,,,,,,5M1A4Y,train_x,red_square,bottom_left,2025-03-22_11h10.40.316,HideSeek_v1,2022.2.5,59.92972640841288,
,3,0,8,0,5,0,66,,train_dim1_1,7,30,,,,2,0,2,0,,,,,,,,,0,0,0,0,0,6,6,6,4,0,4,0,,,,,,,,,,,,,,,,,,,,,,,,,,,,,,,,,,,,,,,,,,,,,,,,,,,,,,,,,,,,,,,,30,,,,,,,,1470.3986915000132,1470.3986915000132,1470.3986915000132,1470.3986915000132,1470.3986915000132,right,0.6266703000001144,2,1,0,99,0.48000000000000004,-0.4,right,0.5526264000218362,,,,,,,,,,,,,,,,,,,,,,,,,,,,,,,,,,,,,,,,,,,,,,,,,,,,,,,,,,,,5M1A4Y,train_x,red_square,bottom_left,2025-03-22_11h10.40.316,HideSeek_v1,2022.2.5,59.92972640841288,
,3,0,8,0,5,0,66,,train_dim1_1,7,30,,,,2,0,2,0,,,,,,,,,0,0,0,0,0,6,6,6,5,0,5,0,,,,,,,,,,,,,,,,,,,,,,,,,,,,,,,,,,,,,,,,,,,,,,,,,,,,,,,,,,,,,,,,30,,,,,,,,1471.0326526999997,1471.0326526999997,1471.0326526999997,1471.0326526999997,1471.0326526999997,return,1.0439310999936424,3,0,0,1,0.48000000000000004,-0.4,return,0.9641202999919187,2,21,0.48000000000000004,-0.4,,,,,,,,,,,,,,,,,,,,,,,,,,,,,,,,,,,,,,,,,,,,,,,,,,,,,,,,5M1A4Y,train_x,red_square,bottom_left,2025-03-22_11h10.40.316,HideSeek_v1,2022.2.5,59.92972640841288,
,0,4,3,4,3,0,46,,train_dim1_1,8,30,,,,2,0,2,0,,,,,,,,,0,0,0,0,0,7,7,7,0,0,0,0,,,,,,,,,,,,,,,,,,,,,,,,,stimuli/alien_stimuli/46.png,,,,,,,,,,,,,,,,,,,,,,,,,,,,,stimuli/alien_stimuli/66.png,66,3,9,,,,,,,30,,,,,,,,1481.7586997000035,1481.7586997000035,1481.7586997000035,1481.7586997000035,1481.7586997000035,right,4.455085499997949,3,0,0,99,-0.08,-0.08,right,4.358727200014982,,,,,1480.1946582999954,1481.7586997000035,0.48,-0.4,0.0,0.4,-0.4,0.48,0.27999999999999997,0.48,-0.4,1473.6613590999914,1473.6613590999914,1473.6613590999914,1473.6613590999914,1473.6613590999914,1473.6613590999914,1473.6613590999914,1473.6613590999914,1473.6388121499913,6.657680100004654,return,6.512071700009983,,,,,,,,,,,,,,,,,,,,,,,,,,,,,,,,,5M1A4Y,train_x,red_square,bottom_left,2025-03-22_11h10.40.316,HideSeek_v1,2022.2.5,59.92972640841288,
,0,4,3,4,3,0,46,,train_dim1_1,8,30,,,,2,0,2,0,,,,,,,,,0,0,0,0,0,7,7,7,1,0,1,0,,,,,,,,,,,,,,,,,,,,,,,,,,,,,,,,,,,,,,,,,,,,,,,,,,,,,,,,,,,,,,,,30,,,,,,,,1486.2127182999975,1486.2127182999975,1486.2127182999975,1486.2127182999975,1486.2127182999975,return,0.6931883000070229,3,0,0,0,-0.08,-0.08,return,0.6077323999779765,2,22,-0.08,-0.08,,,,,,,,,,,,,,,,,,,,,,,,,,,,,,,,,,,,,,,,,,,,,,,,,,,,,,,,5M1A4Y,train_x,red_square,bottom_left,2025-03-22_11h10.40.316,HideSeek_v1,2022.2.5,59.92972640841288,
,1,0,5,0,4,0,56,,train_dim1_1,9,30,,,,2,0,2,0,,,,,,,,,0,0,0,0,0,8,8,8,0,0,0,0,,,,,,,,,,,,,,,,,,,,,,,,,stimuli/alien_stimuli/56.png,,,,,,,,,,,,,,,,,,,,,,,,,,,,,stimuli/alien_stimuli/46.png,46,0,10,,,,,,,30,,,,,,,,1494.219210500014,1494.219210500014,1494.219210500014,1494.219210500014,1494.219210500014,right,2.7376682000176515,3,0,0,99,0.0,-0.4,right,2.653852099989308,,,,,1492.6547842000145,1494.219210500014,0.08,-0.08,0.0,0.24,-0.08,0.08,-0.04,0.08,-0.08,1488.469636599999,1488.469636599999,1488.469636599999,1488.469636599999,1488.469636599999,1488.469636599999,1488.469636599999,1488.469636599999,1488.4510518999887,4.289238800003659,return,4.164329299994279,,,,,,,,,,,,,,,,,,,,,,,,,,,,,,,,,5M1A4Y,train_x,red_square,bottom_left,2025-03-22_11h10.40.316,HideSeek_v1,2022.2.5,59.92972640841288,
,1,0,5,0,4,0,56,,train_dim1_1,9,30,,,,2,0,2,0,,,,,,,,,0,0,0,0,0,8,8,8,1,0,1,0,,,,,,,,,,,,,,,,,,,,,,,,,,,,,,,,,,,,,,,,,,,,,,,,,,,,,,,,,,,,,,,,30,,,,,,,,1496.9566408999963,1496.9566408999963,1496.9566408999963,1496.9566408999963,1496.9566408999963,right,0.6431845000188332,3,0,0,99,0.08,-0.4,right,0.5588958000007551,,,,,,,,,,,,,,,,,,,,,,,,,,,,,,,,,,,,,,,,,,,,,,,,,,,,,,,,,,,,5M1A4Y,train_x,red_square,bottom_left,2025-03-22_11h10.40.316,HideSeek_v1,2022.2.5,59.92972640841288,
,1,0,5,0,4,0,56,,train_dim1_1,9,30,,,,2,0,2,0,,,,,,,,,0,0,0,0,0,8,8,8,2,0,2,0,,,,,,,,,,,,,,,,,,,,,,,,,,,,,,,,,,,,,,,,,,,,,,,,,,,,,,,,,,,,,,,,30,,,,,,,,1497.6070020000043,1497.6070020000043,1497.6070020000043,1497.6070020000043,1497.6070020000043,right,0.6768630000005942,3,0,0,99,0.16,-0.4,right,0.5936245999764651,,,,,,,,,,,,,,,,,,,,,,,,,,,,,,,,,,,,,,,,,,,,,,,,,,,,,,,,,,,,5M1A4Y,train_x,red_square,bottom_left,2025-03-22_11h10.40.316,HideSeek_v1,2022.2.5,59.92972640841288,
,1,0,5,0,4,0,56,,train_dim1_1,9,30,,,,2,0,2,0,,,,,,,,,0,0,0,0,0,8,8,8,3,0,3,0,,,,,,,,,,,,,,,,,,,,,,,,,,,,,,,,,,,,,,,,,,,,,,,,,,,,,,,,,,,,,,,,30,,,,,,,,1498.2904317000066,1498.2904317000066,1498.2904317000066,1498.2904317000066,1498.2904317000066,right,0.8772174000041559,3,0,0,99,0.24,-0.4,right,0.7994017000019085,,,,,,,,,,,,,,,,,,,,,,,,,,,,,,,,,,,,,,,,,,,,,,,,,,,,,,,,,,,,5M1A4Y,train_x,red_square,bottom_left,2025-03-22_11h10.40.316,HideSeek_v1,2022.2.5,59.92972640841288,
,1,0,5,0,4,0,56,,train_dim1_1,9,30,,,,2,0,2,0,,,,,,,,,0,0,0,0,0,8,8,8,4,0,4,0,,,,,,,,,,,,,,,,,,,,,,,,,,,,,,,,,,,,,,,,,,,,,,,,,,,,,,,,,,,,,,,,30,,,,,,,,1499.1762839000148,1499.1762839000148,1499.1762839000148,1499.1762839000148,1499.1762839000148,return,2.111716699990211,4,0,0,1,0.24,-0.4,return,2.0359987000119872,2,26,0.24,-0.4,,,,,,,,,,,,,,,,,,,,,,,,,,,,,,,,,,,,,,,,,,,,,,,,,,,,,,,,5M1A4Y,train_x,red_square,bottom_left,2025-03-22_11h10.40.316,HideSeek_v1,2022.2.5,59.92972640841288,
,0,3,0,3,0,0,16,,train_dim1_1,10,30,,,,2,0,2,0,,,,,,,,,0,0,0,0,0,9,9,9,0,0,0,0,,,,,,,,,,,,,,,,,,,,,,,,,stimuli/alien_stimuli/16.png,,,,,,,,,,,,,,,,,,,,,,,,,,,,,stimuli/alien_stimuli/56.png,56,1,11,,,,,,,30,,,,,,,,1507.2774919999938,1507.2774919999938,1507.2774919999938,1507.2774919999938,1507.2774919999938,return,2.925034299987601,5,0,0,1,-0.16,-0.16,return,2.835474899999099,2,26,-0.16,-0.16,1505.715591699991,1507.2774919999938,0.24,-0.4,0.0,0.32,-0.4,0.24,0.07999999999999999,0.24,-0.4,1502.8689410999941,1502.8689410999941,1502.8689410999941,1502.8689410999941,1502.8689410999941,1502.8689410999941,1502.8689410999941,1502.8689410999941,1502.8631153999886,2.9714618000143673,return,2.8296627000090666,,,,,,,,,,,,,,,,,,,,,,,,,,,,,,,,,5M1A4Y,train_x,red_square,bottom_left,2025-03-22_11h10.40.316,HideSeek_v1,2022.2.5,59.92972640841288,
,2,2,5,2,3,0,46,,train_dim1_1,11,30,,,,2,0,2,0,,,,,,,,,0,0,0,0,0,10,10,10,0,0,0,0,,,,,,,,,,,,,,,,,,,,,,,,,stimuli/alien_stimuli/46.png,,,,,,,,,,,,,,,,,,,,,,,,,,,,,stimuli/alien_stimuli/16.png,16,0,12,,,,,,,30,,,,,,,,1514.962873100012,1514.962873100012,1514.962873100012,1514.962873100012,1514.962873100012,right,2.6578990000125486,5,0,0,99,0.08,-0.24,right,2.547534400015138,,,,,1513.3885713999916,1514.962873100012,-0.16,-0.16,0.0,0.0,-0.16,-0.16,-0.16,-0.16,-0.16,1511.7786858000036,1511.7786858000036,1511.7786858000036,1511.7786858000036,1511.7786858000036,1511.7786858000036,1511.7786858000036,1511.7786858000036,1511.770747100003,1.736577000003308,return,1.580409399990458,,,,,,,,,,,,,,,,,,,,,,,,,,,,,,,,,5M1A4Y,train_x,red_square,bottom_left,2025-03-22_11h10.40.316,HideSeek_v1,2022.2.5,59.92972640841288,
,2,2,5,2,3,0,46,,train_dim1_1,11,30,,,,2,0,2,0,,,,,,,,,0,0,0,0,0,10,10,10,1,0,1,0,,,,,,,,,,,,,,,,,,,,,,,,,,,,,,,,,,,,,,,,,,,,,,,,,,,,,,,,,,,,,,,,30,,,,,,,,1517.6058632000058,1517.6058632000058,1517.6058632000058,1517.6058632000058,1517.6058632000058,right,0.8098918999894522,5,0,0,99,0.16,-0.24,right,0.7325683000090066,,,,,,,,,,,,,,,,,,,,,,,,,,,,,,,,,,,,,,,,,,,,,,,,,,,,,,,,,,,,5M1A4Y,train_x,red_square,bottom_left,2025-03-22_11h10.40.316,HideSeek_v1,2022.2.5,59.92972640841288,
,2,2,5,2,3,0,46,,train_dim1_1,11,30,,,,2,0,2,0,,,,,,,,,0,0,0,0,0,10,10,10,2,0,2,0,,,,,,,,,,,,,,,,,,,,,,,,,,,,,,,,,,,,,,,,,,,,,,,,,,,,,,,,,,,,,,,,30,,,,,,,,1518.42278600001,1518.42278600001,1518.42278600001,1518.42278600001,1518.42278600001,right,0.8101771000074223,5,0,0,99,0.24,-0.24,right,0.7224499000003561,,,,,,,,,,,,,,,,,,,,,,,,,,,,,,,,,,,,,,,,,,,,,,,,,,,,,,,,,,,,5M1A4Y,train_x,red_square,bottom_left,2025-03-22_11h10.40.316,HideSeek_v1,2022.2.5,59.92972640841288,
,2,2,5,2,3,0,46,,train_dim1_1,11,30,,,,2,0,2,0,,,,,,,,,0,0,0,0,0,10,10,10,3,0,3,0,,,,,,,,,,,,,,,,,,,,,,,,,,,,,,,,,,,,,,,,,,,,,,,,,,,,,,,,,,,,,,,,30,,,,,,,,1519.23989289999,1519.23989289999,1519.23989289999,1519.23989289999,1519.23989289999,return,3.579492399992887,6,0,0,1,0.24,-0.24,return,3.502768100006506,2,29,0.24,-0.24,,,,,,,,,,,,,,,,,,,,,,,,,,,,,,,,,,,,,,,,,,,,,,,,,,,,,,,,5M1A4Y,train_x,red_square,bottom_left,2025-03-22_11h10.40.316,HideSeek_v1,2022.2.5,59.92972640841288,
,0,0,1,0,1,0,26,,train_dim1_1,12,30,,,,2,0,2,0,,,,,,,,,0,0,0,0,0,11,11,11,0,0,0,0,,,,,,,,,,,,,,,,,,,,,,,,,stimuli/alien_stimuli/26.png,,,,,,,,,,,,,,,,,,,,,,,,,,,,,stimuli/alien_stimuli/46.png,46,2,13,,,,,,,30,,,,,,,,1530.296875800006,1530.296875800006,1530.296875800006,1530.296875800006,1530.296875800006,return,2.1078050000069197,6,1,0,0,-0.16,-0.4,return,2.0127307000220753,2,29,-0.16,-0.4,1528.7351177000091,1530.296875800006,0.24,-0.24,0.0,0.24,-0.24,0.24,0.12,0.24,-0.24,1524.4021068000002,1524.4021068000002,1524.4021068000002,1524.4021068000002,1524.4021068000002,1524.4021068000002,1524.4021068000002,1524.4021068000002,1524.3810604499886,4.45616770000197,return,4.3032154999964405,,,,,,,,,,,,,,,,,,,,,,,,,,,,,,,,,5M1A4Y,train_x,red_square,bottom_left,2025-03-22_11h10.40.316,HideSeek_v1,2022.2.5,59.92972640841288,
,0,4,4,4,4,0,56,,train_dim1_1,13,30,,,,2,0,2,0,,,,,,,,,0,0,0,0,0,12,12,12,0,0,0,0,,,,,,,,,,,,,,,,,,,,,,,,,stimuli/alien_stimuli/56.png,,,,,,,,,,,,,,,,,,,,,,,,,,,,,stimuli/alien_stimuli/26.png,26,0,14,,,,,,,30,,,,,,,,1539.6048470000096,1539.6048470000096,1539.6048470000096,1539.6048470000096,1539.6048470000096,right,2.972598199994536,6,1,0,99,-0.08,-0.08,right,2.887090000003809,,,,,1538.0423013000109,1539.6048470000096,-0.08,-0.4,0.0,0.08,-0.4,-0.08,-0.12,-0.08,-0.4,1533.9790187999897,1533.9790187999897,1533.9790187999897,1533.9790187999897,1533.9790187999897,1533.9790187999897,1533.9790187999897,1533.9790187999897,1533.97228419999,4.188977799989516,return,4.031221300014295,,,,,,,,,,,,,,,,,,,,,,,,,,,,,,,,,5M1A4Y,train_x,red_square,bottom_left,2025-03-22_11h10.40.316,HideSeek_v1,2022.2.5,59.92972640841288,
,0,4,4,4,4,0,56,,train_dim1_1,13,30,,,,2,0,2,0,,,,,,,,,0,0,0,0,0,12,12,12,1,0,1,0,,,,,,,,,,,,,,,,,,,,,,,,,,,,,,,,,,,,,,,,,,,,,,,,,,,,,,,,,,,,,,,,30,,,,,,,,1542.5781441,1542.5781441,1542.5781441,1542.5781441,1542.5781441,right,0.5597996999858879,6,1,0,99,0.0,-0.08,right,0.4804518999881111,,,,,,,,,,,,,,,,,,,,,,,,,,,,,,,,,,,,,,,,,,,,,,,,,,,,,,,,,,,,5M1A4Y,train_x,red_square,bottom_left,2025-03-22_11h10.40.316,HideSeek_v1,2022.2.5,59.92972640841288,
,0,4,4,4,4,0,56,,train_dim1_1,13,30,,,,2,0,2,0,,,,,,,,,0,0,0,0,0,12,12,12,2,0,2,0,,,,,,,,,,,,,,,,,,,,,,,,,,,,,,,,,,,,,,,,,,,,,,,,,,,,,,,,,,,,,,,,30,,,,,,,,1543.1467971999955,1543.1467971999955,1543.1467971999955,1543.1467971999955,1543.1467971999955,right,0.6081616999872494,6,1,0,99,0.08,-0.08,right,0.524408700002823,,,,,,,,,,,,,,,,,,,,,,,,,,,,,,,,,,,,,,,,,,,,,,,,,,,,,,,,,,,,5M1A4Y,train_x,red_square,bottom_left,2025-03-22_11h10.40.316,HideSeek_v1,2022.2.5,59.92972640841288,
,0,4,4,4,4,0,56,,train_dim1_1,13,30,,,,2,0,2,0,,,,,,,,,0,0,0,0,0,12,12,12,3,0,3,0,,,,,,,,,,,,,,,,,,,,,,,,,,,,,,,,,,,,,,,,,,,,,,,,,,,,,,,,,,,,,,,,30,,,,,,,,1543.7633870000136,1543.7633870000136,1543.7633870000136,1543.7633870000136,1543.7633870000136,return,2.3611367999983486,6,1,0,0,0.08,-0.08,return,2.274748100026045,2,32,0.08,-0.08,,,,,,,,,,,,,,,,,,,,,,,,,,,,,,,,,,,,,,,,,,,,,,,,,,,,,,,,5M1A4Y,train_x,red_square,bottom_left,2025-03-22_11h10.40.316,HideSeek_v1,2022.2.5,59.92972640841288,
,4,3,4,3,0,0,16,,train_dim1_1,14,30,,,,2,0,2,0,,,,,,,,,0,0,0,0,0,13,13,13,0,0,0,0,,,,,,,,,,,,,,,,,,,,,,,,,stimuli/alien_stimuli/16.png,,,,,,,,,,,,,,,,,,,,,,,,,,,,,stimuli/alien_stimuli/56.png,56,0,15,,,,,,,30,,,,,,,,1553.5679111999925,1553.5679111999925,1553.5679111999925,1553.5679111999925,1553.5679111999925,return,4.6086859999923036,7,0,0,1,0.16,-0.16,return,4.517467800003942,2,32,0.16,-0.16,1552.0040671000024,1553.5679111999925,0.16,-0.08,0.0,0.32,-0.08,0.16,0.0,0.16,-0.08,1547.7049635000003,1547.7049635000003,1547.7049635000003,1547.7049635000003,1547.7049635000003,1547.7049635000003,1547.7049635000003,1547.7049635000003,1547.6837211500097,4.4224396999925375,return,4.2791009999928065,,,,,,,,,,,,,,,,,,,,,,,,,,,,,,,,,5M1A4Y,train_x,red_square,bottom_left,2025-03-22_11h10.40.316,HideSeek_v1,2022.2.5,59.92972640841288,
,4,2,9,2,5,0,66,,train_dim1_1,15,30,,,,2,0,2,0,,,,,,,,,0,0,0,0,0,14,14,14,0,0,0,0,,,,,,,,,,,,,,,,,,,,,,,,,stimuli/alien_stimuli/66.png,,,,,,,,,,,,,,,,,,,,,,,,,,,,,stimuli/alien_stimuli/16.png,16,4,16,,,,,,,30,,,,,,,,1564.0404736000055,1564.0404736000055,1564.0404736000055,1564.0404736000055,1564.0404736000055,right,1.620721900020726,7,0,0,99,0.24,-0.24,right,1.5329034000169486,,,,,1562.4793749999953,1564.0404736000055,0.16,-0.16,0.0,0.0,-0.16,0.16,0.16,0.16,-0.16,1559.7515615999873,1559.7515615999873,1559.7515615999873,1559.7515615999873,1559.7515615999873,1559.7515615999873,1559.7515615999873,1559.7515615999873,1559.7438426000008,2.854451399995014,return,2.7117833999800496,,,,,,,,,,,,,,,,,,,,,,,,,,,,,,,,,5M1A4Y,train_x,red_square,bottom_left,2025-03-22_11h10.40.316,HideSeek_v1,2022.2.5,59.92972640841288,
,4,2,9,2,5,0,66,,train_dim1_1,15,30,,,,2,0,2,0,,,,,,,,,0,0,0,0,0,14,14,14,1,0,1,0,,,,,,,,,,,,,,,,,,,,,,,,,,,,,,,,,,,,,,,,,,,,,,,,,,,,,,,,,,,,,,,,30,,,,,,,,1565.6618918000022,1565.6618918000022,1565.6618918000022,1565.6618918000022,1565.6618918000022,right,0.7093020000029355,7,0,0,99,0.32,-0.24,right,0.6323286999831907,,,,,,,,,,,,,,,,,,,,,,,,,,,,,,,,,,,,,,,,,,,,,,,,,,,,,,,,,,,,5M1A4Y,train_x,red_square,bottom_left,2025-03-22_11h10.40.316,HideSeek_v1,2022.2.5,59.92972640841288,
,4,2,9,2,5,0,66,,train_dim1_1,15,30,,,,2,0,2,0,,,,,,,,,0,0,0,0,0,14,14,14,2,0,2,0,,,,,,,,,,,,,,,,,,,,,,,,,,,,,,,,,,,,,,,,,,,,,,,,,,,,,,,,,,,,,,,,30,,,,,,,,1566.378424800001,1566.378424800001,1566.378424800001,1566.378424800001,1566.378424800001,right,0.7771385999803897,7,0,0,99,0.4,-0.24,right,0.6920131999941077,,,,,,,,,,,,,,,,,,,,,,,,,,,,,,,,,,,,,,,,,,,,,,,,,,,,,,,,,,,,5M1A4Y,train_x,red_square,bottom_left,2025-03-22_11h10.40.316,HideSeek_v1,2022.2.5,59.92972640841288,
,4,2,9,2,5,0,66,,train_dim1_1,15,30,,,,2,0,2,0,,,,,,,,,0,0,0,0,0,14,14,14,3,0,3,0,,,,,,,,,,,,,,,,,,,,,,,,,,,,,,,,,,,,,,,,,,,,,,,,,,,,,,,,,,,,,,,,30,,,,,,,,1567.1624939999892,1567.1624939999892,1567.1624939999892,1567.1624939999892,1567.1624939999892,right,0.7272041999967769,7,0,0,99,0.48000000000000004,-0.24,right,0.6392555000202265,,,,,,,,,,,,,,,,,,,,,,,,,,,,,,,,,,,,,,,,,,,,,,,,,,,,,,,,,,,,5M1A4Y,train_x,red_square,bottom_left,2025-03-22_11h10.40.316,HideSeek_v1,2022.2.5,59.92972640841288,
,4,2,9,2,5,0,66,,train_dim1_1,15,30,,,,2,0,2,0,,,,,,,,,0,0,0,0,0,14,14,14,4,0,4,0,,,,,,,,,,,,,,,,,,,,,,,,,,,,,,,,,,,,,,,,,,,,,,,,,,,,,,,,,,,,,,,,30,,,,,,,,1567.896700799989,1567.896700799989,1567.896700799989,1567.896700799989,1567.896700799989,right,0.6603474000003189,7,0,0,99,0.56,-0.24,right,0.5777935000078287,,,,,,,,,,,,,,,,,,,,,,,,,,,,,,,,,,,,,,,,,,,,,,,,,,,,,,,,,,,,5M1A4Y,train_x,red_square,bottom_left,2025-03-22_11h10.40.316,HideSeek_v1,2022.2.5,59.92972640841288,
,4,2,9,2,5,0,66,,train_dim1_1,15,30,,,,2,0,2,0,,,,,,,,,0,0,0,0,0,14,14,14,5,0,5,0,,,,,,,,,,,,,,,,,,,,,,,,,,,,,,,,,,,,,,,,,,,,,,,,,,,,,,,,,,,,,,,,30,,,,,,,,1568.563601700007,1568.563601700007,1568.563601700007,1568.563601700007,1568.563601700007,return,1.0441089000087231,8,0,0,1,0.56,-0.24,return,0.9666452999808826,2,37,0.56,-0.24,,,,,,,,,,,,,,,,,,,,,,,,,,,,,,,,,,,,,,,,,,,,,,,,,,,,,,,,5M1A4Y,train_x,red_square,bottom_left,2025-03-22_11h10.40.316,HideSeek_v1,2022.2.5,59.92972640841288,
,3,3,7,3,4,0,56,,train_dim1_1,16,30,,,,2,0,2,0,,,,,,,,,0,0,0,0,0,15,15,15,0,0,0,0,,,,,,,,,,,,,,,,,,,,,,,,,stimuli/alien_stimuli/56.png,,,,,,,,,,,,,,,,,,,,,,,,,,,,,stimuli/alien_stimuli/66.png,66,4,17,,,,,,,30,,,,,,,,1576.9526528000133,1576.9526528000133,1576.9526528000133,1576.9526528000133,1576.9526528000133,right,1.7719147000170778,8,0,0,99,0.16,-0.16,right,1.6823294000059832,,,,,1575.389957300009,1576.9526528000133,0.56,-0.24,0.0,0.4,-0.24,0.56,0.36000000000000004,0.56,-0.24,1571.1861525000131,1571.1861525000131,1571.1861525000131,1571.1861525000131,1571.1861525000131,1571.1861525000131,1571.1861525000131,1571.1861525000131,1571.1699396499898,4.322345599997789,return,4.182471999985864,,,,,,,,,,,,,,,,,,,,,,,,,,,,,,,,,5M1A4Y,train_x,red_square,bottom_left,2025-03-22_11h10.40.316,HideSeek_v1,2022.2.5,59.92972640841288,
,3,3,7,3,4,0,56,,train_dim1_1,16,30,,,,2,0,2,0,,,,,,,,,0,0,0,0,0,15,15,15,1,0,1,0,,,,,,,,,,,,,,,,,,,,,,,,,,,,,,,,,,,,,,,,,,,,,,,,,,,,,,,,,,,,,,,,30,,,,,,,,1578.7252813999949,1578.7252813999949,1578.7252813999949,1578.7252813999949,1578.7252813999949,right,0.6766066999989562,8,0,0,99,0.24,-0.16,right,0.5905207000032533,,,,,,,,,,,,,,,,,,,,,,,,,,,,,,,,,,,,,,,,,,,,,,,,,,,,,,,,,,,,5M1A4Y,train_x,red_square,bottom_left,2025-03-22_11h10.40.316,HideSeek_v1,2022.2.5,59.92972640841288,
,3,3,7,3,4,0,56,,train_dim1_1,16,30,,,,2,0,2,0,,,,,,,,,0,0,0,0,0,15,15,15,2,0,2,0,,,,,,,,,,,,,,,,,,,,,,,,,,,,,,,,,,,,,,,,,,,,,,,,,,,,,,,,,,,,,,,,30,,,,,,,,1579.4082419000042,1579.4082419000042,1579.4082419000042,1579.4082419000042,1579.4082419000042,right,0.7770475000143051,8,0,0,99,0.32,-0.16,right,0.6988064000033773,,,,,,,,,,,,,,,,,,,,,,,,,,,,,,,,,,,,,,,,,,,,,,,,,,,,,,,,,,,,5M1A4Y,train_x,red_square,bottom_left,2025-03-22_11h10.40.316,HideSeek_v1,2022.2.5,59.92972640841288,
,3,3,7,3,4,0,56,,train_dim1_1,16,30,,,,2,0,2,0,,,,,,,,,0,0,0,0,0,15,15,15,3,0,3,0,,,,,,,,,,,,,,,,,,,,,,,,,,,,,,,,,,,,,,,,,,,,,,,,,,,,,,,,,,,,,,,,30,,,,,,,,1580.1923582000018,1580.1923582000018,1580.1923582000018,1580.1923582000018,1580.1923582000018,right,1.010627999989083,8,0,0,99,0.4,-0.16,right,0.9273189000086859,,,,,,,,,,,,,,,,,,,,,,,,,,,,,,,,,,,,,,,,,,,,,,,,,,,,,,,,,,,,5M1A4Y,train_x,red_square,bottom_left,2025-03-22_11h10.40.316,HideSeek_v1,2022.2.5,59.92972640841288,
,3,3,7,3,4,0,56,,train_dim1_1,16,30,,,,2,0,2,0,,,,,,,,,0,0,0,0,0,15,15,15,4,0,4,0,,,,,,,,,,,,,,,,,,,,,,,,,,,,,,,,,,,,,,,,,,,,,,,,,,,,,,,,,,,,,,,,30,,,,,,,,1581.209265499987,1581.209265499987,1581.209265499987,1581.209265499987,1581.209265499987,left,1.8612423000158742,8,0,0,99,0.32,-0.16,left,1.7778759000066202,,,,,,,,,,,,,,,,,,,,,,,,,,,,,,,,,,,,,,,,,,,,,,,,,,,,,,,,,,,,5M1A4Y,train_x,red_square,bottom_left,2025-03-22_11h10.40.316,HideSeek_v1,2022.2.5,59.92972640841288,
,3,3,7,3,4,0,56,,train_dim1_1,16,30,,,,2,0,2,0,,,,,,,,,0,0,0,0,0,15,15,15,5,0,5,0,,,,,,,,,,,,,,,,,,,,,,,,,,,,,,,,,,,,,,,,,,,,,,,,,,,,,,,,,,,,,,,,30,,,,,,,,1583.0786976999952,1583.0786976999952,1583.0786976999952,1583.0786976999952,1583.0786976999952,right,1.310903400008101,8,0,0,99,0.4,-0.16,right,1.2255150999990292,,,,,,,,,,,,,,,,,,,,,,,,,,,,,,,,,,,,,,,,,,,,,,,,,,,,,,,,,,,,5M1A4Y,train_x,red_square,bottom_left,2025-03-22_11h10.40.316,HideSeek_v1,2022.2.5,59.92972640841288,
,3,3,7,3,4,0,56,,train_dim1_1,16,30,,,,2,0,2,0,,,,,,,,,0,0,0,0,0,15,15,15,6,0,6,0,,,,,,,,,,,,,,,,,,,,,,,,,,,,,,,,,,,,,,,,,,,,,,,,,,,,,,,,,,,,,,,,30,,,,,,,,1584.3957074999926,1584.3957074999926,1584.3957074999926,1584.3957074999926,1584.3957074999926,return,0.36019839998334646,9,0,0,1,0.4,-0.16,return,0.27686159999575466,2,41,0.4,-0.16,,,,,,,,,,,,,,,,,,,,,,,,,,,,,,,,,,,,,,,,,,,,,,,,,,,,,,,,5M1A4Y,train_x,red_square,bottom_left,2025-03-22_11h10.40.316,HideSeek_v1,2022.2.5,59.92972640841288,
,2,4,3,4,1,0,26,,train_dim1_1,17,30,,,,2,0,2,0,,,,,,,,,0,0,0,0,0,16,16,16,0,0,0,0,,,,,,,,,,,,,,,,,,,,,,,,,stimuli/alien_stimuli/26.png,,,,,,,,,,,,,,,,,,,,,,,,,,,,,stimuli/alien_stimuli/56.png,56,3,18,,,,,,,30,,,,,,,,1591.0477106999897,1591.0477106999897,1591.0477106999897,1591.0477106999897,1591.0477106999897,right,3.491396400000667,9,0,0,99,0.08,-0.08,right,3.400948399998015,,,,,1589.4850562000065,1591.0477106999897,0.4,-0.16,0.0,0.32,-0.16,0.4,0.24000000000000002,0.4,-0.16,1586.334680400003,1586.334680400003,1586.334680400003,1586.334680400003,1586.334680400003,1586.334680400003,1586.334680400003,1586.334680400003,1586.3158963499882,3.271486100013135,return,3.1237245999800507,,,,,,,,,,,,,,,,,,,,,,,,,,,,,,,,,5M1A4Y,train_x,red_square,bottom_left,2025-03-22_11h10.40.316,HideSeek_v1,2022.2.5,59.92972640841288,
,2,4,3,4,1,0,26,,train_dim1_1,17,30,,,,2,0,2,0,,,,,,,,,0,0,0,0,0,16,16,16,1,0,1,0,,,,,,,,,,,,,,,,,,,,,,,,,,,,,,,,,,,,,,,,,,,,,,,,,,,,,,,,,,,,,,,,30,,,,,,,,1594.5397182999877,1594.5397182999877,1594.5397182999877,1594.5397182999877,1594.5397182999877,return,0.7264808000181802,10,0,0,1,0.08,-0.08,return,0.638555899990024,2,42,0.08,-0.08,,,,,,,,,,,,,,,,,,,,,,,,,,,,,,,,,,,,,,,,,,,,,,,,,,,,,,,,5M1A4Y,train_x,red_square,bottom_left,2025-03-22_11h10.40.316,HideSeek_v1,2022.2.5,59.92972640841288,
,2,1,7,1,5,0,66,,train_dim1_1,18,30,,,,2,0,2,0,,,,,,,,,0,0,0,0,0,17,17,17,0,0,0,0,,,,,,,,,,,,,,,,,,,,,,,,,stimuli/alien_stimuli/66.png,,,,,,,,,,,,,,,,,,,,,,,,,,,,,stimuli/alien_stimuli/26.png,26,2,19,,,,,,,30,,,,,,,,1599.8638116999937,1599.8638116999937,1599.8638116999937,1599.8638116999937,1599.8638116999937,right,1.2739006000047084,10,0,0,99,0.08,-0.32,right,1.1667887000076007,,,,,1598.2923221999954,1599.8638116999937,0.08,-0.08,0.0,0.08,-0.08,0.08,0.04,0.08,-0.08,1596.861436600011,1596.861436600011,1596.861436600011,1596.861436600011,1596.861436600011,1596.861436600011,1596.861436600011,1596.861436600011,1596.8413926000067,1.5704255000164267,return,1.4111858000105713,,,,,,,,,,,,,,,,,,,,,,,,,,,,,,,,,5M1A4Y,train_x,red_square,bottom_left,2025-03-22_11h10.40.316,HideSeek_v1,2022.2.5,59.92972640841288,
,2,1,7,1,5,0,66,,train_dim1_1,18,30,,,,2,0,2,0,,,,,,,,,0,0,0,0,0,17,17,17,1,0,1,0,,,,,,,,,,,,,,,,,,,,,,,,,,,,,,,,,,,,,,,,,,,,,,,,,,,,,,,,,,,,,,,,30,,,,,,,,1601.1252996000112,1601.1252996000112,1601.1252996000112,1601.1252996000112,1601.1252996000112,right,0.6259476999985054,10,0,0,99,0.16,-0.32,right,0.5506278999964707,,,,,,,,,,,,,,,,,,,,,,,,,,,,,,,,,,,,,,,,,,,,,,,,,,,,,,,,,,,,5M1A4Y,train_x,red_square,bottom_left,2025-03-22_11h10.40.316,HideSeek_v1,2022.2.5,59.92972640841288,
,2,1,7,1,5,0,66,,train_dim1_1,18,30,,,,2,0,2,0,,,,,,,,,0,0,0,0,0,17,17,17,2,0,2,0,,,,,,,,,,,,,,,,,,,,,,,,,,,,,,,,,,,,,,,,,,,,,,,,,,,,,,,,,,,,,,,,30,,,,,,,,1601.7581691000087,1601.7581691000087,1601.7581691000087,1601.7581691000087,1601.7581691000087,right,0.7436259999813046,10,0,0,99,0.24,-0.32,right,0.6585809999960475,,,,,,,,,,,,,,,,,,,,,,,,,,,,,,,,,,,,,,,,,,,,,,,,,,,,,,,,,,,,5M1A4Y,train_x,red_square,bottom_left,2025-03-22_11h10.40.316,HideSeek_v1,2022.2.5,59.92972640841288,
,2,1,7,1,5,0,66,,train_dim1_1,18,30,,,,2,0,2,0,,,,,,,,,0,0,0,0,0,17,17,17,3,0,3,0,,,,,,,,,,,,,,,,,,,,,,,,,,,,,,,,,,,,,,,,,,,,,,,,,,,,,,,,,,,,,,,,30,,,,,,,,1602.50870939999,1602.50870939999,1602.50870939999,1602.50870939999,1602.50870939999,right,0.7438754999893717,10,0,0,99,0.32,-0.32,right,0.6558579000120517,,,,,,,,,,,,,,,,,,,,,,,,,,,,,,,,,,,,,,,,,,,,,,,,,,,,,,,,,,,,5M1A4Y,train_x,red_square,bottom_left,2025-03-22_11h10.40.316,HideSeek_v1,2022.2.5,59.92972640841288,
,2,1,7,1,5,0,66,,train_dim1_1,18,30,,,,2,0,2,0,,,,,,,,,0,0,0,0,0,17,17,17,4,0,4,0,,,,,,,,,,,,,,,,,,,,,,,,,,,,,,,,,,,,,,,,,,,,,,,,,,,,,,,,,,,,,,,,30,,,,,,,,1603.2585734000022,1603.2585734000022,1603.2585734000022,1603.2585734000022,1603.2585734000022,right,0.6434612000011839,10,0,0,99,0.4,-0.32,right,0.5605178000114392,,,,,,,,,,,,,,,,,,,,,,,,,,,,,,,,,,,,,,,,,,,,,,,,,,,,,,,,,,,,5M1A4Y,train_x,red_square,bottom_left,2025-03-22_11h10.40.316,HideSeek_v1,2022.2.5,59.92972640841288,
,2,1,7,1,5,0,66,,train_dim1_1,18,30,,,,2,0,2,0,,,,,,,,,0,0,0,0,0,17,17,17,5,0,5,0,,,,,,,,,,,,,,,,,,,,,,,,,,,,,,,,,,,,,,,,,,,,,,,,,,,,,,,,,,,,,,,,30,,,,,,,,1603.911831800011,1603.911831800011,1603.911831800011,1603.911831800011,1603.911831800011,return,0.6589561000000685,11,0,0,1,0.4,-0.32,return,0.5821688000287395,2,47,0.4,-0.32,,,,,,,,,,,,,,,,,,,,,,,,,,,,,,,,,,,,,,,,,,,,,,,,,,,,,,,,5M1A4Y,train_x,red_square,bottom_left,2025-03-22_11h10.40.316,HideSeek_v1,2022.2.5,59.92972640841288,
,0,3,3,3,3,0,46,,train_dim1_1,19,30,,,,2,0,2,0,,,,,,,,,0,0,0,0,0,18,18,18,0,0,0,0,,,,,,,,,,,,,,,,,,,,,,,,,stimuli/alien_stimuli/46.png,,,,,,,,,,,,,,,,,,,,,,,,,,,,,stimuli/alien_stimuli/66.png,66,2,20,,,,,,,30,,,,,,,,1613.0802192999981,1613.0802192999981,1613.0802192999981,1613.0802192999981,1613.0802192999981,right,2.0214558000152465,11,0,0,99,-0.08,-0.16,right,1.9422218999825418,,,,,1611.520102600014,1613.0802192999981,0.4,-0.32,0.0,0.4,-0.32,0.4,0.2,0.4,-0.32,1606.136226600007,1606.136226600007,1606.136226600007,1606.136226600007,1606.136226600007,1606.136226600007,1606.136226600007,1606.136226600007,1606.1156085999974,5.490047700004652,return,5.356610500020906,,,,,,,,,,,,,,,,,,,,,,,,,,,,,,,,,5M1A4Y,train_x,red_square,bottom_left,2025-03-22_11h10.40.316,HideSeek_v1,2022.2.5,59.92972640841288,
,0,3,3,3,3,0,46,,train_dim1_1,19,30,,,,2,0,2,0,,,,,,,,,0,0,0,0,0,18,18,18,1,0,1,0,,,,,,,,,,,,,,,,,,,,,,,,,,,,,,,,,,,,,,,,,,,,,,,,,,,,,,,,,,,,,,,,30,,,,,,,,1615.103615,1615.103615,1615.103615,1615.103615,1615.103615,right,0.7772289999993518,11,0,0,99,0.0,-0.16,right,0.6891290000057779,,,,,,,,,,,,,,,,,,,,,,,,,,,,,,,,,,,,,,,,,,,,,,,,,,,,,,,,,,,,5M1A4Y,train_x,red_square,bottom_left,2025-03-22_11h10.40.316,HideSeek_v1,2022.2.5,59.92972640841288,
,0,3,3,3,3,0,46,,train_dim1_1,19,30,,,,2,0,2,0,,,,,,,,,0,0,0,0,0,18,18,18,2,0,2,0,,,,,,,,,,,,,,,,,,,,,,,,,,,,,,,,,,,,,,,,,,,,,,,,,,,,,,,,,,,,,,,,30,,,,,,,,1615.887077099993,1615.887077099993,1615.887077099993,1615.887077099993,1615.887077099993,right,0.7431928000005428,11,0,0,99,0.08,-0.16,right,0.6552392000157852,,,,,,,,,,,,,,,,,,,,,,,,,,,,,,,,,,,,,,,,,,,,,,,,,,,,,,,,,,,,5M1A4Y,train_x,red_square,bottom_left,2025-03-22_11h10.40.316,HideSeek_v1,2022.2.5,59.92972640841288,
,0,3,3,3,3,0,46,,train_dim1_1,19,30,,,,2,0,2,0,,,,,,,,,0,0,0,0,0,18,18,18,3,0,3,0,,,,,,,,,,,,,,,,,,,,,,,,,,,,,,,,,,,,,,,,,,,,,,,,,,,,,,,,,,,,,,,,30,,,,,,,,1616.6369844000146,1616.6369844000146,1616.6369844000146,1616.6369844000146,1616.6369844000146,return,1.0600827999878675,12,0,0,1,0.08,-0.16,return,0.9726494000060484,2,50,0.08,-0.16,,,,,,,,,,,,,,,,,,,,,,,,,,,,,,,,,,,,,,,,,,,,,,,,,,,,,,,,5M1A4Y,train_x,red_square,bottom_left,2025-03-22_11h10.40.316,HideSeek_v1,2022.2.5,59.92972640841288,
,0,1,0,1,0,0,16,,train_dim1_1,20,30,,,,2,0,2,0,,,,,,,,,0,0,0,0,0,19,19,19,0,0,0,0,,,,,,,,,,,,,,,,,,,,,,,,,stimuli/alien_stimuli/16.png,,,,,,,,,,,,,,,,,,,,,,,,,,,,,stimuli/alien_stimuli/46.png,46,0,21,,,,,,,30,,,,,,,,1622.0518457000144,1622.0518457000144,1622.0518457000144,1622.0518457000144,1622.0518457000144,return,3.725738100009039,13,0,0,1,-0.16,-0.32,return,3.625783399998909,2,50,-0.16,-0.32,1620.4773977999866,1622.0518457000144,0.08,-0.16,0.0,0.24,-0.16,0.08,-0.04,0.08,-0.16,1619.2754163999925,1619.2754163999925,1619.2754163999925,1619.2754163999925,1619.2754163999925,1619.2754163999925,1619.2754163999925,1619.2754163999925,1619.2598152499995,1.3202159999927972,return,1.1824795999855269,,,,,,,,,,,,,,,,,,,,,,,,,,,,,,,,,5M1A4Y,train_x,red_square,bottom_left,2025-03-22_11h10.40.316,HideSeek_v1,2022.2.5,59.92972640841288,
,4,2,7,2,3,0,46,,train_dim1_1,21,30,,,,2,0,2,0,,,,,,,,,0,0,0,0,0,20,20,20,0,0,0,0,,,,,,,,,,,,,,,,,,,,,,,,,stimuli/alien_stimuli/46.png,,,,,,,,,,,,,,,,,,,,,,,,,,,,,stimuli/alien_stimuli/16.png,16,0,22,,,,,,,30,,,,,,,,1630.4947228000092,1630.4947228000092,1630.4947228000092,1630.4947228000092,1630.4947228000092,right,1.6711967999872286,13,0,0,99,0.24,-0.24,right,1.5661824999842793,,,,,1628.9178235,1630.4947228000092,-0.16,-0.32,0.0,0.0,-0.32,-0.16,-0.16,-0.16,-0.32,1627.327967899997,1627.327967899997,1627.327967899997,1627.327967899997,1627.327967899997,1627.327967899997,1627.327967899997,1627.327967899997,1627.3163862499932,1.7038813999970444,return,1.5740672000101767,,,,,,,,,,,,,,,,,,,,,,,,,,,,,,,,,5M1A4Y,train_x,red_square,bottom_left,2025-03-22_11h10.40.316,HideSeek_v1,2022.2.5,59.92972640841288,
,4,2,7,2,3,0,46,,train_dim1_1,21,30,,,,2,0,2,0,,,,,,,,,0,0,0,0,0,20,20,20,1,0,1,0,,,,,,,,,,,,,,,,,,,,,,,,,,,,,,,,,,,,,,,,,,,,,,,,,,,,,,,,,,,,,,,,30,,,,,,,,1632.1504259000067,1632.1504259000067,1632.1504259000067,1632.1504259000067,1632.1504259000067,right,0.7110092999937478,13,0,0,99,0.32,-0.24,right,0.6256753999914508,,,,,,,,,,,,,,,,,,,,,,,,,,,,,,,,,,,,,,,,,,,,,,,,,,,,,,,,,,,,5M1A4Y,train_x,red_square,bottom_left,2025-03-22_11h10.40.316,HideSeek_v1,2022.2.5,59.92972640841288,
,4,2,7,2,3,0,46,,train_dim1_1,21,30,,,,2,0,2,0,,,,,,,,,0,0,0,0,0,20,20,20,2,0,2,0,,,,,,,,,,,,,,,,,,,,,,,,,,,,,,,,,,,,,,,,,,,,,,,,,,,,,,,,,,,,,,,,30,,,,,,,,1632.8684896999912,1632.8684896999912,1632.8684896999912,1632.8684896999912,1632.8684896999912,right,0.5593313999997918,13,0,0,99,0.4,-0.24,right,0.473170699988259,,,,,,,,,,,,,,,,,,,,,,,,,,,,,,,,,,,,,,,,,,,,,,,,,,,,,,,,,,,,5M1A4Y,train_x,red_square,bottom_left,2025-03-22_11h10.40.316,HideSeek_v1,2022.2.5,59.92972640841288,
,4,2,7,2,3,0,46,,train_dim1_1,21,30,,,,2,0,2,0,,,,,,,,,0,0,0,0,0,20,20,20,3,0,3,0,,,,,,,,,,,,,,,,,,,,,,,,,,,,,,,,,,,,,,,,,,,,,,,,,,,,,,,,,,,,,,,,30,,,,,,,,1633.4338685999974,1633.4338685999974,1633.4338685999974,1633.4338685999974,1633.4338685999974,return,0.8771374000061769,14,0,0,1,0.4,-0.24,return,0.8008582000038587,2,53,0.4,-0.24,,,,,,,,,,,,,,,,,,,,,,,,,,,,,,,,,,,,,,,,,,,,,,,,,,,,,,,,5M1A4Y,train_x,red_square,bottom_left,2025-03-22_11h10.40.316,HideSeek_v1,2022.2.5,59.92972640841288,
,1,0,2,0,1,0,26,,train_dim1_1,22,30,,,,2,0,2,0,,,,,,,,,0,0,0,0,0,21,21,21,0,0,0,0,,,,,,,,,,,,,,,,,,,,,,,,,stimuli/alien_stimuli/26.png,,,,,,,,,,,,,,,,,,,,,,,,,,,,,stimuli/alien_stimuli/46.png,46,4,23,,,,,,,30,,,,,,,,1638.91625509999,1638.91625509999,1638.91625509999,1638.91625509999,1638.91625509999,return,2.741511200001696,14,1,0,0,-0.08,-0.4,return,2.644983100006357,2,53,-0.08,-0.4,1637.3414081000083,1638.91625509999,0.4,-0.24,0.0,0.24,-0.24,0.4,0.28,0.4,-0.24,1635.8752913000062,1635.8752913000062,1635.8752913000062,1635.8752913000062,1635.8752913000062,1635.8752913000062,1635.8752913000062,1635.8752913000062,1635.8568436999922,1.5705352999793831,return,1.4486532000009902,,,,,,,,,,,,,,,,,,,,,,,,,,,,,,,,,5M1A4Y,train_x,red_square,bottom_left,2025-03-22_11h10.40.316,HideSeek_v1,2022.2.5,59.92972640841288,
,2,1,7,1,5,0,66,,train_dim1_1,23,30,,,,2,0,2,0,,,,,,,,,0,0,0,0,0,22,22,22,0,0,0,0,,,,,,,,,,,,,,,,,,,,,,,,,stimuli/alien_stimuli/66.png,,,,,,,,,,,,,,,,,,,,,,,,,,,,,stimuli/alien_stimuli/26.png,26,1,24,,,,,,,30,,,,,,,,1650.3768714999896,1650.3768714999896,1650.3768714999896,1650.3768714999896,1650.3768714999896,right,1.7888012999901548,14,1,0,99,0.08,-0.32,right,1.6985126999788918,,,,,1648.8181943999953,1650.3768714999896,0,-0.4,0.0,0.08,-0.4,0,-0.04,0,-0.4,1643.205123599997,1643.205123599997,1643.205123599997,1643.205123599997,1643.205123599997,1643.205123599997,1643.205123599997,1643.205123599997,1643.1964715500071,5.724011900019832,return,5.587653700000374,,,,,,,,,,,,,,,,,,,,,,,,,,,,,,,,,5M1A4Y,train_x,red_square,bottom_left,2025-03-22_11h10.40.316,HideSeek_v1,2022.2.5,59.92972640841288,
,2,1,7,1,5,0,66,,train_dim1_1,23,30,,,,2,0,2,0,,,,,,,,,0,0,0,0,0,22,22,22,1,0,1,0,,,,,,,,,,,,,,,,,,,,,,,,,,,,,,,,,,,,,,,,,,,,,,,,,,,,,,,,,,,,,,,,30,,,,,,,,1652.1676993000146,1652.1676993000146,1652.1676993000146,1652.1676993000146,1652.1676993000146,right,0.6934716000105254,14,1,0,99,0.16,-0.32,right,0.6074818000197411,,,,,,,,,,,,,,,,,,,,,,,,,,,,,,,,,,,,,,,,,,,,,,,,,,,,,,,,,,,,5M1A4Y,train_x,red_square,bottom_left,2025-03-22_11h10.40.316,HideSeek_v1,2022.2.5,59.92972640841288,
,2,1,7,1,5,0,66,,train_dim1_1,23,30,,,,2,0,2,0,,,,,,,,,0,0,0,0,0,22,22,22,2,0,2,0,,,,,,,,,,,,,,,,,,,,,,,,,,,,,,,,,,,,,,,,,,,,,,,,,,,,,,,,,,,,,,,,30,,,,,,,,1652.8758267000085,1652.8758267000085,1652.8758267000085,1652.8758267000085,1652.8758267000085,right,0.7385994000069331,14,1,0,99,0.24,-0.32,right,0.6478430000133812,,,,,,,,,,,,,,,,,,,,,,,,,,,,,,,,,,,,,,,,,,,,,,,,,,,,,,,,,,,,5M1A4Y,train_x,red_square,bottom_left,2025-03-22_11h10.40.316,HideSeek_v1,2022.2.5,59.92972640841288,
,2,1,7,1,5,0,66,,train_dim1_1,23,30,,,,2,0,2,0,,,,,,,,,0,0,0,0,0,22,22,22,3,0,3,0,,,,,,,,,,,,,,,,,,,,,,,,,,,,,,,,,,,,,,,,,,,,,,,,,,,,,,,,,,,,,,,,30,,,,,,,,1653.6192991000134,1653.6192991000134,1653.6192991000134,1653.6192991000134,1653.6192991000134,right,0.6927614000160247,14,1,0,99,0.32,-0.32,right,0.6153197000094224,,,,,,,,,,,,,,,,,,,,,,,,,,,,,,,,,,,,,,,,,,,,,,,,,,,,,,,,,,,,5M1A4Y,train_x,red_square,bottom_left,2025-03-22_11h10.40.316,HideSeek_v1,2022.2.5,59.92972640841288,
,2,1,7,1,5,0,66,,train_dim1_1,23,30,,,,2,0,2,0,,,,,,,,,0,0,0,0,0,22,22,22,4,0,4,0,,,,,,,,,,,,,,,,,,,,,,,,,,,,,,,,,,,,,,,,,,,,,,,,,,,,,,,,,,,,,,,,30,,,,,,,,1654.3194017999922,1654.3194017999922,1654.3194017999922,1654.3194017999922,1654.3194017999922,right,0.676455500011798,14,1,0,99,0.4,-0.32,right,0.6037664000177756,,,,,,,,,,,,,,,,,,,,,,,,,,,,,,,,,,,,,,,,,,,,,,,,,,,,,,,,,,,,5M1A4Y,train_x,red_square,bottom_left,2025-03-22_11h10.40.316,HideSeek_v1,2022.2.5,59.92972640841288,
,2,1,7,1,5,0,66,,train_dim1_1,23,30,,,,2,0,2,0,,,,,,,,,0,0,0,0,0,22,22,22,5,0,5,0,,,,,,,,,,,,,,,,,,,,,,,,,,,,,,,,,,,,,,,,,,,,,,,,,,,,,,,,,,,,,,,,30,,,,,,,,1655.0017631000082,1655.0017631000082,1655.0017631000082,1655.0017631000082,1655.0017631000082,return,0.6767140000010841,15,0,0,1,0.4,-0.32,return,0.5926434999855701,2,58,0.4,-0.32,,,,,,,,,,,,,,,,,,,,,,,,,,,,,,,,,,,,,,,,,,,,,,,,,,,,,,,,5M1A4Y,train_x,red_square,bottom_left,2025-03-22_11h10.40.316,HideSeek_v1,2022.2.5,59.92972640841288,
,4,4,8,4,4,0,56,,train_dim1_1,24,30,,,,2,0,2,0,,,,,,,,,0,0,0,0,0,23,23,23,0,0,0,0,,,,,,,,,,,,,,,,,,,,,,,,,stimuli/alien_stimuli/56.png,,,,,,,,,,,,,,,,,,,,,,,,,,,,,stimuli/alien_stimuli/66.png,66,2,25,,,,,,,30,,,,,,,,1663.8073920999886,1663.8073920999886,1663.8073920999886,1663.8073920999886,1663.8073920999886,right,1.839012799988268,15,0,0,99,0.24,-0.08,right,1.7528145000105724,,,,,1662.2456445000134,1663.8073920999886,0.4,-0.32,0.0,0.4,-0.32,0.4,0.2,0.4,-0.32,1657.2608275999955,1657.2608275999955,1657.2608275999955,1657.2608275999955,1657.2608275999955,1657.2608275999955,1657.2608275999955,1657.2608275999955,1657.241336749983,5.106330900016474,return,4.966613900003722,,,,,,,,,,,,,,,,,,,,,,,,,,,,,,,,,5M1A4Y,train_x,red_square,bottom_left,2025-03-22_11h10.40.316,HideSeek_v1,2022.2.5,59.92972640841288,
,4,4,8,4,4,0,56,,train_dim1_1,24,30,,,,2,0,2,0,,,,,,,,,0,0,0,0,0,23,23,23,1,0,1,0,,,,,,,,,,,,,,,,,,,,,,,,,,,,,,,,,,,,,,,,,,,,,,,,,,,,,,,,,,,,,,,,30,,,,,,,,1665.647809599992,1665.647809599992,1665.647809599992,1665.647809599992,1665.647809599992,right,0.6759563999949023,15,0,0,99,0.32,-0.08,right,0.5927488000015728,,,,,,,,,,,,,,,,,,,,,,,,,,,,,,,,,,,,,,,,,,,,,,,,,,,,,,,,,,,,5M1A4Y,train_x,red_square,bottom_left,2025-03-22_11h10.40.316,HideSeek_v1,2022.2.5,59.92972640841288,
,4,4,8,4,4,0,56,,train_dim1_1,24,30,,,,2,0,2,0,,,,,,,,,0,0,0,0,0,23,23,23,2,0,2,0,,,,,,,,,,,,,,,,,,,,,,,,,,,,,,,,,,,,,,,,,,,,,,,,,,,,,,,,,,,,,,,,30,,,,,,,,1666.331533199991,1666.331533199991,1666.331533199991,1666.331533199991,1666.331533199991,right,0.6267487999866717,15,0,0,99,0.4,-0.08,right,0.5442593000188936,,,,,,,,,,,,,,,,,,,,,,,,,,,,,,,,,,,,,,,,,,,,,,,,,,,,,,,,,,,,5M1A4Y,train_x,red_square,bottom_left,2025-03-22_11h10.40.316,HideSeek_v1,2022.2.5,59.92972640841288,
,4,4,8,4,4,0,56,,train_dim1_1,24,30,,,,2,0,2,0,,,,,,,,,0,0,0,0,0,23,23,23,3,0,3,0,,,,,,,,,,,,,,,,,,,,,,,,,,,,,,,,,,,,,,,,,,,,,,,,,,,,,,,,,,,,,,,,30,,,,,,,,1666.9646457000053,1666.9646457000053,1666.9646457000053,1666.9646457000053,1666.9646457000053,right,1.8777207999955863,15,0,0,99,0.48000000000000004,-0.08,right,1.7923985999950673,,,,,,,,,,,,,,,,,,,,,,,,,,,,,,,,,,,,,,,,,,,,,,,,,,,,,,,,,,,,5M1A4Y,train_x,red_square,bottom_left,2025-03-22_11h10.40.316,HideSeek_v1,2022.2.5,59.92972640841288,
,4,4,8,4,4,0,56,,train_dim1_1,24,30,,,,2,0,2,0,,,,,,,,,0,0,0,0,0,23,23,23,4,0,4,0,,,,,,,,,,,,,,,,,,,,,,,,,,,,,,,,,,,,,,,,,,,,,,,,,,,,,,,,,,,,,,,,30,,,,,,,,1668.849385300011,1668.849385300011,1668.849385300011,1668.849385300011,1668.849385300011,left,1.777750000008382,15,0,0,99,0.4,-0.08,left,1.6948940000147559,,,,,,,,,,,,,,,,,,,,,,,,,,,,,,,,,,,,,,,,,,,,,,,,,,,,,,,,,,,,5M1A4Y,train_x,red_square,bottom_left,2025-03-22_11h10.40.316,HideSeek_v1,2022.2.5,59.92972640841288,
,4,4,8,4,4,0,56,,train_dim1_1,24,30,,,,2,0,2,0,,,,,,,,,0,0,0,0,0,23,23,23,5,0,5,0,,,,,,,,,,,,,,,,,,,,,,,,,,,,,,,,,,,,,,,,,,,,,,,,,,,,,,,,,,,,,,,,30,,,,,,,,1670.6365110999905,1670.6365110999905,1670.6365110999905,1670.6365110999905,1670.6365110999905,right,0.7087822999747004,15,0,0,99,0.48000000000000004,-0.08,right,0.6247709000017494,,,,,,,,,,,,,,,,,,,,,,,,,,,,,,,,,,,,,,,,,,,,,,,,,,,,,,,,,,,,5M1A4Y,train_x,red_square,bottom_left,2025-03-22_11h10.40.316,HideSeek_v1,2022.2.5,59.92972640841288,
,4,4,8,4,4,0,56,,train_dim1_1,24,30,,,,2,0,2,0,,,,,,,,,0,0,0,0,0,23,23,23,6,0,6,0,,,,,,,,,,,,,,,,,,,,,,,,,,,,,,,,,,,,,,,,,,,,,,,,,,,,,,,,,,,,,,,,30,,,,,,,,1671.3520145000075,1671.3520145000075,1671.3520145000075,1671.3520145000075,1671.3520145000075,return,0.6432749000086915,16,0,0,1,0.48000000000000004,-0.08,return,0.5689360999967903,2,62,0.48000000000000004,-0.08,,,,,,,,,,,,,,,,,,,,,,,,,,,,,,,,,,,,,,,,,,,,,,,,,,,,,,,,5M1A4Y,train_x,red_square,bottom_left,2025-03-22_11h10.40.316,HideSeek_v1,2022.2.5,59.92972640841288,
,3,0,3,0,0,0,16,,train_dim1_1,25,30,,,,2,0,2,0,,,,,,,,,0,0,0,0,0,24,24,24,0,0,0,0,,,,,,,,,,,,,,,,,,,,,,,,,stimuli/alien_stimuli/16.png,,,,,,,,,,,,,,,,,,,,,,,,,,,,,stimuli/alien_stimuli/56.png,56,4,26,,,,,,,30,,,,,,,,1678.1396136000112,1678.1396136000112,1678.1396136000112,1678.1396136000112,1678.1396136000112,return,2.5391731999989133,17,0,0,1,0.08,-0.4,return,2.4535514999879524,2,62,0.08,-0.4,1676.5740583000006,1678.1396136000112,0.48,-0.08,0.0,0.32,-0.08,0.48,0.32,0.48,-0.08,1673.5723516000144,1673.5723516000144,1673.5723516000144,1673.5723516000144,1673.5723516000144,1673.5723516000144,1673.5723516000144,1673.5723516000144,1673.5546936499886,3.121561199979624,return,2.976838000002317,,,,,,,,,,,,,,,,,,,,,,,,,,,,,,,,,5M1A4Y,train_x,red_square,bottom_left,2025-03-22_11h10.40.316,HideSeek_v1,2022.2.5,59.92972640841288,
,1,1,6,1,5,0,66,,train_dim1_1,26,30,,,,2,0,2,0,,,,,,,,,0,0,0,0,0,25,25,25,0,0,0,0,,,,,,,,,,,,,,,,,,,,,,,,,stimuli/alien_stimuli/66.png,,,,,,,,,,,,,,,,,,,,,,,,,,,,,stimuli/alien_stimuli/16.png,16,3,27,,,,,,,30,,,,,,,,1685.7108403999882,1685.7108403999882,1685.7108403999882,1685.7108403999882,1685.7108403999882,right,1.7549698000075296,17,0,0,99,0.0,-0.32,right,1.6454363999946509,,,,,1684.1303910000133,1685.7108403999882,0.08,-0.4,0.0,0.0,-0.4,0.08,0.08,0.08,-0.4,1682.2594376000052,1682.2594376000052,1682.2594376000052,1682.2594376000052,1682.2594376000052,1682.2594376000052,1682.2594376000052,1682.2594376000052,1682.2456545000023,2.003544299979694,return,1.8386410000093747,,,,,,,,,,,,,,,,,,,,,,,,,,,,,,,,,5M1A4Y,train_x,red_square,bottom_left,2025-03-22_11h10.40.316,HideSeek_v1,2022.2.5,59.92972640841288,
,1,1,6,1,5,0,66,,train_dim1_1,26,30,,,,2,0,2,0,,,,,,,,,0,0,0,0,0,25,25,25,1,0,1,0,,,,,,,,,,,,,,,,,,,,,,,,,,,,,,,,,,,,,,,,,,,,,,,,,,,,,,,,,,,,,,,,30,,,,,,,,1687.4555531000078,1687.4555531000078,1687.4555531000078,1687.4555531000078,1687.4555531000078,right,0.5045616999850608,17,0,0,99,0.08,-0.32,right,0.41708220000145957,,,,,,,,,,,,,,,,,,,,,,,,,,,,,,,,,,,,,,,,,,,,,,,,,,,,,,,,,,,,5M1A4Y,train_x,red_square,bottom_left,2025-03-22_11h10.40.316,HideSeek_v1,2022.2.5,59.92972640841288,
,1,1,6,1,5,0,66,,train_dim1_1,26,30,,,,2,0,2,0,,,,,,,,,0,0,0,0,0,25,25,25,2,0,2,0,,,,,,,,,,,,,,,,,,,,,,,,,,,,,,,,,,,,,,,,,,,,,,,,,,,,,,,,,,,,,,,,30,,,,,,,,1687.9632479000138,1687.9632479000138,1687.9632479000138,1687.9632479000138,1687.9632479000138,right,0.5433899000054225,17,0,0,99,0.16,-0.32,right,0.4718756999936886,,,,,,,,,,,,,,,,,,,,,,,,,,,,,,,,,,,,,,,,,,,,,,,,,,,,,,,,,,,,5M1A4Y,train_x,red_square,bottom_left,2025-03-22_11h10.40.316,HideSeek_v1,2022.2.5,59.92972640841288,
,1,1,6,1,5,0,66,,train_dim1_1,26,30,,,,2,0,2,0,,,,,,,,,0,0,0,0,0,25,25,25,3,0,3,0,,,,,,,,,,,,,,,,,,,,,,,,,,,,,,,,,,,,,,,,,,,,,,,,,,,,,,,,,,,,,,,,30,,,,,,,,1688.5141774000076,1688.5141774000076,1688.5141774000076,1688.5141774000076,1688.5141774000076,right,0.576925500005018,17,0,0,99,0.24,-0.32,right,0.4923197999887634,,,,,,,,,,,,,,,,,,,,,,,,,,,,,,,,,,,,,,,,,,,,,,,,,,,,,,,,,,,,5M1A4Y,train_x,red_square,bottom_left,2025-03-22_11h10.40.316,HideSeek_v1,2022.2.5,59.92972640841288,
,1,1,6,1,5,0,66,,train_dim1_1,26,30,,,,2,0,2,0,,,,,,,,,0,0,0,0,0,25,25,25,4,0,4,0,,,,,,,,,,,,,,,,,,,,,,,,,,,,,,,,,,,,,,,,,,,,,,,,,,,,,,,,,,,,,,,,30,,,,,,,,1689.097776700015,1689.097776700015,1689.097776700015,1689.097776700015,1689.097776700015,right,0.5767984999984037,17,0,0,99,0.32,-0.32,right,0.4990150000085123,,,,,,,,,,,,,,,,,,,,,,,,,,,,,,,,,,,,,,,,,,,,,,,,,,,,,,,,,,,,5M1A4Y,train_x,red_square,bottom_left,2025-03-22_11h10.40.316,HideSeek_v1,2022.2.5,59.92972640841288,
,1,1,6,1,5,0,66,,train_dim1_1,26,30,,,,2,0,2,0,,,,,,,,,0,0,0,0,0,25,25,25,5,0,5,0,,,,,,,,,,,,,,,,,,,,,,,,,,,,,,,,,,,,,,,,,,,,,,,,,,,,,,,,,,,,,,,,30,,,,,,,,1689.6816094999958,1689.6816094999958,1689.6816094999958,1689.6816094999958,1689.6816094999958,return,0.743512599990936,18,0,0,1,0.32,-0.32,return,0.6564478000218514,2,67,0.32,-0.32,,,,,,,,,,,,,,,,,,,,,,,,,,,,,,,,,,,,,,,,,,,,,,,,,,,,,,,,5M1A4Y,train_x,red_square,bottom_left,2025-03-22_11h10.40.316,HideSeek_v1,2022.2.5,59.92972640841288,
,0,1,3,1,3,0,46,,train_dim1_1,27,30,,,,2,0,2,0,,,,,,,,,0,0,0,0,0,26,26,26,0,0,0,0,,,,,,,,,,,,,,,,,,,,,,,,,stimuli/alien_stimuli/46.png,,,,,,,,,,,,,,,,,,,,,,,,,,,,,stimuli/alien_stimuli/66.png,66,1,28,,,,,,,30,,,,,,,,1699.6024631999899,1699.6024631999899,1699.6024631999899,1699.6024631999899,1699.6024631999899,right,2.4886046999890823,18,0,0,99,-0.08,-0.32,right,2.4044203000084963,,,,,1698.0422913999937,1699.6024631999899,0.32,-0.32,0.0,0.4,-0.32,0.32,0.12,0.32,-0.32,1691.9894560000103,1691.9894560000103,1691.9894560000103,1691.9894560000103,1691.9894560000103,1691.9894560000103,1691.9894560000103,1691.9894560000103,1691.9701303000038,6.157367800013162,return,6.0285072999831755,,,,,,,,,,,,,,,,,,,,,,,,,,,,,,,,,5M1A4Y,train_x,red_square,bottom_left,2025-03-22_11h10.40.316,HideSeek_v1,2022.2.5,59.92972640841288,
,0,1,3,1,3,0,46,,train_dim1_1,27,30,,,,2,0,2,0,,,,,,,,,0,0,0,0,0,26,26,26,1,0,1,0,,,,,,,,,,,,,,,,,,,,,,,,,,,,,,,,,,,,,,,,,,,,,,,,,,,,,,,,,,,,,,,,30,,,,,,,,1702.091237399989,1702.091237399989,1702.091237399989,1702.091237399989,1702.091237399989,right,1.694187899993267,18,0,0,99,0.0,-0.32,right,1.620130399998743,,,,,,,,,,,,,,,,,,,,,,,,,,,,,,,,,,,,,,,,,,,,,,,,,,,,,,,,,,,,5M1A4Y,train_x,red_square,bottom_left,2025-03-22_11h10.40.316,HideSeek_v1,2022.2.5,59.92972640841288,
,0,1,3,1,3,0,46,,train_dim1_1,27,30,,,,2,0,2,0,,,,,,,,,0,0,0,0,0,26,26,26,2,0,2,0,,,,,,,,,,,,,,,,,,,,,,,,,,,,,,,,,,,,,,,,,,,,,,,,,,,,,,,,,,,,,,,,30,,,,,,,,1703.792988400004,1703.792988400004,1703.792988400004,1703.792988400004,1703.792988400004,right,0.41026780000538565,18,0,0,99,0.08,-0.32,right,0.3371884000080172,,,,,,,,,,,,,,,,,,,,,,,,,,,,,,,,,,,,,,,,,,,,,,,,,,,,,,,,,,,,5M1A4Y,train_x,red_square,bottom_left,2025-03-22_11h10.40.316,HideSeek_v1,2022.2.5,59.92972640841288,
,0,1,3,1,3,0,46,,train_dim1_1,27,30,,,,2,0,2,0,,,,,,,,,0,0,0,0,0,26,26,26,3,0,3,0,,,,,,,,,,,,,,,,,,,,,,,,,,,,,,,,,,,,,,,,,,,,,,,,,,,,,,,,,,,,,,,,30,,,,,,,,1704.2096400999872,1704.2096400999872,1704.2096400999872,1704.2096400999872,1704.2096400999872,return,2.9286788999743294,19,0,0,1,0.08,-0.32,return,2.8482076000072993,2,70,0.08,-0.32,,,,,,,,,,,,,,,,,,,,,,,,,,,,,,,,,,,,,,,,,,,,,,,,,,,,,,,,5M1A4Y,train_x,red_square,bottom_left,2025-03-22_11h10.40.316,HideSeek_v1,2022.2.5,59.92972640841288,
,3,1,4,1,1,0,26,,train_dim1_1,28,30,,,,2,0,2,0,,,,,,,,,0,0,0,0,0,27,27,27,0,0,0,0,,,,,,,,,,,,,,,,,,,,,,,,,stimuli/alien_stimuli/26.png,,,,,,,,,,,,,,,,,,,,,,,,,,,,,stimuli/alien_stimuli/46.png,46,0,29,,,,,,,30,,,,,,,,1711.6652960999927,1711.6652960999927,1711.6652960999927,1711.6652960999927,1711.6652960999927,right,2.52449200002593,19,0,0,99,0.16,-0.32,right,2.408432200027164,,,,,1710.085334000003,1711.6652960999927,0.08,-0.32,0.0,0.24,-0.32,0.08,-0.04,0.08,-0.32,1708.7153471999918,1708.7153471999918,1708.7153471999918,1708.7153471999918,1708.7153471999918,1708.7153471999918,1708.7153471999918,1708.7153471999918,1708.700881249999,1.4867606999760028,return,1.3486869000189472,,,,,,,,,,,,,,,,,,,,,,,,,,,,,,,,,5M1A4Y,train_x,red_square,bottom_left,2025-03-22_11h10.40.316,HideSeek_v1,2022.2.5,59.92972640841288,
,3,1,4,1,1,0,26,,train_dim1_1,28,30,,,,2,0,2,0,,,,,,,,,0,0,0,0,0,27,27,27,1,0,1,0,,,,,,,,,,,,,,,,,,,,,,,,,,,,,,,,,,,,,,,,,,,,,,,,,,,,,,,,,,,,,,,,30,,,,,,,,1714.172544400004,1714.172544400004,1714.172544400004,1714.172544400004,1714.172544400004,return,0.45996720000403,20,0,0,1,0.16,-0.32,return,0.3759847000183072,2,71,0.16,-0.32,,,,,,,,,,,,,,,,,,,,,,,,,,,,,,,,,,,,,,,,,,,,,,,,,,,,,,,,5M1A4Y,train_x,red_square,bottom_left,2025-03-22_11h10.40.316,HideSeek_v1,2022.2.5,59.92972640841288,
,4,0,8,0,4,0,56,,train_dim1_1,29,30,,,,2,0,2,0,,,,,,,,,0,0,0,0,0,28,28,28,0,0,0,0,,,,,,,,,,,,,,,,,,,,,,,,,stimuli/alien_stimuli/56.png,,,,,,,,,,,,,,,,,,,,,,,,,,,,,stimuli/alien_stimuli/26.png,26,3,30,,,,,,,30,,,,,,,,1720.9367678000126,1720.9367678000126,1720.9367678000126,1720.9367678000126,1720.9367678000126,right,3.1408320000045933,20,0,0,99,0.24,-0.4,right,3.0528710999933537,,,,,1719.3763754999964,1720.9367678000126,0.16,-0.32,0.0,0.08,-0.32,0.16,0.12,0.16,-0.32,1716.2011233000085,1716.2011233000085,1716.2011233000085,1716.2011233000085,1716.2011233000085,1716.2011233000085,1716.2011233000085,1716.2011233000085,1716.1905704500095,3.288643800013233,return,3.144006199989235,,,,,,,,,,,,,,,,,,,,,,,,,,,,,,,,,5M1A4Y,train_x,red_square,bottom_left,2025-03-22_11h10.40.316,HideSeek_v1,2022.2.5,59.92972640841288,
,4,0,8,0,4,0,56,,train_dim1_1,29,30,,,,2,0,2,0,,,,,,,,,0,0,0,0,0,28,28,28,1,0,1,0,,,,,,,,,,,,,,,,,,,,,,,,,,,,,,,,,,,,,,,,,,,,,,,,,,,,,,,,,,,,,,,,30,,,,,,,,1724.079287200002,1724.079287200002,1724.079287200002,1724.079287200002,1724.079287200002,right,0.6758581000030972,20,0,0,99,0.32,-0.4,right,0.5906169999798294,,,,,,,,,,,,,,,,,,,,,,,,,,,,,,,,,,,,,,,,,,,,,,,,,,,,,,,,,,,,5M1A4Y,train_x,red_square,bottom_left,2025-03-22_11h10.40.316,HideSeek_v1,2022.2.5,59.92972640841288,
,4,0,8,0,4,0,56,,train_dim1_1,29,30,,,,2,0,2,0,,,,,,,,,0,0,0,0,0,28,28,28,2,0,2,0,,,,,,,,,,,,,,,,,,,,,,,,,,,,,,,,,,,,,,,,,,,,,,,,,,,,,,,,,,,,,,,,30,,,,,,,,1724.7624668999924,1724.7624668999924,1724.7624668999924,1724.7624668999924,1724.7624668999924,right,0.926960600016173,20,0,0,99,0.4,-0.4,right,0.8486780000093859,,,,,,,,,,,,,,,,,,,,,,,,,,,,,,,,,,,,,,,,,,,,,,,,,,,,,,,,,,,,5M1A4Y,train_x,red_square,bottom_left,2025-03-22_11h10.40.316,HideSeek_v1,2022.2.5,59.92972640841288,
,4,0,8,0,4,0,56,,train_dim1_1,29,30,,,,2,0,2,0,,,,,,,,,0,0,0,0,0,28,28,28,3,0,3,0,,,,,,,,,,,,,,,,,,,,,,,,,,,,,,,,,,,,,,,,,,,,,,,,,,,,,,,,,,,,,,,,30,,,,,,,,1725.6971900000062,1725.6971900000062,1725.6971900000062,1725.6971900000062,1725.6971900000062,right,0.5438414000091143,20,0,0,99,0.48000000000000004,-0.4,right,0.460725699987961,,,,,,,,,,,,,,,,,,,,,,,,,,,,,,,,,,,,,,,,,,,,,,,,,,,,,,,,,,,,5M1A4Y,train_x,red_square,bottom_left,2025-03-22_11h10.40.316,HideSeek_v1,2022.2.5,59.92972640841288,
,4,0,8,0,4,0,56,,train_dim1_1,29,30,,,,2,0,2,0,,,,,,,,,0,0,0,0,0,28,28,28,4,0,4,0,,,,,,,,,,,,,,,,,,,,,,,,,,,,,,,,,,,,,,,,,,,,,,,,,,,,,,,,,,,,,,,,30,,,,,,,,1726.2478998000151,1726.2478998000151,1726.2478998000151,1726.2478998000151,1726.2478998000151,return,0.6935302999918349,21,0,0,1,0.48000000000000004,-0.4,return,0.6078672000148799,2,75,0.48000000000000004,-0.4,,,,,,,,,,,,,,,,,,,,,,,,,,,,,,,,,,,,,,,,,,,,,,,,,,,,,,,,5M1A4Y,train_x,red_square,bottom_left,2025-03-22_11h10.40.316,HideSeek_v1,2022.2.5,59.92972640841288,
,2,2,2,2,0,0,16,,train_dim1_1,30,30,,,,2,0,2,0,,,,,,,,,0,0,0,0,0,29,29,29,0,0,0,0,,,,,,,,,,,,,,,,,,,,,,,,,stimuli/alien_stimuli/16.png,,,,,,,,,,,,,,,,,,,,,,,,,,,,,stimuli/alien_stimuli/56.png,56,4,31,,,,,,,30,,,,,,,,1733.5350187000004,1733.5350187000004,1733.5350187000004,1733.5350187000004,1733.5350187000004,return,4.790736099996138,22,0,0,1,0,-0.24,return,4.705450799985556,2,75,0,-0.24,1731.9700705000141,1733.5350187000004,0.48,-0.4,0.0,0.32,-0.4,0.48,0.32,0.48,-0.4,1728.5212774999964,1728.5212774999964,1728.5212774999964,1728.5212774999964,1728.5212774999964,1728.5212774999964,1728.5212774999964,1728.5212774999964,1728.500474750006,3.571956700005103,return,3.4330011999991257,,,,,,,,,,,,,,,,,,,,,,,,,,,,,,,,,5M1A4Y,train_x,red_square,bottom_left,2025-03-22_11h10.40.316,HideSeek_v1,2022.2.5,59.92972640841288,
,,,,,,,,,,,30,,,,2,0,2,0,,,,,,,,,,,,,,,,,,,,,,,,,,,,,,,,,,,,,,,,,,,,,,,,,,,,,,,,,,,,,,,,,,,,,,,,,,stimuli/alien_stimuli/16.png,16,2,32,21,0.7,0.9166666666666667,1,1,1,30,0,conditions/schedules/train_x_first/red_square_00/bottom_left/inputTrain_2.1.xlsx,99,1,2,1,0,,,,,,,,,,,1,,,,,,,,,1741.2612510999897,1742.8216348999995,0,-0.24,0.0,0.0,-0.24,0,0.0,0,-0.24,1739.9014958000043,1739.9014958000043,1739.9014958000043,1739.9014958000043,1739.9014958000043,1739.9014958000043,1739.9014958000043,1739.9014958000043,1739.8933630000101,1.4869312999944668,return,1.3312026000057813,0,0.9,0,1,22,,,,,,,,,,,,,,,,,,,,,,,,,,,,5M1A4Y,train_x,red_square,bottom_left,2025-03-22_11h10.40.316,HideSeek_v1,2022.2.5,59.92972640841288,
,,,,,,,,,,,,,,,3,0,3,0,0,0,0,0,,,,,,,,,,,,,,,,,,,,,,,,,,,,,,,conditions/schedules/train_x_first/red_square_00/bottom_left/instructions/Slide17.png,conditions/schedules/train_x_first/red_square_00/bottom_left/instructions/Audio17.wav,1742.8216348999995,1742.8123671000067,17,"[5.819384300004458, 19.149674199987203, 17.208027699991362, 19.43914129998302, 5.387346200004686, 4.86597189999884, 5.704265000007581, 11.74085100000957, 6.0859687000047415, 7.352552199998172, 9.820985600003041, 13.04066589998547, 18.16867519999505, 13.635426900000311, 31.352415100001963, 21.600151599996025, 39.22094820000348]","[5.819394400023157, 0.00021319999359548092, 0.014342199981911108, 0.03228600000147708, 0.029316100000869483, 0.04995509999571368, 0.06476949999341741, 0.06408869998995215, 0.11289829999441281, 0.0634215000027325, 0.04647479997947812, 13.0406753999996, 0.03681310001411475, 13.63543349999236, 0.03246359998593107, 21.60015789998579, 39.22095749998698]",0,,,,,,,,,,,,,,,,,,,,,,,,,,,,,,,,,,,,,,,,,,,,,,,,,,,,,,,,,,,,,,,,,,,,,,,,,,,,,,,,,,,,,,,,,,,,,,,,,,,,,,,,,,,,,,,,,,,,,,,,,,,,5M1A4Y,train_x,red_square,bottom_left,2025-03-22_11h10.40.316,HideSeek_v1,2022.2.5,59.92972640841288,
,,,,,,,,,,,,,,,3,0,3,0,1,0,1,0,,,,,,,,,,,,,,,,,,,,,,,,,,,,,,,conditions/schedules/train_x_first/red_square_00/bottom_left/instructions/Slide18.png,conditions/schedules/train_x_first/red_square_00/bottom_left/instructions/Audio18.wav,1782.1134082000062,1782.1118742499966,18,"[5.819384300004458, 19.149674199987203, 17.208027699991362, 19.43914129998302, 5.387346200004686, 4.86597189999884, 5.704265000007581, 11.74085100000957, 6.0859687000047415, 7.352552199998172, 9.820985600003041, 13.04066589998547, 18.16867519999505, 13.635426900000311, 31.352415100001963, 21.600151599996025, 39.22094820000348, 6.534654199989745]","[5.819394400023157, 0.00021319999359548092, 0.014342199981911108, 0.03228600000147708, 0.029316100000869483, 0.04995509999571368, 0.06476949999341741, 0.06408869998995215, 0.11289829999441281, 0.0634215000027325, 0.04647479997947812, 13.0406753999996, 0.03681310001411475, 13.63543349999236, 0.03246359998593107, 21.60015789998579, 0.030179499997757375, 6.534663099999307]",0,,,,,,,,,,,,,,,,,,,,,,,,,,,,,,,,,,,,,,,,,,,,,,,,,,,,,,,,,,,,,,,,,,,,,,,,,,,,,,,,,,,,,,,,,,,,,,,,,,,,,,,,,,,,,,,,,,,,,,,,,,,,5M1A4Y,train_x,red_square,bottom_left,2025-03-22_11h10.40.316,HideSeek_v1,2022.2.5,59.92972640841288,
,,,,,,,,,,,,,,,3,0,3,0,2,0,2,0,,,,,,,,,,,,,,,,,,,,,,,,,,,,,,,conditions/schedules/train_x_first/red_square_00/bottom_left/instructions/Slide19.png,conditions/schedules/train_x_first/red_square_00/bottom_left/instructions/Audio19.wav,1788.685670100007,1788.6838903499884,19,"[5.819384300004458, 19.149674199987203, 17.208027699991362, 19.43914129998302, 5.387346200004686, 4.86597189999884, 5.704265000007581, 11.74085100000957, 6.0859687000047415, 7.352552199998172, 9.820985600003041, 13.04066589998547, 18.16867519999505, 13.635426900000311, 31.352415100001963, 21.600151599996025, 39.22094820000348, 6.534654199989745, 11.57192750001559]","[5.819394400023157, 0.00021319999359548092, 0.014342199981911108, 0.03228600000147708, 0.029316100000869483, 0.04995509999571368, 0.06476949999341741, 0.06408869998995215, 0.11289829999441281, 0.0634215000027325, 0.04647479997947812, 13.0406753999996, 0.03681310001411475, 13.63543349999236, 0.03246359998593107, 21.60015789998579, 0.030179499997757375, 0.04613410000456497, 11.571935400017537]",0,,,,,,,,,,,,,,,,,,,,,,,,,,,,,,,,,,,,,,,,,,,,,,,,,,,,,,,,,,,,,,,,,,,,,,,,,,,,,,,,,,,,,,,,,,,,,,,,,,,,,,,,,,,,,,,,,,,,,,,,,,,,5M1A4Y,train_x,red_square,bottom_left,2025-03-22_11h10.40.316,HideSeek_v1,2022.2.5,59.92972640841288,
,,,,,,,,,,,,,,,3,0,3,0,3,0,3,0,,,,,,,,,,,,,,,,,,,,,,,,,,,,,,,conditions/schedules/train_x_first/red_square_00/bottom_left/instructions/Slide20.png,conditions/schedules/train_x_first/red_square_00/bottom_left/instructions/Audio20.wav,1800.3247236000025,1800.3267503500101,20,"[5.819384300004458, 19.149674199987203, 17.208027699991362, 19.43914129998302, 5.387346200004686, 4.86597189999884, 5.704265000007581, 11.74085100000957, 6.0859687000047415, 7.352552199998172, 9.820985600003041, 13.04066589998547, 18.16867519999505, 13.635426900000311, 31.352415100001963, 21.600151599996025, 39.22094820000348, 6.534654199989745, 11.57192750001559, 15.162359300011303]","[5.819394400023157, 0.00021319999359548092, 0.014342199981911108, 0.03228600000147708, 0.029316100000869483, 0.04995509999571368, 0.06476949999341741, 0.06408869998995215, 0.11289829999441281, 0.0634215000027325, 0.04647479997947812, 13.0406753999996, 0.03681310001411475, 13.63543349999236, 0.03246359998593107, 21.60015789998579, 0.030179499997757375, 0.04613410000456497, 0.05017150001367554, 15.162365600001067]",0,,,,,,,,,,,,,,,,,,,,,,,,,,,,,,,,,,,,,,,,,,,,,,,,,,,,,,,,,,,,,,,,,,,,,,,,,,,,,,,,,,,,,,,,,,,,,,,,,,,,,,,,,,,,,,,,,,,,,,,,,,,,5M1A4Y,train_x,red_square,bottom_left,2025-03-22_11h10.40.316,HideSeek_v1,2022.2.5,59.92972640841288,
1,2,3,2,8,0,5,11,2,instr_dim1_2,,,,,,3,0,3,0,,,,,0,0,0,0,,,,,,,,,,,,,,,,,,,,,,,,,,,,,,,,,,,,,stimuli/alien_stimuli/11.png,conditions/schedules/train_x_first/red_square_00/bottom_left/inputInstr_2.xlsx,stimuli/alien_stimuli/11.png,1815.5879347999871,1815.5879347999871,1815.5879347999871,1815.5879347999871,1815.5899197499966,return,5.8603265000274405,"[-0.16, -0.08, 0, 0.08, 0.16, 0.24, 0.32, 0.4, 0.48, 0.56]","[-0.4, -0.32, -0.24, -0.16, -0.08, 0, 0.08, 0.16, 0.24, 0.32]",8,3,2,2,0.4,0.0,1821.6126717999869,1821.6126717999869,1821.6126717999869,1821.6126717999869,1821.6126717999869,1821.6126717999869,1821.6126717999869,1821.6111923499848,10.410296499991091,return,10.25113719998626,stimuli/alien_stimuli/11.png,11,2,1,,,,,,,,,,,,,,,,,,,,,,,,,,,,,,,,,,,,,,,,,,,,,,,,,,,,,,,,,,,,,,,,,,,,,,,,,,,,,,,,,,,,,,,,,5M1A4Y,train_x,red_square,bottom_left,2025-03-22_11h10.40.316,HideSeek_v1,2022.2.5,59.92972640841288,
,,,,,,,,,,,30,,,,3,0,3,0,,,,,,,,,,,,,,,,,,,,,,,,,,,,,,,,,,,,,,,,,,,,,,,,,,,,,,,,,,,,,,,,,,,,,,,,,,,,,,21,0.7,0.9166666666666667,1,99,2,30,0,conditions/schedules/train_x_first/red_square_00/bottom_left/inputTrain_2.1.xlsx,99,1,2,1,0,,,,,,,,,,,,,,,,,,,,,,,,,,,,,,,,,,,,,,,,,,,,,,,,,,,,,,,,,,,,,,,,,,,,,,,,,,,5M1A4Y,train_x,red_square,bottom_left,2025-03-22_11h10.40.316,HideSeek_v1,2022.2.5,59.92972640841288,
,,,,,,,,,,,,,,,4,0,4,0,0,0,0,0,,,,,,,,,,,,,,,,,,,,,,,,,,,,,,,conditions/schedules/train_x_first/red_square_00/bottom_left/instructions/Slide21.png,conditions/schedules/train_x_first/red_square_00/bottom_left/instructions/Audio21.wav,1832.0481690999877,1832.036343499989,21,"[5.819384300004458, 19.149674199987203, 17.208027699991362, 19.43914129998302, 5.387346200004686, 4.86597189999884, 5.704265000007581, 11.74085100000957, 6.0859687000047415, 7.352552199998172, 9.820985600003041, 13.04066589998547, 18.16867519999505, 13.635426900000311, 31.352415100001963, 21.600151599996025, 39.22094820000348, 6.534654199989745, 11.57192750001559, 15.162359300011303, 16.992037400021218]","[5.819394400023157, 0.00021319999359548092, 0.014342199981911108, 0.03228600000147708, 0.029316100000869483, 0.04995509999571368, 0.06476949999341741, 0.06408869998995215, 0.11289829999441281, 0.0634215000027325, 0.04647479997947812, 13.0406753999996, 0.03681310001411475, 13.63543349999236, 0.03246359998593107, 21.60015789998579, 0.030179499997757375, 0.04613410000456497, 0.05017150001367554, 15.162365600001067, 16.992057900002692]",0,,,,,,,,,,,,,,,,,,,,,,,,,,,,,,,,,,,,,,,,,,,,,,,,,,,,,,,,,,,,,,,,,,,,,,,,,,,,,,,,,,,,,,,,,,,,,,,,,,,,,,,,,,,,,,,,,,,,,,,,,,,,5M1A4Y,train_x,red_square,bottom_left,2025-03-22_11h10.40.316,HideSeek_v1,2022.2.5,59.92972640841288,
2,0,3,0,3,0,0,16,2,instr_dim1_2,,,,,,4,0,4,0,,,,,0,0,0,0,,,,,,,,,,,,,,,,,,,,,,,,,,,,,,,,,,,,,stimuli/alien_stimuli/16.png,conditions/schedules/train_x_first/red_square_00/bottom_left/inputInstr_2.xlsx,stimuli/alien_stimuli/16.png,1849.177715800004,1849.177715800004,1849.177715800004,1849.177715800004,1849.1760608500044,return,8.012508199986769,"[-0.16, -0.08, 0, 0.08, 0.16, 0.24, 0.32, 0.4, 0.48, 0.56]","[-0.4, -0.32, -0.24, -0.16, -0.08, 0, 0.08, 0.16, 0.24, 0.32]",3,3,0,0,0.0,0.0,1857.3764752999996,1857.3764752999996,1857.3764752999996,1857.3764752999996,1857.3764752999996,1857.3764752999996,1857.3764752999996,1857.375347950001,11.208655199996429,return,11.006889200012665,stimuli/alien_stimuli/16.png,16,0,2,,,,,,,,,,,,,,,,,,,,,,,,,,,,,,,,,,,,,,,,,,,,,,,,,,,,,,,,,,,,,,,,,,,,,,,,,,,,,,,,,,,,,,,,,5M1A4Y,train_x,red_square,bottom_left,2025-03-22_11h10.40.316,HideSeek_v1,2022.2.5,59.92972640841288,
,,,,,,,,,,,30,,,,4,0,4,0,,,,,,,,,,,,,,,,,,,,,,,,,,,,,,,,,,,,,,,,,,,,,,,,,,,,,,,,,,,,,,,,,,,,,,,,,,,,,,21,0.7,0.9166666666666667,1,99,2,30,0,conditions/schedules/train_x_first/red_square_00/bottom_left/inputTrain_2.1.xlsx,99,1,2,1,0,,,,,,,,,,,,,,,,,,,,,,,,,,,,,,,,,,,,,,,,,,,,,,,,,,,,,,,,,,,,,,,,,,,,,,,,,,,5M1A4Y,train_x,red_square,bottom_left,2025-03-22_11h10.40.316,HideSeek_v1,2022.2.5,59.92972640841288,
,,,,,,,,,,,,,,,5,0,5,0,0,0,0,0,,,,,,,,,,,,,,,,,,,,,,,,,,,,,,,conditions/schedules/train_x_first/red_square_00/bottom_left/instructions/Slide22.png,conditions/schedules/train_x_first/red_square_00/bottom_left/instructions/Audio22.wav,1868.588863699988,1868.5829680500028,22,"[5.819384300004458, 19.149674199987203, 17.208027699991362, 19.43914129998302, 5.387346200004686, 4.86597189999884, 5.704265000007581, 11.74085100000957, 6.0859687000047415, 7.352552199998172, 9.820985600003041, 13.04066589998547, 18.16867519999505, 13.635426900000311, 31.352415100001963, 21.600151599996025, 39.22094820000348, 6.534654199989745, 11.57192750001559, 15.162359300011303, 16.992037400021218, 43.49959660001332]","[5.819394400023157, 0.00021319999359548092, 0.014342199981911108, 0.03228600000147708, 0.029316100000869483, 0.04995509999571368, 0.06476949999341741, 0.06408869998995215, 0.11289829999441281, 0.0634215000027325, 0.04647479997947812, 13.0406753999996, 0.03681310001411475, 13.63543349999236, 0.03246359998593107, 21.60015789998579, 0.030179499997757375, 0.04613410000456497, 0.05017150001367554, 15.162365600001067, 16.992057900002692, 43.49960540002212]",0,,,,,,,,,,,,,,,,,,,,,,,,,,,,,,,,,,,,,,,,,,,,,,,,,,,,,,,,,,,,,,,,,,,,,,,,,,,,,,,,,,,,,,,,,,,,,,,,,,,,,,,,,,,,,,,,,,,,,,,,,,,,5M1A4Y,train_x,red_square,bottom_left,2025-03-22_11h10.40.316,HideSeek_v1,2022.2.5,59.92972640841288,
,0,0,0,1,0,1,15,,train_dim1_2,1,30,,,,5,0,5,0,,,,,,,,,0,0,0,0,0,0,0,0,0,0,0,0,,,,,,,,,,,,,,,,,,,,,,,,,stimuli/alien_stimuli/15.png,,,,,,,,,,,,,,,,,,,,,,,,,,,,,,,,,,,,,,,30,,,,,,,,1912.1893143999914,1912.1893143999914,1912.1893143999914,1912.1893143999914,1912.1893143999914,return,3.8971883000049274,0,1,0,0,-0.16,-0.4,return,3.78891420000582,2,75,-0.16,-0.4,,,,,,,,,,,,,,,,,,,,,,,,,,,,,,,,,,,,,,,,,,,,,,,,,,,,,,,,5M1A4Y,train_x,red_square,bottom_left,2025-03-22_11h10.40.316,HideSeek_v1,2022.2.5,59.92972640841288,
,3,2,3,2,0,0,16,,train_dim1_2,2,30,,,,5,0,5,0,,,,,,,,,0,0,0,0,0,1,1,1,0,0,0,0,,,,,,,,,,,,,,,,,,,,,,,,,stimuli/alien_stimuli/16.png,,,,,,,,,,,,,,,,,,,,,,,,,,,,,stimuli/alien_stimuli/15.png,15,0,3,,,,,,,30,,,,,,,,1926.1213292999892,1926.1213292999892,1926.1213292999892,1926.1213292999892,1926.1213292999892,return,4.7587879000057,1,0,0,1,0.08,-0.24,return,4.672243700013496,2,75,0.08,-0.24,1924.5633665999922,1926.1213292999892,-0.16,-0.32,0.08,0.0,-0.36,-0.16,-0.16,-0.16,-0.32,1917.6406631999998,1917.6406631999998,1917.6406631999998,1917.6406631999998,1917.6406631999998,1917.6406631999998,1917.6406631999998,1917.6406631999998,1917.641035699984,7.041331000014907,return,6.891541700024391,,,,,,,,,,,,,,,,,,,,,,,,,,,,,,,,,5M1A4Y,train_x,red_square,bottom_left,2025-03-22_11h10.40.316,HideSeek_v1,2022.2.5,59.92972640841288,
,2,3,2,6,0,3,13,,train_dim1_2,3,30,,,,5,0,5,0,,,,,,,,,0,0,0,0,0,2,2,2,0,0,0,0,,,,,,,,,,,,,,,,,,,,,,,,,stimuli/alien_stimuli/13.png,,,,,,,,,,,,,,,,,,,,,,,,,,,,,stimuli/alien_stimuli/16.png,16,3,4,,,,,,,30,,,,,,,,1936.8529336999927,1936.8529336999927,1936.8529336999927,1936.8529336999927,1936.8529336999927,up,4.470987700013211,1,0,0,99,0,-0.08,up,4.381533300009323,,,,,1935.2889146000089,1936.8529336999927,0.08,-0.24,0.0,0.0,-0.24,0.08,0.08,0.08,-0.24,1932.4566034000018,1932.4566034000018,1932.4566034000018,1932.4566034000018,1932.4566034000018,1932.4566034000018,1932.4566034000018,1932.4566034000018,1932.45331479999,2.954474600002868,return,2.8001610999926925,,,,,,,,,,,,,,,,,,,,,,,,,,,,,,,,,5M1A4Y,train_x,red_square,bottom_left,2025-03-22_11h10.40.316,HideSeek_v1,2022.2.5,59.92972640841288,
,2,3,2,6,0,3,13,,train_dim1_2,3,30,,,,5,0,5,0,,,,,,,,,0,0,0,0,0,2,2,2,1,0,1,0,,,,,,,,,,,,,,,,,,,,,,,,,,,,,,,,,,,,,,,,,,,,,,,,,,,,,,,,,,,,,,,,30,,,,,,,,1941.328565200005,1941.328565200005,1941.328565200005,1941.328565200005,1941.328565200005,up,3.5624615999986418,1,0,0,99,0,0.0,up,3.471127199998591,,,,,,,,,,,,,,,,,,,,,,,,,,,,,,,,,,,,,,,,,,,,,,,,,,,,,,,,,,,,5M1A4Y,train_x,red_square,bottom_left,2025-03-22_11h10.40.316,HideSeek_v1,2022.2.5,59.92972640841288,
,2,3,2,6,0,3,13,,train_dim1_2,3,30,,,,5,0,5,0,,,,,,,,,0,0,0,0,0,2,2,2,2,0,2,0,,,,,,,,,,,,,,,,,,,,,,,,,,,,,,,,,,,,,,,,,,,,,,,,,,,,,,,,,,,,,,,,30,,,,,,,,1944.8985829000012,1944.8985829000012,1944.8985829000012,1944.8985829000012,1944.8985829000012,return,3.562456400017254,1,1,0,0,0,0.0,return,3.473651100008283,4,75,0,0.0,,,,,,,,,,,,,,,,,,,,,,,,,,,,,,,,,,,,,,,,,,,,,,,,,,,,,,,,5M1A4Y,train_x,red_square,bottom_left,2025-03-22_11h10.40.316,HideSeek_v1,2022.2.5,59.92972640841288,
,0,1,0,5,0,4,12,,train_dim1_2,4,30,,,,5,0,5,0,,,,,,,,,0,0,0,0,0,3,3,3,0,0,0,0,,,,,,,,,,,,,,,,,,,,,,,,,stimuli/alien_stimuli/12.png,,,,,,,,,,,,,,,,,,,,,,,,,,,,,stimuli/alien_stimuli/13.png,13,2,5,,,,,,,30,,,,,,,,1954.344454200007,1954.344454200007,1954.344454200007,1954.344454200007,1954.344454200007,up,3.0079530000220984,1,1,0,99,-0.16,-0.24,up,2.914608400024008,,,,,1952.7869310000096,1954.344454200007,0,0.08,0.24,0.0,-0.04,0,0.0,0,0.08,1950.0328468999942,1950.0328468999942,1950.0328468999942,1950.0328468999942,1950.0328468999942,1950.0328468999942,1950.0328468999942,1950.0328468999942,1950.0345134999952,2.871245300018927,return,2.724624099995708,,,,,,,,,,,,,,,,,,,,,,,,,,,,,,,,,5M1A4Y,train_x,red_square,bottom_left,2025-03-22_11h10.40.316,HideSeek_v1,2022.2.5,59.92972640841288,
,0,1,0,5,0,4,12,,train_dim1_2,4,30,,,,5,0,5,0,,,,,,,,,0,0,0,0,0,3,3,3,1,0,1,0,,,,,,,,,,,,,,,,,,,,,,,,,,,,,,,,,,,,,,,,,,,,,,,,,,,,,,,,,,,,,,,,30,,,,,,,,1957.3588629000005,1957.3588629000005,1957.3588629000005,1957.3588629000005,1957.3588629000005,up,1.5439488999836612,1,1,0,99,-0.16,-0.15999999999999998,up,1.4534759999951348,,,,,,,,,,,,,,,,,,,,,,,,,,,,,,,,,,,,,,,,,,,,,,,,,,,,,,,,,,,,5M1A4Y,train_x,red_square,bottom_left,2025-03-22_11h10.40.316,HideSeek_v1,2022.2.5,59.92972640841288,
,0,1,0,5,0,4,12,,train_dim1_2,4,30,,,,5,0,5,0,,,,,,,,,0,0,0,0,0,3,3,3,2,0,2,0,,,,,,,,,,,,,,,,,,,,,,,,,,,,,,,,,,,,,,,,,,,,,,,,,,,,,,,,,,,,,,,,30,,,,,,,,1958.91002380001,1958.91002380001,1958.91002380001,1958.91002380001,1958.91002380001,up,1.2932562999776565,1,1,0,99,-0.16,-0.07999999999999997,up,1.2072222999995574,,,,,,,,,,,,,,,,,,,,,,,,,,,,,,,,,,,,,,,,,,,,,,,,,,,,,,,,,,,,5M1A4Y,train_x,red_square,bottom_left,2025-03-22_11h10.40.316,HideSeek_v1,2022.2.5,59.92972640841288,
,0,1,0,5,0,4,12,,train_dim1_2,4,30,,,,5,0,5,0,,,,,,,,,0,0,0,0,0,3,3,3,3,0,3,0,,,,,,,,,,,,,,,,,,,,,,,,,,,,,,,,,,,,,,,,,,,,,,,,,,,,,,,,,,,,,,,,30,,,,,,,,1960.2110736999894,1960.2110736999894,1960.2110736999894,1960.2110736999894,1960.2110736999894,up,4.380098800000269,1,1,0,99,-0.16,2.7755575615628914e-17,up,4.297977400012314,,,,,,,,,,,,,,,,,,,,,,,,,,,,,,,,,,,,,,,,,,,,,,,,,,,,,,,,,,,,5M1A4Y,train_x,red_square,bottom_left,2025-03-22_11h10.40.316,HideSeek_v1,2022.2.5,59.92972640841288,
,0,1,0,5,0,4,12,,train_dim1_2,4,30,,,,5,0,5,0,,,,,,,,,0,0,0,0,0,3,3,3,4,0,4,0,,,,,,,,,,,,,,,,,,,,,,,,,,,,,,,,,,,,,,,,,,,,,,,,,,,,,,,,,,,,,,,,30,,,,,,,,1964.598740699992,1964.598740699992,1964.598740699992,1964.598740699992,1964.598740699992,down,0.609806499996921,1,1,0,99,-0.16,-0.07999999999999997,down,0.5328598000050988,,,,,,,,,,,,,,,,,,,,,,,,,,,,,,,,,,,,,,,,,,,,,,,,,,,,,,,,,,,,5M1A4Y,train_x,red_square,bottom_left,2025-03-22_11h10.40.316,HideSeek_v1,2022.2.5,59.92972640841288,
,0,1,0,5,0,4,12,,train_dim1_2,4,30,,,,5,0,5,0,,,,,,,,,0,0,0,0,0,3,3,3,5,0,5,0,,,,,,,,,,,,,,,,,,,,,,,,,,,,,,,,,,,,,,,,,,,,,,,,,,,,,,,,,,,,,,,,30,,,,,,,,1965.2163493999979,1965.2163493999979,1965.2163493999979,1965.2163493999979,1965.2163493999979,up,0.9926092000096105,1,1,0,99,-0.16,2.7755575615628914e-17,up,0.9102796999795828,,,,,,,,,,,,,,,,,,,,,,,,,,,,,,,,,,,,,,,,,,,,,,,,,,,,,,,,,,,,5M1A4Y,train_x,red_square,bottom_left,2025-03-22_11h10.40.316,HideSeek_v1,2022.2.5,59.92972640841288,
