trialInstr,x_fixStart,y_fixStart,x_corrSteps,y_corrSteps,x_nrSteps,y_nrSteps,alienID,trialLength,version,trialTrain,praclen,testlen,trial_label,break_on_off,beforeExpLoop.thisRepN,beforeExpLoop.thisTrialN,beforeExpLoop.thisN,beforeExpLoop.thisIndex,mini_instr_trials.thisRepN,mini_instr_trials.thisTrialN,mini_instr_trials.thisN,mini_instr_trials.thisIndex,instrLoop.thisRepN,instrLoop.thisTrialN,instrLoop.thisN,instrLoop.thisIndex,repeat_prac.thisRepN,repeat_prac.thisTrialN,repeat_prac.thisN,repeat_prac.thisIndex,trainLoop.thisRepN,trainLoop.thisTrialN,trainLoop.thisN,trainLoop.thisIndex,moveLoop_train.thisRepN,moveLoop_train.thisTrialN,moveLoop_train.thisN,moveLoop_train.thisIndex,experiment.thisRepN,experiment.thisTrialN,experiment.thisN,experiment.thisIndex,moveLoop_test.thisRepN,moveLoop_test.thisTrialN,moveLoop_test.thisN,moveLoop_test.thisIndex,mini_instr2_trials.thisRepN,mini_instr2_trials.thisTrialN,mini_instr2_trials.thisN,mini_instr2_trials.thisIndex,start_all_time,url,slideStim,audioStim,slides.started,sounds.started,nextButton.numClicks,nextButton.timesOn,nextButton.timesOff,prev_but.numClicks,prev_but.timesOn,prev_but.timesOff,alienStim,instrFile,alienStim_instr,gridImage_instr.started,startPos_3.started,key_instr.started,alienImage_3.started,sounds_1.started,key_instr.keys,key_instr.rt,all_x,all_y,FBy_corrSteps,FBy_fixStart,FBx_corrSteps,FBx_fixStart,FBy_pathSize_check,FBx_pathSize_check,gridImage_9.started,alienImageFB_3.started,startPosFB_3.started,keyFB_3.started,pathLine_ydir_2.started,pathLine_xdir_2.started,alienFace_3.started,sounds_2.started,RTFB_instr,keyFB_3.keys,keyFB_3.rt,draw_alienStim,draw_alienID,test_x,nrepcount,perfthres,percthres,earlierperf,earlystop,nextPrac,fileidx,praclen,saveACC_train,pracFile,nextPrac_train,addNrep,fileidx_endr,repExp,showearly,gridImage_4.started,startPos.started,movePos.started,key_resp.started,alienImage.started,buttonPress_train,RTchoice_train,cumAcctrain,aCorr,saveACC_choice,corrAns,x_movePos_end,y_movePos_end,key_resp.keys,key_resp.rt,wLy_dir,wLx_dir,x_movePos,y_movePos,text_2.started,text_2.stopped,aft_x_corrPos,aft_y_corrPos,y_pathSize_check,x_pathSize_check,y_pathdirY,x_pathdirY,x_pathdirX,x_corrPos,y_corrPos,gridImage_6.started,alienImageFB_2.started,startPosFB_2.started,movePosFB_2.started,keyFB_2.started,pathLine_xdir.started,pathLine_ydir.started,alienFace.started,sounds_4.started,RT_FBtrain,keyFB_2.keys,keyFB_2.rt,saveACC_pre,ACC,within_saveACC_train,earlystop_wloop,cumAcctrain_check,gridImage_3.started,alienImage_test.started,startPos_test.started,movePos_test.started,key_resp_test.started,wLy_dir_test,wLx_dir_test,buttonPress_test,RTchoice_test,cumAcctest,corrAns_test,key_resp_test.keys,key_resp_test.rt,text_3.started,text_3.stopped,total_time,end_all_time,key_resp_3.keys,slides_2.started,sounds_3.started,nextButton_2.numClicks,nextButton_2.timesOn,nextButton_2.timesOff,prev_but_2.numClicks,prev_but_2.timesOn,prev_but_2.timesOff,bye.started,participant,train_first,00_coordinate,starting corner,date,expName,psychopyVersion,frameRate,
,,,,,,,,,,,,,,,0,0,0,0,0,0,0,0,,,,,,,,,,,,,,,,,,,,,,,,,,,,,start_all_time,testround,conditions/schedules/train_y_first/red_square_00/bottom_left/instructions/Slide1.png,conditions/schedules/train_y_first/red_square_00/bottom_left/instructions/Audio1.wav,1640.764065500116,1640.7174815181643,1,[2.635589800076559],[2.635598999913782],0,,,,,,,,,,,,,,,,,,,,,,,,,,,,,,,,,,,,,,,,,,,,,,,,,,,,,,,,,,,,,,,,,,,,,,,,,,,,,,,,,,,,,,,,,,,,,,,,,,,,,,,,,,,,,,,,,,,,,,,,,,,,5MQ1JW,train_y,red_square,bottom_left,2025-08-20_16h28.25.601,HideSeek_v1,2022.2.5,59.60320951752629,
,,,,,,,,,,,,,,,0,0,0,0,1,0,1,0,,,,,,,,,,,,,,,,,,,,,,,,,,,,,,,conditions/schedules/train_y_first/red_square_00/bottom_left/instructions/Slide2.png,conditions/schedules/train_y_first/red_square_00/bottom_left/instructions/Audio2.wav,1643.419965500012,1643.4191563499626,2,"[2.635589800076559, 18.44582620006986]","[0.03044379991479218, 18.44583270000294]",0,,,,,,,,,,,,,,,,,,,,,,,,,,,,,,,,,,,,,,,,,,,,,,,,,,,,,,,,,,,,,,,,,,,,,,,,,,,,,,,,,,,,,,,,,,,,,,,,,,,,,,,,,,,,,,,,,,,,,,,,,,,,5MQ1JW,train_y,red_square,bottom_left,2025-08-20_16h28.25.601,HideSeek_v1,2022.2.5,59.60320951752629,
,,,,,,,,,,,,,,,0,0,0,0,2,0,2,0,,,,,,,,,,,,,,,,,,,,,,,,,,,,,,,conditions/schedules/train_y_first/red_square_00/bottom_left/instructions/Slide3.png,conditions/schedules/train_y_first/red_square_00/bottom_left/instructions/Audio3.wav,1661.9439733000472,1661.9348408500664,3,"[2.635589800076559, 18.44582620006986, 15.885973800206557]","[0.03044379991479218, 0.0002543001901358366, 15.885980600025505]",0,,,,,,,,,,,,,,,,,,,,,,,,,,,,,,,,,,,,,,,,,,,,,,,,,,,,,,,,,,,,,,,,,,,,,,,,,,,,,,,,,,,,,,,,,,,,,,,,,,,,,,,,,,,,,,,,,,,,,,,,,,,,5MQ1JW,train_y,red_square,bottom_left,2025-08-20_16h28.25.601,HideSeek_v1,2022.2.5,59.60320951752629,
,,,,,,,,,,,,,,,0,0,0,0,3,0,3,0,,,,,,,,,,,,,,,,,,,,,,,,,,,,,,,conditions/schedules/train_y_first/red_square_00/bottom_left/instructions/Slide4.png,conditions/schedules/train_y_first/red_square_00/bottom_left/instructions/Audio4.wav,1677.9183042000514,1677.91559796012,4,"[2.635589800076559, 18.44582620006986, 15.885973800206557, 18.92734060017392]","[0.03044379991479218, 0.0002543001901358366, 15.885980600025505, 18.927350600017235]",0,,,,,,,,,,,,,,,,,,,,,,,,,,,,,,,,,,,,,,,,,,,,,,,,,,,,,,,,,,,,,,,,,,,,,,,,,,,,,,,,,,,,,,,,,,,,,,,,,,,,,,,,,,,,,,,,,,,,,,,,,,,,5MQ1JW,train_y,red_square,bottom_left,2025-08-20_16h28.25.601,HideSeek_v1,2022.2.5,59.60320951752629,
,,,,,,,,,,,,,,,0,0,0,0,4,0,4,0,,,,,,,,,,,,,,,,,,,,,,,,,,,,,,,conditions/schedules/train_y_first/red_square_00/bottom_left/instructions/Slide5.png,conditions/schedules/train_y_first/red_square_00/bottom_left/instructions/Audio5.wav,1696.9097274001688,1696.897931140149,5,"[2.635589800076559, 18.44582620006986, 15.885973800206557, 18.92734060017392, 4.405655700014904]","[0.03044379991479218, 0.0002543001901358366, 15.885980600025505, 0.00023530004546046257, 4.405662399949506]",0,,,,,,,,,,,,,,,,,,,,,,,,,,,,,,,,,,,,,,,,,,,,,,,,,,,,,,,,,,,,,,,,,,,,,,,,,,,,,,,,,,,,,,,,,,,,,,,,,,,,,,,,,,,,,,,,,,,,,,,,,,,,5MQ1JW,train_y,red_square,bottom_left,2025-08-20_16h28.25.601,HideSeek_v1,2022.2.5,59.60320951752629,
,,,,,,,,,,,,,,,0,0,0,0,5,0,5,0,,,,,,,,,,,,,,,,,,,,,,,,,,,,,,,conditions/schedules/train_y_first/red_square_00/bottom_left/instructions/Slide6.png,conditions/schedules/train_y_first/red_square_00/bottom_left/instructions/Audio6.wav,1701.3817860002164,1701.384262350155,6,"[2.635589800076559, 18.44582620006986, 15.885973800206557, 18.92734060017392, 4.405655700014904, 4.419920899905264]","[0.03044379991479218, 0.0002543001901358366, 15.885980600025505, 0.00023530004546046257, 0.04969060001894832, 4.419927599839866]",0,,,,,,,,,,,,,,,,,,,,,,,,,,,,,,,,,,,,,,,,,,,,,,,,,,,,,,,,,,,,,,,,,,,,,,,,,,,,,,,,,,,,,,,,,,,,,,,,,,,,,,,,,,,,,,,,,,,,,,,,,,,,5MQ1JW,train_y,red_square,bottom_left,2025-08-20_16h28.25.601,HideSeek_v1,2022.2.5,59.60320951752629,
,,,,,,,,,,,,,,,0,0,0,0,6,0,6,0,,,,,,,,,,,,,,,,,,,,,,,,,,,,,,,conditions/schedules/train_y_first/red_square_00/bottom_left/instructions/Slide7.png,conditions/schedules/train_y_first/red_square_00/bottom_left/instructions/Audio7.wav,1705.853123200126,1705.8545055401046,7,"[2.635589800076559, 18.44582620006986, 15.885973800206557, 18.92734060017392, 4.405655700014904, 4.419920899905264, 5.202962500043213]","[0.03044379991479218, 0.0002543001901358366, 15.885980600025505, 0.00023530004546046257, 0.04969060001894832, 0.032129800179973245, 5.202969399979338]",0,,,,,,,,,,,,,,,,,,,,,,,,,,,,,,,,,,,,,,,,,,,,,,,,,,,,,,,,,,,,,,,,,,,,,,,,,,,,,,,,,,,,,,,,,,,,,,,,,,,,,,,,,,,,,,,,,,,,,,,,,,,,5MQ1JW,train_y,red_square,bottom_left,2025-08-20_16h28.25.601,HideSeek_v1,2022.2.5,59.60320951752629,
,,,,,,,,,,,,,,,0,0,0,0,7,0,7,0,,,,,,,,,,,,,,,,,,,,,,,,,,,,,,,conditions/schedules/train_y_first/red_square_00/bottom_left/instructions/Slide8.png,conditions/schedules/train_y_first/red_square_00/bottom_left/instructions/Audio8.wav,1711.109108600067,1711.108778940048,8,"[2.635589800076559, 18.44582620006986, 15.885973800206557, 18.92734060017392, 4.405655700014904, 4.419920899905264, 5.202962500043213, 10.989953499985859]","[0.03044379991479218, 0.0002543001901358366, 15.885980600025505, 0.00023530004546046257, 0.04969060001894832, 0.032129800179973245, 0.08090179995633662, 10.989959900034592]",0,,,,,,,,,,,,,,,,,,,,,,,,,,,,,,,,,,,,,,,,,,,,,,,,,,,,,,,,,,,,,,,,,,,,,,,,,,,,,,,,,,,,,,,,,,,,,,,,,,,,,,,,,,,,,,,,,,,,,,,,,,,,5MQ1JW,train_y,red_square,bottom_left,2025-08-20_16h28.25.601,HideSeek_v1,2022.2.5,59.60320951752629,
,,,,,,,,,,,,,,,0,0,0,0,8,0,8,0,,,,,,,,,,,,,,,,,,,,,,,,,,,,,,,conditions/schedules/train_y_first/red_square_00/bottom_left/instructions/Slide9.png,conditions/schedules/train_y_first/red_square_00/bottom_left/instructions/Audio9.wav,1722.1685104002245,1722.168301250087,9,"[2.635589800076559, 18.44582620006986, 15.885973800206557, 18.92734060017392, 4.405655700014904, 4.419920899905264, 5.202962500043213, 10.989953499985859, 5.568417300004512]","[0.03044379991479218, 0.0002543001901358366, 15.885980600025505, 0.00023530004546046257, 0.04969060001894832, 0.032129800179973245, 0.08090179995633662, 0.03044999996200204, 5.568424900062382]",0,,,,,,,,,,,,,,,,,,,,,,,,,,,,,,,,,,,,,,,,,,,,,,,,,,,,,,,,,,,,,,,,,,,,,,,,,,,,,,,,,,,,,,,,,,,,,,,,,,,,,,,,,,,,,,,,,,,,,,,,,,,,5MQ1JW,train_y,red_square,bottom_left,2025-08-20_16h28.25.601,HideSeek_v1,2022.2.5,59.60320951752629,
,,,,,,,,,,,,,,,0,0,0,0,9,0,9,0,,,,,,,,,,,,,,,,,,,,,,,,,,,,,,,conditions/schedules/train_y_first/red_square_00/bottom_left/instructions/Slide10.png,conditions/schedules/train_y_first/red_square_00/bottom_left/instructions/Audio10.wav,1727.7748832001816,1727.772751230048,10,"[2.635589800076559, 18.44582620006986, 15.885973800206557, 18.92734060017392, 4.405655700014904, 4.419920899905264, 5.202962500043213, 10.989953499985859, 5.568417300004512, 6.333632500143722]","[0.03044379991479218, 0.0002543001901358366, 15.885980600025505, 0.00023530004546046257, 0.04969060001894832, 0.032129800179973245, 0.08090179995633662, 0.03044999996200204, 0.0948554000351578, 6.333639800082892]",0,,,,,,,,,,,,,,,,,,,,,,,,,,,,,,,,,,,,,,,,,,,,,,,,,,,,,,,,,,,,,,,,,,,,,,,,,,,,,,,,,,,,,,,,,,,,,,,,,,,,,,,,,,,,,,,,,,,,,,,,,,,,5MQ1JW,train_y,red_square,bottom_left,2025-08-20_16h28.25.601,HideSeek_v1,2022.2.5,59.60320951752629,
,,,,,,,,,,,,,,,0,0,0,0,10,0,10,0,,,,,,,,,,,,,,,,,,,,,,,,,,,,,,,conditions/schedules/train_y_first/red_square_00/bottom_left/instructions/Slide11.png,conditions/schedules/train_y_first/red_square_00/bottom_left/instructions/Audio11.wav,1734.1680481000803,1734.1614060401917,11,"[2.635589800076559, 18.44582620006986, 15.885973800206557, 18.92734060017392, 4.405655700014904, 4.419920899905264, 5.202962500043213, 10.989953499985859, 5.568417300004512, 6.333632500143722, 9.781956699909642]","[0.03044379991479218, 0.0002543001901358366, 15.885980600025505, 0.00023530004546046257, 0.04969060001894832, 0.032129800179973245, 0.08090179995633662, 0.03044999996200204, 0.0948554000351578, 0.05729049979709089, 9.781963199842721]",0,,,,,,,,,,,,,,,,,,,,,,,,,,,,,,,,,,,,,,,,,,,,,,,,,,,,,,,,,,,,,,,,,,,,,,,,,,,,,,,,,,,,,,,,,,,,,,,,,,,,,,,,,,,,,,,,,,,,,,,,,,,,5MQ1JW,train_y,red_square,bottom_left,2025-08-20_16h28.25.601,HideSeek_v1,2022.2.5,59.60320951752629,
,,,,,,,,,,,,,,,0,0,0,0,11,0,11,0,,,,,,,,,,,,,,,,,,,,,,,,,,,,,,,conditions/schedules/train_y_first/red_square_00/bottom_left/instructions/Slide12.png,conditions/schedules/train_y_first/red_square_00/bottom_left/instructions/Audio12.wav,1744.0177469002083,1744.0195242501795,12,"[2.635589800076559, 18.44582620006986, 15.885973800206557, 18.92734060017392, 4.405655700014904, 4.419920899905264, 5.202962500043213, 10.989953499985859, 5.568417300004512, 6.333632500143722, 9.781956699909642, 13.894133100053295]","[0.03044379991479218, 0.0002543001901358366, 15.885980600025505, 0.00023530004546046257, 0.04969060001894832, 0.032129800179973245, 0.08090179995633662, 0.03044999996200204, 0.0948554000351578, 0.05729049979709089, 0.033141800202429295, 13.89414200000465]",0,,,,,,,,,,,,,,,,,,,,,,,,,,,,,,,,,,,,,,,,,,,,,,,,,,,,,,,,,,,,,,,,,,,,,,,,,,,,,,,,,,,,,,,,,,,,,,,,,,,,,,,,,,,,,,,,,,,,,,,,,,,,5MQ1JW,train_y,red_square,bottom_left,2025-08-20_16h28.25.601,HideSeek_v1,2022.2.5,59.60320951752629,
1,2,3,2,8,0,5,11,2,instr_dim1_1,,,,,,0,0,0,0,,,,,0,0,0,0,,,,,,,,,,,,,,,,,,,,,,,,,,,,,,,,,,,,,stimuli/alien_stimuli/11.png,conditions/schedules/train_y_first/red_square_00/bottom_left/inputInstr_1.xlsx,stimuli/alien_stimuli/11.png,1758.0194630001206,1758.0194630001206,1758.0194630001206,1758.0194630001206,1758.0144667699933,return,7.319619399961084,"[-0.16, -0.08, 0, 0.08, 0.16, 0.24, 0.32, 0.4, 0.48, 0.56]","[-0.4, -0.32, -0.24, -0.16, -0.08, 0, 0.08, 0.16, 0.24, 0.32]",8,3,2,2,0.4,0.0,1765.5059238001704,1765.5059238001704,1765.5059238001704,1765.5059238001704,1765.5059238001704,1765.5059238001704,1765.5059238001704,1765.5039365901612,8.09093809989281,return,7.925667599774897,stimuli/alien_stimuli/11.png,11,2,1,,,,,,,,,,,,,,,,,,,,,,,,,,,,,,,,,,,,,,,,,,,,,,,,,,,,,,,,,,,,,,,,,,,,,,,,,,,,,,,,,,,,,,,,,5MQ1JW,train_y,red_square,bottom_left,2025-08-20_16h28.25.601,HideSeek_v1,2022.2.5,59.60320951752629,
,,,,,,,,,,,30,,,,0,0,0,0,,,,,,,,,,,,,,,,,,,,,,,,,,,,,,,,,,,,,,,,,,,,,,,,,,,,,,,,,,,,,,,,,,,,,,,,,,,,,,21,0.7,0,0,99,1,30,0,conditions/schedules/train_y_first/red_square_00/bottom_left/inputTrain_1.1.xlsx,99,1,1,1,0,,,,,,,,,,,,,,,,,,,,,,,,,,,,,,,,,,,,,,,,,,,,,,,,,,,,,,,,,,,,,,,,,,,,,,,,,,,5MQ1JW,train_y,red_square,bottom_left,2025-08-20_16h28.25.601,HideSeek_v1,2022.2.5,59.60320951752629,
,,,,,,,,,,,,,,,1,0,1,0,0,0,0,0,,,,,,,,,,,,,,,,,,,,,,,,,,,,,,,conditions/schedules/train_y_first/red_square_00/bottom_left/instructions/Slide13.png,conditions/schedules/train_y_first/red_square_00/bottom_left/instructions/Audio13.wav,1773.593079400016,1773.594050989952,13,"[2.635589800076559, 18.44582620006986, 15.885973800206557, 18.92734060017392, 4.405655700014904, 4.419920899905264, 5.202962500043213, 10.989953499985859, 5.568417300004512, 6.333632500143722, 9.781956699909642, 13.894133100053295, 17.56332219997421]","[0.03044379991479218, 0.0002543001901358366, 15.885980600025505, 0.00023530004546046257, 0.04969060001894832, 0.032129800179973245, 0.08090179995633662, 0.03044999996200204, 0.0948554000351578, 0.05729049979709089, 0.033141800202429295, 13.89414200000465, 17.56332979979925]",0,,,,,,,,,,,,,,,,,,,,,,,,,,,,,,,,,,,,,,,,,,,,,,,,,,,,,,,,,,,,,,,,,,,,,,,,,,,,,,,,,,,,,,,,,,,,,,,,,,,,,,,,,,,,,,,,,,,,,,,,,,,,5MQ1JW,train_y,red_square,bottom_left,2025-08-20_16h28.25.601,HideSeek_v1,2022.2.5,59.60320951752629,
,,,,,,,,,,,,,,,1,0,1,0,1,0,1,0,,,,,,,,,,,,,,,,,,,,,,,,,,,,,,,conditions/schedules/train_y_first/red_square_00/bottom_left/instructions/Slide14.png,conditions/schedules/train_y_first/red_square_00/bottom_left/instructions/Audio14.wav,1791.2338978000917,1791.225428350037,14,"[2.635589800076559, 18.44582620006986, 15.885973800206557, 18.92734060017392, 4.405655700014904, 4.419920899905264, 5.202962500043213, 10.989953499985859, 5.568417300004512, 6.333632500143722, 9.781956699909642, 13.894133100053295, 17.56332219997421, 16.185762400040403]","[0.03044379991479218, 0.0002543001901358366, 15.885980600025505, 0.00023530004546046257, 0.04969060001894832, 0.032129800179973245, 0.08090179995633662, 0.03044999996200204, 0.0948554000351578, 0.05729049979709089, 0.033141800202429295, 13.89414200000465, 0.10569990007206798, 16.185768899973482]",0,,,,,,,,,,,,,,,,,,,,,,,,,,,,,,,,,,,,,,,,,,,,,,,,,,,,,,,,,,,,,,,,,,,,,,,,,,,,,,,,,,,,,,,,,,,,,,,,,,,,,,,,,,,,,,,,,,,,,,,,,,,,5MQ1JW,train_y,red_square,bottom_left,2025-08-20_16h28.25.601,HideSeek_v1,2022.2.5,59.60320951752629,
2,0,3,0,3,0,0,16,2,instr_dim1_1,,,,,,1,0,1,0,,,,,0,0,0,0,,,,,,,,,,,,,,,,,,,,,,,,,,,,,,,,,,,,,stimuli/alien_stimuli/16.png,conditions/schedules/train_y_first/red_square_00/bottom_left/inputInstr_1.xlsx,stimuli/alien_stimuli/16.png,1807.5173050002195,1807.5173050002195,1807.5173050002195,1807.5173050002195,1807.5222823701333,return,7.050388399744406,"[-0.16, -0.08, 0, 0.08, 0.16, 0.24, 0.32, 0.4, 0.48, 0.56]","[-0.4, -0.32, -0.24, -0.16, -0.08, 0, 0.08, 0.16, 0.24, 0.32]",3,3,0,0,0.0,0.0,1814.7195883002132,1814.7195883002132,1814.7195883002132,1814.7195883002132,1814.7195883002132,1814.7195883002132,1814.7195883002132,1814.7116165801417,7.75741760013625,return,7.610106399981305,stimuli/alien_stimuli/16.png,16,0,2,,,,,,,,,,,,,,,,,,,,,,,,,,,,,,,,,,,,,,,,,,,,,,,,,,,,,,,,,,,,,,,,,,,,,,,,,,,,,,,,,,,,,,,,,5MQ1JW,train_y,red_square,bottom_left,2025-08-20_16h28.25.601,HideSeek_v1,2022.2.5,59.60320951752629,
,,,,,,,,,,,30,,,,1,0,1,0,,,,,,,,,,,,,,,,,,,,,,,,,,,,,,,,,,,,,,,,,,,,,,,,,,,,,,,,,,,,,,,,,,,,,,,,,,,,,,21,0.7,0,0,99,1,30,0,conditions/schedules/train_y_first/red_square_00/bottom_left/inputTrain_1.1.xlsx,99,1,1,1,0,,,,,,,,,,,,,,,,,,,,,,,,,,,,,,,,,,,,,,,,,,,,,,,,,,,,,,,,,,,,,,,,,,,,,,,,,,,5MQ1JW,train_y,red_square,bottom_left,2025-08-20_16h28.25.601,HideSeek_v1,2022.2.5,59.60320951752629,
,,,,,,,,,,,,,,,2,0,2,0,0,0,0,0,,,,,,,,,,,,,,,,,,,,,,,,,,,,,,,conditions/schedules/train_y_first/red_square_00/bottom_left/instructions/Slide15.png,conditions/schedules/train_y_first/red_square_00/bottom_left/instructions/Audio15.wav,1822.5056575001217,1822.501389299985,15,"[2.635589800076559, 18.44582620006986, 15.885973800206557, 18.92734060017392, 4.405655700014904, 4.419920899905264, 5.202962500043213, 10.989953499985859, 5.568417300004512, 6.333632500143722, 9.781956699909642, 13.894133100053295, 17.56332219997421, 16.185762400040403, 42.478759000077844]","[0.03044379991479218, 0.0002543001901358366, 15.885980600025505, 0.00023530004546046257, 0.04969060001894832, 0.032129800179973245, 0.08090179995633662, 0.03044999996200204, 0.0948554000351578, 0.05729049979709089, 0.033141800202429295, 13.89414200000465, 0.10569990007206798, 16.185768899973482, 42.47876610001549]",0,,,,,,,,,,,,,,,,,,,,,,,,,,,,,,,,,,,,,,,,,,,,,,,,,,,,,,,,,,,,,,,,,,,,,,,,,,,,,,,,,,,,,,,,,,,,,,,,,,,,,,,,,,,,,,,,,,,,,,,,,,,,5MQ1JW,train_y,red_square,bottom_left,2025-08-20_16h28.25.601,HideSeek_v1,2022.2.5,59.60320951752629,
,,,,,,,,,,,,,,,2,0,2,0,1,0,1,0,,,,,,,,,,,,,,,,,,,,,,,,,,,,,,,conditions/schedules/train_y_first/red_square_00/bottom_left/instructions/Slide16.png,conditions/schedules/train_y_first/red_square_00/bottom_left/instructions/Audio16.wav,1865.051198300207,1865.0374673400074,16,"[2.635589800076559, 18.44582620006986, 15.885973800206557, 18.92734060017392, 4.405655700014904, 4.419920899905264, 5.202962500043213, 10.989953499985859, 5.568417300004512, 6.333632500143722, 9.781956699909642, 13.894133100053295, 17.56332219997421, 16.185762400040403, 42.478759000077844, 21.467763100052252]","[0.03044379991479218, 0.0002543001901358366, 15.885980600025505, 0.00023530004546046257, 0.04969060001894832, 0.032129800179973245, 0.08090179995633662, 0.03044999996200204, 0.0948554000351578, 0.05729049979709089, 0.033141800202429295, 13.89414200000465, 0.10569990007206798, 16.185768899973482, 0.03413109993562102, 21.467770299874246]",0,,,,,,,,,,,,,,,,,,,,,,,,,,,,,,,,,,,,,,,,,,,,,,,,,,,,,,,,,,,,,,,,,,,,,,,,,,,,,,,,,,,,,,,,,,,,,,,,,,,,,,,,,,,,,,,,,,,,,,,,,,,,5MQ1JW,train_y,red_square,bottom_left,2025-08-20_16h28.25.601,HideSeek_v1,2022.2.5,59.60320951752629,
,0,0,0,1,0,1,15,,train_dim1_1,1,30,,,,2,0,2,0,,,,,,,,,0,0,0,0,0,0,0,0,0,0,0,0,,,,,,,,,,,,,,,,,,,,,,,,,stimuli/alien_stimuli/15.png,,,,,,,,,,,,,,,,,,,,,,,,,,,,,,,,,,,,,,,30,,,,,,,,1886.6246426000725,1886.6246426000725,1886.6246426000725,1886.6246426000725,1886.6246426000725,up,14.838899600086734,0,0,0,99,-0.16,-0.32,up,14.741020299959928,,,,,,,,,,,,,,,,,,,,,,,,,,,,,,,,,,,,,,,,,,,,,,,,,,,,,,,,,,,,5MQ1JW,train_y,red_square,bottom_left,2025-08-20_16h28.25.601,HideSeek_v1,2022.2.5,59.60320951752629,
,0,0,0,1,0,1,15,,train_dim1_1,1,30,,,,2,0,2,0,,,,,,,,,0,0,0,0,0,0,0,0,1,0,1,0,,,,,,,,,,,,,,,,,,,,,,,,,,,,,,,,,,,,,,,,,,,,,,,,,,,,,,,,,,,,,,,,30,,,,,,,,1901.4675851000939,1901.4675851000939,1901.4675851000939,1901.4675851000939,1901.4675851000939,up,2.7446534000337124,0,0,0,99,-0.16,-0.24,up,2.6470276000909507,,,,,,,,,,,,,,,,,,,,,,,,,,,,,,,,,,,,,,,,,,,,,,,,,,,,,,,,,,,,5MQ1JW,train_y,red_square,bottom_left,2025-08-20_16h28.25.601,HideSeek_v1,2022.2.5,59.60320951752629,
,0,0,0,1,0,1,15,,train_dim1_1,1,30,,,,2,0,2,0,,,,,,,,,0,0,0,0,0,0,0,0,2,0,2,0,,,,,,,,,,,,,,,,,,,,,,,,,,,,,,,,,,,,,,,,,,,,,,,,,,,,,,,,,,,,,,,,30,,,,,,,,1904.2044573000167,1904.2044573000167,1904.2044573000167,1904.2044573000167,1904.2044573000167,up,1.2106677000410855,0,0,0,99,-0.16,-0.15999999999999998,up,1.123323200037703,,,,,,,,,,,,,,,,,,,,,,,,,,,,,,,,,,,,,,,,,,,,,,,,,,,,,,,,,,,,5MQ1JW,train_y,red_square,bottom_left,2025-08-20_16h28.25.601,HideSeek_v1,2022.2.5,59.60320951752629,
,0,0,0,1,0,1,15,,train_dim1_1,1,30,,,,2,0,2,0,,,,,,,,,0,0,0,0,0,0,0,0,3,0,3,0,,,,,,,,,,,,,,,,,,,,,,,,,,,,,,,,,,,,,,,,,,,,,,,,,,,,,,,,,,,,,,,,30,,,,,,,,1905.4209138001315,1905.4209138001315,1905.4209138001315,1905.4209138001315,1905.4209138001315,up,1.6110066999681294,0,0,0,99,-0.16,-0.07999999999999997,up,1.5246584999840707,,,,,,,,,,,,,,,,,,,,,,,,,,,,,,,,,,,,,,,,,,,,,,,,,,,,,,,,,,,,5MQ1JW,train_y,red_square,bottom_left,2025-08-20_16h28.25.601,HideSeek_v1,2022.2.5,59.60320951752629,
,0,0,0,1,0,1,15,,train_dim1_1,1,30,,,,2,0,2,0,,,,,,,,,0,0,0,0,0,0,0,0,4,0,4,0,,,,,,,,,,,,,,,,,,,,,,,,,,,,,,,,,,,,,,,,,,,,,,,,,,,,,,,,,,,,,,,,30,,,,,,,,1907.0396181000397,1907.0396181000397,1907.0396181000397,1907.0396181000397,1907.0396181000397,up,1.4947202000766993,0,0,0,99,-0.16,2.7755575615628914e-17,up,1.4043707998935133,,,,,,,,,,,,,,,,,,,,,,,,,,,,,,,,,,,,,,,,,,,,,,,,,,,,,,,,,,,,5MQ1JW,train_y,red_square,bottom_left,2025-08-20_16h28.25.601,HideSeek_v1,2022.2.5,59.60320951752629,
,0,0,0,1,0,1,15,,train_dim1_1,1,30,,,,2,0,2,0,,,,,,,,,0,0,0,0,0,0,0,0,5,0,5,0,,,,,,,,,,,,,,,,,,,,,,,,,,,,,,,,,,,,,,,,,,,,,,,,,,,,,,,,,,,,,,,,30,,,,,,,,1908.5413332001772,1908.5413332001772,1908.5413332001772,1908.5413332001772,1908.5413332001772,right,1.943930999841541,0,0,0,99,-0.08,2.7755575615628914e-17,right,1.8674047000240535,,,,,,,,,,,,,,,,,,,,,,,,,,,,,,,,,,,,,,,,,,,,,,,,,,,,,,,,,,,,5MQ1JW,train_y,red_square,bottom_left,2025-08-20_16h28.25.601,HideSeek_v1,2022.2.5,59.60320951752629,
,0,0,0,1,0,1,15,,train_dim1_1,1,30,,,,2,0,2,0,,,,,,,,,0,0,0,0,0,0,0,0,6,0,6,0,,,,,,,,,,,,,,,,,,,,,,,,,,,,,,,,,,,,,,,,,,,,,,,,,,,,,,,,,,,,,,,,30,,,,,,,,1910.4923126001377,1910.4923126001377,1910.4923126001377,1910.4923126001377,1910.4923126001377,return,2.745287299854681,0,0,0,0,-0.08,2.7755575615628914e-17,return,2.661208199802786,5,1,-0.08,2.7755575615628914e-17,,,,,,,,,,,,,,,,,,,,,,,,,,,,,,,,,,,,,,,,,,,,,,,,,,,,,,,,5MQ1JW,train_y,red_square,bottom_left,2025-08-20_16h28.25.601,HideSeek_v1,2022.2.5,59.60320951752629,
,3,2,3,2,0,0,16,,train_dim1_1,2,30,,,,2,0,2,0,,,,,,,,,0,0,0,0,0,1,1,1,0,0,0,0,,,,,,,,,,,,,,,,,,,,,,,,,stimuli/alien_stimuli/16.png,,,,,,,,,,,,,,,,,,,,,,,,,,,,,stimuli/alien_stimuli/15.png,15,0,3,,,,,,,30,,,,,,,,1933.4672688001301,1933.4672688001301,1933.4672688001301,1933.4672688001301,1933.4672688001301,right,15.352122800191864,0,0,0,99,0.16,-0.24,right,15.256143399747089,,,,,1931.8921455000527,1933.4672688001301,-0.16,-0.32,0.08,0.0,-0.36,-0.16,-0.16,-0.16,-0.32,1914.822100700112,1914.822100700112,1914.822100700112,1914.822100700112,1914.822100700112,1914.822100700112,1914.822100700112,1914.822100700112,1914.8114115800709,17.20006029983051,return,17.053089999826625,,,,,,,,,,,,,,,,,,,,,,,,,,,,,,,,,5MQ1JW,train_y,red_square,bottom_left,2025-08-20_16h28.25.601,HideSeek_v1,2022.2.5,59.60320951752629,
,3,2,3,2,0,0,16,,train_dim1_1,2,30,,,,2,0,2,0,,,,,,,,,0,0,0,0,0,1,1,1,1,0,1,0,,,,,,,,,,,,,,,,,,,,,,,,,,,,,,,,,,,,,,,,,,,,,,,,,,,,,,,,,,,,,,,,30,,,,,,,,1948.8282644001301,1948.8282644001301,1948.8282644001301,1948.8282644001301,1948.8282644001301,right,1.1601164999883622,0,0,0,99,0.24,-0.24,right,1.053926499793306,,,,,,,,,,,,,,,,,,,,,,,,,,,,,,,,,,,,,,,,,,,,,,,,,,,,,,,,,,,,5MQ1JW,train_y,red_square,bottom_left,2025-08-20_16h28.25.601,HideSeek_v1,2022.2.5,59.60320951752629,
,3,2,3,2,0,0,16,,train_dim1_1,2,30,,,,2,0,2,0,,,,,,,,,0,0,0,0,0,1,1,1,2,0,2,0,,,,,,,,,,,,,,,,,,,,,,,,,,,,,,,,,,,,,,,,,,,,,,,,,,,,,,,,,,,,,,,,30,,,,,,,,1949.9742849001195,1949.9742849001195,1949.9742849001195,1949.9742849001195,1949.9742849001195,right,0.8936752998270094,0,0,0,99,0.32,-0.24,right,0.8057264999952167,,,,,,,,,,,,,,,,,,,,,,,,,,,,,,,,,,,,,,,,,,,,,,,,,,,,,,,,,,,,5MQ1JW,train_y,red_square,bottom_left,2025-08-20_16h28.25.601,HideSeek_v1,2022.2.5,59.60320951752629,
,3,2,3,2,0,0,16,,train_dim1_1,2,30,,,,2,0,2,0,,,,,,,,,0,0,0,0,0,1,1,1,3,0,3,0,,,,,,,,,,,,,,,,,,,,,,,,,,,,,,,,,,,,,,,,,,,,,,,,,,,,,,,,,,,,,,,,30,,,,,,,,1950.875044300221,1950.875044300221,1950.875044300221,1950.875044300221,1950.875044300221,up,2.0777094999793917,0,0,0,99,0.32,-0.15999999999999998,up,1.9971873997710645,,,,,,,,,,,,,,,,,,,,,,,,,,,,,,,,,,,,,,,,,,,,,,,,,,,,,,,,,,,,5MQ1JW,train_y,red_square,bottom_left,2025-08-20_16h28.25.601,HideSeek_v1,2022.2.5,59.60320951752629,
,3,2,3,2,0,0,16,,train_dim1_1,2,30,,,,2,0,2,0,,,,,,,,,0,0,0,0,0,1,1,1,4,0,4,0,,,,,,,,,,,,,,,,,,,,,,,,,,,,,,,,,,,,,,,,,,,,,,,,,,,,,,,,,,,,,,,,30,,,,,,,,1952.9600332002155,1952.9600332002155,1952.9600332002155,1952.9600332002155,1952.9600332002155,up,0.5599999001715332,0,0,0,99,0.32,-0.07999999999999997,up,0.47897709999233484,,,,,,,,,,,,,,,,,,,,,,,,,,,,,,,,,,,,,,,,,,,,,,,,,,,,,,,,,,,,5MQ1JW,train_y,red_square,bottom_left,2025-08-20_16h28.25.601,HideSeek_v1,2022.2.5,59.60320951752629,
,3,2,3,2,0,0,16,,train_dim1_1,2,30,,,,2,0,2,0,,,,,,,,,0,0,0,0,0,1,1,1,5,0,5,0,,,,,,,,,,,,,,,,,,,,,,,,,,,,,,,,,,,,,,,,,,,,,,,,,,,,,,,,,,,,,,,,30,,,,,,,,1953.5276673000772,1953.5276673000772,1953.5276673000772,1953.5276673000772,1953.5276673000772,up,0.4933197000063956,0,0,0,99,0.32,2.7755575615628914e-17,up,0.40830099978484213,,,,,,,,,,,,,,,,,,,,,,,,,,,,,,,,,,,,,,,,,,,,,,,,,,,,,,,,,,,,5MQ1JW,train_y,red_square,bottom_left,2025-08-20_16h28.25.601,HideSeek_v1,2022.2.5,59.60320951752629,
,3,2,3,2,0,0,16,,train_dim1_1,2,30,,,,2,0,2,0,,,,,,,,,0,0,0,0,0,1,1,1,6,0,6,0,,,,,,,,,,,,,,,,,,,,,,,,,,,,,,,,,,,,,,,,,,,,,,,,,,,,,,,,,,,,,,,,30,,,,,,,,1954.027331400197,1954.027331400197,1954.027331400197,1954.027331400197,1954.027331400197,left,1.34387579979375,0,0,0,99,0.24,2.7755575615628914e-17,left,1.2635945999063551,,,,,,,,,,,,,,,,,,,,,,,,,,,,,,,,,,,,,,,,,,,,,,,,,,,,,,,,,,,,5MQ1JW,train_y,red_square,bottom_left,2025-08-20_16h28.25.601,HideSeek_v1,2022.2.5,59.60320951752629,
,3,2,3,2,0,0,16,,train_dim1_1,2,30,,,,2,0,2,0,,,,,,,,,0,0,0,0,0,1,1,1,7,0,7,0,,,,,,,,,,,,,,,,,,,,,,,,,,,,,,,,,,,,,,,,,,,,,,,,,,,,,,,,,,,,,,,,30,,,,,,,,1955.3788073000032,1955.3788073000032,1955.3788073000032,1955.3788073000032,1955.3788073000032,up,1.4774466999806464,0,0,0,99,0.24,0.08000000000000003,up,1.3936888999305665,,,,,,,,,,,,,,,,,,,,,,,,,,,,,,,,,,,,,,,,,,,,,,,,,,,,,,,,,,,,5MQ1JW,train_y,red_square,bottom_left,2025-08-20_16h28.25.601,HideSeek_v1,2022.2.5,59.60320951752629,
,3,2,3,2,0,0,16,,train_dim1_1,2,30,,,,2,0,2,0,,,,,,,,,0,0,0,0,0,1,1,1,8,0,8,0,,,,,,,,,,,,,,,,,,,,,,,,,,,,,,,,,,,,,,,,,,,,,,,,,,,,,,,,,,,,,,,,30,,,,,,,,1956.8625992001034,1956.8625992001034,1956.8625992001034,1956.8625992001034,1956.8625992001034,up,0.4937012998852879,0,0,0,99,0.24,0.16000000000000003,up,0.40828570001758635,,,,,,,,,,,,,,,,,,,,,,,,,,,,,,,,,,,,,,,,,,,,,,,,,,,,,,,,,,,,5MQ1JW,train_y,red_square,bottom_left,2025-08-20_16h28.25.601,HideSeek_v1,2022.2.5,59.60320951752629,
,3,2,3,2,0,0,16,,train_dim1_1,2,30,,,,2,0,2,0,,,,,,,,,0,0,0,0,0,1,1,1,9,0,9,0,,,,,,,,,,,,,,,,,,,,,,,,,,,,,,,,,,,,,,,,,,,,,,,,,,,,,,,,,,,,,,,,30,,,,,,,,1957.3635358000174,1957.3635358000174,1957.3635358000174,1957.3635358000174,1957.3635358000174,down,10.017877500038594,0,0,0,99,0.24,0.08000000000000003,down,9.940384699963033,,,,,,,,,,,,,,,,,,,,,,,,,,,,,,,,,,,,,,,,,,,,,,,,,,,,,,,,,,,,5MQ1JW,train_y,red_square,bottom_left,2025-08-20_16h28.25.601,HideSeek_v1,2022.2.5,59.60320951752629,
,3,2,3,2,0,0,16,,train_dim1_1,2,30,,,,2,0,2,0,,,,,,,,,0,0,0,0,0,1,1,1,10,0,10,0,,,,,,,,,,,,,,,,,,,,,,,,,,,,,,,,,,,,,,,,,,,,,,,,,,,,,,,,,,,,,,,,30,,,,,,,,1967.3910939001944,1967.3910939001944,1967.3910939001944,1967.3910939001944,1967.3910939001944,down,0.8269609999842942,0,0,0,99,0.24,2.7755575615628914e-17,down,0.7347180997021496,,,,,,,,,,,,,,,,,,,,,,,,,,,,,,,,,,,,,,,,,,,,,,,,,,,,,,,,,,,,5MQ1JW,train_y,red_square,bottom_left,2025-08-20_16h28.25.601,HideSeek_v1,2022.2.5,59.60320951752629,
,3,2,3,2,0,0,16,,train_dim1_1,2,30,,,,2,0,2,0,,,,,,,,,0,0,0,0,0,1,1,1,11,0,11,0,,,,,,,,,,,,,,,,,,,,,,,,,,,,,,,,,,,,,,,,,,,,,,,,,,,,,,,,,,,,,,,,30,,,,,,,,1968.223435500171,1968.223435500171,1968.223435500171,1968.223435500171,1968.223435500171,left,2.2946574001107365,0,0,0,99,0.15999999999999998,2.7755575615628914e-17,left,2.2035064997617155,,,,,,,,,,,,,,,,,,,,,,,,,,,,,,,,,,,,,,,,,,,,,,,,,,,,,,,,,,,,5MQ1JW,train_y,red_square,bottom_left,2025-08-20_16h28.25.601,HideSeek_v1,2022.2.5,59.60320951752629,
,3,2,3,2,0,0,16,,train_dim1_1,2,30,,,,2,0,2,0,,,,,,,,,0,0,0,0,0,1,1,1,12,0,12,0,,,,,,,,,,,,,,,,,,,,,,,,,,,,,,,,,,,,,,,,,,,,,,,,,,,,,,,,,,,,,,,,30,,,,,,,,1970.5245492001995,1970.5245492001995,1970.5245492001995,1970.5245492001995,1970.5245492001995,return,2.0280123001430184,0,0,0,0,0.15999999999999998,2.7755575615628914e-17,return,1.9392144999001175,8,2,0.15999999999999998,2.7755575615628914e-17,,,,,,,,,,,,,,,,,,,,,,,,,,,,,,,,,,,,,,,,,,,,,,,,,,,,,,,,5MQ1JW,train_y,red_square,bottom_left,2025-08-20_16h28.25.601,HideSeek_v1,2022.2.5,59.60320951752629,
,2,3,2,6,0,3,13,,train_dim1_1,3,30,,,,2,0,2,0,,,,,,,,,0,0,0,0,0,2,2,2,0,0,0,0,,,,,,,,,,,,,,,,,,,,,,,,,stimuli/alien_stimuli/13.png,,,,,,,,,,,,,,,,,,,,,,,,,,,,,stimuli/alien_stimuli/16.png,16,3,4,,,,,,,30,,,,,,,,1985.1780808002222,1985.1780808002222,1985.1780808002222,1985.1780808002222,1985.1780808002222,return,9.06208089995198,0,0,0,0,0,-0.16,return,8.967102699913085,8,2,0,-0.16,1983.6019426002167,1985.1780808002222,0.08,-0.24,0.0,0.0,-0.24,0.08,0.08,0.08,-0.24,1974.128764500143,1974.128764500143,1974.128764500143,1974.128764500143,1974.128764500143,1974.128764500143,1974.128764500143,1974.128764500143,1974.1273056799546,9.593576200073585,return,9.451894199708477,,,,,,,,,,,,,,,,,,,,,,,,,,,,,,,,,5MQ1JW,train_y,red_square,bottom_left,2025-08-20_16h28.25.601,HideSeek_v1,2022.2.5,59.60320951752629,
,0,1,0,5,0,4,12,,train_dim1_1,4,30,,,,2,0,2,0,,,,,,,,,0,0,0,0,0,3,3,3,0,0,0,0,,,,,,,,,,,,,,,,,,,,,,,,,stimuli/alien_stimuli/12.png,,,,,,,,,,,,,,,,,,,,,,,,,,,,,stimuli/alien_stimuli/13.png,13,2,5,,,,,,,30,,,,,,,,2003.7579947002232,2003.7579947002232,2003.7579947002232,2003.7579947002232,2003.7579947002232,down,8.530023500090465,0,0,0,99,-0.16,-0.4,down,8.449543899856508,,,,,2002.2007727001328,2003.7579947002232,0,0.08,0.24,0.0,-0.04,0,0.0,0,0.08,1995.808394700056,1995.808394700056,1995.808394700056,1995.808394700056,1995.808394700056,1995.808394700056,1995.808394700056,1995.808394700056,1995.795546580106,6.523904100060463,return,6.3714801997412,,,,,,,,,,,,,,,,,,,,,,,,,,,,,,,,,5MQ1JW,train_y,red_square,bottom_left,2025-08-20_16h28.25.601,HideSeek_v1,2022.2.5,59.60320951752629,
,0,1,0,5,0,4,12,,train_dim1_1,4,30,,,,2,0,2,0,,,,,,,,,0,0,0,0,0,3,3,3,1,0,1,0,,,,,,,,,,,,,,,,,,,,,,,,,,,,,,,,,,,,,,,,,,,,,,,,,,,,,,,,,,,,,,,,30,,,,,,,,2012.2945580000523,2012.2945580000523,2012.2945580000523,2012.2945580000523,2012.2945580000523,down,1.6104721000883728,0,0,0,99,-0.16,-0.48000000000000004,down,1.519497999921441,,,,,,,,,,,,,,,,,,,,,,,,,,,,,,,,,,,,,,,,,,,,,,,,,,,,,,,,,,,,5MQ1JW,train_y,red_square,bottom_left,2025-08-20_16h28.25.601,HideSeek_v1,2022.2.5,59.60320951752629,
,0,1,0,5,0,4,12,,train_dim1_1,4,30,,,,2,0,2,0,,,,,,,,,0,0,0,0,0,3,3,3,2,0,2,0,,,,,,,,,,,,,,,,,,,,,,,,,,,,,,,,,,,,,,,,,,,,,,,,,,,,,,,,,,,,,,,,30,,,,,,,,2013.9112220001407,2013.9112220001407,2013.9112220001407,2013.9112220001407,2013.9112220001407,down,1.577005999861285,0,0,0,99,-0.16,-0.56,down,1.4917079000733793,,,,,,,,,,,,,,,,,,,,,,,,,,,,,,,,,,,,,,,,,,,,,,,,,,,,,,,,,,,,5MQ1JW,train_y,red_square,bottom_left,2025-08-20_16h28.25.601,HideSeek_v1,2022.2.5,59.60320951752629,
,0,1,0,5,0,4,12,,train_dim1_1,4,30,,,,2,0,2,0,,,,,,,,,0,0,0,0,0,3,3,3,3,0,3,0,,,,,,,,,,,,,,,,,,,,,,,,,,,,,,,,,,,,,,,,,,,,,,,,,,,,,,,,,,,,,,,,30,,,,,,,,2015.495648200158,2015.495648200158,2015.495648200158,2015.495648200158,2015.495648200158,up,2.078157000010833,0,0,0,99,-0.16,-0.48000000000000004,up,1.9988971997518092,,,,,,,,,,,,,,,,,,,,,,,,,,,,,,,,,,,,,,,,,,,,,,,,,,,,,,,,,,,,5MQ1JW,train_y,red_square,bottom_left,2025-08-20_16h28.25.601,HideSeek_v1,2022.2.5,59.60320951752629,
,0,1,0,5,0,4,12,,train_dim1_1,4,30,,,,2,0,2,0,,,,,,,,,0,0,0,0,0,3,3,3,4,0,4,0,,,,,,,,,,,,,,,,,,,,,,,,,,,,,,,,,,,,,,,,,,,,,,,,,,,,,,,,,,,,,,,,30,,,,,,,,2017.5809341000859,2017.5809341000859,2017.5809341000859,2017.5809341000859,2017.5809341000859,up,0.4927674001082778,0,0,0,99,-0.16,-0.4,up,0.417363400105387,,,,,,,,,,,,,,,,,,,,,,,,,,,,,,,,,,,,,,,,,,,,,,,,,,,,,,,,,,,,5MQ1JW,train_y,red_square,bottom_left,2025-08-20_16h28.25.601,HideSeek_v1,2022.2.5,59.60320951752629,
,0,1,0,5,0,4,12,,train_dim1_1,4,30,,,,2,0,2,0,,,,,,,,,0,0,0,0,0,3,3,3,5,0,5,0,,,,,,,,,,,,,,,,,,,,,,,,,,,,,,,,,,,,,,,,,,,,,,,,,,,,,,,,,,,,,,,,30,,,,,,,,2018.081634900067,2018.081634900067,2018.081634900067,2018.081634900067,2018.081634900067,right,1.444054099963978,0,0,0,99,-0.08,-0.4,right,1.3516315999440849,,,,,,,,,,,,,,,,,,,,,,,,,,,,,,,,,,,,,,,,,,,,,,,,,,,,,,,,,,,,5MQ1JW,train_y,red_square,bottom_left,2025-08-20_16h28.25.601,HideSeek_v1,2022.2.5,59.60320951752629,
,0,1,0,5,0,4,12,,train_dim1_1,4,30,,,,2,0,2,0,,,,,,,,,0,0,0,0,0,3,3,3,6,0,6,0,,,,,,,,,,,,,,,,,,,,,,,,,,,,,,,,,,,,,,,,,,,,,,,,,,,,,,,,,,,,,,,,30,,,,,,,,2019.5331567001995,2019.5331567001995,2019.5331567001995,2019.5331567001995,2019.5331567001995,right,0.5928134000860155,0,0,0,99,0.0,-0.4,right,0.5145820998586714,,,,,,,,,,,,,,,,,,,,,,,,,,,,,,,,,,,,,,,,,,,,,,,,,,,,,,,,,,,,5MQ1JW,train_y,red_square,bottom_left,2025-08-20_16h28.25.601,HideSeek_v1,2022.2.5,59.60320951752629,
,0,1,0,5,0,4,12,,train_dim1_1,4,30,,,,2,0,2,0,,,,,,,,,0,0,0,0,0,3,3,3,7,0,7,0,,,,,,,,,,,,,,,,,,,,,,,,,,,,,,,,,,,,,,,,,,,,,,,,,,,,,,,,,,,,,,,,30,,,,,,,,2020.132949200226,2020.132949200226,2020.132949200226,2020.132949200226,2020.132949200226,right,0.4763358999043703,0,0,0,99,0.08,-0.4,right,0.3931001001037657,,,,,,,,,,,,,,,,,,,,,,,,,,,,,,,,,,,,,,,,,,,,,,,,,,,,,,,,,,,,5MQ1JW,train_y,red_square,bottom_left,2025-08-20_16h28.25.601,HideSeek_v1,2022.2.5,59.60320951752629,
,0,1,0,5,0,4,12,,train_dim1_1,4,30,,,,2,0,2,0,,,,,,,,,0,0,0,0,0,3,3,3,8,0,8,0,,,,,,,,,,,,,,,,,,,,,,,,,,,,,,,,,,,,,,,,,,,,,,,,,,,,,,,,,,,,,,,,30,,,,,,,,2020.6166774001904,2020.6166774001904,2020.6166774001904,2020.6166774001904,2020.6166774001904,right,0.5268041000235826,0,0,0,99,0.16,-0.4,right,0.44753649993799627,,,,,,,,,,,,,,,,,,,,,,,,,,,,,,,,,,,,,,,,,,,,,,,,,,,,,,,,,,,,5MQ1JW,train_y,red_square,bottom_left,2025-08-20_16h28.25.601,HideSeek_v1,2022.2.5,59.60320951752629,
,0,1,0,5,0,4,12,,train_dim1_1,4,30,,,,2,0,2,0,,,,,,,,,0,0,0,0,0,3,3,3,9,0,9,0,,,,,,,,,,,,,,,,,,,,,,,,,,,,,,,,,,,,,,,,,,,,,,,,,,,,,,,,,,,,,,,,30,,,,,,,,2021.1505368000362,2021.1505368000362,2021.1505368000362,2021.1505368000362,2021.1505368000362,right,0.6100579998455942,0,0,0,99,0.24,-0.4,right,0.5275332999881357,,,,,,,,,,,,,,,,,,,,,,,,,,,,,,,,,,,,,,,,,,,,,,,,,,,,,,,,,,,,5MQ1JW,train_y,red_square,bottom_left,2025-08-20_16h28.25.601,HideSeek_v1,2022.2.5,59.60320951752629,
,0,1,0,5,0,4,12,,train_dim1_1,4,30,,,,2,0,2,0,,,,,,,,,0,0,0,0,0,3,3,3,10,0,10,0,,,,,,,,,,,,,,,,,,,,,,,,,,,,,,,,,,,,,,,,,,,,,,,,,,,,,,,,,,,,,,,,30,,,,,,,,2021.7662140000612,2021.7662140000612,2021.7662140000612,2021.7662140000612,2021.7662140000612,up,2.5284971999935806,0,0,0,99,0.24,-0.32,up,2.4537624998483807,,,,,,,,,,,,,,,,,,,,,,,,,,,,,,,,,,,,,,,,,,,,,,,,,,,,,,,,,,,,5MQ1JW,train_y,red_square,bottom_left,2025-08-20_16h28.25.601,HideSeek_v1,2022.2.5,59.60320951752629,
,0,1,0,5,0,4,12,,train_dim1_1,4,30,,,,2,0,2,0,,,,,,,,,0,0,0,0,0,3,3,3,11,0,11,0,,,,,,,,,,,,,,,,,,,,,,,,,,,,,,,,,,,,,,,,,,,,,,,,,,,,,,,,,,,,,,,,30,,,,,,,,2024.3044132001232,2024.3044132001232,2024.3044132001232,2024.3044132001232,2024.3044132001232,up,0.37651730002835393,0,0,0,99,0.24,-0.24,up,0.2945686997845769,,,,,,,,,,,,,,,,,,,,,,,,,,,,,,,,,,,,,,,,,,,,,,,,,,,,,,,,,,,,5MQ1JW,train_y,red_square,bottom_left,2025-08-20_16h28.25.601,HideSeek_v1,2022.2.5,59.60320951752629,
,0,1,0,5,0,4,12,,train_dim1_1,4,30,,,,2,0,2,0,,,,,,,,,0,0,0,0,0,3,3,3,12,0,12,0,,,,,,,,,,,,,,,,,,,,,,,,,,,,,,,,,,,,,,,,,,,,,,,,,,,,,,,,,,,,,,,,30,,,,,,,,2024.6880011002067,2024.6880011002067,2024.6880011002067,2024.6880011002067,2024.6880011002067,up,0.35975370020605624,0,0,0,99,0.24,-0.15999999999999998,up,0.26844139979220927,,,,,,,,,,,,,,,,,,,,,,,,,,,,,,,,,,,,,,,,,,,,,,,,,,,,,,,,,,,,5MQ1JW,train_y,red_square,bottom_left,2025-08-20_16h28.25.601,HideSeek_v1,2022.2.5,59.60320951752629,
,0,1,0,5,0,4,12,,train_dim1_1,4,30,,,,2,0,2,0,,,,,,,,,0,0,0,0,0,3,3,3,13,0,13,0,,,,,,,,,,,,,,,,,,,,,,,,,,,,,,,,,,,,,,,,,,,,,,,,,,,,,,,,,,,,,,,,30,,,,,,,,2025.0539843000006,2025.0539843000006,2025.0539843000006,2025.0539843000006,2025.0539843000006,up,0.4432580000720918,0,0,0,99,0.24,-0.07999999999999997,up,0.365064499899745,,,,,,,,,,,,,,,,,,,,,,,,,,,,,,,,,,,,,,,,,,,,,,,,,,,,,,,,,,,,5MQ1JW,train_y,red_square,bottom_left,2025-08-20_16h28.25.601,HideSeek_v1,2022.2.5,59.60320951752629,
,0,1,0,5,0,4,12,,train_dim1_1,4,30,,,,2,0,2,0,,,,,,,,,0,0,0,0,0,3,3,3,14,0,14,0,,,,,,,,,,,,,,,,,,,,,,,,,,,,,,,,,,,,,,,,,,,,,,,,,,,,,,,,,,,,,,,,30,,,,,,,,2025.504880500026,2025.504880500026,2025.504880500026,2025.504880500026,2025.504880500026,return,2.0279844999313354,0,0,0,0,0.24,-0.07999999999999997,return,1.9364524998236448,11,7,0.24,-0.07999999999999997,,,,,,,,,,,,,,,,,,,,,,,,,,,,,,,,,,,,,,,,,,,,,,,,,,,,,,,,5MQ1JW,train_y,red_square,bottom_left,2025-08-20_16h28.25.601,HideSeek_v1,2022.2.5,59.60320951752629,
,3,3,3,8,0,5,11,,train_dim1_1,5,30,,,,2,0,2,0,,,,,,,,,0,0,0,0,0,4,4,4,0,0,0,0,,,,,,,,,,,,,,,,,,,,,,,,,stimuli/alien_stimuli/11.png,,,,,,,,,,,,,,,,,,,,,,,,,,,,,stimuli/alien_stimuli/12.png,12,0,6,,,,,,,30,,,,,,,,2034.6648531001993,2034.6648531001993,2034.6648531001993,2034.6648531001993,2034.6648531001993,return,22.25795890018344,0,0,0,0,0.08,-0.16,return,22.18228689976968,11,7,0.08,-0.16,2033.110184899997,2034.6648531001993,-0.16,0,0.32,0.0,-0.16,-0.16,-0.16,-0.16,0,2029.1046982000116,2029.1046982000116,2029.1046982000116,2029.1046982000116,2029.1046982000116,2029.1046982000116,2029.1046982000116,2029.1046982000116,2029.1063520801254,4.12215970014222,return,3.9807780999690294,,,,,,,,,,,,,,,,,,,,,,,,,,,,,,,,,5MQ1JW,train_y,red_square,bottom_left,2025-08-20_16h28.25.601,HideSeek_v1,2022.2.5,59.60320951752629,
,1,4,1,8,0,4,12,,train_dim1_1,6,30,,,,2,0,2,0,,,,,,,,,0,0,0,0,0,5,5,5,0,0,0,0,,,,,,,,,,,,,,,,,,,,,,,,,stimuli/alien_stimuli/12.png,,,,,,,,,,,,,,,,,,,,,,,,,,,,,stimuli/alien_stimuli/11.png,11,3,7,,,,,,,30,,,,,,,,2063.5083899002057,2063.5083899002057,2063.5083899002057,2063.5083899002057,2063.5083899002057,up,10.363533600000665,0,0,0,99,-0.08,0.0,up,10.276176699902862,,,,,2061.950436500134,2063.5083899002057,0.08,0.24,0.4,0.0,0.039999999999999994,0.08,0.08,0.08,0.24,2058.5128417001106,2058.5128417001106,2058.5128417001106,2058.5128417001106,2058.5128417001106,2058.5128417001106,2058.5128417001106,2058.5128417001106,2058.514127189992,3.5718782998155802,return,3.41527139977552,,,,,,,,,,,,,,,,,,,,,,,,,,,,,,,,,5MQ1JW,train_y,red_square,bottom_left,2025-08-20_16h28.25.601,HideSeek_v1,2022.2.5,59.60320951752629,
,1,4,1,8,0,4,12,,train_dim1_1,6,30,,,,2,0,2,0,,,,,,,,,0,0,0,0,0,5,5,5,1,0,1,0,,,,,,,,,,,,,,,,,,,,,,,,,,,,,,,,,,,,,,,,,,,,,,,,,,,,,,,,,,,,,,,,30,,,,,,,,2073.895452100085,2073.895452100085,2073.895452100085,2073.895452100085,2073.895452100085,up,0.709232599940151,0,0,0,99,-0.08,0.08,up,0.6120259999297559,,,,,,,,,,,,,,,,,,,,,,,,,,,,,,,,,,,,,,,,,,,,,,,,,,,,,,,,,,,,5MQ1JW,train_y,red_square,bottom_left,2025-08-20_16h28.25.601,HideSeek_v1,2022.2.5,59.60320951752629,
,1,4,1,8,0,4,12,,train_dim1_1,6,30,,,,2,0,2,0,,,,,,,,,0,0,0,0,0,5,5,5,2,0,2,0,,,,,,,,,,,,,,,,,,,,,,,,,,,,,,,,,,,,,,,,,,,,,,,,,,,,,,,,,,,,,,,,30,,,,,,,,2074.595086600166,2074.595086600166,2074.595086600166,2074.595086600166,2074.595086600166,up,0.5434328999835998,0,0,0,99,-0.08,0.16,up,0.45619589975103736,,,,,,,,,,,,,,,,,,,,,,,,,,,,,,,,,,,,,,,,,,,,,,,,,,,,,,,,,,,,5MQ1JW,train_y,red_square,bottom_left,2025-08-20_16h28.25.601,HideSeek_v1,2022.2.5,59.60320951752629,
,1,4,1,8,0,4,12,,train_dim1_1,6,30,,,,2,0,2,0,,,,,,,,,0,0,0,0,0,5,5,5,3,0,3,0,,,,,,,,,,,,,,,,,,,,,,,,,,,,,,,,,,,,,,,,,,,,,,,,,,,,,,,,,,,,,,,,30,,,,,,,,2075.1446752001066,2075.1446752001066,2075.1446752001066,2075.1446752001066,2075.1446752001066,up,0.42610489996150136,0,0,0,99,-0.08,0.24,up,0.3424616998527199,,,,,,,,,,,,,,,,,,,,,,,,,,,,,,,,,,,,,,,,,,,,,,,,,,,,,,,,,,,,5MQ1JW,train_y,red_square,bottom_left,2025-08-20_16h28.25.601,HideSeek_v1,2022.2.5,59.60320951752629,
,1,4,1,8,0,4,12,,train_dim1_1,6,30,,,,2,0,2,0,,,,,,,,,0,0,0,0,0,5,5,5,4,0,4,0,,,,,,,,,,,,,,,,,,,,,,,,,,,,,,,,,,,,,,,,,,,,,,,,,,,,,,,,,,,,,,,,30,,,,,,,,2075.581188700162,2075.581188700162,2075.581188700162,2075.581188700162,2075.581188700162,return,2.642868199851364,1,0,0,1,-0.08,0.24,return,2.550977800041437,15,7,-0.08,0.24,,,,,,,,,,,,,,,,,,,,,,,,,,,,,,,,,,,,,,,,,,,,,,,,,,,,,,,,5MQ1JW,train_y,red_square,bottom_left,2025-08-20_16h28.25.601,HideSeek_v1,2022.2.5,59.60320951752629,
,1,3,1,6,0,3,13,,train_dim1_1,7,30,,,,2,0,2,0,,,,,,,,,0,0,0,0,0,6,6,6,0,0,0,0,,,,,,,,,,,,,,,,,,,,,,,,,stimuli/alien_stimuli/13.png,,,,,,,,,,,,,,,,,,,,,,,,,,,,,stimuli/alien_stimuli/12.png,12,1,8,,,,,,,30,,,,,,,,2086.324801400071,2086.324801400071,2086.324801400071,2086.324801400071,2086.324801400071,right,6.144004799891263,1,0,0,99,0.0,-0.16,right,6.066035399911925,,,,,2084.769485300174,2086.324801400071,-0.08,0.24,0.32,0.0,0.07999999999999999,-0.08,-0.08,-0.08,0.24,2079.80101740011,2079.80101740011,2079.80101740011,2079.80101740011,2079.80101740011,2079.80101740011,2079.80101740011,2079.80101740011,2079.7985020801425,5.089827999938279,return,4.947050499962643,,,,,,,,,,,,,,,,,,,,,,,,,,,,,,,,,5MQ1JW,train_y,red_square,bottom_left,2025-08-20_16h28.25.601,HideSeek_v1,2022.2.5,59.60320951752629,
,1,3,1,6,0,3,13,,train_dim1_1,7,30,,,,2,0,2,0,,,,,,,,,0,0,0,0,0,6,6,6,1,0,1,0,,,,,,,,,,,,,,,,,,,,,,,,,,,,,,,,,,,,,,,,,,,,,,,,,,,,,,,,,,,,,,,,30,,,,,,,,2092.4765112001915,2092.4765112001915,2092.4765112001915,2092.4765112001915,2092.4765112001915,right,0.5761478000786155,1,0,0,99,0.08,-0.16,right,0.5007046998944134,,,,,,,,,,,,,,,,,,,,,,,,,,,,,,,,,,,,,,,,,,,,,,,,,,,,,,,,,,,,5MQ1JW,train_y,red_square,bottom_left,2025-08-20_16h28.25.601,HideSeek_v1,2022.2.5,59.60320951752629,
,1,3,1,6,0,3,13,,train_dim1_1,7,30,,,,2,0,2,0,,,,,,,,,0,0,0,0,0,6,6,6,2,0,2,0,,,,,,,,,,,,,,,,,,,,,,,,,,,,,,,,,,,,,,,,,,,,,,,,,,,,,,,,,,,,,,,,30,,,,,,,,2093.059708900051,2093.059708900051,2093.059708900051,2093.059708900051,2093.059708900051,right,0.4599826999474317,1,0,0,99,0.16,-0.16,right,0.3817154997959733,,,,,,,,,,,,,,,,,,,,,,,,,,,,,,,,,,,,,,,,,,,,,,,,,,,,,,,,,,,,5MQ1JW,train_y,red_square,bottom_left,2025-08-20_16h28.25.601,HideSeek_v1,2022.2.5,59.60320951752629,
,1,3,1,6,0,3,13,,train_dim1_1,7,30,,,,2,0,2,0,,,,,,,,,0,0,0,0,0,6,6,6,3,0,3,0,,,,,,,,,,,,,,,,,,,,,,,,,,,,,,,,,,,,,,,,,,,,,,,,,,,,,,,,,,,,,,,,30,,,,,,,,2093.5267156001646,2093.5267156001646,2093.5267156001646,2093.5267156001646,2093.5267156001646,right,0.876759400125593,1,0,0,99,0.24,-0.16,right,0.7986048997845501,,,,,,,,,,,,,,,,,,,,,,,,,,,,,,,,,,,,,,,,,,,,,,,,,,,,,,,,,,,,5MQ1JW,train_y,red_square,bottom_left,2025-08-20_16h28.25.601,HideSeek_v1,2022.2.5,59.60320951752629,
,1,3,1,6,0,3,13,,train_dim1_1,7,30,,,,2,0,2,0,,,,,,,,,0,0,0,0,0,6,6,6,4,0,4,0,,,,,,,,,,,,,,,,,,,,,,,,,,,,,,,,,,,,,,,,,,,,,,,,,,,,,,,,,,,,,,,,30,,,,,,,,2094.4120731002185,2094.4120731002185,2094.4120731002185,2094.4120731002185,2094.4120731002185,left,4.26332789985463,1,0,0,99,0.15999999999999998,-0.16,left,4.173957799794152,,,,,,,,,,,,,,,,,,,,,,,,,,,,,,,,,,,,,,,,,,,,,,,,,,,,,,,,,,,,5MQ1JW,train_y,red_square,bottom_left,2025-08-20_16h28.25.601,HideSeek_v1,2022.2.5,59.60320951752629,
,1,3,1,6,0,3,13,,train_dim1_1,7,30,,,,2,0,2,0,,,,,,,,,0,0,0,0,0,6,6,6,5,0,5,0,,,,,,,,,,,,,,,,,,,,,,,,,,,,,,,,,,,,,,,,,,,,,,,,,,,,,,,,,,,,,,,,30,,,,,,,,2098.6816645001527,2098.6816645001527,2098.6816645001527,2098.6816645001527,2098.6816645001527,left,0.3429181999526918,1,0,0,99,0.07999999999999997,-0.16,left,0.2514402999076992,,,,,,,,,,,,,,,,,,,,,,,,,,,,,,,,,,,,,,,,,,,,,,,,,,,,,,,,,,,,5MQ1JW,train_y,red_square,bottom_left,2025-08-20_16h28.25.601,HideSeek_v1,2022.2.5,59.60320951752629,
,1,3,1,6,0,3,13,,train_dim1_1,7,30,,,,2,0,2,0,,,,,,,,,0,0,0,0,0,6,6,6,6,0,6,0,,,,,,,,,,,,,,,,,,,,,,,,,,,,,,,,,,,,,,,,,,,,,,,,,,,,,,,,,,,,,,,,30,,,,,,,,2099.030856500147,2099.030856500147,2099.030856500147,2099.030856500147,2099.030856500147,left,0.29334960016421974,1,0,0,99,-2.7755575615628914e-17,-0.16,left,0.21064149984158576,,,,,,,,,,,,,,,,,,,,,,,,,,,,,,,,,,,,,,,,,,,,,,,,,,,,,,,,,,,,5MQ1JW,train_y,red_square,bottom_left,2025-08-20_16h28.25.601,HideSeek_v1,2022.2.5,59.60320951752629,
,1,3,1,6,0,3,13,,train_dim1_1,7,30,,,,2,0,2,0,,,,,,,,,0,0,0,0,0,6,6,6,7,0,7,0,,,,,,,,,,,,,,,,,,,,,,,,,,,,,,,,,,,,,,,,,,,,,,,,,,,,,,,,,,,,,,,,30,,,,,,,,2099.331697500078,2099.331697500078,2099.331697500078,2099.331697500078,2099.331697500078,left,0.34311309992335737,1,0,0,99,-0.08000000000000003,-0.16,left,0.2542917998507619,,,,,,,,,,,,,,,,,,,,,,,,,,,,,,,,,,,,,,,,,,,,,,,,,,,,,,,,,,,,5MQ1JW,train_y,red_square,bottom_left,2025-08-20_16h28.25.601,HideSeek_v1,2022.2.5,59.60320951752629,
,1,3,1,6,0,3,13,,train_dim1_1,7,30,,,,2,0,2,0,,,,,,,,,0,0,0,0,0,6,6,6,8,0,8,0,,,,,,,,,,,,,,,,,,,,,,,,,,,,,,,,,,,,,,,,,,,,,,,,,,,,,,,,,,,,,,,,30,,,,,,,,2099.6828560000286,2099.6828560000286,2099.6828560000286,2099.6828560000286,2099.6828560000286,up,1.6108196000568569,1,0,0,99,-0.08000000000000003,-0.08,up,1.5232789998408407,,,,,,,,,,,,,,,,,,,,,,,,,,,,,,,,,,,,,,,,,,,,,,,,,,,,,,,,,,,,5MQ1JW,train_y,red_square,bottom_left,2025-08-20_16h28.25.601,HideSeek_v1,2022.2.5,59.60320951752629,
,1,3,1,6,0,3,13,,train_dim1_1,7,30,,,,2,0,2,0,,,,,,,,,0,0,0,0,0,6,6,6,9,0,9,0,,,,,,,,,,,,,,,,,,,,,,,,,,,,,,,,,,,,,,,,,,,,,,,,,,,,,,,,,,,,,,,,30,,,,,,,,2101.299628900131,2101.299628900131,2101.299628900131,2101.299628900131,2101.299628900131,up,0.4933788999915123,1,0,0,99,-0.08000000000000003,0.0,up,0.402906599920243,,,,,,,,,,,,,,,,,,,,,,,,,,,,,,,,,,,,,,,,,,,,,,,,,,,,,,,,,,,,5MQ1JW,train_y,red_square,bottom_left,2025-08-20_16h28.25.601,HideSeek_v1,2022.2.5,59.60320951752629,
,1,3,1,6,0,3,13,,train_dim1_1,7,30,,,,2,0,2,0,,,,,,,,,0,0,0,0,0,6,6,6,10,0,10,0,,,,,,,,,,,,,,,,,,,,,,,,,,,,,,,,,,,,,,,,,,,,,,,,,,,,,,,,,,,,,,,,30,,,,,,,,2101.8001565001905,2101.8001565001905,2101.8001565001905,2101.8001565001905,2101.8001565001905,up,0.49309540004469454,1,0,0,99,-0.08000000000000003,0.08,up,0.409807899966836,,,,,,,,,,,,,,,,,,,,,,,,,,,,,,,,,,,,,,,,,,,,,,,,,,,,,,,,,,,,5MQ1JW,train_y,red_square,bottom_left,2025-08-20_16h28.25.601,HideSeek_v1,2022.2.5,59.60320951752629,
,1,3,1,6,0,3,13,,train_dim1_1,7,30,,,,2,0,2,0,,,,,,,,,0,0,0,0,0,6,6,6,11,0,11,0,,,,,,,,,,,,,,,,,,,,,,,,,,,,,,,,,,,,,,,,,,,,,,,,,,,,,,,,,,,,,,,,30,,,,,,,,2102.300596400164,2102.300596400164,2102.300596400164,2102.300596400164,2102.300596400164,return,1.7610818000975996,2,0,0,1,-0.08000000000000003,0.08,return,1.677281599957496,18,7,-0.08000000000000003,0.08,,,,,,,,,,,,,,,,,,,,,,,,,,,,,,,,,,,,,,,,,,,,,,,,,,,,,,,,5MQ1JW,train_y,red_square,bottom_left,2025-08-20_16h28.25.601,HideSeek_v1,2022.2.5,59.60320951752629,
,4,2,4,7,0,5,11,,train_dim1_1,8,30,,,,2,0,2,0,,,,,,,,,0,0,0,0,0,7,7,7,0,0,0,0,,,,,,,,,,,,,,,,,,,,,,,,,stimuli/alien_stimuli/11.png,,,,,,,,,,,,,,,,,,,,,,,,,,,,,stimuli/alien_stimuli/13.png,13,1,9,,,,,,,30,,,,,,,,2111.3976893001236,2111.3976893001236,2111.3976893001236,2111.3976893001236,2111.3976893001236,up,3.724921000190079,2,0,0,99,0.16,-0.15999999999999998,up,3.6368175998795778,,,,,2109.840296200011,2111.3976893001236,-0.08,0.08,0.24,0.0,-0.04,-0.08,-0.08,-0.08,0.08,2105.634126200108,2105.634126200108,2105.634126200108,2105.634126200108,2105.634126200108,2105.634126200108,2105.634126200108,2105.634126200108,2105.619911170099,4.32248320011422,return,4.177569999825209,,,,,,,,,,,,,,,,,,,,,,,,,,,,,,,,,5MQ1JW,train_y,red_square,bottom_left,2025-08-20_16h28.25.601,HideSeek_v1,2022.2.5,59.60320951752629,
,4,2,4,7,0,5,11,,train_dim1_1,8,30,,,,2,0,2,0,,,,,,,,,0,0,0,0,0,7,7,7,1,0,1,0,,,,,,,,,,,,,,,,,,,,,,,,,,,,,,,,,,,,,,,,,,,,,,,,,,,,,,,,,,,,,,,,30,,,,,,,,2115.1289235001896,2115.1289235001896,2115.1289235001896,2115.1289235001896,2115.1289235001896,up,0.5594422998838127,2,0,0,99,0.16,-0.07999999999999997,up,0.4836727997753769,,,,,,,,,,,,,,,,,,,,,,,,,,,,,,,,,,,,,,,,,,,,,,,,,,,,,,,,,,,,5MQ1JW,train_y,red_square,bottom_left,2025-08-20_16h28.25.601,HideSeek_v1,2022.2.5,59.60320951752629,
,4,2,4,7,0,5,11,,train_dim1_1,8,30,,,,2,0,2,0,,,,,,,,,0,0,0,0,0,7,7,7,2,0,2,0,,,,,,,,,,,,,,,,,,,,,,,,,,,,,,,,,,,,,,,,,,,,,,,,,,,,,,,,,,,,,,,,30,,,,,,,,2115.6958746002056,2115.6958746002056,2115.6958746002056,2115.6958746002056,2115.6958746002056,up,0.45986499986611307,2,0,0,99,0.16,2.7755575615628914e-17,up,0.3797377997543663,,,,,,,,,,,,,,,,,,,,,,,,,,,,,,,,,,,,,,,,,,,,,,,,,,,,,,,,,,,,5MQ1JW,train_y,red_square,bottom_left,2025-08-20_16h28.25.601,HideSeek_v1,2022.2.5,59.60320951752629,
,4,2,4,7,0,5,11,,train_dim1_1,8,30,,,,2,0,2,0,,,,,,,,,0,0,0,0,0,7,7,7,3,0,3,0,,,,,,,,,,,,,,,,,,,,,,,,,,,,,,,,,,,,,,,,,,,,,,,,,,,,,,,,,,,,,,,,30,,,,,,,,2116.1625479001086,2116.1625479001086,2116.1625479001086,2116.1625479001086,2116.1625479001086,up,0.7937737999018282,2,0,0,99,0.16,0.08000000000000003,up,0.7109928999561816,,,,,,,,,,,,,,,,,,,,,,,,,,,,,,,,,,,,,,,,,,,,,,,,,,,,,,,,,,,,5MQ1JW,train_y,red_square,bottom_left,2025-08-20_16h28.25.601,HideSeek_v1,2022.2.5,59.60320951752629,
,4,2,4,7,0,5,11,,train_dim1_1,8,30,,,,2,0,2,0,,,,,,,,,0,0,0,0,0,7,7,7,4,0,4,0,,,,,,,,,,,,,,,,,,,,,,,,,,,,,,,,,,,,,,,,,,,,,,,,,,,,,,,,,,,,,,,,30,,,,,,,,2116.9634328000247,2116.9634328000247,2116.9634328000247,2116.9634328000247,2116.9634328000247,return,1.260689200134948,2,1,0,0,0.16,0.08000000000000003,return,1.1770969999488443,22,7,0.16,0.08000000000000003,,,,,,,,,,,,,,,,,,,,,,,,,,,,,,,,,,,,,,,,,,,,,,,,,,,,,,,,5MQ1JW,train_y,red_square,bottom_left,2025-08-20_16h28.25.601,HideSeek_v1,2022.2.5,59.60320951752629,
,4,3,4,4,0,1,15,,train_dim1_1,9,30,,,,2,0,2,0,,,,,,,,,0,0,0,0,0,8,8,8,0,0,0,0,,,,,,,,,,,,,,,,,,,,,,,,,stimuli/alien_stimuli/15.png,,,,,,,,,,,,,,,,,,,,,,,,,,,,,stimuli/alien_stimuli/11.png,11,4,10,,,,,,,30,,,,,,,,2137.874709600117,2137.874709600117,2137.874709600117,2137.874709600117,2137.874709600117,up,4.423611900070682,2,1,0,99,0.16,-0.08,up,4.320694299880415,,,,,2136.2956325002015,2137.874709600117,0.16,0.16,0.4,0.0,-0.039999999999999994,0.16,0.16,0.16,0.16,2119.798505100189,2119.798505100189,2119.798505100189,2119.798505100189,2119.798505100189,2119.798505100189,2119.798505100189,2119.798505100189,2119.798427780159,16.61612469982356,return,16.475353399757296,,,,,,,,,,,,,,,,,,,,,,,,,,,,,,,,,5MQ1JW,train_y,red_square,bottom_left,2025-08-20_16h28.25.601,HideSeek_v1,2022.2.5,59.60320951752629,
,4,3,4,4,0,1,15,,train_dim1_1,9,30,,,,2,0,2,0,,,,,,,,,0,0,0,0,0,8,8,8,1,0,1,0,,,,,,,,,,,,,,,,,,,,,,,,,,,,,,,,,,,,,,,,,,,,,,,,,,,,,,,,,,,,,,,,30,,,,,,,,2142.285745800007,2142.285745800007,2142.285745800007,2142.285745800007,2142.285745800007,up,0.5760448998771608,2,1,0,99,0.16,0.0,up,0.4975281998049468,,,,,,,,,,,,,,,,,,,,,,,,,,,,,,,,,,,,,,,,,,,,,,,,,,,,,,,,,,,,5MQ1JW,train_y,red_square,bottom_left,2025-08-20_16h28.25.601,HideSeek_v1,2022.2.5,59.60320951752629,
,4,3,4,4,0,1,15,,train_dim1_1,9,30,,,,2,0,2,0,,,,,,,,,0,0,0,0,0,8,8,8,2,0,2,0,,,,,,,,,,,,,,,,,,,,,,,,,,,,,,,,,,,,,,,,,,,,,,,,,,,,,,,,,,,,,,,,30,,,,,,,,2142.868250100175,2142.868250100175,2142.868250100175,2142.868250100175,2142.868250100175,up,0.46013309992849827,2,1,0,99,0.16,0.08,up,0.3676343997940421,,,,,,,,,,,,,,,,,,,,,,,,,,,,,,,,,,,,,,,,,,,,,,,,,,,,,,,,,,,,5MQ1JW,train_y,red_square,bottom_left,2025-08-20_16h28.25.601,HideSeek_v1,2022.2.5,59.60320951752629,
,4,3,4,4,0,1,15,,train_dim1_1,9,30,,,,2,0,2,0,,,,,,,,,0,0,0,0,0,8,8,8,3,0,3,0,,,,,,,,,,,,,,,,,,,,,,,,,,,,,,,,,,,,,,,,,,,,,,,,,,,,,,,,,,,,,,,,30,,,,,,,,2143.33549590013,2143.33549590013,2143.33549590013,2143.33549590013,2143.33549590013,up,1.761241199914366,2,1,0,99,0.16,0.16,up,1.6837448999285698,,,,,,,,,,,,,,,,,,,,,,,,,,,,,,,,,,,,,,,,,,,,,,,,,,,,,,,,,,,,5MQ1JW,train_y,red_square,bottom_left,2025-08-20_16h28.25.601,HideSeek_v1,2022.2.5,59.60320951752629,
,4,3,4,4,0,1,15,,train_dim1_1,9,30,,,,2,0,2,0,,,,,,,,,0,0,0,0,0,8,8,8,4,0,4,0,,,,,,,,,,,,,,,,,,,,,,,,,,,,,,,,,,,,,,,,,,,,,,,,,,,,,,,,,,,,,,,,30,,,,,,,,2145.103596100118,2145.103596100118,2145.103596100118,2145.103596100118,2145.103596100118,return,0.6602916000410914,2,0,0,0,0.16,0.16,return,0.5705640998203307,26,7,0.16,0.16,,,,,,,,,,,,,,,,,,,,,,,,,,,,,,,,,,,,,,,,,,,,,,,,,,,,,,,,5MQ1JW,train_y,red_square,bottom_left,2025-08-20_16h28.25.601,HideSeek_v1,2022.2.5,59.60320951752629,
,2,2,2,2,0,0,16,,train_dim1_1,10,30,,,,2,0,2,0,,,,,,,,,0,0,0,0,0,9,9,9,0,0,0,0,,,,,,,,,,,,,,,,,,,,,,,,,stimuli/alien_stimuli/16.png,,,,,,,,,,,,,,,,,,,,,,,,,,,,,stimuli/alien_stimuli/15.png,15,4,11,,,,,,,30,,,,,,,,2153.017690200126,2153.017690200126,2153.017690200126,2153.017690200126,2153.017690200126,up,2.704725799849257,2,0,0,99,0,-0.15999999999999998,up,2.6139420000836253,,,,,2151.4582678000443,2153.017690200126,0.16,-0.08,0.08,0.0,-0.12,0.16,0.16,0.16,-0.08,2147.339205900207,2147.339205900207,2147.339205900207,2147.339205900207,2147.339205900207,2147.339205900207,2147.339205900207,2147.339205900207,2147.3380942801014,4.239027100149542,return,4.086861599935219,,,,,,,,,,,,,,,,,,,,,,,,,,,,,,,,,5MQ1JW,train_y,red_square,bottom_left,2025-08-20_16h28.25.601,HideSeek_v1,2022.2.5,59.60320951752629,
,2,2,2,2,0,0,16,,train_dim1_1,10,30,,,,2,0,2,0,,,,,,,,,0,0,0,0,0,9,9,9,1,0,1,0,,,,,,,,,,,,,,,,,,,,,,,,,,,,,,,,,,,,,,,,,,,,,,,,,,,,,,,,,,,,,,,,30,,,,,,,,2155.72872080002,2155.72872080002,2155.72872080002,2155.72872080002,2155.72872080002,return,2.344489200040698,2,1,0,0,0,-0.15999999999999998,return,2.2681196997873485,27,7,0,-0.15999999999999998,,,,,,,,,,,,,,,,,,,,,,,,,,,,,,,,,,,,,,,,,,,,,,,,,,,,,,,,5MQ1JW,train_y,red_square,bottom_left,2025-08-20_16h28.25.601,HideSeek_v1,2022.2.5,59.60320951752629,
,4,1,4,2,0,1,15,,train_dim1_1,11,30,,,,2,0,2,0,,,,,,,,,0,0,0,0,0,10,10,10,0,0,0,0,,,,,,,,,,,,,,,,,,,,,,,,,stimuli/alien_stimuli/15.png,,,,,,,,,,,,,,,,,,,,,,,,,,,,,stimuli/alien_stimuli/16.png,16,2,12,,,,,,,30,,,,,,,,2167.5271072001196,2167.5271072001196,2167.5271072001196,2167.5271072001196,2167.5271072001196,up,4.47652140003629,2,1,0,99,0.16,-0.24,up,4.395683999871835,,,,,2165.9702475001104,2167.5271072001196,0,-0.24,0.0,0.0,-0.24,0,0.0,0,-0.24,2159.648835600121,2159.648835600121,2159.648835600121,2159.648835600121,2159.648835600121,2159.648835600121,2159.648835600121,2159.648835600121,2159.6482255801093,6.440950699849054,return,6.290748899802566,,,,,,,,,,,,,,,,,,,,,,,,,,,,,,,,,5MQ1JW,train_y,red_square,bottom_left,2025-08-20_16h28.25.601,HideSeek_v1,2022.2.5,59.60320951752629,
,4,1,4,2,0,1,15,,train_dim1_1,11,30,,,,2,0,2,0,,,,,,,,,0,0,0,0,0,10,10,10,1,0,1,0,,,,,,,,,,,,,,,,,,,,,,,,,,,,,,,,,,,,,,,,,,,,,,,,,,,,,,,,,,,,,,,,30,,,,,,,,2172.010651800083,2172.010651800083,2172.010651800083,2172.010651800083,2172.010651800083,up,0.5093541000969708,2,1,0,99,0.16,-0.15999999999999998,up,0.4183880998753011,,,,,,,,,,,,,,,,,,,,,,,,,,,,,,,,,,,,,,,,,,,,,,,,,,,,,,,,,,,,5MQ1JW,train_y,red_square,bottom_left,2025-08-20_16h28.25.601,HideSeek_v1,2022.2.5,59.60320951752629,
,4,1,4,2,0,1,15,,train_dim1_1,11,30,,,,2,0,2,0,,,,,,,,,0,0,0,0,0,10,10,10,2,0,2,0,,,,,,,,,,,,,,,,,,,,,,,,,,,,,,,,,,,,,,,,,,,,,,,,,,,,,,,,,,,,,,,,30,,,,,,,,2172.525779900141,2172.525779900141,2172.525779900141,2172.525779900141,2172.525779900141,up,0.4767414000816643,2,1,0,99,0.16,-0.07999999999999997,up,0.3996484999079257,,,,,,,,,,,,,,,,,,,,,,,,,,,,,,,,,,,,,,,,,,,,,,,,,,,,,,,,,,,,5MQ1JW,train_y,red_square,bottom_left,2025-08-20_16h28.25.601,HideSeek_v1,2022.2.5,59.60320951752629,
,4,1,4,2,0,1,15,,train_dim1_1,11,30,,,,2,0,2,0,,,,,,,,,0,0,0,0,0,10,10,10,3,0,3,0,,,,,,,,,,,,,,,,,,,,,,,,,,,,,,,,,,,,,,,,,,,,,,,,,,,,,,,,,,,,,,,,30,,,,,,,,2173.010110600153,2173.010110600153,2173.010110600153,2173.010110600153,2173.010110600153,return,0.9438869000878185,2,0,0,0,0.16,-0.07999999999999997,return,0.8642265999224037,30,7,0.16,-0.07999999999999997,,,,,,,,,,,,,,,,,,,,,,,,,,,,,,,,,,,,,,,,,,,,,,,,,,,,,,,,5MQ1JW,train_y,red_square,bottom_left,2025-08-20_16h28.25.601,HideSeek_v1,2022.2.5,59.60320951752629,
,0,0,0,5,0,5,11,,train_dim1_1,12,30,,,,2,0,2,0,,,,,,,,,0,0,0,0,0,11,11,11,0,0,0,0,,,,,,,,,,,,,,,,,,,,,,,,,stimuli/alien_stimuli/11.png,,,,,,,,,,,,,,,,,,,,,,,,,,,,,stimuli/alien_stimuli/15.png,15,4,13,,,,,,,30,,,,,,,,2179.970224100165,2179.970224100165,2179.970224100165,2179.970224100165,2179.970224100165,up,2.591482999967411,2,0,0,99,-0.16,-0.32,up,2.5112348997499794,,,,,2178.4136950999964,2179.970224100165,0.16,-0.24,0.08,0.0,-0.28,0.16,0.16,0.16,-0.24,2175.5242076001596,2175.5242076001596,2175.5242076001596,2175.5242076001596,2175.5242076001596,2175.5242076001596,2175.5242076001596,2175.5242076001596,2175.5114794701803,3.0049006000626832,return,2.870606299955398,,,,,,,,,,,,,,,,,,,,,,,,,,,,,,,,,5MQ1JW,train_y,red_square,bottom_left,2025-08-20_16h28.25.601,HideSeek_v1,2022.2.5,59.60320951752629,
,0,0,0,5,0,5,11,,train_dim1_1,12,30,,,,2,0,2,0,,,,,,,,,0,0,0,0,0,11,11,11,1,0,1,0,,,,,,,,,,,,,,,,,,,,,,,,,,,,,,,,,,,,,,,,,,,,,,,,,,,,,,,,,,,,,,,,30,,,,,,,,2182.5684081001673,2182.5684081001673,2182.5684081001673,2182.5684081001673,2182.5684081001673,return,4.929851500084624,2,0,0,0,-0.16,-0.32,return,4.848514599958435,31,7,-0.16,-0.32,,,,,,,,,,,,,,,,,,,,,,,,,,,,,,,,,,,,,,,,,,,,,,,,,,,,,,,,5MQ1JW,train_y,red_square,bottom_left,2025-08-20_16h28.25.601,HideSeek_v1,2022.2.5,59.60320951752629,
,4,3,4,7,0,4,12,,train_dim1_1,13,30,,,,2,0,2,0,,,,,,,,,0,0,0,0,0,12,12,12,0,0,0,0,,,,,,,,,,,,,,,,,,,,,,,,,stimuli/alien_stimuli/12.png,,,,,,,,,,,,,,,,,,,,,,,,,,,,,stimuli/alien_stimuli/11.png,11,0,14,,,,,,,30,,,,,,,,2194.033793800045,2194.033793800045,2194.033793800045,2194.033793800045,2194.033793800045,return,2.6234125001356006,2,0,0,0,0.16,-0.16,return,2.530422499869019,31,7,0.16,-0.16,2192.475467900047,2194.033793800045,-0.16,0,0.4,0.0,-0.2,-0.16,-0.16,-0.16,0,2189.0739939000923,2189.0739939000923,2189.0739939000923,2189.0739939000923,2189.0739939000923,2189.0739939000923,2189.0739939000923,2189.0739939000923,2189.072680979967,3.521823399933055,return,3.370337100001052,,,,,,,,,,,,,,,,,,,,,,,,,,,,,,,,,5MQ1JW,train_y,red_square,bottom_left,2025-08-20_16h28.25.601,HideSeek_v1,2022.2.5,59.60320951752629,
,2,2,2,2,0,0,16,,train_dim1_1,14,30,,,,2,0,2,0,,,,,,,,,0,0,0,0,0,13,13,13,0,0,0,0,,,,,,,,,,,,,,,,,,,,,,,,,stimuli/alien_stimuli/16.png,,,,,,,,,,,,,,,,,,,,,,,,,,,,,stimuli/alien_stimuli/12.png,12,4,15,,,,,,,30,,,,,,,,2202.69272180018,2202.69272180018,2202.69272180018,2202.69272180018,2202.69272180018,up,2.6571947999764234,2,0,0,99,0,-0.15999999999999998,up,2.561966899782419,,,,,2201.132636100054,2202.69272180018,0.16,0.16,0.32,0.0,0.0,0.16,0.16,0.16,0.16,2198.2102443000767,2198.2102443000767,2198.2102443000767,2198.2102443000767,2198.2102443000767,2198.2102443000767,2198.2102443000767,2198.2102443000767,2198.197079160018,3.0210732999257743,return,2.897155199898407,,,,,,,,,,,,,,,,,,,,,,,,,,,,,,,,,5MQ1JW,train_y,red_square,bottom_left,2025-08-20_16h28.25.601,HideSeek_v1,2022.2.5,59.60320951752629,
,2,2,2,2,0,0,16,,train_dim1_1,14,30,,,,2,0,2,0,,,,,,,,,0,0,0,0,0,13,13,13,1,0,1,0,,,,,,,,,,,,,,,,,,,,,,,,,,,,,,,,,,,,,,,,,,,,,,,,,,,,,,,,,,,,,,,,30,,,,,,,,2205.353513200069,2205.353513200069,2205.353513200069,2205.353513200069,2205.353513200069,up,0.5095767001621425,2,0,0,99,0,-0.07999999999999997,up,0.42377819982357323,,,,,,,,,,,,,,,,,,,,,,,,,,,,,,,,,,,,,,,,,,,,,,,,,,,,,,,,,,,,5MQ1JW,train_y,red_square,bottom_left,2025-08-20_16h28.25.601,HideSeek_v1,2022.2.5,59.60320951752629,
,2,2,2,2,0,0,16,,train_dim1_1,14,30,,,,2,0,2,0,,,,,,,,,0,0,0,0,0,13,13,13,2,0,2,0,,,,,,,,,,,,,,,,,,,,,,,,,,,,,,,,,,,,,,,,,,,,,,,,,,,,,,,,,,,,,,,,30,,,,,,,,2205.8712999001145,2205.8712999001145,2205.8712999001145,2205.8712999001145,2205.8712999001145,up,0.47698769997805357,2,0,0,99,0,2.7755575615628914e-17,up,0.396949399728328,,,,,,,,,,,,,,,,,,,,,,,,,,,,,,,,,,,,,,,,,,,,,,,,,,,,,,,,,,,,5MQ1JW,train_y,red_square,bottom_left,2025-08-20_16h28.25.601,HideSeek_v1,2022.2.5,59.60320951752629,
,2,2,2,2,0,0,16,,train_dim1_1,14,30,,,,2,0,2,0,,,,,,,,,0,0,0,0,0,13,13,13,3,0,3,0,,,,,,,,,,,,,,,,,,,,,,,,,,,,,,,,,,,,,,,,,,,,,,,,,,,,,,,,,,,,,,,,30,,,,,,,,2206.3548936001025,2206.3548936001025,2206.3548936001025,2206.3548936001025,2206.3548936001025,up,0.49305739998817444,2,0,0,99,0,0.08000000000000003,up,0.40369569999165833,,,,,,,,,,,,,,,,,,,,,,,,,,,,,,,,,,,,,,,,,,,,,,,,,,,,,,,,,,,,5MQ1JW,train_y,red_square,bottom_left,2025-08-20_16h28.25.601,HideSeek_v1,2022.2.5,59.60320951752629,
,2,2,2,2,0,0,16,,train_dim1_1,14,30,,,,2,0,2,0,,,,,,,,,0,0,0,0,0,13,13,13,4,0,4,0,,,,,,,,,,,,,,,,,,,,,,,,,,,,,,,,,,,,,,,,,,,,,,,,,,,,,,,,,,,,,,,,30,,,,,,,,2206.8546864001546,2206.8546864001546,2206.8546864001546,2206.8546864001546,2206.8546864001546,return,1.610899800201878,2,0,0,0,0,0.08000000000000003,return,1.5269082998856902,35,7,0,0.08000000000000003,,,,,,,,,,,,,,,,,,,,,,,,,,,,,,,,,,,,,,,,,,,,,,,,,,,,,,,,5MQ1JW,train_y,red_square,bottom_left,2025-08-20_16h28.25.601,HideSeek_v1,2022.2.5,59.60320951752629,
,1,4,1,7,0,3,13,,train_dim1_1,15,30,,,,2,0,2,0,,,,,,,,,0,0,0,0,0,14,14,14,0,0,0,0,,,,,,,,,,,,,,,,,,,,,,,,,stimuli/alien_stimuli/13.png,,,,,,,,,,,,,,,,,,,,,,,,,,,,,stimuli/alien_stimuli/16.png,16,2,16,,,,,,,30,,,,,,,,2215.8485735000577,2215.8485735000577,2215.8485735000577,2215.8485735000577,2215.8485735000577,up,53.066860100021586,2,0,0,99,-0.08,0.0,up,52.97874699975364,,,,,2214.2931420002133,2215.8485735000577,0,-0.24,0.0,0.0,-0.24,0,0.0,0,-0.24,2210.0397902000695,2210.0397902000695,2210.0397902000695,2210.0397902000695,2210.0397902000695,2210.0397902000695,2210.0397902000695,2210.0397902000695,2210.040209680097,4.372973900055513,return,4.231334700016305,,,,,,,,,,,,,,,,,,,,,,,,,,,,,,,,,5MQ1JW,train_y,red_square,bottom_left,2025-08-20_16h28.25.601,HideSeek_v1,2022.2.5,59.60320951752629,
,1,4,1,7,0,3,13,,train_dim1_1,15,30,,,,2,0,2,0,,,,,,,,,0,0,0,0,0,14,14,14,1,0,1,0,,,,,,,,,,,,,,,,,,,,,,,,,,,,,,,,,,,,,,,,,,,,,,,,,,,,,,,,,,,,,,,,30,,,,,,,,2268.9386919001117,2268.9386919001117,2268.9386919001117,2268.9386919001117,2268.9386919001117,return,3.1120083001442254,2,0,0,0,-0.08,0.0,return,3.0203796999994665,36,7,-0.08,0.0,,,,,,,,,,,,,,,,,,,,,,,,,,,,,,,,,,,,,,,,,,,,,,,,,,,,,,,,5MQ1JW,train_y,red_square,bottom_left,2025-08-20_16h28.25.601,HideSeek_v1,2022.2.5,59.60320951752629,
,4,0,4,1,0,1,15,,train_dim1_1,16,30,,,,2,0,2,0,,,,,,,,,0,0,0,0,0,15,15,15,0,0,0,0,,,,,,,,,,,,,,,,,,,,,,,,,stimuli/alien_stimuli/15.png,,,,,,,,,,,,,,,,,,,,,,,,,,,,,stimuli/alien_stimuli/13.png,13,1,17,,,,,,,30,,,,,,,,2279.336521200137,2279.336521200137,2279.336521200137,2279.336521200137,2279.336521200137,return,5.260349499993026,2,1,0,0,0.16,-0.4,return,5.1719613999594,36,7,0.16,-0.4,2277.779727100162,2279.336521200137,-0.08,0.16,0.24,0.0,0.04,-0.08,-0.08,-0.08,0.16,2273.6053230001125,2273.6053230001125,2273.6053230001125,2273.6053230001125,2273.6053230001125,2273.6053230001125,2273.6053230001125,2273.6053230001125,2273.5928520699963,4.289150899974629,return,4.155710099963471,,,,,,,,,,,,,,,,,,,,,,,,,,,,,,,,,5MQ1JW,train_y,red_square,bottom_left,2025-08-20_16h28.25.601,HideSeek_v1,2022.2.5,59.60320951752629,
,3,3,3,6,0,3,13,,train_dim1_1,17,30,,,,2,0,2,0,,,,,,,,,0,0,0,0,0,16,16,16,0,0,0,0,,,,,,,,,,,,,,,,,,,,,,,,,stimuli/alien_stimuli/13.png,,,,,,,,,,,,,,,,,,,,,,,,,,,,,stimuli/alien_stimuli/15.png,15,4,18,,,,,,,30,,,,,,,,2294.082913100021,2294.082913100021,2294.082913100021,2294.082913100021,2294.082913100021,up,3.607420099899173,2,1,0,99,0.08,-0.08,up,3.5308611998334527,,,,,2292.5252483000513,2294.082913100021,0.16,-0.32,0.08,0.0,-0.36,0.16,0.16,0.16,-0.32,2286.168134300038,2286.168134300038,2286.168134300038,2286.168134300038,2286.168134300038,2286.168134300038,2286.168134300038,2286.168134300038,2286.1533121701796,6.473966200137511,return,6.335764199960977,,,,,,,,,,,,,,,,,,,,,,,,,,,,,,,,,5MQ1JW,train_y,red_square,bottom_left,2025-08-20_16h28.25.601,HideSeek_v1,2022.2.5,59.60320951752629,
,3,3,3,6,0,3,13,,train_dim1_1,17,30,,,,2,0,2,0,,,,,,,,,0,0,0,0,0,16,16,16,1,0,1,0,,,,,,,,,,,,,,,,,,,,,,,,,,,,,,,,,,,,,,,,,,,,,,,,,,,,,,,,,,,,,,,,30,,,,,,,,2297.696727300063,2297.696727300063,2297.696727300063,2297.696727300063,2297.696727300063,up,0.5928034998942167,2,1,0,99,0.08,0.0,up,0.5078521997202188,,,,,,,,,,,,,,,,,,,,,,,,,,,,,,,,,,,,,,,,,,,,,,,,,,,,,,,,,,,,5MQ1JW,train_y,red_square,bottom_left,2025-08-20_16h28.25.601,HideSeek_v1,2022.2.5,59.60320951752629,
,3,3,3,6,0,3,13,,train_dim1_1,17,30,,,,2,0,2,0,,,,,,,,,0,0,0,0,0,16,16,16,2,0,2,0,,,,,,,,,,,,,,,,,,,,,,,,,,,,,,,,,,,,,,,,,,,,,,,,,,,,,,,,,,,,,,,,30,,,,,,,,2298.2974110001232,2298.2974110001232,2298.2974110001232,2298.2974110001232,2298.2974110001232,up,0.4601439000107348,2,1,0,99,0.08,0.08,up,0.37098599993623793,,,,,,,,,,,,,,,,,,,,,,,,,,,,,,,,,,,,,,,,,,,,,,,,,,,,,,,,,,,,5MQ1JW,train_y,red_square,bottom_left,2025-08-20_16h28.25.601,HideSeek_v1,2022.2.5,59.60320951752629,
,3,3,3,6,0,3,13,,train_dim1_1,17,30,,,,2,0,2,0,,,,,,,,,0,0,0,0,0,16,16,16,3,0,3,0,,,,,,,,,,,,,,,,,,,,,,,,,,,,,,,,,,,,,,,,,,,,,,,,,,,,,,,,,,,,,,,,30,,,,,,,,2298.7645740001462,2298.7645740001462,2298.7645740001462,2298.7645740001462,2298.7645740001462,up,0.776983099989593,2,1,0,99,0.08,0.16,up,0.6859052998479456,,,,,,,,,,,,,,,,,,,,,,,,,,,,,,,,,,,,,,,,,,,,,,,,,,,,,,,,,,,,5MQ1JW,train_y,red_square,bottom_left,2025-08-20_16h28.25.601,HideSeek_v1,2022.2.5,59.60320951752629,
,3,3,3,6,0,3,13,,train_dim1_1,17,30,,,,2,0,2,0,,,,,,,,,0,0,0,0,0,16,16,16,4,0,4,0,,,,,,,,,,,,,,,,,,,,,,,,,,,,,,,,,,,,,,,,,,,,,,,,,,,,,,,,,,,,,,,,30,,,,,,,,2299.5468539001886,2299.5468539001886,2299.5468539001886,2299.5468539001886,2299.5468539001886,down,1.527490699896589,2,1,0,99,0.08,0.08,down,1.4388053000438958,,,,,,,,,,,,,,,,,,,,,,,,,,,,,,,,,,,,,,,,,,,,,,,,,,,,,,,,,,,,5MQ1JW,train_y,red_square,bottom_left,2025-08-20_16h28.25.601,HideSeek_v1,2022.2.5,59.60320951752629,
,3,3,3,6,0,3,13,,train_dim1_1,17,30,,,,2,0,2,0,,,,,,,,,0,0,0,0,0,16,16,16,5,0,5,0,,,,,,,,,,,,,,,,,,,,,,,,,,,,,,,,,,,,,,,,,,,,,,,,,,,,,,,,,,,,,,,,30,,,,,,,,2301.083276100224,2301.083276100224,2301.083276100224,2301.083276100224,2301.083276100224,return,1.794705200009048,3,0,0,1,0.08,0.08,return,1.713685099966824,39,7,0.08,0.08,,,,,,,,,,,,,,,,,,,,,,,,,,,,,,,,,,,,,,,,,,,,,,,,,,,,,,,,5MQ1JW,train_y,red_square,bottom_left,2025-08-20_16h28.25.601,HideSeek_v1,2022.2.5,59.60320951752629,
,2,1,2,6,0,5,11,,train_dim1_1,18,30,,,,2,0,2,0,,,,,,,,,0,0,0,0,0,17,17,17,0,0,0,0,,,,,,,,,,,,,,,,,,,,,,,,,stimuli/alien_stimuli/11.png,,,,,,,,,,,,,,,,,,,,,,,,,,,,,stimuli/alien_stimuli/13.png,13,3,19,,,,,,,30,,,,,,,,2314.1217674000654,2314.1217674000654,2314.1217674000654,2314.1217674000654,2314.1217674000654,up,5.555050099967048,3,0,0,99,0,-0.24,up,5.464544599875808,,,,,2312.5586843001656,2314.1217674000654,0.08,0.08,0.24,0.0,-0.04,0.08,0.08,0.08,0.08,2304.4456128000747,2304.4456128000747,2304.4456128000747,2304.4456128000747,2304.4456128000747,2304.4456128000747,2304.4456128000747,2304.4456128000747,2304.4351865700446,8.225556700024754,return,8.091225899988785,,,,,,,,,,,,,,,,,,,,,,,,,,,,,,,,,5MQ1JW,train_y,red_square,bottom_left,2025-08-20_16h28.25.601,HideSeek_v1,2022.2.5,59.60320951752629,
,2,1,2,6,0,5,11,,train_dim1_1,18,30,,,,2,0,2,0,,,,,,,,,0,0,0,0,0,17,17,17,1,0,1,0,,,,,,,,,,,,,,,,,,,,,,,,,,,,,,,,,,,,,,,,,,,,,,,,,,,,,,,,,,,,,,,,30,,,,,,,,2319.6821373000275,2319.6821373000275,2319.6821373000275,2319.6821373000275,2319.6821373000275,up,0.6096735000610352,3,0,0,99,0,-0.15999999999999998,up,0.5252160998061299,,,,,,,,,,,,,,,,,,,,,,,,,,,,,,,,,,,,,,,,,,,,,,,,,,,,,,,,,,,,5MQ1JW,train_y,red_square,bottom_left,2025-08-20_16h28.25.601,HideSeek_v1,2022.2.5,59.60320951752629,
,2,1,2,6,0,5,11,,train_dim1_1,18,30,,,,2,0,2,0,,,,,,,,,0,0,0,0,0,17,17,17,2,0,2,0,,,,,,,,,,,,,,,,,,,,,,,,,,,,,,,,,,,,,,,,,,,,,,,,,,,,,,,,,,,,,,,,30,,,,,,,,2320.2991465001833,2320.2991465001833,2320.2991465001833,2320.2991465001833,2320.2991465001833,up,0.5934758000075817,3,0,0,99,0,-0.07999999999999997,up,0.5148658996913582,,,,,,,,,,,,,,,,,,,,,,,,,,,,,,,,,,,,,,,,,,,,,,,,,,,,,,,,,,,,5MQ1JW,train_y,red_square,bottom_left,2025-08-20_16h28.25.601,HideSeek_v1,2022.2.5,59.60320951752629,
,2,1,2,6,0,5,11,,train_dim1_1,18,30,,,,2,0,2,0,,,,,,,,,0,0,0,0,0,17,17,17,3,0,3,0,,,,,,,,,,,,,,,,,,,,,,,,,,,,,,,,,,,,,,,,,,,,,,,,,,,,,,,,,,,,,,,,30,,,,,,,,2320.900158500066,2320.900158500066,2320.900158500066,2320.900158500066,2320.900158500066,return,1.1442072000354528,3,0,0,0,0,-0.07999999999999997,return,1.0647408999502659,42,7,0,-0.07999999999999997,,,,,,,,,,,,,,,,,,,,,,,,,,,,,,,,,,,,,,,,,,,,,,,,,,,,,,,,5MQ1JW,train_y,red_square,bottom_left,2025-08-20_16h28.25.601,HideSeek_v1,2022.2.5,59.60320951752629,
,0,4,0,8,0,4,12,,train_dim1_1,19,30,,,,2,0,2,0,,,,,,,,,0,0,0,0,0,18,18,18,0,0,0,0,,,,,,,,,,,,,,,,,,,,,,,,,stimuli/alien_stimuli/12.png,,,,,,,,,,,,,,,,,,,,,,,,,,,,,stimuli/alien_stimuli/11.png,11,2,20,,,,,,,30,,,,,,,,2332.1798109000083,2332.1798109000083,2332.1798109000083,2332.1798109000083,2332.1798109000083,up,9.997457300079986,3,0,0,99,-0.16,0.0,up,9.91970089985989,,,,,2330.6235887000803,2332.1798109000083,0,0.08,0.4,0.0,-0.12,0,0.0,0,0.08,2323.617289400194,2323.617289400194,2323.617289400194,2323.617289400194,2323.617289400194,2323.617289400194,2323.617289400194,2323.617289400194,2323.6177942801733,7.124630899867043,return,6.98126839986071,,,,,,,,,,,,,,,,,,,,,,,,,,,,,,,,,5MQ1JW,train_y,red_square,bottom_left,2025-08-20_16h28.25.601,HideSeek_v1,2022.2.5,59.60320951752629,
,0,4,0,8,0,4,12,,train_dim1_1,19,30,,,,2,0,2,0,,,,,,,,,0,0,0,0,0,18,18,18,1,0,1,0,,,,,,,,,,,,,,,,,,,,,,,,,,,,,,,,,,,,,,,,,,,,,,,,,,,,,,,,,,,,,,,,30,,,,,,,,2342.2043435000814,2342.2043435000814,2342.2043435000814,2342.2043435000814,2342.2043435000814,up,0.8768157998565584,3,0,0,99,-0.16,0.08,up,0.7789211999624968,,,,,,,,,,,,,,,,,,,,,,,,,,,,,,,,,,,,,,,,,,,,,,,,,,,,,,,,,,,,5MQ1JW,train_y,red_square,bottom_left,2025-08-20_16h28.25.601,HideSeek_v1,2022.2.5,59.60320951752629,
,0,4,0,8,0,4,12,,train_dim1_1,19,30,,,,2,0,2,0,,,,,,,,,0,0,0,0,0,18,18,18,2,0,2,0,,,,,,,,,,,,,,,,,,,,,,,,,,,,,,,,,,,,,,,,,,,,,,,,,,,,,,,,,,,,,,,,30,,,,,,,,2343.0688192001544,2343.0688192001544,2343.0688192001544,2343.0688192001544,2343.0688192001544,up,0.810267300112173,3,0,0,99,-0.16,0.16,up,0.7221426998730749,,,,,,,,,,,,,,,,,,,,,,,,,,,,,,,,,,,,,,,,,,,,,,,,,,,,,,,,,,,,5MQ1JW,train_y,red_square,bottom_left,2025-08-20_16h28.25.601,HideSeek_v1,2022.2.5,59.60320951752629,
,0,4,0,8,0,4,12,,train_dim1_1,19,30,,,,2,0,2,0,,,,,,,,,0,0,0,0,0,18,18,18,3,0,3,0,,,,,,,,,,,,,,,,,,,,,,,,,,,,,,,,,,,,,,,,,,,,,,,,,,,,,,,,,,,,,,,,30,,,,,,,,2343.885908300057,2343.885908300057,2343.885908300057,2343.885908300057,2343.885908300057,return,0.8438037999439985,3,1,0,0,-0.16,0.16,return,0.7635994998272508,45,7,-0.16,0.16,,,,,,,,,,,,,,,,,,,,,,,,,,,,,,,,,,,,,,,,,,,,,,,,,,,,,,,,5MQ1JW,train_y,red_square,bottom_left,2025-08-20_16h28.25.601,HideSeek_v1,2022.2.5,59.60320951752629,
,2,0,2,0,0,0,16,,train_dim1_1,20,30,,,,2,0,2,0,,,,,,,,,0,0,0,0,0,19,19,19,0,0,0,0,,,,,,,,,,,,,,,,,,,,,,,,,stimuli/alien_stimuli/16.png,,,,,,,,,,,,,,,,,,,,,,,,,,,,,stimuli/alien_stimuli/12.png,12,0,21,,,,,,,30,,,,,,,,2355.1673658001237,2355.1673658001237,2355.1673658001237,2355.1673658001237,2355.1673658001237,up,6.626759500009939,3,1,0,99,0,-0.32,up,6.538714899914339,,,,,2353.609654100146,2355.1673658001237,-0.16,0.24,0.32,0.0,0.07999999999999999,-0.16,-0.16,-0.16,0.24,2346.305939400103,2346.305939400103,2346.305939400103,2346.305939400103,2346.305939400103,2346.305939400103,2346.305939400103,2346.305939400103,2346.303291480057,7.425326200202107,return,7.286087699932978,,,,,,,,,,,,,,,,,,,,,,,,,,,,,,,,,5MQ1JW,train_y,red_square,bottom_left,2025-08-20_16h28.25.601,HideSeek_v1,2022.2.5,59.60320951752629,
,2,0,2,0,0,0,16,,train_dim1_1,20,30,,,,2,0,2,0,,,,,,,,,0,0,0,0,0,19,19,19,1,0,1,0,,,,,,,,,,,,,,,,,,,,,,,,,,,,,,,,,,,,,,,,,,,,,,,,,,,,,,,,,,,,,,,,30,,,,,,,,2361.800464300206,2361.800464300206,2361.800464300206,2361.800464300206,2361.800464300206,return,0.9600029001012444,3,1,0,0,0,-0.32,return,0.8701305999420583,46,7,0,-0.32,,,,,,,,,,,,,,,,,,,,,,,,,,,,,,,,,,,,,,,,,,,,,,,,,,,,,,,,5MQ1JW,train_y,red_square,bottom_left,2025-08-20_16h28.25.601,HideSeek_v1,2022.2.5,59.60320951752629,
,2,4,2,5,0,1,15,,train_dim1_1,21,30,,,,2,0,2,0,,,,,,,,,0,0,0,0,0,20,20,20,0,0,0,0,,,,,,,,,,,,,,,,,,,,,,,,,stimuli/alien_stimuli/15.png,,,,,,,,,,,,,,,,,,,,,,,,,,,,,stimuli/alien_stimuli/16.png,16,2,22,,,,,,,30,,,,,,,,2371.215390100144,2371.215390100144,2371.215390100144,2371.215390100144,2371.215390100144,return,3.6583279999904335,3,1,0,0,0,-0.08,return,3.57734389975667,46,7,0,-0.08,2369.6560331000946,2371.215390100144,0,-0.4,0.0,0.0,-0.4,0,0.0,0,-0.4,2364.3311698001344,2364.3311698001344,2364.3311698001344,2364.3311698001344,2364.3311698001344,2364.3311698001344,2364.3311698001344,2364.3311698001344,2364.3182577700354,5.440392300020903,return,5.309140400029719,,,,,,,,,,,,,,,,,,,,,,,,,,,,,,,,,5MQ1JW,train_y,red_square,bottom_left,2025-08-20_16h28.25.601,HideSeek_v1,2022.2.5,59.60320951752629,
,0,2,0,5,0,3,13,,train_dim1_1,22,30,,,,2,0,2,0,,,,,,,,,0,0,0,0,0,21,21,21,0,0,0,0,,,,,,,,,,,,,,,,,,,,,,,,,stimuli/alien_stimuli/13.png,,,,,,,,,,,,,,,,,,,,,,,,,,,,,stimuli/alien_stimuli/15.png,15,2,23,,,,,,,30,,,,,,,,2380.7543197001796,2380.7543197001796,2380.7543197001796,2380.7543197001796,2380.7543197001796,up,4.041044699959457,3,1,0,99,-0.16,-0.15999999999999998,up,3.9622535000089556,,,,,2379.1973359000403,2380.7543197001796,0,0,0.08,0.0,-0.04,0,0.0,0,0,2376.4432753000874,2376.4432753000874,2376.4432753000874,2376.4432753000874,2376.4432753000874,2376.4432753000874,2376.4432753000874,2376.4432753000874,2376.445035479963,2.8713140999898314,return,2.736405999865383,,,,,,,,,,,,,,,,,,,,,,,,,,,,,,,,,5MQ1JW,train_y,red_square,bottom_left,2025-08-20_16h28.25.601,HideSeek_v1,2022.2.5,59.60320951752629,
,0,2,0,5,0,3,13,,train_dim1_1,22,30,,,,2,0,2,0,,,,,,,,,0,0,0,0,0,21,21,21,1,0,1,0,,,,,,,,,,,,,,,,,,,,,,,,,,,,,,,,,,,,,,,,,,,,,,,,,,,,,,,,,,,,,,,,30,,,,,,,,2384.802928000223,2384.802928000223,2384.802928000223,2384.802928000223,2384.802928000223,up,0.4763126999605447,3,1,0,99,-0.16,-0.07999999999999997,up,0.38929369975812733,,,,,,,,,,,,,,,,,,,,,,,,,,,,,,,,,,,,,,,,,,,,,,,,,,,,,,,,,,,,5MQ1JW,train_y,red_square,bottom_left,2025-08-20_16h28.25.601,HideSeek_v1,2022.2.5,59.60320951752629,
,0,2,0,5,0,3,13,,train_dim1_1,22,30,,,,2,0,2,0,,,,,,,,,0,0,0,0,0,21,21,21,2,0,2,0,,,,,,,,,,,,,,,,,,,,,,,,,,,,,,,,,,,,,,,,,,,,,,,,,,,,,,,,,,,,,,,,30,,,,,,,,2385.2857589002233,2385.2857589002233,2385.2857589002233,2385.2857589002233,2385.2857589002233,up,0.3767506000585854,3,1,0,99,-0.16,2.7755575615628914e-17,up,0.28660729993134737,,,,,,,,,,,,,,,,,,,,,,,,,,,,,,,,,,,,,,,,,,,,,,,,,,,,,,,,,,,,5MQ1JW,train_y,red_square,bottom_left,2025-08-20_16h28.25.601,HideSeek_v1,2022.2.5,59.60320951752629,
,0,2,0,5,0,3,13,,train_dim1_1,22,30,,,,2,0,2,0,,,,,,,,,0,0,0,0,0,21,21,21,3,0,3,0,,,,,,,,,,,,,,,,,,,,,,,,,,,,,,,,,,,,,,,,,,,,,,,,,,,,,,,,,,,,,,,,30,,,,,,,,2385.6684745000675,2385.6684745000675,2385.6684745000675,2385.6684745000675,2385.6684745000675,up,0.8436271001119167,3,1,0,99,-0.16,0.08000000000000003,up,0.7681030998937786,,,,,,,,,,,,,,,,,,,,,,,,,,,,,,,,,,,,,,,,,,,,,,,,,,,,,,,,,,,,5MQ1JW,train_y,red_square,bottom_left,2025-08-20_16h28.25.601,HideSeek_v1,2022.2.5,59.60320951752629,
,0,2,0,5,0,3,13,,train_dim1_1,22,30,,,,2,0,2,0,,,,,,,,,0,0,0,0,0,21,21,21,4,0,4,0,,,,,,,,,,,,,,,,,,,,,,,,,,,,,,,,,,,,,,,,,,,,,,,,,,,,,,,,,,,,,,,,30,,,,,,,,2386.520438000094,2386.520438000094,2386.520438000094,2386.520438000094,2386.520438000094,return,0.7601997000165284,3,1,0,0,-0.16,0.08000000000000003,return,0.6739177997224033,50,7,-0.16,0.08000000000000003,,,,,,,,,,,,,,,,,,,,,,,,,,,,,,,,,,,,,,,,,,,,,,,,,,,,,,,,5MQ1JW,train_y,red_square,bottom_left,2025-08-20_16h28.25.601,HideSeek_v1,2022.2.5,59.60320951752629,
,0,3,0,8,0,5,11,,train_dim1_1,23,30,,,,2,0,2,0,,,,,,,,,0,0,0,0,0,22,22,22,0,0,0,0,,,,,,,,,,,,,,,,,,,,,,,,,stimuli/alien_stimuli/11.png,,,,,,,,,,,,,,,,,,,,,,,,,,,,,stimuli/alien_stimuli/13.png,13,0,24,,,,,,,30,,,,,,,,2425.9247038001195,2425.9247038001195,2425.9247038001195,2425.9247038001195,2425.9247038001195,up,4.793294599978253,3,1,0,99,-0.16,-0.08,up,4.691028599860147,,,,,2424.3515211001504,2425.9247038001195,-0.16,0,0.24,0.0,-0.12,-0.16,-0.16,-0.16,0,2388.8556065000594,2388.8556065000594,2388.8556065000594,2388.8556065000594,2388.8556065000594,2388.8556065000594,2388.8556065000594,2388.8556065000594,2388.8554418799467,35.61515039997175,return,35.46534089976922,,,,,,,,,,,,,,,,,,,,,,,,,,,,,,,,,5MQ1JW,train_y,red_square,bottom_left,2025-08-20_16h28.25.601,HideSeek_v1,2022.2.5,59.60320951752629,
,0,3,0,8,0,5,11,,train_dim1_1,23,30,,,,2,0,2,0,,,,,,,,,0,0,0,0,0,22,22,22,1,0,1,0,,,,,,,,,,,,,,,,,,,,,,,,,,,,,,,,,,,,,,,,,,,,,,,,,,,,,,,,,,,,,,,,30,,,,,,,,2430.7085649000946,2430.7085649000946,2430.7085649000946,2430.7085649000946,2430.7085649000946,up,0.4761626000981778,3,1,0,99,-0.16,0.0,up,0.3989637999329716,,,,,,,,,,,,,,,,,,,,,,,,,,,,,,,,,,,,,,,,,,,,,,,,,,,,,,,,,,,,5MQ1JW,train_y,red_square,bottom_left,2025-08-20_16h28.25.601,HideSeek_v1,2022.2.5,59.60320951752629,
,0,3,0,8,0,5,11,,train_dim1_1,23,30,,,,2,0,2,0,,,,,,,,,0,0,0,0,0,22,22,22,2,0,2,0,,,,,,,,,,,,,,,,,,,,,,,,,,,,,,,,,,,,,,,,,,,,,,,,,,,,,,,,,,,,,,,,30,,,,,,,,2431.19100370002,2431.19100370002,2431.19100370002,2431.19100370002,2431.19100370002,up,0.6768565000966191,3,1,0,99,-0.16,0.08,up,0.5915862999390811,,,,,,,,,,,,,,,,,,,,,,,,,,,,,,,,,,,,,,,,,,,,,,,,,,,,,,,,,,,,5MQ1JW,train_y,red_square,bottom_left,2025-08-20_16h28.25.601,HideSeek_v1,2022.2.5,59.60320951752629,
,0,3,0,8,0,5,11,,train_dim1_1,23,30,,,,2,0,2,0,,,,,,,,,0,0,0,0,0,22,22,22,3,0,3,0,,,,,,,,,,,,,,,,,,,,,,,,,,,,,,,,,,,,,,,,,,,,,,,,,,,,,,,,,,,,,,,,30,,,,,,,,2431.8740655002184,2431.8740655002184,2431.8740655002184,2431.8740655002184,2431.8740655002184,return,15.739818699890748,3,0,0,0,-0.16,0.08,return,15.661260199733078,53,7,-0.16,0.08,,,,,,,,,,,,,,,,,,,,,,,,,,,,,,,,,,,,,,,,,,,,,,,,,,,,,,,,5MQ1JW,train_y,red_square,bottom_left,2025-08-20_16h28.25.601,HideSeek_v1,2022.2.5,59.60320951752629,
,3,2,3,2,0,0,16,,train_dim1_1,24,30,,,,2,0,2,0,,,,,,,,,0,0,0,0,0,23,23,23,0,0,0,0,,,,,,,,,,,,,,,,,,,,,,,,,stimuli/alien_stimuli/16.png,,,,,,,,,,,,,,,,,,,,,,,,,,,,,stimuli/alien_stimuli/11.png,11,0,25,,,,,,,30,,,,,,,,2457.2175102001056,2457.2175102001056,2457.2175102001056,2457.2175102001056,2457.2175102001056,return,5.076750099891797,4,0,0,1,0.08,-0.24,return,4.99044039985165,53,7,0.08,-0.24,2455.661043200176,2457.2175102001056,-0.16,0.24,0.4,0.0,0.039999999999999994,-0.16,-0.16,-0.16,0.24,2449.195779300062,2449.195779300062,2449.195779300062,2449.195779300062,2449.195779300062,2449.195779300062,2449.195779300062,2449.195779300062,2449.1886873801704,6.591326599940658,return,6.438089600065723,,,,,,,,,,,,,,,,,,,,,,,,,,,,,,,,,5MQ1JW,train_y,red_square,bottom_left,2025-08-20_16h28.25.601,HideSeek_v1,2022.2.5,59.60320951752629,
,3,3,3,7,0,4,12,,train_dim1_1,25,30,,,,2,0,2,0,,,,,,,,,0,0,0,0,0,24,24,24,0,0,0,0,,,,,,,,,,,,,,,,,,,,,,,,,stimuli/alien_stimuli/12.png,,,,,,,,,,,,,,,,,,,,,,,,,,,,,stimuli/alien_stimuli/16.png,16,3,26,,,,,,,30,,,,,,,,2470.6290242001414,2470.6290242001414,2470.6290242001414,2470.6290242001414,2470.6290242001414,up,2.6582408000249416,4,0,0,99,0.08,-0.08,up,2.5699118999764323,,,,,2469.0720234001055,2470.6290242001414,0.08,-0.24,0.0,0.0,-0.24,0.08,0.08,0.08,-0.24,2463.8671484000515,2463.8671484000515,2463.8671484000515,2463.8671484000515,2463.8671484000515,2463.8671484000515,2463.8671484000515,2463.8671484000515,2463.867631979985,5.323261999990791,return,5.183519399957731,,,,,,,,,,,,,,,,,,,,,,,,,,,,,,,,,5MQ1JW,train_y,red_square,bottom_left,2025-08-20_16h28.25.601,HideSeek_v1,2022.2.5,59.60320951752629,
,3,3,3,7,0,4,12,,train_dim1_1,25,30,,,,2,0,2,0,,,,,,,,,0,0,0,0,0,24,24,24,1,0,1,0,,,,,,,,,,,,,,,,,,,,,,,,,,,,,,,,,,,,,,,,,,,,,,,,,,,,,,,,,,,,,,,,30,,,,,,,,2473.2929971001577,2473.2929971001577,2473.2929971001577,2473.2929971001577,2473.2929971001577,up,0.5595015999861062,4,0,0,99,0.08,0.0,up,0.48345509986393154,,,,,,,,,,,,,,,,,,,,,,,,,,,,,,,,,,,,,,,,,,,,,,,,,,,,,,,,,,,,5MQ1JW,train_y,red_square,bottom_left,2025-08-20_16h28.25.601,HideSeek_v1,2022.2.5,59.60320951752629,
,3,3,3,7,0,4,12,,train_dim1_1,25,30,,,,2,0,2,0,,,,,,,,,0,0,0,0,0,24,24,24,2,0,2,0,,,,,,,,,,,,,,,,,,,,,,,,,,,,,,,,,,,,,,,,,,,,,,,,,,,,,,,,,,,,,,,,30,,,,,,,,2473.8599618000444,2473.8599618000444,2473.8599618000444,2473.8599618000444,2473.8599618000444,up,2.1278690001927316,4,0,0,99,0.08,0.08,up,2.042165599996224,,,,,,,,,,,,,,,,,,,,,,,,,,,,,,,,,,,,,,,,,,,,,,,,,,,,,,,,,,,,5MQ1JW,train_y,red_square,bottom_left,2025-08-20_16h28.25.601,HideSeek_v1,2022.2.5,59.60320951752629,
,3,3,3,7,0,4,12,,train_dim1_1,25,30,,,,2,0,2,0,,,,,,,,,0,0,0,0,0,24,24,24,3,0,3,0,,,,,,,,,,,,,,,,,,,,,,,,,,,,,,,,,,,,,,,,,,,,,,,,,,,,,,,,,,,,,,,,30,,,,,,,,2475.994333700044,2475.994333700044,2475.994333700044,2475.994333700044,2475.994333700044,up,1.5442445001099259,4,0,0,99,0.08,0.16,up,1.4592271998990327,,,,,,,,,,,,,,,,,,,,,,,,,,,,,,,,,,,,,,,,,,,,,,,,,,,,,,,,,,,,5MQ1JW,train_y,red_square,bottom_left,2025-08-20_16h28.25.601,HideSeek_v1,2022.2.5,59.60320951752629,
,3,3,3,7,0,4,12,,train_dim1_1,25,30,,,,2,0,2,0,,,,,,,,,0,0,0,0,0,24,24,24,4,0,4,0,,,,,,,,,,,,,,,,,,,,,,,,,,,,,,,,,,,,,,,,,,,,,,,,,,,,,,,,,,,,,,,,30,,,,,,,,2477.5460087000392,2477.5460087000392,2477.5460087000392,2477.5460087000392,2477.5460087000392,up,0.8602035001385957,4,0,0,99,0.08,0.24,up,0.782090799883008,,,,,,,,,,,,,,,,,,,,,,,,,,,,,,,,,,,,,,,,,,,,,,,,,,,,,,,,,,,,5MQ1JW,train_y,red_square,bottom_left,2025-08-20_16h28.25.601,HideSeek_v1,2022.2.5,59.60320951752629,
,3,3,3,7,0,4,12,,train_dim1_1,25,30,,,,2,0,2,0,,,,,,,,,0,0,0,0,0,24,24,24,5,0,5,0,,,,,,,,,,,,,,,,,,,,,,,,,,,,,,,,,,,,,,,,,,,,,,,,,,,,,,,,,,,,,,,,30,,,,,,,,2478.413833500119,2478.413833500119,2478.413833500119,2478.413833500119,2478.413833500119,return,0.8271430998574942,4,1,0,0,0.08,0.24,return,0.7436654998455197,58,7,0.08,0.24,,,,,,,,,,,,,,,,,,,,,,,,,,,,,,,,,,,,,,,,,,,,,,,,,,,,,,,,5MQ1JW,train_y,red_square,bottom_left,2025-08-20_16h28.25.601,HideSeek_v1,2022.2.5,59.60320951752629,
,4,4,4,7,0,3,13,,train_dim1_1,26,30,,,,2,0,2,0,,,,,,,,,0,0,0,0,0,25,25,25,0,0,0,0,,,,,,,,,,,,,,,,,,,,,,,,,stimuli/alien_stimuli/13.png,,,,,,,,,,,,,,,,,,,,,,,,,,,,,stimuli/alien_stimuli/12.png,12,3,27,,,,,,,30,,,,,,,,2488.7766892001964,2488.7766892001964,2488.7766892001964,2488.7766892001964,2488.7766892001964,up,3.308768599992618,4,1,0,99,0.16,0.0,up,3.2215032998938113,,,,,2487.2206250000745,2488.7766892001964,0.08,0.16,0.32,0.0,0.0,0.08,0.08,0.08,0.16,2480.813916000072,2480.813916000072,2480.813916000072,2480.813916000072,2480.813916000072,2480.813916000072,2480.813916000072,2480.813916000072,2480.81502307998,6.524343200027943,return,6.387122599873692,,,,,,,,,,,,,,,,,,,,,,,,,,,,,,,,,5MQ1JW,train_y,red_square,bottom_left,2025-08-20_16h28.25.601,HideSeek_v1,2022.2.5,59.60320951752629,
,4,4,4,7,0,3,13,,train_dim1_1,26,30,,,,2,0,2,0,,,,,,,,,0,0,0,0,0,25,25,25,1,0,1,0,,,,,,,,,,,,,,,,,,,,,,,,,,,,,,,,,,,,,,,,,,,,,,,,,,,,,,,,,,,,,,,,30,,,,,,,,2492.0919072001707,2492.0919072001707,2492.0919072001707,2492.0919072001707,2492.0919072001707,up,0.6095290000084788,4,1,0,99,0.16,0.08,up,0.5262102999258786,,,,,,,,,,,,,,,,,,,,,,,,,,,,,,,,,,,,,,,,,,,,,,,,,,,,,,,,,,,,5MQ1JW,train_y,red_square,bottom_left,2025-08-20_16h28.25.601,HideSeek_v1,2022.2.5,59.60320951752629,
,4,4,4,7,0,3,13,,train_dim1_1,26,30,,,,2,0,2,0,,,,,,,,,0,0,0,0,0,25,25,25,2,0,2,0,,,,,,,,,,,,,,,,,,,,,,,,,,,,,,,,,,,,,,,,,,,,,,,,,,,,,,,,,,,,,,,,30,,,,,,,,2492.7090435000136,2492.7090435000136,2492.7090435000136,2492.7090435000136,2492.7090435000136,up,0.6101687999907881,4,1,0,99,0.16,0.16,up,0.5200053998269141,,,,,,,,,,,,,,,,,,,,,,,,,,,,,,,,,,,,,,,,,,,,,,,,,,,,,,,,,,,,5MQ1JW,train_y,red_square,bottom_left,2025-08-20_16h28.25.601,HideSeek_v1,2022.2.5,59.60320951752629,
,4,4,4,7,0,3,13,,train_dim1_1,26,30,,,,2,0,2,0,,,,,,,,,0,0,0,0,0,25,25,25,3,0,3,0,,,,,,,,,,,,,,,,,,,,,,,,,,,,,,,,,,,,,,,,,,,,,,,,,,,,,,,,,,,,,,,,30,,,,,,,,2493.325205600122,2493.325205600122,2493.325205600122,2493.325205600122,2493.325205600122,up,0.743551200022921,4,1,0,99,0.16,0.24,up,0.6572108999826014,,,,,,,,,,,,,,,,,,,,,,,,,,,,,,,,,,,,,,,,,,,,,,,,,,,,,,,,,,,,5MQ1JW,train_y,red_square,bottom_left,2025-08-20_16h28.25.601,HideSeek_v1,2022.2.5,59.60320951752629,
,4,4,4,7,0,3,13,,train_dim1_1,26,30,,,,2,0,2,0,,,,,,,,,0,0,0,0,0,25,25,25,4,0,4,0,,,,,,,,,,,,,,,,,,,,,,,,,,,,,,,,,,,,,,,,,,,,,,,,,,,,,,,,,,,,,,,,30,,,,,,,,2494.0755329001695,2494.0755329001695,2494.0755329001695,2494.0755329001695,2494.0755329001695,up,0.7268462998326868,4,1,0,99,0.16,0.32,up,0.6403747997246683,,,,,,,,,,,,,,,,,,,,,,,,,,,,,,,,,,,,,,,,,,,,,,,,,,,,,,,,,,,,5MQ1JW,train_y,red_square,bottom_left,2025-08-20_16h28.25.601,HideSeek_v1,2022.2.5,59.60320951752629,
,4,4,4,7,0,3,13,,train_dim1_1,26,30,,,,2,0,2,0,,,,,,,,,0,0,0,0,0,25,25,25,5,0,5,0,,,,,,,,,,,,,,,,,,,,,,,,,,,,,,,,,,,,,,,,,,,,,,,,,,,,,,,,,,,,,,,,30,,,,,,,,2494.809946200112,2494.809946200112,2494.809946200112,2494.809946200112,2494.809946200112,down,1.4942975998856127,4,1,0,99,0.16,0.24,down,1.412297599716112,,,,,,,,,,,,,,,,,,,,,,,,,,,,,,,,,,,,,,,,,,,,,,,,,,,,,,,,,,,,5MQ1JW,train_y,red_square,bottom_left,2025-08-20_16h28.25.601,HideSeek_v1,2022.2.5,59.60320951752629,
,4,4,4,7,0,3,13,,train_dim1_1,26,30,,,,2,0,2,0,,,,,,,,,0,0,0,0,0,25,25,25,6,0,6,0,,,,,,,,,,,,,,,,,,,,,,,,,,,,,,,,,,,,,,,,,,,,,,,,,,,,,,,,,,,,,,,,30,,,,,,,,2496.311223000055,2496.311223000055,2496.311223000055,2496.311223000055,2496.311223000055,return,0.7101533999666572,4,1,0,0,0.16,0.24,return,0.6244919998571277,62,7,0.16,0.24,,,,,,,,,,,,,,,,,,,,,,,,,,,,,,,,,,,,,,,,,,,,,,,,,,,,,,,,5MQ1JW,train_y,red_square,bottom_left,2025-08-20_16h28.25.601,HideSeek_v1,2022.2.5,59.60320951752629,
,3,4,3,4,0,0,16,,train_dim1_1,27,30,,,,2,0,2,0,,,,,,,,,0,0,0,0,0,26,26,26,0,0,0,0,,,,,,,,,,,,,,,,,,,,,,,,,stimuli/alien_stimuli/16.png,,,,,,,,,,,,,,,,,,,,,,,,,,,,,stimuli/alien_stimuli/13.png,13,4,28,,,,,,,30,,,,,,,,2506.025851200102,2506.025851200102,2506.025851200102,2506.025851200102,2506.025851200102,up,6.009451299905777,4,1,0,99,0.08,0.0,up,5.924864099826664,,,,,2504.4679296000395,2506.025851200102,0.16,0.16,0.24,0.0,0.04,0.16,0.16,0.16,0.16,2498.593604200054,2498.593604200054,2498.593604200054,2498.593604200054,2498.593604200054,2498.593604200054,2498.593604200054,2498.593604200054,2498.5797896699514,5.990494400030002,return,5.847854899708182,,,,,,,,,,,,,,,,,,,,,,,,,,,,,,,,,5MQ1JW,train_y,red_square,bottom_left,2025-08-20_16h28.25.601,HideSeek_v1,2022.2.5,59.60320951752629,
,3,4,3,4,0,0,16,,train_dim1_1,27,30,,,,2,0,2,0,,,,,,,,,0,0,0,0,0,26,26,26,1,0,1,0,,,,,,,,,,,,,,,,,,,,,,,,,,,,,,,,,,,,,,,,,,,,,,,,,,,,,,,,,,,,,,,,30,,,,,,,,2512.042940800078,2512.042940800078,2512.042940800078,2512.042940800078,2512.042940800078,return,0.5594587998930365,4,1,0,0,0.08,0.0,return,0.48092429991811514,63,7,0.08,0.0,,,,,,,,,,,,,,,,,,,,,,,,,,,,,,,,,,,,,,,,,,,,,,,,,,,,,,,,5MQ1JW,train_y,red_square,bottom_left,2025-08-20_16h28.25.601,HideSeek_v1,2022.2.5,59.60320951752629,
,4,1,4,6,0,5,11,,train_dim1_1,28,30,,,,2,0,2,0,,,,,,,,,0,0,0,0,0,27,27,27,0,0,0,0,,,,,,,,,,,,,,,,,,,,,,,,,stimuli/alien_stimuli/11.png,,,,,,,,,,,,,,,,,,,,,,,,,,,,,stimuli/alien_stimuli/16.png,16,3,29,,,,,,,30,,,,,,,,2519.205707000103,2519.205707000103,2519.205707000103,2519.205707000103,2519.205707000103,up,4.673299000132829,4,1,0,99,0.16,-0.24,up,4.585756299784407,,,,,2517.6457218001597,2519.205707000103,0.08,-0.08,0.0,0.0,-0.08,0.08,0.08,0.08,-0.08,2514.175825700164,2514.175825700164,2514.175825700164,2514.175825700164,2514.175825700164,2514.175825700164,2514.175825700164,2514.175825700164,2514.176162180025,3.588444400113076,return,3.437601199839264,,,,,,,,,,,,,,,,,,,,,,,,,,,,,,,,,5MQ1JW,train_y,red_square,bottom_left,2025-08-20_16h28.25.601,HideSeek_v1,2022.2.5,59.60320951752629,
,4,1,4,6,0,5,11,,train_dim1_1,28,30,,,,2,0,2,0,,,,,,,,,0,0,0,0,0,27,27,27,1,0,1,0,,,,,,,,,,,,,,,,,,,,,,,,,,,,,,,,,,,,,,,,,,,,,,,,,,,,,,,,,,,,,,,,30,,,,,,,,2523.892797500128,2523.892797500128,2523.892797500128,2523.892797500128,2523.892797500128,up,0.5243532999884337,4,1,0,99,0.16,-0.15999999999999998,up,0.440993299940601,,,,,,,,,,,,,,,,,,,,,,,,,,,,,,,,,,,,,,,,,,,,,,,,,,,,,,,,,,,,5MQ1JW,train_y,red_square,bottom_left,2025-08-20_16h28.25.601,HideSeek_v1,2022.2.5,59.60320951752629,
,4,1,4,6,0,5,11,,train_dim1_1,28,30,,,,2,0,2,0,,,,,,,,,0,0,0,0,0,27,27,27,2,0,2,0,,,,,,,,,,,,,,,,,,,,,,,,,,,,,,,,,,,,,,,,,,,,,,,,,,,,,,,,,,,,,,,,30,,,,,,,,2524.420573100215,2524.420573100215,2524.420573100215,2524.420573100215,2524.420573100215,up,0.5103367001283914,4,1,0,99,0.16,-0.07999999999999997,up,0.42404879978857934,,,,,,,,,,,,,,,,,,,,,,,,,,,,,,,,,,,,,,,,,,,,,,,,,,,,,,,,,,,,5MQ1JW,train_y,red_square,bottom_left,2025-08-20_16h28.25.601,HideSeek_v1,2022.2.5,59.60320951752629,
,4,1,4,6,0,5,11,,train_dim1_1,28,30,,,,2,0,2,0,,,,,,,,,0,0,0,0,0,27,27,27,3,0,3,0,,,,,,,,,,,,,,,,,,,,,,,,,,,,,,,,,,,,,,,,,,,,,,,,,,,,,,,,,,,,,,,,30,,,,,,,,2524.9446502001956,2524.9446502001956,2524.9446502001956,2524.9446502001956,2524.9446502001956,up,0.7435663000214845,4,1,0,99,0.16,2.7755575615628914e-17,up,0.642037499928847,,,,,,,,,,,,,,,,,,,,,,,,,,,,,,,,,,,,,,,,,,,,,,,,,,,,,,,,,,,,5MQ1JW,train_y,red_square,bottom_left,2025-08-20_16h28.25.601,HideSeek_v1,2022.2.5,59.60320951752629,
,4,1,4,6,0,5,11,,train_dim1_1,28,30,,,,2,0,2,0,,,,,,,,,0,0,0,0,0,27,27,27,4,0,4,0,,,,,,,,,,,,,,,,,,,,,,,,,,,,,,,,,,,,,,,,,,,,,,,,,,,,,,,,,,,,,,,,30,,,,,,,,2525.688198100077,2525.688198100077,2525.688198100077,2525.688198100077,2525.688198100077,up,1.794476700015366,4,1,0,99,0.16,0.08000000000000003,up,1.7023282998707145,,,,,,,,,,,,,,,,,,,,,,,,,,,,,,,,,,,,,,,,,,,,,,,,,,,,,,,,,,,,5MQ1JW,train_y,red_square,bottom_left,2025-08-20_16h28.25.601,HideSeek_v1,2022.2.5,59.60320951752629,
,4,1,4,6,0,5,11,,train_dim1_1,28,30,,,,2,0,2,0,,,,,,,,,0,0,0,0,0,27,27,27,5,0,5,0,,,,,,,,,,,,,,,,,,,,,,,,,,,,,,,,,,,,,,,,,,,,,,,,,,,,,,,,,,,,,,,,30,,,,,,,,2527.4884695000947,2527.4884695000947,2527.4884695000947,2527.4884695000947,2527.4884695000947,return,0.793551100185141,5,0,0,1,0.16,0.08000000000000003,return,0.7022233998868614,68,7,0.16,0.08000000000000003,,,,,,,,,,,,,,,,,,,,,,,,,,,,,,,,,,,,,,,,,,,,,,,,,,,,,,,,5MQ1JW,train_y,red_square,bottom_left,2025-08-20_16h28.25.601,HideSeek_v1,2022.2.5,59.60320951752629,
,2,2,2,6,0,4,12,,train_dim1_1,29,30,,,,2,0,2,0,,,,,,,,,0,0,0,0,0,28,28,28,0,0,0,0,,,,,,,,,,,,,,,,,,,,,,,,,stimuli/alien_stimuli/12.png,,,,,,,,,,,,,,,,,,,,,,,,,,,,,stimuli/alien_stimuli/11.png,11,4,30,,,,,,,30,,,,,,,,2534.1889712000266,2534.1889712000266,2534.1889712000266,2534.1889712000266,2534.1889712000266,up,4.375969700049609,5,0,0,99,0,-0.15999999999999998,up,4.286064199870452,,,,,2532.6252320001367,2534.1889712000266,0.16,0.08,0.4,0.0,-0.12,0.16,0.16,0.16,0.08,2529.8503058000933,2529.8503058000933,2529.8503058000933,2529.8503058000933,2529.8503058000933,2529.8503058000933,2529.8503058000933,2529.8503058000933,2529.838765369961,2.8906888000201434,return,2.744861099869013,,,,,,,,,,,,,,,,,,,,,,,,,,,,,,,,,5MQ1JW,train_y,red_square,bottom_left,2025-08-20_16h28.25.601,HideSeek_v1,2022.2.5,59.60320951752629,
,2,2,2,6,0,4,12,,train_dim1_1,29,30,,,,2,0,2,0,,,,,,,,,0,0,0,0,0,28,28,28,1,0,1,0,,,,,,,,,,,,,,,,,,,,,,,,,,,,,,,,,,,,,,,,,,,,,,,,,,,,,,,,,,,,,,,,30,,,,,,,,2538.5653835001867,2538.5653835001867,2538.5653835001867,2538.5653835001867,2538.5653835001867,up,0.5928698000498116,5,0,0,99,0,-0.07999999999999997,up,0.515758499968797,,,,,,,,,,,,,,,,,,,,,,,,,,,,,,,,,,,,,,,,,,,,,,,,,,,,,,,,,,,,5MQ1JW,train_y,red_square,bottom_left,2025-08-20_16h28.25.601,HideSeek_v1,2022.2.5,59.60320951752629,
,2,2,2,6,0,4,12,,train_dim1_1,29,30,,,,2,0,2,0,,,,,,,,,0,0,0,0,0,28,28,28,2,0,2,0,,,,,,,,,,,,,,,,,,,,,,,,,,,,,,,,,,,,,,,,,,,,,,,,,,,,,,,,,,,,,,,,30,,,,,,,,2539.165414800169,2539.165414800169,2539.165414800169,2539.165414800169,2539.165414800169,up,0.5932422999758273,5,0,0,99,0,2.7755575615628914e-17,up,0.5162541999015957,,,,,,,,,,,,,,,,,,,,,,,,,,,,,,,,,,,,,,,,,,,,,,,,,,,,,,,,,,,,5MQ1JW,train_y,red_square,bottom_left,2025-08-20_16h28.25.601,HideSeek_v1,2022.2.5,59.60320951752629,
,2,2,2,6,0,4,12,,train_dim1_1,29,30,,,,2,0,2,0,,,,,,,,,0,0,0,0,0,28,28,28,3,0,3,0,,,,,,,,,,,,,,,,,,,,,,,,,,,,,,,,,,,,,,,,,,,,,,,,,,,,,,,,,,,,,,,,30,,,,,,,,2539.7645966000855,2539.7645966000855,2539.7645966000855,2539.7645966000855,2539.7645966000855,up,0.760428800014779,5,0,0,99,0,0.08000000000000003,up,0.6682376998942345,,,,,,,,,,,,,,,,,,,,,,,,,,,,,,,,,,,,,,,,,,,,,,,,,,,,,,,,,,,,5MQ1JW,train_y,red_square,bottom_left,2025-08-20_16h28.25.601,HideSeek_v1,2022.2.5,59.60320951752629,
,2,2,2,6,0,4,12,,train_dim1_1,29,30,,,,2,0,2,0,,,,,,,,,0,0,0,0,0,28,28,28,4,0,4,0,,,,,,,,,,,,,,,,,,,,,,,,,,,,,,,,,,,,,,,,,,,,,,,,,,,,,,,,,,,,,,,,30,,,,,,,,2540.5325315000955,2540.5325315000955,2540.5325315000955,2540.5325315000955,2540.5325315000955,return,0.6267750000115484,6,0,0,1,0,0.08000000000000003,return,0.5429554998409003,72,7,0,0.08000000000000003,,,,,,,,,,,,,,,,,,,,,,,,,,,,,,,,,,,,,,,,,,,,,,,,,,,,,,,,5MQ1JW,train_y,red_square,bottom_left,2025-08-20_16h28.25.601,HideSeek_v1,2022.2.5,59.60320951752629,
,0,1,0,2,0,1,15,,train_dim1_1,30,30,,,,2,0,2,0,,,,,,,,,0,0,0,0,0,29,29,29,0,0,0,0,,,,,,,,,,,,,,,,,,,,,,,,,stimuli/alien_stimuli/15.png,,,,,,,,,,,,,,,,,,,,,,,,,,,,,stimuli/alien_stimuli/12.png,12,2,31,,,,,,,30,,,,,,,,2547.2453637002036,2547.2453637002036,2547.2453637002036,2547.2453637002036,2547.2453637002036,return,3.1222538999281824,6,1,0,0,-0.16,-0.32,return,3.0304955998435616,72,7,-0.16,-0.32,2545.6190182000864,2547.2453637002036,0,0.08,0.32,0.0,-0.07999999999999999,0,0.0,0,0.08,2542.733795600012,2542.733795600012,2542.733795600012,2542.733795600012,2542.733795600012,2542.733795600012,2542.733795600012,2542.733795600012,2542.7333921799436,3.0044921999797225,return,2.8574005998671055,,,,,,,,,,,,,,,,,,,,,,,,,,,,,,,,,5MQ1JW,train_y,red_square,bottom_left,2025-08-20_16h28.25.601,HideSeek_v1,2022.2.5,59.60320951752629,
,,,,,,,,,,,30,,,,2,0,2,0,,,,,,,,,,,,,,,,,,,,,,,,,,,,,,,,,,,,,,,,,,,,,,,,,,,,,,,,,,,,,,,,,,,,,,,,,,stimuli/alien_stimuli/15.png,15,0,32,21,0.7,0.25,1,1,1,30,0,conditions/schedules/train_y_first/red_square_00/bottom_left/inputTrain_2.1.xlsx,99,1,2,1,0,,,,,,,,,,,0,,,,,,,,,2554.209415000165,2555.7679470002186,-0.16,-0.24,0.08,0.0,-0.28,-0.16,-0.16,-0.16,-0.24,2551.930954700103,2551.930954700103,2551.930954700103,2551.930954700103,2551.930954700103,2551.930954700103,2551.930954700103,2551.930954700103,2551.9244554701727,2.38706890004687,return,2.259697000030428,0,0.9,0,1,6,,,,,,,,,,,,,,,,,,,,,,,,,,,,5MQ1JW,train_y,red_square,bottom_left,2025-08-20_16h28.25.601,HideSeek_v1,2022.2.5,59.60320951752629,
,,,,,,,,,,,,,,,3,0,3,0,0,0,0,0,,,,,,,,,,,,,,,,,,,,,,,,,,,,,,,conditions/schedules/train_y_first/red_square_00/bottom_left/instructions/Slide17.png,conditions/schedules/train_y_first/red_square_00/bottom_left/instructions/Audio17.wav,2555.7679470002186,2555.760596240172,17,"[2.635589800076559, 18.44582620006986, 15.885973800206557, 18.92734060017392, 4.405655700014904, 4.419920899905264, 5.202962500043213, 10.989953499985859, 5.568417300004512, 6.333632500143722, 9.781956699909642, 13.894133100053295, 17.56332219997421, 16.185762400040403, 42.478759000077844, 21.467763100052252, 51.31613989989273]","[0.03044379991479218, 0.0002543001901358366, 15.885980600025505, 0.00023530004546046257, 0.04969060001894832, 0.032129800179973245, 0.08090179995633662, 0.03044999996200204, 0.0948554000351578, 0.05729049979709089, 0.033141800202429295, 13.89414200000465, 0.10569990007206798, 16.185768899973482, 0.03413109993562102, 21.467770299874246, 51.31614709994756]",0,,,,,,,,,,,,,,,,,,,,,,,,,,,,,,,,,,,,,,,,,,,,,,,,,,,,,,,,,,,,,,,,,,,,,,,,,,,,,,,,,,,,,,,,,,,,,,,,,,,,,,,,,,,,,,,,,,,,,,,,,,,,5MQ1JW,train_y,red_square,bottom_left,2025-08-20_16h28.25.601,HideSeek_v1,2022.2.5,59.60320951752629,
,,,,,,,,,,,,,,,3,0,3,0,1,0,1,0,,,,,,,,,,,,,,,,,,,,,,,,,,,,,,,conditions/schedules/train_y_first/red_square_00/bottom_left/instructions/Slide18.png,conditions/schedules/train_y_first/red_square_00/bottom_left/instructions/Audio18.wav,2607.152836700203,2607.1534295501187,18,"[2.635589800076559, 18.44582620006986, 15.885973800206557, 18.92734060017392, 4.405655700014904, 4.419920899905264, 5.202962500043213, 10.989953499985859, 5.568417300004512, 6.333632500143722, 9.781956699909642, 13.894133100053295, 17.56332219997421, 16.185762400040403, 42.478759000077844, 21.467763100052252, 51.31613989989273, 6.202939899871126]","[0.03044379991479218, 0.0002543001901358366, 15.885980600025505, 0.00023530004546046257, 0.04969060001894832, 0.032129800179973245, 0.08090179995633662, 0.03044999996200204, 0.0948554000351578, 0.05729049979709089, 0.033141800202429295, 13.89414200000465, 0.10569990007206798, 16.185768899973482, 0.03413109993562102, 21.467770299874246, 0.013806100003421307, 6.20294709992595]",0,,,,,,,,,,,,,,,,,,,,,,,,,,,,,,,,,,,,,,,,,,,,,,,,,,,,,,,,,,,,,,,,,,,,,,,,,,,,,,,,,,,,,,,,,,,,,,,,,,,,,,,,,,,,,,,,,,,,,,,,,,,,5MQ1JW,train_y,red_square,bottom_left,2025-08-20_16h28.25.601,HideSeek_v1,2022.2.5,59.60320951752629,
,,,,,,,,,,,,,,,3,0,3,0,2,0,2,0,,,,,,,,,,,,,,,,,,,,,,,,,,,,,,,conditions/schedules/train_y_first/red_square_00/bottom_left/instructions/Slide19.png,conditions/schedules/train_y_first/red_square_00/bottom_left/instructions/Audio19.wav,2613.411555700004,2613.408556640148,19,"[2.635589800076559, 18.44582620006986, 15.885973800206557, 18.92734060017392, 4.405655700014904, 4.419920899905264, 5.202962500043213, 10.989953499985859, 5.568417300004512, 6.333632500143722, 9.781956699909642, 13.894133100053295, 17.56332219997421, 16.185762400040403, 42.478759000077844, 21.467763100052252, 51.31613989989273, 6.202939899871126, 9.98614659998566]","[0.03044379991479218, 0.0002543001901358366, 15.885980600025505, 0.00023530004546046257, 0.04969060001894832, 0.032129800179973245, 0.08090179995633662, 0.03044999996200204, 0.0948554000351578, 0.05729049979709089, 0.033141800202429295, 13.89414200000465, 0.10569990007206798, 16.185768899973482, 0.03413109993562102, 21.467770299874246, 0.013806100003421307, 0.04710029996931553, 9.986153099918738]",0,,,,,,,,,,,,,,,,,,,,,,,,,,,,,,,,,,,,,,,,,,,,,,,,,,,,,,,,,,,,,,,,,,,,,,,,,,,,,,,,,,,,,,,,,,,,,,,,,,,,,,,,,,,,,,,,,,,,,,,,,,,,5MQ1JW,train_y,red_square,bottom_left,2025-08-20_16h28.25.601,HideSeek_v1,2022.2.5,59.60320951752629,
,,,,,,,,,,,,,,,3,0,3,0,3,0,3,0,,,,,,,,,,,,,,,,,,,,,,,,,,,,,,,conditions/schedules/train_y_first/red_square_00/bottom_left/instructions/Slide20.png,conditions/schedules/train_y_first/red_square_00/bottom_left/instructions/Audio20.wav,2623.454057900002,2623.450372540159,20,"[2.635589800076559, 18.44582620006986, 15.885973800206557, 18.92734060017392, 4.405655700014904, 4.419920899905264, 5.202962500043213, 10.989953499985859, 5.568417300004512, 6.333632500143722, 9.781956699909642, 13.894133100053295, 17.56332219997421, 16.185762400040403, 42.478759000077844, 21.467763100052252, 51.31613989989273, 6.202939899871126, 9.98614659998566, 12.554221699945629]","[0.03044379991479218, 0.0002543001901358366, 15.885980600025505, 0.00023530004546046257, 0.04969060001894832, 0.032129800179973245, 0.08090179995633662, 0.03044999996200204, 0.0948554000351578, 0.05729049979709089, 0.033141800202429295, 13.89414200000465, 0.10569990007206798, 16.185768899973482, 0.03413109993562102, 21.467770299874246, 0.013806100003421307, 0.04710029996931553, 0.013873700052499771, 12.554228599881753]",0,,,,,,,,,,,,,,,,,,,,,,,,,,,,,,,,,,,,,,,,,,,,,,,,,,,,,,,,,,,,,,,,,,,,,,,,,,,,,,,,,,,,,,,,,,,,,,,,,,,,,,,,,,,,,,,,,,,,,,,,,,,,5MQ1JW,train_y,red_square,bottom_left,2025-08-20_16h28.25.601,HideSeek_v1,2022.2.5,59.60320951752629,
