trialInstr,x_fixStart,y_fixStart,x_corrSteps,y_corrSteps,x_nrSteps,y_nrSteps,alienID,trialLength,version,trialTrain,praclen,testlen,trial_label,break_on_off,beforeExpLoop.thisRepN,beforeExpLoop.thisTrialN,beforeExpLoop.thisN,beforeExpLoop.thisIndex,mini_instr_trials.thisRepN,mini_instr_trials.thisTrialN,mini_instr_trials.thisN,mini_instr_trials.thisIndex,instrLoop.thisRepN,instrLoop.thisTrialN,instrLoop.thisN,instrLoop.thisIndex,repeat_prac.thisRepN,repeat_prac.thisTrialN,repeat_prac.thisN,repeat_prac.thisIndex,trainLoop.thisRepN,trainLoop.thisTrialN,trainLoop.thisN,trainLoop.thisIndex,moveLoop_train.thisRepN,moveLoop_train.thisTrialN,moveLoop_train.thisN,moveLoop_train.thisIndex,experiment.thisRepN,experiment.thisTrialN,experiment.thisN,experiment.thisIndex,moveLoop_test.thisRepN,moveLoop_test.thisTrialN,moveLoop_test.thisN,moveLoop_test.thisIndex,mini_instr2_trials.thisRepN,mini_instr2_trials.thisTrialN,mini_instr2_trials.thisN,mini_instr2_trials.thisIndex,start_all_time,url,slideStim,audioStim,slides.started,sounds.started,nextButton.numClicks,nextButton.timesOn,nextButton.timesOff,prev_but.numClicks,prev_but.timesOn,prev_but.timesOff,alienStim,instrFile,alienStim_instr,gridImage_instr.started,startPos_3.started,key_instr.started,alienImage_3.started,sounds_1.started,key_instr.keys,key_instr.rt,all_x,all_y,FBy_corrSteps,FBy_fixStart,FBx_corrSteps,FBx_fixStart,FBy_pathSize_check,FBx_pathSize_check,gridImage_9.started,alienImageFB_3.started,startPosFB_3.started,keyFB_3.started,pathLine_ydir_2.started,pathLine_xdir_2.started,alienFace_3.started,sounds_2.started,RTFB_instr,keyFB_3.keys,keyFB_3.rt,draw_alienStim,draw_alienID,test_x,nrepcount,perfthres,percthres,earlierperf,earlystop,nextPrac,fileidx,praclen,saveACC_train,pracFile,nextPrac_train,addNrep,fileidx_endr,repExp,showearly,gridImage_4.started,startPos.started,movePos.started,key_resp.started,alienImage.started,wLy_dir,wLx_dir,x_movePos,y_movePos,buttonPress_train,RTchoice_train,cumAcctrain,aCorr,saveACC_choice,corrAns,x_movePos_end,y_movePos_end,key_resp.keys,key_resp.rt,text_2.started,text_2.stopped,aft_x_corrPos,aft_y_corrPos,y_pathSize_check,x_pathSize_check,y_pathdirY,x_pathdirY,x_pathdirX,x_corrPos,y_corrPos,gridImage_6.started,alienImageFB_2.started,startPosFB_2.started,movePosFB_2.started,keyFB_2.started,pathLine_xdir.started,pathLine_ydir.started,alienFace.started,sounds_4.started,RT_FBtrain,keyFB_2.keys,keyFB_2.rt,saveACC_pre,ACC,within_saveACC_train,earlystop_wloop,cumAcctrain_check,gridImage_3.started,alienImage_test.started,startPos_test.started,movePos_test.started,key_resp_test.started,wLy_dir_test,wLx_dir_test,buttonPress_test,RTchoice_test,cumAcctest,corrAns_test,key_resp_test.keys,key_resp_test.rt,text_3.started,text_3.stopped,total_time,end_all_time,key_resp_3.keys,slides_2.started,sounds_3.started,nextButton_2.numClicks,nextButton_2.timesOn,nextButton_2.timesOff,prev_but_2.numClicks,prev_but_2.timesOn,prev_but_2.timesOff,bye.started,participant,train_first,00_coordinate,starting corner,date,expName,psychopyVersion,frameRate,
,,,,,,,,,,,,,,,0,0,0,0,0,0,0,0,,,,,,,,,,,,,,,,,,,,,,,,,,,,,start_all_time,testround,conditions/schedules/train_x_first/red_square_00/top_right/instructions/Slide1.png,conditions/schedules/train_x_first/red_square_00/top_right/instructions/Audio1.wav,332.03861679998226,331.99049699970055,1,[14.697749399929307],[14.697757099987939],0,,,,,,,,,,,,,,,,,,,,,,,,,,,,,,,,,,,,,,,,,,,,,,,,,,,,,,,,,,,,,,,,,,,,,,,,,,,,,,,,,,,,,,,,,,,,,,,,,,,,,,,,,,,,,,,,,,,,,,,,,,,,5ZG5RV,train_x,red_square,top_right,2025-05-22_17h37.59.605,HideSeek_v1,2022.2.5,59.962463491255015,
,,,,,,,,,,,,,,,0,0,0,0,1,0,1,0,,,,,,,,,,,,,,,,,,,,,,,,,,,,,,,conditions/schedules/train_x_first/red_square_00/top_right/instructions/Slide2.png,conditions/schedules/train_x_first/red_square_00/top_right/instructions/Audio2.wav,346.7603645999916,346.75644059991464,2,"[14.697749399929307, 18.676705799996853]","[0.0002532999496906996, 18.676712699932978]",0,,,,,,,,,,,,,,,,,,,,,,,,,,,,,,,,,,,,,,,,,,,,,,,,,,,,,,,,,,,,,,,,,,,,,,,,,,,,,,,,,,,,,,,,,,,,,,,,,,,,,,,,,,,,,,,,,,,,,,,,,,,,5ZG5RV,train_x,red_square,top_right,2025-05-22_17h37.59.605,HideSeek_v1,2022.2.5,59.962463491255015,
,,,,,,,,,,,,,,,0,0,0,0,2,0,2,0,,,,,,,,,,,,,,,,,,,,,,,,,,,,,,,conditions/schedules/train_x_first/red_square_00/top_right/instructions/Slide3.png,conditions/schedules/train_x_first/red_square_00/top_right/instructions/Audio3.wav,365.52140679990407,365.5220196199836,3,"[14.697749399929307, 18.676705799996853, 16.612590400036424]","[0.0002532999496906996, 0.00021590001415461302, 16.612596999970265]",0,,,,,,,,,,,,,,,,,,,,,,,,,,,,,,,,,,,,,,,,,,,,,,,,,,,,,,,,,,,,,,,,,,,,,,,,,,,,,,,,,,,,,,,,,,,,,,,,,,,,,,,,,,,,,,,,,,,,,,,,,,,,5ZG5RV,train_x,red_square,top_right,2025-05-22_17h37.59.605,HideSeek_v1,2022.2.5,59.962463491255015,
,,,,,,,,,,,,,,,0,0,0,0,3,0,3,0,,,,,,,,,,,,,,,,,,,,,,,,,,,,,,,conditions/schedules/train_x_first/red_square_00/top_right/instructions/Slide4.png,conditions/schedules/train_x_first/red_square_00/top_right/instructions/Audio4.wav,382.21041189995594,382.20242029998917,4,"[14.697749399929307, 18.676705799996853, 16.612590400036424, 19.173294400097802]","[0.0002532999496906996, 0.00021590001415461302, 16.612596999970265, 19.173300300026312]",0,,,,,,,,,,,,,,,,,,,,,,,,,,,,,,,,,,,,,,,,,,,,,,,,,,,,,,,,,,,,,,,,,,,,,,,,,,,,,,,,,,,,,,,,,,,,,,,,,,,,,,,,,,,,,,,,,,,,,,,,,,,,5ZG5RV,train_x,red_square,top_right,2025-05-22_17h37.59.605,HideSeek_v1,2022.2.5,59.962463491255015,
,,,,,,,,,,,,,,,0,0,0,0,4,0,4,0,,,,,,,,,,,,,,,,,,,,,,,,,,,,,,,conditions/schedules/train_x_first/red_square_00/top_right/instructions/Slide5.png,conditions/schedules/train_x_first/red_square_00/top_right/instructions/Audio5.wav,401.4499720999738,401.4357010799693,5,"[14.697749399929307, 18.676705799996853, 16.612590400036424, 19.173294400097802, 4.321280000032857]","[0.0002532999496906996, 0.00021590001415461302, 16.612596999970265, 0.00021169998217374086, 4.321286900085397]",0,,,,,,,,,,,,,,,,,,,,,,,,,,,,,,,,,,,,,,,,,,,,,,,,,,,,,,,,,,,,,,,,,,,,,,,,,,,,,,,,,,,,,,,,,,,,,,,,,,,,,,,,,,,,,,,,,,,,,,,,,,,,5ZG5RV,train_x,red_square,top_right,2025-05-22_17h37.59.605,HideSeek_v1,2022.2.5,59.962463491255015,
,,,,,,,,,,,,,,,0,0,0,0,5,0,5,0,,,,,,,,,,,,,,,,,,,,,,,,,,,,,,,conditions/schedules/train_x_first/red_square_00/top_right/instructions/Slide6.png,conditions/schedules/train_x_first/red_square_00/top_right/instructions/Audio6.wav,405.82148359995335,405.82244667999913,6,"[14.697749399929307, 18.676705799996853, 16.612590400036424, 19.173294400097802, 4.321280000032857, 4.919898999971338]","[0.0002532999496906996, 0.00021590001415461302, 16.612596999970265, 0.00021169998217374086, 0.031658600084483624, 4.919906500028446]",0,,,,,,,,,,,,,,,,,,,,,,,,,,,,,,,,,,,,,,,,,,,,,,,,,,,,,,,,,,,,,,,,,,,,,,,,,,,,,,,,,,,,,,,,,,,,,,,,,,,,,,,,,,,,,,,,,,,,,,,,,,,,5ZG5RV,train_x,red_square,top_right,2025-05-22_17h37.59.605,HideSeek_v1,2022.2.5,59.962463491255015,
,,,,,,,,,,,,,,,0,0,0,0,6,0,6,0,,,,,,,,,,,,,,,,,,,,,,,,,,,,,,,conditions/schedules/train_x_first/red_square_00/top_right/instructions/Slide7.png,conditions/schedules/train_x_first/red_square_00/top_right/instructions/Audio7.wav,410.7946651999373,410.7930911799893,7,"[14.697749399929307, 18.676705799996853, 16.612590400036424, 19.173294400097802, 4.321280000032857, 4.919898999971338, 5.4343816000036895]","[0.0002532999496906996, 0.00021590001415461302, 16.612596999970265, 0.00021169998217374086, 0.031658600084483624, 0.03094339999370277, 5.43438819993753]",0,,,,,,,,,,,,,,,,,,,,,,,,,,,,,,,,,,,,,,,,,,,,,,,,,,,,,,,,,,,,,,,,,,,,,,,,,,,,,,,,,,,,,,,,,,,,,,,,,,,,,,,,,,,,,,,,,,,,,,,,,,,,5ZG5RV,train_x,red_square,top_right,2025-05-22_17h37.59.605,HideSeek_v1,2022.2.5,59.962463491255015,
,,,,,,,,,,,,,,,0,0,0,0,7,0,7,0,,,,,,,,,,,,,,,,,,,,,,,,,,,,,,,conditions/schedules/train_x_first/red_square_00/top_right/instructions/Slide8.png,conditions/schedules/train_x_first/red_square_00/top_right/instructions/Audio8.wav,416.28194399992935,416.2808111799648,8,"[14.697749399929307, 18.676705799996853, 16.612590400036424, 19.173294400097802, 4.321280000032857, 4.919898999971338, 5.4343816000036895, 11.423357000108808]","[0.0002532999496906996, 0.00021590001415461302, 16.612596999970265, 0.00021169998217374086, 0.031658600084483624, 0.03094339999370277, 0.04739380010869354, 11.42336370004341]",0,,,,,,,,,,,,,,,,,,,,,,,,,,,,,,,,,,,,,,,,,,,,,,,,,,,,,,,,,,,,,,,,,,,,,,,,,,,,,,,,,,,,,,,,,,,,,,,,,,,,,,,,,,,,,,,,,,,,,,,,,,,,5ZG5RV,train_x,red_square,top_right,2025-05-22_17h37.59.605,HideSeek_v1,2022.2.5,59.962463491255015,
,,,,,,,,,,,,,,,0,0,0,0,8,0,8,0,,,,,,,,,,,,,,,,,,,,,,,,,,,,,,,conditions/schedules/train_x_first/red_square_00/top_right/instructions/Slide9.png,conditions/schedules/train_x_first/red_square_00/top_right/instructions/Audio9.wav,427.77210099995136,427.77380369999446,9,"[14.697749399929307, 18.676705799996853, 16.612590400036424, 19.173294400097802, 4.321280000032857, 4.919898999971338, 5.4343816000036895, 11.423357000108808, 5.605047199991532]","[0.0002532999496906996, 0.00021590001415461302, 16.612596999970265, 0.00021169998217374086, 0.031658600084483624, 0.03094339999370277, 0.04739380010869354, 0.0669798000017181, 5.605054100044072]",0,,,,,,,,,,,,,,,,,,,,,,,,,,,,,,,,,,,,,,,,,,,,,,,,,,,,,,,,,,,,,,,,,,,,,,,,,,,,,,,,,,,,,,,,,,,,,,,,,,,,,,,,,,,,,,,,,,,,,,,,,,,,5ZG5RV,train_x,red_square,top_right,2025-05-22_17h37.59.605,HideSeek_v1,2022.2.5,59.962463491255015,
,,,,,,,,,,,,,,,0,0,0,0,9,0,9,0,,,,,,,,,,,,,,,,,,,,,,,,,,,,,,,conditions/schedules/train_x_first/red_square_00/top_right/instructions/Slide10.png,conditions/schedules/train_x_first/red_square_00/top_right/instructions/Audio10.wav,433.4149974999018,433.4119472599355,10,"[14.697749399929307, 18.676705799996853, 16.612590400036424, 19.173294400097802, 4.321280000032857, 4.919898999971338, 5.4343816000036895, 11.423357000108808, 5.605047199991532, 6.583585000014864]","[0.0002532999496906996, 0.00021590001415461302, 16.612596999970265, 0.00021169998217374086, 0.031658600084483624, 0.03094339999370277, 0.04739380010869354, 0.0669798000017181, 0.04679319995921105, 6.583593199960887]",0,,,,,,,,,,,,,,,,,,,,,,,,,,,,,,,,,,,,,,,,,,,,,,,,,,,,,,,,,,,,,,,,,,,,,,,,,,,,,,,,,,,,,,,,,,,,,,,,,,,,,,,,,,,,,,,,,,,,,,,,,,,,5ZG5RV,train_x,red_square,top_right,2025-05-22_17h37.59.605,HideSeek_v1,2022.2.5,59.962463491255015,
,,,,,,,,,,,,,,,0,0,0,0,10,0,10,0,,,,,,,,,,,,,,,,,,,,,,,,,,,,,,,conditions/schedules/train_x_first/red_square_00/top_right/instructions/Slide11.png,conditions/schedules/train_x_first/red_square_00/top_right/instructions/Audio11.wav,440.05686039989814,440.0505964799784,11,"[14.697749399929307, 18.676705799996853, 16.612590400036424, 19.173294400097802, 4.321280000032857, 4.919898999971338, 5.4343816000036895, 11.423357000108808, 5.605047199991532, 6.583585000014864, 9.366495599970222]","[0.0002532999496906996, 0.00021590001415461302, 16.612596999970265, 0.00021169998217374086, 0.031658600084483624, 0.03094339999370277, 0.04739380010869354, 0.0669798000017181, 0.04679319995921105, 0.048222400015220046, 9.366502200020477]",0,,,,,,,,,,,,,,,,,,,,,,,,,,,,,,,,,,,,,,,,,,,,,,,,,,,,,,,,,,,,,,,,,,,,,,,,,,,,,,,,,,,,,,,,,,,,,,,,,,,,,,,,,,,,,,,,,,,,,,,,,,,,5ZG5RV,train_x,red_square,top_right,2025-05-22_17h37.59.605,HideSeek_v1,2022.2.5,59.962463491255015,
,,,,,,,,,,,,,,,0,0,0,0,11,0,11,0,,,,,,,,,,,,,,,,,,,,,,,,,,,,,,,conditions/schedules/train_x_first/red_square_00/top_right/instructions/Slide12.png,conditions/schedules/train_x_first/red_square_00/top_right/instructions/Audio12.wav,449.4937193999067,449.4917256999761,12,"[14.697749399929307, 18.676705799996853, 16.612590400036424, 19.173294400097802, 4.321280000032857, 4.919898999971338, 5.4343816000036895, 11.423357000108808, 5.605047199991532, 6.583585000014864, 9.366495599970222, 12.474313299986534]","[0.0002532999496906996, 0.00021590001415461302, 16.612596999970265, 0.00021169998217374086, 0.031658600084483624, 0.03094339999370277, 0.04739380010869354, 0.0669798000017181, 0.04679319995921105, 0.048222400015220046, 0.048561800038442016, 12.474320100038312]",0,,,,,,,,,,,,,,,,,,,,,,,,,,,,,,,,,,,,,,,,,,,,,,,,,,,,,,,,,,,,,,,,,,,,,,,,,,,,,,,,,,,,,,,,,,,,,,,,,,,,,,,,,,,,,,,,,,,,,,,,,,,,5ZG5RV,train_x,red_square,top_right,2025-05-22_17h37.59.605,HideSeek_v1,2022.2.5,59.962463491255015,
1,8,7,3,7,-5,0,66,2,instr_dim1_1,,,,,,0,0,0,0,,,,,0,0,0,0,,,,,,,,,,,,,,,,,,,,,,,,,,,,,,,,,,,,,stimuli/alien_stimuli/66.png,conditions/schedules/train_x_first/red_square_00/top_right/inputInstr_1.xlsx,stimuli/alien_stimuli/66.png,462.0651397999609,462.0651397999609,462.0651397999609,462.0651397999609,462.05217611992265,return,15.308987700031139,"[-0.16, -0.08, 0, 0.08, 0.16, 0.24, 0.32, 0.4, 0.48, 0.56]","[-0.4, -0.32, -0.24, -0.16, -0.08, 0, 0.08, 0.16, 0.24, 0.32]",7,7,3,8,0.0,0.4,477.5472611999139,477.5472611999139,477.5472611999139,477.5472611999139,477.5472611999139,477.5472611999139,477.5472611999139,477.530878979899,7.741178099997342,return,7.57293230004143,stimuli/alien_stimuli/66.png,66,8,1,,,,,,,,,,,,,,,,,,,,,,,,,,,,,,,,,,,,,,,,,,,,,,,,,,,,,,,,,,,,,,,,,,,,,,,,,,,,,,,,,,,,,,,,,5ZG5RV,train_x,red_square,top_right,2025-05-22_17h37.59.605,HideSeek_v1,2022.2.5,59.962463491255015,
,,,,,,,,,,,30,,,,0,0,0,0,,,,,,,,,,,,,,,,,,,,,,,,,,,,,,,,,,,,,,,,,,,,,,,,,,,,,,,,,,,,,,,,,,,,,,,,,,,,,,21,0.7,0,0,99,1,30,0,conditions/schedules/train_x_first/red_square_00/top_right/inputTrain_1.1.xlsx,99,1,1,1,0,,,,,,,,,,,,,,,,,,,,,,,,,,,,,,,,,,,,,,,,,,,,,,,,,,,,,,,,,,,,,,,,,,,,,,,,,,,5ZG5RV,train_x,red_square,top_right,2025-05-22_17h37.59.605,HideSeek_v1,2022.2.5,59.962463491255015,
,,,,,,,,,,,,,,,1,0,1,0,0,0,0,0,,,,,,,,,,,,,,,,,,,,,,,,,,,,,,,conditions/schedules/train_x_first/red_square_00/top_right/instructions/Slide13.png,conditions/schedules/train_x_first/red_square_00/top_right/instructions/Audio13.wav,485.2699914999539,485.27101157996805,13,"[14.697749399929307, 18.676705799996853, 16.612590400036424, 19.173294400097802, 4.321280000032857, 4.919898999971338, 5.4343816000036895, 11.423357000108808, 5.605047199991532, 6.583585000014864, 9.366495599970222, 12.474313299986534, 18.115567700006068]","[0.0002532999496906996, 0.00021590001415461302, 16.612596999970265, 0.00021169998217374086, 0.031658600084483624, 0.03094339999370277, 0.04739380010869354, 0.0669798000017181, 0.04679319995921105, 0.048222400015220046, 0.048561800038442016, 12.474320100038312, 18.115575599949807]",0,,,,,,,,,,,,,,,,,,,,,,,,,,,,,,,,,,,,,,,,,,,,,,,,,,,,,,,,,,,,,,,,,,,,,,,,,,,,,,,,,,,,,,,,,,,,,,,,,,,,,,,,,,,,,,,,,,,,,,,,,,,,5ZG5RV,train_x,red_square,top_right,2025-05-22_17h37.59.605,HideSeek_v1,2022.2.5,59.962463491255015,
,,,,,,,,,,,,,,,1,0,1,0,1,0,1,0,,,,,,,,,,,,,,,,,,,,,,,,,,,,,,,conditions/schedules/train_x_first/red_square_00/top_right/instructions/Slide14.png,conditions/schedules/train_x_first/red_square_00/top_right/instructions/Audio14.wav,503.45908929989673,503.4533223999897,14,"[14.697749399929307, 18.676705799996853, 16.612590400036424, 19.173294400097802, 4.321280000032857, 4.919898999971338, 5.4343816000036895, 11.423357000108808, 5.605047199991532, 6.583585000014864, 9.366495599970222, 12.474313299986534, 18.115567700006068, 13.220612299977802]","[0.0002532999496906996, 0.00021590001415461302, 16.612596999970265, 0.00021169998217374086, 0.031658600084483624, 0.03094339999370277, 0.04739380010869354, 0.0669798000017181, 0.04679319995921105, 0.048222400015220046, 0.048561800038442016, 12.474320100038312, 18.115575599949807, 13.22062050004024]",0,,,,,,,,,,,,,,,,,,,,,,,,,,,,,,,,,,,,,,,,,,,,,,,,,,,,,,,,,,,,,,,,,,,,,,,,,,,,,,,,,,,,,,,,,,,,,,,,,,,,,,,,,,,,,,,,,,,,,,,,,,,,5ZG5RV,train_x,red_square,top_right,2025-05-22_17h37.59.605,HideSeek_v1,2022.2.5,59.962463491255015,
2,9,5,9,5,0,0,16,2,instr_dim1_1,,,,,,1,0,1,0,,,,,0,0,0,0,,,,,,,,,,,,,,,,,,,,,,,,,,,,,,,,,,,,,stimuli/alien_stimuli/16.png,conditions/schedules/train_x_first/red_square_00/top_right/inputInstr_1.xlsx,stimuli/alien_stimuli/16.png,516.7845758999465,516.7845758999465,516.7845758999465,516.7845758999465,516.780557239987,return,3.28014099993743,"[-0.16, -0.08, 0, 0.08, 0.16, 0.24, 0.32, 0.4, 0.48, 0.56]","[-0.4, -0.32, -0.24, -0.16, -0.08, 0, 0.08, 0.16, 0.24, 0.32]",5,5,9,9,0.0,0.0,520.2268137999345,520.2268137999345,520.2268137999345,520.2268137999345,520.2268137999345,520.2268137999345,520.2268137999345,520.2164394799155,9.958776599960402,return,9.784624599968083,stimuli/alien_stimuli/16.png,16,9,2,,,,,,,,,,,,,,,,,,,,,,,,,,,,,,,,,,,,,,,,,,,,,,,,,,,,,,,,,,,,,,,,,,,,,,,,,,,,,,,,,,,,,,,,,5ZG5RV,train_x,red_square,top_right,2025-05-22_17h37.59.605,HideSeek_v1,2022.2.5,59.962463491255015,
,,,,,,,,,,,30,,,,1,0,1,0,,,,,,,,,,,,,,,,,,,,,,,,,,,,,,,,,,,,,,,,,,,,,,,,,,,,,,,,,,,,,,,,,,,,,,,,,,,,,,21,0.7,0,0,99,1,30,0,conditions/schedules/train_x_first/red_square_00/top_right/inputTrain_1.1.xlsx,99,1,1,1,0,,,,,,,,,,,,,,,,,,,,,,,,,,,,,,,,,,,,,,,,,,,,,,,,,,,,,,,,,,,,,,,,,,,,,,,,,,,5ZG5RV,train_x,red_square,top_right,2025-05-22_17h37.59.605,HideSeek_v1,2022.2.5,59.962463491255015,
,,,,,,,,,,,,,,,2,0,2,0,0,0,0,0,,,,,,,,,,,,,,,,,,,,,,,,,,,,,,,conditions/schedules/train_x_first/red_square_00/top_right/instructions/Slide15.png,conditions/schedules/train_x_first/red_square_00/top_right/instructions/Audio15.wav,530.1787282999139,530.1745166799054,15,"[14.697749399929307, 18.676705799996853, 16.612590400036424, 19.173294400097802, 4.321280000032857, 4.919898999971338, 5.4343816000036895, 11.423357000108808, 5.605047199991532, 6.583585000014864, 9.366495599970222, 12.474313299986534, 18.115567700006068, 13.220612299977802, 30.469219500082545]","[0.0002532999496906996, 0.00021590001415461302, 16.612596999970265, 0.00021169998217374086, 0.031658600084483624, 0.03094339999370277, 0.04739380010869354, 0.0669798000017181, 0.04679319995921105, 0.048222400015220046, 0.048561800038442016, 12.474320100038312, 18.115575599949807, 13.22062050004024, 30.469226800021715]",0,,,,,,,,,,,,,,,,,,,,,,,,,,,,,,,,,,,,,,,,,,,,,,,,,,,,,,,,,,,,,,,,,,,,,,,,,,,,,,,,,,,,,,,,,,,,,,,,,,,,,,,,,,,,,,,,,,,,,,,,,,,,5ZG5RV,train_x,red_square,top_right,2025-05-22_17h37.59.605,HideSeek_v1,2022.2.5,59.962463491255015,
,,,,,,,,,,,,,,,2,0,2,0,1,0,1,0,,,,,,,,,,,,,,,,,,,,,,,,,,,,,,,conditions/schedules/train_x_first/red_square_00/top_right/instructions/Slide16.png,conditions/schedules/train_x_first/red_square_00/top_right/instructions/Audio16.wav,560.7098913999507,560.7008516799659,16,"[14.697749399929307, 18.676705799996853, 16.612590400036424, 19.173294400097802, 4.321280000032857, 4.919898999971338, 5.4343816000036895, 11.423357000108808, 5.605047199991532, 6.583585000014864, 9.366495599970222, 12.474313299986534, 18.115567700006068, 13.220612299977802, 30.469219500082545, 21.33999120001681]","[0.0002532999496906996, 0.00021590001415461302, 16.612596999970265, 0.00021169998217374086, 0.031658600084483624, 0.03094339999370277, 0.04739380010869354, 0.0669798000017181, 0.04679319995921105, 0.048222400015220046, 0.048561800038442016, 12.474320100038312, 18.115575599949807, 13.22062050004024, 0.03516900003887713, 21.339998799958266]",0,,,,,,,,,,,,,,,,,,,,,,,,,,,,,,,,,,,,,,,,,,,,,,,,,,,,,,,,,,,,,,,,,,,,,,,,,,,,,,,,,,,,,,,,,,,,,,,,,,,,,,,,,,,,,,,,,,,,,,,,,,,,5ZG5RV,train_x,red_square,top_right,2025-05-22_17h37.59.605,HideSeek_v1,2022.2.5,59.962463491255015,
,7,6,4,6,-3,0,46,,train_dim1_1,1,30,,,,2,0,2,0,,,,,,,,,0,0,0,0,0,0,0,0,0,0,0,0,,,,,,,,,,,,,,,,,,,,,,,,,stimuli/alien_stimuli/46.png,,,,,,,,,,,,,,,,,,,,,,,,,,,,,,,,,,,,,,,30,,,,,,,,582.1456708998885,582.1456708998885,582.1456708998885,582.1456708998885,582.1456708998885,0,0,0.4,0.08,return,3.0642213999526575,0,0,0,0,0.4,0.08,return,2.9644407000159845,,,,,,,,,,,,,,,,,,,,,,,,,,,,,,,,,,,,,,,,,,,,,,,,,,,,,,,,5ZG5RV,train_x,red_square,top_right,2025-05-22_17h37.59.605,HideSeek_v1,2022.2.5,59.962463491255015,
,7,9,7,9,0,0,16,,train_dim1_1,2,30,,,,2,0,2,0,,,,,,,,,0,0,0,0,0,1,1,1,0,0,0,0,,,,,,,,,,,,,,,,,,,,,,,,,stimuli/alien_stimuli/16.png,,,,,,,,,,,,,,,,,,,,,,,,,,,,,stimuli/alien_stimuli/46.png,46,7,3,,,,,,,30,,,,,,,,595.2455953999888,595.2455953999888,595.2455953999888,595.2455953999888,595.2455953999888,,,,,right,1.5371010000817478,0,0,0,99,0.48000000000000004,0.32,right,1.4476706999121234,593.678805799922,595.2455953999888,0.16,0.08,0.0,0.24,0.08,0.16,0.28,0.16,0.08,586.766345199896,586.766345199896,586.766345199896,586.766345199896,586.766345199896,586.766345199896,586.766345199896,586.766345199896,586.7553204399069,7.024754200014286,return,6.895875500049442,,,,,,,,,,,,,,,,,,,,,,,,,,,,,,,,,5ZG5RV,train_x,red_square,top_right,2025-05-22_17h37.59.605,HideSeek_v1,2022.2.5,59.962463491255015,
,7,9,7,9,0,0,16,,train_dim1_1,2,30,,,,2,0,2,0,,,,,,,,,0,0,0,0,0,1,1,1,1,0,1,0,,,,,,,,,,,,,,,,,,,,,,,,,,,,,,,,,,,,,,,,,,,,,,,,,,,,,,,,,,,,,,,,30,,,,,,,,596.7904684999958,596.7904684999958,596.7904684999958,596.7904684999958,596.7904684999958,,,,,left,1.459999299957417,0,0,0,99,0.4,0.32,left,1.3746529999189079,,,,,,,,,,,,,,,,,,,,,,,,,,,,,,,,,,,,,,,,,,,,,,,,,,,,,,,,5ZG5RV,train_x,red_square,top_right,2025-05-22_17h37.59.605,HideSeek_v1,2022.2.5,59.962463491255015,
,7,9,7,9,0,0,16,,train_dim1_1,2,30,,,,2,0,2,0,,,,,,,,,0,0,0,0,0,1,1,1,2,0,2,0,,,,,,,,,,,,,,,,,,,,,,,,,,,,,,,,,,,,,,,,,,,,,,,,,,,,,,,,,,,,,,,,30,,,,,,,,598.2497990999836,598.2497990999836,598.2497990999836,598.2497990999836,598.2497990999836,0,0,0.4,0.32,return,1.2609374000458047,1,0,0,1,0.4,0.32,return,1.1834527000319213,,,,,,,,,,,,,,,,,,,,,,,,,,,,,,,,,,,,,,,,,,,,,,,,,,,,,,,,5ZG5RV,train_x,red_square,top_right,2025-05-22_17h37.59.605,HideSeek_v1,2022.2.5,59.962463491255015,
,9,9,8,9,-1,0,26,,train_dim1_1,3,30,,,,2,0,2,0,,,,,,,,,0,0,0,0,0,2,2,2,0,0,0,0,,,,,,,,,,,,,,,,,,,,,,,,,stimuli/alien_stimuli/26.png,,,,,,,,,,,,,,,,,,,,,,,,,,,,,stimuli/alien_stimuli/16.png,16,7,4,,,,,,,30,,,,,,,,607.5186948999763,607.5186948999763,607.5186948999763,607.5186948999763,607.5186948999763,,,,,right,1.6727694000583142,1,0,0,99,0.64,0.32,right,1.5800143999513239,605.9555023999419,607.5186948999763,0.4,0.32,0.0,0.0,0.32,0.4,0.4,0.4,0.32,601.1062605999177,601.1062605999177,601.1062605999177,601.1062605999177,601.1062605999177,601.1062605999177,601.1062605999177,601.1062605999177,601.1004908799194,4.988880400080234,return,4.819994000019506,,,,,,,,,,,,,,,,,,,,,,,,,,,,,,,,,5ZG5RV,train_x,red_square,top_right,2025-05-22_17h37.59.605,HideSeek_v1,2022.2.5,59.962463491255015,
,9,9,8,9,-1,0,26,,train_dim1_1,3,30,,,,2,0,2,0,,,,,,,,,0,0,0,0,0,2,2,2,1,0,1,0,,,,,,,,,,,,,,,,,,,,,,,,,,,,,,,,,,,,,,,,,,,,,,,,,,,,,,,,,,,,,,,,30,,,,,,,,609.2031671999721,609.2031671999721,609.2031671999721,609.2031671999721,609.2031671999721,,,,,left,0.9934076999779791,1,0,0,99,0.56,0.32,left,0.901763099944219,,,,,,,,,,,,,,,,,,,,,,,,,,,,,,,,,,,,,,,,,,,,,,,,,,,,,,,,5ZG5RV,train_x,red_square,top_right,2025-05-22_17h37.59.605,HideSeek_v1,2022.2.5,59.962463491255015,
,9,9,8,9,-1,0,26,,train_dim1_1,3,30,,,,2,0,2,0,,,,,,,,,0,0,0,0,0,2,2,2,2,0,2,0,,,,,,,,,,,,,,,,,,,,,,,,,,,,,,,,,,,,,,,,,,,,,,,,,,,,,,,,,,,,,,,,30,,,,,,,,610.1929238999728,610.1929238999728,610.1929238999728,610.1929238999728,610.1929238999728,0,0,0.56,0.32,return,0.810319900047034,1,1,0,0,0.56,0.32,return,0.7215160999912769,,,,,,,,,,,,,,,,,,,,,,,,,,,,,,,,,,,,,,,,,,,,,,,,,,,,,,,,5ZG5RV,train_x,red_square,top_right,2025-05-22_17h37.59.605,HideSeek_v1,2022.2.5,59.962463491255015,
,7,8,3,8,-4,0,56,,train_dim1_1,4,30,,,,2,0,2,0,,,,,,,,,0,0,0,0,0,3,3,3,0,0,0,0,,,,,,,,,,,,,,,,,,,,,,,,,stimuli/alien_stimuli/56.png,,,,,,,,,,,,,,,,,,,,,,,,,,,,,stimuli/alien_stimuli/26.png,26,9,5,,,,,,,30,,,,,,,,625.9347725999542,625.9347725999542,625.9347725999542,625.9347725999542,625.9347725999542,,,,,right,0.9898391000460833,1,1,0,99,0.48000000000000004,0.24,right,0.8895055999746546,624.3708790999372,625.9347725999542,0.48,0.32,0.0,0.08,0.32,0.48,0.52,0.48,0.32,612.5914094999898,612.5914094999898,612.5914094999898,612.5914094999898,612.5914094999898,612.5914094999898,612.5914094999898,612.5914094999898,612.5764575599693,11.91210120008327,return,11.762492400011979,,,,,,,,,,,,,,,,,,,,,,,,,,,,,,,,,5ZG5RV,train_x,red_square,top_right,2025-05-22_17h37.59.605,HideSeek_v1,2022.2.5,59.962463491255015,
,7,8,3,8,-4,0,56,,train_dim1_1,4,30,,,,2,0,2,0,,,,,,,,,0,0,0,0,0,3,3,3,1,0,1,0,,,,,,,,,,,,,,,,,,,,,,,,,,,,,,,,,,,,,,,,,,,,,,,,,,,,,,,,,,,,,,,,30,,,,,,,,626.9219331999775,626.9219331999775,626.9219331999775,626.9219331999775,626.9219331999775,,,,,left,1.3268343000672758,1,1,0,99,0.4,0.24,left,1.2456610000226647,,,,,,,,,,,,,,,,,,,,,,,,,,,,,,,,,,,,,,,,,,,,,,,,,,,,,,,,5ZG5RV,train_x,red_square,top_right,2025-05-22_17h37.59.605,HideSeek_v1,2022.2.5,59.962463491255015,
,7,8,3,8,-4,0,56,,train_dim1_1,4,30,,,,2,0,2,0,,,,,,,,,0,0,0,0,0,3,3,3,2,0,2,0,,,,,,,,,,,,,,,,,,,,,,,,,,,,,,,,,,,,,,,,,,,,,,,,,,,,,,,,,,,,,,,,30,,,,,,,,628.257046099985,628.257046099985,628.257046099985,628.257046099985,628.257046099985,0,0,0.4,0.24,return,1.0266196000156924,1,0,0,0,0.4,0.24,return,0.9440787000348791,,,,,,,,,,,,,,,,,,,,,,,,,,,,,,,,,,,,,,,,,,,,,,,,,,,,,,,,5ZG5RV,train_x,red_square,top_right,2025-05-22_17h37.59.605,HideSeek_v1,2022.2.5,59.962463491255015,
,5,7,0,7,-5,0,66,,train_dim1_1,5,30,,,,2,0,2,0,,,,,,,,,0,0,0,0,0,4,4,4,0,0,0,0,,,,,,,,,,,,,,,,,,,,,,,,,stimuli/alien_stimuli/66.png,,,,,,,,,,,,,,,,,,,,,,,,,,,,,stimuli/alien_stimuli/56.png,56,7,6,,,,,,,30,,,,,,,,636.3907615999924,636.3907615999924,636.3907615999924,636.3907615999924,636.3907615999924,,,,,right,1.0526776999467984,1,0,0,99,0.32,0.16,right,0.9632560999598354,634.8292675999692,636.3907615999924,0.08,0.24,0.0,0.32,0.24,0.08,0.24000000000000002,0.08,0.24,630.8691190999234,630.8691190999234,630.8691190999234,630.8691190999234,630.8691190999234,630.8691190999234,630.8691190999234,630.8691190999234,630.8583079598844,4.089100899989717,return,3.93896209995728,,,,,,,,,,,,,,,,,,,,,,,,,,,,,,,,,5ZG5RV,train_x,red_square,top_right,2025-05-22_17h37.59.605,HideSeek_v1,2022.2.5,59.962463491255015,
,5,7,0,7,-5,0,66,,train_dim1_1,5,30,,,,2,0,2,0,,,,,,,,,0,0,0,0,0,4,4,4,1,0,1,0,,,,,,,,,,,,,,,,,,,,,,,,,,,,,,,,,,,,,,,,,,,,,,,,,,,,,,,,,,,,,,,,30,,,,,,,,637.4454588999506,637.4454588999506,637.4454588999506,637.4454588999506,637.4454588999506,,,,,right,0.9608298999955878,1,0,0,99,0.4,0.16,right,0.8863673000596464,,,,,,,,,,,,,,,,,,,,,,,,,,,,,,,,,,,,,,,,,,,,,,,,,,,,,,,,5ZG5RV,train_x,red_square,top_right,2025-05-22_17h37.59.605,HideSeek_v1,2022.2.5,59.962463491255015,
,5,7,0,7,-5,0,66,,train_dim1_1,5,30,,,,2,0,2,0,,,,,,,,,0,0,0,0,0,4,4,4,2,0,2,0,,,,,,,,,,,,,,,,,,,,,,,,,,,,,,,,,,,,,,,,,,,,,,,,,,,,,,,,,,,,,,,,30,,,,,,,,638.4128612999339,638.4128612999339,638.4128612999339,638.4128612999339,638.4128612999339,,,,,right,0.7096394000109285,1,0,0,99,0.48000000000000004,0.16,right,0.6278681999538094,,,,,,,,,,,,,,,,,,,,,,,,,,,,,,,,,,,,,,,,,,,,,,,,,,,,,,,,5ZG5RV,train_x,red_square,top_right,2025-05-22_17h37.59.605,HideSeek_v1,2022.2.5,59.962463491255015,
,5,7,0,7,-5,0,66,,train_dim1_1,5,30,,,,2,0,2,0,,,,,,,,,0,0,0,0,0,4,4,4,3,0,3,0,,,,,,,,,,,,,,,,,,,,,,,,,,,,,,,,,,,,,,,,,,,,,,,,,,,,,,,,,,,,,,,,30,,,,,,,,639.1305195998866,639.1305195998866,639.1305195998866,639.1305195998866,639.1305195998866,,,,,down,1.2103808000683784,1,0,0,99,0.48000000000000004,0.08,down,1.1350611998932436,,,,,,,,,,,,,,,,,,,,,,,,,,,,,,,,,,,,,,,,,,,,,,,,,,,,,,,,5ZG5RV,train_x,red_square,top_right,2025-05-22_17h37.59.605,HideSeek_v1,2022.2.5,59.962463491255015,
,5,7,0,7,-5,0,66,,train_dim1_1,5,30,,,,2,0,2,0,,,,,,,,,0,0,0,0,0,4,4,4,4,0,4,0,,,,,,,,,,,,,,,,,,,,,,,,,,,,,,,,,,,,,,,,,,,,,,,,,,,,,,,,,,,,,,,,30,,,,,,,,640.3473089999752,640.3473089999752,640.3473089999752,640.3473089999752,640.3473089999752,,,,,left,2.4618069999851286,1,0,0,99,0.4,0.08,left,2.3847769999410957,,,,,,,,,,,,,,,,,,,,,,,,,,,,,,,,,,,,,,,,,,,,,,,,,,,,,,,,5ZG5RV,train_x,red_square,top_right,2025-05-22_17h37.59.605,HideSeek_v1,2022.2.5,59.962463491255015,
,5,7,0,7,-5,0,66,,train_dim1_1,5,30,,,,2,0,2,0,,,,,,,,,0,0,0,0,0,4,4,4,5,0,5,0,,,,,,,,,,,,,,,,,,,,,,,,,,,,,,,,,,,,,,,,,,,,,,,,,,,,,,,,,,,,,,,,30,,,,,,,,642.8163392998977,642.8163392998977,642.8163392998977,642.8163392998977,642.8163392998977,,,,,left,0.39305079996120185,1,0,0,99,0.32,0.08,left,0.32101920002605766,,,,,,,,,,,,,,,,,,,,,,,,,,,,,,,,,,,,,,,,,,,,,,,,,,,,,,,,5ZG5RV,train_x,red_square,top_right,2025-05-22_17h37.59.605,HideSeek_v1,2022.2.5,59.962463491255015,
,5,7,0,7,-5,0,66,,train_dim1_1,5,30,,,,2,0,2,0,,,,,,,,,0,0,0,0,0,4,4,4,6,0,6,0,,,,,,,,,,,,,,,,,,,,,,,,,,,,,,,,,,,,,,,,,,,,,,,,,,,,,,,,,,,,,,,,30,,,,,,,,643.2162945999298,643.2162945999298,643.2162945999298,643.2162945999298,643.2162945999298,,,,,left,0.49394900002516806,1,0,0,99,0.24,0.08,left,0.41971960000228137,,,,,,,,,,,,,,,,,,,,,,,,,,,,,,,,,,,,,,,,,,,,,,,,,,,,,,,,5ZG5RV,train_x,red_square,top_right,2025-05-22_17h37.59.605,HideSeek_v1,2022.2.5,59.962463491255015,
,5,7,0,7,-5,0,66,,train_dim1_1,5,30,,,,2,0,2,0,,,,,,,,,0,0,0,0,0,4,4,4,7,0,7,0,,,,,,,,,,,,,,,,,,,,,,,,,,,,,,,,,,,,,,,,,,,,,,,,,,,,,,,,,,,,,,,,30,,,,,,,,643.7163356998935,643.7163356998935,643.7163356998935,643.7163356998935,643.7163356998935,,,,,up,1.5945636000251397,1,0,0,99,0.24,0.16,up,1.521537300082855,,,,,,,,,,,,,,,,,,,,,,,,,,,,,,,,,,,,,,,,,,,,,,,,,,,,,,,,5ZG5RV,train_x,red_square,top_right,2025-05-22_17h37.59.605,HideSeek_v1,2022.2.5,59.962463491255015,
,5,7,0,7,-5,0,66,,train_dim1_1,5,30,,,,2,0,2,0,,,,,,,,,0,0,0,0,0,4,4,4,8,0,8,0,,,,,,,,,,,,,,,,,,,,,,,,,,,,,,,,,,,,,,,,,,,,,,,,,,,,,,,,,,,,,,,,30,,,,,,,,645.3186487999046,645.3186487999046,645.3186487999046,645.3186487999046,645.3186487999046,,,,,up,0.49285429995507,1,0,0,99,0.24,0.24,up,0.4149500000057742,,,,,,,,,,,,,,,,,,,,,,,,,,,,,,,,,,,,,,,,,,,,,,,,,,,,,,,,5ZG5RV,train_x,red_square,top_right,2025-05-22_17h37.59.605,HideSeek_v1,2022.2.5,59.962463491255015,
,5,7,0,7,-5,0,66,,train_dim1_1,5,30,,,,2,0,2,0,,,,,,,,,0,0,0,0,0,4,4,4,9,0,9,0,,,,,,,,,,,,,,,,,,,,,,,,,,,,,,,,,,,,,,,,,,,,,,,,,,,,,,,,,,,,,,,,30,,,,,,,,645.819837499992,645.819837499992,645.819837499992,645.819837499992,645.819837499992,,,,,left,1.6278408999787644,1,0,0,99,0.15999999999999998,0.24,left,1.5400862999958917,,,,,,,,,,,,,,,,,,,,,,,,,,,,,,,,,,,,,,,,,,,,,,,,,,,,,,,,5ZG5RV,train_x,red_square,top_right,2025-05-22_17h37.59.605,HideSeek_v1,2022.2.5,59.962463491255015,
,5,7,0,7,-5,0,66,,train_dim1_1,5,30,,,,2,0,2,0,,,,,,,,,0,0,0,0,0,4,4,4,10,0,10,0,,,,,,,,,,,,,,,,,,,,,,,,,,,,,,,,,,,,,,,,,,,,,,,,,,,,,,,,,,,,,,,,30,,,,,,,,647.4526070998982,647.4526070998982,647.4526070998982,647.4526070998982,647.4526070998982,,,,,left,0.5097596000414342,1,0,0,99,0.07999999999999997,0.24,left,0.4333073999732733,,,,,,,,,,,,,,,,,,,,,,,,,,,,,,,,,,,,,,,,,,,,,,,,,,,,,,,,5ZG5RV,train_x,red_square,top_right,2025-05-22_17h37.59.605,HideSeek_v1,2022.2.5,59.962463491255015,
,5,7,0,7,-5,0,66,,train_dim1_1,5,30,,,,2,0,2,0,,,,,,,,,0,0,0,0,0,4,4,4,11,0,11,0,,,,,,,,,,,,,,,,,,,,,,,,,,,,,,,,,,,,,,,,,,,,,,,,,,,,,,,,,,,,,,,,30,,,,,,,,647.9701358999591,647.9701358999591,647.9701358999591,647.9701358999591,647.9701358999591,,,,,left,0.726679699961096,1,0,0,99,-2.7755575615628914e-17,0.24,left,0.647640599985607,,,,,,,,,,,,,,,,,,,,,,,,,,,,,,,,,,,,,,,,,,,,,,,,,,,,,,,,5ZG5RV,train_x,red_square,top_right,2025-05-22_17h37.59.605,HideSeek_v1,2022.2.5,59.962463491255015,
,5,7,0,7,-5,0,66,,train_dim1_1,5,30,,,,2,0,2,0,,,,,,,,,0,0,0,0,0,4,4,4,12,0,12,0,,,,,,,,,,,,,,,,,,,,,,,,,,,,,,,,,,,,,,,,,,,,,,,,,,,,,,,,,,,,,,,,30,,,,,,,,648.7033394998871,648.7033394998871,648.7033394998871,648.7033394998871,648.7033394998871,,,,,left,0.42669259989634156,1,0,0,99,-0.08000000000000003,0.24,left,0.34993759996723384,,,,,,,,,,,,,,,,,,,,,,,,,,,,,,,,,,,,,,,,,,,,,,,,,,,,,,,,5ZG5RV,train_x,red_square,top_right,2025-05-22_17h37.59.605,HideSeek_v1,2022.2.5,59.962463491255015,
,5,7,0,7,-5,0,66,,train_dim1_1,5,30,,,,2,0,2,0,,,,,,,,,0,0,0,0,0,4,4,4,13,0,13,0,,,,,,,,,,,,,,,,,,,,,,,,,,,,,,,,,,,,,,,,,,,,,,,,,,,,,,,,,,,,,,,,30,,,,,,,,649.1382813999662,649.1382813999662,649.1382813999662,649.1382813999662,649.1382813999662,,,,,down,2.028158500092104,1,0,0,99,-0.08000000000000003,0.15999999999999998,down,1.9443149999715388,,,,,,,,,,,,,,,,,,,,,,,,,,,,,,,,,,,,,,,,,,,,,,,,,,,,,,,,5ZG5RV,train_x,red_square,top_right,2025-05-22_17h37.59.605,HideSeek_v1,2022.2.5,59.962463491255015,
,5,7,0,7,-5,0,66,,train_dim1_1,5,30,,,,2,0,2,0,,,,,,,,,0,0,0,0,0,4,4,4,14,0,14,0,,,,,,,,,,,,,,,,,,,,,,,,,,,,,,,,,,,,,,,,,,,,,,,,,,,,,,,,,,,,,,,,30,,,,,,,,651.1722177999327,651.1722177999327,651.1722177999327,651.1722177999327,651.1722177999327,0,-4,-0.08000000000000003,0.15999999999999998,return,1.3445071000605822,1,1,0,0,-0.08000000000000003,0.15999999999999998,return,1.2616666000103578,,,,,,,,,,,,,,,,,,,,,,,,,,,,,,,,,,,,,,,,,,,,,,,,,,,,,,,,5ZG5RV,train_x,red_square,top_right,2025-05-22_17h37.59.605,HideSeek_v1,2022.2.5,59.962463491255015,
,5,5,4,5,-1,0,26,,train_dim1_1,6,30,,,,2,0,2,0,,,,,,,,,0,0,0,0,0,5,5,5,0,0,0,0,,,,,,,,,,,,,,,,,,,,,,,,,stimuli/alien_stimuli/26.png,,,,,,,,,,,,,,,,,,,,,,,,,,,,,stimuli/alien_stimuli/66.png,66,5,7,,,,,,,30,,,,,,,,661.1007989998907,661.1007989998907,661.1007989998907,661.1007989998907,661.1007989998907,,,,,right,1.501907000085339,1,1,0,99,0.32,0,right,1.4028644000645727,659.533139099949,661.1007989998907,-0.16,0.16,0.0,0.4,0.16,-0.16,0.039999999999999994,-0.16,0.16,654.1035405999282,654.1035405999282,654.1035405999282,654.1035405999282,654.1035405999282,654.1035405999282,654.1035405999282,654.1035405999282,654.0944437599043,5.5565924000693485,return,5.402124700020067,,,,,,,,,,,,,,,,,,,,,,,,,,,,,,,,,5ZG5RV,train_x,red_square,top_right,2025-05-22_17h37.59.605,HideSeek_v1,2022.2.5,59.962463491255015,
,5,5,4,5,-1,0,26,,train_dim1_1,6,30,,,,2,0,2,0,,,,,,,,,0,0,0,0,0,5,5,5,1,0,1,0,,,,,,,,,,,,,,,,,,,,,,,,,,,,,,,,,,,,,,,,,,,,,,,,,,,,,,,,,,,,,,,,30,,,,,,,,662.6186512999702,662.6186512999702,662.6186512999702,662.6186512999702,662.6186512999702,,,,,down,2.4780630000168458,1,1,0,99,0.32,-0.08,down,2.3848489999072626,,,,,,,,,,,,,,,,,,,,,,,,,,,,,,,,,,,,,,,,,,,,,,,,,,,,,,,,5ZG5RV,train_x,red_square,top_right,2025-05-22_17h37.59.605,HideSeek_v1,2022.2.5,59.962463491255015,
,5,5,4,5,-1,0,26,,train_dim1_1,6,30,,,,2,0,2,0,,,,,,,,,0,0,0,0,0,5,5,5,2,0,2,0,,,,,,,,,,,,,,,,,,,,,,,,,,,,,,,,,,,,,,,,,,,,,,,,,,,,,,,,,,,,,,,,30,,,,,,,,665.0904378999257,665.0904378999257,665.0904378999257,665.0904378999257,665.0904378999257,,,,,right,1.5932724999729544,1,1,0,99,0.4,-0.08,right,1.5111052000429481,,,,,,,,,,,,,,,,,,,,,,,,,,,,,,,,,,,,,,,,,,,,,,,,,,,,,,,,5ZG5RV,train_x,red_square,top_right,2025-05-22_17h37.59.605,HideSeek_v1,2022.2.5,59.962463491255015,
,5,5,4,5,-1,0,26,,train_dim1_1,6,30,,,,2,0,2,0,,,,,,,,,0,0,0,0,0,5,5,5,3,0,3,0,,,,,,,,,,,,,,,,,,,,,,,,,,,,,,,,,,,,,,,,,,,,,,,,,,,,,,,,,,,,,,,,30,,,,,,,,666.6914035999216,666.6914035999216,666.6914035999216,666.6914035999216,666.6914035999216,,,,,down,0.8437796999933198,1,1,0,99,0.4,-0.16,down,0.7575787000823766,,,,,,,,,,,,,,,,,,,,,,,,,,,,,,,,,,,,,,,,,,,,,,,,,,,,,,,,5ZG5RV,train_x,red_square,top_right,2025-05-22_17h37.59.605,HideSeek_v1,2022.2.5,59.962463491255015,
,5,5,4,5,-1,0,26,,train_dim1_1,6,30,,,,2,0,2,0,,,,,,,,,0,0,0,0,0,5,5,5,4,0,4,0,,,,,,,,,,,,,,,,,,,,,,,,,,,,,,,,,,,,,,,,,,,,,,,,,,,,,,,,,,,,,,,,30,,,,,,,,667.5427863999503,667.5427863999503,667.5427863999503,667.5427863999503,667.5427863999503,-2,-2,0.4,-0.16,return,1.3925665999995545,1,0,0,0,0.4,-0.16,return,1.3074675999814644,,,,,,,,,,,,,,,,,,,,,,,,,,,,,,,,,,,,,,,,,,,,,,,,,,,,,,,,5ZG5RV,train_x,red_square,top_right,2025-05-22_17h37.59.605,HideSeek_v1,2022.2.5,59.962463491255015,
,8,5,3,5,-5,0,66,,train_dim1_1,7,30,,,,2,0,2,0,,,,,,,,,0,0,0,0,0,6,6,6,0,0,0,0,,,,,,,,,,,,,,,,,,,,,,,,,stimuli/alien_stimuli/66.png,,,,,,,,,,,,,,,,,,,,,,,,,,,,,stimuli/alien_stimuli/26.png,26,5,8,,,,,,,30,,,,,,,,675.0367113999091,675.0367113999091,675.0367113999091,675.0367113999091,675.0367113999091,,,,,left,0.9901023999555036,1,0,0,99,0.39999999999999997,0,left,0.8989883998874575,673.4781205999898,675.0367113999091,0.16,0,0.0,0.08,0.0,0.16,0.2,0.16,0,670.5204126999015,670.5204126999015,670.5204126999015,670.5204126999015,670.5204126999015,670.5204126999015,670.5204126999015,670.5204126999015,670.5077934599482,3.0881657000863925,return,2.9337212999816984,,,,,,,,,,,,,,,,,,,,,,,,,,,,,,,,,5ZG5RV,train_x,red_square,top_right,2025-05-22_17h37.59.605,HideSeek_v1,2022.2.5,59.962463491255015,
,8,5,3,5,-5,0,66,,train_dim1_1,7,30,,,,2,0,2,0,,,,,,,,,0,0,0,0,0,6,6,6,1,0,1,0,,,,,,,,,,,,,,,,,,,,,,,,,,,,,,,,,,,,,,,,,,,,,,,,,,,,,,,,,,,,,,,,30,,,,,,,,676.0279573999578,676.0279573999578,676.0279573999578,676.0279573999578,676.0279573999578,,,,,left,0.7759816999314353,1,0,0,99,0.31999999999999995,0,left,0.6880983000155538,,,,,,,,,,,,,,,,,,,,,,,,,,,,,,,,,,,,,,,,,,,,,,,,,,,,,,,,5ZG5RV,train_x,red_square,top_right,2025-05-22_17h37.59.605,HideSeek_v1,2022.2.5,59.962463491255015,
,8,5,3,5,-5,0,66,,train_dim1_1,7,30,,,,2,0,2,0,,,,,,,,,0,0,0,0,0,6,6,6,2,0,2,0,,,,,,,,,,,,,,,,,,,,,,,,,,,,,,,,,,,,,,,,,,,,,,,,,,,,,,,,,,,,,,,,30,,,,,,,,676.8116446998902,676.8116446998902,676.8116446998902,676.8116446998902,676.8116446998902,,,,,left,0.5101483999751508,1,0,0,99,0.23999999999999994,0,left,0.4363872999092564,,,,,,,,,,,,,,,,,,,,,,,,,,,,,,,,,,,,,,,,,,,,,,,,,,,,,,,,5ZG5RV,train_x,red_square,top_right,2025-05-22_17h37.59.605,HideSeek_v1,2022.2.5,59.962463491255015,
,8,5,3,5,-5,0,66,,train_dim1_1,7,30,,,,2,0,2,0,,,,,,,,,0,0,0,0,0,6,6,6,3,0,3,0,,,,,,,,,,,,,,,,,,,,,,,,,,,,,,,,,,,,,,,,,,,,,,,,,,,,,,,,,,,,,,,,30,,,,,,,,677.3274755999446,677.3274755999446,677.3274755999446,677.3274755999446,677.3274755999446,,,,,left,0.4100771000375971,1,0,0,99,0.15999999999999992,0,left,0.3287124999333173,,,,,,,,,,,,,,,,,,,,,,,,,,,,,,,,,,,,,,,,,,,,,,,,,,,,,,,,5ZG5RV,train_x,red_square,top_right,2025-05-22_17h37.59.605,HideSeek_v1,2022.2.5,59.962463491255015,
,8,5,3,5,-5,0,66,,train_dim1_1,7,30,,,,2,0,2,0,,,,,,,,,0,0,0,0,0,6,6,6,4,0,4,0,,,,,,,,,,,,,,,,,,,,,,,,,,,,,,,,,,,,,,,,,,,,,,,,,,,,,,,,,,,,,,,,30,,,,,,,,677.7447089999914,677.7447089999914,677.7447089999914,677.7447089999914,677.7447089999914,,,,,left,0.6103409000206739,1,0,0,99,0.07999999999999992,0,left,0.5328435999108478,,,,,,,,,,,,,,,,,,,,,,,,,,,,,,,,,,,,,,,,,,,,,,,,,,,,,,,,5ZG5RV,train_x,red_square,top_right,2025-05-22_17h37.59.605,HideSeek_v1,2022.2.5,59.962463491255015,
,8,5,3,5,-5,0,66,,train_dim1_1,7,30,,,,2,0,2,0,,,,,,,,,0,0,0,0,0,6,6,6,5,0,5,0,,,,,,,,,,,,,,,,,,,,,,,,,,,,,,,,,,,,,,,,,,,,,,,,,,,,,,,,,,,,,,,,30,,,,,,,,678.3613592999754,678.3613592999754,678.3613592999754,678.3613592999754,678.3613592999754,-2,-7,0.07999999999999992,0,return,2.9624686000170186,2,0,0,1,0.07999999999999992,0,return,2.8753373000072315,,,,,,,,,,,,,,,,,,,,,,,,,,,,,,,,,,,,,,,,,,,,,,,,,,,,,,,,5ZG5RV,train_x,red_square,top_right,2025-05-22_17h37.59.605,HideSeek_v1,2022.2.5,59.962463491255015,
,5,9,2,9,-3,0,46,,train_dim1_1,8,30,,,,2,0,2,0,,,,,,,,,0,0,0,0,0,7,7,7,0,0,0,0,,,,,,,,,,,,,,,,,,,,,,,,,stimuli/alien_stimuli/46.png,,,,,,,,,,,,,,,,,,,,,,,,,,,,,stimuli/alien_stimuli/66.png,66,8,9,,,,,,,30,,,,,,,,686.6954686999088,686.6954686999088,686.6954686999088,686.6954686999088,686.6954686999088,,,,,down,1.889984600013122,2,0,0,99,0.24,0.24,down,1.7825537000317127,685.1210878998972,686.6954686999088,0.08,0,0.0,0.4,0.0,0.08,0.27999999999999997,0.08,0,682.9097552999156,682.9097552999156,682.9097552999156,682.9097552999156,682.9097552999156,682.9097552999156,682.9097552999156,682.9097552999156,682.90153495993,2.3375667999498546,return,2.187049400061369,,,,,,,,,,,,,,,,,,,,,,,,,,,,,,,,,5ZG5RV,train_x,red_square,top_right,2025-05-22_17h37.59.605,HideSeek_v1,2022.2.5,59.962463491255015,
,5,9,2,9,-3,0,46,,train_dim1_1,8,30,,,,2,0,2,0,,,,,,,,,0,0,0,0,0,7,7,7,1,0,1,0,,,,,,,,,,,,,,,,,,,,,,,,,,,,,,,,,,,,,,,,,,,,,,,,,,,,,,,,,,,,,,,,30,,,,,,,,688.5706411999417,688.5706411999417,688.5706411999417,688.5706411999417,688.5706411999417,,,,,down,0.6935615000547841,2,0,0,99,0.24,0.15999999999999998,down,0.6161106000654399,,,,,,,,,,,,,,,,,,,,,,,,,,,,,,,,,,,,,,,,,,,,,,,,,,,,,,,,5ZG5RV,train_x,red_square,top_right,2025-05-22_17h37.59.605,HideSeek_v1,2022.2.5,59.962463491255015,
,5,9,2,9,-3,0,46,,train_dim1_1,8,30,,,,2,0,2,0,,,,,,,,,0,0,0,0,0,7,7,7,2,0,2,0,,,,,,,,,,,,,,,,,,,,,,,,,,,,,,,,,,,,,,,,,,,,,,,,,,,,,,,,,,,,,,,,30,,,,,,,,689.2714671998983,689.2714671998983,689.2714671998983,689.2714671998983,689.2714671998983,,,,,down,1.8611814000178128,2,0,0,99,0.24,0.07999999999999997,down,1.7747614999534562,,,,,,,,,,,,,,,,,,,,,,,,,,,,,,,,,,,,,,,,,,,,,,,,,,,,,,,,5ZG5RV,train_x,red_square,top_right,2025-05-22_17h37.59.605,HideSeek_v1,2022.2.5,59.962463491255015,
,5,9,2,9,-3,0,46,,train_dim1_1,8,30,,,,2,0,2,0,,,,,,,,,0,0,0,0,0,7,7,7,3,0,3,0,,,,,,,,,,,,,,,,,,,,,,,,,,,,,,,,,,,,,,,,,,,,,,,,,,,,,,,,,,,,,,,,30,,,,,,,,691.1429811998969,691.1429811998969,691.1429811998969,691.1429811998969,691.1429811998969,-5,-7,0.24,0.07999999999999997,return,1.675172100076452,2,0,0,0,0.24,0.07999999999999997,return,1.5961354000028223,,,,,,,,,,,,,,,,,,,,,,,,,,,,,,,,,,,,,,,,,,,,,,,,,,,,,,,,5ZG5RV,train_x,red_square,top_right,2025-05-22_17h37.59.605,HideSeek_v1,2022.2.5,59.962463491255015,
,6,5,2,5,-4,0,56,,train_dim1_1,9,30,,,,2,0,2,0,,,,,,,,,0,0,0,0,0,8,8,8,0,0,0,0,,,,,,,,,,,,,,,,,,,,,,,,,stimuli/alien_stimuli/56.png,,,,,,,,,,,,,,,,,,,,,,,,,,,,,stimuli/alien_stimuli/46.png,46,5,10,,,,,,,30,,,,,,,,699.0290201999014,699.0290201999014,699.0290201999014,699.0290201999014,699.0290201999014,,,,,down,2.320451899897307,2,0,0,99,0.32,-0.08,down,2.233859100029804,697.4646653999807,699.0290201999014,0,0.32,0.0,0.24,0.32,0,0.12,0,0.32,694.4011197999353,694.4011197999353,694.4011197999353,694.4011197999353,694.4011197999353,694.4011197999353,694.4011197999353,694.4011197999353,694.377755639935,3.1884264999534935,return,3.042922099935822,,,,,,,,,,,,,,,,,,,,,,,,,,,,,,,,,5ZG5RV,train_x,red_square,top_right,2025-05-22_17h37.59.605,HideSeek_v1,2022.2.5,59.962463491255015,
,6,5,2,5,-4,0,56,,train_dim1_1,9,30,,,,2,0,2,0,,,,,,,,,0,0,0,0,0,8,8,8,1,0,1,0,,,,,,,,,,,,,,,,,,,,,,,,,,,,,,,,,,,,,,,,,,,,,,,,,,,,,,,,,,,,,,,,30,,,,,,,,701.3523840999696,701.3523840999696,701.3523840999696,701.3523840999696,701.3523840999696,,,,,down,0.7083564000204206,2,0,0,99,0.32,-0.16,down,0.6322236999403685,,,,,,,,,,,,,,,,,,,,,,,,,,,,,,,,,,,,,,,,,,,,,,,,,,,,,,,,5ZG5RV,train_x,red_square,top_right,2025-05-22_17h37.59.605,HideSeek_v1,2022.2.5,59.962463491255015,
,6,5,2,5,-4,0,56,,train_dim1_1,9,30,,,,2,0,2,0,,,,,,,,,0,0,0,0,0,8,8,8,2,0,2,0,,,,,,,,,,,,,,,,,,,,,,,,,,,,,,,,,,,,,,,,,,,,,,,,,,,,,,,,,,,,,,,,30,,,,,,,,702.0664468999021,702.0664468999021,702.0664468999021,702.0664468999021,702.0664468999021,,,,,down,0.626736499951221,2,0,0,99,0.32,-0.24,down,0.5389182000653818,,,,,,,,,,,,,,,,,,,,,,,,,,,,,,,,,,,,,,,,,,,,,,,,,,,,,,,,5ZG5RV,train_x,red_square,top_right,2025-05-22_17h37.59.605,HideSeek_v1,2022.2.5,59.962463491255015,
,6,5,2,5,-4,0,56,,train_dim1_1,9,30,,,,2,0,2,0,,,,,,,,,0,0,0,0,0,8,8,8,3,0,3,0,,,,,,,,,,,,,,,,,,,,,,,,,,,,,,,,,,,,,,,,,,,,,,,,,,,,,,,,,,,,,,,,30,,,,,,,,702.710051199887,702.710051199887,702.710051199887,702.710051199887,702.710051199887,,,,,down,1.0270465000066906,2,0,0,99,0.32,-0.32,down,0.9397124999668449,,,,,,,,,,,,,,,,,,,,,,,,,,,,,,,,,,,,,,,,,,,,,,,,,,,,,,,,5ZG5RV,train_x,red_square,top_right,2025-05-22_17h37.59.605,HideSeek_v1,2022.2.5,59.962463491255015,
,6,5,2,5,-4,0,56,,train_dim1_1,9,30,,,,2,0,2,0,,,,,,,,,0,0,0,0,0,8,8,8,4,0,4,0,,,,,,,,,,,,,,,,,,,,,,,,,,,,,,,,,,,,,,,,,,,,,,,,,,,,,,,,,,,,,,,,30,,,,,,,,703.735752999899,703.735752999899,703.735752999899,703.735752999899,703.735752999899,-9,-7,0.32,-0.32,return,0.8100004000589252,2,0,0,0,0.32,-0.32,return,0.7236184999346733,,,,,,,,,,,,,,,,,,,,,,,,,,,,,,,,,,,,,,,,,,,,,,,,,,,,,,,,5ZG5RV,train_x,red_square,top_right,2025-05-22_17h37.59.605,HideSeek_v1,2022.2.5,59.962463491255015,
,5,8,5,8,0,0,16,,train_dim1_1,10,30,,,,2,0,2,0,,,,,,,,,0,0,0,0,0,9,9,9,0,0,0,0,,,,,,,,,,,,,,,,,,,,,,,,,stimuli/alien_stimuli/16.png,,,,,,,,,,,,,,,,,,,,,,,,,,,,,stimuli/alien_stimuli/56.png,56,6,11,,,,,,,30,,,,,,,,709.8895307999337,709.8895307999337,709.8895307999337,709.8895307999337,709.8895307999337,,,,,down,1.3402594999643043,2,0,0,99,0.24,0.15999999999999998,down,1.2249793000519276,708.3071391999256,709.8895307999337,0,0,0.0,0.32,0.0,0,0.16,0,0,706.11514359992,706.11514359992,706.11514359992,706.11514359992,706.11514359992,706.11514359992,706.11514359992,706.11514359992,706.1042694399134,2.3041348000988364,return,2.1732424000510946,,,,,,,,,,,,,,,,,,,,,,,,,,,,,,,,,5ZG5RV,train_x,red_square,top_right,2025-05-22_17h37.59.605,HideSeek_v1,2022.2.5,59.962463491255015,
,5,8,5,8,0,0,16,,train_dim1_1,10,30,,,,2,0,2,0,,,,,,,,,0,0,0,0,0,9,9,9,1,0,1,0,,,,,,,,,,,,,,,,,,,,,,,,,,,,,,,,,,,,,,,,,,,,,,,,,,,,,,,,,,,,,,,,30,,,,,,,,711.2109814999858,711.2109814999858,711.2109814999858,711.2109814999858,711.2109814999858,,,,,down,0.7597137000411749,2,0,0,99,0.24,0.07999999999999997,down,0.6675069000339136,,,,,,,,,,,,,,,,,,,,,,,,,,,,,,,,,,,,,,,,,,,,,,,,,,,,,,,,5ZG5RV,train_x,red_square,top_right,2025-05-22_17h37.59.605,HideSeek_v1,2022.2.5,59.962463491255015,
,5,8,5,8,0,0,16,,train_dim1_1,10,30,,,,2,0,2,0,,,,,,,,,0,0,0,0,0,9,9,9,2,0,2,0,,,,,,,,,,,,,,,,,,,,,,,,,,,,,,,,,,,,,,,,,,,,,,,,,,,,,,,,,,,,,,,,30,,,,,,,,711.9775589999044,711.9775589999044,711.9775589999044,711.9775589999044,711.9775589999044,-11,-7,0.24,0.07999999999999997,return,3.41253199998755,2,0,0,0,0.24,0.07999999999999997,return,3.3200474000768736,,,,,,,,,,,,,,,,,,,,,,,,,,,,,,,,,,,,,,,,,,,,,,,,,,,,,,,,5ZG5RV,train_x,red_square,top_right,2025-05-22_17h37.59.605,HideSeek_v1,2022.2.5,59.962463491255015,
,7,7,4,7,-3,0,46,,train_dim1_1,11,30,,,,2,0,2,0,,,,,,,,,0,0,0,0,0,10,10,10,0,0,0,0,,,,,,,,,,,,,,,,,,,,,,,,,stimuli/alien_stimuli/46.png,,,,,,,,,,,,,,,,,,,,,,,,,,,,,stimuli/alien_stimuli/16.png,16,5,12,,,,,,,30,,,,,,,,723.3278326999862,723.3278326999862,723.3278326999862,723.3278326999862,723.3278326999862,,,,,down,2.0053248999174684,2,0,0,99,0.4,0.08,down,1.917858500033617,721.7682119999081,723.3278326999862,0.24,0.24,0.0,0.0,0.24,0.24,0.24,0.24,0.24,716.9784645999316,716.9784645999316,716.9784645999316,716.9784645999316,716.9784645999316,716.9784645999316,716.9784645999316,716.9784645999316,716.962966459943,4.923124799970537,return,4.771575600025244,,,,,,,,,,,,,,,,,,,,,,,,,,,,,,,,,5ZG5RV,train_x,red_square,top_right,2025-05-22_17h37.59.605,HideSeek_v1,2022.2.5,59.962463491255015,
,7,7,4,7,-3,0,46,,train_dim1_1,11,30,,,,2,0,2,0,,,,,,,,,0,0,0,0,0,10,10,10,1,0,1,0,,,,,,,,,,,,,,,,,,,,,,,,,,,,,,,,,,,,,,,,,,,,,,,,,,,,,,,,,,,,,,,,30,,,,,,,,725.3346853998955,725.3346853998955,725.3346853998955,725.3346853998955,725.3346853998955,,,,,down,0.8102489999728277,2,0,0,99,0.4,0.0,down,0.727346200030297,,,,,,,,,,,,,,,,,,,,,,,,,,,,,,,,,,,,,,,,,,,,,,,,,,,,,,,,5ZG5RV,train_x,red_square,top_right,2025-05-22_17h37.59.605,HideSeek_v1,2022.2.5,59.962463491255015,
,7,7,4,7,-3,0,46,,train_dim1_1,11,30,,,,2,0,2,0,,,,,,,,,0,0,0,0,0,10,10,10,2,0,2,0,,,,,,,,,,,,,,,,,,,,,,,,,,,,,,,,,,,,,,,,,,,,,,,,,,,,,,,,,,,,,,,,30,,,,,,,,726.151596599957,726.151596599957,726.151596599957,726.151596599957,726.151596599957,-13,-7,0.4,0.0,return,0.69318119995296,2,0,0,0,0.4,0.0,return,0.6201696000061929,,,,,,,,,,,,,,,,,,,,,,,,,,,,,,,,,,,,,,,,,,,,,,,,,,,,,,,,5ZG5RV,train_x,red_square,top_right,2025-05-22_17h37.59.605,HideSeek_v1,2022.2.5,59.962463491255015,
,5,5,4,5,-1,0,26,,train_dim1_1,12,30,,,,2,0,2,0,,,,,,,,,0,0,0,0,0,11,11,11,0,0,0,0,,,,,,,,,,,,,,,,,,,,,,,,,stimuli/alien_stimuli/26.png,,,,,,,,,,,,,,,,,,,,,,,,,,,,,stimuli/alien_stimuli/46.png,46,7,13,,,,,,,30,,,,,,,,732.5238844999112,732.5238844999112,732.5238844999112,732.5238844999112,732.5238844999112,-13,-7,0.24,0,return,3.5234020999632776,2,1,0,0,0.24,0,return,3.419477600022219,730.9424294999335,732.5238844999112,0.16,0.16,0.0,0.24,0.16,0.16,0.28,0.16,0.16,728.412768799928,728.412768799928,728.412768799928,728.412768799928,728.412768799928,728.412768799928,728.412768799928,728.412768799928,728.4058735399508,2.6381226000376046,return,2.5073072999948636,,,,,,,,,,,,,,,,,,,,,,,,,,,,,,,,,5ZG5RV,train_x,red_square,top_right,2025-05-22_17h37.59.605,HideSeek_v1,2022.2.5,59.962463491255015,
,5,9,1,9,-4,0,56,,train_dim1_1,13,30,,,,2,0,2,0,,,,,,,,,0,0,0,0,0,12,12,12,0,0,0,0,,,,,,,,,,,,,,,,,,,,,,,,,stimuli/alien_stimuli/56.png,,,,,,,,,,,,,,,,,,,,,,,,,,,,,stimuli/alien_stimuli/26.png,26,5,14,,,,,,,30,,,,,,,,741.5395247999113,741.5395247999113,741.5395247999113,741.5395247999113,741.5395247999113,,,,,down,0.8947129000443965,2,1,0,99,0.24,0.24,down,0.7863402999937534,739.949908599956,741.5395247999113,0.16,0,0.0,0.08,0.0,0.16,0.2,0.16,0,737.590121199959,737.590121199959,737.590121199959,737.590121199959,737.590121199959,737.590121199959,737.590121199959,737.590121199959,737.5802261399572,2.470931199961342,return,2.3425690999720246,,,,,,,,,,,,,,,,,,,,,,,,,,,,,,,,,5ZG5RV,train_x,red_square,top_right,2025-05-22_17h37.59.605,HideSeek_v1,2022.2.5,59.962463491255015,
,5,9,1,9,-4,0,56,,train_dim1_1,13,30,,,,2,0,2,0,,,,,,,,,0,0,0,0,0,12,12,12,1,0,1,0,,,,,,,,,,,,,,,,,,,,,,,,,,,,,,,,,,,,,,,,,,,,,,,,,,,,,,,,,,,,,,,,30,,,,,,,,742.4198746999027,742.4198746999027,742.4198746999027,742.4198746999027,742.4198746999027,,,,,down,0.7923238000366837,2,1,0,99,0.24,0.15999999999999998,down,0.7040262999944389,,,,,,,,,,,,,,,,,,,,,,,,,,,,,,,,,,,,,,,,,,,,,,,,,,,,,,,,5ZG5RV,train_x,red_square,top_right,2025-05-22_17h37.59.605,HideSeek_v1,2022.2.5,59.962463491255015,
,5,9,1,9,-4,0,56,,train_dim1_1,13,30,,,,2,0,2,0,,,,,,,,,0,0,0,0,0,12,12,12,2,0,2,0,,,,,,,,,,,,,,,,,,,,,,,,,,,,,,,,,,,,,,,,,,,,,,,,,,,,,,,,,,,,,,,,30,,,,,,,,743.2179986999836,743.2179986999836,743.2179986999836,743.2179986999836,743.2179986999836,,,,,down,0.5434039001120254,2,1,0,99,0.24,0.07999999999999997,down,0.45759250002447516,,,,,,,,,,,,,,,,,,,,,,,,,,,,,,,,,,,,,,,,,,,,,,,,,,,,,,,,5ZG5RV,train_x,red_square,top_right,2025-05-22_17h37.59.605,HideSeek_v1,2022.2.5,59.962463491255015,
,5,9,1,9,-4,0,56,,train_dim1_1,13,30,,,,2,0,2,0,,,,,,,,,0,0,0,0,0,12,12,12,3,0,3,0,,,,,,,,,,,,,,,,,,,,,,,,,,,,,,,,,,,,,,,,,,,,,,,,,,,,,,,,,,,,,,,,30,,,,,,,,743.7683756999904,743.7683756999904,743.7683756999904,743.7683756999904,743.7683756999904,,,,,down,1.4610574999824166,2,1,0,99,0.24,-2.7755575615628914e-17,down,1.3857381999259815,,,,,,,,,,,,,,,,,,,,,,,,,,,,,,,,,,,,,,,,,,,,,,,,,,,,,,,,5ZG5RV,train_x,red_square,top_right,2025-05-22_17h37.59.605,HideSeek_v1,2022.2.5,59.962463491255015,
,5,9,1,9,-4,0,56,,train_dim1_1,13,30,,,,2,0,2,0,,,,,,,,,0,0,0,0,0,12,12,12,4,0,4,0,,,,,,,,,,,,,,,,,,,,,,,,,,,,,,,,,,,,,,,,,,,,,,,,,,,,,,,,,,,,,,,,30,,,,,,,,745.2361381999217,745.2361381999217,745.2361381999217,745.2361381999217,745.2361381999217,-17,-7,0.24,-2.7755575615628914e-17,return,0.8607698000269011,2,0,0,0,0.24,-2.7755575615628914e-17,return,0.7705503000179306,,,,,,,,,,,,,,,,,,,,,,,,,,,,,,,,,,,,,,,,,,,,,,,,,,,,,,,,5ZG5RV,train_x,red_square,top_right,2025-05-22_17h37.59.605,HideSeek_v1,2022.2.5,59.962463491255015,
,9,8,9,8,0,0,16,,train_dim1_1,14,30,,,,2,0,2,0,,,,,,,,,0,0,0,0,0,13,13,13,0,0,0,0,,,,,,,,,,,,,,,,,,,,,,,,,stimuli/alien_stimuli/16.png,,,,,,,,,,,,,,,,,,,,,,,,,,,,,stimuli/alien_stimuli/56.png,56,5,15,,,,,,,30,,,,,,,,751.3093785999808,751.3093785999808,751.3093785999808,751.3093785999808,751.3093785999808,-17,-7,0.56,0.24,return,2.0373193999985233,3,0,0,1,0.56,0.24,return,1.9297514000209048,749.7244935999624,751.3093785999808,-0.08,0.32,0.0,0.32,0.32,-0.08,0.07999999999999999,-0.08,0.32,747.6639419998974,747.6639419998974,747.6639419998974,747.6639419998974,747.6639419998974,747.6639419998974,747.6639419998974,747.6639419998974,747.655313139991,2.1706491999793798,return,2.0304981999797747,,,,,,,,,,,,,,,,,,,,,,,,,,,,,,,,,5ZG5RV,train_x,red_square,top_right,2025-05-22_17h37.59.605,HideSeek_v1,2022.2.5,59.962463491255015,
,9,7,4,7,-5,0,66,,train_dim1_1,15,30,,,,2,0,2,0,,,,,,,,,0,0,0,0,0,14,14,14,0,0,0,0,,,,,,,,,,,,,,,,,,,,,,,,,stimuli/alien_stimuli/66.png,,,,,,,,,,,,,,,,,,,,,,,,,,,,,stimuli/alien_stimuli/16.png,16,9,16,,,,,,,30,,,,,,,,759.0610036998987,759.0610036998987,759.0610036998987,759.0610036998987,759.0610036998987,,,,,left,3.089098699972965,3,0,0,99,0.48000000000000004,0.16,left,2.992330399923958,757.4974367999239,759.0610036998987,0.56,0.24,0.0,0.0,0.24,0.56,0.56,0.56,0.24,754.8869855999947,754.8869855999947,754.8869855999947,754.8869855999947,754.8869855999947,754.8869855999947,754.8869855999947,754.8869855999947,754.878184239939,2.72060389991384,return,2.5840564999962226,,,,,,,,,,,,,,,,,,,,,,,,,,,,,,,,,5ZG5RV,train_x,red_square,top_right,2025-05-22_17h37.59.605,HideSeek_v1,2022.2.5,59.962463491255015,
,9,7,4,7,-5,0,66,,train_dim1_1,15,30,,,,2,0,2,0,,,,,,,,,0,0,0,0,0,14,14,14,1,0,1,0,,,,,,,,,,,,,,,,,,,,,,,,,,,,,,,,,,,,,,,,,,,,,,,,,,,,,,,,,,,,,,,,30,,,,,,,,762.150280199945,762.150280199945,762.150280199945,762.150280199945,762.150280199945,,,,,left,0.42529460007790476,3,0,0,99,0.4,0.16,left,0.3465328000020236,,,,,,,,,,,,,,,,,,,,,,,,,,,,,,,,,,,,,,,,,,,,,,,,,,,,,,,,5ZG5RV,train_x,red_square,top_right,2025-05-22_17h37.59.605,HideSeek_v1,2022.2.5,59.962463491255015,
,9,7,4,7,-5,0,66,,train_dim1_1,15,30,,,,2,0,2,0,,,,,,,,,0,0,0,0,0,14,14,14,2,0,2,0,,,,,,,,,,,,,,,,,,,,,,,,,,,,,,,,,,,,,,,,,,,,,,,,,,,,,,,,,,,,,,,,30,,,,,,,,762.5859079998918,762.5859079998918,762.5859079998918,762.5859079998918,762.5859079998918,,,,,left,0.3603101000189781,3,0,0,99,0.32,0.16,left,0.27044540003407747,,,,,,,,,,,,,,,,,,,,,,,,,,,,,,,,,,,,,,,,,,,,,,,,,,,,,,,,5ZG5RV,train_x,red_square,top_right,2025-05-22_17h37.59.605,HideSeek_v1,2022.2.5,59.962463491255015,
,9,7,4,7,-5,0,66,,train_dim1_1,15,30,,,,2,0,2,0,,,,,,,,,0,0,0,0,0,14,14,14,3,0,3,0,,,,,,,,,,,,,,,,,,,,,,,,,,,,,,,,,,,,,,,,,,,,,,,,,,,,,,,,,,,,,,,,30,,,,,,,,762.9497990999371,762.9497990999371,762.9497990999371,762.9497990999371,762.9497990999371,,,,,left,0.3597492000553757,3,0,0,99,0.24,0.16,left,0.27673000004142523,,,,,,,,,,,,,,,,,,,,,,,,,,,,,,,,,,,,,,,,,,,,,,,,,,,,,,,,5ZG5RV,train_x,red_square,top_right,2025-05-22_17h37.59.605,HideSeek_v1,2022.2.5,59.962463491255015,
,9,7,4,7,-5,0,66,,train_dim1_1,15,30,,,,2,0,2,0,,,,,,,,,0,0,0,0,0,14,14,14,4,0,4,0,,,,,,,,,,,,,,,,,,,,,,,,,,,,,,,,,,,,,,,,,,,,,,,,,,,,,,,,,,,,,,,,30,,,,,,,,763.328228599974,763.328228599974,763.328228599974,763.328228599974,763.328228599974,,,,,left,0.342459199950099,3,0,0,99,0.15999999999999998,0.16,left,0.25414959993213415,,,,,,,,,,,,,,,,,,,,,,,,,,,,,,,,,,,,,,,,,,,,,,,,,,,,,,,,5ZG5RV,train_x,red_square,top_right,2025-05-22_17h37.59.605,HideSeek_v1,2022.2.5,59.962463491255015,
,9,7,4,7,-5,0,66,,train_dim1_1,15,30,,,,2,0,2,0,,,,,,,,,0,0,0,0,0,14,14,14,5,0,5,0,,,,,,,,,,,,,,,,,,,,,,,,,,,,,,,,,,,,,,,,,,,,,,,,,,,,,,,,,,,,,,,,30,,,,,,,,763.6662430999568,763.6662430999568,763.6662430999568,763.6662430999568,763.6662430999568,-17,-12,0.15999999999999998,0.16,return,0.7935719999950379,4,0,0,1,0.15999999999999998,0.16,return,0.7052521000150591,,,,,,,,,,,,,,,,,,,,,,,,,,,,,,,,,,,,,,,,,,,,,,,,,,,,,,,,5ZG5RV,train_x,red_square,top_right,2025-05-22_17h37.59.605,HideSeek_v1,2022.2.5,59.962463491255015,
,8,8,4,8,-4,0,56,,train_dim1_1,16,30,,,,2,0,2,0,,,,,,,,,0,0,0,0,0,15,15,15,0,0,0,0,,,,,,,,,,,,,,,,,,,,,,,,,stimuli/alien_stimuli/56.png,,,,,,,,,,,,,,,,,,,,,,,,,,,,,stimuli/alien_stimuli/66.png,66,9,17,,,,,,,30,,,,,,,,769.4167331999633,769.4167331999633,769.4167331999633,769.4167331999633,769.4167331999633,,,,,down,1.7387950000120327,4,0,0,99,0.48,0.15999999999999998,down,1.6376275999937207,767.8399515999481,769.4167331999633,0.16,0.16,0.0,0.4,0.16,0.16,0.36000000000000004,0.16,0.16,766.041862999904,766.041862999904,766.041862999904,766.041862999904,766.041862999904,766.041862999904,766.041862999904,766.041862999904,766.0206494399813,1.9200943000614643,return,1.7664624000899494,,,,,,,,,,,,,,,,,,,,,,,,,,,,,,,,,5ZG5RV,train_x,red_square,top_right,2025-05-22_17h37.59.605,HideSeek_v1,2022.2.5,59.962463491255015,
,8,8,4,8,-4,0,56,,train_dim1_1,16,30,,,,2,0,2,0,,,,,,,,,0,0,0,0,0,15,15,15,1,0,1,0,,,,,,,,,,,,,,,,,,,,,,,,,,,,,,,,,,,,,,,,,,,,,,,,,,,,,,,,,,,,,,,,30,,,,,,,,771.1438166999724,771.1438166999724,771.1438166999724,771.1438166999724,771.1438166999724,,,,,down,0.7249934999272227,4,0,0,99,0.48,0.07999999999999997,down,0.6350756000028923,,,,,,,,,,,,,,,,,,,,,,,,,,,,,,,,,,,,,,,,,,,,,,,,,,,,,,,,5ZG5RV,train_x,red_square,top_right,2025-05-22_17h37.59.605,HideSeek_v1,2022.2.5,59.962463491255015,
,8,8,4,8,-4,0,56,,train_dim1_1,16,30,,,,2,0,2,0,,,,,,,,,0,0,0,0,0,15,15,15,2,0,2,0,,,,,,,,,,,,,,,,,,,,,,,,,,,,,,,,,,,,,,,,,,,,,,,,,,,,,,,,,,,,,,,,30,,,,,,,,771.8745311999228,771.8745311999228,771.8745311999228,771.8745311999228,771.8745311999228,,,,,down,0.3935182999121025,4,0,0,99,0.48,-2.7755575615628914e-17,down,0.3084837000351399,,,,,,,,,,,,,,,,,,,,,,,,,,,,,,,,,,,,,,,,,,,,,,,,,,,,,,,,5ZG5RV,train_x,red_square,top_right,2025-05-22_17h37.59.605,HideSeek_v1,2022.2.5,59.962463491255015,
,8,8,4,8,-4,0,56,,train_dim1_1,16,30,,,,2,0,2,0,,,,,,,,,0,0,0,0,0,15,15,15,3,0,3,0,,,,,,,,,,,,,,,,,,,,,,,,,,,,,,,,,,,,,,,,,,,,,,,,,,,,,,,,,,,,,,,,30,,,,,,,,772.275350599899,772.275350599899,772.275350599899,772.275350599899,772.275350599899,,,,,down,0.46011169999837875,4,0,0,99,0.48,-0.08000000000000003,down,0.37121389992535114,,,,,,,,,,,,,,,,,,,,,,,,,,,,,,,,,,,,,,,,,,,,,,,,,,,,,,,,5ZG5RV,train_x,red_square,top_right,2025-05-22_17h37.59.605,HideSeek_v1,2022.2.5,59.962463491255015,
,8,8,4,8,-4,0,56,,train_dim1_1,16,30,,,,2,0,2,0,,,,,,,,,0,0,0,0,0,15,15,15,4,0,4,0,,,,,,,,,,,,,,,,,,,,,,,,,,,,,,,,,,,,,,,,,,,,,,,,,,,,,,,,,,,,,,,,30,,,,,,,,772.7433984999079,772.7433984999079,772.7433984999079,772.7433984999079,772.7433984999079,-21,-12,0.48,-0.08000000000000003,return,0.8095504000084475,4,0,0,0,0.48,-0.08000000000000003,return,0.7227878000121564,,,,,,,,,,,,,,,,,,,,,,,,,,,,,,,,,,,,,,,,,,,,,,,,,,,,,,,,5ZG5RV,train_x,red_square,top_right,2025-05-22_17h37.59.605,HideSeek_v1,2022.2.5,59.962463491255015,
,7,9,6,9,-1,0,26,,train_dim1_1,17,30,,,,2,0,2,0,,,,,,,,,0,0,0,0,0,16,16,16,0,0,0,0,,,,,,,,,,,,,,,,,,,,,,,,,stimuli/alien_stimuli/26.png,,,,,,,,,,,,,,,,,,,,,,,,,,,,,stimuli/alien_stimuli/56.png,56,8,18,,,,,,,30,,,,,,,,779.0467488999711,779.0467488999711,779.0467488999711,779.0467488999711,779.0467488999711,-21,-12,0.4,0.32,return,1.505417799926363,4,1,0,0,0.4,0.32,return,1.4030716000124812,777.4643676999258,779.0467488999711,0.16,0.24,0.0,0.32,0.24,0.16,0.32,0.16,0.24,775.1226797999116,775.1226797999116,775.1226797999116,775.1226797999116,775.1226797999116,775.1226797999116,775.1226797999116,775.1226797999116,775.1115549399751,2.45423849998042,return,2.3230100000509992,,,,,,,,,,,,,,,,,,,,,,,,,,,,,,,,,5ZG5RV,train_x,red_square,top_right,2025-05-22_17h37.59.605,HideSeek_v1,2022.2.5,59.962463491255015,
,7,6,2,6,-5,0,66,,train_dim1_1,18,30,,,,2,0,2,0,,,,,,,,,0,0,0,0,0,17,17,17,0,0,0,0,,,,,,,,,,,,,,,,,,,,,,,,,stimuli/alien_stimuli/66.png,,,,,,,,,,,,,,,,,,,,,,,,,,,,,stimuli/alien_stimuli/26.png,26,7,19,,,,,,,30,,,,,,,,785.0147147999378,785.0147147999378,785.0147147999378,785.0147147999378,785.0147147999378,,,,,down,3.0722077999962494,4,1,0,99,0.4,0.0,down,2.9916127999313176,783.4524991998915,785.0147147999378,0.32,0.32,0.0,0.08,0.32,0.32,0.36,0.32,0.32,782.0946604999481,782.0946604999481,782.0946604999481,782.0946604999481,782.0946604999481,782.0946604999481,782.0946604999481,782.0946604999481,782.0836551399902,1.4705635999562219,return,1.3379339999519289,,,,,,,,,,,,,,,,,,,,,,,,,,,,,,,,,5ZG5RV,train_x,red_square,top_right,2025-05-22_17h37.59.605,HideSeek_v1,2022.2.5,59.962463491255015,
,7,6,2,6,-5,0,66,,train_dim1_1,18,30,,,,2,0,2,0,,,,,,,,,0,0,0,0,0,17,17,17,1,0,1,0,,,,,,,,,,,,,,,,,,,,,,,,,,,,,,,,,,,,,,,,,,,,,,,,,,,,,,,,,,,,,,,,30,,,,,,,,788.088061699993,788.088061699993,788.088061699993,788.088061699993,788.088061699993,,,,,down,0.45946120005100965,4,1,0,99,0.4,-0.08,down,0.37568189995363355,,,,,,,,,,,,,,,,,,,,,,,,,,,,,,,,,,,,,,,,,,,,,,,,,,,,,,,,5ZG5RV,train_x,red_square,top_right,2025-05-22_17h37.59.605,HideSeek_v1,2022.2.5,59.962463491255015,
,7,6,2,6,-5,0,66,,train_dim1_1,18,30,,,,2,0,2,0,,,,,,,,,0,0,0,0,0,17,17,17,2,0,2,0,,,,,,,,,,,,,,,,,,,,,,,,,,,,,,,,,,,,,,,,,,,,,,,,,,,,,,,,,,,,,,,,30,,,,,,,,788.5530852999073,788.5530852999073,788.5530852999073,788.5530852999073,788.5530852999073,,,,,down,0.4100390000967309,4,1,0,99,0.4,-0.16,down,0.323781399987638,,,,,,,,,,,,,,,,,,,,,,,,,,,,,,,,,,,,,,,,,,,,,,,,,,,,,,,,5ZG5RV,train_x,red_square,top_right,2025-05-22_17h37.59.605,HideSeek_v1,2022.2.5,59.962463491255015,
,7,6,2,6,-5,0,66,,train_dim1_1,18,30,,,,2,0,2,0,,,,,,,,,0,0,0,0,0,17,17,17,3,0,3,0,,,,,,,,,,,,,,,,,,,,,,,,,,,,,,,,,,,,,,,,,,,,,,,,,,,,,,,,,,,,,,,,30,,,,,,,,788.9706259999657,788.9706259999657,788.9706259999657,788.9706259999657,788.9706259999657,,,,,down,0.37673930008895695,4,1,0,99,0.4,-0.24,down,0.2965607000514865,,,,,,,,,,,,,,,,,,,,,,,,,,,,,,,,,,,,,,,,,,,,,,,,,,,,,,,,5ZG5RV,train_x,red_square,top_right,2025-05-22_17h37.59.605,HideSeek_v1,2022.2.5,59.962463491255015,
,7,6,2,6,-5,0,66,,train_dim1_1,18,30,,,,2,0,2,0,,,,,,,,,0,0,0,0,0,17,17,17,4,0,4,0,,,,,,,,,,,,,,,,,,,,,,,,,,,,,,,,,,,,,,,,,,,,,,,,,,,,,,,,,,,,,,,,30,,,,,,,,789.3546513998881,789.3546513998881,789.3546513998881,789.3546513998881,789.3546513998881,,,,,down,0.4098904998973012,4,1,0,99,0.4,-0.32,down,0.3281711000017822,,,,,,,,,,,,,,,,,,,,,,,,,,,,,,,,,,,,,,,,,,,,,,,,,,,,,,,,5ZG5RV,train_x,red_square,top_right,2025-05-22_17h37.59.605,HideSeek_v1,2022.2.5,59.962463491255015,
,7,6,2,6,-5,0,66,,train_dim1_1,18,30,,,,2,0,2,0,,,,,,,,,0,0,0,0,0,17,17,17,5,0,5,0,,,,,,,,,,,,,,,,,,,,,,,,,,,,,,,,,,,,,,,,,,,,,,,,,,,,,,,,,,,,,,,,30,,,,,,,,789.7711507999338,789.7711507999338,789.7711507999338,789.7711507999338,789.7711507999338,-26,-12,0.4,-0.32,return,0.5600770000601187,4,0,0,0,0.4,-0.32,return,0.48061630001757294,,,,,,,,,,,,,,,,,,,,,,,,,,,,,,,,,,,,,,,,,,,,,,,,,,,,,,,,5ZG5RV,train_x,red_square,top_right,2025-05-22_17h37.59.605,HideSeek_v1,2022.2.5,59.962463491255015,
,5,8,2,8,-3,0,46,,train_dim1_1,19,30,,,,2,0,2,0,,,,,,,,,0,0,0,0,0,18,18,18,0,0,0,0,,,,,,,,,,,,,,,,,,,,,,,,,stimuli/alien_stimuli/46.png,,,,,,,,,,,,,,,,,,,,,,,,,,,,,stimuli/alien_stimuli/66.png,66,7,20,,,,,,,30,,,,,,,,795.4873163999291,795.4873163999291,795.4873163999291,795.4873163999291,795.4873163999291,,,,,down,1.422889499925077,4,0,0,99,0.24,0.15999999999999998,down,1.3267246999312192,793.9114174999995,795.4873163999291,0,0.08,0.0,0.4,0.08,0,0.2,0,0.08,791.8973036999814,791.8973036999814,791.8973036999814,791.8973036999814,791.8973036999814,791.8973036999814,791.8973036999814,791.8973036999814,791.875538719981,2.1207112000556663,return,1.990591699955985,,,,,,,,,,,,,,,,,,,,,,,,,,,,,,,,,5ZG5RV,train_x,red_square,top_right,2025-05-22_17h37.59.605,HideSeek_v1,2022.2.5,59.962463491255015,
,5,8,2,8,-3,0,46,,train_dim1_1,19,30,,,,2,0,2,0,,,,,,,,,0,0,0,0,0,18,18,18,1,0,1,0,,,,,,,,,,,,,,,,,,,,,,,,,,,,,,,,,,,,,,,,,,,,,,,,,,,,,,,,,,,,,,,,30,,,,,,,,796.8945699998876,796.8945699998876,796.8945699998876,796.8945699998876,796.8945699998876,,,,,down,0.8261442000512034,4,0,0,99,0.24,0.07999999999999997,down,0.7417777000227943,,,,,,,,,,,,,,,,,,,,,,,,,,,,,,,,,,,,,,,,,,,,,,,,,,,,,,,,5ZG5RV,train_x,red_square,top_right,2025-05-22_17h37.59.605,HideSeek_v1,2022.2.5,59.962463491255015,
,5,8,2,8,-3,0,46,,train_dim1_1,19,30,,,,2,0,2,0,,,,,,,,,0,0,0,0,0,18,18,18,2,0,2,0,,,,,,,,,,,,,,,,,,,,,,,,,,,,,,,,,,,,,,,,,,,,,,,,,,,,,,,,,,,,,,,,30,,,,,,,,797.7308886999963,797.7308886999963,797.7308886999963,797.7308886999963,797.7308886999963,,,,,down,0.34308339993003756,4,0,0,99,0.24,-2.7755575615628914e-17,down,0.25840309995692223,,,,,,,,,,,,,,,,,,,,,,,,,,,,,,,,,,,,,,,,,,,,,,,,,,,,,,,,5ZG5RV,train_x,red_square,top_right,2025-05-22_17h37.59.605,HideSeek_v1,2022.2.5,59.962463491255015,
,5,8,2,8,-3,0,46,,train_dim1_1,19,30,,,,2,0,2,0,,,,,,,,,0,0,0,0,0,18,18,18,3,0,3,0,,,,,,,,,,,,,,,,,,,,,,,,,,,,,,,,,,,,,,,,,,,,,,,,,,,,,,,,,,,,,,,,30,,,,,,,,798.0784501999151,798.0784501999151,798.0784501999151,798.0784501999151,798.0784501999151,,,,,up,1.928278199979104,4,0,0,99,0.24,0.07999999999999997,up,1.8536775999236852,,,,,,,,,,,,,,,,,,,,,,,,,,,,,,,,,,,,,,,,,,,,,,,,,,,,,,,,5ZG5RV,train_x,red_square,top_right,2025-05-22_17h37.59.605,HideSeek_v1,2022.2.5,59.962463491255015,
,5,8,2,8,-3,0,46,,train_dim1_1,19,30,,,,2,0,2,0,,,,,,,,,0,0,0,0,0,18,18,18,4,0,4,0,,,,,,,,,,,,,,,,,,,,,,,,,,,,,,,,,,,,,,,,,,,,,,,,,,,,,,,,,,,,,,,,30,,,,,,,,800.0141271998873,800.0141271998873,800.0141271998873,800.0141271998873,800.0141271998873,,,,,up,0.45950370002537966,4,0,0,99,0.24,0.15999999999999998,up,0.3794260999420658,,,,,,,,,,,,,,,,,,,,,,,,,,,,,,,,,,,,,,,,,,,,,,,,,,,,,,,,5ZG5RV,train_x,red_square,top_right,2025-05-22_17h37.59.605,HideSeek_v1,2022.2.5,59.962463491255015,
,5,8,2,8,-3,0,46,,train_dim1_1,19,30,,,,2,0,2,0,,,,,,,,,0,0,0,0,0,18,18,18,5,0,5,0,,,,,,,,,,,,,,,,,,,,,,,,,,,,,,,,,,,,,,,,,,,,,,,,,,,,,,,,,,,,,,,,30,,,,,,,,800.4800230999244,800.4800230999244,800.4800230999244,800.4800230999244,800.4800230999244,,,,,up,0.2932992000132799,4,0,0,99,0.24,0.24,up,0.2120311000617221,,,,,,,,,,,,,,,,,,,,,,,,,,,,,,,,,,,,,,,,,,,,,,,,,,,,,,,,5ZG5RV,train_x,red_square,top_right,2025-05-22_17h37.59.605,HideSeek_v1,2022.2.5,59.962463491255015,
,5,8,2,8,-3,0,46,,train_dim1_1,19,30,,,,2,0,2,0,,,,,,,,,0,0,0,0,0,18,18,18,6,0,6,0,,,,,,,,,,,,,,,,,,,,,,,,,,,,,,,,,,,,,,,,,,,,,,,,,,,,,,,,,,,,,,,,30,,,,,,,,800.8111630999483,800.8111630999483,800.8111630999483,800.8111630999483,800.8111630999483,,,,,left,1.5441251999000087,4,0,0,99,0.15999999999999998,0.24,left,1.4298955999547616,,,,,,,,,,,,,,,,,,,,,,,,,,,,,,,,,,,,,,,,,,,,,,,,,,,,,,,,5ZG5RV,train_x,red_square,top_right,2025-05-22_17h37.59.605,HideSeek_v1,2022.2.5,59.962463491255015,
,5,8,2,8,-3,0,46,,train_dim1_1,19,30,,,,2,0,2,0,,,,,,,,,0,0,0,0,0,18,18,18,7,0,7,0,,,,,,,,,,,,,,,,,,,,,,,,,,,,,,,,,,,,,,,,,,,,,,,,,,,,,,,,,,,,,,,,30,,,,,,,,802.335787299904,802.335787299904,802.335787299904,802.335787299904,802.335787299904,,,,,left,0.32671619998291135,4,0,0,99,0.07999999999999997,0.24,left,0.2367884999839589,,,,,,,,,,,,,,,,,,,,,,,,,,,,,,,,,,,,,,,,,,,,,,,,,,,,,,,,5ZG5RV,train_x,red_square,top_right,2025-05-22_17h37.59.605,HideSeek_v1,2022.2.5,59.962463491255015,
,5,8,2,8,-3,0,46,,train_dim1_1,19,30,,,,2,0,2,0,,,,,,,,,0,0,0,0,0,18,18,18,8,0,8,0,,,,,,,,,,,,,,,,,,,,,,,,,,,,,,,,,,,,,,,,,,,,,,,,,,,,,,,,,,,,,,,,30,,,,,,,,802.6713607999263,802.6713607999263,802.6713607999263,802.6713607999263,802.6713607999263,,,,,left,0.4091725000180304,4,0,0,99,-2.7755575615628914e-17,0.24,left,0.3303964000660926,,,,,,,,,,,,,,,,,,,,,,,,,,,,,,,,,,,,,,,,,,,,,,,,,,,,,,,,5ZG5RV,train_x,red_square,top_right,2025-05-22_17h37.59.605,HideSeek_v1,2022.2.5,59.962463491255015,
,5,8,2,8,-3,0,46,,train_dim1_1,19,30,,,,2,0,2,0,,,,,,,,,0,0,0,0,0,18,18,18,9,0,9,0,,,,,,,,,,,,,,,,,,,,,,,,,,,,,,,,,,,,,,,,,,,,,,,,,,,,,,,,,,,,,,,,30,,,,,,,,803.0845524999313,803.0845524999313,803.0845524999313,803.0845524999313,803.0845524999313,-26,-15,-2.7755575615628914e-17,0.24,return,1.0606853000354022,5,0,0,1,-2.7755575615628914e-17,0.24,return,0.9753631000639871,,,,,,,,,,,,,,,,,,,,,,,,,,,,,,,,,,,,,,,,,,,,,,,,,,,,,,,,5ZG5RV,train_x,red_square,top_right,2025-05-22_17h37.59.605,HideSeek_v1,2022.2.5,59.962463491255015,
,5,6,5,6,0,0,16,,train_dim1_1,20,30,,,,2,0,2,0,,,,,,,,,0,0,0,0,0,19,19,19,0,0,0,0,,,,,,,,,,,,,,,,,,,,,,,,,stimuli/alien_stimuli/16.png,,,,,,,,,,,,,,,,,,,,,,,,,,,,,stimuli/alien_stimuli/46.png,46,5,21,,,,,,,30,,,,,,,,811.470831799903,811.470831799903,811.470831799903,811.470831799903,811.470831799903,-26,-15,0.24,0.08,return,1.5062302999431267,6,0,0,1,0.24,0.08,return,1.4095114000374451,809.9079415999586,811.470831799903,0,0.24,0.0,0.24,0.24,0,0.12,0,0.24,805.7289089999394,805.7289089999394,805.7289089999394,805.7289089999394,805.7289089999394,805.7289089999394,805.7289089999394,805.7289089999394,805.7199663599255,4.3058431999525055,return,4.157644600025378,,,,,,,,,,,,,,,,,,,,,,,,,,,,,,,,,5ZG5RV,train_x,red_square,top_right,2025-05-22_17h37.59.605,HideSeek_v1,2022.2.5,59.962463491255015,
,9,7,6,7,-3,0,46,,train_dim1_1,21,30,,,,2,0,2,0,,,,,,,,,0,0,0,0,0,20,20,20,0,0,0,0,,,,,,,,,,,,,,,,,,,,,,,,,stimuli/alien_stimuli/46.png,,,,,,,,,,,,,,,,,,,,,,,,,,,,,stimuli/alien_stimuli/16.png,16,5,22,,,,,,,30,,,,,,,,819.9672013999661,819.9672013999661,819.9672013999661,819.9672013999661,819.9672013999661,,,,,left,1.753911399981007,6,0,0,99,0.48000000000000004,0.16,left,1.6576442000223324,818.398104099906,819.9672013999661,0.24,0.08,0.0,0.0,0.08,0.24,0.24,0.24,0.08,814.5556811999995,814.5556811999995,814.5556811999995,814.5556811999995,814.5556811999995,814.5556811999995,814.5556811999995,814.5556811999995,814.5443024599459,3.971725800074637,return,3.823737800004892,,,,,,,,,,,,,,,,,,,,,,,,,,,,,,,,,5ZG5RV,train_x,red_square,top_right,2025-05-22_17h37.59.605,HideSeek_v1,2022.2.5,59.962463491255015,
,9,7,6,7,-3,0,46,,train_dim1_1,21,30,,,,2,0,2,0,,,,,,,,,0,0,0,0,0,20,20,20,1,0,1,0,,,,,,,,,,,,,,,,,,,,,,,,,,,,,,,,,,,,,,,,,,,,,,,,,,,,,,,,,,,,,,,,30,,,,,,,,821.7150243999204,821.7150243999204,821.7150243999204,821.7150243999204,821.7150243999204,,,,,right,1.3272701000096276,6,0,0,99,0.56,0.16,right,1.2439111000858247,,,,,,,,,,,,,,,,,,,,,,,,,,,,,,,,,,,,,,,,,,,,,,,,,,,,,,,,5ZG5RV,train_x,red_square,top_right,2025-05-22_17h37.59.605,HideSeek_v1,2022.2.5,59.962463491255015,
,9,7,6,7,-3,0,46,,train_dim1_1,21,30,,,,2,0,2,0,,,,,,,,,0,0,0,0,0,20,20,20,2,0,2,0,,,,,,,,,,,,,,,,,,,,,,,,,,,,,,,,,,,,,,,,,,,,,,,,,,,,,,,,,,,,,,,,30,,,,,,,,823.0488554999465,823.0488554999465,823.0488554999465,823.0488554999465,823.0488554999465,,,,,down,0.5937321999808773,6,0,0,99,0.56,0.08,down,0.5152495999354869,,,,,,,,,,,,,,,,,,,,,,,,,,,,,,,,,,,,,,,,,,,,,,,,,,,,,,,,5ZG5RV,train_x,red_square,top_right,2025-05-22_17h37.59.605,HideSeek_v1,2022.2.5,59.962463491255015,
,9,7,6,7,-3,0,46,,train_dim1_1,21,30,,,,2,0,2,0,,,,,,,,,0,0,0,0,0,20,20,20,3,0,3,0,,,,,,,,,,,,,,,,,,,,,,,,,,,,,,,,,,,,,,,,,,,,,,,,,,,,,,,,,,,,,,,,30,,,,,,,,823.6494248999516,823.6494248999516,823.6494248999516,823.6494248999516,823.6494248999516,,,,,down,0.6932937999954447,6,0,0,99,0.56,0.0,down,0.6096539000282064,,,,,,,,,,,,,,,,,,,,,,,,,,,,,,,,,,,,,,,,,,,,,,,,,,,,,,,,5ZG5RV,train_x,red_square,top_right,2025-05-22_17h37.59.605,HideSeek_v1,2022.2.5,59.962463491255015,
,9,7,6,7,-3,0,46,,train_dim1_1,21,30,,,,2,0,2,0,,,,,,,,,0,0,0,0,0,20,20,20,4,0,4,0,,,,,,,,,,,,,,,,,,,,,,,,,,,,,,,,,,,,,,,,,,,,,,,,,,,,,,,,,,,,,,,,30,,,,,,,,824.3499991999706,824.3499991999706,824.3499991999706,824.3499991999706,824.3499991999706,,,,,up,2.495032300008461,6,0,0,99,0.56,0.08,up,2.41059830004815,,,,,,,,,,,,,,,,,,,,,,,,,,,,,,,,,,,,,,,,,,,,,,,,,,,,,,,,5ZG5RV,train_x,red_square,top_right,2025-05-22_17h37.59.605,HideSeek_v1,2022.2.5,59.962463491255015,
,9,7,6,7,-3,0,46,,train_dim1_1,21,30,,,,2,0,2,0,,,,,,,,,0,0,0,0,0,20,20,20,5,0,5,0,,,,,,,,,,,,,,,,,,,,,,,,,,,,,,,,,,,,,,,,,,,,,,,,,,,,,,,,,,,,,,,,30,,,,,,,,826.8517682999372,826.8517682999372,826.8517682999372,826.8517682999372,826.8517682999372,,,,,up,0.27687539998441935,6,0,0,99,0.56,0.16,up,0.19671340007334948,,,,,,,,,,,,,,,,,,,,,,,,,,,,,,,,,,,,,,,,,,,,,,,,,,,,,,,,5ZG5RV,train_x,red_square,top_right,2025-05-22_17h37.59.605,HideSeek_v1,2022.2.5,59.962463491255015,
,9,7,6,7,-3,0,46,,train_dim1_1,21,30,,,,2,0,2,0,,,,,,,,,0,0,0,0,0,20,20,20,6,0,6,0,,,,,,,,,,,,,,,,,,,,,,,,,,,,,,,,,,,,,,,,,,,,,,,,,,,,,,,,,,,,,,,,30,,,,,,,,827.135813199915,827.135813199915,827.135813199915,827.135813199915,827.135813199915,,,,,left,0.8271728999679908,6,0,0,99,0.48000000000000004,0.16,left,0.7493744000094011,,,,,,,,,,,,,,,,,,,,,,,,,,,,,,,,,,,,,,,,,,,,,,,,,,,,,,,,5ZG5RV,train_x,red_square,top_right,2025-05-22_17h37.59.605,HideSeek_v1,2022.2.5,59.962463491255015,
,9,7,6,7,-3,0,46,,train_dim1_1,21,30,,,,2,0,2,0,,,,,,,,,0,0,0,0,0,20,20,20,7,0,7,0,,,,,,,,,,,,,,,,,,,,,,,,,,,,,,,,,,,,,,,,,,,,,,,,,,,,,,,,,,,,,,,,30,,,,,,,,827.9698223999003,827.9698223999003,827.9698223999003,827.9698223999003,827.9698223999003,,,,,left,0.4099343999987468,6,0,0,99,0.4,0.16,left,0.3333601999329403,,,,,,,,,,,,,,,,,,,,,,,,,,,,,,,,,,,,,,,,,,,,,,,,,,,,,,,,5ZG5RV,train_x,red_square,top_right,2025-05-22_17h37.59.605,HideSeek_v1,2022.2.5,59.962463491255015,
,9,7,6,7,-3,0,46,,train_dim1_1,21,30,,,,2,0,2,0,,,,,,,,,0,0,0,0,0,20,20,20,8,0,8,0,,,,,,,,,,,,,,,,,,,,,,,,,,,,,,,,,,,,,,,,,,,,,,,,,,,,,,,,,,,,,,,,30,,,,,,,,828.3872429999756,828.3872429999756,828.3872429999756,828.3872429999756,828.3872429999756,,,,,left,0.4600888999411836,6,0,0,99,0.32,0.16,left,0.3767279000021517,,,,,,,,,,,,,,,,,,,,,,,,,,,,,,,,,,,,,,,,,,,,,,,,,,,,,,,,5ZG5RV,train_x,red_square,top_right,2025-05-22_17h37.59.605,HideSeek_v1,2022.2.5,59.962463491255015,
,9,7,6,7,-3,0,46,,train_dim1_1,21,30,,,,2,0,2,0,,,,,,,,,0,0,0,0,0,20,20,20,9,0,9,0,,,,,,,,,,,,,,,,,,,,,,,,,,,,,,,,,,,,,,,,,,,,,,,,,,,,,,,,,,,,,,,,30,,,,,,,,828.8529686999973,828.8529686999973,828.8529686999973,828.8529686999973,828.8529686999973,-26,-18,0.32,0.16,return,2.578426899970509,7,0,0,1,0.32,0.16,return,2.494497000006959,,,,,,,,,,,,,,,,,,,,,,,,,,,,,,,,,,,,,,,,,,,,,,,,,,,,,,,,5ZG5RV,train_x,red_square,top_right,2025-05-22_17h37.59.605,HideSeek_v1,2022.2.5,59.962463491255015,
,6,5,5,5,-1,0,26,,train_dim1_1,22,30,,,,2,0,2,0,,,,,,,,,0,0,0,0,0,21,21,21,0,0,0,0,,,,,,,,,,,,,,,,,,,,,,,,,stimuli/alien_stimuli/26.png,,,,,,,,,,,,,,,,,,,,,,,,,,,,,stimuli/alien_stimuli/46.png,46,9,23,,,,,,,30,,,,,,,,837.5947106999811,837.5947106999811,837.5947106999811,837.5947106999811,837.5947106999811,-26,-18,0.32,0,return,1.5214326999848709,7,1,0,0,0.32,0,return,1.4297377999173477,836.029647899908,837.5947106999811,0.32,0.16,0.0,0.24,0.16,0.32,0.44000000000000006,0.32,0.16,833.0146394999465,833.0146394999465,833.0146394999465,833.0146394999465,833.0146394999465,833.0146394999465,833.0146394999465,833.0146394999465,832.992824839987,3.1379861999303102,return,2.994785699993372,,,,,,,,,,,,,,,,,,,,,,,,,,,,,,,,,5ZG5RV,train_x,red_square,top_right,2025-05-22_17h37.59.605,HideSeek_v1,2022.2.5,59.962463491255015,
,7,6,2,6,-5,0,66,,train_dim1_1,23,30,,,,2,0,2,0,,,,,,,,,0,0,0,0,0,22,22,22,0,0,0,0,,,,,,,,,,,,,,,,,,,,,,,,,stimuli/alien_stimuli/66.png,,,,,,,,,,,,,,,,,,,,,,,,,,,,,stimuli/alien_stimuli/26.png,26,6,24,,,,,,,30,,,,,,,,843.6308490999509,843.6308490999509,843.6308490999509,843.6308490999509,843.6308490999509,,,,,down,1.837996399961412,7,1,0,99,0.4,0.0,down,1.7512165000662208,842.0677688999567,843.6308490999509,0.24,0,0.0,0.08,0.0,0.24,0.28,0.24,0,840.6913656999823,840.6913656999823,840.6913656999823,840.6913656999823,840.6913656999823,840.6913656999823,840.6913656999823,840.6913656999823,840.6822802599287,1.5033235000446439,return,1.3594395999098197,,,,,,,,,,,,,,,,,,,,,,,,,,,,,,,,,5ZG5RV,train_x,red_square,top_right,2025-05-22_17h37.59.605,HideSeek_v1,2022.2.5,59.962463491255015,
,7,6,2,6,-5,0,66,,train_dim1_1,23,30,,,,2,0,2,0,,,,,,,,,0,0,0,0,0,22,22,22,1,0,1,0,,,,,,,,,,,,,,,,,,,,,,,,,,,,,,,,,,,,,,,,,,,,,,,,,,,,,,,,,,,,,,,,30,,,,,,,,845.4685447999509,845.4685447999509,845.4685447999509,845.4685447999509,845.4685447999509,,,,,down,0.3095165000995621,7,1,0,99,0.4,-0.08,down,0.22095119999721646,,,,,,,,,,,,,,,,,,,,,,,,,,,,,,,,,,,,,,,,,,,,,,,,,,,,,,,,5ZG5RV,train_x,red_square,top_right,2025-05-22_17h37.59.605,HideSeek_v1,2022.2.5,59.962463491255015,
,7,6,2,6,-5,0,66,,train_dim1_1,23,30,,,,2,0,2,0,,,,,,,,,0,0,0,0,0,22,22,22,2,0,2,0,,,,,,,,,,,,,,,,,,,,,,,,,,,,,,,,,,,,,,,,,,,,,,,,,,,,,,,,,,,,,,,,30,,,,,,,,845.7831612000009,845.7831612000009,845.7831612000009,845.7831612000009,845.7831612000009,,,,,down,0.2596033000154421,7,1,0,99,0.4,-0.16,down,0.18539539992343634,,,,,,,,,,,,,,,,,,,,,,,,,,,,,,,,,,,,,,,,,,,,,,,,,,,,,,,,5ZG5RV,train_x,red_square,top_right,2025-05-22_17h37.59.605,HideSeek_v1,2022.2.5,59.962463491255015,
,7,6,2,6,-5,0,66,,train_dim1_1,23,30,,,,2,0,2,0,,,,,,,,,0,0,0,0,0,22,22,22,3,0,3,0,,,,,,,,,,,,,,,,,,,,,,,,,,,,,,,,,,,,,,,,,,,,,,,,,,,,,,,,,,,,,,,,30,,,,,,,,846.0625800999114,846.0625800999114,846.0625800999114,846.0625800999114,846.0625800999114,,,,,down,0.32698979997076094,7,1,0,99,0.4,-0.24,down,0.23551200004294515,,,,,,,,,,,,,,,,,,,,,,,,,,,,,,,,,,,,,,,,,,,,,,,,,,,,,,,,5ZG5RV,train_x,red_square,top_right,2025-05-22_17h37.59.605,HideSeek_v1,2022.2.5,59.962463491255015,
,7,6,2,6,-5,0,66,,train_dim1_1,23,30,,,,2,0,2,0,,,,,,,,,0,0,0,0,0,22,22,22,4,0,4,0,,,,,,,,,,,,,,,,,,,,,,,,,,,,,,,,,,,,,,,,,,,,,,,,,,,,,,,,,,,,,,,,30,,,,,,,,846.38461739989,846.38461739989,846.38461739989,846.38461739989,846.38461739989,,,,,down,0.34381339990068227,7,1,0,99,0.4,-0.32,down,0.2568464999785647,,,,,,,,,,,,,,,,,,,,,,,,,,,,,,,,,,,,,,,,,,,,,,,,,,,,,,,,5ZG5RV,train_x,red_square,top_right,2025-05-22_17h37.59.605,HideSeek_v1,2022.2.5,59.962463491255015,
,7,6,2,6,-5,0,66,,train_dim1_1,23,30,,,,2,0,2,0,,,,,,,,,0,0,0,0,0,22,22,22,5,0,5,0,,,,,,,,,,,,,,,,,,,,,,,,,,,,,,,,,,,,,,,,,,,,,,,,,,,,,,,,,,,,,,,,30,,,,,,,,846.7349639999447,846.7349639999447,846.7349639999447,846.7349639999447,846.7349639999447,-31,-18,0.4,-0.32,return,0.6266781999729574,7,0,0,0,0.4,-0.32,return,0.5533562999917194,,,,,,,,,,,,,,,,,,,,,,,,,,,,,,,,,,,,,,,,,,,,,,,,,,,,,,,,5ZG5RV,train_x,red_square,top_right,2025-05-22_17h37.59.605,HideSeek_v1,2022.2.5,59.962463491255015,
,9,9,5,9,-4,0,56,,train_dim1_1,24,30,,,,2,0,2,0,,,,,,,,,0,0,0,0,0,23,23,23,0,0,0,0,,,,,,,,,,,,,,,,,,,,,,,,,stimuli/alien_stimuli/56.png,,,,,,,,,,,,,,,,,,,,,,,,,,,,,stimuli/alien_stimuli/66.png,66,7,25,,,,,,,30,,,,,,,,852.1985372999916,852.1985372999916,852.1985372999916,852.1985372999916,852.1985372999916,,,,,down,2.6397408000193536,7,0,0,99,0.56,0.24,down,2.538286899914965,850.6248009999981,852.1985372999916,0,0.08,0.0,0.4,0.08,0,0.2,0,0.08,848.924137199996,848.924137199996,848.924137199996,848.924137199996,848.924137199996,848.924137199996,848.924137199996,848.924137199996,848.9063086199342,1.803330900031142,return,1.672217500046827,,,,,,,,,,,,,,,,,,,,,,,,,,,,,,,,,5ZG5RV,train_x,red_square,top_right,2025-05-22_17h37.59.605,HideSeek_v1,2022.2.5,59.962463491255015,
,9,9,5,9,-4,0,56,,train_dim1_1,24,30,,,,2,0,2,0,,,,,,,,,0,0,0,0,0,23,23,23,1,0,1,0,,,,,,,,,,,,,,,,,,,,,,,,,,,,,,,,,,,,,,,,,,,,,,,,,,,,,,,,,,,,,,,,30,,,,,,,,854.8277506999439,854.8277506999439,854.8277506999439,854.8277506999439,854.8277506999439,,,,,up,1.0098271999740973,7,0,0,99,0.56,0.32,up,0.9205674000550061,,,,,,,,,,,,,,,,,,,,,,,,,,,,,,,,,,,,,,,,,,,,,,,,,,,,,,,,5ZG5RV,train_x,red_square,top_right,2025-05-22_17h37.59.605,HideSeek_v1,2022.2.5,59.962463491255015,
,9,9,5,9,-4,0,56,,train_dim1_1,24,30,,,,2,0,2,0,,,,,,,,,0,0,0,0,0,23,23,23,2,0,2,0,,,,,,,,,,,,,,,,,,,,,,,,,,,,,,,,,,,,,,,,,,,,,,,,,,,,,,,,,,,,,,,,30,,,,,,,,855.8440783999395,855.8440783999395,855.8440783999395,855.8440783999395,855.8440783999395,,,,,left,1.0777783999219537,7,0,0,99,0.48000000000000004,0.32,left,0.997859499999322,,,,,,,,,,,,,,,,,,,,,,,,,,,,,,,,,,,,,,,,,,,,,,,,,,,,,,,,5ZG5RV,train_x,red_square,top_right,2025-05-22_17h37.59.605,HideSeek_v1,2022.2.5,59.962463491255015,
,9,9,5,9,-4,0,56,,train_dim1_1,24,30,,,,2,0,2,0,,,,,,,,,0,0,0,0,0,23,23,23,3,0,3,0,,,,,,,,,,,,,,,,,,,,,,,,,,,,,,,,,,,,,,,,,,,,,,,,,,,,,,,,,,,,,,,,30,,,,,,,,856.9289716999047,856.9289716999047,856.9289716999047,856.9289716999047,856.9289716999047,,,,,left,0.7270945000927895,7,0,0,99,0.4,0.32,left,0.6424029999179766,,,,,,,,,,,,,,,,,,,,,,,,,,,,,,,,,,,,,,,,,,,,,,,,,,,,,,,,5ZG5RV,train_x,red_square,top_right,2025-05-22_17h37.59.605,HideSeek_v1,2022.2.5,59.962463491255015,
,9,9,5,9,-4,0,56,,train_dim1_1,24,30,,,,2,0,2,0,,,,,,,,,0,0,0,0,0,23,23,23,4,0,4,0,,,,,,,,,,,,,,,,,,,,,,,,,,,,,,,,,,,,,,,,,,,,,,,,,,,,,,,,,,,,,,,,30,,,,,,,,857.6629322998924,857.6629322998924,857.6629322998924,857.6629322998924,857.6629322998924,,,,,left,0.7770903001073748,7,0,0,99,0.32,0.32,left,0.6908487000036985,,,,,,,,,,,,,,,,,,,,,,,,,,,,,,,,,,,,,,,,,,,,,,,,,,,,,,,,5ZG5RV,train_x,red_square,top_right,2025-05-22_17h37.59.605,HideSeek_v1,2022.2.5,59.962463491255015,
,9,9,5,9,-4,0,56,,train_dim1_1,24,30,,,,2,0,2,0,,,,,,,,,0,0,0,0,0,23,23,23,5,0,5,0,,,,,,,,,,,,,,,,,,,,,,,,,,,,,,,,,,,,,,,,,,,,,,,,,,,,,,,,,,,,,,,,30,,,,,,,,858.4478970998898,858.4478970998898,858.4478970998898,858.4478970998898,858.4478970998898,,,,,right,1.5102715000975877,7,0,0,99,0.4,0.32,right,1.4195545999100432,,,,,,,,,,,,,,,,,,,,,,,,,,,,,,,,,,,,,,,,,,,,,,,,,,,,,,,,5ZG5RV,train_x,red_square,top_right,2025-05-22_17h37.59.605,HideSeek_v1,2022.2.5,59.962463491255015,
,9,9,5,9,-4,0,56,,train_dim1_1,24,30,,,,2,0,2,0,,,,,,,,,0,0,0,0,0,23,23,23,6,0,6,0,,,,,,,,,,,,,,,,,,,,,,,,,,,,,,,,,,,,,,,,,,,,,,,,,,,,,,,,,,,,,,,,30,,,,,,,,859.9645828999346,859.9645828999346,859.9645828999346,859.9645828999346,859.9645828999346,,,,,right,0.2102487999945879,7,0,0,99,0.48000000000000004,0.32,right,0.13366230006795377,,,,,,,,,,,,,,,,,,,,,,,,,,,,,,,,,,,,,,,,,,,,,,,,,,,,,,,,5ZG5RV,train_x,red_square,top_right,2025-05-22_17h37.59.605,HideSeek_v1,2022.2.5,59.962463491255015,
,9,9,5,9,-4,0,56,,train_dim1_1,24,30,,,,2,0,2,0,,,,,,,,,0,0,0,0,0,23,23,23,7,0,7,0,,,,,,,,,,,,,,,,,,,,,,,,,,,,,,,,,,,,,,,,,,,,,,,,,,,,,,,,,,,,,,,,30,,,,,,,,860.1822229999816,860.1822229999816,860.1822229999816,860.1822229999816,860.1822229999816,,,,,right,0.24320439994335175,7,0,0,99,0.56,0.32,right,0.15827589994296432,,,,,,,,,,,,,,,,,,,,,,,,,,,,,,,,,,,,,,,,,,,,,,,,,,,,,,,,5ZG5RV,train_x,red_square,top_right,2025-05-22_17h37.59.605,HideSeek_v1,2022.2.5,59.962463491255015,
,9,9,5,9,-4,0,56,,train_dim1_1,24,30,,,,2,0,2,0,,,,,,,,,0,0,0,0,0,23,23,23,8,0,8,0,,,,,,,,,,,,,,,,,,,,,,,,,,,,,,,,,,,,,,,,,,,,,,,,,,,,,,,,,,,,,,,,30,,,,,,,,860.4321603999706,860.4321603999706,860.4321603999706,860.4321603999706,860.4321603999706,,,,,down,0.9599791000364348,7,0,0,99,0.56,0.24,down,0.8805972000118345,,,,,,,,,,,,,,,,,,,,,,,,,,,,,,,,,,,,,,,,,,,,,,,,,,,,,,,,5ZG5RV,train_x,red_square,top_right,2025-05-22_17h37.59.605,HideSeek_v1,2022.2.5,59.962463491255015,
,9,9,5,9,-4,0,56,,train_dim1_1,24,30,,,,2,0,2,0,,,,,,,,,0,0,0,0,0,23,23,23,9,0,9,0,,,,,,,,,,,,,,,,,,,,,,,,,,,,,,,,,,,,,,,,,,,,,,,,,,,,,,,,,,,,,,,,30,,,,,,,,861.4018439999782,861.4018439999782,861.4018439999782,861.4018439999782,861.4018439999782,,,,,down,0.29362190002575517,7,0,0,99,0.56,0.15999999999999998,down,0.20744509994983673,,,,,,,,,,,,,,,,,,,,,,,,,,,,,,,,,,,,,,,,,,,,,,,,,,,,,,,,5ZG5RV,train_x,red_square,top_right,2025-05-22_17h37.59.605,HideSeek_v1,2022.2.5,59.962463491255015,
,9,9,5,9,-4,0,56,,train_dim1_1,24,30,,,,2,0,2,0,,,,,,,,,0,0,0,0,0,23,23,23,10,0,10,0,,,,,,,,,,,,,,,,,,,,,,,,,,,,,,,,,,,,,,,,,,,,,,,,,,,,,,,,,,,,,,,,30,,,,,,,,861.700225599925,861.700225599925,861.700225599925,861.700225599925,861.700225599925,,,,,down,0.3099236999405548,7,0,0,99,0.56,0.07999999999999997,down,0.23120390006806701,,,,,,,,,,,,,,,,,,,,,,,,,,,,,,,,,,,,,,,,,,,,,,,,,,,,,,,,5ZG5RV,train_x,red_square,top_right,2025-05-22_17h37.59.605,HideSeek_v1,2022.2.5,59.962463491255015,
,9,9,5,9,-4,0,56,,train_dim1_1,24,30,,,,2,0,2,0,,,,,,,,,0,0,0,0,0,23,23,23,11,0,11,0,,,,,,,,,,,,,,,,,,,,,,,,,,,,,,,,,,,,,,,,,,,,,,,,,,,,,,,,,,,,,,,,30,,,,,,,,862.0160725999158,862.0160725999158,862.0160725999158,862.0160725999158,862.0160725999158,,,,,down,0.3266959999455139,7,0,0,99,0.56,-2.7755575615628914e-17,down,0.24446120008360595,,,,,,,,,,,,,,,,,,,,,,,,,,,,,,,,,,,,,,,,,,,,,,,,,,,,,,,,5ZG5RV,train_x,red_square,top_right,2025-05-22_17h37.59.605,HideSeek_v1,2022.2.5,59.962463491255015,
,9,9,5,9,-4,0,56,,train_dim1_1,24,30,,,,2,0,2,0,,,,,,,,,0,0,0,0,0,23,23,23,12,0,12,0,,,,,,,,,,,,,,,,,,,,,,,,,,,,,,,,,,,,,,,,,,,,,,,,,,,,,,,,,,,,,,,,30,,,,,,,,862.3502073999261,862.3502073999261,862.3502073999261,862.3502073999261,862.3502073999261,-35,-18,0.56,-2.7755575615628914e-17,return,0.6101910000434145,7,0,0,0,0.56,-2.7755575615628914e-17,return,0.5322190000442788,,,,,,,,,,,,,,,,,,,,,,,,,,,,,,,,,,,,,,,,,,,,,,,,,,,,,,,,5ZG5RV,train_x,red_square,top_right,2025-05-22_17h37.59.605,HideSeek_v1,2022.2.5,59.962463491255015,
,8,5,8,5,0,0,16,,train_dim1_1,25,30,,,,2,0,2,0,,,,,,,,,0,0,0,0,0,24,24,24,0,0,0,0,,,,,,,,,,,,,,,,,,,,,,,,,stimuli/alien_stimuli/16.png,,,,,,,,,,,,,,,,,,,,,,,,,,,,,stimuli/alien_stimuli/56.png,56,9,26,,,,,,,30,,,,,,,,867.9221853999188,867.9221853999188,867.9221853999188,867.9221853999188,867.9221853999188,-35,-18,0.48,0,return,1.7367202999303117,8,0,0,1,0.48,0,return,1.6360246000112966,866.3380332998931,867.9221853999188,0.24,0.32,0.0,0.32,0.32,0.24,0.4,0.24,0.32,864.5431991999503,864.5431991999503,864.5431991999503,864.5431991999503,864.5431991999503,864.5431991999503,864.5431991999503,864.5431991999503,864.5354477599263,1.9203047000337392,return,1.7725667000049725,,,,,,,,,,,,,,,,,,,,,,,,,,,,,,,,,5ZG5RV,train_x,red_square,top_right,2025-05-22_17h37.59.605,HideSeek_v1,2022.2.5,59.962463491255015,
,6,6,1,6,-5,0,66,,train_dim1_1,26,30,,,,2,0,2,0,,,,,,,,,0,0,0,0,0,25,25,25,0,0,0,0,,,,,,,,,,,,,,,,,,,,,,,,,stimuli/alien_stimuli/66.png,,,,,,,,,,,,,,,,,,,,,,,,,,,,,stimuli/alien_stimuli/16.png,16,8,27,,,,,,,30,,,,,,,,875.3875216000015,875.3875216000015,875.3875216000015,875.3875216000015,875.3875216000015,,,,,left,1.7889198999619111,8,0,0,99,0.24,0.08,left,1.701013599988073,873.827630899963,875.3875216000015,0.48,0,0.0,0.0,0.0,0.48,0.48,0.48,0,871.2004654998891,871.2004654998891,871.2004654998891,871.2004654998891,871.2004654998891,871.2004654998891,871.2004654998891,871.2004654998891,871.1910511399387,2.738053699955344,return,2.611209599999711,,,,,,,,,,,,,,,,,,,,,,,,,,,,,,,,,5ZG5RV,train_x,red_square,top_right,2025-05-22_17h37.59.605,HideSeek_v1,2022.2.5,59.962463491255015,
,6,6,1,6,-5,0,66,,train_dim1_1,26,30,,,,2,0,2,0,,,,,,,,,0,0,0,0,0,25,25,25,1,0,1,0,,,,,,,,,,,,,,,,,,,,,,,,,,,,,,,,,,,,,,,,,,,,,,,,,,,,,,,,,,,,,,,,30,,,,,,,,877.1778349999804,877.1778349999804,877.1778349999804,877.1778349999804,877.1778349999804,,,,,left,0.3094248999841511,8,0,0,99,0.15999999999999998,0.08,left,0.225030199973844,,,,,,,,,,,,,,,,,,,,,,,,,,,,,,,,,,,,,,,,,,,,,,,,,,,,,,,,5ZG5RV,train_x,red_square,top_right,2025-05-22_17h37.59.605,HideSeek_v1,2022.2.5,59.962463491255015,
,6,6,1,6,-5,0,66,,train_dim1_1,26,30,,,,2,0,2,0,,,,,,,,,0,0,0,0,0,25,25,25,2,0,2,0,,,,,,,,,,,,,,,,,,,,,,,,,,,,,,,,,,,,,,,,,,,,,,,,,,,,,,,,,,,,,,,,30,,,,,,,,877.4951517999871,877.4951517999871,877.4951517999871,877.4951517999871,877.4951517999871,,,,,left,0.30994940001983196,8,0,0,99,0.07999999999999997,0.08,left,0.22524149995297194,,,,,,,,,,,,,,,,,,,,,,,,,,,,,,,,,,,,,,,,,,,,,,,,,,,,,,,,5ZG5RV,train_x,red_square,top_right,2025-05-22_17h37.59.605,HideSeek_v1,2022.2.5,59.962463491255015,
,6,6,1,6,-5,0,66,,train_dim1_1,26,30,,,,2,0,2,0,,,,,,,,,0,0,0,0,0,25,25,25,3,0,3,0,,,,,,,,,,,,,,,,,,,,,,,,,,,,,,,,,,,,,,,,,,,,,,,,,,,,,,,,,,,,,,,,30,,,,,,,,877.8105106999865,877.8105106999865,877.8105106999865,877.8105106999865,877.8105106999865,,,,,left,0.2930235000094399,8,0,0,99,-2.7755575615628914e-17,0.08,left,0.21010239992756397,,,,,,,,,,,,,,,,,,,,,,,,,,,,,,,,,,,,,,,,,,,,,,,,,,,,,,,,5ZG5RV,train_x,red_square,top_right,2025-05-22_17h37.59.605,HideSeek_v1,2022.2.5,59.962463491255015,
,6,6,1,6,-5,0,66,,train_dim1_1,26,30,,,,2,0,2,0,,,,,,,,,0,0,0,0,0,25,25,25,4,0,4,0,,,,,,,,,,,,,,,,,,,,,,,,,,,,,,,,,,,,,,,,,,,,,,,,,,,,,,,,,,,,,,,,30,,,,,,,,878.110971899936,878.110971899936,878.110971899936,878.110971899936,878.110971899936,,,,,left,0.3268319999333471,8,0,0,99,-0.08000000000000003,0.08,left,0.25269450002815574,,,,,,,,,,,,,,,,,,,,,,,,,,,,,,,,,,,,,,,,,,,,,,,,,,,,,,,,5ZG5RV,train_x,red_square,top_right,2025-05-22_17h37.59.605,HideSeek_v1,2022.2.5,59.962463491255015,
,6,6,1,6,-5,0,66,,train_dim1_1,26,30,,,,2,0,2,0,,,,,,,,,0,0,0,0,0,25,25,25,5,0,5,0,,,,,,,,,,,,,,,,,,,,,,,,,,,,,,,,,,,,,,,,,,,,,,,,,,,,,,,,,,,,,,,,30,,,,,,,,878.4454180999892,878.4454180999892,878.4454180999892,878.4454180999892,878.4454180999892,-35,-23,-0.08000000000000003,0.08,return,0.6765911000547931,9,0,0,1,-0.08000000000000003,0.08,return,0.5875081999693066,,,,,,,,,,,,,,,,,,,,,,,,,,,,,,,,,,,,,,,,,,,,,,,,,,,,,,,,5ZG5RV,train_x,red_square,top_right,2025-05-22_17h37.59.605,HideSeek_v1,2022.2.5,59.962463491255015,
,5,6,2,6,-3,0,46,,train_dim1_1,27,30,,,,2,0,2,0,,,,,,,,,0,0,0,0,0,26,26,26,0,0,0,0,,,,,,,,,,,,,,,,,,,,,,,,,stimuli/alien_stimuli/46.png,,,,,,,,,,,,,,,,,,,,,,,,,,,,,stimuli/alien_stimuli/66.png,66,6,28,,,,,,,30,,,,,,,,885.4643064999254,885.4643064999254,885.4643064999254,885.4643064999254,885.4643064999254,,,,,left,3.3403877000091597,9,0,0,99,0.15999999999999998,0.08,left,3.254532500053756,883.9025057998952,885.4643064999254,-0.08,0.08,0.0,0.4,0.08,-0.08,0.12,-0.08,0.08,880.6855160999112,880.6855160999112,880.6855160999112,880.6855160999112,880.6855160999112,880.6855160999112,880.6855160999112,880.6855160999112,880.6651920199395,3.3222293000435457,return,3.200405600015074,,,,,,,,,,,,,,,,,,,,,,,,,,,,,,,,,5ZG5RV,train_x,red_square,top_right,2025-05-22_17h37.59.605,HideSeek_v1,2022.2.5,59.962463491255015,
,5,6,2,6,-3,0,46,,train_dim1_1,27,30,,,,2,0,2,0,,,,,,,,,0,0,0,0,0,26,26,26,1,0,1,0,,,,,,,,,,,,,,,,,,,,,,,,,,,,,,,,,,,,,,,,,,,,,,,,,,,,,,,,,,,,,,,,30,,,,,,,,888.8042850999627,888.8042850999627,888.8042850999627,888.8042850999627,888.8042850999627,,,,,left,0.5589911000570282,9,0,0,99,0.07999999999999997,0.08,left,0.4856756000081077,,,,,,,,,,,,,,,,,,,,,,,,,,,,,,,,,,,,,,,,,,,,,,,,,,,,,,,,5ZG5RV,train_x,red_square,top_right,2025-05-22_17h37.59.605,HideSeek_v1,2022.2.5,59.962463491255015,
,5,6,2,6,-3,0,46,,train_dim1_1,27,30,,,,2,0,2,0,,,,,,,,,0,0,0,0,0,26,26,26,2,0,2,0,,,,,,,,,,,,,,,,,,,,,,,,,,,,,,,,,,,,,,,,,,,,,,,,,,,,,,,,,,,,,,,,30,,,,,,,,889.3702082999516,889.3702082999516,889.3702082999516,889.3702082999516,889.3702082999516,,,,,left,0.40999319998081774,9,0,0,99,-2.7755575615628914e-17,0.08,left,0.329082699958235,,,,,,,,,,,,,,,,,,,,,,,,,,,,,,,,,,,,,,,,,,,,,,,,,,,,,,,,5ZG5RV,train_x,red_square,top_right,2025-05-22_17h37.59.605,HideSeek_v1,2022.2.5,59.962463491255015,
,5,6,2,6,-3,0,46,,train_dim1_1,27,30,,,,2,0,2,0,,,,,,,,,0,0,0,0,0,26,26,26,3,0,3,0,,,,,,,,,,,,,,,,,,,,,,,,,,,,,,,,,,,,,,,,,,,,,,,,,,,,,,,,,,,,,,,,30,,,,,,,,889.7876278999029,889.7876278999029,889.7876278999029,889.7876278999029,889.7876278999029,-35,-26,-2.7755575615628914e-17,0.08,return,0.6937129000434652,10,0,0,1,-2.7755575615628914e-17,0.08,return,0.6103432000381872,,,,,,,,,,,,,,,,,,,,,,,,,,,,,,,,,,,,,,,,,,,,,,,,,,,,,,,,5ZG5RV,train_x,red_square,top_right,2025-05-22_17h37.59.605,HideSeek_v1,2022.2.5,59.962463491255015,
,8,6,7,6,-1,0,26,,train_dim1_1,28,30,,,,2,0,2,0,,,,,,,,,0,0,0,0,0,27,27,27,0,0,0,0,,,,,,,,,,,,,,,,,,,,,,,,,stimuli/alien_stimuli/26.png,,,,,,,,,,,,,,,,,,,,,,,,,,,,,stimuli/alien_stimuli/46.png,46,5,29,,,,,,,30,,,,,,,,894.9252345999703,894.9252345999703,894.9252345999703,894.9252345999703,894.9252345999703,-35,-26,0.48,0.08,return,3.2709873999701813,10,1,0,0,0.48,0.08,return,3.1539120000088587,893.3269105999498,894.9252345999703,0,0.08,0.0,0.24,0.08,0,0.12,0,0.08,892.0595767999766,892.0595767999766,892.0595767999766,892.0595767999766,892.0595767999766,892.0595767999766,892.0595767999766,892.0595767999766,892.042024639994,1.386093399953097,return,1.2460384001024067,,,,,,,,,,,,,,,,,,,,,,,,,,,,,,,,,5ZG5RV,train_x,red_square,top_right,2025-05-22_17h37.59.605,HideSeek_v1,2022.2.5,59.962463491255015,
,9,5,5,5,-4,0,56,,train_dim1_1,29,30,,,,2,0,2,0,,,,,,,,,0,0,0,0,0,28,28,28,0,0,0,0,,,,,,,,,,,,,,,,,,,,,,,,,stimuli/alien_stimuli/56.png,,,,,,,,,,,,,,,,,,,,,,,,,,,,,stimuli/alien_stimuli/26.png,26,8,30,,,,,,,30,,,,,,,,902.4094604999991,902.4094604999991,902.4094604999991,902.4094604999991,902.4094604999991,,,,,left,1.8714436000445858,10,1,0,99,0.48000000000000004,0,left,1.7664478999795392,900.8332564999582,902.4094604999991,0.4,0.08,0.0,0.08,0.08,0.4,0.44,0.4,0.08,899.7254753999878,899.7254753999878,899.7254753999878,899.7254753999878,899.7254753999878,899.7254753999878,899.7254753999878,899.7254753999878,899.7145613399102,1.2203642000677064,return,1.0844397000037134,,,,,,,,,,,,,,,,,,,,,,,,,,,,,,,,,5ZG5RV,train_x,red_square,top_right,2025-05-22_17h37.59.605,HideSeek_v1,2022.2.5,59.962463491255015,
,9,5,5,5,-4,0,56,,train_dim1_1,29,30,,,,2,0,2,0,,,,,,,,,0,0,0,0,0,28,28,28,1,0,1,0,,,,,,,,,,,,,,,,,,,,,,,,,,,,,,,,,,,,,,,,,,,,,,,,,,,,,,,,,,,,,,,,30,,,,,,,,904.2698491999181,904.2698491999181,904.2698491999181,904.2698491999181,904.2698491999181,,,,,left,1.1772498999489471,10,1,0,99,0.4,0,left,1.0959385000169277,,,,,,,,,,,,,,,,,,,,,,,,,,,,,,,,,,,,,,,,,,,,,,,,,,,,,,,,5ZG5RV,train_x,red_square,top_right,2025-05-22_17h37.59.605,HideSeek_v1,2022.2.5,59.962463491255015,
,9,5,5,5,-4,0,56,,train_dim1_1,29,30,,,,2,0,2,0,,,,,,,,,0,0,0,0,0,28,28,28,2,0,2,0,,,,,,,,,,,,,,,,,,,,,,,,,,,,,,,,,,,,,,,,,,,,,,,,,,,,,,,,,,,,,,,,30,,,,,,,,905.45675449993,905.45675449993,905.45675449993,905.45675449993,905.45675449993,,,,,left,0.5744902999140322,10,1,0,99,0.32,0,left,0.4905407999176532,,,,,,,,,,,,,,,,,,,,,,,,,,,,,,,,,,,,,,,,,,,,,,,,,,,,,,,,5ZG5RV,train_x,red_square,top_right,2025-05-22_17h37.59.605,HideSeek_v1,2022.2.5,59.962463491255015,
,9,5,5,5,-4,0,56,,train_dim1_1,29,30,,,,2,0,2,0,,,,,,,,,0,0,0,0,0,28,28,28,3,0,3,0,,,,,,,,,,,,,,,,,,,,,,,,,,,,,,,,,,,,,,,,,,,,,,,,,,,,,,,,,,,,,,,,30,,,,,,,,906.0409792999271,906.0409792999271,906.0409792999271,906.0409792999271,906.0409792999271,,,,,left,1.3731730999425054,10,1,0,99,0.24,0,left,1.290279500070028,,,,,,,,,,,,,,,,,,,,,,,,,,,,,,,,,,,,,,,,,,,,,,,,,,,,,,,,5ZG5RV,train_x,red_square,top_right,2025-05-22_17h37.59.605,HideSeek_v1,2022.2.5,59.962463491255015,
,9,5,5,5,-4,0,56,,train_dim1_1,29,30,,,,2,0,2,0,,,,,,,,,0,0,0,0,0,28,28,28,4,0,4,0,,,,,,,,,,,,,,,,,,,,,,,,,,,,,,,,,,,,,,,,,,,,,,,,,,,,,,,,,,,,,,,,30,,,,,,,,907.4218011999037,907.4218011999037,907.4218011999037,907.4218011999037,907.4218011999037,,,,,left,0.27606309996917844,10,1,0,99,0.15999999999999998,0,left,0.1920818000799045,,,,,,,,,,,,,,,,,,,,,,,,,,,,,,,,,,,,,,,,,,,,,,,,,,,,,,,,5ZG5RV,train_x,red_square,top_right,2025-05-22_17h37.59.605,HideSeek_v1,2022.2.5,59.962463491255015,
,9,5,5,5,-4,0,56,,train_dim1_1,29,30,,,,2,0,2,0,,,,,,,,,0,0,0,0,0,28,28,28,5,0,5,0,,,,,,,,,,,,,,,,,,,,,,,,,,,,,,,,,,,,,,,,,,,,,,,,,,,,,,,,,,,,,,,,30,,,,,,,,907.7047812999226,907.7047812999226,907.7047812999226,907.7047812999226,907.7047812999226,-35,-31,0.15999999999999998,0,return,0.9937883999664336,10,1,0,0,0.15999999999999998,0,return,0.9031984000466764,,,,,,,,,,,,,,,,,,,,,,,,,,,,,,,,,,,,,,,,,,,,,,,,,,,,,,,,5ZG5RV,train_x,red_square,top_right,2025-05-22_17h37.59.605,HideSeek_v1,2022.2.5,59.962463491255015,
,7,7,7,7,0,0,16,,train_dim1_1,30,30,,,,2,0,2,0,,,,,,,,,0,0,0,0,0,29,29,29,0,0,0,0,,,,,,,,,,,,,,,,,,,,,,,,,stimuli/alien_stimuli/16.png,,,,,,,,,,,,,,,,,,,,,,,,,,,,,stimuli/alien_stimuli/56.png,56,9,31,,,,,,,30,,,,,,,,913.4716665999731,913.4716665999731,913.4716665999731,913.4716665999731,913.4716665999731,-35,-31,0.4,0.16,return,1.5237763000186533,11,0,0,1,0.4,0.16,return,1.4203077999409288,911.8924261999782,913.4716665999731,0.24,0,0.0,0.32,0.0,0.24,0.4,0.24,0,910.2644484998891,910.2644484998891,910.2644484998891,910.2644484998891,910.2644484998891,910.2644484998891,910.2644484998891,910.2644484998891,910.2569355399814,1.7370897000655532,return,1.6015766999917105,,,,,,,,,,,,,,,,,,,,,,,,,,,,,,,,,5ZG5RV,train_x,red_square,top_right,2025-05-22_17h37.59.605,HideSeek_v1,2022.2.5,59.962463491255015,
,,,,,,,,,,,30,,,,2,0,2,0,,,,,,,,,,,,,,,,,,,,,,,,,,,,,,,,,,,,,,,,,,,,,,,,,,,,,,,,,,,,,,,,,,,,,,,,,,stimuli/alien_stimuli/16.png,16,7,32,21,0.7,0.45833333333333337,1,1,1,30,0,conditions/schedules/train_x_first/red_square_00/top_right/inputTrain_2.1.xlsx,99,1,2,1,0,,,,,,,,,,,,,,,1,,,,,917.546977299964,919.0935968999984,0.4,0.16,0.0,0.0,0.16,0.4,0.4,0.4,0.16,916.5405282999855,916.5405282999855,916.5405282999855,916.5405282999855,916.5405282999855,916.5405282999855,916.5405282999855,916.5405282999855,916.5287167399424,1.1191471000202,return,0.9774282000726089,0,0.9,0,1,11,,,,,,,,,,,,,,,,,,,,,,,,,,,,5ZG5RV,train_x,red_square,top_right,2025-05-22_17h37.59.605,HideSeek_v1,2022.2.5,59.962463491255015,
,,,,,,,,,,,,,,,3,0,3,0,0,0,0,0,,,,,,,,,,,,,,,,,,,,,,,,,,,,,,,conditions/schedules/train_x_first/red_square_00/top_right/instructions/Slide17.png,conditions/schedules/train_x_first/red_square_00/top_right/instructions/Audio17.wav,919.0935968999984,919.0813753599301,17,"[14.697749399929307, 18.676705799996853, 16.612590400036424, 19.173294400097802, 4.321280000032857, 4.919898999971338, 5.4343816000036895, 11.423357000108808, 5.605047199991532, 6.583585000014864, 9.366495599970222, 12.474313299986534, 18.115567700006068, 13.220612299977802, 30.469219500082545, 21.33999120001681, 37.76738440000918]","[0.0002532999496906996, 0.00021590001415461302, 16.612596999970265, 0.00021169998217374086, 0.031658600084483624, 0.03094339999370277, 0.04739380010869354, 0.0669798000017181, 0.04679319995921105, 0.048222400015220046, 0.048561800038442016, 12.474320100038312, 18.115575599949807, 13.22062050004024, 0.03516900003887713, 21.339998799958266, 37.76739170006476]",0,,,,,,,,,,,,,,,,,,,,,,,,,,,,,,,,,,,,,,,,,,,,,,,,,,,,,,,,,,,,,,,,,,,,,,,,,,,,,,,,,,,,,,,,,,,,,,,,,,,,,,,,,,,,,,,,,,,,,,,,,,,,5ZG5RV,train_x,red_square,top_right,2025-05-22_17h37.59.605,HideSeek_v1,2022.2.5,59.962463491255015,
,,,,,,,,,,,,,,,3,0,3,0,1,0,1,0,,,,,,,,,,,,,,,,,,,,,,,,,,,,,,,conditions/schedules/train_x_first/red_square_00/top_right/instructions/Slide18.png,conditions/schedules/train_x_first/red_square_00/top_right/instructions/Audio18.wav,956.9175979999127,956.912801779993,18,"[14.697749399929307, 18.676705799996853, 16.612590400036424, 19.173294400097802, 4.321280000032857, 4.919898999971338, 5.4343816000036895, 11.423357000108808, 5.605047199991532, 6.583585000014864, 9.366495599970222, 12.474313299986534, 18.115567700006068, 13.220612299977802, 30.469219500082545, 21.33999120001681, 37.76738440000918, 6.031208299915306]","[0.0002532999496906996, 0.00021590001415461302, 16.612596999970265, 0.00021169998217374086, 0.031658600084483624, 0.03094339999370277, 0.04739380010869354, 0.0669798000017181, 0.04679319995921105, 0.048222400015220046, 0.048561800038442016, 12.474320100038312, 18.115575599949807, 13.22062050004024, 0.03516900003887713, 21.339998799958266, 37.76739170006476, 6.0312147999648005]",0,,,,,,,,,,,,,,,,,,,,,,,,,,,,,,,,,,,,,,,,,,,,,,,,,,,,,,,,,,,,,,,,,,,,,,,,,,,,,,,,,,,,,,,,,,,,,,,,,,,,,,,,,,,,,,,,,,,,,,,,,,,,5ZG5RV,train_x,red_square,top_right,2025-05-22_17h37.59.605,HideSeek_v1,2022.2.5,59.962463491255015,
,,,,,,,,,,,,,,,3,0,3,0,2,0,2,0,,,,,,,,,,,,,,,,,,,,,,,,,,,,,,,conditions/schedules/train_x_first/red_square_00/top_right/instructions/Slide19.png,conditions/schedules/train_x_first/red_square_00/top_right/instructions/Audio19.wav,962.9883186999941,962.9843015599996,19,"[14.697749399929307, 18.676705799996853, 16.612590400036424, 19.173294400097802, 4.321280000032857, 4.919898999971338, 5.4343816000036895, 11.423357000108808, 5.605047199991532, 6.583585000014864, 9.366495599970222, 12.474313299986534, 18.115567700006068, 13.220612299977802, 30.469219500082545, 21.33999120001681, 37.76738440000918, 6.031208299915306, 10.169358600047417]","[0.0002532999496906996, 0.00021590001415461302, 16.612596999970265, 0.00021169998217374086, 0.031658600084483624, 0.03094339999370277, 0.04739380010869354, 0.0669798000017181, 0.04679319995921105, 0.048222400015220046, 0.048561800038442016, 12.474320100038312, 18.115575599949807, 13.22062050004024, 0.03516900003887713, 21.339998799958266, 37.76739170006476, 0.04592239996418357, 10.16936609998811]",0,,,,,,,,,,,,,,,,,,,,,,,,,,,,,,,,,,,,,,,,,,,,,,,,,,,,,,,,,,,,,,,,,,,,,,,,,,,,,,,,,,,,,,,,,,,,,,,,,,,,,,,,,,,,,,,,,,,,,,,,,,,,5ZG5RV,train_x,red_square,top_right,2025-05-22_17h37.59.605,HideSeek_v1,2022.2.5,59.962463491255015,
,,,,,,,,,,,,,,,3,0,3,0,3,0,3,0,,,,,,,,,,,,,,,,,,,,,,,,,,,,,,,conditions/schedules/train_x_first/red_square_00/top_right/instructions/Slide20.png,conditions/schedules/train_x_first/red_square_00/top_right/instructions/Audio20.wav,973.2302459999919,973.2261622999795,20,"[14.697749399929307, 18.676705799996853, 16.612590400036424, 19.173294400097802, 4.321280000032857, 4.919898999971338, 5.4343816000036895, 11.423357000108808, 5.605047199991532, 6.583585000014864, 9.366495599970222, 12.474313299986534, 18.115567700006068, 13.220612299977802, 30.469219500082545, 21.33999120001681, 37.76738440000918, 6.031208299915306, 10.169358600047417, 14.105621099937707]","[0.0002532999496906996, 0.00021590001415461302, 16.612596999970265, 0.00021169998217374086, 0.031658600084483624, 0.03094339999370277, 0.04739380010869354, 0.0669798000017181, 0.04679319995921105, 0.048222400015220046, 0.048561800038442016, 12.474320100038312, 18.115575599949807, 13.22062050004024, 0.03516900003887713, 21.339998799958266, 37.76739170006476, 0.04592239996418357, 0.04650489997584373, 14.10562749998644]",0,,,,,,,,,,,,,,,,,,,,,,,,,,,,,,,,,,,,,,,,,,,,,,,,,,,,,,,,,,,,,,,,,,,,,,,,,,,,,,,,,,,,,,,,,,,,,,,,,,,,,,,,,,,,,,,,,,,,,,,,,,,,5ZG5RV,train_x,red_square,top_right,2025-05-22_17h37.59.605,HideSeek_v1,2022.2.5,59.962463491255015,
