trialInstr,x_fixStart,y_fixStart,x_corrSteps,y_corrSteps,x_nrSteps,y_nrSteps,alienID,trialLength,version,trialTrain,praclen,testlen,trial_label,break_on_off,beforeExpLoop.thisRepN,beforeExpLoop.thisTrialN,beforeExpLoop.thisN,beforeExpLoop.thisIndex,mini_instr_trials.thisRepN,mini_instr_trials.thisTrialN,mini_instr_trials.thisN,mini_instr_trials.thisIndex,instrLoop.thisRepN,instrLoop.thisTrialN,instrLoop.thisN,instrLoop.thisIndex,repeat_prac.thisRepN,repeat_prac.thisTrialN,repeat_prac.thisN,repeat_prac.thisIndex,trainLoop.thisRepN,trainLoop.thisTrialN,trainLoop.thisN,trainLoop.thisIndex,moveLoop_train.thisRepN,moveLoop_train.thisTrialN,moveLoop_train.thisN,moveLoop_train.thisIndex,experiment.thisRepN,experiment.thisTrialN,experiment.thisN,experiment.thisIndex,moveLoop_test.thisRepN,moveLoop_test.thisTrialN,moveLoop_test.thisN,moveLoop_test.thisIndex,mini_instr2_trials.thisRepN,mini_instr2_trials.thisTrialN,mini_instr2_trials.thisN,mini_instr2_trials.thisIndex,start_all_time,url,slideStim,audioStim,slides.started,sounds.started,nextButton.numClicks,nextButton.timesOn,nextButton.timesOff,prev_but.numClicks,prev_but.timesOn,prev_but.timesOff,alienStim,instrFile,alienStim_instr,gridImage_instr.started,startPos_3.started,key_instr.started,alienImage_3.started,sounds_1.started,key_instr.keys,key_instr.rt,all_x,all_y,FBy_corrSteps,FBy_fixStart,FBx_corrSteps,FBx_fixStart,FBy_pathSize_check,FBx_pathSize_check,gridImage_9.started,alienImageFB_3.started,startPosFB_3.started,keyFB_3.started,pathLine_ydir_2.started,pathLine_xdir_2.started,alienFace_3.started,sounds_2.started,RTFB_instr,keyFB_3.keys,keyFB_3.rt,draw_alienStim,draw_alienID,test_x,nrepcount,perfthres,percthres,earlierperf,earlystop,nextPrac,fileidx,praclen,saveACC_train,pracFile,nextPrac_train,addNrep,fileidx_endr,repExp,showearly,gridImage_4.started,startPos.started,movePos.started,key_resp.started,alienImage.started,buttonPress_train,RTchoice_train,cumAcctrain,aCorr,saveACC_choice,corrAns,x_movePos_end,y_movePos_end,key_resp.keys,key_resp.rt,wLy_dir,wLx_dir,x_movePos,y_movePos,text_2.started,text_2.stopped,aft_x_corrPos,aft_y_corrPos,y_pathSize_check,x_pathSize_check,y_pathdirY,x_pathdirY,x_pathdirX,x_corrPos,y_corrPos,gridImage_6.started,alienImageFB_2.started,startPosFB_2.started,movePosFB_2.started,keyFB_2.started,pathLine_xdir.started,pathLine_ydir.started,alienFace.started,sounds_4.started,RT_FBtrain,keyFB_2.keys,keyFB_2.rt,saveACC_pre,ACC,within_saveACC_train,earlystop_wloop,cumAcctrain_check,gridImage_3.started,alienImage_test.started,startPos_test.started,movePos_test.started,key_resp_test.started,wLy_dir_test,wLx_dir_test,buttonPress_test,RTchoice_test,cumAcctest,corrAns_test,key_resp_test.keys,key_resp_test.rt,text_3.started,text_3.stopped,total_time,end_all_time,key_resp_3.keys,slides_2.started,sounds_3.started,nextButton_2.numClicks,nextButton_2.timesOn,nextButton_2.timesOff,prev_but_2.numClicks,prev_but_2.timesOn,prev_but_2.timesOff,bye.started,participant,train_first,00_coordinate,starting corner,date,expName,psychopyVersion,frameRate,
,,,,,,,,,,,,,,,0,0,0,0,0,0,0,0,,,,,,,,,,,,,,,,,,,,,,,,,,,,,start_all_time,testround,conditions/schedules/train_y_first/blue_star_00/bottom_right/instructions/Slide1.png,conditions/schedules/train_y_first/blue_star_00/bottom_right/instructions/Audio1.wav,1540.0167875000043,1539.970511119417,1,[4.598909199994523],[4.598917499999516],0,,,,,,,,,,,,,,,,,,,,,,,,,,,,,,,,,,,,,,,,,,,,,,,,,,,,,,,,,,,,,,,,,,,,,,,,,,,,,,,,,,,,,,,,,,,,,,,,,,,,,,,,,,,,,,,,,,,,,,,,,,,,6DG01A,train_y,blue_star,bottom_right,2025-05-19_17h57.08.244,HideSeek_v1,2022.2.5,59.8538249904241,
,,,,,,,,,,,,,,,0,0,0,0,1,0,1,0,,,,,,,,,,,,,,,,,,,,,,,,,,,,,,,conditions/schedules/train_y_first/blue_star_00/bottom_right/instructions/Slide2.png,conditions/schedules/train_y_first/blue_star_00/bottom_right/instructions/Audio2.wav,1544.6338919000118,1544.6213923400153,2,"[4.598909199994523, 17.867179799999576]","[0.01460260001476854, 17.86718630004907]",0,,,,,,,,,,,,,,,,,,,,,,,,,,,,,,,,,,,,,,,,,,,,,,,,,,,,,,,,,,,,,,,,,,,,,,,,,,,,,,,,,,,,,,,,,,,,,,,,,,,,,,,,,,,,,,,,,,,,,,,,,,,,6DG01A,train_y,blue_star,bottom_right,2025-05-19_17h57.08.244,HideSeek_v1,2022.2.5,59.8538249904241,
,,,,,,,,,,,,,,,0,0,0,0,2,0,2,0,,,,,,,,,,,,,,,,,,,,,,,,,,,,,,,conditions/schedules/train_y_first/blue_star_00/bottom_right/instructions/Slide3.png,conditions/schedules/train_y_first/blue_star_00/bottom_right/instructions/Audio3.wav,1562.5876130000106,1562.586485859973,3,"[4.598909199994523, 17.867179799999576, 16.526930200052448]","[0.01460260001476854, 0.01425160001963377, 16.526937300048303]",0,,,,,,,,,,,,,,,,,,,,,,,,,,,,,,,,,,,,,,,,,,,,,,,,,,,,,,,,,,,,,,,,,,,,,,,,,,,,,,,,,,,,,,,,,,,,,,,,,,,,,,,,,,,,,,,,,,,,,,,,,,,,6DG01A,train_y,blue_star,bottom_right,2025-05-19_17h57.08.244,HideSeek_v1,2022.2.5,59.8538249904241,
,,,,,,,,,,,,,,,0,0,0,0,3,0,3,0,,,,,,,,,,,,,,,,,,,,,,,,,,,,,,,conditions/schedules/train_y_first/blue_star_00/bottom_right/instructions/Slide4.png,conditions/schedules/train_y_first/blue_star_00/bottom_right/instructions/Audio4.wav,1579.1964545000228,1579.1836566499842,4,"[4.598909199994523, 17.867179799999576, 16.526930200052448, 19.05068649997702]","[0.01460260001476854, 0.01425160001963377, 0.03500730002997443, 19.05069360003108]",0,,,,,,,,,,,,,,,,,,,,,,,,,,,,,,,,,,,,,,,,,,,,,,,,,,,,,,,,,,,,,,,,,,,,,,,,,,,,,,,,,,,,,,,,,,,,,,,,,,,,,,,,,,,,,,,,,,,,,,,,,,,,6DG01A,train_y,blue_star,bottom_right,2025-05-19_17h57.08.244,HideSeek_v1,2022.2.5,59.8538249904241,
,,,,,,,,,,,,,,,0,0,0,0,4,0,4,0,,,,,,,,,,,,,,,,,,,,,,,,,,,,,,,conditions/schedules/train_y_first/blue_star_00/bottom_right/instructions/Slide5.png,conditions/schedules/train_y_first/blue_star_00/bottom_right/instructions/Audio5.wav,1598.3165513999993,1598.3162811500079,5,"[4.598909199994523, 17.867179799999576, 16.526930200052448, 19.05068649997702, 4.0165867999894544]","[0.01460260001476854, 0.01425160001963377, 0.03500730002997443, 0.046942199987825006, 4.016594799992163]",0,,,,,,,,,,,,,,,,,,,,,,,,,,,,,,,,,,,,,,,,,,,,,,,,,,,,,,,,,,,,,,,,,,,,,,,,,,,,,,,,,,,,,,,,,,,,,,,,,,,,,,,,,,,,,,,,,,,,,,,,,,,,6DG01A,train_y,blue_star,bottom_right,2025-05-19_17h57.08.244,HideSeek_v1,2022.2.5,59.8538249904241,
,,,,,,,,,,,,,,,0,0,0,0,5,0,5,0,,,,,,,,,,,,,,,,,,,,,,,,,,,,,,,conditions/schedules/train_y_first/blue_star_00/bottom_right/instructions/Slide6.png,conditions/schedules/train_y_first/blue_star_00/bottom_right/instructions/Audio6.wav,1602.3849356999854,1602.386148639978,6,"[4.598909199994523, 17.867179799999576, 16.526930200052448, 19.05068649997702, 4.0165867999894544, 4.335740299953613]","[0.01460260001476854, 0.01425160001963377, 0.03500730002997443, 0.046942199987825006, 0.06517399998847395, 4.33574749995023]",0,,,,,,,,,,,,,,,,,,,,,,,,,,,,,,,,,,,,,,,,,,,,,,,,,,,,,,,,,,,,,,,,,,,,,,,,,,,,,,,,,,,,,,,,,,,,,,,,,,,,,,,,,,,,,,,,,,,,,,,,,,,,6DG01A,train_y,blue_star,bottom_right,2025-05-19_17h57.08.244,HideSeek_v1,2022.2.5,59.8538249904241,
,,,,,,,,,,,,,,,0,0,0,0,6,0,6,0,,,,,,,,,,,,,,,,,,,,,,,,,,,,,,,conditions/schedules/train_y_first/blue_star_00/bottom_right/instructions/Slide7.png,conditions/schedules/train_y_first/blue_star_00/bottom_right/instructions/Audio7.wav,1606.7739993000287,1606.7732670399944,7,"[4.598909199994523, 17.867179799999576, 16.526930200052448, 19.05068649997702, 4.0165867999894544, 4.335740299953613, 5.034024699998554]","[0.01460260001476854, 0.01425160001963377, 0.03500730002997443, 0.046942199987825006, 0.06517399998847395, 0.07963150000432506, 5.0340318999951705]",0,,,,,,,,,,,,,,,,,,,,,,,,,,,,,,,,,,,,,,,,,,,,,,,,,,,,,,,,,,,,,,,,,,,,,,,,,,,,,,,,,,,,,,,,,,,,,,,,,,,,,,,,,,,,,,,,,,,,,,,,,,,,6DG01A,train_y,blue_star,bottom_right,2025-05-19_17h57.08.244,HideSeek_v1,2022.2.5,59.8538249904241,
,,,,,,,,,,,,,,,0,0,0,0,7,0,7,0,,,,,,,,,,,,,,,,,,,,,,,,,,,,,,,conditions/schedules/train_y_first/blue_star_00/bottom_right/instructions/Slide8.png,conditions/schedules/train_y_first/blue_star_00/bottom_right/instructions/Audio8.wav,1611.8608117999975,1611.8607906400227,8,"[4.598909199994523, 17.867179799999576, 16.526930200052448, 19.05068649997702, 4.0165867999894544, 4.335740299953613, 5.034024699998554, 11.840587400016375]","[0.01460260001476854, 0.01425160001963377, 0.03500730002997443, 0.046942199987825006, 0.06517399998847395, 0.07963150000432506, 0.0977347000152804, 11.840594600012992]",0,,,,,,,,,,,,,,,,,,,,,,,,,,,,,,,,,,,,,,,,,,,,,,,,,,,,,,,,,,,,,,,,,,,,,,,,,,,,,,,,,,,,,,,,,,,,,,,,,,,,,,,,,,,,,,,,,,,,,,,,,,,,6DG01A,train_y,blue_star,bottom_right,2025-05-19_17h57.08.244,HideSeek_v1,2022.2.5,59.8538249904241,
,,,,,,,,,,,,,,,0,0,0,0,8,0,8,0,,,,,,,,,,,,,,,,,,,,,,,,,,,,,,,conditions/schedules/train_y_first/blue_star_00/bottom_right/instructions/Slide9.png,conditions/schedules/train_y_first/blue_star_00/bottom_right/instructions/Audio9.wav,1623.7672064999933,1623.7538482399775,9,"[4.598909199994523, 17.867179799999576, 16.526930200052448, 19.05068649997702, 4.0165867999894544, 4.335740299953613, 5.034024699998554, 11.840587400016375, 5.92332780000288]","[0.01460260001476854, 0.01425160001963377, 0.03500730002997443, 0.046942199987825006, 0.06517399998847395, 0.07963150000432506, 0.0977347000152804, 0.03462250001030043, 5.92333590000635]",0,,,,,,,,,,,,,,,,,,,,,,,,,,,,,,,,,,,,,,,,,,,,,,,,,,,,,,,,,,,,,,,,,,,,,,,,,,,,,,,,,,,,,,,,,,,,,,,,,,,,,,,,,,,,,,,,,,,,,,,,,,,,6DG01A,train_y,blue_star,bottom_right,2025-05-19_17h57.08.244,HideSeek_v1,2022.2.5,59.8538249904241,
,,,,,,,,,,,,,,,0,0,0,0,9,0,9,0,,,,,,,,,,,,,,,,,,,,,,,,,,,,,,,conditions/schedules/train_y_first/blue_star_00/bottom_right/instructions/Slide10.png,conditions/schedules/train_y_first/blue_star_00/bottom_right/instructions/Audio10.wav,1629.7283577999915,1629.7253786300018,10,"[4.598909199994523, 17.867179799999576, 16.526930200052448, 19.05068649997702, 4.0165867999894544, 4.335740299953613, 5.034024699998554, 11.840587400016375, 5.92332780000288, 6.782900199992582]","[0.01460260001476854, 0.01425160001963377, 0.03500730002997443, 0.046942199987825006, 0.06517399998847395, 0.07963150000432506, 0.0977347000152804, 0.03462250001030043, 0.1108583000022918, 6.782906899985392]",0,,,,,,,,,,,,,,,,,,,,,,,,,,,,,,,,,,,,,,,,,,,,,,,,,,,,,,,,,,,,,,,,,,,,,,,,,,,,,,,,,,,,,,,,,,,,,,,,,,,,,,,,,,,,,,,,,,,,,,,,,,,,6DG01A,train_y,blue_star,bottom_right,2025-05-19_17h57.08.244,HideSeek_v1,2022.2.5,59.8538249904241,
,,,,,,,,,,,,,,,0,0,0,0,10,0,10,0,,,,,,,,,,,,,,,,,,,,,,,,,,,,,,,conditions/schedules/train_y_first/blue_star_00/bottom_right/instructions/Slide11.png,conditions/schedules/train_y_first/blue_star_00/bottom_right/instructions/Audio11.wav,1636.5521028999938,1636.547800329997,11,"[4.598909199994523, 17.867179799999576, 16.526930200052448, 19.05068649997702, 4.0165867999894544, 4.335740299953613, 5.034024699998554, 11.840587400016375, 5.92332780000288, 6.782900199992582, 10.368631099991035]","[0.01460260001476854, 0.01425160001963377, 0.03500730002997443, 0.046942199987825006, 0.06517399998847395, 0.07963150000432506, 0.0977347000152804, 0.03462250001030043, 0.1108583000022918, 0.09618150000460446, 10.368637699983083]",0,,,,,,,,,,,,,,,,,,,,,,,,,,,,,,,,,,,,,,,,,,,,,,,,,,,,,,,,,,,,,,,,,,,,,,,,,,,,,,,,,,,,,,,,,,,,,,,,,,,,,,,,,,,,,,,,,,,,,,,,,,,,6DG01A,train_y,blue_star,bottom_right,2025-05-19_17h57.08.244,HideSeek_v1,2022.2.5,59.8538249904241,
,,,,,,,,,,,,,,,0,0,0,0,11,0,11,0,,,,,,,,,,,,,,,,,,,,,,,,,,,,,,,conditions/schedules/train_y_first/blue_star_00/bottom_right/instructions/Slide12.png,conditions/schedules/train_y_first/blue_star_00/bottom_right/instructions/Audio12.wav,1646.9879587999894,1646.989990550006,12,"[4.598909199994523, 17.867179799999576, 16.526930200052448, 19.05068649997702, 4.0165867999894544, 4.335740299953613, 5.034024699998554, 11.840587400016375, 5.92332780000288, 6.782900199992582, 10.368631099991035, 13.594703400041908]","[0.01460260001476854, 0.01425160001963377, 0.03500730002997443, 0.046942199987825006, 0.06517399998847395, 0.07963150000432506, 0.0977347000152804, 0.03462250001030043, 0.1108583000022918, 0.09618150000460446, 0.11636540002655238, 13.594711200043093]",0,,,,,,,,,,,,,,,,,,,,,,,,,,,,,,,,,,,,,,,,,,,,,,,,,,,,,,,,,,,,,,,,,,,,,,,,,,,,,,,,,,,,,,,,,,,,,,,,,,,,,,,,,,,,,,,,,,,,,,,,,,,,6DG01A,train_y,blue_star,bottom_right,2025-05-19_17h57.08.244,HideSeek_v1,2022.2.5,59.8538249904241,
1,5,3,5,8,0,5,66,2,instr_dim1_1,,,,,,0,0,0,0,,,,,0,0,0,0,,,,,,,,,,,,,,,,,,,,,,,,,,,,,,,,,,,,,stimuli/alien_stimuli/66.png,conditions/schedules/train_y_first/blue_star_00/bottom_right/inputInstr_1.xlsx,stimuli/alien_stimuli/66.png,1660.6846401999937,1660.6846401999937,1660.6846401999937,1660.6846401999937,1660.6846148699815,return,10.551348700013477,"[-0.16, -0.08, 0, 0.08, 0.16, 0.24, 0.32, 0.4, 0.48, 0.56]","[-0.4, -0.32, -0.24, -0.16, -0.08, 0, 0.08, 0.16, 0.24, 0.32]",8,3,5,5,0.4,0.0,1671.3944421000197,1671.3944421000197,1671.3944421000197,1671.3944421000197,1671.3944421000197,1671.3944421000197,1671.3944421000197,1671.3765614799806,9.675734299991746,return,9.523142000020016,stimuli/alien_stimuli/66.png,66,5,1,,,,,,,,,,,,,,,,,,,,,,,,,,,,,,,,,,,,,,,,,,,,,,,,,,,,,,,,,,,,,,,,,,,,,,,,,,,,,,,,,,,,,,,,,6DG01A,train_y,blue_star,bottom_right,2025-05-19_17h57.08.244,HideSeek_v1,2022.2.5,59.8538249904241,
,,,,,,,,,,,30,,,,0,0,0,0,,,,,,,,,,,,,,,,,,,,,,,,,,,,,,,,,,,,,,,,,,,,,,,,,,,,,,,,,,,,,,,,,,,,,,,,,,,,,,21,0.7,0,0,99,1,30,0,conditions/schedules/train_y_first/blue_star_00/bottom_right/inputTrain_1.1.xlsx,99,1,1,1,0,,,,,,,,,,,,,,,,,,,,,,,,,,,,,,,,,,,,,,,,,,,,,,,,,,,,,,,,,,,,,,,,,,,,,,,,,,,6DG01A,train_y,blue_star,bottom_right,2025-05-19_17h57.08.244,HideSeek_v1,2022.2.5,59.8538249904241,
,,,,,,,,,,,,,,,1,0,1,0,0,0,0,0,,,,,,,,,,,,,,,,,,,,,,,,,,,,,,,conditions/schedules/train_y_first/blue_star_00/bottom_right/instructions/Slide13.png,conditions/schedules/train_y_first/blue_star_00/bottom_right/instructions/Audio13.wav,1681.0661147999926,1681.0679450900004,13,"[4.598909199994523, 17.867179799999576, 16.526930200052448, 19.05068649997702, 4.0165867999894544, 4.335740299953613, 5.034024699998554, 11.840587400016375, 5.92332780000288, 6.782900199992582, 10.368631099991035, 13.594703400041908, 17.347348899987992]","[0.01460260001476854, 0.01425160001963377, 0.03500730002997443, 0.046942199987825006, 0.06517399998847395, 0.07963150000432506, 0.0977347000152804, 0.03462250001030043, 0.1108583000022918, 0.09618150000460446, 0.11636540002655238, 13.594711200043093, 17.3473555999808]",0,,,,,,,,,,,,,,,,,,,,,,,,,,,,,,,,,,,,,,,,,,,,,,,,,,,,,,,,,,,,,,,,,,,,,,,,,,,,,,,,,,,,,,,,,,,,,,,,,,,,,,,,,,,,,,,,,,,,,,,,,,,,6DG01A,train_y,blue_star,bottom_right,2025-05-19_17h57.08.244,HideSeek_v1,2022.2.5,59.8538249904241,
,,,,,,,,,,,,,,,1,0,1,0,1,0,1,0,,,,,,,,,,,,,,,,,,,,,,,,,,,,,,,conditions/schedules/train_y_first/blue_star_00/bottom_right/instructions/Slide14.png,conditions/schedules/train_y_first/blue_star_00/bottom_right/instructions/Audio14.wav,1698.4786733000074,1698.4662497400075,14,"[4.598909199994523, 17.867179799999576, 16.526930200052448, 19.05068649997702, 4.0165867999894544, 4.335740299953613, 5.034024699998554, 11.840587400016375, 5.92332780000288, 6.782900199992582, 10.368631099991035, 13.594703400041908, 17.347348899987992, 16.464975099952426]","[0.01460260001476854, 0.01425160001963377, 0.03500730002997443, 0.046942199987825006, 0.06517399998847395, 0.07963150000432506, 0.0977347000152804, 0.03462250001030043, 0.1108583000022918, 0.09618150000460446, 0.11636540002655238, 13.594711200043093, 0.051332300005014986, 16.464982000004966]",0,,,,,,,,,,,,,,,,,,,,,,,,,,,,,,,,,,,,,,,,,,,,,,,,,,,,,,,,,,,,,,,,,,,,,,,,,,,,,,,,,,,,,,,,,,,,,,,,,,,,,,,,,,,,,,,,,,,,,,,,,,,,6DG01A,train_y,blue_star,bottom_right,2025-05-19_17h57.08.244,HideSeek_v1,2022.2.5,59.8538249904241,
2,7,3,7,3,0,0,61,2,instr_dim1_1,,,,,,1,0,1,0,,,,,0,0,0,0,,,,,,,,,,,,,,,,,,,,,,,,,,,,,,,,,,,,,stimuli/alien_stimuli/61.png,conditions/schedules/train_y_first/blue_star_00/bottom_right/inputInstr_1.xlsx,stimuli/alien_stimuli/61.png,1715.0368410000228,1715.0368410000228,1715.0368410000228,1715.0368410000228,1715.0296113599675,return,7.32237680000253,"[-0.16, -0.08, 0, 0.08, 0.16, 0.24, 0.32, 0.4, 0.48, 0.56]","[-0.4, -0.32, -0.24, -0.16, -0.08, 0, 0.08, 0.16, 0.24, 0.32]",3,3,7,7,0.0,0.0,1722.495132800017,1722.495132800017,1722.495132800017,1722.495132800017,1722.495132800017,1722.495132800017,1722.495132800017,1722.4854925700174,7.90808660001494,return,7.769219600013457,stimuli/alien_stimuli/61.png,61,7,2,,,,,,,,,,,,,,,,,,,,,,,,,,,,,,,,,,,,,,,,,,,,,,,,,,,,,,,,,,,,,,,,,,,,,,,,,,,,,,,,,,,,,,,,,6DG01A,train_y,blue_star,bottom_right,2025-05-19_17h57.08.244,HideSeek_v1,2022.2.5,59.8538249904241,
,,,,,,,,,,,30,,,,1,0,1,0,,,,,,,,,,,,,,,,,,,,,,,,,,,,,,,,,,,,,,,,,,,,,,,,,,,,,,,,,,,,,,,,,,,,,,,,,,,,,,21,0.7,0,0,99,1,30,0,conditions/schedules/train_y_first/blue_star_00/bottom_right/inputTrain_1.1.xlsx,99,1,1,1,0,,,,,,,,,,,,,,,,,,,,,,,,,,,,,,,,,,,,,,,,,,,,,,,,,,,,,,,,,,,,,,,,,,,,,,,,,,,6DG01A,train_y,blue_star,bottom_right,2025-05-19_17h57.08.244,HideSeek_v1,2022.2.5,59.8538249904241,
,,,,,,,,,,,,,,,2,0,2,0,0,0,0,0,,,,,,,,,,,,,,,,,,,,,,,,,,,,,,,conditions/schedules/train_y_first/blue_star_00/bottom_right/instructions/Slide15.png,conditions/schedules/train_y_first/blue_star_00/bottom_right/instructions/Audio15.wav,1730.4460392000037,1730.442534199974,15,"[4.598909199994523, 17.867179799999576, 16.526930200052448, 19.05068649997702, 4.0165867999894544, 4.335740299953613, 5.034024699998554, 11.840587400016375, 5.92332780000288, 6.782900199992582, 10.368631099991035, 13.594703400041908, 17.347348899987992, 16.464975099952426, 42.478797299962025]","[0.01460260001476854, 0.01425160001963377, 0.03500730002997443, 0.046942199987825006, 0.06517399998847395, 0.07963150000432506, 0.0977347000152804, 0.03462250001030043, 0.1108583000022918, 0.09618150000460446, 0.11636540002655238, 13.594711200043093, 0.051332300005014986, 16.464982000004966, 42.478804200014565]",0,,,,,,,,,,,,,,,,,,,,,,,,,,,,,,,,,,,,,,,,,,,,,,,,,,,,,,,,,,,,,,,,,,,,,,,,,,,,,,,,,,,,,,,,,,,,,,,,,,,,,,,,,,,,,,,,,,,,,,,,,,,,6DG01A,train_y,blue_star,bottom_right,2025-05-19_17h57.08.244,HideSeek_v1,2022.2.5,59.8538249904241,
,,,,,,,,,,,,,,,2,0,2,0,1,0,1,0,,,,,,,,,,,,,,,,,,,,,,,,,,,,,,,conditions/schedules/train_y_first/blue_star_00/bottom_right/instructions/Slide16.png,conditions/schedules/train_y_first/blue_star_00/bottom_right/instructions/Audio16.wav,1772.9981666000094,1772.9945053499832,16,"[4.598909199994523, 17.867179799999576, 16.526930200052448, 19.05068649997702, 4.0165867999894544, 4.335740299953613, 5.034024699998554, 11.840587400016375, 5.92332780000288, 6.782900199992582, 10.368631099991035, 13.594703400041908, 17.347348899987992, 16.464975099952426, 42.478797299962025, 22.345158000010997]","[0.01460260001476854, 0.01425160001963377, 0.03500730002997443, 0.046942199987825006, 0.06517399998847395, 0.07963150000432506, 0.0977347000152804, 0.03462250001030043, 0.1108583000022918, 0.09618150000460446, 0.11636540002655238, 13.594711200043093, 0.051332300005014986, 16.464982000004966, 0.07959900004789233, 22.345164700003807]",0,,,,,,,,,,,,,,,,,,,,,,,,,,,,,,,,,,,,,,,,,,,,,,,,,,,,,,,,,,,,,,,,,,,,,,,,,,,,,,,,,,,,,,,,,,,,,,,,,,,,,,,,,,,,,,,,,,,,,,,,,,,,6DG01A,train_y,blue_star,bottom_right,2025-05-19_17h57.08.244,HideSeek_v1,2022.2.5,59.8538249904241,
,5,0,5,4,0,4,65,,train_dim1_1,1,30,,,,2,0,2,0,,,,,,,,,0,0,0,0,0,0,0,0,0,0,0,0,,,,,,,,,,,,,,,,,,,,,,,,,stimuli/alien_stimuli/65.png,,,,,,,,,,,,,,,,,,,,,,,,,,,,,,,,,,,,,,,30,,,,,,,,1795.4457921999856,1795.4457921999856,1795.4457921999856,1795.4457921999856,1795.4457921999856,up,11.137773199996445,0,0,0,99,0.24,-0.32,up,11.029864199983422,,,,,,,,,,,,,,,,,,,,,,,,,,,,,,,,,,,,,,,,,,,,,,,,,,,,,,,,,,,,6DG01A,train_y,blue_star,bottom_right,2025-05-19_17h57.08.244,HideSeek_v1,2022.2.5,59.8538249904241,
,5,0,5,4,0,4,65,,train_dim1_1,1,30,,,,2,0,2,0,,,,,,,,,0,0,0,0,0,0,0,0,1,0,1,0,,,,,,,,,,,,,,,,,,,,,,,,,,,,,,,,,,,,,,,,,,,,,,,,,,,,,,,,,,,,,,,,30,,,,,,,,1806.587091399997,1806.587091399997,1806.587091399997,1806.587091399997,1806.587091399997,left,1.793631499982439,0,0,0,99,0.15999999999999998,-0.32,left,1.6933370999759063,,,,,,,,,,,,,,,,,,,,,,,,,,,,,,,,,,,,,,,,,,,,,,,,,,,,,,,,,,,,6DG01A,train_y,blue_star,bottom_right,2025-05-19_17h57.08.244,HideSeek_v1,2022.2.5,59.8538249904241,
,5,0,5,4,0,4,65,,train_dim1_1,1,30,,,,2,0,2,0,,,,,,,,,0,0,0,0,0,0,0,0,2,0,2,0,,,,,,,,,,,,,,,,,,,,,,,,,,,,,,,,,,,,,,,,,,,,,,,,,,,,,,,,,,,,,,,,30,,,,,,,,1808.3706543000299,1808.3706543000299,1808.3706543000299,1808.3706543000299,1808.3706543000299,up,4.579830900009256,0,0,0,99,0.15999999999999998,-0.24,up,4.506347099959385,,,,,,,,,,,,,,,,,,,,,,,,,,,,,,,,,,,,,,,,,,,,,,,,,,,,,,,,,,,,6DG01A,train_y,blue_star,bottom_right,2025-05-19_17h57.08.244,HideSeek_v1,2022.2.5,59.8538249904241,
,5,0,5,4,0,4,65,,train_dim1_1,1,30,,,,2,0,2,0,,,,,,,,,0,0,0,0,0,0,0,0,3,0,3,0,,,,,,,,,,,,,,,,,,,,,,,,,,,,,,,,,,,,,,,,,,,,,,,,,,,,,,,,,,,,,,,,30,,,,,,,,1812.9585205999902,1812.9585205999902,1812.9585205999902,1812.9585205999902,1812.9585205999902,up,0.7769103000173345,0,0,0,99,0.15999999999999998,-0.15999999999999998,up,0.6925599000533111,,,,,,,,,,,,,,,,,,,,,,,,,,,,,,,,,,,,,,,,,,,,,,,,,,,,,,,,,,,,6DG01A,train_y,blue_star,bottom_right,2025-05-19_17h57.08.244,HideSeek_v1,2022.2.5,59.8538249904241,
,5,0,5,4,0,4,65,,train_dim1_1,1,30,,,,2,0,2,0,,,,,,,,,0,0,0,0,0,0,0,0,4,0,4,0,,,,,,,,,,,,,,,,,,,,,,,,,,,,,,,,,,,,,,,,,,,,,,,,,,,,,,,,,,,,,,,,30,,,,,,,,1813.7540331999771,1813.7540331999771,1813.7540331999771,1813.7540331999771,1813.7540331999771,up,0.9602879000012763,0,0,0,99,0.15999999999999998,-0.07999999999999997,up,0.8681550000328571,,,,,,,,,,,,,,,,,,,,,,,,,,,,,,,,,,,,,,,,,,,,,,,,,,,,,,,,,,,,6DG01A,train_y,blue_star,bottom_right,2025-05-19_17h57.08.244,HideSeek_v1,2022.2.5,59.8538249904241,
,5,0,5,4,0,4,65,,train_dim1_1,1,30,,,,2,0,2,0,,,,,,,,,0,0,0,0,0,0,0,0,5,0,5,0,,,,,,,,,,,,,,,,,,,,,,,,,,,,,,,,,,,,,,,,,,,,,,,,,,,,,,,,,,,,,,,,30,,,,,,,,1814.7104546999908,1814.7104546999908,1814.7104546999908,1814.7104546999908,1814.7104546999908,left,3.378233299998101,0,0,0,99,0.07999999999999997,-0.07999999999999997,left,3.297080599993933,,,,,,,,,,,,,,,,,,,,,,,,,,,,,,,,,,,,,,,,,,,,,,,,,,,,,,,,,,,,6DG01A,train_y,blue_star,bottom_right,2025-05-19_17h57.08.244,HideSeek_v1,2022.2.5,59.8538249904241,
,5,0,5,4,0,4,65,,train_dim1_1,1,30,,,,2,0,2,0,,,,,,,,,0,0,0,0,0,0,0,0,6,0,6,0,,,,,,,,,,,,,,,,,,,,,,,,,,,,,,,,,,,,,,,,,,,,,,,,,,,,,,,,,,,,,,,,30,,,,,,,,1818.094806100009,1818.094806100009,1818.094806100009,1818.094806100009,1818.094806100009,return,2.528360199998133,0,0,0,0,0.07999999999999997,-0.07999999999999997,return,2.451039600011427,4,-2,0.07999999999999997,-0.07999999999999997,,,,,,,,,,,,,,,,,,,,,,,,,,,,,,,,,,,,,,,,,,,,,,,,,,,,,,,,6DG01A,train_y,blue_star,bottom_right,2025-05-19_17h57.08.244,HideSeek_v1,2022.2.5,59.8538249904241,
,8,2,8,7,0,5,66,,train_dim1_1,2,30,,,,2,0,2,0,,,,,,,,,0,0,0,0,0,1,1,1,0,0,0,0,,,,,,,,,,,,,,,,,,,,,,,,,stimuli/alien_stimuli/66.png,,,,,,,,,,,,,,,,,,,,,,,,,,,,,stimuli/alien_stimuli/65.png,65,5,3,,,,,,,30,,,,,,,,1845.0502769000013,1845.0502769000013,1845.0502769000013,1845.0502769000013,1845.0502769000013,up,4.307480299961753,0,0,0,99,0.48,-0.15999999999999998,up,4.223746399977244,,,,,1843.4858118999982,1845.0502769000013,0.24,-0.08,0.32,0.0,-0.24000000000000002,0.24,0.24,0.24,-0.08,1822.188151200011,1822.188151200011,1822.188151200011,1822.188151200011,1822.188151200011,1822.188151200011,1822.188151200011,1822.188151200011,1822.1850211699903,21.40312550001545,return,21.27161049999995,,,,,,,,,,,,,,,,,,,,,,,,,,,,,,,,,6DG01A,train_y,blue_star,bottom_right,2025-05-19_17h57.08.244,HideSeek_v1,2022.2.5,59.8538249904241,
,8,2,8,7,0,5,66,,train_dim1_1,2,30,,,,2,0,2,0,,,,,,,,,0,0,0,0,0,1,1,1,1,0,1,0,,,,,,,,,,,,,,,,,,,,,,,,,,,,,,,,,,,,,,,,,,,,,,,,,,,,,,,,,,,,,,,,30,,,,,,,,1849.3566649000277,1849.3566649000277,1849.3566649000277,1849.3566649000277,1849.3566649000277,up,0.6252453000051901,0,0,0,99,0.48,-0.07999999999999997,up,0.5451752999797463,,,,,,,,,,,,,,,,,,,,,,,,,,,,,,,,,,,,,,,,,,,,,,,,,,,,,,,,,,,,6DG01A,train_y,blue_star,bottom_right,2025-05-19_17h57.08.244,HideSeek_v1,2022.2.5,59.8538249904241,
,8,2,8,7,0,5,66,,train_dim1_1,2,30,,,,2,0,2,0,,,,,,,,,0,0,0,0,0,1,1,1,2,0,2,0,,,,,,,,,,,,,,,,,,,,,,,,,,,,,,,,,,,,,,,,,,,,,,,,,,,,,,,,,,,,,,,,30,,,,,,,,1849.9882464000257,1849.9882464000257,1849.9882464000257,1849.9882464000257,1849.9882464000257,up,0.8269147000391968,0,0,0,99,0.48,2.7755575615628914e-17,up,0.7494407999911346,,,,,,,,,,,,,,,,,,,,,,,,,,,,,,,,,,,,,,,,,,,,,,,,,,,,,,,,,,,,6DG01A,train_y,blue_star,bottom_right,2025-05-19_17h57.08.244,HideSeek_v1,2022.2.5,59.8538249904241,
,8,2,8,7,0,5,66,,train_dim1_1,2,30,,,,2,0,2,0,,,,,,,,,0,0,0,0,0,1,1,1,3,0,3,0,,,,,,,,,,,,,,,,,,,,,,,,,,,,,,,,,,,,,,,,,,,,,,,,,,,,,,,,,,,,,,,,30,,,,,,,,1850.8235038000275,1850.8235038000275,1850.8235038000275,1850.8235038000275,1850.8235038000275,left,6.347655699995812,0,0,0,99,0.39999999999999997,2.7755575615628914e-17,left,6.2727587999543175,,,,,,,,,,,,,,,,,,,,,,,,,,,,,,,,,,,,,,,,,,,,,,,,,,,,,,,,,,,,6DG01A,train_y,blue_star,bottom_right,2025-05-19_17h57.08.244,HideSeek_v1,2022.2.5,59.8538249904241,
,8,2,8,7,0,5,66,,train_dim1_1,2,30,,,,2,0,2,0,,,,,,,,,0,0,0,0,0,1,1,1,4,0,4,0,,,,,,,,,,,,,,,,,,,,,,,,,,,,,,,,,,,,,,,,,,,,,,,,,,,,,,,,,,,,,,,,30,,,,,,,,1857.1783918000292,1857.1783918000292,1857.1783918000292,1857.1783918000292,1857.1783918000292,up,2.0111335000256076,0,0,0,99,0.39999999999999997,0.08000000000000003,up,1.9218628999660723,,,,,,,,,,,,,,,,,,,,,,,,,,,,,,,,,,,,,,,,,,,,,,,,,,,,,,,,,,,,6DG01A,train_y,blue_star,bottom_right,2025-05-19_17h57.08.244,HideSeek_v1,2022.2.5,59.8538249904241,
,8,2,8,7,0,5,66,,train_dim1_1,2,30,,,,2,0,2,0,,,,,,,,,0,0,0,0,0,1,1,1,5,0,5,0,,,,,,,,,,,,,,,,,,,,,,,,,,,,,,,,,,,,,,,,,,,,,,,,,,,,,,,,,,,,,,,,30,,,,,,,,1859.1961190000293,1859.1961190000293,1859.1961190000293,1859.1961190000293,1859.1961190000293,return,1.5102007000241429,0,0,0,0,0.39999999999999997,0.08000000000000003,return,1.4288607999915257,8,-3,0.39999999999999997,0.08000000000000003,,,,,,,,,,,,,,,,,,,,,,,,,,,,,,,,,,,,,,,,,,,,,,,,,,,,,,,,6DG01A,train_y,blue_star,bottom_right,2025-05-19_17h57.08.244,HideSeek_v1,2022.2.5,59.8538249904241,
,7,3,7,6,0,3,64,,train_dim1_1,3,30,,,,2,0,2,0,,,,,,,,,0,0,0,0,0,2,2,2,0,0,0,0,,,,,,,,,,,,,,,,,,,,,,,,,stimuli/alien_stimuli/64.png,,,,,,,,,,,,,,,,,,,,,,,,,,,,,stimuli/alien_stimuli/66.png,66,8,4,,,,,,,30,,,,,,,,1870.9790218999842,1870.9790218999842,1870.9790218999842,1870.9790218999842,1870.9790218999842,up,2.6222498000133783,0,0,0,99,0.4,-0.08,up,2.5448907999671064,,,,,1869.4243903000024,1870.9790218999842,0.48,0.16,0.4,0.0,-0.039999999999999994,0.48,0.48,0.48,0.16,1862.2777478999924,1862.2777478999924,1862.2777478999924,1862.2777478999924,1862.2777478999924,1862.2777478999924,1862.2777478999924,1862.2777478999924,1862.2682966699767,7.259703400020953,return,7.115341099968646,,,,,,,,,,,,,,,,,,,,,,,,,,,,,,,,,6DG01A,train_y,blue_star,bottom_right,2025-05-19_17h57.08.244,HideSeek_v1,2022.2.5,59.8538249904241,
,7,3,7,6,0,3,64,,train_dim1_1,3,30,,,,2,0,2,0,,,,,,,,,0,0,0,0,0,2,2,2,1,0,1,0,,,,,,,,,,,,,,,,,,,,,,,,,,,,,,,,,,,,,,,,,,,,,,,,,,,,,,,,,,,,,,,,30,,,,,,,,1873.6086241999874,1873.6086241999874,1873.6086241999874,1873.6086241999874,1873.6086241999874,up,0.4923772999900393,0,0,0,99,0.4,0.0,up,0.41477999999187887,,,,,,,,,,,,,,,,,,,,,,,,,,,,,,,,,,,,,,,,,,,,,,,,,,,,,,,,,,,,6DG01A,train_y,blue_star,bottom_right,2025-05-19_17h57.08.244,HideSeek_v1,2022.2.5,59.8538249904241,
,7,3,7,6,0,3,64,,train_dim1_1,3,30,,,,2,0,2,0,,,,,,,,,0,0,0,0,0,2,2,2,2,0,2,0,,,,,,,,,,,,,,,,,,,,,,,,,,,,,,,,,,,,,,,,,,,,,,,,,,,,,,,,,,,,,,,,30,,,,,,,,1874.1145462000277,1874.1145462000277,1874.1145462000277,1874.1145462000277,1874.1145462000277,up,0.4098828000132926,0,0,0,99,0.4,0.08,up,0.3233668999746442,,,,,,,,,,,,,,,,,,,,,,,,,,,,,,,,,,,,,,,,,,,,,,,,,,,,,,,,,,,,6DG01A,train_y,blue_star,bottom_right,2025-05-19_17h57.08.244,HideSeek_v1,2022.2.5,59.8538249904241,
,7,3,7,6,0,3,64,,train_dim1_1,3,30,,,,2,0,2,0,,,,,,,,,0,0,0,0,0,2,2,2,3,0,3,0,,,,,,,,,,,,,,,,,,,,,,,,,,,,,,,,,,,,,,,,,,,,,,,,,,,,,,,,,,,,,,,,30,,,,,,,,1874.5267674999777,1874.5267674999777,1874.5267674999777,1874.5267674999777,1874.5267674999777,up,0.474947799986694,0,0,0,99,0.4,0.16,up,0.3999640000401996,,,,,,,,,,,,,,,,,,,,,,,,,,,,,,,,,,,,,,,,,,,,,,,,,,,,,,,,,,,,6DG01A,train_y,blue_star,bottom_right,2025-05-19_17h57.08.244,HideSeek_v1,2022.2.5,59.8538249904241,
,7,3,7,6,0,3,64,,train_dim1_1,3,30,,,,2,0,2,0,,,,,,,,,0,0,0,0,0,2,2,2,4,0,4,0,,,,,,,,,,,,,,,,,,,,,,,,,,,,,,,,,,,,,,,,,,,,,,,,,,,,,,,,,,,,,,,,30,,,,,,,,1875.0080207000137,1875.0080207000137,1875.0080207000137,1875.0080207000137,1875.0080207000137,up,0.9603007000405341,0,0,0,99,0.4,0.24,up,0.8733762000338174,,,,,,,,,,,,,,,,,,,,,,,,,,,,,,,,,,,,,,,,,,,,,,,,,,,,,,,,,,,,6DG01A,train_y,blue_star,bottom_right,2025-05-19_17h57.08.244,HideSeek_v1,2022.2.5,59.8538249904241,
,7,3,7,6,0,3,64,,train_dim1_1,3,30,,,,2,0,2,0,,,,,,,,,0,0,0,0,0,2,2,2,5,0,5,0,,,,,,,,,,,,,,,,,,,,,,,,,,,,,,,,,,,,,,,,,,,,,,,,,,,,,,,,,,,,,,,,30,,,,,,,,1875.9771933000302,1875.9771933000302,1875.9771933000302,1875.9771933000302,1875.9771933000302,return,1.9938077999977395,0,0,0,0,0.4,0.24,return,1.9086052000056952,13,-3,0.4,0.24,,,,,,,,,,,,,,,,,,,,,,,,,,,,,,,,,,,,,,,,,,,,,,,,,,,,,,,,6DG01A,train_y,blue_star,bottom_right,2025-05-19_17h57.08.244,HideSeek_v1,2022.2.5,59.8538249904241,
,5,1,5,2,0,1,62,,train_dim1_1,4,30,,,,2,0,2,0,,,,,,,,,0,0,0,0,0,3,3,3,0,0,0,0,,,,,,,,,,,,,,,,,,,,,,,,,stimuli/alien_stimuli/62.png,,,,,,,,,,,,,,,,,,,,,,,,,,,,,stimuli/alien_stimuli/64.png,64,7,5,,,,,,,30,,,,,,,,1885.840054899978,1885.840054899978,1885.840054899978,1885.840054899978,1885.840054899978,up,4.875267700001132,0,0,0,99,0.24,-0.24,up,4.792079699982423,,,,,1884.2866611999925,1885.840054899978,0.4,0.08,0.24,0.0,-0.04,0.4,0.4,0.4,0.08,1879.5418271999806,1879.5418271999806,1879.5418271999806,1879.5418271999806,1879.5418271999806,1879.5418271999806,1879.5418271999806,1879.5418271999806,1879.5325423700097,4.856212000013329,return,4.727749700017739,,,,,,,,,,,,,,,,,,,,,,,,,,,,,,,,,6DG01A,train_y,blue_star,bottom_right,2025-05-19_17h57.08.244,HideSeek_v1,2022.2.5,59.8538249904241,
,5,1,5,2,0,1,62,,train_dim1_1,4,30,,,,2,0,2,0,,,,,,,,,0,0,0,0,0,3,3,3,1,0,1,0,,,,,,,,,,,,,,,,,,,,,,,,,,,,,,,,,,,,,,,,,,,,,,,,,,,,,,,,,,,,,,,,30,,,,,,,,1890.7225584000116,1890.7225584000116,1890.7225584000116,1890.7225584000116,1890.7225584000116,up,0.6767126000486314,0,0,0,99,0.24,-0.15999999999999998,up,0.6034037999925204,,,,,,,,,,,,,,,,,,,,,,,,,,,,,,,,,,,,,,,,,,,,,,,,,,,,,,,,,,,,6DG01A,train_y,blue_star,bottom_right,2025-05-19_17h57.08.244,HideSeek_v1,2022.2.5,59.8538249904241,
,5,1,5,2,0,1,62,,train_dim1_1,4,30,,,,2,0,2,0,,,,,,,,,0,0,0,0,0,3,3,3,2,0,2,0,,,,,,,,,,,,,,,,,,,,,,,,,,,,,,,,,,,,,,,,,,,,,,,,,,,,,,,,,,,,,,,,30,,,,,,,,1891.406424099987,1891.406424099987,1891.406424099987,1891.406424099987,1891.406424099987,up,0.7099781999713741,0,0,0,99,0.24,-0.07999999999999997,up,0.6294480000506155,,,,,,,,,,,,,,,,,,,,,,,,,,,,,,,,,,,,,,,,,,,,,,,,,,,,,,,,,,,,6DG01A,train_y,blue_star,bottom_right,2025-05-19_17h57.08.244,HideSeek_v1,2022.2.5,59.8538249904241,
,5,1,5,2,0,1,62,,train_dim1_1,4,30,,,,2,0,2,0,,,,,,,,,0,0,0,0,0,3,3,3,3,0,3,0,,,,,,,,,,,,,,,,,,,,,,,,,,,,,,,,,,,,,,,,,,,,,,,,,,,,,,,,,,,,,,,,30,,,,,,,,1892.1234372999752,1892.1234372999752,1892.1234372999752,1892.1234372999752,1892.1234372999752,up,1.0434591000084765,0,0,0,99,0.24,2.7755575615628914e-17,up,0.9640238999854773,,,,,,,,,,,,,,,,,,,,,,,,,,,,,,,,,,,,,,,,,,,,,,,,,,,,,,,,,,,,6DG01A,train_y,blue_star,bottom_right,2025-05-19_17h57.08.244,HideSeek_v1,2022.2.5,59.8538249904241,
,5,1,5,2,0,1,62,,train_dim1_1,4,30,,,,2,0,2,0,,,,,,,,,0,0,0,0,0,3,3,3,4,0,4,0,,,,,,,,,,,,,,,,,,,,,,,,,,,,,,,,,,,,,,,,,,,,,,,,,,,,,,,,,,,,,,,,30,,,,,,,,1893.1750117000192,1893.1750117000192,1893.1750117000192,1893.1750117000192,1893.1750117000192,return,3.3284198999754153,0,0,0,0,0.24,2.7755575615628914e-17,return,3.2544163999846205,17,-3,0.24,2.7755575615628914e-17,,,,,,,,,,,,,,,,,,,,,,,,,,,,,,,,,,,,,,,,,,,,,,,,,,,,,,,,6DG01A,train_y,blue_star,bottom_right,2025-05-19_17h57.08.244,HideSeek_v1,2022.2.5,59.8538249904241,
,8,3,8,3,0,0,61,,train_dim1_1,5,30,,,,2,0,2,0,,,,,,,,,0,0,0,0,0,4,4,4,0,0,0,0,,,,,,,,,,,,,,,,,,,,,,,,,stimuli/alien_stimuli/61.png,,,,,,,,,,,,,,,,,,,,,,,,,,,,,stimuli/alien_stimuli/62.png,62,5,6,,,,,,,30,,,,,,,,1902.1030782000162,1902.1030782000162,1902.1030782000162,1902.1030782000162,1902.1030782000162,up,3.2416337999748066,0,0,0,99,0.48,-0.08,up,3.1560351999942213,,,,,1900.5500980999786,1902.1030782000162,0.24,-0.24,0.08,0.0,-0.28,0.24,0.24,0.24,-0.24,1898.072369600006,1898.072369600006,1898.072369600006,1898.072369600006,1898.072369600006,1898.072369600006,1898.072369600006,1898.072369600006,1898.0645602699778,2.587775000021793,return,2.446219999983441,,,,,,,,,,,,,,,,,,,,,,,,,,,,,,,,,6DG01A,train_y,blue_star,bottom_right,2025-05-19_17h57.08.244,HideSeek_v1,2022.2.5,59.8538249904241,
,8,3,8,3,0,0,61,,train_dim1_1,5,30,,,,2,0,2,0,,,,,,,,,0,0,0,0,0,4,4,4,1,0,1,0,,,,,,,,,,,,,,,,,,,,,,,,,,,,,,,,,,,,,,,,,,,,,,,,,,,,,,,,,,,,,,,,30,,,,,,,,1905.3523520000163,1905.3523520000163,1905.3523520000163,1905.3523520000163,1905.3523520000163,up,1.0098691000021063,0,0,0,99,0.48,0.0,up,0.9352475000196137,,,,,,,,,,,,,,,,,,,,,,,,,,,,,,,,,,,,,,,,,,,,,,,,,,,,,,,,,,,,6DG01A,train_y,blue_star,bottom_right,2025-05-19_17h57.08.244,HideSeek_v1,2022.2.5,59.8538249904241,
,8,3,8,3,0,0,61,,train_dim1_1,5,30,,,,2,0,2,0,,,,,,,,,0,0,0,0,0,4,4,4,2,0,2,0,,,,,,,,,,,,,,,,,,,,,,,,,,,,,,,,,,,,,,,,,,,,,,,,,,,,,,,,,,,,,,,,30,,,,,,,,1906.3681672000093,1906.3681672000093,1906.3681672000093,1906.3681672000093,1906.3681672000093,up,0.6765538000036031,0,0,0,99,0.48,0.08,up,0.5997836000169627,,,,,,,,,,,,,,,,,,,,,,,,,,,,,,,,,,,,,,,,,,,,,,,,,,,,,,,,,,,,6DG01A,train_y,blue_star,bottom_right,2025-05-19_17h57.08.244,HideSeek_v1,2022.2.5,59.8538249904241,
,8,3,8,3,0,0,61,,train_dim1_1,5,30,,,,2,0,2,0,,,,,,,,,0,0,0,0,0,4,4,4,3,0,3,0,,,,,,,,,,,,,,,,,,,,,,,,,,,,,,,,,,,,,,,,,,,,,,,,,,,,,,,,,,,,,,,,30,,,,,,,,1907.0526069999905,1907.0526069999905,1907.0526069999905,1907.0526069999905,1907.0526069999905,up,3.7125049000023864,0,0,0,99,0.48,0.16,up,3.6265375000075437,,,,,,,,,,,,,,,,,,,,,,,,,,,,,,,,,,,,,,,,,,,,,,,,,,,,,,,,,,,,6DG01A,train_y,blue_star,bottom_right,2025-05-19_17h57.08.244,HideSeek_v1,2022.2.5,59.8538249904241,
,8,3,8,3,0,0,61,,train_dim1_1,5,30,,,,2,0,2,0,,,,,,,,,0,0,0,0,0,4,4,4,4,0,4,0,,,,,,,,,,,,,,,,,,,,,,,,,,,,,,,,,,,,,,,,,,,,,,,,,,,,,,,,,,,,,,,,30,,,,,,,,1910.7722588999895,1910.7722588999895,1910.7722588999895,1910.7722588999895,1910.7722588999895,up,2.044868699973449,0,0,0,99,0.48,0.24,up,1.9663637999910861,,,,,,,,,,,,,,,,,,,,,,,,,,,,,,,,,,,,,,,,,,,,,,,,,,,,,,,,,,,,6DG01A,train_y,blue_star,bottom_right,2025-05-19_17h57.08.244,HideSeek_v1,2022.2.5,59.8538249904241,
,8,3,8,3,0,0,61,,train_dim1_1,5,30,,,,2,0,2,0,,,,,,,,,0,0,0,0,0,4,4,4,5,0,5,0,,,,,,,,,,,,,,,,,,,,,,,,,,,,,,,,,,,,,,,,,,,,,,,,,,,,,,,,,,,,,,,,30,,,,,,,,1912.8264390000259,1912.8264390000259,1912.8264390000259,1912.8264390000259,1912.8264390000259,down,3.8269537000451237,0,0,0,99,0.48,0.15999999999999998,down,3.7509356000227854,,,,,,,,,,,,,,,,,,,,,,,,,,,,,,,,,,,,,,,,,,,,,,,,,,,,,,,,,,,,6DG01A,train_y,blue_star,bottom_right,2025-05-19_17h57.08.244,HideSeek_v1,2022.2.5,59.8538249904241,
,8,3,8,3,0,0,61,,train_dim1_1,5,30,,,,2,0,2,0,,,,,,,,,0,0,0,0,0,4,4,4,6,0,6,0,,,,,,,,,,,,,,,,,,,,,,,,,,,,,,,,,,,,,,,,,,,,,,,,,,,,,,,,,,,,,,,,30,,,,,,,,1916.6608162000193,1916.6608162000193,1916.6608162000193,1916.6608162000193,1916.6608162000193,return,1.594155700004194,0,0,0,0,0.48,0.15999999999999998,return,1.521271199977491,21,-3,0.48,0.15999999999999998,,,,,,,,,,,,,,,,,,,,,,,,,,,,,,,,,,,,,,,,,,,,,,,,,,,,,,,,6DG01A,train_y,blue_star,bottom_right,2025-05-19_17h57.08.244,HideSeek_v1,2022.2.5,59.8538249904241,
,6,4,6,5,0,1,62,,train_dim1_1,6,30,,,,2,0,2,0,,,,,,,,,0,0,0,0,0,5,5,5,0,0,0,0,,,,,,,,,,,,,,,,,,,,,,,,,stimuli/alien_stimuli/62.png,,,,,,,,,,,,,,,,,,,,,,,,,,,,,stimuli/alien_stimuli/61.png,61,8,7,,,,,,,30,,,,,,,,1924.2324524000287,1924.2324524000287,1924.2324524000287,1924.2324524000287,1924.2324524000287,up,3.69901820004452,0,0,0,99,0.32,0.0,up,3.60871960001532,,,,,1922.668215200014,1924.2324524000287,0.48,-0.16,0.0,0.0,-0.16,0.48,0.48,0.48,-0.16,1919.8256739000208,1919.8256739000208,1919.8256739000208,1919.8256739000208,1919.8256739000208,1919.8256739000208,1919.8256739000208,1919.8256739000208,1919.8160170700112,2.9545397000038065,return,2.8152905000024475,,,,,,,,,,,,,,,,,,,,,,,,,,,,,,,,,6DG01A,train_y,blue_star,bottom_right,2025-05-19_17h57.08.244,HideSeek_v1,2022.2.5,59.8538249904241,
,6,4,6,5,0,1,62,,train_dim1_1,6,30,,,,2,0,2,0,,,,,,,,,0,0,0,0,0,5,5,5,1,0,1,0,,,,,,,,,,,,,,,,,,,,,,,,,,,,,,,,,,,,,,,,,,,,,,,,,,,,,,,,,,,,,,,,30,,,,,,,,1927.9376978999935,1927.9376978999935,1927.9376978999935,1927.9376978999935,1927.9376978999935,up,0.5427410999545828,0,0,0,99,0.32,0.08,up,0.46428760001435876,,,,,,,,,,,,,,,,,,,,,,,,,,,,,,,,,,,,,,,,,,,,,,,,,,,,,,,,,,,,6DG01A,train_y,blue_star,bottom_right,2025-05-19_17h57.08.244,HideSeek_v1,2022.2.5,59.8538249904241,
,6,4,6,5,0,1,62,,train_dim1_1,6,30,,,,2,0,2,0,,,,,,,,,0,0,0,0,0,5,5,5,2,0,2,0,,,,,,,,,,,,,,,,,,,,,,,,,,,,,,,,,,,,,,,,,,,,,,,,,,,,,,,,,,,,,,,,30,,,,,,,,1928.486561800004,1928.486561800004,1928.486561800004,1928.486561800004,1928.486561800004,up,0.5601277000387199,0,0,0,99,0.32,0.16,up,0.47261699999216944,,,,,,,,,,,,,,,,,,,,,,,,,,,,,,,,,,,,,,,,,,,,,,,,,,,,,,,,,,,,6DG01A,train_y,blue_star,bottom_right,2025-05-19_17h57.08.244,HideSeek_v1,2022.2.5,59.8538249904241,
,6,4,6,5,0,1,62,,train_dim1_1,6,30,,,,2,0,2,0,,,,,,,,,0,0,0,0,0,5,5,5,3,0,3,0,,,,,,,,,,,,,,,,,,,,,,,,,,,,,,,,,,,,,,,,,,,,,,,,,,,,,,,,,,,,,,,,30,,,,,,,,1929.0557087999769,1929.0557087999769,1929.0557087999769,1929.0557087999769,1929.0557087999769,left,3.512730000016745,0,0,0,99,0.24,0.16,left,3.43111109995516,,,,,,,,,,,,,,,,,,,,,,,,,,,,,,,,,,,,,,,,,,,,,,,,,,,,,,,,,,,,6DG01A,train_y,blue_star,bottom_right,2025-05-19_17h57.08.244,HideSeek_v1,2022.2.5,59.8538249904241,
,6,4,6,5,0,1,62,,train_dim1_1,6,30,,,,2,0,2,0,,,,,,,,,0,0,0,0,0,5,5,5,4,0,4,0,,,,,,,,,,,,,,,,,,,,,,,,,,,,,,,,,,,,,,,,,,,,,,,,,,,,,,,,,,,,,,,,30,,,,,,,,1932.577469700016,1932.577469700016,1932.577469700016,1932.577469700016,1932.577469700016,left,1.8245424999622628,0,0,0,99,0.15999999999999998,0.16,left,1.7464190000318922,,,,,,,,,,,,,,,,,,,,,,,,,,,,,,,,,,,,,,,,,,,,,,,,,,,,,,,,,,,,6DG01A,train_y,blue_star,bottom_right,2025-05-19_17h57.08.244,HideSeek_v1,2022.2.5,59.8538249904241,
,6,4,6,5,0,1,62,,train_dim1_1,6,30,,,,2,0,2,0,,,,,,,,,0,0,0,0,0,5,5,5,5,0,5,0,,,,,,,,,,,,,,,,,,,,,,,,,,,,,,,,,,,,,,,,,,,,,,,,,,,,,,,,,,,,,,,,30,,,,,,,,1934.4100669000181,1934.4100669000181,1934.4100669000181,1934.4100669000181,1934.4100669000181,return,1.392872600001283,0,0,0,0,0.15999999999999998,0.16,return,1.3090244000195526,24,-5,0.15999999999999998,0.16,,,,,,,,,,,,,,,,,,,,,,,,,,,,,,,,,,,,,,,,,,,,,,,,,,,,,,,,6DG01A,train_y,blue_star,bottom_right,2025-05-19_17h57.08.244,HideSeek_v1,2022.2.5,59.8538249904241,
,6,3,6,6,0,3,64,,train_dim1_1,7,30,,,,2,0,2,0,,,,,,,,,0,0,0,0,0,6,6,6,0,0,0,0,,,,,,,,,,,,,,,,,,,,,,,,,stimuli/alien_stimuli/64.png,,,,,,,,,,,,,,,,,,,,,,,,,,,,,stimuli/alien_stimuli/62.png,62,6,8,,,,,,,30,,,,,,,,1941.0843589000287,1941.0843589000287,1941.0843589000287,1941.0843589000287,1941.0843589000287,up,2.923555900051724,0,0,0,99,0.32,-0.08,up,2.837872200005222,,,,,1939.532510799996,1941.0843589000287,0.32,0,0.08,0.0,-0.04,0.32,0.32,0.32,0,1937.3731168999802,1937.3731168999802,1937.3731168999802,1937.3731168999802,1937.3731168999802,1937.3731168999802,1937.3731168999802,1937.3731168999802,1937.3639081700067,2.2708452999941073,return,2.1422645000275224,,,,,,,,,,,,,,,,,,,,,,,,,,,,,,,,,6DG01A,train_y,blue_star,bottom_right,2025-05-19_17h57.08.244,HideSeek_v1,2022.2.5,59.8538249904241,
,6,3,6,6,0,3,64,,train_dim1_1,7,30,,,,2,0,2,0,,,,,,,,,0,0,0,0,0,6,6,6,1,0,1,0,,,,,,,,,,,,,,,,,,,,,,,,,,,,,,,,,,,,,,,,,,,,,,,,,,,,,,,,,,,,,,,,30,,,,,,,,1944.0162995000137,1944.0162995000137,1944.0162995000137,1944.0162995000137,1944.0162995000137,up,0.4424178999615833,0,0,0,99,0.32,0.0,up,0.36931779998121783,,,,,,,,,,,,,,,,,,,,,,,,,,,,,,,,,,,,,,,,,,,,,,,,,,,,,,,,,,,,6DG01A,train_y,blue_star,bottom_right,2025-05-19_17h57.08.244,HideSeek_v1,2022.2.5,59.8538249904241,
,6,3,6,6,0,3,64,,train_dim1_1,7,30,,,,2,0,2,0,,,,,,,,,0,0,0,0,0,6,6,6,2,0,2,0,,,,,,,,,,,,,,,,,,,,,,,,,,,,,,,,,,,,,,,,,,,,,,,,,,,,,,,,,,,,,,,,30,,,,,,,,1944.4666251000017,1944.4666251000017,1944.4666251000017,1944.4666251000017,1944.4666251000017,up,0.4931872999877669,0,0,0,99,0.32,0.08,up,0.4140088999993168,,,,,,,,,,,,,,,,,,,,,,,,,,,,,,,,,,,,,,,,,,,,,,,,,,,,,,,,,,,,6DG01A,train_y,blue_star,bottom_right,2025-05-19_17h57.08.244,HideSeek_v1,2022.2.5,59.8538249904241,
,6,3,6,6,0,3,64,,train_dim1_1,7,30,,,,2,0,2,0,,,,,,,,,0,0,0,0,0,6,6,6,3,0,3,0,,,,,,,,,,,,,,,,,,,,,,,,,,,,,,,,,,,,,,,,,,,,,,,,,,,,,,,,,,,,,,,,30,,,,,,,,1944.9669258000213,1944.9669258000213,1944.9669258000213,1944.9669258000213,1944.9669258000213,up,1.2937908999738283,0,0,0,99,0.32,0.16,up,1.2125385000254028,,,,,,,,,,,,,,,,,,,,,,,,,,,,,,,,,,,,,,,,,,,,,,,,,,,,,,,,,,,,6DG01A,train_y,blue_star,bottom_right,2025-05-19_17h57.08.244,HideSeek_v1,2022.2.5,59.8538249904241,
,6,3,6,6,0,3,64,,train_dim1_1,7,30,,,,2,0,2,0,,,,,,,,,0,0,0,0,0,6,6,6,4,0,4,0,,,,,,,,,,,,,,,,,,,,,,,,,,,,,,,,,,,,,,,,,,,,,,,,,,,,,,,,,,,,,,,,30,,,,,,,,1946.2678793999949,1946.2678793999949,1946.2678793999949,1946.2678793999949,1946.2678793999949,return,0.8268122999579646,0,1,0,0,0.32,0.16,return,0.750395999988541,28,-5,0.32,0.16,,,,,,,,,,,,,,,,,,,,,,,,,,,,,,,,,,,,,,,,,,,,,,,,,,,,,,,,6DG01A,train_y,blue_star,bottom_right,2025-05-19_17h57.08.244,HideSeek_v1,2022.2.5,59.8538249904241,
,9,2,9,2,0,0,61,,train_dim1_1,8,30,,,,2,0,2,0,,,,,,,,,0,0,0,0,0,7,7,7,0,0,0,0,,,,,,,,,,,,,,,,,,,,,,,,,stimuli/alien_stimuli/61.png,,,,,,,,,,,,,,,,,,,,,,,,,,,,,stimuli/alien_stimuli/64.png,64,6,9,,,,,,,30,,,,,,,,1968.0831826999784,1968.0831826999784,1968.0831826999784,1968.0831826999784,1968.0831826999784,left,4.221202999993693,0,1,0,99,0.48000000000000004,-0.24,left,4.119185499963351,,,,,1966.5044194000075,1968.0831826999784,0.32,0.08,0.24,0.0,-0.04,0.32,0.32,0.32,0.08,1948.6659059000085,1948.6659059000085,1948.6659059000085,1948.6659059000085,1948.6659059000085,1948.6659059000085,1948.6659059000085,1948.6659059000085,1948.6564802700132,17.950206300010905,return,17.818513199978042,,,,,,,,,,,,,,,,,,,,,,,,,,,,,,,,,6DG01A,train_y,blue_star,bottom_right,2025-05-19_17h57.08.244,HideSeek_v1,2022.2.5,59.8538249904241,
,9,2,9,2,0,0,61,,train_dim1_1,8,30,,,,2,0,2,0,,,,,,,,,0,0,0,0,0,7,7,7,1,0,1,0,,,,,,,,,,,,,,,,,,,,,,,,,,,,,,,,,,,,,,,,,,,,,,,,,,,,,,,,,,,,,,,,30,,,,,,,,1972.291741700028,1972.291741700028,1972.291741700028,1972.291741700028,1972.291741700028,up,1.7940840999945067,0,1,0,99,0.48000000000000004,-0.15999999999999998,up,1.7040105999913067,,,,,,,,,,,,,,,,,,,,,,,,,,,,,,,,,,,,,,,,,,,,,,,,,,,,,,,,,,,,6DG01A,train_y,blue_star,bottom_right,2025-05-19_17h57.08.244,HideSeek_v1,2022.2.5,59.8538249904241,
,9,2,9,2,0,0,61,,train_dim1_1,8,30,,,,2,0,2,0,,,,,,,,,0,0,0,0,0,7,7,7,2,0,2,0,,,,,,,,,,,,,,,,,,,,,,,,,,,,,,,,,,,,,,,,,,,,,,,,,,,,,,,,,,,,,,,,30,,,,,,,,1974.094597599993,1974.094597599993,1974.094597599993,1974.094597599993,1974.094597599993,up,0.4923697999911383,0,1,0,99,0.48000000000000004,-0.07999999999999997,up,0.41470640001352876,,,,,,,,,,,,,,,,,,,,,,,,,,,,,,,,,,,,,,,,,,,,,,,,,,,,,,,,,,,,6DG01A,train_y,blue_star,bottom_right,2025-05-19_17h57.08.244,HideSeek_v1,2022.2.5,59.8538249904241,
,9,2,9,2,0,0,61,,train_dim1_1,8,30,,,,2,0,2,0,,,,,,,,,0,0,0,0,0,7,7,7,3,0,3,0,,,,,,,,,,,,,,,,,,,,,,,,,,,,,,,,,,,,,,,,,,,,,,,,,,,,,,,,,,,,,,,,30,,,,,,,,1974.5920467000105,1974.5920467000105,1974.5920467000105,1974.5920467000105,1974.5920467000105,down,1.6280598000157624,0,1,0,99,0.48000000000000004,-0.15999999999999998,down,1.5537191000184976,,,,,,,,,,,,,,,,,,,,,,,,,,,,,,,,,,,,,,,,,,,,,,,,,,,,,,,,,,,,6DG01A,train_y,blue_star,bottom_right,2025-05-19_17h57.08.244,HideSeek_v1,2022.2.5,59.8538249904241,
,9,2,9,2,0,0,61,,train_dim1_1,8,30,,,,2,0,2,0,,,,,,,,,0,0,0,0,0,7,7,7,4,0,4,0,,,,,,,,,,,,,,,,,,,,,,,,,,,,,,,,,,,,,,,,,,,,,,,,,,,,,,,,,,,,,,,,30,,,,,,,,1976.2313417000114,1976.2313417000114,1976.2313417000114,1976.2313417000114,1976.2313417000114,left,1.4915831999969669,0,1,0,99,0.4,-0.15999999999999998,left,1.4154518999857828,,,,,,,,,,,,,,,,,,,,,,,,,,,,,,,,,,,,,,,,,,,,,,,,,,,,,,,,,,,,6DG01A,train_y,blue_star,bottom_right,2025-05-19_17h57.08.244,HideSeek_v1,2022.2.5,59.8538249904241,
,9,2,9,2,0,0,61,,train_dim1_1,8,30,,,,2,0,2,0,,,,,,,,,0,0,0,0,0,7,7,7,5,0,5,0,,,,,,,,,,,,,,,,,,,,,,,,,,,,,,,,,,,,,,,,,,,,,,,,,,,,,,,,,,,,,,,,30,,,,,,,,1977.728259399999,1977.728259399999,1977.728259399999,1977.728259399999,1977.728259399999,left,0.5759451999911107,0,1,0,99,0.32,-0.15999999999999998,left,0.49620839999988675,,,,,,,,,,,,,,,,,,,,,,,,,,,,,,,,,,,,,,,,,,,,,,,,,,,,,,,,,,,,6DG01A,train_y,blue_star,bottom_right,2025-05-19_17h57.08.244,HideSeek_v1,2022.2.5,59.8538249904241,
,9,2,9,2,0,0,61,,train_dim1_1,8,30,,,,2,0,2,0,,,,,,,,,0,0,0,0,0,7,7,7,6,0,6,0,,,,,,,,,,,,,,,,,,,,,,,,,,,,,,,,,,,,,,,,,,,,,,,,,,,,,,,,,,,,,,,,30,,,,,,,,1978.3113423000323,1978.3113423000323,1978.3113423000323,1978.3113423000323,1978.3113423000323,left,0.5431970999925397,0,1,0,99,0.24,-0.15999999999999998,left,0.46843209996586666,,,,,,,,,,,,,,,,,,,,,,,,,,,,,,,,,,,,,,,,,,,,,,,,,,,,,,,,,,,,6DG01A,train_y,blue_star,bottom_right,2025-05-19_17h57.08.244,HideSeek_v1,2022.2.5,59.8538249904241,
,9,2,9,2,0,0,61,,train_dim1_1,8,30,,,,2,0,2,0,,,,,,,,,0,0,0,0,0,7,7,7,7,0,7,0,,,,,,,,,,,,,,,,,,,,,,,,,,,,,,,,,,,,,,,,,,,,,,,,,,,,,,,,,,,,,,,,30,,,,,,,,1978.8628613000037,1978.8628613000037,1978.8628613000037,1978.8628613000037,1978.8628613000037,down,1.4273770000436343,0,1,0,99,0.24,-0.24,down,1.3410750000039116,,,,,,,,,,,,,,,,,,,,,,,,,,,,,,,,,,,,,,,,,,,,,,,,,,,,,,,,,,,,6DG01A,train_y,blue_star,bottom_right,2025-05-19_17h57.08.244,HideSeek_v1,2022.2.5,59.8538249904241,
,9,2,9,2,0,0,61,,train_dim1_1,8,30,,,,2,0,2,0,,,,,,,,,0,0,0,0,0,7,7,7,8,0,8,0,,,,,,,,,,,,,,,,,,,,,,,,,,,,,,,,,,,,,,,,,,,,,,,,,,,,,,,,,,,,,,,,30,,,,,,,,1980.2983564999886,1980.2983564999886,1980.2983564999886,1980.2983564999886,1980.2983564999886,return,0.8754331999807619,0,0,0,0,0.24,-0.24,return,0.8012000000453554,28,-9,0.24,-0.24,,,,,,,,,,,,,,,,,,,,,,,,,,,,,,,,,,,,,,,,,,,,,,,,,,,,,,,,6DG01A,train_y,blue_star,bottom_right,2025-05-19_17h57.08.244,HideSeek_v1,2022.2.5,59.8538249904241,
,9,3,9,7,0,4,65,,train_dim1_1,9,30,,,,2,0,2,0,,,,,,,,,0,0,0,0,0,8,8,8,0,0,0,0,,,,,,,,,,,,,,,,,,,,,,,,,stimuli/alien_stimuli/65.png,,,,,,,,,,,,,,,,,,,,,,,,,,,,,stimuli/alien_stimuli/61.png,61,9,10,,,,,,,30,,,,,,,,1986.6730403000256,1986.6730403000256,1986.6730403000256,1986.6730403000256,1986.6730403000256,up,3.574516799999401,0,0,0,99,0.56,-0.08,up,3.4962049000314437,,,,,1985.1207142000203,1986.6730403000256,0.56,-0.24,0.0,0.0,-0.24,0.56,0.56,0.56,-0.24,1982.7436838999856,1982.7436838999856,1982.7436838999856,1982.7436838999856,1982.7436838999856,1982.7436838999856,1982.7436838999856,1982.7436838999856,1982.7348592699682,2.4884065999649465,return,2.3612757999799214,,,,,,,,,,,,,,,,,,,,,,,,,,,,,,,,,6DG01A,train_y,blue_star,bottom_right,2025-05-19_17h57.08.244,HideSeek_v1,2022.2.5,59.8538249904241,
,9,3,9,7,0,4,65,,train_dim1_1,9,30,,,,2,0,2,0,,,,,,,,,0,0,0,0,0,8,8,8,1,0,1,0,,,,,,,,,,,,,,,,,,,,,,,,,,,,,,,,,,,,,,,,,,,,,,,,,,,,,,,,,,,,,,,,30,,,,,,,,1990.2551348999841,1990.2551348999841,1990.2551348999841,1990.2551348999841,1990.2551348999841,up,0.509264099993743,0,0,0,99,0.56,0.0,up,0.42866779997712,,,,,,,,,,,,,,,,,,,,,,,,,,,,,,,,,,,,,,,,,,,,,,,,,,,,,,,,,,,,6DG01A,train_y,blue_star,bottom_right,2025-05-19_17h57.08.244,HideSeek_v1,2022.2.5,59.8538249904241,
,9,3,9,7,0,4,65,,train_dim1_1,9,30,,,,2,0,2,0,,,,,,,,,0,0,0,0,0,8,8,8,2,0,2,0,,,,,,,,,,,,,,,,,,,,,,,,,,,,,,,,,,,,,,,,,,,,,,,,,,,,,,,,,,,,,,,,30,,,,,,,,1990.7716434000176,1990.7716434000176,1990.7716434000176,1990.7716434000176,1990.7716434000176,return,1.1771093999850564,0,0,0,0,0.56,0.0,return,1.1009831000119448,30,-9,0.56,0.0,,,,,,,,,,,,,,,,,,,,,,,,,,,,,,,,,,,,,,,,,,,,,,,,,,,,,,,,6DG01A,train_y,blue_star,bottom_right,2025-05-19_17h57.08.244,HideSeek_v1,2022.2.5,59.8538249904241,
,7,2,7,7,0,5,66,,train_dim1_1,10,30,,,,2,0,2,0,,,,,,,,,0,0,0,0,0,9,9,9,0,0,0,0,,,,,,,,,,,,,,,,,,,,,,,,,stimuli/alien_stimuli/66.png,,,,,,,,,,,,,,,,,,,,,,,,,,,,,stimuli/alien_stimuli/65.png,65,9,11,,,,,,,30,,,,,,,,1996.807816000015,1996.807816000015,1996.807816000015,1996.807816000015,1996.807816000015,left,2.970052900025621,0,0,0,99,0.32,-0.24,left,2.879207400023006,,,,,1995.245172200026,1996.807816000015,0.56,0.16,0.32,0.0,0.0,0.56,0.56,0.56,0.16,1993.5250379000208,1993.5250379000208,1993.5250379000208,1993.5250379000208,1993.5250379000208,1993.5250379000208,1993.5250379000208,1993.5250379000208,1993.5106206699684,1.8370009000063874,return,1.699726999970153,,,,,,,,,,,,,,,,,,,,,,,,,,,,,,,,,6DG01A,train_y,blue_star,bottom_right,2025-05-19_17h57.08.244,HideSeek_v1,2022.2.5,59.8538249904241,
,7,2,7,7,0,5,66,,train_dim1_1,10,30,,,,2,0,2,0,,,,,,,,,0,0,0,0,0,9,9,9,1,0,1,0,,,,,,,,,,,,,,,,,,,,,,,,,,,,,,,,,,,,,,,,,,,,,,,,,,,,,,,,,,,,,,,,30,,,,,,,,1999.7805068999878,1999.7805068999878,1999.7805068999878,1999.7805068999878,1999.7805068999878,left,0.4926850000047125,0,0,0,99,0.24,-0.24,left,0.41169930004980415,,,,,,,,,,,,,,,,,,,,,,,,,,,,,,,,,,,,,,,,,,,,,,,,,,,,,,,,,,,,6DG01A,train_y,blue_star,bottom_right,2025-05-19_17h57.08.244,HideSeek_v1,2022.2.5,59.8538249904241,
,7,2,7,7,0,5,66,,train_dim1_1,10,30,,,,2,0,2,0,,,,,,,,,0,0,0,0,0,9,9,9,2,0,2,0,,,,,,,,,,,,,,,,,,,,,,,,,,,,,,,,,,,,,,,,,,,,,,,,,,,,,,,,,,,,,,,,30,,,,,,,,2000.2799486999866,2000.2799486999866,2000.2799486999866,2000.2799486999866,2000.2799486999866,up,0.6266999999643303,0,0,0,99,0.24,-0.15999999999999998,up,0.548894300009124,,,,,,,,,,,,,,,,,,,,,,,,,,,,,,,,,,,,,,,,,,,,,,,,,,,,,,,,,,,,6DG01A,train_y,blue_star,bottom_right,2025-05-19_17h57.08.244,HideSeek_v1,2022.2.5,59.8538249904241,
,7,2,7,7,0,5,66,,train_dim1_1,10,30,,,,2,0,2,0,,,,,,,,,0,0,0,0,0,9,9,9,3,0,3,0,,,,,,,,,,,,,,,,,,,,,,,,,,,,,,,,,,,,,,,,,,,,,,,,,,,,,,,,,,,,,,,,30,,,,,,,,2000.9134338999866,2000.9134338999866,2000.9134338999866,2000.9134338999866,2000.9134338999866,up,0.4265643000253476,0,0,0,99,0.24,-0.07999999999999997,up,0.3411026999820024,,,,,,,,,,,,,,,,,,,,,,,,,,,,,,,,,,,,,,,,,,,,,,,,,,,,,,,,,,,,6DG01A,train_y,blue_star,bottom_right,2025-05-19_17h57.08.244,HideSeek_v1,2022.2.5,59.8538249904241,
,7,2,7,7,0,5,66,,train_dim1_1,10,30,,,,2,0,2,0,,,,,,,,,0,0,0,0,0,9,9,9,4,0,4,0,,,,,,,,,,,,,,,,,,,,,,,,,,,,,,,,,,,,,,,,,,,,,,,,,,,,,,,,,,,,,,,,30,,,,,,,,2001.348827000009,2001.348827000009,2001.348827000009,2001.348827000009,2001.348827000009,return,0.6267459999653511,0,0,0,0,0.24,-0.07999999999999997,return,0.5445966999977827,32,-11,0.24,-0.07999999999999997,,,,,,,,,,,,,,,,,,,,,,,,,,,,,,,,,,,,,,,,,,,,,,,,,,,,,,,,6DG01A,train_y,blue_star,bottom_right,2025-05-19_17h57.08.244,HideSeek_v1,2022.2.5,59.8538249904241,
,9,1,9,5,0,4,65,,train_dim1_1,11,30,,,,2,0,2,0,,,,,,,,,0,0,0,0,0,10,10,10,0,0,0,0,,,,,,,,,,,,,,,,,,,,,,,,,stimuli/alien_stimuli/65.png,,,,,,,,,,,,,,,,,,,,,,,,,,,,,stimuli/alien_stimuli/66.png,66,7,12,,,,,,,30,,,,,,,,2006.7743917999906,2006.7743917999906,2006.7743917999906,2006.7743917999906,2006.7743917999906,up,2.489295100036543,0,0,0,99,0.56,-0.24,up,2.4035246999701485,,,,,2005.2201965000131,2006.7743917999906,0.4,0.16,0.4,0.0,-0.039999999999999994,0.4,0.4,0.4,0.16,2003.525229300023,2003.525229300023,2003.525229300023,2003.525229300023,2003.525229300023,2003.525229300023,2003.525229300023,2003.525229300023,2003.5188539600117,1.7869385999510996,return,1.6637569000013173,,,,,,,,,,,,,,,,,,,,,,,,,,,,,,,,,6DG01A,train_y,blue_star,bottom_right,2025-05-19_17h57.08.244,HideSeek_v1,2022.2.5,59.8538249904241,
,9,1,9,5,0,4,65,,train_dim1_1,11,30,,,,2,0,2,0,,,,,,,,,0,0,0,0,0,10,10,10,1,0,1,0,,,,,,,,,,,,,,,,,,,,,,,,,,,,,,,,,,,,,,,,,,,,,,,,,,,,,,,,,,,,,,,,30,,,,,,,,2009.2731140999822,2009.2731140999822,2009.2731140999822,2009.2731140999822,2009.2731140999822,up,0.5248130999971181,0,0,0,99,0.56,-0.15999999999999998,up,0.4432560999994166,,,,,,,,,,,,,,,,,,,,,,,,,,,,,,,,,,,,,,,,,,,,,,,,,,,,,,,,,,,,6DG01A,train_y,blue_star,bottom_right,2025-05-19_17h57.08.244,HideSeek_v1,2022.2.5,59.8538249904241,
,9,1,9,5,0,4,65,,train_dim1_1,11,30,,,,2,0,2,0,,,,,,,,,0,0,0,0,0,10,10,10,2,0,2,0,,,,,,,,,,,,,,,,,,,,,,,,,,,,,,,,,,,,,,,,,,,,,,,,,,,,,,,,,,,,,,,,30,,,,,,,,2009.803849000018,2009.803849000018,2009.803849000018,2009.803849000018,2009.803849000018,return,1.1769657999975607,0,0,0,0,0.56,-0.15999999999999998,return,1.0948847000254318,34,-11,0.56,-0.15999999999999998,,,,,,,,,,,,,,,,,,,,,,,,,,,,,,,,,,,,,,,,,,,,,,,,,,,,,,,,6DG01A,train_y,blue_star,bottom_right,2025-05-19_17h57.08.244,HideSeek_v1,2022.2.5,59.8538249904241,
,5,0,5,0,0,0,61,,train_dim1_1,12,30,,,,2,0,2,0,,,,,,,,,0,0,0,0,0,11,11,11,0,0,0,0,,,,,,,,,,,,,,,,,,,,,,,,,stimuli/alien_stimuli/61.png,,,,,,,,,,,,,,,,,,,,,,,,,,,,,stimuli/alien_stimuli/65.png,65,9,13,,,,,,,30,,,,,,,,2015.3323628000217,2015.3323628000217,2015.3323628000217,2015.3323628000217,2015.3323628000217,left,3.12241539999377,0,0,0,99,0.15999999999999998,-0.4,left,3.0442051999852993,,,,,2013.7772215000005,2015.3323628000217,0.56,0,0.32,0.0,-0.16,0.56,0.56,0.56,0,2012.5340842999867,2012.5340842999867,2012.5340842999867,2012.5340842999867,2012.5340842999867,2012.5340842999867,2012.5340842999867,2012.5340842999867,2012.5262472600211,1.3365459000342526,return,1.2162622000323609,,,,,,,,,,,,,,,,,,,,,,,,,,,,,,,,,6DG01A,train_y,blue_star,bottom_right,2025-05-19_17h57.08.244,HideSeek_v1,2022.2.5,59.8538249904241,
,5,0,5,0,0,0,61,,train_dim1_1,12,30,,,,2,0,2,0,,,,,,,,,0,0,0,0,0,11,11,11,1,0,1,0,,,,,,,,,,,,,,,,,,,,,,,,,,,,,,,,,,,,,,,,,,,,,,,,,,,,,,,,,,,,,,,,30,,,,,,,,2018.463228699984,2018.463228699984,2018.463228699984,2018.463228699984,2018.463228699984,left,1.7264911999809556,0,0,0,99,0.07999999999999997,-0.4,left,1.6480124999652617,,,,,,,,,,,,,,,,,,,,,,,,,,,,,,,,,,,,,,,,,,,,,,,,,,,,,,,,,,,,6DG01A,train_y,blue_star,bottom_right,2025-05-19_17h57.08.244,HideSeek_v1,2022.2.5,59.8538249904241,
,5,0,5,0,0,0,61,,train_dim1_1,12,30,,,,2,0,2,0,,,,,,,,,0,0,0,0,0,11,11,11,2,0,2,0,,,,,,,,,,,,,,,,,,,,,,,,,,,,,,,,,,,,,,,,,,,,,,,,,,,,,,,,,,,,,,,,30,,,,,,,,2020.199370199989,2020.199370199989,2020.199370199989,2020.199370199989,2020.199370199989,up,1.0606862000422552,0,0,0,99,0.07999999999999997,-0.32,up,0.9721627999679185,,,,,,,,,,,,,,,,,,,,,,,,,,,,,,,,,,,,,,,,,,,,,,,,,,,,,,,,,,,,6DG01A,train_y,blue_star,bottom_right,2025-05-19_17h57.08.244,HideSeek_v1,2022.2.5,59.8538249904241,
,5,0,5,0,0,0,61,,train_dim1_1,12,30,,,,2,0,2,0,,,,,,,,,0,0,0,0,0,11,11,11,3,0,3,0,,,,,,,,,,,,,,,,,,,,,,,,,,,,,,,,,,,,,,,,,,,,,,,,,,,,,,,,,,,,,,,,30,,,,,,,,2021.2741352000157,2021.2741352000157,2021.2741352000157,2021.2741352000157,2021.2741352000157,up,1.4437619000091217,0,0,0,99,0.07999999999999997,-0.24,up,1.344818799989298,,,,,,,,,,,,,,,,,,,,,,,,,,,,,,,,,,,,,,,,,,,,,,,,,,,,,,,,,,,,6DG01A,train_y,blue_star,bottom_right,2025-05-19_17h57.08.244,HideSeek_v1,2022.2.5,59.8538249904241,
,5,0,5,0,0,0,61,,train_dim1_1,12,30,,,,2,0,2,0,,,,,,,,,0,0,0,0,0,11,11,11,4,0,4,0,,,,,,,,,,,,,,,,,,,,,,,,,,,,,,,,,,,,,,,,,,,,,,,,,,,,,,,,,,,,,,,,30,,,,,,,,2022.7158714000252,2022.7158714000252,2022.7158714000252,2022.7158714000252,2022.7158714000252,return,1.3435461000190116,0,0,0,0,0.07999999999999997,-0.24,return,1.268683600006625,36,-13,0.07999999999999997,-0.24,,,,,,,,,,,,,,,,,,,,,,,,,,,,,,,,,,,,,,,,,,,,,,,,,,,,,,,,6DG01A,train_y,blue_star,bottom_right,2025-05-19_17h57.08.244,HideSeek_v1,2022.2.5,59.8538249904241,
,9,3,9,4,0,1,62,,train_dim1_1,13,30,,,,2,0,2,0,,,,,,,,,0,0,0,0,0,12,12,12,0,0,0,0,,,,,,,,,,,,,,,,,,,,,,,,,stimuli/alien_stimuli/62.png,,,,,,,,,,,,,,,,,,,,,,,,,,,,,stimuli/alien_stimuli/61.png,61,5,14,,,,,,,30,,,,,,,,2029.4945111999987,2029.4945111999987,2029.4945111999987,2029.4945111999987,2029.4945111999987,up,2.8708241999847814,0,0,0,99,0.56,-0.08,up,2.7829012000001967,,,,,2027.938701200008,2029.4945111999987,0.24,-0.4,0.0,0.0,-0.4,0.24,0.24,0.24,-0.4,2025.626597800001,2025.626597800001,2025.626597800001,2025.626597800001,2025.626597800001,2025.626597800001,2025.626597800001,2025.626597800001,2025.6203528700107,2.420806600013748,return,2.2902731000212952,,,,,,,,,,,,,,,,,,,,,,,,,,,,,,,,,6DG01A,train_y,blue_star,bottom_right,2025-05-19_17h57.08.244,HideSeek_v1,2022.2.5,59.8538249904241,
,9,3,9,4,0,1,62,,train_dim1_1,13,30,,,,2,0,2,0,,,,,,,,,0,0,0,0,0,12,12,12,1,0,1,0,,,,,,,,,,,,,,,,,,,,,,,,,,,,,,,,,,,,,,,,,,,,,,,,,,,,,,,,,,,,,,,,30,,,,,,,,2032.3740873999777,2032.3740873999777,2032.3740873999777,2032.3740873999777,2032.3740873999777,down,2.2943567999755032,0,0,0,99,0.56,-0.16,down,2.2154784000013024,,,,,,,,,,,,,,,,,,,,,,,,,,,,,,,,,,,,,,,,,,,,,,,,,,,,,,,,,,,,6DG01A,train_y,blue_star,bottom_right,2025-05-19_17h57.08.244,HideSeek_v1,2022.2.5,59.8538249904241,
,9,3,9,4,0,1,62,,train_dim1_1,13,30,,,,2,0,2,0,,,,,,,,,0,0,0,0,0,12,12,12,2,0,2,0,,,,,,,,,,,,,,,,,,,,,,,,,,,,,,,,,,,,,,,,,,,,,,,,,,,,,,,,,,,,,,,,30,,,,,,,,2034.6767592999968,2034.6767592999968,2034.6767592999968,2034.6767592999968,2034.6767592999968,return,1.2925432000192814,0,1,0,0,0.56,-0.16,return,1.214493500010576,36,-13,0.56,-0.16,,,,,,,,,,,,,,,,,,,,,,,,,,,,,,,,,,,,,,,,,,,,,,,,,,,,,,,,6DG01A,train_y,blue_star,bottom_right,2025-05-19_17h57.08.244,HideSeek_v1,2022.2.5,59.8538249904241,
,7,2,7,7,0,5,66,,train_dim1_1,14,30,,,,2,0,2,0,,,,,,,,,0,0,0,0,0,13,13,13,0,0,0,0,,,,,,,,,,,,,,,,,,,,,,,,,stimuli/alien_stimuli/66.png,,,,,,,,,,,,,,,,,,,,,,,,,,,,,stimuli/alien_stimuli/62.png,62,9,15,,,,,,,30,,,,,,,,2041.2214137000265,2041.2214137000265,2041.2214137000265,2041.2214137000265,2041.2214137000265,up,3.171785800019279,0,1,0,99,0.4,-0.15999999999999998,up,3.0978015000000596,,,,,2039.6658282999997,2041.2214137000265,0.56,-0.08,0.08,0.0,-0.12,0.56,0.56,0.56,-0.08,2037.534687699983,2037.534687699983,2037.534687699983,2037.534687699983,2037.534687699983,2037.534687699983,2037.534687699983,2037.534687699983,2037.5304583699735,2.236873399990145,return,2.1096658000024036,,,,,,,,,,,,,,,,,,,,,,,,,,,,,,,,,6DG01A,train_y,blue_star,bottom_right,2025-05-19_17h57.08.244,HideSeek_v1,2022.2.5,59.8538249904241,
,7,2,7,7,0,5,66,,train_dim1_1,14,30,,,,2,0,2,0,,,,,,,,,0,0,0,0,0,13,13,13,1,0,1,0,,,,,,,,,,,,,,,,,,,,,,,,,,,,,,,,,,,,,,,,,,,,,,,,,,,,,,,,,,,,,,,,30,,,,,,,,2044.4008633000194,2044.4008633000194,2044.4008633000194,2044.4008633000194,2044.4008633000194,up,0.4081769000040367,0,1,0,99,0.4,-0.07999999999999997,up,0.32880720001412556,,,,,,,,,,,,,,,,,,,,,,,,,,,,,,,,,,,,,,,,,,,,,,,,,,,,,,,,,,,,6DG01A,train_y,blue_star,bottom_right,2025-05-19_17h57.08.244,HideSeek_v1,2022.2.5,59.8538249904241,
,7,2,7,7,0,5,66,,train_dim1_1,14,30,,,,2,0,2,0,,,,,,,,,0,0,0,0,0,13,13,13,2,0,2,0,,,,,,,,,,,,,,,,,,,,,,,,,,,,,,,,,,,,,,,,,,,,,,,,,,,,,,,,,,,,,,,,30,,,,,,,,2044.8169423000072,2044.8169423000072,2044.8169423000072,2044.8169423000072,2044.8169423000072,up,0.37657210003817454,0,1,0,99,0.4,2.7755575615628914e-17,up,0.2904178000171669,,,,,,,,,,,,,,,,,,,,,,,,,,,,,,,,,,,,,,,,,,,,,,,,,,,,,,,,,,,,6DG01A,train_y,blue_star,bottom_right,2025-05-19_17h57.08.244,HideSeek_v1,2022.2.5,59.8538249904241,
,7,2,7,7,0,5,66,,train_dim1_1,14,30,,,,2,0,2,0,,,,,,,,,0,0,0,0,0,13,13,13,3,0,3,0,,,,,,,,,,,,,,,,,,,,,,,,,,,,,,,,,,,,,,,,,,,,,,,,,,,,,,,,,,,,,,,,30,,,,,,,,2045.1999092000187,2045.1999092000187,2045.1999092000187,2045.1999092000187,2045.1999092000187,up,0.3598088000435382,0,1,0,99,0.4,0.08000000000000003,up,0.2845262999762781,,,,,,,,,,,,,,,,,,,,,,,,,,,,,,,,,,,,,,,,,,,,,,,,,,,,,,,,,,,,6DG01A,train_y,blue_star,bottom_right,2025-05-19_17h57.08.244,HideSeek_v1,2022.2.5,59.8538249904241,
,7,2,7,7,0,5,66,,train_dim1_1,14,30,,,,2,0,2,0,,,,,,,,,0,0,0,0,0,13,13,13,4,0,4,0,,,,,,,,,,,,,,,,,,,,,,,,,,,,,,,,,,,,,,,,,,,,,,,,,,,,,,,,,,,,,,,,30,,,,,,,,2045.5669698999845,2045.5669698999845,2045.5669698999845,2045.5669698999845,2045.5669698999845,return,1.1936529999948107,0,1,0,0,0.4,0.08000000000000003,return,1.1161640999489464,40,-13,0.4,0.08000000000000003,,,,,,,,,,,,,,,,,,,,,,,,,,,,,,,,,,,,,,,,,,,,,,,,,,,,,,,,6DG01A,train_y,blue_star,bottom_right,2025-05-19_17h57.08.244,HideSeek_v1,2022.2.5,59.8538249904241,
,6,4,6,7,0,3,64,,train_dim1_1,15,30,,,,2,0,2,0,,,,,,,,,0,0,0,0,0,14,14,14,0,0,0,0,,,,,,,,,,,,,,,,,,,,,,,,,stimuli/alien_stimuli/64.png,,,,,,,,,,,,,,,,,,,,,,,,,,,,,stimuli/alien_stimuli/66.png,66,7,16,,,,,,,30,,,,,,,,2051.3603643000242,2051.3603643000242,2051.3603643000242,2051.3603643000242,2051.3603643000242,left,2.5558330999920145,0,1,0,99,0.24,-0.08,left,2.4788640000042506,,,,,2049.807100199978,2051.3603643000242,0.4,0.16,0.4,0.0,-0.039999999999999994,0.4,0.4,0.4,0.16,2048.3331665000296,2048.3331665000296,2048.3331665000296,2048.3331665000296,2048.3331665000296,2048.3331665000296,2048.3331665000296,2048.3331665000296,2048.322516469966,1.5870741999824531,return,1.456650100008119,,,,,,,,,,,,,,,,,,,,,,,,,,,,,,,,,6DG01A,train_y,blue_star,bottom_right,2025-05-19_17h57.08.244,HideSeek_v1,2022.2.5,59.8538249904241,
,6,4,6,7,0,3,64,,train_dim1_1,15,30,,,,2,0,2,0,,,,,,,,,0,0,0,0,0,14,14,14,1,0,1,0,,,,,,,,,,,,,,,,,,,,,,,,,,,,,,,,,,,,,,,,,,,,,,,,,,,,,,,,,,,,,,,,30,,,,,,,,2053.925477600016,2053.925477600016,2053.925477600016,2053.925477600016,2053.925477600016,left,0.3919966000248678,0,1,0,99,0.15999999999999998,-0.08,left,0.30849249998573214,,,,,,,,,,,,,,,,,,,,,,,,,,,,,,,,,,,,,,,,,,,,,,,,,,,,,,,,,,,,6DG01A,train_y,blue_star,bottom_right,2025-05-19_17h57.08.244,HideSeek_v1,2022.2.5,59.8538249904241,
,6,4,6,7,0,3,64,,train_dim1_1,15,30,,,,2,0,2,0,,,,,,,,,0,0,0,0,0,14,14,14,2,0,2,0,,,,,,,,,,,,,,,,,,,,,,,,,,,,,,,,,,,,,,,,,,,,,,,,,,,,,,,,,,,,,,,,30,,,,,,,,2054.3256963000167,2054.3256963000167,2054.3256963000167,2054.3256963000167,2054.3256963000167,left,0.3932199999690056,0,1,0,99,0.07999999999999997,-0.08,left,0.31230029999278486,,,,,,,,,,,,,,,,,,,,,,,,,,,,,,,,,,,,,,,,,,,,,,,,,,,,,,,,,,,,6DG01A,train_y,blue_star,bottom_right,2025-05-19_17h57.08.244,HideSeek_v1,2022.2.5,59.8538249904241,
,6,4,6,7,0,3,64,,train_dim1_1,15,30,,,,2,0,2,0,,,,,,,,,0,0,0,0,0,14,14,14,3,0,3,0,,,,,,,,,,,,,,,,,,,,,,,,,,,,,,,,,,,,,,,,,,,,,,,,,,,,,,,,,,,,,,,,30,,,,,,,,2054.724978299986,2054.724978299986,2054.724978299986,2054.724978299986,2054.724978299986,return,0.6264914000057615,0,0,0,0,0.07999999999999997,-0.08,return,0.5535849999869242,40,-16,0.07999999999999997,-0.08,,,,,,,,,,,,,,,,,,,,,,,,,,,,,,,,,,,,,,,,,,,,,,,,,,,,,,,,6DG01A,train_y,blue_star,bottom_right,2025-05-19_17h57.08.244,HideSeek_v1,2022.2.5,59.8538249904241,
,9,0,9,4,0,4,65,,train_dim1_1,16,30,,,,2,0,2,0,,,,,,,,,0,0,0,0,0,15,15,15,0,0,0,0,,,,,,,,,,,,,,,,,,,,,,,,,stimuli/alien_stimuli/65.png,,,,,,,,,,,,,,,,,,,,,,,,,,,,,stimuli/alien_stimuli/64.png,64,6,17,,,,,,,30,,,,,,,,2063.4582207999774,2063.4582207999774,2063.4582207999774,2063.4582207999774,2063.4582207999774,up,3.5206771999946795,0,0,0,99,0.56,-0.32,up,3.444584599987138,,,,,2061.900304800016,2063.4582207999774,0.32,0.16,0.24,0.0,0.04,0.32,0.32,0.32,0.16,2056.9046878999798,2056.9046878999798,2056.9046878999798,2056.9046878999798,2056.9046878999798,2056.9046878999798,2056.9046878999798,2056.9046878999798,2056.896285660018,5.089741000032518,return,4.97095490002539,,,,,,,,,,,,,,,,,,,,,,,,,,,,,,,,,6DG01A,train_y,blue_star,bottom_right,2025-05-19_17h57.08.244,HideSeek_v1,2022.2.5,59.8538249904241,
,9,0,9,4,0,4,65,,train_dim1_1,16,30,,,,2,0,2,0,,,,,,,,,0,0,0,0,0,15,15,15,1,0,1,0,,,,,,,,,,,,,,,,,,,,,,,,,,,,,,,,,,,,,,,,,,,,,,,,,,,,,,,,,,,,,,,,30,,,,,,,,2066.986157600011,2066.986157600011,2066.986157600011,2066.986157600011,2066.986157600011,up,0.5256473000044934,0,0,0,99,0.56,-0.24,up,0.45274889998836443,,,,,,,,,,,,,,,,,,,,,,,,,,,,,,,,,,,,,,,,,,,,,,,,,,,,,,,,,,,,6DG01A,train_y,blue_star,bottom_right,2025-05-19_17h57.08.244,HideSeek_v1,2022.2.5,59.8538249904241,
,9,0,9,4,0,4,65,,train_dim1_1,16,30,,,,2,0,2,0,,,,,,,,,0,0,0,0,0,15,15,15,2,0,2,0,,,,,,,,,,,,,,,,,,,,,,,,,,,,,,,,,,,,,,,,,,,,,,,,,,,,,,,,,,,,,,,,30,,,,,,,,2067.5180619999883,2067.5180619999883,2067.5180619999883,2067.5180619999883,2067.5180619999883,up,0.5100322000216693,0,0,0,99,0.56,-0.15999999999999998,up,0.4365733999875374,,,,,,,,,,,,,,,,,,,,,,,,,,,,,,,,,,,,,,,,,,,,,,,,,,,,,,,,,,,,6DG01A,train_y,blue_star,bottom_right,2025-05-19_17h57.08.244,HideSeek_v1,2022.2.5,59.8538249904241,
,9,0,9,4,0,4,65,,train_dim1_1,16,30,,,,2,0,2,0,,,,,,,,,0,0,0,0,0,15,15,15,3,0,3,0,,,,,,,,,,,,,,,,,,,,,,,,,,,,,,,,,,,,,,,,,,,,,,,,,,,,,,,,,,,,,,,,30,,,,,,,,2068.035860200005,2068.035860200005,2068.035860200005,2068.035860200005,2068.035860200005,up,0.44317749998299405,0,0,0,99,0.56,-0.07999999999999997,up,0.36269939999328926,,,,,,,,,,,,,,,,,,,,,,,,,,,,,,,,,,,,,,,,,,,,,,,,,,,,,,,,,,,,6DG01A,train_y,blue_star,bottom_right,2025-05-19_17h57.08.244,HideSeek_v1,2022.2.5,59.8538249904241,
,9,0,9,4,0,4,65,,train_dim1_1,16,30,,,,2,0,2,0,,,,,,,,,0,0,0,0,0,15,15,15,4,0,4,0,,,,,,,,,,,,,,,,,,,,,,,,,,,,,,,,,,,,,,,,,,,,,,,,,,,,,,,,,,,,,,,,30,,,,,,,,2068.485915700032,2068.485915700032,2068.485915700032,2068.485915700032,2068.485915700032,up,0.4763505999580957,0,0,0,99,0.56,2.7755575615628914e-17,up,0.39124629995785654,,,,,,,,,,,,,,,,,,,,,,,,,,,,,,,,,,,,,,,,,,,,,,,,,,,,,,,,,,,,6DG01A,train_y,blue_star,bottom_right,2025-05-19_17h57.08.244,HideSeek_v1,2022.2.5,59.8538249904241,
,9,0,9,4,0,4,65,,train_dim1_1,16,30,,,,2,0,2,0,,,,,,,,,0,0,0,0,0,15,15,15,5,0,5,0,,,,,,,,,,,,,,,,,,,,,,,,,,,,,,,,,,,,,,,,,,,,,,,,,,,,,,,,,,,,,,,,30,,,,,,,,2068.9706713000196,2068.9706713000196,2068.9706713000196,2068.9706713000196,2068.9706713000196,return,0.626621300005354,0,1,0,0,0.56,2.7755575615628914e-17,return,0.5523198000155389,45,-16,0.56,2.7755575615628914e-17,,,,,,,,,,,,,,,,,,,,,,,,,,,,,,,,,,,,,,,,,,,,,,,,,,,,,,,,6DG01A,train_y,blue_star,bottom_right,2025-05-19_17h57.08.244,HideSeek_v1,2022.2.5,59.8538249904241,
,8,3,8,6,0,3,64,,train_dim1_1,17,30,,,,2,0,2,0,,,,,,,,,0,0,0,0,0,16,16,16,0,0,0,0,,,,,,,,,,,,,,,,,,,,,,,,,stimuli/alien_stimuli/64.png,,,,,,,,,,,,,,,,,,,,,,,,,,,,,stimuli/alien_stimuli/65.png,65,9,18,,,,,,,30,,,,,,,,2076.6185716000036,2076.6185716000036,2076.6185716000036,2076.6185716000036,2076.6185716000036,up,4.837961799988989,0,1,0,99,0.48,-0.08,up,4.7501333999680355,,,,,2075.0613865000196,2076.6185716000036,0.56,-0.08,0.32,0.0,-0.24000000000000002,0.56,0.56,0.56,-0.08,2071.1631459000055,2071.1631459000055,2071.1631459000055,2071.1631459000055,2071.1631459000055,2071.1631459000055,2071.1631459000055,2071.1631459000055,2071.1580240700105,4.005914099980146,return,3.87686770001892,,,,,,,,,,,,,,,,,,,,,,,,,,,,,,,,,6DG01A,train_y,blue_star,bottom_right,2025-05-19_17h57.08.244,HideSeek_v1,2022.2.5,59.8538249904241,
,8,3,8,6,0,3,64,,train_dim1_1,17,30,,,,2,0,2,0,,,,,,,,,0,0,0,0,0,16,16,16,1,0,1,0,,,,,,,,,,,,,,,,,,,,,,,,,,,,,,,,,,,,,,,,,,,,,,,,,,,,,,,,,,,,,,,,30,,,,,,,,2081.474372400029,2081.474372400029,2081.474372400029,2081.474372400029,2081.474372400029,up,0.5761590999900363,0,1,0,99,0.48,0.0,up,0.488168699957896,,,,,,,,,,,,,,,,,,,,,,,,,,,,,,,,,,,,,,,,,,,,,,,,,,,,,,,,,,,,6DG01A,train_y,blue_star,bottom_right,2025-05-19_17h57.08.244,HideSeek_v1,2022.2.5,59.8538249904241,
,8,3,8,6,0,3,64,,train_dim1_1,17,30,,,,2,0,2,0,,,,,,,,,0,0,0,0,0,16,16,16,2,0,2,0,,,,,,,,,,,,,,,,,,,,,,,,,,,,,,,,,,,,,,,,,,,,,,,,,,,,,,,,,,,,,,,,30,,,,,,,,2082.0475934999995,2082.0475934999995,2082.0475934999995,2082.0475934999995,2082.0475934999995,up,0.47659149998798966,0,1,0,99,0.48,0.08,up,0.40164029999868944,,,,,,,,,,,,,,,,,,,,,,,,,,,,,,,,,,,,,,,,,,,,,,,,,,,,,,,,,,,,6DG01A,train_y,blue_star,bottom_right,2025-05-19_17h57.08.244,HideSeek_v1,2022.2.5,59.8538249904241,
,8,3,8,6,0,3,64,,train_dim1_1,17,30,,,,2,0,2,0,,,,,,,,,0,0,0,0,0,16,16,16,3,0,3,0,,,,,,,,,,,,,,,,,,,,,,,,,,,,,,,,,,,,,,,,,,,,,,,,,,,,,,,,,,,,,,,,30,,,,,,,,2082.530594400014,2082.530594400014,2082.530594400014,2082.530594400014,2082.530594400014,up,0.4095691000111401,0,1,0,99,0.48,0.16,up,0.3326328999828547,,,,,,,,,,,,,,,,,,,,,,,,,,,,,,,,,,,,,,,,,,,,,,,,,,,,,,,,,,,,6DG01A,train_y,blue_star,bottom_right,2025-05-19_17h57.08.244,HideSeek_v1,2022.2.5,59.8538249904241,
,8,3,8,6,0,3,64,,train_dim1_1,17,30,,,,2,0,2,0,,,,,,,,,0,0,0,0,0,16,16,16,4,0,4,0,,,,,,,,,,,,,,,,,,,,,,,,,,,,,,,,,,,,,,,,,,,,,,,,,,,,,,,,,,,,,,,,30,,,,,,,,2082.9473392000073,2082.9473392000073,2082.9473392000073,2082.9473392000073,2082.9473392000073,up,0.7438181000179611,0,1,0,99,0.48,0.24,up,0.6669349999865517,,,,,,,,,,,,,,,,,,,,,,,,,,,,,,,,,,,,,,,,,,,,,,,,,,,,,,,,,,,,6DG01A,train_y,blue_star,bottom_right,2025-05-19_17h57.08.244,HideSeek_v1,2022.2.5,59.8538249904241,
,8,3,8,6,0,3,64,,train_dim1_1,17,30,,,,2,0,2,0,,,,,,,,,0,0,0,0,0,16,16,16,5,0,5,0,,,,,,,,,,,,,,,,,,,,,,,,,,,,,,,,,,,,,,,,,,,,,,,,,,,,,,,,,,,,,,,,30,,,,,,,,2083.6992252999917,2083.6992252999917,2083.6992252999917,2083.6992252999917,2083.6992252999917,return,0.693137000023853,0,0,0,0,0.48,0.24,return,0.6056365999975242,50,-16,0.48,0.24,,,,,,,,,,,,,,,,,,,,,,,,,,,,,,,,,,,,,,,,,,,,,,,,,,,,,,,,6DG01A,train_y,blue_star,bottom_right,2025-05-19_17h57.08.244,HideSeek_v1,2022.2.5,59.8538249904241,
,7,1,7,1,0,0,61,,train_dim1_1,18,30,,,,2,0,2,0,,,,,,,,,0,0,0,0,0,17,17,17,0,0,0,0,,,,,,,,,,,,,,,,,,,,,,,,,stimuli/alien_stimuli/61.png,,,,,,,,,,,,,,,,,,,,,,,,,,,,,stimuli/alien_stimuli/64.png,64,8,19,,,,,,,30,,,,,,,,2090.0767108,2090.0767108,2090.0767108,2090.0767108,2090.0767108,up,2.6389502999954857,0,0,0,99,0.4,-0.24,up,2.5562560000107624,,,,,2088.5224824000034,2090.0767108,0.48,0.08,0.24,0.0,-0.04,0.48,0.48,0.48,0.08,2085.9602769999765,2085.9602769999765,2085.9602769999765,2085.9602769999765,2085.9602769999765,2085.9602769999765,2085.9602769999765,2085.9602769999765,2085.953800369968,2.6707500999909826,return,2.537613600026816,,,,,,,,,,,,,,,,,,,,,,,,,,,,,,,,,6DG01A,train_y,blue_star,bottom_right,2025-05-19_17h57.08.244,HideSeek_v1,2022.2.5,59.8538249904241,
,7,1,7,1,0,0,61,,train_dim1_1,18,30,,,,2,0,2,0,,,,,,,,,0,0,0,0,0,17,17,17,1,0,1,0,,,,,,,,,,,,,,,,,,,,,,,,,,,,,,,,,,,,,,,,,,,,,,,,,,,,,,,,,,,,,,,,30,,,,,,,,2092.724438800011,2092.724438800011,2092.724438800011,2092.724438800011,2092.724438800011,return,0.8422169000259601,0,1,0,0,0.4,-0.24,return,0.7614889999968,51,-16,0.4,-0.24,,,,,,,,,,,,,,,,,,,,,,,,,,,,,,,,,,,,,,,,,,,,,,,,,,,,,,,,6DG01A,train_y,blue_star,bottom_right,2025-05-19_17h57.08.244,HideSeek_v1,2022.2.5,59.8538249904241,
,5,4,5,5,0,1,62,,train_dim1_1,19,30,,,,2,0,2,0,,,,,,,,,0,0,0,0,0,18,18,18,0,0,0,0,,,,,,,,,,,,,,,,,,,,,,,,,stimuli/alien_stimuli/62.png,,,,,,,,,,,,,,,,,,,,,,,,,,,,,stimuli/alien_stimuli/61.png,61,7,20,,,,,,,30,,,,,,,,2098.263970699976,2098.263970699976,2098.263970699976,2098.263970699976,2098.263970699976,left,4.292730199988,0,1,0,99,0.15999999999999998,-0.08,left,4.208869100024458,,,,,2096.712822499976,2098.263970699976,0.4,-0.32,0.0,0.0,-0.32,0.4,0.4,0.4,-0.32,2095.1242616000236,2095.1242616000236,2095.1242616000236,2095.1242616000236,2095.1242616000236,2095.1242616000236,2095.1242616000236,2095.1242616000236,2095.111415959988,1.6870562999974936,return,1.5700579999829642,,,,,,,,,,,,,,,,,,,,,,,,,,,,,,,,,6DG01A,train_y,blue_star,bottom_right,2025-05-19_17h57.08.244,HideSeek_v1,2022.2.5,59.8538249904241,
,5,4,5,5,0,1,62,,train_dim1_1,19,30,,,,2,0,2,0,,,,,,,,,0,0,0,0,0,18,18,18,1,0,1,0,,,,,,,,,,,,,,,,,,,,,,,,,,,,,,,,,,,,,,,,,,,,,,,,,,,,,,,,,,,,,,,,30,,,,,,,,2102.5651755,2102.5651755,2102.5651755,2102.5651755,2102.5651755,return,0.6096968000056222,0,0,0,0,0.15999999999999998,-0.08,return,0.5335112000466324,51,-17,0.15999999999999998,-0.08,,,,,,,,,,,,,,,,,,,,,,,,,,,,,,,,,,,,,,,,,,,,,,,,,,,,,,,,6DG01A,train_y,blue_star,bottom_right,2025-05-19_17h57.08.244,HideSeek_v1,2022.2.5,59.8538249904241,
,7,0,7,5,0,5,66,,train_dim1_1,20,30,,,,2,0,2,0,,,,,,,,,0,0,0,0,0,19,19,19,0,0,0,0,,,,,,,,,,,,,,,,,,,,,,,,,stimuli/alien_stimuli/66.png,,,,,,,,,,,,,,,,,,,,,,,,,,,,,stimuli/alien_stimuli/62.png,62,5,21,,,,,,,30,,,,,,,,2108.1919584000134,2108.1919584000134,2108.1919584000134,2108.1919584000134,2108.1919584000134,up,3.7572029999573715,0,0,0,99,0.4,-0.32,up,3.683867999992799,,,,,2106.637682700006,2108.1919584000134,0.24,0,0.08,0.0,-0.04,0.24,0.24,0.24,0,2104.727917100012,2104.727917100012,2104.727917100012,2104.727917100012,2104.727917100012,2104.727917100012,2104.727917100012,2104.727917100012,2104.719349760015,2.003942899988033,return,1.8886328999651596,,,,,,,,,,,,,,,,,,,,,,,,,,,,,,,,,6DG01A,train_y,blue_star,bottom_right,2025-05-19_17h57.08.244,HideSeek_v1,2022.2.5,59.8538249904241,
,7,0,7,5,0,5,66,,train_dim1_1,20,30,,,,2,0,2,0,,,,,,,,,0,0,0,0,0,19,19,19,1,0,1,0,,,,,,,,,,,,,,,,,,,,,,,,,,,,,,,,,,,,,,,,,,,,,,,,,,,,,,,,,,,,,,,,30,,,,,,,,2111.9579990999773,2111.9579990999773,2111.9579990999773,2111.9579990999773,2111.9579990999773,up,0.6405782999936491,0,0,0,99,0.4,-0.24,up,0.5545049000065774,,,,,,,,,,,,,,,,,,,,,,,,,,,,,,,,,,,,,,,,,,,,,,,,,,,,,,,,,,,,6DG01A,train_y,blue_star,bottom_right,2025-05-19_17h57.08.244,HideSeek_v1,2022.2.5,59.8538249904241,
,7,0,7,5,0,5,66,,train_dim1_1,20,30,,,,2,0,2,0,,,,,,,,,0,0,0,0,0,19,19,19,2,0,2,0,,,,,,,,,,,,,,,,,,,,,,,,,,,,,,,,,,,,,,,,,,,,,,,,,,,,,,,,,,,,,,,,30,,,,,,,,2112.6055130999885,2112.6055130999885,2112.6055130999885,2112.6055130999885,2112.6055130999885,up,1.6275791000225581,0,0,0,99,0.4,-0.15999999999999998,up,1.5511227999813855,,,,,,,,,,,,,,,,,,,,,,,,,,,,,,,,,,,,,,,,,,,,,,,,,,,,,,,,,,,,6DG01A,train_y,blue_star,bottom_right,2025-05-19_17h57.08.244,HideSeek_v1,2022.2.5,59.8538249904241,
,7,0,7,5,0,5,66,,train_dim1_1,20,30,,,,2,0,2,0,,,,,,,,,0,0,0,0,0,19,19,19,3,0,3,0,,,,,,,,,,,,,,,,,,,,,,,,,,,,,,,,,,,,,,,,,,,,,,,,,,,,,,,,,,,,,,,,30,,,,,,,,2114.2516058000037,2114.2516058000037,2114.2516058000037,2114.2516058000037,2114.2516058000037,up,0.5559543999843299,0,0,0,99,0.4,-0.07999999999999997,up,0.4685870000394061,,,,,,,,,,,,,,,,,,,,,,,,,,,,,,,,,,,,,,,,,,,,,,,,,,,,,,,,,,,,6DG01A,train_y,blue_star,bottom_right,2025-05-19_17h57.08.244,HideSeek_v1,2022.2.5,59.8538249904241,
,7,0,7,5,0,5,66,,train_dim1_1,20,30,,,,2,0,2,0,,,,,,,,,0,0,0,0,0,19,19,19,4,0,4,0,,,,,,,,,,,,,,,,,,,,,,,,,,,,,,,,,,,,,,,,,,,,,,,,,,,,,,,,,,,,,,,,30,,,,,,,,2114.807315199985,2114.807315199985,2114.807315199985,2114.807315199985,2114.807315199985,return,0.8102497999789193,0,1,0,0,0.4,-0.07999999999999997,return,0.7305924000102095,55,-17,0.4,-0.07999999999999997,,,,,,,,,,,,,,,,,,,,,,,,,,,,,,,,,,,,,,,,,,,,,,,,,,,,,,,,6DG01A,train_y,blue_star,bottom_right,2025-05-19_17h57.08.244,HideSeek_v1,2022.2.5,59.8538249904241,
,7,4,7,8,0,4,65,,train_dim1_1,21,30,,,,2,0,2,0,,,,,,,,,0,0,0,0,0,20,20,20,0,0,0,0,,,,,,,,,,,,,,,,,,,,,,,,,stimuli/alien_stimuli/65.png,,,,,,,,,,,,,,,,,,,,,,,,,,,,,stimuli/alien_stimuli/66.png,66,7,22,,,,,,,30,,,,,,,,2123.471852799994,2123.471852799994,2123.471852799994,2123.471852799994,2123.471852799994,up,1.8873650999739766,0,1,0,99,0.4,0.0,up,1.803979000018444,,,,,2121.9170768000185,2123.471852799994,0.4,0,0.4,0.0,-0.2,0.4,0.4,0.4,0,2117.1808407999924,2117.1808407999924,2117.1808407999924,2117.1808407999924,2117.1808407999924,2117.1808407999924,2117.1808407999924,2117.1808407999924,2117.1798645700155,4.8395058999885805,return,4.707799500029068,,,,,,,,,,,,,,,,,,,,,,,,,,,,,,,,,6DG01A,train_y,blue_star,bottom_right,2025-05-19_17h57.08.244,HideSeek_v1,2022.2.5,59.8538249904241,
,7,4,7,8,0,4,65,,train_dim1_1,21,30,,,,2,0,2,0,,,,,,,,,0,0,0,0,0,20,20,20,1,0,1,0,,,,,,,,,,,,,,,,,,,,,,,,,,,,,,,,,,,,,,,,,,,,,,,,,,,,,,,,,,,,,,,,30,,,,,,,,2125.3674374999828,2125.3674374999828,2125.3674374999828,2125.3674374999828,2125.3674374999828,up,0.45948180003324524,0,1,0,99,0.4,0.08,up,0.3799950999673456,,,,,,,,,,,,,,,,,,,,,,,,,,,,,,,,,,,,,,,,,,,,,,,,,,,,,,,,,,,,6DG01A,train_y,blue_star,bottom_right,2025-05-19_17h57.08.244,HideSeek_v1,2022.2.5,59.8538249904241,
,7,4,7,8,0,4,65,,train_dim1_1,21,30,,,,2,0,2,0,,,,,,,,,0,0,0,0,0,20,20,20,2,0,2,0,,,,,,,,,,,,,,,,,,,,,,,,,,,,,,,,,,,,,,,,,,,,,,,,,,,,,,,,,,,,,,,,30,,,,,,,,2125.8346283999854,2125.8346283999854,2125.8346283999854,2125.8346283999854,2125.8346283999854,up,0.45958570000948384,0,1,0,99,0.4,0.16,up,0.3761769999982789,,,,,,,,,,,,,,,,,,,,,,,,,,,,,,,,,,,,,,,,,,,,,,,,,,,,,,,,,,,,6DG01A,train_y,blue_star,bottom_right,2025-05-19_17h57.08.244,HideSeek_v1,2022.2.5,59.8538249904241,
,7,4,7,8,0,4,65,,train_dim1_1,21,30,,,,2,0,2,0,,,,,,,,,0,0,0,0,0,20,20,20,3,0,3,0,,,,,,,,,,,,,,,,,,,,,,,,,,,,,,,,,,,,,,,,,,,,,,,,,,,,,,,,,,,,,,,,30,,,,,,,,2126.3011576000135,2126.3011576000135,2126.3011576000135,2126.3011576000135,2126.3011576000135,up,0.4926094000111334,0,1,0,99,0.4,0.24,up,0.41082160000223666,,,,,,,,,,,,,,,,,,,,,,,,,,,,,,,,,,,,,,,,,,,,,,,,,,,,,,,,,,,,6DG01A,train_y,blue_star,bottom_right,2025-05-19_17h57.08.244,HideSeek_v1,2022.2.5,59.8538249904241,
,7,4,7,8,0,4,65,,train_dim1_1,21,30,,,,2,0,2,0,,,,,,,,,0,0,0,0,0,20,20,20,4,0,4,0,,,,,,,,,,,,,,,,,,,,,,,,,,,,,,,,,,,,,,,,,,,,,,,,,,,,,,,,,,,,,,,,30,,,,,,,,2126.80003709998,2126.80003709998,2126.80003709998,2126.80003709998,2126.80003709998,up,2.6453556999913417,0,1,0,99,0.4,0.32,up,2.5614227000041865,,,,,,,,,,,,,,,,,,,,,,,,,,,,,,,,,,,,,,,,,,,,,,,,,,,,,,,,,,,,6DG01A,train_y,blue_star,bottom_right,2025-05-19_17h57.08.244,HideSeek_v1,2022.2.5,59.8538249904241,
,7,4,7,8,0,4,65,,train_dim1_1,21,30,,,,2,0,2,0,,,,,,,,,0,0,0,0,0,20,20,20,5,0,5,0,,,,,,,,,,,,,,,,,,,,,,,,,,,,,,,,,,,,,,,,,,,,,,,,,,,,,,,,,,,,,,,,30,,,,,,,,2129.453983500018,2129.453983500018,2129.453983500018,2129.453983500018,2129.453983500018,return,1.8103314000181854,0,1,0,0,0.4,0.32,return,1.7243816999834962,60,-17,0.4,0.32,,,,,,,,,,,,,,,,,,,,,,,,,,,,,,,,,,,,,,,,,,,,,,,,,,,,,,,,6DG01A,train_y,blue_star,bottom_right,2025-05-19_17h57.08.244,HideSeek_v1,2022.2.5,59.8538249904241,
,5,2,5,5,0,3,64,,train_dim1_1,22,30,,,,2,0,2,0,,,,,,,,,0,0,0,0,0,21,21,21,0,0,0,0,,,,,,,,,,,,,,,,,,,,,,,,,stimuli/alien_stimuli/64.png,,,,,,,,,,,,,,,,,,,,,,,,,,,,,stimuli/alien_stimuli/65.png,65,7,23,,,,,,,30,,,,,,,,2136.1640223999857,2136.1640223999857,2136.1640223999857,2136.1640223999857,2136.1640223999857,up,1.838914499967359,0,1,0,99,0.24,-0.15999999999999998,up,1.7575589999905787,,,,,2134.61089489999,2136.1640223999857,0.4,0.24,0.32,0.0,0.07999999999999999,0.4,0.4,0.4,0.24,2132.830800399999,2132.830800399999,2132.830800399999,2132.830800399999,2132.830800399999,2132.830800399999,2132.830800399999,2132.830800399999,2132.8261350699877,1.887036900036037,return,1.7484393999911845,,,,,,,,,,,,,,,,,,,,,,,,,,,,,,,,,6DG01A,train_y,blue_star,bottom_right,2025-05-19_17h57.08.244,HideSeek_v1,2022.2.5,59.8538249904241,
,5,2,5,5,0,3,64,,train_dim1_1,22,30,,,,2,0,2,0,,,,,,,,,0,0,0,0,0,21,21,21,1,0,1,0,,,,,,,,,,,,,,,,,,,,,,,,,,,,,,,,,,,,,,,,,,,,,,,,,,,,,,,,,,,,,,,,30,,,,,,,,2138.0098798000254,2138.0098798000254,2138.0098798000254,2138.0098798000254,2138.0098798000254,up,0.4595808000303805,0,1,0,99,0.24,-0.07999999999999997,up,0.38044380000792444,,,,,,,,,,,,,,,,,,,,,,,,,,,,,,,,,,,,,,,,,,,,,,,,,,,,,,,,,,,,6DG01A,train_y,blue_star,bottom_right,2025-05-19_17h57.08.244,HideSeek_v1,2022.2.5,59.8538249904241,
,5,2,5,5,0,3,64,,train_dim1_1,22,30,,,,2,0,2,0,,,,,,,,,0,0,0,0,0,21,21,21,2,0,2,0,,,,,,,,,,,,,,,,,,,,,,,,,,,,,,,,,,,,,,,,,,,,,,,,,,,,,,,,,,,,,,,,30,,,,,,,,2138.4778700000024,2138.4778700000024,2138.4778700000024,2138.4778700000024,2138.4778700000024,up,0.7923778999829665,0,1,0,99,0.24,2.7755575615628914e-17,up,0.7157405999605544,,,,,,,,,,,,,,,,,,,,,,,,,,,,,,,,,,,,,,,,,,,,,,,,,,,,,,,,,,,,6DG01A,train_y,blue_star,bottom_right,2025-05-19_17h57.08.244,HideSeek_v1,2022.2.5,59.8538249904241,
,5,2,5,5,0,3,64,,train_dim1_1,22,30,,,,2,0,2,0,,,,,,,,,0,0,0,0,0,21,21,21,3,0,3,0,,,,,,,,,,,,,,,,,,,,,,,,,,,,,,,,,,,,,,,,,,,,,,,,,,,,,,,,,,,,,,,,30,,,,,,,,2139.277043099981,2139.277043099981,2139.277043099981,2139.277043099981,2139.277043099981,return,0.5432452000095509,1,0,0,1,0.24,2.7755575615628914e-17,return,0.4632745999842882,63,-17,0.24,2.7755575615628914e-17,,,,,,,,,,,,,,,,,,,,,,,,,,,,,,,,,,,,,,,,,,,,,,,,,,,,,,,,6DG01A,train_y,blue_star,bottom_right,2025-05-19_17h57.08.244,HideSeek_v1,2022.2.5,59.8538249904241,
,5,3,5,3,0,0,61,,train_dim1_1,23,30,,,,2,0,2,0,,,,,,,,,0,0,0,0,0,22,22,22,0,0,0,0,,,,,,,,,,,,,,,,,,,,,,,,,stimuli/alien_stimuli/61.png,,,,,,,,,,,,,,,,,,,,,,,,,,,,,stimuli/alien_stimuli/64.png,64,5,24,,,,,,,30,,,,,,,,2150.4623913000105,2150.4623913000105,2150.4623913000105,2150.4623913000105,2150.4623913000105,up,2.0873726999852806,1,0,0,99,0.24,-0.08,up,2.013414899993222,,,,,2148.906152200012,2150.4623913000105,0.24,0,0.24,0.0,-0.12,0.24,0.24,0.24,0,2141.3767553999787,2141.3767553999787,2141.3767553999787,2141.3767553999787,2141.3767553999787,2141.3767553999787,2141.3767553999787,2141.3767553999787,2141.3664338600124,7.625143599987496,return,7.49982430000091,,,,,,,,,,,,,,,,,,,,,,,,,,,,,,,,,6DG01A,train_y,blue_star,bottom_right,2025-05-19_17h57.08.244,HideSeek_v1,2022.2.5,59.8538249904241,
,5,3,5,3,0,0,61,,train_dim1_1,23,30,,,,2,0,2,0,,,,,,,,,0,0,0,0,0,22,22,22,1,0,1,0,,,,,,,,,,,,,,,,,,,,,,,,,,,,,,,,,,,,,,,,,,,,,,,,,,,,,,,,,,,,,,,,30,,,,,,,,2152.5573889000225,2152.5573889000225,2152.5573889000225,2152.5573889000225,2152.5573889000225,return,1.0928191000130028,1,1,0,0,0.24,-0.08,return,1.0152626999770291,64,-17,0.24,-0.08,,,,,,,,,,,,,,,,,,,,,,,,,,,,,,,,,,,,,,,,,,,,,,,,,,,,,,,,6DG01A,train_y,blue_star,bottom_right,2025-05-19_17h57.08.244,HideSeek_v1,2022.2.5,59.8538249904241,
,8,2,8,7,0,5,66,,train_dim1_1,24,30,,,,2,0,2,0,,,,,,,,,0,0,0,0,0,23,23,23,0,0,0,0,,,,,,,,,,,,,,,,,,,,,,,,,stimuli/alien_stimuli/66.png,,,,,,,,,,,,,,,,,,,,,,,,,,,,,stimuli/alien_stimuli/61.png,61,5,25,,,,,,,30,,,,,,,,2157.8160578000243,2157.8160578000243,2157.8160578000243,2157.8160578000243,2157.8160578000243,up,1.8044037999934517,1,1,0,99,0.48,-0.15999999999999998,up,1.728406400012318,,,,,2156.262201900012,2157.8160578000243,0.24,-0.16,0.0,0.0,-0.16,0.24,0.24,0.24,-0.16,2155.2202636,2155.2202636,2155.2202636,2155.2202636,2155.2202636,2155.2202636,2155.2202636,2155.2202636,2155.211096869997,1.1533509999862872,return,1.0196171999559738,,,,,,,,,,,,,,,,,,,,,,,,,,,,,,,,,6DG01A,train_y,blue_star,bottom_right,2025-05-19_17h57.08.244,HideSeek_v1,2022.2.5,59.8538249904241,
,8,2,8,7,0,5,66,,train_dim1_1,24,30,,,,2,0,2,0,,,,,,,,,0,0,0,0,0,23,23,23,1,0,1,0,,,,,,,,,,,,,,,,,,,,,,,,,,,,,,,,,,,,,,,,,,,,,,,,,,,,,,,,,,,,,,,,30,,,,,,,,2159.6280449000187,2159.6280449000187,2159.6280449000187,2159.6280449000187,2159.6280449000187,up,0.49323360004927963,1,1,0,99,0.48,-0.07999999999999997,up,0.4161021000472829,,,,,,,,,,,,,,,,,,,,,,,,,,,,,,,,,,,,,,,,,,,,,,,,,,,,,,,,,,,,6DG01A,train_y,blue_star,bottom_right,2025-05-19_17h57.08.244,HideSeek_v1,2022.2.5,59.8538249904241,
,8,2,8,7,0,5,66,,train_dim1_1,24,30,,,,2,0,2,0,,,,,,,,,0,0,0,0,0,23,23,23,2,0,2,0,,,,,,,,,,,,,,,,,,,,,,,,,,,,,,,,,,,,,,,,,,,,,,,,,,,,,,,,,,,,,,,,30,,,,,,,,2160.1287284999853,2160.1287284999853,2160.1287284999853,2160.1287284999853,2160.1287284999853,up,0.4097392000257969,1,1,0,99,0.48,2.7755575615628914e-17,up,0.3260397999547422,,,,,,,,,,,,,,,,,,,,,,,,,,,,,,,,,,,,,,,,,,,,,,,,,,,,,,,,,,,,6DG01A,train_y,blue_star,bottom_right,2025-05-19_17h57.08.244,HideSeek_v1,2022.2.5,59.8538249904241,
,8,2,8,7,0,5,66,,train_dim1_1,24,30,,,,2,0,2,0,,,,,,,,,0,0,0,0,0,23,23,23,3,0,3,0,,,,,,,,,,,,,,,,,,,,,,,,,,,,,,,,,,,,,,,,,,,,,,,,,,,,,,,,,,,,,,,,30,,,,,,,,2160.5459786999854,2160.5459786999854,2160.5459786999854,2160.5459786999854,2160.5459786999854,up,0.4429895000066608,1,1,0,99,0.48,0.08000000000000003,up,0.357485499989707,,,,,,,,,,,,,,,,,,,,,,,,,,,,,,,,,,,,,,,,,,,,,,,,,,,,,,,,,,,,6DG01A,train_y,blue_star,bottom_right,2025-05-19_17h57.08.244,HideSeek_v1,2022.2.5,59.8538249904241,
,8,2,8,7,0,5,66,,train_dim1_1,24,30,,,,2,0,2,0,,,,,,,,,0,0,0,0,0,23,23,23,4,0,4,0,,,,,,,,,,,,,,,,,,,,,,,,,,,,,,,,,,,,,,,,,,,,,,,,,,,,,,,,,,,,,,,,30,,,,,,,,2160.9957593000145,2160.9957593000145,2160.9957593000145,2160.9957593000145,2160.9957593000145,return,1.127233300008811,1,1,0,0,0.48,0.08000000000000003,return,1.044658599945251,68,-17,0.48,0.08000000000000003,,,,,,,,,,,,,,,,,,,,,,,,,,,,,,,,,,,,,,,,,,,,,,,,,,,,,,,,6DG01A,train_y,blue_star,bottom_right,2025-05-19_17h57.08.244,HideSeek_v1,2022.2.5,59.8538249904241,
,8,3,8,4,0,1,62,,train_dim1_1,25,30,,,,2,0,2,0,,,,,,,,,0,0,0,0,0,24,24,24,0,0,0,0,,,,,,,,,,,,,,,,,,,,,,,,,stimuli/alien_stimuli/62.png,,,,,,,,,,,,,,,,,,,,,,,,,,,,,stimuli/alien_stimuli/66.png,66,8,26,,,,,,,30,,,,,,,,2167.961192500021,2167.961192500021,2167.961192500021,2167.961192500021,2167.961192500021,up,2.4038824000163004,1,1,0,99,0.48,-0.08,up,2.313634500023909,,,,,2166.403928600019,2167.961192500021,0.48,0.16,0.4,0.0,-0.039999999999999994,0.48,0.48,0.48,0.16,2163.676715800015,2163.676715800015,2163.676715800015,2163.676715800015,2163.676715800015,2163.676715800015,2163.676715800015,2163.676715800015,2163.668219659978,2.821629000012763,return,2.69637399999192,,,,,,,,,,,,,,,,,,,,,,,,,,,,,,,,,6DG01A,train_y,blue_star,bottom_right,2025-05-19_17h57.08.244,HideSeek_v1,2022.2.5,59.8538249904241,
,8,3,8,4,0,1,62,,train_dim1_1,25,30,,,,2,0,2,0,,,,,,,,,0,0,0,0,0,24,24,24,1,0,1,0,,,,,,,,,,,,,,,,,,,,,,,,,,,,,,,,,,,,,,,,,,,,,,,,,,,,,,,,,,,,,,,,30,,,,,,,,2170.3716840000125,2170.3716840000125,2170.3716840000125,2170.3716840000125,2170.3716840000125,return,0.9766310999984853,2,0,0,1,0.48,-0.08,return,0.8958283000392839,69,-17,0.48,-0.08,,,,,,,,,,,,,,,,,,,,,,,,,,,,,,,,,,,,,,,,,,,,,,,,,,,,,,,,6DG01A,train_y,blue_star,bottom_right,2025-05-19_17h57.08.244,HideSeek_v1,2022.2.5,59.8538249904241,
,9,4,9,7,0,3,64,,train_dim1_1,26,30,,,,2,0,2,0,,,,,,,,,0,0,0,0,0,25,25,25,0,0,0,0,,,,,,,,,,,,,,,,,,,,,,,,,stimuli/alien_stimuli/64.png,,,,,,,,,,,,,,,,,,,,,,,,,,,,,stimuli/alien_stimuli/62.png,62,8,27,,,,,,,30,,,,,,,,2175.762559499999,2175.762559499999,2175.762559499999,2175.762559499999,2175.762559499999,up,3.374892199994065,2,0,0,99,0.56,0.0,up,3.290759600000456,,,,,2174.210260200023,2175.762559499999,0.48,-0.08,0.08,0.0,-0.12,0.48,0.48,0.48,-0.08,2172.904960600019,2172.904960600019,2172.904960600019,2172.904960600019,2172.904960600019,2172.904960600019,2172.904960600019,2172.904960600019,2172.892613259994,1.403495299979113,return,1.2875676999683492,,,,,,,,,,,,,,,,,,,,,,,,,,,,,,,,,6DG01A,train_y,blue_star,bottom_right,2025-05-19_17h57.08.244,HideSeek_v1,2022.2.5,59.8538249904241,
,9,4,9,7,0,3,64,,train_dim1_1,26,30,,,,2,0,2,0,,,,,,,,,0,0,0,0,0,25,25,25,1,0,1,0,,,,,,,,,,,,,,,,,,,,,,,,,,,,,,,,,,,,,,,,,,,,,,,,,,,,,,,,,,,,,,,,30,,,,,,,,2179.1561660000007,2179.1561660000007,2179.1561660000007,2179.1561660000007,2179.1561660000007,up,0.42601390002528206,2,0,0,99,0.56,0.08,up,0.32950780005194247,,,,,,,,,,,,,,,,,,,,,,,,,,,,,,,,,,,,,,,,,,,,,,,,,,,,,,,,,,,,6DG01A,train_y,blue_star,bottom_right,2025-05-19_17h57.08.244,HideSeek_v1,2022.2.5,59.8538249904241,
,9,4,9,7,0,3,64,,train_dim1_1,26,30,,,,2,0,2,0,,,,,,,,,0,0,0,0,0,25,25,25,2,0,2,0,,,,,,,,,,,,,,,,,,,,,,,,,,,,,,,,,,,,,,,,,,,,,,,,,,,,,,,,,,,,,,,,30,,,,,,,,2179.5776866999804,2179.5776866999804,2179.5776866999804,2179.5776866999804,2179.5776866999804,up,0.4104236999992281,2,0,0,99,0.56,0.16,up,0.32838860002812,,,,,,,,,,,,,,,,,,,,,,,,,,,,,,,,,,,,,,,,,,,,,,,,,,,,,,,,,,,,6DG01A,train_y,blue_star,bottom_right,2025-05-19_17h57.08.244,HideSeek_v1,2022.2.5,59.8538249904241,
,9,4,9,7,0,3,64,,train_dim1_1,26,30,,,,2,0,2,0,,,,,,,,,0,0,0,0,0,25,25,25,3,0,3,0,,,,,,,,,,,,,,,,,,,,,,,,,,,,,,,,,,,,,,,,,,,,,,,,,,,,,,,,,,,,,,,,30,,,,,,,,2179.9953427999862,2179.9953427999862,2179.9953427999862,2179.9953427999862,2179.9953427999862,up,0.6764281999785453,2,0,0,99,0.56,0.24,up,0.595265100011602,,,,,,,,,,,,,,,,,,,,,,,,,,,,,,,,,,,,,,,,,,,,,,,,,,,,,,,,,,,,6DG01A,train_y,blue_star,bottom_right,2025-05-19_17h57.08.244,HideSeek_v1,2022.2.5,59.8538249904241,
,9,4,9,7,0,3,64,,train_dim1_1,26,30,,,,2,0,2,0,,,,,,,,,0,0,0,0,0,25,25,25,4,0,4,0,,,,,,,,,,,,,,,,,,,,,,,,,,,,,,,,,,,,,,,,,,,,,,,,,,,,,,,,,,,,,,,,30,,,,,,,,2180.6780928000226,2180.6780928000226,2180.6780928000226,2180.6780928000226,2180.6780928000226,return,0.6765234000049531,2,1,0,0,0.56,0.24,return,0.6046683000167832,73,-17,0.56,0.24,,,,,,,,,,,,,,,,,,,,,,,,,,,,,,,,,,,,,,,,,,,,,,,,,,,,,,,,6DG01A,train_y,blue_star,bottom_right,2025-05-19_17h57.08.244,HideSeek_v1,2022.2.5,59.8538249904241,
,8,4,8,9,0,5,66,,train_dim1_1,27,30,,,,2,0,2,0,,,,,,,,,0,0,0,0,0,26,26,26,0,0,0,0,,,,,,,,,,,,,,,,,,,,,,,,,stimuli/alien_stimuli/66.png,,,,,,,,,,,,,,,,,,,,,,,,,,,,,stimuli/alien_stimuli/64.png,64,9,28,,,,,,,30,,,,,,,,2186.506283499999,2186.506283499999,2186.506283499999,2186.506283499999,2186.506283499999,up,2.322366099979263,2,1,0,99,0.48,0.0,up,2.2431315999710932,,,,,2184.9526028999826,2186.506283499999,0.56,0.16,0.24,0.0,0.04,0.56,0.56,0.56,0.16,2182.90603860002,2182.90603860002,2182.90603860002,2182.90603860002,2182.90603860002,2182.90603860002,2182.90603860002,2182.90603860002,2182.9009377599928,2.137255500012543,return,2.029450399975758,,,,,,,,,,,,,,,,,,,,,,,,,,,,,,,,,6DG01A,train_y,blue_star,bottom_right,2025-05-19_17h57.08.244,HideSeek_v1,2022.2.5,59.8538249904241,
,8,4,8,9,0,5,66,,train_dim1_1,27,30,,,,2,0,2,0,,,,,,,,,0,0,0,0,0,26,26,26,1,0,1,0,,,,,,,,,,,,,,,,,,,,,,,,,,,,,,,,,,,,,,,,,,,,,,,,,,,,,,,,,,,,,,,,30,,,,,,,,2188.8363966000034,2188.8363966000034,2188.8363966000034,2188.8363966000034,2188.8363966000034,up,0.4260453000315465,2,1,0,99,0.48,0.08,up,0.3532270999858156,,,,,,,,,,,,,,,,,,,,,,,,,,,,,,,,,,,,,,,,,,,,,,,,,,,,,,,,,,,,6DG01A,train_y,blue_star,bottom_right,2025-05-19_17h57.08.244,HideSeek_v1,2022.2.5,59.8538249904241,
,8,4,8,9,0,5,66,,train_dim1_1,27,30,,,,2,0,2,0,,,,,,,,,0,0,0,0,0,26,26,26,2,0,2,0,,,,,,,,,,,,,,,,,,,,,,,,,,,,,,,,,,,,,,,,,,,,,,,,,,,,,,,,,,,,,,,,30,,,,,,,,2189.2696415000246,2189.2696415000246,2189.2696415000246,2189.2696415000246,2189.2696415000246,up,0.45945109997410327,2,1,0,99,0.48,0.16,up,0.37649950000923127,,,,,,,,,,,,,,,,,,,,,,,,,,,,,,,,,,,,,,,,,,,,,,,,,,,,,,,,,,,,6DG01A,train_y,blue_star,bottom_right,2025-05-19_17h57.08.244,HideSeek_v1,2022.2.5,59.8538249904241,
,8,4,8,9,0,5,66,,train_dim1_1,27,30,,,,2,0,2,0,,,,,,,,,0,0,0,0,0,26,26,26,3,0,3,0,,,,,,,,,,,,,,,,,,,,,,,,,,,,,,,,,,,,,,,,,,,,,,,,,,,,,,,,,,,,,,,,30,,,,,,,,2189.736576199997,2189.736576199997,2189.736576199997,2189.736576199997,2189.736576199997,up,0.5436348000075668,2,1,0,99,0.48,0.24,up,0.4571379999979399,,,,,,,,,,,,,,,,,,,,,,,,,,,,,,,,,,,,,,,,,,,,,,,,,,,,,,,,,,,,6DG01A,train_y,blue_star,bottom_right,2025-05-19_17h57.08.244,HideSeek_v1,2022.2.5,59.8538249904241,
,8,4,8,9,0,5,66,,train_dim1_1,27,30,,,,2,0,2,0,,,,,,,,,0,0,0,0,0,26,26,26,4,0,4,0,,,,,,,,,,,,,,,,,,,,,,,,,,,,,,,,,,,,,,,,,,,,,,,,,,,,,,,,,,,,,,,,30,,,,,,,,2190.28767520003,2190.28767520003,2190.28767520003,2190.28767520003,2190.28767520003,up,0.6599449000204913,2,1,0,99,0.48,0.32,up,0.5776677000103518,,,,,,,,,,,,,,,,,,,,,,,,,,,,,,,,,,,,,,,,,,,,,,,,,,,,,,,,,,,,6DG01A,train_y,blue_star,bottom_right,2025-05-19_17h57.08.244,HideSeek_v1,2022.2.5,59.8538249904241,
,8,4,8,9,0,5,66,,train_dim1_1,27,30,,,,2,0,2,0,,,,,,,,,0,0,0,0,0,26,26,26,5,0,5,0,,,,,,,,,,,,,,,,,,,,,,,,,,,,,,,,,,,,,,,,,,,,,,,,,,,,,,,,,,,,,,,,30,,,,,,,,2190.954196800012,2190.954196800012,2190.954196800012,2190.954196800012,2190.954196800012,return,0.5933484000270255,3,0,0,1,0.48,0.32,return,0.5114528000121936,78,-17,0.48,0.32,,,,,,,,,,,,,,,,,,,,,,,,,,,,,,,,,,,,,,,,,,,,,,,,,,,,,,,,6DG01A,train_y,blue_star,bottom_right,2025-05-19_17h57.08.244,HideSeek_v1,2022.2.5,59.8538249904241,
,9,1,9,1,0,0,61,,train_dim1_1,28,30,,,,2,0,2,0,,,,,,,,,0,0,0,0,0,27,27,27,0,0,0,0,,,,,,,,,,,,,,,,,,,,,,,,,stimuli/alien_stimuli/61.png,,,,,,,,,,,,,,,,,,,,,,,,,,,,,stimuli/alien_stimuli/66.png,66,8,29,,,,,,,30,,,,,,,,2195.8310187000316,2195.8310187000316,2195.8310187000316,2195.8310187000316,2195.8310187000316,up,3.640340300044045,3,0,0,99,0.56,-0.24,up,3.55477940000128,,,,,2194.277364599984,2195.8310187000316,0.48,0.32,0.4,0.0,0.12,0.48,0.48,0.48,0.32,2193.1192264999845,2193.1192264999845,2193.1192264999845,2193.1192264999845,2193.1192264999845,2193.1192264999845,2193.1192264999845,2193.1192264999845,2193.1096966700106,1.2699424999882467,return,1.1327921000192873,,,,,,,,,,,,,,,,,,,,,,,,,,,,,,,,,6DG01A,train_y,blue_star,bottom_right,2025-05-19_17h57.08.244,HideSeek_v1,2022.2.5,59.8538249904241,
,9,1,9,1,0,0,61,,train_dim1_1,28,30,,,,2,0,2,0,,,,,,,,,0,0,0,0,0,27,27,27,1,0,1,0,,,,,,,,,,,,,,,,,,,,,,,,,,,,,,,,,,,,,,,,,,,,,,,,,,,,,,,,,,,,,,,,30,,,,,,,,2199.4788182000048,2199.4788182000048,2199.4788182000048,2199.4788182000048,2199.4788182000048,return,0.6429769999813288,3,1,0,0,0.56,-0.24,return,0.5699858000152744,79,-17,0.56,-0.24,,,,,,,,,,,,,,,,,,,,,,,,,,,,,,,,,,,,,,,,,,,,,,,,,,,,,,,,6DG01A,train_y,blue_star,bottom_right,2025-05-19_17h57.08.244,HideSeek_v1,2022.2.5,59.8538249904241,
,7,2,7,3,0,1,62,,train_dim1_1,29,30,,,,2,0,2,0,,,,,,,,,0,0,0,0,0,28,28,28,0,0,0,0,,,,,,,,,,,,,,,,,,,,,,,,,stimuli/alien_stimuli/62.png,,,,,,,,,,,,,,,,,,,,,,,,,,,,,stimuli/alien_stimuli/61.png,61,9,30,,,,,,,30,,,,,,,,2205.3220635000034,2205.3220635000034,2205.3220635000034,2205.3220635000034,2205.3220635000034,up,2.50605759996688,3,1,0,99,0.4,-0.15999999999999998,up,2.4246727999998257,,,,,2203.7682694999967,2205.3220635000034,0.56,-0.32,0.0,0.0,-0.32,0.56,0.56,0.56,-0.32,2201.674808299984,2201.674808299984,2201.674808299984,2201.674808299984,2201.674808299984,2201.674808299984,2201.674808299984,2201.674808299984,2201.666784759995,2.1873136999784037,return,2.067453099996783,,,,,,,,,,,,,,,,,,,,,,,,,,,,,,,,,6DG01A,train_y,blue_star,bottom_right,2025-05-19_17h57.08.244,HideSeek_v1,2022.2.5,59.8538249904241,
,7,2,7,3,0,1,62,,train_dim1_1,29,30,,,,2,0,2,0,,,,,,,,,0,0,0,0,0,28,28,28,1,0,1,0,,,,,,,,,,,,,,,,,,,,,,,,,,,,,,,,,,,,,,,,,,,,,,,,,,,,,,,,,,,,,,,,30,,,,,,,,2207.835205200012,2207.835205200012,2207.835205200012,2207.835205200012,2207.835205200012,down,1.1267810999997891,3,1,0,99,0.4,-0.24,down,1.0434420999954455,,,,,,,,,,,,,,,,,,,,,,,,,,,,,,,,,,,,,,,,,,,,,,,,,,,,,,,,,,,,6DG01A,train_y,blue_star,bottom_right,2025-05-19_17h57.08.244,HideSeek_v1,2022.2.5,59.8538249904241,
,7,2,7,3,0,1,62,,train_dim1_1,29,30,,,,2,0,2,0,,,,,,,,,0,0,0,0,0,28,28,28,2,0,2,0,,,,,,,,,,,,,,,,,,,,,,,,,,,,,,,,,,,,,,,,,,,,,,,,,,,,,,,,,,,,,,,,30,,,,,,,,2208.9695517999935,2208.9695517999935,2208.9695517999935,2208.9695517999935,2208.9695517999935,return,0.7099917000159621,3,1,0,0,0.4,-0.24,return,0.6344514000229537,79,-17,0.4,-0.24,,,,,,,,,,,,,,,,,,,,,,,,,,,,,,,,,,,,,,,,,,,,,,,,,,,,,,,,6DG01A,train_y,blue_star,bottom_right,2025-05-19_17h57.08.244,HideSeek_v1,2022.2.5,59.8538249904241,
,5,1,5,5,0,4,65,,train_dim1_1,30,30,,,,2,0,2,0,,,,,,,,,0,0,0,0,0,29,29,29,0,0,0,0,,,,,,,,,,,,,,,,,,,,,,,,,stimuli/alien_stimuli/65.png,,,,,,,,,,,,,,,,,,,,,,,,,,,,,stimuli/alien_stimuli/62.png,62,7,31,,,,,,,30,,,,,,,,2214.1790715000243,2214.1790715000243,2214.1790715000243,2214.1790715000243,2214.1790715000243,up,3.3071693999809213,3,1,0,99,0.24,-0.24,up,3.225229899981059,,,,,2212.6254402999766,2214.1790715000243,0.4,-0.16,0.08,0.0,-0.2,0.4,0.4,0.4,-0.16,2211.2322519000154,2211.2322519000154,2211.2322519000154,2211.2322519000154,2211.2322519000154,2211.2322519000154,2211.2322519000154,2211.2322519000154,2211.2244605599903,1.4866751999943517,return,1.3683969000121579,,,,,,,,,,,,,,,,,,,,,,,,,,,,,,,,,6DG01A,train_y,blue_star,bottom_right,2025-05-19_17h57.08.244,HideSeek_v1,2022.2.5,59.8538249904241,
,5,1,5,5,0,4,65,,train_dim1_1,30,30,,,,2,0,2,0,,,,,,,,,0,0,0,0,0,29,29,29,1,0,1,0,,,,,,,,,,,,,,,,,,,,,,,,,,,,,,,,,,,,,,,,,,,,,,,,,,,,,,,,,,,,,,,,30,,,,,,,,2217.4937055999762,2217.4937055999762,2217.4937055999762,2217.4937055999762,2217.4937055999762,up,0.426272600016091,3,1,0,99,0.24,-0.15999999999999998,up,0.3378188000060618,,,,,,,,,,,,,,,,,,,,,,,,,,,,,,,,,,,,,,,,,,,,,,,,,,,,,,,,,,,,6DG01A,train_y,blue_star,bottom_right,2025-05-19_17h57.08.244,HideSeek_v1,2022.2.5,59.8538249904241,
,5,1,5,5,0,4,65,,train_dim1_1,30,30,,,,2,0,2,0,,,,,,,,,0,0,0,0,0,29,29,29,2,0,2,0,,,,,,,,,,,,,,,,,,,,,,,,,,,,,,,,,,,,,,,,,,,,,,,,,,,,,,,,,,,,,,,,30,,,,,,,,2217.9268944999785,2217.9268944999785,2217.9268944999785,2217.9268944999785,2217.9268944999785,up,0.459910600038711,3,1,0,99,0.24,-0.07999999999999997,up,0.3875140000018291,,,,,,,,,,,,,,,,,,,,,,,,,,,,,,,,,,,,,,,,,,,,,,,,,,,,,,,,,,,,6DG01A,train_y,blue_star,bottom_right,2025-05-19_17h57.08.244,HideSeek_v1,2022.2.5,59.8538249904241,
,5,1,5,5,0,4,65,,train_dim1_1,30,30,,,,2,0,2,0,,,,,,,,,0,0,0,0,0,29,29,29,3,0,3,0,,,,,,,,,,,,,,,,,,,,,,,,,,,,,,,,,,,,,,,,,,,,,,,,,,,,,,,,,,,,,,,,30,,,,,,,,2218.3932383999927,2218.3932383999927,2218.3932383999927,2218.3932383999927,2218.3932383999927,return,0.5928570000105537,3,1,0,0,0.24,-0.07999999999999997,return,0.5106140999705531,82,-17,0.24,-0.07999999999999997,,,,,,,,,,,,,,,,,,,,,,,,,,,,,,,,,,,,,,,,,,,,,,,,,,,,,,,,6DG01A,train_y,blue_star,bottom_right,2025-05-19_17h57.08.244,HideSeek_v1,2022.2.5,59.8538249904241,
,,,,,,,,,,,30,,,,2,0,2,0,,,,,,,,,,,,,,,,,,,,,,,,,,,,,,,,,,,,,,,,,,,,,,,,,,,,,,,,,,,,,,,,,,,,,,,,,,stimuli/alien_stimuli/65.png,65,5,32,21,0.7,0.125,1,1,1,30,0,conditions/schedules/train_y_first/blue_star_00/bottom_right/inputTrain_2.1.xlsx,99,1,2,1,0,,,,,,,,,,,0,,,,,,,,,2222.0373054000083,2220.555988100008,0.24,0,0.32,0.0,-0.16,0.24,0.24,0.24,0,2220.555988100008,2220.555988100008,2220.555988100008,2220.555988100008,2220.555988100008,2220.555988100008,2220.555988100008,2220.555988100008,2220.548566669965,1.5922919000149705,return,1.461034500040114,0,0.9,0,1,3,,,,,,,,,,,,,,,,,,,,,,,,,,,,6DG01A,train_y,blue_star,bottom_right,2025-05-19_17h57.08.244,HideSeek_v1,2022.2.5,59.8538249904241,
,,,,,,,,,,,,,,,3,0,3,0,0,0,0,0,,,,,,,,,,,,,,,,,,,,,,,,,,,,,,,conditions/schedules/train_y_first/blue_star_00/bottom_right/instructions/Slide17.png,conditions/schedules/train_y_first/blue_star_00/bottom_right/instructions/Audio17.wav,2223.606670600013,2223.6012034400133,17,"[4.598909199994523, 17.867179799999576, 16.526930200052448, 19.05068649997702, 4.0165867999894544, 4.335740299953613, 5.034024699998554, 11.840587400016375, 5.92332780000288, 6.782900199992582, 10.368631099991035, 13.594703400041908, 17.347348899987992, 16.464975099952426, 42.478797299962025, 22.345158000010997, 44.33101560000796]","[0.01460260001476854, 0.01425160001963377, 0.03500730002997443, 0.046942199987825006, 0.06517399998847395, 0.07963150000432506, 0.0977347000152804, 0.03462250001030043, 0.1108583000022918, 0.09618150000460446, 0.11636540002655238, 13.594711200043093, 0.051332300005014986, 16.464982000004966, 0.07959900004789233, 22.345164700003807, 44.33102400001371]",0,,,,,,,,,,,,,,,,,,,,,,,,,,,,,,,,,,,,,,,,,,,,,,,,,,,,,,,,,,,,,,,,,,,,,,,,,,,,,,,,,,,,,,,,,,,,,,,,,,,,,,,,,,,,,,,,,,,,,,,,,,,,6DG01A,train_y,blue_star,bottom_right,2025-05-19_17h57.08.244,HideSeek_v1,2022.2.5,59.8538249904241,
,,,,,,,,,,,,,,,3,0,3,0,1,0,1,0,,,,,,,,,,,,,,,,,,,,,,,,,,,,,,,conditions/schedules/train_y_first/blue_star_00/bottom_right/instructions/Slide18.png,conditions/schedules/train_y_first/blue_star_00/bottom_right/instructions/Audio18.wav,2267.995386900031,2267.9882899400195,18,"[4.598909199994523, 17.867179799999576, 16.526930200052448, 19.05068649997702, 4.0165867999894544, 4.335740299953613, 5.034024699998554, 11.840587400016375, 5.92332780000288, 6.782900199992582, 10.368631099991035, 13.594703400041908, 17.347348899987992, 16.464975099952426, 42.478797299962025, 22.345158000010997, 44.33101560000796, 6.112276199972257]","[0.01460260001476854, 0.01425160001963377, 0.03500730002997443, 0.046942199987825006, 0.06517399998847395, 0.07963150000432506, 0.0977347000152804, 0.03462250001030043, 0.1108583000022918, 0.09618150000460446, 0.11636540002655238, 13.594711200043093, 0.051332300005014986, 16.464982000004966, 0.07959900004789233, 22.345164700003807, 0.014190700021572411, 6.112283099966589]",0,,,,,,,,,,,,,,,,,,,,,,,,,,,,,,,,,,,,,,,,,,,,,,,,,,,,,,,,,,,,,,,,,,,,,,,,,,,,,,,,,,,,,,,,,,,,,,,,,,,,,,,,,,,,,,,,,,,,,,,,,,,,6DG01A,train_y,blue_star,bottom_right,2025-05-19_17h57.08.244,HideSeek_v1,2022.2.5,59.8538249904241,
