trialInstr,x_fixStart,y_fixStart,x_corrSteps,y_corrSteps,x_nrSteps,y_nrSteps,alienID,trialLength,version,trialTrain,praclen,testlen,trial_label,break_on_off,beforeExpLoop.thisRepN,beforeExpLoop.thisTrialN,beforeExpLoop.thisN,beforeExpLoop.thisIndex,mini_instr_trials.thisRepN,mini_instr_trials.thisTrialN,mini_instr_trials.thisN,mini_instr_trials.thisIndex,instrLoop.thisRepN,instrLoop.thisTrialN,instrLoop.thisN,instrLoop.thisIndex,repeat_prac.thisRepN,repeat_prac.thisTrialN,repeat_prac.thisN,repeat_prac.thisIndex,trainLoop.thisRepN,trainLoop.thisTrialN,trainLoop.thisN,trainLoop.thisIndex,moveLoop_train.thisRepN,moveLoop_train.thisTrialN,moveLoop_train.thisN,moveLoop_train.thisIndex,experiment.thisRepN,experiment.thisTrialN,experiment.thisN,experiment.thisIndex,moveLoop_test.thisRepN,moveLoop_test.thisTrialN,moveLoop_test.thisN,moveLoop_test.thisIndex,mini_instr2_trials.thisRepN,mini_instr2_trials.thisTrialN,mini_instr2_trials.thisN,mini_instr2_trials.thisIndex,start_all_time,url,slideStim,audioStim,slides.started,sounds.started,nextButton.numClicks,nextButton.timesOn,nextButton.timesOff,prev_but.numClicks,prev_but.timesOn,prev_but.timesOff,alienStim,instrFile,alienStim_instr,gridImage_instr.started,startPos_3.started,key_instr.started,alienImage_3.started,sounds_1.started,key_instr.keys,key_instr.rt,all_x,all_y,FBy_corrSteps,FBy_fixStart,FBx_corrSteps,FBx_fixStart,FBy_pathSize_check,FBx_pathSize_check,gridImage_9.started,alienImageFB_3.started,startPosFB_3.started,keyFB_3.started,pathLine_ydir_2.started,pathLine_xdir_2.started,alienFace_3.started,sounds_2.started,RTFB_instr,keyFB_3.keys,keyFB_3.rt,draw_alienStim,draw_alienID,test_x,nrepcount,perfthres,percthres,earlierperf,earlystop,nextPrac,fileidx,praclen,saveACC_train,pracFile,nextPrac_train,addNrep,fileidx_endr,repExp,showearly,gridImage_4.started,startPos.started,movePos.started,key_resp.started,alienImage.started,buttonPress_train,RTchoice_train,cumAcctrain,aCorr,saveACC_choice,corrAns,x_movePos_end,y_movePos_end,key_resp.keys,key_resp.rt,wLy_dir,wLx_dir,x_movePos,y_movePos,text_2.started,text_2.stopped,aft_x_corrPos,aft_y_corrPos,y_pathSize_check,x_pathSize_check,y_pathdirY,x_pathdirY,x_pathdirX,x_corrPos,y_corrPos,gridImage_6.started,alienImageFB_2.started,startPosFB_2.started,movePosFB_2.started,keyFB_2.started,pathLine_xdir.started,pathLine_ydir.started,alienFace.started,sounds_4.started,RT_FBtrain,keyFB_2.keys,keyFB_2.rt,saveACC_pre,ACC,within_saveACC_train,earlystop_wloop,cumAcctrain_check,gridImage_3.started,alienImage_test.started,startPos_test.started,movePos_test.started,key_resp_test.started,wLy_dir_test,wLx_dir_test,buttonPress_test,RTchoice_test,cumAcctest,corrAns_test,key_resp_test.keys,key_resp_test.rt,text_3.started,text_3.stopped,total_time,end_all_time,key_resp_3.keys,slides_2.started,sounds_3.started,nextButton_2.numClicks,nextButton_2.timesOn,nextButton_2.timesOff,prev_but_2.numClicks,prev_but_2.timesOn,prev_but_2.timesOff,bye.started,participant,train_first,00_coordinate,starting corner,date,expName,psychopyVersion,frameRate,
,,,,,,,,,,,,,,,0,0,0,0,0,0,0,0,,,,,,,,,,,,,,,,,,,,,,,,,,,,,start_all_time,testround,conditions/schedules/train_x_first/blue_star_00/bottom_right/instructions/Slide1.png,conditions/schedules/train_x_first/blue_star_00/bottom_right/instructions/Audio1.wav,62.50931190000847,62.46072516012937,1,[7.068431199993938],[7.0684386000502855],0,,,,,,,,,,,,,,,,,,,,,,,,,,,,,,,,,,,,,,,,,,,,,,,,,,,,,,,,,,,,,,,,,,,,,,,,,,,,,,,,,,,,,,,,,,,,,,,,,,,,,,,,,,,,,,,,,,,,,,,,,,,,6EVP4L,train_x,blue_star,bottom_right,2025-03-27_16h48.11.782,HideSeek_v1,2022.2.5,59.96213989580481,
,,,,,,,,,,,,,,,0,0,0,0,1,0,1,0,,,,,,,,,,,,,,,,,,,,,,,,,,,,,,,conditions/schedules/train_x_first/blue_star_00/bottom_right/instructions/Slide2.png,conditions/schedules/train_x_first/blue_star_00/bottom_right/instructions/Audio2.wav,69.59767599997576,69.58462722003459,2,"[7.068431199993938, 18.416484700050205]","[0.014285600045695901, 18.41649169998709]",0,,,,,,,,,,,,,,,,,,,,,,,,,,,,,,,,,,,,,,,,,,,,,,,,,,,,,,,,,,,,,,,,,,,,,,,,,,,,,,,,,,,,,,,,,,,,,,,,,,,,,,,,,,,,,,,,,,,,,,,,,,,,6EVP4L,train_x,blue_star,bottom_right,2025-03-27_16h48.11.782,HideSeek_v1,2022.2.5,59.96213989580481,
,,,,,,,,,,,,,,,0,0,0,0,2,0,2,0,,,,,,,,,,,,,,,,,,,,,,,,,,,,,,,conditions/schedules/train_x_first/blue_star_00/bottom_right/instructions/Slide3.png,conditions/schedules/train_x_first/blue_star_00/bottom_right/instructions/Audio3.wav,88.09275489998981,88.08307875005994,3,"[7.068431199993938, 18.416484700050205, 16.51823729998432]","[0.014285600045695901, 0.014163199928589165, 16.5182441000361]",0,,,,,,,,,,,,,,,,,,,,,,,,,,,,,,,,,,,,,,,,,,,,,,,,,,,,,,,,,,,,,,,,,,,,,,,,,,,,,,,,,,,,,,,,,,,,,,,,,,,,,,,,,,,,,,,,,,,,,,,,,,,,6EVP4L,train_x,blue_star,bottom_right,2025-03-27_16h48.11.782,HideSeek_v1,2022.2.5,59.96213989580481,
,,,,,,,,,,,,,,,0,0,0,0,3,0,3,0,,,,,,,,,,,,,,,,,,,,,,,,,,,,,,,conditions/schedules/train_x_first/blue_star_00/bottom_right/instructions/Slide4.png,conditions/schedules/train_x_first/blue_star_00/bottom_right/instructions/Audio4.wav,104.68642020004336,104.68031195004005,4,"[7.068431199993938, 18.416484700050205, 16.51823729998432, 19.257579800090753]","[0.014285600045695901, 0.014163199928589165, 0.01415240007918328, 19.257586700026877]",0,,,,,,,,,,,,,,,,,,,,,,,,,,,,,,,,,,,,,,,,,,,,,,,,,,,,,,,,,,,,,,,,,,,,,,,,,,,,,,,,,,,,,,,,,,,,,,,,,,,,,,,,,,,,,,,,,,,,,,,,,,,,6EVP4L,train_x,blue_star,bottom_right,2025-03-27_16h48.11.782,HideSeek_v1,2022.2.5,59.96213989580481,
,,,,,,,,,,,,,,,0,0,0,0,4,0,4,0,,,,,,,,,,,,,,,,,,,,,,,,,,,,,,,conditions/schedules/train_x_first/blue_star_00/bottom_right/instructions/Slide5.png,conditions/schedules/train_x_first/blue_star_00/bottom_right/instructions/Audio5.wav,124.00748180004302,123.99655232005752,5,"[7.068431199993938, 18.416484700050205, 16.51823729998432, 19.257579800090753, 4.073156200000085]","[0.014285600045695901, 0.014163199928589165, 0.01415240007918328, 0.05271239997819066, 4.0731639000587165]",0,,,,,,,,,,,,,,,,,,,,,,,,,,,,,,,,,,,,,,,,,,,,,,,,,,,,,,,,,,,,,,,,,,,,,,,,,,,,,,,,,,,,,,,,,,,,,,,,,,,,,,,,,,,,,,,,,,,,,,,,,,,,6EVP4L,train_x,blue_star,bottom_right,2025-03-27_16h48.11.782,HideSeek_v1,2022.2.5,59.96213989580481,
,,,,,,,,,,,,,,,0,0,0,0,5,0,5,0,,,,,,,,,,,,,,,,,,,,,,,,,,,,,,,conditions/schedules/train_x_first/blue_star_00/bottom_right/instructions/Slide6.png,conditions/schedules/train_x_first/blue_star_00/bottom_right/instructions/Audio6.wav,128.13183430000208,128.13311982001179,6,"[7.068431199993938, 18.416484700050205, 16.51823729998432, 19.257579800090753, 4.073156200000085, 4.235248400014825]","[0.014285600045695901, 0.014163199928589165, 0.01415240007918328, 0.05271239997819066, 0.08179720002226532, 4.235255100065842]",0,,,,,,,,,,,,,,,,,,,,,,,,,,,,,,,,,,,,,,,,,,,,,,,,,,,,,,,,,,,,,,,,,,,,,,,,,,,,,,,,,,,,,,,,,,,,,,,,,,,,,,,,,,,,,,,,,,,,,,,,,,,,6EVP4L,train_x,blue_star,bottom_right,2025-03-27_16h48.11.782,HideSeek_v1,2022.2.5,59.96213989580481,
,,,,,,,,,,,,,,,0,0,0,0,6,0,6,0,,,,,,,,,,,,,,,,,,,,,,,,,,,,,,,conditions/schedules/train_x_first/blue_star_00/bottom_right/instructions/Slide7.png,conditions/schedules/train_x_first/blue_star_00/bottom_right/instructions/Audio7.wav,132.41842640005052,132.4197924199747,7,"[7.068431199993938, 18.416484700050205, 16.51823729998432, 19.257579800090753, 4.073156200000085, 4.235248400014825, 5.220216100104153]","[0.014285600045695901, 0.014163199928589165, 0.01415240007918328, 0.05271239997819066, 0.08179720002226532, 0.09894740011077374, 5.220223200041801]",0,,,,,,,,,,,,,,,,,,,,,,,,,,,,,,,,,,,,,,,,,,,,,,,,,,,,,,,,,,,,,,,,,,,,,,,,,,,,,,,,,,,,,,,,,,,,,,,,,,,,,,,,,,,,,,,,,,,,,,,,,,,,6EVP4L,train_x,blue_star,bottom_right,2025-03-27_16h48.11.782,HideSeek_v1,2022.2.5,59.96213989580481,
,,,,,,,,,,,,,,,0,0,0,0,7,0,7,0,,,,,,,,,,,,,,,,,,,,,,,,,,,,,,,conditions/schedules/train_x_first/blue_star_00/bottom_right/instructions/Slide8.png,conditions/schedules/train_x_first/blue_star_00/bottom_right/instructions/Audio8.wav,137.69117690005805,137.6911050199764,8,"[7.068431199993938, 18.416484700050205, 16.51823729998432, 19.257579800090753, 4.073156200000085, 4.235248400014825, 5.220216100104153, 11.373553399927914]","[0.014285600045695901, 0.014163199928589165, 0.01415240007918328, 0.05271239997819066, 0.08179720002226532, 0.09894740011077374, 0.08082659996580333, 11.373563200002536]",0,,,,,,,,,,,,,,,,,,,,,,,,,,,,,,,,,,,,,,,,,,,,,,,,,,,,,,,,,,,,,,,,,,,,,,,,,,,,,,,,,,,,,,,,,,,,,,,,,,,,,,,,,,,,,,,,,,,,,,,,,,,,6EVP4L,train_x,blue_star,bottom_right,2025-03-27_16h48.11.782,HideSeek_v1,2022.2.5,59.96213989580481,
,,,,,,,,,,,,,,,0,0,0,0,8,0,8,0,,,,,,,,,,,,,,,,,,,,,,,,,,,,,,,conditions/schedules/train_x_first/blue_star_00/bottom_right/instructions/Slide9.png,conditions/schedules/train_x_first/blue_star_00/bottom_right/instructions/Audio9.wav,149.13054060004652,149.1171791200526,9,"[7.068431199993938, 18.416484700050205, 16.51823729998432, 19.257579800090753, 4.073156200000085, 4.235248400014825, 5.220216100104153, 11.373553399927914, 5.905778800020926]","[0.014285600045695901, 0.014163199928589165, 0.01415240007918328, 0.05271239997819066, 0.08179720002226532, 0.09894740011077374, 0.08082659996580333, 0.014210400055162609, 5.905785400071181]",0,,,,,,,,,,,,,,,,,,,,,,,,,,,,,,,,,,,,,,,,,,,,,,,,,,,,,,,,,,,,,,,,,,,,,,,,,,,,,,,,,,,,,,,,,,,,,,,,,,,,,,,,,,,,,,,,,,,,,,,,,,,,6EVP4L,train_x,blue_star,bottom_right,2025-03-27_16h48.11.782,HideSeek_v1,2022.2.5,59.96213989580481,
,,,,,,,,,,,,,,,0,0,0,0,9,0,9,0,,,,,,,,,,,,,,,,,,,,,,,,,,,,,,,conditions/schedules/train_x_first/blue_star_00/bottom_right/instructions/Slide10.png,conditions/schedules/train_x_first/blue_star_00/bottom_right/instructions/Audio10.wav,155.08582499995828,155.07215218998024,10,"[7.068431199993938, 18.416484700050205, 16.51823729998432, 19.257579800090753, 4.073156200000085, 4.235248400014825, 5.220216100104153, 11.373553399927914, 5.905778800020926, 6.555876999977045]","[0.014285600045695901, 0.014163199928589165, 0.01415240007918328, 0.05271239997819066, 0.08179720002226532, 0.09894740011077374, 0.08082659996580333, 0.014210400055162609, 0.00021959992591291666, 6.555883799912408]",0,,,,,,,,,,,,,,,,,,,,,,,,,,,,,,,,,,,,,,,,,,,,,,,,,,,,,,,,,,,,,,,,,,,,,,,,,,,,,,,,,,,,,,,,,,,,,,,,,,,,,,,,,,,,,,,,,,,,,,,,,,,,6EVP4L,train_x,blue_star,bottom_right,2025-03-27_16h48.11.782,HideSeek_v1,2022.2.5,59.96213989580481,
,,,,,,,,,,,,,,,0,0,0,0,10,0,10,0,,,,,,,,,,,,,,,,,,,,,,,,,,,,,,,conditions/schedules/train_x_first/blue_star_00/bottom_right/instructions/Slide11.png,conditions/schedules/train_x_first/blue_star_00/bottom_right/instructions/Audio11.wav,161.7091628999915,161.71092085004784,11,"[7.068431199993938, 18.416484700050205, 16.51823729998432, 19.257579800090753, 4.073156200000085, 4.235248400014825, 5.220216100104153, 11.373553399927914, 5.905778800020926, 6.555876999977045, 9.824960400001146]","[0.014285600045695901, 0.014163199928589165, 0.01415240007918328, 0.05271239997819066, 0.08179720002226532, 0.09894740011077374, 0.08082659996580333, 0.014210400055162609, 0.00021959992591291666, 0.033360600005835295, 9.824968100059777]",0,,,,,,,,,,,,,,,,,,,,,,,,,,,,,,,,,,,,,,,,,,,,,,,,,,,,,,,,,,,,,,,,,,,,,,,,,,,,,,,,,,,,,,,,,,,,,,,,,,,,,,,,,,,,,,,,,,,,,,,,,,,,6EVP4L,train_x,blue_star,bottom_right,2025-03-27_16h48.11.782,HideSeek_v1,2022.2.5,59.96213989580481,
,,,,,,,,,,,,,,,0,0,0,0,11,0,11,0,,,,,,,,,,,,,,,,,,,,,,,,,,,,,,,conditions/schedules/train_x_first/blue_star_00/bottom_right/instructions/Slide12.png,conditions/schedules/train_x_first/blue_star_00/bottom_right/instructions/Audio12.wav,171.58658100001048,171.58582122004591,12,"[7.068431199993938, 18.416484700050205, 16.51823729998432, 19.257579800090753, 4.073156200000085, 4.235248400014825, 5.220216100104153, 11.373553399927914, 5.905778800020926, 6.555876999977045, 9.824960400001146, 12.47349529992789]","[0.014285600045695901, 0.014163199928589165, 0.01415240007918328, 0.05271239997819066, 0.08179720002226532, 0.09894740011077374, 0.08082659996580333, 0.014210400055162609, 0.00021959992591291666, 0.033360600005835295, 0.06329560000449419, 12.473502299981192]",0,,,,,,,,,,,,,,,,,,,,,,,,,,,,,,,,,,,,,,,,,,,,,,,,,,,,,,,,,,,,,,,,,,,,,,,,,,,,,,,,,,,,,,,,,,,,,,,,,,,,,,,,,,,,,,,,,,,,,,,,,,,,6EVP4L,train_x,blue_star,bottom_right,2025-03-27_16h48.11.782,HideSeek_v1,2022.2.5,59.96213989580481,
1,9,0,4,0,-5,0,11,2,instr_dim1_1,,,,,,0,0,0,0,,,,,0,0,0,0,,,,,,,,,,,,,,,,,,,,,,,,,,,,,,,,,,,,,stimuli/alien_stimuli/11.png,conditions/schedules/train_x_first/blue_star_00/bottom_right/inputInstr_1.xlsx,stimuli/alien_stimuli/11.png,184.16478840005584,184.16478840005584,184.16478840005584,184.16478840005584,184.16294491004663,return,9.913945999927819,"[-0.16, -0.08, 0, 0.08, 0.16, 0.24, 0.32, 0.4, 0.48, 0.56]","[-0.4, -0.32, -0.24, -0.16, -0.08, 0, 0.08, 0.16, 0.24, 0.32]",0,0,4,9,0.0,0.4,194.2401825999841,194.2401825999841,194.2401825999841,194.2401825999841,194.2401825999841,194.2401825999841,194.2401825999841,194.23762046997436,8.891554499976337,return,8.733787799952552,stimuli/alien_stimuli/11.png,11,9,1,,,,,,,,,,,,,,,,,,,,,,,,,,,,,,,,,,,,,,,,,,,,,,,,,,,,,,,,,,,,,,,,,,,,,,,,,,,,,,,,,,,,,,,,,6EVP4L,train_x,blue_star,bottom_right,2025-03-27_16h48.11.782,HideSeek_v1,2022.2.5,59.96213989580481,
,,,,,,,,,,,30,,,,0,0,0,0,,,,,,,,,,,,,,,,,,,,,,,,,,,,,,,,,,,,,,,,,,,,,,,,,,,,,,,,,,,,,,,,,,,,,,,,,,,,,,21,0.7,0,0,99,1,30,0,conditions/schedules/train_x_first/blue_star_00/bottom_right/inputTrain_1.1.xlsx,99,1,1,1,0,,,,,,,,,,,,,,,,,,,,,,,,,,,,,,,,,,,,,,,,,,,,,,,,,,,,,,,,,,,,,,,,,,,,,,,,,,,6EVP4L,train_x,blue_star,bottom_right,2025-03-27_16h48.11.782,HideSeek_v1,2022.2.5,59.96213989580481,
,,,,,,,,,,,,,,,1,0,1,0,0,0,0,0,,,,,,,,,,,,,,,,,,,,,,,,,,,,,,,conditions/schedules/train_x_first/blue_star_00/bottom_right/instructions/Slide13.png,conditions/schedules/train_x_first/blue_star_00/bottom_right/instructions/Audio13.wav,203.12465610005893,203.11193054001777,13,"[7.068431199993938, 18.416484700050205, 16.51823729998432, 19.257579800090753, 4.073156200000085, 4.235248400014825, 5.220216100104153, 11.373553399927914, 5.905778800020926, 6.555876999977045, 9.824960400001146, 12.47349529992789, 16.831843700027093]","[0.014285600045695901, 0.014163199928589165, 0.01415240007918328, 0.05271239997819066, 0.08179720002226532, 0.09894740011077374, 0.08082659996580333, 0.014210400055162609, 0.00021959992591291666, 0.033360600005835295, 0.06329560000449419, 12.473502299981192, 16.831850999966264]",0,,,,,,,,,,,,,,,,,,,,,,,,,,,,,,,,,,,,,,,,,,,,,,,,,,,,,,,,,,,,,,,,,,,,,,,,,,,,,,,,,,,,,,,,,,,,,,,,,,,,,,,,,,,,,,,,,,,,,,,,,,,,6EVP4L,train_x,blue_star,bottom_right,2025-03-27_16h48.11.782,HideSeek_v1,2022.2.5,59.96213989580481,
,,,,,,,,,,,,,,,1,0,1,0,1,0,1,0,,,,,,,,,,,,,,,,,,,,,,,,,,,,,,,conditions/schedules/train_x_first/blue_star_00/bottom_right/instructions/Slide14.png,conditions/schedules/train_x_first/blue_star_00/bottom_right/instructions/Audio14.wav,220.01990099996328,220.0092584199505,14,"[7.068431199993938, 18.416484700050205, 16.51823729998432, 19.257579800090753, 4.073156200000085, 4.235248400014825, 5.220216100104153, 11.373553399927914, 5.905778800020926, 6.555876999977045, 9.824960400001146, 12.47349529992789, 16.831843700027093, 12.714214099920355]","[0.014285600045695901, 0.014163199928589165, 0.01415240007918328, 0.05271239997819066, 0.08179720002226532, 0.09894740011077374, 0.08082659996580333, 0.014210400055162609, 0.00021959992591291666, 0.033360600005835295, 0.06329560000449419, 12.473502299981192, 0.05371489992830902, 12.714221199974418]",0,,,,,,,,,,,,,,,,,,,,,,,,,,,,,,,,,,,,,,,,,,,,,,,,,,,,,,,,,,,,,,,,,,,,,,,,,,,,,,,,,,,,,,,,,,,,,,,,,,,,,,,,,,,,,,,,,,,,,,,,,,,,6EVP4L,train_x,blue_star,bottom_right,2025-03-27_16h48.11.782,HideSeek_v1,2022.2.5,59.96213989580481,
2,8,2,8,2,0,0,61,2,instr_dim1_1,,,,,,1,0,1,0,,,,,0,0,0,0,,,,,,,,,,,,,,,,,,,,,,,,,,,,,,,,,,,,,stimuli/alien_stimuli/61.png,conditions/schedules/train_x_first/blue_star_00/bottom_right/inputInstr_1.xlsx,stimuli/alien_stimuli/61.png,232.83052870002575,232.83052870002575,232.83052870002575,232.83052870002575,232.82023878002073,return,7.774463200010359,"[-0.16, -0.08, 0, 0.08, 0.16, 0.24, 0.32, 0.4, 0.48, 0.56]","[-0.4, -0.32, -0.24, -0.16, -0.08, 0, 0.08, 0.16, 0.24, 0.32]",2,2,8,8,0.0,0.0,240.75548329995945,240.75548329995945,240.75548329995945,240.75548329995945,240.75548329995945,240.75548329995945,240.75548329995945,240.7434175400529,6.989511299994774,return,6.828026499948464,stimuli/alien_stimuli/61.png,61,8,2,,,,,,,,,,,,,,,,,,,,,,,,,,,,,,,,,,,,,,,,,,,,,,,,,,,,,,,,,,,,,,,,,,,,,,,,,,,,,,,,,,,,,,,,,6EVP4L,train_x,blue_star,bottom_right,2025-03-27_16h48.11.782,HideSeek_v1,2022.2.5,59.96213989580481,
,,,,,,,,,,,30,,,,1,0,1,0,,,,,,,,,,,,,,,,,,,,,,,,,,,,,,,,,,,,,,,,,,,,,,,,,,,,,,,,,,,,,,,,,,,,,,,,,,,,,,21,0.7,0,0,99,1,30,0,conditions/schedules/train_x_first/blue_star_00/bottom_right/inputTrain_1.1.xlsx,99,1,1,1,0,,,,,,,,,,,,,,,,,,,,,,,,,,,,,,,,,,,,,,,,,,,,,,,,,,,,,,,,,,,,,,,,,,,,,,,,,,,6EVP4L,train_x,blue_star,bottom_right,2025-03-27_16h48.11.782,HideSeek_v1,2022.2.5,59.96213989580481,
,,,,,,,,,,,,,,,2,0,2,0,0,0,0,0,,,,,,,,,,,,,,,,,,,,,,,,,,,,,,,conditions/schedules/train_x_first/blue_star_00/bottom_right/instructions/Slide15.png,conditions/schedules/train_x_first/blue_star_00/bottom_right/instructions/Audio15.wav,247.75155499996617,247.74891616995447,15,"[7.068431199993938, 18.416484700050205, 16.51823729998432, 19.257579800090753, 4.073156200000085, 4.235248400014825, 5.220216100104153, 11.373553399927914, 5.905778800020926, 6.555876999977045, 9.824960400001146, 12.47349529992789, 16.831843700027093, 12.714214099920355, 30.169135299976915]","[0.014285600045695901, 0.014163199928589165, 0.01415240007918328, 0.05271239997819066, 0.08179720002226532, 0.09894740011077374, 0.08082659996580333, 0.014210400055162609, 0.00021959992591291666, 0.033360600005835295, 0.06329560000449419, 12.473502299981192, 0.05371489992830902, 12.714221199974418, 30.169143100036308]",0,,,,,,,,,,,,,,,,,,,,,,,,,,,,,,,,,,,,,,,,,,,,,,,,,,,,,,,,,,,,,,,,,,,,,,,,,,,,,,,,,,,,,,,,,,,,,,,,,,,,,,,,,,,,,,,,,,,,,,,,,,,,6EVP4L,train_x,blue_star,bottom_right,2025-03-27_16h48.11.782,HideSeek_v1,2022.2.5,59.96213989580481,
,,,,,,,,,,,,,,,2,0,2,0,1,0,1,0,,,,,,,,,,,,,,,,,,,,,,,,,,,,,,,conditions/schedules/train_x_first/blue_star_00/bottom_right/instructions/Slide16.png,conditions/schedules/train_x_first/blue_star_00/bottom_right/instructions/Audio16.wav,277.9974900999805,277.99079255003016,16,"[7.068431199993938, 18.416484700050205, 16.51823729998432, 19.257579800090753, 4.073156200000085, 4.235248400014825, 5.220216100104153, 11.373553399927914, 5.905778800020926, 6.555876999977045, 9.824960400001146, 12.47349529992789, 16.831843700027093, 12.714214099920355, 30.169135299976915, 22.259407999925315]","[0.014285600045695901, 0.014163199928589165, 0.01415240007918328, 0.05271239997819066, 0.08179720002226532, 0.09894740011077374, 0.08082659996580333, 0.014210400055162609, 0.00021959992591291666, 0.033360600005835295, 0.06329560000449419, 12.473502299981192, 0.05371489992830902, 12.714221199974418, 0.0788446000078693, 22.259414799977094]",0,,,,,,,,,,,,,,,,,,,,,,,,,,,,,,,,,,,,,,,,,,,,,,,,,,,,,,,,,,,,,,,,,,,,,,,,,,,,,,,,,,,,,,,,,,,,,,,,,,,,,,,,,,,,,,,,,,,,,,,,,,,,6EVP4L,train_x,blue_star,bottom_right,2025-03-27_16h48.11.782,HideSeek_v1,2022.2.5,59.96213989580481,
,7,1,4,1,-3,0,31,,train_dim1_1,1,30,,,,2,0,2,0,,,,,,,,,0,0,0,0,0,0,0,0,0,0,0,0,,,,,,,,,,,,,,,,,,,,,,,,,stimuli/alien_stimuli/31.png,,,,,,,,,,,,,,,,,,,,,,,,,,,,,,,,,,,,,,,30,,,,,,,,300.3519585999893,300.3519585999893,300.3519585999893,300.3519585999893,300.3519585999893,left,6.301126500009559,0,0,0,99,0.32,-0.32,left,6.203159700031392,,,,,,,,,,,,,,,,,,,,,,,,,,,,,,,,,,,,,,,,,,,,,,,,,,,,,,,,,,,,6EVP4L,train_x,blue_star,bottom_right,2025-03-27_16h48.11.782,HideSeek_v1,2022.2.5,59.96213989580481,
,7,1,4,1,-3,0,31,,train_dim1_1,1,30,,,,2,0,2,0,,,,,,,,,0,0,0,0,0,0,0,0,1,0,1,0,,,,,,,,,,,,,,,,,,,,,,,,,,,,,,,,,,,,,,,,,,,,,,,,,,,,,,,,,,,,,,,,30,,,,,,,,306.64711500005797,306.64711500005797,306.64711500005797,306.64711500005797,306.64711500005797,left,1.7941069999942556,0,0,0,99,0.24,-0.32,left,1.7045981000410393,,,,,,,,,,,,,,,,,,,,,,,,,,,,,,,,,,,,,,,,,,,,,,,,,,,,,,,,,,,,6EVP4L,train_x,blue_star,bottom_right,2025-03-27_16h48.11.782,HideSeek_v1,2022.2.5,59.96213989580481,
,7,1,4,1,-3,0,31,,train_dim1_1,1,30,,,,2,0,2,0,,,,,,,,,0,0,0,0,0,0,0,0,2,0,2,0,,,,,,,,,,,,,,,,,,,,,,,,,,,,,,,,,,,,,,,,,,,,,,,,,,,,,,,,,,,,,,,,30,,,,,,,,308.4449992000591,308.4449992000591,308.4449992000591,308.4449992000591,308.4449992000591,left,1.1775131999747828,0,0,0,99,0.15999999999999998,-0.32,left,1.103541799937375,,,,,,,,,,,,,,,,,,,,,,,,,,,,,,,,,,,,,,,,,,,,,,,,,,,,,,,,,,,,6EVP4L,train_x,blue_star,bottom_right,2025-03-27_16h48.11.782,HideSeek_v1,2022.2.5,59.96213989580481,
,7,1,4,1,-3,0,31,,train_dim1_1,1,30,,,,2,0,2,0,,,,,,,,,0,0,0,0,0,0,0,0,3,0,3,0,,,,,,,,,,,,,,,,,,,,,,,,,,,,,,,,,,,,,,,,,,,,,,,,,,,,,,,,,,,,,,,,30,,,,,,,,309.63019399996847,309.63019399996847,309.63019399996847,309.63019399996847,309.63019399996847,left,0.493366300011985,0,0,0,99,0.07999999999999997,-0.32,left,0.40740510006435215,,,,,,,,,,,,,,,,,,,,,,,,,,,,,,,,,,,,,,,,,,,,,,,,,,,,,,,,,,,,6EVP4L,train_x,blue_star,bottom_right,2025-03-27_16h48.11.782,HideSeek_v1,2022.2.5,59.96213989580481,
,7,1,4,1,-3,0,31,,train_dim1_1,1,30,,,,2,0,2,0,,,,,,,,,0,0,0,0,0,0,0,0,4,0,4,0,,,,,,,,,,,,,,,,,,,,,,,,,,,,,,,,,,,,,,,,,,,,,,,,,,,,,,,,,,,,,,,,30,,,,,,,,310.1308200999629,310.1308200999629,310.1308200999629,310.1308200999629,310.1308200999629,return,1.6446926000062376,0,1,0,0,0.07999999999999997,-0.32,return,1.5712991000618786,0,-4,0.07999999999999997,-0.32,,,,,,,,,,,,,,,,,,,,,,,,,,,,,,,,,,,,,,,,,,,,,,,,,,,,,,,,6EVP4L,train_x,blue_star,bottom_right,2025-03-27_16h48.11.782,HideSeek_v1,2022.2.5,59.96213989580481,
,7,4,2,4,-5,0,11,,train_dim1_1,2,30,,,,2,0,2,0,,,,,,,,,0,0,0,0,0,1,1,1,0,0,0,0,,,,,,,,,,,,,,,,,,,,,,,,,stimuli/alien_stimuli/11.png,,,,,,,,,,,,,,,,,,,,,,,,,,,,,stimuli/alien_stimuli/31.png,31,7,3,,,,,,,30,,,,,,,,331.7479756999528,331.7479756999528,331.7479756999528,331.7479756999528,331.7479756999528,down,2.404121999978088,0,1,0,99,0.4,-0.16,down,2.2914189000148326,,,,,330.1675057000248,331.7479756999528,0.16,-0.32,0.0,0.24,-0.32,0.16,0.28,0.16,-0.32,313.3497987999581,313.3497987999581,313.3497987999581,313.3497987999581,313.3497987999581,313.3497987999581,313.3497987999581,313.3497987999581,313.3368512100308,16.932760900002904,return,16.786687900079414,,,,,,,,,,,,,,,,,,,,,,,,,,,,,,,,,6EVP4L,train_x,blue_star,bottom_right,2025-03-27_16h48.11.782,HideSeek_v1,2022.2.5,59.96213989580481,
,7,4,2,4,-5,0,11,,train_dim1_1,2,30,,,,2,0,2,0,,,,,,,,,0,0,0,0,0,1,1,1,1,0,1,0,,,,,,,,,,,,,,,,,,,,,,,,,,,,,,,,,,,,,,,,,,,,,,,,,,,,,,,,,,,,,,,,30,,,,,,,,334.1395802999614,334.1395802999614,334.1395802999614,334.1395802999614,334.1395802999614,down,0.6596188000403345,0,1,0,99,0.4,-0.24,down,0.5746451000450179,,,,,,,,,,,,,,,,,,,,,,,,,,,,,,,,,,,,,,,,,,,,,,,,,,,,,,,,,,,,6EVP4L,train_x,blue_star,bottom_right,2025-03-27_16h48.11.782,HideSeek_v1,2022.2.5,59.96213989580481,
,7,4,2,4,-5,0,11,,train_dim1_1,2,30,,,,2,0,2,0,,,,,,,,,0,0,0,0,0,1,1,1,2,0,2,0,,,,,,,,,,,,,,,,,,,,,,,,,,,,,,,,,,,,,,,,,,,,,,,,,,,,,,,,,,,,,,,,30,,,,,,,,334.805683100014,334.805683100014,334.805683100014,334.805683100014,334.805683100014,left,1.0440193000249565,0,1,0,99,0.32,-0.24,left,0.963214399991557,,,,,,,,,,,,,,,,,,,,,,,,,,,,,,,,,,,,,,,,,,,,,,,,,,,,,,,,,,,,6EVP4L,train_x,blue_star,bottom_right,2025-03-27_16h48.11.782,HideSeek_v1,2022.2.5,59.96213989580481,
,7,4,2,4,-5,0,11,,train_dim1_1,2,30,,,,2,0,2,0,,,,,,,,,0,0,0,0,0,1,1,1,3,0,3,0,,,,,,,,,,,,,,,,,,,,,,,,,,,,,,,,,,,,,,,,,,,,,,,,,,,,,,,,,,,,,,,,30,,,,,,,,335.85628309997264,335.85628309997264,335.85628309997264,335.85628309997264,335.85628309997264,left,0.3765374000649899,0,1,0,99,0.24,-0.24,left,0.2870944000314921,,,,,,,,,,,,,,,,,,,,,,,,,,,,,,,,,,,,,,,,,,,,,,,,,,,,,,,,,,,,6EVP4L,train_x,blue_star,bottom_right,2025-03-27_16h48.11.782,HideSeek_v1,2022.2.5,59.96213989580481,
,7,4,2,4,-5,0,11,,train_dim1_1,2,30,,,,2,0,2,0,,,,,,,,,0,0,0,0,0,1,1,1,4,0,4,0,,,,,,,,,,,,,,,,,,,,,,,,,,,,,,,,,,,,,,,,,,,,,,,,,,,,,,,,,,,,,,,,30,,,,,,,,336.2398067000322,336.2398067000322,336.2398067000322,336.2398067000322,336.2398067000322,return,1.6444607001030818,0,0,0,0,0.24,-0.24,return,1.5634603999787942,-2,-6,0.24,-0.24,,,,,,,,,,,,,,,,,,,,,,,,,,,,,,,,,,,,,,,,,,,,,,,,,,,,,,,,6EVP4L,train_x,blue_star,bottom_right,2025-03-27_16h48.11.782,HideSeek_v1,2022.2.5,59.96213989580481,
,9,4,5,4,-4,0,21,,train_dim1_1,3,30,,,,2,0,2,0,,,,,,,,,0,0,0,0,0,2,2,2,0,0,0,0,,,,,,,,,,,,,,,,,,,,,,,,,stimuli/alien_stimuli/21.png,,,,,,,,,,,,,,,,,,,,,,,,,,,,,stimuli/alien_stimuli/11.png,11,7,4,,,,,,,30,,,,,,,,350.0308140000561,350.0308140000561,350.0308140000561,350.0308140000561,350.0308140000561,up,3.091435799957253,0,0,0,99,0.56,0.0,up,2.9804223999381065,,,,,348.4493381000357,350.0308140000561,0,-0.08,0.0,0.4,-0.08,0,0.2,0,-0.08,339.47529360000044,339.47529360000044,339.47529360000044,339.47529360000044,339.47529360000044,339.47529360000044,339.47529360000044,339.47529360000044,339.45862753998955,9.10976129991468,return,8.9567578000715,,,,,,,,,,,,,,,,,,,,,,,,,,,,,,,,,6EVP4L,train_x,blue_star,bottom_right,2025-03-27_16h48.11.782,HideSeek_v1,2022.2.5,59.96213989580481,
,9,4,5,4,-4,0,21,,train_dim1_1,3,30,,,,2,0,2,0,,,,,,,,,0,0,0,0,0,2,2,2,1,0,1,0,,,,,,,,,,,,,,,,,,,,,,,,,,,,,,,,,,,,,,,,,,,,,,,,,,,,,,,,,,,,,,,,30,,,,,,,,353.10437269997783,353.10437269997783,353.10437269997783,353.10437269997783,353.10437269997783,up,0.47625950002111495,0,0,0,99,0.56,0.08,up,0.3882162000518292,,,,,,,,,,,,,,,,,,,,,,,,,,,,,,,,,,,,,,,,,,,,,,,,,,,,,,,,,,,,6EVP4L,train_x,blue_star,bottom_right,2025-03-27_16h48.11.782,HideSeek_v1,2022.2.5,59.96213989580481,
,9,4,5,4,-4,0,21,,train_dim1_1,3,30,,,,2,0,2,0,,,,,,,,,0,0,0,0,0,2,2,2,2,0,2,0,,,,,,,,,,,,,,,,,,,,,,,,,,,,,,,,,,,,,,,,,,,,,,,,,,,,,,,,,,,,,,,,30,,,,,,,,353.5882093999535,353.5882093999535,353.5882093999535,353.5882093999535,353.5882093999535,left,1.8779372000135481,0,0,0,99,0.48000000000000004,0.08,left,1.7891061999835074,,,,,,,,,,,,,,,,,,,,,,,,,,,,,,,,,,,,,,,,,,,,,,,,,,,,,,,,,,,,6EVP4L,train_x,blue_star,bottom_right,2025-03-27_16h48.11.782,HideSeek_v1,2022.2.5,59.96213989580481,
,9,4,5,4,-4,0,21,,train_dim1_1,3,30,,,,2,0,2,0,,,,,,,,,0,0,0,0,0,2,2,2,3,0,3,0,,,,,,,,,,,,,,,,,,,,,,,,,,,,,,,,,,,,,,,,,,,,,,,,,,,,,,,,,,,,,,,,30,,,,,,,,355.4731327999616,355.4731327999616,355.4731327999616,355.4731327999616,355.4731327999616,left,0.37587400001939386,0,0,0,99,0.4,0.08,left,0.2948752000229433,,,,,,,,,,,,,,,,,,,,,,,,,,,,,,,,,,,,,,,,,,,,,,,,,,,,,,,,,,,,6EVP4L,train_x,blue_star,bottom_right,2025-03-27_16h48.11.782,HideSeek_v1,2022.2.5,59.96213989580481,
,9,4,5,4,-4,0,21,,train_dim1_1,3,30,,,,2,0,2,0,,,,,,,,,0,0,0,0,0,2,2,2,4,0,4,0,,,,,,,,,,,,,,,,,,,,,,,,,,,,,,,,,,,,,,,,,,,,,,,,,,,,,,,,,,,,,,,,30,,,,,,,,355.855784400017,355.855784400017,355.855784400017,355.855784400017,355.855784400017,left,0.3602704999502748,0,0,0,99,0.32,0.08,left,0.27198840002529323,,,,,,,,,,,,,,,,,,,,,,,,,,,,,,,,,,,,,,,,,,,,,,,,,,,,,,,,,,,,6EVP4L,train_x,blue_star,bottom_right,2025-03-27_16h48.11.782,HideSeek_v1,2022.2.5,59.96213989580481,
,9,4,5,4,-4,0,21,,train_dim1_1,3,30,,,,2,0,2,0,,,,,,,,,0,0,0,0,0,2,2,2,5,0,5,0,,,,,,,,,,,,,,,,,,,,,,,,,,,,,,,,,,,,,,,,,,,,,,,,,,,,,,,,,,,,,,,,30,,,,,,,,356.22367450001184,356.22367450001184,356.22367450001184,356.22367450001184,356.22367450001184,left,0.47650690004229546,0,0,0,99,0.24,0.08,left,0.3864263000432402,,,,,,,,,,,,,,,,,,,,,,,,,,,,,,,,,,,,,,,,,,,,,,,,,,,,,,,,,,,,6EVP4L,train_x,blue_star,bottom_right,2025-03-27_16h48.11.782,HideSeek_v1,2022.2.5,59.96213989580481,
,9,4,5,4,-4,0,21,,train_dim1_1,3,30,,,,2,0,2,0,,,,,,,,,0,0,0,0,0,2,2,2,6,0,6,0,,,,,,,,,,,,,,,,,,,,,,,,,,,,,,,,,,,,,,,,,,,,,,,,,,,,,,,,,,,,,,,,30,,,,,,,,356.70597779995296,356.70597779995296,356.70597779995296,356.70597779995296,356.70597779995296,return,0.6938269999809563,0,0,0,0,0.24,0.08,return,0.6113793000113219,0,-10,0.24,0.08,,,,,,,,,,,,,,,,,,,,,,,,,,,,,,,,,,,,,,,,,,,,,,,,,,,,,,,,6EVP4L,train_x,blue_star,bottom_right,2025-03-27_16h48.11.782,HideSeek_v1,2022.2.5,59.96213989580481,
,7,3,6,3,-1,0,51,,train_dim1_1,4,30,,,,2,0,2,0,,,,,,,,,0,0,0,0,0,3,3,3,0,0,0,0,,,,,,,,,,,,,,,,,,,,,,,,,stimuli/alien_stimuli/51.png,,,,,,,,,,,,,,,,,,,,,,,,,,,,,stimuli/alien_stimuli/21.png,21,9,5,,,,,,,30,,,,,,,,363.32061819999944,363.32061819999944,363.32061819999944,363.32061819999944,363.32061819999944,left,2.9586782000260428,0,0,0,99,0.32,-0.16,left,2.871958200004883,,,,,361.76058769994415,363.32061819999944,0.24,-0.08,0.0,0.32,-0.08,0.24,0.4,0.24,-0.08,358.98937349999323,358.98937349999323,358.98937349999323,358.98937349999323,358.98937349999323,358.98937349999323,358.98937349999323,358.98937349999323,358.97476384004113,2.9047302999533713,return,2.752077499986626,,,,,,,,,,,,,,,,,,,,,,,,,,,,,,,,,6EVP4L,train_x,blue_star,bottom_right,2025-03-27_16h48.11.782,HideSeek_v1,2022.2.5,59.96213989580481,
,7,3,6,3,-1,0,51,,train_dim1_1,4,30,,,,2,0,2,0,,,,,,,,,0,0,0,0,0,3,3,3,1,0,1,0,,,,,,,,,,,,,,,,,,,,,,,,,,,,,,,,,,,,,,,,,,,,,,,,,,,,,,,,,,,,,,,,30,,,,,,,,366.2805788000114,366.2805788000114,366.2805788000114,366.2805788000114,366.2805788000114,left,0.47642390010878444,0,0,0,99,0.24,-0.16,left,0.385615500039421,,,,,,,,,,,,,,,,,,,,,,,,,,,,,,,,,,,,,,,,,,,,,,,,,,,,,,,,,,,,6EVP4L,train_x,blue_star,bottom_right,2025-03-27_16h48.11.782,HideSeek_v1,2022.2.5,59.96213989580481,
,7,3,6,3,-1,0,51,,train_dim1_1,4,30,,,,2,0,2,0,,,,,,,,,0,0,0,0,0,3,3,3,2,0,2,0,,,,,,,,,,,,,,,,,,,,,,,,,,,,,,,,,,,,,,,,,,,,,,,,,,,,,,,,,,,,,,,,30,,,,,,,,366.76335200003814,366.76335200003814,366.76335200003814,366.76335200003814,366.76335200003814,return,3.0955019000684842,0,1,0,0,0.24,-0.16,return,3.011794799938798,0,-12,0.24,-0.16,,,,,,,,,,,,,,,,,,,,,,,,,,,,,,,,,,,,,,,,,,,,,,,,,,,,,,,,6EVP4L,train_x,blue_star,bottom_right,2025-03-27_16h48.11.782,HideSeek_v1,2022.2.5,59.96213989580481,
,5,2,5,2,0,0,61,,train_dim1_1,5,30,,,,2,0,2,0,,,,,,,,,0,0,0,0,0,4,4,4,0,0,0,0,,,,,,,,,,,,,,,,,,,,,,,,,stimuli/alien_stimuli/61.png,,,,,,,,,,,,,,,,,,,,,,,,,,,,,stimuli/alien_stimuli/51.png,51,7,6,,,,,,,30,,,,,,,,376.3296432000352,376.3296432000352,376.3296432000352,376.3296432000352,376.3296432000352,right,2.7410432000178844,0,1,0,99,0.32,-0.24,right,2.6525055000092834,,,,,374.7713207999477,376.3296432000352,0.32,-0.16,0.0,0.08,-0.16,0.32,0.36,0.32,-0.16,371.4365437000524,371.4365437000524,371.4365437000524,371.4365437000524,371.4365437000524,371.4365437000524,371.4365437000524,371.4365437000524,371.4183893100592,3.4554750999668613,return,3.318085000035353,,,,,,,,,,,,,,,,,,,,,,,,,,,,,,,,,6EVP4L,train_x,blue_star,bottom_right,2025-03-27_16h48.11.782,HideSeek_v1,2022.2.5,59.96213989580481,
,5,2,5,2,0,0,61,,train_dim1_1,5,30,,,,2,0,2,0,,,,,,,,,0,0,0,0,0,4,4,4,1,0,1,0,,,,,,,,,,,,,,,,,,,,,,,,,,,,,,,,,,,,,,,,,,,,,,,,,,,,,,,,,,,,,,,,30,,,,,,,,379.0714600000065,379.0714600000065,379.0714600000065,379.0714600000065,379.0714600000065,right,0.6097888000076637,0,1,0,99,0.4,-0.24,right,0.535562300006859,,,,,,,,,,,,,,,,,,,,,,,,,,,,,,,,,,,,,,,,,,,,,,,,,,,,,,,,,,,,6EVP4L,train_x,blue_star,bottom_right,2025-03-27_16h48.11.782,HideSeek_v1,2022.2.5,59.96213989580481,
,5,2,5,2,0,0,61,,train_dim1_1,5,30,,,,2,0,2,0,,,,,,,,,0,0,0,0,0,4,4,4,2,0,2,0,,,,,,,,,,,,,,,,,,,,,,,,,,,,,,,,,,,,,,,,,,,,,,,,,,,,,,,,,,,,,,,,30,,,,,,,,379.68913009995595,379.68913009995595,379.68913009995595,379.68913009995595,379.68913009995595,right,0.4433562000049278,0,1,0,99,0.48000000000000004,-0.24,right,0.3609909999649972,,,,,,,,,,,,,,,,,,,,,,,,,,,,,,,,,,,,,,,,,,,,,,,,,,,,,,,,,,,,6EVP4L,train_x,blue_star,bottom_right,2025-03-27_16h48.11.782,HideSeek_v1,2022.2.5,59.96213989580481,
,5,2,5,2,0,0,61,,train_dim1_1,5,30,,,,2,0,2,0,,,,,,,,,0,0,0,0,0,4,4,4,3,0,3,0,,,,,,,,,,,,,,,,,,,,,,,,,,,,,,,,,,,,,,,,,,,,,,,,,,,,,,,,,,,,,,,,30,,,,,,,,380.1398226999445,380.1398226999445,380.1398226999445,380.1398226999445,380.1398226999445,left,1.928134899935685,0,1,0,99,0.4,-0.24,left,1.8424385000253096,,,,,,,,,,,,,,,,,,,,,,,,,,,,,,,,,,,,,,,,,,,,,,,,,,,,,,,,,,,,6EVP4L,train_x,blue_star,bottom_right,2025-03-27_16h48.11.782,HideSeek_v1,2022.2.5,59.96213989580481,
,5,2,5,2,0,0,61,,train_dim1_1,5,30,,,,2,0,2,0,,,,,,,,,0,0,0,0,0,4,4,4,4,0,4,0,,,,,,,,,,,,,,,,,,,,,,,,,,,,,,,,,,,,,,,,,,,,,,,,,,,,,,,,,,,,,,,,30,,,,,,,,382.0736669000471,382.0736669000471,382.0736669000471,382.0736669000471,382.0736669000471,return,1.0606305999681354,0,0,0,0,0.4,-0.24,return,0.9765743999741971,0,-10,0.4,-0.24,,,,,,,,,,,,,,,,,,,,,,,,,,,,,,,,,,,,,,,,,,,,,,,,,,,,,,,,6EVP4L,train_x,blue_star,bottom_right,2025-03-27_16h48.11.782,HideSeek_v1,2022.2.5,59.96213989580481,
,5,0,1,0,-4,0,21,,train_dim1_1,6,30,,,,2,0,2,0,,,,,,,,,0,0,0,0,0,5,5,5,0,0,0,0,,,,,,,,,,,,,,,,,,,,,,,,,stimuli/alien_stimuli/21.png,,,,,,,,,,,,,,,,,,,,,,,,,,,,,stimuli/alien_stimuli/61.png,61,5,7,,,,,,,30,,,,,,,,389.5963881999487,389.5963881999487,389.5963881999487,389.5963881999487,389.5963881999487,left,2.4579917000373825,0,0,0,99,0.15999999999999998,-0.4,left,2.3643284999998286,,,,,388.03223280003294,389.5963881999487,0.24,-0.24,0.0,0.0,-0.24,0.24,0.24,0.24,-0.24,384.7114612000296,384.7114612000296,384.7114612000296,384.7114612000296,384.7114612000296,384.7114612000296,384.7114612000296,384.7114612000296,384.6961493100273,3.438272599945776,return,3.2967286999337375,,,,,,,,,,,,,,,,,,,,,,,,,,,,,,,,,6EVP4L,train_x,blue_star,bottom_right,2025-03-27_16h48.11.782,HideSeek_v1,2022.2.5,59.96213989580481,
,5,0,1,0,-4,0,21,,train_dim1_1,6,30,,,,2,0,2,0,,,,,,,,,0,0,0,0,0,5,5,5,1,0,1,0,,,,,,,,,,,,,,,,,,,,,,,,,,,,,,,,,,,,,,,,,,,,,,,,,,,,,,,,,,,,,,,,30,,,,,,,,392.05296400003135,392.05296400003135,392.05296400003135,392.05296400003135,392.05296400003135,left,0.49329730006866157,0,0,0,99,0.07999999999999997,-0.4,left,0.4047741999384016,,,,,,,,,,,,,,,,,,,,,,,,,,,,,,,,,,,,,,,,,,,,,,,,,,,,,,,,,,,,6EVP4L,train_x,blue_star,bottom_right,2025-03-27_16h48.11.782,HideSeek_v1,2022.2.5,59.96213989580481,
,5,0,1,0,-4,0,21,,train_dim1_1,6,30,,,,2,0,2,0,,,,,,,,,0,0,0,0,0,5,5,5,2,0,2,0,,,,,,,,,,,,,,,,,,,,,,,,,,,,,,,,,,,,,,,,,,,,,,,,,,,,,,,,,,,,,,,,30,,,,,,,,392.5533036000561,392.5533036000561,392.5533036000561,392.5533036000561,392.5533036000561,left,0.5269129999214783,0,0,0,99,-2.7755575615628914e-17,-0.4,left,0.43990400002803653,,,,,,,,,,,,,,,,,,,,,,,,,,,,,,,,,,,,,,,,,,,,,,,,,,,,,,,,,,,,6EVP4L,train_x,blue_star,bottom_right,2025-03-27_16h48.11.782,HideSeek_v1,2022.2.5,59.96213989580481,
,5,0,1,0,-4,0,21,,train_dim1_1,6,30,,,,2,0,2,0,,,,,,,,,0,0,0,0,0,5,5,5,3,0,3,0,,,,,,,,,,,,,,,,,,,,,,,,,,,,,,,,,,,,,,,,,,,,,,,,,,,,,,,,,,,,,,,,30,,,,,,,,393.0866831999738,393.0866831999738,393.0866831999738,393.0866831999738,393.0866831999738,return,2.962062199949287,0,1,0,0,-2.7755575615628914e-17,-0.4,return,2.881420799996704,0,-13,-2.7755575615628914e-17,-0.4,,,,,,,,,,,,,,,,,,,,,,,,,,,,,,,,,,,,,,,,,,,,,,,,,,,,,,,,6EVP4L,train_x,blue_star,bottom_right,2025-03-27_16h48.11.782,HideSeek_v1,2022.2.5,59.96213989580481,
,8,0,8,0,0,0,61,,train_dim1_1,7,30,,,,2,0,2,0,,,,,,,,,0,0,0,0,0,6,6,6,0,0,0,0,,,,,,,,,,,,,,,,,,,,,,,,,stimuli/alien_stimuli/61.png,,,,,,,,,,,,,,,,,,,,,,,,,,,,,stimuli/alien_stimuli/21.png,21,5,8,,,,,,,30,,,,,,,,401.1436474999646,401.1436474999646,401.1436474999646,401.1436474999646,401.1436474999646,return,2.807672799914144,1,0,0,1,0.48,-0.4,return,2.7092421000124887,0,-13,0.48,-0.4,399.5753853999777,401.1436474999646,-0.08,-0.4,0.0,0.32,-0.4,-0.08,0.07999999999999999,-0.08,-0.4,397.6307073000353,397.6307073000353,397.6307073000353,397.6307073000353,397.6307073000353,397.6307073000353,397.6307073000353,397.6307073000353,397.62372413994746,2.07056989998091,return,1.9182165999663994,,,,,,,,,,,,,,,,,,,,,,,,,,,,,,,,,6EVP4L,train_x,blue_star,bottom_right,2025-03-27_16h48.11.782,HideSeek_v1,2022.2.5,59.96213989580481,
,5,4,2,4,-3,0,31,,train_dim1_1,8,30,,,,2,0,2,0,,,,,,,,,0,0,0,0,0,7,7,7,0,0,0,0,,,,,,,,,,,,,,,,,,,,,,,,,stimuli/alien_stimuli/31.png,,,,,,,,,,,,,,,,,,,,,,,,,,,,,stimuli/alien_stimuli/61.png,61,8,9,,,,,,,30,,,,,,,,409.15791479998734,409.15791479998734,409.15791479998734,409.15791479998734,409.15791479998734,left,2.6225472999503836,1,0,0,99,0.15999999999999998,-0.08,left,2.527012199978344,,,,,407.5820060999831,409.15791479998734,0.48,-0.4,0.0,0.0,-0.4,0.48,0.48,0.48,-0.4,405.49725759995636,405.49725759995636,405.49725759995636,405.49725759995636,405.49725759995636,405.49725759995636,405.49725759995636,405.49725759995636,405.480087479949,2.187297699972987,return,2.0608853000449017,,,,,,,,,,,,,,,,,,,,,,,,,,,,,,,,,6EVP4L,train_x,blue_star,bottom_right,2025-03-27_16h48.11.782,HideSeek_v1,2022.2.5,59.96213989580481,
,5,4,2,4,-3,0,31,,train_dim1_1,8,30,,,,2,0,2,0,,,,,,,,,0,0,0,0,0,7,7,7,1,0,1,0,,,,,,,,,,,,,,,,,,,,,,,,,,,,,,,,,,,,,,,,,,,,,,,,,,,,,,,,,,,,,,,,30,,,,,,,,411.7657490000129,411.7657490000129,411.7657490000129,411.7657490000129,411.7657490000129,left,0.5599089999450371,1,0,0,99,0.07999999999999997,-0.08,left,0.47229399997740984,,,,,,,,,,,,,,,,,,,,,,,,,,,,,,,,,,,,,,,,,,,,,,,,,,,,,,,,,,,,6EVP4L,train_x,blue_star,bottom_right,2025-03-27_16h48.11.782,HideSeek_v1,2022.2.5,59.96213989580481,
,5,4,2,4,-3,0,31,,train_dim1_1,8,30,,,,2,0,2,0,,,,,,,,,0,0,0,0,0,7,7,7,2,0,2,0,,,,,,,,,,,,,,,,,,,,,,,,,,,,,,,,,,,,,,,,,,,,,,,,,,,,,,,,,,,,,,,,30,,,,,,,,412.3330003999872,412.3330003999872,412.3330003999872,412.3330003999872,412.3330003999872,return,3.229191599995829,1,1,0,0,0.07999999999999997,-0.08,return,3.144833800033666,0,-15,0.07999999999999997,-0.08,,,,,,,,,,,,,,,,,,,,,,,,,,,,,,,,,,,,,,,,,,,,,,,,,,,,,,,,6EVP4L,train_x,blue_star,bottom_right,2025-03-27_16h48.11.782,HideSeek_v1,2022.2.5,59.96213989580481,
,6,0,5,0,-1,0,51,,train_dim1_1,9,30,,,,2,0,2,0,,,,,,,,,0,0,0,0,0,8,8,8,0,0,0,0,,,,,,,,,,,,,,,,,,,,,,,,,stimuli/alien_stimuli/51.png,,,,,,,,,,,,,,,,,,,,,,,,,,,,,stimuli/alien_stimuli/31.png,31,5,10,,,,,,,30,,,,,,,,422.50267329998314,422.50267329998314,422.50267329998314,422.50267329998314,422.50267329998314,left,2.291539500001818,1,1,0,99,0.24,-0.4,left,2.2088409999851137,,,,,420.9428733000532,422.50267329998314,0,-0.08,0.0,0.24,-0.08,0,0.12,0,-0.08,417.144361600047,417.144361600047,417.144361600047,417.144361600047,417.144361600047,417.144361600047,417.144361600047,417.144361600047,417.12319331003823,3.9220107999863103,return,3.7743483999511227,,,,,,,,,,,,,,,,,,,,,,,,,,,,,,,,,6EVP4L,train_x,blue_star,bottom_right,2025-03-27_16h48.11.782,HideSeek_v1,2022.2.5,59.96213989580481,
,6,0,5,0,-1,0,51,,train_dim1_1,9,30,,,,2,0,2,0,,,,,,,,,0,0,0,0,0,8,8,8,1,0,1,0,,,,,,,,,,,,,,,,,,,,,,,,,,,,,,,,,,,,,,,,,,,,,,,,,,,,,,,,,,,,,,,,30,,,,,,,,424.7954274000367,424.7954274000367,424.7954274000367,424.7954274000367,424.7954274000367,return,2.9616934000514448,2,0,0,1,0.24,-0.4,return,2.876492999959737,0,-16,0.24,-0.4,,,,,,,,,,,,,,,,,,,,,,,,,,,,,,,,,,,,,,,,,,,,,,,,,,,,,,,,6EVP4L,train_x,blue_star,bottom_right,2025-03-27_16h48.11.782,HideSeek_v1,2022.2.5,59.96213989580481,
,5,3,0,3,-5,0,11,,train_dim1_1,10,30,,,,2,0,2,0,,,,,,,,,0,0,0,0,0,9,9,9,0,0,0,0,,,,,,,,,,,,,,,,,,,,,,,,,stimuli/alien_stimuli/11.png,,,,,,,,,,,,,,,,,,,,,,,,,,,,,stimuli/alien_stimuli/51.png,51,6,11,,,,,,,30,,,,,,,,432.7828835999826,432.7828835999826,432.7828835999826,432.7828835999826,432.7828835999826,left,1.4243130000540987,2,0,0,99,0.15999999999999998,-0.16,left,1.3061873000115156,,,,,431.2013917999575,432.7828835999826,0.24,-0.4,0.0,0.08,-0.4,0.24,0.28,0.24,-0.4,429.3342389999889,429.3342389999889,429.3342389999889,429.3342389999889,429.3342389999889,429.3342389999889,429.3342389999889,429.3342389999889,429.3165351100499,1.9875021999469027,return,1.8470031999750063,,,,,,,,,,,,,,,,,,,,,,,,,,,,,,,,,6EVP4L,train_x,blue_star,bottom_right,2025-03-27_16h48.11.782,HideSeek_v1,2022.2.5,59.96213989580481,
,5,3,0,3,-5,0,11,,train_dim1_1,10,30,,,,2,0,2,0,,,,,,,,,0,0,0,0,0,9,9,9,1,0,1,0,,,,,,,,,,,,,,,,,,,,,,,,,,,,,,,,,,,,,,,,,,,,,,,,,,,,,,,,,,,,,,,,30,,,,,,,,434.1890922000166,434.1890922000166,434.1890922000166,434.1890922000166,434.1890922000166,left,0.4764318000525236,2,0,0,99,0.07999999999999997,-0.16,left,0.38754589995369315,,,,,,,,,,,,,,,,,,,,,,,,,,,,,,,,,,,,,,,,,,,,,,,,,,,,,,,,,,,,6EVP4L,train_x,blue_star,bottom_right,2025-03-27_16h48.11.782,HideSeek_v1,2022.2.5,59.96213989580481,
,5,3,0,3,-5,0,11,,train_dim1_1,10,30,,,,2,0,2,0,,,,,,,,,0,0,0,0,0,9,9,9,2,0,2,0,,,,,,,,,,,,,,,,,,,,,,,,,,,,,,,,,,,,,,,,,,,,,,,,,,,,,,,,,,,,,,,,30,,,,,,,,434.672706500045,434.672706500045,434.672706500045,434.672706500045,434.672706500045,left,0.793748400057666,2,0,0,99,-2.7755575615628914e-17,-0.16,left,0.7080523000331596,,,,,,,,,,,,,,,,,,,,,,,,,,,,,,,,,,,,,,,,,,,,,,,,,,,,,,,,,,,,6EVP4L,train_x,blue_star,bottom_right,2025-03-27_16h48.11.782,HideSeek_v1,2022.2.5,59.96213989580481,
,5,3,0,3,-5,0,11,,train_dim1_1,10,30,,,,2,0,2,0,,,,,,,,,0,0,0,0,0,9,9,9,3,0,3,0,,,,,,,,,,,,,,,,,,,,,,,,,,,,,,,,,,,,,,,,,,,,,,,,,,,,,,,,,,,,,,,,30,,,,,,,,435.47245200001635,435.47245200001635,435.47245200001635,435.47245200001635,435.47245200001635,left,0.5599264000775293,2,0,0,99,-0.08000000000000003,-0.16,left,0.4733791999751702,,,,,,,,,,,,,,,,,,,,,,,,,,,,,,,,,,,,,,,,,,,,,,,,,,,,,,,,,,,,6EVP4L,train_x,blue_star,bottom_right,2025-03-27_16h48.11.782,HideSeek_v1,2022.2.5,59.96213989580481,
,5,3,0,3,-5,0,11,,train_dim1_1,10,30,,,,2,0,2,0,,,,,,,,,0,0,0,0,0,9,9,9,4,0,4,0,,,,,,,,,,,,,,,,,,,,,,,,,,,,,,,,,,,,,,,,,,,,,,,,,,,,,,,,,,,,,,,,30,,,,,,,,436.03954260004684,436.03954260004684,436.03954260004684,436.03954260004684,436.03954260004684,left,2.345180799951777,2,0,0,99,-0.16000000000000003,-0.16,left,2.2642732999520376,,,,,,,,,,,,,,,,,,,,,,,,,,,,,,,,,,,,,,,,,,,,,,,,,,,,,,,,,,,,6EVP4L,train_x,blue_star,bottom_right,2025-03-27_16h48.11.782,HideSeek_v1,2022.2.5,59.96213989580481,
,5,3,0,3,-5,0,11,,train_dim1_1,10,30,,,,2,0,2,0,,,,,,,,,0,0,0,0,0,9,9,9,5,0,5,0,,,,,,,,,,,,,,,,,,,,,,,,,,,,,,,,,,,,,,,,,,,,,,,,,,,,,,,,,,,,,,,,30,,,,,,,,438.39191799995024,438.39191799995024,438.39191799995024,438.39191799995024,438.39191799995024,return,0.47653109999373555,3,0,0,1,-0.16000000000000003,-0.16,return,0.3930372000904754,0,-21,-0.16000000000000003,-0.16,,,,,,,,,,,,,,,,,,,,,,,,,,,,,,,,,,,,,,,,,,,,,,,,,,,,,,,,6EVP4L,train_x,blue_star,bottom_right,2025-03-27_16h48.11.782,HideSeek_v1,2022.2.5,59.96213989580481,
,7,2,4,2,-3,0,31,,train_dim1_1,11,30,,,,2,0,2,0,,,,,,,,,0,0,0,0,0,10,10,10,0,0,0,0,,,,,,,,,,,,,,,,,,,,,,,,,stimuli/alien_stimuli/31.png,,,,,,,,,,,,,,,,,,,,,,,,,,,,,stimuli/alien_stimuli/11.png,11,5,12,,,,,,,30,,,,,,,,443.79689660004806,443.79689660004806,443.79689660004806,443.79689660004806,443.79689660004806,left,1.4409777999389917,3,0,0,99,0.32,-0.24,left,1.3403896999079734,,,,,442.22721070004627,443.79689660004806,-0.16,-0.16,0.0,0.4,-0.16,-0.16,0.039999999999999994,-0.16,-0.16,440.45730330003425,440.45730330003425,440.45730330003425,440.45730330003425,440.45730330003425,440.45730330003425,440.45730330003425,440.45730330003425,440.44251484000125,1.903577300021425,return,1.7478339000372216,,,,,,,,,,,,,,,,,,,,,,,,,,,,,,,,,6EVP4L,train_x,blue_star,bottom_right,2025-03-27_16h48.11.782,HideSeek_v1,2022.2.5,59.96213989580481,
,7,2,4,2,-3,0,31,,train_dim1_1,11,30,,,,2,0,2,0,,,,,,,,,0,0,0,0,0,10,10,10,1,0,1,0,,,,,,,,,,,,,,,,,,,,,,,,,,,,,,,,,,,,,,,,,,,,,,,,,,,,,,,,,,,,,,,,30,,,,,,,,445.22702510003,445.22702510003,445.22702510003,445.22702510003,445.22702510003,left,0.5928817000240088,3,0,0,99,0.24,-0.24,left,0.5125039999838918,,,,,,,,,,,,,,,,,,,,,,,,,,,,,,,,,,,,,,,,,,,,,,,,,,,,,,,,,,,,6EVP4L,train_x,blue_star,bottom_right,2025-03-27_16h48.11.782,HideSeek_v1,2022.2.5,59.96213989580481,
,7,2,4,2,-3,0,31,,train_dim1_1,11,30,,,,2,0,2,0,,,,,,,,,0,0,0,0,0,10,10,10,2,0,2,0,,,,,,,,,,,,,,,,,,,,,,,,,,,,,,,,,,,,,,,,,,,,,,,,,,,,,,,,,,,,,,,,30,,,,,,,,445.8267819000175,445.8267819000175,445.8267819000175,445.8267819000175,445.8267819000175,left,0.6271039000712335,3,0,0,99,0.15999999999999998,-0.24,left,0.5409460000228137,,,,,,,,,,,,,,,,,,,,,,,,,,,,,,,,,,,,,,,,,,,,,,,,,,,,,,,,,,,,6EVP4L,train_x,blue_star,bottom_right,2025-03-27_16h48.11.782,HideSeek_v1,2022.2.5,59.96213989580481,
,7,2,4,2,-3,0,31,,train_dim1_1,11,30,,,,2,0,2,0,,,,,,,,,0,0,0,0,0,10,10,10,3,0,3,0,,,,,,,,,,,,,,,,,,,,,,,,,,,,,,,,,,,,,,,,,,,,,,,,,,,,,,,,,,,,,,,,30,,,,,,,,446.46153430000413,446.46153430000413,446.46153430000413,446.46153430000413,446.46153430000413,return,7.115746499970555,4,0,0,1,0.15999999999999998,-0.24,return,7.026222300017253,0,-24,0.15999999999999998,-0.24,,,,,,,,,,,,,,,,,,,,,,,,,,,,,,,,,,,,,,,,,,,,,,,,,,,,,,,,6EVP4L,train_x,blue_star,bottom_right,2025-03-27_16h48.11.782,HideSeek_v1,2022.2.5,59.96213989580481,
,5,0,1,0,-4,0,21,,train_dim1_1,12,30,,,,2,0,2,0,,,,,,,,,0,0,0,0,0,11,11,11,0,0,0,0,,,,,,,,,,,,,,,,,,,,,,,,,stimuli/alien_stimuli/21.png,,,,,,,,,,,,,,,,,,,,,,,,,,,,,stimuli/alien_stimuli/31.png,31,7,13,,,,,,,30,,,,,,,,457.99448540003505,457.99448540003505,457.99448540003505,457.99448540003505,457.99448540003505,left,1.7733312000054866,4,0,0,99,0.15999999999999998,-0.4,left,1.680095599964261,,,,,456.42242880002595,457.99448540003505,0.16,-0.24,0.0,0.24,-0.24,0.16,0.28,0.16,-0.24,455.15940859995317,455.15940859995317,455.15940859995317,455.15940859995317,455.15940859995317,455.15940859995317,455.15940859995317,455.15940859995317,455.138114210032,1.3867170999292284,return,1.2308339000446722,,,,,,,,,,,,,,,,,,,,,,,,,,,,,,,,,6EVP4L,train_x,blue_star,bottom_right,2025-03-27_16h48.11.782,HideSeek_v1,2022.2.5,59.96213989580481,
,5,0,1,0,-4,0,21,,train_dim1_1,12,30,,,,2,0,2,0,,,,,,,,,0,0,0,0,0,11,11,11,1,0,1,0,,,,,,,,,,,,,,,,,,,,,,,,,,,,,,,,,,,,,,,,,,,,,,,,,,,,,,,,,,,,,,,,30,,,,,,,,459.7596324000042,459.7596324000042,459.7596324000042,459.7596324000042,459.7596324000042,left,0.44294380000792444,4,0,0,99,0.07999999999999997,-0.4,left,0.3605509999906644,,,,,,,,,,,,,,,,,,,,,,,,,,,,,,,,,,,,,,,,,,,,,,,,,,,,,,,,,,,,6EVP4L,train_x,blue_star,bottom_right,2025-03-27_16h48.11.782,HideSeek_v1,2022.2.5,59.96213989580481,
,5,0,1,0,-4,0,21,,train_dim1_1,12,30,,,,2,0,2,0,,,,,,,,,0,0,0,0,0,11,11,11,2,0,2,0,,,,,,,,,,,,,,,,,,,,,,,,,,,,,,,,,,,,,,,,,,,,,,,,,,,,,,,,,,,,,,,,30,,,,,,,,460.20926160004456,460.20926160004456,460.20926160004456,460.20926160004456,460.20926160004456,left,0.44347559998277575,4,0,0,99,-2.7755575615628914e-17,-0.4,left,0.3525245999917388,,,,,,,,,,,,,,,,,,,,,,,,,,,,,,,,,,,,,,,,,,,,,,,,,,,,,,,,,,,,6EVP4L,train_x,blue_star,bottom_right,2025-03-27_16h48.11.782,HideSeek_v1,2022.2.5,59.96213989580481,
,5,0,1,0,-4,0,21,,train_dim1_1,12,30,,,,2,0,2,0,,,,,,,,,0,0,0,0,0,11,11,11,3,0,3,0,,,,,,,,,,,,,,,,,,,,,,,,,,,,,,,,,,,,,,,,,,,,,,,,,,,,,,,,,,,,,,,,30,,,,,,,,460.6604024999542,460.6604024999542,460.6604024999542,460.6604024999542,460.6604024999542,left,0.35995810001622885,4,0,0,99,-0.08000000000000003,-0.4,left,0.2806340999668464,,,,,,,,,,,,,,,,,,,,,,,,,,,,,,,,,,,,,,,,,,,,,,,,,,,,,,,,,,,,6EVP4L,train_x,blue_star,bottom_right,2025-03-27_16h48.11.782,HideSeek_v1,2022.2.5,59.96213989580481,
,5,0,1,0,-4,0,21,,train_dim1_1,12,30,,,,2,0,2,0,,,,,,,,,0,0,0,0,0,11,11,11,4,0,4,0,,,,,,,,,,,,,,,,,,,,,,,,,,,,,,,,,,,,,,,,,,,,,,,,,,,,,,,,,,,,,,,,30,,,,,,,,461.02768850000575,461.02768850000575,461.02768850000575,461.02768850000575,461.02768850000575,return,1.461085299961269,5,0,0,1,-0.08000000000000003,-0.4,return,1.3823922999436036,0,-28,-0.08000000000000003,-0.4,,,,,,,,,,,,,,,,,,,,,,,,,,,,,,,,,,,,,,,,,,,,,,,,,,,,,,,,6EVP4L,train_x,blue_star,bottom_right,2025-03-27_16h48.11.782,HideSeek_v1,2022.2.5,59.96213989580481,
,5,4,4,4,-1,0,51,,train_dim1_1,13,30,,,,2,0,2,0,,,,,,,,,0,0,0,0,0,12,12,12,0,0,0,0,,,,,,,,,,,,,,,,,,,,,,,,,stimuli/alien_stimuli/51.png,,,,,,,,,,,,,,,,,,,,,,,,,,,,,stimuli/alien_stimuli/21.png,21,5,14,,,,,,,30,,,,,,,,466.54225349996705,466.54225349996705,466.54225349996705,466.54225349996705,466.54225349996705,left,1.7892753999913111,5,0,0,99,0.15999999999999998,-0.08,left,1.6891607000725344,,,,,464.9628761999775,466.54225349996705,-0.08,-0.4,0.0,0.32,-0.4,-0.08,0.07999999999999999,-0.08,-0.4,464.05321729998104,464.05321729998104,464.05321729998104,464.05321729998104,464.05321729998104,464.05321729998104,464.05321729998104,464.05321729998104,464.0452013100032,1.0199234000174329,return,0.8924523999448866,,,,,,,,,,,,,,,,,,,,,,,,,,,,,,,,,6EVP4L,train_x,blue_star,bottom_right,2025-03-27_16h48.11.782,HideSeek_v1,2022.2.5,59.96213989580481,
,5,4,4,4,-1,0,51,,train_dim1_1,13,30,,,,2,0,2,0,,,,,,,,,0,0,0,0,0,12,12,12,1,0,1,0,,,,,,,,,,,,,,,,,,,,,,,,,,,,,,,,,,,,,,,,,,,,,,,,,,,,,,,,,,,,,,,,30,,,,,,,,468.3156557000475,468.3156557000475,468.3156557000475,468.3156557000475,468.3156557000475,return,0.9265940000768751,6,0,0,1,0.15999999999999998,-0.08,return,0.8515800000168383,0,-29,0.15999999999999998,-0.08,,,,,,,,,,,,,,,,,,,,,,,,,,,,,,,,,,,,,,,,,,,,,,,,,,,,,,,,6EVP4L,train_x,blue_star,bottom_right,2025-03-27_16h48.11.782,HideSeek_v1,2022.2.5,59.96213989580481,
,9,3,4,3,-5,0,11,,train_dim1_1,14,30,,,,2,0,2,0,,,,,,,,,0,0,0,0,0,13,13,13,0,0,0,0,,,,,,,,,,,,,,,,,,,,,,,,,stimuli/alien_stimuli/11.png,,,,,,,,,,,,,,,,,,,,,,,,,,,,,stimuli/alien_stimuli/51.png,51,5,15,,,,,,,30,,,,,,,,473.2652715999866,473.2652715999866,473.2652715999866,473.2652715999866,473.2652715999866,left,2.206032000016421,6,0,0,99,0.48000000000000004,-0.16,left,2.119111599982716,,,,,471.7018082999857,473.2652715999866,0.16,-0.08,0.0,0.08,-0.08,0.16,0.2,0.16,-0.08,470.80710960004944,470.80710960004944,470.80710960004944,470.80710960004944,470.80710960004944,470.80710960004944,470.80710960004944,470.80710960004944,470.8009738099529,1.0030701000941917,return,0.8732187000568956,,,,,,,,,,,,,,,,,,,,,,,,,,,,,,,,,6EVP4L,train_x,blue_star,bottom_right,2025-03-27_16h48.11.782,HideSeek_v1,2022.2.5,59.96213989580481,
,9,3,4,3,-5,0,11,,train_dim1_1,14,30,,,,2,0,2,0,,,,,,,,,0,0,0,0,0,13,13,13,1,0,1,0,,,,,,,,,,,,,,,,,,,,,,,,,,,,,,,,,,,,,,,,,,,,,,,,,,,,,,,,,,,,,,,,30,,,,,,,,475.47277280001435,475.47277280001435,475.47277280001435,475.47277280001435,475.47277280001435,left,0.49311619997024536,6,0,0,99,0.4,-0.16,left,0.40876440005376935,,,,,,,,,,,,,,,,,,,,,,,,,,,,,,,,,,,,,,,,,,,,,,,,,,,,,,,,,,,,6EVP4L,train_x,blue_star,bottom_right,2025-03-27_16h48.11.782,HideSeek_v1,2022.2.5,59.96213989580481,
,9,3,4,3,-5,0,11,,train_dim1_1,14,30,,,,2,0,2,0,,,,,,,,,0,0,0,0,0,13,13,13,2,0,2,0,,,,,,,,,,,,,,,,,,,,,,,,,,,,,,,,,,,,,,,,,,,,,,,,,,,,,,,,,,,,,,,,30,,,,,,,,475.97231430001557,475.97231430001557,475.97231430001557,475.97231430001557,475.97231430001557,left,0.49364410003181547,6,0,0,99,0.32,-0.16,left,0.4019159000599757,,,,,,,,,,,,,,,,,,,,,,,,,,,,,,,,,,,,,,,,,,,,,,,,,,,,,,,,,,,,6EVP4L,train_x,blue_star,bottom_right,2025-03-27_16h48.11.782,HideSeek_v1,2022.2.5,59.96213989580481,
,9,3,4,3,-5,0,11,,train_dim1_1,14,30,,,,2,0,2,0,,,,,,,,,0,0,0,0,0,13,13,13,3,0,3,0,,,,,,,,,,,,,,,,,,,,,,,,,,,,,,,,,,,,,,,,,,,,,,,,,,,,,,,,,,,,,,,,30,,,,,,,,476.4742041999707,476.4742041999707,476.4742041999707,476.4742041999707,476.4742041999707,left,0.5101471999660134,6,0,0,99,0.24,-0.16,left,0.4192267000908032,,,,,,,,,,,,,,,,,,,,,,,,,,,,,,,,,,,,,,,,,,,,,,,,,,,,,,,,,,,,6EVP4L,train_x,blue_star,bottom_right,2025-03-27_16h48.11.782,HideSeek_v1,2022.2.5,59.96213989580481,
,9,3,4,3,-5,0,11,,train_dim1_1,14,30,,,,2,0,2,0,,,,,,,,,0,0,0,0,0,13,13,13,4,0,4,0,,,,,,,,,,,,,,,,,,,,,,,,,,,,,,,,,,,,,,,,,,,,,,,,,,,,,,,,,,,,,,,,30,,,,,,,,476.9900210000342,476.9900210000342,476.9900210000342,476.9900210000342,476.9900210000342,left,0.4267497999826446,6,0,0,99,0.15999999999999998,-0.16,left,0.33509539999067783,,,,,,,,,,,,,,,,,,,,,,,,,,,,,,,,,,,,,,,,,,,,,,,,,,,,,,,,,,,,6EVP4L,train_x,blue_star,bottom_right,2025-03-27_16h48.11.782,HideSeek_v1,2022.2.5,59.96213989580481,
,9,3,4,3,-5,0,11,,train_dim1_1,14,30,,,,2,0,2,0,,,,,,,,,0,0,0,0,0,13,13,13,5,0,5,0,,,,,,,,,,,,,,,,,,,,,,,,,,,,,,,,,,,,,,,,,,,,,,,,,,,,,,,,,,,,,,,,30,,,,,,,,477.4241333999671,477.4241333999671,477.4241333999671,477.4241333999671,477.4241333999671,return,0.5435370999621227,7,0,0,1,0.15999999999999998,-0.16,return,0.45413150009699166,0,-34,0.15999999999999998,-0.16,,,,,,,,,,,,,,,,,,,,,,,,,,,,,,,,,,,,,,,,,,,,,,,,,,,,,,,,6EVP4L,train_x,blue_star,bottom_right,2025-03-27_16h48.11.782,HideSeek_v1,2022.2.5,59.96213989580481,
,9,2,9,2,0,0,61,,train_dim1_1,15,30,,,,2,0,2,0,,,,,,,,,0,0,0,0,0,14,14,14,0,0,0,0,,,,,,,,,,,,,,,,,,,,,,,,,stimuli/alien_stimuli/61.png,,,,,,,,,,,,,,,,,,,,,,,,,,,,,stimuli/alien_stimuli/11.png,11,9,16,,,,,,,30,,,,,,,,482.2199021000415,482.2199021000415,482.2199021000415,482.2199021000415,482.2199021000415,return,1.255459800013341,8,0,0,1,0.56,-0.24,return,1.147561899968423,0,-34,0.56,-0.24,480.6425183999818,482.2199021000415,0.16,-0.16,0.0,0.4,-0.16,0.16,0.36000000000000004,0.16,-0.16,479.53189179999754,479.53189179999754,479.53189179999754,479.53189179999754,479.53189179999754,479.53189179999754,479.53189179999754,479.53189179999754,479.52481440994893,1.21997959993314,return,1.086008199956268,,,,,,,,,,,,,,,,,,,,,,,,,,,,,,,,,6EVP4L,train_x,blue_star,bottom_right,2025-03-27_16h48.11.782,HideSeek_v1,2022.2.5,59.96213989580481,
,8,3,7,3,-1,0,51,,train_dim1_1,16,30,,,,2,0,2,0,,,,,,,,,0,0,0,0,0,15,15,15,0,0,0,0,,,,,,,,,,,,,,,,,,,,,,,,,stimuli/alien_stimuli/51.png,,,,,,,,,,,,,,,,,,,,,,,,,,,,,stimuli/alien_stimuli/61.png,61,9,17,,,,,,,30,,,,,,,,487.4775098999962,487.4775098999962,487.4775098999962,487.4775098999962,487.4775098999962,left,1.139639800065197,8,0,0,99,0.39999999999999997,-0.16,left,1.0426270000170916,,,,,485.913601999986,487.4775098999962,0.56,-0.24,0.0,0.0,-0.24,0.56,0.56,0.56,-0.24,485.0172043000348,485.0172043000348,485.0172043000348,485.0172043000348,485.0172043000348,485.0172043000348,485.0172043000348,485.0172043000348,484.99621048001575,1.0026911000022665,return,0.8679969999939203,,,,,,,,,,,,,,,,,,,,,,,,,,,,,,,,,6EVP4L,train_x,blue_star,bottom_right,2025-03-27_16h48.11.782,HideSeek_v1,2022.2.5,59.96213989580481,
,8,3,7,3,-1,0,51,,train_dim1_1,16,30,,,,2,0,2,0,,,,,,,,,0,0,0,0,0,15,15,15,1,0,1,0,,,,,,,,,,,,,,,,,,,,,,,,,,,,,,,,,,,,,,,,,,,,,,,,,,,,,,,,,,,,,,,,30,,,,,,,,488.6156328000361,488.6156328000361,488.6156328000361,488.6156328000361,488.6156328000361,return,0.559752200031653,9,0,0,1,0.39999999999999997,-0.16,return,0.4730840999400243,0,-35,0.39999999999999997,-0.16,,,,,,,,,,,,,,,,,,,,,,,,,,,,,,,,,,,,,,,,,,,,,,,,,,,,,,,,6EVP4L,train_x,blue_star,bottom_right,2025-03-27_16h48.11.782,HideSeek_v1,2022.2.5,59.96213989580481,
,7,4,3,4,-4,0,21,,train_dim1_1,17,30,,,,2,0,2,0,,,,,,,,,0,0,0,0,0,16,16,16,0,0,0,0,,,,,,,,,,,,,,,,,,,,,,,,,stimuli/alien_stimuli/21.png,,,,,,,,,,,,,,,,,,,,,,,,,,,,,stimuli/alien_stimuli/51.png,51,8,18,,,,,,,30,,,,,,,,493.7841591000324,493.7841591000324,493.7841591000324,493.7841591000324,493.7841591000324,left,1.252941699931398,9,0,0,99,0.32,-0.08,left,1.1623460999689996,,,,,492.21889789996203,493.7841591000324,0.4,-0.16,0.0,0.08,-0.16,0.4,0.44,0.4,-0.16,490.7407845000271,490.7407845000271,490.7407845000271,490.7407845000271,490.7407845000271,490.7407845000271,490.7407845000271,490.7407845000271,490.71761707998814,1.5868399000028148,return,1.455762500059791,,,,,,,,,,,,,,,,,,,,,,,,,,,,,,,,,6EVP4L,train_x,blue_star,bottom_right,2025-03-27_16h48.11.782,HideSeek_v1,2022.2.5,59.96213989580481,
,7,4,3,4,-4,0,21,,train_dim1_1,17,30,,,,2,0,2,0,,,,,,,,,0,0,0,0,0,16,16,16,1,0,1,0,,,,,,,,,,,,,,,,,,,,,,,,,,,,,,,,,,,,,,,,,,,,,,,,,,,,,,,,,,,,,,,,30,,,,,,,,495.03945999999996,495.03945999999996,495.03945999999996,495.03945999999996,495.03945999999996,left,0.710156400105916,9,0,0,99,0.24,-0.08,left,0.6309694000519812,,,,,,,,,,,,,,,,,,,,,,,,,,,,,,,,,,,,,,,,,,,,,,,,,,,,,,,,,,,,6EVP4L,train_x,blue_star,bottom_right,2025-03-27_16h48.11.782,HideSeek_v1,2022.2.5,59.96213989580481,
,7,4,3,4,-4,0,21,,train_dim1_1,17,30,,,,2,0,2,0,,,,,,,,,0,0,0,0,0,16,16,16,2,0,2,0,,,,,,,,,,,,,,,,,,,,,,,,,,,,,,,,,,,,,,,,,,,,,,,,,,,,,,,,,,,,,,,,30,,,,,,,,495.75501029996667,495.75501029996667,495.75501029996667,495.75501029996667,495.75501029996667,left,0.5768430000171065,9,0,0,99,0.15999999999999998,-0.08,left,0.48552380001638085,,,,,,,,,,,,,,,,,,,,,,,,,,,,,,,,,,,,,,,,,,,,,,,,,,,,,,,,,,,,6EVP4L,train_x,blue_star,bottom_right,2025-03-27_16h48.11.782,HideSeek_v1,2022.2.5,59.96213989580481,
,7,4,3,4,-4,0,21,,train_dim1_1,17,30,,,,2,0,2,0,,,,,,,,,0,0,0,0,0,16,16,16,3,0,3,0,,,,,,,,,,,,,,,,,,,,,,,,,,,,,,,,,,,,,,,,,,,,,,,,,,,,,,,,,,,,,,,,30,,,,,,,,496.3399607000174,496.3399607000174,496.3399607000174,496.3399607000174,496.3399607000174,left,2.0112873000325635,9,0,0,99,0.07999999999999997,-0.08,left,1.92434350005351,,,,,,,,,,,,,,,,,,,,,,,,,,,,,,,,,,,,,,,,,,,,,,,,,,,,,,,,,,,,6EVP4L,train_x,blue_star,bottom_right,2025-03-27_16h48.11.782,HideSeek_v1,2022.2.5,59.96213989580481,
,7,4,3,4,-4,0,21,,train_dim1_1,17,30,,,,2,0,2,0,,,,,,,,,0,0,0,0,0,16,16,16,4,0,4,0,,,,,,,,,,,,,,,,,,,,,,,,,,,,,,,,,,,,,,,,,,,,,,,,,,,,,,,,,,,,,,,,30,,,,,,,,498.35698419995606,498.35698419995606,498.35698419995606,498.35698419995606,498.35698419995606,return,0.5603561999741942,10,0,0,1,0.07999999999999997,-0.08,return,0.47580279991962016,0,-39,0.07999999999999997,-0.08,,,,,,,,,,,,,,,,,,,,,,,,,,,,,,,,,,,,,,,,,,,,,,,,,,,,,,,,6EVP4L,train_x,blue_star,bottom_right,2025-03-27_16h48.11.782,HideSeek_v1,2022.2.5,59.96213989580481,
,7,1,7,1,0,0,61,,train_dim1_1,18,30,,,,2,0,2,0,,,,,,,,,0,0,0,0,0,17,17,17,0,0,0,0,,,,,,,,,,,,,,,,,,,,,,,,,stimuli/alien_stimuli/61.png,,,,,,,,,,,,,,,,,,,,,,,,,,,,,stimuli/alien_stimuli/21.png,21,7,19,,,,,,,30,,,,,,,,502.6874533999944,502.6874533999944,502.6874533999944,502.6874533999944,502.6874533999944,return,0.9548600999405608,11,0,0,1,0.4,-0.32,return,0.8473689999664202,0,-39,0.4,-0.32,501.1095568999881,502.6874533999944,0.08,-0.08,0.0,0.32,-0.08,0.08,0.24000000000000002,0.08,-0.08,500.48471870005596,500.48471870005596,500.48471870005596,500.48471870005596,500.48471870005596,500.48471870005596,500.48471870005596,500.48471870005596,500.4756589100464,0.7360505999531597,return,0.6003747000358999,,,,,,,,,,,,,,,,,,,,,,,,,,,,,,,,,6EVP4L,train_x,blue_star,bottom_right,2025-03-27_16h48.11.782,HideSeek_v1,2022.2.5,59.96213989580481,
,5,3,2,3,-3,0,31,,train_dim1_1,19,30,,,,2,0,2,0,,,,,,,,,0,0,0,0,0,18,18,18,0,0,0,0,,,,,,,,,,,,,,,,,,,,,,,,,stimuli/alien_stimuli/31.png,,,,,,,,,,,,,,,,,,,,,,,,,,,,,stimuli/alien_stimuli/61.png,61,7,20,,,,,,,30,,,,,,,,507.6397211999865,507.6397211999865,507.6397211999865,507.6397211999865,507.6397211999865,left,1.7564245000248775,11,0,0,99,0.15999999999999998,-0.16,left,1.6720404999796301,,,,,506.08019340003375,507.6397211999865,0.4,-0.32,0.0,0.0,-0.32,0.4,0.4,0.4,-0.32,505.18239990004804,505.18239990004804,505.18239990004804,505.18239990004804,505.18239990004804,505.18239990004804,505.18239990004804,505.18239990004804,505.1629622800043,1.0030317000346258,return,0.8786946999607608,,,,,,,,,,,,,,,,,,,,,,,,,,,,,,,,,6EVP4L,train_x,blue_star,bottom_right,2025-03-27_16h48.11.782,HideSeek_v1,2022.2.5,59.96213989580481,
,5,3,2,3,-3,0,31,,train_dim1_1,19,30,,,,2,0,2,0,,,,,,,,,0,0,0,0,0,18,18,18,1,0,1,0,,,,,,,,,,,,,,,,,,,,,,,,,,,,,,,,,,,,,,,,,,,,,,,,,,,,,,,,,,,,,,,,30,,,,,,,,509.3971266000299,509.3971266000299,509.3971266000299,509.3971266000299,509.3971266000299,left,0.5266639000037685,11,0,0,99,0.07999999999999997,-0.16,left,0.44502049998845905,,,,,,,,,,,,,,,,,,,,,,,,,,,,,,,,,,,,,,,,,,,,,,,,,,,,,,,,,,,,6EVP4L,train_x,blue_star,bottom_right,2025-03-27_16h48.11.782,HideSeek_v1,2022.2.5,59.96213989580481,
,5,3,2,3,-3,0,31,,train_dim1_1,19,30,,,,2,0,2,0,,,,,,,,,0,0,0,0,0,18,18,18,2,0,2,0,,,,,,,,,,,,,,,,,,,,,,,,,,,,,,,,,,,,,,,,,,,,,,,,,,,,,,,,,,,,,,,,30,,,,,,,,509.92967470001895,509.92967470001895,509.92967470001895,509.92967470001895,509.92967470001895,left,0.41006379993632436,11,0,0,99,-2.7755575615628914e-17,-0.16,left,0.329961400013417,,,,,,,,,,,,,,,,,,,,,,,,,,,,,,,,,,,,,,,,,,,,,,,,,,,,,,,,,,,,6EVP4L,train_x,blue_star,bottom_right,2025-03-27_16h48.11.782,HideSeek_v1,2022.2.5,59.96213989580481,
,5,3,2,3,-3,0,31,,train_dim1_1,19,30,,,,2,0,2,0,,,,,,,,,0,0,0,0,0,18,18,18,3,0,3,0,,,,,,,,,,,,,,,,,,,,,,,,,,,,,,,,,,,,,,,,,,,,,,,,,,,,,,,,,,,,,,,,30,,,,,,,,510.34742899995763,510.34742899995763,510.34742899995763,510.34742899995763,510.34742899995763,return,0.3433266000356525,12,0,0,1,-2.7755575615628914e-17,-0.16,return,0.26347220002207905,0,-42,-2.7755575615628914e-17,-0.16,,,,,,,,,,,,,,,,,,,,,,,,,,,,,,,,,,,,,,,,,,,,,,,,,,,,,,,,6EVP4L,train_x,blue_star,bottom_right,2025-03-27_16h48.11.782,HideSeek_v1,2022.2.5,59.96213989580481,
,5,1,0,1,-5,0,11,,train_dim1_1,20,30,,,,2,0,2,0,,,,,,,,,0,0,0,0,0,19,19,19,0,0,0,0,,,,,,,,,,,,,,,,,,,,,,,,,stimuli/alien_stimuli/11.png,,,,,,,,,,,,,,,,,,,,,,,,,,,,,stimuli/alien_stimuli/31.png,31,5,21,,,,,,,30,,,,,,,,514.6332437000237,514.6332437000237,514.6332437000237,514.6332437000237,514.6332437000237,left,1.2890111000742763,12,0,0,99,0.15999999999999998,-0.32,left,1.1971825000364333,,,,,513.0695800000103,514.6332437000237,0,-0.16,0.0,0.24,-0.16,0,0.12,0,-0.16,512.2530323000392,512.2530323000392,512.2530323000392,512.2530323000392,512.2530323000392,512.2530323000392,512.2530323000392,512.2530323000392,512.2353546800092,0.919360899948515,return,0.7884572999319062,,,,,,,,,,,,,,,,,,,,,,,,,,,,,,,,,6EVP4L,train_x,blue_star,bottom_right,2025-03-27_16h48.11.782,HideSeek_v1,2022.2.5,59.96213989580481,
,5,1,0,1,-5,0,11,,train_dim1_1,20,30,,,,2,0,2,0,,,,,,,,,0,0,0,0,0,19,19,19,1,0,1,0,,,,,,,,,,,,,,,,,,,,,,,,,,,,,,,,,,,,,,,,,,,,,,,,,,,,,,,,,,,,,,,,30,,,,,,,,515.9223490000004,515.9223490000004,515.9223490000004,515.9223490000004,515.9223490000004,left,0.4931386999087408,12,0,0,99,0.07999999999999997,-0.32,left,0.41338060004636645,,,,,,,,,,,,,,,,,,,,,,,,,,,,,,,,,,,,,,,,,,,,,,,,,,,,,,,,,,,,6EVP4L,train_x,blue_star,bottom_right,2025-03-27_16h48.11.782,HideSeek_v1,2022.2.5,59.96213989580481,
,5,1,0,1,-5,0,11,,train_dim1_1,20,30,,,,2,0,2,0,,,,,,,,,0,0,0,0,0,19,19,19,2,0,2,0,,,,,,,,,,,,,,,,,,,,,,,,,,,,,,,,,,,,,,,,,,,,,,,,,,,,,,,,,,,,,,,,30,,,,,,,,516.4242243999615,516.4242243999615,516.4242243999615,516.4242243999615,516.4242243999615,left,0.4435260999016464,12,0,0,99,-2.7755575615628914e-17,-0.32,left,0.3569208000553772,,,,,,,,,,,,,,,,,,,,,,,,,,,,,,,,,,,,,,,,,,,,,,,,,,,,,,,,,,,,6EVP4L,train_x,blue_star,bottom_right,2025-03-27_16h48.11.782,HideSeek_v1,2022.2.5,59.96213989580481,
,5,1,0,1,-5,0,11,,train_dim1_1,20,30,,,,2,0,2,0,,,,,,,,,0,0,0,0,0,19,19,19,3,0,3,0,,,,,,,,,,,,,,,,,,,,,,,,,,,,,,,,,,,,,,,,,,,,,,,,,,,,,,,,,,,,,,,,30,,,,,,,,516.8729766999604,516.8729766999604,516.8729766999604,516.8729766999604,516.8729766999604,left,0.4098075999645516,12,0,0,99,-0.08000000000000003,-0.32,left,0.32905249996110797,,,,,,,,,,,,,,,,,,,,,,,,,,,,,,,,,,,,,,,,,,,,,,,,,,,,,,,,,,,,6EVP4L,train_x,blue_star,bottom_right,2025-03-27_16h48.11.782,HideSeek_v1,2022.2.5,59.96213989580481,
,5,1,0,1,-5,0,11,,train_dim1_1,20,30,,,,2,0,2,0,,,,,,,,,0,0,0,0,0,19,19,19,4,0,4,0,,,,,,,,,,,,,,,,,,,,,,,,,,,,,,,,,,,,,,,,,,,,,,,,,,,,,,,,,,,,,,,,30,,,,,,,,517.2904013999505,517.2904013999505,517.2904013999505,517.2904013999505,517.2904013999505,left,0.3935590999899432,12,0,0,99,-0.16000000000000003,-0.32,left,0.3059349999530241,,,,,,,,,,,,,,,,,,,,,,,,,,,,,,,,,,,,,,,,,,,,,,,,,,,,,,,,,,,,6EVP4L,train_x,blue_star,bottom_right,2025-03-27_16h48.11.782,HideSeek_v1,2022.2.5,59.96213989580481,
,5,1,0,1,-5,0,11,,train_dim1_1,20,30,,,,2,0,2,0,,,,,,,,,0,0,0,0,0,19,19,19,5,0,5,0,,,,,,,,,,,,,,,,,,,,,,,,,,,,,,,,,,,,,,,,,,,,,,,,,,,,,,,,,,,,,,,,30,,,,,,,,517.6911891000345,517.6911891000345,517.6911891000345,517.6911891000345,517.6911891000345,return,0.5433264999883249,13,0,0,1,-0.16000000000000003,-0.32,return,0.4663977000163868,0,-47,-0.16000000000000003,-0.32,,,,,,,,,,,,,,,,,,,,,,,,,,,,,,,,,,,,,,,,,,,,,,,,,,,,,,,,6EVP4L,train_x,blue_star,bottom_right,2025-03-27_16h48.11.782,HideSeek_v1,2022.2.5,59.96213989580481,
,9,2,6,2,-3,0,31,,train_dim1_1,21,30,,,,2,0,2,0,,,,,,,,,0,0,0,0,0,20,20,20,0,0,0,0,,,,,,,,,,,,,,,,,,,,,,,,,stimuli/alien_stimuli/31.png,,,,,,,,,,,,,,,,,,,,,,,,,,,,,stimuli/alien_stimuli/11.png,11,5,22,,,,,,,30,,,,,,,,522.1023355999496,522.1023355999496,522.1023355999496,522.1023355999496,522.1023355999496,left,1.0381030000280589,13,0,0,99,0.48000000000000004,-0.24,left,0.9514742000028491,,,,,520.5422554999823,522.1023355999496,-0.16,-0.32,0.0,0.4,-0.32,-0.16,0.039999999999999994,-0.16,-0.32,519.7997501000063,519.7997501000063,519.7997501000063,519.7997501000063,519.7997501000063,519.7997501000063,519.7997501000063,519.7997501000063,519.7916471099481,0.8528321000048891,return,0.7213414000580087,,,,,,,,,,,,,,,,,,,,,,,,,,,,,,,,,6EVP4L,train_x,blue_star,bottom_right,2025-03-27_16h48.11.782,HideSeek_v1,2022.2.5,59.96213989580481,
,9,2,6,2,-3,0,31,,train_dim1_1,21,30,,,,2,0,2,0,,,,,,,,,0,0,0,0,0,20,20,20,1,0,1,0,,,,,,,,,,,,,,,,,,,,,,,,,,,,,,,,,,,,,,,,,,,,,,,,,,,,,,,,,,,,,,,,30,,,,,,,,523.141699800035,523.141699800035,523.141699800035,523.141699800035,523.141699800035,left,0.4931423000525683,13,0,0,99,0.4,-0.24,left,0.4107459000078961,,,,,,,,,,,,,,,,,,,,,,,,,,,,,,,,,,,,,,,,,,,,,,,,,,,,,,,,,,,,6EVP4L,train_x,blue_star,bottom_right,2025-03-27_16h48.11.782,HideSeek_v1,2022.2.5,59.96213989580481,
,9,2,6,2,-3,0,31,,train_dim1_1,21,30,,,,2,0,2,0,,,,,,,,,0,0,0,0,0,20,20,20,2,0,2,0,,,,,,,,,,,,,,,,,,,,,,,,,,,,,,,,,,,,,,,,,,,,,,,,,,,,,,,,,,,,,,,,30,,,,,,,,523.6417319000466,523.6417319000466,523.6417319000466,523.6417319000466,523.6417319000466,left,0.44344900001306087,13,0,0,99,0.32,-0.24,left,0.3627321000676602,,,,,,,,,,,,,,,,,,,,,,,,,,,,,,,,,,,,,,,,,,,,,,,,,,,,,,,,,,,,6EVP4L,train_x,blue_star,bottom_right,2025-03-27_16h48.11.782,HideSeek_v1,2022.2.5,59.96213989580481,
,9,2,6,2,-3,0,31,,train_dim1_1,21,30,,,,2,0,2,0,,,,,,,,,0,0,0,0,0,20,20,20,3,0,3,0,,,,,,,,,,,,,,,,,,,,,,,,,,,,,,,,,,,,,,,,,,,,,,,,,,,,,,,,,,,,,,,,30,,,,,,,,524.0920183999697,524.0920183999697,524.0920183999697,524.0920183999697,524.0920183999697,return,0.5433931000297889,14,0,0,1,0.32,-0.24,return,0.4661399000324309,0,-50,0.32,-0.24,,,,,,,,,,,,,,,,,,,,,,,,,,,,,,,,,,,,,,,,,,,,,,,,,,,,,,,,6EVP4L,train_x,blue_star,bottom_right,2025-03-27_16h48.11.782,HideSeek_v1,2022.2.5,59.96213989580481,
,6,0,2,0,-4,0,21,,train_dim1_1,22,30,,,,2,0,2,0,,,,,,,,,0,0,0,0,0,21,21,21,0,0,0,0,,,,,,,,,,,,,,,,,,,,,,,,,stimuli/alien_stimuli/21.png,,,,,,,,,,,,,,,,,,,,,,,,,,,,,stimuli/alien_stimuli/31.png,31,9,23,,,,,,,30,,,,,,,,528.4803935999516,528.4803935999516,528.4803935999516,528.4803935999516,528.4803935999516,left,1.2865994999883696,14,0,0,99,0.24,-0.4,left,1.1778747000498697,,,,,526.8976099999854,528.4803935999516,0.32,-0.24,0.0,0.24,-0.24,0.32,0.44000000000000006,0.32,-0.24,526.1981282000197,526.1981282000197,526.1981282000197,526.1981282000197,526.1981282000197,526.1981282000197,526.1981282000197,526.1981282000197,526.1803259799723,0.8027695999480784,return,0.6682617999613285,,,,,,,,,,,,,,,,,,,,,,,,,,,,,,,,,6EVP4L,train_x,blue_star,bottom_right,2025-03-27_16h48.11.782,HideSeek_v1,2022.2.5,59.96213989580481,
,6,0,2,0,-4,0,21,,train_dim1_1,22,30,,,,2,0,2,0,,,,,,,,,0,0,0,0,0,21,21,21,1,0,1,0,,,,,,,,,,,,,,,,,,,,,,,,,,,,,,,,,,,,,,,,,,,,,,,,,,,,,,,,,,,,,,,,30,,,,,,,,529.7521695999894,529.7521695999894,529.7521695999894,529.7521695999894,529.7521695999894,left,0.542298800079152,14,0,0,99,0.15999999999999998,-0.4,left,0.450031700078398,,,,,,,,,,,,,,,,,,,,,,,,,,,,,,,,,,,,,,,,,,,,,,,,,,,,,,,,,,,,6EVP4L,train_x,blue_star,bottom_right,2025-03-27_16h48.11.782,HideSeek_v1,2022.2.5,59.96213989580481,
,6,0,2,0,-4,0,21,,train_dim1_1,22,30,,,,2,0,2,0,,,,,,,,,0,0,0,0,0,21,21,21,2,0,2,0,,,,,,,,,,,,,,,,,,,,,,,,,,,,,,,,,,,,,,,,,,,,,,,,,,,,,,,,,,,,,,,,30,,,,,,,,530.3010045000119,530.3010045000119,530.3010045000119,530.3010045000119,530.3010045000119,left,0.47657319996505976,14,0,0,99,0.07999999999999997,-0.4,left,0.39189349999651313,,,,,,,,,,,,,,,,,,,,,,,,,,,,,,,,,,,,,,,,,,,,,,,,,,,,,,,,,,,,6EVP4L,train_x,blue_star,bottom_right,2025-03-27_16h48.11.782,HideSeek_v1,2022.2.5,59.96213989580481,
,6,0,2,0,-4,0,21,,train_dim1_1,22,30,,,,2,0,2,0,,,,,,,,,0,0,0,0,0,21,21,21,3,0,3,0,,,,,,,,,,,,,,,,,,,,,,,,,,,,,,,,,,,,,,,,,,,,,,,,,,,,,,,,,,,,,,,,30,,,,,,,,530.7848559999838,530.7848559999838,530.7848559999838,530.7848559999838,530.7848559999838,left,0.5101257000351325,14,0,0,99,-2.7755575615628914e-17,-0.4,left,0.4310842000413686,,,,,,,,,,,,,,,,,,,,,,,,,,,,,,,,,,,,,,,,,,,,,,,,,,,,,,,,,,,,6EVP4L,train_x,blue_star,bottom_right,2025-03-27_16h48.11.782,HideSeek_v1,2022.2.5,59.96213989580481,
,6,0,2,0,-4,0,21,,train_dim1_1,22,30,,,,2,0,2,0,,,,,,,,,0,0,0,0,0,21,21,21,4,0,4,0,,,,,,,,,,,,,,,,,,,,,,,,,,,,,,,,,,,,,,,,,,,,,,,,,,,,,,,,,,,,,,,,30,,,,,,,,531.3019342999905,531.3019342999905,531.3019342999905,531.3019342999905,531.3019342999905,return,0.39350370003376156,15,0,0,1,-2.7755575615628914e-17,-0.4,return,0.3114326000213623,0,-54,-2.7755575615628914e-17,-0.4,,,,,,,,,,,,,,,,,,,,,,,,,,,,,,,,,,,,,,,,,,,,,,,,,,,,,,,,6EVP4L,train_x,blue_star,bottom_right,2025-03-27_16h48.11.782,HideSeek_v1,2022.2.5,59.96213989580481,
,7,1,7,1,0,0,61,,train_dim1_1,23,30,,,,2,0,2,0,,,,,,,,,0,0,0,0,0,22,22,22,0,0,0,0,,,,,,,,,,,,,,,,,,,,,,,,,stimuli/alien_stimuli/61.png,,,,,,,,,,,,,,,,,,,,,,,,,,,,,stimuli/alien_stimuli/21.png,21,6,24,,,,,,,30,,,,,,,,535.6640580999665,535.6640580999665,535.6640580999665,535.6640580999665,535.6640580999665,return,0.9026270000031218,16,0,0,1,0.4,-0.32,return,0.7927282000891864,0,-54,0.4,-0.32,534.0868392999982,535.6640580999665,0,-0.4,0.0,0.32,-0.4,0,0.16,0,-0.4,533.2620392000536,533.2620392000536,533.2620392000536,533.2620392000536,533.2620392000536,533.2620392000536,533.2620392000536,533.2620392000536,533.2528212100035,0.9364640000276268,return,0.8035274000139907,,,,,,,,,,,,,,,,,,,,,,,,,,,,,,,,,6EVP4L,train_x,blue_star,bottom_right,2025-03-27_16h48.11.782,HideSeek_v1,2022.2.5,59.96213989580481,
,9,4,8,4,-1,0,51,,train_dim1_1,24,30,,,,2,0,2,0,,,,,,,,,0,0,0,0,0,23,23,23,0,0,0,0,,,,,,,,,,,,,,,,,,,,,,,,,stimuli/alien_stimuli/51.png,,,,,,,,,,,,,,,,,,,,,,,,,,,,,stimuli/alien_stimuli/61.png,61,7,25,,,,,,,30,,,,,,,,540.223817900056,540.223817900056,540.223817900056,540.223817900056,540.223817900056,left,1.4037939000409096,16,0,0,99,0.48000000000000004,-0.08,left,1.3095449999673292,,,,,538.6574955000542,540.223817900056,0.4,-0.32,0.0,0.0,-0.32,0.4,0.4,0.4,-0.32,538.1082657000516,538.1082657000516,538.1082657000516,538.1082657000516,538.1082657000516,538.1082657000516,538.1082657000516,538.1082657000516,538.0903037799523,0.6527103999396786,return,0.5253742000786588,,,,,,,,,,,,,,,,,,,,,,,,,,,,,,,,,6EVP4L,train_x,blue_star,bottom_right,2025-03-27_16h48.11.782,HideSeek_v1,2022.2.5,59.96213989580481,
,9,4,8,4,-1,0,51,,train_dim1_1,24,30,,,,2,0,2,0,,,,,,,,,0,0,0,0,0,23,23,23,1,0,1,0,,,,,,,,,,,,,,,,,,,,,,,,,,,,,,,,,,,,,,,,,,,,,,,,,,,,,,,,,,,,,,,,30,,,,,,,,541.6259533000411,541.6259533000411,541.6259533000411,541.6259533000411,541.6259533000411,return,0.826479599927552,17,0,0,1,0.48000000000000004,-0.08,return,0.7390565999085084,0,-55,0.48000000000000004,-0.08,,,,,,,,,,,,,,,,,,,,,,,,,,,,,,,,,,,,,,,,,,,,,,,,,,,,,,,,6EVP4L,train_x,blue_star,bottom_right,2025-03-27_16h48.11.782,HideSeek_v1,2022.2.5,59.96213989580481,
,8,0,3,0,-5,0,11,,train_dim1_1,25,30,,,,2,0,2,0,,,,,,,,,0,0,0,0,0,24,24,24,0,0,0,0,,,,,,,,,,,,,,,,,,,,,,,,,stimuli/alien_stimuli/11.png,,,,,,,,,,,,,,,,,,,,,,,,,,,,,stimuli/alien_stimuli/51.png,51,9,26,,,,,,,30,,,,,,,,546.228479100042,546.228479100042,546.228479100042,546.228479100042,546.228479100042,left,0.8194868999999017,17,0,0,99,0.39999999999999997,-0.4,left,0.7288951999507844,,,,,544.6622897000052,546.228479100042,0.48,-0.08,0.0,0.08,-0.08,0.48,0.52,0.48,-0.08,544.0166582999518,544.0166582999518,544.0166582999518,544.0166582999518,544.0166582999518,544.0166582999518,544.0166582999518,544.0166582999518,543.99507968002,0.7529043999966234,return,0.6241429999936372,,,,,,,,,,,,,,,,,,,,,,,,,,,,,,,,,6EVP4L,train_x,blue_star,bottom_right,2025-03-27_16h48.11.782,HideSeek_v1,2022.2.5,59.96213989580481,
,8,0,3,0,-5,0,11,,train_dim1_1,25,30,,,,2,0,2,0,,,,,,,,,0,0,0,0,0,24,24,24,1,0,1,0,,,,,,,,,,,,,,,,,,,,,,,,,,,,,,,,,,,,,,,,,,,,,,,,,,,,,,,,,,,,,,,,30,,,,,,,,547.0485501999501,547.0485501999501,547.0485501999501,547.0485501999501,547.0485501999501,left,0.3929386999225244,17,0,0,99,0.31999999999999995,-0.4,left,0.31382000003941357,,,,,,,,,,,,,,,,,,,,,,,,,,,,,,,,,,,,,,,,,,,,,,,,,,,,,,,,,,,,6EVP4L,train_x,blue_star,bottom_right,2025-03-27_16h48.11.782,HideSeek_v1,2022.2.5,59.96213989580481,
,8,0,3,0,-5,0,11,,train_dim1_1,25,30,,,,2,0,2,0,,,,,,,,,0,0,0,0,0,24,24,24,2,0,2,0,,,,,,,,,,,,,,,,,,,,,,,,,,,,,,,,,,,,,,,,,,,,,,,,,,,,,,,,,,,,,,,,30,,,,,,,,547.4486863999628,547.4486863999628,547.4486863999628,547.4486863999628,547.4486863999628,left,0.44325340003706515,17,0,0,99,0.23999999999999994,-0.4,left,0.35885229997802526,,,,,,,,,,,,,,,,,,,,,,,,,,,,,,,,,,,,,,,,,,,,,,,,,,,,,,,,,,,,6EVP4L,train_x,blue_star,bottom_right,2025-03-27_16h48.11.782,HideSeek_v1,2022.2.5,59.96213989580481,
,8,0,3,0,-5,0,11,,train_dim1_1,25,30,,,,2,0,2,0,,,,,,,,,0,0,0,0,0,24,24,24,3,0,3,0,,,,,,,,,,,,,,,,,,,,,,,,,,,,,,,,,,,,,,,,,,,,,,,,,,,,,,,,,,,,,,,,30,,,,,,,,547.8987040000502,547.8987040000502,547.8987040000502,547.8987040000502,547.8987040000502,left,0.4768588999286294,17,0,0,99,0.15999999999999992,-0.4,left,0.3895504999672994,,,,,,,,,,,,,,,,,,,,,,,,,,,,,,,,,,,,,,,,,,,,,,,,,,,,,,,,,,,,6EVP4L,train_x,blue_star,bottom_right,2025-03-27_16h48.11.782,HideSeek_v1,2022.2.5,59.96213989580481,
,8,0,3,0,-5,0,11,,train_dim1_1,25,30,,,,2,0,2,0,,,,,,,,,0,0,0,0,0,24,24,24,4,0,4,0,,,,,,,,,,,,,,,,,,,,,,,,,,,,,,,,,,,,,,,,,,,,,,,,,,,,,,,,,,,,,,,,30,,,,,,,,548.3834122000262,548.3834122000262,548.3834122000262,548.3834122000262,548.3834122000262,left,0.9438154000090435,17,0,0,99,0.07999999999999992,-0.4,left,0.8579714000225067,,,,,,,,,,,,,,,,,,,,,,,,,,,,,,,,,,,,,,,,,,,,,,,,,,,,,,,,,,,,6EVP4L,train_x,blue_star,bottom_right,2025-03-27_16h48.11.782,HideSeek_v1,2022.2.5,59.96213989580481,
,8,0,3,0,-5,0,11,,train_dim1_1,25,30,,,,2,0,2,0,,,,,,,,,0,0,0,0,0,24,24,24,5,0,5,0,,,,,,,,,,,,,,,,,,,,,,,,,,,,,,,,,,,,,,,,,,,,,,,,,,,,,,,,,,,,,,,,30,,,,,,,,549.3330838000402,549.3330838000402,549.3330838000402,549.3330838000402,549.3330838000402,return,0.41013920004479587,18,0,0,1,0.07999999999999992,-0.4,return,0.31880839995574206,0,-60,0.07999999999999992,-0.4,,,,,,,,,,,,,,,,,,,,,,,,,,,,,,,,,,,,,,,,,,,,,,,,,,,,,,,,6EVP4L,train_x,blue_star,bottom_right,2025-03-27_16h48.11.782,HideSeek_v1,2022.2.5,59.96213989580481,
,6,1,6,1,0,0,61,,train_dim1_1,26,30,,,,2,0,2,0,,,,,,,,,0,0,0,0,0,25,25,25,0,0,0,0,,,,,,,,,,,,,,,,,,,,,,,,,stimuli/alien_stimuli/61.png,,,,,,,,,,,,,,,,,,,,,,,,,,,,,stimuli/alien_stimuli/11.png,11,8,27,,,,,,,30,,,,,,,,553.3507554000244,553.3507554000244,553.3507554000244,553.3507554000244,553.3507554000244,return,0.9703573000151664,19,0,0,1,0.32,-0.32,return,0.8617272999836132,0,-60,0.32,-0.32,551.7684825999895,553.3507554000244,0.08,-0.4,0.0,0.4,-0.4,0.08,0.27999999999999997,0.08,-0.4,551.3078391000163,551.3078391000163,551.3078391000163,551.3078391000163,551.3078391000163,551.3078391000163,551.3078391000163,551.3078391000163,551.3010970099597,0.5692282000090927,return,0.43280990002676845,,,,,,,,,,,,,,,,,,,,,,,,,,,,,,,,,6EVP4L,train_x,blue_star,bottom_right,2025-03-27_16h48.11.782,HideSeek_v1,2022.2.5,59.96213989580481,
,5,1,2,1,-3,0,31,,train_dim1_1,27,30,,,,2,0,2,0,,,,,,,,,0,0,0,0,0,26,26,26,0,0,0,0,,,,,,,,,,,,,,,,,,,,,,,,,stimuli/alien_stimuli/31.png,,,,,,,,,,,,,,,,,,,,,,,,,,,,,stimuli/alien_stimuli/61.png,61,6,28,,,,,,,30,,,,,,,,558.2164892000146,558.2164892000146,558.2164892000146,558.2164892000146,558.2164892000146,left,1.3547944000456482,19,0,0,99,0.15999999999999998,-0.32,left,1.2592779999831691,,,,,556.6556830999907,558.2164892000146,0.32,-0.32,0.0,0.0,-0.32,0.32,0.32,0.32,-0.32,555.8535668000113,555.8535668000113,555.8535668000113,555.8535668000113,555.8535668000113,555.8535668000113,555.8535668000113,555.8535668000113,555.8381524799858,0.9028924000449479,return,0.7749831000110134,,,,,,,,,,,,,,,,,,,,,,,,,,,,,,,,,6EVP4L,train_x,blue_star,bottom_right,2025-03-27_16h48.11.782,HideSeek_v1,2022.2.5,59.96213989580481,
,5,1,2,1,-3,0,31,,train_dim1_1,27,30,,,,2,0,2,0,,,,,,,,,0,0,0,0,0,26,26,26,1,0,1,0,,,,,,,,,,,,,,,,,,,,,,,,,,,,,,,,,,,,,,,,,,,,,,,,,,,,,,,,,,,,,,,,30,,,,,,,,559.5715960999951,559.5715960999951,559.5715960999951,559.5715960999951,559.5715960999951,left,0.5098110999679193,19,0,0,99,0.07999999999999997,-0.32,left,0.4334666000213474,,,,,,,,,,,,,,,,,,,,,,,,,,,,,,,,,,,,,,,,,,,,,,,,,,,,,,,,,,,,6EVP4L,train_x,blue_star,bottom_right,2025-03-27_16h48.11.782,HideSeek_v1,2022.2.5,59.96213989580481,
,5,1,2,1,-3,0,31,,train_dim1_1,27,30,,,,2,0,2,0,,,,,,,,,0,0,0,0,0,26,26,26,2,0,2,0,,,,,,,,,,,,,,,,,,,,,,,,,,,,,,,,,,,,,,,,,,,,,,,,,,,,,,,,,,,,,,,,30,,,,,,,,560.088268600055,560.088268600055,560.088268600055,560.088268600055,560.088268600055,left,0.8938610000768676,19,0,0,99,-2.7755575615628914e-17,-0.32,left,0.8063473999500275,,,,,,,,,,,,,,,,,,,,,,,,,,,,,,,,,,,,,,,,,,,,,,,,,,,,,,,,,,,,6EVP4L,train_x,blue_star,bottom_right,2025-03-27_16h48.11.782,HideSeek_v1,2022.2.5,59.96213989580481,
,5,1,2,1,-3,0,31,,train_dim1_1,27,30,,,,2,0,2,0,,,,,,,,,0,0,0,0,0,26,26,26,3,0,3,0,,,,,,,,,,,,,,,,,,,,,,,,,,,,,,,,,,,,,,,,,,,,,,,,,,,,,,,,,,,,,,,,30,,,,,,,,560.9890513999853,560.9890513999853,560.9890513999853,560.9890513999853,560.9890513999853,return,1.1272525999229401,20,0,0,1,-2.7755575615628914e-17,-0.32,return,1.045953300083056,0,-63,-2.7755575615628914e-17,-0.32,,,,,,,,,,,,,,,,,,,,,,,,,,,,,,,,,,,,,,,,,,,,,,,,,,,,,,,,6EVP4L,train_x,blue_star,bottom_right,2025-03-27_16h48.11.782,HideSeek_v1,2022.2.5,59.96213989580481,
,8,1,4,1,-4,0,21,,train_dim1_1,28,30,,,,2,0,2,0,,,,,,,,,0,0,0,0,0,27,27,27,0,0,0,0,,,,,,,,,,,,,,,,,,,,,,,,,stimuli/alien_stimuli/21.png,,,,,,,,,,,,,,,,,,,,,,,,,,,,,stimuli/alien_stimuli/31.png,31,5,29,,,,,,,30,,,,,,,,567.2918058000505,567.2918058000505,567.2918058000505,567.2918058000505,567.2918058000505,left,1.0881773999426514,20,0,0,99,0.39999999999999997,-0.32,left,0.9910734998993576,,,,,565.7133008999517,567.2918058000505,0,-0.32,0.0,0.24,-0.32,0,0.12,0,-0.32,563.6790907999966,563.6790907999966,563.6790907999966,563.6790907999966,563.6790907999966,563.6790907999966,563.6790907999966,563.6790907999966,563.6615476800595,2.1371488999575377,return,2.0090363000053912,,,,,,,,,,,,,,,,,,,,,,,,,,,,,,,,,6EVP4L,train_x,blue_star,bottom_right,2025-03-27_16h48.11.782,HideSeek_v1,2022.2.5,59.96213989580481,
,8,1,4,1,-4,0,21,,train_dim1_1,28,30,,,,2,0,2,0,,,,,,,,,0,0,0,0,0,27,27,27,1,0,1,0,,,,,,,,,,,,,,,,,,,,,,,,,,,,,,,,,,,,,,,,,,,,,,,,,,,,,,,,,,,,,,,,30,,,,,,,,568.3672794000013,568.3672794000013,568.3672794000013,568.3672794000013,568.3672794000013,left,0.4820487000979483,20,0,0,99,0.31999999999999995,-0.32,left,0.3961761000100523,,,,,,,,,,,,,,,,,,,,,,,,,,,,,,,,,,,,,,,,,,,,,,,,,,,,,,,,,,,,6EVP4L,train_x,blue_star,bottom_right,2025-03-27_16h48.11.782,HideSeek_v1,2022.2.5,59.96213989580481,
,8,1,4,1,-4,0,21,,train_dim1_1,28,30,,,,2,0,2,0,,,,,,,,,0,0,0,0,0,27,27,27,2,0,2,0,,,,,,,,,,,,,,,,,,,,,,,,,,,,,,,,,,,,,,,,,,,,,,,,,,,,,,,,,,,,,,,,30,,,,,,,,568.8741958000464,568.8741958000464,568.8741958000464,568.8741958000464,568.8741958000464,left,0.4398110000183806,20,0,0,99,0.23999999999999994,-0.32,left,0.34872999996878207,,,,,,,,,,,,,,,,,,,,,,,,,,,,,,,,,,,,,,,,,,,,,,,,,,,,,,,,,,,,6EVP4L,train_x,blue_star,bottom_right,2025-03-27_16h48.11.782,HideSeek_v1,2022.2.5,59.96213989580481,
,8,1,4,1,-4,0,21,,train_dim1_1,28,30,,,,2,0,2,0,,,,,,,,,0,0,0,0,0,27,27,27,3,0,3,0,,,,,,,,,,,,,,,,,,,,,,,,,,,,,,,,,,,,,,,,,,,,,,,,,,,,,,,,,,,,,,,,30,,,,,,,,569.3177074999548,569.3177074999548,569.3177074999548,569.3177074999548,569.3177074999548,left,0.4426471000770107,20,0,0,99,0.15999999999999992,-0.32,left,0.35224230005405843,,,,,,,,,,,,,,,,,,,,,,,,,,,,,,,,,,,,,,,,,,,,,,,,,,,,,,,,,,,,6EVP4L,train_x,blue_star,bottom_right,2025-03-27_16h48.11.782,HideSeek_v1,2022.2.5,59.96213989580481,
,8,1,4,1,-4,0,21,,train_dim1_1,28,30,,,,2,0,2,0,,,,,,,,,0,0,0,0,0,27,27,27,4,0,4,0,,,,,,,,,,,,,,,,,,,,,,,,,,,,,,,,,,,,,,,,,,,,,,,,,,,,,,,,,,,,,,,,30,,,,,,,,569.7670313999988,569.7670313999988,569.7670313999988,569.7670313999988,569.7670313999988,return,0.3767453000182286,21,0,0,1,0.15999999999999992,-0.32,return,0.29517589998431504,0,-67,0.15999999999999992,-0.32,,,,,,,,,,,,,,,,,,,,,,,,,,,,,,,,,,,,,,,,,,,,,,,,,,,,,,,,6EVP4L,train_x,blue_star,bottom_right,2025-03-27_16h48.11.782,HideSeek_v1,2022.2.5,59.96213989580481,
,9,0,8,0,-1,0,51,,train_dim1_1,29,30,,,,2,0,2,0,,,,,,,,,0,0,0,0,0,28,28,28,0,0,0,0,,,,,,,,,,,,,,,,,,,,,,,,,stimuli/alien_stimuli/51.png,,,,,,,,,,,,,,,,,,,,,,,,,,,,,stimuli/alien_stimuli/21.png,21,8,30,,,,,,,30,,,,,,,,574.3941372999689,574.3941372999689,574.3941372999689,574.3941372999689,574.3941372999689,left,1.0211542999604717,21,0,0,99,0.48000000000000004,-0.4,left,0.9116803000215441,,,,,572.8073650000151,571.7106338000158,0.16,-0.32,0.0,0.32,-0.32,0.16,0.32,0.16,-0.32,571.7106338000158,571.7106338000158,571.7106338000158,571.7106338000158,571.7106338000158,571.7106338000158,571.7106338000158,571.7106338000158,571.7015147100203,1.2088769000256434,return,1.0721235000528395,,,,,,,,,,,,,,,,,,,,,,,,,,,,,,,,,6EVP4L,train_x,blue_star,bottom_right,2025-03-27_16h48.11.782,HideSeek_v1,2022.2.5,59.96213989580481,
,9,0,8,0,-1,0,51,,train_dim1_1,29,30,,,,2,0,2,0,,,,,,,,,0,0,0,0,0,28,28,28,1,0,1,0,,,,,,,,,,,,,,,,,,,,,,,,,,,,,,,,,,,,,,,,,,,,,,,,,,,,,,,,,,,,,,,,30,,,,,,,,575.4102513999678,575.4102513999678,575.4102513999678,575.4102513999678,575.4102513999678,return,1.9264660999178886,22,0,0,1,0.48000000000000004,-0.4,return,1.8309633999597281,0,-68,0.48000000000000004,-0.4,,,,,,,,,,,,,,,,,,,,,,,,,,,,,,,,,,,,,,,,,,,,,,,,,,,,,,,,6EVP4L,train_x,blue_star,bottom_right,2025-03-27_16h48.11.782,HideSeek_v1,2022.2.5,59.96213989580481,
,7,2,2,2,-5,0,11,,train_dim1_1,30,30,,,,2,0,2,0,,,,,,,,,0,0,0,0,0,29,29,29,0,0,0,0,,,,,,,,,,,,,,,,,,,,,,,,,stimuli/alien_stimuli/11.png,,,,,,,,,,,,,,,,,,,,,,,,,,,,,stimuli/alien_stimuli/51.png,51,9,31,,,,,,,30,,,,,,,,581.2046812999761,581.2046812999761,581.2046812999761,581.2046812999761,581.2046812999761,left,0.7219779000151902,22,0,0,99,0.32,-0.24,left,0.6294686999171972,,,,,579.6415814999491,581.2046812999761,0.48,-0.4,0.0,0.08,-0.4,0.48,0.52,0.48,-0.4,578.8965222999686,578.8965222999686,578.8965222999686,578.8965222999686,578.8965222999686,578.8965222999686,578.8965222999686,578.8965222999686,578.8908003099962,0.8528978999238461,return,0.7238133000209928,,,,,,,,,,,,,,,,,,,,,,,,,,,,,,,,,6EVP4L,train_x,blue_star,bottom_right,2025-03-27_16h48.11.782,HideSeek_v1,2022.2.5,59.96213989580481,
,7,2,2,2,-5,0,11,,train_dim1_1,30,30,,,,2,0,2,0,,,,,,,,,0,0,0,0,0,29,29,29,1,0,1,0,,,,,,,,,,,,,,,,,,,,,,,,,,,,,,,,,,,,,,,,,,,,,,,,,,,,,,,,,,,,,,,,30,,,,,,,,581.9280305999564,581.9280305999564,581.9280305999564,581.9280305999564,581.9280305999564,left,0.40903940005227923,22,0,0,99,0.24,-0.24,left,0.3321464998880401,,,,,,,,,,,,,,,,,,,,,,,,,,,,,,,,,,,,,,,,,,,,,,,,,,,,,,,,,,,,6EVP4L,train_x,blue_star,bottom_right,2025-03-27_16h48.11.782,HideSeek_v1,2022.2.5,59.96213989580481,
,7,2,2,2,-5,0,11,,train_dim1_1,30,30,,,,2,0,2,0,,,,,,,,,0,0,0,0,0,29,29,29,2,0,2,0,,,,,,,,,,,,,,,,,,,,,,,,,,,,,,,,,,,,,,,,,,,,,,,,,,,,,,,,,,,,,,,,30,,,,,,,,582.3439742999617,582.3439742999617,582.3439742999617,582.3439742999617,582.3439742999617,left,0.4429246000945568,22,0,0,99,0.15999999999999998,-0.24,left,0.3567275000968948,,,,,,,,,,,,,,,,,,,,,,,,,,,,,,,,,,,,,,,,,,,,,,,,,,,,,,,,,,,,6EVP4L,train_x,blue_star,bottom_right,2025-03-27_16h48.11.782,HideSeek_v1,2022.2.5,59.96213989580481,
,7,2,2,2,-5,0,11,,train_dim1_1,30,30,,,,2,0,2,0,,,,,,,,,0,0,0,0,0,29,29,29,3,0,3,0,,,,,,,,,,,,,,,,,,,,,,,,,,,,,,,,,,,,,,,,,,,,,,,,,,,,,,,,,,,,,,,,30,,,,,,,,582.7948580000084,582.7948580000084,582.7948580000084,582.7948580000084,582.7948580000084,left,0.609693800099194,22,0,0,99,0.07999999999999997,-0.24,left,0.5298324000323191,,,,,,,,,,,,,,,,,,,,,,,,,,,,,,,,,,,,,,,,,,,,,,,,,,,,,,,,,,,,6EVP4L,train_x,blue_star,bottom_right,2025-03-27_16h48.11.782,HideSeek_v1,2022.2.5,59.96213989580481,
,7,2,2,2,-5,0,11,,train_dim1_1,30,30,,,,2,0,2,0,,,,,,,,,0,0,0,0,0,29,29,29,4,0,4,0,,,,,,,,,,,,,,,,,,,,,,,,,,,,,,,,,,,,,,,,,,,,,,,,,,,,,,,,,,,,,,,,30,,,,,,,,583.4112260000547,583.4112260000547,583.4112260000547,583.4112260000547,583.4112260000547,left,0.32705099997110665,22,0,0,99,-2.7755575615628914e-17,-0.24,left,0.249125299975276,,,,,,,,,,,,,,,,,,,,,,,,,,,,,,,,,,,,,,,,,,,,,,,,,,,,,,,,,,,,6EVP4L,train_x,blue_star,bottom_right,2025-03-27_16h48.11.782,HideSeek_v1,2022.2.5,59.96213989580481,
,7,2,2,2,-5,0,11,,train_dim1_1,30,30,,,,2,0,2,0,,,,,,,,,0,0,0,0,0,29,29,29,5,0,5,0,,,,,,,,,,,,,,,,,,,,,,,,,,,,,,,,,,,,,,,,,,,,,,,,,,,,,,,,,,,,,,,,30,,,,,,,,583.7472438999685,583.7472438999685,583.7472438999685,583.7472438999685,583.7472438999685,return,0.3250929000787437,23,0,0,1,-2.7755575615628914e-17,-0.24,return,0.23646620009094477,0,-73,-2.7755575615628914e-17,-0.24,,,,,,,,,,,,,,,,,,,,,,,,,,,,,,,,,,,,,,,,,,,,,,,,,,,,,,,,6EVP4L,train_x,blue_star,bottom_right,2025-03-27_16h48.11.782,HideSeek_v1,2022.2.5,59.96213989580481,
,,,,,,,,,,,30,,,,2,0,2,0,,,,,,,,,,,,,,,,,,,,,,,,,,,,,,,,,,,,,,,,,,,,,,,,,,,,,,,,,,,,,,,,,,,,,,,,,,stimuli/alien_stimuli/11.png,11,7,32,21,0.7,0.9583333333333335,1,1,1,30,0,conditions/schedules/train_x_first/blue_star_00/bottom_right/inputTrain_2.1.xlsx,99,1,2,1,0,,,,,,,,,,,1,,,,,,,,,586.2636710000224,587.8078718000324,0,-0.24,0.0,0.4,-0.24,0,0.2,0,-0.24,585.6375004999572,585.6375004999572,585.6375004999572,585.6375004999572,585.6375004999572,585.6375004999572,585.6375004999572,585.6375004999572,585.6296817099676,0.7366382000036538,return,0.6005307000596076,0,0.9,0,1,23,,,,,,,,,,,,,,,,,,,,,,,,,,,,6EVP4L,train_x,blue_star,bottom_right,2025-03-27_16h48.11.782,HideSeek_v1,2022.2.5,59.96213989580481,
,,,,,,,,,,,,,,,3,0,3,0,0,0,0,0,,,,,,,,,,,,,,,,,,,,,,,,,,,,,,,conditions/schedules/train_x_first/blue_star_00/bottom_right/instructions/Slide17.png,conditions/schedules/train_x_first/blue_star_00/bottom_right/instructions/Audio17.wav,587.8078718000324,587.7983961899998,17,"[7.068431199993938, 18.416484700050205, 16.51823729998432, 19.257579800090753, 4.073156200000085, 4.235248400014825, 5.220216100104153, 11.373553399927914, 5.905778800020926, 6.555876999977045, 9.824960400001146, 12.47349529992789, 16.831843700027093, 12.714214099920355, 30.169135299976915, 22.259407999925315, 28.797542799962685]","[0.014285600045695901, 0.014163199928589165, 0.01415240007918328, 0.05271239997819066, 0.08179720002226532, 0.09894740011077374, 0.08082659996580333, 0.014210400055162609, 0.00021959992591291666, 0.033360600005835295, 0.06329560000449419, 12.473502299981192, 0.05371489992830902, 12.714221199974418, 0.0788446000078693, 22.259414799977094, 28.797551000025123]",0,,,,,,,,,,,,,,,,,,,,,,,,,,,,,,,,,,,,,,,,,,,,,,,,,,,,,,,,,,,,,,,,,,,,,,,,,,,,,,,,,,,,,,,,,,,,,,,,,,,,,,,,,,,,,,,,,,,,,,,,,,,,6EVP4L,train_x,blue_star,bottom_right,2025-03-27_16h48.11.782,HideSeek_v1,2022.2.5,59.96213989580481,
,,,,,,,,,,,,,,,3,0,3,0,1,0,1,0,,,,,,,,,,,,,,,,,,,,,,,,,,,,,,,conditions/schedules/train_x_first/blue_star_00/bottom_right/instructions/Slide18.png,conditions/schedules/train_x_first/blue_star_00/bottom_right/instructions/Audio18.wav,616.6750446000369,616.6723888500128,18,"[7.068431199993938, 18.416484700050205, 16.51823729998432, 19.257579800090753, 4.073156200000085, 4.235248400014825, 5.220216100104153, 11.373553399927914, 5.905778800020926, 6.555876999977045, 9.824960400001146, 12.47349529992789, 16.831843700027093, 12.714214099920355, 30.169135299976915, 22.259407999925315, 28.797542799962685, 6.46701080002822]","[0.014285600045695901, 0.014163199928589165, 0.01415240007918328, 0.05271239997819066, 0.08179720002226532, 0.09894740011077374, 0.08082659996580333, 0.014210400055162609, 0.00021959992591291666, 0.033360600005835295, 0.06329560000449419, 12.473502299981192, 0.05371489992830902, 12.714221199974418, 0.0788446000078693, 22.259414799977094, 0.00021580001339316368, 6.467017500079237]",0,,,,,,,,,,,,,,,,,,,,,,,,,,,,,,,,,,,,,,,,,,,,,,,,,,,,,,,,,,,,,,,,,,,,,,,,,,,,,,,,,,,,,,,,,,,,,,,,,,,,,,,,,,,,,,,,,,,,,,,,,,,,6EVP4L,train_x,blue_star,bottom_right,2025-03-27_16h48.11.782,HideSeek_v1,2022.2.5,59.96213989580481,
,,,,,,,,,,,,,,,3,0,3,0,2,0,2,0,,,,,,,,,,,,,,,,,,,,,,,,,,,,,,,conditions/schedules/train_x_first/blue_star_00/bottom_right/instructions/Slide19.png,conditions/schedules/train_x_first/blue_star_00/bottom_right/instructions/Audio19.wav,623.181071100058,623.1776894899784,19,"[7.068431199993938, 18.416484700050205, 16.51823729998432, 19.257579800090753, 4.073156200000085, 4.235248400014825, 5.220216100104153, 11.373553399927914, 5.905778800020926, 6.555876999977045, 9.824960400001146, 12.47349529992789, 16.831843700027093, 12.714214099920355, 30.169135299976915, 22.259407999925315, 28.797542799962685, 6.46701080002822, 10.352509999996983]","[0.014285600045695901, 0.014163199928589165, 0.01415240007918328, 0.05271239997819066, 0.08179720002226532, 0.09894740011077374, 0.08082659996580333, 0.014210400055162609, 0.00021959992591291666, 0.033360600005835295, 0.06329560000449419, 12.473502299981192, 0.05371489992830902, 12.714221199974418, 0.0788446000078693, 22.259414799977094, 0.00021580001339316368, 0.06348090001847595, 10.352516799932346]",0,,,,,,,,,,,,,,,,,,,,,,,,,,,,,,,,,,,,,,,,,,,,,,,,,,,,,,,,,,,,,,,,,,,,,,,,,,,,,,,,,,,,,,,,,,,,,,,,,,,,,,,,,,,,,,,,,,,,,,,,,,,,6EVP4L,train_x,blue_star,bottom_right,2025-03-27_16h48.11.782,HideSeek_v1,2022.2.5,59.96213989580481,
,,,,,,,,,,,,,,,3,0,3,0,3,0,3,0,,,,,,,,,,,,,,,,,,,,,,,,,,,,,,,conditions/schedules/train_x_first/blue_star_00/bottom_right/instructions/Slide20.png,conditions/schedules/train_x_first/blue_star_00/bottom_right/instructions/Audio20.wav,633.605799300014,633.6029090499505,20,"[7.068431199993938, 18.416484700050205, 16.51823729998432, 19.257579800090753, 4.073156200000085, 4.235248400014825, 5.220216100104153, 11.373553399927914, 5.905778800020926, 6.555876999977045, 9.824960400001146, 12.47349529992789, 16.831843700027093, 12.714214099920355, 30.169135299976915, 22.259407999925315, 28.797542799962685, 6.46701080002822, 10.352509999996983, 13.722463499987498]","[0.014285600045695901, 0.014163199928589165, 0.01415240007918328, 0.05271239997819066, 0.08179720002226532, 0.09894740011077374, 0.08082659996580333, 0.014210400055162609, 0.00021959992591291666, 0.033360600005835295, 0.06329560000449419, 12.473502299981192, 0.05371489992830902, 12.714221199974418, 0.0788446000078693, 22.259414799977094, 0.00021580001339316368, 0.06348090001847595, 0.0002161000156775117, 13.722470000036992]",0,,,,,,,,,,,,,,,,,,,,,,,,,,,,,,,,,,,,,,,,,,,,,,,,,,,,,,,,,,,,,,,,,,,,,,,,,,,,,,,,,,,,,,,,,,,,,,,,,,,,,,,,,,,,,,,,,,,,,,,,,,,,6EVP4L,train_x,blue_star,bottom_right,2025-03-27_16h48.11.782,HideSeek_v1,2022.2.5,59.96213989580481,
1,5,3,5,8,0,5,66,2,instr_dim1_2,,,,,,3,0,3,0,,,,,0,0,0,0,,,,,,,,,,,,,,,,,,,,,,,,,,,,,,,,,,,,,stimuli/alien_stimuli/66.png,conditions/schedules/train_x_first/blue_star_00/bottom_right/inputInstr_2.xlsx,stimuli/alien_stimuli/66.png,647.4261221999768,647.4261221999768,647.4261221999768,647.4261221999768,647.4312220099848,return,7.840263499994762,"[-0.16, -0.08, 0, 0.08, 0.16, 0.24, 0.32, 0.4, 0.48, 0.56]","[-0.4, -0.32, -0.24, -0.16, -0.08, 0, 0.08, 0.16, 0.24, 0.32]",8,3,5,5,0.4,0.0,655.4065100000007,655.4065100000007,655.4065100000007,655.4065100000007,655.4065100000007,655.4065100000007,655.4065100000007,655.4043880400249,7.040096000069752,return,6.895612500025891,stimuli/alien_stimuli/66.png,66,5,1,,,,,,,,,,,,,,,,,,,,,,,,,,,,,,,,,,,,,,,,,,,,,,,,,,,,,,,,,,,,,,,,,,,,,,,,,,,,,,,,,,,,,,,,,6EVP4L,train_x,blue_star,bottom_right,2025-03-27_16h48.11.782,HideSeek_v1,2022.2.5,59.96213989580481,
,,,,,,,,,,,30,,,,3,0,3,0,,,,,,,,,,,,,,,,,,,,,,,,,,,,,,,,,,,,,,,,,,,,,,,,,,,,,,,,,,,,,,,,,,,,,,,,,,,,,,21,0.7,0.9583333333333335,1,99,2,30,0,conditions/schedules/train_x_first/blue_star_00/bottom_right/inputTrain_2.1.xlsx,99,1,2,1,0,,,,,,,,,,,,,,,,,,,,,,,,,,,,,,,,,,,,,,,,,,,,,,,,,,,,,,,,,,,,,,,,,,,,,,,,,,,6EVP4L,train_x,blue_star,bottom_right,2025-03-27_16h48.11.782,HideSeek_v1,2022.2.5,59.96213989580481,
,,,,,,,,,,,,,,,4,0,4,0,0,0,0,0,,,,,,,,,,,,,,,,,,,,,,,,,,,,,,,conditions/schedules/train_x_first/blue_star_00/bottom_right/instructions/Slide21.png,conditions/schedules/train_x_first/blue_star_00/bottom_right/instructions/Audio21.wav,662.4814539999934,662.4768865000224,21,"[7.068431199993938, 18.416484700050205, 16.51823729998432, 19.257579800090753, 4.073156200000085, 4.235248400014825, 5.220216100104153, 11.373553399927914, 5.905778800020926, 6.555876999977045, 9.824960400001146, 12.47349529992789, 16.831843700027093, 12.714214099920355, 30.169135299976915, 22.259407999925315, 28.797542799962685, 6.46701080002822, 10.352509999996983, 13.722463499987498, 16.57377770007588]","[0.014285600045695901, 0.014163199928589165, 0.01415240007918328, 0.05271239997819066, 0.08179720002226532, 0.09894740011077374, 0.08082659996580333, 0.014210400055162609, 0.00021959992591291666, 0.033360600005835295, 0.06329560000449419, 12.473502299981192, 0.05371489992830902, 12.714221199974418, 0.0788446000078693, 22.259414799977094, 0.00021580001339316368, 0.06348090001847595, 0.0002161000156775117, 13.722470000036992, 16.573785200016573]",0,,,,,,,,,,,,,,,,,,,,,,,,,,,,,,,,,,,,,,,,,,,,,,,,,,,,,,,,,,,,,,,,,,,,,,,,,,,,,,,,,,,,,,,,,,,,,,,,,,,,,,,,,,,,,,,,,,,,,,,,,,,,6EVP4L,train_x,blue_star,bottom_right,2025-03-27_16h48.11.782,HideSeek_v1,2022.2.5,59.96213989580481,
2,7,3,7,3,0,0,61,2,instr_dim1_2,,,,,,4,0,4,0,,,,,0,0,0,0,,,,,,,,,,,,,,,,,,,,,,,,,,,,,,,,,,,,,stimuli/alien_stimuli/61.png,conditions/schedules/train_x_first/blue_star_00/bottom_right/inputInstr_2.xlsx,stimuli/alien_stimuli/61.png,679.1538287999574,679.1538287999574,679.1538287999574,679.1538287999574,679.1580499100266,return,7.5792066000867635,"[-0.16, -0.08, 0, 0.08, 0.16, 0.24, 0.32, 0.4, 0.48, 0.56]","[-0.4, -0.32, -0.24, -0.16, -0.08, 0, 0.08, 0.16, 0.24, 0.32]",3,3,7,7,0.0,0.0,686.8837081999518,686.8837081999518,686.8837081999518,686.8837081999518,686.8837081999518,686.8837081999518,686.8837081999518,686.8808680399787,6.27268880000338,return,6.129559800028801,stimuli/alien_stimuli/61.png,61,7,2,,,,,,,,,,,,,,,,,,,,,,,,,,,,,,,,,,,,,,,,,,,,,,,,,,,,,,,,,,,,,,,,,,,,,,,,,,,,,,,,,,,,,,,,,6EVP4L,train_x,blue_star,bottom_right,2025-03-27_16h48.11.782,HideSeek_v1,2022.2.5,59.96213989580481,
,,,,,,,,,,,30,,,,4,0,4,0,,,,,,,,,,,,,,,,,,,,,,,,,,,,,,,,,,,,,,,,,,,,,,,,,,,,,,,,,,,,,,,,,,,,,,,,,,,,,,21,0.7,0.9583333333333335,1,99,2,30,0,conditions/schedules/train_x_first/blue_star_00/bottom_right/inputTrain_2.1.xlsx,99,1,2,1,0,,,,,,,,,,,,,,,,,,,,,,,,,,,,,,,,,,,,,,,,,,,,,,,,,,,,,,,,,,,,,,,,,,,,,,,,,,,6EVP4L,train_x,blue_star,bottom_right,2025-03-27_16h48.11.782,HideSeek_v1,2022.2.5,59.96213989580481,
,,,,,,,,,,,,,,,5,0,5,0,0,0,0,0,,,,,,,,,,,,,,,,,,,,,,,,,,,,,,,conditions/schedules/train_x_first/blue_star_00/bottom_right/instructions/Slide22.png,conditions/schedules/train_x_first/blue_star_00/bottom_right/instructions/Audio22.wav,693.1916748000076,693.1857538999757,22,"[7.068431199993938, 18.416484700050205, 16.51823729998432, 19.257579800090753, 4.073156200000085, 4.235248400014825, 5.220216100104153, 11.373553399927914, 5.905778800020926, 6.555876999977045, 9.824960400001146, 12.47349529992789, 16.831843700027093, 12.714214099920355, 30.169135299976915, 22.259407999925315, 28.797542799962685, 6.46701080002822, 10.352509999996983, 13.722463499987498, 16.57377770007588, 43.52786449994892]","[0.014285600045695901, 0.014163199928589165, 0.01415240007918328, 0.05271239997819066, 0.08179720002226532, 0.09894740011077374, 0.08082659996580333, 0.014210400055162609, 0.00021959992591291666, 0.033360600005835295, 0.06329560000449419, 12.473502299981192, 0.05371489992830902, 12.714221199974418, 0.0788446000078693, 22.259414799977094, 0.00021580001339316368, 0.06348090001847595, 0.0002161000156775117, 13.722470000036992, 16.573785200016573, 43.52787220000755]",0,,,,,,,,,,,,,,,,,,,,,,,,,,,,,,,,,,,,,,,,,,,,,,,,,,,,,,,,,,,,,,,,,,,,,,,,,,,,,,,,,,,,,,,,,,,,,,,,,,,,,,,,,,,,,,,,,,,,,,,,,,,,6EVP4L,train_x,blue_star,bottom_right,2025-03-27_16h48.11.782,HideSeek_v1,2022.2.5,59.96213989580481,
,5,0,5,4,0,4,65,,train_dim1_2,1,30,,,,5,0,5,0,,,,,,,,,0,0,0,0,0,0,0,0,0,0,0,0,,,,,,,,,,,,,,,,,,,,,,,,,stimuli/alien_stimuli/65.png,,,,,,,,,,,,,,,,,,,,,,,,,,,,,,,,,,,,,,,30,,,,,,,,736.8225256999722,736.8225256999722,736.8225256999722,736.8225256999722,736.8225256999722,up,2.6303445000667125,0,0,0,99,0.24,-0.32,up,2.534694500034675,,,,,,,,,,,,,,,,,,,,,,,,,,,,,,,,,,,,,,,,,,,,,,,,,,,,,,,,,,,,6EVP4L,train_x,blue_star,bottom_right,2025-03-27_16h48.11.782,HideSeek_v1,2022.2.5,59.96213989580481,
,5,0,5,4,0,4,65,,train_dim1_2,1,30,,,,5,0,5,0,,,,,,,,,0,0,0,0,0,0,0,0,1,0,1,0,,,,,,,,,,,,,,,,,,,,,,,,,,,,,,,,,,,,,,,,,,,,,,,,,,,,,,,,,,,,,,,,30,,,,,,,,739.4379768000217,739.4379768000217,739.4379768000217,739.4379768000217,739.4379768000217,up,0.5430251000216231,0,0,0,99,0.24,-0.24,up,0.4705646999645978,,,,,,,,,,,,,,,,,,,,,,,,,,,,,,,,,,,,,,,,,,,,,,,,,,,,,,,,,,,,6EVP4L,train_x,blue_star,bottom_right,2025-03-27_16h48.11.782,HideSeek_v1,2022.2.5,59.96213989580481,
,5,0,5,4,0,4,65,,train_dim1_2,1,30,,,,5,0,5,0,,,,,,,,,0,0,0,0,0,0,0,0,2,0,2,0,,,,,,,,,,,,,,,,,,,,,,,,,,,,,,,,,,,,,,,,,,,,,,,,,,,,,,,,,,,,,,,,30,,,,,,,,739.9878263999708,739.9878263999708,739.9878263999708,739.9878263999708,739.9878263999708,up,0.5433743000030518,0,0,0,99,0.24,-0.15999999999999998,up,0.47165900003165007,,,,,,,,,,,,,,,,,,,,,,,,,,,,,,,,,,,,,,,,,,,,,,,,,,,,,,,,,,,,6EVP4L,train_x,blue_star,bottom_right,2025-03-27_16h48.11.782,HideSeek_v1,2022.2.5,59.96213989580481,
,5,0,5,4,0,4,65,,train_dim1_2,1,30,,,,5,0,5,0,,,,,,,,,0,0,0,0,0,0,0,0,3,0,3,0,,,,,,,,,,,,,,,,,,,,,,,,,,,,,,,,,,,,,,,,,,,,,,,,,,,,,,,,,,,,,,,,30,,,,,,,,740.5372759000165,740.5372759000165,740.5372759000165,740.5372759000165,740.5372759000165,up,0.5936665999470279,0,0,0,99,0.24,-0.07999999999999997,up,0.5210229000076652,,,,,,,,,,,,,,,,,,,,,,,,,,,,,,,,,,,,,,,,,,,,,,,,,,,,,,,,,,,,6EVP4L,train_x,blue_star,bottom_right,2025-03-27_16h48.11.782,HideSeek_v1,2022.2.5,59.96213989580481,
,5,0,5,4,0,4,65,,train_dim1_2,1,30,,,,5,0,5,0,,,,,,,,,0,0,0,0,0,0,0,0,4,0,4,0,,,,,,,,,,,,,,,,,,,,,,,,,,,,,,,,,,,,,,,,,,,,,,,,,,,,,,,,,,,,,,,,30,,,,,,,,741.1383314999985,741.1383314999985,741.1383314999985,741.1383314999985,741.1383314999985,up,0.8439624999882653,0,0,0,99,0.24,2.7755575615628914e-17,up,0.7608896000310779,,,,,,,,,,,,,,,,,,,,,,,,,,,,,,,,,,,,,,,,,,,,,,,,,,,,,,,,,,,,6EVP4L,train_x,blue_star,bottom_right,2025-03-27_16h48.11.782,HideSeek_v1,2022.2.5,59.96213989580481,
,5,0,5,4,0,4,65,,train_dim1_2,1,30,,,,5,0,5,0,,,,,,,,,0,0,0,0,0,0,0,0,5,0,5,0,,,,,,,,,,,,,,,,,,,,,,,,,,,,,,,,,,,,,,,,,,,,,,,,,,,,,,,,,,,,,,,,30,,,,,,,,741.9888873000164,741.9888873000164,741.9888873000164,741.9888873000164,741.9888873000164,return,1.177888699923642,0,1,0,0,0.24,2.7755575615628914e-17,return,1.0946610999526456,5,-73,0.24,2.7755575615628914e-17,,,,,,,,,,,,,,,,,,,,,,,,,,,,,,,,,,,,,,,,,,,,,,,,,,,,,,,,6EVP4L,train_x,blue_star,bottom_right,2025-03-27_16h48.11.782,HideSeek_v1,2022.2.5,59.96213989580481,
,8,2,8,7,0,5,66,,train_dim1_2,2,30,,,,5,0,5,0,,,,,,,,,0,0,0,0,0,1,1,1,0,0,0,0,,,,,,,,,,,,,,,,,,,,,,,,,stimuli/alien_stimuli/66.png,,,,,,,,,,,,,,,,,,,,,,,,,,,,,stimuli/alien_stimuli/65.png,65,5,3,,,,,,,30,,,,,,,,749.0185592999915,749.0185592999915,749.0185592999915,749.0185592999915,749.0185592999915,up,1.539226399967447,0,1,0,99,0.48,-0.15999999999999998,up,1.4647155000129715,,,,,747.464151400025,749.0185592999915,0.24,-0.08,0.32,0.0,-0.24000000000000002,0.24,0.24,0.24,-0.08,744.7418220000109,744.7418220000109,744.7418220000109,744.7418220000109,744.7418220000109,744.7418220000109,744.7418220000109,744.7418220000109,744.7285934100394,2.838050700025633,return,2.70159969991073,,,,,,,,,,,,,,,,,,,,,,,,,,,,,,,,,6EVP4L,train_x,blue_star,bottom_right,2025-03-27_16h48.11.782,HideSeek_v1,2022.2.5,59.96213989580481,
,8,2,8,7,0,5,66,,train_dim1_2,2,30,,,,5,0,5,0,,,,,,,,,0,0,0,0,0,1,1,1,1,0,1,0,,,,,,,,,,,,,,,,,,,,,,,,,,,,,,,,,,,,,,,,,,,,,,,,,,,,,,,,,,,,,,,,30,,,,,,,,750.5637442000443,750.5637442000443,750.5637442000443,750.5637442000443,750.5637442000443,up,0.5263221000786871,0,1,0,99,0.48,-0.07999999999999997,up,0.444927699980326,,,,,,,,,,,,,,,,,,,,,,,,,,,,,,,,,,,,,,,,,,,,,,,,,,,,,,,,,,,,6EVP4L,train_x,blue_star,bottom_right,2025-03-27_16h48.11.782,HideSeek_v1,2022.2.5,59.96213989580481,
