trialInstr,x_fixStart,y_fixStart,x_corrSteps,y_corrSteps,x_nrSteps,y_nrSteps,alienID,trialLength,version,trialTrain,praclen,testlen,trial_label,break_on_off,beforeExpLoop.thisRepN,beforeExpLoop.thisTrialN,beforeExpLoop.thisN,beforeExpLoop.thisIndex,mini_instr_trials.thisRepN,mini_instr_trials.thisTrialN,mini_instr_trials.thisN,mini_instr_trials.thisIndex,instrLoop.thisRepN,instrLoop.thisTrialN,instrLoop.thisN,instrLoop.thisIndex,repeat_prac.thisRepN,repeat_prac.thisTrialN,repeat_prac.thisN,repeat_prac.thisIndex,trainLoop.thisRepN,trainLoop.thisTrialN,trainLoop.thisN,trainLoop.thisIndex,moveLoop_train.thisRepN,moveLoop_train.thisTrialN,moveLoop_train.thisN,moveLoop_train.thisIndex,experiment.thisRepN,experiment.thisTrialN,experiment.thisN,experiment.thisIndex,moveLoop_test.thisRepN,moveLoop_test.thisTrialN,moveLoop_test.thisN,moveLoop_test.thisIndex,mini_instr2_trials.thisRepN,mini_instr2_trials.thisTrialN,mini_instr2_trials.thisN,mini_instr2_trials.thisIndex,start_all_time,url,slideStim,audioStim,slides.started,sounds.started,nextButton.numClicks,nextButton.timesOn,nextButton.timesOff,prev_but.numClicks,prev_but.timesOn,prev_but.timesOff,alienStim,instrFile,alienStim_instr,gridImage_instr.started,startPos_3.started,key_instr.started,alienImage_3.started,sounds_1.started,key_instr.keys,key_instr.rt,all_x,all_y,FBy_corrSteps,FBy_fixStart,FBx_corrSteps,FBx_fixStart,FBy_pathSize_check,FBx_pathSize_check,gridImage_9.started,alienImageFB_3.started,startPosFB_3.started,keyFB_3.started,pathLine_ydir_2.started,pathLine_xdir_2.started,alienFace_3.started,sounds_2.started,RTFB_instr,keyFB_3.keys,keyFB_3.rt,draw_alienStim,draw_alienID,test_x,nrepcount,perfthres,percthres,earlierperf,earlystop,nextPrac,fileidx,praclen,saveACC_train,pracFile,nextPrac_train,addNrep,fileidx_endr,repExp,showearly,gridImage_4.started,startPos.started,movePos.started,key_resp.started,alienImage.started,buttonPress_train,RTchoice_train,cumAcctrain,aCorr,saveACC_choice,corrAns,x_movePos_end,y_movePos_end,key_resp.keys,key_resp.rt,wLy_dir,wLx_dir,x_movePos,y_movePos,text_2.started,text_2.stopped,aft_x_corrPos,aft_y_corrPos,y_pathSize_check,x_pathSize_check,y_pathdirY,x_pathdirY,x_pathdirX,x_corrPos,y_corrPos,gridImage_6.started,alienImageFB_2.started,startPosFB_2.started,movePosFB_2.started,keyFB_2.started,pathLine_xdir.started,pathLine_ydir.started,alienFace.started,sounds_4.started,RT_FBtrain,keyFB_2.keys,keyFB_2.rt,saveACC_pre,ACC,within_saveACC_train,earlystop_wloop,cumAcctrain_check,gridImage_3.started,alienImage_test.started,startPos_test.started,movePos_test.started,key_resp_test.started,wLy_dir_test,wLx_dir_test,buttonPress_test,RTchoice_test,cumAcctest,corrAns_test,key_resp_test.keys,key_resp_test.rt,text_3.started,text_3.stopped,total_time,end_all_time,key_resp_3.keys,slides_2.started,sounds_3.started,nextButton_2.numClicks,nextButton_2.timesOn,nextButton_2.timesOff,prev_but_2.numClicks,prev_but_2.timesOn,prev_but_2.timesOff,bye.started,participant,train_first,00_coordinate,starting corner,date,expName,psychopyVersion,frameRate,
,,,,,,,,,,,,,,,0,0,0,0,0,0,0,0,,,,,,,,,,,,,,,,,,,,,,,,,,,,,start_all_time,testround,conditions/schedules/train_y_first/blue_star_00/top_right/instructions/Slide1.png,conditions/schedules/train_y_first/blue_star_00/top_right/instructions/Audio1.wav,1933.5206093000015,1933.466057279543,1,[3.5006099000456743],[3.5006194000015967],0,,,,,,,,,,,,,,,,,,,,,,,,,,,,,,,,,,,,,,,,,,,,,,,,,,,,,,,,,,,,,,,,,,,,,,,,,,,,,,,,,,,,,,,,,,,,,,,,,,,,,,,,,,,,,,,,,,,,,,,,,,,,6FUYD3,train_y,blue_star,top_right,2025-06-10_16h19.10.717,HideSeek_v1,2022.2.5,59.974187108809886,
,,,,,,,,,,,,,,,0,0,0,0,1,0,1,0,,,,,,,,,,,,,,,,,,,,,,,,,,,,,,,conditions/schedules/train_y_first/blue_star_00/top_right/instructions/Slide2.png,conditions/schedules/train_y_first/blue_star_00/top_right/instructions/Audio2.wav,1937.0369409999694,1937.0359862999758,2,"[3.5006099000456743, 17.912955200008582]","[0.0002212999970652163, 17.912962700007483]",0,,,,,,,,,,,,,,,,,,,,,,,,,,,,,,,,,,,,,,,,,,,,,,,,,,,,,,,,,,,,,,,,,,,,,,,,,,,,,,,,,,,,,,,,,,,,,,,,,,,,,,,,,,,,,,,,,,,,,,,,,,,,6FUYD3,train_y,blue_star,top_right,2025-06-10_16h19.10.717,HideSeek_v1,2022.2.5,59.974187108809886,
,,,,,,,,,,,,,,,0,0,0,0,2,0,2,0,,,,,,,,,,,,,,,,,,,,,,,,,,,,,,,conditions/schedules/train_y_first/blue_star_00/top_right/instructions/Slide3.png,conditions/schedules/train_y_first/blue_star_00/top_right/instructions/Audio3.wav,1955.0292356999707,1955.0176552999765,3,"[3.5006099000456743, 17.912955200008582, 16.46732890000567]","[0.0002212999970652163, 17.912962700007483, 16.467335900000762]",0,,,,,,,,,,,,,,,,,,,,,,,,,,,,,,,,,,,,,,,,,,,,,,,,,,,,,,,,,,,,,,,,,,,,,,,,,,,,,,,,,,,,,,,,,,,,,,,,,,,,,,,,,,,,,,,,,,,,,,,,,,,,6FUYD3,train_y,blue_star,top_right,2025-06-10_16h19.10.717,HideSeek_v1,2022.2.5,59.974187108809886,
,,,,,,,,,,,,,,,0,0,0,0,3,0,3,0,,,,,,,,,,,,,,,,,,,,,,,,,,,,,,,conditions/schedules/train_y_first/blue_star_00/top_right/instructions/Slide4.png,conditions/schedules/train_y_first/blue_star_00/top_right/instructions/Audio4.wav,1971.5747625000076,1971.5647854999988,4,"[3.5006099000456743, 17.912955200008582, 16.46732890000567, 19.07127529999707]","[0.0002212999970652163, 17.912962700007483, 0.014392499986570328, 19.07128199998988]",0,,,,,,,,,,,,,,,,,,,,,,,,,,,,,,,,,,,,,,,,,,,,,,,,,,,,,,,,,,,,,,,,,,,,,,,,,,,,,,,,,,,,,,,,,,,,,,,,,,,,,,,,,,,,,,,,,,,,,,,,,,,,6FUYD3,train_y,blue_star,top_right,2025-06-10_16h19.10.717,HideSeek_v1,2022.2.5,59.974187108809886,
,,,,,,,,,,,,,,,0,0,0,0,4,0,4,0,,,,,,,,,,,,,,,,,,,,,,,,,,,,,,,conditions/schedules/train_y_first/blue_star_00/top_right/instructions/Slide5.png,conditions/schedules/train_y_first/blue_star_00/top_right/instructions/Audio5.wav,1990.7101392999757,1990.6977457799833,5,"[3.5006099000456743, 17.912955200008582, 16.46732890000567, 19.07127529999707, 4.322588499984704]","[0.0002212999970652163, 17.912962700007483, 0.014392499986570328, 0.05252919998019934, 4.322597099991981]",0,,,,,,,,,,,,,,,,,,,,,,,,,,,,,,,,,,,,,,,,,,,,,,,,,,,,,,,,,,,,,,,,,,,,,,,,,,,,,,,,,,,,,,,,,,,,,,,,,,,,,,,,,,,,,,,,,,,,,,,,,,,,6FUYD3,train_y,blue_star,top_right,2025-06-10_16h19.10.717,HideSeek_v1,2022.2.5,59.974187108809886,
,,,,,,,,,,,,,,,0,0,0,0,5,0,5,0,,,,,,,,,,,,,,,,,,,,,,,,,,,,,,,conditions/schedules/train_y_first/blue_star_00/top_right/instructions/Slide6.png,conditions/schedules/train_y_first/blue_star_00/top_right/instructions/Audio6.wav,1995.0829630999942,1995.084389479994,6,"[3.5006099000456743, 17.912955200008582, 16.46732890000567, 19.07127529999707, 4.322588499984704, 4.670048400002997]","[0.0002212999970652163, 17.912962700007483, 0.014392499986570328, 0.05252919998019934, 0.014112499949987978, 4.670055399998091]",0,,,,,,,,,,,,,,,,,,,,,,,,,,,,,,,,,,,,,,,,,,,,,,,,,,,,,,,,,,,,,,,,,,,,,,,,,,,,,,,,,,,,,,,,,,,,,,,,,,,,,,,,,,,,,,,,,,,,,,,,,,,,6FUYD3,train_y,blue_star,top_right,2025-06-10_16h19.10.717,HideSeek_v1,2022.2.5,59.974187108809886,
,,,,,,,,,,,,,,,0,0,0,0,6,0,6,0,,,,,,,,,,,,,,,,,,,,,,,,,,,,,,,conditions/schedules/train_y_first/blue_star_00/top_right/instructions/Slide7.png,conditions/schedules/train_y_first/blue_star_00/top_right/instructions/Audio7.wav,1999.8041126999888,1999.804985079961,7,"[3.5006099000456743, 17.912955200008582, 16.46732890000567, 19.07127529999707, 4.322588499984704, 4.670048400002997, 5.136788599949796]","[0.0002212999970652163, 17.912962700007483, 0.014392499986570328, 0.05252919998019934, 0.014112499949987978, 0.0002147999475710094, 5.136795200000051]",0,,,,,,,,,,,,,,,,,,,,,,,,,,,,,,,,,,,,,,,,,,,,,,,,,,,,,,,,,,,,,,,,,,,,,,,,,,,,,,,,,,,,,,,,,,,,,,,,,,,,,,,,,,,,,,,,,,,,,,,,,,,,6FUYD3,train_y,blue_star,top_right,2025-06-10_16h19.10.717,HideSeek_v1,2022.2.5,59.974187108809886,
,,,,,,,,,,,,,,,0,0,0,0,7,0,7,0,,,,,,,,,,,,,,,,,,,,,,,,,,,,,,,conditions/schedules/train_y_first/blue_star_00/top_right/instructions/Slide8.png,conditions/schedules/train_y_first/blue_star_00/top_right/instructions/Audio8.wav,2004.9969185999944,2004.9929005799816,8,"[3.5006099000456743, 17.912955200008582, 16.46732890000567, 19.07127529999707, 4.322588499984704, 4.670048400002997, 5.136788599949796, 11.37024390004808]","[0.0002212999970652163, 17.912962700007483, 0.014392499986570328, 0.05252919998019934, 0.014112499949987978, 0.0002147999475710094, 0.04809560003923252, 11.370251000043936]",0,,,,,,,,,,,,,,,,,,,,,,,,,,,,,,,,,,,,,,,,,,,,,,,,,,,,,,,,,,,,,,,,,,,,,,,,,,,,,,,,,,,,,,,,,,,,,,,,,,,,,,,,,,,,,,,,,,,,,,,,,,,,6FUYD3,train_y,blue_star,top_right,2025-06-10_16h19.10.717,HideSeek_v1,2022.2.5,59.974187108809886,
,,,,,,,,,,,,,,,0,0,0,0,8,0,8,0,,,,,,,,,,,,,,,,,,,,,,,,,,,,,,,conditions/schedules/train_y_first/blue_star_00/top_right/instructions/Slide9.png,conditions/schedules/train_y_first/blue_star_00/top_right/instructions/Audio9.wav,2016.4235089999856,2016.4187790799654,9,"[3.5006099000456743, 17.912955200008582, 16.46732890000567, 19.07127529999707, 4.322588499984704, 4.670048400002997, 5.136788599949796, 11.37024390004808, 5.648421999998391]","[0.0002212999970652163, 17.912962700007483, 0.014392499986570328, 0.05252919998019934, 0.014112499949987978, 0.0002147999475710094, 0.04809560003923252, 0.04882020002696663, 5.648429699998815]",0,,,,,,,,,,,,,,,,,,,,,,,,,,,,,,,,,,,,,,,,,,,,,,,,,,,,,,,,,,,,,,,,,,,,,,,,,,,,,,,,,,,,,,,,,,,,,,,,,,,,,,,,,,,,,,,,,,,,,,,,,,,,6FUYD3,train_y,blue_star,top_right,2025-06-10_16h19.10.717,HideSeek_v1,2022.2.5,59.974187108809886,
,,,,,,,,,,,,,,,0,0,0,0,9,0,9,0,,,,,,,,,,,,,,,,,,,,,,,,,,,,,,,conditions/schedules/train_y_first/blue_star_00/top_right/instructions/Slide10.png,conditions/schedules/train_y_first/blue_star_00/top_right/instructions/Audio10.wav,2022.113879600016,2022.106817660015,10,"[3.5006099000456743, 17.912955200008582, 16.46732890000567, 19.07127529999707, 4.322588499984704, 4.670048400002997, 5.136788599949796, 11.37024390004808, 5.648421999998391, 7.163617800048087]","[0.0002212999970652163, 17.912962700007483, 0.014392499986570328, 0.05252919998019934, 0.014112499949987978, 0.0002147999475710094, 0.04809560003923252, 0.04882020002696663, 0.10770260001299903, 7.163624900043942]",0,,,,,,,,,,,,,,,,,,,,,,,,,,,,,,,,,,,,,,,,,,,,,,,,,,,,,,,,,,,,,,,,,,,,,,,,,,,,,,,,,,,,,,,,,,,,,,,,,,,,,,,,,,,,,,,,,,,,,,,,,,,,6FUYD3,train_y,blue_star,top_right,2025-06-10_16h19.10.717,HideSeek_v1,2022.2.5,59.974187108809886,
,,,,,,,,,,,,,,,0,0,0,0,10,0,10,0,,,,,,,,,,,,,,,,,,,,,,,,,,,,,,,conditions/schedules/train_y_first/blue_star_00/top_right/instructions/Slide11.png,conditions/schedules/train_y_first/blue_star_00/top_right/instructions/Audio11.wav,2029.3155515000108,2029.3130572599823,11,"[3.5006099000456743, 17.912955200008582, 16.46732890000567, 19.07127529999707, 4.322588499984704, 4.670048400002997, 5.136788599949796, 11.37024390004808, 5.648421999998391, 7.163617800048087, 9.986855200026184]","[0.0002212999970652163, 17.912962700007483, 0.014392499986570328, 0.05252919998019934, 0.014112499949987978, 0.0002147999475710094, 0.04809560003923252, 0.04882020002696663, 0.10770260001299903, 0.031006400007754564, 9.986861500015948]",0,,,,,,,,,,,,,,,,,,,,,,,,,,,,,,,,,,,,,,,,,,,,,,,,,,,,,,,,,,,,,,,,,,,,,,,,,,,,,,,,,,,,,,,,,,,,,,,,,,,,,,,,,,,,,,,,,,,,,,,,,,,,6FUYD3,train_y,blue_star,top_right,2025-06-10_16h19.10.717,HideSeek_v1,2022.2.5,59.974187108809886,
,,,,,,,,,,,,,,,0,0,0,0,11,0,11,0,,,,,,,,,,,,,,,,,,,,,,,,,,,,,,,conditions/schedules/train_y_first/blue_star_00/top_right/instructions/Slide12.png,conditions/schedules/train_y_first/blue_star_00/top_right/instructions/Audio12.wav,2039.3722003999865,2039.3711398000014,12,"[3.5006099000456743, 17.912955200008582, 16.46732890000567, 19.07127529999707, 4.322588499984704, 4.670048400002997, 5.136788599949796, 11.37024390004808, 5.648421999998391, 7.163617800048087, 9.986855200026184, 13.75920580001548]","[0.0002212999970652163, 17.912962700007483, 0.014392499986570328, 0.05252919998019934, 0.014112499949987978, 0.0002147999475710094, 0.04809560003923252, 0.04882020002696663, 0.10770260001299903, 0.031006400007754564, 0.014571800013072789, 13.759212400007527]",0,,,,,,,,,,,,,,,,,,,,,,,,,,,,,,,,,,,,,,,,,,,,,,,,,,,,,,,,,,,,,,,,,,,,,,,,,,,,,,,,,,,,,,,,,,,,,,,,,,,,,,,,,,,,,,,,,,,,,,,,,,,,6FUYD3,train_y,blue_star,top_right,2025-06-10_16h19.10.717,HideSeek_v1,2022.2.5,59.974187108809886,
1,5,8,5,3,0,-5,66,2,instr_dim1_1,,,,,,0,0,0,0,,,,,0,0,0,0,,,,,,,,,,,,,,,,,,,,,,,,,,,,,,,,,,,,,stimuli/alien_stimuli/66.png,conditions/schedules/train_y_first/blue_star_00/top_right/inputInstr_1.xlsx,stimuli/alien_stimuli/66.png,2053.2214037000085,2053.2214037000085,2053.2214037000085,2053.2214037000085,2053.216080019961,return,11.172526500013191,"[-0.16, -0.08, 0, 0.08, 0.16, 0.24, 0.32, 0.4, 0.48, 0.56]","[-0.4, -0.32, -0.24, -0.16, -0.08, 0, 0.08, 0.16, 0.24, 0.32]",3,8,5,5,0.4,0.0,2064.562302800012,2064.562302800012,2064.562302800012,2064.562302800012,2064.562302800012,2064.562302800012,2064.562302800012,2064.558212679974,7.44068800000241,return,7.284401799959596,stimuli/alien_stimuli/66.png,66,5,1,,,,,,,,,,,,,,,,,,,,,,,,,,,,,,,,,,,,,,,,,,,,,,,,,,,,,,,,,,,,,,,,,,,,,,,,,,,,,,,,,,,,,,,,,6FUYD3,train_y,blue_star,top_right,2025-06-10_16h19.10.717,HideSeek_v1,2022.2.5,59.974187108809886,
,,,,,,,,,,,30,,,,0,0,0,0,,,,,,,,,,,,,,,,,,,,,,,,,,,,,,,,,,,,,,,,,,,,,,,,,,,,,,,,,,,,,,,,,,,,,,,,,,,,,,21,0.7,0,0,99,1,30,0,conditions/schedules/train_y_first/blue_star_00/top_right/inputTrain_1.1.xlsx,99,1,1,1,0,,,,,,,,,,,,,,,,,,,,,,,,,,,,,,,,,,,,,,,,,,,,,,,,,,,,,,,,,,,,,,,,,,,,,,,,,,,6FUYD3,train_y,blue_star,top_right,2025-06-10_16h19.10.717,HideSeek_v1,2022.2.5,59.974187108809886,
,,,,,,,,,,,,,,,1,0,1,0,0,0,0,0,,,,,,,,,,,,,,,,,,,,,,,,,,,,,,,conditions/schedules/train_y_first/blue_star_00/top_right/instructions/Slide13.png,conditions/schedules/train_y_first/blue_star_00/top_right/instructions/Audio13.wav,2072.0179251999944,2072.014415999991,13,"[3.5006099000456743, 17.912955200008582, 16.46732890000567, 19.07127529999707, 4.322588499984704, 4.670048400002997, 5.136788599949796, 11.37024390004808, 5.648421999998391, 7.163617800048087, 9.986855200026184, 13.75920580001548, 16.925080300017726]","[0.0002212999970652163, 17.912962700007483, 0.014392499986570328, 0.05252919998019934, 0.014112499949987978, 0.0002147999475710094, 0.04809560003923252, 0.04882020002696663, 0.10770260001299903, 0.031006400007754564, 0.014571800013072789, 13.759212400007527, 16.925086800009012]",0,,,,,,,,,,,,,,,,,,,,,,,,,,,,,,,,,,,,,,,,,,,,,,,,,,,,,,,,,,,,,,,,,,,,,,,,,,,,,,,,,,,,,,,,,,,,,,,,,,,,,,,,,,,,,,,,,,,,,,,,,,,,6FUYD3,train_y,blue_star,top_right,2025-06-10_16h19.10.717,HideSeek_v1,2022.2.5,59.974187108809886,
,,,,,,,,,,,,,,,1,0,1,0,1,0,1,0,,,,,,,,,,,,,,,,,,,,,,,,,,,,,,,conditions/schedules/train_y_first/blue_star_00/top_right/instructions/Slide14.png,conditions/schedules/train_y_first/blue_star_00/top_right/instructions/Audio14.wav,2089.0125905000023,2089.0123785999604,14,"[3.5006099000456743, 17.912955200008582, 16.46732890000567, 19.07127529999707, 4.322588499984704, 4.670048400002997, 5.136788599949796, 11.37024390004808, 5.648421999998391, 7.163617800048087, 9.986855200026184, 13.75920580001548, 16.925080300017726, 16.67828270001337]","[0.0002212999970652163, 17.912962700007483, 0.014392499986570328, 0.05252919998019934, 0.014112499949987978, 0.0002147999475710094, 0.04809560003923252, 0.04882020002696663, 0.10770260001299903, 0.031006400007754564, 0.014571800013072789, 13.759212400007527, 0.03150619997177273, 16.67828940000618]",0,,,,,,,,,,,,,,,,,,,,,,,,,,,,,,,,,,,,,,,,,,,,,,,,,,,,,,,,,,,,,,,,,,,,,,,,,,,,,,,,,,,,,,,,,,,,,,,,,,,,,,,,,,,,,,,,,,,,,,,,,,,,6FUYD3,train_y,blue_star,top_right,2025-06-10_16h19.10.717,HideSeek_v1,2022.2.5,59.974187108809886,
2,7,8,7,8,0,0,61,2,instr_dim1_1,,,,,,1,0,1,0,,,,,0,0,0,0,,,,,,,,,,,,,,,,,,,,,,,,,,,,,,,,,,,,,stimuli/alien_stimuli/61.png,conditions/schedules/train_y_first/blue_star_00/top_right/inputInstr_1.xlsx,stimuli/alien_stimuli/61.png,2105.7742642000085,2105.7742642000085,2105.7742642000085,2105.7742642000085,2105.775965819962,return,6.7132512999814935,"[-0.16, -0.08, 0, 0.08, 0.16, 0.24, 0.32, 0.4, 0.48, 0.56]","[-0.4, -0.32, -0.24, -0.16, -0.08, 0, 0.08, 0.16, 0.24, 0.32]",8,8,7,7,0.0,0.0,2112.635210599983,2112.635210599983,2112.635210599983,2112.635210599983,2112.635210599983,2112.635210599983,2112.635210599983,2112.6315609600047,6.289294999965932,return,6.141955200000666,stimuli/alien_stimuli/61.png,61,7,2,,,,,,,,,,,,,,,,,,,,,,,,,,,,,,,,,,,,,,,,,,,,,,,,,,,,,,,,,,,,,,,,,,,,,,,,,,,,,,,,,,,,,,,,,6FUYD3,train_y,blue_star,top_right,2025-06-10_16h19.10.717,HideSeek_v1,2022.2.5,59.974187108809886,
,,,,,,,,,,,30,,,,1,0,1,0,,,,,,,,,,,,,,,,,,,,,,,,,,,,,,,,,,,,,,,,,,,,,,,,,,,,,,,,,,,,,,,,,,,,,,,,,,,,,,21,0.7,0,0,99,1,30,0,conditions/schedules/train_y_first/blue_star_00/top_right/inputTrain_1.1.xlsx,99,1,1,1,0,,,,,,,,,,,,,,,,,,,,,,,,,,,,,,,,,,,,,,,,,,,,,,,,,,,,,,,,,,,,,,,,,,,,,,,,,,,6FUYD3,train_y,blue_star,top_right,2025-06-10_16h19.10.717,HideSeek_v1,2022.2.5,59.974187108809886,
,,,,,,,,,,,,,,,2,0,2,0,0,0,0,0,,,,,,,,,,,,,,,,,,,,,,,,,,,,,,,conditions/schedules/train_y_first/blue_star_00/top_right/instructions/Slide15.png,conditions/schedules/train_y_first/blue_star_00/top_right/instructions/Audio15.wav,2118.954899000004,2118.9531089999946,15,"[3.5006099000456743, 17.912955200008582, 16.46732890000567, 19.07127529999707, 4.322588499984704, 4.670048400002997, 5.136788599949796, 11.37024390004808, 5.648421999998391, 7.163617800048087, 9.986855200026184, 13.75920580001548, 16.925080300017726, 16.67828270001337, 42.94917830004124]","[0.0002212999970652163, 17.912962700007483, 0.014392499986570328, 0.05252919998019934, 0.014112499949987978, 0.0002147999475710094, 0.04809560003923252, 0.04882020002696663, 0.10770260001299903, 0.031006400007754564, 0.014571800013072789, 13.759212400007527, 0.03150619997177273, 16.67828940000618, 42.94918530003633]",0,,,,,,,,,,,,,,,,,,,,,,,,,,,,,,,,,,,,,,,,,,,,,,,,,,,,,,,,,,,,,,,,,,,,,,,,,,,,,,,,,,,,,,,,,,,,,,,,,,,,,,,,,,,,,,,,,,,,,,,,,,,,6FUYD3,train_y,blue_star,top_right,2025-06-10_16h19.10.717,HideSeek_v1,2022.2.5,59.974187108809886,
,,,,,,,,,,,,,,,2,0,2,0,1,0,1,0,,,,,,,,,,,,,,,,,,,,,,,,,,,,,,,conditions/schedules/train_y_first/blue_star_00/top_right/instructions/Slide16.png,conditions/schedules/train_y_first/blue_star_00/top_right/instructions/Audio16.wav,2161.9748136000126,2161.9728886999656,16,"[3.5006099000456743, 17.912955200008582, 16.46732890000567, 19.07127529999707, 4.322588499984704, 4.670048400002997, 5.136788599949796, 11.37024390004808, 5.648421999998391, 7.163617800048087, 9.986855200026184, 13.75920580001548, 16.925080300017726, 16.67828270001337, 42.94917830004124, 21.347154000017326]","[0.0002212999970652163, 17.912962700007483, 0.014392499986570328, 0.05252919998019934, 0.014112499949987978, 0.0002147999475710094, 0.04809560003923252, 0.04882020002696663, 0.10770260001299903, 0.031006400007754564, 0.014571800013072789, 13.759212400007527, 0.03150619997177273, 16.67828940000618, 0.06274990004021674, 21.347160800010897]",0,,,,,,,,,,,,,,,,,,,,,,,,,,,,,,,,,,,,,,,,,,,,,,,,,,,,,,,,,,,,,,,,,,,,,,,,,,,,,,,,,,,,,,,,,,,,,,,,,,,,,,,,,,,,,,,,,,,,,,,,,,,,6FUYD3,train_y,blue_star,top_right,2025-06-10_16h19.10.717,HideSeek_v1,2022.2.5,59.974187108809886,
,5,5,5,1,0,-4,65,,train_dim1_1,1,30,,,,2,0,2,0,,,,,,,,,0,0,0,0,0,0,0,0,0,0,0,0,,,,,,,,,,,,,,,,,,,,,,,,,stimuli/alien_stimuli/65.png,,,,,,,,,,,,,,,,,,,,,,,,,,,,,,,,,,,,,,,30,,,,,,,,2183.414694899984,2183.414694899984,2183.414694899984,2183.414694899984,2183.414694899984,down,4.28115550003713,0,0,0,99,0.24,-0.08,down,4.194306900026277,,,,,,,,,,,,,,,,,,,,,,,,,,,,,,,,,,,,,,,,,,,,,,,,,,,,,,,,,,,,6FUYD3,train_y,blue_star,top_right,2025-06-10_16h19.10.717,HideSeek_v1,2022.2.5,59.974187108809886,
,5,5,5,1,0,-4,65,,train_dim1_1,1,30,,,,2,0,2,0,,,,,,,,,0,0,0,0,0,0,0,0,1,0,1,0,,,,,,,,,,,,,,,,,,,,,,,,,,,,,,,,,,,,,,,,,,,,,,,,,,,,,,,,,,,,,,,,30,,,,,,,,2187.692356100015,2187.692356100015,2187.692356100015,2187.692356100015,2187.692356100015,right,1.0597751999739558,0,0,0,99,0.32,-0.08,right,0.9817668999894522,,,,,,,,,,,,,,,,,,,,,,,,,,,,,,,,,,,,,,,,,,,,,,,,,,,,,,,,,,,,6FUYD3,train_y,blue_star,top_right,2025-06-10_16h19.10.717,HideSeek_v1,2022.2.5,59.974187108809886,
,5,5,5,1,0,-4,65,,train_dim1_1,1,30,,,,2,0,2,0,,,,,,,,,0,0,0,0,0,0,0,0,2,0,2,0,,,,,,,,,,,,,,,,,,,,,,,,,,,,,,,,,,,,,,,,,,,,,,,,,,,,,,,,,,,,,,,,30,,,,,,,,2188.758157700009,2188.758157700009,2188.758157700009,2188.758157700009,2188.758157700009,down,1.5443398999632336,0,0,0,99,0.32,-0.16,down,1.4598180999746546,,,,,,,,,,,,,,,,,,,,,,,,,,,,,,,,,,,,,,,,,,,,,,,,,,,,,,,,,,,,6FUYD3,train_y,blue_star,top_right,2025-06-10_16h19.10.717,HideSeek_v1,2022.2.5,59.974187108809886,
,5,5,5,1,0,-4,65,,train_dim1_1,1,30,,,,2,0,2,0,,,,,,,,,0,0,0,0,0,0,0,0,3,0,3,0,,,,,,,,,,,,,,,,,,,,,,,,,,,,,,,,,,,,,,,,,,,,,,,,,,,,,,,,,,,,,,,,30,,,,,,,,2190.3097419000114,2190.3097419000114,2190.3097419000114,2190.3097419000114,2190.3097419000114,return,2.011490600008983,0,0,0,0,0.32,-0.16,return,1.9394062999635935,-2,1,0.32,-0.16,,,,,,,,,,,,,,,,,,,,,,,,,,,,,,,,,,,,,,,,,,,,,,,,,,,,,,,,6FUYD3,train_y,blue_star,top_right,2025-06-10_16h19.10.717,HideSeek_v1,2022.2.5,59.974187108809886,
,8,7,8,2,0,-5,66,,train_dim1_1,2,30,,,,2,0,2,0,,,,,,,,,0,0,0,0,0,1,1,1,0,0,0,0,,,,,,,,,,,,,,,,,,,,,,,,,stimuli/alien_stimuli/66.png,,,,,,,,,,,,,,,,,,,,,,,,,,,,,stimuli/alien_stimuli/65.png,65,5,3,,,,,,,30,,,,,,,,2207.4075587000116,2207.4075587000116,2207.4075587000116,2207.4075587000116,2207.4075587000116,down,2.2216592999757268,0,0,0,99,0.48,0.08,down,2.128624899953138,,,,,2205.8429771999945,2207.4075587000116,0.24,-0.32,0.32,0.0,-0.16,0.24,0.24,0.24,-0.32,2193.8928922999767,2193.8928922999767,2193.8928922999767,2193.8928922999767,2193.8928922999767,2193.8928922999767,2193.8928922999767,2193.8928922999767,2193.8822549399574,12.062233700009529,return,11.927288200007752,,,,,,,,,,,,,,,,,,,,,,,,,,,,,,,,,6FUYD3,train_y,blue_star,top_right,2025-06-10_16h19.10.717,HideSeek_v1,2022.2.5,59.974187108809886,
,8,7,8,2,0,-5,66,,train_dim1_1,2,30,,,,2,0,2,0,,,,,,,,,0,0,0,0,0,1,1,1,1,0,1,0,,,,,,,,,,,,,,,,,,,,,,,,,,,,,,,,,,,,,,,,,,,,,,,,,,,,,,,,,,,,,,,,30,,,,,,,,2209.6266141000087,2209.6266141000087,2209.6266141000087,2209.6266141000087,2209.6266141000087,down,0.4929388999589719,0,0,0,99,0.48,0.0,down,0.42059860000154004,,,,,,,,,,,,,,,,,,,,,,,,,,,,,,,,,,,,,,,,,,,,,,,,,,,,,,,,,,,,6FUYD3,train_y,blue_star,top_right,2025-06-10_16h19.10.717,HideSeek_v1,2022.2.5,59.974187108809886,
,8,7,8,2,0,-5,66,,train_dim1_1,2,30,,,,2,0,2,0,,,,,,,,,0,0,0,0,0,1,1,1,2,0,2,0,,,,,,,,,,,,,,,,,,,,,,,,,,,,,,,,,,,,,,,,,,,,,,,,,,,,,,,,,,,,,,,,30,,,,,,,,2210.1256093999837,2210.1256093999837,2210.1256093999837,2210.1256093999837,2210.1256093999837,down,0.5100628999643959,0,0,0,99,0.48,-0.08,down,0.4326922000036575,,,,,,,,,,,,,,,,,,,,,,,,,,,,,,,,,,,,,,,,,,,,,,,,,,,,,,,,,,,,6FUYD3,train_y,blue_star,top_right,2025-06-10_16h19.10.717,HideSeek_v1,2022.2.5,59.974187108809886,
,8,7,8,2,0,-5,66,,train_dim1_1,2,30,,,,2,0,2,0,,,,,,,,,0,0,0,0,0,1,1,1,3,0,3,0,,,,,,,,,,,,,,,,,,,,,,,,,,,,,,,,,,,,,,,,,,,,,,,,,,,,,,,,,,,,,,,,30,,,,,,,,2210.6441416000016,2210.6441416000016,2210.6441416000016,2210.6441416000016,2210.6441416000016,down,0.40995509998174384,0,0,0,99,0.48,-0.16,down,0.3214526000083424,,,,,,,,,,,,,,,,,,,,,,,,,,,,,,,,,,,,,,,,,,,,,,,,,,,,,,,,,,,,6FUYD3,train_y,blue_star,top_right,2025-06-10_16h19.10.717,HideSeek_v1,2022.2.5,59.974187108809886,
,8,7,8,2,0,-5,66,,train_dim1_1,2,30,,,,2,0,2,0,,,,,,,,,0,0,0,0,0,1,1,1,4,0,4,0,,,,,,,,,,,,,,,,,,,,,,,,,,,,,,,,,,,,,,,,,,,,,,,,,,,,,,,,,,,,,,,,30,,,,,,,,2211.0600219999906,2211.0600219999906,2211.0600219999906,2211.0600219999906,2211.0600219999906,down,0.3933421999681741,0,0,0,99,0.48,-0.24,down,0.3161336000193842,,,,,,,,,,,,,,,,,,,,,,,,,,,,,,,,,,,,,,,,,,,,,,,,,,,,,,,,,,,,6FUYD3,train_y,blue_star,top_right,2025-06-10_16h19.10.717,HideSeek_v1,2022.2.5,59.974187108809886,
,8,7,8,2,0,-5,66,,train_dim1_1,2,30,,,,2,0,2,0,,,,,,,,,0,0,0,0,0,1,1,1,5,0,5,0,,,,,,,,,,,,,,,,,,,,,,,,,,,,,,,,,,,,,,,,,,,,,,,,,,,,,,,,,,,,,,,,30,,,,,,,,2211.4614890000084,2211.4614890000084,2211.4614890000084,2211.4614890000084,2211.4614890000084,return,0.7267481999588199,1,0,0,1,0.48,-0.24,return,0.6494700000039302,-7,1,0.48,-0.24,,,,,,,,,,,,,,,,,,,,,,,,,,,,,,,,,,,,,,,,,,,,,,,,,,,,,,,,6FUYD3,train_y,blue_star,top_right,2025-06-10_16h19.10.717,HideSeek_v1,2022.2.5,59.974187108809886,
,7,8,7,5,0,-3,64,,train_dim1_1,3,30,,,,2,0,2,0,,,,,,,,,0,0,0,0,0,2,2,2,0,0,0,0,,,,,,,,,,,,,,,,,,,,,,,,,stimuli/alien_stimuli/64.png,,,,,,,,,,,,,,,,,,,,,,,,,,,,,stimuli/alien_stimuli/66.png,66,8,4,,,,,,,30,,,,,,,,2217.7242007000023,2217.7242007000023,2217.7242007000023,2217.7242007000023,2217.7242007000023,left,1.5529112000367604,1,0,0,99,0.32,0.24,left,1.4786841999739408,,,,,2216.1682593000005,2217.7242007000023,0.48,-0.24,0.4,0.0,-0.039999999999999994,0.48,0.48,0.48,-0.24,2213.760166799999,2213.760166799999,2213.760166799999,2213.760166799999,2213.760166799999,2213.760166799999,2213.760166799999,2213.760166799999,2213.748738739954,2.520994500024244,return,2.375863900000695,,,,,,,,,,,,,,,,,,,,,,,,,,,,,,,,,6FUYD3,train_y,blue_star,top_right,2025-06-10_16h19.10.717,HideSeek_v1,2022.2.5,59.974187108809886,
,7,8,7,5,0,-3,64,,train_dim1_1,3,30,,,,2,0,2,0,,,,,,,,,0,0,0,0,0,2,2,2,1,0,1,0,,,,,,,,,,,,,,,,,,,,,,,,,,,,,,,,,,,,,,,,,,,,,,,,,,,,,,,,,,,,,,,,30,,,,,,,,2219.283459500002,2219.283459500002,2219.283459500002,2219.283459500002,2219.283459500002,left,0.2595889000222087,1,0,0,99,0.24,0.24,left,0.18718549999175593,,,,,,,,,,,,,,,,,,,,,,,,,,,,,,,,,,,,,,,,,,,,,,,,,,,,,,,,,,,,6FUYD3,train_y,blue_star,top_right,2025-06-10_16h19.10.717,HideSeek_v1,2022.2.5,59.974187108809886,
,7,8,7,5,0,-3,64,,train_dim1_1,3,30,,,,2,0,2,0,,,,,,,,,0,0,0,0,0,2,2,2,2,0,2,0,,,,,,,,,,,,,,,,,,,,,,,,,,,,,,,,,,,,,,,,,,,,,,,,,,,,,,,,,,,,,,,,30,,,,,,,,2219.5512541999924,2219.5512541999924,2219.5512541999924,2219.5512541999924,2219.5512541999924,return,1.0103920999681577,1,0,0,0,0.24,0.24,return,0.9223314000410028,-7,-1,0.24,0.24,,,,,,,,,,,,,,,,,,,,,,,,,,,,,,,,,,,,,,,,,,,,,,,,,,,,,,,,6FUYD3,train_y,blue_star,top_right,2025-06-10_16h19.10.717,HideSeek_v1,2022.2.5,59.974187108809886,
,5,6,5,5,0,-1,62,,train_dim1_1,4,30,,,,2,0,2,0,,,,,,,,,0,0,0,0,0,3,3,3,0,0,0,0,,,,,,,,,,,,,,,,,,,,,,,,,stimuli/alien_stimuli/62.png,,,,,,,,,,,,,,,,,,,,,,,,,,,,,stimuli/alien_stimuli/64.png,64,7,5,,,,,,,30,,,,,,,,2227.4967506999965,2227.4967506999965,2227.4967506999965,2227.4967506999965,2227.4967506999965,return,4.325064499978907,1,1,0,0,0.24,0.08,return,4.235802199982572,-7,-1,0.24,0.08,2225.9430338999955,2227.4967506999965,0.4,0,0.24,0.0,0.12,0.4,0.4,0.4,0,2222.1139898999827,2222.1139898999827,2222.1139898999827,2222.1139898999827,2222.1139898999827,2222.1139898999827,2222.1139898999827,2222.1139898999827,2222.1061130199932,3.922122300020419,return,3.8085546999936923,,,,,,,,,,,,,,,,,,,,,,,,,,,,,,,,,6FUYD3,train_y,blue_star,top_right,2025-06-10_16h19.10.717,HideSeek_v1,2022.2.5,59.974187108809886,
,8,8,8,8,0,0,61,,train_dim1_1,5,30,,,,2,0,2,0,,,,,,,,,0,0,0,0,0,4,4,4,0,0,0,0,,,,,,,,,,,,,,,,,,,,,,,,,stimuli/alien_stimuli/61.png,,,,,,,,,,,,,,,,,,,,,,,,,,,,,stimuli/alien_stimuli/62.png,62,5,6,,,,,,,30,,,,,,,,2238.2410582000157,2238.2410582000157,2238.2410582000157,2238.2410582000157,2238.2410582000157,down,1.8869576000142843,1,1,0,99,0.48,0.15999999999999998,down,1.8032956999959424,,,,,2236.6852383000078,2238.2410582000157,0.24,0,0.08,0.0,0.04,0.24,0.24,0.24,0,2233.391575000016,2233.391575000016,2233.391575000016,2233.391575000016,2233.391575000016,2233.391575000016,2233.391575000016,2233.391575000016,2233.381758239959,3.4050624999799766,return,3.264372400008142,,,,,,,,,,,,,,,,,,,,,,,,,,,,,,,,,6FUYD3,train_y,blue_star,top_right,2025-06-10_16h19.10.717,HideSeek_v1,2022.2.5,59.974187108809886,
,8,8,8,8,0,0,61,,train_dim1_1,5,30,,,,2,0,2,0,,,,,,,,,0,0,0,0,0,4,4,4,1,0,1,0,,,,,,,,,,,,,,,,,,,,,,,,,,,,,,,,,,,,,,,,,,,,,,,,,,,,,,,,,,,,,,,,30,,,,,,,,2240.134281900013,2240.134281900013,2240.134281900013,2240.134281900013,2240.134281900013,return,1.6273439999786206,1,1,0,0,0.48,0.15999999999999998,return,1.550326899974607,-8,-1,0.48,0.15999999999999998,,,,,,,,,,,,,,,,,,,,,,,,,,,,,,,,,,,,,,,,,,,,,,,,,,,,,,,,6FUYD3,train_y,blue_star,top_right,2025-06-10_16h19.10.717,HideSeek_v1,2022.2.5,59.974187108809886,
,6,9,6,8,0,-1,62,,train_dim1_1,6,30,,,,2,0,2,0,,,,,,,,,0,0,0,0,0,5,5,5,0,0,0,0,,,,,,,,,,,,,,,,,,,,,,,,,stimuli/alien_stimuli/62.png,,,,,,,,,,,,,,,,,,,,,,,,,,,,,stimuli/alien_stimuli/61.png,61,8,7,,,,,,,30,,,,,,,,2247.962434599991,2247.962434599991,2247.962434599991,2247.962434599991,2247.962434599991,return,4.074509999947622,1,1,0,0,0.32,0.32,return,3.990059499978088,-8,-1,0.32,0.32,2246.410037799971,2247.962434599991,0.48,0.24,0.0,0.0,0.24,0.48,0.48,0.48,0.24,2243.316250499978,2243.316250499978,2243.316250499978,2243.316250499978,2243.316250499978,2243.316250499978,2243.316250499978,2243.316250499978,2243.3068970199793,3.188051099947188,return,3.0743467999855056,,,,,,,,,,,,,,,,,,,,,,,,,,,,,,,,,6FUYD3,train_y,blue_star,top_right,2025-06-10_16h19.10.717,HideSeek_v1,2022.2.5,59.974187108809886,
,6,8,6,5,0,-3,64,,train_dim1_1,7,30,,,,2,0,2,0,,,,,,,,,0,0,0,0,0,6,6,6,0,0,0,0,,,,,,,,,,,,,,,,,,,,,,,,,stimuli/alien_stimuli/64.png,,,,,,,,,,,,,,,,,,,,,,,,,,,,,stimuli/alien_stimuli/62.png,62,6,8,,,,,,,30,,,,,,,,2257.4353403999703,2257.4353403999703,2257.4353403999703,2257.4353403999703,2257.4353403999703,down,1.5566483999718912,1,1,0,99,0.32,0.15999999999999998,down,1.4797845000284724,,,,,2255.884596000018,2257.4353403999703,0.32,0.24,0.08,0.0,0.28,0.32,0.32,0.32,0.24,2253.61268369999,2253.61268369999,2253.61268369999,2253.61268369999,2253.61268369999,2253.61268369999,2253.61268369999,2253.61268369999,2253.5985798400015,2.3876218000077643,return,2.2466848000185564,,,,,,,,,,,,,,,,,,,,,,,,,,,,,,,,,6FUYD3,train_y,blue_star,top_right,2025-06-10_16h19.10.717,HideSeek_v1,2022.2.5,59.974187108809886,
,6,8,6,5,0,-3,64,,train_dim1_1,7,30,,,,2,0,2,0,,,,,,,,,0,0,0,0,0,6,6,6,1,0,1,0,,,,,,,,,,,,,,,,,,,,,,,,,,,,,,,,,,,,,,,,,,,,,,,,,,,,,,,,,,,,,,,,30,,,,,,,,2259.000121899997,2259.000121899997,2259.000121899997,2259.000121899997,2259.000121899997,down,0.9600341999903321,1,1,0,99,0.32,0.07999999999999997,down,0.8734575000125915,,,,,,,,,,,,,,,,,,,,,,,,,,,,,,,,,,,,,,,,,,,,,,,,,,,,,,,,,,,,6FUYD3,train_y,blue_star,top_right,2025-06-10_16h19.10.717,HideSeek_v1,2022.2.5,59.974187108809886,
,6,8,6,5,0,-3,64,,train_dim1_1,7,30,,,,2,0,2,0,,,,,,,,,0,0,0,0,0,6,6,6,2,0,2,0,,,,,,,,,,,,,,,,,,,,,,,,,,,,,,,,,,,,,,,,,,,,,,,,,,,,,,,,,,,,,,,,30,,,,,,,,2259.968096699973,2259.968096699973,2259.968096699973,2259.968096699973,2259.968096699973,down,1.0266643000068143,1,1,0,99,0.32,-2.7755575615628914e-17,down,0.9436944999615662,,,,,,,,,,,,,,,,,,,,,,,,,,,,,,,,,,,,,,,,,,,,,,,,,,,,,,,,,,,,6FUYD3,train_y,blue_star,top_right,2025-06-10_16h19.10.717,HideSeek_v1,2022.2.5,59.974187108809886,
,6,8,6,5,0,-3,64,,train_dim1_1,7,30,,,,2,0,2,0,,,,,,,,,0,0,0,0,0,6,6,6,3,0,3,0,,,,,,,,,,,,,,,,,,,,,,,,,,,,,,,,,,,,,,,,,,,,,,,,,,,,,,,,,,,,,,,,30,,,,,,,,2261.000933000003,2261.000933000003,2261.000933000003,2261.000933000003,2261.000933000003,return,1.3273050999850966,2,0,0,1,0.32,-2.7755575615628914e-17,return,1.253672699967865,-11,-1,0.32,-2.7755575615628914e-17,,,,,,,,,,,,,,,,,,,,,,,,,,,,,,,,,,,,,,,,,,,,,,,,,,,,,,,,6FUYD3,train_y,blue_star,top_right,2025-06-10_16h19.10.717,HideSeek_v1,2022.2.5,59.974187108809886,
,9,7,9,7,0,0,61,,train_dim1_1,8,30,,,,2,0,2,0,,,,,,,,,0,0,0,0,0,7,7,7,0,0,0,0,,,,,,,,,,,,,,,,,,,,,,,,,stimuli/alien_stimuli/61.png,,,,,,,,,,,,,,,,,,,,,,,,,,,,,stimuli/alien_stimuli/64.png,64,6,9,,,,,,,30,,,,,,,,2267.1624202000094,2267.1624202000094,2267.1624202000094,2267.1624202000094,2267.1624202000094,down,8.411890199990012,2,0,0,99,0.56,0.08,down,8.334310700010974,,,,,2265.6093814999913,2267.1624202000094,0.32,0,0.24,0.0,0.12,0.32,0.32,0.32,0,2263.8998520000023,2263.8998520000023,2263.8998520000023,2263.8998520000023,2263.8998520000023,2263.8998520000023,2263.8998520000023,2263.8998520000023,2263.8905224399878,1.8200614000088535,return,1.677984000009019,,,,,,,,,,,,,,,,,,,,,,,,,,,,,,,,,6FUYD3,train_y,blue_star,top_right,2025-06-10_16h19.10.717,HideSeek_v1,2022.2.5,59.974187108809886,
,9,7,9,7,0,0,61,,train_dim1_1,8,30,,,,2,0,2,0,,,,,,,,,0,0,0,0,0,7,7,7,1,0,1,0,,,,,,,,,,,,,,,,,,,,,,,,,,,,,,,,,,,,,,,,,,,,,,,,,,,,,,,,,,,,,,,,30,,,,,,,,2275.5827119000023,2275.5827119000023,2275.5827119000023,2275.5827119000023,2275.5827119000023,return,0.6932548999902792,2,1,0,0,0.56,0.08,return,0.6100604000384919,-12,-1,0.56,0.08,,,,,,,,,,,,,,,,,,,,,,,,,,,,,,,,,,,,,,,,,,,,,,,,,,,,,,,,6FUYD3,train_y,blue_star,top_right,2025-06-10_16h19.10.717,HideSeek_v1,2022.2.5,59.974187108809886,
,9,8,9,4,0,-4,65,,train_dim1_1,9,30,,,,2,0,2,0,,,,,,,,,0,0,0,0,0,8,8,8,0,0,0,0,,,,,,,,,,,,,,,,,,,,,,,,,stimuli/alien_stimuli/65.png,,,,,,,,,,,,,,,,,,,,,,,,,,,,,stimuli/alien_stimuli/61.png,61,9,10,,,,,,,30,,,,,,,,2281.9080706000095,2281.9080706000095,2281.9080706000095,2281.9080706000095,2281.9080706000095,down,2.02192789997207,2,1,0,99,0.56,0.15999999999999998,down,1.9432022999972105,,,,,2280.354968199972,2281.9080706000095,0.56,0.16,0.0,0.0,0.16,0.56,0.56,0.56,0.16,2277.847436000011,2277.847436000011,2277.847436000011,2277.847436000011,2277.847436000011,2277.847436000011,2277.847436000011,2277.847436000011,2277.8353717400114,2.6208559999940917,return,2.4843139999429695,,,,,,,,,,,,,,,,,,,,,,,,,,,,,,,,,6FUYD3,train_y,blue_star,top_right,2025-06-10_16h19.10.717,HideSeek_v1,2022.2.5,59.974187108809886,
,9,8,9,4,0,-4,65,,train_dim1_1,9,30,,,,2,0,2,0,,,,,,,,,0,0,0,0,0,8,8,8,1,0,1,0,,,,,,,,,,,,,,,,,,,,,,,,,,,,,,,,,,,,,,,,,,,,,,,,,,,,,,,,,,,,,,,,30,,,,,,,,2283.9371802000096,2283.9371802000096,2283.9371802000096,2283.9371802000096,2283.9371802000096,down,0.8599884000141174,2,1,0,99,0.56,0.07999999999999997,down,0.7888035000069067,,,,,,,,,,,,,,,,,,,,,,,,,,,,,,,,,,,,,,,,,,,,,,,,,,,,,,,,,,,,6FUYD3,train_y,blue_star,top_right,2025-06-10_16h19.10.717,HideSeek_v1,2022.2.5,59.974187108809886,
,9,8,9,4,0,-4,65,,train_dim1_1,9,30,,,,2,0,2,0,,,,,,,,,0,0,0,0,0,8,8,8,2,0,2,0,,,,,,,,,,,,,,,,,,,,,,,,,,,,,,,,,,,,,,,,,,,,,,,,,,,,,,,,,,,,,,,,30,,,,,,,,2284.8051627000095,2284.8051627000095,2284.8051627000095,2284.8051627000095,2284.8051627000095,down,0.8269305999856442,2,1,0,99,0.56,-2.7755575615628914e-17,down,0.7409248999902047,,,,,,,,,,,,,,,,,,,,,,,,,,,,,,,,,,,,,,,,,,,,,,,,,,,,,,,,,,,,6FUYD3,train_y,blue_star,top_right,2025-06-10_16h19.10.717,HideSeek_v1,2022.2.5,59.974187108809886,
,9,8,9,4,0,-4,65,,train_dim1_1,9,30,,,,2,0,2,0,,,,,,,,,0,0,0,0,0,8,8,8,3,0,3,0,,,,,,,,,,,,,,,,,,,,,,,,,,,,,,,,,,,,,,,,,,,,,,,,,,,,,,,,,,,,,,,,30,,,,,,,,2285.6383213999798,2285.6383213999798,2285.6383213999798,2285.6383213999798,2285.6383213999798,down,0.9104070999892429,2,1,0,99,0.56,-0.08000000000000003,down,0.8367582999635488,,,,,,,,,,,,,,,,,,,,,,,,,,,,,,,,,,,,,,,,,,,,,,,,,,,,,,,,,,,,6FUYD3,train_y,blue_star,top_right,2025-06-10_16h19.10.717,HideSeek_v1,2022.2.5,59.974187108809886,
,9,8,9,4,0,-4,65,,train_dim1_1,9,30,,,,2,0,2,0,,,,,,,,,0,0,0,0,0,8,8,8,4,0,4,0,,,,,,,,,,,,,,,,,,,,,,,,,,,,,,,,,,,,,,,,,,,,,,,,,,,,,,,,,,,,,,,,30,,,,,,,,2286.556771099975,2286.556771099975,2286.556771099975,2286.556771099975,2286.556771099975,down,0.5431791999726556,2,1,0,99,0.56,-0.16000000000000003,down,0.46076869999524206,,,,,,,,,,,,,,,,,,,,,,,,,,,,,,,,,,,,,,,,,,,,,,,,,,,,,,,,,,,,6FUYD3,train_y,blue_star,top_right,2025-06-10_16h19.10.717,HideSeek_v1,2022.2.5,59.974187108809886,
,9,8,9,4,0,-4,65,,train_dim1_1,9,30,,,,2,0,2,0,,,,,,,,,0,0,0,0,0,8,8,8,5,0,5,0,,,,,,,,,,,,,,,,,,,,,,,,,,,,,,,,,,,,,,,,,,,,,,,,,,,,,,,,,,,,,,,,30,,,,,,,,2287.107068000012,2287.107068000012,2287.107068000012,2287.107068000012,2287.107068000012,return,0.6598858000361361,2,1,0,0,0.56,-0.16000000000000003,return,0.5716526999603957,-17,-1,0.56,-0.16000000000000003,,,,,,,,,,,,,,,,,,,,,,,,,,,,,,,,,,,,,,,,,,,,,,,,,,,,,,,,6FUYD3,train_y,blue_star,top_right,2025-06-10_16h19.10.717,HideSeek_v1,2022.2.5,59.974187108809886,
,7,7,7,2,0,-5,66,,train_dim1_1,10,30,,,,2,0,2,0,,,,,,,,,0,0,0,0,0,9,9,9,0,0,0,0,,,,,,,,,,,,,,,,,,,,,,,,,stimuli/alien_stimuli/66.png,,,,,,,,,,,,,,,,,,,,,,,,,,,,,stimuli/alien_stimuli/65.png,65,9,11,,,,,,,30,,,,,,,,2292.651031700021,2292.651031700021,2292.651031700021,2292.651031700021,2292.651031700021,down,1.087603299994953,2,1,0,99,0.4,0.08,down,1.0010313000530005,,,,,2291.0972429999965,2292.651031700021,0.56,-0.08,0.32,0.0,0.07999999999999999,0.56,0.56,0.56,-0.08,2289.3229346000007,2289.3229346000007,2289.3229346000007,2289.3229346000007,2289.3229346000007,2289.3229346000007,2289.3229346000007,2289.3229346000007,2289.311676419992,1.8703122999868356,return,1.7475318999495357,,,,,,,,,,,,,,,,,,,,,,,,,,,,,,,,,6FUYD3,train_y,blue_star,top_right,2025-06-10_16h19.10.717,HideSeek_v1,2022.2.5,59.974187108809886,
,7,7,7,2,0,-5,66,,train_dim1_1,10,30,,,,2,0,2,0,,,,,,,,,0,0,0,0,0,9,9,9,1,0,1,0,,,,,,,,,,,,,,,,,,,,,,,,,,,,,,,,,,,,,,,,,,,,,,,,,,,,,,,,,,,,,,,,30,,,,,,,,2293.7466052999953,2293.7466052999953,2293.7466052999953,2293.7466052999953,2293.7466052999953,down,0.2761229999596253,2,1,0,99,0.4,0.0,down,0.20287800004007295,,,,,,,,,,,,,,,,,,,,,,,,,,,,,,,,,,,,,,,,,,,,,,,,,,,,,,,,,,,,6FUYD3,train_y,blue_star,top_right,2025-06-10_16h19.10.717,HideSeek_v1,2022.2.5,59.974187108809886,
,7,7,7,2,0,-5,66,,train_dim1_1,10,30,,,,2,0,2,0,,,,,,,,,0,0,0,0,0,9,9,9,2,0,2,0,,,,,,,,,,,,,,,,,,,,,,,,,,,,,,,,,,,,,,,,,,,,,,,,,,,,,,,,,,,,,,,,30,,,,,,,,2294.0304206999717,2294.0304206999717,2294.0304206999717,2294.0304206999717,2294.0304206999717,down,0.2931100000278093,2,1,0,99,0.4,-0.08,down,0.20429279998643324,,,,,,,,,,,,,,,,,,,,,,,,,,,,,,,,,,,,,,,,,,,,,,,,,,,,,,,,,,,,6FUYD3,train_y,blue_star,top_right,2025-06-10_16h19.10.717,HideSeek_v1,2022.2.5,59.974187108809886,
,7,7,7,2,0,-5,66,,train_dim1_1,10,30,,,,2,0,2,0,,,,,,,,,0,0,0,0,0,9,9,9,3,0,3,0,,,,,,,,,,,,,,,,,,,,,,,,,,,,,,,,,,,,,,,,,,,,,,,,,,,,,,,,,,,,,,,,30,,,,,,,,2294.332260299998,2294.332260299998,2294.332260299998,2294.332260299998,2294.332260299998,down,0.2931108000339009,2,1,0,99,0.4,-0.16,down,0.21298539999406785,,,,,,,,,,,,,,,,,,,,,,,,,,,,,,,,,,,,,,,,,,,,,,,,,,,,,,,,,,,,6FUYD3,train_y,blue_star,top_right,2025-06-10_16h19.10.717,HideSeek_v1,2022.2.5,59.974187108809886,
,7,7,7,2,0,-5,66,,train_dim1_1,10,30,,,,2,0,2,0,,,,,,,,,0,0,0,0,0,9,9,9,4,0,4,0,,,,,,,,,,,,,,,,,,,,,,,,,,,,,,,,,,,,,,,,,,,,,,,,,,,,,,,,,,,,,,,,30,,,,,,,,2294.629187499988,2294.629187499988,2294.629187499988,2294.629187499988,2294.629187499988,down,0.34343589999480173,2,1,0,99,0.4,-0.24,down,0.26605830003973097,,,,,,,,,,,,,,,,,,,,,,,,,,,,,,,,,,,,,,,,,,,,,,,,,,,,,,,,,,,,6FUYD3,train_y,blue_star,top_right,2025-06-10_16h19.10.717,HideSeek_v1,2022.2.5,59.974187108809886,
,7,7,7,2,0,-5,66,,train_dim1_1,10,30,,,,2,0,2,0,,,,,,,,,0,0,0,0,0,9,9,9,5,0,5,0,,,,,,,,,,,,,,,,,,,,,,,,,,,,,,,,,,,,,,,,,,,,,,,,,,,,,,,,,,,,,,,,30,,,,,,,,2294.980966300005,2294.980966300005,2294.980966300005,2294.980966300005,2294.980966300005,return,0.5099890000419691,3,0,0,1,0.4,-0.24,return,0.4316380000091158,-22,-1,0.4,-0.24,,,,,,,,,,,,,,,,,,,,,,,,,,,,,,,,,,,,,,,,,,,,,,,,,,,,,,,,6FUYD3,train_y,blue_star,top_right,2025-06-10_16h19.10.717,HideSeek_v1,2022.2.5,59.974187108809886,
,9,6,9,2,0,-4,65,,train_dim1_1,11,30,,,,2,0,2,0,,,,,,,,,0,0,0,0,0,10,10,10,0,0,0,0,,,,,,,,,,,,,,,,,,,,,,,,,stimuli/alien_stimuli/65.png,,,,,,,,,,,,,,,,,,,,,,,,,,,,,stimuli/alien_stimuli/66.png,66,7,12,,,,,,,30,,,,,,,,2299.456460700021,2299.456460700021,2299.456460700021,2299.456460700021,2299.456460700021,down,0.8040009999531321,3,0,0,99,0.56,0.0,down,0.7168101000133902,,,,,2297.9027228999767,2299.456460700021,0.4,-0.24,0.4,0.0,-0.039999999999999994,0.4,0.4,0.4,-0.24,2297.043365199992,2297.043365199992,2297.043365199992,2297.043365199992,2297.043365199992,2297.043365199992,2297.043365199992,2297.043365199992,2297.034898319992,0.9528626999817789,return,0.827985699987039,,,,,,,,,,,,,,,,,,,,,,,,,,,,,,,,,6FUYD3,train_y,blue_star,top_right,2025-06-10_16h19.10.717,HideSeek_v1,2022.2.5,59.974187108809886,
,9,6,9,2,0,-4,65,,train_dim1_1,11,30,,,,2,0,2,0,,,,,,,,,0,0,0,0,0,10,10,10,1,0,1,0,,,,,,,,,,,,,,,,,,,,,,,,,,,,,,,,,,,,,,,,,,,,,,,,,,,,,,,,,,,,,,,,30,,,,,,,,2300.2701316999737,2300.2701316999737,2300.2701316999737,2300.2701316999737,2300.2701316999737,down,0.32519109995337203,3,0,0,99,0.56,-0.08,down,0.2523376999888569,,,,,,,,,,,,,,,,,,,,,,,,,,,,,,,,,,,,,,,,,,,,,,,,,,,,,,,,,,,,6FUYD3,train_y,blue_star,top_right,2025-06-10_16h19.10.717,HideSeek_v1,2022.2.5,59.974187108809886,
,9,6,9,2,0,-4,65,,train_dim1_1,11,30,,,,2,0,2,0,,,,,,,,,0,0,0,0,0,10,10,10,2,0,2,0,,,,,,,,,,,,,,,,,,,,,,,,,,,,,,,,,,,,,,,,,,,,,,,,,,,,,,,,,,,,,,,,30,,,,,,,,2300.600576900004,2300.600576900004,2300.600576900004,2300.600576900004,2300.600576900004,down,0.32627810002304614,3,0,0,99,0.56,-0.16,down,0.24993550003273413,,,,,,,,,,,,,,,,,,,,,,,,,,,,,,,,,,,,,,,,,,,,,,,,,,,,,,,,,,,,6FUYD3,train_y,blue_star,top_right,2025-06-10_16h19.10.717,HideSeek_v1,2022.2.5,59.974187108809886,
,9,6,9,2,0,-4,65,,train_dim1_1,11,30,,,,2,0,2,0,,,,,,,,,0,0,0,0,0,10,10,10,3,0,3,0,,,,,,,,,,,,,,,,,,,,,,,,,,,,,,,,,,,,,,,,,,,,,,,,,,,,,,,,,,,,,,,,30,,,,,,,,2300.9360126999673,2300.9360126999673,2300.9360126999673,2300.9360126999673,2300.9360126999673,down,0.3266437000129372,3,0,0,99,0.56,-0.24,down,0.2508403999963775,,,,,,,,,,,,,,,,,,,,,,,,,,,,,,,,,,,,,,,,,,,,,,,,,,,,,,,,,,,,6FUYD3,train_y,blue_star,top_right,2025-06-10_16h19.10.717,HideSeek_v1,2022.2.5,59.974187108809886,
,9,6,9,2,0,-4,65,,train_dim1_1,11,30,,,,2,0,2,0,,,,,,,,,0,0,0,0,0,10,10,10,4,0,4,0,,,,,,,,,,,,,,,,,,,,,,,,,,,,,,,,,,,,,,,,,,,,,,,,,,,,,,,,,,,,,,,,30,,,,,,,,2301.2691404999932,2301.2691404999932,2301.2691404999932,2301.2691404999932,2301.2691404999932,return,0.5268893999746069,4,0,0,1,0.56,-0.24,return,0.4378304000128992,-26,-1,0.56,-0.24,,,,,,,,,,,,,,,,,,,,,,,,,,,,,,,,,,,,,,,,,,,,,,,,,,,,,,,,6FUYD3,train_y,blue_star,top_right,2025-06-10_16h19.10.717,HideSeek_v1,2022.2.5,59.974187108809886,
,5,5,5,5,0,0,61,,train_dim1_1,12,30,,,,2,0,2,0,,,,,,,,,0,0,0,0,0,11,11,11,0,0,0,0,,,,,,,,,,,,,,,,,,,,,,,,,stimuli/alien_stimuli/61.png,,,,,,,,,,,,,,,,,,,,,,,,,,,,,stimuli/alien_stimuli/65.png,65,9,13,,,,,,,30,,,,,,,,2305.893120199966,2305.893120199966,2305.893120199966,2305.893120199966,2305.893120199966,down,3.208405500045046,4,0,0,99,0.24,-0.08,down,3.1310896999784745,,,,,2304.3413930999814,2305.893120199966,0.56,-0.24,0.32,0.0,-0.07999999999999999,0.56,0.56,0.56,-0.24,2303.3454282999737,2303.3454282999737,2303.3454282999737,2303.3454282999737,2303.3454282999737,2303.3454282999737,2303.3454282999737,2303.3454282999737,2303.339949219965,1.0865315000410192,return,0.9789565000100993,,,,,,,,,,,,,,,,,,,,,,,,,,,,,,,,,6FUYD3,train_y,blue_star,top_right,2025-06-10_16h19.10.717,HideSeek_v1,2022.2.5,59.974187108809886,
,5,5,5,5,0,0,61,,train_dim1_1,12,30,,,,2,0,2,0,,,,,,,,,0,0,0,0,0,11,11,11,1,0,1,0,,,,,,,,,,,,,,,,,,,,,,,,,,,,,,,,,,,,,,,,,,,,,,,,,,,,,,,,,,,,,,,,30,,,,,,,,2309.1089576999657,2309.1089576999657,2309.1089576999657,2309.1089576999657,2309.1089576999657,return,0.6764590999810025,4,1,0,0,0.24,-0.08,return,0.6014714000048116,-27,-1,0.24,-0.08,,,,,,,,,,,,,,,,,,,,,,,,,,,,,,,,,,,,,,,,,,,,,,,,,,,,,,,,6FUYD3,train_y,blue_star,top_right,2025-06-10_16h19.10.717,HideSeek_v1,2022.2.5,59.974187108809886,
,9,8,9,7,0,-1,62,,train_dim1_1,13,30,,,,2,0,2,0,,,,,,,,,0,0,0,0,0,12,12,12,0,0,0,0,,,,,,,,,,,,,,,,,,,,,,,,,stimuli/alien_stimuli/62.png,,,,,,,,,,,,,,,,,,,,,,,,,,,,,stimuli/alien_stimuli/61.png,61,5,14,,,,,,,30,,,,,,,,2315.251964700001,2315.251964700001,2315.251964700001,2315.251964700001,2315.251964700001,return,13.632304200029466,4,1,0,0,0.56,0.24,return,13.556732399971224,-27,-1,0.56,0.24,2313.69942119997,2315.251964700001,0.24,0,0.0,0.0,0.0,0.24,0.24,0.24,0,2311.3418172000092,2311.3418172000092,2311.3418172000092,2311.3418172000092,2311.3418172000092,2311.3418172000092,2311.3418172000092,2311.3418172000092,2311.3301188199666,2.4538088999688625,return,2.327384300006088,,,,,,,,,,,,,,,,,,,,,,,,,,,,,,,,,6FUYD3,train_y,blue_star,top_right,2025-06-10_16h19.10.717,HideSeek_v1,2022.2.5,59.974187108809886,
,7,7,7,2,0,-5,66,,train_dim1_1,14,30,,,,2,0,2,0,,,,,,,,,0,0,0,0,0,13,13,13,0,0,0,0,,,,,,,,,,,,,,,,,,,,,,,,,stimuli/alien_stimuli/66.png,,,,,,,,,,,,,,,,,,,,,,,,,,,,,stimuli/alien_stimuli/62.png,62,9,15,,,,,,,30,,,,,,,,2335.2185521000065,2335.2185521000065,2335.2185521000065,2335.2185521000065,2335.2185521000065,down,1.0885222000069916,4,1,0,99,0.4,0.08,down,1.014457199955359,,,,,2333.6657305000117,2335.2185521000065,0.56,0.16,0.08,0.0,0.2,0.56,0.56,0.56,0.16,2330.460837199993,2330.460837199993,2330.460837199993,2330.460837199993,2330.460837199993,2330.460837199993,2330.460837199993,2330.460837199993,2330.462366159982,3.3215549999731593,return,3.1752780999522656,,,,,,,,,,,,,,,,,,,,,,,,,,,,,,,,,6FUYD3,train_y,blue_star,top_right,2025-06-10_16h19.10.717,HideSeek_v1,2022.2.5,59.974187108809886,
,7,7,7,2,0,-5,66,,train_dim1_1,14,30,,,,2,0,2,0,,,,,,,,,0,0,0,0,0,13,13,13,1,0,1,0,,,,,,,,,,,,,,,,,,,,,,,,,,,,,,,,,,,,,,,,,,,,,,,,,,,,,,,,,,,,,,,,30,,,,,,,,2336.314682099968,2336.314682099968,2336.314682099968,2336.314682099968,2336.314682099968,down,0.2928824999835342,4,1,0,99,0.4,0.0,down,0.2166772999917157,,,,,,,,,,,,,,,,,,,,,,,,,,,,,,,,,,,,,,,,,,,,,,,,,,,,,,,,,,,,6FUYD3,train_y,blue_star,top_right,2025-06-10_16h19.10.717,HideSeek_v1,2022.2.5,59.974187108809886,
,7,7,7,2,0,-5,66,,train_dim1_1,14,30,,,,2,0,2,0,,,,,,,,,0,0,0,0,0,13,13,13,2,0,2,0,,,,,,,,,,,,,,,,,,,,,,,,,,,,,,,,,,,,,,,,,,,,,,,,,,,,,,,,,,,,,,,,30,,,,,,,,2336.614963500004,2336.614963500004,2336.614963500004,2336.614963500004,2336.614963500004,down,0.31024959997739643,4,1,0,99,0.4,-0.08,down,0.22686260001501068,,,,,,,,,,,,,,,,,,,,,,,,,,,,,,,,,,,,,,,,,,,,,,,,,,,,,,,,,,,,6FUYD3,train_y,blue_star,top_right,2025-06-10_16h19.10.717,HideSeek_v1,2022.2.5,59.974187108809886,
,7,7,7,2,0,-5,66,,train_dim1_1,14,30,,,,2,0,2,0,,,,,,,,,0,0,0,0,0,13,13,13,3,0,3,0,,,,,,,,,,,,,,,,,,,,,,,,,,,,,,,,,,,,,,,,,,,,,,,,,,,,,,,,,,,,,,,,30,,,,,,,,2336.9315374,2336.9315374,2336.9315374,2336.9315374,2336.9315374,down,0.3260596999898553,4,1,0,99,0.4,-0.16,down,0.2386125999619253,,,,,,,,,,,,,,,,,,,,,,,,,,,,,,,,,,,,,,,,,,,,,,,,,,,,,,,,,,,,6FUYD3,train_y,blue_star,top_right,2025-06-10_16h19.10.717,HideSeek_v1,2022.2.5,59.974187108809886,
,7,7,7,2,0,-5,66,,train_dim1_1,14,30,,,,2,0,2,0,,,,,,,,,0,0,0,0,0,13,13,13,4,0,4,0,,,,,,,,,,,,,,,,,,,,,,,,,,,,,,,,,,,,,,,,,,,,,,,,,,,,,,,,,,,,,,,,30,,,,,,,,2337.2654810000095,2337.2654810000095,2337.2654810000095,2337.2654810000095,2337.2654810000095,down,0.31017839995911345,4,1,0,99,0.4,-0.24,down,0.23334429995156825,,,,,,,,,,,,,,,,,,,,,,,,,,,,,,,,,,,,,,,,,,,,,,,,,,,,,,,,,,,,6FUYD3,train_y,blue_star,top_right,2025-06-10_16h19.10.717,HideSeek_v1,2022.2.5,59.974187108809886,
,7,7,7,2,0,-5,66,,train_dim1_1,14,30,,,,2,0,2,0,,,,,,,,,0,0,0,0,0,13,13,13,5,0,5,0,,,,,,,,,,,,,,,,,,,,,,,,,,,,,,,,,,,,,,,,,,,,,,,,,,,,,,,,,,,,,,,,30,,,,,,,,2337.5832816999755,2337.5832816999755,2337.5832816999755,2337.5832816999755,2337.5832816999755,return,0.3599026000010781,5,0,0,1,0.4,-0.24,return,0.2767419000156224,-32,-1,0.4,-0.24,,,,,,,,,,,,,,,,,,,,,,,,,,,,,,,,,,,,,,,,,,,,,,,,,,,,,,,,6FUYD3,train_y,blue_star,top_right,2025-06-10_16h19.10.717,HideSeek_v1,2022.2.5,59.974187108809886,
,6,9,6,6,0,-3,64,,train_dim1_1,15,30,,,,2,0,2,0,,,,,,,,,0,0,0,0,0,14,14,14,0,0,0,0,,,,,,,,,,,,,,,,,,,,,,,,,stimuli/alien_stimuli/64.png,,,,,,,,,,,,,,,,,,,,,,,,,,,,,stimuli/alien_stimuli/66.png,66,7,16,,,,,,,30,,,,,,,,2342.1889499999816,2342.1889499999816,2342.1889499999816,2342.1889499999816,2342.1889499999816,down,2.524123099981807,5,0,0,99,0.32,0.24,down,2.4475429999874905,,,,,2340.638290299976,2342.1889499999816,0.4,-0.24,0.4,0.0,-0.039999999999999994,0.4,0.4,0.4,-0.24,2339.5125820999965,2339.5125820999965,2339.5125820999965,2339.5125820999965,2339.5125820999965,2339.5125820999965,2339.5125820999965,2339.5125820999965,2339.5031943400045,1.2368210999993607,return,1.1050225999788381,,,,,,,,,,,,,,,,,,,,,,,,,,,,,,,,,6FUYD3,train_y,blue_star,top_right,2025-06-10_16h19.10.717,HideSeek_v1,2022.2.5,59.974187108809886,
,6,9,6,6,0,-3,64,,train_dim1_1,15,30,,,,2,0,2,0,,,,,,,,,0,0,0,0,0,14,14,14,1,0,1,0,,,,,,,,,,,,,,,,,,,,,,,,,,,,,,,,,,,,,,,,,,,,,,,,,,,,,,,,,,,,,,,,30,,,,,,,,2344.7214852999896,2344.7214852999896,2344.7214852999896,2344.7214852999896,2344.7214852999896,down,0.34385459998156875,5,0,0,99,0.32,0.15999999999999998,down,0.27336039999499917,,,,,,,,,,,,,,,,,,,,,,,,,,,,,,,,,,,,,,,,,,,,,,,,,,,,,,,,,,,,6FUYD3,train_y,blue_star,top_right,2025-06-10_16h19.10.717,HideSeek_v1,2022.2.5,59.974187108809886,
,6,9,6,6,0,-3,64,,train_dim1_1,15,30,,,,2,0,2,0,,,,,,,,,0,0,0,0,0,14,14,14,2,0,2,0,,,,,,,,,,,,,,,,,,,,,,,,,,,,,,,,,,,,,,,,,,,,,,,,,,,,,,,,,,,,,,,,30,,,,,,,,2345.0764917000197,2345.0764917000197,2345.0764917000197,2345.0764917000197,2345.0764917000197,down,0.6390662000048906,5,0,0,99,0.32,0.07999999999999997,down,0.5559170999913476,,,,,,,,,,,,,,,,,,,,,,,,,,,,,,,,,,,,,,,,,,,,,,,,,,,,,,,,,,,,6FUYD3,train_y,blue_star,top_right,2025-06-10_16h19.10.717,HideSeek_v1,2022.2.5,59.974187108809886,
,6,9,6,6,0,-3,64,,train_dim1_1,15,30,,,,2,0,2,0,,,,,,,,,0,0,0,0,0,14,14,14,3,0,3,0,,,,,,,,,,,,,,,,,,,,,,,,,,,,,,,,,,,,,,,,,,,,,,,,,,,,,,,,,,,,,,,,30,,,,,,,,2345.7240401000017,2345.7240401000017,2345.7240401000017,2345.7240401000017,2345.7240401000017,return,0.3764240999589674,6,0,0,1,0.32,0.07999999999999997,return,0.30168769997544587,-35,-1,0.32,0.07999999999999997,,,,,,,,,,,,,,,,,,,,,,,,,,,,,,,,,,,,,,,,,,,,,,,,,,,,,,,,6FUYD3,train_y,blue_star,top_right,2025-06-10_16h19.10.717,HideSeek_v1,2022.2.5,59.974187108809886,
,9,5,9,1,0,-4,65,,train_dim1_1,16,30,,,,2,0,2,0,,,,,,,,,0,0,0,0,0,15,15,15,0,0,0,0,,,,,,,,,,,,,,,,,,,,,,,,,stimuli/alien_stimuli/65.png,,,,,,,,,,,,,,,,,,,,,,,,,,,,,stimuli/alien_stimuli/64.png,64,6,17,,,,,,,30,,,,,,,,2349.7818668999826,2349.7818668999826,2349.7818668999826,2349.7818668999826,2349.7818668999826,down,1.0545044000027701,6,0,0,99,0.56,-0.08,down,0.972871900012251,,,,,2348.227849000017,2349.7818668999826,0.32,0.08,0.24,0.0,0.2,0.32,0.32,0.32,0.08,2347.64809849998,2347.64809849998,2347.64809849998,2347.64809849998,2347.64809849998,2347.64809849998,2347.64809849998,2347.64809849998,2347.6436174200035,0.6691902999882586,return,0.5608193000080064,,,,,,,,,,,,,,,,,,,,,,,,,,,,,,,,,6FUYD3,train_y,blue_star,top_right,2025-06-10_16h19.10.717,HideSeek_v1,2022.2.5,59.974187108809886,
,9,5,9,1,0,-4,65,,train_dim1_1,16,30,,,,2,0,2,0,,,,,,,,,0,0,0,0,0,15,15,15,1,0,1,0,,,,,,,,,,,,,,,,,,,,,,,,,,,,,,,,,,,,,,,,,,,,,,,,,,,,,,,,,,,,,,,,30,,,,,,,,2350.842718700005,2350.842718700005,2350.842718700005,2350.842718700005,2350.842718700005,down,0.29264299996430054,6,0,0,99,0.56,-0.16,down,0.22029939998174086,,,,,,,,,,,,,,,,,,,,,,,,,,,,,,,,,,,,,,,,,,,,,,,,,,,,,,,,,,,,6FUYD3,train_y,blue_star,top_right,2025-06-10_16h19.10.717,HideSeek_v1,2022.2.5,59.974187108809886,
,9,5,9,1,0,-4,65,,train_dim1_1,16,30,,,,2,0,2,0,,,,,,,,,0,0,0,0,0,15,15,15,2,0,2,0,,,,,,,,,,,,,,,,,,,,,,,,,,,,,,,,,,,,,,,,,,,,,,,,,,,,,,,,,,,,,,,,30,,,,,,,,2351.1422939000186,2351.1422939000186,2351.1422939000186,2351.1422939000186,2351.1422939000186,down,0.29274780000559986,6,0,0,99,0.56,-0.24,down,0.21788890002062544,,,,,,,,,,,,,,,,,,,,,,,,,,,,,,,,,,,,,,,,,,,,,,,,,,,,,,,,,,,,6FUYD3,train_y,blue_star,top_right,2025-06-10_16h19.10.717,HideSeek_v1,2022.2.5,59.974187108809886,
,9,5,9,1,0,-4,65,,train_dim1_1,16,30,,,,2,0,2,0,,,,,,,,,0,0,0,0,0,15,15,15,3,0,3,0,,,,,,,,,,,,,,,,,,,,,,,,,,,,,,,,,,,,,,,,,,,,,,,,,,,,,,,,,,,,,,,,30,,,,,,,,2351.4443674000213,2351.4443674000213,2351.4443674000213,2351.4443674000213,2351.4443674000213,down,0.3102416999754496,6,0,0,99,0.56,-0.32,down,0.2243655999773182,,,,,,,,,,,,,,,,,,,,,,,,,,,,,,,,,,,,,,,,,,,,,,,,,,,,,,,,,,,,6FUYD3,train_y,blue_star,top_right,2025-06-10_16h19.10.717,HideSeek_v1,2022.2.5,59.974187108809886,
,9,5,9,1,0,-4,65,,train_dim1_1,16,30,,,,2,0,2,0,,,,,,,,,0,0,0,0,0,15,15,15,4,0,4,0,,,,,,,,,,,,,,,,,,,,,,,,,,,,,,,,,,,,,,,,,,,,,,,,,,,,,,,,,,,,,,,,30,,,,,,,,2351.7617030999972,2351.7617030999972,2351.7617030999972,2351.7617030999972,2351.7617030999972,return,0.3933858000091277,7,0,0,1,0.56,-0.32,return,0.30479590001050383,-39,-1,0.56,-0.32,,,,,,,,,,,,,,,,,,,,,,,,,,,,,,,,,,,,,,,,,,,,,,,,,,,,,,,,6FUYD3,train_y,blue_star,top_right,2025-06-10_16h19.10.717,HideSeek_v1,2022.2.5,59.974187108809886,
,8,8,8,5,0,-3,64,,train_dim1_1,17,30,,,,2,0,2,0,,,,,,,,,0,0,0,0,0,16,16,16,0,0,0,0,,,,,,,,,,,,,,,,,,,,,,,,,stimuli/alien_stimuli/64.png,,,,,,,,,,,,,,,,,,,,,,,,,,,,,stimuli/alien_stimuli/65.png,65,9,18,,,,,,,30,,,,,,,,2355.5836178999743,2355.5836178999743,2355.5836178999743,2355.5836178999743,2355.5836178999743,down,1.0392387000028975,7,0,0,99,0.48,0.15999999999999998,down,0.9659363000537269,,,,,2354.03262730001,2355.5836178999743,0.56,-0.32,0.32,0.0,-0.16,0.56,0.56,0.56,-0.32,2353.703706500004,2353.703706500004,2353.703706500004,2353.703706500004,2353.703706500004,2353.703706500004,2353.703706500004,2353.703706500004,2353.6984247199844,0.41932980000274256,return,0.30755189998308197,,,,,,,,,,,,,,,,,,,,,,,,,,,,,,,,,6FUYD3,train_y,blue_star,top_right,2025-06-10_16h19.10.717,HideSeek_v1,2022.2.5,59.974187108809886,
,8,8,8,5,0,-3,64,,train_dim1_1,17,30,,,,2,0,2,0,,,,,,,,,0,0,0,0,0,16,16,16,1,0,1,0,,,,,,,,,,,,,,,,,,,,,,,,,,,,,,,,,,,,,,,,,,,,,,,,,,,,,,,,,,,,,,,,30,,,,,,,,2356.631854999985,2356.631854999985,2356.631854999985,2356.631854999985,2356.631854999985,down,0.2755629000021145,7,0,0,99,0.48,0.07999999999999997,down,0.19459759996971115,,,,,,,,,,,,,,,,,,,,,,,,,,,,,,,,,,,,,,,,,,,,,,,,,,,,,,,,,,,,6FUYD3,train_y,blue_star,top_right,2025-06-10_16h19.10.717,HideSeek_v1,2022.2.5,59.974187108809886,
,8,8,8,5,0,-3,64,,train_dim1_1,17,30,,,,2,0,2,0,,,,,,,,,0,0,0,0,0,16,16,16,2,0,2,0,,,,,,,,,,,,,,,,,,,,,,,,,,,,,,,,,,,,,,,,,,,,,,,,,,,,,,,,,,,,,,,,30,,,,,,,,2356.916846100008,2356.916846100008,2356.916846100008,2356.916846100008,2356.916846100008,down,0.20996680000098422,7,0,0,99,0.48,-2.7755575615628914e-17,down,0.1307754999725148,,,,,,,,,,,,,,,,,,,,,,,,,,,,,,,,,,,,,,,,,,,,,,,,,,,,,,,,,,,,6FUYD3,train_y,blue_star,top_right,2025-06-10_16h19.10.717,HideSeek_v1,2022.2.5,59.974187108809886,
,8,8,8,5,0,-3,64,,train_dim1_1,17,30,,,,2,0,2,0,,,,,,,,,0,0,0,0,0,16,16,16,3,0,3,0,,,,,,,,,,,,,,,,,,,,,,,,,,,,,,,,,,,,,,,,,,,,,,,,,,,,,,,,,,,,,,,,30,,,,,,,,2357.1313138999976,2357.1313138999976,2357.1313138999976,2357.1313138999976,2357.1313138999976,return,0.39320869999937713,8,0,0,1,0.48,-2.7755575615628914e-17,return,0.3086345000192523,-42,-1,0.48,-2.7755575615628914e-17,,,,,,,,,,,,,,,,,,,,,,,,,,,,,,,,,,,,,,,,,,,,,,,,,,,,,,,,6FUYD3,train_y,blue_star,top_right,2025-06-10_16h19.10.717,HideSeek_v1,2022.2.5,59.974187108809886,
,7,6,7,6,0,0,61,,train_dim1_1,18,30,,,,2,0,2,0,,,,,,,,,0,0,0,0,0,17,17,17,0,0,0,0,,,,,,,,,,,,,,,,,,,,,,,,,stimuli/alien_stimuli/61.png,,,,,,,,,,,,,,,,,,,,,,,,,,,,,stimuli/alien_stimuli/64.png,64,8,19,,,,,,,30,,,,,,,,2360.990737200016,2360.990737200016,2360.990737200016,2360.990737200016,2360.990737200016,return,3.823106599971652,9,0,0,1,0.4,0.08,return,3.740561699960381,-42,-1,0.4,0.08,2359.4371988999774,2360.990737200016,0.48,0,0.24,0.0,0.12,0.48,0.48,0.48,0,2359.0743459999794,2359.0743459999794,2359.0743459999794,2359.0743459999794,2359.0743459999794,2359.0743459999794,2359.0743459999794,2359.0743459999794,2359.069484419958,0.45250479999231175,return,0.33144340000580996,,,,,,,,,,,,,,,,,,,,,,,,,,,,,,,,,6FUYD3,train_y,blue_star,top_right,2025-06-10_16h19.10.717,HideSeek_v1,2022.2.5,59.974187108809886,
,5,9,5,8,0,-1,62,,train_dim1_1,19,30,,,,2,0,2,0,,,,,,,,,0,0,0,0,0,18,18,18,0,0,0,0,,,,,,,,,,,,,,,,,,,,,,,,,stimuli/alien_stimuli/62.png,,,,,,,,,,,,,,,,,,,,,,,,,,,,,stimuli/alien_stimuli/61.png,61,7,20,,,,,,,30,,,,,,,,2369.298487799999,2369.298487799999,2369.298487799999,2369.298487799999,2369.298487799999,down,1.15427640004782,9,0,0,99,0.24,0.24,down,1.076885399990715,,,,,2367.732163799985,2366.381754799979,0.4,0.08,0.0,0.0,0.08,0.4,0.4,0.4,0.08,2366.381754799979,2366.381754799979,2366.381754799979,2366.381754799979,2366.381754799979,2366.381754799979,2366.381754799979,2366.381754799979,2366.375612639962,1.459273900021799,return,1.3263903000042774,,,,,,,,,,,,,,,,,,,,,,,,,,,,,,,,,6FUYD3,train_y,blue_star,top_right,2025-06-10_16h19.10.717,HideSeek_v1,2022.2.5,59.974187108809886,
,5,9,5,8,0,-1,62,,train_dim1_1,19,30,,,,2,0,2,0,,,,,,,,,0,0,0,0,0,18,18,18,1,0,1,0,,,,,,,,,,,,,,,,,,,,,,,,,,,,,,,,,,,,,,,,,,,,,,,,,,,,,,,,,,,,,,,,30,,,,,,,,2370.4591221999726,2370.4591221999726,2370.4591221999726,2370.4591221999726,2370.4591221999726,return,0.3594019999727607,10,0,0,1,0.24,0.24,return,0.28282389999367297,-43,-1,0.24,0.24,,,,,,,,,,,,,,,,,,,,,,,,,,,,,,,,,,,,,,,,,,,,,,,,,,,,,,,,6FUYD3,train_y,blue_star,top_right,2025-06-10_16h19.10.717,HideSeek_v1,2022.2.5,59.974187108809886,
,7,5,7,0,0,-5,66,,train_dim1_1,20,30,,,,2,0,2,0,,,,,,,,,0,0,0,0,0,19,19,19,0,0,0,0,,,,,,,,,,,,,,,,,,,,,,,,,stimuli/alien_stimuli/66.png,,,,,,,,,,,,,,,,,,,,,,,,,,,,,stimuli/alien_stimuli/62.png,62,5,21,,,,,,,30,,,,,,,,2374.5492102999706,2374.5492102999706,2374.5492102999706,2374.5492102999706,2374.5492102999706,down,1.2404839000082575,10,0,0,99,0.4,-0.08,down,1.1612015000428073,,,,,2372.998532800004,2374.5492102999706,0.24,0.24,0.08,0.0,0.28,0.24,0.24,0.24,0.24,2372.3695990999695,2372.3695990999695,2372.3695990999695,2372.3695990999695,2372.3695990999695,2372.3695990999695,2372.3695990999695,2372.3695990999695,2372.3638135200135,0.7196883999858983,return,0.6129511999897659,,,,,,,,,,,,,,,,,,,,,,,,,,,,,,,,,6FUYD3,train_y,blue_star,top_right,2025-06-10_16h19.10.717,HideSeek_v1,2022.2.5,59.974187108809886,
,7,5,7,0,0,-5,66,,train_dim1_1,20,30,,,,2,0,2,0,,,,,,,,,0,0,0,0,0,19,19,19,1,0,1,0,,,,,,,,,,,,,,,,,,,,,,,,,,,,,,,,,,,,,,,,,,,,,,,,,,,,,,,,,,,,,,,,30,,,,,,,,2375.7999353000196,2375.7999353000196,2375.7999353000196,2375.7999353000196,2375.7999353000196,down,0.306898899958469,10,0,0,99,0.4,-0.16,down,0.2248171999817714,,,,,,,,,,,,,,,,,,,,,,,,,,,,,,,,,,,,,,,,,,,,,,,,,,,,,,,,,,,,6FUYD3,train_y,blue_star,top_right,2025-06-10_16h19.10.717,HideSeek_v1,2022.2.5,59.974187108809886,
,7,5,7,0,0,-5,66,,train_dim1_1,20,30,,,,2,0,2,0,,,,,,,,,0,0,0,0,0,19,19,19,2,0,2,0,,,,,,,,,,,,,,,,,,,,,,,,,,,,,,,,,,,,,,,,,,,,,,,,,,,,,,,,,,,,,,,,30,,,,,,,,2376.1145445000147,2376.1145445000147,2376.1145445000147,2376.1145445000147,2376.1145445000147,down,0.3100399000104517,10,0,0,99,0.4,-0.24,down,0.23242369998479262,,,,,,,,,,,,,,,,,,,,,,,,,,,,,,,,,,,,,,,,,,,,,,,,,,,,,,,,,,,,6FUYD3,train_y,blue_star,top_right,2025-06-10_16h19.10.717,HideSeek_v1,2022.2.5,59.974187108809886,
,7,5,7,0,0,-5,66,,train_dim1_1,20,30,,,,2,0,2,0,,,,,,,,,0,0,0,0,0,19,19,19,3,0,3,0,,,,,,,,,,,,,,,,,,,,,,,,,,,,,,,,,,,,,,,,,,,,,,,,,,,,,,,,,,,,,,,,30,,,,,,,,2376.4300433999742,2376.4300433999742,2376.4300433999742,2376.4300433999742,2376.4300433999742,down,0.4602152000297792,10,0,0,99,0.4,-0.32,down,0.373439299990423,,,,,,,,,,,,,,,,,,,,,,,,,,,,,,,,,,,,,,,,,,,,,,,,,,,,,,,,,,,,6FUYD3,train_y,blue_star,top_right,2025-06-10_16h19.10.717,HideSeek_v1,2022.2.5,59.974187108809886,
,7,5,7,0,0,-5,66,,train_dim1_1,20,30,,,,2,0,2,0,,,,,,,,,0,0,0,0,0,19,19,19,4,0,4,0,,,,,,,,,,,,,,,,,,,,,,,,,,,,,,,,,,,,,,,,,,,,,,,,,,,,,,,,,,,,,,,,30,,,,,,,,2376.898291099991,2376.898291099991,2376.898291099991,2376.898291099991,2376.898291099991,down,0.34315169998444617,10,0,0,99,0.4,-0.4,down,0.2666821999591775,,,,,,,,,,,,,,,,,,,,,,,,,,,,,,,,,,,,,,,,,,,,,,,,,,,,,,,,,,,,6FUYD3,train_y,blue_star,top_right,2025-06-10_16h19.10.717,HideSeek_v1,2022.2.5,59.974187108809886,
,7,5,7,0,0,-5,66,,train_dim1_1,20,30,,,,2,0,2,0,,,,,,,,,0,0,0,0,0,19,19,19,5,0,5,0,,,,,,,,,,,,,,,,,,,,,,,,,,,,,,,,,,,,,,,,,,,,,,,,,,,,,,,,,,,,,,,,30,,,,,,,,2377.2493859999813,2377.2493859999813,2377.2493859999813,2377.2493859999813,2377.2493859999813,return,0.44307280000066385,11,0,0,1,0.4,-0.4,return,0.3610927000408992,-48,-1,0.4,-0.4,,,,,,,,,,,,,,,,,,,,,,,,,,,,,,,,,,,,,,,,,,,,,,,,,,,,,,,,6FUYD3,train_y,blue_star,top_right,2025-06-10_16h19.10.717,HideSeek_v1,2022.2.5,59.974187108809886,
,7,9,7,5,0,-4,65,,train_dim1_1,21,30,,,,2,0,2,0,,,,,,,,,0,0,0,0,0,20,20,20,0,0,0,0,,,,,,,,,,,,,,,,,,,,,,,,,stimuli/alien_stimuli/65.png,,,,,,,,,,,,,,,,,,,,,,,,,,,,,stimuli/alien_stimuli/66.png,66,7,22,,,,,,,30,,,,,,,,2381.2385380999767,2381.2385380999767,2381.2385380999767,2381.2385380999767,2381.2385380999767,down,1.0560692999861203,11,0,0,99,0.4,0.24,down,0.9710758000146598,,,,,2379.687284399988,2381.2385380999767,0.4,-0.4,0.4,0.0,-0.2,0.4,0.4,0.4,-0.4,2379.2432965000044,2379.2432965000044,2379.2432965000044,2379.2432965000044,2379.2432965000044,2379.2432965000044,2379.2432965000044,2379.2432965000044,2379.2363924199717,0.5357481999672018,return,0.42326210002647713,,,,,,,,,,,,,,,,,,,,,,,,,,,,,,,,,6FUYD3,train_y,blue_star,top_right,2025-06-10_16h19.10.717,HideSeek_v1,2022.2.5,59.974187108809886,
,7,9,7,5,0,-4,65,,train_dim1_1,21,30,,,,2,0,2,0,,,,,,,,,0,0,0,0,0,20,20,20,1,0,1,0,,,,,,,,,,,,,,,,,,,,,,,,,,,,,,,,,,,,,,,,,,,,,,,,,,,,,,,,,,,,,,,,30,,,,,,,,2382.303203999996,2382.303203999996,2382.303203999996,2382.303203999996,2382.303203999996,down,0.32568449998507276,11,0,0,99,0.4,0.15999999999999998,down,0.2446759000304155,,,,,,,,,,,,,,,,,,,,,,,,,,,,,,,,,,,,,,,,,,,,,,,,,,,,,,,,,,,,6FUYD3,train_y,blue_star,top_right,2025-06-10_16h19.10.717,HideSeek_v1,2022.2.5,59.974187108809886,
,7,9,7,5,0,-4,65,,train_dim1_1,21,30,,,,2,0,2,0,,,,,,,,,0,0,0,0,0,20,20,20,2,0,2,0,,,,,,,,,,,,,,,,,,,,,,,,,,,,,,,,,,,,,,,,,,,,,,,,,,,,,,,,,,,,,,,,30,,,,,,,,2382.6371709000086,2382.6371709000086,2382.6371709000086,2382.6371709000086,2382.6371709000086,down,0.30984040000475943,11,0,0,99,0.4,0.07999999999999997,down,0.22391320002498105,,,,,,,,,,,,,,,,,,,,,,,,,,,,,,,,,,,,,,,,,,,,,,,,,,,,,,,,,,,,6FUYD3,train_y,blue_star,top_right,2025-06-10_16h19.10.717,HideSeek_v1,2022.2.5,59.974187108809886,
,7,9,7,5,0,-4,65,,train_dim1_1,21,30,,,,2,0,2,0,,,,,,,,,0,0,0,0,0,20,20,20,3,0,3,0,,,,,,,,,,,,,,,,,,,,,,,,,,,,,,,,,,,,,,,,,,,,,,,,,,,,,,,,,,,,,,,,30,,,,,,,,2382.9532935000025,2382.9532935000025,2382.9532935000025,2382.9532935000025,2382.9532935000025,down,0.29344410001067445,11,0,0,99,0.4,-2.7755575615628914e-17,down,0.21337409998523071,,,,,,,,,,,,,,,,,,,,,,,,,,,,,,,,,,,,,,,,,,,,,,,,,,,,,,,,,,,,6FUYD3,train_y,blue_star,top_right,2025-06-10_16h19.10.717,HideSeek_v1,2022.2.5,59.974187108809886,
,7,9,7,5,0,-4,65,,train_dim1_1,21,30,,,,2,0,2,0,,,,,,,,,0,0,0,0,0,20,20,20,4,0,4,0,,,,,,,,,,,,,,,,,,,,,,,,,,,,,,,,,,,,,,,,,,,,,,,,,,,,,,,,,,,,,,,,30,,,,,,,,2383.2535276999697,2383.2535276999697,2383.2535276999697,2383.2535276999697,2383.2535276999697,return,0.39317779999691993,12,0,0,1,0.4,-2.7755575615628914e-17,return,0.313564200012479,-52,-1,0.4,-2.7755575615628914e-17,,,,,,,,,,,,,,,,,,,,,,,,,,,,,,,,,,,,,,,,,,,,,,,,,,,,,,,,6FUYD3,train_y,blue_star,top_right,2025-06-10_16h19.10.717,HideSeek_v1,2022.2.5,59.974187108809886,
,5,7,5,4,0,-3,64,,train_dim1_1,22,30,,,,2,0,2,0,,,,,,,,,0,0,0,0,0,21,21,21,0,0,0,0,,,,,,,,,,,,,,,,,,,,,,,,,stimuli/alien_stimuli/64.png,,,,,,,,,,,,,,,,,,,,,,,,,,,,,stimuli/alien_stimuli/65.png,65,7,23,,,,,,,30,,,,,,,,2387.2789213000215,2387.2789213000215,2387.2789213000215,2387.2789213000215,2387.2789213000215,down,2.472326899995096,12,0,0,99,0.24,0.08,down,2.3984648999758065,,,,,2385.725648099964,2387.2789213000215,0.4,0,0.32,0.0,0.16,0.4,0.4,0.4,0,2385.1993914999766,2385.1993914999766,2385.1993914999766,2385.1993914999766,2385.1993914999766,2385.1993914999766,2385.1993914999766,2385.1993914999766,2385.1911200200093,0.6197894999640994,return,0.5047325000050478,,,,,,,,,,,,,,,,,,,,,,,,,,,,,,,,,6FUYD3,train_y,blue_star,top_right,2025-06-10_16h19.10.717,HideSeek_v1,2022.2.5,59.974187108809886,
,5,7,5,4,0,-3,64,,train_dim1_1,22,30,,,,2,0,2,0,,,,,,,,,0,0,0,0,0,21,21,21,1,0,1,0,,,,,,,,,,,,,,,,,,,,,,,,,,,,,,,,,,,,,,,,,,,,,,,,,,,,,,,,,,,,,,,,30,,,,,,,,2389.7575817999896,2389.7575817999896,2389.7575817999896,2389.7575817999896,2389.7575817999896,down,0.2771410000277683,12,0,0,99,0.24,0.0,down,0.20194780000019819,,,,,,,,,,,,,,,,,,,,,,,,,,,,,,,,,,,,,,,,,,,,,,,,,,,,,,,,,,,,6FUYD3,train_y,blue_star,top_right,2025-06-10_16h19.10.717,HideSeek_v1,2022.2.5,59.974187108809886,
,5,7,5,4,0,-3,64,,train_dim1_1,22,30,,,,2,0,2,0,,,,,,,,,0,0,0,0,0,21,21,21,2,0,2,0,,,,,,,,,,,,,,,,,,,,,,,,,,,,,,,,,,,,,,,,,,,,,,,,,,,,,,,,,,,,,,,,30,,,,,,,,2390.0430831999984,2390.0430831999984,2390.0430831999984,2390.0430831999984,2390.0430831999984,down,0.29272920003859326,12,0,0,99,0.24,-0.08,down,0.20543010003166273,,,,,,,,,,,,,,,,,,,,,,,,,,,,,,,,,,,,,,,,,,,,,,,,,,,,,,,,,,,,6FUYD3,train_y,blue_star,top_right,2025-06-10_16h19.10.717,HideSeek_v1,2022.2.5,59.974187108809886,
,5,7,5,4,0,-3,64,,train_dim1_1,22,30,,,,2,0,2,0,,,,,,,,,0,0,0,0,0,21,21,21,3,0,3,0,,,,,,,,,,,,,,,,,,,,,,,,,,,,,,,,,,,,,,,,,,,,,,,,,,,,,,,,,,,,,,,,30,,,,,,,,2390.3435474999715,2390.3435474999715,2390.3435474999715,2390.3435474999715,2390.3435474999715,return,0.326347500027623,13,0,0,1,0.24,-0.08,return,0.24256280000554398,-55,-1,0.24,-0.08,,,,,,,,,,,,,,,,,,,,,,,,,,,,,,,,,,,,,,,,,,,,,,,,,,,,,,,,6FUYD3,train_y,blue_star,top_right,2025-06-10_16h19.10.717,HideSeek_v1,2022.2.5,59.974187108809886,
,5,8,5,8,0,0,61,,train_dim1_1,23,30,,,,2,0,2,0,,,,,,,,,0,0,0,0,0,22,22,22,0,0,0,0,,,,,,,,,,,,,,,,,,,,,,,,,stimuli/alien_stimuli/61.png,,,,,,,,,,,,,,,,,,,,,,,,,,,,,stimuli/alien_stimuli/64.png,64,5,24,,,,,,,30,,,,,,,,2394.30178769998,2394.30178769998,2394.30178769998,2394.30178769998,2394.30178769998,return,8.711013699998148,14,0,0,1,0.24,0.24,return,8.636580399994273,-55,-1,0.24,0.24,2392.748043200001,2394.30178769998,0.24,-0.08,0.24,0.0,0.04,0.24,0.24,0.24,-0.08,2392.222746799991,2392.222746799991,2392.222746799991,2392.222746799991,2392.222746799991,2392.222746799991,2392.222746799991,2392.222746799991,2392.213655820012,0.6192337000393309,return,0.5082309000426903,,,,,,,,,,,,,,,,,,,,,,,,,,,,,,,,,6FUYD3,train_y,blue_star,top_right,2025-06-10_16h19.10.717,HideSeek_v1,2022.2.5,59.974187108809886,
,8,7,8,2,0,-5,66,,train_dim1_1,24,30,,,,2,0,2,0,,,,,,,,,0,0,0,0,0,23,23,23,0,0,0,0,,,,,,,,,,,,,,,,,,,,,,,,,stimuli/alien_stimuli/66.png,,,,,,,,,,,,,,,,,,,,,,,,,,,,,stimuli/alien_stimuli/61.png,61,5,25,,,,,,,30,,,,,,,,2408.146623799985,2408.146623799985,2408.146623799985,2408.146623799985,2408.146623799985,down,0.8372353999875486,14,0,0,99,0.48,0.08,down,0.7552033999818377,,,,,2406.5928456999827,2408.146623799985,0.24,0.24,0.0,0.0,0.24,0.24,0.24,0.24,0.24,2404.5870555000147,2404.5870555000147,2404.5870555000147,2404.5870555000147,2404.5870555000147,2404.5870555000147,2404.5870555000147,2404.5870555000147,2404.5741008399873,2.119998400041368,return,1.976369500043802,,,,,,,,,,,,,,,,,,,,,,,,,,,,,,,,,6FUYD3,train_y,blue_star,top_right,2025-06-10_16h19.10.717,HideSeek_v1,2022.2.5,59.974187108809886,
,8,7,8,2,0,-5,66,,train_dim1_1,24,30,,,,2,0,2,0,,,,,,,,,0,0,0,0,0,23,23,23,1,0,1,0,,,,,,,,,,,,,,,,,,,,,,,,,,,,,,,,,,,,,,,,,,,,,,,,,,,,,,,,,,,,,,,,30,,,,,,,,2408.9907748000114,2408.9907748000114,2408.9907748000114,2408.9907748000114,2408.9907748000114,down,0.2429128999938257,14,0,0,99,0.48,0.0,down,0.1589856999926269,,,,,,,,,,,,,,,,,,,,,,,,,,,,,,,,,,,,,,,,,,,,,,,,,,,,,,,,,,,,6FUYD3,train_y,blue_star,top_right,2025-06-10_16h19.10.717,HideSeek_v1,2022.2.5,59.974187108809886,
,8,7,8,2,0,-5,66,,train_dim1_1,24,30,,,,2,0,2,0,,,,,,,,,0,0,0,0,0,23,23,23,2,0,2,0,,,,,,,,,,,,,,,,,,,,,,,,,,,,,,,,,,,,,,,,,,,,,,,,,,,,,,,,,,,,,,,,30,,,,,,,,2409.2428438999923,2409.2428438999923,2409.2428438999923,2409.2428438999923,2409.2428438999923,down,0.25907359999837354,14,0,0,99,0.48,-0.08,down,0.17899889999534935,,,,,,,,,,,,,,,,,,,,,,,,,,,,,,,,,,,,,,,,,,,,,,,,,,,,,,,,,,,,6FUYD3,train_y,blue_star,top_right,2025-06-10_16h19.10.717,HideSeek_v1,2022.2.5,59.974187108809886,
,8,7,8,2,0,-5,66,,train_dim1_1,24,30,,,,2,0,2,0,,,,,,,,,0,0,0,0,0,23,23,23,3,0,3,0,,,,,,,,,,,,,,,,,,,,,,,,,,,,,,,,,,,,,,,,,,,,,,,,,,,,,,,,,,,,,,,,30,,,,,,,,2409.5092733000056,2409.5092733000056,2409.5092733000056,2409.5092733000056,2409.5092733000056,down,0.2601480999728665,14,0,0,99,0.48,-0.16,down,0.17696620000060648,,,,,,,,,,,,,,,,,,,,,,,,,,,,,,,,,,,,,,,,,,,,,,,,,,,,,,,,,,,,6FUYD3,train_y,blue_star,top_right,2025-06-10_16h19.10.717,HideSeek_v1,2022.2.5,59.974187108809886,
,8,7,8,2,0,-5,66,,train_dim1_1,24,30,,,,2,0,2,0,,,,,,,,,0,0,0,0,0,23,23,23,4,0,4,0,,,,,,,,,,,,,,,,,,,,,,,,,,,,,,,,,,,,,,,,,,,,,,,,,,,,,,,,,,,,,,,,30,,,,,,,,2409.774924599973,2409.774924599973,2409.774924599973,2409.774924599973,2409.774924599973,down,0.22637520002899691,14,0,0,99,0.48,-0.24,down,0.14815979998093098,,,,,,,,,,,,,,,,,,,,,,,,,,,,,,,,,,,,,,,,,,,,,,,,,,,,,,,,,,,,6FUYD3,train_y,blue_star,top_right,2025-06-10_16h19.10.717,HideSeek_v1,2022.2.5,59.974187108809886,
,8,7,8,2,0,-5,66,,train_dim1_1,24,30,,,,2,0,2,0,,,,,,,,,0,0,0,0,0,23,23,23,5,0,5,0,,,,,,,,,,,,,,,,,,,,,,,,,,,,,,,,,,,,,,,,,,,,,,,,,,,,,,,,,,,,,,,,30,,,,,,,,2410.0102111999877,2410.0102111999877,2410.0102111999877,2410.0102111999877,2410.0102111999877,return,0.3440081999870017,15,0,0,1,0.48,-0.24,return,0.26918509998358786,-60,-1,0.48,-0.24,,,,,,,,,,,,,,,,,,,,,,,,,,,,,,,,,,,,,,,,,,,,,,,,,,,,,,,,6FUYD3,train_y,blue_star,top_right,2025-06-10_16h19.10.717,HideSeek_v1,2022.2.5,59.974187108809886,
,8,8,8,7,0,-1,62,,train_dim1_1,25,30,,,,2,0,2,0,,,,,,,,,0,0,0,0,0,24,24,24,0,0,0,0,,,,,,,,,,,,,,,,,,,,,,,,,stimuli/alien_stimuli/62.png,,,,,,,,,,,,,,,,,,,,,,,,,,,,,stimuli/alien_stimuli/66.png,66,8,26,,,,,,,30,,,,,,,,2414.586079199973,2414.586079199973,2414.586079199973,2414.586079199973,2414.586079199973,down,1.0531029000412673,15,0,0,99,0.48,0.15999999999999998,down,0.9819436999969184,,,,,2413.031740800012,2414.586079199973,0.48,-0.24,0.4,0.0,-0.039999999999999994,0.48,0.48,0.48,-0.24,2411.9048152000178,2411.9048152000178,2411.9048152000178,2411.9048152000178,2411.9048152000178,2411.9048152000178,2411.9048152000178,2411.9048152000178,2411.8967703199714,1.219816200027708,return,1.107951799989678,,,,,,,,,,,,,,,,,,,,,,,,,,,,,,,,,6FUYD3,train_y,blue_star,top_right,2025-06-10_16h19.10.717,HideSeek_v1,2022.2.5,59.974187108809886,
,8,8,8,7,0,-1,62,,train_dim1_1,25,30,,,,2,0,2,0,,,,,,,,,0,0,0,0,0,24,24,24,1,0,1,0,,,,,,,,,,,,,,,,,,,,,,,,,,,,,,,,,,,,,,,,,,,,,,,,,,,,,,,,,,,,,,,,30,,,,,,,,2415.64742449997,2415.64742449997,2415.64742449997,2415.64742449997,2415.64742449997,return,0.242721899994649,16,0,0,1,0.48,0.15999999999999998,return,0.16242539999075234,-61,-1,0.48,0.15999999999999998,,,,,,,,,,,,,,,,,,,,,,,,,,,,,,,,,,,,,,,,,,,,,,,,,,,,,,,,6FUYD3,train_y,blue_star,top_right,2025-06-10_16h19.10.717,HideSeek_v1,2022.2.5,59.974187108809886,
,9,9,9,6,0,-3,64,,train_dim1_1,26,30,,,,2,0,2,0,,,,,,,,,0,0,0,0,0,25,25,25,0,0,0,0,,,,,,,,,,,,,,,,,,,,,,,,,stimuli/alien_stimuli/64.png,,,,,,,,,,,,,,,,,,,,,,,,,,,,,stimuli/alien_stimuli/62.png,62,8,27,,,,,,,30,,,,,,,,2419.7225143999676,2419.7225143999676,2419.7225143999676,2419.7225143999676,2419.7225143999676,down,1.4880370000028051,16,0,0,99,0.56,0.24,down,1.411192600033246,,,,,2418.169683999964,2419.7225143999676,0.48,0.16,0.08,0.0,0.2,0.48,0.48,0.48,0.16,2417.4423299999908,2417.4423299999908,2417.4423299999908,2417.4423299999908,2417.4423299999908,2417.4423299999908,2417.4423299999908,2417.4423299999908,2417.434624719969,0.8196637000073679,return,0.704933000029996,,,,,,,,,,,,,,,,,,,,,,,,,,,,,,,,,6FUYD3,train_y,blue_star,top_right,2025-06-10_16h19.10.717,HideSeek_v1,2022.2.5,59.974187108809886,
,9,9,9,6,0,-3,64,,train_dim1_1,26,30,,,,2,0,2,0,,,,,,,,,0,0,0,0,0,25,25,25,1,0,1,0,,,,,,,,,,,,,,,,,,,,,,,,,,,,,,,,,,,,,,,,,,,,,,,,,,,,,,,,,,,,,,,,30,,,,,,,,2421.2175012999796,2421.2175012999796,2421.2175012999796,2421.2175012999796,2421.2175012999796,down,0.2763803999987431,16,0,0,99,0.56,0.15999999999999998,down,0.19245589995989576,,,,,,,,,,,,,,,,,,,,,,,,,,,,,,,,,,,,,,,,,,,,,,,,,,,,,,,,,,,,6FUYD3,train_y,blue_star,top_right,2025-06-10_16h19.10.717,HideSeek_v1,2022.2.5,59.974187108809886,
,9,9,9,6,0,-3,64,,train_dim1_1,26,30,,,,2,0,2,0,,,,,,,,,0,0,0,0,0,25,25,25,2,0,2,0,,,,,,,,,,,,,,,,,,,,,,,,,,,,,,,,,,,,,,,,,,,,,,,,,,,,,,,,,,,,,,,,30,,,,,,,,2421.5025779000134,2421.5025779000134,2421.5025779000134,2421.5025779000134,2421.5025779000134,down,0.2764754999661818,16,0,0,99,0.56,0.07999999999999997,down,0.18772479996550828,,,,,,,,,,,,,,,,,,,,,,,,,,,,,,,,,,,,,,,,,,,,,,,,,,,,,,,,,,,,6FUYD3,train_y,blue_star,top_right,2025-06-10_16h19.10.717,HideSeek_v1,2022.2.5,59.974187108809886,
,9,9,9,6,0,-3,64,,train_dim1_1,26,30,,,,2,0,2,0,,,,,,,,,0,0,0,0,0,25,25,25,3,0,3,0,,,,,,,,,,,,,,,,,,,,,,,,,,,,,,,,,,,,,,,,,,,,,,,,,,,,,,,,,,,,,,,,30,,,,,,,,2421.784566999995,2421.784566999995,2421.784566999995,2421.784566999995,2421.784566999995,return,1.3765749000012875,17,0,0,1,0.56,0.07999999999999997,return,1.3035679000313394,-64,-1,0.56,0.07999999999999997,,,,,,,,,,,,,,,,,,,,,,,,,,,,,,,,,,,,,,,,,,,,,,,,,,,,,,,,6FUYD3,train_y,blue_star,top_right,2025-06-10_16h19.10.717,HideSeek_v1,2022.2.5,59.974187108809886,
,8,9,8,4,0,-5,66,,train_dim1_1,27,30,,,,2,0,2,0,,,,,,,,,0,0,0,0,0,26,26,26,0,0,0,0,,,,,,,,,,,,,,,,,,,,,,,,,stimuli/alien_stimuli/66.png,,,,,,,,,,,,,,,,,,,,,,,,,,,,,stimuli/alien_stimuli/64.png,64,9,28,,,,,,,30,,,,,,,,2426.762152499985,2426.762152499985,2426.762152499985,2426.762152499985,2426.762152499985,down,1.2547278000274673,17,0,0,99,0.48,0.24,down,1.1816608000081033,,,,,2425.2083897999837,2426.762152499985,0.56,0.08,0.24,0.0,0.2,0.56,0.56,0.56,0.08,2424.721640200005,2424.721640200005,2424.721640200005,2424.721640200005,2424.721640200005,2424.721640200005,2424.721640200005,2424.721640200005,2424.7075088200045,0.5853903999668546,return,0.4686076999641955,,,,,,,,,,,,,,,,,,,,,,,,,,,,,,,,,6FUYD3,train_y,blue_star,top_right,2025-06-10_16h19.10.717,HideSeek_v1,2022.2.5,59.974187108809886,
,8,9,8,4,0,-5,66,,train_dim1_1,27,30,,,,2,0,2,0,,,,,,,,,0,0,0,0,0,26,26,26,1,0,1,0,,,,,,,,,,,,,,,,,,,,,,,,,,,,,,,,,,,,,,,,,,,,,,,,,,,,,,,,,,,,,,,,30,,,,,,,,2428.023526099976,2428.023526099976,2428.023526099976,2428.023526099976,2428.023526099976,down,0.2928455999935977,17,0,0,99,0.48,0.15999999999999998,down,0.21717740001622587,,,,,,,,,,,,,,,,,,,,,,,,,,,,,,,,,,,,,,,,,,,,,,,,,,,,,,,,,,,,6FUYD3,train_y,blue_star,top_right,2025-06-10_16h19.10.717,HideSeek_v1,2022.2.5,59.974187108809886,
,8,9,8,4,0,-5,66,,train_dim1_1,27,30,,,,2,0,2,0,,,,,,,,,0,0,0,0,0,26,26,26,2,0,2,0,,,,,,,,,,,,,,,,,,,,,,,,,,,,,,,,,,,,,,,,,,,,,,,,,,,,,,,,,,,,,,,,30,,,,,,,,2428.3271531999926,2428.3271531999926,2428.3271531999926,2428.3271531999926,2428.3271531999926,down,0.31030110002029687,17,0,0,99,0.48,0.07999999999999997,down,0.21881620003841817,,,,,,,,,,,,,,,,,,,,,,,,,,,,,,,,,,,,,,,,,,,,,,,,,,,,,,,,,,,,6FUYD3,train_y,blue_star,top_right,2025-06-10_16h19.10.717,HideSeek_v1,2022.2.5,59.974187108809886,
,8,9,8,4,0,-5,66,,train_dim1_1,27,30,,,,2,0,2,0,,,,,,,,,0,0,0,0,0,26,26,26,3,0,3,0,,,,,,,,,,,,,,,,,,,,,,,,,,,,,,,,,,,,,,,,,,,,,,,,,,,,,,,,,,,,,,,,30,,,,,,,,2428.6427888000035,2428.6427888000035,2428.6427888000035,2428.6427888000035,2428.6427888000035,down,0.2931385000119917,17,0,0,99,0.48,-2.7755575615628914e-17,down,0.2087475000298582,,,,,,,,,,,,,,,,,,,,,,,,,,,,,,,,,,,,,,,,,,,,,,,,,,,,,,,,,,,,6FUYD3,train_y,blue_star,top_right,2025-06-10_16h19.10.717,HideSeek_v1,2022.2.5,59.974187108809886,
,8,9,8,4,0,-5,66,,train_dim1_1,27,30,,,,2,0,2,0,,,,,,,,,0,0,0,0,0,26,26,26,4,0,4,0,,,,,,,,,,,,,,,,,,,,,,,,,,,,,,,,,,,,,,,,,,,,,,,,,,,,,,,,,,,,,,,,30,,,,,,,,2428.9403164999676,2428.9403164999676,2428.9403164999676,2428.9403164999676,2428.9403164999676,down,0.2765127000166103,17,0,0,99,0.48,-0.08000000000000003,down,0.19556409999495372,,,,,,,,,,,,,,,,,,,,,,,,,,,,,,,,,,,,,,,,,,,,,,,,,,,,,,,,,,,,6FUYD3,train_y,blue_star,top_right,2025-06-10_16h19.10.717,HideSeek_v1,2022.2.5,59.974187108809886,
,8,9,8,4,0,-5,66,,train_dim1_1,27,30,,,,2,0,2,0,,,,,,,,,0,0,0,0,0,26,26,26,5,0,5,0,,,,,,,,,,,,,,,,,,,,,,,,,,,,,,,,,,,,,,,,,,,,,,,,,,,,,,,,,,,,,,,,30,,,,,,,,2429.22518020001,2429.22518020001,2429.22518020001,2429.22518020001,2429.22518020001,return,0.35999149997951463,18,0,0,1,0.48,-0.08000000000000003,return,0.2802007999853231,-69,-1,0.48,-0.08000000000000003,,,,,,,,,,,,,,,,,,,,,,,,,,,,,,,,,,,,,,,,,,,,,,,,,,,,,,,,6FUYD3,train_y,blue_star,top_right,2025-06-10_16h19.10.717,HideSeek_v1,2022.2.5,59.974187108809886,
,9,6,9,6,0,0,61,,train_dim1_1,28,30,,,,2,0,2,0,,,,,,,,,0,0,0,0,0,27,27,27,0,0,0,0,,,,,,,,,,,,,,,,,,,,,,,,,stimuli/alien_stimuli/61.png,,,,,,,,,,,,,,,,,,,,,,,,,,,,,stimuli/alien_stimuli/66.png,66,8,29,,,,,,,30,,,,,,,,2433.767223200004,2433.767223200004,2433.767223200004,2433.767223200004,2433.767223200004,return,2.2566037999931723,19,0,0,1,0.56,0.08,return,2.1678319999482483,-69,-1,0.56,0.08,2432.2141715000034,2433.767223200004,0.48,-0.08,0.4,0.0,0.12,0.48,0.48,0.48,-0.08,2431.1367888000095,2431.1367888000095,2431.1367888000095,2431.1367888000095,2431.1367888000095,2431.1367888000095,2431.1367888000095,2431.1367888000095,2431.129407620011,1.169652100012172,return,1.0502436999813654,,,,,,,,,,,,,,,,,,,,,,,,,,,,,,,,,6FUYD3,train_y,blue_star,top_right,2025-06-10_16h19.10.717,HideSeek_v1,2022.2.5,59.974187108809886,
,7,7,7,6,0,-1,62,,train_dim1_1,29,30,,,,2,0,2,0,,,,,,,,,0,0,0,0,0,28,28,28,0,0,0,0,,,,,,,,,,,,,,,,,,,,,,,,,stimuli/alien_stimuli/62.png,,,,,,,,,,,,,,,,,,,,,,,,,,,,,stimuli/alien_stimuli/61.png,61,9,30,,,,,,,30,,,,,,,,2439.571571699984,2439.571571699984,2439.571571699984,2439.571571699984,2439.571571699984,down,1.0554215000011027,19,0,0,99,0.4,0.08,down,0.9736964000039734,,,,,2438.01981670002,2439.571571699984,0.56,0.08,0.0,0.0,0.08,0.56,0.56,0.56,0.08,2437.5765651999973,2437.5765651999973,2437.5765651999973,2437.5765651999973,2437.5765651999973,2437.5765651999973,2437.5765651999973,2437.5765651999973,2437.5680856199588,0.5367320000077598,return,0.4257272999966517,,,,,,,,,,,,,,,,,,,,,,,,,,,,,,,,,6FUYD3,train_y,blue_star,top_right,2025-06-10_16h19.10.717,HideSeek_v1,2022.2.5,59.974187108809886,
,7,7,7,6,0,-1,62,,train_dim1_1,29,30,,,,2,0,2,0,,,,,,,,,0,0,0,0,0,28,28,28,1,0,1,0,,,,,,,,,,,,,,,,,,,,,,,,,,,,,,,,,,,,,,,,,,,,,,,,,,,,,,,,,,,,,,,,30,,,,,,,,2440.6348684999975,2440.6348684999975,2440.6348684999975,2440.6348684999975,2440.6348684999975,return,0.34277809999184683,20,0,0,1,0.4,0.08,return,0.26148469996405765,-70,-1,0.4,0.08,,,,,,,,,,,,,,,,,,,,,,,,,,,,,,,,,,,,,,,,,,,,,,,,,,,,,,,,6FUYD3,train_y,blue_star,top_right,2025-06-10_16h19.10.717,HideSeek_v1,2022.2.5,59.974187108809886,
,5,6,5,2,0,-4,65,,train_dim1_1,30,30,,,,2,0,2,0,,,,,,,,,0,0,0,0,0,29,29,29,0,0,0,0,,,,,,,,,,,,,,,,,,,,,,,,,stimuli/alien_stimuli/65.png,,,,,,,,,,,,,,,,,,,,,,,,,,,,,stimuli/alien_stimuli/62.png,62,7,31,,,,,,,30,,,,,,,,2444.492641400022,2444.492641400022,2444.492641400022,2444.492641400022,2444.492641400022,down,1.2376554000074975,20,0,0,99,0.24,0.0,down,1.1513885000022128,,,,,2442.939605499967,2444.492641400022,0.4,0.08,0.08,0.0,0.12,0.4,0.4,0.4,0.08,2442.5317862000084,2442.5317862000084,2442.5317862000084,2442.5317862000084,2442.5317862000084,2442.5317862000084,2442.5317862000084,2442.5317862000084,2442.5223647199573,0.5025616000057198,return,0.37909429997671396,,,,,,,,,,,,,,,,,,,,,,,,,,,,,,,,,6FUYD3,train_y,blue_star,top_right,2025-06-10_16h19.10.717,HideSeek_v1,2022.2.5,59.974187108809886,
,5,6,5,2,0,-4,65,,train_dim1_1,30,30,,,,2,0,2,0,,,,,,,,,0,0,0,0,0,29,29,29,1,0,1,0,,,,,,,,,,,,,,,,,,,,,,,,,,,,,,,,,,,,,,,,,,,,,,,,,,,,,,,,,,,,,,,,30,,,,,,,,2445.738333999994,2445.738333999994,2445.738333999994,2445.738333999994,2445.738333999994,down,0.35993139998754486,20,0,0,99,0.24,-0.08,down,0.28334079997148365,,,,,,,,,,,,,,,,,,,,,,,,,,,,,,,,,,,,,,,,,,,,,,,,,,,,,,,,,,,,6FUYD3,train_y,blue_star,top_right,2025-06-10_16h19.10.717,HideSeek_v1,2022.2.5,59.974187108809886,
,5,6,5,2,0,-4,65,,train_dim1_1,30,30,,,,2,0,2,0,,,,,,,,,0,0,0,0,0,29,29,29,2,0,2,0,,,,,,,,,,,,,,,,,,,,,,,,,,,,,,,,,,,,,,,,,,,,,,,,,,,,,,,,,,,,,,,,30,,,,,,,,2446.105578000017,2446.105578000017,2446.105578000017,2446.105578000017,2446.105578000017,down,0.40967929997714236,20,0,0,99,0.24,-0.16,down,0.3331484000082128,,,,,,,,,,,,,,,,,,,,,,,,,,,,,,,,,,,,,,,,,,,,,,,,,,,,,,,,,,,,6FUYD3,train_y,blue_star,top_right,2025-06-10_16h19.10.717,HideSeek_v1,2022.2.5,59.974187108809886,
,5,6,5,2,0,-4,65,,train_dim1_1,30,30,,,,2,0,2,0,,,,,,,,,0,0,0,0,0,29,29,29,3,0,3,0,,,,,,,,,,,,,,,,,,,,,,,,,,,,,,,,,,,,,,,,,,,,,,,,,,,,,,,,,,,,,,,,30,,,,,,,,2446.5247863999684,2446.5247863999684,2446.5247863999684,2446.5247863999684,2446.5247863999684,down,0.7080919000436552,20,0,0,99,0.24,-0.24,down,0.6308971999678761,,,,,,,,,,,,,,,,,,,,,,,,,,,,,,,,,,,,,,,,,,,,,,,,,,,,,,,,,,,,6FUYD3,train_y,blue_star,top_right,2025-06-10_16h19.10.717,HideSeek_v1,2022.2.5,59.974187108809886,
,5,6,5,2,0,-4,65,,train_dim1_1,30,30,,,,2,0,2,0,,,,,,,,,0,0,0,0,0,29,29,29,4,0,4,0,,,,,,,,,,,,,,,,,,,,,,,,,,,,,,,,,,,,,,,,,,,,,,,,,,,,,,,,,,,,,,,,30,,,,,,,,2447.2383369000163,2447.2383369000163,2447.2383369000163,2447.2383369000163,2447.2383369000163,return,0.49356460000853986,21,0,0,1,0.24,-0.24,return,0.4063997999764979,-74,-1,0.24,-0.24,,,,,,,,,,,,,,,,,,,,,,,,,,,,,,,,,,,,,,,,,,,,,,,,,,,,,,,,6FUYD3,train_y,blue_star,top_right,2025-06-10_16h19.10.717,HideSeek_v1,2022.2.5,59.974187108809886,
,,,,,,,,,,,30,,,,2,0,2,0,,,,,,,,,,,,,,,,,,,,,,,,,,,,,,,,,,,,,,,,,,,,,,,,,,,,,,,,,,,,,,,,,,,,,,,,,,stimuli/alien_stimuli/65.png,65,5,32,21,0.7,0.875,1,1,1,30,0,conditions/schedules/train_y_first/blue_star_00/top_right/inputTrain_2.1.xlsx,99,1,2,1,0,,,,,,,,,,,1,,,,,,,,,2449.578769500018,2451.136931099987,0.24,-0.24,0.32,0.0,-0.07999999999999999,0.24,0.24,0.24,-0.24,2449.2844235000084,2449.2844235000084,2449.2844235000084,2449.2844235000084,2449.2844235000084,2449.2844235000084,2449.2844235000084,2449.2844235000084,2449.2778162199656,0.38567370001692325,return,0.2695442999829538,0,0.9,0,1,21,,,,,,,,,,,,,,,,,,,,,,,,,,,,6FUYD3,train_y,blue_star,top_right,2025-06-10_16h19.10.717,HideSeek_v1,2022.2.5,59.974187108809886,
,,,,,,,,,,,,,,,3,0,3,0,0,0,0,0,,,,,,,,,,,,,,,,,,,,,,,,,,,,,,,conditions/schedules/train_y_first/blue_star_00/top_right/instructions/Slide17.png,conditions/schedules/train_y_first/blue_star_00/top_right/instructions/Audio17.wav,2451.136931099987,2451.1295192799766,17,"[3.5006099000456743, 17.912955200008582, 16.46732890000567, 19.07127529999707, 4.322588499984704, 4.670048400002997, 5.136788599949796, 11.37024390004808, 5.648421999998391, 7.163617800048087, 9.986855200026184, 13.75920580001548, 16.925080300017726, 16.67828270001337, 42.94917830004124, 21.347154000017326, 49.21456789999502]","[0.0002212999970652163, 17.912962700007483, 0.014392499986570328, 0.05252919998019934, 0.014112499949987978, 0.0002147999475710094, 0.04809560003923252, 0.04882020002696663, 0.10770260001299903, 0.031006400007754564, 0.014571800013072789, 13.759212400007527, 0.03150619997177273, 16.67828940000618, 0.06274990004021674, 21.347160800010897, 49.214578399958555]",0,,,,,,,,,,,,,,,,,,,,,,,,,,,,,,,,,,,,,,,,,,,,,,,,,,,,,,,,,,,,,,,,,,,,,,,,,,,,,,,,,,,,,,,,,,,,,,,,,,,,,,,,,,,,,,,,,,,,,,,,,,,,6FUYD3,train_y,blue_star,top_right,2025-06-10_16h19.10.717,HideSeek_v1,2022.2.5,59.974187108809886,
,,,,,,,,,,,,,,,3,0,3,0,1,0,1,0,,,,,,,,,,,,,,,,,,,,,,,,,,,,,,,conditions/schedules/train_y_first/blue_star_00/top_right/instructions/Slide18.png,conditions/schedules/train_y_first/blue_star_00/top_right/instructions/Audio18.wav,2500.413904700021,2500.4037596799785,18,"[3.5006099000456743, 17.912955200008582, 16.46732890000567, 19.07127529999707, 4.322588499984704, 4.670048400002997, 5.136788599949796, 11.37024390004808, 5.648421999998391, 7.163617800048087, 9.986855200026184, 13.75920580001548, 16.925080300017726, 16.67828270001337, 42.94917830004124, 21.347154000017326, 49.21456789999502, 5.5588764999993145]","[0.0002212999970652163, 17.912962700007483, 0.014392499986570328, 0.05252919998019934, 0.014112499949987978, 0.0002147999475710094, 0.04809560003923252, 0.04882020002696663, 0.10770260001299903, 0.031006400007754564, 0.014571800013072789, 13.759212400007527, 0.03150619997177273, 16.67828940000618, 0.06274990004021674, 21.347160800010897, 0.033842200005892664, 5.558882999990601]",0,,,,,,,,,,,,,,,,,,,,,,,,,,,,,,,,,,,,,,,,,,,,,,,,,,,,,,,,,,,,,,,,,,,,,,,,,,,,,,,,,,,,,,,,,,,,,,,,,,,,,,,,,,,,,,,,,,,,,,,,,,,,6FUYD3,train_y,blue_star,top_right,2025-06-10_16h19.10.717,HideSeek_v1,2022.2.5,59.974187108809886,
,,,,,,,,,,,,,,,3,0,3,0,2,0,2,0,,,,,,,,,,,,,,,,,,,,,,,,,,,,,,,conditions/schedules/train_y_first/blue_star_00/top_right/instructions/Slide19.png,conditions/schedules/train_y_first/blue_star_00/top_right/instructions/Audio19.wav,2506.0266964000184,2506.02512117998,19,"[3.5006099000456743, 17.912955200008582, 16.46732890000567, 19.07127529999707, 4.322588499984704, 4.670048400002997, 5.136788599949796, 11.37024390004808, 5.648421999998391, 7.163617800048087, 9.986855200026184, 13.75920580001548, 16.925080300017726, 16.67828270001337, 42.94917830004124, 21.347154000017326, 49.21456789999502, 5.5588764999993145, 10.071857000002638]","[0.0002212999970652163, 17.912962700007483, 0.014392499986570328, 0.05252919998019934, 0.014112499949987978, 0.0002147999475710094, 0.04809560003923252, 0.04882020002696663, 0.10770260001299903, 0.031006400007754564, 0.014571800013072789, 13.759212400007527, 0.03150619997177273, 16.67828940000618, 0.06274990004021674, 21.347160800010897, 0.033842200005892664, 0.08065980003448203, 10.071863699995447]",0,,,,,,,,,,,,,,,,,,,,,,,,,,,,,,,,,,,,,,,,,,,,,,,,,,,,,,,,,,,,,,,,,,,,,,,,,,,,,,,,,,,,,,,,,,,,,,,,,,,,,,,,,,,,,,,,,,,,,,,,,,,,6FUYD3,train_y,blue_star,top_right,2025-06-10_16h19.10.717,HideSeek_v1,2022.2.5,59.974187108809886,
,,,,,,,,,,,,,,,3,0,3,0,3,0,3,0,,,,,,,,,,,,,,,,,,,,,,,,,,,,,,,conditions/schedules/train_y_first/blue_star_00/top_right/instructions/Slide20.png,conditions/schedules/train_y_first/blue_star_00/top_right/instructions/Audio20.wav,2516.152251899999,2516.1502510799796,20,"[3.5006099000456743, 17.912955200008582, 16.46732890000567, 19.07127529999707, 4.322588499984704, 4.670048400002997, 5.136788599949796, 11.37024390004808, 5.648421999998391, 7.163617800048087, 9.986855200026184, 13.75920580001548, 16.925080300017726, 16.67828270001337, 42.94917830004124, 21.347154000017326, 49.21456789999502, 5.5588764999993145, 10.071857000002638, 12.689804700028617]","[0.0002212999970652163, 17.912962700007483, 0.014392499986570328, 0.05252919998019934, 0.014112499949987978, 0.0002147999475710094, 0.04809560003923252, 0.04882020002696663, 0.10770260001299903, 0.031006400007754564, 0.014571800013072789, 13.759212400007527, 0.03150619997177273, 16.67828940000618, 0.06274990004021674, 21.347160800010897, 0.033842200005892664, 0.08065980003448203, 0.014151800016406924, 12.68981170002371]",0,,,,,,,,,,,,,,,,,,,,,,,,,,,,,,,,,,,,,,,,,,,,,,,,,,,,,,,,,,,,,,,,,,,,,,,,,,,,,,,,,,,,,,,,,,,,,,,,,,,,,,,,,,,,,,,,,,,,,,,,,,,,6FUYD3,train_y,blue_star,top_right,2025-06-10_16h19.10.717,HideSeek_v1,2022.2.5,59.974187108809886,
1,9,5,4,5,-5,0,11,2,instr_dim1_2,,,,,,3,0,3,0,,,,,0,0,0,0,,,,,,,,,,,,,,,,,,,,,,,,,,,,,,,,,,,,,stimuli/alien_stimuli/11.png,conditions/schedules/train_y_first/blue_star_00/top_right/inputInstr_2.xlsx,stimuli/alien_stimuli/11.png,2528.9487722999766,2528.9487722999766,2528.9487722999766,2528.9487722999766,2528.9437224400117,return,8.552617300010752,"[-0.16, -0.08, 0, 0.08, 0.16, 0.24, 0.32, 0.4, 0.48, 0.56]","[-0.4, -0.32, -0.24, -0.16, -0.08, 0, 0.08, 0.16, 0.24, 0.32]",5,5,4,9,0.0,0.4,2537.659155000001,2537.659155000001,2537.659155000001,2537.659155000001,2537.659155000001,2537.659155000001,2537.659155000001,2537.650698979956,6.889764099963941,return,6.720255899999756,stimuli/alien_stimuli/11.png,11,9,1,,,,,,,,,,,,,,,,,,,,,,,,,,,,,,,,,,,,,,,,,,,,,,,,,,,,,,,,,,,,,,,,,,,,,,,,,,,,,,,,,,,,,,,,,6FUYD3,train_y,blue_star,top_right,2025-06-10_16h19.10.717,HideSeek_v1,2022.2.5,59.974187108809886,
,,,,,,,,,,,30,,,,3,0,3,0,,,,,,,,,,,,,,,,,,,,,,,,,,,,,,,,,,,,,,,,,,,,,,,,,,,,,,,,,,,,,,,,,,,,,,,,,,,,,,21,0.7,0.875,1,99,2,30,0,conditions/schedules/train_y_first/blue_star_00/top_right/inputTrain_2.1.xlsx,99,1,2,1,0,,,,,,,,,,,,,,,,,,,,,,,,,,,,,,,,,,,,,,,,,,,,,,,,,,,,,,,,,,,,,,,,,,,,,,,,,,,6FUYD3,train_y,blue_star,top_right,2025-06-10_16h19.10.717,HideSeek_v1,2022.2.5,59.974187108809886,
,,,,,,,,,,,,,,,4,0,4,0,0,0,0,0,,,,,,,,,,,,,,,,,,,,,,,,,,,,,,,conditions/schedules/train_y_first/blue_star_00/top_right/instructions/Slide21.png,conditions/schedules/train_y_first/blue_star_00/top_right/instructions/Audio21.wav,2544.536336799967,2544.523137759976,21,"[3.5006099000456743, 17.912955200008582, 16.46732890000567, 19.07127529999707, 4.322588499984704, 4.670048400002997, 5.136788599949796, 11.37024390004808, 5.648421999998391, 7.163617800048087, 9.986855200026184, 13.75920580001548, 16.925080300017726, 16.67828270001337, 42.94917830004124, 21.347154000017326, 49.21456789999502, 5.5588764999993145, 10.071857000002638, 12.689804700028617, 12.795791300013661]","[0.0002212999970652163, 17.912962700007483, 0.014392499986570328, 0.05252919998019934, 0.014112499949987978, 0.0002147999475710094, 0.04809560003923252, 0.04882020002696663, 0.10770260001299903, 0.031006400007754564, 0.014571800013072789, 13.759212400007527, 0.03150619997177273, 16.67828940000618, 0.06274990004021674, 21.347160800010897, 0.033842200005892664, 0.08065980003448203, 0.014151800016406924, 12.68981170002371, 12.795799000014085]",0,,,,,,,,,,,,,,,,,,,,,,,,,,,,,,,,,,,,,,,,,,,,,,,,,,,,,,,,,,,,,,,,,,,,,,,,,,,,,,,,,,,,,,,,,,,,,,,,,,,,,,,,,,,,,,,,,,,,,,,,,,,,6FUYD3,train_y,blue_star,top_right,2025-06-10_16h19.10.717,HideSeek_v1,2022.2.5,59.974187108809886,
2,8,7,8,7,0,0,61,2,instr_dim1_2,,,,,,4,0,4,0,,,,,0,0,0,0,,,,,,,,,,,,,,,,,,,,,,,,,,,,,,,,,,,,,stimuli/alien_stimuli/61.png,conditions/schedules/train_y_first/blue_star_00/top_right/inputInstr_2.xlsx,stimuli/alien_stimuli/61.png,2557.4309923999826,2557.4309923999826,2557.4309923999826,2557.4309923999826,2557.41746961996,return,6.308485199988354,"[-0.16, -0.08, 0, 0.08, 0.16, 0.24, 0.32, 0.4, 0.48, 0.56]","[-0.4, -0.32, -0.24, -0.16, -0.08, 0, 0.08, 0.16, 0.24, 0.32]",7,7,8,8,0.0,0.0,2563.891705600021,2563.891705600021,2563.891705600021,2563.891705600021,2563.891705600021,2563.891705600021,2563.891705600021,2563.8725938600023,6.272519599995576,return,6.11463210004149,stimuli/alien_stimuli/61.png,61,8,2,,,,,,,,,,,,,,,,,,,,,,,,,,,,,,,,,,,,,,,,,,,,,,,,,,,,,,,,,,,,,,,,,,,,,,,,,,,,,,,,,,,,,,,,,6FUYD3,train_y,blue_star,top_right,2025-06-10_16h19.10.717,HideSeek_v1,2022.2.5,59.974187108809886,
,,,,,,,,,,,30,,,,4,0,4,0,,,,,,,,,,,,,,,,,,,,,,,,,,,,,,,,,,,,,,,,,,,,,,,,,,,,,,,,,,,,,,,,,,,,,,,,,,,,,,21,0.7,0.875,1,99,2,30,0,conditions/schedules/train_y_first/blue_star_00/top_right/inputTrain_2.1.xlsx,99,1,2,1,0,,,,,,,,,,,,,,,,,,,,,,,,,,,,,,,,,,,,,,,,,,,,,,,,,,,,,,,,,,,,,,,,,,,,,,,,,,,6FUYD3,train_y,blue_star,top_right,2025-06-10_16h19.10.717,HideSeek_v1,2022.2.5,59.974187108809886,
,,,,,,,,,,,,,,,5,0,5,0,0,0,0,0,,,,,,,,,,,,,,,,,,,,,,,,,,,,,,,conditions/schedules/train_y_first/blue_star_00/top_right/instructions/Slide22.png,conditions/schedules/train_y_first/blue_star_00/top_right/instructions/Audio22.wav,2570.1671007999685,2570.160989679967,22,"[3.5006099000456743, 17.912955200008582, 16.46732890000567, 19.07127529999707, 4.322588499984704, 4.670048400002997, 5.136788599949796, 11.37024390004808, 5.648421999998391, 7.163617800048087, 9.986855200026184, 13.75920580001548, 16.925080300017726, 16.67828270001337, 42.94917830004124, 21.347154000017326, 49.21456789999502, 5.5588764999993145, 10.071857000002638, 12.689804700028617, 12.795791300013661, 31.71851350000361]","[0.0002212999970652163, 17.912962700007483, 0.014392499986570328, 0.05252919998019934, 0.014112499949987978, 0.0002147999475710094, 0.04809560003923252, 0.04882020002696663, 0.10770260001299903, 0.031006400007754564, 0.014571800013072789, 13.759212400007527, 0.03150619997177273, 16.67828940000618, 0.06274990004021674, 21.347160800010897, 0.033842200005892664, 0.08065980003448203, 0.014151800016406924, 12.68981170002371, 12.795799000014085, 31.71852019999642]",0,,,,,,,,,,,,,,,,,,,,,,,,,,,,,,,,,,,,,,,,,,,,,,,,,,,,,,,,,,,,,,,,,,,,,,,,,,,,,,,,,,,,,,,,,,,,,,,,,,,,,,,,,,,,,,,,,,,,,,,,,,,,6FUYD3,train_y,blue_star,top_right,2025-06-10_16h19.10.717,HideSeek_v1,2022.2.5,59.974187108809886,
,7,6,4,6,-3,0,31,,train_dim1_2,1,30,,,,5,0,5,0,,,,,,,,,0,0,0,0,0,0,0,0,0,0,0,0,,,,,,,,,,,,,,,,,,,,,,,,,stimuli/alien_stimuli/31.png,,,,,,,,,,,,,,,,,,,,,,,,,,,,,,,,,,,,,,,30,,,,,,,,2601.9871839999687,2601.9871839999687,2601.9871839999687,2601.9871839999687,2601.9871839999687,left,3.6469605999882333,0,0,0,99,0.32,0.08,left,3.543452499958221,,,,,,,,,,,,,,,,,,,,,,,,,,,,,,,,,,,,,,,,,,,,,,,,,,,,,,,,,,,,6FUYD3,train_y,blue_star,top_right,2025-06-10_16h19.10.717,HideSeek_v1,2022.2.5,59.974187108809886,
,7,6,4,6,-3,0,31,,train_dim1_2,1,30,,,,5,0,5,0,,,,,,,,,0,0,0,0,0,0,0,0,1,0,1,0,,,,,,,,,,,,,,,,,,,,,,,,,,,,,,,,,,,,,,,,,,,,,,,,,,,,,,,,,,,,,,,,30,,,,,,,,2605.625333999982,2605.625333999982,2605.625333999982,2605.625333999982,2605.625333999982,left,0.4069976999890059,0,0,0,99,0.24,0.08,left,0.32661199994618073,,,,,,,,,,,,,,,,,,,,,,,,,,,,,,,,,,,,,,,,,,,,,,,,,,,,,,,,,,,,6FUYD3,train_y,blue_star,top_right,2025-06-10_16h19.10.717,HideSeek_v1,2022.2.5,59.974187108809886,
,7,6,4,6,-3,0,31,,train_dim1_2,1,30,,,,5,0,5,0,,,,,,,,,0,0,0,0,0,0,0,0,2,0,2,0,,,,,,,,,,,,,,,,,,,,,,,,,,,,,,,,,,,,,,,,,,,,,,,,,,,,,,,,,,,,,,,,30,,,,,,,,2606.0379348999704,2606.0379348999704,2606.0379348999704,2606.0379348999704,2606.0379348999704,left,0.35973339999327436,0,0,0,99,0.15999999999999998,0.08,left,0.2818806999712251,,,,,,,,,,,,,,,,,,,,,,,,,,,,,,,,,,,,,,,,,,,,,,,,,,,,,,,,,,,,6FUYD3,train_y,blue_star,top_right,2025-06-10_16h19.10.717,HideSeek_v1,2022.2.5,59.974187108809886,
,7,6,4,6,-3,0,31,,train_dim1_2,1,30,,,,5,0,5,0,,,,,,,,,0,0,0,0,0,0,0,0,3,0,3,0,,,,,,,,,,,,,,,,,,,,,,,,,,,,,,,,,,,,,,,,,,,,,,,,,,,,,,,,,,,,,,,,30,,,,,,,,2606.4063790999935,2606.4063790999935,2606.4063790999935,2606.4063790999935,2606.4063790999935,return,0.5268556000082754,1,0,0,1,0.15999999999999998,0.08,return,0.43796670000301674,-74,-4,0.15999999999999998,0.08,,,,,,,,,,,,,,,,,,,,,,,,,,,,,,,,,,,,,,,,,,,,,,,,,,,,,,,,6FUYD3,train_y,blue_star,top_right,2025-06-10_16h19.10.717,HideSeek_v1,2022.2.5,59.974187108809886,
,7,9,2,9,-5,0,11,,train_dim1_2,2,30,,,,5,0,5,0,,,,,,,,,0,0,0,0,0,1,1,1,0,0,0,0,,,,,,,,,,,,,,,,,,,,,,,,,stimuli/alien_stimuli/11.png,,,,,,,,,,,,,,,,,,,,,,,,,,,,,stimuli/alien_stimuli/31.png,31,7,3,,,,,,,30,,,,,,,,2611.2138962000026,2611.2138962000026,2611.2138962000026,2611.2138962000026,2611.2138962000026,left,2.4372045999625698,1,0,0,99,0.32,0.32,left,2.322911800001748,,,,,2609.6281036,2611.2138962000026,0.16,0.08,0.0,0.24,0.08,0.16,0.28,0.16,0.08,2608.5146764999954,2608.5146764999954,2608.5146764999954,2608.5146764999954,2608.5146764999954,2608.5146764999954,2608.5146764999954,2608.5146764999954,2608.493140539993,1.23627569997916,return,1.0921292999992147,,,,,,,,,,,,,,,,,,,,,,,,,,,,,,,,,6FUYD3,train_y,blue_star,top_right,2025-06-10_16h19.10.717,HideSeek_v1,2022.2.5,59.974187108809886,
,7,9,2,9,-5,0,11,,train_dim1_2,2,30,,,,5,0,5,0,,,,,,,,,0,0,0,0,0,1,1,1,1,0,1,0,,,,,,,,,,,,,,,,,,,,,,,,,,,,,,,,,,,,,,,,,,,,,,,,,,,,,,,,,,,,,,,,30,,,,,,,,2613.6319761999766,2613.6319761999766,2613.6319761999766,2613.6319761999766,2613.6319761999766,left,0.3594116999884136,1,0,0,99,0.24,0.32,left,0.28404559998307377,,,,,,,,,,,,,,,,,,,,,,,,,,,,,,,,,,,,,,,,,,,,,,,,,,,,,,,,,,,,6FUYD3,train_y,blue_star,top_right,2025-06-10_16h19.10.717,HideSeek_v1,2022.2.5,59.974187108809886,
,7,9,2,9,-5,0,11,,train_dim1_2,2,30,,,,5,0,5,0,,,,,,,,,0,0,0,0,0,1,1,1,2,0,2,0,,,,,,,,,,,,,,,,,,,,,,,,,,,,,,,,,,,,,,,,,,,,,,,,,,,,,,,,,,,,,,,,30,,,,,,,,2614.0007272000075,2614.0007272000075,2614.0007272000075,2614.0007272000075,2614.0007272000075,left,0.44330009998520836,1,0,0,99,0.15999999999999998,0.32,left,0.36009750002995133,,,,,,,,,,,,,,,,,,,,,,,,,,,,,,,,,,,,,,,,,,,,,,,,,,,,,,,,,,,,6FUYD3,train_y,blue_star,top_right,2025-06-10_16h19.10.717,HideSeek_v1,2022.2.5,59.974187108809886,
,7,9,2,9,-5,0,11,,train_dim1_2,2,30,,,,5,0,5,0,,,,,,,,,0,0,0,0,0,1,1,1,3,0,3,0,,,,,,,,,,,,,,,,,,,,,,,,,,,,,,,,,,,,,,,,,,,,,,,,,,,,,,,,,,,,,,,,30,,,,,,,,2614.4503021999844,2614.4503021999844,2614.4503021999844,2614.4503021999844,2614.4503021999844,left,0.3767076999647543,1,0,0,99,0.07999999999999997,0.32,left,0.2958562999847345,,,,,,,,,,,,,,,,,,,,,,,,,,,,,,,,,,,,,,,,,,,,,,,,,,,,,,,,,,,,6FUYD3,train_y,blue_star,top_right,2025-06-10_16h19.10.717,HideSeek_v1,2022.2.5,59.974187108809886,
,7,9,2,9,-5,0,11,,train_dim1_2,2,30,,,,5,0,5,0,,,,,,,,,0,0,0,0,0,1,1,1,4,0,4,0,,,,,,,,,,,,,,,,,,,,,,,,,,,,,,,,,,,,,,,,,,,,,,,,,,,,,,,,,,,,,,,,30,,,,,,,,2614.8346108999685,2614.8346108999685,2614.8346108999685,2614.8346108999685,2614.8346108999685,left,0.3600439000292681,1,0,0,99,-2.7755575615628914e-17,0.32,left,0.27545940002892166,,,,,,,,,,,,,,,,,,,,,,,,,,,,,,,,,,,,,,,,,,,,,,,,,,,,,,,,,,,,6FUYD3,train_y,blue_star,top_right,2025-06-10_16h19.10.717,HideSeek_v1,2022.2.5,59.974187108809886,
,7,9,2,9,-5,0,11,,train_dim1_2,2,30,,,,5,0,5,0,,,,,,,,,0,0,0,0,0,1,1,1,5,0,5,0,,,,,,,,,,,,,,,,,,,,,,,,,,,,,,,,,,,,,,,,,,,,,,,,,,,,,,,,,,,,,,,,30,,,,,,,,2615.2003182999906,2615.2003182999906,2615.2003182999906,2615.2003182999906,2615.2003182999906,return,0.30995640001492575,2,0,0,1,-2.7755575615628914e-17,0.32,return,0.22763659997144714,-74,-9,-2.7755575615628914e-17,0.32,,,,,,,,,,,,,,,,,,,,,,,,,,,,,,,,,,,,,,,,,,,,,,,,,,,,,,,,6FUYD3,train_y,blue_star,top_right,2025-06-10_16h19.10.717,HideSeek_v1,2022.2.5,59.974187108809886,
,9,9,5,9,-4,0,21,,train_dim1_2,3,30,,,,5,0,5,0,,,,,,,,,0,0,0,0,0,2,2,2,0,0,0,0,,,,,,,,,,,,,,,,,,,,,,,,,stimuli/alien_stimuli/21.png,,,,,,,,,,,,,,,,,,,,,,,,,,,,,stimuli/alien_stimuli/11.png,11,7,4,,,,,,,30,,,,,,,,2619.456624499988,2619.456624499988,2619.456624499988,2619.456624499988,2619.456624499988,left,2.63957230001688,2,0,0,99,0.48000000000000004,0.32,left,2.545066999970004,,,,,2617.8849759000004,2619.456624499988,0,0.32,0.0,0.4,0.32,0,0.2,0,0.32,2617.0781906999764,2617.0781906999764,2617.0781906999764,2617.0781906999764,2617.0781906999764,2617.0781906999764,2617.0781906999764,2617.0781906999764,2617.0669527399823,0.9194983000052162,return,0.7823787000379525,,,,,,,,,,,,,,,,,,,,,,,,,,,,,,,,,6FUYD3,train_y,blue_star,top_right,2025-06-10_16h19.10.717,HideSeek_v1,2022.2.5,59.974187108809886,
,9,9,5,9,-4,0,21,,train_dim1_2,3,30,,,,5,0,5,0,,,,,,,,,0,0,0,0,0,2,2,2,1,0,1,0,,,,,,,,,,,,,,,,,,,,,,,,,,,,,,,,,,,,,,,,,,,,,,,,,,,,,,,,,,,,,,,,30,,,,,,,,2622.0906491000205,2622.0906491000205,2622.0906491000205,2622.0906491000205,2622.0906491000205,left,0.35957450000569224,2,0,0,99,0.4,0.32,left,0.2785966999945231,,,,,,,,,,,,,,,,,,,,,,,,,,,,,,,,,,,,,,,,,,,,,,,,,,,,,,,,,,,,6FUYD3,train_y,blue_star,top_right,2025-06-10_16h19.10.717,HideSeek_v1,2022.2.5,59.974187108809886,
,9,9,5,9,-4,0,21,,train_dim1_2,3,30,,,,5,0,5,0,,,,,,,,,0,0,0,0,0,2,2,2,2,0,2,0,,,,,,,,,,,,,,,,,,,,,,,,,,,,,,,,,,,,,,,,,,,,,,,,,,,,,,,,,,,,,,,,30,,,,,,,,2622.4552161999745,2622.4552161999745,2622.4552161999745,2622.4552161999745,2622.4552161999745,left,0.34322290000272915,2,0,0,99,0.32,0.32,left,0.25225510000018403,,,,,,,,,,,,,,,,,,,,,,,,,,,,,,,,,,,,,,,,,,,,,,,,,,,,,,,,,,,,6FUYD3,train_y,blue_star,top_right,2025-06-10_16h19.10.717,HideSeek_v1,2022.2.5,59.974187108809886,
,9,9,5,9,-4,0,21,,train_dim1_2,3,30,,,,5,0,5,0,,,,,,,,,0,0,0,0,0,2,2,2,3,0,3,0,,,,,,,,,,,,,,,,,,,,,,,,,,,,,,,,,,,,,,,,,,,,,,,,,,,,,,,,,,,,,,,,30,,,,,,,,2622.8066006000154,2622.8066006000154,2622.8066006000154,2622.8066006000154,2622.8066006000154,left,0.360215499997139,2,0,0,99,0.24,0.32,left,0.2765761999762617,,,,,,,,,,,,,,,,,,,,,,,,,,,,,,,,,,,,,,,,,,,,,,,,,,,,,,,,,,,,6FUYD3,train_y,blue_star,top_right,2025-06-10_16h19.10.717,HideSeek_v1,2022.2.5,59.974187108809886,
,9,9,5,9,-4,0,21,,train_dim1_2,3,30,,,,5,0,5,0,,,,,,,,,0,0,0,0,0,2,2,2,4,0,4,0,,,,,,,,,,,,,,,,,,,,,,,,,,,,,,,,,,,,,,,,,,,,,,,,,,,,,,,,,,,,,,,,30,,,,,,,,2623.174108200008,2623.174108200008,2623.174108200008,2623.174108200008,2623.174108200008,return,0.35993420000886545,3,0,0,1,0.24,0.32,return,0.28005330002633855,-74,-13,0.24,0.32,,,,,,,,,,,,,,,,,,,,,,,,,,,,,,,,,,,,,,,,,,,,,,,,,,,,,,,,6FUYD3,train_y,blue_star,top_right,2025-06-10_16h19.10.717,HideSeek_v1,2022.2.5,59.974187108809886,
