trialInstr,x_fixStart,y_fixStart,x_corrSteps,y_corrSteps,x_nrSteps,y_nrSteps,alienID,trialLength,version,trialTrain,praclen,testlen,trial_label,break_on_off,beforeExpLoop.thisRepN,beforeExpLoop.thisTrialN,beforeExpLoop.thisN,beforeExpLoop.thisIndex,mini_instr_trials.thisRepN,mini_instr_trials.thisTrialN,mini_instr_trials.thisN,mini_instr_trials.thisIndex,instrLoop.thisRepN,instrLoop.thisTrialN,instrLoop.thisN,instrLoop.thisIndex,repeat_prac.thisRepN,repeat_prac.thisTrialN,repeat_prac.thisN,repeat_prac.thisIndex,trainLoop.thisRepN,trainLoop.thisTrialN,trainLoop.thisN,trainLoop.thisIndex,moveLoop_train.thisRepN,moveLoop_train.thisTrialN,moveLoop_train.thisN,moveLoop_train.thisIndex,experiment.thisRepN,experiment.thisTrialN,experiment.thisN,experiment.thisIndex,moveLoop_test.thisRepN,moveLoop_test.thisTrialN,moveLoop_test.thisN,moveLoop_test.thisIndex,mini_instr2_trials.thisRepN,mini_instr2_trials.thisTrialN,mini_instr2_trials.thisN,mini_instr2_trials.thisIndex,start_all_time,url,slideStim,audioStim,slides.started,sounds.started,nextButton.numClicks,nextButton.timesOn,nextButton.timesOff,prev_but.numClicks,prev_but.timesOn,prev_but.timesOff,alienStim,instrFile,alienStim_instr,gridImage_instr.started,startPos_3.started,key_instr.started,alienImage_3.started,sounds_1.started,key_instr.keys,key_instr.rt,all_x,all_y,FBy_corrSteps,FBy_fixStart,FBx_corrSteps,FBx_fixStart,FBy_pathSize_check,FBx_pathSize_check,gridImage_9.started,alienImageFB_3.started,startPosFB_3.started,keyFB_3.started,pathLine_ydir_2.started,pathLine_xdir_2.started,alienFace_3.started,sounds_2.started,RTFB_instr,keyFB_3.keys,keyFB_3.rt,draw_alienStim,draw_alienID,test_x,nrepcount,perfthres,percthres,earlierperf,earlystop,nextPrac,fileidx,praclen,saveACC_train,pracFile,nextPrac_train,addNrep,fileidx_endr,repExp,showearly,gridImage_4.started,startPos.started,movePos.started,key_resp.started,alienImage.started,buttonPress_train,RTchoice_train,cumAcctrain,aCorr,saveACC_choice,corrAns,x_movePos_end,y_movePos_end,key_resp.keys,key_resp.rt,wLy_dir,wLx_dir,x_movePos,y_movePos,text_2.started,text_2.stopped,aft_x_corrPos,aft_y_corrPos,y_pathSize_check,x_pathSize_check,y_pathdirY,x_pathdirY,x_pathdirX,x_corrPos,y_corrPos,gridImage_6.started,alienImageFB_2.started,startPosFB_2.started,movePosFB_2.started,keyFB_2.started,pathLine_xdir.started,pathLine_ydir.started,alienFace.started,sounds_4.started,RT_FBtrain,keyFB_2.keys,keyFB_2.rt,saveACC_pre,ACC,within_saveACC_train,earlystop_wloop,cumAcctrain_check,gridImage_3.started,alienImage_test.started,startPos_test.started,movePos_test.started,key_resp_test.started,wLy_dir_test,wLx_dir_test,buttonPress_test,RTchoice_test,cumAcctest,corrAns_test,key_resp_test.keys,key_resp_test.rt,text_3.started,text_3.stopped,total_time,end_all_time,key_resp_3.keys,slides_2.started,sounds_3.started,nextButton_2.numClicks,nextButton_2.timesOn,nextButton_2.timesOff,prev_but_2.numClicks,prev_but_2.timesOn,prev_but_2.timesOff,bye.started,participant,train_first,00_coordinate,starting corner,date,expName,psychopyVersion,frameRate,
,,,,,,,,,,,,,,,0,0,0,0,0,0,0,0,,,,,,,,,,,,,,,,,,,,,,,,,,,,,start_all_time,testround,conditions/schedules/train_x_first/red_square_00/bottom_left/instructions/Slide1.png,conditions/schedules/train_x_first/red_square_00/bottom_left/instructions/Audio1.wav,1076.0684755998664,1076.012143713143,1,[6.759838200174272],[6.759850500151515],0,,,,,,,,,,,,,,,,,,,,,,,,,,,,,,,,,,,,,,,,,,,,,,,,,,,,,,,,,,,,,,,,,,,,,,,,,,,,,,,,,,,,,,,,,,,,,,,,,,,,,,,,,,,,,,,,,,,,,,,,,,,,6L7FFZ,train_x,red_square,bottom_left,2025-04-16_11h01.57.488,HideSeek_v1,2022.2.5,59.95394335107952,
,,,,,,,,,,,,,,,0,0,0,0,1,0,1,0,,,,,,,,,,,,,,,,,,,,,,,,,,,,,,,conditions/schedules/train_x_first/red_square_00/bottom_left/instructions/Slide2.png,conditions/schedules/train_x_first/red_square_00/bottom_left/instructions/Audio2.wav,1082.8471423997544,1082.8481374995317,2,"[6.759838200174272, 29.157388399820775]","[0.1486999997869134, 29.15739609999582]",0,,,,,,,,,,,,,,,,,,,,,,,,,,,,,,,,,,,,,,,,,,,,,,,,,,,,,,,,,,,,,,,,,,,,,,,,,,,,,,,,,,,,,,,,,,,,,,,,,,,,,,,,,,,,,,,,,,,,,,,,,,,,6L7FFZ,train_x,red_square,bottom_left,2025-04-16_11h01.57.488,HideSeek_v1,2022.2.5,59.95394335107952,
,,,,,,,,,,,,,,,0,0,0,0,2,0,2,0,,,,,,,,,,,,,,,,,,,,,,,,,,,,,,,conditions/schedules/train_x_first/red_square_00/bottom_left/instructions/Slide3.png,conditions/schedules/train_x_first/red_square_00/bottom_left/instructions/Audio3.wav,1112.0776474997401,1112.0723853998352,3,"[6.759838200174272, 29.157388399820775, 17.023104700259864]","[0.1486999997869134, 0.03195049986243248, 17.02311159996316]",0,,,,,,,,,,,,,,,,,,,,,,,,,,,,,,,,,,,,,,,,,,,,,,,,,,,,,,,,,,,,,,,,,,,,,,,,,,,,,,,,,,,,,,,,,,,,,,,,,,,,,,,,,,,,,,,,,,,,,,,,,,,,6L7FFZ,train_x,red_square,bottom_left,2025-04-16_11h01.57.488,HideSeek_v1,2022.2.5,59.95394335107952,
,,,,,,,,,,,,,,,0,0,0,0,3,0,3,0,,,,,,,,,,,,,,,,,,,,,,,,,,,,,,,conditions/schedules/train_x_first/red_square_00/bottom_left/instructions/Slide4.png,conditions/schedules/train_x_first/red_square_00/bottom_left/instructions/Audio4.wav,1129.1774645000696,1129.1698029998224,4,"[6.759838200174272, 29.157388399820775, 17.023104700259864, 19.690380500163883]","[0.1486999997869134, 0.03195049986243248, 0.03654809994623065, 19.69038730021566]",0,,,,,,,,,,,,,,,,,,,,,,,,,,,,,,,,,,,,,,,,,,,,,,,,,,,,,,,,,,,,,,,,,,,,,,,,,,,,,,,,,,,,,,,,,,,,,,,,,,,,,,,,,,,,,,,,,,,,,,,,,,,,6L7FFZ,train_x,red_square,bottom_left,2025-04-16_11h01.57.488,HideSeek_v1,2022.2.5,59.95394335107952,
,,,,,,,,,,,,,,,0,0,0,0,4,0,4,0,,,,,,,,,,,,,,,,,,,,,,,,,,,,,,,conditions/schedules/train_x_first/red_square_00/bottom_left/instructions/Slide5.png,conditions/schedules/train_x_first/red_square_00/bottom_left/instructions/Audio5.wav,1148.9379524998367,1148.9367446999531,5,"[6.759838200174272, 29.157388399820775, 17.023104700259864, 19.690380500163883, 4.683350200299174]","[0.1486999997869134, 0.03195049986243248, 0.03654809994623065, 0.04626940004527569, 4.683358900249004]",0,,,,,,,,,,,,,,,,,,,,,,,,,,,,,,,,,,,,,,,,,,,,,,,,,,,,,,,,,,,,,,,,,,,,,,,,,,,,,,,,,,,,,,,,,,,,,,,,,,,,,,,,,,,,,,,,,,,,,,,,,,,,6L7FFZ,train_x,red_square,bottom_left,2025-04-16_11h01.57.488,HideSeek_v1,2022.2.5,59.95394335107952,
,,,,,,,,,,,,,,,0,0,0,0,5,0,5,0,,,,,,,,,,,,,,,,,,,,,,,,,,,,,,,conditions/schedules/train_x_first/red_square_00/bottom_left/instructions/Slide6.png,conditions/schedules/train_x_first/red_square_00/bottom_left/instructions/Audio6.wav,1153.6759620998055,1153.6737609397621,6,"[6.759838200174272, 29.157388399820775, 17.023104700259864, 19.690380500163883, 4.683350200299174, 5.116195400245488]","[0.1486999997869134, 0.03195049986243248, 0.03654809994623065, 0.04626940004527569, 0.06438040034845471, 5.11620149994269]",0,,,,,,,,,,,,,,,,,,,,,,,,,,,,,,,,,,,,,,,,,,,,,,,,,,,,,,,,,,,,,,,,,,,,,,,,,,,,,,,,,,,,,,,,,,,,,,,,,,,,,,,,,,,,,,,,,,,,,,,,,,,,6L7FFZ,train_x,red_square,bottom_left,2025-04-16_11h01.57.488,HideSeek_v1,2022.2.5,59.95394335107952,
,,,,,,,,,,,,,,,0,0,0,0,6,0,6,0,,,,,,,,,,,,,,,,,,,,,,,,,,,,,,,conditions/schedules/train_x_first/red_square_00/bottom_left/instructions/Slide7.png,conditions/schedules/train_x_first/red_square_00/bottom_left/instructions/Audio7.wav,1158.843402700033,1158.8448083399796,7,"[6.759838200174272, 29.157388399820775, 17.023104700259864, 19.690380500163883, 4.683350200299174, 5.116195400245488, 5.603618700057268]","[0.1486999997869134, 0.03195049986243248, 0.03654809994623065, 0.04626940004527569, 0.06438040034845471, 0.11617950024083257, 5.603625400457531]",0,,,,,,,,,,,,,,,,,,,,,,,,,,,,,,,,,,,,,,,,,,,,,,,,,,,,,,,,,,,,,,,,,,,,,,,,,,,,,,,,,,,,,,,,,,,,,,,,,,,,,,,,,,,,,,,,,,,,,,,,,,,,6L7FFZ,train_x,red_square,bottom_left,2025-04-16_11h01.57.488,HideSeek_v1,2022.2.5,59.95394335107952,
,,,,,,,,,,,,,,,0,0,0,0,7,0,7,0,,,,,,,,,,,,,,,,,,,,,,,,,,,,,,,conditions/schedules/train_x_first/red_square_00/bottom_left/instructions/Slide8.png,conditions/schedules/train_x_first/red_square_00/bottom_left/instructions/Audio8.wav,1164.4993742997758,1164.499392839987,8,"[6.759838200174272, 29.157388399820775, 17.023104700259864, 19.690380500163883, 4.683350200299174, 5.116195400245488, 5.603618700057268, 12.657794400118291]","[0.1486999997869134, 0.03195049986243248, 0.03654809994623065, 0.04626940004527569, 0.06438040034845471, 0.11617950024083257, 0.11400109995156527, 12.657801500055939]",0,,,,,,,,,,,,,,,,,,,,,,,,,,,,,,,,,,,,,,,,,,,,,,,,,,,,,,,,,,,,,,,,,,,,,,,,,,,,,,,,,,,,,,,,,,,,,,,,,,,,,,,,,,,,,,,,,,,,,,,,,,,,6L7FFZ,train_x,red_square,bottom_left,2025-04-16_11h01.57.488,HideSeek_v1,2022.2.5,59.95394335107952,
,,,,,,,,,,,,,,,0,0,0,0,8,0,8,0,,,,,,,,,,,,,,,,,,,,,,,,,,,,,,,conditions/schedules/train_x_first/red_square_00/bottom_left/instructions/Slide9.png,conditions/schedules/train_x_first/red_square_00/bottom_left/instructions/Audio9.wav,1177.2270652996376,1177.2264843995217,9,"[6.759838200174272, 29.157388399820775, 17.023104700259864, 19.690380500163883, 4.683350200299174, 5.116195400245488, 5.603618700057268, 12.657794400118291, 6.368976500350982]","[0.1486999997869134, 0.03195049986243248, 0.03654809994623065, 0.04626940004527569, 0.06438040034845471, 0.11617950024083257, 0.11400109995156527, 0.0637292000465095, 6.368983400054276]",0,,,,,,,,,,,,,,,,,,,,,,,,,,,,,,,,,,,,,,,,,,,,,,,,,,,,,,,,,,,,,,,,,,,,,,,,,,,,,,,,,,,,,,,,,,,,,,,,,,,,,,,,,,,,,,,,,,,,,,,,,,,,6L7FFZ,train_x,red_square,bottom_left,2025-04-16_11h01.57.488,HideSeek_v1,2022.2.5,59.95394335107952,
,,,,,,,,,,,,,,,0,0,0,0,9,0,9,0,,,,,,,,,,,,,,,,,,,,,,,,,,,,,,,conditions/schedules/train_x_first/red_square_00/bottom_left/instructions/Slide10.png,conditions/schedules/train_x_first/red_square_00/bottom_left/instructions/Audio10.wav,1183.6355163999833,1183.6318743797485,10,"[6.759838200174272, 29.157388399820775, 17.023104700259864, 19.690380500163883, 4.683350200299174, 5.116195400245488, 5.603618700057268, 12.657794400118291, 6.368976500350982, 7.03313530003652]","[0.1486999997869134, 0.03195049986243248, 0.03654809994623065, 0.04626940004527569, 0.06438040034845471, 0.11617950024083257, 0.11400109995156527, 0.0637292000465095, 0.4608295001089573, 7.0331419999711215]",0,,,,,,,,,,,,,,,,,,,,,,,,,,,,,,,,,,,,,,,,,,,,,,,,,,,,,,,,,,,,,,,,,,,,,,,,,,,,,,,,,,,,,,,,,,,,,,,,,,,,,,,,,,,,,,,,,,,,,,,,,,,,6L7FFZ,train_x,red_square,bottom_left,2025-04-16_11h01.57.488,HideSeek_v1,2022.2.5,59.95394335107952,
,,,,,,,,,,,,,,,0,0,0,0,10,0,10,0,,,,,,,,,,,,,,,,,,,,,,,,,,,,,,,conditions/schedules/train_x_first/red_square_00/bottom_left/instructions/Slide11.png,conditions/schedules/train_x_first/red_square_00/bottom_left/instructions/Audio11.wav,1190.7420966997743,1190.737789399689,11,"[6.759838200174272, 29.157388399820775, 17.023104700259864, 19.690380500163883, 4.683350200299174, 5.116195400245488, 5.603618700057268, 12.657794400118291, 6.368976500350982, 7.03313530003652, 10.151621399912983]","[0.1486999997869134, 0.03195049986243248, 0.03654809994623065, 0.04626940004527569, 0.06438040034845471, 0.11617950024083257, 0.11400109995156527, 0.0637292000465095, 0.4608295001089573, 0.047125100158154964, 10.151628899853677]",0,,,,,,,,,,,,,,,,,,,,,,,,,,,,,,,,,,,,,,,,,,,,,,,,,,,,,,,,,,,,,,,,,,,,,,,,,,,,,,,,,,,,,,,,,,,,,,,,,,,,,,,,,,,,,,,,,,,,,,,,,,,,6L7FFZ,train_x,red_square,bottom_left,2025-04-16_11h01.57.488,HideSeek_v1,2022.2.5,59.95394335107952,
,,,,,,,,,,,,,,,0,0,0,0,11,0,11,0,,,,,,,,,,,,,,,,,,,,,,,,,,,,,,,conditions/schedules/train_x_first/red_square_00/bottom_left/instructions/Slide12.png,conditions/schedules/train_x_first/red_square_00/bottom_left/instructions/Audio12.wav,1200.9679570998996,1200.9629234995227,12,"[6.759838200174272, 29.157388399820775, 17.023104700259864, 19.690380500163883, 4.683350200299174, 5.116195400245488, 5.603618700057268, 12.657794400118291, 6.368976500350982, 7.03313530003652, 10.151621399912983, 12.970062599983066]","[0.1486999997869134, 0.03195049986243248, 0.03654809994623065, 0.04626940004527569, 0.06438040034845471, 0.11617950024083257, 0.11400109995156527, 0.0637292000465095, 0.4608295001089573, 0.047125100158154964, 0.030367599800229073, 12.970068600028753]",0,,,,,,,,,,,,,,,,,,,,,,,,,,,,,,,,,,,,,,,,,,,,,,,,,,,,,,,,,,,,,,,,,,,,,,,,,,,,,,,,,,,,,,,,,,,,,,,,,,,,,,,,,,,,,,,,,,,,,,,,,,,,6L7FFZ,train_x,red_square,bottom_left,2025-04-16_11h01.57.488,HideSeek_v1,2022.2.5,59.95394335107952,
1,3,2,8,2,5,0,66,2,instr_dim1_1,,,,,,0,0,0,0,,,,,0,0,0,0,,,,,,,,,,,,,,,,,,,,,,,,,,,,,,,,,,,,,stimuli/alien_stimuli/66.png,conditions/schedules/train_x_first/red_square_00/bottom_left/inputInstr_1.xlsx,stimuli/alien_stimuli/66.png,1214.0432811998762,1214.0432811998762,1214.0432811998762,1214.0432811998762,1214.0407116198448,return,9.384447500575334,"[-0.16, -0.08, 0, 0.08, 0.16, 0.24, 0.32, 0.4, 0.48, 0.56]","[-0.4, -0.32, -0.24, -0.16, -0.08, 0, 0.08, 0.16, 0.24, 0.32]",2,2,8,3,0.0,0.4,1223.5759091996588,1223.5759091996588,1223.5759091996588,1223.5759091996588,1223.5759091996588,1223.5759091996588,1223.5759091996588,1223.5650396796875,13.678776000160724,return,13.523789900355041,stimuli/alien_stimuli/66.png,66,3,1,,,,,,,,,,,,,,,,,,,,,,,,,,,,,,,,,,,,,,,,,,,,,,,,,,,,,,,,,,,,,,,,,,,,,,,,,,,,,,,,,,,,,,,,,6L7FFZ,train_x,red_square,bottom_left,2025-04-16_11h01.57.488,HideSeek_v1,2022.2.5,59.95394335107952,
,,,,,,,,,,,30,,,,0,0,0,0,,,,,,,,,,,,,,,,,,,,,,,,,,,,,,,,,,,,,,,,,,,,,,,,,,,,,,,,,,,,,,,,,,,,,,,,,,,,,,21,0.7,0,0,99,1,30,0,conditions/schedules/train_x_first/red_square_00/bottom_left/inputTrain_1.1.xlsx,99,1,1,1,0,,,,,,,,,,,,,,,,,,,,,,,,,,,,,,,,,,,,,,,,,,,,,,,,,,,,,,,,,,,,,,,,,,,,,,,,,,,6L7FFZ,train_x,red_square,bottom_left,2025-04-16_11h01.57.488,HideSeek_v1,2022.2.5,59.95394335107952,
,,,,,,,,,,,,,,,1,0,1,0,0,0,0,0,,,,,,,,,,,,,,,,,,,,,,,,,,,,,,,conditions/schedules/train_x_first/red_square_00/bottom_left/instructions/Slide13.png,conditions/schedules/train_x_first/red_square_00/bottom_left/instructions/Audio13.wav,1237.291969199665,1237.2929209595081,13,"[6.759838200174272, 29.157388399820775, 17.023104700259864, 19.690380500163883, 4.683350200299174, 5.116195400245488, 5.603618700057268, 12.657794400118291, 6.368976500350982, 7.03313530003652, 10.151621399912983, 12.970062599983066, 18.81479740003124]","[0.1486999997869134, 0.03195049986243248, 0.03654809994623065, 0.04626940004527569, 0.06438040034845471, 0.11617950024083257, 0.11400109995156527, 0.0637292000465095, 0.4608295001089573, 0.047125100158154964, 0.030367599800229073, 12.970068600028753, 18.81480439985171]",0,,,,,,,,,,,,,,,,,,,,,,,,,,,,,,,,,,,,,,,,,,,,,,,,,,,,,,,,,,,,,,,,,,,,,,,,,,,,,,,,,,,,,,,,,,,,,,,,,,,,,,,,,,,,,,,,,,,,,,,,,,,,6L7FFZ,train_x,red_square,bottom_left,2025-04-16_11h01.57.488,HideSeek_v1,2022.2.5,59.95394335107952,
,,,,,,,,,,,,,,,1,0,1,0,1,0,1,0,,,,,,,,,,,,,,,,,,,,,,,,,,,,,,,conditions/schedules/train_x_first/red_square_00/bottom_left/instructions/Slide14.png,conditions/schedules/train_x_first/red_square_00/bottom_left/instructions/Audio14.wav,1256.1801286996342,1256.1755650995765,14,"[6.759838200174272, 29.157388399820775, 17.023104700259864, 19.690380500163883, 4.683350200299174, 5.116195400245488, 5.603618700057268, 12.657794400118291, 6.368976500350982, 7.03313530003652, 10.151621399912983, 12.970062599983066, 18.81479740003124, 30.134458099957556]","[0.1486999997869134, 0.03195049986243248, 0.03654809994623065, 0.04626940004527569, 0.06438040034845471, 0.11617950024083257, 0.11400109995156527, 0.0637292000465095, 0.4608295001089573, 0.047125100158154964, 0.030367599800229073, 12.970068600028753, 0.00023079989477992058, 30.13446439988911]",0,,,,,,,,,,,,,,,,,,,,,,,,,,,,,,,,,,,,,,,,,,,,,,,,,,,,,,,,,,,,,,,,,,,,,,,,,,,,,,,,,,,,,,,,,,,,,,,,,,,,,,,,,,,,,,,,,,,,,,,,,,,,6L7FFZ,train_x,red_square,bottom_left,2025-04-16_11h01.57.488,HideSeek_v1,2022.2.5,59.95394335107952,
2,4,0,4,0,0,0,16,2,instr_dim1_1,,,,,,1,0,1,0,,,,,0,0,0,0,,,,,,,,,,,,,,,,,,,,,,,,,,,,,,,,,,,,,stimuli/alien_stimuli/16.png,conditions/schedules/train_x_first/red_square_00/bottom_left/inputInstr_1.xlsx,stimuli/alien_stimuli/16.png,1286.4181085000746,1286.4181085000746,1286.4181085000746,1286.4181085000746,1286.417255919846,return,13.005448200274259,"[-0.16, -0.08, 0, 0.08, 0.16, 0.24, 0.32, 0.4, 0.48, 0.56]","[-0.4, -0.32, -0.24, -0.16, -0.08, 0, 0.08, 0.16, 0.24, 0.32]",0,0,4,4,0.0,0.0,1299.5979038998485,1299.5979038998485,1299.5979038998485,1299.5979038998485,1299.5979038998485,1299.5979038998485,1299.5979038998485,1299.578454039665,7.306673999875784,return,7.126184400636703,stimuli/alien_stimuli/16.png,16,4,2,,,,,,,,,,,,,,,,,,,,,,,,,,,,,,,,,,,,,,,,,,,,,,,,,,,,,,,,,,,,,,,,,,,,,,,,,,,,,,,,,,,,,,,,,6L7FFZ,train_x,red_square,bottom_left,2025-04-16_11h01.57.488,HideSeek_v1,2022.2.5,59.95394335107952,
,,,,,,,,,,,30,,,,1,0,1,0,,,,,,,,,,,,,,,,,,,,,,,,,,,,,,,,,,,,,,,,,,,,,,,,,,,,,,,,,,,,,,,,,,,,,,,,,,,,,,21,0.7,0,0,99,1,30,0,conditions/schedules/train_x_first/red_square_00/bottom_left/inputTrain_1.1.xlsx,99,1,1,1,0,,,,,,,,,,,,,,,,,,,,,,,,,,,,,,,,,,,,,,,,,,,,,,,,,,,,,,,,,,,,,,,,,,,,,,,,,,,6L7FFZ,train_x,red_square,bottom_left,2025-04-16_11h01.57.488,HideSeek_v1,2022.2.5,59.95394335107952,
,,,,,,,,,,,,,,,2,0,2,0,0,0,0,0,,,,,,,,,,,,,,,,,,,,,,,,,,,,,,,conditions/schedules/train_x_first/red_square_00/bottom_left/instructions/Slide15.png,conditions/schedules/train_x_first/red_square_00/bottom_left/instructions/Audio15.wav,1306.9111923999153,1306.9009757996537,15,"[6.759838200174272, 29.157388399820775, 17.023104700259864, 19.690380500163883, 4.683350200299174, 5.116195400245488, 5.603618700057268, 12.657794400118291, 6.368976500350982, 7.03313530003652, 10.151621399912983, 12.970062599983066, 18.81479740003124, 30.134458099957556, 32.147111900150776]","[0.1486999997869134, 0.03195049986243248, 0.03654809994623065, 0.04626940004527569, 0.06438040034845471, 0.11617950024083257, 0.11400109995156527, 0.0637292000465095, 0.4608295001089573, 0.047125100158154964, 0.030367599800229073, 12.970068600028753, 0.00023079989477992058, 30.13446439988911, 32.147119800094515]",0,,,,,,,,,,,,,,,,,,,,,,,,,,,,,,,,,,,,,,,,,,,,,,,,,,,,,,,,,,,,,,,,,,,,,,,,,,,,,,,,,,,,,,,,,,,,,,,,,,,,,,,,,,,,,,,,,,,,,,,,,,,,6L7FFZ,train_x,red_square,bottom_left,2025-04-16_11h01.57.488,HideSeek_v1,2022.2.5,59.95394335107952,
,,,,,,,,,,,,,,,2,0,2,0,1,0,1,0,,,,,,,,,,,,,,,,,,,,,,,,,,,,,,,conditions/schedules/train_x_first/red_square_00/bottom_left/instructions/Slide16.png,conditions/schedules/train_x_first/red_square_00/bottom_left/instructions/Audio16.wav,1339.1290354998782,1339.1277908997145,16,"[6.759838200174272, 29.157388399820775, 17.023104700259864, 19.690380500163883, 4.683350200299174, 5.116195400245488, 5.603618700057268, 12.657794400118291, 6.368976500350982, 7.03313530003652, 10.151621399912983, 12.970062599983066, 18.81479740003124, 30.134458099957556, 32.147111900150776, 21.631152600049973]","[0.1486999997869134, 0.03195049986243248, 0.03654809994623065, 0.04626940004527569, 0.06438040034845471, 0.11617950024083257, 0.11400109995156527, 0.0637292000465095, 0.4608295001089573, 0.047125100158154964, 0.030367599800229073, 12.970068600028753, 0.00023079989477992058, 30.13446439988911, 0.08176789991557598, 21.63116019964218]",0,,,,,,,,,,,,,,,,,,,,,,,,,,,,,,,,,,,,,,,,,,,,,,,,,,,,,,,,,,,,,,,,,,,,,,,,,,,,,,,,,,,,,,,,,,,,,,,,,,,,,,,,,,,,,,,,,,,,,,,,,,,,6L7FFZ,train_x,red_square,bottom_left,2025-04-16_11h01.57.488,HideSeek_v1,2022.2.5,59.95394335107952,
,2,1,5,1,3,0,46,,train_dim1_1,1,30,,,,2,0,2,0,,,,,,,,,0,0,0,0,0,0,0,0,0,0,0,0,,,,,,,,,,,,,,,,,,,,,,,,,stimuli/alien_stimuli/46.png,,,,,,,,,,,,,,,,,,,,,,,,,,,,,,,,,,,,,,,30,,,,,,,,1360.8598475996405,1360.8598475996405,1360.8598475996405,1360.8598475996405,1360.8598475996405,up,3.543955599889159,0,0,0,99,0,-0.24,up,3.455473000649363,,,,,,,,,,,,,,,,,,,,,,,,,,,,,,,,,,,,,,,,,,,,,,,,,,,,,,,,,,,,6L7FFZ,train_x,red_square,bottom_left,2025-04-16_11h01.57.488,HideSeek_v1,2022.2.5,59.95394335107952,
,2,1,5,1,3,0,46,,train_dim1_1,1,30,,,,2,0,2,0,,,,,,,,,0,0,0,0,0,0,0,0,1,0,1,0,,,,,,,,,,,,,,,,,,,,,,,,,,,,,,,,,,,,,,,,,,,,,,,,,,,,,,,,,,,,,,,,30,,,,,,,,1364.396654699929,1364.396654699929,1364.396654699929,1364.396654699929,1364.396654699929,down,2.910759699996561,0,0,0,99,0,-0.32,down,2.834148900117725,,,,,,,,,,,,,,,,,,,,,,,,,,,,,,,,,,,,,,,,,,,,,,,,,,,,,,,,,,,,6L7FFZ,train_x,red_square,bottom_left,2025-04-16_11h01.57.488,HideSeek_v1,2022.2.5,59.95394335107952,
,2,1,5,1,3,0,46,,train_dim1_1,1,30,,,,2,0,2,0,,,,,,,,,0,0,0,0,0,0,0,0,2,0,2,0,,,,,,,,,,,,,,,,,,,,,,,,,,,,,,,,,,,,,,,,,,,,,,,,,,,,,,,,,,,,,,,,30,,,,,,,,1367.3148793000728,1367.3148793000728,1367.3148793000728,1367.3148793000728,1367.3148793000728,right,0.993962099775672,0,0,0,99,0.08,-0.32,right,0.909415100235492,,,,,,,,,,,,,,,,,,,,,,,,,,,,,,,,,,,,,,,,,,,,,,,,,,,,,,,,,,,,6L7FFZ,train_x,red_square,bottom_left,2025-04-16_11h01.57.488,HideSeek_v1,2022.2.5,59.95394335107952,
,2,1,5,1,3,0,46,,train_dim1_1,1,30,,,,2,0,2,0,,,,,,,,,0,0,0,0,0,0,0,0,3,0,3,0,,,,,,,,,,,,,,,,,,,,,,,,,,,,,,,,,,,,,,,,,,,,,,,,,,,,,,,,,,,,,,,,30,,,,,,,,1368.314346399624,1368.314346399624,1368.314346399624,1368.314346399624,1368.314346399624,right,0.5432155998423696,0,0,0,99,0.16,-0.32,right,0.4617665000259876,,,,,,,,,,,,,,,,,,,,,,,,,,,,,,,,,,,,,,,,,,,,,,,,,,,,,,,,,,,,6L7FFZ,train_x,red_square,bottom_left,2025-04-16_11h01.57.488,HideSeek_v1,2022.2.5,59.95394335107952,
,2,1,5,1,3,0,46,,train_dim1_1,1,30,,,,2,0,2,0,,,,,,,,,0,0,0,0,0,0,0,0,4,0,4,0,,,,,,,,,,,,,,,,,,,,,,,,,,,,,,,,,,,,,,,,,,,,,,,,,,,,,,,,,,,,,,,,30,,,,,,,,1368.8695580996573,1368.8695580996573,1368.8695580996573,1368.8695580996573,1368.8695580996573,right,0.4412527997046709,0,0,0,99,0.24,-0.32,right,0.3552214000374079,,,,,,,,,,,,,,,,,,,,,,,,,,,,,,,,,,,,,,,,,,,,,,,,,,,,,,,,,,,,6L7FFZ,train_x,red_square,bottom_left,2025-04-16_11h01.57.488,HideSeek_v1,2022.2.5,59.95394335107952,
,2,1,5,1,3,0,46,,train_dim1_1,1,30,,,,2,0,2,0,,,,,,,,,0,0,0,0,0,0,0,0,5,0,5,0,,,,,,,,,,,,,,,,,,,,,,,,,,,,,,,,,,,,,,,,,,,,,,,,,,,,,,,,,,,,,,,,30,,,,,,,,1369.3159832996316,1369.3159832996316,1369.3159832996316,1369.3159832996316,1369.3159832996316,right,0.4094937997870147,0,0,0,99,0.32,-0.32,right,0.33480390068143606,,,,,,,,,,,,,,,,,,,,,,,,,,,,,,,,,,,,,,,,,,,,,,,,,,,,,,,,,,,,6L7FFZ,train_x,red_square,bottom_left,2025-04-16_11h01.57.488,HideSeek_v1,2022.2.5,59.95394335107952,
,2,1,5,1,3,0,46,,train_dim1_1,1,30,,,,2,0,2,0,,,,,,,,,0,0,0,0,0,0,0,0,6,0,6,0,,,,,,,,,,,,,,,,,,,,,,,,,,,,,,,,,,,,,,,,,,,,,,,,,,,,,,,,,,,,,,,,30,,,,,,,,1369.7325984998606,1369.7325984998606,1369.7325984998606,1369.7325984998606,1369.7325984998606,right,0.4267248003743589,0,0,0,99,0.4,-0.32,right,0.35434130067005754,,,,,,,,,,,,,,,,,,,,,,,,,,,,,,,,,,,,,,,,,,,,,,,,,,,,,,,,,,,,6L7FFZ,train_x,red_square,bottom_left,2025-04-16_11h01.57.488,HideSeek_v1,2022.2.5,59.95394335107952,
,2,1,5,1,3,0,46,,train_dim1_1,1,30,,,,2,0,2,0,,,,,,,,,0,0,0,0,0,0,0,0,7,0,7,0,,,,,,,,,,,,,,,,,,,,,,,,,,,,,,,,,,,,,,,,,,,,,,,,,,,,,,,,,,,,,,,,30,,,,,,,,1370.1659049997106,1370.1659049997106,1370.1659049997106,1370.1659049997106,1370.1659049997106,right,0.460035499650985,0,0,0,99,0.48000000000000004,-0.32,right,0.3760783006437123,,,,,,,,,,,,,,,,,,,,,,,,,,,,,,,,,,,,,,,,,,,,,,,,,,,,,,,,,,,,6L7FFZ,train_x,red_square,bottom_left,2025-04-16_11h01.57.488,HideSeek_v1,2022.2.5,59.95394335107952,
,2,1,5,1,3,0,46,,train_dim1_1,1,30,,,,2,0,2,0,,,,,,,,,0,0,0,0,0,0,0,0,8,0,8,0,,,,,,,,,,,,,,,,,,,,,,,,,,,,,,,,,,,,,,,,,,,,,,,,,,,,,,,,,,,,,,,,30,,,,,,,,1370.633202899713,1370.633202899713,1370.633202899713,1370.633202899713,1370.633202899713,return,1.1610266999341547,0,0,0,0,0.48000000000000004,-0.32,return,1.0736481002531946,0,6,0.48000000000000004,-0.32,,,,,,,,,,,,,,,,,,,,,,,,,,,,,,,,,,,,,,,,,,,,,,,,,,,,,,,,6L7FFZ,train_x,red_square,bottom_left,2025-04-16_11h01.57.488,HideSeek_v1,2022.2.5,59.95394335107952,
,2,4,2,4,0,0,16,,train_dim1_1,2,30,,,,2,0,2,0,,,,,,,,,0,0,0,0,0,1,1,1,0,0,0,0,,,,,,,,,,,,,,,,,,,,,,,,,stimuli/alien_stimuli/16.png,,,,,,,,,,,,,,,,,,,,,,,,,,,,,stimuli/alien_stimuli/46.png,46,2,3,,,,,,,30,,,,,,,,1401.972213999834,1401.972213999834,1401.972213999834,1401.972213999834,1401.972213999834,return,5.994176999665797,1,0,0,1,0,-0.08,return,5.883119200356305,0,6,0,-0.08,1400.3952229996212,1401.972213999834,0.24,-0.32,0.0,0.24,-0.32,0.24,0.12,0.24,-0.32,1373.3671563998796,1373.3671563998796,1373.3671563998796,1373.3671563998796,1373.3671563998796,1373.3671563998796,1373.3671563998796,1373.3671563998796,1373.356131419493,27.14175790036097,return,27.00570800015703,,,,,,,,,,,,,,,,,,,,,,,,,,,,,,,,,6L7FFZ,train_x,red_square,bottom_left,2025-04-16_11h01.57.488,HideSeek_v1,2022.2.5,59.95394335107952,
,4,4,5,4,1,0,26,,train_dim1_1,3,30,,,,2,0,2,0,,,,,,,,,0,0,0,0,0,2,2,2,0,0,0,0,,,,,,,,,,,,,,,,,,,,,,,,,stimuli/alien_stimuli/26.png,,,,,,,,,,,,,,,,,,,,,,,,,,,,,stimuli/alien_stimuli/16.png,16,2,4,,,,,,,30,,,,,,,,1418.4258930999786,1418.4258930999786,1418.4258930999786,1418.4258930999786,1418.4258930999786,up,11.012311699800193,1,0,0,99,0.16,0.0,up,10.920465500559658,,,,,1416.858911999967,1418.4258930999786,0,-0.08,0.0,0.0,-0.08,0,0.0,0,-0.08,1409.5318661998026,1409.5318661998026,1409.5318661998026,1409.5318661998026,1409.5318661998026,1409.5318661998026,1409.5318661998026,1409.5318661998026,1409.5196192798205,7.458304699975997,return,7.297357200179249,,,,,,,,,,,,,,,,,,,,,,,,,,,,,,,,,6L7FFZ,train_x,red_square,bottom_left,2025-04-16_11h01.57.488,HideSeek_v1,2022.2.5,59.95394335107952,
,4,4,5,4,1,0,26,,train_dim1_1,3,30,,,,2,0,2,0,,,,,,,,,0,0,0,0,0,2,2,2,1,0,1,0,,,,,,,,,,,,,,,,,,,,,,,,,,,,,,,,,,,,,,,,,,,,,,,,,,,,,,,,,,,,,,,,30,,,,,,,,1429.4373665996827,1429.4373665996827,1429.4373665996827,1429.4373665996827,1429.4373665996827,up,0.5100882998667657,1,0,0,99,0.16,0.08,up,0.42894790042191744,,,,,,,,,,,,,,,,,,,,,,,,,,,,,,,,,,,,,,,,,,,,,,,,,,,,,,,,,,,,6L7FFZ,train_x,red_square,bottom_left,2025-04-16_11h01.57.488,HideSeek_v1,2022.2.5,59.95394335107952,
,4,4,5,4,1,0,26,,train_dim1_1,3,30,,,,2,0,2,0,,,,,,,,,0,0,0,0,0,2,2,2,2,0,2,0,,,,,,,,,,,,,,,,,,,,,,,,,,,,,,,,,,,,,,,,,,,,,,,,,,,,,,,,,,,,,,,,30,,,,,,,,1429.9566464000382,1429.9566464000382,1429.9566464000382,1429.9566464000382,1429.9566464000382,down,1.7939840997569263,1,0,0,99,0.16,0.0,down,1.708122500218451,,,,,,,,,,,,,,,,,,,,,,,,,,,,,,,,,,,,,,,,,,,,,,,,,,,,,,,,,,,,6L7FFZ,train_x,red_square,bottom_left,2025-04-16_11h01.57.488,HideSeek_v1,2022.2.5,59.95394335107952,
,4,4,5,4,1,0,26,,train_dim1_1,3,30,,,,2,0,2,0,,,,,,,,,0,0,0,0,0,2,2,2,3,0,3,0,,,,,,,,,,,,,,,,,,,,,,,,,,,,,,,,,,,,,,,,,,,,,,,,,,,,,,,,,,,,,,,,30,,,,,,,,1431.7552470997907,1431.7552470997907,1431.7552470997907,1431.7552470997907,1431.7552470997907,return,1.5105659002438188,1,0,0,0,0.16,0.0,return,1.4276086003519595,1,6,0.16,0.0,,,,,,,,,,,,,,,,,,,,,,,,,,,,,,,,,,,,,,,,,,,,,,,,,,,,,,,,6L7FFZ,train_x,red_square,bottom_left,2025-04-16_11h01.57.488,HideSeek_v1,2022.2.5,59.95394335107952,
,2,3,6,3,4,0,56,,train_dim1_1,4,30,,,,2,0,2,0,,,,,,,,,0,0,0,0,0,3,3,3,0,0,0,0,,,,,,,,,,,,,,,,,,,,,,,,,stimuli/alien_stimuli/56.png,,,,,,,,,,,,,,,,,,,,,,,,,,,,,stimuli/alien_stimuli/26.png,26,4,5,,,,,,,30,,,,,,,,1443.6456806999631,1443.6456806999631,1443.6456806999631,1443.6456806999631,1443.6456806999631,right,4.2720297002233565,1,0,0,99,0.08,-0.16,right,4.179653000552207,,,,,1442.079708099831,1443.6456806999631,0.24,-0.08,0.0,0.08,-0.08,0.24,0.2,0.24,-0.08,1434.8523225998506,1434.8523225998506,1434.8523225998506,1434.8523225998506,1434.8523225998506,1434.8523225998506,1434.8523225998506,1434.8523225998506,1434.8406874796376,7.358163400087506,return,7.1953891003504395,,,,,,,,,,,,,,,,,,,,,,,,,,,,,,,,,6L7FFZ,train_x,red_square,bottom_left,2025-04-16_11h01.57.488,HideSeek_v1,2022.2.5,59.95394335107952,
,2,3,6,3,4,0,56,,train_dim1_1,4,30,,,,2,0,2,0,,,,,,,,,0,0,0,0,0,3,3,3,1,0,1,0,,,,,,,,,,,,,,,,,,,,,,,,,,,,,,,,,,,,,,,,,,,,,,,,,,,,,,,,,,,,,,,,30,,,,,,,,1447.9224803997204,1447.9224803997204,1447.9224803997204,1447.9224803997204,1447.9224803997204,right,0.2254643002524972,1,0,0,99,0.16,-0.16,right,0.14067080058157444,,,,,,,,,,,,,,,,,,,,,,,,,,,,,,,,,,,,,,,,,,,,,,,,,,,,,,,,,,,,6L7FFZ,train_x,red_square,bottom_left,2025-04-16_11h01.57.488,HideSeek_v1,2022.2.5,59.95394335107952,
,2,3,6,3,4,0,56,,train_dim1_1,4,30,,,,2,0,2,0,,,,,,,,,0,0,0,0,0,3,3,3,2,0,2,0,,,,,,,,,,,,,,,,,,,,,,,,,,,,,,,,,,,,,,,,,,,,,,,,,,,,,,,,,,,,,,,,30,,,,,,,,1448.150244699791,1448.150244699791,1448.150244699791,1448.150244699791,1448.150244699791,right,0.293475900311023,1,0,0,99,0.24,-0.16,right,0.21723340032622218,,,,,,,,,,,,,,,,,,,,,,,,,,,,,,,,,,,,,,,,,,,,,,,,,,,,,,,,,,,,6L7FFZ,train_x,red_square,bottom_left,2025-04-16_11h01.57.488,HideSeek_v1,2022.2.5,59.95394335107952,
,2,3,6,3,4,0,56,,train_dim1_1,4,30,,,,2,0,2,0,,,,,,,,,0,0,0,0,0,3,3,3,3,0,3,0,,,,,,,,,,,,,,,,,,,,,,,,,,,,,,,,,,,,,,,,,,,,,,,,,,,,,,,,,,,,,,,,30,,,,,,,,1448.450609699823,1448.450609699823,1448.450609699823,1448.450609699823,1448.450609699823,right,0.3099663001485169,1,0,0,99,0.32,-0.16,right,0.2220328003168106,,,,,,,,,,,,,,,,,,,,,,,,,,,,,,,,,,,,,,,,,,,,,,,,,,,,,,,,,,,,6L7FFZ,train_x,red_square,bottom_left,2025-04-16_11h01.57.488,HideSeek_v1,2022.2.5,59.95394335107952,
,2,3,6,3,4,0,56,,train_dim1_1,4,30,,,,2,0,2,0,,,,,,,,,0,0,0,0,0,3,3,3,4,0,4,0,,,,,,,,,,,,,,,,,,,,,,,,,,,,,,,,,,,,,,,,,,,,,,,,,,,,,,,,,,,,,,,,30,,,,,,,,1448.7672418998554,1448.7672418998554,1448.7672418998554,1448.7672418998554,1448.7672418998554,right,0.2598949000239372,1,0,0,99,0.4,-0.16,right,0.17508440045639873,,,,,,,,,,,,,,,,,,,,,,,,,,,,,,,,,,,,,,,,,,,,,,,,,,,,,,,,,,,,6L7FFZ,train_x,red_square,bottom_left,2025-04-16_11h01.57.488,HideSeek_v1,2022.2.5,59.95394335107952,
,2,3,6,3,4,0,56,,train_dim1_1,4,30,,,,2,0,2,0,,,,,,,,,0,0,0,0,0,3,3,3,5,0,5,0,,,,,,,,,,,,,,,,,,,,,,,,,,,,,,,,,,,,,,,,,,,,,,,,,,,,,,,,,,,,,,,,30,,,,,,,,1449.0349594997242,1449.0349594997242,1449.0349594997242,1449.0349594997242,1449.0349594997242,right,0.27650679973885417,1,0,0,99,0.48000000000000004,-0.16,right,0.19843130046501756,,,,,,,,,,,,,,,,,,,,,,,,,,,,,,,,,,,,,,,,,,,,,,,,,,,,,,,,,,,,6L7FFZ,train_x,red_square,bottom_left,2025-04-16_11h01.57.488,HideSeek_v1,2022.2.5,59.95394335107952,
,2,3,6,3,4,0,56,,train_dim1_1,4,30,,,,2,0,2,0,,,,,,,,,0,0,0,0,0,3,3,3,6,0,6,0,,,,,,,,,,,,,,,,,,,,,,,,,,,,,,,,,,,,,,,,,,,,,,,,,,,,,,,,,,,,,,,,30,,,,,,,,1449.3180472999811,1449.3180472999811,1449.3180472999811,1449.3180472999811,1449.3180472999811,right,0.2931764000095427,1,0,0,99,0.56,-0.16,right,0.2067958004772663,,,,,,,,,,,,,,,,,,,,,,,,,,,,,,,,,,,,,,,,,,,,,,,,,,,,,,,,,,,,6L7FFZ,train_x,red_square,bottom_left,2025-04-16_11h01.57.488,HideSeek_v1,2022.2.5,59.95394335107952,
,2,3,6,3,4,0,56,,train_dim1_1,4,30,,,,2,0,2,0,,,,,,,,,0,0,0,0,0,3,3,3,7,0,7,0,,,,,,,,,,,,,,,,,,,,,,,,,,,,,,,,,,,,,,,,,,,,,,,,,,,,,,,,,,,,,,,,30,,,,,,,,1449.6176469000056,1449.6176469000056,1449.6176469000056,1449.6176469000056,1449.6176469000056,return,1.1278921999037266,1,0,0,0,0.56,-0.16,return,1.0512644005939364,1,13,0.56,-0.16,,,,,,,,,,,,,,,,,,,,,,,,,,,,,,,,,,,,,,,,,,,,,,,,,,,,,,,,6L7FFZ,train_x,red_square,bottom_left,2025-04-16_11h01.57.488,HideSeek_v1,2022.2.5,59.95394335107952,
,0,2,5,2,5,0,66,,train_dim1_1,5,30,,,,2,0,2,0,,,,,,,,,0,0,0,0,0,4,4,4,0,0,0,0,,,,,,,,,,,,,,,,,,,,,,,,,stimuli/alien_stimuli/66.png,,,,,,,,,,,,,,,,,,,,,,,,,,,,,stimuli/alien_stimuli/56.png,56,2,6,,,,,,,30,,,,,,,,1470.444640699774,1470.444640699774,1470.444640699774,1470.444640699774,1470.444640699774,right,5.775830199941993,1,0,0,99,-0.08,-0.24,right,5.677826000377536,,,,,1468.8687557997182,1470.444640699774,0.32,-0.16,0.0,0.32,-0.16,0.32,0.16,0.32,-0.16,1452.3245087000541,1452.3245087000541,1452.3245087000541,1452.3245087000541,1452.3245087000541,1452.3245087000541,1452.3245087000541,1452.3245087000541,1452.3051354195459,16.666278600227088,return,16.52795740077272,,,,,,,,,,,,,,,,,,,,,,,,,,,,,,,,,6L7FFZ,train_x,red_square,bottom_left,2025-04-16_11h01.57.488,HideSeek_v1,2022.2.5,59.95394335107952,
,0,2,5,2,5,0,66,,train_dim1_1,5,30,,,,2,0,2,0,,,,,,,,,0,0,0,0,0,4,4,4,1,0,1,0,,,,,,,,,,,,,,,,,,,,,,,,,,,,,,,,,,,,,,,,,,,,,,,,,,,,,,,,,,,,,,,,30,,,,,,,,1476.205403199885,1476.205403199885,1476.205403199885,1476.205403199885,1476.205403199885,right,0.7432935000397265,1,0,0,99,0.0,-0.24,right,0.6580400001257658,,,,,,,,,,,,,,,,,,,,,,,,,,,,,,,,,,,,,,,,,,,,,,,,,,,,,,,,,,,,6L7FFZ,train_x,red_square,bottom_left,2025-04-16_11h01.57.488,HideSeek_v1,2022.2.5,59.95394335107952,
,0,2,5,2,5,0,66,,train_dim1_1,5,30,,,,2,0,2,0,,,,,,,,,0,0,0,0,0,4,4,4,2,0,2,0,,,,,,,,,,,,,,,,,,,,,,,,,,,,,,,,,,,,,,,,,,,,,,,,,,,,,,,,,,,,,,,,30,,,,,,,,1476.9550596000627,1476.9550596000627,1476.9550596000627,1476.9550596000627,1476.9550596000627,right,0.7771367002278566,1,0,0,99,0.08,-0.24,right,0.7041278001852334,,,,,,,,,,,,,,,,,,,,,,,,,,,,,,,,,,,,,,,,,,,,,,,,,,,,,,,,,,,,6L7FFZ,train_x,red_square,bottom_left,2025-04-16_11h01.57.488,HideSeek_v1,2022.2.5,59.95394335107952,
,0,2,5,2,5,0,66,,train_dim1_1,5,30,,,,2,0,2,0,,,,,,,,,0,0,0,0,0,4,4,4,3,0,3,0,,,,,,,,,,,,,,,,,,,,,,,,,,,,,,,,,,,,,,,,,,,,,,,,,,,,,,,,,,,,,,,,30,,,,,,,,1477.738498199731,1477.738498199731,1477.738498199731,1477.738498199731,1477.738498199731,return,1.6446047998033464,1,0,0,0,0.08,-0.24,return,1.571412400342524,1,16,0.08,-0.24,,,,,,,,,,,,,,,,,,,,,,,,,,,,,,,,,,,,,,,,,,,,,,,,,,,,,,,,6L7FFZ,train_x,red_square,bottom_left,2025-04-16_11h01.57.488,HideSeek_v1,2022.2.5,59.95394335107952,
,0,0,1,0,1,0,26,,train_dim1_1,6,30,,,,2,0,2,0,,,,,,,,,0,0,0,0,0,5,5,5,0,0,0,0,,,,,,,,,,,,,,,,,,,,,,,,,stimuli/alien_stimuli/26.png,,,,,,,,,,,,,,,,,,,,,,,,,,,,,stimuli/alien_stimuli/66.png,66,0,7,,,,,,,30,,,,,,,,1489.100438799709,1489.100438799709,1489.100438799709,1489.100438799709,1489.100438799709,return,6.474210099782795,1,1,0,0,-0.16,-0.4,return,6.3805388999171555,1,16,-0.16,-0.4,1487.534413699992,1489.100438799709,0.24,-0.24,0.0,0.4,-0.24,0.24,0.039999999999999994,0.24,-0.24,1480.9595369999297,1480.9595369999297,1480.9595369999297,1480.9595369999297,1480.9595369999297,1480.9595369999297,1480.9595369999297,1480.9595369999297,1480.945477319835,6.6911200997419655,return,6.551883600186557,,,,,,,,,,,,,,,,,,,,,,,,,,,,,,,,,6L7FFZ,train_x,red_square,bottom_left,2025-04-16_11h01.57.488,HideSeek_v1,2022.2.5,59.95394335107952,
,3,0,8,0,5,0,66,,train_dim1_1,7,30,,,,2,0,2,0,,,,,,,,,0,0,0,0,0,6,6,6,0,0,0,0,,,,,,,,,,,,,,,,,,,,,,,,,stimuli/alien_stimuli/66.png,,,,,,,,,,,,,,,,,,,,,,,,,,,,,stimuli/alien_stimuli/26.png,26,0,8,,,,,,,30,,,,,,,,1523.3050273000263,1523.3050273000263,1523.3050273000263,1523.3050273000263,1523.3050273000263,right,4.758563600014895,1,1,0,99,0.16,-0.4,right,4.652018100488931,,,,,1521.7296523996629,1523.3050273000263,-0.08,-0.4,0.0,0.08,-0.4,-0.08,-0.12,-0.08,-0.4,1497.170507799834,1497.170507799834,1497.170507799834,1497.170507799834,1497.170507799834,1497.170507799834,1497.170507799834,1497.170507799834,1497.1590424395633,24.70625300006941,return,24.54232140025124,,,,,,,,,,,,,,,,,,,,,,,,,,,,,,,,,6L7FFZ,train_x,red_square,bottom_left,2025-04-16_11h01.57.488,HideSeek_v1,2022.2.5,59.95394335107952,
,3,0,8,0,5,0,66,,train_dim1_1,7,30,,,,2,0,2,0,,,,,,,,,0,0,0,0,0,6,6,6,1,0,1,0,,,,,,,,,,,,,,,,,,,,,,,,,,,,,,,,,,,,,,,,,,,,,,,,,,,,,,,,,,,,,,,,30,,,,,,,,1528.049912400078,1528.049912400078,1528.049912400078,1528.049912400078,1528.049912400078,right,0.9601346999406815,1,1,0,99,0.24,-0.4,right,0.8719663000665605,,,,,,,,,,,,,,,,,,,,,,,,,,,,,,,,,,,,,,,,,,,,,,,,,,,,,,,,,,,,6L7FFZ,train_x,red_square,bottom_left,2025-04-16_11h01.57.488,HideSeek_v1,2022.2.5,59.95394335107952,
,3,0,8,0,5,0,66,,train_dim1_1,7,30,,,,2,0,2,0,,,,,,,,,0,0,0,0,0,6,6,6,2,0,2,0,,,,,,,,,,,,,,,,,,,,,,,,,,,,,,,,,,,,,,,,,,,,,,,,,,,,,,,,,,,,,,,,30,,,,,,,,1529.0177670996636,1529.0177670996636,1529.0177670996636,1529.0177670996636,1529.0177670996636,right,0.9083163002505898,1,1,0,99,0.32,-0.4,right,0.8306436003185809,,,,,,,,,,,,,,,,,,,,,,,,,,,,,,,,,,,,,,,,,,,,,,,,,,,,,,,,,,,,6L7FFZ,train_x,red_square,bottom_left,2025-04-16_11h01.57.488,HideSeek_v1,2022.2.5,59.95394335107952,
,3,0,8,0,5,0,66,,train_dim1_1,7,30,,,,2,0,2,0,,,,,,,,,0,0,0,0,0,6,6,6,3,0,3,0,,,,,,,,,,,,,,,,,,,,,,,,,,,,,,,,,,,,,,,,,,,,,,,,,,,,,,,,,,,,,,,,30,,,,,,,,1529.9323565000668,1529.9323565000668,1529.9323565000668,1529.9323565000668,1529.9323565000668,right,1.1605303999967873,1,1,0,99,0.4,-0.4,right,1.0823223004117608,,,,,,,,,,,,,,,,,,,,,,,,,,,,,,,,,,,,,,,,,,,,,,,,,,,,,,,,,,,,6L7FFZ,train_x,red_square,bottom_left,2025-04-16_11h01.57.488,HideSeek_v1,2022.2.5,59.95394335107952,
,3,0,8,0,5,0,66,,train_dim1_1,7,30,,,,2,0,2,0,,,,,,,,,0,0,0,0,0,6,6,6,4,0,4,0,,,,,,,,,,,,,,,,,,,,,,,,,,,,,,,,,,,,,,,,,,,,,,,,,,,,,,,,,,,,,,,,30,,,,,,,,1531.1001237998717,1531.1001237998717,1531.1001237998717,1531.1001237998717,1531.1001237998717,left,1.4941720999777317,1,1,0,99,0.32,-0.4,left,1.417185100261122,,,,,,,,,,,,,,,,,,,,,,,,,,,,,,,,,,,,,,,,,,,,,,,,,,,,,,,,,,,,6L7FFZ,train_x,red_square,bottom_left,2025-04-16_11h01.57.488,HideSeek_v1,2022.2.5,59.95394335107952,
,3,0,8,0,5,0,66,,train_dim1_1,7,30,,,,2,0,2,0,,,,,,,,,0,0,0,0,0,6,6,6,5,0,5,0,,,,,,,,,,,,,,,,,,,,,,,,,,,,,,,,,,,,,,,,,,,,,,,,,,,,,,,,,,,,,,,,30,,,,,,,,1532.6004190999083,1532.6004190999083,1532.6004190999083,1532.6004190999083,1532.6004190999083,right,1.5610520998016,1,1,0,99,0.4,-0.4,right,1.4758073003031313,,,,,,,,,,,,,,,,,,,,,,,,,,,,,,,,,,,,,,,,,,,,,,,,,,,,,,,,,,,,6L7FFZ,train_x,red_square,bottom_left,2025-04-16_11h01.57.488,HideSeek_v1,2022.2.5,59.95394335107952,
,3,0,8,0,5,0,66,,train_dim1_1,7,30,,,,2,0,2,0,,,,,,,,,0,0,0,0,0,6,6,6,6,0,6,0,,,,,,,,,,,,,,,,,,,,,,,,,,,,,,,,,,,,,,,,,,,,,,,,,,,,,,,,,,,,,,,,30,,,,,,,,1534.168912800029,1534.168912800029,1534.168912800029,1534.168912800029,1534.168912800029,right,0.26016040006652474,1,1,0,99,0.48000000000000004,-0.4,right,0.18864200031384826,,,,,,,,,,,,,,,,,,,,,,,,,,,,,,,,,,,,,,,,,,,,,,,,,,,,,,,,,,,,6L7FFZ,train_x,red_square,bottom_left,2025-04-16_11h01.57.488,HideSeek_v1,2022.2.5,59.95394335107952,
,3,0,8,0,5,0,66,,train_dim1_1,7,30,,,,2,0,2,0,,,,,,,,,0,0,0,0,0,6,6,6,7,0,7,0,,,,,,,,,,,,,,,,,,,,,,,,,,,,,,,,,,,,,,,,,,,,,,,,,,,,,,,,,,,,,,,,30,,,,,,,,1534.4372263997793,1534.4372263997793,1534.4372263997793,1534.4372263997793,1534.4372263997793,down,0.8272061999887228,1,1,0,99,0.48000000000000004,-0.48000000000000004,down,0.7397181000560522,,,,,,,,,,,,,,,,,,,,,,,,,,,,,,,,,,,,,,,,,,,,,,,,,,,,,,,,,,,,6L7FFZ,train_x,red_square,bottom_left,2025-04-16_11h01.57.488,HideSeek_v1,2022.2.5,59.95394335107952,
,3,0,8,0,5,0,66,,train_dim1_1,7,30,,,,2,0,2,0,,,,,,,,,0,0,0,0,0,6,6,6,8,0,8,0,,,,,,,,,,,,,,,,,,,,,,,,,,,,,,,,,,,,,,,,,,,,,,,,,,,,,,,,,,,,,,,,30,,,,,,,,1535.2706899996847,1535.2706899996847,1535.2706899996847,1535.2706899996847,1535.2706899996847,up,1.36016759974882,1,1,0,99,0.48000000000000004,-0.4,up,1.286260800436139,,,,,,,,,,,,,,,,,,,,,,,,,,,,,,,,,,,,,,,,,,,,,,,,,,,,,,,,,,,,6L7FFZ,train_x,red_square,bottom_left,2025-04-16_11h01.57.488,HideSeek_v1,2022.2.5,59.95394335107952,
,3,0,8,0,5,0,66,,train_dim1_1,7,30,,,,2,0,2,0,,,,,,,,,0,0,0,0,0,6,6,6,9,0,9,0,,,,,,,,,,,,,,,,,,,,,,,,,,,,,,,,,,,,,,,,,,,,,,,,,,,,,,,,,,,,,,,,30,,,,,,,,1536.6405349997804,1536.6405349997804,1536.6405349997804,1536.6405349997804,1536.6405349997804,return,1.027254500426352,2,0,0,1,0.48000000000000004,-0.4,return,0.9473191001452506,1,21,0.48000000000000004,-0.4,,,,,,,,,,,,,,,,,,,,,,,,,,,,,,,,,,,,,,,,,,,,,,,,,,,,,,,,6L7FFZ,train_x,red_square,bottom_left,2025-04-16_11h01.57.488,HideSeek_v1,2022.2.5,59.95394335107952,
,0,4,3,4,3,0,46,,train_dim1_1,8,30,,,,2,0,2,0,,,,,,,,,0,0,0,0,0,7,7,7,0,0,0,0,,,,,,,,,,,,,,,,,,,,,,,,,stimuli/alien_stimuli/46.png,,,,,,,,,,,,,,,,,,,,,,,,,,,,,stimuli/alien_stimuli/66.png,66,3,9,,,,,,,30,,,,,,,,1544.3371180999093,1544.3371180999093,1544.3371180999093,1544.3371180999093,1544.3371180999093,right,4.577401999849826,2,0,0,99,-0.08,-0.08,right,4.494210100732744,,,,,1542.780238199979,1544.3371180999093,0.48,-0.4,0.0,0.4,-0.4,0.48,0.27999999999999997,0.48,-0.4,1539.2491698996164,1539.2491698996164,1539.2491698996164,1539.2491698996164,1539.2491698996164,1539.2491698996164,1539.2491698996164,1539.2491698996164,1539.2272695195397,3.6549664000049233,return,3.5058806003071368,,,,,,,,,,,,,,,,,,,,,,,,,,,,,,,,,6L7FFZ,train_x,red_square,bottom_left,2025-04-16_11h01.57.488,HideSeek_v1,2022.2.5,59.95394335107952,
,0,4,3,4,3,0,46,,train_dim1_1,8,30,,,,2,0,2,0,,,,,,,,,0,0,0,0,0,7,7,7,1,0,1,0,,,,,,,,,,,,,,,,,,,,,,,,,,,,,,,,,,,,,,,,,,,,,,,,,,,,,,,,,,,,,,,,30,,,,,,,,1548.921618799679,1548.921618799679,1548.921618799679,1548.921618799679,1548.921618799679,right,0.8054654002189636,2,0,0,99,0.0,-0.08,right,0.7272739005275071,,,,,,,,,,,,,,,,,,,,,,,,,,,,,,,,,,,,,,,,,,,,,,,,,,,,,,,,,,,,6L7FFZ,train_x,red_square,bottom_left,2025-04-16_11h01.57.488,HideSeek_v1,2022.2.5,59.95394335107952,
,0,4,3,4,3,0,46,,train_dim1_1,8,30,,,,2,0,2,0,,,,,,,,,0,0,0,0,0,7,7,7,2,0,2,0,,,,,,,,,,,,,,,,,,,,,,,,,,,,,,,,,,,,,,,,,,,,,,,,,,,,,,,,,,,,,,,,30,,,,,,,,1549.7324780998752,1549.7324780998752,1549.7324780998752,1549.7324780998752,1549.7324780998752,right,0.7935580001212656,2,0,0,99,0.08,-0.08,right,0.7172341006807983,,,,,,,,,,,,,,,,,,,,,,,,,,,,,,,,,,,,,,,,,,,,,,,,,,,,,,,,,,,,6L7FFZ,train_x,red_square,bottom_left,2025-04-16_11h01.57.488,HideSeek_v1,2022.2.5,59.95394335107952,
,0,4,3,4,3,0,46,,train_dim1_1,8,30,,,,2,0,2,0,,,,,,,,,0,0,0,0,0,7,7,7,3,0,3,0,,,,,,,,,,,,,,,,,,,,,,,,,,,,,,,,,,,,,,,,,,,,,,,,,,,,,,,,,,,,,,,,30,,,,,,,,1550.5327642997727,1550.5327642997727,1550.5327642997727,1550.5327642997727,1550.5327642997727,return,1.0106230000965297,3,0,0,1,0.08,-0.08,return,0.9288966003805399,1,24,0.08,-0.08,,,,,,,,,,,,,,,,,,,,,,,,,,,,,,,,,,,,,,,,,,,,,,,,,,,,,,,,6L7FFZ,train_x,red_square,bottom_left,2025-04-16_11h01.57.488,HideSeek_v1,2022.2.5,59.95394335107952,
,1,0,5,0,4,0,56,,train_dim1_1,9,30,,,,2,0,2,0,,,,,,,,,0,0,0,0,0,8,8,8,0,0,0,0,,,,,,,,,,,,,,,,,,,,,,,,,stimuli/alien_stimuli/56.png,,,,,,,,,,,,,,,,,,,,,,,,,,,,,stimuli/alien_stimuli/46.png,46,0,10,,,,,,,30,,,,,,,,1557.0516743999906,1557.0516743999906,1557.0516743999906,1557.0516743999906,1557.0516743999906,right,4.192137899808586,3,0,0,99,0.0,-0.4,right,4.078453800641,,,,,1555.4740092996508,1557.0516743999906,0.08,-0.08,0.0,0.24,-0.08,0.08,-0.04,0.08,-0.08,1553.1224609999917,1553.1224609999917,1553.1224609999917,1553.1224609999917,1553.1224609999917,1553.1224609999917,1553.1224609999917,1553.1224609999917,1553.1054769195152,2.470752699766308,return,2.3300120001658797,,,,,,,,,,,,,,,,,,,,,,,,,,,,,,,,,6L7FFZ,train_x,red_square,bottom_left,2025-04-16_11h01.57.488,HideSeek_v1,2022.2.5,59.95394335107952,
,1,0,5,0,4,0,56,,train_dim1_1,9,30,,,,2,0,2,0,,,,,,,,,0,0,0,0,0,8,8,8,1,0,1,0,,,,,,,,,,,,,,,,,,,,,,,,,,,,,,,,,,,,,,,,,,,,,,,,,,,,,,,,,,,,,,,,30,,,,,,,,1561.2290662997402,1561.2290662997402,1561.2290662997402,1561.2290662997402,1561.2290662997402,right,0.4090960999019444,3,0,0,99,0.08,-0.4,right,0.32610860001295805,,,,,,,,,,,,,,,,,,,,,,,,,,,,,,,,,,,,,,,,,,,,,,,,,,,,,,,,,,,,6L7FFZ,train_x,red_square,bottom_left,2025-04-16_11h01.57.488,HideSeek_v1,2022.2.5,59.95394335107952,
,1,0,5,0,4,0,56,,train_dim1_1,9,30,,,,2,0,2,0,,,,,,,,,0,0,0,0,0,8,8,8,2,0,2,0,,,,,,,,,,,,,,,,,,,,,,,,,,,,,,,,,,,,,,,,,,,,,,,,,,,,,,,,,,,,,,,,30,,,,,,,,1561.6447888999246,1561.6447888999246,1561.6447888999246,1561.6447888999246,1561.6447888999246,right,0.45939019974321127,3,0,0,99,0.16,-0.4,right,0.3764787004329264,,,,,,,,,,,,,,,,,,,,,,,,,,,,,,,,,,,,,,,,,,,,,,,,,,,,,,,,,,,,6L7FFZ,train_x,red_square,bottom_left,2025-04-16_11h01.57.488,HideSeek_v1,2022.2.5,59.95394335107952,
,1,0,5,0,4,0,56,,train_dim1_1,9,30,,,,2,0,2,0,,,,,,,,,0,0,0,0,0,8,8,8,3,0,3,0,,,,,,,,,,,,,,,,,,,,,,,,,,,,,,,,,,,,,,,,,,,,,,,,,,,,,,,,,,,,,,,,30,,,,,,,,1562.1109969997779,1562.1109969997779,1562.1109969997779,1562.1109969997779,1562.1109969997779,right,0.3941169995814562,3,0,0,99,0.24,-0.4,right,0.3175397999584675,,,,,,,,,,,,,,,,,,,,,,,,,,,,,,,,,,,,,,,,,,,,,,,,,,,,,,,,,,,,6L7FFZ,train_x,red_square,bottom_left,2025-04-16_11h01.57.488,HideSeek_v1,2022.2.5,59.95394335107952,
,1,0,5,0,4,0,56,,train_dim1_1,9,30,,,,2,0,2,0,,,,,,,,,0,0,0,0,0,8,8,8,4,0,4,0,,,,,,,,,,,,,,,,,,,,,,,,,,,,,,,,,,,,,,,,,,,,,,,,,,,,,,,,,,,,,,,,30,,,,,,,,1562.512735599652,1562.512735599652,1562.512735599652,1562.512735599652,1562.512735599652,right,0.42649579979479313,3,0,0,99,0.32,-0.4,right,0.342732600402087,,,,,,,,,,,,,,,,,,,,,,,,,,,,,,,,,,,,,,,,,,,,,,,,,,,,,,,,,,,,6L7FFZ,train_x,red_square,bottom_left,2025-04-16_11h01.57.488,HideSeek_v1,2022.2.5,59.95394335107952,
,1,0,5,0,4,0,56,,train_dim1_1,9,30,,,,2,0,2,0,,,,,,,,,0,0,0,0,0,8,8,8,5,0,5,0,,,,,,,,,,,,,,,,,,,,,,,,,,,,,,,,,,,,,,,,,,,,,,,,,,,,,,,,,,,,,,,,30,,,,,,,,1562.945500999689,1562.945500999689,1562.945500999689,1562.945500999689,1562.945500999689,return,0.7105867997743189,3,1,0,0,0.32,-0.4,return,0.6356302001513541,1,29,0.32,-0.4,,,,,,,,,,,,,,,,,,,,,,,,,,,,,,,,,,,,,,,,,,,,,,,,,,,,,,,,6L7FFZ,train_x,red_square,bottom_left,2025-04-16_11h01.57.488,HideSeek_v1,2022.2.5,59.95394335107952,
,0,3,0,3,0,0,16,,train_dim1_1,10,30,,,,2,0,2,0,,,,,,,,,0,0,0,0,0,9,9,9,0,0,0,0,,,,,,,,,,,,,,,,,,,,,,,,,stimuli/alien_stimuli/16.png,,,,,,,,,,,,,,,,,,,,,,,,,,,,,stimuli/alien_stimuli/56.png,56,1,11,,,,,,,30,,,,,,,,1570.1991288000718,1570.1991288000718,1570.1991288000718,1570.1991288000718,1570.1991288000718,return,4.974947700276971,4,0,0,1,-0.16,-0.16,return,4.885427200235426,1,29,-0.16,-0.16,1568.6350823999383,1570.1991288000718,0.24,-0.4,0.0,0.32,-0.4,0.24,0.07999999999999999,0.24,-0.4,1565.2194385998882,1565.2194385998882,1565.2194385998882,1565.2194385998882,1565.2194385998882,1565.2194385998882,1565.2194385998882,1565.2194385998882,1565.1988742599265,3.5215521999634802,return,3.385307900607586,,,,,,,,,,,,,,,,,,,,,,,,,,,,,,,,,6L7FFZ,train_x,red_square,bottom_left,2025-04-16_11h01.57.488,HideSeek_v1,2022.2.5,59.95394335107952,
,2,2,5,2,3,0,46,,train_dim1_1,11,30,,,,2,0,2,0,,,,,,,,,0,0,0,0,0,10,10,10,0,0,0,0,,,,,,,,,,,,,,,,,,,,,,,,,stimuli/alien_stimuli/46.png,,,,,,,,,,,,,,,,,,,,,,,,,,,,,stimuli/alien_stimuli/16.png,16,0,12,,,,,,,30,,,,,,,,1580.4964569997974,1580.4964569997974,1580.4964569997974,1580.4964569997974,1580.4964569997974,right,3.1090752999298275,4,0,0,99,0.08,-0.24,right,3.006999600213021,,,,,1578.9268526998349,1580.4964569997974,-0.16,-0.16,0.0,0.0,-0.16,-0.16,-0.16,-0.16,-0.16,1576.7306979000568,1576.7306979000568,1576.7306979000568,1576.7306979000568,1576.7306979000568,1576.7306979000568,1576.7306979000568,1576.7306979000568,1576.7248205197511,2.3044026996940374,return,2.1801898004487157,,,,,,,,,,,,,,,,,,,,,,,,,,,,,,,,,6L7FFZ,train_x,red_square,bottom_left,2025-04-16_11h01.57.488,HideSeek_v1,2022.2.5,59.95394335107952,
,2,2,5,2,3,0,46,,train_dim1_1,11,30,,,,2,0,2,0,,,,,,,,,0,0,0,0,0,10,10,10,1,0,1,0,,,,,,,,,,,,,,,,,,,,,,,,,,,,,,,,,,,,,,,,,,,,,,,,,,,,,,,,,,,,,,,,30,,,,,,,,1583.5936986999586,1583.5936986999586,1583.5936986999586,1583.5936986999586,1583.5936986999586,right,0.2930640000849962,4,0,0,99,0.16,-0.24,right,0.21112420037388802,,,,,,,,,,,,,,,,,,,,,,,,,,,,,,,,,,,,,,,,,,,,,,,,,,,,,,,,,,,,6L7FFZ,train_x,red_square,bottom_left,2025-04-16_11h01.57.488,HideSeek_v1,2022.2.5,59.95394335107952,
,2,2,5,2,3,0,46,,train_dim1_1,11,30,,,,2,0,2,0,,,,,,,,,0,0,0,0,0,10,10,10,2,0,2,0,,,,,,,,,,,,,,,,,,,,,,,,,,,,,,,,,,,,,,,,,,,,,,,,,,,,,,,,,,,,,,,,30,,,,,,,,1583.8941299999133,1583.8941299999133,1583.8941299999133,1583.8941299999133,1583.8941299999133,right,0.34337039990350604,4,0,0,99,0.24,-0.24,right,0.25612280052155256,,,,,,,,,,,,,,,,,,,,,,,,,,,,,,,,,,,,,,,,,,,,,,,,,,,,,,,,,,,,6L7FFZ,train_x,red_square,bottom_left,2025-04-16_11h01.57.488,HideSeek_v1,2022.2.5,59.95394335107952,
,2,2,5,2,3,0,46,,train_dim1_1,11,30,,,,2,0,2,0,,,,,,,,,0,0,0,0,0,10,10,10,3,0,3,0,,,,,,,,,,,,,,,,,,,,,,,,,,,,,,,,,,,,,,,,,,,,,,,,,,,,,,,,,,,,,,,,30,,,,,,,,1584.244764499832,1584.244764499832,1584.244764499832,1584.244764499832,1584.244764499832,return,1.193781599868089,5,0,0,1,0.24,-0.24,return,1.115738300140947,1,32,0.24,-0.24,,,,,,,,,,,,,,,,,,,,,,,,,,,,,,,,,,,,,,,,,,,,,,,,,,,,,,,,6L7FFZ,train_x,red_square,bottom_left,2025-04-16_11h01.57.488,HideSeek_v1,2022.2.5,59.95394335107952,
,0,0,1,0,1,0,26,,train_dim1_1,12,30,,,,2,0,2,0,,,,,,,,,0,0,0,0,0,11,11,11,0,0,0,0,,,,,,,,,,,,,,,,,,,,,,,,,stimuli/alien_stimuli/26.png,,,,,,,,,,,,,,,,,,,,,,,,,,,,,stimuli/alien_stimuli/46.png,46,2,13,,,,,,,30,,,,,,,,1590.5435252999887,1590.5435252999887,1590.5435252999887,1590.5435252999887,1590.5435252999887,right,2.240922700148076,5,0,0,99,-0.08,-0.4,right,2.1335974000394344,,,,,1588.9683793997392,1590.5435252999887,0.24,-0.24,0.0,0.24,-0.24,0.24,0.12,0.24,-0.24,1587.0189108997583,1587.0189108997583,1587.0189108997583,1587.0189108997583,1587.0189108997583,1587.0189108997583,1587.0189108997583,1587.0189108997583,1587.0001975195019,2.070697699673474,return,1.917971699964255,,,,,,,,,,,,,,,,,,,,,,,,,,,,,,,,,6L7FFZ,train_x,red_square,bottom_left,2025-04-16_11h01.57.488,HideSeek_v1,2022.2.5,59.95394335107952,
,0,0,1,0,1,0,26,,train_dim1_1,12,30,,,,2,0,2,0,,,,,,,,,0,0,0,0,0,11,11,11,1,0,1,0,,,,,,,,,,,,,,,,,,,,,,,,,,,,,,,,,,,,,,,,,,,,,,,,,,,,,,,,,,,,,,,,30,,,,,,,,1592.772762299981,1592.772762299981,1592.772762299981,1592.772762299981,1592.772762299981,return,0.5762192998081446,6,0,0,1,-0.08,-0.4,return,0.4868591004051268,1,33,-0.08,-0.4,,,,,,,,,,,,,,,,,,,,,,,,,,,,,,,,,,,,,,,,,,,,,,,,,,,,,,,,6L7FFZ,train_x,red_square,bottom_left,2025-04-16_11h01.57.488,HideSeek_v1,2022.2.5,59.95394335107952,
,0,4,4,4,4,0,56,,train_dim1_1,13,30,,,,2,0,2,0,,,,,,,,,0,0,0,0,0,12,12,12,0,0,0,0,,,,,,,,,,,,,,,,,,,,,,,,,stimuli/alien_stimuli/56.png,,,,,,,,,,,,,,,,,,,,,,,,,,,,,stimuli/alien_stimuli/26.png,26,0,14,,,,,,,30,,,,,,,,1598.0546370996162,1598.0546370996162,1598.0546370996162,1598.0546370996162,1598.0546370996162,right,1.8370638997294009,6,0,0,99,-0.08,-0.08,right,1.7521590003743768,,,,,1596.491351899691,1598.0546370996162,-0.08,-0.4,0.0,0.08,-0.4,-0.08,-0.12,-0.08,-0.4,1594.9176536998712,1594.9176536998712,1594.9176536998712,1594.9176536998712,1594.9176536998712,1594.9176536998712,1594.9176536998712,1594.9176536998712,1594.9068762198558,1.6869403002783656,return,1.555837600491941,,,,,,,,,,,,,,,,,,,,,,,,,,,,,,,,,6L7FFZ,train_x,red_square,bottom_left,2025-04-16_11h01.57.488,HideSeek_v1,2022.2.5,59.95394335107952,
,0,4,4,4,4,0,56,,train_dim1_1,13,30,,,,2,0,2,0,,,,,,,,,0,0,0,0,0,12,12,12,1,0,1,0,,,,,,,,,,,,,,,,,,,,,,,,,,,,,,,,,,,,,,,,,,,,,,,,,,,,,,,,,,,,,,,,30,,,,,,,,1599.8930798000656,1599.8930798000656,1599.8930798000656,1599.8930798000656,1599.8930798000656,right,0.30941660003736615,6,0,0,99,0.0,-0.08,right,0.2245743004605174,,,,,,,,,,,,,,,,,,,,,,,,,,,,,,,,,,,,,,,,,,,,,,,,,,,,,,,,,,,,6L7FFZ,train_x,red_square,bottom_left,2025-04-16_11h01.57.488,HideSeek_v1,2022.2.5,59.95394335107952,
,0,4,4,4,4,0,56,,train_dim1_1,13,30,,,,2,0,2,0,,,,,,,,,0,0,0,0,0,12,12,12,2,0,2,0,,,,,,,,,,,,,,,,,,,,,,,,,,,,,,,,,,,,,,,,,,,,,,,,,,,,,,,,,,,,,,,,30,,,,,,,,1600.2096484000795,1600.2096484000795,1600.2096484000795,1600.2096484000795,1600.2096484000795,right,0.34345189994201064,6,0,0,99,0.08,-0.08,right,0.2548795002512634,,,,,,,,,,,,,,,,,,,,,,,,,,,,,,,,,,,,,,,,,,,,,,,,,,,,,,,,,,,,6L7FFZ,train_x,red_square,bottom_left,2025-04-16_11h01.57.488,HideSeek_v1,2022.2.5,59.95394335107952,
,0,4,4,4,4,0,56,,train_dim1_1,13,30,,,,2,0,2,0,,,,,,,,,0,0,0,0,0,12,12,12,3,0,3,0,,,,,,,,,,,,,,,,,,,,,,,,,,,,,,,,,,,,,,,,,,,,,,,,,,,,,,,,,,,,,,,,30,,,,,,,,1600.5605985997245,1600.5605985997245,1600.5605985997245,1600.5605985997245,1600.5605985997245,right,0.3094190997071564,6,0,0,99,0.16,-0.08,right,0.21973260026425123,,,,,,,,,,,,,,,,,,,,,,,,,,,,,,,,,,,,,,,,,,,,,,,,,,,,,,,,,,,,6L7FFZ,train_x,red_square,bottom_left,2025-04-16_11h01.57.488,HideSeek_v1,2022.2.5,59.95394335107952,
,0,4,4,4,4,0,56,,train_dim1_1,13,30,,,,2,0,2,0,,,,,,,,,0,0,0,0,0,12,12,12,4,0,4,0,,,,,,,,,,,,,,,,,,,,,,,,,,,,,,,,,,,,,,,,,,,,,,,,,,,,,,,,,,,,,,,,30,,,,,,,,1600.8766985996626,1600.8766985996626,1600.8766985996626,1600.8766985996626,1600.8766985996626,right,0.3432942000217736,6,0,0,99,0.24,-0.08,right,0.2695641005411744,,,,,,,,,,,,,,,,,,,,,,,,,,,,,,,,,,,,,,,,,,,,,,,,,,,,,,,,,,,,6L7FFZ,train_x,red_square,bottom_left,2025-04-16_11h01.57.488,HideSeek_v1,2022.2.5,59.95394335107952,
,0,4,4,4,4,0,56,,train_dim1_1,13,30,,,,2,0,2,0,,,,,,,,,0,0,0,0,0,12,12,12,5,0,5,0,,,,,,,,,,,,,,,,,,,,,,,,,,,,,,,,,,,,,,,,,,,,,,,,,,,,,,,,,,,,,,,,30,,,,,,,,1601.2272224999033,1601.2272224999033,1601.2272224999033,1601.2272224999033,1601.2272224999033,return,0.9105993998236954,6,1,0,0,0.24,-0.08,return,0.8353403005748987,1,38,0.24,-0.08,,,,,,,,,,,,,,,,,,,,,,,,,,,,,,,,,,,,,,,,,,,,,,,,,,,,,,,,6L7FFZ,train_x,red_square,bottom_left,2025-04-16_11h01.57.488,HideSeek_v1,2022.2.5,59.95394335107952,
,4,3,4,3,0,0,16,,train_dim1_1,14,30,,,,2,0,2,0,,,,,,,,,0,0,0,0,0,13,13,13,0,0,0,0,,,,,,,,,,,,,,,,,,,,,,,,,stimuli/alien_stimuli/16.png,,,,,,,,,,,,,,,,,,,,,,,,,,,,,stimuli/alien_stimuli/56.png,56,0,15,,,,,,,30,,,,,,,,1607.6630571996793,1607.6630571996793,1607.6630571996793,1607.6630571996793,1607.6630571996793,return,3.0910956002771854,7,0,0,1,0.16,-0.16,return,2.988242800347507,1,38,0.16,-0.16,1606.0829916996881,1607.6630571996793,0.16,-0.08,0.0,0.32,-0.08,0.16,0.0,0.16,-0.08,1603.7005079998635,1603.7005079998635,1603.7005079998635,1603.7005079998635,1603.7005079998635,1603.7005079998635,1603.7005079998635,1603.7005079998635,1603.6808319595643,2.487825899850577,return,2.360280400607735,,,,,,,,,,,,,,,,,,,,,,,,,,,,,,,,,6L7FFZ,train_x,red_square,bottom_left,2025-04-16_11h01.57.488,HideSeek_v1,2022.2.5,59.95394335107952,
,4,2,9,2,5,0,66,,train_dim1_1,15,30,,,,2,0,2,0,,,,,,,,,0,0,0,0,0,14,14,14,0,0,0,0,,,,,,,,,,,,,,,,,,,,,,,,,stimuli/alien_stimuli/66.png,,,,,,,,,,,,,,,,,,,,,,,,,,,,,stimuli/alien_stimuli/16.png,16,4,16,,,,,,,30,,,,,,,,1615.3870737999678,1615.3870737999678,1615.3870737999678,1615.3870737999678,1615.3870737999678,right,2.156599699985236,7,0,0,99,0.24,-0.24,right,2.046349400654435,,,,,1613.8057932998054,1615.3870737999678,0.16,-0.16,0.0,0.0,-0.16,0.16,0.16,0.16,-0.16,1612.3003352996893,1612.3003352996893,1612.3003352996893,1612.3003352996893,1612.3003352996893,1612.3003352996893,1612.3003352996893,1612.3003352996893,1612.288128919853,1.620165899861604,return,1.4889982002787292,,,,,,,,,,,,,,,,,,,,,,,,,,,,,,,,,6L7FFZ,train_x,red_square,bottom_left,2025-04-16_11h01.57.488,HideSeek_v1,2022.2.5,59.95394335107952,
,4,2,9,2,5,0,66,,train_dim1_1,15,30,,,,2,0,2,0,,,,,,,,,0,0,0,0,0,14,14,14,1,0,1,0,,,,,,,,,,,,,,,,,,,,,,,,,,,,,,,,,,,,,,,,,,,,,,,,,,,,,,,,,,,,,,,,30,,,,,,,,1617.523133599665,1617.523133599665,1617.523133599665,1617.523133599665,1617.523133599665,right,0.2756417002528906,7,0,0,99,0.32,-0.24,right,0.2035122006200254,,,,,,,,,,,,,,,,,,,,,,,,,,,,,,,,,,,,,,,,,,,,,,,,,,,,,,,,,,,,6L7FFZ,train_x,red_square,bottom_left,2025-04-16_11h01.57.488,HideSeek_v1,2022.2.5,59.95394335107952,
,4,2,9,2,5,0,66,,train_dim1_1,15,30,,,,2,0,2,0,,,,,,,,,0,0,0,0,0,14,14,14,2,0,2,0,,,,,,,,,,,,,,,,,,,,,,,,,,,,,,,,,,,,,,,,,,,,,,,,,,,,,,,,,,,,,,,,30,,,,,,,,1617.8065919000655,1617.8065919000655,1617.8065919000655,1617.8065919000655,1617.8065919000655,right,0.32655820017680526,7,0,0,99,0.4,-0.24,right,0.2455936004407704,,,,,,,,,,,,,,,,,,,,,,,,,,,,,,,,,,,,,,,,,,,,,,,,,,,,,,,,,,,,6L7FFZ,train_x,red_square,bottom_left,2025-04-16_11h01.57.488,HideSeek_v1,2022.2.5,59.95394335107952,
,4,2,9,2,5,0,66,,train_dim1_1,15,30,,,,2,0,2,0,,,,,,,,,0,0,0,0,0,14,14,14,3,0,3,0,,,,,,,,,,,,,,,,,,,,,,,,,,,,,,,,,,,,,,,,,,,,,,,,,,,,,,,,,,,,,,,,30,,,,,,,,1618.1387197999284,1618.1387197999284,1618.1387197999284,1618.1387197999284,1618.1387197999284,right,0.3601132999174297,7,0,0,99,0.48000000000000004,-0.24,right,0.2763237003237009,,,,,,,,,,,,,,,,,,,,,,,,,,,,,,,,,,,,,,,,,,,,,,,,,,,,,,,,,,,,6L7FFZ,train_x,red_square,bottom_left,2025-04-16_11h01.57.488,HideSeek_v1,2022.2.5,59.95394335107952,
,4,2,9,2,5,0,66,,train_dim1_1,15,30,,,,2,0,2,0,,,,,,,,,0,0,0,0,0,14,14,14,4,0,4,0,,,,,,,,,,,,,,,,,,,,,,,,,,,,,,,,,,,,,,,,,,,,,,,,,,,,,,,,,,,,,,,,30,,,,,,,,1618.5062703997828,1618.5062703997828,1618.5062703997828,1618.5062703997828,1618.5062703997828,right,0.64367809984833,7,0,0,99,0.56,-0.24,right,0.5556264007464051,,,,,,,,,,,,,,,,,,,,,,,,,,,,,,,,,,,,,,,,,,,,,,,,,,,,,,,,,,,,6L7FFZ,train_x,red_square,bottom_left,2025-04-16_11h01.57.488,HideSeek_v1,2022.2.5,59.95394335107952,
,4,2,9,2,5,0,66,,train_dim1_1,15,30,,,,2,0,2,0,,,,,,,,,0,0,0,0,0,14,14,14,5,0,5,0,,,,,,,,,,,,,,,,,,,,,,,,,,,,,,,,,,,,,,,,,,,,,,,,,,,,,,,,,,,,,,,,30,,,,,,,,1619.1579995998181,1619.1579995998181,1619.1579995998181,1619.1579995998181,1619.1579995998181,return,0.7097372002899647,8,0,0,1,0.56,-0.24,return,0.6264607002958655,1,43,0.56,-0.24,,,,,,,,,,,,,,,,,,,,,,,,,,,,,,,,,,,,,,,,,,,,,,,,,,,,,,,,6L7FFZ,train_x,red_square,bottom_left,2025-04-16_11h01.57.488,HideSeek_v1,2022.2.5,59.95394335107952,
,3,3,7,3,4,0,56,,train_dim1_1,16,30,,,,2,0,2,0,,,,,,,,,0,0,0,0,0,15,15,15,0,0,0,0,,,,,,,,,,,,,,,,,,,,,,,,,stimuli/alien_stimuli/56.png,,,,,,,,,,,,,,,,,,,,,,,,,,,,,stimuli/alien_stimuli/66.png,66,4,17,,,,,,,30,,,,,,,,1624.8460454996675,1624.8460454996675,1624.8460454996675,1624.8460454996675,1624.8460454996675,right,2.0200237999670208,8,0,0,99,0.16,-0.16,right,1.9160037003457546,,,,,1623.2636205996387,1624.8460454996675,0.56,-0.24,0.0,0.4,-0.24,0.56,0.36000000000000004,0.56,-0.24,1621.4307689997368,1621.4307689997368,1621.4307689997368,1621.4307689997368,1621.4307689997368,1621.4307689997368,1621.4307689997368,1621.4307689997368,1621.412211159803,1.937142699956894,return,1.8053729007951915,,,,,,,,,,,,,,,,,,,,,,,,,,,,,,,,,6L7FFZ,train_x,red_square,bottom_left,2025-04-16_11h01.57.488,HideSeek_v1,2022.2.5,59.95394335107952,
,3,3,7,3,4,0,56,,train_dim1_1,16,30,,,,2,0,2,0,,,,,,,,,0,0,0,0,0,15,15,15,1,0,1,0,,,,,,,,,,,,,,,,,,,,,,,,,,,,,,,,,,,,,,,,,,,,,,,,,,,,,,,,,,,,,,,,30,,,,,,,,1626.849328799639,1626.849328799639,1626.849328799639,1626.849328799639,1626.849328799639,right,0.2763191000558436,8,0,0,99,0.24,-0.16,right,0.19666120037436485,,,,,,,,,,,,,,,,,,,,,,,,,,,,,,,,,,,,,,,,,,,,,,,,,,,,,,,,,,,,6L7FFZ,train_x,red_square,bottom_left,2025-04-16_11h01.57.488,HideSeek_v1,2022.2.5,59.95394335107952,
,3,3,7,3,4,0,56,,train_dim1_1,16,30,,,,2,0,2,0,,,,,,,,,0,0,0,0,0,15,15,15,2,0,2,0,,,,,,,,,,,,,,,,,,,,,,,,,,,,,,,,,,,,,,,,,,,,,,,,,,,,,,,,,,,,,,,,30,,,,,,,,1627.1342743998393,1627.1342743998393,1627.1342743998393,1627.1342743998393,1627.1342743998393,right,0.30976719968020916,8,0,0,99,0.32,-0.16,right,0.22775020031258464,,,,,,,,,,,,,,,,,,,,,,,,,,,,,,,,,,,,,,,,,,,,,,,,,,,,,,,,,,,,6L7FFZ,train_x,red_square,bottom_left,2025-04-16_11h01.57.488,HideSeek_v1,2022.2.5,59.95394335107952,
,3,3,7,3,4,0,56,,train_dim1_1,16,30,,,,2,0,2,0,,,,,,,,,0,0,0,0,0,15,15,15,3,0,3,0,,,,,,,,,,,,,,,,,,,,,,,,,,,,,,,,,,,,,,,,,,,,,,,,,,,,,,,,,,,,,,,,30,,,,,,,,1627.451778699644,1627.451778699644,1627.451778699644,1627.451778699644,1627.451778699644,return,0.8437697999179363,8,1,0,0,0.32,-0.16,return,0.7626906004734337,1,46,0.32,-0.16,,,,,,,,,,,,,,,,,,,,,,,,,,,,,,,,,,,,,,,,,,,,,,,,,,,,,,,,6L7FFZ,train_x,red_square,bottom_left,2025-04-16_11h01.57.488,HideSeek_v1,2022.2.5,59.95394335107952,
,2,4,3,4,1,0,26,,train_dim1_1,17,30,,,,2,0,2,0,,,,,,,,,0,0,0,0,0,16,16,16,0,0,0,0,,,,,,,,,,,,,,,,,,,,,,,,,stimuli/alien_stimuli/26.png,,,,,,,,,,,,,,,,,,,,,,,,,,,,,stimuli/alien_stimuli/56.png,56,3,18,,,,,,,30,,,,,,,,1638.7368310000747,1638.7368310000747,1638.7368310000747,1638.7368310000747,1638.7368310000747,right,2.024359100032598,8,1,0,99,0.08,-0.08,right,1.9281522003002465,,,,,1637.1752877999097,1638.7368310000747,0.4,-0.16,0.0,0.32,-0.16,0.4,0.24000000000000002,0.4,-0.16,1629.8612007000484,1629.8612007000484,1629.8612007000484,1629.8612007000484,1629.8612007000484,1629.8612007000484,1629.8612007000484,1629.8612007000484,1629.8526182197502,7.424879199825227,return,7.293036600574851,,,,,,,,,,,,,,,,,,,,,,,,,,,,,,,,,6L7FFZ,train_x,red_square,bottom_left,2025-04-16_11h01.57.488,HideSeek_v1,2022.2.5,59.95394335107952,
,2,4,3,4,1,0,26,,train_dim1_1,17,30,,,,2,0,2,0,,,,,,,,,0,0,0,0,0,16,16,16,1,0,1,0,,,,,,,,,,,,,,,,,,,,,,,,,,,,,,,,,,,,,,,,,,,,,,,,,,,,,,,,,,,,,,,,30,,,,,,,,1640.762195999734,1640.762195999734,1640.762195999734,1640.762195999734,1640.762195999734,return,0.7768398001790047,9,0,0,1,0.08,-0.08,return,0.6923974002711475,1,47,0.08,-0.08,,,,,,,,,,,,,,,,,,,,,,,,,,,,,,,,,,,,,,,,,,,,,,,,,,,,,,,,6L7FFZ,train_x,red_square,bottom_left,2025-04-16_11h01.57.488,HideSeek_v1,2022.2.5,59.95394335107952,
,2,1,7,1,5,0,66,,train_dim1_1,18,30,,,,2,0,2,0,,,,,,,,,0,0,0,0,0,17,17,17,0,0,0,0,,,,,,,,,,,,,,,,,,,,,,,,,stimuli/alien_stimuli/66.png,,,,,,,,,,,,,,,,,,,,,,,,,,,,,stimuli/alien_stimuli/26.png,26,2,19,,,,,,,30,,,,,,,,1645.9053535996936,1645.9053535996936,1645.9053535996936,1645.9053535996936,1645.9053535996936,right,1.9886855999939144,9,0,0,99,0.08,-0.32,right,1.8859272003173828,,,,,1644.3311596997082,1645.9053535996936,0.08,-0.08,0.0,0.08,-0.08,0.08,0.04,0.08,-0.08,1643.1210464998148,1643.1210464998148,1643.1210464998148,1643.1210464998148,1643.1210464998148,1643.1210464998148,1643.1210464998148,1643.1210464998148,1643.113647679612,1.3363672997802496,return,1.17875420069322,,,,,,,,,,,,,,,,,,,,,,,,,,,,,,,,,6L7FFZ,train_x,red_square,bottom_left,2025-04-16_11h01.57.488,HideSeek_v1,2022.2.5,59.95394335107952,
,2,1,7,1,5,0,66,,train_dim1_1,18,30,,,,2,0,2,0,,,,,,,,,0,0,0,0,0,17,17,17,1,0,1,0,,,,,,,,,,,,,,,,,,,,,,,,,,,,,,,,,,,,,,,,,,,,,,,,,,,,,,,,,,,,,,,,30,,,,,,,,1647.8811833998188,1647.8811833998188,1647.8811833998188,1647.8811833998188,1647.8811833998188,right,0.2928300001658499,9,0,0,99,0.16,-0.32,right,0.21669680019840598,,,,,,,,,,,,,,,,,,,,,,,,,,,,,,,,,,,,,,,,,,,,,,,,,,,,,,,,,,,,6L7FFZ,train_x,red_square,bottom_left,2025-04-16_11h01.57.488,HideSeek_v1,2022.2.5,59.95394335107952,
,2,1,7,1,5,0,66,,train_dim1_1,18,30,,,,2,0,2,0,,,,,,,,,0,0,0,0,0,17,17,17,2,0,2,0,,,,,,,,,,,,,,,,,,,,,,,,,,,,,,,,,,,,,,,,,,,,,,,,,,,,,,,,,,,,,,,,30,,,,,,,,1648.1807172996923,1648.1807172996923,1648.1807172996923,1648.1807172996923,1648.1807172996923,right,0.39338439982384443,9,0,0,99,0.24,-0.32,right,0.3204685007221997,,,,,,,,,,,,,,,,,,,,,,,,,,,,,,,,,,,,,,,,,,,,,,,,,,,,,,,,,,,,6L7FFZ,train_x,red_square,bottom_left,2025-04-16_11h01.57.488,HideSeek_v1,2022.2.5,59.95394335107952,
,2,1,7,1,5,0,66,,train_dim1_1,18,30,,,,2,0,2,0,,,,,,,,,0,0,0,0,0,17,17,17,3,0,3,0,,,,,,,,,,,,,,,,,,,,,,,,,,,,,,,,,,,,,,,,,,,,,,,,,,,,,,,,,,,,,,,,30,,,,,,,,1648.5809671999887,1648.5809671999887,1648.5809671999887,1648.5809671999887,1648.5809671999887,right,0.3767879996448755,9,0,0,99,0.32,-0.32,right,0.30164220044389367,,,,,,,,,,,,,,,,,,,,,,,,,,,,,,,,,,,,,,,,,,,,,,,,,,,,,,,,,,,,6L7FFZ,train_x,red_square,bottom_left,2025-04-16_11h01.57.488,HideSeek_v1,2022.2.5,59.95394335107952,
,2,1,7,1,5,0,66,,train_dim1_1,18,30,,,,2,0,2,0,,,,,,,,,0,0,0,0,0,17,17,17,4,0,4,0,,,,,,,,,,,,,,,,,,,,,,,,,,,,,,,,,,,,,,,,,,,,,,,,,,,,,,,,,,,,,,,,30,,,,,,,,1648.9648191998713,1648.9648191998713,1648.9648191998713,1648.9648191998713,1648.9648191998713,right,0.5266533000394702,9,0,0,99,0.4,-0.32,right,0.4399292003363371,,,,,,,,,,,,,,,,,,,,,,,,,,,,,,,,,,,,,,,,,,,,,,,,,,,,,,,,,,,,6L7FFZ,train_x,red_square,bottom_left,2025-04-16_11h01.57.488,HideSeek_v1,2022.2.5,59.95394335107952,
,2,1,7,1,5,0,66,,train_dim1_1,18,30,,,,2,0,2,0,,,,,,,,,0,0,0,0,0,17,17,17,5,0,5,0,,,,,,,,,,,,,,,,,,,,,,,,,,,,,,,,,,,,,,,,,,,,,,,,,,,,,,,,,,,,,,,,30,,,,,,,,1649.5005508996546,1649.5005508996546,1649.5005508996546,1649.5005508996546,1649.5005508996546,return,0.6932811001315713,10,0,0,1,0.4,-0.32,return,0.6136996005661786,1,52,0.4,-0.32,,,,,,,,,,,,,,,,,,,,,,,,,,,,,,,,,,,,,,,,,,,,,,,,,,,,,,,,6L7FFZ,train_x,red_square,bottom_left,2025-04-16_11h01.57.488,HideSeek_v1,2022.2.5,59.95394335107952,
,0,3,3,3,3,0,46,,train_dim1_1,19,30,,,,2,0,2,0,,,,,,,,,0,0,0,0,0,18,18,18,0,0,0,0,,,,,,,,,,,,,,,,,,,,,,,,,stimuli/alien_stimuli/46.png,,,,,,,,,,,,,,,,,,,,,,,,,,,,,stimuli/alien_stimuli/66.png,66,2,20,,,,,,,30,,,,,,,,1654.8253965000622,1654.8253965000622,1654.8253965000622,1654.8253965000622,1654.8253965000622,right,3.124787100125104,10,0,0,99,-0.08,-0.16,right,3.0227394001558423,,,,,1653.2552720997483,1654.8253965000622,0.4,-0.32,0.0,0.4,-0.32,0.4,0.2,0.4,-0.32,1651.7571140998043,1651.7571140998043,1651.7571140998043,1651.7571140998043,1651.7571140998043,1651.7571140998043,1651.7571140998043,1651.7571140998043,1651.7376413597726,1.6037347000092268,return,1.4823065004311502,,,,,,,,,,,,,,,,,,,,,,,,,,,,,,,,,6L7FFZ,train_x,red_square,bottom_left,2025-04-16_11h01.57.488,HideSeek_v1,2022.2.5,59.95394335107952,
,0,3,3,3,3,0,46,,train_dim1_1,19,30,,,,2,0,2,0,,,,,,,,,0,0,0,0,0,18,18,18,1,0,1,0,,,,,,,,,,,,,,,,,,,,,,,,,,,,,,,,,,,,,,,,,,,,,,,,,,,,,,,,,,,,,,,,30,,,,,,,,1657.9392794999294,1657.9392794999294,1657.9392794999294,1657.9392794999294,1657.9392794999294,right,0.9932860000990331,10,0,0,99,0.0,-0.16,right,0.9201377001591027,,,,,,,,,,,,,,,,,,,,,,,,,,,,,,,,,,,,,,,,,,,,,,,,,,,,,,,,,,,,6L7FFZ,train_x,red_square,bottom_left,2025-04-16_11h01.57.488,HideSeek_v1,2022.2.5,59.95394335107952,
,0,3,3,3,3,0,46,,train_dim1_1,19,30,,,,2,0,2,0,,,,,,,,,0,0,0,0,0,18,18,18,2,0,2,0,,,,,,,,,,,,,,,,,,,,,,,,,,,,,,,,,,,,,,,,,,,,,,,,,,,,,,,,,,,,,,,,30,,,,,,,,1658.939375499729,1658.939375499729,1658.939375499729,1658.939375499729,1658.939375499729,right,1.0442020003683865,10,0,0,99,0.08,-0.16,right,0.961497800424695,,,,,,,,,,,,,,,,,,,,,,,,,,,,,,,,,,,,,,,,,,,,,,,,,,,,,,,,,,,,6L7FFZ,train_x,red_square,bottom_left,2025-04-16_11h01.57.488,HideSeek_v1,2022.2.5,59.95394335107952,
,0,3,3,3,3,0,46,,train_dim1_1,19,30,,,,2,0,2,0,,,,,,,,,0,0,0,0,0,18,18,18,3,0,3,0,,,,,,,,,,,,,,,,,,,,,,,,,,,,,,,,,,,,,,,,,,,,,,,,,,,,,,,,,,,,,,,,30,,,,,,,,1659.9906349997036,1659.9906349997036,1659.9906349997036,1659.9906349997036,1659.9906349997036,return,0.9270076001994312,11,0,0,1,0.08,-0.16,return,0.8444350003264844,1,55,0.08,-0.16,,,,,,,,,,,,,,,,,,,,,,,,,,,,,,,,,,,,,,,,,,,,,,,,,,,,,,,,6L7FFZ,train_x,red_square,bottom_left,2025-04-16_11h01.57.488,HideSeek_v1,2022.2.5,59.95394335107952,
,0,1,0,1,0,0,16,,train_dim1_1,20,30,,,,2,0,2,0,,,,,,,,,0,0,0,0,0,19,19,19,0,0,0,0,,,,,,,,,,,,,,,,,,,,,,,,,stimuli/alien_stimuli/16.png,,,,,,,,,,,,,,,,,,,,,,,,,,,,,stimuli/alien_stimuli/46.png,46,0,21,,,,,,,30,,,,,,,,1665.2889621998183,1665.2889621998183,1665.2889621998183,1665.2889621998183,1665.2889621998183,return,2.5236891000531614,12,0,0,1,-0.16,-0.32,return,2.4234603005461395,1,55,-0.16,-0.32,1663.7139838999137,1665.2889621998183,0.08,-0.16,0.0,0.24,-0.16,0.08,-0.04,0.08,-0.16,1662.5020162998699,1662.5020162998699,1662.5020162998699,1662.5020162998699,1662.5020162998699,1662.5020162998699,1662.5020162998699,1662.5020162998699,1662.4797635199038,1.336944400332868,return,1.1858131005428731,,,,,,,,,,,,,,,,,,,,,,,,,,,,,,,,,6L7FFZ,train_x,red_square,bottom_left,2025-04-16_11h01.57.488,HideSeek_v1,2022.2.5,59.95394335107952,
,4,2,7,2,3,0,46,,train_dim1_1,21,30,,,,2,0,2,0,,,,,,,,,0,0,0,0,0,20,20,20,0,0,0,0,,,,,,,,,,,,,,,,,,,,,,,,,stimuli/alien_stimuli/46.png,,,,,,,,,,,,,,,,,,,,,,,,,,,,,stimuli/alien_stimuli/16.png,16,0,22,,,,,,,30,,,,,,,,1672.2615811997093,1672.2615811997093,1672.2615811997093,1672.2615811997093,1672.2615811997093,right,1.9557321001775563,12,0,0,99,0.24,-0.24,right,1.8756511006504297,,,,,1670.703243999742,1672.2615811997093,-0.16,-0.32,0.0,0.0,-0.32,-0.16,-0.16,-0.16,-0.32,1669.3612132999115,1669.3612132999115,1669.3612132999115,1669.3612132999115,1669.3612132999115,1669.3612132999115,1669.3612132999115,1669.3612132999115,1669.3518378198614,1.4534499002620578,return,1.3143484005704522,,,,,,,,,,,,,,,,,,,,,,,,,,,,,,,,,6L7FFZ,train_x,red_square,bottom_left,2025-04-16_11h01.57.488,HideSeek_v1,2022.2.5,59.95394335107952,
,4,2,7,2,3,0,46,,train_dim1_1,21,30,,,,2,0,2,0,,,,,,,,,0,0,0,0,0,20,20,20,1,0,1,0,,,,,,,,,,,,,,,,,,,,,,,,,,,,,,,,,,,,,,,,,,,,,,,,,,,,,,,,,,,,,,,,30,,,,,,,,1674.219978899695,1674.219978899695,1674.219978899695,1674.219978899695,1674.219978899695,right,0.5257292999885976,12,0,0,99,0.32,-0.24,right,0.44450420048087835,,,,,,,,,,,,,,,,,,,,,,,,,,,,,,,,,,,,,,,,,,,,,,,,,,,,,,,,,,,,6L7FFZ,train_x,red_square,bottom_left,2025-04-16_11h01.57.488,HideSeek_v1,2022.2.5,59.95394335107952,
,4,2,7,2,3,0,46,,train_dim1_1,21,30,,,,2,0,2,0,,,,,,,,,0,0,0,0,0,20,20,20,2,0,2,0,,,,,,,,,,,,,,,,,,,,,,,,,,,,,,,,,,,,,,,,,,,,,,,,,,,,,,,,,,,,,,,,30,,,,,,,,1674.7536371997558,1674.7536371997558,1674.7536371997558,1674.7536371997558,1674.7536371997558,right,0.4934464003890753,12,0,0,99,0.4,-0.24,right,0.40431110048666596,,,,,,,,,,,,,,,,,,,,,,,,,,,,,,,,,,,,,,,,,,,,,,,,,,,,,,,,,,,,6L7FFZ,train_x,red_square,bottom_left,2025-04-16_11h01.57.488,HideSeek_v1,2022.2.5,59.95394335107952,
,4,2,7,2,3,0,46,,train_dim1_1,21,30,,,,2,0,2,0,,,,,,,,,0,0,0,0,0,20,20,20,3,0,3,0,,,,,,,,,,,,,,,,,,,,,,,,,,,,,,,,,,,,,,,,,,,,,,,,,,,,,,,,,,,,,,,,30,,,,,,,,1675.252556399908,1675.252556399908,1675.252556399908,1675.252556399908,1675.252556399908,left,2.6620573000982404,12,0,0,99,0.32,-0.24,left,2.585572000592947,,,,,,,,,,,,,,,,,,,,,,,,,,,,,,,,,,,,,,,,,,,,,,,,,,,,,,,,,,,,6L7FFZ,train_x,red_square,bottom_left,2025-04-16_11h01.57.488,HideSeek_v1,2022.2.5,59.95394335107952,
,4,2,7,2,3,0,46,,train_dim1_1,21,30,,,,2,0,2,0,,,,,,,,,0,0,0,0,0,20,20,20,4,0,4,0,,,,,,,,,,,,,,,,,,,,,,,,,,,,,,,,,,,,,,,,,,,,,,,,,,,,,,,,,,,,,,,,30,,,,,,,,1677.921316599939,1677.921316599939,1677.921316599939,1677.921316599939,1677.921316599939,return,1.3775113997980952,12,1,0,0,0.32,-0.24,return,1.29703520052135,1,57,0.32,-0.24,,,,,,,,,,,,,,,,,,,,,,,,,,,,,,,,,,,,,,,,,,,,,,,,,,,,,,,,6L7FFZ,train_x,red_square,bottom_left,2025-04-16_11h01.57.488,HideSeek_v1,2022.2.5,59.95394335107952,
,1,0,2,0,1,0,26,,train_dim1_1,22,30,,,,2,0,2,0,,,,,,,,,0,0,0,0,0,21,21,21,0,0,0,0,,,,,,,,,,,,,,,,,,,,,,,,,stimuli/alien_stimuli/26.png,,,,,,,,,,,,,,,,,,,,,,,,,,,,,stimuli/alien_stimuli/46.png,46,4,23,,,,,,,30,,,,,,,,1688.0477384999394,1688.0477384999394,1688.0477384999394,1688.0477384999394,1688.0477384999394,right,2.3392129000276327,12,1,0,99,0.0,-0.4,right,2.242967899888754,,,,,1686.4828435997479,1688.0477384999394,0.4,-0.24,0.0,0.24,-0.24,0.4,0.28,0.4,-0.24,1680.8628648999147,1680.8628648999147,1680.8628648999147,1680.8628648999147,1680.8628648999147,1680.8628648999147,1680.8628648999147,1680.8628648999147,1680.8448021599092,5.723846999928355,return,5.601723000407219,,,,,,,,,,,,,,,,,,,,,,,,,,,,,,,,,6L7FFZ,train_x,red_square,bottom_left,2025-04-16_11h01.57.488,HideSeek_v1,2022.2.5,59.95394335107952,
,1,0,2,0,1,0,26,,train_dim1_1,22,30,,,,2,0,2,0,,,,,,,,,0,0,0,0,0,21,21,21,1,0,1,0,,,,,,,,,,,,,,,,,,,,,,,,,,,,,,,,,,,,,,,,,,,,,,,,,,,,,,,,,,,,,,,,30,,,,,,,,1690.3866464998573,1690.3866464998573,1690.3866464998573,1690.3866464998573,1690.3866464998573,return,0.5763851003721356,13,0,0,1,0.0,-0.4,return,0.4866095003671944,1,58,0.0,-0.4,,,,,,,,,,,,,,,,,,,,,,,,,,,,,,,,,,,,,,,,,,,,,,,,,,,,,,,,6L7FFZ,train_x,red_square,bottom_left,2025-04-16_11h01.57.488,HideSeek_v1,2022.2.5,59.95394335107952,
,2,1,7,1,5,0,66,,train_dim1_1,23,30,,,,2,0,2,0,,,,,,,,,0,0,0,0,0,22,22,22,0,0,0,0,,,,,,,,,,,,,,,,,,,,,,,,,stimuli/alien_stimuli/66.png,,,,,,,,,,,,,,,,,,,,,,,,,,,,,stimuli/alien_stimuli/26.png,26,1,24,,,,,,,30,,,,,,,,1696.000935900025,1696.000935900025,1696.000935900025,1696.000935900025,1696.000935900025,right,2.207121300045401,13,0,0,99,0.08,-0.32,right,2.100248800124973,,,,,1694.4228616999462,1696.000935900025,0,-0.4,0.0,0.08,-0.4,0,-0.04,0,-0.4,1692.5476246997714,1692.5476246997714,1692.5476246997714,1692.5476246997714,1692.5476246997714,1692.5476246997714,1692.5476246997714,1692.5476246997714,1692.5379861796275,2.003593800123781,return,1.848890300374478,,,,,,,,,,,,,,,,,,,,,,,,,,,,,,,,,6L7FFZ,train_x,red_square,bottom_left,2025-04-16_11h01.57.488,HideSeek_v1,2022.2.5,59.95394335107952,
,2,1,7,1,5,0,66,,train_dim1_1,23,30,,,,2,0,2,0,,,,,,,,,0,0,0,0,0,22,22,22,1,0,1,0,,,,,,,,,,,,,,,,,,,,,,,,,,,,,,,,,,,,,,,,,,,,,,,,,,,,,,,,,,,,,,,,30,,,,,,,,1698.1905107996427,1698.1905107996427,1698.1905107996427,1698.1905107996427,1698.1905107996427,right,0.42637160001322627,13,0,0,99,0.16,-0.32,right,0.33751970063894987,,,,,,,,,,,,,,,,,,,,,,,,,,,,,,,,,,,,,,,,,,,,,,,,,,,,,,,,,,,,6L7FFZ,train_x,red_square,bottom_left,2025-04-16_11h01.57.488,HideSeek_v1,2022.2.5,59.95394335107952,
,2,1,7,1,5,0,66,,train_dim1_1,23,30,,,,2,0,2,0,,,,,,,,,0,0,0,0,0,22,22,22,2,0,2,0,,,,,,,,,,,,,,,,,,,,,,,,,,,,,,,,,,,,,,,,,,,,,,,,,,,,,,,,,,,,,,,,30,,,,,,,,1698.6228680997156,1698.6228680997156,1698.6228680997156,1698.6228680997156,1698.6228680997156,right,0.44337610015645623,13,0,0,99,0.24,-0.32,right,0.3602825007401407,,,,,,,,,,,,,,,,,,,,,,,,,,,,,,,,,,,,,,,,,,,,,,,,,,,,,,,,,,,,6L7FFZ,train_x,red_square,bottom_left,2025-04-16_11h01.57.488,HideSeek_v1,2022.2.5,59.95394335107952,
,2,1,7,1,5,0,66,,train_dim1_1,23,30,,,,2,0,2,0,,,,,,,,,0,0,0,0,0,22,22,22,3,0,3,0,,,,,,,,,,,,,,,,,,,,,,,,,,,,,,,,,,,,,,,,,,,,,,,,,,,,,,,,,,,,,,,,30,,,,,,,,1699.0726197999902,1699.0726197999902,1699.0726197999902,1699.0726197999902,1699.0726197999902,right,0.4438382997177541,13,0,0,99,0.32,-0.32,right,0.36467260029166937,,,,,,,,,,,,,,,,,,,,,,,,,,,,,,,,,,,,,,,,,,,,,,,,,,,,,,,,,,,,6L7FFZ,train_x,red_square,bottom_left,2025-04-16_11h01.57.488,HideSeek_v1,2022.2.5,59.95394335107952,
,2,1,7,1,5,0,66,,train_dim1_1,23,30,,,,2,0,2,0,,,,,,,,,0,0,0,0,0,22,22,22,4,0,4,0,,,,,,,,,,,,,,,,,,,,,,,,,,,,,,,,,,,,,,,,,,,,,,,,,,,,,,,,,,,,,,,,30,,,,,,,,1699.5229493998922,1699.5229493998922,1699.5229493998922,1699.5229493998922,1699.5229493998922,right,0.4768670001067221,13,0,0,99,0.4,-0.32,right,0.39928280003368855,,,,,,,,,,,,,,,,,,,,,,,,,,,,,,,,,,,,,,,,,,,,,,,,,,,,,,,,,,,,6L7FFZ,train_x,red_square,bottom_left,2025-04-16_11h01.57.488,HideSeek_v1,2022.2.5,59.95394335107952,
,2,1,7,1,5,0,66,,train_dim1_1,23,30,,,,2,0,2,0,,,,,,,,,0,0,0,0,0,22,22,22,5,0,5,0,,,,,,,,,,,,,,,,,,,,,,,,,,,,,,,,,,,,,,,,,,,,,,,,,,,,,,,,,,,,,,,,30,,,,,,,,1700.0073824999854,1700.0073824999854,1700.0073824999854,1700.0073824999854,1700.0073824999854,return,0.6438548997975886,14,0,0,1,0.4,-0.32,return,0.5685177003033459,1,63,0.4,-0.32,,,,,,,,,,,,,,,,,,,,,,,,,,,,,,,,,,,,,,,,,,,,,,,,,,,,,,,,6L7FFZ,train_x,red_square,bottom_left,2025-04-16_11h01.57.488,HideSeek_v1,2022.2.5,59.95394335107952,
,4,4,8,4,4,0,56,,train_dim1_1,24,30,,,,2,0,2,0,,,,,,,,,0,0,0,0,0,23,23,23,0,0,0,0,,,,,,,,,,,,,,,,,,,,,,,,,stimuli/alien_stimuli/56.png,,,,,,,,,,,,,,,,,,,,,,,,,,,,,stimuli/alien_stimuli/66.png,66,2,25,,,,,,,30,,,,,,,,1705.1748933997005,1705.1748933997005,1705.1748933997005,1705.1748933997005,1705.1748933997005,right,4.904668100178242,14,0,0,99,0.24,-0.08,right,4.81003800034523,,,,,1703.5970852999017,1705.1748933997005,0.4,-0.32,0.0,0.4,-0.32,0.4,0.2,0.4,-0.32,1702.2153239999898,1702.2153239999898,1702.2153239999898,1702.2153239999898,1702.2153239999898,1702.2153239999898,1702.2153239999898,1702.2153239999898,1702.196079359483,1.4863978000357747,return,1.3575694006867707,,,,,,,,,,,,,,,,,,,,,,,,,,,,,,,,,6L7FFZ,train_x,red_square,bottom_left,2025-04-16_11h01.57.488,HideSeek_v1,2022.2.5,59.95394335107952,
,4,4,8,4,4,0,56,,train_dim1_1,24,30,,,,2,0,2,0,,,,,,,,,0,0,0,0,0,23,23,23,1,0,1,0,,,,,,,,,,,,,,,,,,,,,,,,,,,,,,,,,,,,,,,,,,,,,,,,,,,,,,,,,,,,,,,,30,,,,,,,,1710.070813999977,1710.070813999977,1710.070813999977,1710.070813999977,1710.070813999977,right,3.0111672999337316,14,0,0,99,0.32,-0.08,right,2.92683710064739,,,,,,,,,,,,,,,,,,,,,,,,,,,,,,,,,,,,,,,,,,,,,,,,,,,,,,,,,,,,6L7FFZ,train_x,red_square,bottom_left,2025-04-16_11h01.57.488,HideSeek_v1,2022.2.5,59.95394335107952,
,4,4,8,4,4,0,56,,train_dim1_1,24,30,,,,2,0,2,0,,,,,,,,,0,0,0,0,0,23,23,23,2,0,2,0,,,,,,,,,,,,,,,,,,,,,,,,,,,,,,,,,,,,,,,,,,,,,,,,,,,,,,,,,,,,,,,,30,,,,,,,,1713.0868882997893,1713.0868882997893,1713.0868882997893,1713.0868882997893,1713.0868882997893,left,1.8277183999307454,14,0,0,99,0.24,-0.08,left,1.738454700447619,,,,,,,,,,,,,,,,,,,,,,,,,,,,,,,,,,,,,,,,,,,,,,,,,,,,,,,,,,,,6L7FFZ,train_x,red_square,bottom_left,2025-04-16_11h01.57.488,HideSeek_v1,2022.2.5,59.95394335107952,
,4,4,8,4,4,0,56,,train_dim1_1,24,30,,,,2,0,2,0,,,,,,,,,0,0,0,0,0,23,23,23,3,0,3,0,,,,,,,,,,,,,,,,,,,,,,,,,,,,,,,,,,,,,,,,,,,,,,,,,,,,,,,,,,,,,,,,30,,,,,,,,1714.9225987996906,1714.9225987996906,1714.9225987996906,1714.9225987996906,1714.9225987996906,right,1.0940372999757528,14,0,0,99,0.32,-0.08,right,1.0087548005394638,,,,,,,,,,,,,,,,,,,,,,,,,,,,,,,,,,,,,,,,,,,,,,,,,,,,,,,,,,,,6L7FFZ,train_x,red_square,bottom_left,2025-04-16_11h01.57.488,HideSeek_v1,2022.2.5,59.95394335107952,
,4,4,8,4,4,0,56,,train_dim1_1,24,30,,,,2,0,2,0,,,,,,,,,0,0,0,0,0,23,23,23,4,0,4,0,,,,,,,,,,,,,,,,,,,,,,,,,,,,,,,,,,,,,,,,,,,,,,,,,,,,,,,,,,,,,,,,30,,,,,,,,1716.0223051998764,1716.0223051998764,1716.0223051998764,1716.0223051998764,1716.0223051998764,return,0.5434241001494229,14,0,0,0,0.32,-0.08,return,0.462391400244087,1,65,0.32,-0.08,,,,,,,,,,,,,,,,,,,,,,,,,,,,,,,,,,,,,,,,,,,,,,,,,,,,,,,,6L7FFZ,train_x,red_square,bottom_left,2025-04-16_11h01.57.488,HideSeek_v1,2022.2.5,59.95394335107952,
,3,0,3,0,0,0,16,,train_dim1_1,25,30,,,,2,0,2,0,,,,,,,,,0,0,0,0,0,24,24,24,0,0,0,0,,,,,,,,,,,,,,,,,,,,,,,,,stimuli/alien_stimuli/16.png,,,,,,,,,,,,,,,,,,,,,,,,,,,,,stimuli/alien_stimuli/56.png,56,4,26,,,,,,,30,,,,,,,,1722.7260372997262,1722.7260372997262,1722.7260372997262,1722.7260372997262,1722.7260372997262,return,1.672880900092423,15,0,0,1,0.08,-0.4,return,1.5825006002560258,1,65,0.08,-0.4,1721.1617787000723,1722.7260372997262,0.48,-0.08,0.0,0.32,-0.08,0.48,0.32,0.48,-0.08,1718.1443086997606,1718.1443086997606,1718.1443086997606,1718.1443086997606,1718.1443086997606,1718.1443086997606,1718.1443086997606,1718.1443086997606,1718.1258387197277,3.138327700085938,return,2.985226500313729,,,,,,,,,,,,,,,,,,,,,,,,,,,,,,,,,6L7FFZ,train_x,red_square,bottom_left,2025-04-16_11h01.57.488,HideSeek_v1,2022.2.5,59.95394335107952,
,1,1,6,1,5,0,66,,train_dim1_1,26,30,,,,2,0,2,0,,,,,,,,,0,0,0,0,0,25,25,25,0,0,0,0,,,,,,,,,,,,,,,,,,,,,,,,,stimuli/alien_stimuli/66.png,,,,,,,,,,,,,,,,,,,,,,,,,,,,,stimuli/alien_stimuli/16.png,16,3,27,,,,,,,30,,,,,,,,1729.2599888998084,1729.2599888998084,1729.2599888998084,1729.2599888998084,1729.2599888998084,right,3.107936100102961,15,0,0,99,0.0,-0.32,right,3.0158112002536654,,,,,1727.700408899691,1729.2599888998084,0.08,-0.4,0.0,0.0,-0.4,0.08,0.08,0.08,-0.4,1725.9762575998902,1725.9762575998902,1725.9762575998902,1725.9762575998902,1725.9762575998902,1725.9762575998902,1725.9762575998902,1725.9762575998902,1725.9660065796227,1.8531822003424168,return,1.7008565003052354,,,,,,,,,,,,,,,,,,,,,,,,,,,,,,,,,6L7FFZ,train_x,red_square,bottom_left,2025-04-16_11h01.57.488,HideSeek_v1,2022.2.5,59.95394335107952,
,1,1,6,1,5,0,66,,train_dim1_1,26,30,,,,2,0,2,0,,,,,,,,,0,0,0,0,0,25,25,25,1,0,1,0,,,,,,,,,,,,,,,,,,,,,,,,,,,,,,,,,,,,,,,,,,,,,,,,,,,,,,,,,,,,,,,,30,,,,,,,,1732.3678943999112,1732.3678943999112,1732.3678943999112,1732.3678943999112,1732.3678943999112,right,0.7097943001426756,15,0,0,99,0.08,-0.32,right,0.6291309003718197,,,,,,,,,,,,,,,,,,,,,,,,,,,,,,,,,,,,,,,,,,,,,,,,,,,,,,,,,,,,6L7FFZ,train_x,red_square,bottom_left,2025-04-16_11h01.57.488,HideSeek_v1,2022.2.5,59.95394335107952,
,1,1,6,1,5,0,66,,train_dim1_1,26,30,,,,2,0,2,0,,,,,,,,,0,0,0,0,0,25,25,25,2,0,2,0,,,,,,,,,,,,,,,,,,,,,,,,,,,,,,,,,,,,,,,,,,,,,,,,,,,,,,,,,,,,,,,,30,,,,,,,,1733.0889182998799,1733.0889182998799,1733.0889182998799,1733.0889182998799,1733.0889182998799,right,0.7411229000426829,15,0,0,99,0.16,-0.32,right,0.651141700334847,,,,,,,,,,,,,,,,,,,,,,,,,,,,,,,,,,,,,,,,,,,,,,,,,,,,,,,,,,,,6L7FFZ,train_x,red_square,bottom_left,2025-04-16_11h01.57.488,HideSeek_v1,2022.2.5,59.95394335107952,
,1,1,6,1,5,0,66,,train_dim1_1,26,30,,,,2,0,2,0,,,,,,,,,0,0,0,0,0,25,25,25,3,0,3,0,,,,,,,,,,,,,,,,,,,,,,,,,,,,,,,,,,,,,,,,,,,,,,,,,,,,,,,,,,,,,,,,30,,,,,,,,1733.8354314998724,1733.8354314998724,1733.8354314998724,1733.8354314998724,1733.8354314998724,right,0.8270251997746527,15,0,0,99,0.24,-0.32,right,0.7408614000305533,,,,,,,,,,,,,,,,,,,,,,,,,,,,,,,,,,,,,,,,,,,,,,,,,,,,,,,,,,,,6L7FFZ,train_x,red_square,bottom_left,2025-04-16_11h01.57.488,HideSeek_v1,2022.2.5,59.95394335107952,
,1,1,6,1,5,0,66,,train_dim1_1,26,30,,,,2,0,2,0,,,,,,,,,0,0,0,0,0,25,25,25,4,0,4,0,,,,,,,,,,,,,,,,,,,,,,,,,,,,,,,,,,,,,,,,,,,,,,,,,,,,,,,,,,,,,,,,30,,,,,,,,1734.6717395996675,1734.6717395996675,1734.6717395996675,1734.6717395996675,1734.6717395996675,right,0.8103288998827338,15,0,0,99,0.32,-0.32,right,0.725627800449729,,,,,,,,,,,,,,,,,,,,,,,,,,,,,,,,,,,,,,,,,,,,,,,,,,,,,,,,,,,,6L7FFZ,train_x,red_square,bottom_left,2025-04-16_11h01.57.488,HideSeek_v1,2022.2.5,59.95394335107952,
,1,1,6,1,5,0,66,,train_dim1_1,26,30,,,,2,0,2,0,,,,,,,,,0,0,0,0,0,25,25,25,5,0,5,0,,,,,,,,,,,,,,,,,,,,,,,,,,,,,,,,,,,,,,,,,,,,,,,,,,,,,,,,,,,,,,,,30,,,,,,,,1735.4862039000727,1735.4862039000727,1735.4862039000727,1735.4862039000727,1735.4862039000727,return,0.9938125000335276,16,0,0,1,0.32,-0.32,return,0.9175442000851035,1,70,0.32,-0.32,,,,,,,,,,,,,,,,,,,,,,,,,,,,,,,,,,,,,,,,,,,,,,,,,,,,,,,,6L7FFZ,train_x,red_square,bottom_left,2025-04-16_11h01.57.488,HideSeek_v1,2022.2.5,59.95394335107952,
,0,1,3,1,3,0,46,,train_dim1_1,27,30,,,,2,0,2,0,,,,,,,,,0,0,0,0,0,26,26,26,0,0,0,0,,,,,,,,,,,,,,,,,,,,,,,,,stimuli/alien_stimuli/46.png,,,,,,,,,,,,,,,,,,,,,,,,,,,,,stimuli/alien_stimuli/66.png,66,1,28,,,,,,,30,,,,,,,,1740.9802595996298,1740.9802595996298,1740.9802595996298,1740.9802595996298,1740.9802595996298,right,29.060965599957854,16,0,0,99,-0.08,-0.32,right,28.964780300389975,,,,,1739.4104112000205,1740.9802595996298,0.32,-0.32,0.0,0.4,-0.32,0.32,0.12,0.32,-0.32,1738.0640308996662,1738.0640308996662,1738.0640308996662,1738.0640308996662,1738.0640308996662,1738.0640308996662,1738.0640308996662,1738.0640308996662,1738.0422110198533,1.4701986000873148,return,1.3241791003383696,,,,,,,,,,,,,,,,,,,,,,,,,,,,,,,,,6L7FFZ,train_x,red_square,bottom_left,2025-04-16_11h01.57.488,HideSeek_v1,2022.2.5,59.95394335107952,
,0,1,3,1,3,0,46,,train_dim1_1,27,30,,,,2,0,2,0,,,,,,,,,0,0,0,0,0,26,26,26,1,0,1,0,,,,,,,,,,,,,,,,,,,,,,,,,,,,,,,,,,,,,,,,,,,,,,,,,,,,,,,,,,,,,,,,30,,,,,,,,1770.0513319997117,1770.0513319997117,1770.0513319997117,1770.0513319997117,1770.0513319997117,right,1.1264891000464559,16,0,0,99,0.0,-0.32,right,1.02163640037179,,,,,,,,,,,,,,,,,,,,,,,,,,,,,,,,,,,,,,,,,,,,,,,,,,,,,,,,,,,,6L7FFZ,train_x,red_square,bottom_left,2025-04-16_11h01.57.488,HideSeek_v1,2022.2.5,59.95394335107952,
,0,1,3,1,3,0,46,,train_dim1_1,27,30,,,,2,0,2,0,,,,,,,,,0,0,0,0,0,26,26,26,2,0,2,0,,,,,,,,,,,,,,,,,,,,,,,,,,,,,,,,,,,,,,,,,,,,,,,,,,,,,,,,,,,,,,,,30,,,,,,,,1771.166620799806,1771.166620799806,1771.166620799806,1771.166620799806,1771.166620799806,right,2.24474890017882,16,0,0,99,0.08,-0.32,right,2.1706482004374266,,,,,,,,,,,,,,,,,,,,,,,,,,,,,,,,,,,,,,,,,,,,,,,,,,,,,,,,,,,,6L7FFZ,train_x,red_square,bottom_left,2025-04-16_11h01.57.488,HideSeek_v1,2022.2.5,59.95394335107952,
,0,1,3,1,3,0,46,,train_dim1_1,27,30,,,,2,0,2,0,,,,,,,,,0,0,0,0,0,26,26,26,3,0,3,0,,,,,,,,,,,,,,,,,,,,,,,,,,,,,,,,,,,,,,,,,,,,,,,,,,,,,,,,,,,,,,,,30,,,,,,,,1773.4186555999331,1773.4186555999331,1773.4186555999331,1773.4186555999331,1773.4186555999331,return,1.3942843000404537,17,0,0,1,0.08,-0.32,return,1.3096374003216624,1,73,0.08,-0.32,,,,,,,,,,,,,,,,,,,,,,,,,,,,,,,,,,,,,,,,,,,,,,,,,,,,,,,,6L7FFZ,train_x,red_square,bottom_left,2025-04-16_11h01.57.488,HideSeek_v1,2022.2.5,59.95394335107952,
,3,1,4,1,1,0,26,,train_dim1_1,28,30,,,,2,0,2,0,,,,,,,,,0,0,0,0,0,27,27,27,0,0,0,0,,,,,,,,,,,,,,,,,,,,,,,,,stimuli/alien_stimuli/26.png,,,,,,,,,,,,,,,,,,,,,,,,,,,,,stimuli/alien_stimuli/46.png,46,0,29,,,,,,,30,,,,,,,,1779.6363774999045,1779.6363774999045,1779.6363774999045,1779.6363774999045,1779.6363774999045,right,2.157453099731356,17,0,0,99,0.16,-0.32,right,2.048225000500679,,,,,1778.0588122997433,1779.6363774999045,0.08,-0.32,0.0,0.24,-0.32,0.08,-0.04,0.08,-0.32,1776.3852597000077,1776.3852597000077,1776.3852597000077,1776.3852597000077,1776.3852597000077,1776.3852597000077,1776.3852597000077,1776.3852597000077,1776.3739802198952,1.78719890024513,return,1.652400600258261,,,,,,,,,,,,,,,,,,,,,,,,,,,,,,,,,6L7FFZ,train_x,red_square,bottom_left,2025-04-16_11h01.57.488,HideSeek_v1,2022.2.5,59.95394335107952,
,3,1,4,1,1,0,26,,train_dim1_1,28,30,,,,2,0,2,0,,,,,,,,,0,0,0,0,0,27,27,27,1,0,1,0,,,,,,,,,,,,,,,,,,,,,,,,,,,,,,,,,,,,,,,,,,,,,,,,,,,,,,,,,,,,,,,,30,,,,,,,,1781.7803143998608,1781.7803143998608,1781.7803143998608,1781.7803143998608,1781.7803143998608,return,0.9263937999494374,18,0,0,1,0.16,-0.32,return,0.8337846002541482,1,74,0.16,-0.32,,,,,,,,,,,,,,,,,,,,,,,,,,,,,,,,,,,,,,,,,,,,,,,,,,,,,,,,6L7FFZ,train_x,red_square,bottom_left,2025-04-16_11h01.57.488,HideSeek_v1,2022.2.5,59.95394335107952,
,4,0,8,0,4,0,56,,train_dim1_1,29,30,,,,2,0,2,0,,,,,,,,,0,0,0,0,0,28,28,28,0,0,0,0,,,,,,,,,,,,,,,,,,,,,,,,,stimuli/alien_stimuli/56.png,,,,,,,,,,,,,,,,,,,,,,,,,,,,,stimuli/alien_stimuli/26.png,26,3,30,,,,,,,30,,,,,,,,1787.0889578997158,1787.0889578997158,1787.0889578997158,1787.0889578997158,1787.0889578997158,right,2.1732264002785087,18,0,0,99,0.24,-0.4,right,2.078949900344014,,,,,1785.515172699932,1787.0889578997158,0.16,-0.32,0.0,0.08,-0.32,0.16,0.12,0.16,-0.32,1784.271642100066,1784.271642100066,1784.271642100066,1784.271642100066,1784.271642100066,1784.271642100066,1784.271642100066,1784.271642100066,1784.264289719472,1.3529997998848557,return,1.2155938004143536,,,,,,,,,,,,,,,,,,,,,,,,,,,,,,,,,6L7FFZ,train_x,red_square,bottom_left,2025-04-16_11h01.57.488,HideSeek_v1,2022.2.5,59.95394335107952,
,4,0,8,0,4,0,56,,train_dim1_1,29,30,,,,2,0,2,0,,,,,,,,,0,0,0,0,0,28,28,28,1,0,1,0,,,,,,,,,,,,,,,,,,,,,,,,,,,,,,,,,,,,,,,,,,,,,,,,,,,,,,,,,,,,,,,,30,,,,,,,,1789.25060759997,1789.25060759997,1789.25060759997,1789.25060759997,1789.25060759997,right,0.7436195001937449,18,0,0,99,0.32,-0.4,right,0.6570435003377497,,,,,,,,,,,,,,,,,,,,,,,,,,,,,,,,,,,,,,,,,,,,,,,,,,,,,,,,,,,,6L7FFZ,train_x,red_square,bottom_left,2025-04-16_11h01.57.488,HideSeek_v1,2022.2.5,59.95394335107952,
,4,0,8,0,4,0,56,,train_dim1_1,29,30,,,,2,0,2,0,,,,,,,,,0,0,0,0,0,28,28,28,2,0,2,0,,,,,,,,,,,,,,,,,,,,,,,,,,,,,,,,,,,,,,,,,,,,,,,,,,,,,,,,,,,,,,,,30,,,,,,,,1790.0011632000096,1790.0011632000096,1790.0011632000096,1790.0011632000096,1790.0011632000096,right,0.7101019001565874,18,0,0,99,0.4,-0.4,right,0.6358357002027333,,,,,,,,,,,,,,,,,,,,,,,,,,,,,,,,,,,,,,,,,,,,,,,,,,,,,,,,,,,,6L7FFZ,train_x,red_square,bottom_left,2025-04-16_11h01.57.488,HideSeek_v1,2022.2.5,59.95394335107952,
,4,0,8,0,4,0,56,,train_dim1_1,29,30,,,,2,0,2,0,,,,,,,,,0,0,0,0,0,28,28,28,3,0,3,0,,,,,,,,,,,,,,,,,,,,,,,,,,,,,,,,,,,,,,,,,,,,,,,,,,,,,,,,,,,,,,,,30,,,,,,,,1790.7172750998288,1790.7172750998288,1790.7172750998288,1790.7172750998288,1790.7172750998288,return,0.7603925997391343,18,1,0,0,0.4,-0.4,return,0.6798179005272686,1,77,0.4,-0.4,,,,,,,,,,,,,,,,,,,,,,,,,,,,,,,,,,,,,,,,,,,,,,,,,,,,,,,,6L7FFZ,train_x,red_square,bottom_left,2025-04-16_11h01.57.488,HideSeek_v1,2022.2.5,59.95394335107952,
,2,2,2,2,0,0,16,,train_dim1_1,30,30,,,,2,0,2,0,,,,,,,,,0,0,0,0,0,29,29,29,0,0,0,0,,,,,,,,,,,,,,,,,,,,,,,,,stimuli/alien_stimuli/16.png,,,,,,,,,,,,,,,,,,,,,,,,,,,,,stimuli/alien_stimuli/56.png,56,4,31,,,,,,,30,,,,,,,,1797.0158355999738,1797.0158355999738,1797.0158355999738,1797.0158355999738,1797.0158355999738,return,2.1730925999581814,19,0,0,1,0,-0.24,return,2.062738200183958,1,77,0,-0.24,1795.4401992997155,1797.0158355999738,0.48,-0.4,0.0,0.32,-0.4,0.48,0.32,0.48,-0.4,1793.043771599885,1793.043771599885,1793.043771599885,1793.043771599885,1793.043771599885,1793.043771599885,1793.043771599885,1793.043771599885,1793.0381181197708,2.504280200228095,return,2.373297800309956,,,,,,,,,,,,,,,,,,,,,,,,,,,,,,,,,6L7FFZ,train_x,red_square,bottom_left,2025-04-16_11h01.57.488,HideSeek_v1,2022.2.5,59.95394335107952,
,,,,,,,,,,,30,,,,2,0,2,0,,,,,,,,,,,,,,,,,,,,,,,,,,,,,,,,,,,,,,,,,,,,,,,,,,,,,,,,,,,,,,,,,,,,,,,,,,stimuli/alien_stimuli/16.png,16,2,32,21,0.7,0.7916666666666667,1,1,1,30,0,conditions/schedules/train_x_first/red_square_00/bottom_left/inputTrain_2.1.xlsx,99,1,2,1,0,,,,,,,,,,,1,,,,,,,,,1802.145546699874,1803.6875189999118,0,-0.24,0.0,0.0,-0.24,0,0.0,0,-0.24,1800.7376874000765,1800.7376874000765,1800.7376874000765,1800.7376874000765,1800.7376874000765,1800.7376874000765,1800.7376874000765,1800.7376874000765,1800.7280779196417,1.519814900122583,return,1.3780762003734708,0,0.9,0,1,19,,,,,,,,,,,,,,,,,,,,,,,,,,,,6L7FFZ,train_x,red_square,bottom_left,2025-04-16_11h01.57.488,HideSeek_v1,2022.2.5,59.95394335107952,
,,,,,,,,,,,,,,,3,0,3,0,0,0,0,0,,,,,,,,,,,,,,,,,,,,,,,,,,,,,,,conditions/schedules/train_x_first/red_square_00/bottom_left/instructions/Slide17.png,conditions/schedules/train_x_first/red_square_00/bottom_left/instructions/Audio17.wav,1803.6875189999118,1803.6801161799115,17,"[6.759838200174272, 29.157388399820775, 17.023104700259864, 19.690380500163883, 4.683350200299174, 5.116195400245488, 5.603618700057268, 12.657794400118291, 6.368976500350982, 7.03313530003652, 10.151621399912983, 12.970062599983066, 18.81479740003124, 30.134458099957556, 32.147111900150776, 21.631152600049973, 61.95820950018242]","[0.1486999997869134, 0.03195049986243248, 0.03654809994623065, 0.04626940004527569, 0.06438040034845471, 0.11617950024083257, 0.11400109995156527, 0.0637292000465095, 0.4608295001089573, 0.047125100158154964, 0.030367599800229073, 12.970068600028753, 0.00023079989477992058, 30.13446439988911, 0.08176789991557598, 21.63116019964218, 61.95821700012311]",0,,,,,,,,,,,,,,,,,,,,,,,,,,,,,,,,,,,,,,,,,,,,,,,,,,,,,,,,,,,,,,,,,,,,,,,,,,,,,,,,,,,,,,,,,,,,,,,,,,,,,,,,,,,,,,,,,,,,,,,,,,,,6L7FFZ,train_x,red_square,bottom_left,2025-04-16_11h01.57.488,HideSeek_v1,2022.2.5,59.95394335107952,
,,,,,,,,,,,,,,,3,0,3,0,1,0,1,0,,,,,,,,,,,,,,,,,,,,,,,,,,,,,,,conditions/schedules/train_x_first/red_square_00/bottom_left/instructions/Slide18.png,conditions/schedules/train_x_first/red_square_00/bottom_left/instructions/Audio18.wav,1865.7117193997838,1865.6987146398985,18,"[6.759838200174272, 29.157388399820775, 17.023104700259864, 19.690380500163883, 4.683350200299174, 5.116195400245488, 5.603618700057268, 12.657794400118291, 6.368976500350982, 7.03313530003652, 10.151621399912983, 12.970062599983066, 18.81479740003124, 30.134458099957556, 32.147111900150776, 21.631152600049973, 61.95820950018242, 6.4066854999400675]","[0.1486999997869134, 0.03195049986243248, 0.03654809994623065, 0.04626940004527569, 0.06438040034845471, 0.11617950024083257, 0.11400109995156527, 0.0637292000465095, 0.4608295001089573, 0.047125100158154964, 0.030367599800229073, 12.970068600028753, 0.00023079989477992058, 30.13446439988911, 0.08176789991557598, 21.63116019964218, 0.00022749975323677063, 6.4066918999888]",0,,,,,,,,,,,,,,,,,,,,,,,,,,,,,,,,,,,,,,,,,,,,,,,,,,,,,,,,,,,,,,,,,,,,,,,,,,,,,,,,,,,,,,,,,,,,,,,,,,,,,,,,,,,,,,,,,,,,,,,,,,,,6L7FFZ,train_x,red_square,bottom_left,2025-04-16_11h01.57.488,HideSeek_v1,2022.2.5,59.95394335107952,
,,,,,,,,,,,,,,,3,0,3,0,2,0,2,0,,,,,,,,,,,,,,,,,,,,,,,,,,,,,,,conditions/schedules/train_x_first/red_square_00/bottom_left/instructions/Slide19.png,conditions/schedules/train_x_first/red_square_00/bottom_left/instructions/Audio19.wav,1872.157291200012,1872.1538588796277,19,"[6.759838200174272, 29.157388399820775, 17.023104700259864, 19.690380500163883, 4.683350200299174, 5.116195400245488, 5.603618700057268, 12.657794400118291, 6.368976500350982, 7.03313530003652, 10.151621399912983, 12.970062599983066, 18.81479740003124, 30.134458099957556, 32.147111900150776, 21.631152600049973, 61.95820950018242, 6.4066854999400675, 10.852831299882382]","[0.1486999997869134, 0.03195049986243248, 0.03654809994623065, 0.04626940004527569, 0.06438040034845471, 0.11617950024083257, 0.11400109995156527, 0.0637292000465095, 0.4608295001089573, 0.047125100158154964, 0.030367599800229073, 12.970068600028753, 0.00023079989477992058, 30.13446439988911, 0.08176789991557598, 21.63116019964218, 0.00022749975323677063, 0.0628537000156939, 10.852837500162423]",0,,,,,,,,,,,,,,,,,,,,,,,,,,,,,,,,,,,,,,,,,,,,,,,,,,,,,,,,,,,,,,,,,,,,,,,,,,,,,,,,,,,,,,,,,,,,,,,,,,,,,,,,,,,,,,,,,,,,,,,,,,,,6L7FFZ,train_x,red_square,bottom_left,2025-04-16_11h01.57.488,HideSeek_v1,2022.2.5,59.95394335107952,
,,,,,,,,,,,,,,,3,0,3,0,3,0,3,0,,,,,,,,,,,,,,,,,,,,,,,,,,,,,,,conditions/schedules/train_x_first/red_square_00/bottom_left/instructions/Slide20.png,conditions/schedules/train_x_first/red_square_00/bottom_left/instructions/Audio20.wav,1883.083324600011,1883.0797030997928,20,"[6.759838200174272, 29.157388399820775, 17.023104700259864, 19.690380500163883, 4.683350200299174, 5.116195400245488, 5.603618700057268, 12.657794400118291, 6.368976500350982, 7.03313530003652, 10.151621399912983, 12.970062599983066, 18.81479740003124, 30.134458099957556, 32.147111900150776, 21.631152600049973, 61.95820950018242, 6.4066854999400675, 10.852831299882382, 14.238756900187582]","[0.1486999997869134, 0.03195049986243248, 0.03654809994623065, 0.04626940004527569, 0.06438040034845471, 0.11617950024083257, 0.11400109995156527, 0.0637292000465095, 0.4608295001089573, 0.047125100158154964, 0.030367599800229073, 12.970068600028753, 0.00023079989477992058, 30.13446439988911, 0.08176789991557598, 21.63116019964218, 0.00022749975323677063, 0.0628537000156939, 0.030810600146651268, 14.238763900008053]",0,,,,,,,,,,,,,,,,,,,,,,,,,,,,,,,,,,,,,,,,,,,,,,,,,,,,,,,,,,,,,,,,,,,,,,,,,,,,,,,,,,,,,,,,,,,,,,,,,,,,,,,,,,,,,,,,,,,,,,,,,,,,6L7FFZ,train_x,red_square,bottom_left,2025-04-16_11h01.57.488,HideSeek_v1,2022.2.5,59.95394335107952,
1,2,3,2,8,0,5,11,2,instr_dim1_2,,,,,,3,0,3,0,,,,,0,0,0,0,,,,,,,,,,,,,,,,,,,,,,,,,,,,,,,,,,,,,stimuli/alien_stimuli/11.png,conditions/schedules/train_x_first/red_square_00/bottom_left/inputInstr_2.xlsx,stimuli/alien_stimuli/11.png,1897.424325299915,1897.424325299915,1897.424325299915,1897.424325299915,1897.4248650194613,return,13.037778700236231,"[-0.16, -0.08, 0, 0.08, 0.16, 0.24, 0.32, 0.4, 0.48, 0.56]","[-0.4, -0.32, -0.24, -0.16, -0.08, 0, 0.08, 0.16, 0.24, 0.32]",8,3,2,2,0.4,0.0,1910.6327917999588,1910.6327917999588,1910.6327917999588,1910.6327917999588,1910.6327917999588,1910.6327917999588,1910.6327917999588,1910.6192466394511,6.222349599935114,return,6.052206000778824,stimuli/alien_stimuli/11.png,11,2,1,,,,,,,,,,,,,,,,,,,,,,,,,,,,,,,,,,,,,,,,,,,,,,,,,,,,,,,,,,,,,,,,,,,,,,,,,,,,,,,,,,,,,,,,,6L7FFZ,train_x,red_square,bottom_left,2025-04-16_11h01.57.488,HideSeek_v1,2022.2.5,59.95394335107952,
,,,,,,,,,,,30,,,,3,0,3,0,,,,,,,,,,,,,,,,,,,,,,,,,,,,,,,,,,,,,,,,,,,,,,,,,,,,,,,,,,,,,,,,,,,,,,,,,,,,,,21,0.7,0.7916666666666667,1,99,2,30,0,conditions/schedules/train_x_first/red_square_00/bottom_left/inputTrain_2.1.xlsx,99,1,2,1,0,,,,,,,,,,,,,,,,,,,,,,,,,,,,,,,,,,,,,,,,,,,,,,,,,,,,,,,,,,,,,,,,,,,,,,,,,,,6L7FFZ,train_x,red_square,bottom_left,2025-04-16_11h01.57.488,HideSeek_v1,2022.2.5,59.95394335107952,
,,,,,,,,,,,,,,,4,0,4,0,0,0,0,0,,,,,,,,,,,,,,,,,,,,,,,,,,,,,,,conditions/schedules/train_x_first/red_square_00/bottom_left/instructions/Slide21.png,conditions/schedules/train_x_first/red_square_00/bottom_left/instructions/Audio21.wav,1916.877953299787,1916.874122159416,21,"[6.759838200174272, 29.157388399820775, 17.023104700259864, 19.690380500163883, 4.683350200299174, 5.116195400245488, 5.603618700057268, 12.657794400118291, 6.368976500350982, 7.03313530003652, 10.151621399912983, 12.970062599983066, 18.81479740003124, 30.134458099957556, 32.147111900150776, 21.631152600049973, 61.95820950018242, 6.4066854999400675, 10.852831299882382, 14.238756900187582, 18.65900389989838]","[0.1486999997869134, 0.03195049986243248, 0.03654809994623065, 0.04626940004527569, 0.06438040034845471, 0.11617950024083257, 0.11400109995156527, 0.0637292000465095, 0.4608295001089573, 0.047125100158154964, 0.030367599800229073, 12.970068600028753, 0.00023079989477992058, 30.13446439988911, 0.08176789991557598, 21.63116019964218, 0.00022749975323677063, 0.0628537000156939, 0.030810600146651268, 14.238763900008053, 18.659010499715805]",0,,,,,,,,,,,,,,,,,,,,,,,,,,,,,,,,,,,,,,,,,,,,,,,,,,,,,,,,,,,,,,,,,,,,,,,,,,,,,,,,,,,,,,,,,,,,,,,,,,,,,,,,,,,,,,,,,,,,,,,,,,,,6L7FFZ,train_x,red_square,bottom_left,2025-04-16_11h01.57.488,HideSeek_v1,2022.2.5,59.95394335107952,
2,0,3,0,3,0,0,16,2,instr_dim1_2,,,,,,4,0,4,0,,,,,0,0,0,0,,,,,,,,,,,,,,,,,,,,,,,,,,,,,,,,,,,,,stimuli/alien_stimuli/16.png,conditions/schedules/train_x_first/red_square_00/bottom_left/inputInstr_2.xlsx,stimuli/alien_stimuli/16.png,1935.6316863000393,1935.6316863000393,1935.6316863000393,1935.6316863000393,1935.6233167598025,return,8.21133300056681,"[-0.16, -0.08, 0, 0.08, 0.16, 0.24, 0.32, 0.4, 0.48, 0.56]","[-0.4, -0.32, -0.24, -0.16, -0.08, 0, 0.08, 0.16, 0.24, 0.32]",3,3,0,0,0.0,0.0,1943.9950406998396,1943.9950406998396,1943.9950406998396,1943.9950406998396,1943.9950406998396,1943.9950406998396,1943.9950406998396,1943.9971970395652,6.106348600238562,return,5.95302850054577,stimuli/alien_stimuli/16.png,16,0,2,,,,,,,,,,,,,,,,,,,,,,,,,,,,,,,,,,,,,,,,,,,,,,,,,,,,,,,,,,,,,,,,,,,,,,,,,,,,,,,,,,,,,,,,,6L7FFZ,train_x,red_square,bottom_left,2025-04-16_11h01.57.488,HideSeek_v1,2022.2.5,59.95394335107952,
,,,,,,,,,,,30,,,,4,0,4,0,,,,,,,,,,,,,,,,,,,,,,,,,,,,,,,,,,,,,,,,,,,,,,,,,,,,,,,,,,,,,,,,,,,,,,,,,,,,,,21,0.7,0.7916666666666667,1,99,2,30,0,conditions/schedules/train_x_first/red_square_00/bottom_left/inputTrain_2.1.xlsx,99,1,2,1,0,,,,,,,,,,,,,,,,,,,,,,,,,,,,,,,,,,,,,,,,,,,,,,,,,,,,,,,,,,,,,,,,,,,,,,,,,,,6L7FFZ,train_x,red_square,bottom_left,2025-04-16_11h01.57.488,HideSeek_v1,2022.2.5,59.95394335107952,
,,,,,,,,,,,,,,,5,0,5,0,0,0,0,0,,,,,,,,,,,,,,,,,,,,,,,,,,,,,,,conditions/schedules/train_x_first/red_square_00/bottom_left/instructions/Slide22.png,conditions/schedules/train_x_first/red_square_00/bottom_left/instructions/Audio22.wav,1950.1497859000228,1950.1520867195914,22,"[6.759838200174272, 29.157388399820775, 17.023104700259864, 19.690380500163883, 4.683350200299174, 5.116195400245488, 5.603618700057268, 12.657794400118291, 6.368976500350982, 7.03313530003652, 10.151621399912983, 12.970062599983066, 18.81479740003124, 30.134458099957556, 32.147111900150776, 21.631152600049973, 61.95820950018242, 6.4066854999400675, 10.852831299882382, 14.238756900187582, 18.65900389989838, 43.635707300156355]","[0.1486999997869134, 0.03195049986243248, 0.03654809994623065, 0.04626940004527569, 0.06438040034845471, 0.11617950024083257, 0.11400109995156527, 0.0637292000465095, 0.4608295001089573, 0.047125100158154964, 0.030367599800229073, 12.970068600028753, 0.00023079989477992058, 30.13446439988911, 0.08176789991557598, 21.63116019964218, 0.00022749975323677063, 0.0628537000156939, 0.030810600146651268, 14.238763900008053, 18.659010499715805, 43.63571420032531]",0,,,,,,,,,,,,,,,,,,,,,,,,,,,,,,,,,,,,,,,,,,,,,,,,,,,,,,,,,,,,,,,,,,,,,,,,,,,,,,,,,,,,,,,,,,,,,,,,,,,,,,,,,,,,,,,,,,,,,,,,,,,,6L7FFZ,train_x,red_square,bottom_left,2025-04-16_11h01.57.488,HideSeek_v1,2022.2.5,59.95394335107952,
,0,0,0,1,0,1,15,,train_dim1_2,1,30,,,,5,0,5,0,,,,,,,,,0,0,0,0,0,0,0,0,0,0,0,0,,,,,,,,,,,,,,,,,,,,,,,,,stimuli/alien_stimuli/15.png,,,,,,,,,,,,,,,,,,,,,,,,,,,,,,,,,,,,,,,30,,,,,,,,1993.8941067997366,1993.8941067997366,1993.8941067997366,1993.8941067997366,1993.8941067997366,right,5.045152600388974,0,0,0,99,-0.08,-0.4,right,4.9463887005113065,,,,,,,,,,,,,,,,,,,,,,,,,,,,,,,,,,,,,,,,,,,,,,,,,,,,,,,,,,,,6L7FFZ,train_x,red_square,bottom_left,2025-04-16_11h01.57.488,HideSeek_v1,2022.2.5,59.95394335107952,
,0,0,0,1,0,1,15,,train_dim1_2,1,30,,,,5,0,5,0,,,,,,,,,0,0,0,0,0,0,0,0,1,0,1,0,,,,,,,,,,,,,,,,,,,,,,,,,,,,,,,,,,,,,,,,,,,,,,,,,,,,,,,,,,,,,,,,30,,,,,,,,1998.9279602998868,1998.9279602998868,1998.9279602998868,1998.9279602998868,1998.9279602998868,right,0.6931547997519374,0,0,0,99,0.0,-0.4,right,0.6031861007213593,,,,,,,,,,,,,,,,,,,,,,,,,,,,,,,,,,,,,,,,,,,,,,,,,,,,,,,,,,,,6L7FFZ,train_x,red_square,bottom_left,2025-04-16_11h01.57.488,HideSeek_v1,2022.2.5,59.95394335107952,
,0,0,0,1,0,1,15,,train_dim1_2,1,30,,,,5,0,5,0,,,,,,,,,0,0,0,0,0,0,0,0,2,0,2,0,,,,,,,,,,,,,,,,,,,,,,,,,,,,,,,,,,,,,,,,,,,,,,,,,,,,,,,,,,,,,,,,30,,,,,,,,1999.6274447999895,1999.6274447999895,1999.6274447999895,1999.6274447999895,1999.6274447999895,right,0.6608310998417437,0,0,0,99,0.08,-0.4,right,0.5823234003037214,,,,,,,,,,,,,,,,,,,,,,,,,,,,,,,,,,,,,,,,,,,,,,,,,,,,,,,,,,,,6L7FFZ,train_x,red_square,bottom_left,2025-04-16_11h01.57.488,HideSeek_v1,2022.2.5,59.95394335107952,
,0,0,0,1,0,1,15,,train_dim1_2,1,30,,,,5,0,5,0,,,,,,,,,0,0,0,0,0,0,0,0,3,0,3,0,,,,,,,,,,,,,,,,,,,,,,,,,,,,,,,,,,,,,,,,,,,,,,,,,,,,,,,,,,,,,,,,30,,,,,,,,2000.295953499619,2000.295953499619,2000.295953499619,2000.295953499619,2000.295953499619,right,0.7265722998417914,0,0,0,99,0.16,-0.4,right,0.6357241002842784,,,,,,,,,,,,,,,,,,,,,,,,,,,,,,,,,,,,,,,,,,,,,,,,,,,,,,,,,,,,6L7FFZ,train_x,red_square,bottom_left,2025-04-16_11h01.57.488,HideSeek_v1,2022.2.5,59.95394335107952,
