trialInstr,x_fixStart,y_fixStart,x_corrSteps,y_corrSteps,x_nrSteps,y_nrSteps,alienID,trialLength,version,trialTrain,praclen,testlen,trial_label,break_on_off,beforeExpLoop.thisRepN,beforeExpLoop.thisTrialN,beforeExpLoop.thisN,beforeExpLoop.thisIndex,mini_instr_trials.thisRepN,mini_instr_trials.thisTrialN,mini_instr_trials.thisN,mini_instr_trials.thisIndex,instrLoop.thisRepN,instrLoop.thisTrialN,instrLoop.thisN,instrLoop.thisIndex,repeat_prac.thisRepN,repeat_prac.thisTrialN,repeat_prac.thisN,repeat_prac.thisIndex,trainLoop.thisRepN,trainLoop.thisTrialN,trainLoop.thisN,trainLoop.thisIndex,moveLoop_train.thisRepN,moveLoop_train.thisTrialN,moveLoop_train.thisN,moveLoop_train.thisIndex,experiment.thisRepN,experiment.thisTrialN,experiment.thisN,experiment.thisIndex,moveLoop_test.thisRepN,moveLoop_test.thisTrialN,moveLoop_test.thisN,moveLoop_test.thisIndex,mini_instr2_trials.thisRepN,mini_instr2_trials.thisTrialN,mini_instr2_trials.thisN,mini_instr2_trials.thisIndex,start_all_time,url,slideStim,audioStim,slides.started,sounds.started,nextButton.numClicks,nextButton.timesOn,nextButton.timesOff,prev_but.numClicks,prev_but.timesOn,prev_but.timesOff,alienStim,instrFile,alienStim_instr,gridImage_instr.started,startPos_3.started,key_instr.started,alienImage_3.started,sounds_1.started,key_instr.keys,key_instr.rt,all_x,all_y,FBy_corrSteps,FBy_fixStart,FBx_corrSteps,FBx_fixStart,FBy_pathSize_check,FBx_pathSize_check,gridImage_9.started,alienImageFB_3.started,startPosFB_3.started,keyFB_3.started,pathLine_ydir_2.started,pathLine_xdir_2.started,alienFace_3.started,sounds_2.started,RTFB_instr,keyFB_3.keys,keyFB_3.rt,draw_alienStim,draw_alienID,test_x,nrepcount,perfthres,percthres,earlierperf,earlystop,nextPrac,fileidx,praclen,saveACC_train,pracFile,nextPrac_train,addNrep,fileidx_endr,repExp,showearly,gridImage_4.started,startPos.started,movePos.started,key_resp.started,alienImage.started,buttonPress_train,RTchoice_train,cumAcctrain,aCorr,saveACC_choice,corrAns,x_movePos_end,y_movePos_end,key_resp.keys,key_resp.rt,wLy_dir,wLx_dir,x_movePos,y_movePos,text_2.started,text_2.stopped,aft_x_corrPos,aft_y_corrPos,y_pathSize_check,x_pathSize_check,y_pathdirY,x_pathdirY,x_pathdirX,x_corrPos,y_corrPos,gridImage_6.started,alienImageFB_2.started,startPosFB_2.started,movePosFB_2.started,keyFB_2.started,pathLine_xdir.started,pathLine_ydir.started,alienFace.started,sounds_4.started,RT_FBtrain,keyFB_2.keys,keyFB_2.rt,saveACC_pre,ACC,within_saveACC_train,earlystop_wloop,cumAcctrain_check,gridImage_3.started,alienImage_test.started,startPos_test.started,movePos_test.started,key_resp_test.started,wLy_dir_test,wLx_dir_test,buttonPress_test,RTchoice_test,cumAcctest,corrAns_test,key_resp_test.keys,key_resp_test.rt,text_3.started,text_3.stopped,total_time,end_all_time,key_resp_3.keys,slides_2.started,sounds_3.started,nextButton_2.numClicks,nextButton_2.timesOn,nextButton_2.timesOff,prev_but_2.numClicks,prev_but_2.timesOn,prev_but_2.timesOff,bye.started,participant,train_first,00_coordinate,starting corner,date,expName,psychopyVersion,frameRate,
,,,,,,,,,,,,,,,0,0,0,0,0,0,0,0,,,,,,,,,,,,,,,,,,,,,,,,,,,,,start_all_time,testround,conditions/schedules/train_x_first/red_square_00/bottom_left/instructions/Slide1.png,conditions/schedules/train_x_first/red_square_00/bottom_left/instructions/Audio1.wav,1103.126105699921,1103.0785297397756,1,[6.817582300049253],[6.817588599980809],0,,,,,,,,,,,,,,,,,,,,,,,,,,,,,,,,,,,,,,,,,,,,,,,,,,,,,,,,,,,,,,,,,,,,,,,,,,,,,,,,,,,,,,,,,,,,,,,,,,,,,,,,,,,,,,,,,,,,,,,,,,,,6W8LXD,train_x,red_square,bottom_left,2025-02-03_14h34.59.621,HideSeek_v1,2022.2.5,59.90377058940091,
,,,,,,,,,,,,,,,0,0,0,0,1,0,1,0,,,,,,,,,,,,,,,,,,,,,,,,,,,,,,,conditions/schedules/train_x_first/red_square_00/bottom_left/instructions/Slide2.png,conditions/schedules/train_x_first/red_square_00/bottom_left/instructions/Audio2.wav,1109.9609157999512,1109.9480598600114,2,"[6.817582300049253, 18.117997900000773]","[0.01428689993917942, 18.11802259995602]",0,,,,,,,,,,,,,,,,,,,,,,,,,,,,,,,,,,,,,,,,,,,,,,,,,,,,,,,,,,,,,,,,,,,,,,,,,,,,,,,,,,,,,,,,,,,,,,,,,,,,,,,,,,,,,,,,,,,,,,,,,,,,6W8LXD,train_x,red_square,bottom_left,2025-02-03_14h34.59.621,HideSeek_v1,2022.2.5,59.90377058940091,
,,,,,,,,,,,,,,,0,0,0,0,2,0,2,0,,,,,,,,,,,,,,,,,,,,,,,,,,,,,,,conditions/schedules/train_x_first/red_square_00/bottom_left/instructions/Slide3.png,conditions/schedules/train_x_first/red_square_00/bottom_left/instructions/Audio3.wav,1128.1653695999412,1128.1641660399268,3,"[6.817582300049253, 18.117997900000773, 17.126537900068797]","[0.01428689993917942, 0.014123499975539744, 17.12654530000873]",0,,,,,,,,,,,,,,,,,,,,,,,,,,,,,,,,,,,,,,,,,,,,,,,,,,,,,,,,,,,,,,,,,,,,,,,,,,,,,,,,,,,,,,,,,,,,,,,,,,,,,,,,,,,,,,,,,,,,,,,,,,,,6W8LXD,train_x,red_square,bottom_left,2025-02-03_14h34.59.621,HideSeek_v1,2022.2.5,59.90377058940091,
,,,,,,,,,,,,,,,0,0,0,0,3,0,3,0,,,,,,,,,,,,,,,,,,,,,,,,,,,,,,,conditions/schedules/train_x_first/red_square_00/bottom_left/instructions/Slide4.png,conditions/schedules/train_x_first/red_square_00/bottom_left/instructions/Audio4.wav,1145.3741757000098,1145.3606692999601,4,"[6.817582300049253, 18.117997900000773, 17.126537900068797, 19.80045609991066]","[0.01428689993917942, 0.014123499975539744, 0.034852299955673516, 19.800462399958633]",0,,,,,,,,,,,,,,,,,,,,,,,,,,,,,,,,,,,,,,,,,,,,,,,,,,,,,,,,,,,,,,,,,,,,,,,,,,,,,,,,,,,,,,,,,,,,,,,,,,,,,,,,,,,,,,,,,,,,,,,,,,,,6W8LXD,train_x,red_square,bottom_left,2025-02-03_14h34.59.621,HideSeek_v1,2022.2.5,59.90377058940091,
,,,,,,,,,,,,,,,0,0,0,0,4,0,4,0,,,,,,,,,,,,,,,,,,,,,,,,,,,,,,,conditions/schedules/train_x_first/red_square_00/bottom_left/instructions/Slide5.png,conditions/schedules/train_x_first/red_square_00/bottom_left/instructions/Audio5.wav,1165.2388673999812,1165.2268797600175,5,"[6.817582300049253, 18.117997900000773, 17.126537900068797, 19.80045609991066, 4.989896300015971]","[0.01428689993917942, 0.014123499975539744, 0.034852299955673516, 0.014103100053034723, 4.989903000066988]",0,,,,,,,,,,,,,,,,,,,,,,,,,,,,,,,,,,,,,,,,,,,,,,,,,,,,,,,,,,,,,,,,,,,,,,,,,,,,,,,,,,,,,,,,,,,,,,,,,,,,,,,,,,,,,,,,,,,,,,,,,,,,6W8LXD,train_x,red_square,bottom_left,2025-02-03_14h34.59.621,HideSeek_v1,2022.2.5,59.90377058940091,
,,,,,,,,,,,,,,,0,0,0,0,5,0,5,0,,,,,,,,,,,,,,,,,,,,,,,,,,,,,,,conditions/schedules/train_x_first/red_square_00/bottom_left/instructions/Slide6.png,conditions/schedules/train_x_first/red_square_00/bottom_left/instructions/Audio6.wav,1170.2796288999962,1170.2814638599286,6,"[6.817582300049253, 18.117997900000773, 17.126537900068797, 19.80045609991066, 4.989896300015971, 4.81995769997593]","[0.01428689993917942, 0.014123499975539744, 0.034852299955673516, 0.014103100053034723, 0.04963369993492961, 4.819964700029232]",0,,,,,,,,,,,,,,,,,,,,,,,,,,,,,,,,,,,,,,,,,,,,,,,,,,,,,,,,,,,,,,,,,,,,,,,,,,,,,,,,,,,,,,,,,,,,,,,,,,,,,,,,,,,,,,,,,,,,,,,,,,,,6W8LXD,train_x,red_square,bottom_left,2025-02-03_14h34.59.621,HideSeek_v1,2022.2.5,59.90377058940091,
,,,,,,,,,,,,,,,0,0,0,0,6,0,6,0,,,,,,,,,,,,,,,,,,,,,,,,,,,,,,,conditions/schedules/train_x_first/red_square_00/bottom_left/instructions/Slide7.png,conditions/schedules/train_x_first/red_square_00/bottom_left/instructions/Audio7.wav,1175.1491942999419,1175.1521028600166,7,"[6.817582300049253, 18.117997900000773, 17.126537900068797, 19.80045609991066, 4.989896300015971, 4.81995769997593, 5.771687199943699]","[0.01428689993917942, 0.014123499975539744, 0.034852299955673516, 0.014103100053034723, 0.04963369993492961, 0.08421190001536161, 5.771695800009184]",0,,,,,,,,,,,,,,,,,,,,,,,,,,,,,,,,,,,,,,,,,,,,,,,,,,,,,,,,,,,,,,,,,,,,,,,,,,,,,,,,,,,,,,,,,,,,,,,,,,,,,,,,,,,,,,,,,,,,,,,,,,,,6W8LXD,train_x,red_square,bottom_left,2025-02-03_14h34.59.621,HideSeek_v1,2022.2.5,59.90377058940091,
,,,,,,,,,,,,,,,0,0,0,0,7,0,7,0,,,,,,,,,,,,,,,,,,,,,,,,,,,,,,,conditions/schedules/train_x_first/red_square_00/bottom_left/instructions/Slide8.png,conditions/schedules/train_x_first/red_square_00/bottom_left/instructions/Audio8.wav,1180.973621299956,1180.9735920600126,8,"[6.817582300049253, 18.117997900000773, 17.126537900068797, 19.80045609991066, 4.989896300015971, 4.81995769997593, 5.771687199943699, 12.124247100087814]","[0.01428689993917942, 0.014123499975539744, 0.034852299955673516, 0.014103100053034723, 0.04963369993492961, 0.08421190001536161, 0.08092910004779696, 12.124254700029269]",0,,,,,,,,,,,,,,,,,,,,,,,,,,,,,,,,,,,,,,,,,,,,,,,,,,,,,,,,,,,,,,,,,,,,,,,,,,,,,,,,,,,,,,,,,,,,,,,,,,,,,,,,,,,,,,,,,,,,,,,,,,,,6W8LXD,train_x,red_square,bottom_left,2025-02-03_14h34.59.621,HideSeek_v1,2022.2.5,59.90377058940091,
,,,,,,,,,,,,,,,0,0,0,0,8,0,8,0,,,,,,,,,,,,,,,,,,,,,,,,,,,,,,,conditions/schedules/train_x_first/red_square_00/bottom_left/instructions/Slide9.png,conditions/schedules/train_x_first/red_square_00/bottom_left/instructions/Audio9.wav,1193.1658533000154,1193.1670393999666,9,"[6.817582300049253, 18.117997900000773, 17.126537900068797, 19.80045609991066, 4.989896300015971, 4.81995769997593, 5.771687199943699, 12.124247100087814, 6.271190700004809]","[0.01428689993917942, 0.014123499975539744, 0.034852299955673516, 0.014103100053034723, 0.04963369993492961, 0.08421190001536161, 0.08092910004779696, 0.04866470000706613, 6.271198300062679]",0,,,,,,,,,,,,,,,,,,,,,,,,,,,,,,,,,,,,,,,,,,,,,,,,,,,,,,,,,,,,,,,,,,,,,,,,,,,,,,,,,,,,,,,,,,,,,,,,,,,,,,,,,,,,,,,,,,,,,,,,,,,,6W8LXD,train_x,red_square,bottom_left,2025-02-03_14h34.59.621,HideSeek_v1,2022.2.5,59.90377058940091,
,,,,,,,,,,,,,,,0,0,0,0,9,0,9,0,,,,,,,,,,,,,,,,,,,,,,,,,,,,,,,conditions/schedules/train_x_first/red_square_00/bottom_left/instructions/Slide10.png,conditions/schedules/train_x_first/red_square_00/bottom_left/instructions/Audio10.wav,1199.4773960999446,1199.4728679200168,10,"[6.817582300049253, 18.117997900000773, 17.126537900068797, 19.80045609991066, 4.989896300015971, 4.81995769997593, 5.771687199943699, 12.124247100087814, 6.271190700004809, 7.049060699995607]","[0.01428689993917942, 0.014123499975539744, 0.034852299955673516, 0.014103100053034723, 0.04963369993492961, 0.08421190001536161, 0.08092910004779696, 0.04866470000706613, 0.09625449997838587, 7.049067199928686]",0,,,,,,,,,,,,,,,,,,,,,,,,,,,,,,,,,,,,,,,,,,,,,,,,,,,,,,,,,,,,,,,,,,,,,,,,,,,,,,,,,,,,,,,,,,,,,,,,,,,,,,,,,,,,,,,,,,,,,,,,,,,,6W8LXD,train_x,red_square,bottom_left,2025-02-03_14h34.59.621,HideSeek_v1,2022.2.5,59.90377058940091,
,,,,,,,,,,,,,,,0,0,0,0,10,0,10,0,,,,,,,,,,,,,,,,,,,,,,,,,,,,,,,conditions/schedules/train_x_first/red_square_00/bottom_left/instructions/Slide11.png,conditions/schedules/train_x_first/red_square_00/bottom_left/instructions/Audio11.wav,1206.5792346999515,1206.578199859918,11,"[6.817582300049253, 18.117997900000773, 17.126537900068797, 19.80045609991066, 4.989896300015971, 4.81995769997593, 5.771687199943699, 12.124247100087814, 6.271190700004809, 7.049060699995607, 9.971590199973434]","[0.01428689993917942, 0.014123499975539744, 0.034852299955673516, 0.014103100053034723, 0.04963369993492961, 0.08421190001536161, 0.08092910004779696, 0.04866470000706613, 0.09625449997838587, 0.06304689997341484, 9.971597400028259]",0,,,,,,,,,,,,,,,,,,,,,,,,,,,,,,,,,,,,,,,,,,,,,,,,,,,,,,,,,,,,,,,,,,,,,,,,,,,,,,,,,,,,,,,,,,,,,,,,,,,,,,,,,,,,,,,,,,,,,,,,,,,,6W8LXD,train_x,red_square,bottom_left,2025-02-03_14h34.59.621,HideSeek_v1,2022.2.5,59.90377058940091,
,,,,,,,,,,,,,,,0,0,0,0,11,0,11,0,,,,,,,,,,,,,,,,,,,,,,,,,,,,,,,conditions/schedules/train_x_first/red_square_00/bottom_left/instructions/Slide12.png,conditions/schedules/train_x_first/red_square_00/bottom_left/instructions/Audio12.wav,1216.6038625999354,1216.6032622599507,12,"[6.817582300049253, 18.117997900000773, 17.126537900068797, 19.80045609991066, 4.989896300015971, 4.81995769997593, 5.771687199943699, 12.124247100087814, 6.271190700004809, 7.049060699995607, 9.971590199973434, 12.790998800075613]","[0.01428689993917942, 0.014123499975539744, 0.034852299955673516, 0.014103100053034723, 0.04963369993492961, 0.08421190001536161, 0.08092910004779696, 0.04866470000706613, 0.09625449997838587, 0.06304689997341484, 0.08005260000936687, 12.791005700011738]",0,,,,,,,,,,,,,,,,,,,,,,,,,,,,,,,,,,,,,,,,,,,,,,,,,,,,,,,,,,,,,,,,,,,,,,,,,,,,,,,,,,,,,,,,,,,,,,,,,,,,,,,,,,,,,,,,,,,,,,,,,,,,6W8LXD,train_x,red_square,bottom_left,2025-02-03_14h34.59.621,HideSeek_v1,2022.2.5,59.90377058940091,
1,3,2,8,2,5,0,66,2,instr_dim1_1,,,,,,0,0,0,0,,,,,0,0,0,0,,,,,,,,,,,,,,,,,,,,,,,,,,,,,,,,,,,,,stimuli/alien_stimuli/66.png,conditions/schedules/train_x_first/red_square_00/bottom_left/inputInstr_1.xlsx,stimuli/alien_stimuli/66.png,1229.4945798999397,1229.4945798999397,1229.4945798999397,1229.4945798999397,1229.4972439799922,return,11.170000200043432,"[-0.16, -0.08, 0, 0.08, 0.16, 0.24, 0.32, 0.4, 0.48, 0.56]","[-0.4, -0.32, -0.24, -0.16, -0.08, 0, 0.08, 0.16, 0.24, 0.32]",2,2,8,3,0.0,0.4,1240.8318047999637,1240.8318047999637,1240.8318047999637,1240.8318047999637,1240.8318047999637,1240.8318047999637,1240.8318047999637,1240.823246459919,11.427258100011386,return,11.261454000021331,stimuli/alien_stimuli/66.png,66,3,1,,,,,,,,,,,,,,,,,,,,,,,,,,,,,,,,,,,,,,,,,,,,,,,,,,,,,,,,,,,,,,,,,,,,,,,,,,,,,,,,,,,,,,,,,6W8LXD,train_x,red_square,bottom_left,2025-02-03_14h34.59.621,HideSeek_v1,2022.2.5,59.90377058940091,
,,,,,,,,,,,30,,,,0,0,0,0,,,,,,,,,,,,,,,,,,,,,,,,,,,,,,,,,,,,,,,,,,,,,,,,,,,,,,,,,,,,,,,,,,,,,,,,,,,,,,21,0.7,0,0,99,1,30,0,conditions/schedules/train_x_first/red_square_00/bottom_left/inputTrain_1.1.xlsx,99,1,1,1,0,,,,,,,,,,,,,,,,,,,,,,,,,,,,,,,,,,,,,,,,,,,,,,,,,,,,,,,,,,,,,,,,,,,,,,,,,,,6W8LXD,train_x,red_square,bottom_left,2025-02-03_14h34.59.621,HideSeek_v1,2022.2.5,59.90377058940091,
,,,,,,,,,,,,,,,1,0,1,0,0,0,0,0,,,,,,,,,,,,,,,,,,,,,,,,,,,,,,,conditions/schedules/train_x_first/red_square_00/bottom_left/instructions/Slide13.png,conditions/schedules/train_x_first/red_square_00/bottom_left/instructions/Audio13.wav,1252.2598342999117,1252.2494808599351,13,"[6.817582300049253, 18.117997900000773, 17.126537900068797, 19.80045609991066, 4.989896300015971, 4.81995769997593, 5.771687199943699, 12.124247100087814, 6.271190700004809, 7.049060699995607, 9.971590199973434, 12.790998800075613, 22.30535940011032]","[0.01428689993917942, 0.014123499975539744, 0.034852299955673516, 0.014103100053034723, 0.04963369993492961, 0.08421190001536161, 0.08092910004779696, 0.04866470000706613, 0.09625449997838587, 0.06304689997341484, 0.08005260000936687, 12.791005700011738, 22.305365700041875]",0,,,,,,,,,,,,,,,,,,,,,,,,,,,,,,,,,,,,,,,,,,,,,,,,,,,,,,,,,,,,,,,,,,,,,,,,,,,,,,,,,,,,,,,,,,,,,,,,,,,,,,,,,,,,,,,,,,,,,,,,,,,,6W8LXD,train_x,red_square,bottom_left,2025-02-03_14h34.59.621,HideSeek_v1,2022.2.5,59.90377058940091,
,,,,,,,,,,,,,,,1,0,1,0,1,0,1,0,,,,,,,,,,,,,,,,,,,,,,,,,,,,,,,conditions/schedules/train_x_first/red_square_00/bottom_left/instructions/Slide14.png,conditions/schedules/train_x_first/red_square_00/bottom_left/instructions/Audio14.wav,1274.6358640999533,1274.63503939996,14,"[6.817582300049253, 18.117997900000773, 17.126537900068797, 19.80045609991066, 4.989896300015971, 4.81995769997593, 5.771687199943699, 12.124247100087814, 6.271190700004809, 7.049060699995607, 9.971590199973434, 12.790998800075613, 22.30535940011032, 13.142464900040068]","[0.01428689993917942, 0.014123499975539744, 0.034852299955673516, 0.014103100053034723, 0.04963369993492961, 0.08421190001536161, 0.08092910004779696, 0.04866470000706613, 0.09625449997838587, 0.06304689997341484, 0.08005260000936687, 12.791005700011738, 0.04670010006520897, 13.142472899984568]",0,,,,,,,,,,,,,,,,,,,,,,,,,,,,,,,,,,,,,,,,,,,,,,,,,,,,,,,,,,,,,,,,,,,,,,,,,,,,,,,,,,,,,,,,,,,,,,,,,,,,,,,,,,,,,,,,,,,,,,,,,,,,6W8LXD,train_x,red_square,bottom_left,2025-02-03_14h34.59.621,HideSeek_v1,2022.2.5,59.90377058940091,
2,4,0,4,0,0,0,16,2,instr_dim1_1,,,,,,1,0,1,0,,,,,0,0,0,0,,,,,,,,,,,,,,,,,,,,,,,,,,,,,,,,,,,,,stimuli/alien_stimuli/16.png,conditions/schedules/train_x_first/red_square_00/bottom_left/inputInstr_1.xlsx,stimuli/alien_stimuli/16.png,1287.87846789998,1287.87846789998,1287.87846789998,1287.87846789998,1287.8790769799843,return,6.660607199999504,"[-0.16, -0.08, 0, 0.08, 0.16, 0.24, 0.32, 0.4, 0.48, 0.56]","[-0.4, -0.32, -0.24, -0.16, -0.08, 0, 0.08, 0.16, 0.24, 0.32]",0,0,4,4,0.0,0.0,1294.706662499928,1294.706662499928,1294.706662499928,1294.706662499928,1294.706662499928,1294.706662499928,1294.706662499928,1294.6848475199192,11.69350279995706,return,11.530080900061876,stimuli/alien_stimuli/16.png,16,4,2,,,,,,,,,,,,,,,,,,,,,,,,,,,,,,,,,,,,,,,,,,,,,,,,,,,,,,,,,,,,,,,,,,,,,,,,,,,,,,,,,,,,,,,,,6W8LXD,train_x,red_square,bottom_left,2025-02-03_14h34.59.621,HideSeek_v1,2022.2.5,59.90377058940091,
,,,,,,,,,,,30,,,,1,0,1,0,,,,,,,,,,,,,,,,,,,,,,,,,,,,,,,,,,,,,,,,,,,,,,,,,,,,,,,,,,,,,,,,,,,,,,,,,,,,,,21,0.7,0,0,99,1,30,0,conditions/schedules/train_x_first/red_square_00/bottom_left/inputTrain_1.1.xlsx,99,1,1,1,0,,,,,,,,,,,,,,,,,,,,,,,,,,,,,,,,,,,,,,,,,,,,,,,,,,,,,,,,,,,,,,,,,,,,,,,,,,,6W8LXD,train_x,red_square,bottom_left,2025-02-03_14h34.59.621,HideSeek_v1,2022.2.5,59.90377058940091,
,,,,,,,,,,,,,,,2,0,2,0,0,0,0,0,,,,,,,,,,,,,,,,,,,,,,,,,,,,,,,conditions/schedules/train_x_first/red_square_00/bottom_left/instructions/Slide15.png,conditions/schedules/train_x_first/red_square_00/bottom_left/instructions/Audio15.wav,1306.4164167999988,1306.41073959996,15,"[6.817582300049253, 18.117997900000773, 17.126537900068797, 19.80045609991066, 4.989896300015971, 4.81995769997593, 5.771687199943699, 12.124247100087814, 6.271190700004809, 7.049060699995607, 9.971590199973434, 12.790998800075613, 22.30535940011032, 13.142464900040068, 32.702382200048305]","[0.01428689993917942, 0.014123499975539744, 0.034852299955673516, 0.014103100053034723, 0.04963369993492961, 0.08421190001536161, 0.08092910004779696, 0.04866470000706613, 0.09625449997838587, 0.06304689997341484, 0.08005260000936687, 12.791005700011738, 0.04670010006520897, 13.142472899984568, 32.70238899998367]",0,,,,,,,,,,,,,,,,,,,,,,,,,,,,,,,,,,,,,,,,,,,,,,,,,,,,,,,,,,,,,,,,,,,,,,,,,,,,,,,,,,,,,,,,,,,,,,,,,,,,,,,,,,,,,,,,,,,,,,,,,,,,6W8LXD,train_x,red_square,bottom_left,2025-02-03_14h34.59.621,HideSeek_v1,2022.2.5,59.90377058940091,
,,,,,,,,,,,,,,,2,0,2,0,1,0,1,0,,,,,,,,,,,,,,,,,,,,,,,,,,,,,,,conditions/schedules/train_x_first/red_square_00/bottom_left/instructions/Slide16.png,conditions/schedules/train_x_first/red_square_00/bottom_left/instructions/Audio16.wav,1339.194207499968,1339.188019299996,16,"[6.817582300049253, 18.117997900000773, 17.126537900068797, 19.80045609991066, 4.989896300015971, 4.81995769997593, 5.771687199943699, 12.124247100087814, 6.271190700004809, 7.049060699995607, 9.971590199973434, 12.790998800075613, 22.30535940011032, 13.142464900040068, 32.702382200048305, 22.21028210001532]","[0.01428689993917942, 0.014123499975539744, 0.034852299955673516, 0.014103100053034723, 0.04963369993492961, 0.08421190001536161, 0.08092910004779696, 0.04866470000706613, 0.09625449997838587, 0.06304689997341484, 0.08005260000936687, 12.791005700011738, 0.04670010006520897, 13.142472899984568, 32.70238899998367, 22.21028830006253]",0,,,,,,,,,,,,,,,,,,,,,,,,,,,,,,,,,,,,,,,,,,,,,,,,,,,,,,,,,,,,,,,,,,,,,,,,,,,,,,,,,,,,,,,,,,,,,,,,,,,,,,,,,,,,,,,,,,,,,,,,,,,,6W8LXD,train_x,red_square,bottom_left,2025-02-03_14h34.59.621,HideSeek_v1,2022.2.5,59.90377058940091,
,2,1,5,1,3,0,46,,train_dim1_1,1,30,,,,2,0,2,0,,,,,,,,,0,0,0,0,0,0,0,0,0,0,0,0,,,,,,,,,,,,,,,,,,,,,,,,,stimuli/alien_stimuli/46.png,,,,,,,,,,,,,,,,,,,,,,,,,,,,,,,,,,,,,,,30,,,,,,,,1361.5031523000216,1361.5031523000216,1361.5031523000216,1361.5031523000216,1361.5031523000216,right,14.657186400028877,0,0,0,99,0.08,-0.32,right,14.556009999942034,,,,,,,,,,,,,,,,,,,,,,,,,,,,,,,,,,,,,,,,,,,,,,,,,,,,,,,,,,,,6W8LXD,train_x,red_square,bottom_left,2025-02-03_14h34.59.621,HideSeek_v1,2022.2.5,59.90377058940091,
,2,1,5,1,3,0,46,,train_dim1_1,1,30,,,,2,0,2,0,,,,,,,,,0,0,0,0,0,0,0,0,1,0,1,0,,,,,,,,,,,,,,,,,,,,,,,,,,,,,,,,,,,,,,,,,,,,,,,,,,,,,,,,,,,,,,,,30,,,,,,,,1376.1650190999499,1376.1650190999499,1376.1650190999499,1376.1650190999499,1376.1650190999499,right,0.7266046999720857,0,0,0,99,0.16,-0.32,right,0.63220029999502,,,,,,,,,,,,,,,,,,,,,,,,,,,,,,,,,,,,,,,,,,,,,,,,,,,,,,,,,,,,6W8LXD,train_x,red_square,bottom_left,2025-02-03_14h34.59.621,HideSeek_v1,2022.2.5,59.90377058940091,
,2,1,5,1,3,0,46,,train_dim1_1,1,30,,,,2,0,2,0,,,,,,,,,0,0,0,0,0,0,0,0,2,0,2,0,,,,,,,,,,,,,,,,,,,,,,,,,,,,,,,,,,,,,,,,,,,,,,,,,,,,,,,,,,,,,,,,30,,,,,,,,1376.8830651999451,1376.8830651999451,1376.8830651999451,1376.8830651999451,1376.8830651999451,right,0.6097520999610424,0,0,0,99,0.24,-0.32,right,0.5364091000519693,,,,,,,,,,,,,,,,,,,,,,,,,,,,,,,,,,,,,,,,,,,,,,,,,,,,,,,,,,,,6W8LXD,train_x,red_square,bottom_left,2025-02-03_14h34.59.621,HideSeek_v1,2022.2.5,59.90377058940091,
,2,1,5,1,3,0,46,,train_dim1_1,1,30,,,,2,0,2,0,,,,,,,,,0,0,0,0,0,0,0,0,3,0,3,0,,,,,,,,,,,,,,,,,,,,,,,,,,,,,,,,,,,,,,,,,,,,,,,,,,,,,,,,,,,,,,,,30,,,,,,,,1377.50231120002,1377.50231120002,1377.50231120002,1377.50231120002,1377.50231120002,right,0.5409752000123262,0,0,0,99,0.32,-0.32,right,0.4543700000504032,,,,,,,,,,,,,,,,,,,,,,,,,,,,,,,,,,,,,,,,,,,,,,,,,,,,,,,,,,,,6W8LXD,train_x,red_square,bottom_left,2025-02-03_14h34.59.621,HideSeek_v1,2022.2.5,59.90377058940091,
,2,1,5,1,3,0,46,,train_dim1_1,1,30,,,,2,0,2,0,,,,,,,,,0,0,0,0,0,0,0,0,4,0,4,0,,,,,,,,,,,,,,,,,,,,,,,,,,,,,,,,,,,,,,,,,,,,,,,,,,,,,,,,,,,,,,,,30,,,,,,,,1378.0494578999933,1378.0494578999933,1378.0494578999933,1378.0494578999933,1378.0494578999933,right,0.4934189999476075,0,0,0,99,0.4,-0.32,right,0.41843319998588413,,,,,,,,,,,,,,,,,,,,,,,,,,,,,,,,,,,,,,,,,,,,,,,,,,,,,,,,,,,,6W8LXD,train_x,red_square,bottom_left,2025-02-03_14h34.59.621,HideSeek_v1,2022.2.5,59.90377058940091,
,2,1,5,1,3,0,46,,train_dim1_1,1,30,,,,2,0,2,0,,,,,,,,,0,0,0,0,0,0,0,0,5,0,5,0,,,,,,,,,,,,,,,,,,,,,,,,,,,,,,,,,,,,,,,,,,,,,,,,,,,,,,,,,,,,,,,,30,,,,,,,,1378.5502716000192,1378.5502716000192,1378.5502716000192,1378.5502716000192,1378.5502716000192,left,0.709972899989225,0,0,0,99,0.32,-0.32,left,0.632496599922888,,,,,,,,,,,,,,,,,,,,,,,,,,,,,,,,,,,,,,,,,,,,,,,,,,,,,,,,,,,,6W8LXD,train_x,red_square,bottom_left,2025-02-03_14h34.59.621,HideSeek_v1,2022.2.5,59.90377058940091,
,2,1,5,1,3,0,46,,train_dim1_1,1,30,,,,2,0,2,0,,,,,,,,,0,0,0,0,0,0,0,0,6,0,6,0,,,,,,,,,,,,,,,,,,,,,,,,,,,,,,,,,,,,,,,,,,,,,,,,,,,,,,,,,,,,,,,,30,,,,,,,,1379.2671234000009,1379.2671234000009,1379.2671234000009,1379.2671234000009,1379.2671234000009,left,0.34348909999243915,0,0,0,99,0.24,-0.32,left,0.26635709998663515,,,,,,,,,,,,,,,,,,,,,,,,,,,,,,,,,,,,,,,,,,,,,,,,,,,,,,,,,,,,6W8LXD,train_x,red_square,bottom_left,2025-02-03_14h34.59.621,HideSeek_v1,2022.2.5,59.90377058940091,
,2,1,5,1,3,0,46,,train_dim1_1,1,30,,,,2,0,2,0,,,,,,,,,0,0,0,0,0,0,0,0,7,0,7,0,,,,,,,,,,,,,,,,,,,,,,,,,,,,,,,,,,,,,,,,,,,,,,,,,,,,,,,,,,,,,,,,30,,,,,,,,1379.6174409999512,1379.6174409999512,1379.6174409999512,1379.6174409999512,1379.6174409999512,left,0.30995280004572123,0,0,0,99,0.15999999999999998,-0.32,left,0.229119100025855,,,,,,,,,,,,,,,,,,,,,,,,,,,,,,,,,,,,,,,,,,,,,,,,,,,,,,,,,,,,6W8LXD,train_x,red_square,bottom_left,2025-02-03_14h34.59.621,HideSeek_v1,2022.2.5,59.90377058940091,
,2,1,5,1,3,0,46,,train_dim1_1,1,30,,,,2,0,2,0,,,,,,,,,0,0,0,0,0,0,0,0,8,0,8,0,,,,,,,,,,,,,,,,,,,,,,,,,,,,,,,,,,,,,,,,,,,,,,,,,,,,,,,,,,,,,,,,30,,,,,,,,1379.9340744999936,1379.9340744999936,1379.9340744999936,1379.9340744999936,1379.9340744999936,left,0.3100578000303358,0,0,0,99,0.07999999999999997,-0.32,left,0.2271168000297621,,,,,,,,,,,,,,,,,,,,,,,,,,,,,,,,,,,,,,,,,,,,,,,,,,,,,,,,,,,,6W8LXD,train_x,red_square,bottom_left,2025-02-03_14h34.59.621,HideSeek_v1,2022.2.5,59.90377058940091,
,2,1,5,1,3,0,46,,train_dim1_1,1,30,,,,2,0,2,0,,,,,,,,,0,0,0,0,0,0,0,0,9,0,9,0,,,,,,,,,,,,,,,,,,,,,,,,,,,,,,,,,,,,,,,,,,,,,,,,,,,,,,,,,,,,,,,,30,,,,,,,,1380.2523863000097,1380.2523863000097,1380.2523863000097,1380.2523863000097,1380.2523863000097,left,0.3093523000134155,0,0,0,99,-2.7755575615628914e-17,-0.32,left,0.23623509996104985,,,,,,,,,,,,,,,,,,,,,,,,,,,,,,,,,,,,,,,,,,,,,,,,,,,,,,,,,,,,6W8LXD,train_x,red_square,bottom_left,2025-02-03_14h34.59.621,HideSeek_v1,2022.2.5,59.90377058940091,
,2,1,5,1,3,0,46,,train_dim1_1,1,30,,,,2,0,2,0,,,,,,,,,0,0,0,0,0,0,0,0,10,0,10,0,,,,,,,,,,,,,,,,,,,,,,,,,,,,,,,,,,,,,,,,,,,,,,,,,,,,,,,,,,,,,,,,30,,,,,,,,1380.5689180999761,1380.5689180999761,1380.5689180999761,1380.5689180999761,1380.5689180999761,right,1.1107435000594705,0,0,0,99,0.07999999999999997,-0.32,right,1.022579099982977,,,,,,,,,,,,,,,,,,,,,,,,,,,,,,,,,,,,,,,,,,,,,,,,,,,,,,,,,,,,6W8LXD,train_x,red_square,bottom_left,2025-02-03_14h34.59.621,HideSeek_v1,2022.2.5,59.90377058940091,
,2,1,5,1,3,0,46,,train_dim1_1,1,30,,,,2,0,2,0,,,,,,,,,0,0,0,0,0,0,0,0,11,0,11,0,,,,,,,,,,,,,,,,,,,,,,,,,,,,,,,,,,,,,,,,,,,,,,,,,,,,,,,,,,,,,,,,30,,,,,,,,1381.686281299917,1381.686281299917,1381.686281299917,1381.686281299917,1381.686281299917,right,1.0102082999655977,0,0,0,99,0.15999999999999998,-0.32,right,0.9388897999888286,,,,,,,,,,,,,,,,,,,,,,,,,,,,,,,,,,,,,,,,,,,,,,,,,,,,,,,,,,,,6W8LXD,train_x,red_square,bottom_left,2025-02-03_14h34.59.621,HideSeek_v1,2022.2.5,59.90377058940091,
,2,1,5,1,3,0,46,,train_dim1_1,1,30,,,,2,0,2,0,,,,,,,,,0,0,0,0,0,0,0,0,12,0,12,0,,,,,,,,,,,,,,,,,,,,,,,,,,,,,,,,,,,,,,,,,,,,,,,,,,,,,,,,,,,,,,,,30,,,,,,,,1382.7039529000176,1382.7039529000176,1382.7039529000176,1382.7039529000176,1382.7039529000176,left,4.997131700045429,0,0,0,99,0.07999999999999997,-0.32,left,4.917343999957666,,,,,,,,,,,,,,,,,,,,,,,,,,,,,,,,,,,,,,,,,,,,,,,,,,,,,,,,,,,,6W8LXD,train_x,red_square,bottom_left,2025-02-03_14h34.59.621,HideSeek_v1,2022.2.5,59.90377058940091,
,2,1,5,1,3,0,46,,train_dim1_1,1,30,,,,2,0,2,0,,,,,,,,,0,0,0,0,0,0,0,0,13,0,13,0,,,,,,,,,,,,,,,,,,,,,,,,,,,,,,,,,,,,,,,,,,,,,,,,,,,,,,,,,,,,,,,,30,,,,,,,,1387.7081236999948,1387.7081236999948,1387.7081236999948,1387.7081236999948,1387.7081236999948,left,0.510380299994722,0,0,0,99,-2.7755575615628914e-17,-0.32,left,0.43016879993956536,,,,,,,,,,,,,,,,,,,,,,,,,,,,,,,,,,,,,,,,,,,,,,,,,,,,,,,,,,,,6W8LXD,train_x,red_square,bottom_left,2025-02-03_14h34.59.621,HideSeek_v1,2022.2.5,59.90377058940091,
,2,1,5,1,3,0,46,,train_dim1_1,1,30,,,,2,0,2,0,,,,,,,,,0,0,0,0,0,0,0,0,14,0,14,0,,,,,,,,,,,,,,,,,,,,,,,,,,,,,,,,,,,,,,,,,,,,,,,,,,,,,,,,,,,,,,,,30,,,,,,,,1388.2247900000075,1388.2247900000075,1388.2247900000075,1388.2247900000075,1388.2247900000075,left,0.5266654000151902,0,0,0,99,-0.08000000000000003,-0.32,left,0.45284719998016953,,,,,,,,,,,,,,,,,,,,,,,,,,,,,,,,,,,,,,,,,,,,,,,,,,,,,,,,,,,,6W8LXD,train_x,red_square,bottom_left,2025-02-03_14h34.59.621,HideSeek_v1,2022.2.5,59.90377058940091,
,2,1,5,1,3,0,46,,train_dim1_1,1,30,,,,2,0,2,0,,,,,,,,,0,0,0,0,0,0,0,0,15,0,15,0,,,,,,,,,,,,,,,,,,,,,,,,,,,,,,,,,,,,,,,,,,,,,,,,,,,,,,,,,,,,,,,,30,,,,,,,,1388.7590580999386,1388.7590580999386,1388.7590580999386,1388.7590580999386,1388.7590580999386,left,0.5435392999788746,0,0,0,99,-0.16000000000000003,-0.32,left,0.4680757001042366,,,,,,,,,,,,,,,,,,,,,,,,,,,,,,,,,,,,,,,,,,,,,,,,,,,,,,,,,,,,6W8LXD,train_x,red_square,bottom_left,2025-02-03_14h34.59.621,HideSeek_v1,2022.2.5,59.90377058940091,
,2,1,5,1,3,0,46,,train_dim1_1,1,30,,,,2,0,2,0,,,,,,,,,0,0,0,0,0,0,0,0,16,0,16,0,,,,,,,,,,,,,,,,,,,,,,,,,,,,,,,,,,,,,,,,,,,,,,,,,,,,,,,,,,,,,,,,30,,,,,,,,1389.30995419994,1389.30995419994,1389.30995419994,1389.30995419994,1389.30995419994,right,1.9446622000541538,0,0,0,99,-0.08000000000000003,-0.32,right,1.8587544999318197,,,,,,,,,,,,,,,,,,,,,,,,,,,,,,,,,,,,,,,,,,,,,,,,,,,,,,,,,,,,6W8LXD,train_x,red_square,bottom_left,2025-02-03_14h34.59.621,HideSeek_v1,2022.2.5,59.90377058940091,
,2,1,5,1,3,0,46,,train_dim1_1,1,30,,,,2,0,2,0,,,,,,,,,0,0,0,0,0,0,0,0,17,0,17,0,,,,,,,,,,,,,,,,,,,,,,,,,,,,,,,,,,,,,,,,,,,,,,,,,,,,,,,,,,,,,,,,30,,,,,,,,1391.2601329999743,1391.2601329999743,1391.2601329999743,1391.2601329999743,1391.2601329999743,right,1.2607517000287771,0,0,0,99,-2.7755575615628914e-17,-0.32,right,1.1816429001046345,,,,,,,,,,,,,,,,,,,,,,,,,,,,,,,,,,,,,,,,,,,,,,,,,,,,,,,,,,,,6W8LXD,train_x,red_square,bottom_left,2025-02-03_14h34.59.621,HideSeek_v1,2022.2.5,59.90377058940091,
,2,1,5,1,3,0,46,,train_dim1_1,1,30,,,,2,0,2,0,,,,,,,,,0,0,0,0,0,0,0,0,18,0,18,0,,,,,,,,,,,,,,,,,,,,,,,,,,,,,,,,,,,,,,,,,,,,,,,,,,,,,,,,,,,,,,,,30,,,,,,,,1392.5321097999113,1392.5321097999113,1392.5321097999113,1392.5321097999113,1392.5321097999113,right,3.4772953999927267,0,0,0,99,0.07999999999999997,-0.32,right,3.387589000049047,,,,,,,,,,,,,,,,,,,,,,,,,,,,,,,,,,,,,,,,,,,,,,,,,,,,,,,,,,,,6W8LXD,train_x,red_square,bottom_left,2025-02-03_14h34.59.621,HideSeek_v1,2022.2.5,59.90377058940091,
,2,1,5,1,3,0,46,,train_dim1_1,1,30,,,,2,0,2,0,,,,,,,,,0,0,0,0,0,0,0,0,19,0,19,0,,,,,,,,,,,,,,,,,,,,,,,,,,,,,,,,,,,,,,,,,,,,,,,,,,,,,,,,,,,,,,,,30,,,,,,,,1396.0152601000154,1396.0152601000154,1396.0152601000154,1396.0152601000154,1396.0152601000154,right,0.8595213999506086,0,0,0,99,0.15999999999999998,-0.32,right,0.7727754999650642,,,,,,,,,,,,,,,,,,,,,,,,,,,,,,,,,,,,,,,,,,,,,,,,,,,,,,,,,,,,6W8LXD,train_x,red_square,bottom_left,2025-02-03_14h34.59.621,HideSeek_v1,2022.2.5,59.90377058940091,
,2,1,5,1,3,0,46,,train_dim1_1,1,30,,,,2,0,2,0,,,,,,,,,0,0,0,0,0,0,0,0,20,0,20,0,,,,,,,,,,,,,,,,,,,,,,,,,,,,,,,,,,,,,,,,,,,,,,,,,,,,,,,,,,,,,,,,30,,,,,,,,1396.8821350999642,1396.8821350999642,1396.8821350999642,1396.8821350999642,1396.8821350999642,right,0.5937778999796137,0,0,0,99,0.24,-0.32,right,0.511543000000529,,,,,,,,,,,,,,,,,,,,,,,,,,,,,,,,,,,,,,,,,,,,,,,,,,,,,,,,,,,,6W8LXD,train_x,red_square,bottom_left,2025-02-03_14h34.59.621,HideSeek_v1,2022.2.5,59.90377058940091,
,2,1,5,1,3,0,46,,train_dim1_1,1,30,,,,2,0,2,0,,,,,,,,,0,0,0,0,0,0,0,0,21,0,21,0,,,,,,,,,,,,,,,,,,,,,,,,,,,,,,,,,,,,,,,,,,,,,,,,,,,,,,,,,,,,,,,,30,,,,,,,,1397.4827938999515,1397.4827938999515,1397.4827938999515,1397.4827938999515,1397.4827938999515,right,2.378198800026439,0,0,0,99,0.32,-0.32,right,2.2944625000236556,,,,,,,,,,,,,,,,,,,,,,,,,,,,,,,,,,,,,,,,,,,,,,,,,,,,,,,,,,,,6W8LXD,train_x,red_square,bottom_left,2025-02-03_14h34.59.621,HideSeek_v1,2022.2.5,59.90377058940091,
,2,1,5,1,3,0,46,,train_dim1_1,1,30,,,,2,0,2,0,,,,,,,,,0,0,0,0,0,0,0,0,22,0,22,0,,,,,,,,,,,,,,,,,,,,,,,,,,,,,,,,,,,,,,,,,,,,,,,,,,,,,,,,,,,,,,,,30,,,,,,,,1399.867983700009,1399.867983700009,1399.867983700009,1399.867983700009,1399.867983700009,return,20.37594950001221,0,1,0,0,0.32,-0.32,return,20.300934299943037,0,4,0.32,-0.32,,,,,,,,,,,,,,,,,,,,,,,,,,,,,,,,,,,,,,,,,,,,,,,,,,,,,,,,6W8LXD,train_x,red_square,bottom_left,2025-02-03_14h34.59.621,HideSeek_v1,2022.2.5,59.90377058940091,
,2,4,2,4,0,0,16,,train_dim1_1,2,30,,,,2,0,2,0,,,,,,,,,0,0,0,0,0,1,1,1,0,0,0,0,,,,,,,,,,,,,,,,,,,,,,,,,stimuli/alien_stimuli/16.png,,,,,,,,,,,,,,,,,,,,,,,,,,,,,stimuli/alien_stimuli/46.png,46,2,3,,,,,,,30,,,,,,,,1447.6406154999277,1447.6406154999277,1447.6406154999277,1447.6406154999277,1447.6406154999277,right,5.7078767999773845,0,1,0,99,0.08,-0.08,right,5.605580000090413,,,,,1446.0600075999973,1447.6406154999277,0.24,-0.32,0.0,0.24,-0.32,0.24,0.12,0.24,-0.32,1421.8277448000154,1421.8277448000154,1421.8277448000154,1421.8277448000154,1421.8277448000154,1421.8277448000154,1421.8277448000154,1421.8277448000154,1421.8233604200184,24.355232100002468,return,24.205387599999085,,,,,,,,,,,,,,,,,,,,,,,,,,,,,,,,,6W8LXD,train_x,red_square,bottom_left,2025-02-03_14h34.59.621,HideSeek_v1,2022.2.5,59.90377058940091,
,2,4,2,4,0,0,16,,train_dim1_1,2,30,,,,2,0,2,0,,,,,,,,,0,0,0,0,0,1,1,1,1,0,1,0,,,,,,,,,,,,,,,,,,,,,,,,,,,,,,,,,,,,,,,,,,,,,,,,,,,,,,,,,,,,,,,,30,,,,,,,,1453.333825699985,1453.333825699985,1453.333825699985,1453.333825699985,1453.333825699985,left,1.6438546000281349,0,1,0,99,0.0,-0.08,left,1.5557248999830335,,,,,,,,,,,,,,,,,,,,,,,,,,,,,,,,,,,,,,,,,,,,,,,,,,,,,,,,,,,,6W8LXD,train_x,red_square,bottom_left,2025-02-03_14h34.59.621,HideSeek_v1,2022.2.5,59.90377058940091,
,2,4,2,4,0,0,16,,train_dim1_1,2,30,,,,2,0,2,0,,,,,,,,,0,0,0,0,0,1,1,1,2,0,2,0,,,,,,,,,,,,,,,,,,,,,,,,,,,,,,,,,,,,,,,,,,,,,,,,,,,,,,,,,,,,,,,,30,,,,,,,,1454.985549199977,1454.985549199977,1454.985549199977,1454.985549199977,1454.985549199977,left,1.2096745000453666,0,1,0,99,-0.08,-0.08,left,1.1337839000625536,,,,,,,,,,,,,,,,,,,,,,,,,,,,,,,,,,,,,,,,,,,,,,,,,,,,,,,,,,,,6W8LXD,train_x,red_square,bottom_left,2025-02-03_14h34.59.621,HideSeek_v1,2022.2.5,59.90377058940091,
,2,4,2,4,0,0,16,,train_dim1_1,2,30,,,,2,0,2,0,,,,,,,,,0,0,0,0,0,1,1,1,3,0,3,0,,,,,,,,,,,,,,,,,,,,,,,,,,,,,,,,,,,,,,,,,,,,,,,,,,,,,,,,,,,,,,,,30,,,,,,,,1456.2018500999548,1456.2018500999548,1456.2018500999548,1456.2018500999548,1456.2018500999548,left,1.2609029000159353,0,1,0,99,-0.16,-0.08,left,1.177224599989131,,,,,,,,,,,,,,,,,,,,,,,,,,,,,,,,,,,,,,,,,,,,,,,,,,,,,,,,,,,,6W8LXD,train_x,red_square,bottom_left,2025-02-03_14h34.59.621,HideSeek_v1,2022.2.5,59.90377058940091,
,2,4,2,4,0,0,16,,train_dim1_1,2,30,,,,2,0,2,0,,,,,,,,,0,0,0,0,0,1,1,1,4,0,4,0,,,,,,,,,,,,,,,,,,,,,,,,,,,,,,,,,,,,,,,,,,,,,,,,,,,,,,,,,,,,,,,,30,,,,,,,,1457.4698652999941,1457.4698652999941,1457.4698652999941,1457.4698652999941,1457.4698652999941,right,1.8106726999394596,0,1,0,99,-0.08,-0.08,right,1.7306523999432102,,,,,,,,,,,,,,,,,,,,,,,,,,,,,,,,,,,,,,,,,,,,,,,,,,,,,,,,,,,,6W8LXD,train_x,red_square,bottom_left,2025-02-03_14h34.59.621,HideSeek_v1,2022.2.5,59.90377058940091,
,2,4,2,4,0,0,16,,train_dim1_1,2,30,,,,2,0,2,0,,,,,,,,,0,0,0,0,0,1,1,1,5,0,5,0,,,,,,,,,,,,,,,,,,,,,,,,,,,,,,,,,,,,,,,,,,,,,,,,,,,,,,,,,,,,,,,,30,,,,,,,,1459.2879150999943,1459.2879150999943,1459.2879150999943,1459.2879150999943,1459.2879150999943,right,1.3438672000775114,0,1,0,99,0.0,-0.08,right,1.2549474000697955,,,,,,,,,,,,,,,,,,,,,,,,,,,,,,,,,,,,,,,,,,,,,,,,,,,,,,,,,,,,6W8LXD,train_x,red_square,bottom_left,2025-02-03_14h34.59.621,HideSeek_v1,2022.2.5,59.90377058940091,
,2,4,2,4,0,0,16,,train_dim1_1,2,30,,,,2,0,2,0,,,,,,,,,0,0,0,0,0,1,1,1,6,0,6,0,,,,,,,,,,,,,,,,,,,,,,,,,,,,,,,,,,,,,,,,,,,,,,,,,,,,,,,,,,,,,,,,30,,,,,,,,1460.64073069999,1460.64073069999,1460.64073069999,1460.64073069999,1460.64073069999,left,15.187745400005952,0,1,0,99,-0.08,-0.08,left,15.105254099937156,,,,,,,,,,,,,,,,,,,,,,,,,,,,,,,,,,,,,,,,,,,,,,,,,,,,,,,,,,,,6W8LXD,train_x,red_square,bottom_left,2025-02-03_14h34.59.621,HideSeek_v1,2022.2.5,59.90377058940091,
,2,4,2,4,0,0,16,,train_dim1_1,2,30,,,,2,0,2,0,,,,,,,,,0,0,0,0,0,1,1,1,7,0,7,0,,,,,,,,,,,,,,,,,,,,,,,,,,,,,,,,,,,,,,,,,,,,,,,,,,,,,,,,,,,,,,,,30,,,,,,,,1475.8492013999494,1475.8492013999494,1475.8492013999494,1475.8492013999494,1475.8492013999494,right,2.9790230999933556,0,1,0,99,0.0,-0.08,right,2.873387200059369,,,,,,,,,,,,,,,,,,,,,,,,,,,,,,,,,,,,,,,,,,,,,,,,,,,,,,,,,,,,6W8LXD,train_x,red_square,bottom_left,2025-02-03_14h34.59.621,HideSeek_v1,2022.2.5,59.90377058940091,
,2,4,2,4,0,0,16,,train_dim1_1,2,30,,,,2,0,2,0,,,,,,,,,0,0,0,0,0,1,1,1,8,0,8,0,,,,,,,,,,,,,,,,,,,,,,,,,,,,,,,,,,,,,,,,,,,,,,,,,,,,,,,,,,,,,,,,30,,,,,,,,1478.8221366999205,1478.8221366999205,1478.8221366999205,1478.8221366999205,1478.8221366999205,return,10.08341990003828,1,0,0,1,0.0,-0.08,return,9.99186759989243,0,4,0.0,-0.08,,,,,,,,,,,,,,,,,,,,,,,,,,,,,,,,,,,,,,,,,,,,,,,,,,,,,,,,6W8LXD,train_x,red_square,bottom_left,2025-02-03_14h34.59.621,HideSeek_v1,2022.2.5,59.90377058940091,
,4,4,5,4,1,0,26,,train_dim1_1,3,30,,,,2,0,2,0,,,,,,,,,0,0,0,0,0,2,2,2,0,0,0,0,,,,,,,,,,,,,,,,,,,,,,,,,stimuli/alien_stimuli/26.png,,,,,,,,,,,,,,,,,,,,,,,,,,,,,stimuli/alien_stimuli/16.png,16,2,4,,,,,,,30,,,,,,,,1502.7233731999295,1502.7233731999295,1502.7233731999295,1502.7233731999295,1502.7233731999295,down,8.422335600014776,1,0,0,99,0.16,-0.16,down,8.314007899956778,,,,,1501.138742799987,1502.7233731999295,0,-0.08,0.0,0.0,-0.08,0,0.0,0,-0.08,1490.5044547999278,1490.5044547999278,1490.5044547999278,1490.5044547999278,1490.5044547999278,1490.5044547999278,1490.5044547999278,1490.5044547999278,1490.4972027599345,10.777146099950187,return,10.606365200015716,,,,,,,,,,,,,,,,,,,,,,,,,,,,,,,,,6W8LXD,train_x,red_square,bottom_left,2025-02-03_14h34.59.621,HideSeek_v1,2022.2.5,59.90377058940091,
,4,4,5,4,1,0,26,,train_dim1_1,3,30,,,,2,0,2,0,,,,,,,,,0,0,0,0,0,2,2,2,1,0,1,0,,,,,,,,,,,,,,,,,,,,,,,,,,,,,,,,,,,,,,,,,,,,,,,,,,,,,,,,,,,,,,,,30,,,,,,,,1511.1360633999575,1511.1360633999575,1511.1360633999575,1511.1360633999575,1511.1360633999575,return,1.6406221999786794,1,0,0,0,0.16,-0.16,return,1.5527796000242233,-1,4,0.16,-0.16,,,,,,,,,,,,,,,,,,,,,,,,,,,,,,,,,,,,,,,,,,,,,,,,,,,,,,,,6W8LXD,train_x,red_square,bottom_left,2025-02-03_14h34.59.621,HideSeek_v1,2022.2.5,59.90377058940091,
,2,3,6,3,4,0,56,,train_dim1_1,4,30,,,,2,0,2,0,,,,,,,,,0,0,0,0,0,3,3,3,0,0,0,0,,,,,,,,,,,,,,,,,,,,,,,,,stimuli/alien_stimuli/56.png,,,,,,,,,,,,,,,,,,,,,,,,,,,,,stimuli/alien_stimuli/26.png,26,4,5,,,,,,,30,,,,,,,,1529.0049100000178,1529.0049100000178,1529.0049100000178,1529.0049100000178,1529.0049100000178,right,4.457753999973647,1,0,0,99,0.08,-0.16,right,4.35611950000748,,,,,1527.4275856999448,1529.0049100000178,0.24,-0.08,0.0,0.08,-0.08,0.24,0.2,0.24,-0.08,1514.3602918999968,1514.3602918999968,1514.3602918999968,1514.3602918999968,1514.3602918999968,1514.3602918999968,1514.3602918999968,1514.3602918999968,1514.3501721199834,13.196596900001168,return,13.035339800058864,,,,,,,,,,,,,,,,,,,,,,,,,,,,,,,,,6W8LXD,train_x,red_square,bottom_left,2025-02-03_14h34.59.621,HideSeek_v1,2022.2.5,59.90377058940091,
,2,3,6,3,4,0,56,,train_dim1_1,4,30,,,,2,0,2,0,,,,,,,,,0,0,0,0,0,3,3,3,1,0,1,0,,,,,,,,,,,,,,,,,,,,,,,,,,,,,,,,,,,,,,,,,,,,,,,,,,,,,,,,,,,,,,,,30,,,,,,,,1533.4518629999366,1533.4518629999366,1533.4518629999366,1533.4518629999366,1533.4518629999366,right,0.6082025000359863,1,0,0,99,0.16,-0.16,right,0.5260025000898167,,,,,,,,,,,,,,,,,,,,,,,,,,,,,,,,,,,,,,,,,,,,,,,,,,,,,,,,,,,,6W8LXD,train_x,red_square,bottom_left,2025-02-03_14h34.59.621,HideSeek_v1,2022.2.5,59.90377058940091,
,2,3,6,3,4,0,56,,train_dim1_1,4,30,,,,2,0,2,0,,,,,,,,,0,0,0,0,0,3,3,3,2,0,2,0,,,,,,,,,,,,,,,,,,,,,,,,,,,,,,,,,,,,,,,,,,,,,,,,,,,,,,,,,,,,,,,,30,,,,,,,,1534.0651109999744,1534.0651109999744,1534.0651109999744,1534.0651109999744,1534.0651109999744,right,0.6768435999983922,1,0,0,99,0.24,-0.16,right,0.600815000012517,,,,,,,,,,,,,,,,,,,,,,,,,,,,,,,,,,,,,,,,,,,,,,,,,,,,,,,,,,,,6W8LXD,train_x,red_square,bottom_left,2025-02-03_14h34.59.621,HideSeek_v1,2022.2.5,59.90377058940091,
,2,3,6,3,4,0,56,,train_dim1_1,4,30,,,,2,0,2,0,,,,,,,,,0,0,0,0,0,3,3,3,3,0,3,0,,,,,,,,,,,,,,,,,,,,,,,,,,,,,,,,,,,,,,,,,,,,,,,,,,,,,,,,,,,,,,,,30,,,,,,,,1534.747488199966,1534.747488199966,1534.747488199966,1534.747488199966,1534.747488199966,right,0.7101907999021932,1,0,0,99,0.32,-0.16,right,0.6373939999612048,,,,,,,,,,,,,,,,,,,,,,,,,,,,,,,,,,,,,,,,,,,,,,,,,,,,,,,,,,,,6W8LXD,train_x,red_square,bottom_left,2025-02-03_14h34.59.621,HideSeek_v1,2022.2.5,59.90377058940091,
,2,3,6,3,4,0,56,,train_dim1_1,4,30,,,,2,0,2,0,,,,,,,,,0,0,0,0,0,3,3,3,4,0,4,0,,,,,,,,,,,,,,,,,,,,,,,,,,,,,,,,,,,,,,,,,,,,,,,,,,,,,,,,,,,,,,,,30,,,,,,,,1535.465887199971,1535.465887199971,1535.465887199971,1535.465887199971,1535.465887199971,right,1.3445109999738634,1,0,0,99,0.4,-0.16,right,1.2658786999527365,,,,,,,,,,,,,,,,,,,,,,,,,,,,,,,,,,,,,,,,,,,,,,,,,,,,,,,,,,,,6W8LXD,train_x,red_square,bottom_left,2025-02-03_14h34.59.621,HideSeek_v1,2022.2.5,59.90377058940091,
,2,3,6,3,4,0,56,,train_dim1_1,4,30,,,,2,0,2,0,,,,,,,,,0,0,0,0,0,3,3,3,5,0,5,0,,,,,,,,,,,,,,,,,,,,,,,,,,,,,,,,,,,,,,,,,,,,,,,,,,,,,,,,,,,,,,,,30,,,,,,,,1536.8174552000128,1536.8174552000128,1536.8174552000128,1536.8174552000128,1536.8174552000128,return,9.550143400090747,1,1,0,0,0.4,-0.16,return,9.468987100059167,-1,9,0.4,-0.16,,,,,,,,,,,,,,,,,,,,,,,,,,,,,,,,,,,,,,,,,,,,,,,,,,,,,,,,6W8LXD,train_x,red_square,bottom_left,2025-02-03_14h34.59.621,HideSeek_v1,2022.2.5,59.90377058940091,
,0,2,5,2,5,0,66,,train_dim1_1,5,30,,,,2,0,2,0,,,,,,,,,0,0,0,0,0,4,4,4,0,0,0,0,,,,,,,,,,,,,,,,,,,,,,,,,stimuli/alien_stimuli/66.png,,,,,,,,,,,,,,,,,,,,,,,,,,,,,stimuli/alien_stimuli/56.png,56,2,6,,,,,,,30,,,,,,,,1557.4304308999563,1557.4304308999563,1557.4304308999563,1557.4304308999563,1557.4304308999563,right,6.4238072000443935,1,1,0,99,-0.08,-0.24,right,6.343788600061089,,,,,1555.867628099979,1557.4304308999563,0.32,-0.16,0.0,0.32,-0.16,0.32,0.16,0.32,-0.16,1547.9613024999853,1547.9613024999853,1547.9613024999853,1547.9613024999853,1547.9613024999853,1547.9613024999853,1547.9613024999853,1547.9613024999853,1547.9443499199813,8.042577899992466,return,7.885053400066681,,,,,,,,,,,,,,,,,,,,,,,,,,,,,,,,,6W8LXD,train_x,red_square,bottom_left,2025-02-03_14h34.59.621,HideSeek_v1,2022.2.5,59.90377058940091,
,0,2,5,2,5,0,66,,train_dim1_1,5,30,,,,2,0,2,0,,,,,,,,,0,0,0,0,0,4,4,4,1,0,1,0,,,,,,,,,,,,,,,,,,,,,,,,,,,,,,,,,,,,,,,,,,,,,,,,,,,,,,,,,,,,,,,,30,,,,,,,,1563.8549433000153,1563.8549433000153,1563.8549433000153,1563.8549433000153,1563.8549433000153,right,0.3924213000573218,1,1,0,99,0.0,-0.24,right,0.304130999953486,,,,,,,,,,,,,,,,,,,,,,,,,,,,,,,,,,,,,,,,,,,,,,,,,,,,,,,,,,,,6W8LXD,train_x,red_square,bottom_left,2025-02-03_14h34.59.621,HideSeek_v1,2022.2.5,59.90377058940091,
,0,2,5,2,5,0,66,,train_dim1_1,5,30,,,,2,0,2,0,,,,,,,,,0,0,0,0,0,4,4,4,2,0,2,0,,,,,,,,,,,,,,,,,,,,,,,,,,,,,,,,,,,,,,,,,,,,,,,,,,,,,,,,,,,,,,,,30,,,,,,,,1564.2543409999926,1564.2543409999926,1564.2543409999926,1564.2543409999926,1564.2543409999926,right,0.30953019997105,1,1,0,99,0.08,-0.24,right,0.2371108999941498,,,,,,,,,,,,,,,,,,,,,,,,,,,,,,,,,,,,,,,,,,,,,,,,,,,,,,,,,,,,6W8LXD,train_x,red_square,bottom_left,2025-02-03_14h34.59.621,HideSeek_v1,2022.2.5,59.90377058940091,
,0,2,5,2,5,0,66,,train_dim1_1,5,30,,,,2,0,2,0,,,,,,,,,0,0,0,0,0,4,4,4,3,0,3,0,,,,,,,,,,,,,,,,,,,,,,,,,,,,,,,,,,,,,,,,,,,,,,,,,,,,,,,,,,,,,,,,30,,,,,,,,1564.5710477000102,1564.5710477000102,1564.5710477000102,1564.5710477000102,1564.5710477000102,right,0.4770354999927804,1,1,0,99,0.16,-0.24,right,0.39617409999482334,,,,,,,,,,,,,,,,,,,,,,,,,,,,,,,,,,,,,,,,,,,,,,,,,,,,,,,,,,,,6W8LXD,train_x,red_square,bottom_left,2025-02-03_14h34.59.621,HideSeek_v1,2022.2.5,59.90377058940091,
,0,2,5,2,5,0,66,,train_dim1_1,5,30,,,,2,0,2,0,,,,,,,,,0,0,0,0,0,4,4,4,4,0,4,0,,,,,,,,,,,,,,,,,,,,,,,,,,,,,,,,,,,,,,,,,,,,,,,,,,,,,,,,,,,,,,,,30,,,,,,,,1565.0544015999185,1565.0544015999185,1565.0544015999185,1565.0544015999185,1565.0544015999185,right,1.344071100000292,1,1,0,99,0.24,-0.24,right,1.2634475999511778,,,,,,,,,,,,,,,,,,,,,,,,,,,,,,,,,,,,,,,,,,,,,,,,,,,,,,,,,,,,6W8LXD,train_x,red_square,bottom_left,2025-02-03_14h34.59.621,HideSeek_v1,2022.2.5,59.90377058940091,
,0,2,5,2,5,0,66,,train_dim1_1,5,30,,,,2,0,2,0,,,,,,,,,0,0,0,0,0,4,4,4,5,0,5,0,,,,,,,,,,,,,,,,,,,,,,,,,,,,,,,,,,,,,,,,,,,,,,,,,,,,,,,,,,,,,,,,30,,,,,,,,1566.4075365000172,1566.4075365000172,1566.4075365000172,1566.4075365000172,1566.4075365000172,return,5.2301605000393465,2,0,0,1,0.24,-0.24,return,5.141723699984141,-1,14,0.24,-0.24,,,,,,,,,,,,,,,,,,,,,,,,,,,,,,,,,,,,,,,,,,,,,,,,,,,,,,,,6W8LXD,train_x,red_square,bottom_left,2025-02-03_14h34.59.621,HideSeek_v1,2022.2.5,59.90377058940091,
,0,0,1,0,1,0,26,,train_dim1_1,6,30,,,,2,0,2,0,,,,,,,,,0,0,0,0,0,5,5,5,0,0,0,0,,,,,,,,,,,,,,,,,,,,,,,,,stimuli/alien_stimuli/26.png,,,,,,,,,,,,,,,,,,,,,,,,,,,,,stimuli/alien_stimuli/66.png,66,0,7,,,,,,,30,,,,,,,,1578.9663941999897,1578.9663941999897,1578.9663941999897,1578.9663941999897,1578.9663941999897,right,3.3730476000346243,2,0,0,99,-0.08,-0.4,right,3.2832745000487193,,,,,1577.4022355999332,1578.9663941999897,0.24,-0.24,0.0,0.4,-0.24,0.24,0.039999999999999994,0.24,-0.24,1573.2189930999884,1573.2189930999884,1573.2189930999884,1573.2189930999884,1573.2189930999884,1573.2189930999884,1573.2189930999884,1573.2189930999884,1573.1989480799994,4.305208000005223,return,4.15997639996931,,,,,,,,,,,,,,,,,,,,,,,,,,,,,,,,,6W8LXD,train_x,red_square,bottom_left,2025-02-03_14h34.59.621,HideSeek_v1,2022.2.5,59.90377058940091,
,0,0,1,0,1,0,26,,train_dim1_1,6,30,,,,2,0,2,0,,,,,,,,,0,0,0,0,0,5,5,5,1,0,1,0,,,,,,,,,,,,,,,,,,,,,,,,,,,,,,,,,,,,,,,,,,,,,,,,,,,,,,,,,,,,,,,,30,,,,,,,,1582.340920799994,1582.340920799994,1582.340920799994,1582.340920799994,1582.340920799994,left,1.0595890999538824,2,0,0,99,-0.16,-0.4,left,0.968317300081253,,,,,,,,,,,,,,,,,,,,,,,,,,,,,,,,,,,,,,,,,,,,,,,,,,,,,,,,,,,,6W8LXD,train_x,red_square,bottom_left,2025-02-03_14h34.59.621,HideSeek_v1,2022.2.5,59.90377058940091,
,0,0,1,0,1,0,26,,train_dim1_1,6,30,,,,2,0,2,0,,,,,,,,,0,0,0,0,0,5,5,5,2,0,2,0,,,,,,,,,,,,,,,,,,,,,,,,,,,,,,,,,,,,,,,,,,,,,,,,,,,,,,,,,,,,,,,,30,,,,,,,,1583.4074417999946,1583.4074417999946,1583.4074417999946,1583.4074417999946,1583.4074417999946,return,2.661763499956578,2,1,0,0,-0.16,-0.4,return,2.569863900076598,-1,14,-0.16,-0.4,,,,,,,,,,,,,,,,,,,,,,,,,,,,,,,,,,,,,,,,,,,,,,,,,,,,,,,,6W8LXD,train_x,red_square,bottom_left,2025-02-03_14h34.59.621,HideSeek_v1,2022.2.5,59.90377058940091,
,3,0,8,0,5,0,66,,train_dim1_1,7,30,,,,2,0,2,0,,,,,,,,,0,0,0,0,0,6,6,6,0,0,0,0,,,,,,,,,,,,,,,,,,,,,,,,,stimuli/alien_stimuli/66.png,,,,,,,,,,,,,,,,,,,,,,,,,,,,,stimuli/alien_stimuli/26.png,26,0,8,,,,,,,30,,,,,,,,1592.2891115000239,1592.2891115000239,1592.2891115000239,1592.2891115000239,1592.2891115000239,up,8.945611600065604,2,1,0,99,0.08,-0.32,up,8.861686199903488,,,,,1590.7300124999601,1592.2891115000239,-0.08,-0.4,0.0,0.08,-0.4,-0.08,-0.12,-0.08,-0.4,1587.6539372999687,1587.6539372999687,1587.6539372999687,1587.6539372999687,1587.6539372999687,1587.6539372999687,1587.6539372999687,1587.6539372999687,1587.6440160199534,3.204805799992755,return,3.050345199997537,,,,,,,,,,,,,,,,,,,,,,,,,,,,,,,,,6W8LXD,train_x,red_square,bottom_left,2025-02-03_14h34.59.621,HideSeek_v1,2022.2.5,59.90377058940091,
,3,0,8,0,5,0,66,,train_dim1_1,7,30,,,,2,0,2,0,,,,,,,,,0,0,0,0,0,6,6,6,1,0,1,0,,,,,,,,,,,,,,,,,,,,,,,,,,,,,,,,,,,,,,,,,,,,,,,,,,,,,,,,,,,,,,,,30,,,,,,,,1601.2356841999572,1601.2356841999572,1601.2356841999572,1601.2356841999572,1601.2356841999572,return,3.3620287000667304,2,0,0,0,0.08,-0.32,return,3.2820552000775933,0,14,0.08,-0.32,,,,,,,,,,,,,,,,,,,,,,,,,,,,,,,,,,,,,,,,,,,,,,,,,,,,,,,,6W8LXD,train_x,red_square,bottom_left,2025-02-03_14h34.59.621,HideSeek_v1,2022.2.5,59.90377058940091,
,0,4,3,4,3,0,46,,train_dim1_1,8,30,,,,2,0,2,0,,,,,,,,,0,0,0,0,0,7,7,7,0,0,0,0,,,,,,,,,,,,,,,,,,,,,,,,,stimuli/alien_stimuli/46.png,,,,,,,,,,,,,,,,,,,,,,,,,,,,,stimuli/alien_stimuli/66.png,66,3,9,,,,,,,30,,,,,,,,1610.9583035999676,1610.9583035999676,1610.9583035999676,1610.9583035999676,1610.9583035999676,right,2.520511000067927,2,0,0,99,-0.08,-0.08,right,2.4333367000799626,,,,,1609.3956509999698,1610.9583035999676,0.48,-0.4,0.0,0.4,-0.4,0.48,0.27999999999999997,0.48,-0.4,1606.183704599971,1606.183704599971,1606.183704599971,1606.183704599971,1606.183704599971,1606.183704599971,1606.183704599971,1606.183704599971,1606.1762355200015,3.33852210000623,return,3.190917099942453,,,,,,,,,,,,,,,,,,,,,,,,,,,,,,,,,6W8LXD,train_x,red_square,bottom_left,2025-02-03_14h34.59.621,HideSeek_v1,2022.2.5,59.90377058940091,
,0,4,3,4,3,0,46,,train_dim1_1,8,30,,,,2,0,2,0,,,,,,,,,0,0,0,0,0,7,7,7,1,0,1,0,,,,,,,,,,,,,,,,,,,,,,,,,,,,,,,,,,,,,,,,,,,,,,,,,,,,,,,,,,,,,,,,30,,,,,,,,1613.4786988999695,1613.4786988999695,1613.4786988999695,1613.4786988999695,1613.4786988999695,right,0.6265878999838606,2,0,0,99,0.0,-0.08,right,0.5547216000268236,,,,,,,,,,,,,,,,,,,,,,,,,,,,,,,,,,,,,,,,,,,,,,,,,,,,,,,,,,,,6W8LXD,train_x,red_square,bottom_left,2025-02-03_14h34.59.621,HideSeek_v1,2022.2.5,59.90377058940091,
,0,4,3,4,3,0,46,,train_dim1_1,8,30,,,,2,0,2,0,,,,,,,,,0,0,0,0,0,7,7,7,2,0,2,0,,,,,,,,,,,,,,,,,,,,,,,,,,,,,,,,,,,,,,,,,,,,,,,,,,,,,,,,,,,,,,,,30,,,,,,,,1614.1131829000078,1614.1131829000078,1614.1131829000078,1614.1131829000078,1614.1131829000078,right,0.5269866000162438,2,0,0,99,0.08,-0.08,right,0.4525669999420643,,,,,,,,,,,,,,,,,,,,,,,,,,,,,,,,,,,,,,,,,,,,,,,,,,,,,,,,,,,,6W8LXD,train_x,red_square,bottom_left,2025-02-03_14h34.59.621,HideSeek_v1,2022.2.5,59.90377058940091,
,0,4,3,4,3,0,46,,train_dim1_1,8,30,,,,2,0,2,0,,,,,,,,,0,0,0,0,0,7,7,7,3,0,3,0,,,,,,,,,,,,,,,,,,,,,,,,,,,,,,,,,,,,,,,,,,,,,,,,,,,,,,,,,,,,,,,,30,,,,,,,,1614.6459644999122,1614.6459644999122,1614.6459644999122,1614.6459644999122,1614.6459644999122,return,3.0786530000623316,3,0,0,1,0.08,-0.08,return,3.0019228999735788,0,17,0.08,-0.08,,,,,,,,,,,,,,,,,,,,,,,,,,,,,,,,,,,,,,,,,,,,,,,,,,,,,,,,6W8LXD,train_x,red_square,bottom_left,2025-02-03_14h34.59.621,HideSeek_v1,2022.2.5,59.90377058940091,
,1,0,5,0,4,0,56,,train_dim1_1,9,30,,,,2,0,2,0,,,,,,,,,0,0,0,0,0,8,8,8,0,0,0,0,,,,,,,,,,,,,,,,,,,,,,,,,stimuli/alien_stimuli/56.png,,,,,,,,,,,,,,,,,,,,,,,,,,,,,stimuli/alien_stimuli/46.png,46,0,10,,,,,,,30,,,,,,,,1622.690705899964,1622.690705899964,1622.690705899964,1622.690705899964,1622.690705899964,right,4.157652199966833,3,0,0,99,0.0,-0.4,right,4.063080899999477,,,,,1621.121593900025,1622.690705899964,0.08,-0.08,0.0,0.24,-0.08,0.08,-0.04,0.08,-0.08,1619.3028200999834,1619.3028200999834,1619.3028200999834,1619.3028200999834,1619.3028200999834,1619.3028200999834,1619.3028200999834,1619.3028200999834,1619.2872615799306,1.936703099985607,return,1.8001890999730676,,,,,,,,,,,,,,,,,,,,,,,,,,,,,,,,,6W8LXD,train_x,red_square,bottom_left,2025-02-03_14h34.59.621,HideSeek_v1,2022.2.5,59.90377058940091,
,1,0,5,0,4,0,56,,train_dim1_1,9,30,,,,2,0,2,0,,,,,,,,,0,0,0,0,0,8,8,8,1,0,1,0,,,,,,,,,,,,,,,,,,,,,,,,,,,,,,,,,,,,,,,,,,,,,,,,,,,,,,,,,,,,,,,,30,,,,,,,,1626.8421821999364,1626.8421821999364,1626.8421821999364,1626.8421821999364,1626.8421821999364,right,0.6767309000715613,3,0,0,99,0.08,-0.4,right,0.5947209000587463,,,,,,,,,,,,,,,,,,,,,,,,,,,,,,,,,,,,,,,,,,,,,,,,,,,,,,,,,,,,6W8LXD,train_x,red_square,bottom_left,2025-02-03_14h34.59.621,HideSeek_v1,2022.2.5,59.90377058940091,
,1,0,5,0,4,0,56,,train_dim1_1,9,30,,,,2,0,2,0,,,,,,,,,0,0,0,0,0,8,8,8,2,0,2,0,,,,,,,,,,,,,,,,,,,,,,,,,,,,,,,,,,,,,,,,,,,,,,,,,,,,,,,,,,,,,,,,30,,,,,,,,1627.525063399924,1627.525063399924,1627.525063399924,1627.525063399924,1627.525063399924,right,7.065433400101028,3,0,0,99,0.16,-0.4,right,6.986431900062598,,,,,,,,,,,,,,,,,,,,,,,,,,,,,,,,,,,,,,,,,,,,,,,,,,,,,,,,,,,,6W8LXD,train_x,red_square,bottom_left,2025-02-03_14h34.59.621,HideSeek_v1,2022.2.5,59.90377058940091,
,1,0,5,0,4,0,56,,train_dim1_1,9,30,,,,2,0,2,0,,,,,,,,,0,0,0,0,0,8,8,8,3,0,3,0,,,,,,,,,,,,,,,,,,,,,,,,,,,,,,,,,,,,,,,,,,,,,,,,,,,,,,,,,,,,,,,,30,,,,,,,,1634.6015353000257,1634.6015353000257,1634.6015353000257,1634.6015353000257,1634.6015353000257,right,0.7409845000365749,3,0,0,99,0.24,-0.4,right,0.6603046999080107,,,,,,,,,,,,,,,,,,,,,,,,,,,,,,,,,,,,,,,,,,,,,,,,,,,,,,,,,,,,6W8LXD,train_x,red_square,bottom_left,2025-02-03_14h34.59.621,HideSeek_v1,2022.2.5,59.90377058940091,
,1,0,5,0,4,0,56,,train_dim1_1,9,30,,,,2,0,2,0,,,,,,,,,0,0,0,0,0,8,8,8,4,0,4,0,,,,,,,,,,,,,,,,,,,,,,,,,,,,,,,,,,,,,,,,,,,,,,,,,,,,,,,,,,,,,,,,30,,,,,,,,1635.3481703000143,1635.3481703000143,1635.3481703000143,1635.3481703000143,1635.3481703000143,return,0.9774633999913931,4,0,0,1,0.24,-0.4,return,0.898097199969925,0,21,0.24,-0.4,,,,,,,,,,,,,,,,,,,,,,,,,,,,,,,,,,,,,,,,,,,,,,,,,,,,,,,,6W8LXD,train_x,red_square,bottom_left,2025-02-03_14h34.59.621,HideSeek_v1,2022.2.5,59.90377058940091,
,0,3,0,3,0,0,16,,train_dim1_1,10,30,,,,2,0,2,0,,,,,,,,,0,0,0,0,0,9,9,9,0,0,0,0,,,,,,,,,,,,,,,,,,,,,,,,,stimuli/alien_stimuli/16.png,,,,,,,,,,,,,,,,,,,,,,,,,,,,,stimuli/alien_stimuli/56.png,56,1,11,,,,,,,30,,,,,,,,1641.0335456000175,1641.0335456000175,1641.0335456000175,1641.0335456000175,1641.0335456000175,right,3.35724439995829,4,0,0,99,-0.08,-0.16,right,3.2548332000151277,,,,,1639.453681999934,1641.0335456000175,0.24,-0.4,0.0,0.32,-0.4,0.24,0.07999999999999999,0.24,-0.4,1637.898197399918,1637.898197399918,1637.898197399918,1637.898197399918,1637.898197399918,1637.898197399918,1637.898197399918,1637.898197399918,1637.8858390800187,1.670258600031957,return,1.5313339000567794,,,,,,,,,,,,,,,,,,,,,,,,,,,,,,,,,6W8LXD,train_x,red_square,bottom_left,2025-02-03_14h34.59.621,HideSeek_v1,2022.2.5,59.90377058940091,
,0,3,0,3,0,0,16,,train_dim1_1,10,30,,,,2,0,2,0,,,,,,,,,0,0,0,0,0,9,9,9,1,0,1,0,,,,,,,,,,,,,,,,,,,,,,,,,,,,,,,,,,,,,,,,,,,,,,,,,,,,,,,,,,,,,,,,30,,,,,,,,1644.380202799919,1644.380202799919,1644.380202799919,1644.380202799919,1644.380202799919,left,0.6563633000478148,4,0,0,99,-0.16,-0.16,left,0.5735907999332994,,,,,,,,,,,,,,,,,,,,,,,,,,,,,,,,,,,,,,,,,,,,,,,,,,,,,,,,,,,,6W8LXD,train_x,red_square,bottom_left,2025-02-03_14h34.59.621,HideSeek_v1,2022.2.5,59.90377058940091,
,0,3,0,3,0,0,16,,train_dim1_1,10,30,,,,2,0,2,0,,,,,,,,,0,0,0,0,0,9,9,9,2,0,2,0,,,,,,,,,,,,,,,,,,,,,,,,,,,,,,,,,,,,,,,,,,,,,,,,,,,,,,,,,,,,,,,,30,,,,,,,,1645.0415279999143,1645.0415279999143,1645.0415279999143,1645.0415279999143,1645.0415279999143,return,3.395851599983871,5,0,0,1,-0.16,-0.16,return,3.3073311999905854,0,21,-0.16,-0.16,,,,,,,,,,,,,,,,,,,,,,,,,,,,,,,,,,,,,,,,,,,,,,,,,,,,,,,,6W8LXD,train_x,red_square,bottom_left,2025-02-03_14h34.59.621,HideSeek_v1,2022.2.5,59.90377058940091,
,2,2,5,2,3,0,46,,train_dim1_1,11,30,,,,2,0,2,0,,,,,,,,,0,0,0,0,0,10,10,10,0,0,0,0,,,,,,,,,,,,,,,,,,,,,,,,,stimuli/alien_stimuli/46.png,,,,,,,,,,,,,,,,,,,,,,,,,,,,,stimuli/alien_stimuli/16.png,16,0,12,,,,,,,30,,,,,,,,1655.9070973999333,1655.9070973999333,1655.9070973999333,1655.9070973999333,1655.9070973999333,right,3.792607599985786,5,0,0,99,0.08,-0.24,right,3.7047334000235423,,,,,1654.349260399933,1655.9070973999333,-0.16,-0.16,0.0,0.0,-0.16,-0.16,-0.16,-0.16,-0.16,1650.0177696999162,1650.0177696999162,1650.0177696999162,1650.0177696999162,1650.0177696999162,1650.0177696999162,1650.0177696999162,1650.0177696999162,1649.9957220799288,4.455810199957341,return,4.312724300078116,,,,,,,,,,,,,,,,,,,,,,,,,,,,,,,,,6W8LXD,train_x,red_square,bottom_left,2025-02-03_14h34.59.621,HideSeek_v1,2022.2.5,59.90377058940091,
,2,2,5,2,3,0,46,,train_dim1_1,11,30,,,,2,0,2,0,,,,,,,,,0,0,0,0,0,10,10,10,1,0,1,0,,,,,,,,,,,,,,,,,,,,,,,,,,,,,,,,,,,,,,,,,,,,,,,,,,,,,,,,,,,,,,,,30,,,,,,,,1659.700035499991,1659.700035499991,1659.700035499991,1659.700035499991,1659.700035499991,right,1.5438764999853447,5,0,0,99,0.16,-0.24,right,1.4707366999937221,,,,,,,,,,,,,,,,,,,,,,,,,,,,,,,,,,,,,,,,,,,,,,,,,,,,,,,,,,,,6W8LXD,train_x,red_square,bottom_left,2025-02-03_14h34.59.621,HideSeek_v1,2022.2.5,59.90377058940091,
,2,2,5,2,3,0,46,,train_dim1_1,11,30,,,,2,0,2,0,,,,,,,,,0,0,0,0,0,10,10,10,2,0,2,0,,,,,,,,,,,,,,,,,,,,,,,,,,,,,,,,,,,,,,,,,,,,,,,,,,,,,,,,,,,,,,,,30,,,,,,,,1661.2522849999368,1661.2522849999368,1661.2522849999368,1661.2522849999368,1661.2522849999368,right,0.9765820000320673,5,0,0,99,0.24,-0.24,right,0.8927814998896793,,,,,,,,,,,,,,,,,,,,,,,,,,,,,,,,,,,,,,,,,,,,,,,,,,,,,,,,,,,,6W8LXD,train_x,red_square,bottom_left,2025-02-03_14h34.59.621,HideSeek_v1,2022.2.5,59.90377058940091,
,2,2,5,2,3,0,46,,train_dim1_1,11,30,,,,2,0,2,0,,,,,,,,,0,0,0,0,0,10,10,10,3,0,3,0,,,,,,,,,,,,,,,,,,,,,,,,,,,,,,,,,,,,,,,,,,,,,,,,,,,,,,,,,,,,,,,,30,,,,,,,,1662.2350175000029,1662.2350175000029,1662.2350175000029,1662.2350175000029,1662.2350175000029,return,1.127352499985136,6,0,0,1,0.24,-0.24,return,1.0443034999771044,0,24,0.24,-0.24,,,,,,,,,,,,,,,,,,,,,,,,,,,,,,,,,,,,,,,,,,,,,,,,,,,,,,,,6W8LXD,train_x,red_square,bottom_left,2025-02-03_14h34.59.621,HideSeek_v1,2022.2.5,59.90377058940091,
,0,0,1,0,1,0,26,,train_dim1_1,12,30,,,,2,0,2,0,,,,,,,,,0,0,0,0,0,11,11,11,0,0,0,0,,,,,,,,,,,,,,,,,,,,,,,,,stimuli/alien_stimuli/26.png,,,,,,,,,,,,,,,,,,,,,,,,,,,,,stimuli/alien_stimuli/46.png,46,2,13,,,,,,,30,,,,,,,,1668.063211599947,1668.063211599947,1668.063211599947,1668.063211599947,1668.063211599947,right,3.809661600040272,6,0,0,99,-0.08,-0.4,right,3.71366340003442,,,,,1666.4927662999835,1668.063211599947,0.24,-0.24,0.0,0.24,-0.24,0.24,0.12,0.24,-0.24,1664.936130499933,1664.936130499933,1664.936130499933,1664.936130499933,1664.936130499933,1664.936130499933,1664.936130499933,1664.936130499933,1664.9246536799938,1.6706943000899628,return,1.5393548000138253,,,,,,,,,,,,,,,,,,,,,,,,,,,,,,,,,6W8LXD,train_x,red_square,bottom_left,2025-02-03_14h34.59.621,HideSeek_v1,2022.2.5,59.90377058940091,
,0,0,1,0,1,0,26,,train_dim1_1,12,30,,,,2,0,2,0,,,,,,,,,0,0,0,0,0,11,11,11,1,0,1,0,,,,,,,,,,,,,,,,,,,,,,,,,,,,,,,,,,,,,,,,,,,,,,,,,,,,,,,,,,,,,,,,30,,,,,,,,1671.8671024999348,1671.8671024999348,1671.8671024999348,1671.8671024999348,1671.8671024999348,return,2.3761011000024155,7,0,0,1,-0.08,-0.4,return,2.2859586001140997,0,25,-0.08,-0.4,,,,,,,,,,,,,,,,,,,,,,,,,,,,,,,,,,,,,,,,,,,,,,,,,,,,,,,,6W8LXD,train_x,red_square,bottom_left,2025-02-03_14h34.59.621,HideSeek_v1,2022.2.5,59.90377058940091,
,0,4,4,4,4,0,56,,train_dim1_1,13,30,,,,2,0,2,0,,,,,,,,,0,0,0,0,0,12,12,12,0,0,0,0,,,,,,,,,,,,,,,,,,,,,,,,,stimuli/alien_stimuli/56.png,,,,,,,,,,,,,,,,,,,,,,,,,,,,,stimuli/alien_stimuli/26.png,26,0,14,,,,,,,30,,,,,,,,1679.3898139999947,1679.3898139999947,1679.3898139999947,1679.3898139999947,1679.3898139999947,right,3.421800800017081,7,0,0,99,-0.08,-0.08,right,3.3329441000241786,,,,,1677.8189018999692,1679.3898139999947,-0.08,-0.4,0.0,0.08,-0.4,-0.08,-0.12,-0.08,-0.4,1675.8252694000257,1675.8252694000257,1675.8252694000257,1675.8252694000257,1675.8252694000257,1675.8252694000257,1675.8252694000257,1675.8252694000257,1675.8175459199817,2.119935500086285,return,1.962942500016652,,,,,,,,,,,,,,,,,,,,,,,,,,,,,,,,,6W8LXD,train_x,red_square,bottom_left,2025-02-03_14h34.59.621,HideSeek_v1,2022.2.5,59.90377058940091,
,0,4,4,4,4,0,56,,train_dim1_1,13,30,,,,2,0,2,0,,,,,,,,,0,0,0,0,0,12,12,12,1,0,1,0,,,,,,,,,,,,,,,,,,,,,,,,,,,,,,,,,,,,,,,,,,,,,,,,,,,,,,,,,,,,,,,,30,,,,,,,,1682.8126603999408,1682.8126603999408,1682.8126603999408,1682.8126603999408,1682.8126603999408,right,0.3708316000411287,7,0,0,99,0.0,-0.08,right,0.2891218999866396,,,,,,,,,,,,,,,,,,,,,,,,,,,,,,,,,,,,,,,,,,,,,,,,,,,,,,,,,,,,6W8LXD,train_x,red_square,bottom_left,2025-02-03_14h34.59.621,HideSeek_v1,2022.2.5,59.90377058940091,
,0,4,4,4,4,0,56,,train_dim1_1,13,30,,,,2,0,2,0,,,,,,,,,0,0,0,0,0,12,12,12,2,0,2,0,,,,,,,,,,,,,,,,,,,,,,,,,,,,,,,,,,,,,,,,,,,,,,,,,,,,,,,,,,,,,,,,30,,,,,,,,1683.1875192999141,1683.1875192999141,1683.1875192999141,1683.1875192999141,1683.1875192999141,right,0.34330270008649677,7,0,0,99,0.08,-0.08,right,0.2675093999132514,,,,,,,,,,,,,,,,,,,,,,,,,,,,,,,,,,,,,,,,,,,,,,,,,,,,,,,,,,,,6W8LXD,train_x,red_square,bottom_left,2025-02-03_14h34.59.621,HideSeek_v1,2022.2.5,59.90377058940091,
,0,4,4,4,4,0,56,,train_dim1_1,13,30,,,,2,0,2,0,,,,,,,,,0,0,0,0,0,12,12,12,3,0,3,0,,,,,,,,,,,,,,,,,,,,,,,,,,,,,,,,,,,,,,,,,,,,,,,,,,,,,,,,,,,,,,,,30,,,,,,,,1683.537428200012,1683.537428200012,1683.537428200012,1683.537428200012,1683.537428200012,right,0.46054910006932914,7,0,0,99,0.16,-0.08,right,0.3858992999885231,,,,,,,,,,,,,,,,,,,,,,,,,,,,,,,,,,,,,,,,,,,,,,,,,,,,,,,,,,,,6W8LXD,train_x,red_square,bottom_left,2025-02-03_14h34.59.621,HideSeek_v1,2022.2.5,59.90377058940091,
,0,4,4,4,4,0,56,,train_dim1_1,13,30,,,,2,0,2,0,,,,,,,,,0,0,0,0,0,12,12,12,4,0,4,0,,,,,,,,,,,,,,,,,,,,,,,,,,,,,,,,,,,,,,,,,,,,,,,,,,,,,,,,,,,,,,,,30,,,,,,,,1684.0055986000225,1684.0055986000225,1684.0055986000225,1684.0055986000225,1684.0055986000225,return,1.210540600004606,8,0,0,1,0.16,-0.08,return,1.1232834999682382,0,29,0.16,-0.08,,,,,,,,,,,,,,,,,,,,,,,,,,,,,,,,,,,,,,,,,,,,,,,,,,,,,,,,6W8LXD,train_x,red_square,bottom_left,2025-02-03_14h34.59.621,HideSeek_v1,2022.2.5,59.90377058940091,
,4,3,4,3,0,0,16,,train_dim1_1,14,30,,,,2,0,2,0,,,,,,,,,0,0,0,0,0,13,13,13,0,0,0,0,,,,,,,,,,,,,,,,,,,,,,,,,stimuli/alien_stimuli/16.png,,,,,,,,,,,,,,,,,,,,,,,,,,,,,stimuli/alien_stimuli/56.png,56,0,15,,,,,,,30,,,,,,,,1691.0915573999519,1691.0915573999519,1691.0915573999519,1691.0915573999519,1691.0915573999519,right,2.6564944999990985,8,0,0,99,0.24,-0.16,right,2.5690450000111014,,,,,1689.5284797999775,1691.0915573999519,0.16,-0.08,0.0,0.32,-0.08,0.16,0.0,0.16,-0.08,1686.7977035000222,1686.7977035000222,1686.7977035000222,1686.7977035000222,1686.7977035000222,1686.7977035000222,1686.7977035000222,1686.7977035000222,1686.77642577996,2.854608300025575,return,2.709231200045906,,,,,,,,,,,,,,,,,,,,,,,,,,,,,,,,,6W8LXD,train_x,red_square,bottom_left,2025-02-03_14h34.59.621,HideSeek_v1,2022.2.5,59.90377058940091,
,4,3,4,3,0,0,16,,train_dim1_1,14,30,,,,2,0,2,0,,,,,,,,,0,0,0,0,0,13,13,13,1,0,1,0,,,,,,,,,,,,,,,,,,,,,,,,,,,,,,,,,,,,,,,,,,,,,,,,,,,,,,,,,,,,,,,,30,,,,,,,,1693.7494910999667,1693.7494910999667,1693.7494910999667,1693.7494910999667,1693.7494910999667,return,1.1438993000192568,8,1,0,0,0.24,-0.16,return,1.0584501000121236,0,30,0.24,-0.16,,,,,,,,,,,,,,,,,,,,,,,,,,,,,,,,,,,,,,,,,,,,,,,,,,,,,,,,6W8LXD,train_x,red_square,bottom_left,2025-02-03_14h34.59.621,HideSeek_v1,2022.2.5,59.90377058940091,
,4,2,9,2,5,0,66,,train_dim1_1,15,30,,,,2,0,2,0,,,,,,,,,0,0,0,0,0,14,14,14,0,0,0,0,,,,,,,,,,,,,,,,,,,,,,,,,stimuli/alien_stimuli/66.png,,,,,,,,,,,,,,,,,,,,,,,,,,,,,stimuli/alien_stimuli/16.png,16,4,16,,,,,,,30,,,,,,,,1702.6396826999262,1702.6396826999262,1702.6396826999262,1702.6396826999262,1702.6396826999262,right,2.048256699927151,8,1,0,99,0.24,-0.24,right,1.9601146000204608,,,,,1701.0716709999833,1702.6396826999262,0.16,-0.16,0.0,0.0,-0.16,0.16,0.16,0.16,-0.16,1696.4633434999269,1696.4633434999269,1696.4633434999269,1696.4633434999269,1696.4633434999269,1696.4633434999269,1696.4633434999269,1696.4633434999269,1696.4510767799102,4.722437699907459,return,4.585129700019024,,,,,,,,,,,,,,,,,,,,,,,,,,,,,,,,,6W8LXD,train_x,red_square,bottom_left,2025-02-03_14h34.59.621,HideSeek_v1,2022.2.5,59.90377058940091,
,4,2,9,2,5,0,66,,train_dim1_1,15,30,,,,2,0,2,0,,,,,,,,,0,0,0,0,0,14,14,14,1,0,1,0,,,,,,,,,,,,,,,,,,,,,,,,,,,,,,,,,,,,,,,,,,,,,,,,,,,,,,,,,,,,,,,,30,,,,,,,,1704.6876672999933,1704.6876672999933,1704.6876672999933,1704.6876672999933,1704.6876672999933,right,0.49257440003566444,8,1,0,99,0.32,-0.24,right,0.416013199952431,,,,,,,,,,,,,,,,,,,,,,,,,,,,,,,,,,,,,,,,,,,,,,,,,,,,,,,,,,,,6W8LXD,train_x,red_square,bottom_left,2025-02-03_14h34.59.621,HideSeek_v1,2022.2.5,59.90377058940091,
,4,2,9,2,5,0,66,,train_dim1_1,15,30,,,,2,0,2,0,,,,,,,,,0,0,0,0,0,14,14,14,2,0,2,0,,,,,,,,,,,,,,,,,,,,,,,,,,,,,,,,,,,,,,,,,,,,,,,,,,,,,,,,,,,,,,,,30,,,,,,,,1705.1873345000204,1705.1873345000204,1705.1873345000204,1705.1873345000204,1705.1873345000204,right,0.47641929995734245,8,1,0,99,0.4,-0.24,right,0.3937983999494463,,,,,,,,,,,,,,,,,,,,,,,,,,,,,,,,,,,,,,,,,,,,,,,,,,,,,,,,,,,,6W8LXD,train_x,red_square,bottom_left,2025-02-03_14h34.59.621,HideSeek_v1,2022.2.5,59.90377058940091,
,4,2,9,2,5,0,66,,train_dim1_1,15,30,,,,2,0,2,0,,,,,,,,,0,0,0,0,0,14,14,14,3,0,3,0,,,,,,,,,,,,,,,,,,,,,,,,,,,,,,,,,,,,,,,,,,,,,,,,,,,,,,,,,,,,,,,,30,,,,,,,,1705.6711695999838,1705.6711695999838,1705.6711695999838,1705.6711695999838,1705.6711695999838,right,0.44301899999845773,8,1,0,99,0.48000000000000004,-0.24,right,0.36859990004450083,,,,,,,,,,,,,,,,,,,,,,,,,,,,,,,,,,,,,,,,,,,,,,,,,,,,,,,,,,,,6W8LXD,train_x,red_square,bottom_left,2025-02-03_14h34.59.621,HideSeek_v1,2022.2.5,59.90377058940091,
,4,2,9,2,5,0,66,,train_dim1_1,15,30,,,,2,0,2,0,,,,,,,,,0,0,0,0,0,14,14,14,4,0,4,0,,,,,,,,,,,,,,,,,,,,,,,,,,,,,,,,,,,,,,,,,,,,,,,,,,,,,,,,,,,,,,,,30,,,,,,,,1706.1214143999387,1706.1214143999387,1706.1214143999387,1706.1214143999387,1706.1214143999387,right,0.4605358000844717,8,1,0,99,0.56,-0.24,right,0.3873563000233844,,,,,,,,,,,,,,,,,,,,,,,,,,,,,,,,,,,,,,,,,,,,,,,,,,,,,,,,,,,,6W8LXD,train_x,red_square,bottom_left,2025-02-03_14h34.59.621,HideSeek_v1,2022.2.5,59.90377058940091,
,4,2,9,2,5,0,66,,train_dim1_1,15,30,,,,2,0,2,0,,,,,,,,,0,0,0,0,0,14,14,14,5,0,5,0,,,,,,,,,,,,,,,,,,,,,,,,,,,,,,,,,,,,,,,,,,,,,,,,,,,,,,,,,,,,,,,,30,,,,,,,,1706.589338199934,1706.589338199934,1706.589338199934,1706.589338199934,1706.589338199934,return,1.4606761999893934,9,0,0,1,0.56,-0.24,return,1.3743684000801295,0,35,0.56,-0.24,,,,,,,,,,,,,,,,,,,,,,,,,,,,,,,,,,,,,,,,,,,,,,,,,,,,,,,,6W8LXD,train_x,red_square,bottom_left,2025-02-03_14h34.59.621,HideSeek_v1,2022.2.5,59.90377058940091,
,3,3,7,3,4,0,56,,train_dim1_1,16,30,,,,2,0,2,0,,,,,,,,,0,0,0,0,0,15,15,15,0,0,0,0,,,,,,,,,,,,,,,,,,,,,,,,,stimuli/alien_stimuli/56.png,,,,,,,,,,,,,,,,,,,,,,,,,,,,,stimuli/alien_stimuli/66.png,66,4,17,,,,,,,30,,,,,,,,1713.0167500999523,1713.0167500999523,1713.0167500999523,1713.0167500999523,1713.0167500999523,right,2.5228674999671057,9,0,0,99,0.16,-0.16,right,2.4201359000289813,,,,,1711.4466153000249,1713.0167500999523,0.56,-0.24,0.0,0.4,-0.24,0.56,0.36000000000000004,0.56,-0.24,1709.6259554999415,1709.6259554999415,1709.6259554999415,1709.6259554999415,1709.6259554999415,1709.6259554999415,1709.6259554999415,1709.6259554999415,1709.6115679799577,1.9376900000497699,return,1.7990048000356182,,,,,,,,,,,,,,,,,,,,,,,,,,,,,,,,,6W8LXD,train_x,red_square,bottom_left,2025-02-03_14h34.59.621,HideSeek_v1,2022.2.5,59.90377058940091,
,3,3,7,3,4,0,56,,train_dim1_1,16,30,,,,2,0,2,0,,,,,,,,,0,0,0,0,0,15,15,15,1,0,1,0,,,,,,,,,,,,,,,,,,,,,,,,,,,,,,,,,,,,,,,,,,,,,,,,,,,,,,,,,,,,,,,,30,,,,,,,,1715.5317175999517,1715.5317175999517,1715.5317175999517,1715.5317175999517,1715.5317175999517,right,0.6603819999145344,9,0,0,99,0.24,-0.16,right,0.5816075999755412,,,,,,,,,,,,,,,,,,,,,,,,,,,,,,,,,,,,,,,,,,,,,,,,,,,,,,,,,,,,6W8LXD,train_x,red_square,bottom_left,2025-02-03_14h34.59.621,HideSeek_v1,2022.2.5,59.90377058940091,
,3,3,7,3,4,0,56,,train_dim1_1,16,30,,,,2,0,2,0,,,,,,,,,0,0,0,0,0,15,15,15,2,0,2,0,,,,,,,,,,,,,,,,,,,,,,,,,,,,,,,,,,,,,,,,,,,,,,,,,,,,,,,,,,,,,,,,30,,,,,,,,1716.2030729999533,1716.2030729999533,1716.2030729999533,1716.2030729999533,1716.2030729999533,right,1.0260409000329673,9,0,0,99,0.32,-0.16,right,0.946631700033322,,,,,,,,,,,,,,,,,,,,,,,,,,,,,,,,,,,,,,,,,,,,,,,,,,,,,,,,,,,,6W8LXD,train_x,red_square,bottom_left,2025-02-03_14h34.59.621,HideSeek_v1,2022.2.5,59.90377058940091,
,3,3,7,3,4,0,56,,train_dim1_1,16,30,,,,2,0,2,0,,,,,,,,,0,0,0,0,0,15,15,15,3,0,3,0,,,,,,,,,,,,,,,,,,,,,,,,,,,,,,,,,,,,,,,,,,,,,,,,,,,,,,,,,,,,,,,,30,,,,,,,,1717.2354403999634,1717.2354403999634,1717.2354403999634,1717.2354403999634,1717.2354403999634,right,0.8444127000402659,9,0,0,99,0.4,-0.16,right,0.7602882999926805,,,,,,,,,,,,,,,,,,,,,,,,,,,,,,,,,,,,,,,,,,,,,,,,,,,,,,,,,,,,6W8LXD,train_x,red_square,bottom_left,2025-02-03_14h34.59.621,HideSeek_v1,2022.2.5,59.90377058940091,
,3,3,7,3,4,0,56,,train_dim1_1,16,30,,,,2,0,2,0,,,,,,,,,0,0,0,0,0,15,15,15,4,0,4,0,,,,,,,,,,,,,,,,,,,,,,,,,,,,,,,,,,,,,,,,,,,,,,,,,,,,,,,,,,,,,,,,30,,,,,,,,1718.0849655999336,1718.0849655999336,1718.0849655999336,1718.0849655999336,1718.0849655999336,return,3.245333099970594,10,0,0,1,0.4,-0.16,return,3.1698940000496805,0,39,0.4,-0.16,,,,,,,,,,,,,,,,,,,,,,,,,,,,,,,,,,,,,,,,,,,,,,,,,,,,,,,,6W8LXD,train_x,red_square,bottom_left,2025-02-03_14h34.59.621,HideSeek_v1,2022.2.5,59.90377058940091,
,2,4,3,4,1,0,26,,train_dim1_1,17,30,,,,2,0,2,0,,,,,,,,,0,0,0,0,0,16,16,16,0,0,0,0,,,,,,,,,,,,,,,,,,,,,,,,,stimuli/alien_stimuli/26.png,,,,,,,,,,,,,,,,,,,,,,,,,,,,,stimuli/alien_stimuli/56.png,56,3,18,,,,,,,30,,,,,,,,1726.0504674999975,1726.0504674999975,1726.0504674999975,1726.0504674999975,1726.0504674999975,right,3.1754484000848606,10,0,0,99,0.08,-0.08,right,3.0735297999344766,,,,,1724.47439629992,1726.0504674999975,0.4,-0.16,0.0,0.32,-0.16,0.4,0.24000000000000002,0.4,-0.16,1722.9067069999874,1722.9067069999874,1722.9067069999874,1722.9067069999874,1722.9067069999874,1722.9067069999874,1722.9067069999874,1722.9067069999874,1722.8888076799221,1.6880834000185132,return,1.5510300999740139,,,,,,,,,,,,,,,,,,,,,,,,,,,,,,,,,6W8LXD,train_x,red_square,bottom_left,2025-02-03_14h34.59.621,HideSeek_v1,2022.2.5,59.90377058940091,
,2,4,3,4,1,0,26,,train_dim1_1,17,30,,,,2,0,2,0,,,,,,,,,0,0,0,0,0,16,16,16,1,0,1,0,,,,,,,,,,,,,,,,,,,,,,,,,,,,,,,,,,,,,,,,,,,,,,,,,,,,,,,,,,,,,,,,30,,,,,,,,1729.2153900000267,1729.2153900000267,1729.2153900000267,1729.2153900000267,1729.2153900000267,return,4.593800499918871,11,0,0,1,0.08,-0.08,return,4.506685300031677,0,40,0.08,-0.08,,,,,,,,,,,,,,,,,,,,,,,,,,,,,,,,,,,,,,,,,,,,,,,,,,,,,,,,6W8LXD,train_x,red_square,bottom_left,2025-02-03_14h34.59.621,HideSeek_v1,2022.2.5,59.90377058940091,
,2,1,7,1,5,0,66,,train_dim1_1,18,30,,,,2,0,2,0,,,,,,,,,0,0,0,0,0,17,17,17,0,0,0,0,,,,,,,,,,,,,,,,,,,,,,,,,stimuli/alien_stimuli/66.png,,,,,,,,,,,,,,,,,,,,,,,,,,,,,stimuli/alien_stimuli/26.png,26,2,19,,,,,,,30,,,,,,,,1739.9790843999945,1739.9790843999945,1739.9790843999945,1739.9790843999945,1739.9790843999945,right,2.9563069000141695,11,0,0,99,0.08,-0.32,right,2.872992500080727,,,,,1738.4191447999328,1739.9790843999945,0.08,-0.08,0.0,0.08,-0.08,0.08,0.04,0.08,-0.08,1735.398054899997,1735.398054899997,1735.398054899997,1735.398054899997,1735.398054899997,1735.398054899997,1735.398054899997,1735.398054899997,1735.383332619979,3.154457199969329,return,2.9962868998991325,,,,,,,,,,,,,,,,,,,,,,,,,,,,,,,,,6W8LXD,train_x,red_square,bottom_left,2025-02-03_14h34.59.621,HideSeek_v1,2022.2.5,59.90377058940091,
,2,1,7,1,5,0,66,,train_dim1_1,18,30,,,,2,0,2,0,,,,,,,,,0,0,0,0,0,17,17,17,1,0,1,0,,,,,,,,,,,,,,,,,,,,,,,,,,,,,,,,,,,,,,,,,,,,,,,,,,,,,,,,,,,,,,,,30,,,,,,,,1742.9397850999376,1742.9397850999376,1742.9397850999376,1742.9397850999376,1742.9397850999376,right,0.42399449995718896,11,0,0,99,0.16,-0.32,right,0.34797210001852363,,,,,,,,,,,,,,,,,,,,,,,,,,,,,,,,,,,,,,,,,,,,,,,,,,,,,,,,,,,,6W8LXD,train_x,red_square,bottom_left,2025-02-03_14h34.59.621,HideSeek_v1,2022.2.5,59.90377058940091,
,2,1,7,1,5,0,66,,train_dim1_1,18,30,,,,2,0,2,0,,,,,,,,,0,0,0,0,0,17,17,17,2,0,2,0,,,,,,,,,,,,,,,,,,,,,,,,,,,,,,,,,,,,,,,,,,,,,,,,,,,,,,,,,,,,,,,,30,,,,,,,,1743.3688714000164,1743.3688714000164,1743.3688714000164,1743.3688714000164,1743.3688714000164,right,0.3770705000497401,11,0,0,99,0.24,-0.32,right,0.2995179999852553,,,,,,,,,,,,,,,,,,,,,,,,,,,,,,,,,,,,,,,,,,,,,,,,,,,,,,,,,,,,6W8LXD,train_x,red_square,bottom_left,2025-02-03_14h34.59.621,HideSeek_v1,2022.2.5,59.90377058940091,
,2,1,7,1,5,0,66,,train_dim1_1,18,30,,,,2,0,2,0,,,,,,,,,0,0,0,0,0,17,17,17,3,0,3,0,,,,,,,,,,,,,,,,,,,,,,,,,,,,,,,,,,,,,,,,,,,,,,,,,,,,,,,,,,,,,,,,30,,,,,,,,1743.7539567999775,1743.7539567999775,1743.7539567999775,1743.7539567999775,1743.7539567999775,right,0.3925200999947265,11,0,0,99,0.32,-0.32,right,0.31736830004956573,,,,,,,,,,,,,,,,,,,,,,,,,,,,,,,,,,,,,,,,,,,,,,,,,,,,,,,,,,,,6W8LXD,train_x,red_square,bottom_left,2025-02-03_14h34.59.621,HideSeek_v1,2022.2.5,59.90377058940091,
,2,1,7,1,5,0,66,,train_dim1_1,18,30,,,,2,0,2,0,,,,,,,,,0,0,0,0,0,17,17,17,4,0,4,0,,,,,,,,,,,,,,,,,,,,,,,,,,,,,,,,,,,,,,,,,,,,,,,,,,,,,,,,,,,,,,,,30,,,,,,,,1744.1527225999162,1744.1527225999162,1744.1527225999162,1744.1527225999162,1744.1527225999162,right,0.4943826999515295,11,0,0,99,0.4,-0.32,right,0.4204711999045685,,,,,,,,,,,,,,,,,,,,,,,,,,,,,,,,,,,,,,,,,,,,,,,,,,,,,,,,,,,,6W8LXD,train_x,red_square,bottom_left,2025-02-03_14h34.59.621,HideSeek_v1,2022.2.5,59.90377058940091,
,2,1,7,1,5,0,66,,train_dim1_1,18,30,,,,2,0,2,0,,,,,,,,,0,0,0,0,0,17,17,17,5,0,5,0,,,,,,,,,,,,,,,,,,,,,,,,,,,,,,,,,,,,,,,,,,,,,,,,,,,,,,,,,,,,,,,,30,,,,,,,,1744.6545402000193,1744.6545402000193,1744.6545402000193,1744.6545402000193,1744.6545402000193,return,0.8766366000054404,12,0,0,1,0.4,-0.32,return,0.789034100016579,0,45,0.4,-0.32,,,,,,,,,,,,,,,,,,,,,,,,,,,,,,,,,,,,,,,,,,,,,,,,,,,,,,,,6W8LXD,train_x,red_square,bottom_left,2025-02-03_14h34.59.621,HideSeek_v1,2022.2.5,59.90377058940091,
,0,3,3,3,3,0,46,,train_dim1_1,19,30,,,,2,0,2,0,,,,,,,,,0,0,0,0,0,18,18,18,0,0,0,0,,,,,,,,,,,,,,,,,,,,,,,,,stimuli/alien_stimuli/46.png,,,,,,,,,,,,,,,,,,,,,,,,,,,,,stimuli/alien_stimuli/66.png,66,2,20,,,,,,,30,,,,,,,,1750.2120542000048,1750.2120542000048,1750.2120542000048,1750.2120542000048,1750.2120542000048,right,1.6216128000523895,12,0,0,99,-0.08,-0.16,right,1.5226758000208065,,,,,1748.6320171999978,1747.1108683999628,0.4,-0.32,0.0,0.4,-0.32,0.4,0.2,0.4,-0.32,1747.1108683999628,1747.1108683999628,1747.1108683999628,1747.1108683999628,1747.1108683999628,1747.1108683999628,1747.1108683999628,1747.1108683999628,1747.0930332799207,1.6427370000164956,return,1.490674200002104,,,,,,,,,,,,,,,,,,,,,,,,,,,,,,,,,6W8LXD,train_x,red_square,bottom_left,2025-02-03_14h34.59.621,HideSeek_v1,2022.2.5,59.90377058940091,
,0,3,3,3,3,0,46,,train_dim1_1,19,30,,,,2,0,2,0,,,,,,,,,0,0,0,0,0,18,18,18,1,0,1,0,,,,,,,,,,,,,,,,,,,,,,,,,,,,,,,,,,,,,,,,,,,,,,,,,,,,,,,,,,,,,,,,30,,,,,,,,1751.826218299917,1751.826218299917,1751.826218299917,1751.826218299917,1751.826218299917,right,0.6599266999401152,12,0,0,99,0.0,-0.16,right,0.5862326000351459,,,,,,,,,,,,,,,,,,,,,,,,,,,,,,,,,,,,,,,,,,,,,,,,,,,,,,,,,,,,6W8LXD,train_x,red_square,bottom_left,2025-02-03_14h34.59.621,HideSeek_v1,2022.2.5,59.90377058940091,
,0,3,3,3,3,0,46,,train_dim1_1,19,30,,,,2,0,2,0,,,,,,,,,0,0,0,0,0,18,18,18,2,0,2,0,,,,,,,,,,,,,,,,,,,,,,,,,,,,,,,,,,,,,,,,,,,,,,,,,,,,,,,,,,,,,,,,30,,,,,,,,1752.4939089999534,1752.4939089999534,1752.4939089999534,1752.4939089999534,1752.4939089999534,right,0.6271153000416234,12,0,0,99,0.08,-0.16,right,0.5491664999863133,,,,,,,,,,,,,,,,,,,,,,,,,,,,,,,,,,,,,,,,,,,,,,,,,,,,,,,,,,,,6W8LXD,train_x,red_square,bottom_left,2025-02-03_14h34.59.621,HideSeek_v1,2022.2.5,59.90377058940091,
,0,3,3,3,3,0,46,,train_dim1_1,19,30,,,,2,0,2,0,,,,,,,,,0,0,0,0,0,18,18,18,3,0,3,0,,,,,,,,,,,,,,,,,,,,,,,,,,,,,,,,,,,,,,,,,,,,,,,,,,,,,,,,,,,,,,,,30,,,,,,,,1753.1286887999158,1753.1286887999158,1753.1286887999158,1753.1286887999158,1753.1286887999158,return,2.7942163000116125,13,0,0,1,0.08,-0.16,return,2.718621600070037,0,48,0.08,-0.16,,,,,,,,,,,,,,,,,,,,,,,,,,,,,,,,,,,,,,,,,,,,,,,,,,,,,,,,6W8LXD,train_x,red_square,bottom_left,2025-02-03_14h34.59.621,HideSeek_v1,2022.2.5,59.90377058940091,
,0,1,0,1,0,0,16,,train_dim1_1,20,30,,,,2,0,2,0,,,,,,,,,0,0,0,0,0,19,19,19,0,0,0,0,,,,,,,,,,,,,,,,,,,,,,,,,stimuli/alien_stimuli/16.png,,,,,,,,,,,,,,,,,,,,,,,,,,,,,stimuli/alien_stimuli/46.png,46,0,21,,,,,,,30,,,,,,,,1760.9310643000063,1760.9310643000063,1760.9310643000063,1760.9310643000063,1760.9310643000063,right,2.2224769999738783,13,0,0,99,-0.08,-0.32,right,2.1145533999660984,,,,,1759.3532548999647,1760.9310643000063,0.08,-0.16,0.0,0.24,-0.16,0.08,-0.04,0.08,-0.16,1757.4981686000247,1757.4981686000247,1757.4981686000247,1757.4981686000247,1757.4981686000247,1757.4981686000247,1757.4981686000247,1757.4981686000247,1757.4848796799079,1.9704200000269338,return,1.8335875000339001,,,,,,,,,,,,,,,,,,,,,,,,,,,,,,,,,6W8LXD,train_x,red_square,bottom_left,2025-02-03_14h34.59.621,HideSeek_v1,2022.2.5,59.90377058940091,
,0,1,0,1,0,0,16,,train_dim1_1,20,30,,,,2,0,2,0,,,,,,,,,0,0,0,0,0,19,19,19,1,0,1,0,,,,,,,,,,,,,,,,,,,,,,,,,,,,,,,,,,,,,,,,,,,,,,,,,,,,,,,,,,,,,,,,30,,,,,,,,1763.1405673999107,1763.1405673999107,1763.1405673999107,1763.1405673999107,1763.1405673999107,left,0.9932608999079093,13,0,0,99,-0.16,-0.32,left,0.9102453000377864,,,,,,,,,,,,,,,,,,,,,,,,,,,,,,,,,,,,,,,,,,,,,,,,,,,,,,,,,,,,6W8LXD,train_x,red_square,bottom_left,2025-02-03_14h34.59.621,HideSeek_v1,2022.2.5,59.90377058940091,
,0,1,0,1,0,0,16,,train_dim1_1,20,30,,,,2,0,2,0,,,,,,,,,0,0,0,0,0,19,19,19,2,0,2,0,,,,,,,,,,,,,,,,,,,,,,,,,,,,,,,,,,,,,,,,,,,,,,,,,,,,,,,,,,,,,,,,30,,,,,,,,1764.1398686999455,1764.1398686999455,1764.1398686999455,1764.1398686999455,1764.1398686999455,return,2.4286934999981895,14,0,0,1,-0.16,-0.32,return,2.3509538000216708,0,48,-0.16,-0.32,,,,,,,,,,,,,,,,,,,,,,,,,,,,,,,,,,,,,,,,,,,,,,,,,,,,,,,,6W8LXD,train_x,red_square,bottom_left,2025-02-03_14h34.59.621,HideSeek_v1,2022.2.5,59.90377058940091,
,4,2,7,2,3,0,46,,train_dim1_1,21,30,,,,2,0,2,0,,,,,,,,,0,0,0,0,0,20,20,20,0,0,0,0,,,,,,,,,,,,,,,,,,,,,,,,,stimuli/alien_stimuli/46.png,,,,,,,,,,,,,,,,,,,,,,,,,,,,,stimuli/alien_stimuli/16.png,16,0,22,,,,,,,30,,,,,,,,1771.6767619999591,1771.6767619999591,1771.6767619999591,1771.6767619999591,1771.6767619999591,right,2.0243261998984963,14,0,0,99,0.24,-0.24,right,1.9293927999679,,,,,1770.1116162999533,1771.6767619999591,-0.16,-0.32,0.0,0.0,-0.32,-0.16,-0.16,-0.16,-0.32,1768.1570477000205,1768.1570477000205,1768.1570477000205,1768.1570477000205,1768.1570477000205,1768.1570477000205,1768.1570477000205,1768.1570477000205,1768.143816419947,2.08656940003857,return,1.9316615998977795,,,,,,,,,,,,,,,,,,,,,,,,,,,,,,,,,6W8LXD,train_x,red_square,bottom_left,2025-02-03_14h34.59.621,HideSeek_v1,2022.2.5,59.90377058940091,
,4,2,7,2,3,0,46,,train_dim1_1,21,30,,,,2,0,2,0,,,,,,,,,0,0,0,0,0,20,20,20,1,0,1,0,,,,,,,,,,,,,,,,,,,,,,,,,,,,,,,,,,,,,,,,,,,,,,,,,,,,,,,,,,,,,,,,30,,,,,,,,1773.6956785999937,1773.6956785999937,1773.6956785999937,1773.6956785999937,1773.6956785999937,right,0.6758770999731496,14,0,0,99,0.32,-0.24,right,0.592431899975054,,,,,,,,,,,,,,,,,,,,,,,,,,,,,,,,,,,,,,,,,,,,,,,,,,,,,,,,,,,,6W8LXD,train_x,red_square,bottom_left,2025-02-03_14h34.59.621,HideSeek_v1,2022.2.5,59.90377058940091,
,4,2,7,2,3,0,46,,train_dim1_1,21,30,,,,2,0,2,0,,,,,,,,,0,0,0,0,0,20,20,20,2,0,2,0,,,,,,,,,,,,,,,,,,,,,,,,,,,,,,,,,,,,,,,,,,,,,,,,,,,,,,,,,,,,,,,,30,,,,,,,,1774.3787693999475,1774.3787693999475,1774.3787693999475,1774.3787693999475,1774.3787693999475,right,3.2122057999949902,14,0,0,99,0.4,-0.24,right,3.125412499997765,,,,,,,,,,,,,,,,,,,,,,,,,,,,,,,,,,,,,,,,,,,,,,,,,,,,,,,,,,,,6W8LXD,train_x,red_square,bottom_left,2025-02-03_14h34.59.621,HideSeek_v1,2022.2.5,59.90377058940091,
,4,2,7,2,3,0,46,,train_dim1_1,21,30,,,,2,0,2,0,,,,,,,,,0,0,0,0,0,20,20,20,3,0,3,0,,,,,,,,,,,,,,,,,,,,,,,,,,,,,,,,,,,,,,,,,,,,,,,,,,,,,,,,,,,,,,,,30,,,,,,,,1777.5968989999965,1777.5968989999965,1777.5968989999965,1777.5968989999965,1777.5968989999965,return,1.24421480007004,15,0,0,1,0.4,-0.24,return,1.169417200027965,0,51,0.4,-0.24,,,,,,,,,,,,,,,,,,,,,,,,,,,,,,,,,,,,,,,,,,,,,,,,,,,,,,,,6W8LXD,train_x,red_square,bottom_left,2025-02-03_14h34.59.621,HideSeek_v1,2022.2.5,59.90377058940091,
,1,0,2,0,1,0,26,,train_dim1_1,22,30,,,,2,0,2,0,,,,,,,,,0,0,0,0,0,21,21,21,0,0,0,0,,,,,,,,,,,,,,,,,,,,,,,,,stimuli/alien_stimuli/26.png,,,,,,,,,,,,,,,,,,,,,,,,,,,,,stimuli/alien_stimuli/46.png,46,4,23,,,,,,,30,,,,,,,,1783.5143561000004,1783.5143561000004,1783.5143561000004,1783.5143561000004,1783.5143561000004,right,3.290943800006062,15,0,0,99,0.0,-0.4,right,3.1900230000028387,,,,,1781.9384777999949,1783.5143561000004,0.4,-0.24,0.0,0.24,-0.24,0.4,0.28,0.4,-0.24,1780.4191078000003,1780.4191078000003,1780.4191078000003,1780.4191078000003,1780.4191078000003,1780.4191078000003,1780.4191078000003,1780.4191078000003,1780.4037578799062,1.637044299975969,return,1.4976744999876246,,,,,,,,,,,,,,,,,,,,,,,,,,,,,,,,,6W8LXD,train_x,red_square,bottom_left,2025-02-03_14h34.59.621,HideSeek_v1,2022.2.5,59.90377058940091,
,1,0,2,0,1,0,26,,train_dim1_1,22,30,,,,2,0,2,0,,,,,,,,,0,0,0,0,0,21,21,21,1,0,1,0,,,,,,,,,,,,,,,,,,,,,,,,,,,,,,,,,,,,,,,,,,,,,,,,,,,,,,,,,,,,,,,,30,,,,,,,,1786.7927977999207,1786.7927977999207,1786.7927977999207,1786.7927977999207,1786.7927977999207,return,0.9267287999391556,16,0,0,1,0.0,-0.4,return,0.8487527999095619,0,52,0.0,-0.4,,,,,,,,,,,,,,,,,,,,,,,,,,,,,,,,,,,,,,,,,,,,,,,,,,,,,,,,6W8LXD,train_x,red_square,bottom_left,2025-02-03_14h34.59.621,HideSeek_v1,2022.2.5,59.90377058940091,
,2,1,7,1,5,0,66,,train_dim1_1,23,30,,,,2,0,2,0,,,,,,,,,0,0,0,0,0,22,22,22,0,0,0,0,,,,,,,,,,,,,,,,,,,,,,,,,stimuli/alien_stimuli/66.png,,,,,,,,,,,,,,,,,,,,,,,,,,,,,stimuli/alien_stimuli/26.png,26,1,24,,,,,,,30,,,,,,,,1792.4689794000005,1792.4689794000005,1792.4689794000005,1792.4689794000005,1792.4689794000005,right,2.18869470001664,16,0,0,99,0.08,-0.32,right,2.084250899963081,,,,,1790.8959209999302,1792.4689794000005,0,-0.4,0.0,0.08,-0.4,0,-0.04,0,-0.4,1789.2853430999676,1789.2853430999676,1789.2853430999676,1789.2853430999676,1789.2853430999676,1789.2853430999676,1789.2853430999676,1789.2853430999676,1789.277930780011,1.7198676000116393,return,1.5821957000298426,,,,,,,,,,,,,,,,,,,,,,,,,,,,,,,,,6W8LXD,train_x,red_square,bottom_left,2025-02-03_14h34.59.621,HideSeek_v1,2022.2.5,59.90377058940091,
,2,1,7,1,5,0,66,,train_dim1_1,23,30,,,,2,0,2,0,,,,,,,,,0,0,0,0,0,22,22,22,1,0,1,0,,,,,,,,,,,,,,,,,,,,,,,,,,,,,,,,,,,,,,,,,,,,,,,,,,,,,,,,,,,,,,,,30,,,,,,,,1794.6467110000085,1794.6467110000085,1794.6467110000085,1794.6467110000085,1794.6467110000085,right,0.32549590000417084,16,0,0,99,0.16,-0.32,right,0.24294479994568974,,,,,,,,,,,,,,,,,,,,,,,,,,,,,,,,,,,,,,,,,,,,,,,,,,,,,,,,,,,,6W8LXD,train_x,red_square,bottom_left,2025-02-03_14h34.59.621,HideSeek_v1,2022.2.5,59.90377058940091,
,2,1,7,1,5,0,66,,train_dim1_1,23,30,,,,2,0,2,0,,,,,,,,,0,0,0,0,0,22,22,22,2,0,2,0,,,,,,,,,,,,,,,,,,,,,,,,,,,,,,,,,,,,,,,,,,,,,,,,,,,,,,,,,,,,,,,,30,,,,,,,,1794.9788828999735,1794.9788828999735,1794.9788828999735,1794.9788828999735,1794.9788828999735,right,0.2933432999998331,16,0,0,99,0.24,-0.32,right,0.20766890002414584,,,,,,,,,,,,,,,,,,,,,,,,,,,,,,,,,,,,,,,,,,,,,,,,,,,,,,,,,,,,6W8LXD,train_x,red_square,bottom_left,2025-02-03_14h34.59.621,HideSeek_v1,2022.2.5,59.90377058940091,
,2,1,7,1,5,0,66,,train_dim1_1,23,30,,,,2,0,2,0,,,,,,,,,0,0,0,0,0,22,22,22,3,0,3,0,,,,,,,,,,,,,,,,,,,,,,,,,,,,,,,,,,,,,,,,,,,,,,,,,,,,,,,,,,,,,,,,30,,,,,,,,1795.2786259999266,1795.2786259999266,1795.2786259999266,1795.2786259999266,1795.2786259999266,right,0.34328889998141676,16,0,0,99,0.32,-0.32,right,0.2644303999841213,,,,,,,,,,,,,,,,,,,,,,,,,,,,,,,,,,,,,,,,,,,,,,,,,,,,,,,,,,,,6W8LXD,train_x,red_square,bottom_left,2025-02-03_14h34.59.621,HideSeek_v1,2022.2.5,59.90377058940091,
,2,1,7,1,5,0,66,,train_dim1_1,23,30,,,,2,0,2,0,,,,,,,,,0,0,0,0,0,22,22,22,4,0,4,0,,,,,,,,,,,,,,,,,,,,,,,,,,,,,,,,,,,,,,,,,,,,,,,,,,,,,,,,,,,,,,,,30,,,,,,,,1795.6287660999224,1795.6287660999224,1795.6287660999224,1795.6287660999224,1795.6287660999224,right,0.5102594000054523,16,0,0,99,0.4,-0.32,right,0.4346777000464499,,,,,,,,,,,,,,,,,,,,,,,,,,,,,,,,,,,,,,,,,,,,,,,,,,,,,,,,,,,,6W8LXD,train_x,red_square,bottom_left,2025-02-03_14h34.59.621,HideSeek_v1,2022.2.5,59.90377058940091,
,2,1,7,1,5,0,66,,train_dim1_1,23,30,,,,2,0,2,0,,,,,,,,,0,0,0,0,0,22,22,22,5,0,5,0,,,,,,,,,,,,,,,,,,,,,,,,,,,,,,,,,,,,,,,,,,,,,,,,,,,,,,,,,,,,,,,,30,,,,,,,,1796.145564800012,1796.145564800012,1796.145564800012,1796.145564800012,1796.145564800012,return,0.9271284999558702,17,0,0,1,0.4,-0.32,return,0.8402980999089777,0,57,0.4,-0.32,,,,,,,,,,,,,,,,,,,,,,,,,,,,,,,,,,,,,,,,,,,,,,,,,,,,,,,,6W8LXD,train_x,red_square,bottom_left,2025-02-03_14h34.59.621,HideSeek_v1,2022.2.5,59.90377058940091,
,4,4,8,4,4,0,56,,train_dim1_1,24,30,,,,2,0,2,0,,,,,,,,,0,0,0,0,0,23,23,23,0,0,0,0,,,,,,,,,,,,,,,,,,,,,,,,,stimuli/alien_stimuli/56.png,,,,,,,,,,,,,,,,,,,,,,,,,,,,,stimuli/alien_stimuli/66.png,66,2,25,,,,,,,30,,,,,,,,1802.4218019000255,1802.4218019000255,1802.4218019000255,1802.4218019000255,1802.4218019000255,right,5.347944000037387,17,0,0,99,0.24,-0.08,right,5.250508499913849,,,,,1800.8375823999522,1802.4218019000255,0.4,-0.32,0.0,0.4,-0.32,0.4,0.2,0.4,-0.32,1798.6355627999874,1798.6355627999874,1798.6355627999874,1798.6355627999874,1798.6355627999874,1798.6355627999874,1798.6355627999874,1798.6355627999874,1798.6190834399545,2.3042551999678835,return,2.173678200109862,,,,,,,,,,,,,,,,,,,,,,,,,,,,,,,,,6W8LXD,train_x,red_square,bottom_left,2025-02-03_14h34.59.621,HideSeek_v1,2022.2.5,59.90377058940091,
,4,4,8,4,4,0,56,,train_dim1_1,24,30,,,,2,0,2,0,,,,,,,,,0,0,0,0,0,23,23,23,1,0,1,0,,,,,,,,,,,,,,,,,,,,,,,,,,,,,,,,,,,,,,,,,,,,,,,,,,,,,,,,,,,,,,,,30,,,,,,,,1807.7587554999627,1807.7587554999627,1807.7587554999627,1807.7587554999627,1807.7587554999627,right,0.7434361000778154,17,0,0,99,0.32,-0.08,right,0.6588557000504807,,,,,,,,,,,,,,,,,,,,,,,,,,,,,,,,,,,,,,,,,,,,,,,,,,,,,,,,,,,,6W8LXD,train_x,red_square,bottom_left,2025-02-03_14h34.59.621,HideSeek_v1,2022.2.5,59.90377058940091,
,4,4,8,4,4,0,56,,train_dim1_1,24,30,,,,2,0,2,0,,,,,,,,,0,0,0,0,0,23,23,23,2,0,2,0,,,,,,,,,,,,,,,,,,,,,,,,,,,,,,,,,,,,,,,,,,,,,,,,,,,,,,,,,,,,,,,,30,,,,,,,,1808.5089297000086,1808.5089297000086,1808.5089297000086,1808.5089297000086,1808.5089297000086,right,2.1451166999759153,17,0,0,99,0.4,-0.08,right,2.066927900072187,,,,,,,,,,,,,,,,,,,,,,,,,,,,,,,,,,,,,,,,,,,,,,,,,,,,,,,,,,,,6W8LXD,train_x,red_square,bottom_left,2025-02-03_14h34.59.621,HideSeek_v1,2022.2.5,59.90377058940091,
,4,4,8,4,4,0,56,,train_dim1_1,24,30,,,,2,0,2,0,,,,,,,,,0,0,0,0,0,23,23,23,3,0,3,0,,,,,,,,,,,,,,,,,,,,,,,,,,,,,,,,,,,,,,,,,,,,,,,,,,,,,,,,,,,,,,,,30,,,,,,,,1810.664179699961,1810.664179699961,1810.664179699961,1810.664179699961,1810.664179699961,right,0.507578800083138,17,0,0,99,0.48000000000000004,-0.08,right,0.4183776000281796,,,,,,,,,,,,,,,,,,,,,,,,,,,,,,,,,,,,,,,,,,,,,,,,,,,,,,,,,,,,6W8LXD,train_x,red_square,bottom_left,2025-02-03_14h34.59.621,HideSeek_v1,2022.2.5,59.90377058940091,
,4,4,8,4,4,0,56,,train_dim1_1,24,30,,,,2,0,2,0,,,,,,,,,0,0,0,0,0,23,23,23,4,0,4,0,,,,,,,,,,,,,,,,,,,,,,,,,,,,,,,,,,,,,,,,,,,,,,,,,,,,,,,,,,,,,,,,30,,,,,,,,1811.1770221999614,1811.1770221999614,1811.1770221999614,1811.1770221999614,1811.1770221999614,return,3.562434699968435,18,0,0,1,0.48000000000000004,-0.08,return,3.4819951000390574,0,61,0.48000000000000004,-0.08,,,,,,,,,,,,,,,,,,,,,,,,,,,,,,,,,,,,,,,,,,,,,,,,,,,,,,,,6W8LXD,train_x,red_square,bottom_left,2025-02-03_14h34.59.621,HideSeek_v1,2022.2.5,59.90377058940091,
,3,0,3,0,0,0,16,,train_dim1_1,25,30,,,,2,0,2,0,,,,,,,,,0,0,0,0,0,24,24,24,0,0,0,0,,,,,,,,,,,,,,,,,,,,,,,,,stimuli/alien_stimuli/16.png,,,,,,,,,,,,,,,,,,,,,,,,,,,,,stimuli/alien_stimuli/56.png,56,4,26,,,,,,,30,,,,,,,,1819.4342556999763,1819.4342556999763,1819.4342556999763,1819.4342556999763,1819.4342556999763,right,2.1889520999975502,18,0,0,99,0.16,-0.4,right,2.0751552999718115,,,,,1817.8515446999809,1819.4342556999763,0.48,-0.08,0.0,0.32,-0.08,0.48,0.32,0.48,-0.08,1816.3303445000201,1816.3303445000201,1816.3303445000201,1816.3303445000201,1816.3303445000201,1816.3303445000201,1816.3303445000201,1816.3303445000201,1816.3172065199585,1.65329919999931,return,1.4943083000835031,,,,,,,,,,,,,,,,,,,,,,,,,,,,,,,,,6W8LXD,train_x,red_square,bottom_left,2025-02-03_14h34.59.621,HideSeek_v1,2022.2.5,59.90377058940091,
,3,0,3,0,0,0,16,,train_dim1_1,25,30,,,,2,0,2,0,,,,,,,,,0,0,0,0,0,24,24,24,1,0,1,0,,,,,,,,,,,,,,,,,,,,,,,,,,,,,,,,,,,,,,,,,,,,,,,,,,,,,,,,,,,,,,,,30,,,,,,,,1821.6052781000035,1821.6052781000035,1821.6052781000035,1821.6052781000035,1821.6052781000035,left,0.7764886000659317,18,0,0,99,0.08,-0.4,left,0.6967478999868035,,,,,,,,,,,,,,,,,,,,,,,,,,,,,,,,,,,,,,,,,,,,,,,,,,,,,,,,,,,,6W8LXD,train_x,red_square,bottom_left,2025-02-03_14h34.59.621,HideSeek_v1,2022.2.5,59.90377058940091,
,3,0,3,0,0,0,16,,train_dim1_1,25,30,,,,2,0,2,0,,,,,,,,,0,0,0,0,0,24,24,24,2,0,2,0,,,,,,,,,,,,,,,,,,,,,,,,,,,,,,,,,,,,,,,,,,,,,,,,,,,,,,,,,,,,,,,,30,,,,,,,,1822.3889709999785,1822.3889709999785,1822.3889709999785,1822.3889709999785,1822.3889709999785,return,2.9116317000007257,19,0,0,1,0.08,-0.4,return,2.820532700046897,0,61,0.08,-0.4,,,,,,,,,,,,,,,,,,,,,,,,,,,,,,,,,,,,,,,,,,,,,,,,,,,,,,,,6W8LXD,train_x,red_square,bottom_left,2025-02-03_14h34.59.621,HideSeek_v1,2022.2.5,59.90377058940091,
,1,1,6,1,5,0,66,,train_dim1_1,26,30,,,,2,0,2,0,,,,,,,,,0,0,0,0,0,25,25,25,0,0,0,0,,,,,,,,,,,,,,,,,,,,,,,,,stimuli/alien_stimuli/66.png,,,,,,,,,,,,,,,,,,,,,,,,,,,,,stimuli/alien_stimuli/16.png,16,3,27,,,,,,,30,,,,,,,,1830.1658741999418,1830.1658741999418,1830.1658741999418,1830.1658741999418,1830.1658741999418,right,3.439002100029029,19,0,0,99,0.0,-0.32,right,3.3327891000080854,,,,,1828.5938947999384,1830.1658741999418,0.08,-0.4,0.0,0.0,-0.4,0.08,0.08,0.08,-0.4,1826.888328799978,1826.888328799978,1826.888328799978,1826.888328799978,1826.888328799978,1826.888328799978,1826.888328799978,1826.888328799978,1826.8758795199217,1.8368840999901295,return,1.6776190999662504,,,,,,,,,,,,,,,,,,,,,,,,,,,,,,,,,6W8LXD,train_x,red_square,bottom_left,2025-02-03_14h34.59.621,HideSeek_v1,2022.2.5,59.90377058940091,
,1,1,6,1,5,0,66,,train_dim1_1,26,30,,,,2,0,2,0,,,,,,,,,0,0,0,0,0,25,25,25,1,0,1,0,,,,,,,,,,,,,,,,,,,,,,,,,,,,,,,,,,,,,,,,,,,,,,,,,,,,,,,,,,,,,,,,30,,,,,,,,1833.5947095999727,1833.5947095999727,1833.5947095999727,1833.5947095999727,1833.5947095999727,right,0.4761521000182256,19,0,0,99,0.08,-0.32,right,0.40311459999065846,,,,,,,,,,,,,,,,,,,,,,,,,,,,,,,,,,,,,,,,,,,,,,,,,,,,,,,,,,,,6W8LXD,train_x,red_square,bottom_left,2025-02-03_14h34.59.621,HideSeek_v1,2022.2.5,59.90377058940091,
,1,1,6,1,5,0,66,,train_dim1_1,26,30,,,,2,0,2,0,,,,,,,,,0,0,0,0,0,25,25,25,2,0,2,0,,,,,,,,,,,,,,,,,,,,,,,,,,,,,,,,,,,,,,,,,,,,,,,,,,,,,,,,,,,,,,,,30,,,,,,,,1834.0826098999241,1834.0826098999241,1834.0826098999241,1834.0826098999241,1834.0826098999241,right,0.4267354999901727,19,0,0,99,0.16,-0.32,right,0.3352321001002565,,,,,,,,,,,,,,,,,,,,,,,,,,,,,,,,,,,,,,,,,,,,,,,,,,,,,,,,,,,,6W8LXD,train_x,red_square,bottom_left,2025-02-03_14h34.59.621,HideSeek_v1,2022.2.5,59.90377058940091,
,1,1,6,1,5,0,66,,train_dim1_1,26,30,,,,2,0,2,0,,,,,,,,,0,0,0,0,0,25,25,25,3,0,3,0,,,,,,,,,,,,,,,,,,,,,,,,,,,,,,,,,,,,,,,,,,,,,,,,,,,,,,,,,,,,,,,,30,,,,,,,,1834.5110787999583,1834.5110787999583,1834.5110787999583,1834.5110787999583,1834.5110787999583,right,0.5101055999984965,19,0,0,99,0.24,-0.32,right,0.423563800053671,,,,,,,,,,,,,,,,,,,,,,,,,,,,,,,,,,,,,,,,,,,,,,,,,,,,,,,,,,,,6W8LXD,train_x,red_square,bottom_left,2025-02-03_14h34.59.621,HideSeek_v1,2022.2.5,59.90377058940091,
,1,1,6,1,5,0,66,,train_dim1_1,26,30,,,,2,0,2,0,,,,,,,,,0,0,0,0,0,25,25,25,4,0,4,0,,,,,,,,,,,,,,,,,,,,,,,,,,,,,,,,,,,,,,,,,,,,,,,,,,,,,,,,,,,,,,,,30,,,,,,,,1835.0286778999725,1835.0286778999725,1835.0286778999725,1835.0286778999725,1835.0286778999725,right,0.5434377000201494,19,0,0,99,0.32,-0.32,right,0.4576913999626413,,,,,,,,,,,,,,,,,,,,,,,,,,,,,,,,,,,,,,,,,,,,,,,,,,,,,,,,,,,,6W8LXD,train_x,red_square,bottom_left,2025-02-03_14h34.59.621,HideSeek_v1,2022.2.5,59.90377058940091,
,1,1,6,1,5,0,66,,train_dim1_1,26,30,,,,2,0,2,0,,,,,,,,,0,0,0,0,0,25,25,25,5,0,5,0,,,,,,,,,,,,,,,,,,,,,,,,,,,,,,,,,,,,,,,,,,,,,,,,,,,,,,,,,,,,,,,,30,,,,,,,,1835.5793609999819,1835.5793609999819,1835.5793609999819,1835.5793609999819,1835.5793609999819,return,1.3267505000112578,20,0,0,1,0.32,-0.32,return,1.2553467999678105,0,66,0.32,-0.32,,,,,,,,,,,,,,,,,,,,,,,,,,,,,,,,,,,,,,,,,,,,,,,,,,,,,,,,6W8LXD,train_x,red_square,bottom_left,2025-02-03_14h34.59.621,HideSeek_v1,2022.2.5,59.90377058940091,
,0,1,3,1,3,0,46,,train_dim1_1,27,30,,,,2,0,2,0,,,,,,,,,0,0,0,0,0,26,26,26,0,0,0,0,,,,,,,,,,,,,,,,,,,,,,,,,stimuli/alien_stimuli/46.png,,,,,,,,,,,,,,,,,,,,,,,,,,,,,stimuli/alien_stimuli/66.png,66,1,28,,,,,,,30,,,,,,,,1842.2036675999407,1842.2036675999407,1842.2036675999407,1842.2036675999407,1842.2036675999407,right,2.305555900093168,20,0,0,99,-0.08,-0.32,right,2.2050534000154585,,,,,1840.6371813999722,1842.2036675999407,0.32,-0.32,0.0,0.4,-0.32,0.32,0.12,0.32,-0.32,1838.483195799985,1838.483195799985,1838.483195799985,1838.483195799985,1838.483195799985,1838.483195799985,1838.483195799985,1838.483195799985,1838.4687674799234,2.271380600053817,return,2.1224811000283808,,,,,,,,,,,,,,,,,,,,,,,,,,,,,,,,,6W8LXD,train_x,red_square,bottom_left,2025-02-03_14h34.59.621,HideSeek_v1,2022.2.5,59.90377058940091,
,0,1,3,1,3,0,46,,train_dim1_1,27,30,,,,2,0,2,0,,,,,,,,,0,0,0,0,0,26,26,26,1,0,1,0,,,,,,,,,,,,,,,,,,,,,,,,,,,,,,,,,,,,,,,,,,,,,,,,,,,,,,,,,,,,,,,,30,,,,,,,,1844.507579499972,1844.507579499972,1844.507579499972,1844.507579499972,1844.507579499972,right,0.8242924000369385,20,0,0,99,0.0,-0.32,right,0.7347033000551164,,,,,,,,,,,,,,,,,,,,,,,,,,,,,,,,,,,,,,,,,,,,,,,,,,,,,,,,,,,,6W8LXD,train_x,red_square,bottom_left,2025-02-03_14h34.59.621,HideSeek_v1,2022.2.5,59.90377058940091,
,0,1,3,1,3,0,46,,train_dim1_1,27,30,,,,2,0,2,0,,,,,,,,,0,0,0,0,0,26,26,26,2,0,2,0,,,,,,,,,,,,,,,,,,,,,,,,,,,,,,,,,,,,,,,,,,,,,,,,,,,,,,,,,,,,,,,,30,,,,,,,,1845.3372502999846,1845.3372502999846,1845.3372502999846,1845.3372502999846,1845.3372502999846,right,0.5266821999102831,20,0,0,99,0.08,-0.32,right,0.45470050000585616,,,,,,,,,,,,,,,,,,,,,,,,,,,,,,,,,,,,,,,,,,,,,,,,,,,,,,,,,,,,6W8LXD,train_x,red_square,bottom_left,2025-02-03_14h34.59.621,HideSeek_v1,2022.2.5,59.90377058940091,
,0,1,3,1,3,0,46,,train_dim1_1,27,30,,,,2,0,2,0,,,,,,,,,0,0,0,0,0,26,26,26,3,0,3,0,,,,,,,,,,,,,,,,,,,,,,,,,,,,,,,,,,,,,,,,,,,,,,,,,,,,,,,,,,,,,,,,30,,,,,,,,1845.8706649999367,1845.8706649999367,1845.8706649999367,1845.8706649999367,1845.8706649999367,return,1.3272892999229953,21,0,0,1,0.08,-0.32,return,1.2400110999587923,0,69,0.08,-0.32,,,,,,,,,,,,,,,,,,,,,,,,,,,,,,,,,,,,,,,,,,,,,,,,,,,,,,,,6W8LXD,train_x,red_square,bottom_left,2025-02-03_14h34.59.621,HideSeek_v1,2022.2.5,59.90377058940091,
,3,1,4,1,1,0,26,,train_dim1_1,28,30,,,,2,0,2,0,,,,,,,,,0,0,0,0,0,27,27,27,0,0,0,0,,,,,,,,,,,,,,,,,,,,,,,,,stimuli/alien_stimuli/26.png,,,,,,,,,,,,,,,,,,,,,,,,,,,,,stimuli/alien_stimuli/46.png,46,0,29,,,,,,,30,,,,,,,,1852.6507033000235,1852.6507033000235,1852.6507033000235,1852.6507033000235,1852.6507033000235,right,2.006227699923329,21,0,0,99,0.16,-0.32,right,1.9111924999160692,,,,,1851.0790271000005,1852.6507033000235,0.08,-0.32,0.0,0.24,-0.32,0.08,-0.04,0.08,-0.32,1848.7778521999717,1848.7778521999717,1848.7778521999717,1848.7778521999717,1848.7778521999717,1848.7778521999717,1848.7778521999717,1848.7778521999717,1848.7603829799218,2.4206911999499425,return,2.270559099968523,,,,,,,,,,,,,,,,,,,,,,,,,,,,,,,,,6W8LXD,train_x,red_square,bottom_left,2025-02-03_14h34.59.621,HideSeek_v1,2022.2.5,59.90377058940091,
,3,1,4,1,1,0,26,,train_dim1_1,28,30,,,,2,0,2,0,,,,,,,,,0,0,0,0,0,27,27,27,1,0,1,0,,,,,,,,,,,,,,,,,,,,,,,,,,,,,,,,,,,,,,,,,,,,,,,,,,,,,,,,,,,,,,,,30,,,,,,,,1854.6508296999382,1854.6508296999382,1854.6508296999382,1854.6508296999382,1854.6508296999382,return,1.4936910999240354,22,0,0,1,0.16,-0.32,return,1.412363399984315,0,70,0.16,-0.32,,,,,,,,,,,,,,,,,,,,,,,,,,,,,,,,,,,,,,,,,,,,,,,,,,,,,,,,6W8LXD,train_x,red_square,bottom_left,2025-02-03_14h34.59.621,HideSeek_v1,2022.2.5,59.90377058940091,
,4,0,8,0,4,0,56,,train_dim1_1,29,30,,,,2,0,2,0,,,,,,,,,0,0,0,0,0,28,28,28,0,0,0,0,,,,,,,,,,,,,,,,,,,,,,,,,stimuli/alien_stimuli/56.png,,,,,,,,,,,,,,,,,,,,,,,,,,,,,stimuli/alien_stimuli/26.png,26,3,30,,,,,,,30,,,,,,,,1861.8650684999302,1861.8650684999302,1861.8650684999302,1861.8650684999302,1861.8650684999302,right,2.9389555000234395,22,0,0,99,0.24,-0.4,right,2.8594665999989957,,,,,1860.303346999921,1861.8650684999302,0.16,-0.32,0.0,0.08,-0.32,0.16,0.12,0.16,-0.32,1857.707930799923,1857.707930799923,1857.707930799923,1857.707930799923,1857.707930799923,1857.707930799923,1857.707930799923,1857.707930799923,1857.70144367991,2.704302199999802,return,2.575364000047557,,,,,,,,,,,,,,,,,,,,,,,,,,,,,,,,,6W8LXD,train_x,red_square,bottom_left,2025-02-03_14h34.59.621,HideSeek_v1,2022.2.5,59.90377058940091,
,4,0,8,0,4,0,56,,train_dim1_1,29,30,,,,2,0,2,0,,,,,,,,,0,0,0,0,0,28,28,28,1,0,1,0,,,,,,,,,,,,,,,,,,,,,,,,,,,,,,,,,,,,,,,,,,,,,,,,,,,,,,,,,,,,,,,,30,,,,,,,,1864.8056176999817,1864.8056176999817,1864.8056176999817,1864.8056176999817,1864.8056176999817,right,0.45967769995331764,22,0,0,99,0.32,-0.4,right,0.3803325999761,,,,,,,,,,,,,,,,,,,,,,,,,,,,,,,,,,,,,,,,,,,,,,,,,,,,,,,,,,,,6W8LXD,train_x,red_square,bottom_left,2025-02-03_14h34.59.621,HideSeek_v1,2022.2.5,59.90377058940091,
,4,0,8,0,4,0,56,,train_dim1_1,29,30,,,,2,0,2,0,,,,,,,,,0,0,0,0,0,28,28,28,2,0,2,0,,,,,,,,,,,,,,,,,,,,,,,,,,,,,,,,,,,,,,,,,,,,,,,,,,,,,,,,,,,,,,,,30,,,,,,,,1865.2720734999748,1865.2720734999748,1865.2720734999748,1865.2720734999748,1865.2720734999748,right,0.9106665001017973,22,0,0,99,0.4,-0.4,right,0.8372926999581978,,,,,,,,,,,,,,,,,,,,,,,,,,,,,,,,,,,,,,,,,,,,,,,,,,,,,,,,,,,,6W8LXD,train_x,red_square,bottom_left,2025-02-03_14h34.59.621,HideSeek_v1,2022.2.5,59.90377058940091,
,4,0,8,0,4,0,56,,train_dim1_1,29,30,,,,2,0,2,0,,,,,,,,,0,0,0,0,0,28,28,28,3,0,3,0,,,,,,,,,,,,,,,,,,,,,,,,,,,,,,,,,,,,,,,,,,,,,,,,,,,,,,,,,,,,,,,,30,,,,,,,,1866.190490799956,1866.190490799956,1866.190490799956,1866.190490799956,1866.190490799956,right,0.5602266000350937,22,0,0,99,0.48000000000000004,-0.4,right,0.4770259000360966,,,,,,,,,,,,,,,,,,,,,,,,,,,,,,,,,,,,,,,,,,,,,,,,,,,,,,,,,,,,6W8LXD,train_x,red_square,bottom_left,2025-02-03_14h34.59.621,HideSeek_v1,2022.2.5,59.90377058940091,
,4,0,8,0,4,0,56,,train_dim1_1,29,30,,,,2,0,2,0,,,,,,,,,0,0,0,0,0,28,28,28,4,0,4,0,,,,,,,,,,,,,,,,,,,,,,,,,,,,,,,,,,,,,,,,,,,,,,,,,,,,,,,,,,,,,,,,30,,,,,,,,1866.7570569999516,1866.7570569999516,1866.7570569999516,1866.7570569999516,1866.7570569999516,return,1.5611465000547469,23,0,0,1,0.48000000000000004,-0.4,return,1.4859237000346184,0,74,0.48000000000000004,-0.4,,,,,,,,,,,,,,,,,,,,,,,,,,,,,,,,,,,,,,,,,,,,,,,,,,,,,,,,6W8LXD,train_x,red_square,bottom_left,2025-02-03_14h34.59.621,HideSeek_v1,2022.2.5,59.90377058940091,
,2,2,2,2,0,0,16,,train_dim1_1,30,30,,,,2,0,2,0,,,,,,,,,0,0,0,0,0,29,29,29,0,0,0,0,,,,,,,,,,,,,,,,,,,,,,,,,stimuli/alien_stimuli/16.png,,,,,,,,,,,,,,,,,,,,,,,,,,,,,stimuli/alien_stimuli/56.png,56,4,31,,,,,,,30,,,,,,,,1874.0742657999508,1874.0742657999508,1874.0742657999508,1874.0742657999508,1874.0742657999508,right,3.690545200021006,23,0,0,99,0.08,-0.24,right,3.593095700023696,,,,,1872.4968818000052,1874.0742657999508,0.48,-0.4,0.0,0.32,-0.4,0.48,0.32,0.48,-0.4,1869.9020637000212,1869.9020637000212,1869.9020637000212,1869.9020637000212,1869.9020637000212,1869.9020637000212,1869.9020637000212,1869.9020637000212,1869.894617619994,2.7211963000008836,return,2.573450099909678,,,,,,,,,,,,,,,,,,,,,,,,,,,,,,,,,6W8LXD,train_x,red_square,bottom_left,2025-02-03_14h34.59.621,HideSeek_v1,2022.2.5,59.90377058940091,
,2,2,2,2,0,0,16,,train_dim1_1,30,30,,,,2,0,2,0,,,,,,,,,0,0,0,0,0,29,29,29,1,0,1,0,,,,,,,,,,,,,,,,,,,,,,,,,,,,,,,,,,,,,,,,,,,,,,,,,,,,,,,,,,,,,,,,30,,,,,,,,1877.7521981999744,1877.7521981999744,1877.7521981999744,1877.7521981999744,1877.7521981999744,left,1.0265214999672025,23,0,0,99,0.0,-0.24,left,0.9342980000656098,,,,,,,,,,,,,,,,,,,,,,,,,,,,,,,,,,,,,,,,,,,,,,,,,,,,,,,,,,,,6W8LXD,train_x,red_square,bottom_left,2025-02-03_14h34.59.621,HideSeek_v1,2022.2.5,59.90377058940091,
,2,2,2,2,0,0,16,,train_dim1_1,30,30,,,,2,0,2,0,,,,,,,,,0,0,0,0,0,29,29,29,2,0,2,0,,,,,,,,,,,,,,,,,,,,,,,,,,,,,,,,,,,,,,,,,,,,,,,,,,,,,,,,,,,,,,,,30,,,,,,,,1878.7856617999496,1878.7856617999496,1878.7856617999496,1878.7856617999496,1878.7856617999496,return,1.4607089000055566,24,0,0,1,0.0,-0.24,return,1.3778652000473812,0,74,0.0,-0.24,,,,,,,,,,,,,,,,,,,,,,,,,,,,,,,,,,,,,,,,,,,,,,,,,,,,,,,,6W8LXD,train_x,red_square,bottom_left,2025-02-03_14h34.59.621,HideSeek_v1,2022.2.5,59.90377058940091,
,,,,,,,,,,,30,,,,2,0,2,0,,,,,,,,,,,,,,,,,,,,,,,,,,,,,,,,,,,,,,,,,,,,,,,,,,,,,,,,,,,,,,,,,,,,,,,,,,stimuli/alien_stimuli/16.png,16,2,32,21,0.7,1.0,1,1,1,30,0,conditions/schedules/train_x_first/red_square_00/bottom_left/inputTrain_2.1.xlsx,99,1,2,1,0,,,,,,,,,,,1,,,,,,,,,1883.7227684999816,1885.2775031999918,0,-0.24,0.0,0.0,-0.24,0,0.0,0,-0.24,1881.8419803999132,1881.8419803999132,1881.8419803999132,1881.8419803999132,1881.8419803999132,1881.8419803999132,1881.8419803999132,1881.8419803999132,1881.8214142199838,2.020092099905014,return,1.856370799941942,0,0.9,0,1,24,,,,,,,,,,,,,,,,,,,,,,,,,,,,6W8LXD,train_x,red_square,bottom_left,2025-02-03_14h34.59.621,HideSeek_v1,2022.2.5,59.90377058940091,
,,,,,,,,,,,,,,,3,0,3,0,0,0,0,0,,,,,,,,,,,,,,,,,,,,,,,,,,,,,,,conditions/schedules/train_x_first/red_square_00/bottom_left/instructions/Slide17.png,conditions/schedules/train_x_first/red_square_00/bottom_left/instructions/Audio17.wav,1885.2775031999918,1885.2742806599474,17,"[6.817582300049253, 18.117997900000773, 17.126537900068797, 19.80045609991066, 4.989896300015971, 4.81995769997593, 5.771687199943699, 12.124247100087814, 6.271190700004809, 7.049060699995607, 9.971590199973434, 12.790998800075613, 22.30535940011032, 13.142464900040068, 32.702382200048305, 22.21028210001532, 196.4235175999347]","[0.01428689993917942, 0.014123499975539744, 0.034852299955673516, 0.014103100053034723, 0.04963369993492961, 0.08421190001536161, 0.08092910004779696, 0.04866470000706613, 0.09625449997838587, 0.06304689997341484, 0.08005260000936687, 12.791005700011738, 0.04670010006520897, 13.142472899984568, 32.70238899998367, 22.21028830006253, 196.42352469998877]",0,,,,,,,,,,,,,,,,,,,,,,,,,,,,,,,,,,,,,,,,,,,,,,,,,,,,,,,,,,,,,,,,,,,,,,,,,,,,,,,,,,,,,,,,,,,,,,,,,,,,,,,,,,,,,,,,,,,,,,,,,,,,6W8LXD,train_x,red_square,bottom_left,2025-02-03_14h34.59.621,HideSeek_v1,2022.2.5,59.90377058940091,
