trialInstr,x_fixStart,y_fixStart,x_corrSteps,y_corrSteps,x_nrSteps,y_nrSteps,alienID,trialLength,version,trialTrain,praclen,testlen,trial_label,break_on_off,beforeExpLoop.thisRepN,beforeExpLoop.thisTrialN,beforeExpLoop.thisN,beforeExpLoop.thisIndex,mini_instr_trials.thisRepN,mini_instr_trials.thisTrialN,mini_instr_trials.thisN,mini_instr_trials.thisIndex,instrLoop.thisRepN,instrLoop.thisTrialN,instrLoop.thisN,instrLoop.thisIndex,repeat_prac.thisRepN,repeat_prac.thisTrialN,repeat_prac.thisN,repeat_prac.thisIndex,trainLoop.thisRepN,trainLoop.thisTrialN,trainLoop.thisN,trainLoop.thisIndex,moveLoop_train.thisRepN,moveLoop_train.thisTrialN,moveLoop_train.thisN,moveLoop_train.thisIndex,experiment.thisRepN,experiment.thisTrialN,experiment.thisN,experiment.thisIndex,moveLoop_test.thisRepN,moveLoop_test.thisTrialN,moveLoop_test.thisN,moveLoop_test.thisIndex,mini_instr2_trials.thisRepN,mini_instr2_trials.thisTrialN,mini_instr2_trials.thisN,mini_instr2_trials.thisIndex,start_all_time,url,slideStim,audioStim,slides.started,sounds.started,nextButton.numClicks,nextButton.timesOn,nextButton.timesOff,prev_but.numClicks,prev_but.timesOn,prev_but.timesOff,alienStim,instrFile,alienStim_instr,gridImage_instr.started,startPos_3.started,key_instr.started,alienImage_3.started,sounds_1.started,key_instr.keys,key_instr.rt,all_x,all_y,FBy_corrSteps,FBy_fixStart,FBx_corrSteps,FBx_fixStart,FBy_pathSize_check,FBx_pathSize_check,gridImage_9.started,alienImageFB_3.started,startPosFB_3.started,keyFB_3.started,pathLine_ydir_2.started,pathLine_xdir_2.started,alienFace_3.started,sounds_2.started,RTFB_instr,keyFB_3.keys,keyFB_3.rt,draw_alienStim,draw_alienID,test_x,nrepcount,perfthres,percthres,earlierperf,earlystop,nextPrac,fileidx,praclen,saveACC_train,pracFile,nextPrac_train,addNrep,fileidx_endr,repExp,showearly,gridImage_4.started,startPos.started,movePos.started,key_resp.started,alienImage.started,buttonPress_train,RTchoice_train,cumAcctrain,aCorr,saveACC_choice,corrAns,x_movePos_end,y_movePos_end,key_resp.keys,key_resp.rt,wLy_dir,wLx_dir,x_movePos,y_movePos,text_2.started,text_2.stopped,aft_x_corrPos,aft_y_corrPos,y_pathSize_check,x_pathSize_check,y_pathdirY,x_pathdirY,x_pathdirX,x_corrPos,y_corrPos,gridImage_6.started,alienImageFB_2.started,startPosFB_2.started,movePosFB_2.started,keyFB_2.started,pathLine_xdir.started,pathLine_ydir.started,alienFace.started,sounds_4.started,RT_FBtrain,keyFB_2.keys,keyFB_2.rt,saveACC_pre,ACC,within_saveACC_train,earlystop_wloop,cumAcctrain_check,gridImage_3.started,alienImage_test.started,startPos_test.started,movePos_test.started,key_resp_test.started,wLy_dir_test,wLx_dir_test,buttonPress_test,RTchoice_test,cumAcctest,corrAns_test,key_resp_test.keys,key_resp_test.rt,text_3.started,text_3.stopped,total_time,end_all_time,key_resp_3.keys,slides_2.started,sounds_3.started,nextButton_2.numClicks,nextButton_2.timesOn,nextButton_2.timesOff,prev_but_2.numClicks,prev_but_2.timesOn,prev_but_2.timesOff,bye.started,participant,train_first,00_coordinate,starting corner,date,expName,psychopyVersion,frameRate,
,,,,,,,,,,,,,,,0,0,0,0,0,0,0,0,,,,,,,,,,,,,,,,,,,,,,,,,,,,,start_all_time,testround,conditions/schedules/train_x_first/red_square_00/top_left/instructions/Slide1.png,conditions/schedules/train_x_first/red_square_00/top_left/instructions/Audio1.wav,704.7249974999577,704.6736070319545,1,[5.929828600026667],[5.929836300201714],0,,,,,,,,,,,,,,,,,,,,,,,,,,,,,,,,,,,,,,,,,,,,,,,,,,,,,,,,,,,,,,,,,,,,,,,,,,,,,,,,,,,,,,,,,,,,,,,,,,,,,,,,,,,,,,,,,,,,,,,,,,,,70EQCC,train_x,red_square,top_left,2025-04-30_16h41.33.197,HideSeek_v1,2022.2.5,60.008305156786115,
,,,,,,,,,,,,,,,0,0,0,0,1,0,1,0,,,,,,,,,,,,,,,,,,,,,,,,,,,,,,,conditions/schedules/train_x_first/red_square_00/top_left/instructions/Slide2.png,conditions/schedules/train_x_first/red_square_00/top_left/instructions/Audio2.wav,710.6747463000938,710.6754983498249,2,"[5.929828600026667, 18.346618799958378]","[5.929836300201714, 18.346625899896026]",0,,,,,,,,,,,,,,,,,,,,,,,,,,,,,,,,,,,,,,,,,,,,,,,,,,,,,,,,,,,,,,,,,,,,,,,,,,,,,,,,,,,,,,,,,,,,,,,,,,,,,,,,,,,,,,,,,,,,,,,,,,,,70EQCC,train_x,red_square,top_left,2025-04-30_16h41.33.197,HideSeek_v1,2022.2.5,60.008305156786115,
,,,,,,,,,,,,,,,0,0,0,0,2,0,2,0,,,,,,,,,,,,,,,,,,,,,,,,,,,,,,,conditions/schedules/train_x_first/red_square_00/top_left/instructions/Slide3.png,conditions/schedules/train_x_first/red_square_00/top_left/instructions/Audio3.wav,729.090616399888,729.0904812498484,3,"[5.929828600026667, 18.346618799958378, 16.527703799773008]","[5.929836300201714, 0.0485764998011291, 16.527710599824786]",0,,,,,,,,,,,,,,,,,,,,,,,,,,,,,,,,,,,,,,,,,,,,,,,,,,,,,,,,,,,,,,,,,,,,,,,,,,,,,,,,,,,,,,,,,,,,,,,,,,,,,,,,,,,,,,,,,,,,,,,,,,,,70EQCC,train_x,red_square,top_left,2025-04-30_16h41.33.197,HideSeek_v1,2022.2.5,60.008305156786115,
,,,,,,,,,,,,,,,0,0,0,0,3,0,3,0,,,,,,,,,,,,,,,,,,,,,,,,,,,,,,,conditions/schedules/train_x_first/red_square_00/top_left/instructions/Slide4.png,conditions/schedules/train_x_first/red_square_00/top_left/instructions/Audio4.wav,745.7028358001262,745.7040691798553,4,"[5.929828600026667, 18.346618799958378, 16.527703799773008, 19.33270960021764]","[5.929836300201714, 0.0485764998011291, 0.0002084001898765564, 19.332717299927026]",0,,,,,,,,,,,,,,,,,,,,,,,,,,,,,,,,,,,,,,,,,,,,,,,,,,,,,,,,,,,,,,,,,,,,,,,,,,,,,,,,,,,,,,,,,,,,,,,,,,,,,,,,,,,,,,,,,,,,,,,,,,,,70EQCC,train_x,red_square,top_left,2025-04-30_16h41.33.197,HideSeek_v1,2022.2.5,60.008305156786115,
,,,,,,,,,,,,,,,0,0,0,0,4,0,4,0,,,,,,,,,,,,,,,,,,,,,,,,,,,,,,,conditions/schedules/train_x_first/red_square_00/top_left/instructions/Slide5.png,conditions/schedules/train_x_first/red_square_00/top_left/instructions/Audio5.wav,765.1010008999147,765.0869539199397,5,"[5.929828600026667, 18.346618799958378, 16.527703799773008, 19.33270960021764, 4.304115999955684]","[5.929836300201714, 0.0485764998011291, 0.0002084001898765564, 0.033984600100666285, 4.304124900139868]",0,,,,,,,,,,,,,,,,,,,,,,,,,,,,,,,,,,,,,,,,,,,,,,,,,,,,,,,,,,,,,,,,,,,,,,,,,,,,,,,,,,,,,,,,,,,,,,,,,,,,,,,,,,,,,,,,,,,,,,,,,,,,70EQCC,train_x,red_square,top_left,2025-04-30_16h41.33.197,HideSeek_v1,2022.2.5,60.008305156786115,
,,,,,,,,,,,,,,,0,0,0,0,5,0,5,0,,,,,,,,,,,,,,,,,,,,,,,,,,,,,,,conditions/schedules/train_x_first/red_square_00/top_left/instructions/Slide6.png,conditions/schedules/train_x_first/red_square_00/top_left/instructions/Audio6.wav,769.4552702000365,769.4573283201083,6,"[5.929828600026667, 18.346618799958378, 16.527703799773008, 19.33270960021764, 4.304115999955684, 4.559014600235969]","[5.929836300201714, 0.0485764998011291, 0.0002084001898765564, 0.033984600100666285, 0.0663803000934422, 4.559022600296885]",0,,,,,,,,,,,,,,,,,,,,,,,,,,,,,,,,,,,,,,,,,,,,,,,,,,,,,,,,,,,,,,,,,,,,,,,,,,,,,,,,,,,,,,,,,,,,,,,,,,,,,,,,,,,,,,,,,,,,,,,,,,,,70EQCC,train_x,red_square,top_left,2025-04-30_16h41.33.197,HideSeek_v1,2022.2.5,60.008305156786115,
,,,,,,,,,,,,,,,0,0,0,0,6,0,6,0,,,,,,,,,,,,,,,,,,,,,,,,,,,,,,,conditions/schedules/train_x_first/red_square_00/top_left/instructions/Slide7.png,conditions/schedules/train_x_first/red_square_00/top_left/instructions/Audio7.wav,774.0651019997895,774.0666702199727,7,"[5.929828600026667, 18.346618799958378, 16.527703799773008, 19.33270960021764, 4.304115999955684, 4.559014600235969, 5.481294599827379]","[5.929836300201714, 0.0485764998011291, 0.0002084001898765564, 0.033984600100666285, 0.0663803000934422, 0.0487359999679029, 5.481301699765027]",0,,,,,,,,,,,,,,,,,,,,,,,,,,,,,,,,,,,,,,,,,,,,,,,,,,,,,,,,,,,,,,,,,,,,,,,,,,,,,,,,,,,,,,,,,,,,,,,,,,,,,,,,,,,,,,,,,,,,,,,,,,,,70EQCC,train_x,red_square,top_left,2025-04-30_16h41.33.197,HideSeek_v1,2022.2.5,60.008305156786115,
,,,,,,,,,,,,,,,0,0,0,0,7,0,7,0,,,,,,,,,,,,,,,,,,,,,,,,,,,,,,,conditions/schedules/train_x_first/red_square_00/top_left/instructions/Slide8.png,conditions/schedules/train_x_first/red_square_00/top_left/instructions/Audio8.wav,779.6016472997144,779.5990725197829,8,"[5.929828600026667, 18.346618799958378, 16.527703799773008, 19.33270960021764, 4.304115999955684, 4.559014600235969, 5.481294599827379, 11.654722800012678]","[5.929836300201714, 0.0485764998011291, 0.0002084001898765564, 0.033984600100666285, 0.0663803000934422, 0.0487359999679029, 0.06292790034785867, 11.654729700181633]",0,,,,,,,,,,,,,,,,,,,,,,,,,,,,,,,,,,,,,,,,,,,,,,,,,,,,,,,,,,,,,,,,,,,,,,,,,,,,,,,,,,,,,,,,,,,,,,,,,,,,,,,,,,,,,,,,,,,,,,,,,,,,70EQCC,train_x,red_square,top_left,2025-04-30_16h41.33.197,HideSeek_v1,2022.2.5,60.008305156786115,
,,,,,,,,,,,,,,,0,0,0,0,8,0,8,0,,,,,,,,,,,,,,,,,,,,,,,,,,,,,,,conditions/schedules/train_x_first/red_square_00/top_left/instructions/Slide9.png,conditions/schedules/train_x_first/red_square_00/top_left/instructions/Audio9.wav,791.322926599998,791.3090677201748,9,"[5.929828600026667, 18.346618799958378, 16.527703799773008, 19.33270960021764, 4.304115999955684, 4.559014600235969, 5.481294599827379, 11.654722800012678, 6.1396510996855795]","[5.929836300201714, 0.0485764998011291, 0.0002084001898765564, 0.033984600100666285, 0.0663803000934422, 0.0487359999679029, 0.06292790034785867, 0.03392349975183606, 6.1396587998606265]",0,,,,,,,,,,,,,,,,,,,,,,,,,,,,,,,,,,,,,,,,,,,,,,,,,,,,,,,,,,,,,,,,,,,,,,,,,,,,,,,,,,,,,,,,,,,,,,,,,,,,,,,,,,,,,,,,,,,,,,,,,,,,70EQCC,train_x,red_square,top_left,2025-04-30_16h41.33.197,HideSeek_v1,2022.2.5,60.008305156786115,
,,,,,,,,,,,,,,,0,0,0,0,9,0,9,0,,,,,,,,,,,,,,,,,,,,,,,,,,,,,,,conditions/schedules/train_x_first/red_square_00/top_left/instructions/Slide10.png,conditions/schedules/train_x_first/red_square_00/top_left/instructions/Audio10.wav,797.5142129999585,797.5144136199727,10,"[5.929828600026667, 18.346618799958378, 16.527703799773008, 19.33270960021764, 4.304115999955684, 4.559014600235969, 5.481294599827379, 11.654722800012678, 6.1396510996855795, 6.703031899873167]","[5.929836300201714, 0.0485764998011291, 0.0002084001898765564, 0.033984600100666285, 0.0663803000934422, 0.0487359999679029, 0.06292790034785867, 0.03392349975183606, 0.03101519960910082, 6.703039099927992]",0,,,,,,,,,,,,,,,,,,,,,,,,,,,,,,,,,,,,,,,,,,,,,,,,,,,,,,,,,,,,,,,,,,,,,,,,,,,,,,,,,,,,,,,,,,,,,,,,,,,,,,,,,,,,,,,,,,,,,,,,,,,,70EQCC,train_x,red_square,top_left,2025-04-30_16h41.33.197,HideSeek_v1,2022.2.5,60.008305156786115,
,,,,,,,,,,,,,,,0,0,0,0,10,0,10,0,,,,,,,,,,,,,,,,,,,,,,,,,,,,,,,conditions/schedules/train_x_first/red_square_00/top_left/instructions/Slide11.png,conditions/schedules/train_x_first/red_square_00/top_left/instructions/Audio11.wav,804.2846448998898,804.2862757497933,11,"[5.929828600026667, 18.346618799958378, 16.527703799773008, 19.33270960021764, 4.304115999955684, 4.559014600235969, 5.481294599827379, 11.654722800012678, 6.1396510996855795, 6.703031899873167, 9.741061500273645]","[5.929836300201714, 0.0485764998011291, 0.0002084001898765564, 0.033984600100666285, 0.0663803000934422, 0.0487359999679029, 0.06292790034785867, 0.03392349975183606, 0.03101519960910082, 0.0326558998785913, 9.741069400217384]",0,,,,,,,,,,,,,,,,,,,,,,,,,,,,,,,,,,,,,,,,,,,,,,,,,,,,,,,,,,,,,,,,,,,,,,,,,,,,,,,,,,,,,,,,,,,,,,,,,,,,,,,,,,,,,,,,,,,,,,,,,,,,70EQCC,train_x,red_square,top_left,2025-04-30_16h41.33.197,HideSeek_v1,2022.2.5,60.008305156786115,
,,,,,,,,,,,,,,,0,0,0,0,11,0,11,0,,,,,,,,,,,,,,,,,,,,,,,,,,,,,,,conditions/schedules/train_x_first/red_square_00/top_left/instructions/Slide12.png,conditions/schedules/train_x_first/red_square_00/top_left/instructions/Audio12.wav,814.0810345001519,814.0777281197719,12,"[5.929828600026667, 18.346618799958378, 16.527703799773008, 19.33270960021764, 4.304115999955684, 4.559014600235969, 5.481294599827379, 11.654722800012678, 6.1396510996855795, 6.703031899873167, 9.741061500273645, 12.504279700107872]","[5.929836300201714, 0.0485764998011291, 0.0002084001898765564, 0.033984600100666285, 0.0663803000934422, 0.0487359999679029, 0.06292790034785867, 0.03392349975183606, 0.03101519960910082, 0.0326558998785913, 0.04721410013735294, 12.504286699928343]",0,,,,,,,,,,,,,,,,,,,,,,,,,,,,,,,,,,,,,,,,,,,,,,,,,,,,,,,,,,,,,,,,,,,,,,,,,,,,,,,,,,,,,,,,,,,,,,,,,,,,,,,,,,,,,,,,,,,,,,,,,,,,70EQCC,train_x,red_square,top_left,2025-04-30_16h41.33.197,HideSeek_v1,2022.2.5,60.008305156786115,
1,3,7,8,7,5,0,66,2,instr_dim1_1,,,,,,0,0,0,0,,,,,0,0,0,0,,,,,,,,,,,,,,,,,,,,,,,,,,,,,,,,,,,,,stimuli/alien_stimuli/66.png,conditions/schedules/train_x_first/red_square_00/top_left/inputInstr_1.xlsx,stimuli/alien_stimuli/66.png,826.6829130998813,826.6829130998813,826.6829130998813,826.6829130998813,826.6716184801422,return,11.026068300474435,"[-0.16, -0.08, 0, 0.08, 0.16, 0.24, 0.32, 0.4, 0.48, 0.56]","[-0.4, -0.32, -0.24, -0.16, -0.08, 0, 0.08, 0.16, 0.24, 0.32]",7,7,8,3,0.0,0.4,837.8599843997508,837.8599843997508,837.8599843997508,837.8599843997508,837.8599843997508,837.8599843997508,837.8599843997508,837.8473863398657,9.69198719970882,return,9.537342400290072,stimuli/alien_stimuli/66.png,66,3,1,,,,,,,,,,,,,,,,,,,,,,,,,,,,,,,,,,,,,,,,,,,,,,,,,,,,,,,,,,,,,,,,,,,,,,,,,,,,,,,,,,,,,,,,,70EQCC,train_x,red_square,top_left,2025-04-30_16h41.33.197,HideSeek_v1,2022.2.5,60.008305156786115,
,,,,,,,,,,,30,,,,0,0,0,0,,,,,,,,,,,,,,,,,,,,,,,,,,,,,,,,,,,,,,,,,,,,,,,,,,,,,,,,,,,,,,,,,,,,,,,,,,,,,,21,0.7,0,0,99,1,30,0,conditions/schedules/train_x_first/red_square_00/top_left/inputTrain_1.1.xlsx,99,1,1,1,0,,,,,,,,,,,,,,,,,,,,,,,,,,,,,,,,,,,,,,,,,,,,,,,,,,,,,,,,,,,,,,,,,,,,,,,,,,,70EQCC,train_x,red_square,top_left,2025-04-30_16h41.33.197,HideSeek_v1,2022.2.5,60.008305156786115,
,,,,,,,,,,,,,,,1,0,1,0,0,0,0,0,,,,,,,,,,,,,,,,,,,,,,,,,,,,,,,conditions/schedules/train_x_first/red_square_00/top_left/instructions/Slide13.png,conditions/schedules/train_x_first/red_square_00/top_left/instructions/Audio13.wav,847.553586800117,847.5554149698931,13,"[5.929828600026667, 18.346618799958378, 16.527703799773008, 19.33270960021764, 4.304115999955684, 4.559014600235969, 5.481294599827379, 11.654722800012678, 6.1396510996855795, 6.703031899873167, 9.741061500273645, 12.504279700107872, 18.915636100340635]","[5.929836300201714, 0.0485764998011291, 0.0002084001898765564, 0.033984600100666285, 0.0663803000934422, 0.0487359999679029, 0.06292790034785867, 0.03392349975183606, 0.03101519960910082, 0.0326558998785913, 0.04721410013735294, 12.504286699928343, 18.915645699948072]",0,,,,,,,,,,,,,,,,,,,,,,,,,,,,,,,,,,,,,,,,,,,,,,,,,,,,,,,,,,,,,,,,,,,,,,,,,,,,,,,,,,,,,,,,,,,,,,,,,,,,,,,,,,,,,,,,,,,,,,,,,,,,70EQCC,train_x,red_square,top_left,2025-04-30_16h41.33.197,HideSeek_v1,2022.2.5,60.008305156786115,
,,,,,,,,,,,,,,,1,0,1,0,1,0,1,0,,,,,,,,,,,,,,,,,,,,,,,,,,,,,,,conditions/schedules/train_x_first/red_square_00/top_left/instructions/Slide14.png,conditions/schedules/train_x_first/red_square_00/top_left/instructions/Audio14.wav,866.5337931998074,866.5214817198924,14,"[5.929828600026667, 18.346618799958378, 16.527703799773008, 19.33270960021764, 4.304115999955684, 4.559014600235969, 5.481294599827379, 11.654722800012678, 6.1396510996855795, 6.703031899873167, 9.741061500273645, 12.504279700107872, 18.915636100340635, 12.71233019977808]","[5.929836300201714, 0.0485764998011291, 0.0002084001898765564, 0.033984600100666285, 0.0663803000934422, 0.0487359999679029, 0.06292790034785867, 0.03392349975183606, 0.03101519960910082, 0.0326558998785913, 0.04721410013735294, 12.504286699928343, 0.00023580016568303108, 12.712337499950081]",0,,,,,,,,,,,,,,,,,,,,,,,,,,,,,,,,,,,,,,,,,,,,,,,,,,,,,,,,,,,,,,,,,,,,,,,,,,,,,,,,,,,,,,,,,,,,,,,,,,,,,,,,,,,,,,,,,,,,,,,,,,,,70EQCC,train_x,red_square,top_left,2025-04-30_16h41.33.197,HideSeek_v1,2022.2.5,60.008305156786115,
2,4,5,4,5,0,0,16,2,instr_dim1_1,,,,,,1,0,1,0,,,,,0,0,0,0,,,,,,,,,,,,,,,,,,,,,,,,,,,,,,,,,,,,,stimuli/alien_stimuli/16.png,conditions/schedules/train_x_first/red_square_00/top_left/inputInstr_1.xlsx,stimuli/alien_stimuli/16.png,879.356388299726,879.356388299726,879.356388299726,879.356388299726,879.3485028101597,return,6.970514300279319,"[-0.16, -0.08, 0, 0.08, 0.16, 0.24, 0.32, 0.4, 0.48, 0.56]","[-0.4, -0.32, -0.24, -0.16, -0.08, 0, 0.08, 0.16, 0.24, 0.32]",5,5,4,4,0.0,0.0,886.4996118997224,886.4996118997224,886.4996118997224,886.4996118997224,886.4996118997224,886.4996118997224,886.4996118997224,886.4878994700033,9.575431799981743,return,9.402812000364065,stimuli/alien_stimuli/16.png,16,4,2,,,,,,,,,,,,,,,,,,,,,,,,,,,,,,,,,,,,,,,,,,,,,,,,,,,,,,,,,,,,,,,,,,,,,,,,,,,,,,,,,,,,,,,,,70EQCC,train_x,red_square,top_left,2025-04-30_16h41.33.197,HideSeek_v1,2022.2.5,60.008305156786115,
,,,,,,,,,,,30,,,,1,0,1,0,,,,,,,,,,,,,,,,,,,,,,,,,,,,,,,,,,,,,,,,,,,,,,,,,,,,,,,,,,,,,,,,,,,,,,,,,,,,,,21,0.7,0,0,99,1,30,0,conditions/schedules/train_x_first/red_square_00/top_left/inputTrain_1.1.xlsx,99,1,1,1,0,,,,,,,,,,,,,,,,,,,,,,,,,,,,,,,,,,,,,,,,,,,,,,,,,,,,,,,,,,,,,,,,,,,,,,,,,,,70EQCC,train_x,red_square,top_left,2025-04-30_16h41.33.197,HideSeek_v1,2022.2.5,60.008305156786115,
,,,,,,,,,,,,,,,2,0,2,0,0,0,0,0,,,,,,,,,,,,,,,,,,,,,,,,,,,,,,,conditions/schedules/train_x_first/red_square_00/top_left/instructions/Slide15.png,conditions/schedules/train_x_first/red_square_00/top_left/instructions/Audio15.wav,896.0655529997312,896.0625669698696,15,"[5.929828600026667, 18.346618799958378, 16.527703799773008, 19.33270960021764, 4.304115999955684, 4.559014600235969, 5.481294599827379, 11.654722800012678, 6.1396510996855795, 6.703031899873167, 9.741061500273645, 12.504279700107872, 18.915636100340635, 12.71233019977808, 29.785637699998915]","[5.929836300201714, 0.0485764998011291, 0.0002084001898765564, 0.033984600100666285, 0.0663803000934422, 0.0487359999679029, 0.06292790034785867, 0.03392349975183606, 0.03101519960910082, 0.0326558998785913, 0.04721410013735294, 12.504286699928343, 0.00023580016568303108, 12.712337499950081, 29.785645900294185]",0,,,,,,,,,,,,,,,,,,,,,,,,,,,,,,,,,,,,,,,,,,,,,,,,,,,,,,,,,,,,,,,,,,,,,,,,,,,,,,,,,,,,,,,,,,,,,,,,,,,,,,,,,,,,,,,,,,,,,,,,,,,,70EQCC,train_x,red_square,top_left,2025-04-30_16h41.33.197,HideSeek_v1,2022.2.5,60.008305156786115,
,,,,,,,,,,,,,,,2,0,2,0,1,0,1,0,,,,,,,,,,,,,,,,,,,,,,,,,,,,,,,conditions/schedules/train_x_first/red_square_00/top_left/instructions/Slide16.png,conditions/schedules/train_x_first/red_square_00/top_left/instructions/Audio16.wav,925.9140457999893,925.9037265201099,16,"[5.929828600026667, 18.346618799958378, 16.527703799773008, 19.33270960021764, 4.304115999955684, 4.559014600235969, 5.481294599827379, 11.654722800012678, 6.1396510996855795, 6.703031899873167, 9.741061500273645, 12.504279700107872, 18.915636100340635, 12.71233019977808, 29.785637699998915, 21.722145000007004]","[5.929836300201714, 0.0485764998011291, 0.0002084001898765564, 0.033984600100666285, 0.0663803000934422, 0.0487359999679029, 0.06292790034785867, 0.03392349975183606, 0.03101519960910082, 0.0326558998785913, 0.04721410013735294, 12.504286699928343, 0.00023580016568303108, 12.712337499950081, 0.05371219990774989, 21.72215319983661]",0,,,,,,,,,,,,,,,,,,,,,,,,,,,,,,,,,,,,,,,,,,,,,,,,,,,,,,,,,,,,,,,,,,,,,,,,,,,,,,,,,,,,,,,,,,,,,,,,,,,,,,,,,,,,,,,,,,,,,,,,,,,,70EQCC,train_x,red_square,top_left,2025-04-30_16h41.33.197,HideSeek_v1,2022.2.5,60.008305156786115,
,2,6,5,6,3,0,46,,train_dim1_1,1,30,,,,2,0,2,0,,,,,,,,,0,0,0,0,0,0,0,0,0,0,0,0,,,,,,,,,,,,,,,,,,,,,,,,,stimuli/alien_stimuli/46.png,,,,,,,,,,,,,,,,,,,,,,,,,,,,,,,,,,,,,,,30,,,,,,,,947.7333852997981,947.7333852997981,947.7333852997981,947.7333852997981,947.7333852997981,right,23.86514370003715,0,0,0,99,0.08,0.08,right,23.764210200402886,,,,,,,,,,,,,,,,,,,,,,,,,,,,,,,,,,,,,,,,,,,,,,,,,,,,,,,,,,,,70EQCC,train_x,red_square,top_left,2025-04-30_16h41.33.197,HideSeek_v1,2022.2.5,60.008305156786115,
,2,6,5,6,3,0,46,,train_dim1_1,1,30,,,,2,0,2,0,,,,,,,,,0,0,0,0,0,0,0,0,1,0,1,0,,,,,,,,,,,,,,,,,,,,,,,,,,,,,,,,,,,,,,,,,,,,,,,,,,,,,,,,,,,,,,,,30,,,,,,,,971.6016428000294,971.6016428000294,971.6016428000294,971.6016428000294,971.6016428000294,right,1.3271643999032676,0,0,0,99,0.16,0.08,right,1.2407094002701342,,,,,,,,,,,,,,,,,,,,,,,,,,,,,,,,,,,,,,,,,,,,,,,,,,,,,,,,,,,,70EQCC,train_x,red_square,top_left,2025-04-30_16h41.33.197,HideSeek_v1,2022.2.5,60.008305156786115,
,2,6,5,6,3,0,46,,train_dim1_1,1,30,,,,2,0,2,0,,,,,,,,,0,0,0,0,0,0,0,0,2,0,2,0,,,,,,,,,,,,,,,,,,,,,,,,,,,,,,,,,,,,,,,,,,,,,,,,,,,,,,,,,,,,,,,,30,,,,,,,,972.9231154997833,972.9231154997833,972.9231154997833,972.9231154997833,972.9231154997833,right,3.912826099898666,0,0,0,99,0.24,0.08,right,3.834628200158477,,,,,,,,,,,,,,,,,,,,,,,,,,,,,,,,,,,,,,,,,,,,,,,,,,,,,,,,,,,,70EQCC,train_x,red_square,top_left,2025-04-30_16h41.33.197,HideSeek_v1,2022.2.5,60.008305156786115,
,2,6,5,6,3,0,46,,train_dim1_1,1,30,,,,2,0,2,0,,,,,,,,,0,0,0,0,0,0,0,0,3,0,3,0,,,,,,,,,,,,,,,,,,,,,,,,,,,,,,,,,,,,,,,,,,,,,,,,,,,,,,,,,,,,,,,,30,,,,,,,,976.8435700000264,976.8435700000264,976.8435700000264,976.8435700000264,976.8435700000264,return,1.4443470002152026,1,0,0,1,0.24,0.08,return,1.3579274998046458,0,3,0.24,0.08,,,,,,,,,,,,,,,,,,,,,,,,,,,,,,,,,,,,,,,,,,,,,,,,,,,,,,,,70EQCC,train_x,red_square,top_left,2025-04-30_16h41.33.197,HideSeek_v1,2022.2.5,60.008305156786115,
,2,9,2,9,0,0,16,,train_dim1_1,2,30,,,,2,0,2,0,,,,,,,,,0,0,0,0,0,1,1,1,0,0,0,0,,,,,,,,,,,,,,,,,,,,,,,,,stimuli/alien_stimuli/16.png,,,,,,,,,,,,,,,,,,,,,,,,,,,,,stimuli/alien_stimuli/46.png,46,2,3,,,,,,,30,,,,,,,,993.2605809997767,993.2605809997767,993.2605809997767,993.2605809997767,993.2605809997767,down,4.872079299762845,1,0,0,99,0,0.24,down,4.765665800310671,,,,,991.6750964997336,993.2605809997767,0.24,0.08,0.0,0.24,0.08,0.24,0.12,0.24,0.08,979.8591327997856,979.8591327997856,979.8591327997856,979.8591327997856,979.8591327997856,979.8591327997856,979.8591327997856,979.8591327997856,979.8486735099461,11.928695899900049,return,11.792708899825811,,,,,,,,,,,,,,,,,,,,,,,,,,,,,,,,,70EQCC,train_x,red_square,top_left,2025-04-30_16h41.33.197,HideSeek_v1,2022.2.5,60.008305156786115,
,2,9,2,9,0,0,16,,train_dim1_1,2,30,,,,2,0,2,0,,,,,,,,,0,0,0,0,0,1,1,1,1,0,1,0,,,,,,,,,,,,,,,,,,,,,,,,,,,,,,,,,,,,,,,,,,,,,,,,,,,,,,,,,,,,,,,,30,,,,,,,,998.1151657998562,998.1151657998562,998.1151657998562,998.1151657998562,998.1151657998562,down,0.777012100443244,1,0,0,99,0,0.15999999999999998,down,0.6990328002721071,,,,,,,,,,,,,,,,,,,,,,,,,,,,,,,,,,,,,,,,,,,,,,,,,,,,,,,,,,,,70EQCC,train_x,red_square,top_left,2025-04-30_16h41.33.197,HideSeek_v1,2022.2.5,60.008305156786115,
,2,9,2,9,0,0,16,,train_dim1_1,2,30,,,,2,0,2,0,,,,,,,,,0,0,0,0,0,1,1,1,2,0,2,0,,,,,,,,,,,,,,,,,,,,,,,,,,,,,,,,,,,,,,,,,,,,,,,,,,,,,,,,,,,,,,,,30,,,,,,,,998.8984401999041,998.8984401999041,998.8984401999041,998.8984401999041,998.8984401999041,right,1.894087000284344,1,0,0,99,0.08,0.15999999999999998,right,1.813856900203973,,,,,,,,,,,,,,,,,,,,,,,,,,,,,,,,,,,,,,,,,,,,,,,,,,,,,,,,,,,,70EQCC,train_x,red_square,top_left,2025-04-30_16h41.33.197,HideSeek_v1,2022.2.5,60.008305156786115,
,2,9,2,9,0,0,16,,train_dim1_1,2,30,,,,2,0,2,0,,,,,,,,,0,0,0,0,0,1,1,1,3,0,3,0,,,,,,,,,,,,,,,,,,,,,,,,,,,,,,,,,,,,,,,,,,,,,,,,,,,,,,,,,,,,,,,,30,,,,,,,,1000.800812699832,1000.800812699832,1000.800812699832,1000.800812699832,1000.800812699832,return,2.845506599638611,1,0,0,0,0.08,0.15999999999999998,return,2.7641571005806327,-2,4,0.08,0.15999999999999998,,,,,,,,,,,,,,,,,,,,,,,,,,,,,,,,,,,,,,,,,,,,,,,,,,,,,,,,70EQCC,train_x,red_square,top_left,2025-04-30_16h41.33.197,HideSeek_v1,2022.2.5,60.008305156786115,
,4,9,5,9,1,0,26,,train_dim1_1,3,30,,,,2,0,2,0,,,,,,,,,0,0,0,0,0,2,2,2,0,0,0,0,,,,,,,,,,,,,,,,,,,,,,,,,stimuli/alien_stimuli/26.png,,,,,,,,,,,,,,,,,,,,,,,,,,,,,stimuli/alien_stimuli/16.png,16,2,4,,,,,,,30,,,,,,,,1022.7629693001509,1022.7629693001509,1022.7629693001509,1022.7629693001509,1022.7629693001509,return,3.158689399715513,1,1,0,0,0.16,0.32,return,3.0462421998381615,-2,4,0.16,0.32,1021.1830664998852,1022.7629693001509,0,0.32,0.0,0.0,0.32,0,0.0,0,0.32,1005.2510208999738,1005.2510208999738,1005.2510208999738,1005.2510208999738,1005.2510208999738,1005.2510208999738,1005.2510208999738,1005.2510208999738,1005.2364823700394,16.082274300046265,return,15.911391500383615,,,,,,,,,,,,,,,,,,,,,,,,,,,,,,,,,70EQCC,train_x,red_square,top_left,2025-04-30_16h41.33.197,HideSeek_v1,2022.2.5,60.008305156786115,
,2,8,6,8,4,0,56,,train_dim1_1,4,30,,,,2,0,2,0,,,,,,,,,0,0,0,0,0,3,3,3,0,0,0,0,,,,,,,,,,,,,,,,,,,,,,,,,stimuli/alien_stimuli/56.png,,,,,,,,,,,,,,,,,,,,,,,,,,,,,stimuli/alien_stimuli/26.png,26,4,5,,,,,,,30,,,,,,,,1046.5841628997587,1046.5841628997587,1046.5841628997587,1046.5841628997587,1046.5841628997587,left,3.373744700103998,1,1,0,99,-0.08,0.24,left,3.283510399982333,,,,,1045.0194262997247,1046.5841628997587,0.24,0.32,0.0,0.08,0.32,0.24,0.2,0.24,0.32,1027.4858944998123,1027.4858944998123,1027.4858944998123,1027.4858944998123,1027.4858944998123,1027.4858944998123,1027.4858944998123,1027.4858944998123,1027.4716032400727,17.66667260043323,return,17.50568150030449,,,,,,,,,,,,,,,,,,,,,,,,,,,,,,,,,70EQCC,train_x,red_square,top_left,2025-04-30_16h41.33.197,HideSeek_v1,2022.2.5,60.008305156786115,
,2,8,6,8,4,0,56,,train_dim1_1,4,30,,,,2,0,2,0,,,,,,,,,0,0,0,0,0,3,3,3,1,0,1,0,,,,,,,,,,,,,,,,,,,,,,,,,,,,,,,,,,,,,,,,,,,,,,,,,,,,,,,,,,,,,,,,30,,,,,,,,1049.9560529999435,1049.9560529999435,1049.9560529999435,1049.9560529999435,1049.9560529999435,left,0.8096706997603178,1,1,0,99,-0.16,0.24,left,0.7321022003889084,,,,,,,,,,,,,,,,,,,,,,,,,,,,,,,,,,,,,,,,,,,,,,,,,,,,,,,,,,,,70EQCC,train_x,red_square,top_left,2025-04-30_16h41.33.197,HideSeek_v1,2022.2.5,60.008305156786115,
,2,8,6,8,4,0,56,,train_dim1_1,4,30,,,,2,0,2,0,,,,,,,,,0,0,0,0,0,3,3,3,2,0,2,0,,,,,,,,,,,,,,,,,,,,,,,,,,,,,,,,,,,,,,,,,,,,,,,,,,,,,,,,,,,,,,,,30,,,,,,,,1050.7729659001343,1050.7729659001343,1050.7729659001343,1050.7729659001343,1050.7729659001343,return,1.177496099844575,1,0,0,0,-0.16,0.24,return,1.093791900202632,-2,2,-0.16,0.24,,,,,,,,,,,,,,,,,,,,,,,,,,,,,,,,,,,,,,,,,,,,,,,,,,,,,,,,70EQCC,train_x,red_square,top_left,2025-04-30_16h41.33.197,HideSeek_v1,2022.2.5,60.008305156786115,
,0,7,5,7,5,0,66,,train_dim1_1,5,30,,,,2,0,2,0,,,,,,,,,0,0,0,0,0,4,4,4,0,0,0,0,,,,,,,,,,,,,,,,,,,,,,,,,stimuli/alien_stimuli/66.png,,,,,,,,,,,,,,,,,,,,,,,,,,,,,stimuli/alien_stimuli/56.png,56,2,6,,,,,,,30,,,,,,,,1058.4048774000257,1058.4048774000257,1058.4048774000257,1058.4048774000257,1058.4048774000257,right,2.1078246999531984,1,0,0,99,-0.08,0.16,right,2.0279239006340504,,,,,1056.8459864999168,1058.4048774000257,0.32,0.24,0.0,0.32,0.24,0.32,0.16,0.32,0.24,1053.5320321000181,1053.5320321000181,1053.5320321000181,1053.5320321000181,1053.5320321000181,1053.5320321000181,1053.5320321000181,1053.5320321000181,1053.5265834398567,3.4383459999226034,return,3.289747899863869,,,,,,,,,,,,,,,,,,,,,,,,,,,,,,,,,70EQCC,train_x,red_square,top_left,2025-04-30_16h41.33.197,HideSeek_v1,2022.2.5,60.008305156786115,
,0,7,5,7,5,0,66,,train_dim1_1,5,30,,,,2,0,2,0,,,,,,,,,0,0,0,0,0,4,4,4,1,0,1,0,,,,,,,,,,,,,,,,,,,,,,,,,,,,,,,,,,,,,,,,,,,,,,,,,,,,,,,,,,,,,,,,30,,,,,,,,1060.5219966000877,1060.5219966000877,1060.5219966000877,1060.5219966000877,1060.5219966000877,right,0.8098957003094256,1,0,0,99,0.0,0.16,right,0.7234730003401637,,,,,,,,,,,,,,,,,,,,,,,,,,,,,,,,,,,,,,,,,,,,,,,,,,,,,,,,,,,,70EQCC,train_x,red_square,top_left,2025-04-30_16h41.33.197,HideSeek_v1,2022.2.5,60.008305156786115,
,0,7,5,7,5,0,66,,train_dim1_1,5,30,,,,2,0,2,0,,,,,,,,,0,0,0,0,0,4,4,4,2,0,2,0,,,,,,,,,,,,,,,,,,,,,,,,,,,,,,,,,,,,,,,,,,,,,,,,,,,,,,,,,,,,,,,,30,,,,,,,,1061.3308736998588,1061.3308736998588,1061.3308736998588,1061.3308736998588,1061.3308736998588,right,0.5433264998719096,1,0,0,99,0.08,0.16,right,0.4670827002264559,,,,,,,,,,,,,,,,,,,,,,,,,,,,,,,,,,,,,,,,,,,,,,,,,,,,,,,,,,,,70EQCC,train_x,red_square,top_left,2025-04-30_16h41.33.197,HideSeek_v1,2022.2.5,60.008305156786115,
,0,7,5,7,5,0,66,,train_dim1_1,5,30,,,,2,0,2,0,,,,,,,,,0,0,0,0,0,4,4,4,3,0,3,0,,,,,,,,,,,,,,,,,,,,,,,,,,,,,,,,,,,,,,,,,,,,,,,,,,,,,,,,,,,,,,,,30,,,,,,,,1061.8808232997544,1061.8808232997544,1061.8808232997544,1061.8808232997544,1061.8808232997544,right,0.7939218999817967,1,0,0,99,0.16,0.16,right,0.7090467000380158,,,,,,,,,,,,,,,,,,,,,,,,,,,,,,,,,,,,,,,,,,,,,,,,,,,,,,,,,,,,70EQCC,train_x,red_square,top_left,2025-04-30_16h41.33.197,HideSeek_v1,2022.2.5,60.008305156786115,
,0,7,5,7,5,0,66,,train_dim1_1,5,30,,,,2,0,2,0,,,,,,,,,0,0,0,0,0,4,4,4,4,0,4,0,,,,,,,,,,,,,,,,,,,,,,,,,,,,,,,,,,,,,,,,,,,,,,,,,,,,,,,,,,,,,,,,30,,,,,,,,1062.6813872000203,1062.6813872000203,1062.6813872000203,1062.6813872000203,1062.6813872000203,return,0.9438583999872208,1,1,0,0,0.16,0.16,return,0.8662217003293335,-2,6,0.16,0.16,,,,,,,,,,,,,,,,,,,,,,,,,,,,,,,,,,,,,,,,,,,,,,,,,,,,,,,,70EQCC,train_x,red_square,top_left,2025-04-30_16h41.33.197,HideSeek_v1,2022.2.5,60.008305156786115,
,0,5,1,5,1,0,26,,train_dim1_1,6,30,,,,2,0,2,0,,,,,,,,,0,0,0,0,0,5,5,5,0,0,0,0,,,,,,,,,,,,,,,,,,,,,,,,,stimuli/alien_stimuli/26.png,,,,,,,,,,,,,,,,,,,,,,,,,,,,,stimuli/alien_stimuli/66.png,66,0,7,,,,,,,30,,,,,,,,1073.3755596997216,1073.3755596997216,1073.3755596997216,1073.3755596997216,1073.3755596997216,right,1.6224416997283697,1,1,0,99,-0.08,0,right,1.5351215000264347,,,,,1071.8084141998552,1073.3755596997216,0.24,0.16,0.0,0.4,0.16,0.24,0.039999999999999994,0.24,0.16,1065.2064784998074,1065.2064784998074,1065.2064784998074,1065.2064784998074,1065.2064784998074,1065.2064784998074,1065.2064784998074,1065.2064784998074,1065.18661830998,6.724117700010538,return,6.583087299950421,,,,,,,,,,,,,,,,,,,,,,,,,,,,,,,,,70EQCC,train_x,red_square,top_left,2025-04-30_16h41.33.197,HideSeek_v1,2022.2.5,60.008305156786115,
,0,5,1,5,1,0,26,,train_dim1_1,6,30,,,,2,0,2,0,,,,,,,,,0,0,0,0,0,5,5,5,1,0,1,0,,,,,,,,,,,,,,,,,,,,,,,,,,,,,,,,,,,,,,,,,,,,,,,,,,,,,,,,,,,,,,,,30,,,,,,,,1074.9981204001233,1074.9981204001233,1074.9981204001233,1074.9981204001233,1074.9981204001233,return,1.1934616998769343,2,0,0,1,-0.08,0,return,1.102895200252533,-2,7,-0.08,0,,,,,,,,,,,,,,,,,,,,,,,,,,,,,,,,,,,,,,,,,,,,,,,,,,,,,,,,70EQCC,train_x,red_square,top_left,2025-04-30_16h41.33.197,HideSeek_v1,2022.2.5,60.008305156786115,
,3,5,8,5,5,0,66,,train_dim1_1,7,30,,,,2,0,2,0,,,,,,,,,0,0,0,0,0,6,6,6,0,0,0,0,,,,,,,,,,,,,,,,,,,,,,,,,stimuli/alien_stimuli/66.png,,,,,,,,,,,,,,,,,,,,,,,,,,,,,stimuli/alien_stimuli/26.png,26,0,8,,,,,,,30,,,,,,,,1081.9276684001088,1081.9276684001088,1081.9276684001088,1081.9276684001088,1081.9276684001088,right,3.4405581997707486,2,0,0,99,0.16,0,right,3.3268919005058706,,,,,1080.348812500015,1081.9276684001088,-0.08,0,0.0,0.08,0.0,-0.08,-0.12,-0.08,0,1077.7798902997747,1077.7798902997747,1077.7798902997747,1077.7798902997747,1077.7798902997747,1077.7798902997747,1077.7798902997747,1077.7798902997747,1077.763354339823,2.704419100191444,return,2.545543800573796,,,,,,,,,,,,,,,,,,,,,,,,,,,,,,,,,70EQCC,train_x,red_square,top_left,2025-04-30_16h41.33.197,HideSeek_v1,2022.2.5,60.008305156786115,
,3,5,8,5,5,0,66,,train_dim1_1,7,30,,,,2,0,2,0,,,,,,,,,0,0,0,0,0,6,6,6,1,0,1,0,,,,,,,,,,,,,,,,,,,,,,,,,,,,,,,,,,,,,,,,,,,,,,,,,,,,,,,,,,,,,,,,30,,,,,,,,1085.3507571001537,1085.3507571001537,1085.3507571001537,1085.3507571001537,1085.3507571001537,right,0.8767299996688962,2,0,0,99,0.24,0,right,0.7933248998597264,,,,,,,,,,,,,,,,,,,,,,,,,,,,,,,,,,,,,,,,,,,,,,,,,,,,,,,,,,,,70EQCC,train_x,red_square,top_left,2025-04-30_16h41.33.197,HideSeek_v1,2022.2.5,60.008305156786115,
,3,5,8,5,5,0,66,,train_dim1_1,7,30,,,,2,0,2,0,,,,,,,,,0,0,0,0,0,6,6,6,2,0,2,0,,,,,,,,,,,,,,,,,,,,,,,,,,,,,,,,,,,,,,,,,,,,,,,,,,,,,,,,,,,,,,,,30,,,,,,,,1086.233401000034,1086.233401000034,1086.233401000034,1086.233401000034,1086.233401000034,right,0.44331720005720854,2,0,0,99,0.32,0,right,0.36685810005292296,,,,,,,,,,,,,,,,,,,,,,,,,,,,,,,,,,,,,,,,,,,,,,,,,,,,,,,,,,,,70EQCC,train_x,red_square,top_left,2025-04-30_16h41.33.197,HideSeek_v1,2022.2.5,60.008305156786115,
,3,5,8,5,5,0,66,,train_dim1_1,7,30,,,,2,0,2,0,,,,,,,,,0,0,0,0,0,6,6,6,3,0,3,0,,,,,,,,,,,,,,,,,,,,,,,,,,,,,,,,,,,,,,,,,,,,,,,,,,,,,,,,,,,,,,,,30,,,,,,,,1086.684479800053,1086.684479800053,1086.684479800053,1086.684479800053,1086.684479800053,right,2.4288333002477884,2,0,0,99,0.4,0,right,2.3470165003091097,,,,,,,,,,,,,,,,,,,,,,,,,,,,,,,,,,,,,,,,,,,,,,,,,,,,,,,,,,,,70EQCC,train_x,red_square,top_left,2025-04-30_16h41.33.197,HideSeek_v1,2022.2.5,60.008305156786115,
,3,5,8,5,5,0,66,,train_dim1_1,7,30,,,,2,0,2,0,,,,,,,,,0,0,0,0,0,6,6,6,4,0,4,0,,,,,,,,,,,,,,,,,,,,,,,,,,,,,,,,,,,,,,,,,,,,,,,,,,,,,,,,,,,,,,,,30,,,,,,,,1089.120248499792,1089.120248499792,1089.120248499792,1089.120248499792,1089.120248499792,right,1.3771279999054968,2,0,0,99,0.48000000000000004,0,right,1.2970744003541768,,,,,,,,,,,,,,,,,,,,,,,,,,,,,,,,,,,,,,,,,,,,,,,,,,,,,,,,,,,,70EQCC,train_x,red_square,top_left,2025-04-30_16h41.33.197,HideSeek_v1,2022.2.5,60.008305156786115,
,3,5,8,5,5,0,66,,train_dim1_1,7,30,,,,2,0,2,0,,,,,,,,,0,0,0,0,0,6,6,6,5,0,5,0,,,,,,,,,,,,,,,,,,,,,,,,,,,,,,,,,,,,,,,,,,,,,,,,,,,,,,,,,,,,,,,,30,,,,,,,,1090.5041495999321,1090.5041495999321,1090.5041495999321,1090.5041495999321,1090.5041495999321,return,0.41025649989023805,3,0,0,1,0.48000000000000004,0,return,0.3376905000768602,-2,12,0.48000000000000004,0,,,,,,,,,,,,,,,,,,,,,,,,,,,,,,,,,,,,,,,,,,,,,,,,,,,,,,,,70EQCC,train_x,red_square,top_left,2025-04-30_16h41.33.197,HideSeek_v1,2022.2.5,60.008305156786115,
,0,9,3,9,3,0,46,,train_dim1_1,8,30,,,,2,0,2,0,,,,,,,,,0,0,0,0,0,7,7,7,0,0,0,0,,,,,,,,,,,,,,,,,,,,,,,,,stimuli/alien_stimuli/46.png,,,,,,,,,,,,,,,,,,,,,,,,,,,,,stimuli/alien_stimuli/66.png,66,3,9,,,,,,,30,,,,,,,,1096.8370448998176,1096.8370448998176,1096.8370448998176,1096.8370448998176,1096.8370448998176,down,4.759446700103581,3,0,0,99,-0.16,0.24,down,4.6706920000724494,,,,,1095.2779091000557,1096.8370448998176,0.48,0,0.0,0.4,0.0,0.48,0.27999999999999997,0.48,0,1092.4963114997372,1092.4963114997372,1092.4963114997372,1092.4963114997372,1092.4963114997372,1092.4963114997372,1092.4963114997372,1092.4963114997372,1092.4756460101808,2.904414900112897,return,2.749218299984932,,,,,,,,,,,,,,,,,,,,,,,,,,,,,,,,,70EQCC,train_x,red_square,top_left,2025-04-30_16h41.33.197,HideSeek_v1,2022.2.5,60.008305156786115,
,0,9,3,9,3,0,46,,train_dim1_1,8,30,,,,2,0,2,0,,,,,,,,,0,0,0,0,0,7,7,7,1,0,1,0,,,,,,,,,,,,,,,,,,,,,,,,,,,,,,,,,,,,,,,,,,,,,,,,,,,,,,,,,,,,,,,,30,,,,,,,,1101.5979428999126,1101.5979428999126,1101.5979428999126,1101.5979428999126,1101.5979428999126,down,0.9600505996495485,3,0,0,99,-0.16,0.15999999999999998,down,0.883676300290972,,,,,,,,,,,,,,,,,,,,,,,,,,,,,,,,,,,,,,,,,,,,,,,,,,,,,,,,,,,,70EQCC,train_x,red_square,top_left,2025-04-30_16h41.33.197,HideSeek_v1,2022.2.5,60.008305156786115,
,0,9,3,9,3,0,46,,train_dim1_1,8,30,,,,2,0,2,0,,,,,,,,,0,0,0,0,0,7,7,7,2,0,2,0,,,,,,,,,,,,,,,,,,,,,,,,,,,,,,,,,,,,,,,,,,,,,,,,,,,,,,,,,,,,,,,,30,,,,,,,,1102.5637858998962,1102.5637858998962,1102.5637858998962,1102.5637858998962,1102.5637858998962,down,1.3775121998041868,3,0,0,99,-0.16,0.07999999999999997,down,1.2973588998429477,,,,,,,,,,,,,,,,,,,,,,,,,,,,,,,,,,,,,,,,,,,,,,,,,,,,,,,,,,,,70EQCC,train_x,red_square,top_left,2025-04-30_16h41.33.197,HideSeek_v1,2022.2.5,60.008305156786115,
,0,9,3,9,3,0,46,,train_dim1_1,8,30,,,,2,0,2,0,,,,,,,,,0,0,0,0,0,7,7,7,3,0,3,0,,,,,,,,,,,,,,,,,,,,,,,,,,,,,,,,,,,,,,,,,,,,,,,,,,,,,,,,,,,,,,,,30,,,,,,,,1103.9490252998658,1103.9490252998658,1103.9490252998658,1103.9490252998658,1103.9490252998658,return,0.593507600016892,3,0,0,0,-0.16,0.07999999999999997,return,0.5096422005444765,-5,12,-0.16,0.07999999999999997,,,,,,,,,,,,,,,,,,,,,,,,,,,,,,,,,,,,,,,,,,,,,,,,,,,,,,,,70EQCC,train_x,red_square,top_left,2025-04-30_16h41.33.197,HideSeek_v1,2022.2.5,60.008305156786115,
,1,5,5,5,4,0,56,,train_dim1_1,9,30,,,,2,0,2,0,,,,,,,,,0,0,0,0,0,8,8,8,0,0,0,0,,,,,,,,,,,,,,,,,,,,,,,,,stimuli/alien_stimuli/56.png,,,,,,,,,,,,,,,,,,,,,,,,,,,,,stimuli/alien_stimuli/46.png,46,0,10,,,,,,,30,,,,,,,,1110.6329137999564,1110.6329137999564,1110.6329137999564,1110.6329137999564,1110.6329137999564,right,2.4233738002367318,3,0,0,99,0.0,0,right,2.3381879003718495,,,,,1109.0725361998193,1110.6329137999564,0.08,0.32,0.0,0.24,0.32,0.08,-0.04,0.08,0.32,1106.1072579999454,1106.1072579999454,1106.1072579999454,1106.1072579999454,1106.1072579999454,1106.1072579999454,1106.1072579999454,1106.1072579999454,1106.0868254801258,3.071112399920821,return,2.9392288005910814,,,,,,,,,,,,,,,,,,,,,,,,,,,,,,,,,70EQCC,train_x,red_square,top_left,2025-04-30_16h41.33.197,HideSeek_v1,2022.2.5,60.008305156786115,
,1,5,5,5,4,0,56,,train_dim1_1,9,30,,,,2,0,2,0,,,,,,,,,0,0,0,0,0,8,8,8,1,0,1,0,,,,,,,,,,,,,,,,,,,,,,,,,,,,,,,,,,,,,,,,,,,,,,,,,,,,,,,,,,,,,,,,30,,,,,,,,1113.0586767001078,1113.0586767001078,1113.0586767001078,1113.0586767001078,1113.0586767001078,right,0.3931716997176409,3,0,0,99,0.08,0,right,0.3155472003854811,,,,,,,,,,,,,,,,,,,,,,,,,,,,,,,,,,,,,,,,,,,,,,,,,,,,,,,,,,,,70EQCC,train_x,red_square,top_left,2025-04-30_16h41.33.197,HideSeek_v1,2022.2.5,60.008305156786115,
,1,5,5,5,4,0,56,,train_dim1_1,9,30,,,,2,0,2,0,,,,,,,,,0,0,0,0,0,8,8,8,2,0,2,0,,,,,,,,,,,,,,,,,,,,,,,,,,,,,,,,,,,,,,,,,,,,,,,,,,,,,,,,,,,,,,,,30,,,,,,,,1113.459538300056,1113.459538300056,1113.459538300056,1113.459538300056,1113.459538300056,right,0.5767751997336745,3,0,0,99,0.16,0,right,0.4896556003950536,,,,,,,,,,,,,,,,,,,,,,,,,,,,,,,,,,,,,,,,,,,,,,,,,,,,,,,,,,,,70EQCC,train_x,red_square,top_left,2025-04-30_16h41.33.197,HideSeek_v1,2022.2.5,60.008305156786115,
,1,5,5,5,4,0,56,,train_dim1_1,9,30,,,,2,0,2,0,,,,,,,,,0,0,0,0,0,8,8,8,3,0,3,0,,,,,,,,,,,,,,,,,,,,,,,,,,,,,,,,,,,,,,,,,,,,,,,,,,,,,,,,,,,,,,,,30,,,,,,,,1114.0430175000802,1114.0430175000802,1114.0430175000802,1114.0430175000802,1114.0430175000802,right,0.4099747003056109,3,0,0,99,0.24,0,right,0.33265720028430223,,,,,,,,,,,,,,,,,,,,,,,,,,,,,,,,,,,,,,,,,,,,,,,,,,,,,,,,,,,,70EQCC,train_x,red_square,top_left,2025-04-30_16h41.33.197,HideSeek_v1,2022.2.5,60.008305156786115,
,1,5,5,5,4,0,56,,train_dim1_1,9,30,,,,2,0,2,0,,,,,,,,,0,0,0,0,0,8,8,8,4,0,4,0,,,,,,,,,,,,,,,,,,,,,,,,,,,,,,,,,,,,,,,,,,,,,,,,,,,,,,,,,,,,,,,,30,,,,,,,,1114.4597147000022,1114.4597147000022,1114.4597147000022,1114.4597147000022,1114.4597147000022,right,0.6770518003031611,3,0,0,99,0.32,0,right,0.5963544002734125,,,,,,,,,,,,,,,,,,,,,,,,,,,,,,,,,,,,,,,,,,,,,,,,,,,,,,,,,,,,70EQCC,train_x,red_square,top_left,2025-04-30_16h41.33.197,HideSeek_v1,2022.2.5,60.008305156786115,
,1,5,5,5,4,0,56,,train_dim1_1,9,30,,,,2,0,2,0,,,,,,,,,0,0,0,0,0,8,8,8,5,0,5,0,,,,,,,,,,,,,,,,,,,,,,,,,,,,,,,,,,,,,,,,,,,,,,,,,,,,,,,,,,,,,,,,30,,,,,,,,1115.1431768001057,1115.1431768001057,1115.1431768001057,1115.1431768001057,1115.1431768001057,return,0.3267236999236047,3,1,0,0,0.32,0,return,0.2418673001229763,-5,17,0.32,0,,,,,,,,,,,,,,,,,,,,,,,,,,,,,,,,,,,,,,,,,,,,,,,,,,,,,,,,70EQCC,train_x,red_square,top_left,2025-04-30_16h41.33.197,HideSeek_v1,2022.2.5,60.008305156786115,
,0,8,0,8,0,0,16,,train_dim1_1,10,30,,,,2,0,2,0,,,,,,,,,0,0,0,0,0,9,9,9,0,0,0,0,,,,,,,,,,,,,,,,,,,,,,,,,stimuli/alien_stimuli/16.png,,,,,,,,,,,,,,,,,,,,,,,,,,,,,stimuli/alien_stimuli/56.png,56,1,11,,,,,,,30,,,,,,,,1124.0901192999445,1124.0901192999445,1124.0901192999445,1124.0901192999445,1124.0901192999445,right,2.50255039986223,3,1,0,99,-0.08,0.24,right,2.400338999927044,,,,,1122.5166922998615,1124.0901192999445,0.24,0,0.0,0.32,0.0,0.24,0.07999999999999999,0.24,0,1117.042668600101,1117.042668600101,1117.042668600101,1117.042668600101,1117.042668600101,1117.042668600101,1117.042668600101,1117.042668600101,1117.0293513099195,5.59012270020321,return,5.453806700184941,,,,,,,,,,,,,,,,,,,,,,,,,,,,,,,,,70EQCC,train_x,red_square,top_left,2025-04-30_16h41.33.197,HideSeek_v1,2022.2.5,60.008305156786115,
,0,8,0,8,0,0,16,,train_dim1_1,10,30,,,,2,0,2,0,,,,,,,,,0,0,0,0,0,9,9,9,1,0,1,0,,,,,,,,,,,,,,,,,,,,,,,,,,,,,,,,,,,,,,,,,,,,,,,,,,,,,,,,,,,,,,,,30,,,,,,,,1126.5884899999946,1126.5884899999946,1126.5884899999946,1126.5884899999946,1126.5884899999946,right,1.7775608003139496,3,1,0,99,0.0,0.24,right,1.6936397003009915,,,,,,,,,,,,,,,,,,,,,,,,,,,,,,,,,,,,,,,,,,,,,,,,,,,,,,,,,,,,70EQCC,train_x,red_square,top_left,2025-04-30_16h41.33.197,HideSeek_v1,2022.2.5,60.008305156786115,
,0,8,0,8,0,0,16,,train_dim1_1,10,30,,,,2,0,2,0,,,,,,,,,0,0,0,0,0,9,9,9,2,0,2,0,,,,,,,,,,,,,,,,,,,,,,,,,,,,,,,,,,,,,,,,,,,,,,,,,,,,,,,,,,,,,,,,30,,,,,,,,1128.3915642001666,1128.3915642001666,1128.3915642001666,1128.3915642001666,1128.3915642001666,return,0.3600246999412775,3,0,0,0,0.0,0.24,return,0.2588869002647698,-5,19,0.0,0.24,,,,,,,,,,,,,,,,,,,,,,,,,,,,,,,,,,,,,,,,,,,,,,,,,,,,,,,,70EQCC,train_x,red_square,top_left,2025-04-30_16h41.33.197,HideSeek_v1,2022.2.5,60.008305156786115,
,2,7,5,7,3,0,46,,train_dim1_1,11,30,,,,2,0,2,0,,,,,,,,,0,0,0,0,0,10,10,10,0,0,0,0,,,,,,,,,,,,,,,,,,,,,,,,,stimuli/alien_stimuli/46.png,,,,,,,,,,,,,,,,,,,,,,,,,,,,,stimuli/alien_stimuli/16.png,16,0,12,,,,,,,30,,,,,,,,1135.084971100092,1135.084971100092,1135.084971100092,1135.084971100092,1135.084971100092,right,2.8907826002687216,3,0,0,99,0.08,0.16,right,2.8067746004089713,,,,,1133.5262421998195,1135.084971100092,-0.16,0.24,0.0,0.0,0.24,-0.16,-0.16,-0.16,0.24,1130.3175131999888,1130.3175131999888,1130.3175131999888,1130.3175131999888,1130.3175131999888,1130.3175131999888,1130.3175131999888,1130.3175131999888,1130.3069692400284,3.3383067003451288,return,3.187363200355321,,,,,,,,,,,,,,,,,,,,,,,,,,,,,,,,,70EQCC,train_x,red_square,top_left,2025-04-30_16h41.33.197,HideSeek_v1,2022.2.5,60.008305156786115,
,2,7,5,7,3,0,46,,train_dim1_1,11,30,,,,2,0,2,0,,,,,,,,,0,0,0,0,0,10,10,10,1,0,1,0,,,,,,,,,,,,,,,,,,,,,,,,,,,,,,,,,,,,,,,,,,,,,,,,,,,,,,,,,,,,,,,,30,,,,,,,,1137.9780862997286,1137.9780862997286,1137.9780862997286,1137.9780862997286,1137.9780862997286,right,0.7264586999081075,3,0,0,99,0.16,0.16,right,0.6462155003100634,,,,,,,,,,,,,,,,,,,,,,,,,,,,,,,,,,,,,,,,,,,,,,,,,,,,,,,,,,,,70EQCC,train_x,red_square,top_left,2025-04-30_16h41.33.197,HideSeek_v1,2022.2.5,60.008305156786115,
,2,7,5,7,3,0,46,,train_dim1_1,11,30,,,,2,0,2,0,,,,,,,,,0,0,0,0,0,10,10,10,2,0,2,0,,,,,,,,,,,,,,,,,,,,,,,,,,,,,,,,,,,,,,,,,,,,,,,,,,,,,,,,,,,,,,,,30,,,,,,,,1138.714943099767,1138.714943099767,1138.714943099767,1138.714943099767,1138.714943099767,right,0.8437675000168383,3,0,0,99,0.24,0.16,right,0.751957000233233,,,,,,,,,,,,,,,,,,,,,,,,,,,,,,,,,,,,,,,,,,,,,,,,,,,,,,,,,,,,70EQCC,train_x,red_square,top_left,2025-04-30_16h41.33.197,HideSeek_v1,2022.2.5,60.008305156786115,
,2,7,5,7,3,0,46,,train_dim1_1,11,30,,,,2,0,2,0,,,,,,,,,0,0,0,0,0,10,10,10,3,0,3,0,,,,,,,,,,,,,,,,,,,,,,,,,,,,,,,,,,,,,,,,,,,,,,,,,,,,,,,,,,,,,,,,30,,,,,,,,1139.5609814999625,1139.5609814999625,1139.5609814999625,1139.5609814999625,1139.5609814999625,return,1.0774381998926401,4,0,0,1,0.24,0.16,return,0.995107099879533,-5,22,0.24,0.16,,,,,,,,,,,,,,,,,,,,,,,,,,,,,,,,,,,,,,,,,,,,,,,,,,,,,,,,70EQCC,train_x,red_square,top_left,2025-04-30_16h41.33.197,HideSeek_v1,2022.2.5,60.008305156786115,
,0,5,1,5,1,0,26,,train_dim1_1,12,30,,,,2,0,2,0,,,,,,,,,0,0,0,0,0,11,11,11,0,0,0,0,,,,,,,,,,,,,,,,,,,,,,,,,stimuli/alien_stimuli/26.png,,,,,,,,,,,,,,,,,,,,,,,,,,,,,stimuli/alien_stimuli/46.png,46,2,13,,,,,,,30,,,,,,,,1145.7045279000886,1145.7045279000886,1145.7045279000886,1145.7045279000886,1145.7045279000886,right,4.153427300043404,4,0,0,99,-0.08,0,right,4.048578800167888,,,,,1144.1184296999127,1145.7045279000886,0.24,0.16,0.0,0.24,0.16,0.24,0.12,0.24,0.16,1142.2048884998076,1142.2048884998076,1142.2048884998076,1142.2048884998076,1142.2048884998076,1142.2048884998076,1142.2048884998076,1142.2048884998076,1142.183682380151,2.0202995999716222,return,1.8835010002367198,,,,,,,,,,,,,,,,,,,,,,,,,,,,,,,,,70EQCC,train_x,red_square,top_left,2025-04-30_16h41.33.197,HideSeek_v1,2022.2.5,60.008305156786115,
,0,5,1,5,1,0,26,,train_dim1_1,12,30,,,,2,0,2,0,,,,,,,,,0,0,0,0,0,11,11,11,1,0,1,0,,,,,,,,,,,,,,,,,,,,,,,,,,,,,,,,,,,,,,,,,,,,,,,,,,,,,,,,,,,,,,,,30,,,,,,,,1149.840816100128,1149.840816100128,1149.840816100128,1149.840816100128,1149.840816100128,return,0.3931376002728939,5,0,0,1,-0.08,0,return,0.3090279004536569,-5,23,-0.08,0,,,,,,,,,,,,,,,,,,,,,,,,,,,,,,,,,,,,,,,,,,,,,,,,,,,,,,,,70EQCC,train_x,red_square,top_left,2025-04-30_16h41.33.197,HideSeek_v1,2022.2.5,60.008305156786115,
,0,9,4,9,4,0,45,,train_dim1_1,13,30,,,,2,0,2,0,,,,,,,,,0,0,0,0,0,12,12,12,0,0,0,0,,,,,,,,,,,,,,,,,,,,,,,,,stimuli/alien_stimuli/45.png,,,,,,,,,,,,,,,,,,,,,,,,,,,,,stimuli/alien_stimuli/26.png,26,0,14,,,,,,,30,,,,,,,,1155.289436600171,1155.289436600171,1155.289436600171,1155.289436600171,1155.289436600171,right,2.4501543999649584,5,0,0,99,-0.08,0.32,right,2.3536987002007663,,,,,1153.7098513999954,1155.289436600171,-0.08,0,0.0,0.08,0.0,-0.08,-0.12,-0.08,0,1151.8008934999816,1151.8008934999816,1151.8008934999816,1151.8008934999816,1151.8008934999816,1151.8008934999816,1151.8008934999816,1151.8008934999816,1151.7914995099882,2.02057689987123,return,1.8835416003130376,,,,,,,,,,,,,,,,,,,,,,,,,,,,,,,,,70EQCC,train_x,red_square,top_left,2025-04-30_16h41.33.197,HideSeek_v1,2022.2.5,60.008305156786115,
,0,9,4,9,4,0,45,,train_dim1_1,13,30,,,,2,0,2,0,,,,,,,,,0,0,0,0,0,12,12,12,1,0,1,0,,,,,,,,,,,,,,,,,,,,,,,,,,,,,,,,,,,,,,,,,,,,,,,,,,,,,,,,,,,,,,,,30,,,,,,,,1157.7251911000349,1157.7251911000349,1157.7251911000349,1157.7251911000349,1157.7251911000349,right,0.8264508000575006,5,0,0,99,0.0,0.32,right,0.7398124001920223,,,,,,,,,,,,,,,,,,,,,,,,,,,,,,,,,,,,,,,,,,,,,,,,,,,,,,,,,,,,70EQCC,train_x,red_square,top_left,2025-04-30_16h41.33.197,HideSeek_v1,2022.2.5,60.008305156786115,
,0,9,4,9,4,0,45,,train_dim1_1,13,30,,,,2,0,2,0,,,,,,,,,0,0,0,0,0,12,12,12,2,0,2,0,,,,,,,,,,,,,,,,,,,,,,,,,,,,,,,,,,,,,,,,,,,,,,,,,,,,,,,,,,,,,,,,30,,,,,,,,1158.559015700128,1158.559015700128,1158.559015700128,1158.559015700128,1158.559015700128,right,1.0100440997630358,5,0,0,99,0.08,0.32,right,0.9233335005119443,,,,,,,,,,,,,,,,,,,,,,,,,,,,,,,,,,,,,,,,,,,,,,,,,,,,,,,,,,,,70EQCC,train_x,red_square,top_left,2025-04-30_16h41.33.197,HideSeek_v1,2022.2.5,60.008305156786115,
,0,9,4,9,4,0,45,,train_dim1_1,13,30,,,,2,0,2,0,,,,,,,,,0,0,0,0,0,12,12,12,3,0,3,0,,,,,,,,,,,,,,,,,,,,,,,,,,,,,,,,,,,,,,,,,,,,,,,,,,,,,,,,,,,,,,,,30,,,,,,,,1159.5764311999083,1159.5764311999083,1159.5764311999083,1159.5764311999083,1159.5764311999083,return,1.4273270000703633,5,1,0,0,0.08,0.32,return,1.348072400316596,-5,26,0.08,0.32,,,,,,,,,,,,,,,,,,,,,,,,,,,,,,,,,,,,,,,,,,,,,,,,,,,,,,,,70EQCC,train_x,red_square,top_left,2025-04-30_16h41.33.197,HideSeek_v1,2022.2.5,60.008305156786115,
,4,8,4,8,0,0,16,,train_dim1_1,14,30,,,,2,0,2,0,,,,,,,,,0,0,0,0,0,13,13,13,0,0,0,0,,,,,,,,,,,,,,,,,,,,,,,,,stimuli/alien_stimuli/16.png,,,,,,,,,,,,,,,,,,,,,,,,,,,,,stimuli/alien_stimuli/45.png,45,0,15,,,,,,,30,,,,,,,,1166.338636300061,1166.338636300061,1166.338636300061,1166.338636300061,1166.338636300061,return,2.0017785001546144,6,0,0,1,0.16,0.24,return,1.896591300610453,-5,26,0.16,0.24,1164.7524493997917,1166.338636300061,0.16,0.32,0.0,0.32,0.32,0.16,0.0,0.16,0.32,1162.5798729001544,1162.5798729001544,1162.5798729001544,1162.5798729001544,1162.5798729001544,1162.5798729001544,1162.5798729001544,1162.5798729001544,1162.566855609929,2.288702900055796,return,2.1476607997901738,,,,,,,,,,,,,,,,,,,,,,,,,,,,,,,,,70EQCC,train_x,red_square,top_left,2025-04-30_16h41.33.197,HideSeek_v1,2022.2.5,60.008305156786115,
,4,7,9,7,5,0,66,,train_dim1_1,15,30,,,,2,0,2,0,,,,,,,,,0,0,0,0,0,14,14,14,0,0,0,0,,,,,,,,,,,,,,,,,,,,,,,,,stimuli/alien_stimuli/66.png,,,,,,,,,,,,,,,,,,,,,,,,,,,,,stimuli/alien_stimuli/16.png,16,4,16,,,,,,,30,,,,,,,,1173.2892976999283,1173.2892976999283,1173.2892976999283,1173.2892976999283,1173.2892976999283,right,1.3689872999675572,6,0,0,99,0.24,0.16,right,1.2812323002144694,,,,,1171.7247107997537,1173.2892976999283,0.16,0.24,0.0,0.0,0.24,0.16,0.16,0.16,0.24,1169.8798126997426,1169.8798126997426,1169.8798126997426,1169.8798126997426,1169.8798126997426,1169.8798126997426,1169.8798126997426,1169.8798126997426,1169.8731341101693,1.9538177996873856,return,1.8177287001162767,,,,,,,,,,,,,,,,,,,,,,,,,,,,,,,,,70EQCC,train_x,red_square,top_left,2025-04-30_16h41.33.197,HideSeek_v1,2022.2.5,60.008305156786115,
,4,7,9,7,5,0,66,,train_dim1_1,15,30,,,,2,0,2,0,,,,,,,,,0,0,0,0,0,14,14,14,1,0,1,0,,,,,,,,,,,,,,,,,,,,,,,,,,,,,,,,,,,,,,,,,,,,,,,,,,,,,,,,,,,,,,,,30,,,,,,,,1174.6583135998808,1174.6583135998808,1174.6583135998808,1174.6583135998808,1174.6583135998808,right,0.5100274998694658,6,0,0,99,0.32,0.16,right,0.42903480026870966,,,,,,,,,,,,,,,,,,,,,,,,,,,,,,,,,,,,,,,,,,,,,,,,,,,,,,,,,,,,70EQCC,train_x,red_square,top_left,2025-04-30_16h41.33.197,HideSeek_v1,2022.2.5,60.008305156786115,
,4,7,9,7,5,0,66,,train_dim1_1,15,30,,,,2,0,2,0,,,,,,,,,0,0,0,0,0,14,14,14,2,0,2,0,,,,,,,,,,,,,,,,,,,,,,,,,,,,,,,,,,,,,,,,,,,,,,,,,,,,,,,,,,,,,,,,30,,,,,,,,1175.1750908000395,1175.1750908000395,1175.1750908000395,1175.1750908000395,1175.1750908000395,right,0.5101050003431737,6,0,0,99,0.4,0.16,right,0.4340460002422333,,,,,,,,,,,,,,,,,,,,,,,,,,,,,,,,,,,,,,,,,,,,,,,,,,,,,,,,,,,,70EQCC,train_x,red_square,top_left,2025-04-30_16h41.33.197,HideSeek_v1,2022.2.5,60.008305156786115,
,4,7,9,7,5,0,66,,train_dim1_1,15,30,,,,2,0,2,0,,,,,,,,,0,0,0,0,0,14,14,14,3,0,3,0,,,,,,,,,,,,,,,,,,,,,,,,,,,,,,,,,,,,,,,,,,,,,,,,,,,,,,,,,,,,,,,,30,,,,,,,,1175.6922633997165,1175.6922633997165,1175.6922633997165,1175.6922633997165,1175.6922633997165,right,0.6767719998024404,6,0,0,99,0.48000000000000004,0.16,right,0.588258100207895,,,,,,,,,,,,,,,,,,,,,,,,,,,,,,,,,,,,,,,,,,,,,,,,,,,,,,,,,,,,70EQCC,train_x,red_square,top_left,2025-04-30_16h41.33.197,HideSeek_v1,2022.2.5,60.008305156786115,
,4,7,9,7,5,0,66,,train_dim1_1,15,30,,,,2,0,2,0,,,,,,,,,0,0,0,0,0,14,14,14,4,0,4,0,,,,,,,,,,,,,,,,,,,,,,,,,,,,,,,,,,,,,,,,,,,,,,,,,,,,,,,,,,,,,,,,30,,,,,,,,1176.375278600026,1176.375278600026,1176.375278600026,1176.375278600026,1176.375278600026,right,0.4933306002058089,6,0,0,99,0.56,0.16,right,0.4096674001775682,,,,,,,,,,,,,,,,,,,,,,,,,,,,,,,,,,,,,,,,,,,,,,,,,,,,,,,,,,,,70EQCC,train_x,red_square,top_left,2025-04-30_16h41.33.197,HideSeek_v1,2022.2.5,60.008305156786115,
,4,7,9,7,5,0,66,,train_dim1_1,15,30,,,,2,0,2,0,,,,,,,,,0,0,0,0,0,14,14,14,5,0,5,0,,,,,,,,,,,,,,,,,,,,,,,,,,,,,,,,,,,,,,,,,,,,,,,,,,,,,,,,,,,,,,,,30,,,,,,,,1176.8751165997237,1176.8751165997237,1176.8751165997237,1176.8751165997237,1176.8751165997237,return,0.6606760998256505,7,0,0,1,0.56,0.16,return,0.5727026001550257,-5,31,0.56,0.16,,,,,,,,,,,,,,,,,,,,,,,,,,,,,,,,,,,,,,,,,,,,,,,,,,,,,,,,70EQCC,train_x,red_square,top_left,2025-04-30_16h41.33.197,HideSeek_v1,2022.2.5,60.008305156786115,
,3,8,7,8,4,0,56,,train_dim1_1,16,30,,,,2,0,2,0,,,,,,,,,0,0,0,0,0,15,15,15,0,0,0,0,,,,,,,,,,,,,,,,,,,,,,,,,stimuli/alien_stimuli/56.png,,,,,,,,,,,,,,,,,,,,,,,,,,,,,stimuli/alien_stimuli/66.png,66,4,17,,,,,,,30,,,,,,,,1182.576275399886,1182.576275399886,1182.576275399886,1182.576275399886,1182.576275399886,right,1.7231443002820015,7,0,0,99,0.16,0.24,right,1.6105168000794947,,,,,1180.999053800013,1182.576275399886,0.56,0.16,0.0,0.4,0.16,0.56,0.36000000000000004,0.56,0.16,1179.100116299931,1179.100116299931,1179.100116299931,1179.100116299931,1179.100116299931,1179.100116299931,1179.100116299931,1179.100116299931,1179.0810780799015,2.0036034998483956,return,1.8772300002165139,,,,,,,,,,,,,,,,,,,,,,,,,,,,,,,,,70EQCC,train_x,red_square,top_left,2025-04-30_16h41.33.197,HideSeek_v1,2022.2.5,60.008305156786115,
,3,8,7,8,4,0,56,,train_dim1_1,16,30,,,,2,0,2,0,,,,,,,,,0,0,0,0,0,15,15,15,1,0,1,0,,,,,,,,,,,,,,,,,,,,,,,,,,,,,,,,,,,,,,,,,,,,,,,,,,,,,,,,,,,,,,,,30,,,,,,,,1184.2862821999006,1184.2862821999006,1184.2862821999006,1184.2862821999006,1184.2862821999006,right,0.4927038000896573,7,0,0,99,0.24,0.24,right,0.40675370022654533,,,,,,,,,,,,,,,,,,,,,,,,,,,,,,,,,,,,,,,,,,,,,,,,,,,,,,,,,,,,70EQCC,train_x,red_square,top_left,2025-04-30_16h41.33.197,HideSeek_v1,2022.2.5,60.008305156786115,
,3,8,7,8,4,0,56,,train_dim1_1,16,30,,,,2,0,2,0,,,,,,,,,0,0,0,0,0,15,15,15,2,0,2,0,,,,,,,,,,,,,,,,,,,,,,,,,,,,,,,,,,,,,,,,,,,,,,,,,,,,,,,,,,,,,,,,30,,,,,,,,1184.784857599996,1184.784857599996,1184.784857599996,1184.784857599996,1184.784857599996,right,0.5101489997468889,7,0,0,99,0.32,0.24,right,0.4276782004162669,,,,,,,,,,,,,,,,,,,,,,,,,,,,,,,,,,,,,,,,,,,,,,,,,,,,,,,,,,,,70EQCC,train_x,red_square,top_left,2025-04-30_16h41.33.197,HideSeek_v1,2022.2.5,60.008305156786115,
,3,8,7,8,4,0,56,,train_dim1_1,16,30,,,,2,0,2,0,,,,,,,,,0,0,0,0,0,15,15,15,3,0,3,0,,,,,,,,,,,,,,,,,,,,,,,,,,,,,,,,,,,,,,,,,,,,,,,,,,,,,,,,,,,,,,,,30,,,,,,,,1185.3024510997348,1185.3024510997348,1185.3024510997348,1185.3024510997348,1185.3024510997348,right,0.49347939994186163,7,0,0,99,0.4,0.24,right,0.40599900064989924,,,,,,,,,,,,,,,,,,,,,,,,,,,,,,,,,,,,,,,,,,,,,,,,,,,,,,,,,,,,70EQCC,train_x,red_square,top_left,2025-04-30_16h41.33.197,HideSeek_v1,2022.2.5,60.008305156786115,
,3,8,7,8,4,0,56,,train_dim1_1,16,30,,,,2,0,2,0,,,,,,,,,0,0,0,0,0,15,15,15,4,0,4,0,,,,,,,,,,,,,,,,,,,,,,,,,,,,,,,,,,,,,,,,,,,,,,,,,,,,,,,,,,,,,,,,30,,,,,,,,1185.8020788999274,1185.8020788999274,1185.8020788999274,1185.8020788999274,1185.8020788999274,return,1.0773444003425539,8,0,0,1,0.4,0.24,return,0.9920945004560053,-5,35,0.4,0.24,,,,,,,,,,,,,,,,,,,,,,,,,,,,,,,,,,,,,,,,,,,,,,,,,,,,,,,,70EQCC,train_x,red_square,top_left,2025-04-30_16h41.33.197,HideSeek_v1,2022.2.5,60.008305156786115,
,2,9,3,9,1,0,26,,train_dim1_1,17,30,,,,2,0,2,0,,,,,,,,,0,0,0,0,0,16,16,16,0,0,0,0,,,,,,,,,,,,,,,,,,,,,,,,,stimuli/alien_stimuli/26.png,,,,,,,,,,,,,,,,,,,,,,,,,,,,,stimuli/alien_stimuli/56.png,56,3,18,,,,,,,30,,,,,,,,1192.547312299721,1192.547312299721,1192.547312299721,1192.547312299721,1192.547312299721,down,2.1395111000165343,8,0,0,99,0,0.24,down,2.0181805002503097,,,,,1190.9572430998087,1192.547312299721,0.4,0.24,0.0,0.32,0.24,0.4,0.24000000000000002,0.4,0.24,1188.45047349995,1188.45047349995,1188.45047349995,1188.45047349995,1188.45047349995,1188.45047349995,1188.45047349995,1188.45047349995,1188.4386139098087,2.6217125998809934,return,2.4901000005193055,,,,,,,,,,,,,,,,,,,,,,,,,,,,,,,,,70EQCC,train_x,red_square,top_left,2025-04-30_16h41.33.197,HideSeek_v1,2022.2.5,60.008305156786115,
,2,9,3,9,1,0,26,,train_dim1_1,17,30,,,,2,0,2,0,,,,,,,,,0,0,0,0,0,16,16,16,1,0,1,0,,,,,,,,,,,,,,,,,,,,,,,,,,,,,,,,,,,,,,,,,,,,,,,,,,,,,,,,,,,,,,,,30,,,,,,,,1194.6612383998,1194.6612383998,1194.6612383998,1194.6612383998,1194.6612383998,return,0.6600297996774316,8,0,0,0,0,0.24,return,0.5805649003013968,-6,35,0,0.24,,,,,,,,,,,,,,,,,,,,,,,,,,,,,,,,,,,,,,,,,,,,,,,,,,,,,,,,70EQCC,train_x,red_square,top_left,2025-04-30_16h41.33.197,HideSeek_v1,2022.2.5,60.008305156786115,
,2,6,7,6,5,0,66,,train_dim1_1,18,30,,,,2,0,2,0,,,,,,,,,0,0,0,0,0,17,17,17,0,0,0,0,,,,,,,,,,,,,,,,,,,,,,,,,stimuli/alien_stimuli/66.png,,,,,,,,,,,,,,,,,,,,,,,,,,,,,stimuli/alien_stimuli/26.png,26,2,19,,,,,,,30,,,,,,,,1200.8464950998314,1200.8464950998314,1200.8464950998314,1200.8464950998314,1200.8464950998314,right,1.0546878003515303,8,0,0,99,0.08,0.08,right,0.9446807000786066,,,,,1199.2642144998536,1200.8464950998314,0.08,0.32,0.0,0.08,0.32,0.08,0.04,0.08,0.32,1196.8877670997754,1196.8877670997754,1196.8877670997754,1196.8877670997754,1196.8877670997754,1196.8877670997754,1196.8877670997754,1196.8877670997754,1196.879059009766,2.4874493000097573,return,2.3451095004566014,,,,,,,,,,,,,,,,,,,,,,,,,,,,,,,,,70EQCC,train_x,red_square,top_left,2025-04-30_16h41.33.197,HideSeek_v1,2022.2.5,60.008305156786115,
,2,6,7,6,5,0,66,,train_dim1_1,18,30,,,,2,0,2,0,,,,,,,,,0,0,0,0,0,17,17,17,1,0,1,0,,,,,,,,,,,,,,,,,,,,,,,,,,,,,,,,,,,,,,,,,,,,,,,,,,,,,,,,,,,,,,,,30,,,,,,,,1201.8799455999397,1201.8799455999397,1201.8799455999397,1201.8799455999397,1201.8799455999397,right,0.37632020004093647,8,0,0,99,0.16,0.08,right,0.3030983004719019,,,,,,,,,,,,,,,,,,,,,,,,,,,,,,,,,,,,,,,,,,,,,,,,,,,,,,,,,,,,70EQCC,train_x,red_square,top_left,2025-04-30_16h41.33.197,HideSeek_v1,2022.2.5,60.008305156786115,
,2,6,7,6,5,0,66,,train_dim1_1,18,30,,,,2,0,2,0,,,,,,,,,0,0,0,0,0,17,17,17,2,0,2,0,,,,,,,,,,,,,,,,,,,,,,,,,,,,,,,,,,,,,,,,,,,,,,,,,,,,,,,,,,,,,,,,30,,,,,,,,1202.2628699000925,1202.2628699000925,1202.2628699000925,1202.2628699000925,1202.2628699000925,right,0.37640529964119196,8,0,0,99,0.24,0.08,right,0.29794020019471645,,,,,,,,,,,,,,,,,,,,,,,,,,,,,,,,,,,,,,,,,,,,,,,,,,,,,,,,,,,,70EQCC,train_x,red_square,top_left,2025-04-30_16h41.33.197,HideSeek_v1,2022.2.5,60.008305156786115,
,2,6,7,6,5,0,66,,train_dim1_1,18,30,,,,2,0,2,0,,,,,,,,,0,0,0,0,0,17,17,17,3,0,3,0,,,,,,,,,,,,,,,,,,,,,,,,,,,,,,,,,,,,,,,,,,,,,,,,,,,,,,,,,,,,,,,,30,,,,,,,,1202.6471628998406,1202.6471628998406,1202.6471628998406,1202.6471628998406,1202.6471628998406,right,0.44353239983320236,8,0,0,99,0.32,0.08,right,0.3585049998946488,,,,,,,,,,,,,,,,,,,,,,,,,,,,,,,,,,,,,,,,,,,,,,,,,,,,,,,,,,,,70EQCC,train_x,red_square,top_left,2025-04-30_16h41.33.197,HideSeek_v1,2022.2.5,60.008305156786115,
,2,6,7,6,5,0,66,,train_dim1_1,18,30,,,,2,0,2,0,,,,,,,,,0,0,0,0,0,17,17,17,4,0,4,0,,,,,,,,,,,,,,,,,,,,,,,,,,,,,,,,,,,,,,,,,,,,,,,,,,,,,,,,,,,,,,,,30,,,,,,,,1203.096625499893,1203.096625499893,1203.096625499893,1203.096625499893,1203.096625499893,return,1.2775508998893201,8,1,0,0,0.32,0.08,return,1.2035794002003968,-6,39,0.32,0.08,,,,,,,,,,,,,,,,,,,,,,,,,,,,,,,,,,,,,,,,,,,,,,,,,,,,,,,,70EQCC,train_x,red_square,top_left,2025-04-30_16h41.33.197,HideSeek_v1,2022.2.5,60.008305156786115,
,0,8,3,8,3,0,46,,train_dim1_1,19,30,,,,2,0,2,0,,,,,,,,,0,0,0,0,0,18,18,18,0,0,0,0,,,,,,,,,,,,,,,,,,,,,,,,,stimuli/alien_stimuli/46.png,,,,,,,,,,,,,,,,,,,,,,,,,,,,,stimuli/alien_stimuli/66.png,66,2,20,,,,,,,30,,,,,,,,1209.141493699979,1209.141493699979,1209.141493699979,1209.141493699979,1209.141493699979,right,1.5031122001819313,8,1,0,99,-0.08,0.24,right,1.410081300418824,,,,,1207.5710483998992,1209.141493699979,0.4,0.08,0.0,0.4,0.08,0.4,0.2,0.4,0.08,1205.9366015000269,1205.9366015000269,1205.9366015000269,1205.9366015000269,1205.9366015000269,1205.9366015000269,1205.9366015000269,1205.9366015000269,1205.9197791799902,1.7370482999831438,return,1.6029052999801934,,,,,,,,,,,,,,,,,,,,,,,,,,,,,,,,,70EQCC,train_x,red_square,top_left,2025-04-30_16h41.33.197,HideSeek_v1,2022.2.5,60.008305156786115,
,0,8,3,8,3,0,46,,train_dim1_1,19,30,,,,2,0,2,0,,,,,,,,,0,0,0,0,0,18,18,18,1,0,1,0,,,,,,,,,,,,,,,,,,,,,,,,,,,,,,,,,,,,,,,,,,,,,,,,,,,,,,,,,,,,,,,,30,,,,,,,,1210.6385228000581,1210.6385228000581,1210.6385228000581,1210.6385228000581,1210.6385228000581,right,0.4594431002624333,8,1,0,99,0.0,0.24,right,0.38121879985556006,,,,,,,,,,,,,,,,,,,,,,,,,,,,,,,,,,,,,,,,,,,,,,,,,,,,,,,,,,,,70EQCC,train_x,red_square,top_left,2025-04-30_16h41.33.197,HideSeek_v1,2022.2.5,60.008305156786115,
,0,8,3,8,3,0,46,,train_dim1_1,19,30,,,,2,0,2,0,,,,,,,,,0,0,0,0,0,18,18,18,2,0,2,0,,,,,,,,,,,,,,,,,,,,,,,,,,,,,,,,,,,,,,,,,,,,,,,,,,,,,,,,,,,,,,,,30,,,,,,,,1211.1040977998637,1211.1040977998637,1211.1040977998637,1211.1040977998637,1211.1040977998637,right,0.36013599997386336,8,1,0,99,0.08,0.24,right,0.28394810063764453,,,,,,,,,,,,,,,,,,,,,,,,,,,,,,,,,,,,,,,,,,,,,,,,,,,,,,,,,,,,70EQCC,train_x,red_square,top_left,2025-04-30_16h41.33.197,HideSeek_v1,2022.2.5,60.008305156786115,
,0,8,3,8,3,0,46,,train_dim1_1,19,30,,,,2,0,2,0,,,,,,,,,0,0,0,0,0,18,18,18,3,0,3,0,,,,,,,,,,,,,,,,,,,,,,,,,,,,,,,,,,,,,,,,,,,,,,,,,,,,,,,,,,,,,,,,30,,,,,,,,1211.4709180998616,1211.4709180998616,1211.4709180998616,1211.4709180998616,1211.4709180998616,return,1.4943794999271631,9,0,0,1,0.08,0.24,return,1.4144626003690064,-6,42,0.08,0.24,,,,,,,,,,,,,,,,,,,,,,,,,,,,,,,,,,,,,,,,,,,,,,,,,,,,,,,,70EQCC,train_x,red_square,top_left,2025-04-30_16h41.33.197,HideSeek_v1,2022.2.5,60.008305156786115,
,0,6,0,6,0,0,16,,train_dim1_1,20,30,,,,2,0,2,0,,,,,,,,,0,0,0,0,0,19,19,19,0,0,0,0,,,,,,,,,,,,,,,,,,,,,,,,,stimuli/alien_stimuli/16.png,,,,,,,,,,,,,,,,,,,,,,,,,,,,,stimuli/alien_stimuli/46.png,46,0,21,,,,,,,30,,,,,,,,1217.966946899891,1217.966946899891,1217.966946899891,1217.966946899891,1217.966946899891,right,1.6369763002730906,9,0,0,99,-0.08,0.08,right,1.5186577001586556,,,,,1216.3786514997482,1217.966946899891,0.08,0.24,0.0,0.24,0.24,0.08,-0.04,0.08,0.24,1214.5305600999855,1214.5305600999855,1214.5305600999855,1214.5305600999855,1214.5305600999855,1214.5305600999855,1214.5305600999855,1214.5305600999855,1214.5103609798475,1.953846300020814,return,1.8286559004336596,,,,,,,,,,,,,,,,,,,,,,,,,,,,,,,,,70EQCC,train_x,red_square,top_left,2025-04-30_16h41.33.197,HideSeek_v1,2022.2.5,60.008305156786115,
,0,6,0,6,0,0,16,,train_dim1_1,20,30,,,,2,0,2,0,,,,,,,,,0,0,0,0,0,19,19,19,1,0,1,0,,,,,,,,,,,,,,,,,,,,,,,,,,,,,,,,,,,,,,,,,,,,,,,,,,,,,,,,,,,,,,,,30,,,,,,,,1219.583197900094,1219.583197900094,1219.583197900094,1219.583197900094,1219.583197900094,return,0.39306099992245436,9,1,0,0,-0.08,0.08,return,0.31083610048517585,-6,43,-0.08,0.08,,,,,,,,,,,,,,,,,,,,,,,,,,,,,,,,,,,,,,,,,,,,,,,,,,,,,,,,70EQCC,train_x,red_square,top_left,2025-04-30_16h41.33.197,HideSeek_v1,2022.2.5,60.008305156786115,
,4,7,7,7,3,0,46,,train_dim1_1,21,30,,,,2,0,2,0,,,,,,,,,0,0,0,0,0,20,20,20,0,0,0,0,,,,,,,,,,,,,,,,,,,,,,,,,stimuli/alien_stimuli/46.png,,,,,,,,,,,,,,,,,,,,,,,,,,,,,stimuli/alien_stimuli/16.png,16,0,22,,,,,,,30,,,,,,,,1225.2441615997814,1225.2441615997814,1225.2441615997814,1225.2441615997814,1225.2441615997814,right,1.6563594997860491,9,1,0,99,0.24,0.16,right,1.5633927001617849,,,,,1223.6844762000255,1225.2441615997814,-0.16,0.08,0.0,0.0,0.08,-0.16,-0.16,-0.16,0.08,1221.5394064998254,1221.5394064998254,1221.5394064998254,1221.5394064998254,1221.5394064998254,1221.5394064998254,1221.5394064998254,1221.5394064998254,1221.5327726100104,2.253883299883455,return,2.11607010057196,,,,,,,,,,,,,,,,,,,,,,,,,,,,,,,,,70EQCC,train_x,red_square,top_left,2025-04-30_16h41.33.197,HideSeek_v1,2022.2.5,60.008305156786115,
,4,7,7,7,3,0,46,,train_dim1_1,21,30,,,,2,0,2,0,,,,,,,,,0,0,0,0,0,20,20,20,1,0,1,0,,,,,,,,,,,,,,,,,,,,,,,,,,,,,,,,,,,,,,,,,,,,,,,,,,,,,,,,,,,,,,,,30,,,,,,,,1226.9014956997707,1226.9014956997707,1226.9014956997707,1226.9014956997707,1226.9014956997707,right,0.4430374000221491,9,1,0,99,0.32,0.16,right,0.36615730030462146,,,,,,,,,,,,,,,,,,,,,,,,,,,,,,,,,,,,,,,,,,,,,,,,,,,,,,,,,,,,70EQCC,train_x,red_square,top_left,2025-04-30_16h41.33.197,HideSeek_v1,2022.2.5,60.008305156786115,
,4,7,7,7,3,0,46,,train_dim1_1,21,30,,,,2,0,2,0,,,,,,,,,0,0,0,0,0,20,20,20,2,0,2,0,,,,,,,,,,,,,,,,,,,,,,,,,,,,,,,,,,,,,,,,,,,,,,,,,,,,,,,,,,,,,,,,30,,,,,,,,1227.3507626000792,1227.3507626000792,1227.3507626000792,1227.3507626000792,1227.3507626000792,right,0.3435160997323692,9,1,0,99,0.4,0.16,right,0.2714251005090773,,,,,,,,,,,,,,,,,,,,,,,,,,,,,,,,,,,,,,,,,,,,,,,,,,,,,,,,,,,,70EQCC,train_x,red_square,top_left,2025-04-30_16h41.33.197,HideSeek_v1,2022.2.5,60.008305156786115,
,4,7,7,7,3,0,46,,train_dim1_1,21,30,,,,2,0,2,0,,,,,,,,,0,0,0,0,0,20,20,20,3,0,3,0,,,,,,,,,,,,,,,,,,,,,,,,,,,,,,,,,,,,,,,,,,,,,,,,,,,,,,,,,,,,,,,,30,,,,,,,,1227.701505899895,1227.701505899895,1227.701505899895,1227.701505899895,1227.701505899895,return,0.6097891996614635,10,0,0,1,0.4,0.16,return,0.5228185001760721,-6,46,0.4,0.16,,,,,,,,,,,,,,,,,,,,,,,,,,,,,,,,,,,,,,,,,,,,,,,,,,,,,,,,70EQCC,train_x,red_square,top_left,2025-04-30_16h41.33.197,HideSeek_v1,2022.2.5,60.008305156786115,
,1,5,2,5,1,0,26,,train_dim1_1,22,30,,,,2,0,2,0,,,,,,,,,0,0,0,0,0,21,21,21,0,0,0,0,,,,,,,,,,,,,,,,,,,,,,,,,stimuli/alien_stimuli/26.png,,,,,,,,,,,,,,,,,,,,,,,,,,,,,stimuli/alien_stimuli/46.png,46,4,23,,,,,,,30,,,,,,,,1233.2223192998208,1233.2223192998208,1233.2223192998208,1233.2223192998208,1233.2223192998208,right,2.0871299002319574,10,0,0,99,0.0,0,right,1.967177300248295,,,,,1231.6244898000732,1233.2223192998208,0.4,0.16,0.0,0.24,0.16,0.4,0.28,0.4,0.16,1229.8748041000217,1229.8748041000217,1229.8748041000217,1229.8748041000217,1229.8748041000217,1229.8748041000217,1229.8748041000217,1229.8748041000217,1229.8563064801506,1.853760200086981,return,1.7291183001361787,,,,,,,,,,,,,,,,,,,,,,,,,,,,,,,,,70EQCC,train_x,red_square,top_left,2025-04-30_16h41.33.197,HideSeek_v1,2022.2.5,60.008305156786115,
,1,5,2,5,1,0,26,,train_dim1_1,22,30,,,,2,0,2,0,,,,,,,,,0,0,0,0,0,21,21,21,1,0,1,0,,,,,,,,,,,,,,,,,,,,,,,,,,,,,,,,,,,,,,,,,,,,,,,,,,,,,,,,,,,,,,,,30,,,,,,,,1235.280027499888,1235.280027499888,1235.280027499888,1235.280027499888,1235.280027499888,right,1.7274428000673652,10,0,0,99,0.08,0,right,1.6437923000194132,,,,,,,,,,,,,,,,,,,,,,,,,,,,,,,,,,,,,,,,,,,,,,,,,,,,,,,,,,,,70EQCC,train_x,red_square,top_left,2025-04-30_16h41.33.197,HideSeek_v1,2022.2.5,60.008305156786115,
,1,5,2,5,1,0,26,,train_dim1_1,22,30,,,,2,0,2,0,,,,,,,,,0,0,0,0,0,21,21,21,2,0,2,0,,,,,,,,,,,,,,,,,,,,,,,,,,,,,,,,,,,,,,,,,,,,,,,,,,,,,,,,,,,,,,,,30,,,,,,,,1237.0125588998199,1237.0125588998199,1237.0125588998199,1237.0125588998199,1237.0125588998199,return,0.3433685996569693,10,1,0,0,0.08,0,return,0.2580658998340368,-6,48,0.08,0,,,,,,,,,,,,,,,,,,,,,,,,,,,,,,,,,,,,,,,,,,,,,,,,,,,,,,,,70EQCC,train_x,red_square,top_left,2025-04-30_16h41.33.197,HideSeek_v1,2022.2.5,60.008305156786115,
,2,6,7,6,5,0,66,,train_dim1_1,23,30,,,,2,0,2,0,,,,,,,,,0,0,0,0,0,22,22,22,0,0,0,0,,,,,,,,,,,,,,,,,,,,,,,,,stimuli/alien_stimuli/66.png,,,,,,,,,,,,,,,,,,,,,,,,,,,,,stimuli/alien_stimuli/26.png,26,1,24,,,,,,,30,,,,,,,,1243.443575500045,1243.443575500045,1243.443575500045,1243.443575500045,1243.443575500045,right,0.8901631999760866,10,1,0,99,0.08,0.08,right,0.8080485002137721,,,,,1241.8830892997794,1243.443575500045,0,0,0.0,0.08,0.0,0,-0.04,0,0,1238.9197585000657,1238.9197585000657,1238.9197585000657,1238.9197585000657,1238.9197585000657,1238.9197585000657,1238.9197585000657,1238.9197585000657,1238.9139543101655,3.0713307997211814,return,2.939558300189674,,,,,,,,,,,,,,,,,,,,,,,,,,,,,,,,,70EQCC,train_x,red_square,top_left,2025-04-30_16h41.33.197,HideSeek_v1,2022.2.5,60.008305156786115,
,2,6,7,6,5,0,66,,train_dim1_1,23,30,,,,2,0,2,0,,,,,,,,,0,0,0,0,0,22,22,22,1,0,1,0,,,,,,,,,,,,,,,,,,,,,,,,,,,,,,,,,,,,,,,,,,,,,,,,,,,,,,,,,,,,,,,,30,,,,,,,,1244.3326567998156,1244.3326567998156,1244.3326567998156,1244.3326567998156,1244.3326567998156,right,0.3427770999260247,10,1,0,99,0.16,0.08,right,0.26909290021285415,,,,,,,,,,,,,,,,,,,,,,,,,,,,,,,,,,,,,,,,,,,,,,,,,,,,,,,,,,,,70EQCC,train_x,red_square,top_left,2025-04-30_16h41.33.197,HideSeek_v1,2022.2.5,60.008305156786115,
,2,6,7,6,5,0,66,,train_dim1_1,23,30,,,,2,0,2,0,,,,,,,,,0,0,0,0,0,22,22,22,2,0,2,0,,,,,,,,,,,,,,,,,,,,,,,,,,,,,,,,,,,,,,,,,,,,,,,,,,,,,,,,,,,,,,,,30,,,,,,,,1244.6815678998828,1244.6815678998828,1244.6815678998828,1244.6815678998828,1244.6815678998828,right,0.37706160033121705,10,1,0,99,0.24,0.08,right,0.29997360054403543,,,,,,,,,,,,,,,,,,,,,,,,,,,,,,,,,,,,,,,,,,,,,,,,,,,,,,,,,,,,70EQCC,train_x,red_square,top_left,2025-04-30_16h41.33.197,HideSeek_v1,2022.2.5,60.008305156786115,
,2,6,7,6,5,0,66,,train_dim1_1,23,30,,,,2,0,2,0,,,,,,,,,0,0,0,0,0,22,22,22,3,0,3,0,,,,,,,,,,,,,,,,,,,,,,,,,,,,,,,,,,,,,,,,,,,,,,,,,,,,,,,,,,,,,,,,30,,,,,,,,1245.0663040000945,1245.0663040000945,1245.0663040000945,1245.0663040000945,1245.0663040000945,right,1.1769950999878347,10,1,0,99,0.32,0.08,right,1.0937297004275024,,,,,,,,,,,,,,,,,,,,,,,,,,,,,,,,,,,,,,,,,,,,,,,,,,,,,,,,,,,,70EQCC,train_x,red_square,top_left,2025-04-30_16h41.33.197,HideSeek_v1,2022.2.5,60.008305156786115,
,2,6,7,6,5,0,66,,train_dim1_1,23,30,,,,2,0,2,0,,,,,,,,,0,0,0,0,0,22,22,22,4,0,4,0,,,,,,,,,,,,,,,,,,,,,,,,,,,,,,,,,,,,,,,,,,,,,,,,,,,,,,,,,,,,,,,,30,,,,,,,,1246.251121299807,1246.251121299807,1246.251121299807,1246.251121299807,1246.251121299807,right,0.5938268001191318,10,1,0,99,0.4,0.08,right,0.5077551999129355,,,,,,,,,,,,,,,,,,,,,,,,,,,,,,,,,,,,,,,,,,,,,,,,,,,,,,,,,,,,70EQCC,train_x,red_square,top_left,2025-04-30_16h41.33.197,HideSeek_v1,2022.2.5,60.008305156786115,
,2,6,7,6,5,0,66,,train_dim1_1,23,30,,,,2,0,2,0,,,,,,,,,0,0,0,0,0,22,22,22,5,0,5,0,,,,,,,,,,,,,,,,,,,,,,,,,,,,,,,,,,,,,,,,,,,,,,,,,,,,,,,,,,,,,,,,30,,,,,,,,1246.8508318001404,1246.8508318001404,1246.8508318001404,1246.8508318001404,1246.8508318001404,return,0.25974310003221035,11,0,0,1,0.4,0.08,return,0.1832067002542317,-6,53,0.4,0.08,,,,,,,,,,,,,,,,,,,,,,,,,,,,,,,,,,,,,,,,,,,,,,,,,,,,,,,,70EQCC,train_x,red_square,top_left,2025-04-30_16h41.33.197,HideSeek_v1,2022.2.5,60.008305156786115,
,4,9,8,9,4,0,56,,train_dim1_1,24,30,,,,2,0,2,0,,,,,,,,,0,0,0,0,0,23,23,23,0,0,0,0,,,,,,,,,,,,,,,,,,,,,,,,,stimuli/alien_stimuli/56.png,,,,,,,,,,,,,,,,,,,,,,,,,,,,,stimuli/alien_stimuli/66.png,66,2,25,,,,,,,30,,,,,,,,1252.0692686997354,1252.0692686997354,1252.0692686997354,1252.0692686997354,1252.0692686997354,right,1.8562015001662076,11,0,0,99,0.24,0.32,right,1.7441517002880573,,,,,1250.4903099001385,1252.0692686997354,0.4,0.08,0.0,0.4,0.08,0.4,0.2,0.4,0.08,1248.6739513999783,1248.6739513999783,1248.6739513999783,1248.6739513999783,1248.6739513999783,1248.6739513999783,1248.6739513999783,1248.6739513999783,1248.6552386799826,1.9207294997759163,return,1.7957677999511361,,,,,,,,,,,,,,,,,,,,,,,,,,,,,,,,,70EQCC,train_x,red_square,top_left,2025-04-30_16h41.33.197,HideSeek_v1,2022.2.5,60.008305156786115,
,4,9,8,9,4,0,56,,train_dim1_1,24,30,,,,2,0,2,0,,,,,,,,,0,0,0,0,0,23,23,23,1,0,1,0,,,,,,,,,,,,,,,,,,,,,,,,,,,,,,,,,,,,,,,,,,,,,,,,,,,,,,,,,,,,,,,,30,,,,,,,,1253.9092681999318,1253.9092681999318,1253.9092681999318,1253.9092681999318,1253.9092681999318,right,0.4433039999566972,11,0,0,99,0.32,0.32,right,0.3638664004392922,,,,,,,,,,,,,,,,,,,,,,,,,,,,,,,,,,,,,,,,,,,,,,,,,,,,,,,,,,,,70EQCC,train_x,red_square,top_left,2025-04-30_16h41.33.197,HideSeek_v1,2022.2.5,60.008305156786115,
,4,9,8,9,4,0,56,,train_dim1_1,24,30,,,,2,0,2,0,,,,,,,,,0,0,0,0,0,23,23,23,2,0,2,0,,,,,,,,,,,,,,,,,,,,,,,,,,,,,,,,,,,,,,,,,,,,,,,,,,,,,,,,,,,,,,,,30,,,,,,,,1254.3587039001286,1254.3587039001286,1254.3587039001286,1254.3587039001286,1254.3587039001286,right,0.44329879991710186,11,0,0,99,0.4,0.32,right,0.3536215000785887,,,,,,,,,,,,,,,,,,,,,,,,,,,,,,,,,,,,,,,,,,,,,,,,,,,,,,,,,,,,70EQCC,train_x,red_square,top_left,2025-04-30_16h41.33.197,HideSeek_v1,2022.2.5,60.008305156786115,
,4,9,8,9,4,0,56,,train_dim1_1,24,30,,,,2,0,2,0,,,,,,,,,0,0,0,0,0,23,23,23,3,0,3,0,,,,,,,,,,,,,,,,,,,,,,,,,,,,,,,,,,,,,,,,,,,,,,,,,,,,,,,,,,,,,,,,30,,,,,,,,1254.809184699785,1254.809184699785,1254.809184699785,1254.809184699785,1254.809184699785,right,0.6936792000196874,11,0,0,99,0.48000000000000004,0.32,right,0.6134831001982093,,,,,,,,,,,,,,,,,,,,,,,,,,,,,,,,,,,,,,,,,,,,,,,,,,,,,,,,,,,,70EQCC,train_x,red_square,top_left,2025-04-30_16h41.33.197,HideSeek_v1,2022.2.5,60.008305156786115,
,4,9,8,9,4,0,56,,train_dim1_1,24,30,,,,2,0,2,0,,,,,,,,,0,0,0,0,0,23,23,23,4,0,4,0,,,,,,,,,,,,,,,,,,,,,,,,,,,,,,,,,,,,,,,,,,,,,,,,,,,,,,,,,,,,,,,,30,,,,,,,,1255.510331899859,1255.510331899859,1255.510331899859,1255.510331899859,1255.510331899859,right,0.4101338000036776,11,0,0,99,0.56,0.32,right,0.32799110002815723,,,,,,,,,,,,,,,,,,,,,,,,,,,,,,,,,,,,,,,,,,,,,,,,,,,,,,,,,,,,70EQCC,train_x,red_square,top_left,2025-04-30_16h41.33.197,HideSeek_v1,2022.2.5,60.008305156786115,
,4,9,8,9,4,0,56,,train_dim1_1,24,30,,,,2,0,2,0,,,,,,,,,0,0,0,0,0,23,23,23,5,0,5,0,,,,,,,,,,,,,,,,,,,,,,,,,,,,,,,,,,,,,,,,,,,,,,,,,,,,,,,,,,,,,,,,30,,,,,,,,1255.9266431001015,1255.9266431001015,1255.9266431001015,1255.9266431001015,1255.9266431001015,left,1.3946601999923587,11,0,0,99,0.48000000000000004,0.32,left,1.3198440000414848,,,,,,,,,,,,,,,,,,,,,,,,,,,,,,,,,,,,,,,,,,,,,,,,,,,,,,,,,,,,70EQCC,train_x,red_square,top_left,2025-04-30_16h41.33.197,HideSeek_v1,2022.2.5,60.008305156786115,
,4,9,8,9,4,0,56,,train_dim1_1,24,30,,,,2,0,2,0,,,,,,,,,0,0,0,0,0,23,23,23,6,0,6,0,,,,,,,,,,,,,,,,,,,,,,,,,,,,,,,,,,,,,,,,,,,,,,,,,,,,,,,,,,,,,,,,30,,,,,,,,1257.3291938998736,1257.3291938998736,1257.3291938998736,1257.3291938998736,1257.3291938998736,return,0.5931410999037325,12,0,0,1,0.48000000000000004,0.32,return,0.50902200024575,-6,57,0.48000000000000004,0.32,,,,,,,,,,,,,,,,,,,,,,,,,,,,,,,,,,,,,,,,,,,,,,,,,,,,,,,,70EQCC,train_x,red_square,top_left,2025-04-30_16h41.33.197,HideSeek_v1,2022.2.5,60.008305156786115,
,3,5,3,5,0,0,16,,train_dim1_1,25,30,,,,2,0,2,0,,,,,,,,,0,0,0,0,0,24,24,24,0,0,0,0,,,,,,,,,,,,,,,,,,,,,,,,,stimuli/alien_stimuli/16.png,,,,,,,,,,,,,,,,,,,,,,,,,,,,,stimuli/alien_stimuli/56.png,56,4,26,,,,,,,30,,,,,,,,1262.766425699927,1262.766425699927,1262.766425699927,1262.766425699927,1262.766425699927,return,1.3890366996638477,13,0,0,1,0.08,0,return,1.2727788002230227,-6,57,0.08,0,1261.1821182998829,1262.766425699927,0.48,0.32,0.0,0.32,0.32,0.48,0.32,0.48,0.32,1259.5021919999272,1259.5021919999272,1259.5021919999272,1259.5021919999272,1259.5021919999272,1259.5021919999272,1259.5021919999272,1259.5021919999272,1259.4810963101218,1.80362549982965,return,1.6554084001109004,,,,,,,,,,,,,,,,,,,,,,,,,,,,,,,,,70EQCC,train_x,red_square,top_left,2025-04-30_16h41.33.197,HideSeek_v1,2022.2.5,60.008305156786115,
,1,6,6,6,5,0,66,,train_dim1_1,26,30,,,,2,0,2,0,,,,,,,,,0,0,0,0,0,25,25,25,0,0,0,0,,,,,,,,,,,,,,,,,,,,,,,,,stimuli/alien_stimuli/66.png,,,,,,,,,,,,,,,,,,,,,,,,,,,,,stimuli/alien_stimuli/16.png,16,3,27,,,,,,,30,,,,,,,,1268.737320699729,1268.737320699729,1268.737320699729,1268.737320699729,1268.737320699729,right,0.7872975002974272,13,0,0,99,0.0,0.08,right,0.6951570003293455,,,,,1267.171045300085,1268.737320699729,0.08,0,0.0,0.0,0.0,0.08,0.08,0.08,0,1265.6945027997717,1265.6945027997717,1265.6945027997717,1265.6945027997717,1265.6945027997717,1265.6945027997717,1265.6945027997717,1265.6945027997717,1265.6861312101128,1.5873695998452604,return,1.45828349981457,,,,,,,,,,,,,,,,,,,,,,,,,,,,,,,,,70EQCC,train_x,red_square,top_left,2025-04-30_16h41.33.197,HideSeek_v1,2022.2.5,60.008305156786115,
,1,6,6,6,5,0,66,,train_dim1_1,26,30,,,,2,0,2,0,,,,,,,,,0,0,0,0,0,25,25,25,1,0,1,0,,,,,,,,,,,,,,,,,,,,,,,,,,,,,,,,,,,,,,,,,,,,,,,,,,,,,,,,,,,,,,,,30,,,,,,,,1269.5199028998613,1269.5199028998613,1269.5199028998613,1269.5199028998613,1269.5199028998613,right,0.37660649977624416,13,0,0,99,0.08,0.08,right,0.30267460038885474,,,,,,,,,,,,,,,,,,,,,,,,,,,,,,,,,,,,,,,,,,,,,,,,,,,,,,,,,,,,70EQCC,train_x,red_square,top_left,2025-04-30_16h41.33.197,HideSeek_v1,2022.2.5,60.008305156786115,
,1,6,6,6,5,0,66,,train_dim1_1,26,30,,,,2,0,2,0,,,,,,,,,0,0,0,0,0,25,25,25,2,0,2,0,,,,,,,,,,,,,,,,,,,,,,,,,,,,,,,,,,,,,,,,,,,,,,,,,,,,,,,,,,,,,,,,30,,,,,,,,1269.9029462998733,1269.9029462998733,1269.9029462998733,1269.9029462998733,1269.9029462998733,right,0.39317330019548535,13,0,0,99,0.16,0.08,right,0.3079174002632499,,,,,,,,,,,,,,,,,,,,,,,,,,,,,,,,,,,,,,,,,,,,,,,,,,,,,,,,,,,,70EQCC,train_x,red_square,top_left,2025-04-30_16h41.33.197,HideSeek_v1,2022.2.5,60.008305156786115,
,1,6,6,6,5,0,66,,train_dim1_1,26,30,,,,2,0,2,0,,,,,,,,,0,0,0,0,0,25,25,25,3,0,3,0,,,,,,,,,,,,,,,,,,,,,,,,,,,,,,,,,,,,,,,,,,,,,,,,,,,,,,,,,,,,,,,,30,,,,,,,,1270.3037777999416,1270.3037777999416,1270.3037777999416,1270.3037777999416,1270.3037777999416,right,1.2106082001700997,13,0,0,99,0.24,0.08,right,1.1218615001998842,,,,,,,,,,,,,,,,,,,,,,,,,,,,,,,,,,,,,,,,,,,,,,,,,,,,,,,,,,,,70EQCC,train_x,red_square,top_left,2025-04-30_16h41.33.197,HideSeek_v1,2022.2.5,60.008305156786115,
,1,6,6,6,5,0,66,,train_dim1_1,26,30,,,,2,0,2,0,,,,,,,,,0,0,0,0,0,25,25,25,4,0,4,0,,,,,,,,,,,,,,,,,,,,,,,,,,,,,,,,,,,,,,,,,,,,,,,,,,,,,,,,,,,,,,,,30,,,,,,,,1271.520894299727,1271.520894299727,1271.520894299727,1271.520894299727,1271.520894299727,return,0.6101491004228592,13,1,0,0,0.24,0.08,return,0.5368387005291879,-6,61,0.24,0.08,,,,,,,,,,,,,,,,,,,,,,,,,,,,,,,,,,,,,,,,,,,,,,,,,,,,,,,,70EQCC,train_x,red_square,top_left,2025-04-30_16h41.33.197,HideSeek_v1,2022.2.5,60.008305156786115,
,0,6,3,6,3,0,46,,train_dim1_1,27,30,,,,2,0,2,0,,,,,,,,,0,0,0,0,0,26,26,26,0,0,0,0,,,,,,,,,,,,,,,,,,,,,,,,,stimuli/alien_stimuli/46.png,,,,,,,,,,,,,,,,,,,,,,,,,,,,,stimuli/alien_stimuli/66.png,66,1,28,,,,,,,30,,,,,,,,1276.682851899881,1276.682851899881,1276.682851899881,1276.682851899881,1276.682851899881,right,0.6055276999250054,13,1,0,99,-0.08,0.08,right,0.5126473004929721,,,,,1275.1106110997498,1276.682851899881,0.32,0.08,0.0,0.4,0.08,0.32,0.12,0.32,0.08,1273.6928320997395,1273.6928320997395,1273.6928320997395,1273.6928320997395,1273.6928320997395,1273.6928320997395,1273.6928320997395,1273.6928320997395,1273.6760357799008,1.5201006000861526,return,1.3892862000502646,,,,,,,,,,,,,,,,,,,,,,,,,,,,,,,,,70EQCC,train_x,red_square,top_left,2025-04-30_16h41.33.197,HideSeek_v1,2022.2.5,60.008305156786115,
,0,6,3,6,3,0,46,,train_dim1_1,27,30,,,,2,0,2,0,,,,,,,,,0,0,0,0,0,26,26,26,1,0,1,0,,,,,,,,,,,,,,,,,,,,,,,,,,,,,,,,,,,,,,,,,,,,,,,,,,,,,,,,,,,,,,,,30,,,,,,,,1277.2821339000948,1277.2821339000948,1277.2821339000948,1277.2821339000948,1277.2821339000948,right,0.777048900257796,13,1,0,99,0.0,0.08,right,0.6936306999996305,,,,,,,,,,,,,,,,,,,,,,,,,,,,,,,,,,,,,,,,,,,,,,,,,,,,,,,,,,,,70EQCC,train_x,red_square,top_left,2025-04-30_16h41.33.197,HideSeek_v1,2022.2.5,60.008305156786115,
,0,6,3,6,3,0,46,,train_dim1_1,27,30,,,,2,0,2,0,,,,,,,,,0,0,0,0,0,26,26,26,2,0,2,0,,,,,,,,,,,,,,,,,,,,,,,,,,,,,,,,,,,,,,,,,,,,,,,,,,,,,,,,,,,,,,,,30,,,,,,,,1278.0600573997945,1278.0600573997945,1278.0600573997945,1278.0600573997945,1278.0600573997945,right,0.4601313997991383,13,1,0,99,0.08,0.08,right,0.37312080059200525,,,,,,,,,,,,,,,,,,,,,,,,,,,,,,,,,,,,,,,,,,,,,,,,,,,,,,,,,,,,70EQCC,train_x,red_square,top_left,2025-04-30_16h41.33.197,HideSeek_v1,2022.2.5,60.008305156786115,
,0,6,3,6,3,0,46,,train_dim1_1,27,30,,,,2,0,2,0,,,,,,,,,0,0,0,0,0,26,26,26,3,0,3,0,,,,,,,,,,,,,,,,,,,,,,,,,,,,,,,,,,,,,,,,,,,,,,,,,,,,,,,,,,,,,,,,30,,,,,,,,1278.5276620001532,1278.5276620001532,1278.5276620001532,1278.5276620001532,1278.5276620001532,return,0.8939247000962496,14,0,0,1,0.08,0.08,return,0.819042400456965,-6,64,0.08,0.08,,,,,,,,,,,,,,,,,,,,,,,,,,,,,,,,,,,,,,,,,,,,,,,,,,,,,,,,70EQCC,train_x,red_square,top_left,2025-04-30_16h41.33.197,HideSeek_v1,2022.2.5,60.008305156786115,
,3,6,4,6,1,0,26,,train_dim1_1,28,30,,,,2,0,2,0,,,,,,,,,0,0,0,0,0,27,27,27,0,0,0,0,,,,,,,,,,,,,,,,,,,,,,,,,stimuli/alien_stimuli/26.png,,,,,,,,,,,,,,,,,,,,,,,,,,,,,stimuli/alien_stimuli/46.png,46,0,29,,,,,,,30,,,,,,,,1283.7486184998415,1283.7486184998415,1283.7486184998415,1283.7486184998415,1283.7486184998415,right,2.5070143998600543,14,0,0,99,0.16,0.08,right,2.4063695003278553,,,,,1282.1829673000611,1283.7486184998415,0.08,0.08,0.0,0.24,0.08,0.08,-0.04,0.08,0.08,1280.9855047999881,1280.9855047999881,1280.9855047999881,1280.9855047999881,1280.9855047999881,1280.9855047999881,1280.9855047999881,1280.9855047999881,1280.9654745798557,1.3031466002576053,return,1.1748395999893546,,,,,,,,,,,,,,,,,,,,,,,,,,,,,,,,,70EQCC,train_x,red_square,top_left,2025-04-30_16h41.33.197,HideSeek_v1,2022.2.5,60.008305156786115,
,3,6,4,6,1,0,26,,train_dim1_1,28,30,,,,2,0,2,0,,,,,,,,,0,0,0,0,0,27,27,27,1,0,1,0,,,,,,,,,,,,,,,,,,,,,,,,,,,,,,,,,,,,,,,,,,,,,,,,,,,,,,,,,,,,,,,,30,,,,,,,,1286.2634580000304,1286.2634580000304,1286.2634580000304,1286.2634580000304,1286.2634580000304,return,0.7547806999646127,15,0,0,1,0.16,0.08,return,0.6685777003876865,-6,65,0.16,0.08,,,,,,,,,,,,,,,,,,,,,,,,,,,,,,,,,,,,,,,,,,,,,,,,,,,,,,,,70EQCC,train_x,red_square,top_left,2025-04-30_16h41.33.197,HideSeek_v1,2022.2.5,60.008305156786115,
,4,5,8,5,4,0,56,,train_dim1_1,29,30,,,,2,0,2,0,,,,,,,,,0,0,0,0,0,28,28,28,0,0,0,0,,,,,,,,,,,,,,,,,,,,,,,,,stimuli/alien_stimuli/56.png,,,,,,,,,,,,,,,,,,,,,,,,,,,,,stimuli/alien_stimuli/26.png,26,3,30,,,,,,,30,,,,,,,,1291.3236136999913,1291.3236136999913,1291.3236136999913,1291.3236136999913,1291.3236136999913,right,0.8708051997236907,15,0,0,99,0.24,0,right,0.7525076004676521,,,,,1289.7394014000893,1291.3236136999913,0.16,0.08,0.0,0.08,0.08,0.16,0.12,0.16,0.08,1288.5800675000064,1288.5800675000064,1288.5800675000064,1288.5800675000064,1288.5800675000064,1288.5800675000064,1288.5800675000064,1288.5800675000064,1288.5717737097757,1.269837100058794,return,1.1410061004571617,,,,,,,,,,,,,,,,,,,,,,,,,,,,,,,,,70EQCC,train_x,red_square,top_left,2025-04-30_16h41.33.197,HideSeek_v1,2022.2.5,60.008305156786115,
,4,5,8,5,4,0,56,,train_dim1_1,29,30,,,,2,0,2,0,,,,,,,,,0,0,0,0,0,28,28,28,1,0,1,0,,,,,,,,,,,,,,,,,,,,,,,,,,,,,,,,,,,,,,,,,,,,,,,,,,,,,,,,,,,,,,,,30,,,,,,,,1292.1741959997453,1292.1741959997453,1292.1741959997453,1292.1741959997453,1292.1741959997453,right,0.3094730000011623,15,0,0,99,0.32,0,right,0.22229630034416914,,,,,,,,,,,,,,,,,,,,,,,,,,,,,,,,,,,,,,,,,,,,,,,,,,,,,,,,,,,,70EQCC,train_x,red_square,top_left,2025-04-30_16h41.33.197,HideSeek_v1,2022.2.5,60.008305156786115,
,4,5,8,5,4,0,56,,train_dim1_1,29,30,,,,2,0,2,0,,,,,,,,,0,0,0,0,0,28,28,28,2,0,2,0,,,,,,,,,,,,,,,,,,,,,,,,,,,,,,,,,,,,,,,,,,,,,,,,,,,,,,,,,,,,,,,,30,,,,,,,,1292.4906607000157,1292.4906607000157,1292.4906607000157,1292.4906607000157,1292.4906607000157,right,0.360351599752903,15,0,0,99,0.4,0,right,0.2755774003453553,,,,,,,,,,,,,,,,,,,,,,,,,,,,,,,,,,,,,,,,,,,,,,,,,,,,,,,,,,,,70EQCC,train_x,red_square,top_left,2025-04-30_16h41.33.197,HideSeek_v1,2022.2.5,60.008305156786115,
,4,5,8,5,4,0,56,,train_dim1_1,29,30,,,,2,0,2,0,,,,,,,,,0,0,0,0,0,28,28,28,3,0,3,0,,,,,,,,,,,,,,,,,,,,,,,,,,,,,,,,,,,,,,,,,,,,,,,,,,,,,,,,,,,,,,,,30,,,,,,,,1292.8582794000395,1292.8582794000395,1292.8582794000395,1292.8582794000395,1292.8582794000395,right,0.392881500069052,15,0,0,99,0.48000000000000004,0,right,0.3183022001758218,,,,,,,,,,,,,,,,,,,,,,,,,,,,,,,,,,,,,,,,,,,,,,,,,,,,,,,,,,,,70EQCC,train_x,red_square,top_left,2025-04-30_16h41.33.197,HideSeek_v1,2022.2.5,60.008305156786115,
,4,5,8,5,4,0,56,,train_dim1_1,29,30,,,,2,0,2,0,,,,,,,,,0,0,0,0,0,28,28,28,4,0,4,0,,,,,,,,,,,,,,,,,,,,,,,,,,,,,,,,,,,,,,,,,,,,,,,,,,,,,,,,,,,,,,,,30,,,,,,,,1293.2575535997748,1293.2575535997748,1293.2575535997748,1293.2575535997748,1293.2575535997748,right,0.3267624001018703,15,0,0,99,0.56,0,right,0.24953240063041449,,,,,,,,,,,,,,,,,,,,,,,,,,,,,,,,,,,,,,,,,,,,,,,,,,,,,,,,,,,,70EQCC,train_x,red_square,top_left,2025-04-30_16h41.33.197,HideSeek_v1,2022.2.5,60.008305156786115,
,4,5,8,5,4,0,56,,train_dim1_1,29,30,,,,2,0,2,0,,,,,,,,,0,0,0,0,0,28,28,28,5,0,5,0,,,,,,,,,,,,,,,,,,,,,,,,,,,,,,,,,,,,,,,,,,,,,,,,,,,,,,,,,,,,,,,,30,,,,,,,,1293.5913045997731,1293.5913045997731,1293.5913045997731,1293.5913045997731,1293.5913045997731,return,0.46017679991200566,15,1,0,0,0.56,0,return,0.3844305002130568,-6,70,0.56,0,,,,,,,,,,,,,,,,,,,,,,,,,,,,,,,,,,,,,,,,,,,,,,,,,,,,,,,,70EQCC,train_x,red_square,top_left,2025-04-30_16h41.33.197,HideSeek_v1,2022.2.5,60.008305156786115,
,2,7,2,7,0,0,16,,train_dim1_1,30,30,,,,2,0,2,0,,,,,,,,,0,0,0,0,0,29,29,29,0,0,0,0,,,,,,,,,,,,,,,,,,,,,,,,,stimuli/alien_stimuli/16.png,,,,,,,,,,,,,,,,,,,,,,,,,,,,,stimuli/alien_stimuli/56.png,56,4,31,,,,,,,30,,,,,,,,1298.710376500152,1298.710376500152,1298.710376500152,1298.710376500152,1298.710376500152,return,1.4903351999819279,16,0,0,1,0,0.16,return,1.3719873004592955,-6,70,0,0.16,1297.1289782999083,1298.710376500152,0.48,0,0.0,0.32,0.0,0.48,0.32,0.48,0,1295.6176356999204,1295.6176356999204,1295.6176356999204,1295.6176356999204,1295.6176356999204,1295.6176356999204,1295.6176356999204,1295.6176356999204,1295.5943678798153,1.6199769000522792,return,1.4882237003184855,,,,,,,,,,,,,,,,,,,,,,,,,,,,,,,,,70EQCC,train_x,red_square,top_left,2025-04-30_16h41.33.197,HideSeek_v1,2022.2.5,60.008305156786115,
,,,,,,,,,,,30,,,,2,0,2,0,,,,,,,,,,,,,,,,,,,,,,,,,,,,,,,,,,,,,,,,,,,,,,,,,,,,,,,,,,,,,,,,,,,,,,,,,,stimuli/alien_stimuli/16.png,16,2,32,21,0.7,0.6666666666666667,1,1,1,30,0,conditions/schedules/train_x_first/red_square_00/top_left/inputTrain_2.1.xlsx,99,1,2,1,0,,,,,,,,,,,1,,,,,,,,,1302.1330347000621,1303.6765310997143,0,0.16,0.0,0.0,0.16,0,0.0,0,0.16,1301.7425254997797,1301.7425254997797,1301.7425254997797,1301.7425254997797,1301.7425254997797,1301.7425254997797,1301.7425254997797,1301.7425254997797,1301.7328365101012,0.5023260000161827,return,0.3693506005220115,0,0.9,0,1,16,,,,,,,,,,,,,,,,,,,,,,,,,,,,70EQCC,train_x,red_square,top_left,2025-04-30_16h41.33.197,HideSeek_v1,2022.2.5,60.008305156786115,
,,,,,,,,,,,,,,,3,0,3,0,0,0,0,0,,,,,,,,,,,,,,,,,,,,,,,,,,,,,,,conditions/schedules/train_x_first/red_square_00/top_left/instructions/Slide17.png,conditions/schedules/train_x_first/red_square_00/top_left/instructions/Audio17.wav,1303.6765310997143,1303.667631189758,17,"[5.929828600026667, 18.346618799958378, 16.527703799773008, 19.33270960021764, 4.304115999955684, 4.559014600235969, 5.481294599827379, 11.654722800012678, 6.1396510996855795, 6.703031899873167, 9.741061500273645, 12.504279700107872, 18.915636100340635, 12.71233019977808, 29.785637699998915, 21.722145000007004, 140.65543550020084]","[5.929836300201714, 0.0485764998011291, 0.0002084001898765564, 0.033984600100666285, 0.0663803000934422, 0.0487359999679029, 0.06292790034785867, 0.03392349975183606, 0.03101519960910082, 0.0326558998785913, 0.04721410013735294, 12.504286699928343, 0.00023580016568303108, 12.712337499950081, 0.05371219990774989, 21.72215319983661, 140.6554431002587]",0,,,,,,,,,,,,,,,,,,,,,,,,,,,,,,,,,,,,,,,,,,,,,,,,,,,,,,,,,,,,,,,,,,,,,,,,,,,,,,,,,,,,,,,,,,,,,,,,,,,,,,,,,,,,,,,,,,,,,,,,,,,,70EQCC,train_x,red_square,top_left,2025-04-30_16h41.33.197,HideSeek_v1,2022.2.5,60.008305156786115,
,,,,,,,,,,,,,,,3,0,3,0,1,0,1,0,,,,,,,,,,,,,,,,,,,,,,,,,,,,,,,conditions/schedules/train_x_first/red_square_00/top_left/instructions/Slide18.png,conditions/schedules/train_x_first/red_square_00/top_left/instructions/Audio18.wav,1444.4007381000556,1444.4012776499148,18,"[5.929828600026667, 18.346618799958378, 16.527703799773008, 19.33270960021764, 4.304115999955684, 4.559014600235969, 5.481294599827379, 11.654722800012678, 6.1396510996855795, 6.703031899873167, 9.741061500273645, 12.504279700107872, 18.915636100340635, 12.71233019977808, 29.785637699998915, 21.722145000007004, 140.65543550020084, 8.271237100008875]","[5.929836300201714, 0.0485764998011291, 0.0002084001898765564, 0.033984600100666285, 0.0663803000934422, 0.0487359999679029, 0.06292790034785867, 0.03392349975183606, 0.03101519960910082, 0.0326558998785913, 0.04721410013735294, 12.504286699928343, 0.00023580016568303108, 12.712337499950081, 0.05371219990774989, 21.72215319983661, 140.6554431002587, 8.271246199961752]",0,,,,,,,,,,,,,,,,,,,,,,,,,,,,,,,,,,,,,,,,,,,,,,,,,,,,,,,,,,,,,,,,,,,,,,,,,,,,,,,,,,,,,,,,,,,,,,,,,,,,,,,,,,,,,,,,,,,,,,,,,,,,70EQCC,train_x,red_square,top_left,2025-04-30_16h41.33.197,HideSeek_v1,2022.2.5,60.008305156786115,
,,,,,,,,,,,,,,,3,0,3,0,2,0,2,0,,,,,,,,,,,,,,,,,,,,,,,,,,,,,,,conditions/schedules/train_x_first/red_square_00/top_left/instructions/Slide19.png,conditions/schedules/train_x_first/red_square_00/top_left/instructions/Audio19.wav,1452.7331459000707,1452.724778719805,19,"[5.929828600026667, 18.346618799958378, 16.527703799773008, 19.33270960021764, 4.304115999955684, 4.559014600235969, 5.481294599827379, 11.654722800012678, 6.1396510996855795, 6.703031899873167, 9.741061500273645, 12.504279700107872, 18.915636100340635, 12.71233019977808, 29.785637699998915, 21.722145000007004, 140.65543550020084, 8.271237100008875, 12.299201299902052]","[5.929836300201714, 0.0485764998011291, 0.0002084001898765564, 0.033984600100666285, 0.0663803000934422, 0.0487359999679029, 0.06292790034785867, 0.03392349975183606, 0.03101519960910082, 0.0326558998785913, 0.04721410013735294, 12.504286699928343, 0.00023580016568303108, 12.712337499950081, 0.05371219990774989, 21.72215319983661, 140.6554431002587, 8.271246199961752, 12.299208599608392]",0,,,,,,,,,,,,,,,,,,,,,,,,,,,,,,,,,,,,,,,,,,,,,,,,,,,,,,,,,,,,,,,,,,,,,,,,,,,,,,,,,,,,,,,,,,,,,,,,,,,,,,,,,,,,,,,,,,,,,,,,,,,,70EQCC,train_x,red_square,top_left,2025-04-30_16h41.33.197,HideSeek_v1,2022.2.5,60.008305156786115,
,,,,,,,,,,,,,,,3,0,3,0,3,0,3,0,,,,,,,,,,,,,,,,,,,,,,,,,,,,,,,conditions/schedules/train_x_first/red_square_00/top_left/instructions/Slide20.png,conditions/schedules/train_x_first/red_square_00/top_left/instructions/Audio20.wav,1465.1054536998272,1465.1017288498115,20,"[5.929828600026667, 18.346618799958378, 16.527703799773008, 19.33270960021764, 4.304115999955684, 4.559014600235969, 5.481294599827379, 11.654722800012678, 6.1396510996855795, 6.703031899873167, 9.741061500273645, 12.504279700107872, 18.915636100340635, 12.71233019977808, 29.785637699998915, 21.722145000007004, 140.65543550020084, 8.271237100008875, 12.299201299902052, 13.405033899936825]","[5.929836300201714, 0.0485764998011291, 0.0002084001898765564, 0.033984600100666285, 0.0663803000934422, 0.0487359999679029, 0.06292790034785867, 0.03392349975183606, 0.03101519960910082, 0.0326558998785913, 0.04721410013735294, 12.504286699928343, 0.00023580016568303108, 12.712337499950081, 0.05371219990774989, 21.72215319983661, 140.6554431002587, 8.271246199961752, 0.013946900144219398, 13.405040999874473]",0,,,,,,,,,,,,,,,,,,,,,,,,,,,,,,,,,,,,,,,,,,,,,,,,,,,,,,,,,,,,,,,,,,,,,,,,,,,,,,,,,,,,,,,,,,,,,,,,,,,,,,,,,,,,,,,,,,,,,,,,,,,,70EQCC,train_x,red_square,top_left,2025-04-30_16h41.33.197,HideSeek_v1,2022.2.5,60.008305156786115,
1,2,8,2,3,0,-5,11,2,instr_dim1_2,,,,,,3,0,3,0,,,,,0,0,0,0,,,,,,,,,,,,,,,,,,,,,,,,,,,,,,,,,,,,,stimuli/alien_stimuli/11.png,conditions/schedules/train_x_first/red_square_00/top_left/inputInstr_2.xlsx,stimuli/alien_stimuli/11.png,1478.5956974998116,1478.5956974998116,1478.5956974998116,1478.5956974998116,1478.5964618799276,return,8.934481000062078,"[-0.16, -0.08, 0, 0.08, 0.16, 0.24, 0.32, 0.4, 0.48, 0.56]","[-0.4, -0.32, -0.24, -0.16, -0.08, 0, 0.08, 0.16, 0.24, 0.32]",3,8,2,2,0.4,0.0,1487.7018308998086,1487.7018308998086,1487.7018308998086,1487.7018308998086,1487.7018308998086,1487.7018308998086,1487.7018308998086,1487.6872959699015,8.057716799899936,return,7.887737300246954,stimuli/alien_stimuli/11.png,11,2,1,,,,,,,,,,,,,,,,,,,,,,,,,,,,,,,,,,,,,,,,,,,,,,,,,,,,,,,,,,,,,,,,,,,,,,,,,,,,,,,,,,,,,,,,,70EQCC,train_x,red_square,top_left,2025-04-30_16h41.33.197,HideSeek_v1,2022.2.5,60.008305156786115,
,,,,,,,,,,,30,,,,3,0,3,0,,,,,,,,,,,,,,,,,,,,,,,,,,,,,,,,,,,,,,,,,,,,,,,,,,,,,,,,,,,,,,,,,,,,,,,,,,,,,,21,0.7,0.6666666666666667,1,99,2,30,0,conditions/schedules/train_x_first/red_square_00/top_left/inputTrain_2.1.xlsx,99,1,2,1,0,,,,,,,,,,,,,,,,,,,,,,,,,,,,,,,,,,,,,,,,,,,,,,,,,,,,,,,,,,,,,,,,,,,,,,,,,,,70EQCC,train_x,red_square,top_left,2025-04-30_16h41.33.197,HideSeek_v1,2022.2.5,60.008305156786115,
,,,,,,,,,,,,,,,4,0,4,0,0,0,0,0,,,,,,,,,,,,,,,,,,,,,,,,,,,,,,,conditions/schedules/train_x_first/red_square_00/top_left/instructions/Slide21.png,conditions/schedules/train_x_first/red_square_00/top_left/instructions/Audio21.wav,1495.7640450997278,1495.7606919999234,21,"[5.929828600026667, 18.346618799958378, 16.527703799773008, 19.33270960021764, 4.304115999955684, 4.559014600235969, 5.481294599827379, 11.654722800012678, 6.1396510996855795, 6.703031899873167, 9.741061500273645, 12.504279700107872, 18.915636100340635, 12.71233019977808, 29.785637699998915, 21.722145000007004, 140.65543550020084, 8.271237100008875, 12.299201299902052, 13.405033899936825, 16.50742319971323]","[5.929836300201714, 0.0485764998011291, 0.0002084001898765564, 0.033984600100666285, 0.0663803000934422, 0.0487359999679029, 0.06292790034785867, 0.03392349975183606, 0.03101519960910082, 0.0326558998785913, 0.04721410013735294, 12.504286699928343, 0.00023580016568303108, 12.712337499950081, 0.05371219990774989, 21.72215319983661, 140.6554431002587, 8.271246199961752, 0.013946900144219398, 13.405040999874473, 16.50743499957025]",0,,,,,,,,,,,,,,,,,,,,,,,,,,,,,,,,,,,,,,,,,,,,,,,,,,,,,,,,,,,,,,,,,,,,,,,,,,,,,,,,,,,,,,,,,,,,,,,,,,,,,,,,,,,,,,,,,,,,,,,,,,,,70EQCC,train_x,red_square,top_left,2025-04-30_16h41.33.197,HideSeek_v1,2022.2.5,60.008305156786115,
2,0,8,0,8,0,0,16,2,instr_dim1_2,,,,,,4,0,4,0,,,,,0,0,0,0,,,,,,,,,,,,,,,,,,,,,,,,,,,,,,,,,,,,,stimuli/alien_stimuli/16.png,conditions/schedules/train_x_first/red_square_00/top_left/inputInstr_2.xlsx,stimuli/alien_stimuli/16.png,1512.3711550999433,1512.3711550999433,1512.3711550999433,1512.3711550999433,1512.3743405100422,return,6.190793100278825,"[-0.16, -0.08, 0, 0.08, 0.16, 0.24, 0.32, 0.4, 0.48, 0.56]","[-0.4, -0.32, -0.24, -0.16, -0.08, 0, 0.08, 0.16, 0.24, 0.32]",8,8,0,0,0.0,0.0,1518.7055922998115,1518.7055922998115,1518.7055922998115,1518.7055922998115,1518.7055922998115,1518.7055922998115,1518.7055922998115,1518.6963084397837,7.823944099713117,return,7.665318199899048,stimuli/alien_stimuli/16.png,16,0,2,,,,,,,,,,,,,,,,,,,,,,,,,,,,,,,,,,,,,,,,,,,,,,,,,,,,,,,,,,,,,,,,,,,,,,,,,,,,,,,,,,,,,,,,,70EQCC,train_x,red_square,top_left,2025-04-30_16h41.33.197,HideSeek_v1,2022.2.5,60.008305156786115,
,,,,,,,,,,,30,,,,4,0,4,0,,,,,,,,,,,,,,,,,,,,,,,,,,,,,,,,,,,,,,,,,,,,,,,,,,,,,,,,,,,,,,,,,,,,,,,,,,,,,,21,0.7,0.6666666666666667,1,99,2,30,0,conditions/schedules/train_x_first/red_square_00/top_left/inputTrain_2.1.xlsx,99,1,2,1,0,,,,,,,,,,,,,,,,,,,,,,,,,,,,,,,,,,,,,,,,,,,,,,,,,,,,,,,,,,,,,,,,,,,,,,,,,,,70EQCC,train_x,red_square,top_left,2025-04-30_16h41.33.197,HideSeek_v1,2022.2.5,60.008305156786115,
,,,,,,,,,,,,,,,5,0,5,0,0,0,0,0,,,,,,,,,,,,,,,,,,,,,,,,,,,,,,,conditions/schedules/train_x_first/red_square_00/top_left/instructions/Slide22.png,conditions/schedules/train_x_first/red_square_00/top_left/instructions/Audio22.wav,1526.5561293000355,1526.5528210001066,22,"[5.929828600026667, 18.346618799958378, 16.527703799773008, 19.33270960021764, 4.304115999955684, 4.559014600235969, 5.481294599827379, 11.654722800012678, 6.1396510996855795, 6.703031899873167, 9.741061500273645, 12.504279700107872, 18.915636100340635, 12.71233019977808, 29.785637699998915, 21.722145000007004, 140.65543550020084, 8.271237100008875, 12.299201299902052, 13.405033899936825, 16.50742319971323, 42.99704259959981]","[5.929836300201714, 0.0485764998011291, 0.0002084001898765564, 0.033984600100666285, 0.0663803000934422, 0.0487359999679029, 0.06292790034785867, 0.03392349975183606, 0.03101519960910082, 0.0326558998785913, 0.04721410013735294, 12.504286699928343, 0.00023580016568303108, 12.712337499950081, 0.05371219990774989, 21.72215319983661, 140.6554431002587, 8.271246199961752, 0.013946900144219398, 13.405040999874473, 16.50743499957025, 42.99705039989203]",0,,,,,,,,,,,,,,,,,,,,,,,,,,,,,,,,,,,,,,,,,,,,,,,,,,,,,,,,,,,,,,,,,,,,,,,,,,,,,,,,,,,,,,,,,,,,,,,,,,,,,,,,,,,,,,,,,,,,,,,,,,,,70EQCC,train_x,red_square,top_left,2025-04-30_16h41.33.197,HideSeek_v1,2022.2.5,60.008305156786115,
,0,5,0,4,0,-1,15,,train_dim1_2,1,30,,,,5,0,5,0,,,,,,,,,0,0,0,0,0,0,0,0,0,0,0,0,,,,,,,,,,,,,,,,,,,,,,,,,stimuli/alien_stimuli/15.png,,,,,,,,,,,,,,,,,,,,,,,,,,,,,,,,,,,,,,,30,,,,,,,,1569.6537601999007,1569.6537601999007,1569.6537601999007,1569.6537601999007,1569.6537601999007,return,5.664509600028396,0,1,0,0,-0.16,0,return,5.566623200196773,-6,70,-0.16,0,,,,,,,,,,,,,,,,,,,,,,,,,,,,,,,,,,,,,,,,,,,,,,,,,,,,,,,,70EQCC,train_x,red_square,top_left,2025-04-30_16h41.33.197,HideSeek_v1,2022.2.5,60.008305156786115,
,3,7,3,7,0,0,16,,train_dim1_2,2,30,,,,5,0,5,0,,,,,,,,,0,0,0,0,0,1,1,1,0,0,0,0,,,,,,,,,,,,,,,,,,,,,,,,,stimuli/alien_stimuli/16.png,,,,,,,,,,,,,,,,,,,,,,,,,,,,,stimuli/alien_stimuli/15.png,15,0,3,,,,,,,30,,,,,,,,1581.0703146001324,1581.0703146001324,1581.0703146001324,1581.0703146001324,1581.0703146001324,return,2.0242654997855425,1,0,0,1,0.08,0.16,return,1.9358916003257036,-6,70,0.08,0.16,1579.5135166998953,1581.0703146001324,-0.16,-0.08,0.08,0.0,-0.04,-0.16,-0.16,-0.16,-0.08,1576.8759192000143,1576.8759192000143,1576.8759192000143,1576.8759192000143,1576.8759192000143,1576.8759192000143,1576.8759192000143,1576.8759192000143,1576.8613393097648,2.754449399653822,return,2.6055932003073394,,,,,,,,,,,,,,,,,,,,,,,,,,,,,,,,,70EQCC,train_x,red_square,top_left,2025-04-30_16h41.33.197,HideSeek_v1,2022.2.5,60.008305156786115,
,2,8,2,5,0,-3,13,,train_dim1_2,3,30,,,,5,0,5,0,,,,,,,,,0,0,0,0,0,2,2,2,0,0,0,0,,,,,,,,,,,,,,,,,,,,,,,,,stimuli/alien_stimuli/13.png,,,,,,,,,,,,,,,,,,,,,,,,,,,,,stimuli/alien_stimuli/16.png,16,3,4,,,,,,,30,,,,,,,,1587.687375599984,1587.687375599984,1587.687375599984,1587.687375599984,1587.687375599984,down,2.89183839969337,1,0,0,99,0,0.15999999999999998,down,2.793686400167644,,,,,1586.118994699791,1587.687375599984,0.08,0.16,0.0,0.0,0.16,0.08,0.08,0.08,0.16,1584.6497097997926,1584.6497097997926,1584.6497097997926,1584.6497097997926,1584.6497097997926,1584.6497097997926,1584.6497097997926,1584.6497097997926,1584.6510805101598,1.5700674001127481,return,1.4414380001835525,,,,,,,,,,,,,,,,,,,,,,,,,,,,,,,,,70EQCC,train_x,red_square,top_left,2025-04-30_16h41.33.197,HideSeek_v1,2022.2.5,60.008305156786115,
,2,8,2,5,0,-3,13,,train_dim1_2,3,30,,,,5,0,5,0,,,,,,,,,0,0,0,0,0,2,2,2,1,0,1,0,,,,,,,,,,,,,,,,,,,,,,,,,,,,,,,,,,,,,,,,,,,,,,,,,,,,,,,,,,,,,,,,30,,,,,,,,1590.5817832001485,1590.5817832001485,1590.5817832001485,1590.5817832001485,1590.5817832001485,down,0.4715824997983873,1,0,0,99,0,0.07999999999999997,down,0.3899756004102528,,,,,,,,,,,,,,,,,,,,,,,,,,,,,,,,,,,,,,,,,,,,,,,,,,,,,,,,,,,,70EQCC,train_x,red_square,top_left,2025-04-30_16h41.33.197,HideSeek_v1,2022.2.5,60.008305156786115,
,2,8,2,5,0,-3,13,,train_dim1_2,3,30,,,,5,0,5,0,,,,,,,,,0,0,0,0,0,2,2,2,2,0,2,0,,,,,,,,,,,,,,,,,,,,,,,,,,,,,,,,,,,,,,,,,,,,,,,,,,,,,,,,,,,,,,,,30,,,,,,,,1591.0567290000618,1591.0567290000618,1591.0567290000618,1591.0567290000618,1591.0567290000618,down,0.9102755999192595,1,0,0,99,0,-2.7755575615628914e-17,down,0.818280900362879,,,,,,,,,,,,,,,,,,,,,,,,,,,,,,,,,,,,,,,,,,,,,,,,,,,,,,,,,,,,70EQCC,train_x,red_square,top_left,2025-04-30_16h41.33.197,HideSeek_v1,2022.2.5,60.008305156786115,
,2,8,2,5,0,-3,13,,train_dim1_2,3,30,,,,5,0,5,0,,,,,,,,,0,0,0,0,0,2,2,2,3,0,3,0,,,,,,,,,,,,,,,,,,,,,,,,,,,,,,,,,,,,,,,,,,,,,,,,,,,,,,,,,,,,,,,,30,,,,,,,,1591.9738682997413,1591.9738682997413,1591.9738682997413,1591.9738682997413,1591.9738682997413,return,0.4269595998339355,2,0,0,1,0,-2.7755575615628914e-17,return,0.34034480014815927,-9,70,0,-2.7755575615628914e-17,,,,,,,,,,,,,,,,,,,,,,,,,,,,,,,,,,,,,,,,,,,,,,,,,,,,,,,,70EQCC,train_x,red_square,top_left,2025-04-30_16h41.33.197,HideSeek_v1,2022.2.5,60.008305156786115,
,0,6,0,2,0,-4,12,,train_dim1_2,4,30,,,,5,0,5,0,,,,,,,,,0,0,0,0,0,3,3,3,0,0,0,0,,,,,,,,,,,,,,,,,,,,,,,,,stimuli/alien_stimuli/12.png,,,,,,,,,,,,,,,,,,,,,,,,,,,,,stimuli/alien_stimuli/13.png,13,2,5,,,,,,,30,,,,,,,,1597.0248895999976,1597.0248895999976,1597.0248895999976,1597.0248895999976,1597.0248895999976,down,3.3331744000315666,2,0,0,99,-0.16,0.0,down,3.2505687000229955,,,,,1595.4600329999812,1597.0248895999976,0,0,0.24,0.0,0.12,0,0.0,0,0,1593.9603256997652,1593.9603256997652,1593.9603256997652,1593.9603256997652,1593.9603256997652,1593.9603256997652,1593.9603256997652,1593.9603256997652,1593.9589171098078,1.603396899998188,return,1.4777611000463367,,,,,,,,,,,,,,,,,,,,,,,,,,,,,,,,,70EQCC,train_x,red_square,top_left,2025-04-30_16h41.33.197,HideSeek_v1,2022.2.5,60.008305156786115,
,0,6,0,2,0,-4,12,,train_dim1_2,4,30,,,,5,0,5,0,,,,,,,,,0,0,0,0,0,3,3,3,1,0,1,0,,,,,,,,,,,,,,,,,,,,,,,,,,,,,,,,,,,,,,,,,,,,,,,,,,,,,,,,,,,,,,,,30,,,,,,,,1600.3650333001278,1600.3650333001278,1600.3650333001278,1600.3650333001278,1600.3650333001278,down,0.40956309996545315,2,0,0,99,-0.16,-0.08,down,0.3322560004889965,,,,,,,,,,,,,,,,,,,,,,,,,,,,,,,,,,,,,,,,,,,,,,,,,,,,,,,,,,,,70EQCC,train_x,red_square,top_left,2025-04-30_16h41.33.197,HideSeek_v1,2022.2.5,60.008305156786115,
,0,6,0,2,0,-4,12,,train_dim1_2,4,30,,,,5,0,5,0,,,,,,,,,0,0,0,0,0,3,3,3,2,0,2,0,,,,,,,,,,,,,,,,,,,,,,,,,,,,,,,,,,,,,,,,,,,,,,,,,,,,,,,,,,,,,,,,30,,,,,,,,1600.7814314998686,1600.7814314998686,1600.7814314998686,1600.7814314998686,1600.7814314998686,down,2.52865290036425,2,0,0,99,-0.16,-0.16,down,2.4389541000127792,,,,,,,,,,,,,,,,,,,,,,,,,,,,,,,,,,,,,,,,,,,,,,,,,,,,,,,,,,,,70EQCC,train_x,red_square,top_left,2025-04-30_16h41.33.197,HideSeek_v1,2022.2.5,60.008305156786115,
,0,6,0,2,0,-4,12,,train_dim1_2,4,30,,,,5,0,5,0,,,,,,,,,0,0,0,0,0,3,3,3,3,0,3,0,,,,,,,,,,,,,,,,,,,,,,,,,,,,,,,,,,,,,,,,,,,,,,,,,,,,,,,,,,,,,,,,30,,,,,,,,1603.3173410999589,1603.3173410999589,1603.3173410999589,1603.3173410999589,1603.3173410999589,down,0.3265569000504911,2,0,0,99,-0.16,-0.24,down,0.23743860004469752,,,,,,,,,,,,,,,,,,,,,,,,,,,,,,,,,,,,,,,,,,,,,,,,,,,,,,,,,,,,70EQCC,train_x,red_square,top_left,2025-04-30_16h41.33.197,HideSeek_v1,2022.2.5,60.008305156786115,
,0,6,0,2,0,-4,12,,train_dim1_2,4,30,,,,5,0,5,0,,,,,,,,,0,0,0,0,0,3,3,3,4,0,4,0,,,,,,,,,,,,,,,,,,,,,,,,,,,,,,,,,,,,,,,,,,,,,,,,,,,,,,,,,,,,,,,,30,,,,,,,,1603.651043099817,1603.651043099817,1603.651043099817,1603.651043099817,1603.651043099817,return,0.22682199999690056,3,0,0,1,-0.16,-0.24,return,0.14121989998966455,-13,70,-0.16,-0.24,,,,,,,,,,,,,,,,,,,,,,,,,,,,,,,,,,,,,,,,,,,,,,,,,,,,,,,,70EQCC,train_x,red_square,top_left,2025-04-30_16h41.33.197,HideSeek_v1,2022.2.5,60.008305156786115,
