trialInstr,x_fixStart,y_fixStart,x_corrSteps,y_corrSteps,x_nrSteps,y_nrSteps,alienID,trialLength,version,trialTrain,praclen,testlen,trial_label,break_on_off,beforeExpLoop.thisRepN,beforeExpLoop.thisTrialN,beforeExpLoop.thisN,beforeExpLoop.thisIndex,mini_instr_trials.thisRepN,mini_instr_trials.thisTrialN,mini_instr_trials.thisN,mini_instr_trials.thisIndex,instrLoop.thisRepN,instrLoop.thisTrialN,instrLoop.thisN,instrLoop.thisIndex,repeat_prac.thisRepN,repeat_prac.thisTrialN,repeat_prac.thisN,repeat_prac.thisIndex,trainLoop.thisRepN,trainLoop.thisTrialN,trainLoop.thisN,trainLoop.thisIndex,moveLoop_train.thisRepN,moveLoop_train.thisTrialN,moveLoop_train.thisN,moveLoop_train.thisIndex,experiment.thisRepN,experiment.thisTrialN,experiment.thisN,experiment.thisIndex,moveLoop_test.thisRepN,moveLoop_test.thisTrialN,moveLoop_test.thisN,moveLoop_test.thisIndex,mini_instr2_trials.thisRepN,mini_instr2_trials.thisTrialN,mini_instr2_trials.thisN,mini_instr2_trials.thisIndex,start_all_time,url,slideStim,audioStim,slides.started,sounds.started,nextButton.numClicks,nextButton.timesOn,nextButton.timesOff,prev_but.numClicks,prev_but.timesOn,prev_but.timesOff,alienStim,instrFile,alienStim_instr,gridImage_instr.started,startPos_3.started,key_instr.started,alienImage_3.started,sounds_1.started,key_instr.keys,key_instr.rt,all_x,all_y,FBy_corrSteps,FBy_fixStart,FBx_corrSteps,FBx_fixStart,FBy_pathSize_check,FBx_pathSize_check,gridImage_9.started,alienImageFB_3.started,startPosFB_3.started,keyFB_3.started,pathLine_ydir_2.started,pathLine_xdir_2.started,alienFace_3.started,sounds_2.started,RTFB_instr,keyFB_3.keys,keyFB_3.rt,draw_alienStim,draw_alienID,test_x,nrepcount,perfthres,percthres,earlierperf,earlystop,nextPrac,fileidx,praclen,saveACC_train,pracFile,nextPrac_train,addNrep,fileidx_endr,repExp,showearly,gridImage_4.started,startPos.started,movePos.started,key_resp.started,alienImage.started,buttonPress_train,RTchoice_train,cumAcctrain,aCorr,saveACC_choice,corrAns,x_movePos_end,y_movePos_end,key_resp.keys,key_resp.rt,wLy_dir,wLx_dir,x_movePos,y_movePos,text_2.started,text_2.stopped,aft_x_corrPos,aft_y_corrPos,y_pathSize_check,x_pathSize_check,y_pathdirY,x_pathdirY,x_pathdirX,x_corrPos,y_corrPos,gridImage_6.started,alienImageFB_2.started,startPosFB_2.started,movePosFB_2.started,keyFB_2.started,pathLine_xdir.started,pathLine_ydir.started,alienFace.started,sounds_4.started,RT_FBtrain,keyFB_2.keys,keyFB_2.rt,saveACC_pre,ACC,within_saveACC_train,earlystop_wloop,cumAcctrain_check,gridImage_3.started,alienImage_test.started,startPos_test.started,movePos_test.started,key_resp_test.started,wLy_dir_test,wLx_dir_test,buttonPress_test,RTchoice_test,cumAcctest,corrAns_test,key_resp_test.keys,key_resp_test.rt,text_3.started,text_3.stopped,total_time,end_all_time,key_resp_3.keys,slides_2.started,sounds_3.started,nextButton_2.numClicks,nextButton_2.timesOn,nextButton_2.timesOff,prev_but_2.numClicks,prev_but_2.timesOn,prev_but_2.timesOff,bye.started,participant,train_first,00_coordinate,starting corner,date,expName,psychopyVersion,frameRate,
,,,,,,,,,,,,,,,0,0,0,0,0,0,0,0,,,,,,,,,,,,,,,,,,,,,,,,,,,,,start_all_time,testround,conditions/schedules/train_y_first/blue_star_00/top_right/instructions/Slide1.png,conditions/schedules/train_y_first/blue_star_00/top_right/instructions/Audio1.wav,391.41973239998333,391.37646139024287,1,[3.3266386000905186],[3.326647700043395],0,,,,,,,,,,,,,,,,,,,,,,,,,,,,,,,,,,,,,,,,,,,,,,,,,,,,,,,,,,,,,,,,,,,,,,,,,,,,,,,,,,,,,,,,,,,,,,,,,,,,,,,,,,,,,,,,,,,,,,,,,,,,7AFWVA,train_y,blue_star,top_right,2025-07-26_13h13.18.416,HideSeek_v1,2022.2.5,59.96929576602406,
,,,,,,,,,,,,,,,0,0,0,0,1,0,1,0,,,,,,,,,,,,,,,,,,,,,,,,,,,,,,,conditions/schedules/train_y_first/blue_star_00/top_right/instructions/Slide2.png,conditions/schedules/train_y_first/blue_star_00/top_right/instructions/Audio2.wav,394.76923980005085,394.75513228019696,2,"[3.3266386000905186, 18.215743500040844]","[0.00021379999816417694, 18.215751399984583]",0,,,,,,,,,,,,,,,,,,,,,,,,,,,,,,,,,,,,,,,,,,,,,,,,,,,,,,,,,,,,,,,,,,,,,,,,,,,,,,,,,,,,,,,,,,,,,,,,,,,,,,,,,,,,,,,,,,,,,,,,,,,,7AFWVA,train_y,blue_star,top_right,2025-07-26_13h13.18.416,HideSeek_v1,2022.2.5,59.96929576602406,
,,,,,,,,,,,,,,,0,0,0,0,2,0,2,0,,,,,,,,,,,,,,,,,,,,,,,,,,,,,,,conditions/schedules/train_y_first/blue_star_00/top_right/instructions/Slide3.png,conditions/schedules/train_y_first/blue_star_00/top_right/instructions/Audio3.wav,413.0522205000743,413.0536872501252,3,"[3.3266386000905186, 18.215743500040844, 16.59726949990727]","[0.00021379999816417694, 0.014275699853897095, 16.59728019987233]",0,,,,,,,,,,,,,,,,,,,,,,,,,,,,,,,,,,,,,,,,,,,,,,,,,,,,,,,,,,,,,,,,,,,,,,,,,,,,,,,,,,,,,,,,,,,,,,,,,,,,,,,,,,,,,,,,,,,,,,,,,,,,7AFWVA,train_y,blue_star,top_right,2025-07-26_13h13.18.416,HideSeek_v1,2022.2.5,59.96929576602406,
,,,,,,,,,,,,,,,0,0,0,0,3,0,3,0,,,,,,,,,,,,,,,,,,,,,,,,,,,,,,,conditions/schedules/train_y_first/blue_star_00/top_right/instructions/Slide4.png,conditions/schedules/train_y_first/blue_star_00/top_right/instructions/Audio4.wav,429.7291419999674,429.7178113501286,4,"[3.3266386000905186, 18.215743500040844, 16.59726949990727, 19.319306300021708]","[0.00021379999816417694, 0.014275699853897095, 0.01486660004593432, 19.3193137999624]",0,,,,,,,,,,,,,,,,,,,,,,,,,,,,,,,,,,,,,,,,,,,,,,,,,,,,,,,,,,,,,,,,,,,,,,,,,,,,,,,,,,,,,,,,,,,,,,,,,,,,,,,,,,,,,,,,,,,,,,,,,,,,7AFWVA,train_y,blue_star,top_right,2025-07-26_13h13.18.416,HideSeek_v1,2022.2.5,59.96929576602406,
,,,,,,,,,,,,,,,0,0,0,0,4,0,4,0,,,,,,,,,,,,,,,,,,,,,,,,,,,,,,,conditions/schedules/train_y_first/blue_star_00/top_right/instructions/Slide5.png,conditions/schedules/train_y_first/blue_star_00/top_right/instructions/Audio5.wav,449.12387929996476,449.1170887501212,5,"[3.3266386000905186, 18.215743500040844, 16.59726949990727, 19.319306300021708, 3.8942730999551713]","[0.00021379999816417694, 0.014275699853897095, 0.01486660004593432, 0.01432570000179112, 3.894281500019133]",0,,,,,,,,,,,,,,,,,,,,,,,,,,,,,,,,,,,,,,,,,,,,,,,,,,,,,,,,,,,,,,,,,,,,,,,,,,,,,,,,,,,,,,,,,,,,,,,,,,,,,,,,,,,,,,,,,,,,,,,,,,,,7AFWVA,train_y,blue_star,top_right,2025-07-26_13h13.18.416,HideSeek_v1,2022.2.5,59.96929576602406,
,,,,,,,,,,,,,,,0,0,0,0,5,0,5,0,,,,,,,,,,,,,,,,,,,,,,,,,,,,,,,conditions/schedules/train_y_first/blue_star_00/top_right/instructions/Slide6.png,conditions/schedules/train_y_first/blue_star_00/top_right/instructions/Audio6.wav,453.06825140002184,453.0702747801784,6,"[3.3266386000905186, 18.215743500040844, 16.59726949990727, 19.319306300021708, 3.8942730999551713, 4.336419299943373]","[0.00021379999816417694, 0.014275699853897095, 0.01486660004593432, 0.01432570000179112, 0.014238799922168255, 4.336426599882543]",0,,,,,,,,,,,,,,,,,,,,,,,,,,,,,,,,,,,,,,,,,,,,,,,,,,,,,,,,,,,,,,,,,,,,,,,,,,,,,,,,,,,,,,,,,,,,,,,,,,,,,,,,,,,,,,,,,,,,,,,,,,,,7AFWVA,train_y,blue_star,top_right,2025-07-26_13h13.18.416,HideSeek_v1,2022.2.5,59.96929576602406,
,,,,,,,,,,,,,,,0,0,0,0,6,0,6,0,,,,,,,,,,,,,,,,,,,,,,,,,,,,,,,conditions/schedules/train_y_first/blue_star_00/top_right/instructions/Slide7.png,conditions/schedules/train_y_first/blue_star_00/top_right/instructions/Audio7.wav,457.45598430000246,457.45729477996935,7,"[3.3266386000905186, 18.215743500040844, 16.59726949990727, 19.319306300021708, 3.8942730999551713, 4.336419299943373, 5.053358800010756]","[0.00021379999816417694, 0.014275699853897095, 0.01486660004593432, 0.01432570000179112, 0.014238799922168255, 0.04896429996006191, 5.0533670000731945]",0,,,,,,,,,,,,,,,,,,,,,,,,,,,,,,,,,,,,,,,,,,,,,,,,,,,,,,,,,,,,,,,,,,,,,,,,,,,,,,,,,,,,,,,,,,,,,,,,,,,,,,,,,,,,,,,,,,,,,,,,,,,,7AFWVA,train_y,blue_star,top_right,2025-07-26_13h13.18.416,HideSeek_v1,2022.2.5,59.96929576602406,
,,,,,,,,,,,,,,,0,0,0,0,7,0,7,0,,,,,,,,,,,,,,,,,,,,,,,,,,,,,,,conditions/schedules/train_y_first/blue_star_00/top_right/instructions/Slide8.png,conditions/schedules/train_y_first/blue_star_00/top_right/instructions/Audio8.wav,462.5623429999687,462.56135608013716,8,"[3.3266386000905186, 18.215743500040844, 16.59726949990727, 19.319306300021708, 3.8942730999551713, 4.336419299943373, 5.053358800010756, 11.156160900136456]","[0.00021379999816417694, 0.014275699853897095, 0.01486660004593432, 0.01432570000179112, 0.014238799922168255, 0.04896429996006191, 0.0652952000964433, 11.156171499984339]",0,,,,,,,,,,,,,,,,,,,,,,,,,,,,,,,,,,,,,,,,,,,,,,,,,,,,,,,,,,,,,,,,,,,,,,,,,,,,,,,,,,,,,,,,,,,,,,,,,,,,,,,,,,,,,,,,,,,,,,,,,,,,7AFWVA,train_y,blue_star,top_right,2025-07-26_13h13.18.416,HideSeek_v1,2022.2.5,59.96929576602406,
,,,,,,,,,,,,,,,0,0,0,0,8,0,8,0,,,,,,,,,,,,,,,,,,,,,,,,,,,,,,,conditions/schedules/train_y_first/blue_star_00/top_right/instructions/Slide9.png,conditions/schedules/train_y_first/blue_star_00/top_right/instructions/Audio9.wav,473.78699910012074,473.7876011499902,9,"[3.3266386000905186, 18.215743500040844, 16.59726949990727, 19.319306300021708, 3.8942730999551713, 4.336419299943373, 5.053358800010756, 11.156160900136456, 5.319556599948555]","[0.00021379999816417694, 0.014275699853897095, 0.01486660004593432, 0.01432570000179112, 0.014238799922168255, 0.04896429996006191, 0.0652952000964433, 0.0313941000495106, 5.319565000012517]",0,,,,,,,,,,,,,,,,,,,,,,,,,,,,,,,,,,,,,,,,,,,,,,,,,,,,,,,,,,,,,,,,,,,,,,,,,,,,,,,,,,,,,,,,,,,,,,,,,,,,,,,,,,,,,,,,,,,,,,,,,,,,7AFWVA,train_y,blue_star,top_right,2025-07-26_13h13.18.416,HideSeek_v1,2022.2.5,59.96929576602406,
,,,,,,,,,,,,,,,0,0,0,0,9,0,9,0,,,,,,,,,,,,,,,,,,,,,,,,,,,,,,,conditions/schedules/train_y_first/blue_star_00/top_right/instructions/Slide10.png,conditions/schedules/train_y_first/blue_star_00/top_right/instructions/Audio10.wav,479.143586399965,479.1419587099692,10,"[3.3266386000905186, 18.215743500040844, 16.59726949990727, 19.319306300021708, 3.8942730999551713, 4.336419299943373, 5.053358800010756, 11.156160900136456, 5.319556599948555, 6.467596000060439]","[0.00021379999816417694, 0.014275699853897095, 0.01486660004593432, 0.01432570000179112, 0.014238799922168255, 0.04896429996006191, 0.0652952000964433, 0.0313941000495106, 0.09568260004743934, 6.46760329999961]",0,,,,,,,,,,,,,,,,,,,,,,,,,,,,,,,,,,,,,,,,,,,,,,,,,,,,,,,,,,,,,,,,,,,,,,,,,,,,,,,,,,,,,,,,,,,,,,,,,,,,,,,,,,,,,,,,,,,,,,,,,,,,7AFWVA,train_y,blue_star,top_right,2025-07-26_13h13.18.416,HideSeek_v1,2022.2.5,59.96929576602406,
,,,,,,,,,,,,,,,0,0,0,0,10,0,10,0,,,,,,,,,,,,,,,,,,,,,,,,,,,,,,,conditions/schedules/train_y_first/blue_star_00/top_right/instructions/Slide11.png,conditions/schedules/train_y_first/blue_star_00/top_right/instructions/Audio11.wav,485.65192140010186,485.647442610166,11,"[3.3266386000905186, 18.215743500040844, 16.59726949990727, 19.319306300021708, 3.8942730999551713, 4.336419299943373, 5.053358800010756, 11.156160900136456, 5.319556599948555, 6.467596000060439, 9.51746920007281]","[0.00021379999816417694, 0.014275699853897095, 0.01486660004593432, 0.01432570000179112, 0.014238799922168255, 0.04896429996006191, 0.0652952000964433, 0.0313941000495106, 0.09568260004743934, 0.06329109985381365, 9.517476999899372]",0,,,,,,,,,,,,,,,,,,,,,,,,,,,,,,,,,,,,,,,,,,,,,,,,,,,,,,,,,,,,,,,,,,,,,,,,,,,,,,,,,,,,,,,,,,,,,,,,,,,,,,,,,,,,,,,,,,,,,,,,,,,,7AFWVA,train_y,blue_star,top_right,2025-07-26_13h13.18.416,HideSeek_v1,2022.2.5,59.96929576602406,
,,,,,,,,,,,,,,,0,0,0,0,11,0,11,0,,,,,,,,,,,,,,,,,,,,,,,,,,,,,,,conditions/schedules/train_y_first/blue_star_00/top_right/instructions/Slide12.png,conditions/schedules/train_y_first/blue_star_00/top_right/instructions/Audio12.wav,495.22365480009466,495.2219683801755,12,"[3.3266386000905186, 18.215743500040844, 16.59726949990727, 19.319306300021708, 3.8942730999551713, 4.336419299943373, 5.053358800010756, 11.156160900136456, 5.319556599948555, 6.467596000060439, 9.51746920007281, 13.557377600111067]","[0.00021379999816417694, 0.014275699853897095, 0.01486660004593432, 0.01432570000179112, 0.014238799922168255, 0.04896429996006191, 0.0652952000964433, 0.0313941000495106, 0.09568260004743934, 0.06329109985381365, 0.07984600006602705, 13.557385200168937]",0,,,,,,,,,,,,,,,,,,,,,,,,,,,,,,,,,,,,,,,,,,,,,,,,,,,,,,,,,,,,,,,,,,,,,,,,,,,,,,,,,,,,,,,,,,,,,,,,,,,,,,,,,,,,,,,,,,,,,,,,,,,,7AFWVA,train_y,blue_star,top_right,2025-07-26_13h13.18.416,HideSeek_v1,2022.2.5,59.96929576602406,
1,5,8,5,3,0,-5,66,2,instr_dim1_1,,,,,,0,0,0,0,,,,,0,0,0,0,,,,,,,,,,,,,,,,,,,,,,,,,,,,,,,,,,,,,stimuli/alien_stimuli/66.png,conditions/schedules/train_y_first/blue_star_00/top_right/inputInstr_1.xlsx,stimuli/alien_stimuli/66.png,508.8804371000733,508.8804371000733,508.8804371000733,508.8804371000733,508.8667876199819,return,10.828076199861243,"[-0.16, -0.08, 0, 0.08, 0.16, 0.24, 0.32, 0.4, 0.48, 0.56]","[-0.4, -0.32, -0.24, -0.16, -0.08, 0, 0.08, 0.16, 0.24, 0.32]",3,8,5,5,0.4,0.0,519.85790860001,519.85790860001,519.85790860001,519.85790860001,519.85790860001,519.85790860001,519.85790860001,519.8424037599935,8.824693500064313,return,8.663768499856815,stimuli/alien_stimuli/66.png,66,5,1,,,,,,,,,,,,,,,,,,,,,,,,,,,,,,,,,,,,,,,,,,,,,,,,,,,,,,,,,,,,,,,,,,,,,,,,,,,,,,,,,,,,,,,,,7AFWVA,train_y,blue_star,top_right,2025-07-26_13h13.18.416,HideSeek_v1,2022.2.5,59.96929576602406,
,,,,,,,,,,,30,,,,0,0,0,0,,,,,,,,,,,,,,,,,,,,,,,,,,,,,,,,,,,,,,,,,,,,,,,,,,,,,,,,,,,,,,,,,,,,,,,,,,,,,,21,0.7,0,0,99,1,30,0,conditions/schedules/train_y_first/blue_star_00/top_right/inputTrain_1.1.xlsx,99,1,1,1,0,,,,,,,,,,,,,,,,,,,,,,,,,,,,,,,,,,,,,,,,,,,,,,,,,,,,,,,,,,,,,,,,,,,,,,,,,,,7AFWVA,train_y,blue_star,top_right,2025-07-26_13h13.18.416,HideSeek_v1,2022.2.5,59.96929576602406,
,,,,,,,,,,,,,,,1,0,1,0,0,0,0,0,,,,,,,,,,,,,,,,,,,,,,,,,,,,,,,conditions/schedules/train_y_first/blue_star_00/top_right/instructions/Slide13.png,conditions/schedules/train_y_first/blue_star_00/top_right/instructions/Audio13.wav,528.6808406000491,528.6828682301799,13,"[3.3266386000905186, 18.215743500040844, 16.59726949990727, 19.319306300021708, 3.8942730999551713, 4.336419299943373, 5.053358800010756, 11.156160900136456, 5.319556599948555, 6.467596000060439, 9.51746920007281, 13.557377600111067, 17.24742150004022]","[0.00021379999816417694, 0.014275699853897095, 0.01486660004593432, 0.01432570000179112, 0.014238799922168255, 0.04896429996006191, 0.0652952000964433, 0.0313941000495106, 0.09568260004743934, 0.06329109985381365, 0.07984600006602705, 13.557385200168937, 17.247429799987003]",0,,,,,,,,,,,,,,,,,,,,,,,,,,,,,,,,,,,,,,,,,,,,,,,,,,,,,,,,,,,,,,,,,,,,,,,,,,,,,,,,,,,,,,,,,,,,,,,,,,,,,,,,,,,,,,,,,,,,,,,,,,,,7AFWVA,train_y,blue_star,top_right,2025-07-26_13h13.18.416,HideSeek_v1,2022.2.5,59.96929576602406,
,,,,,,,,,,,,,,,1,0,1,0,1,0,1,0,,,,,,,,,,,,,,,,,,,,,,,,,,,,,,,conditions/schedules/train_y_first/blue_star_00/top_right/instructions/Slide14.png,conditions/schedules/train_y_first/blue_star_00/top_right/instructions/Audio14.wav,546.0035690001678,545.997558049974,14,"[3.3266386000905186, 18.215743500040844, 16.59726949990727, 19.319306300021708, 3.8942730999551713, 4.336419299943373, 5.053358800010756, 11.156160900136456, 5.319556599948555, 6.467596000060439, 9.51746920007281, 13.557377600111067, 17.24742150004022, 16.372080800123513]","[0.00021379999816417694, 0.014275699853897095, 0.01486660004593432, 0.01432570000179112, 0.014238799922168255, 0.04896429996006191, 0.0652952000964433, 0.0313941000495106, 0.09568260004743934, 0.06329109985381365, 0.07984600006602705, 13.557385200168937, 0.047215200029313564, 16.37208850006573]",0,,,,,,,,,,,,,,,,,,,,,,,,,,,,,,,,,,,,,,,,,,,,,,,,,,,,,,,,,,,,,,,,,,,,,,,,,,,,,,,,,,,,,,,,,,,,,,,,,,,,,,,,,,,,,,,,,,,,,,,,,,,,7AFWVA,train_y,blue_star,top_right,2025-07-26_13h13.18.416,HideSeek_v1,2022.2.5,59.96929576602406,
2,7,8,7,8,0,0,61,2,instr_dim1_1,,,,,,1,0,1,0,,,,,0,0,0,0,,,,,,,,,,,,,,,,,,,,,,,,,,,,,,,,,,,,,stimuli/alien_stimuli/61.png,conditions/schedules/train_y_first/blue_star_00/top_right/inputInstr_1.xlsx,stimuli/alien_stimuli/61.png,562.4724151000846,562.4724151000846,562.4724151000846,562.4724151000846,562.4782630902016,return,6.570027400040999,"[-0.16, -0.08, 0, 0.08, 0.16, 0.24, 0.32, 0.4, 0.48, 0.56]","[-0.4, -0.32, -0.24, -0.16, -0.08, 0, 0.08, 0.16, 0.24, 0.32]",8,8,7,7,0.0,0.0,569.1903427001089,569.1903427001089,569.1903427001089,569.1903427001089,569.1903427001089,569.1903427001089,569.1903427001089,569.1834516600239,10.993604200193658,return,10.84021359984763,stimuli/alien_stimuli/61.png,61,7,2,,,,,,,,,,,,,,,,,,,,,,,,,,,,,,,,,,,,,,,,,,,,,,,,,,,,,,,,,,,,,,,,,,,,,,,,,,,,,,,,,,,,,,,,,7AFWVA,train_y,blue_star,top_right,2025-07-26_13h13.18.416,HideSeek_v1,2022.2.5,59.96929576602406,
,,,,,,,,,,,30,,,,1,0,1,0,,,,,,,,,,,,,,,,,,,,,,,,,,,,,,,,,,,,,,,,,,,,,,,,,,,,,,,,,,,,,,,,,,,,,,,,,,,,,,21,0.7,0,0,99,1,30,0,conditions/schedules/train_y_first/blue_star_00/top_right/inputTrain_1.1.xlsx,99,1,1,1,0,,,,,,,,,,,,,,,,,,,,,,,,,,,,,,,,,,,,,,,,,,,,,,,,,,,,,,,,,,,,,,,,,,,,,,,,,,,7AFWVA,train_y,blue_star,top_right,2025-07-26_13h13.18.416,HideSeek_v1,2022.2.5,59.96929576602406,
,,,,,,,,,,,,,,,2,0,2,0,0,0,0,0,,,,,,,,,,,,,,,,,,,,,,,,,,,,,,,conditions/schedules/train_y_first/blue_star_00/top_right/instructions/Slide15.png,conditions/schedules/train_y_first/blue_star_00/top_right/instructions/Audio15.wav,580.2162884001154,580.2094925001729,15,"[3.3266386000905186, 18.215743500040844, 16.59726949990727, 19.319306300021708, 3.8942730999551713, 4.336419299943373, 5.053358800010756, 11.156160900136456, 5.319556599948555, 6.467596000060439, 9.51746920007281, 13.557377600111067, 17.24742150004022, 16.372080800123513, 43.00963980006054]","[0.00021379999816417694, 0.014275699853897095, 0.01486660004593432, 0.01432570000179112, 0.014238799922168255, 0.04896429996006191, 0.0652952000964433, 0.0313941000495106, 0.09568260004743934, 0.06329109985381365, 0.07984600006602705, 13.557385200168937, 0.047215200029313564, 16.37208850006573, 43.009646699996665]",0,,,,,,,,,,,,,,,,,,,,,,,,,,,,,,,,,,,,,,,,,,,,,,,,,,,,,,,,,,,,,,,,,,,,,,,,,,,,,,,,,,,,,,,,,,,,,,,,,,,,,,,,,,,,,,,,,,,,,,,,,,,,7AFWVA,train_y,blue_star,top_right,2025-07-26_13h13.18.416,HideSeek_v1,2022.2.5,59.96929576602406,
,,,,,,,,,,,,,,,2,0,2,0,1,0,1,0,,,,,,,,,,,,,,,,,,,,,,,,,,,,,,,conditions/schedules/train_y_first/blue_star_00/top_right/instructions/Slide16.png,conditions/schedules/train_y_first/blue_star_00/top_right/instructions/Audio16.wav,623.3012851001695,623.2953645501984,16,"[3.3266386000905186, 18.215743500040844, 16.59726949990727, 19.319306300021708, 3.8942730999551713, 4.336419299943373, 5.053358800010756, 11.156160900136456, 5.319556599948555, 6.467596000060439, 9.51746920007281, 13.557377600111067, 17.24742150004022, 16.372080800123513, 43.00963980006054, 22.092729199910536]","[0.00021379999816417694, 0.014275699853897095, 0.01486660004593432, 0.01432570000179112, 0.014238799922168255, 0.04896429996006191, 0.0652952000964433, 0.0313941000495106, 0.09568260004743934, 0.06329109985381365, 0.07984600006602705, 13.557385200168937, 0.047215200029313564, 16.37208850006573, 0.013854499906301498, 22.09273609984666]",0,,,,,,,,,,,,,,,,,,,,,,,,,,,,,,,,,,,,,,,,,,,,,,,,,,,,,,,,,,,,,,,,,,,,,,,,,,,,,,,,,,,,,,,,,,,,,,,,,,,,,,,,,,,,,,,,,,,,,,,,,,,,7AFWVA,train_y,blue_star,top_right,2025-07-26_13h13.18.416,HideSeek_v1,2022.2.5,59.96929576602406,
,5,5,5,1,0,-4,65,,train_dim1_1,1,30,,,,2,0,2,0,,,,,,,,,0,0,0,0,0,0,0,0,0,0,0,0,,,,,,,,,,,,,,,,,,,,,,,,,stimuli/alien_stimuli/65.png,,,,,,,,,,,,,,,,,,,,,,,,,,,,,,,,,,,,,,,30,,,,,,,,645.4966373001225,645.4966373001225,645.4966373001225,645.4966373001225,645.4966373001225,down,11.938491699984297,0,0,0,99,0.24,-0.08,down,11.838477899786085,,,,,,,,,,,,,,,,,,,,,,,,,,,,,,,,,,,,,,,,,,,,,,,,,,,,,,,,,,,,7AFWVA,train_y,blue_star,top_right,2025-07-26_13h13.18.416,HideSeek_v1,2022.2.5,59.96929576602406,
,5,5,5,1,0,-4,65,,train_dim1_1,1,30,,,,2,0,2,0,,,,,,,,,0,0,0,0,0,0,0,0,1,0,1,0,,,,,,,,,,,,,,,,,,,,,,,,,,,,,,,,,,,,,,,,,,,,,,,,,,,,,,,,,,,,,,,,30,,,,,,,,657.4401025001425,657.4401025001425,657.4401025001425,657.4401025001425,657.4401025001425,down,3.0451882001943886,0,0,0,99,0.24,-0.16,down,2.9496806997340173,,,,,,,,,,,,,,,,,,,,,,,,,,,,,,,,,,,,,,,,,,,,,,,,,,,,,,,,,,,,7AFWVA,train_y,blue_star,top_right,2025-07-26_13h13.18.416,HideSeek_v1,2022.2.5,59.96929576602406,
,5,5,5,1,0,-4,65,,train_dim1_1,1,30,,,,2,0,2,0,,,,,,,,,0,0,0,0,0,0,0,0,2,0,2,0,,,,,,,,,,,,,,,,,,,,,,,,,,,,,,,,,,,,,,,,,,,,,,,,,,,,,,,,,,,,,,,,30,,,,,,,,660.4735060001258,660.4735060001258,660.4735060001258,660.4735060001258,660.4735060001258,down,1.4937098999507725,0,0,0,99,0.24,-0.24,down,1.4205304000061005,,,,,,,,,,,,,,,,,,,,,,,,,,,,,,,,,,,,,,,,,,,,,,,,,,,,,,,,,,,,7AFWVA,train_y,blue_star,top_right,2025-07-26_13h13.18.416,HideSeek_v1,2022.2.5,59.96929576602406,
,5,5,5,1,0,-4,65,,train_dim1_1,1,30,,,,2,0,2,0,,,,,,,,,0,0,0,0,0,0,0,0,3,0,3,0,,,,,,,,,,,,,,,,,,,,,,,,,,,,,,,,,,,,,,,,,,,,,,,,,,,,,,,,,,,,,,,,30,,,,,,,,661.974048800068,661.974048800068,661.974048800068,661.974048800068,661.974048800068,down,1.0771254999563098,0,0,0,99,0.24,-0.32,down,1.0048231999389827,,,,,,,,,,,,,,,,,,,,,,,,,,,,,,,,,,,,,,,,,,,,,,,,,,,,,,,,,,,,7AFWVA,train_y,blue_star,top_right,2025-07-26_13h13.18.416,HideSeek_v1,2022.2.5,59.96929576602406,
,5,5,5,1,0,-4,65,,train_dim1_1,1,30,,,,2,0,2,0,,,,,,,,,0,0,0,0,0,0,0,0,4,0,4,0,,,,,,,,,,,,,,,,,,,,,,,,,,,,,,,,,,,,,,,,,,,,,,,,,,,,,,,,,,,,,,,,30,,,,,,,,663.0584325999953,663.0584325999953,663.0584325999953,663.0584325999953,663.0584325999953,down,2.54546850011684,0,0,0,99,0.24,-0.4,down,2.456355599919334,,,,,,,,,,,,,,,,,,,,,,,,,,,,,,,,,,,,,,,,,,,,,,,,,,,,,,,,,,,,7AFWVA,train_y,blue_star,top_right,2025-07-26_13h13.18.416,HideSeek_v1,2022.2.5,59.96929576602406,
,5,5,5,1,0,-4,65,,train_dim1_1,1,30,,,,2,0,2,0,,,,,,,,,0,0,0,0,0,0,0,0,5,0,5,0,,,,,,,,,,,,,,,,,,,,,,,,,,,,,,,,,,,,,,,,,,,,,,,,,,,,,,,,,,,,,,,,30,,,,,,,,665.610025400063,665.610025400063,665.610025400063,665.610025400063,665.610025400063,left,3.7127834998536855,0,0,0,99,0.15999999999999998,-0.4,left,3.6242841999046504,,,,,,,,,,,,,,,,,,,,,,,,,,,,,,,,,,,,,,,,,,,,,,,,,,,,,,,,,,,,7AFWVA,train_y,blue_star,top_right,2025-07-26_13h13.18.416,HideSeek_v1,2022.2.5,59.96929576602406,
,5,5,5,1,0,-4,65,,train_dim1_1,1,30,,,,2,0,2,0,,,,,,,,,0,0,0,0,0,0,0,0,6,0,6,0,,,,,,,,,,,,,,,,,,,,,,,,,,,,,,,,,,,,,,,,,,,,,,,,,,,,,,,,,,,,,,,,30,,,,,,,,669.3303061001934,669.3303061001934,669.3303061001934,669.3303061001934,669.3303061001934,left,7.415788999991491,0,0,0,99,0.07999999999999997,-0.4,left,7.327948200050741,,,,,,,,,,,,,,,,,,,,,,,,,,,,,,,,,,,,,,,,,,,,,,,,,,,,,,,,,,,,7AFWVA,train_y,blue_star,top_right,2025-07-26_13h13.18.416,HideSeek_v1,2022.2.5,59.96929576602406,
,5,5,5,1,0,-4,65,,train_dim1_1,1,30,,,,2,0,2,0,,,,,,,,,0,0,0,0,0,0,0,0,7,0,7,0,,,,,,,,,,,,,,,,,,,,,,,,,,,,,,,,,,,,,,,,,,,,,,,,,,,,,,,,,,,,,,,,30,,,,,,,,676.7532037000638,676.7532037000638,676.7532037000638,676.7532037000638,676.7532037000638,left,1.0603243000805378,0,0,0,99,-2.7755575615628914e-17,-0.4,left,0.9828023998998106,,,,,,,,,,,,,,,,,,,,,,,,,,,,,,,,,,,,,,,,,,,,,,,,,,,,,,,,,,,,7AFWVA,train_y,blue_star,top_right,2025-07-26_13h13.18.416,HideSeek_v1,2022.2.5,59.96929576602406,
,5,5,5,1,0,-4,65,,train_dim1_1,1,30,,,,2,0,2,0,,,,,,,,,0,0,0,0,0,0,0,0,8,0,8,0,,,,,,,,,,,,,,,,,,,,,,,,,,,,,,,,,,,,,,,,,,,,,,,,,,,,,,,,,,,,,,,,30,,,,,,,,677.8203086000867,677.8203086000867,677.8203086000867,677.8203086000867,677.8203086000867,left,2.8621233000885695,0,0,0,99,-0.08000000000000003,-0.4,left,2.783715499797836,,,,,,,,,,,,,,,,,,,,,,,,,,,,,,,,,,,,,,,,,,,,,,,,,,,,,,,,,,,,7AFWVA,train_y,blue_star,top_right,2025-07-26_13h13.18.416,HideSeek_v1,2022.2.5,59.96929576602406,
,5,5,5,1,0,-4,65,,train_dim1_1,1,30,,,,2,0,2,0,,,,,,,,,0,0,0,0,0,0,0,0,9,0,9,0,,,,,,,,,,,,,,,,,,,,,,,,,,,,,,,,,,,,,,,,,,,,,,,,,,,,,,,,,,,,,,,,30,,,,,,,,680.6890096999705,680.6890096999705,680.6890096999705,680.6890096999705,680.6890096999705,up,1.944439200218767,0,0,0,99,-0.08000000000000003,-0.32,up,1.860686999745667,,,,,,,,,,,,,,,,,,,,,,,,,,,,,,,,,,,,,,,,,,,,,,,,,,,,,,,,,,,,7AFWVA,train_y,blue_star,top_right,2025-07-26_13h13.18.416,HideSeek_v1,2022.2.5,59.96929576602406,
,5,5,5,1,0,-4,65,,train_dim1_1,1,30,,,,2,0,2,0,,,,,,,,,0,0,0,0,0,0,0,0,10,0,10,0,,,,,,,,,,,,,,,,,,,,,,,,,,,,,,,,,,,,,,,,,,,,,,,,,,,,,,,,,,,,,,,,30,,,,,,,,682.6411331000272,682.6411331000272,682.6411331000272,682.6411331000272,682.6411331000272,up,0.37672209995798767,0,0,0,99,-0.08000000000000003,-0.24,up,0.2910999997984618,,,,,,,,,,,,,,,,,,,,,,,,,,,,,,,,,,,,,,,,,,,,,,,,,,,,,,,,,,,,7AFWVA,train_y,blue_star,top_right,2025-07-26_13h13.18.416,HideSeek_v1,2022.2.5,59.96929576602406,
,5,5,5,1,0,-4,65,,train_dim1_1,1,30,,,,2,0,2,0,,,,,,,,,0,0,0,0,0,0,0,0,11,0,11,0,,,,,,,,,,,,,,,,,,,,,,,,,,,,,,,,,,,,,,,,,,,,,,,,,,,,,,,,,,,,,,,,30,,,,,,,,683.0237828001846,683.0237828001846,683.0237828001846,683.0237828001846,683.0237828001846,up,0.37624819995835423,0,0,0,99,-0.08000000000000003,-0.15999999999999998,up,0.29438439989462495,,,,,,,,,,,,,,,,,,,,,,,,,,,,,,,,,,,,,,,,,,,,,,,,,,,,,,,,,,,,7AFWVA,train_y,blue_star,top_right,2025-07-26_13h13.18.416,HideSeek_v1,2022.2.5,59.96929576602406,
,5,5,5,1,0,-4,65,,train_dim1_1,1,30,,,,2,0,2,0,,,,,,,,,0,0,0,0,0,0,0,0,12,0,12,0,,,,,,,,,,,,,,,,,,,,,,,,,,,,,,,,,,,,,,,,,,,,,,,,,,,,,,,,,,,,,,,,30,,,,,,,,683.40999010019,683.40999010019,683.40999010019,683.40999010019,683.40999010019,up,0.6605285000987351,0,0,0,99,-0.08000000000000003,-0.07999999999999997,up,0.5810781000182033,,,,,,,,,,,,,,,,,,,,,,,,,,,,,,,,,,,,,,,,,,,,,,,,,,,,,,,,,,,,7AFWVA,train_y,blue_star,top_right,2025-07-26_13h13.18.416,HideSeek_v1,2022.2.5,59.96929576602406,
,5,5,5,1,0,-4,65,,train_dim1_1,1,30,,,,2,0,2,0,,,,,,,,,0,0,0,0,0,0,0,0,13,0,13,0,,,,,,,,,,,,,,,,,,,,,,,,,,,,,,,,,,,,,,,,,,,,,,,,,,,,,,,,,,,,,,,,30,,,,,,,,684.0760003000032,684.0760003000032,684.0760003000032,684.0760003000032,684.0760003000032,up,0.6277435999363661,0,0,0,99,-0.08000000000000003,2.7755575615628914e-17,up,0.5410452999640256,,,,,,,,,,,,,,,,,,,,,,,,,,,,,,,,,,,,,,,,,,,,,,,,,,,,,,,,,,,,7AFWVA,train_y,blue_star,top_right,2025-07-26_13h13.18.416,HideSeek_v1,2022.2.5,59.96929576602406,
,5,5,5,1,0,-4,65,,train_dim1_1,1,30,,,,2,0,2,0,,,,,,,,,0,0,0,0,0,0,0,0,14,0,14,0,,,,,,,,,,,,,,,,,,,,,,,,,,,,,,,,,,,,,,,,,,,,,,,,,,,,,,,,,,,,,,,,30,,,,,,,,684.7182099001948,684.7182099001948,684.7182099001948,684.7182099001948,684.7182099001948,left,1.0213051999453455,0,0,0,99,-0.16000000000000003,2.7755575615628914e-17,left,0.9421687999274582,,,,,,,,,,,,,,,,,,,,,,,,,,,,,,,,,,,,,,,,,,,,,,,,,,,,,,,,,,,,7AFWVA,train_y,blue_star,top_right,2025-07-26_13h13.18.416,HideSeek_v1,2022.2.5,59.96929576602406,
,5,5,5,1,0,-4,65,,train_dim1_1,1,30,,,,2,0,2,0,,,,,,,,,0,0,0,0,0,0,0,0,15,0,15,0,,,,,,,,,,,,,,,,,,,,,,,,,,,,,,,,,,,,,,,,,,,,,,,,,,,,,,,,,,,,,,,,30,,,,,,,,685.744273000164,685.744273000164,685.744273000164,685.744273000164,685.744273000164,up,2.2112410999834538,0,0,0,99,-0.16000000000000003,0.08000000000000003,up,2.133455300005153,,,,,,,,,,,,,,,,,,,,,,,,,,,,,,,,,,,,,,,,,,,,,,,,,,,,,,,,,,,,7AFWVA,train_y,blue_star,top_right,2025-07-26_13h13.18.416,HideSeek_v1,2022.2.5,59.96929576602406,
,5,5,5,1,0,-4,65,,train_dim1_1,1,30,,,,2,0,2,0,,,,,,,,,0,0,0,0,0,0,0,0,16,0,16,0,,,,,,,,,,,,,,,,,,,,,,,,,,,,,,,,,,,,,,,,,,,,,,,,,,,,,,,,,,,,,,,,30,,,,,,,,687.9632772000041,687.9632772000041,687.9632772000041,687.9632772000041,687.9632772000041,up,0.37668529991060495,0,0,0,99,-0.16000000000000003,0.16000000000000003,up,0.2907006999012083,,,,,,,,,,,,,,,,,,,,,,,,,,,,,,,,,,,,,,,,,,,,,,,,,,,,,,,,,,,,7AFWVA,train_y,blue_star,top_right,2025-07-26_13h13.18.416,HideSeek_v1,2022.2.5,59.96929576602406,
,5,5,5,1,0,-4,65,,train_dim1_1,1,30,,,,2,0,2,0,,,,,,,,,0,0,0,0,0,0,0,0,17,0,17,0,,,,,,,,,,,,,,,,,,,,,,,,,,,,,,,,,,,,,,,,,,,,,,,,,,,,,,,,,,,,,,,,30,,,,,,,,688.346572900191,688.346572900191,688.346572900191,688.346572900191,688.346572900191,up,0.29320570011623204,0,0,0,99,-0.16000000000000003,0.24000000000000005,up,0.2048898998182267,,,,,,,,,,,,,,,,,,,,,,,,,,,,,,,,,,,,,,,,,,,,,,,,,,,,,,,,,,,,7AFWVA,train_y,blue_star,top_right,2025-07-26_13h13.18.416,HideSeek_v1,2022.2.5,59.96929576602406,
,5,5,5,1,0,-4,65,,train_dim1_1,1,30,,,,2,0,2,0,,,,,,,,,0,0,0,0,0,0,0,0,18,0,18,0,,,,,,,,,,,,,,,,,,,,,,,,,,,,,,,,,,,,,,,,,,,,,,,,,,,,,,,,,,,,,,,,30,,,,,,,,688.6462671000045,688.6462671000045,688.6462671000045,688.6462671000045,688.6462671000045,up,0.32649709982797503,0,0,0,99,-0.16000000000000003,0.32000000000000006,up,0.24422789993695915,,,,,,,,,,,,,,,,,,,,,,,,,,,,,,,,,,,,,,,,,,,,,,,,,,,,,,,,,,,,7AFWVA,train_y,blue_star,top_right,2025-07-26_13h13.18.416,HideSeek_v1,2022.2.5,59.96929576602406,
,5,5,5,1,0,-4,65,,train_dim1_1,1,30,,,,2,0,2,0,,,,,,,,,0,0,0,0,0,0,0,0,19,0,19,0,,,,,,,,,,,,,,,,,,,,,,,,,,,,,,,,,,,,,,,,,,,,,,,,,,,,,,,,,,,,,,,,30,,,,,,,,688.9803462000564,688.9803462000564,688.9803462000564,688.9803462000564,688.9803462000564,right,1.7110560000874102,0,0,0,99,-0.08000000000000003,0.32000000000000006,right,1.6258920000400394,,,,,,,,,,,,,,,,,,,,,,,,,,,,,,,,,,,,,,,,,,,,,,,,,,,,,,,,,,,,7AFWVA,train_y,blue_star,top_right,2025-07-26_13h13.18.416,HideSeek_v1,2022.2.5,59.96929576602406,
,5,5,5,1,0,-4,65,,train_dim1_1,1,30,,,,2,0,2,0,,,,,,,,,0,0,0,0,0,0,0,0,20,0,20,0,,,,,,,,,,,,,,,,,,,,,,,,,,,,,,,,,,,,,,,,,,,,,,,,,,,,,,,,,,,,,,,,30,,,,,,,,690.6977874001022,690.6977874001022,690.6977874001022,690.6977874001022,690.6977874001022,right,0.6936653000302613,0,0,0,99,-2.7755575615628914e-17,0.32000000000000006,right,0.6051570998970419,,,,,,,,,,,,,,,,,,,,,,,,,,,,,,,,,,,,,,,,,,,,,,,,,,,,,,,,,,,,7AFWVA,train_y,blue_star,top_right,2025-07-26_13h13.18.416,HideSeek_v1,2022.2.5,59.96929576602406,
,5,5,5,1,0,-4,65,,train_dim1_1,1,30,,,,2,0,2,0,,,,,,,,,0,0,0,0,0,0,0,0,21,0,21,0,,,,,,,,,,,,,,,,,,,,,,,,,,,,,,,,,,,,,,,,,,,,,,,,,,,,,,,,,,,,,,,,30,,,,,,,,691.3988382001407,691.3988382001407,691.3988382001407,691.3988382001407,691.3988382001407,right,0.5934107999783009,0,0,0,99,0.07999999999999997,0.32000000000000006,right,0.5101458998396993,,,,,,,,,,,,,,,,,,,,,,,,,,,,,,,,,,,,,,,,,,,,,,,,,,,,,,,,,,,,7AFWVA,train_y,blue_star,top_right,2025-07-26_13h13.18.416,HideSeek_v1,2022.2.5,59.96929576602406,
,5,5,5,1,0,-4,65,,train_dim1_1,1,30,,,,2,0,2,0,,,,,,,,,0,0,0,0,0,0,0,0,22,0,22,0,,,,,,,,,,,,,,,,,,,,,,,,,,,,,,,,,,,,,,,,,,,,,,,,,,,,,,,,,,,,,,,,30,,,,,,,,691.9992063001264,691.9992063001264,691.9992063001264,691.9992063001264,691.9992063001264,right,0.4438930000178516,0,0,0,99,0.15999999999999998,0.32000000000000006,right,0.35552079998888075,,,,,,,,,,,,,,,,,,,,,,,,,,,,,,,,,,,,,,,,,,,,,,,,,,,,,,,,,,,,7AFWVA,train_y,blue_star,top_right,2025-07-26_13h13.18.416,HideSeek_v1,2022.2.5,59.96929576602406,
,5,5,5,1,0,-4,65,,train_dim1_1,1,30,,,,2,0,2,0,,,,,,,,,0,0,0,0,0,0,0,0,23,0,23,0,,,,,,,,,,,,,,,,,,,,,,,,,,,,,,,,,,,,,,,,,,,,,,,,,,,,,,,,,,,,,,,,30,,,,,,,,692.4501889001112,692.4501889001112,692.4501889001112,692.4501889001112,692.4501889001112,right,0.9933821000158787,0,0,0,99,0.24,0.32000000000000006,right,0.9086280998308212,,,,,,,,,,,,,,,,,,,,,,,,,,,,,,,,,,,,,,,,,,,,,,,,,,,,,,,,,,,,7AFWVA,train_y,blue_star,top_right,2025-07-26_13h13.18.416,HideSeek_v1,2022.2.5,59.96929576602406,
,5,5,5,1,0,-4,65,,train_dim1_1,1,30,,,,2,0,2,0,,,,,,,,,0,0,0,0,0,0,0,0,24,0,24,0,,,,,,,,,,,,,,,,,,,,,,,,,,,,,,,,,,,,,,,,,,,,,,,,,,,,,,,,,,,,,,,,30,,,,,,,,693.4500955000985,693.4500955000985,693.4500955000985,693.4500955000985,693.4500955000985,down,15.939342899946496,0,0,0,99,0.24,0.24000000000000005,down,15.861492399824783,,,,,,,,,,,,,,,,,,,,,,,,,,,,,,,,,,,,,,,,,,,,,,,,,,,,,,,,,,,,7AFWVA,train_y,blue_star,top_right,2025-07-26_13h13.18.416,HideSeek_v1,2022.2.5,59.96929576602406,
,5,5,5,1,0,-4,65,,train_dim1_1,1,30,,,,2,0,2,0,,,,,,,,,0,0,0,0,0,0,0,0,25,0,25,0,,,,,,,,,,,,,,,,,,,,,,,,,,,,,,,,,,,,,,,,,,,,,,,,,,,,,,,,,,,,,,,,30,,,,,,,,709.4118737000972,709.4118737000972,709.4118737000972,709.4118737000972,709.4118737000972,right,0.8940053998958319,0,0,0,99,0.32,0.24000000000000005,right,0.7935490000527352,,,,,,,,,,,,,,,,,,,,,,,,,,,,,,,,,,,,,,,,,,,,,,,,,,,,,,,,,,,,7AFWVA,train_y,blue_star,top_right,2025-07-26_13h13.18.416,HideSeek_v1,2022.2.5,59.96929576602406,
,5,5,5,1,0,-4,65,,train_dim1_1,1,30,,,,2,0,2,0,,,,,,,,,0,0,0,0,0,0,0,0,26,0,26,0,,,,,,,,,,,,,,,,,,,,,,,,,,,,,,,,,,,,,,,,,,,,,,,,,,,,,,,,,,,,,,,,30,,,,,,,,710.2973893000744,710.2973893000744,710.2973893000744,710.2973893000744,710.2973893000744,right,0.4267671999987215,0,0,0,99,0.4,0.24000000000000005,right,0.3433340999763459,,,,,,,,,,,,,,,,,,,,,,,,,,,,,,,,,,,,,,,,,,,,,,,,,,,,,,,,,,,,7AFWVA,train_y,blue_star,top_right,2025-07-26_13h13.18.416,HideSeek_v1,2022.2.5,59.96929576602406,
,5,5,5,1,0,-4,65,,train_dim1_1,1,30,,,,2,0,2,0,,,,,,,,,0,0,0,0,0,0,0,0,27,0,27,0,,,,,,,,,,,,,,,,,,,,,,,,,,,,,,,,,,,,,,,,,,,,,,,,,,,,,,,,,,,,,,,,30,,,,,,,,710.7317772000097,710.7317772000097,710.7317772000097,710.7317772000097,710.7317772000097,right,0.5099591000471264,0,0,0,99,0.48000000000000004,0.24000000000000005,right,0.4290874998550862,,,,,,,,,,,,,,,,,,,,,,,,,,,,,,,,,,,,,,,,,,,,,,,,,,,,,,,,,,,,7AFWVA,train_y,blue_star,top_right,2025-07-26_13h13.18.416,HideSeek_v1,2022.2.5,59.96929576602406,
,5,5,5,1,0,-4,65,,train_dim1_1,1,30,,,,2,0,2,0,,,,,,,,,0,0,0,0,0,0,0,0,28,0,28,0,,,,,,,,,,,,,,,,,,,,,,,,,,,,,,,,,,,,,,,,,,,,,,,,,,,,,,,,,,,,,,,,30,,,,,,,,711.2483600999694,711.2483600999694,711.2483600999694,711.2483600999694,711.2483600999694,right,0.510392100084573,0,0,0,99,0.56,0.24000000000000005,right,0.4283759999088943,,,,,,,,,,,,,,,,,,,,,,,,,,,,,,,,,,,,,,,,,,,,,,,,,,,,,,,,,,,,7AFWVA,train_y,blue_star,top_right,2025-07-26_13h13.18.416,HideSeek_v1,2022.2.5,59.96929576602406,
,5,5,5,1,0,-4,65,,train_dim1_1,1,30,,,,2,0,2,0,,,,,,,,,0,0,0,0,0,0,0,0,29,0,29,0,,,,,,,,,,,,,,,,,,,,,,,,,,,,,,,,,,,,,,,,,,,,,,,,,,,,,,,,,,,,,,,,30,,,,,,,,711.7711460001301,711.7711460001301,711.7711460001301,711.7711460001301,711.7711460001301,down,1.110617000143975,0,0,0,99,0.56,0.16000000000000003,down,1.0280638998374343,,,,,,,,,,,,,,,,,,,,,,,,,,,,,,,,,,,,,,,,,,,,,,,,,,,,,,,,,,,,7AFWVA,train_y,blue_star,top_right,2025-07-26_13h13.18.416,HideSeek_v1,2022.2.5,59.96929576602406,
,5,5,5,1,0,-4,65,,train_dim1_1,1,30,,,,2,0,2,0,,,,,,,,,0,0,0,0,0,0,0,0,30,0,30,0,,,,,,,,,,,,,,,,,,,,,,,,,,,,,,,,,,,,,,,,,,,,,,,,,,,,,,,,,,,,,,,,30,,,,,,,,712.8877638999838,712.8877638999838,712.8877638999838,712.8877638999838,712.8877638999838,down,0.2733956000301987,0,0,0,99,0.56,0.08000000000000003,down,0.19485049997456372,,,,,,,,,,,,,,,,,,,,,,,,,,,,,,,,,,,,,,,,,,,,,,,,,,,,,,,,,,,,7AFWVA,train_y,blue_star,top_right,2025-07-26_13h13.18.416,HideSeek_v1,2022.2.5,59.96929576602406,
,5,5,5,1,0,-4,65,,train_dim1_1,1,30,,,,2,0,2,0,,,,,,,,,0,0,0,0,0,0,0,0,31,0,31,0,,,,,,,,,,,,,,,,,,,,,,,,,,,,,,,,,,,,,,,,,,,,,,,,,,,,,,,,,,,,,,,,30,,,,,,,,713.1692745001055,713.1692745001055,713.1692745001055,713.1692745001055,713.1692745001055,down,0.27658959990367293,0,0,0,99,0.56,2.7755575615628914e-17,down,0.188146400032565,,,,,,,,,,,,,,,,,,,,,,,,,,,,,,,,,,,,,,,,,,,,,,,,,,,,,,,,,,,,7AFWVA,train_y,blue_star,top_right,2025-07-26_13h13.18.416,HideSeek_v1,2022.2.5,59.96929576602406,
,5,5,5,1,0,-4,65,,train_dim1_1,1,30,,,,2,0,2,0,,,,,,,,,0,0,0,0,0,0,0,0,32,0,32,0,,,,,,,,,,,,,,,,,,,,,,,,,,,,,,,,,,,,,,,,,,,,,,,,,,,,,,,,,,,,,,,,30,,,,,,,,713.4507763001602,713.4507763001602,713.4507763001602,713.4507763001602,713.4507763001602,left,4.830303099937737,0,0,0,99,0.48000000000000004,2.7755575615628914e-17,left,4.755143999820575,,,,,,,,,,,,,,,,,,,,,,,,,,,,,,,,,,,,,,,,,,,,,,,,,,,,,,,,,,,,7AFWVA,train_y,blue_star,top_right,2025-07-26_13h13.18.416,HideSeek_v1,2022.2.5,59.96929576602406,
,5,5,5,1,0,-4,65,,train_dim1_1,1,30,,,,2,0,2,0,,,,,,,,,0,0,0,0,0,0,0,0,33,0,33,0,,,,,,,,,,,,,,,,,,,,,,,,,,,,,,,,,,,,,,,,,,,,,,,,,,,,,,,,,,,,,,,,30,,,,,,,,718.2892485000193,718.2892485000193,718.2892485000193,718.2892485000193,718.2892485000193,left,0.2755458999890834,0,0,0,99,0.4,2.7755575615628914e-17,left,0.19674729998223484,,,,,,,,,,,,,,,,,,,,,,,,,,,,,,,,,,,,,,,,,,,,,,,,,,,,,,,,,,,,7AFWVA,train_y,blue_star,top_right,2025-07-26_13h13.18.416,HideSeek_v1,2022.2.5,59.96929576602406,
,5,5,5,1,0,-4,65,,train_dim1_1,1,30,,,,2,0,2,0,,,,,,,,,0,0,0,0,0,0,0,0,34,0,34,0,,,,,,,,,,,,,,,,,,,,,,,,,,,,,,,,,,,,,,,,,,,,,,,,,,,,,,,,,,,,,,,,30,,,,,,,,718.5717416000552,718.5717416000552,718.5717416000552,718.5717416000552,718.5717416000552,down,0.26011810009367764,0,0,0,99,0.4,-0.07999999999999997,down,0.1774728000164032,,,,,,,,,,,,,,,,,,,,,,,,,,,,,,,,,,,,,,,,,,,,,,,,,,,,,,,,,,,,7AFWVA,train_y,blue_star,top_right,2025-07-26_13h13.18.416,HideSeek_v1,2022.2.5,59.96929576602406,
,5,5,5,1,0,-4,65,,train_dim1_1,1,30,,,,2,0,2,0,,,,,,,,,0,0,0,0,0,0,0,0,35,0,35,0,,,,,,,,,,,,,,,,,,,,,,,,,,,,,,,,,,,,,,,,,,,,,,,,,,,,,,,,,,,,,,,,30,,,,,,,,718.8393164000008,718.8393164000008,718.8393164000008,718.8393164000008,718.8393164000008,down,0.2094682001043111,0,0,0,99,0.4,-0.15999999999999998,down,0.12673669983632863,,,,,,,,,,,,,,,,,,,,,,,,,,,,,,,,,,,,,,,,,,,,,,,,,,,,,,,,,,,,7AFWVA,train_y,blue_star,top_right,2025-07-26_13h13.18.416,HideSeek_v1,2022.2.5,59.96929576602406,
,5,5,5,1,0,-4,65,,train_dim1_1,1,30,,,,2,0,2,0,,,,,,,,,0,0,0,0,0,0,0,0,36,0,36,0,,,,,,,,,,,,,,,,,,,,,,,,,,,,,,,,,,,,,,,,,,,,,,,,,,,,,,,,,,,,,,,,30,,,,,,,,719.0553568000905,719.0553568000905,719.0553568000905,719.0553568000905,719.0553568000905,down,0.1762626999989152,0,0,0,99,0.4,-0.24,down,0.10274109989404678,,,,,,,,,,,,,,,,,,,,,,,,,,,,,,,,,,,,,,,,,,,,,,,,,,,,,,,,,,,,7AFWVA,train_y,blue_star,top_right,2025-07-26_13h13.18.416,HideSeek_v1,2022.2.5,59.96929576602406,
,5,5,5,1,0,-4,65,,train_dim1_1,1,30,,,,2,0,2,0,,,,,,,,,0,0,0,0,0,0,0,0,37,0,37,0,,,,,,,,,,,,,,,,,,,,,,,,,,,,,,,,,,,,,,,,,,,,,,,,,,,,,,,,,,,,,,,,30,,,,,,,,719.2383358001243,719.2383358001243,719.2383358001243,719.2383358001243,719.2383358001243,left,0.24343459983356297,0,0,0,99,0.32,-0.24,left,0.16752019990235567,,,,,,,,,,,,,,,,,,,,,,,,,,,,,,,,,,,,,,,,,,,,,,,,,,,,,,,,,,,,7AFWVA,train_y,blue_star,top_right,2025-07-26_13h13.18.416,HideSeek_v1,2022.2.5,59.96929576602406,
,5,5,5,1,0,-4,65,,train_dim1_1,1,30,,,,2,0,2,0,,,,,,,,,0,0,0,0,0,0,0,0,38,0,38,0,,,,,,,,,,,,,,,,,,,,,,,,,,,,,,,,,,,,,,,,,,,,,,,,,,,,,,,,,,,,,,,,30,,,,,,,,719.4892627000809,719.4892627000809,719.4892627000809,719.4892627000809,719.4892627000809,up,1.7945554999168962,0,0,0,99,0.32,-0.15999999999999998,up,1.7160708999726921,,,,,,,,,,,,,,,,,,,,,,,,,,,,,,,,,,,,,,,,,,,,,,,,,,,,,,,,,,,,7AFWVA,train_y,blue_star,top_right,2025-07-26_13h13.18.416,HideSeek_v1,2022.2.5,59.96929576602406,
,5,5,5,1,0,-4,65,,train_dim1_1,1,30,,,,2,0,2,0,,,,,,,,,0,0,0,0,0,0,0,0,39,0,39,0,,,,,,,,,,,,,,,,,,,,,,,,,,,,,,,,,,,,,,,,,,,,,,,,,,,,,,,,,,,,,,,,30,,,,,,,,721.2902234999929,721.2902234999929,721.2902234999929,721.2902234999929,721.2902234999929,right,1.5441766998264939,0,0,0,99,0.4,-0.15999999999999998,right,1.4603555998764932,,,,,,,,,,,,,,,,,,,,,,,,,,,,,,,,,,,,,,,,,,,,,,,,,,,,,,,,,,,,7AFWVA,train_y,blue_star,top_right,2025-07-26_13h13.18.416,HideSeek_v1,2022.2.5,59.96929576602406,
,5,5,5,1,0,-4,65,,train_dim1_1,1,30,,,,2,0,2,0,,,,,,,,,0,0,0,0,0,0,0,0,40,0,40,0,,,,,,,,,,,,,,,,,,,,,,,,,,,,,,,,,,,,,,,,,,,,,,,,,,,,,,,,,,,,,,,,30,,,,,,,,722.842664900003,722.842664900003,722.842664900003,722.842664900003,722.842664900003,up,8.733473300002515,0,0,0,99,0.4,-0.07999999999999997,up,8.649605199927464,,,,,,,,,,,,,,,,,,,,,,,,,,,,,,,,,,,,,,,,,,,,,,,,,,,,,,,,,,,,7AFWVA,train_y,blue_star,top_right,2025-07-26_13h13.18.416,HideSeek_v1,2022.2.5,59.96929576602406,
,5,5,5,1,0,-4,65,,train_dim1_1,1,30,,,,2,0,2,0,,,,,,,,,0,0,0,0,0,0,0,0,41,0,41,0,,,,,,,,,,,,,,,,,,,,,,,,,,,,,,,,,,,,,,,,,,,,,,,,,,,,,,,,,,,,,,,,30,,,,,,,,731.5834526000544,731.5834526000544,731.5834526000544,731.5834526000544,731.5834526000544,up,0.19297540001571178,0,0,0,99,0.4,2.7755575615628914e-17,up,0.10896859993226826,,,,,,,,,,,,,,,,,,,,,,,,,,,,,,,,,,,,,,,,,,,,,,,,,,,,,,,,,,,,7AFWVA,train_y,blue_star,top_right,2025-07-26_13h13.18.416,HideSeek_v1,2022.2.5,59.96929576602406,
,5,5,5,1,0,-4,65,,train_dim1_1,1,30,,,,2,0,2,0,,,,,,,,,0,0,0,0,0,0,0,0,42,0,42,0,,,,,,,,,,,,,,,,,,,,,,,,,,,,,,,,,,,,,,,,,,,,,,,,,,,,,,,,,,,,,,,,30,,,,,,,,731.7817121001426,731.7817121001426,731.7817121001426,731.7817121001426,731.7817121001426,up,0.15969479992054403,0,0,0,99,0.4,0.08000000000000003,up,0.07809609989635646,,,,,,,,,,,,,,,,,,,,,,,,,,,,,,,,,,,,,,,,,,,,,,,,,,,,,,,,,,,,7AFWVA,train_y,blue_star,top_right,2025-07-26_13h13.18.416,HideSeek_v1,2022.2.5,59.96929576602406,
,5,5,5,1,0,-4,65,,train_dim1_1,1,30,,,,2,0,2,0,,,,,,,,,0,0,0,0,0,0,0,0,43,0,43,0,,,,,,,,,,,,,,,,,,,,,,,,,,,,,,,,,,,,,,,,,,,,,,,,,,,,,,,,,,,,,,,,30,,,,,,,,731.9499256000854,731.9499256000854,731.9499256000854,731.9499256000854,731.9499256000854,up,0.6101415001321584,0,0,0,99,0.4,0.16000000000000003,up,0.5302352998405695,,,,,,,,,,,,,,,,,,,,,,,,,,,,,,,,,,,,,,,,,,,,,,,,,,,,,,,,,,,,7AFWVA,train_y,blue_star,top_right,2025-07-26_13h13.18.416,HideSeek_v1,2022.2.5,59.96929576602406,
,5,5,5,1,0,-4,65,,train_dim1_1,1,30,,,,2,0,2,0,,,,,,,,,0,0,0,0,0,0,0,0,44,0,44,0,,,,,,,,,,,,,,,,,,,,,,,,,,,,,,,,,,,,,,,,,,,,,,,,,,,,,,,,,,,,,,,,30,,,,,,,,732.5653606001288,732.5653606001288,732.5653606001288,732.5653606001288,732.5653606001288,up,0.27655629999935627,0,0,0,99,0.4,0.24000000000000005,up,0.19512079982087016,,,,,,,,,,,,,,,,,,,,,,,,,,,,,,,,,,,,,,,,,,,,,,,,,,,,,,,,,,,,7AFWVA,train_y,blue_star,top_right,2025-07-26_13h13.18.416,HideSeek_v1,2022.2.5,59.96929576602406,
,5,5,5,1,0,-4,65,,train_dim1_1,1,30,,,,2,0,2,0,,,,,,,,,0,0,0,0,0,0,0,0,45,0,45,0,,,,,,,,,,,,,,,,,,,,,,,,,,,,,,,,,,,,,,,,,,,,,,,,,,,,,,,,,,,,,,,,30,,,,,,,,732.8502360000275,732.8502360000275,732.8502360000275,732.8502360000275,732.8502360000275,up,0.17680580005981028,0,0,0,99,0.4,0.32000000000000006,up,0.0943378999363631,,,,,,,,,,,,,,,,,,,,,,,,,,,,,,,,,,,,,,,,,,,,,,,,,,,,,,,,,,,,7AFWVA,train_y,blue_star,top_right,2025-07-26_13h13.18.416,HideSeek_v1,2022.2.5,59.96929576602406,
,5,5,5,1,0,-4,65,,train_dim1_1,1,30,,,,2,0,2,0,,,,,,,,,0,0,0,0,0,0,0,0,46,0,46,0,,,,,,,,,,,,,,,,,,,,,,,,,,,,,,,,,,,,,,,,,,,,,,,,,,,,,,,,,,,,,,,,30,,,,,,,,733.0329609999899,733.0329609999899,733.0329609999899,733.0329609999899,733.0329609999899,left,1.343398500001058,0,0,0,99,0.32,0.32000000000000006,left,1.2566286998335272,,,,,,,,,,,,,,,,,,,,,,,,,,,,,,,,,,,,,,,,,,,,,,,,,,,,,,,,,,,,7AFWVA,train_y,blue_star,top_right,2025-07-26_13h13.18.416,HideSeek_v1,2022.2.5,59.96929576602406,
,5,5,5,1,0,-4,65,,train_dim1_1,1,30,,,,2,0,2,0,,,,,,,,,0,0,0,0,0,0,0,0,47,0,47,0,,,,,,,,,,,,,,,,,,,,,,,,,,,,,,,,,,,,,,,,,,,,,,,,,,,,,,,,,,,,,,,,30,,,,,,,,734.3840582000557,734.3840582000557,734.3840582000557,734.3840582000557,734.3840582000557,left,0.1931679998524487,0,0,0,99,0.24,0.32000000000000006,left,0.11980019975453615,,,,,,,,,,,,,,,,,,,,,,,,,,,,,,,,,,,,,,,,,,,,,,,,,,,,,,,,,,,,7AFWVA,train_y,blue_star,top_right,2025-07-26_13h13.18.416,HideSeek_v1,2022.2.5,59.96929576602406,
,5,5,5,1,0,-4,65,,train_dim1_1,1,30,,,,2,0,2,0,,,,,,,,,0,0,0,0,0,0,0,0,48,0,48,0,,,,,,,,,,,,,,,,,,,,,,,,,,,,,,,,,,,,,,,,,,,,,,,,,,,,,,,,,,,,,,,,30,,,,,,,,734.5840716001112,734.5840716001112,734.5840716001112,734.5840716001112,734.5840716001112,return,1.5110955000855029,0,0,0,0,0.24,0.32000000000000006,return,1.4364632000215352,4,0,0.24,0.32000000000000006,,,,,,,,,,,,,,,,,,,,,,,,,,,,,,,,,,,,,,,,,,,,,,,,,,,,,,,,7AFWVA,train_y,blue_star,top_right,2025-07-26_13h13.18.416,HideSeek_v1,2022.2.5,59.96929576602406,
,8,7,8,2,0,-5,66,,train_dim1_1,2,30,,,,2,0,2,0,,,,,,,,,0,0,0,0,0,1,1,1,0,0,0,0,,,,,,,,,,,,,,,,,,,,,,,,,stimuli/alien_stimuli/66.png,,,,,,,,,,,,,,,,,,,,,,,,,,,,,stimuli/alien_stimuli/65.png,65,5,3,,,,,,,30,,,,,,,,754.4733651001006,754.4733651001006,754.4733651001006,754.4733651001006,754.4733651001006,left,5.523944400018081,0,0,0,99,0.39999999999999997,0.16,left,5.4365737999323756,,,,,752.9026483001653,754.4733651001006,0.24,-0.32,0.32,0.0,-0.16,0.24,0.24,0.24,-0.32,737.6714825001545,737.6714825001545,737.6714825001545,737.6714825001545,737.6714825001545,737.6714825001545,737.6714825001545,737.6714825001545,737.6568900901591,15.34828280005604,return,15.206194000085816,,,,,,,,,,,,,,,,,,,,,,,,,,,,,,,,,7AFWVA,train_y,blue_star,top_right,2025-07-26_13h13.18.416,HideSeek_v1,2022.2.5,59.96929576602406,
,8,7,8,2,0,-5,66,,train_dim1_1,2,30,,,,2,0,2,0,,,,,,,,,0,0,0,0,0,1,1,1,1,0,1,0,,,,,,,,,,,,,,,,,,,,,,,,,,,,,,,,,,,,,,,,,,,,,,,,,,,,,,,,,,,,,,,,30,,,,,,,,759.9923466001637,759.9923466001637,759.9923466001637,759.9923466001637,759.9923466001637,left,0.4234601000789553,0,0,0,99,0.31999999999999995,0.16,left,0.34535579988732934,,,,,,,,,,,,,,,,,,,,,,,,,,,,,,,,,,,,,,,,,,,,,,,,,,,,,,,,,,,,7AFWVA,train_y,blue_star,top_right,2025-07-26_13h13.18.416,HideSeek_v1,2022.2.5,59.96929576602406,
,8,7,8,2,0,-5,66,,train_dim1_1,2,30,,,,2,0,2,0,,,,,,,,,0,0,0,0,0,1,1,1,2,0,2,0,,,,,,,,,,,,,,,,,,,,,,,,,,,,,,,,,,,,,,,,,,,,,,,,,,,,,,,,,,,,,,,,30,,,,,,,,760.4224312000442,760.4224312000442,760.4224312000442,760.4224312000442,760.4224312000442,left,0.5101654999889433,0,0,0,99,0.23999999999999994,0.16,left,0.4346514998469502,,,,,,,,,,,,,,,,,,,,,,,,,,,,,,,,,,,,,,,,,,,,,,,,,,,,,,,,,,,,7AFWVA,train_y,blue_star,top_right,2025-07-26_13h13.18.416,HideSeek_v1,2022.2.5,59.96929576602406,
,8,7,8,2,0,-5,66,,train_dim1_1,2,30,,,,2,0,2,0,,,,,,,,,0,0,0,0,0,1,1,1,3,0,3,0,,,,,,,,,,,,,,,,,,,,,,,,,,,,,,,,,,,,,,,,,,,,,,,,,,,,,,,,,,,,,,,,30,,,,,,,,760.9396124000195,760.9396124000195,760.9396124000195,760.9396124000195,760.9396124000195,left,0.5768953999504447,0,0,0,99,0.15999999999999992,0.16,left,0.4935075999237597,,,,,,,,,,,,,,,,,,,,,,,,,,,,,,,,,,,,,,,,,,,,,,,,,,,,,,,,,,,,7AFWVA,train_y,blue_star,top_right,2025-07-26_13h13.18.416,HideSeek_v1,2022.2.5,59.96929576602406,
,8,7,8,2,0,-5,66,,train_dim1_1,2,30,,,,2,0,2,0,,,,,,,,,0,0,0,0,0,1,1,1,4,0,4,0,,,,,,,,,,,,,,,,,,,,,,,,,,,,,,,,,,,,,,,,,,,,,,,,,,,,,,,,,,,,,,,,30,,,,,,,,761.5405067000538,761.5405067000538,761.5405067000538,761.5405067000538,761.5405067000538,left,0.7770084999501705,0,0,0,99,0.07999999999999992,0.16,left,0.6856277999468148,,,,,,,,,,,,,,,,,,,,,,,,,,,,,,,,,,,,,,,,,,,,,,,,,,,,,,,,,,,,7AFWVA,train_y,blue_star,top_right,2025-07-26_13h13.18.416,HideSeek_v1,2022.2.5,59.96929576602406,
,8,7,8,2,0,-5,66,,train_dim1_1,2,30,,,,2,0,2,0,,,,,,,,,0,0,0,0,0,1,1,1,5,0,5,0,,,,,,,,,,,,,,,,,,,,,,,,,,,,,,,,,,,,,,,,,,,,,,,,,,,,,,,,,,,,,,,,30,,,,,,,,762.3071052001324,762.3071052001324,762.3071052001324,762.3071052001324,762.3071052001324,down,1.7444069001358002,0,0,0,99,0.07999999999999992,0.08,down,1.6635716997552663,,,,,,,,,,,,,,,,,,,,,,,,,,,,,,,,,,,,,,,,,,,,,,,,,,,,,,,,,,,,7AFWVA,train_y,blue_star,top_right,2025-07-26_13h13.18.416,HideSeek_v1,2022.2.5,59.96929576602406,
,8,7,8,2,0,-5,66,,train_dim1_1,2,30,,,,2,0,2,0,,,,,,,,,0,0,0,0,0,1,1,1,6,0,6,0,,,,,,,,,,,,,,,,,,,,,,,,,,,,,,,,,,,,,,,,,,,,,,,,,,,,,,,,,,,,,,,,30,,,,,,,,764.0592964000534,764.0592964000534,764.0592964000534,764.0592964000534,764.0592964000534,down,0.32691660011187196,0,0,0,99,0.07999999999999992,0.0,down,0.24335669982247055,,,,,,,,,,,,,,,,,,,,,,,,,,,,,,,,,,,,,,,,,,,,,,,,,,,,,,,,,,,,7AFWVA,train_y,blue_star,top_right,2025-07-26_13h13.18.416,HideSeek_v1,2022.2.5,59.96929576602406,
,8,7,8,2,0,-5,66,,train_dim1_1,2,30,,,,2,0,2,0,,,,,,,,,0,0,0,0,0,1,1,1,7,0,7,0,,,,,,,,,,,,,,,,,,,,,,,,,,,,,,,,,,,,,,,,,,,,,,,,,,,,,,,,,,,,,,,,30,,,,,,,,764.4033209001645,764.4033209001645,764.4033209001645,764.4033209001645,764.4033209001645,down,0.14294630009680986,0,0,0,99,0.07999999999999992,-0.08,down,0.052966199815273285,,,,,,,,,,,,,,,,,,,,,,,,,,,,,,,,,,,,,,,,,,,,,,,,,,,,,,,,,,,,7AFWVA,train_y,blue_star,top_right,2025-07-26_13h13.18.416,HideSeek_v1,2022.2.5,59.96929576602406,
,8,7,8,2,0,-5,66,,train_dim1_1,2,30,,,,2,0,2,0,,,,,,,,,0,0,0,0,0,1,1,1,8,0,8,0,,,,,,,,,,,,,,,,,,,,,,,,,,,,,,,,,,,,,,,,,,,,,,,,,,,,,,,,,,,,,,,,30,,,,,,,,764.5423483001068,764.5423483001068,764.5423483001068,764.5423483001068,764.5423483001068,down,0.310039300005883,0,0,0,99,0.07999999999999992,-0.16,down,0.22937009995803237,,,,,,,,,,,,,,,,,,,,,,,,,,,,,,,,,,,,,,,,,,,,,,,,,,,,,,,,,,,,7AFWVA,train_y,blue_star,top_right,2025-07-26_13h13.18.416,HideSeek_v1,2022.2.5,59.96929576602406,
,8,7,8,2,0,-5,66,,train_dim1_1,2,30,,,,2,0,2,0,,,,,,,,,0,0,0,0,0,1,1,1,9,0,9,0,,,,,,,,,,,,,,,,,,,,,,,,,,,,,,,,,,,,,,,,,,,,,,,,,,,,,,,,,,,,,,,,30,,,,,,,,764.8599905001465,764.8599905001465,764.8599905001465,764.8599905001465,764.8599905001465,down,0.5095049999654293,0,0,0,99,0.07999999999999992,-0.24,down,0.43234059982933104,,,,,,,,,,,,,,,,,,,,,,,,,,,,,,,,,,,,,,,,,,,,,,,,,,,,,,,,,,,,7AFWVA,train_y,blue_star,top_right,2025-07-26_13h13.18.416,HideSeek_v1,2022.2.5,59.96929576602406,
,8,7,8,2,0,-5,66,,train_dim1_1,2,30,,,,2,0,2,0,,,,,,,,,0,0,0,0,0,1,1,1,10,0,10,0,,,,,,,,,,,,,,,,,,,,,,,,,,,,,,,,,,,,,,,,,,,,,,,,,,,,,,,,,,,,,,,,30,,,,,,,,765.3782381000929,765.3782381000929,765.3782381000929,765.3782381000929,765.3782381000929,right,1.6607649999205023,0,0,0,99,0.15999999999999992,-0.24,right,1.582061099819839,,,,,,,,,,,,,,,,,,,,,,,,,,,,,,,,,,,,,,,,,,,,,,,,,,,,,,,,,,,,7AFWVA,train_y,blue_star,top_right,2025-07-26_13h13.18.416,HideSeek_v1,2022.2.5,59.96929576602406,
,8,7,8,2,0,-5,66,,train_dim1_1,2,30,,,,2,0,2,0,,,,,,,,,0,0,0,0,0,1,1,1,11,0,11,0,,,,,,,,,,,,,,,,,,,,,,,,,,,,,,,,,,,,,,,,,,,,,,,,,,,,,,,,,,,,,,,,30,,,,,,,,767.0442228000611,767.0442228000611,767.0442228000611,767.0442228000611,767.0442228000611,right,0.24285860010422766,0,0,0,99,0.23999999999999994,-0.24,right,0.16999559989199042,,,,,,,,,,,,,,,,,,,,,,,,,,,,,,,,,,,,,,,,,,,,,,,,,,,,,,,,,,,,7AFWVA,train_y,blue_star,top_right,2025-07-26_13h13.18.416,HideSeek_v1,2022.2.5,59.96929576602406,
,8,7,8,2,0,-5,66,,train_dim1_1,2,30,,,,2,0,2,0,,,,,,,,,0,0,0,0,0,1,1,1,12,0,12,0,,,,,,,,,,,,,,,,,,,,,,,,,,,,,,,,,,,,,,,,,,,,,,,,,,,,,,,,,,,,,,,,30,,,,,,,,767.2949298999738,767.2949298999738,767.2949298999738,767.2949298999738,767.2949298999738,right,0.3768063997849822,0,0,0,99,0.31999999999999995,-0.24,right,0.29706029989756644,,,,,,,,,,,,,,,,,,,,,,,,,,,,,,,,,,,,,,,,,,,,,,,,,,,,,,,,,,,,7AFWVA,train_y,blue_star,top_right,2025-07-26_13h13.18.416,HideSeek_v1,2022.2.5,59.96929576602406,
,8,7,8,2,0,-5,66,,train_dim1_1,2,30,,,,2,0,2,0,,,,,,,,,0,0,0,0,0,1,1,1,13,0,13,0,,,,,,,,,,,,,,,,,,,,,,,,,,,,,,,,,,,,,,,,,,,,,,,,,,,,,,,,,,,,,,,,30,,,,,,,,767.6806603001896,767.6806603001896,767.6806603001896,767.6806603001896,767.6806603001896,right,0.46004640008322895,0,0,0,99,0.39999999999999997,-0.24,right,0.3798310998827219,,,,,,,,,,,,,,,,,,,,,,,,,,,,,,,,,,,,,,,,,,,,,,,,,,,,,,,,,,,,7AFWVA,train_y,blue_star,top_right,2025-07-26_13h13.18.416,HideSeek_v1,2022.2.5,59.96929576602406,
,8,7,8,2,0,-5,66,,train_dim1_1,2,30,,,,2,0,2,0,,,,,,,,,0,0,0,0,0,1,1,1,14,0,14,0,,,,,,,,,,,,,,,,,,,,,,,,,,,,,,,,,,,,,,,,,,,,,,,,,,,,,,,,,,,,,,,,30,,,,,,,,768.145797500154,768.145797500154,768.145797500154,768.145797500154,768.145797500154,right,1.4275889000855386,0,0,0,99,0.48,-0.24,right,1.3436142997816205,,,,,,,,,,,,,,,,,,,,,,,,,,,,,,,,,,,,,,,,,,,,,,,,,,,,,,,,,,,,7AFWVA,train_y,blue_star,top_right,2025-07-26_13h13.18.416,HideSeek_v1,2022.2.5,59.96929576602406,
,8,7,8,2,0,-5,66,,train_dim1_1,2,30,,,,2,0,2,0,,,,,,,,,0,0,0,0,0,1,1,1,15,0,15,0,,,,,,,,,,,,,,,,,,,,,,,,,,,,,,,,,,,,,,,,,,,,,,,,,,,,,,,,,,,,,,,,30,,,,,,,,769.5803912000265,769.5803912000265,769.5803912000265,769.5803912000265,769.5803912000265,up,0.9769559998530895,0,0,0,99,0.48,-0.15999999999999998,up,0.8962389000225812,,,,,,,,,,,,,,,,,,,,,,,,,,,,,,,,,,,,,,,,,,,,,,,,,,,,,,,,,,,,7AFWVA,train_y,blue_star,top_right,2025-07-26_13h13.18.416,HideSeek_v1,2022.2.5,59.96929576602406,
,8,7,8,2,0,-5,66,,train_dim1_1,2,30,,,,2,0,2,0,,,,,,,,,0,0,0,0,0,1,1,1,16,0,16,0,,,,,,,,,,,,,,,,,,,,,,,,,,,,,,,,,,,,,,,,,,,,,,,,,,,,,,,,,,,,,,,,30,,,,,,,,770.5640979001764,770.5640979001764,770.5640979001764,770.5640979001764,770.5640979001764,left,5.280993499793112,0,0,0,99,0.39999999999999997,-0.15999999999999998,left,5.201610799878836,,,,,,,,,,,,,,,,,,,,,,,,,,,,,,,,,,,,,,,,,,,,,,,,,,,,,,,,,,,,7AFWVA,train_y,blue_star,top_right,2025-07-26_13h13.18.416,HideSeek_v1,2022.2.5,59.96929576602406,
,8,7,8,2,0,-5,66,,train_dim1_1,2,30,,,,2,0,2,0,,,,,,,,,0,0,0,0,0,1,1,1,17,0,17,0,,,,,,,,,,,,,,,,,,,,,,,,,,,,,,,,,,,,,,,,,,,,,,,,,,,,,,,,,,,,,,,,30,,,,,,,,775.8528168001212,775.8528168001212,775.8528168001212,775.8528168001212,775.8528168001212,left,0.32628229982219636,0,0,0,99,0.31999999999999995,-0.15999999999999998,left,0.2522003997582942,,,,,,,,,,,,,,,,,,,,,,,,,,,,,,,,,,,,,,,,,,,,,,,,,,,,,,,,,,,,7AFWVA,train_y,blue_star,top_right,2025-07-26_13h13.18.416,HideSeek_v1,2022.2.5,59.96929576602406,
,8,7,8,2,0,-5,66,,train_dim1_1,2,30,,,,2,0,2,0,,,,,,,,,0,0,0,0,0,1,1,1,18,0,18,0,,,,,,,,,,,,,,,,,,,,,,,,,,,,,,,,,,,,,,,,,,,,,,,,,,,,,,,,,,,,,,,,30,,,,,,,,776.187354200054,776.187354200054,776.187354200054,776.187354200054,776.187354200054,left,0.22674599988386035,0,0,0,99,0.23999999999999994,-0.15999999999999998,left,0.13965420005843043,,,,,,,,,,,,,,,,,,,,,,,,,,,,,,,,,,,,,,,,,,,,,,,,,,,,,,,,,,,,7AFWVA,train_y,blue_star,top_right,2025-07-26_13h13.18.416,HideSeek_v1,2022.2.5,59.96929576602406,
,8,7,8,2,0,-5,66,,train_dim1_1,2,30,,,,2,0,2,0,,,,,,,,,0,0,0,0,0,1,1,1,19,0,19,0,,,,,,,,,,,,,,,,,,,,,,,,,,,,,,,,,,,,,,,,,,,,,,,,,,,,,,,,,,,,,,,,30,,,,,,,,776.4195684001315,776.4195684001315,776.4195684001315,776.4195684001315,776.4195684001315,left,0.19302510004490614,0,0,0,99,0.15999999999999992,-0.15999999999999998,left,0.11469039996154606,,,,,,,,,,,,,,,,,,,,,,,,,,,,,,,,,,,,,,,,,,,,,,,,,,,,,,,,,,,,7AFWVA,train_y,blue_star,top_right,2025-07-26_13h13.18.416,HideSeek_v1,2022.2.5,59.96929576602406,
,8,7,8,2,0,-5,66,,train_dim1_1,2,30,,,,2,0,2,0,,,,,,,,,0,0,0,0,0,1,1,1,20,0,20,0,,,,,,,,,,,,,,,,,,,,,,,,,,,,,,,,,,,,,,,,,,,,,,,,,,,,,,,,,,,,,,,,30,,,,,,,,776.6196648001205,776.6196648001205,776.6196648001205,776.6196648001205,776.6196648001205,up,1.4110852999147028,0,0,0,99,0.15999999999999992,-0.07999999999999997,up,1.3363164998590946,,,,,,,,,,,,,,,,,,,,,,,,,,,,,,,,,,,,,,,,,,,,,,,,,,,,,,,,,,,,7AFWVA,train_y,blue_star,top_right,2025-07-26_13h13.18.416,HideSeek_v1,2022.2.5,59.96929576602406,
,8,7,8,2,0,-5,66,,train_dim1_1,2,30,,,,2,0,2,0,,,,,,,,,0,0,0,0,0,1,1,1,21,0,21,0,,,,,,,,,,,,,,,,,,,,,,,,,,,,,,,,,,,,,,,,,,,,,,,,,,,,,,,,,,,,,,,,30,,,,,,,,778.038121300051,778.038121300051,778.038121300051,778.038121300051,778.038121300051,up,0.17611010000109673,0,0,0,99,0.15999999999999992,2.7755575615628914e-17,up,0.10312969982624054,,,,,,,,,,,,,,,,,,,,,,,,,,,,,,,,,,,,,,,,,,,,,,,,,,,,,,,,,,,,7AFWVA,train_y,blue_star,top_right,2025-07-26_13h13.18.416,HideSeek_v1,2022.2.5,59.96929576602406,
,8,7,8,2,0,-5,66,,train_dim1_1,2,30,,,,2,0,2,0,,,,,,,,,0,0,0,0,0,1,1,1,22,0,22,0,,,,,,,,,,,,,,,,,,,,,,,,,,,,,,,,,,,,,,,,,,,,,,,,,,,,,,,,,,,,,,,,30,,,,,,,,778.2217484000139,778.2217484000139,778.2217484000139,778.2217484000139,778.2217484000139,up,0.15967169986106455,0,0,0,99,0.15999999999999992,0.08000000000000003,up,0.08068009978160262,,,,,,,,,,,,,,,,,,,,,,,,,,,,,,,,,,,,,,,,,,,,,,,,,,,,,,,,,,,,7AFWVA,train_y,blue_star,top_right,2025-07-26_13h13.18.416,HideSeek_v1,2022.2.5,59.96929576602406,
,8,7,8,2,0,-5,66,,train_dim1_1,2,30,,,,2,0,2,0,,,,,,,,,0,0,0,0,0,1,1,1,23,0,23,0,,,,,,,,,,,,,,,,,,,,,,,,,,,,,,,,,,,,,,,,,,,,,,,,,,,,,,,,,,,,,,,,30,,,,,,,,778.3879725001752,778.3879725001752,778.3879725001752,778.3879725001752,778.3879725001752,up,0.14305910002440214,0,0,0,99,0.15999999999999992,0.16000000000000003,up,0.06934419996105134,,,,,,,,,,,,,,,,,,,,,,,,,,,,,,,,,,,,,,,,,,,,,,,,,,,,,,,,,,,,7AFWVA,train_y,blue_star,top_right,2025-07-26_13h13.18.416,HideSeek_v1,2022.2.5,59.96929576602406,
,8,7,8,2,0,-5,66,,train_dim1_1,2,30,,,,2,0,2,0,,,,,,,,,0,0,0,0,0,1,1,1,24,0,24,0,,,,,,,,,,,,,,,,,,,,,,,,,,,,,,,,,,,,,,,,,,,,,,,,,,,,,,,,,,,,,,,,30,,,,,,,,778.5379845001735,778.5379845001735,778.5379845001735,778.5379845001735,778.5379845001735,up,0.15972819994203746,0,0,0,99,0.15999999999999992,0.24000000000000005,up,0.08392649982124567,,,,,,,,,,,,,,,,,,,,,,,,,,,,,,,,,,,,,,,,,,,,,,,,,,,,,,,,,,,,7AFWVA,train_y,blue_star,top_right,2025-07-26_13h13.18.416,HideSeek_v1,2022.2.5,59.96929576602406,
,8,7,8,2,0,-5,66,,train_dim1_1,2,30,,,,2,0,2,0,,,,,,,,,0,0,0,0,0,1,1,1,25,0,25,0,,,,,,,,,,,,,,,,,,,,,,,,,,,,,,,,,,,,,,,,,,,,,,,,,,,,,,,,,,,,,,,,30,,,,,,,,778.7051185001619,778.7051185001619,778.7051185001619,778.7051185001619,778.7051185001619,down,1.1944484999403358,0,0,0,99,0.15999999999999992,0.16000000000000003,down,1.110226099845022,,,,,,,,,,,,,,,,,,,,,,,,,,,,,,,,,,,,,,,,,,,,,,,,,,,,,,,,,,,,7AFWVA,train_y,blue_star,top_right,2025-07-26_13h13.18.416,HideSeek_v1,2022.2.5,59.96929576602406,
,8,7,8,2,0,-5,66,,train_dim1_1,2,30,,,,2,0,2,0,,,,,,,,,0,0,0,0,0,1,1,1,26,0,26,0,,,,,,,,,,,,,,,,,,,,,,,,,,,,,,,,,,,,,,,,,,,,,,,,,,,,,,,,,,,,,,,,30,,,,,,,,779.9113757000305,779.9113757000305,779.9113757000305,779.9113757000305,779.9113757000305,left,1.944391000084579,0,0,0,99,0.07999999999999992,0.16000000000000003,left,1.851758899865672,,,,,,,,,,,,,,,,,,,,,,,,,,,,,,,,,,,,,,,,,,,,,,,,,,,,,,,,,,,,7AFWVA,train_y,blue_star,top_right,2025-07-26_13h13.18.416,HideSeek_v1,2022.2.5,59.96929576602406,
,8,7,8,2,0,-5,66,,train_dim1_1,2,30,,,,2,0,2,0,,,,,,,,,0,0,0,0,0,1,1,1,27,0,27,0,,,,,,,,,,,,,,,,,,,,,,,,,,,,,,,,,,,,,,,,,,,,,,,,,,,,,,,,,,,,,,,,30,,,,,,,,781.8578173001297,781.8578173001297,781.8578173001297,781.8578173001297,781.8578173001297,return,1.8112133000977337,0,0,0,0,0.07999999999999992,0.16000000000000003,return,1.734098699875176,4,-5,0.07999999999999992,0.16000000000000003,,,,,,,,,,,,,,,,,,,,,,,,,,,,,,,,,,,,,,,,,,,,,,,,,,,,,,,,7AFWVA,train_y,blue_star,top_right,2025-07-26_13h13.18.416,HideSeek_v1,2022.2.5,59.96929576602406,
,7,8,7,5,0,-3,64,,train_dim1_1,3,30,,,,2,0,2,0,,,,,,,,,0,0,0,0,0,2,2,2,0,0,0,0,,,,,,,,,,,,,,,,,,,,,,,,,stimuli/alien_stimuli/64.png,,,,,,,,,,,,,,,,,,,,,,,,,,,,,stimuli/alien_stimuli/66.png,66,8,4,,,,,,,30,,,,,,,,790.9872848000377,790.9872848000377,790.9872848000377,790.9872848000377,790.9872848000377,down,4.741184100043029,0,0,0,99,0.4,0.15999999999999998,down,4.666729799937457,,,,,789.433272600174,790.9872848000377,0.48,-0.24,0.4,0.0,-0.039999999999999994,0.48,0.48,0.48,-0.24,785.2338626000565,785.2338626000565,785.2338626000565,785.2338626000565,785.2338626000565,785.2338626000565,785.2338626000565,785.2338626000565,785.2297827900154,4.306016799993813,return,4.1783295997884125,,,,,,,,,,,,,,,,,,,,,,,,,,,,,,,,,7AFWVA,train_y,blue_star,top_right,2025-07-26_13h13.18.416,HideSeek_v1,2022.2.5,59.96929576602406,
,7,8,7,5,0,-3,64,,train_dim1_1,3,30,,,,2,0,2,0,,,,,,,,,0,0,0,0,0,2,2,2,1,0,1,0,,,,,,,,,,,,,,,,,,,,,,,,,,,,,,,,,,,,,,,,,,,,,,,,,,,,,,,,,,,,,,,,30,,,,,,,,795.7359819000121,795.7359819000121,795.7359819000121,795.7359819000121,795.7359819000121,down,0.5928638000041246,0,0,0,99,0.4,0.07999999999999997,down,0.5101890999358147,,,,,,,,,,,,,,,,,,,,,,,,,,,,,,,,,,,,,,,,,,,,,,,,,,,,,,,,,,,,7AFWVA,train_y,blue_star,top_right,2025-07-26_13h13.18.416,HideSeek_v1,2022.2.5,59.96929576602406,
,7,8,7,5,0,-3,64,,train_dim1_1,3,30,,,,2,0,2,0,,,,,,,,,0,0,0,0,0,2,2,2,2,0,2,0,,,,,,,,,,,,,,,,,,,,,,,,,,,,,,,,,,,,,,,,,,,,,,,,,,,,,,,,,,,,,,,,30,,,,,,,,796.3346236001235,796.3346236001235,796.3346236001235,796.3346236001235,796.3346236001235,down,0.7603729001712054,0,0,0,99,0.4,-2.7755575615628914e-17,down,0.6812366999220103,,,,,,,,,,,,,,,,,,,,,,,,,,,,,,,,,,,,,,,,,,,,,,,,,,,,,,,,,,,,7AFWVA,train_y,blue_star,top_right,2025-07-26_13h13.18.416,HideSeek_v1,2022.2.5,59.96929576602406,
,7,8,7,5,0,-3,64,,train_dim1_1,3,30,,,,2,0,2,0,,,,,,,,,0,0,0,0,0,2,2,2,3,0,3,0,,,,,,,,,,,,,,,,,,,,,,,,,,,,,,,,,,,,,,,,,,,,,,,,,,,,,,,,,,,,,,,,30,,,,,,,,797.1033372001257,797.1033372001257,797.1033372001257,797.1033372001257,797.1033372001257,return,1.2936980000231415,1,0,0,1,0.4,-2.7755575615628914e-17,return,1.21107989968732,1,-5,0.4,-2.7755575615628914e-17,,,,,,,,,,,,,,,,,,,,,,,,,,,,,,,,,,,,,,,,,,,,,,,,,,,,,,,,7AFWVA,train_y,blue_star,top_right,2025-07-26_13h13.18.416,HideSeek_v1,2022.2.5,59.96929576602406,
,5,6,5,5,0,-1,62,,train_dim1_1,4,30,,,,2,0,2,0,,,,,,,,,0,0,0,0,0,3,3,3,0,0,0,0,,,,,,,,,,,,,,,,,,,,,,,,,stimuli/alien_stimuli/62.png,,,,,,,,,,,,,,,,,,,,,,,,,,,,,stimuli/alien_stimuli/64.png,64,7,5,,,,,,,30,,,,,,,,804.9141131001525,804.9141131001525,804.9141131001525,804.9141131001525,804.9141131001525,up,6.594239300116897,1,0,0,99,0.24,0.16,up,6.513269299874082,,,,,803.3616188999731,804.9141131001525,0.4,0,0.24,0.0,0.12,0.4,0.4,0.4,0,799.9655875000171,799.9655875000171,799.9655875000171,799.9655875000171,799.9655875000171,799.9655875000171,799.9655875000171,799.9655875000171,799.9588392901467,3.50510529987514,return,3.3756941999308765,,,,,,,,,,,,,,,,,,,,,,,,,,,,,,,,,7AFWVA,train_y,blue_star,top_right,2025-07-26_13h13.18.416,HideSeek_v1,2022.2.5,59.96929576602406,
,5,6,5,5,0,-1,62,,train_dim1_1,4,30,,,,2,0,2,0,,,,,,,,,0,0,0,0,0,3,3,3,1,0,1,0,,,,,,,,,,,,,,,,,,,,,,,,,,,,,,,,,,,,,,,,,,,,,,,,,,,,,,,,,,,,,,,,30,,,,,,,,811.5166821000166,811.5166821000166,811.5166821000166,811.5166821000166,811.5166821000166,return,1.0933656999841332,1,0,0,0,0.24,0.16,return,1.0154114998877048,2,-5,0.24,0.16,,,,,,,,,,,,,,,,,,,,,,,,,,,,,,,,,,,,,,,,,,,,,,,,,,,,,,,,7AFWVA,train_y,blue_star,top_right,2025-07-26_13h13.18.416,HideSeek_v1,2022.2.5,59.96929576602406,
,8,8,8,8,0,0,61,,train_dim1_1,5,30,,,,2,0,2,0,,,,,,,,,0,0,0,0,0,4,4,4,0,0,0,0,,,,,,,,,,,,,,,,,,,,,,,,,stimuli/alien_stimuli/61.png,,,,,,,,,,,,,,,,,,,,,,,,,,,,,stimuli/alien_stimuli/62.png,62,5,6,,,,,,,30,,,,,,,,823.813000400085,823.813000400085,823.813000400085,823.813000400085,823.813000400085,left,4.826186399906874,1,0,0,99,0.39999999999999997,0.24,left,4.744297900004312,,,,,822.2604181000497,823.813000400085,0.24,0,0.08,0.0,0.04,0.24,0.24,0.24,0,814.1743745000567,814.1743745000567,814.1743745000567,814.1743745000567,814.1743745000567,814.1743745000567,814.1743745000567,814.1743745000567,814.1708847902016,8.192197599913925,return,8.054286600090563,,,,,,,,,,,,,,,,,,,,,,,,,,,,,,,,,7AFWVA,train_y,blue_star,top_right,2025-07-26_13h13.18.416,HideSeek_v1,2022.2.5,59.96929576602406,
,8,8,8,8,0,0,61,,train_dim1_1,5,30,,,,2,0,2,0,,,,,,,,,0,0,0,0,0,4,4,4,1,0,1,0,,,,,,,,,,,,,,,,,,,,,,,,,,,,,,,,,,,,,,,,,,,,,,,,,,,,,,,,,,,,,,,,30,,,,,,,,828.6487017001491,828.6487017001491,828.6487017001491,828.6487017001491,828.6487017001491,return,1.358845999930054,1,1,0,0,0.39999999999999997,0.24,return,1.2822434997651726,2,-6,0.39999999999999997,0.24,,,,,,,,,,,,,,,,,,,,,,,,,,,,,,,,,,,,,,,,,,,,,,,,,,,,,,,,7AFWVA,train_y,blue_star,top_right,2025-07-26_13h13.18.416,HideSeek_v1,2022.2.5,59.96929576602406,
,6,9,6,8,0,-1,62,,train_dim1_1,6,30,,,,2,0,2,0,,,,,,,,,0,0,0,0,0,5,5,5,0,0,0,0,,,,,,,,,,,,,,,,,,,,,,,,,stimuli/alien_stimuli/62.png,,,,,,,,,,,,,,,,,,,,,,,,,,,,,stimuli/alien_stimuli/61.png,61,8,7,,,,,,,30,,,,,,,,850.3372949000914,850.3372949000914,850.3372949000914,850.3372949000914,850.3372949000914,right,5.192924799863249,1,1,0,99,0.4,0.32,right,5.085878599900752,,,,,848.7657680001575,850.3372949000914,0.48,0.24,0.0,0.0,0.24,0.48,0.48,0.48,0.24,831.5731584001333,831.5731584001333,831.5731584001333,831.5731584001333,831.5731584001333,831.5731584001333,831.5731584001333,831.5731584001333,831.5684621900552,17.300015500048175,return,17.16254679998383,,,,,,,,,,,,,,,,,,,,,,,,,,,,,,,,,7AFWVA,train_y,blue_star,top_right,2025-07-26_13h13.18.416,HideSeek_v1,2022.2.5,59.96929576602406,
,6,9,6,8,0,-1,62,,train_dim1_1,6,30,,,,2,0,2,0,,,,,,,,,0,0,0,0,0,5,5,5,1,0,1,0,,,,,,,,,,,,,,,,,,,,,,,,,,,,,,,,,,,,,,,,,,,,,,,,,,,,,,,,,,,,,,,,30,,,,,,,,855.5197606000584,855.5197606000584,855.5197606000584,855.5197606000584,855.5197606000584,down,1.8774910001084208,1,1,0,99,0.4,0.24,down,1.796354399761185,,,,,,,,,,,,,,,,,,,,,,,,,,,,,,,,,,,,,,,,,,,,,,,,,,,,,,,,,,,,7AFWVA,train_y,blue_star,top_right,2025-07-26_13h13.18.416,HideSeek_v1,2022.2.5,59.96929576602406,
,6,9,6,8,0,-1,62,,train_dim1_1,6,30,,,,2,0,2,0,,,,,,,,,0,0,0,0,0,5,5,5,2,0,2,0,,,,,,,,,,,,,,,,,,,,,,,,,,,,,,,,,,,,,,,,,,,,,,,,,,,,,,,,,,,,,,,,30,,,,,,,,857.4154203999788,857.4154203999788,857.4154203999788,857.4154203999788,857.4154203999788,return,2.7283097999170423,1,1,0,0,0.4,0.24,return,2.6311307998839766,1,-5,0.4,0.24,,,,,,,,,,,,,,,,,,,,,,,,,,,,,,,,,,,,,,,,,,,,,,,,,,,,,,,,7AFWVA,train_y,blue_star,top_right,2025-07-26_13h13.18.416,HideSeek_v1,2022.2.5,59.96929576602406,
,6,8,6,5,0,-3,64,,train_dim1_1,7,30,,,,2,0,2,0,,,,,,,,,0,0,0,0,0,6,6,6,0,0,0,0,,,,,,,,,,,,,,,,,,,,,,,,,stimuli/alien_stimuli/64.png,,,,,,,,,,,,,,,,,,,,,,,,,,,,,stimuli/alien_stimuli/62.png,62,6,8,,,,,,,30,,,,,,,,867.5322567999829,867.5322567999829,867.5322567999829,867.5322567999829,867.5322567999829,left,5.176682000048459,1,1,0,99,0.24,0.24,left,5.0988217000849545,,,,,865.9803363000974,867.5322567999829,0.32,0.24,0.08,0.0,0.28,0.32,0.32,0.32,0.24,861.7006803001277,861.7006803001277,861.7006803001277,861.7006803001277,861.7006803001277,861.7006803001277,861.7006803001277,861.7006803001277,861.6941364901838,4.388210300123319,return,4.259451299905777,,,,,,,,,,,,,,,,,,,,,,,,,,,,,,,,,7AFWVA,train_y,blue_star,top_right,2025-07-26_13h13.18.416,HideSeek_v1,2022.2.5,59.96929576602406,
,6,8,6,5,0,-3,64,,train_dim1_1,7,30,,,,2,0,2,0,,,,,,,,,0,0,0,0,0,6,6,6,1,0,1,0,,,,,,,,,,,,,,,,,,,,,,,,,,,,,,,,,,,,,,,,,,,,,,,,,,,,,,,,,,,,,,,,30,,,,,,,,872.7166282001417,872.7166282001417,872.7166282001417,872.7166282001417,872.7166282001417,left,0.37610009987838566,1,1,0,99,0.15999999999999998,0.24,left,0.29273659992031753,,,,,,,,,,,,,,,,,,,,,,,,,,,,,,,,,,,,,,,,,,,,,,,,,,,,,,,,,,,,7AFWVA,train_y,blue_star,top_right,2025-07-26_13h13.18.416,HideSeek_v1,2022.2.5,59.96929576602406,
,6,8,6,5,0,-3,64,,train_dim1_1,7,30,,,,2,0,2,0,,,,,,,,,0,0,0,0,0,6,6,6,2,0,2,0,,,,,,,,,,,,,,,,,,,,,,,,,,,,,,,,,,,,,,,,,,,,,,,,,,,,,,,,,,,,,,,,30,,,,,,,,873.0994971999899,873.0994971999899,873.0994971999899,873.0994971999899,873.0994971999899,left,0.6603508999105543,1,1,0,99,0.07999999999999997,0.24,left,0.5782925998792052,,,,,,,,,,,,,,,,,,,,,,,,,,,,,,,,,,,,,,,,,,,,,,,,,,,,,,,,,,,,7AFWVA,train_y,blue_star,top_right,2025-07-26_13h13.18.416,HideSeek_v1,2022.2.5,59.96929576602406,
,6,8,6,5,0,-3,64,,train_dim1_1,7,30,,,,2,0,2,0,,,,,,,,,0,0,0,0,0,6,6,6,3,0,3,0,,,,,,,,,,,,,,,,,,,,,,,,,,,,,,,,,,,,,,,,,,,,,,,,,,,,,,,,,,,,,,,,30,,,,,,,,873.7672489001416,873.7672489001416,873.7672489001416,873.7672489001416,873.7672489001416,return,1.4106342000886798,1,0,0,0,0.07999999999999997,0.24,return,1.3369080000557005,1,-8,0.07999999999999997,0.24,,,,,,,,,,,,,,,,,,,,,,,,,,,,,,,,,,,,,,,,,,,,,,,,,,,,,,,,7AFWVA,train_y,blue_star,top_right,2025-07-26_13h13.18.416,HideSeek_v1,2022.2.5,59.96929576602406,
,9,7,9,7,0,0,61,,train_dim1_1,8,30,,,,2,0,2,0,,,,,,,,,0,0,0,0,0,7,7,7,0,0,0,0,,,,,,,,,,,,,,,,,,,,,,,,,stimuli/alien_stimuli/61.png,,,,,,,,,,,,,,,,,,,,,,,,,,,,,stimuli/alien_stimuli/64.png,64,6,9,,,,,,,30,,,,,,,,880.6930894001853,880.6930894001853,880.6930894001853,880.6930894001853,880.6930894001853,down,8.66316769993864,1,0,0,99,0.56,0.08,down,8.590500299818814,,,,,879.1409851000644,880.6930894001853,0.32,0,0.24,0.0,0.12,0.32,0.32,0.32,0,876.7502300001215,876.7502300001215,876.7502300001215,876.7502300001215,876.7502300001215,876.7502300001215,876.7502300001215,876.7502300001215,876.7388020901242,2.505060900002718,return,2.3590911999344826,,,,,,,,,,,,,,,,,,,,,,,,,,,,,,,,,7AFWVA,train_y,blue_star,top_right,2025-07-26_13h13.18.416,HideSeek_v1,2022.2.5,59.96929576602406,
,9,7,9,7,0,0,61,,train_dim1_1,8,30,,,,2,0,2,0,,,,,,,,,0,0,0,0,0,7,7,7,1,0,1,0,,,,,,,,,,,,,,,,,,,,,,,,,,,,,,,,,,,,,,,,,,,,,,,,,,,,,,,,,,,,,,,,30,,,,,,,,889.3663361000363,889.3663361000363,889.3663361000363,889.3663361000363,889.3663361000363,return,0.6262738001532853,1,1,0,0,0.56,0.08,return,0.5420826997142285,0,-8,0.56,0.08,,,,,,,,,,,,,,,,,,,,,,,,,,,,,,,,,,,,,,,,,,,,,,,,,,,,,,,,7AFWVA,train_y,blue_star,top_right,2025-07-26_13h13.18.416,HideSeek_v1,2022.2.5,59.96929576602406,
,9,8,9,4,0,-4,65,,train_dim1_1,9,30,,,,2,0,2,0,,,,,,,,,0,0,0,0,0,8,8,8,0,0,0,0,,,,,,,,,,,,,,,,,,,,,,,,,stimuli/alien_stimuli/65.png,,,,,,,,,,,,,,,,,,,,,,,,,,,,,stimuli/alien_stimuli/61.png,61,9,10,,,,,,,30,,,,,,,,896.3068140000105,896.3068140000105,896.3068140000105,896.3068140000105,896.3068140000105,down,11.381676399847493,1,1,0,99,0.56,0.15999999999999998,down,11.299599200021476,,,,,894.7541932000313,896.3068140000105,0.56,0.16,0.0,0.0,0.16,0.56,0.56,0.56,0.16,891.5687552001327,891.5687552001327,891.5687552001327,891.5687552001327,891.5687552001327,891.5687552001327,891.5687552001327,891.5687552001327,891.568945460068,3.304334199987352,return,3.153885700041428,,,,,,,,,,,,,,,,,,,,,,,,,,,,,,,,,7AFWVA,train_y,blue_star,top_right,2025-07-26_13h13.18.416,HideSeek_v1,2022.2.5,59.96929576602406,
,9,8,9,4,0,-4,65,,train_dim1_1,9,30,,,,2,0,2,0,,,,,,,,,0,0,0,0,0,8,8,8,1,0,1,0,,,,,,,,,,,,,,,,,,,,,,,,,,,,,,,,,,,,,,,,,,,,,,,,,,,,,,,,,,,,,,,,30,,,,,,,,907.7096506999806,907.7096506999806,907.7096506999806,907.7096506999806,907.7096506999806,down,0.176428799983114,1,1,0,99,0.56,0.07999999999999997,down,0.0867544999346137,,,,,,,,,,,,,,,,,,,,,,,,,,,,,,,,,,,,,,,,,,,,,,,,,,,,,,,,,,,,7AFWVA,train_y,blue_star,top_right,2025-07-26_13h13.18.416,HideSeek_v1,2022.2.5,59.96929576602406,
,9,8,9,4,0,-4,65,,train_dim1_1,9,30,,,,2,0,2,0,,,,,,,,,0,0,0,0,0,8,8,8,2,0,2,0,,,,,,,,,,,,,,,,,,,,,,,,,,,,,,,,,,,,,,,,,,,,,,,,,,,,,,,,,,,,,,,,30,,,,,,,,907.8792059000116,907.8792059000116,907.8792059000116,907.8792059000116,907.8792059000116,left,1.8608585000038147,1,1,0,99,0.48000000000000004,0.07999999999999997,left,1.7733362999279052,,,,,,,,,,,,,,,,,,,,,,,,,,,,,,,,,,,,,,,,,,,,,,,,,,,,,,,,,,,,7AFWVA,train_y,blue_star,top_right,2025-07-26_13h13.18.416,HideSeek_v1,2022.2.5,59.96929576602406,
,9,8,9,4,0,-4,65,,train_dim1_1,9,30,,,,2,0,2,0,,,,,,,,,0,0,0,0,0,8,8,8,3,0,3,0,,,,,,,,,,,,,,,,,,,,,,,,,,,,,,,,,,,,,,,,,,,,,,,,,,,,,,,,,,,,,,,,30,,,,,,,,909.7459969001357,909.7459969001357,909.7459969001357,909.7459969001357,909.7459969001357,right,1.8784802998416126,1,1,0,99,0.56,0.07999999999999997,right,1.795257199788466,,,,,,,,,,,,,,,,,,,,,,,,,,,,,,,,,,,,,,,,,,,,,,,,,,,,,,,,,,,,7AFWVA,train_y,blue_star,top_right,2025-07-26_13h13.18.416,HideSeek_v1,2022.2.5,59.96929576602406,
,9,8,9,4,0,-4,65,,train_dim1_1,9,30,,,,2,0,2,0,,,,,,,,,0,0,0,0,0,8,8,8,4,0,4,0,,,,,,,,,,,,,,,,,,,,,,,,,,,,,,,,,,,,,,,,,,,,,,,,,,,,,,,,,,,,,,,,30,,,,,,,,911.6385916001163,911.6385916001163,911.6385916001163,911.6385916001163,911.6385916001163,return,0.3717191000469029,1,0,0,0,0.56,0.07999999999999997,return,0.2886657000053674,-2,-8,0.56,0.07999999999999997,,,,,,,,,,,,,,,,,,,,,,,,,,,,,,,,,,,,,,,,,,,,,,,,,,,,,,,,7AFWVA,train_y,blue_star,top_right,2025-07-26_13h13.18.416,HideSeek_v1,2022.2.5,59.96929576602406,
,7,7,7,2,0,-5,66,,train_dim1_1,10,30,,,,2,0,2,0,,,,,,,,,0,0,0,0,0,9,9,9,0,0,0,0,,,,,,,,,,,,,,,,,,,,,,,,,stimuli/alien_stimuli/66.png,,,,,,,,,,,,,,,,,,,,,,,,,,,,,stimuli/alien_stimuli/65.png,65,9,11,,,,,,,30,,,,,,,,918.1126179001294,918.1126179001294,918.1126179001294,918.1126179001294,918.1126179001294,down,9.796020000008866,1,0,0,99,0.4,0.08,down,9.711730799870566,,,,,916.5554246001411,918.1126179001294,0.56,-0.08,0.32,0.0,0.07999999999999999,0.56,0.56,0.56,-0.08,913.5744706001133,913.5744706001133,913.5744706001133,913.5744706001133,913.5744706001133,913.5744706001133,913.5744706001133,913.5744706001133,913.5699355900986,3.088379600085318,return,2.9539849997963756,,,,,,,,,,,,,,,,,,,,,,,,,,,,,,,,,7AFWVA,train_y,blue_star,top_right,2025-07-26_13h13.18.416,HideSeek_v1,2022.2.5,59.96929576602406,
,7,7,7,2,0,-5,66,,train_dim1_1,10,30,,,,2,0,2,0,,,,,,,,,0,0,0,0,0,9,9,9,1,0,1,0,,,,,,,,,,,,,,,,,,,,,,,,,,,,,,,,,,,,,,,,,,,,,,,,,,,,,,,,,,,,,,,,30,,,,,,,,927.930483300006,927.930483300006,927.930483300006,927.930483300006,927.930483300006,down,0.4931266000494361,1,0,0,99,0.4,0.0,down,0.3866359998937696,,,,,,,,,,,,,,,,,,,,,,,,,,,,,,,,,,,,,,,,,,,,,,,,,,,,,,,,,,,,7AFWVA,train_y,blue_star,top_right,2025-07-26_13h13.18.416,HideSeek_v1,2022.2.5,59.96929576602406,
,7,7,7,2,0,-5,66,,train_dim1_1,10,30,,,,2,0,2,0,,,,,,,,,0,0,0,0,0,9,9,9,2,0,2,0,,,,,,,,,,,,,,,,,,,,,,,,,,,,,,,,,,,,,,,,,,,,,,,,,,,,,,,,,,,,,,,,30,,,,,,,,928.4125657000113,928.4125657000113,928.4125657000113,928.4125657000113,928.4125657000113,down,1.3605889999307692,1,0,0,99,0.4,-0.08,down,1.2830475000664592,,,,,,,,,,,,,,,,,,,,,,,,,,,,,,,,,,,,,,,,,,,,,,,,,,,,,,,,,,,,7AFWVA,train_y,blue_star,top_right,2025-07-26_13h13.18.416,HideSeek_v1,2022.2.5,59.96929576602406,
,7,7,7,2,0,-5,66,,train_dim1_1,10,30,,,,2,0,2,0,,,,,,,,,0,0,0,0,0,9,9,9,3,0,3,0,,,,,,,,,,,,,,,,,,,,,,,,,,,,,,,,,,,,,,,,,,,,,,,,,,,,,,,,,,,,,,,,30,,,,,,,,929.7814671001397,929.7814671001397,929.7814671001397,929.7814671001397,929.7814671001397,down,1.627446100115776,1,0,0,99,0.4,-0.16,down,1.5498220999725163,,,,,,,,,,,,,,,,,,,,,,,,,,,,,,,,,,,,,,,,,,,,,,,,,,,,,,,,,,,,7AFWVA,train_y,blue_star,top_right,2025-07-26_13h13.18.416,HideSeek_v1,2022.2.5,59.96929576602406,
,7,7,7,2,0,-5,66,,train_dim1_1,10,30,,,,2,0,2,0,,,,,,,,,0,0,0,0,0,9,9,9,4,0,4,0,,,,,,,,,,,,,,,,,,,,,,,,,,,,,,,,,,,,,,,,,,,,,,,,,,,,,,,,,,,,,,,,30,,,,,,,,931.4173558000475,931.4173558000475,931.4173558000475,931.4173558000475,931.4173558000475,return,1.3429954999592155,1,1,0,0,0.4,-0.16,return,1.2567332996986806,-6,-8,0.4,-0.16,,,,,,,,,,,,,,,,,,,,,,,,,,,,,,,,,,,,,,,,,,,,,,,,,,,,,,,,7AFWVA,train_y,blue_star,top_right,2025-07-26_13h13.18.416,HideSeek_v1,2022.2.5,59.96929576602406,
,9,6,9,2,0,-4,65,,train_dim1_1,11,30,,,,2,0,2,0,,,,,,,,,0,0,0,0,0,10,10,10,0,0,0,0,,,,,,,,,,,,,,,,,,,,,,,,,stimuli/alien_stimuli/65.png,,,,,,,,,,,,,,,,,,,,,,,,,,,,,stimuli/alien_stimuli/66.png,66,7,12,,,,,,,30,,,,,,,,939.5600879001431,939.5600879001431,939.5600879001431,939.5600879001431,939.5600879001431,left,3.3755443999543786,1,1,0,99,0.48000000000000004,0.08,left,3.2953178996685892,,,,,938.0067172001582,939.5600879001431,0.4,-0.24,0.4,0.0,-0.039999999999999994,0.4,0.4,0.4,-0.24,934.326242600102,934.326242600102,934.326242600102,934.326242600102,934.326242600102,934.326242600102,934.326242600102,934.326242600102,934.3207993901567,3.7881419002078474,return,3.6633178000338376,,,,,,,,,,,,,,,,,,,,,,,,,,,,,,,,,7AFWVA,train_y,blue_star,top_right,2025-07-26_13h13.18.416,HideSeek_v1,2022.2.5,59.96929576602406,
,9,6,9,2,0,-4,65,,train_dim1_1,11,30,,,,2,0,2,0,,,,,,,,,0,0,0,0,0,10,10,10,1,0,1,0,,,,,,,,,,,,,,,,,,,,,,,,,,,,,,,,,,,,,,,,,,,,,,,,,,,,,,,,,,,,,,,,30,,,,,,,,942.9424688001163,942.9424688001163,942.9424688001163,942.9424688001163,942.9424688001163,left,0.45917909988202155,1,1,0,99,0.4,0.08,left,0.3806010000407696,,,,,,,,,,,,,,,,,,,,,,,,,,,,,,,,,,,,,,,,,,,,,,,,,,,,,,,,,,,,7AFWVA,train_y,blue_star,top_right,2025-07-26_13h13.18.416,HideSeek_v1,2022.2.5,59.96929576602406,
,9,6,9,2,0,-4,65,,train_dim1_1,11,30,,,,2,0,2,0,,,,,,,,,0,0,0,0,0,10,10,10,2,0,2,0,,,,,,,,,,,,,,,,,,,,,,,,,,,,,,,,,,,,,,,,,,,,,,,,,,,,,,,,,,,,,,,,30,,,,,,,,943.4197360000107,943.4197360000107,943.4197360000107,943.4197360000107,943.4197360000107,left,0.5602287000510842,1,1,0,99,0.32,0.08,left,0.4631840998772532,,,,,,,,,,,,,,,,,,,,,,,,,,,,,,,,,,,,,,,,,,,,,,,,,,,,,,,,,,,,7AFWVA,train_y,blue_star,top_right,2025-07-26_13h13.18.416,HideSeek_v1,2022.2.5,59.96929576602406,
,9,6,9,2,0,-4,65,,train_dim1_1,11,30,,,,2,0,2,0,,,,,,,,,0,0,0,0,0,10,10,10,3,0,3,0,,,,,,,,,,,,,,,,,,,,,,,,,,,,,,,,,,,,,,,,,,,,,,,,,,,,,,,,,,,,,,,,30,,,,,,,,943.9756192001514,943.9756192001514,943.9756192001514,943.9756192001514,943.9756192001514,left,0.5931970998644829,1,1,0,99,0.24,0.08,left,0.507734399754554,,,,,,,,,,,,,,,,,,,,,,,,,,,,,,,,,,,,,,,,,,,,,,,,,,,,,,,,,,,,7AFWVA,train_y,blue_star,top_right,2025-07-26_13h13.18.416,HideSeek_v1,2022.2.5,59.96929576602406,
,9,6,9,2,0,-4,65,,train_dim1_1,11,30,,,,2,0,2,0,,,,,,,,,0,0,0,0,0,10,10,10,4,0,4,0,,,,,,,,,,,,,,,,,,,,,,,,,,,,,,,,,,,,,,,,,,,,,,,,,,,,,,,,,,,,,,,,30,,,,,,,,944.5762208001688,944.5762208001688,944.5762208001688,944.5762208001688,944.5762208001688,return,1.1772588999010623,1,0,0,0,0.24,0.08,return,1.0902591997291893,-6,-12,0.24,0.08,,,,,,,,,,,,,,,,,,,,,,,,,,,,,,,,,,,,,,,,,,,,,,,,,,,,,,,,7AFWVA,train_y,blue_star,top_right,2025-07-26_13h13.18.416,HideSeek_v1,2022.2.5,59.96929576602406,
,5,5,5,5,0,0,61,,train_dim1_1,12,30,,,,2,0,2,0,,,,,,,,,0,0,0,0,0,11,11,11,0,0,0,0,,,,,,,,,,,,,,,,,,,,,,,,,stimuli/alien_stimuli/61.png,,,,,,,,,,,,,,,,,,,,,,,,,,,,,stimuli/alien_stimuli/65.png,65,9,13,,,,,,,30,,,,,,,,951.5024946001358,951.5024946001358,951.5024946001358,951.5024946001358,951.5024946001358,return,6.02687370008789,2,0,0,1,0.24,0,return,5.942006499739364,-6,-12,0.24,0,949.9503299000207,951.5024946001358,0.56,-0.24,0.32,0.0,-0.07999999999999999,0.56,0.56,0.56,-0.24,947.3220087999944,947.3220087999944,947.3220087999944,947.3220087999944,947.3220087999944,947.3220087999944,947.3220087999944,947.3220087999944,947.3147542901104,2.737930200062692,return,2.606479899957776,,,,,,,,,,,,,,,,,,,,,,,,,,,,,,,,,7AFWVA,train_y,blue_star,top_right,2025-07-26_13h13.18.416,HideSeek_v1,2022.2.5,59.96929576602406,
,9,8,9,7,0,-1,62,,train_dim1_1,13,30,,,,2,0,2,0,,,,,,,,,0,0,0,0,0,12,12,12,0,0,0,0,,,,,,,,,,,,,,,,,,,,,,,,,stimuli/alien_stimuli/62.png,,,,,,,,,,,,,,,,,,,,,,,,,,,,,stimuli/alien_stimuli/61.png,61,5,14,,,,,,,30,,,,,,,,964.0155383001547,964.0155383001547,964.0155383001547,964.0155383001547,964.0155383001547,left,4.674153100000694,2,0,0,99,0.48000000000000004,0.24,left,4.595226599834859,,,,,962.4606135999784,964.0155383001547,0.24,0,0.0,0.0,0.0,0.24,0.24,0.24,0,959.1215832000598,959.1215832000598,959.1215832000598,959.1215832000598,959.1215832000598,959.1215832000598,959.1215832000598,959.1215832000598,959.1078783600125,3.4719972999300808,return,3.3127899998798966,,,,,,,,,,,,,,,,,,,,,,,,,,,,,,,,,7AFWVA,train_y,blue_star,top_right,2025-07-26_13h13.18.416,HideSeek_v1,2022.2.5,59.96929576602406,
,9,8,9,7,0,-1,62,,train_dim1_1,13,30,,,,2,0,2,0,,,,,,,,,0,0,0,0,0,12,12,12,1,0,1,0,,,,,,,,,,,,,,,,,,,,,,,,,,,,,,,,,,,,,,,,,,,,,,,,,,,,,,,,,,,,,,,,30,,,,,,,,968.6970005000476,968.6970005000476,968.6970005000476,968.6970005000476,968.6970005000476,right,4.212404599878937,2,0,0,99,0.56,0.24,right,4.1274458998814225,,,,,,,,,,,,,,,,,,,,,,,,,,,,,,,,,,,,,,,,,,,,,,,,,,,,,,,,,,,,7AFWVA,train_y,blue_star,top_right,2025-07-26_13h13.18.416,HideSeek_v1,2022.2.5,59.96929576602406,
,9,8,9,7,0,-1,62,,train_dim1_1,13,30,,,,2,0,2,0,,,,,,,,,0,0,0,0,0,12,12,12,2,0,2,0,,,,,,,,,,,,,,,,,,,,,,,,,,,,,,,,,,,,,,,,,,,,,,,,,,,,,,,,,,,,,,,,30,,,,,,,,972.9223359001335,972.9223359001335,972.9223359001335,972.9223359001335,972.9223359001335,down,1.5395762000698596,2,0,0,99,0.56,0.15999999999999998,down,1.4523325997870415,,,,,,,,,,,,,,,,,,,,,,,,,,,,,,,,,,,,,,,,,,,,,,,,,,,,,,,,,,,,7AFWVA,train_y,blue_star,top_right,2025-07-26_13h13.18.416,HideSeek_v1,2022.2.5,59.96929576602406,
,9,8,9,7,0,-1,62,,train_dim1_1,13,30,,,,2,0,2,0,,,,,,,,,0,0,0,0,0,12,12,12,3,0,3,0,,,,,,,,,,,,,,,,,,,,,,,,,,,,,,,,,,,,,,,,,,,,,,,,,,,,,,,,,,,,,,,,30,,,,,,,,974.4824852000456,974.4824852000456,974.4824852000456,974.4824852000456,974.4824852000456,return,0.5435301000252366,3,0,0,1,0.56,0.15999999999999998,return,0.45328659983351827,-7,-12,0.56,0.15999999999999998,,,,,,,,,,,,,,,,,,,,,,,,,,,,,,,,,,,,,,,,,,,,,,,,,,,,,,,,7AFWVA,train_y,blue_star,top_right,2025-07-26_13h13.18.416,HideSeek_v1,2022.2.5,59.96929576602406,
,7,7,7,2,0,-5,66,,train_dim1_1,14,30,,,,2,0,2,0,,,,,,,,,0,0,0,0,0,13,13,13,0,0,0,0,,,,,,,,,,,,,,,,,,,,,,,,,stimuli/alien_stimuli/66.png,,,,,,,,,,,,,,,,,,,,,,,,,,,,,stimuli/alien_stimuli/62.png,62,9,15,,,,,,,30,,,,,,,,980.1472438001074,980.1472438001074,980.1472438001074,980.1472438001074,980.1472438001074,down,5.308831900125369,3,0,0,99,0.4,0.08,down,5.226040199864656,,,,,978.59071460017,980.1472438001074,0.56,0.16,0.08,0.0,0.2,0.56,0.56,0.56,0.16,976.5776690000203,976.5776690000203,976.5776690000203,976.5776690000203,976.5776690000203,976.5776690000203,976.5776690000203,976.5776690000203,976.5723496899707,2.1205871999263763,return,1.992931299842894,,,,,,,,,,,,,,,,,,,,,,,,,,,,,,,,,7AFWVA,train_y,blue_star,top_right,2025-07-26_13h13.18.416,HideSeek_v1,2022.2.5,59.96929576602406,
,7,7,7,2,0,-5,66,,train_dim1_1,14,30,,,,2,0,2,0,,,,,,,,,0,0,0,0,0,13,13,13,1,0,1,0,,,,,,,,,,,,,,,,,,,,,,,,,,,,,,,,,,,,,,,,,,,,,,,,,,,,,,,,,,,,,,,,30,,,,,,,,985.4733132000547,985.4733132000547,985.4733132000547,985.4733132000547,985.4733132000547,down,0.47623770008794963,3,0,0,99,0.4,0.0,down,0.3895834998693317,,,,,,,,,,,,,,,,,,,,,,,,,,,,,,,,,,,,,,,,,,,,,,,,,,,,,,,,,,,,7AFWVA,train_y,blue_star,top_right,2025-07-26_13h13.18.416,HideSeek_v1,2022.2.5,59.96929576602406,
,7,7,7,2,0,-5,66,,train_dim1_1,14,30,,,,2,0,2,0,,,,,,,,,0,0,0,0,0,13,13,13,2,0,2,0,,,,,,,,,,,,,,,,,,,,,,,,,,,,,,,,,,,,,,,,,,,,,,,,,,,,,,,,,,,,,,,,30,,,,,,,,985.9440846999642,985.9440846999642,985.9440846999642,985.9440846999642,985.9440846999642,down,0.5435242999810725,3,0,0,99,0.4,-0.08,down,0.466327799949795,,,,,,,,,,,,,,,,,,,,,,,,,,,,,,,,,,,,,,,,,,,,,,,,,,,,,,,,,,,,7AFWVA,train_y,blue_star,top_right,2025-07-26_13h13.18.416,HideSeek_v1,2022.2.5,59.96929576602406,
,7,7,7,2,0,-5,66,,train_dim1_1,14,30,,,,2,0,2,0,,,,,,,,,0,0,0,0,0,13,13,13,3,0,3,0,,,,,,,,,,,,,,,,,,,,,,,,,,,,,,,,,,,,,,,,,,,,,,,,,,,,,,,,,,,,,,,,30,,,,,,,,986.4945078999735,986.4945078999735,986.4945078999735,986.4945078999735,986.4945078999735,down,0.5932058000471443,3,0,0,99,0.4,-0.16,down,0.5075320999603719,,,,,,,,,,,,,,,,,,,,,,,,,,,,,,,,,,,,,,,,,,,,,,,,,,,,,,,,,,,,7AFWVA,train_y,blue_star,top_right,2025-07-26_13h13.18.416,HideSeek_v1,2022.2.5,59.96929576602406,
,7,7,7,2,0,-5,66,,train_dim1_1,14,30,,,,2,0,2,0,,,,,,,,,0,0,0,0,0,13,13,13,4,0,4,0,,,,,,,,,,,,,,,,,,,,,,,,,,,,,,,,,,,,,,,,,,,,,,,,,,,,,,,,,,,,,,,,30,,,,,,,,987.0945812000427,987.0945812000427,987.0945812000427,987.0945812000427,987.0945812000427,down,1.4773003000300378,3,0,0,99,0.4,-0.24,down,1.3943168998230249,,,,,,,,,,,,,,,,,,,,,,,,,,,,,,,,,,,,,,,,,,,,,,,,,,,,,,,,,,,,7AFWVA,train_y,blue_star,top_right,2025-07-26_13h13.18.416,HideSeek_v1,2022.2.5,59.96929576602406,
,7,7,7,2,0,-5,66,,train_dim1_1,14,30,,,,2,0,2,0,,,,,,,,,0,0,0,0,0,13,13,13,5,0,5,0,,,,,,,,,,,,,,,,,,,,,,,,,,,,,,,,,,,,,,,,,,,,,,,,,,,,,,,,,,,,,,,,30,,,,,,,,988.5794729001354,988.5794729001354,988.5794729001354,988.5794729001354,988.5794729001354,return,1.0104771999176592,4,0,0,1,0.4,-0.24,return,0.9304076998960227,-12,-12,0.4,-0.24,,,,,,,,,,,,,,,,,,,,,,,,,,,,,,,,,,,,,,,,,,,,,,,,,,,,,,,,7AFWVA,train_y,blue_star,top_right,2025-07-26_13h13.18.416,HideSeek_v1,2022.2.5,59.96929576602406,
,6,9,6,6,0,-3,64,,train_dim1_1,15,30,,,,2,0,2,0,,,,,,,,,0,0,0,0,0,14,14,14,0,0,0,0,,,,,,,,,,,,,,,,,,,,,,,,,stimuli/alien_stimuli/64.png,,,,,,,,,,,,,,,,,,,,,,,,,,,,,stimuli/alien_stimuli/66.png,66,7,16,,,,,,,30,,,,,,,,994.4376394001301,994.4376394001301,994.4376394001301,994.4376394001301,994.4376394001301,left,4.8264345000498,4,0,0,99,0.24,0.32,left,4.7542516000103205,,,,,992.8859360001516,994.4376394001301,0.4,-0.24,0.4,0.0,-0.039999999999999994,0.4,0.4,0.4,-0.24,991.1579770001117,991.1579770001117,991.1579770001117,991.1579770001117,991.1579770001117,991.1579770001117,991.1579770001117,991.1579770001117,991.1511728901648,1.8372335999738425,return,1.7013631998561323,,,,,,,,,,,,,,,,,,,,,,,,,,,,,,,,,7AFWVA,train_y,blue_star,top_right,2025-07-26_13h13.18.416,HideSeek_v1,2022.2.5,59.96929576602406,
,6,9,6,6,0,-3,64,,train_dim1_1,15,30,,,,2,0,2,0,,,,,,,,,0,0,0,0,0,14,14,14,1,0,1,0,,,,,,,,,,,,,,,,,,,,,,,,,,,,,,,,,,,,,,,,,,,,,,,,,,,,,,,,,,,,,,,,30,,,,,,,,999.2734387000091,999.2734387000091,999.2734387000091,999.2734387000091,999.2734387000091,left,0.49263050011359155,4,0,0,99,0.15999999999999998,0.32,left,0.41079939994961023,,,,,,,,,,,,,,,,,,,,,,,,,,,,,,,,,,,,,,,,,,,,,,,,,,,,,,,,,,,,7AFWVA,train_y,blue_star,top_right,2025-07-26_13h13.18.416,HideSeek_v1,2022.2.5,59.96929576602406,
,6,9,6,6,0,-3,64,,train_dim1_1,15,30,,,,2,0,2,0,,,,,,,,,0,0,0,0,0,14,14,14,2,0,2,0,,,,,,,,,,,,,,,,,,,,,,,,,,,,,,,,,,,,,,,,,,,,,,,,,,,,,,,,,,,,,,,,30,,,,,,,,999.7715491000563,999.7715491000563,999.7715491000563,999.7715491000563,999.7715491000563,right,1.2605695999227464,4,0,0,99,0.24,0.32,right,1.187478099949658,,,,,,,,,,,,,,,,,,,,,,,,,,,,,,,,,,,,,,,,,,,,,,,,,,,,,,,,,,,,7AFWVA,train_y,blue_star,top_right,2025-07-26_13h13.18.416,HideSeek_v1,2022.2.5,59.96929576602406,
,6,9,6,6,0,-3,64,,train_dim1_1,15,30,,,,2,0,2,0,,,,,,,,,0,0,0,0,0,14,14,14,3,0,3,0,,,,,,,,,,,,,,,,,,,,,,,,,,,,,,,,,,,,,,,,,,,,,,,,,,,,,,,,,,,,,,,,30,,,,,,,,1001.0399664000142,1001.0399664000142,1001.0399664000142,1001.0399664000142,1001.0399664000142,right,0.3429002999328077,4,0,0,99,0.32,0.32,right,0.2687830999493599,,,,,,,,,,,,,,,,,,,,,,,,,,,,,,,,,,,,,,,,,,,,,,,,,,,,,,,,,,,,7AFWVA,train_y,blue_star,top_right,2025-07-26_13h13.18.416,HideSeek_v1,2022.2.5,59.96929576602406,
,6,9,6,6,0,-3,64,,train_dim1_1,15,30,,,,2,0,2,0,,,,,,,,,0,0,0,0,0,14,14,14,4,0,4,0,,,,,,,,,,,,,,,,,,,,,,,,,,,,,,,,,,,,,,,,,,,,,,,,,,,,,,,,,,,,,,,,30,,,,,,,,1001.389910500031,1001.389910500031,1001.389910500031,1001.389910500031,1001.389910500031,right,0.5271606000605971,4,0,0,99,0.4,0.32,right,0.45104290009476244,,,,,,,,,,,,,,,,,,,,,,,,,,,,,,,,,,,,,,,,,,,,,,,,,,,,,,,,,,,,7AFWVA,train_y,blue_star,top_right,2025-07-26_13h13.18.416,HideSeek_v1,2022.2.5,59.96929576602406,
,6,9,6,6,0,-3,64,,train_dim1_1,15,30,,,,2,0,2,0,,,,,,,,,0,0,0,0,0,14,14,14,5,0,5,0,,,,,,,,,,,,,,,,,,,,,,,,,,,,,,,,,,,,,,,,,,,,,,,,,,,,,,,,,,,,,,,,30,,,,,,,,1001.9243303001858,1001.9243303001858,1001.9243303001858,1001.9243303001858,1001.9243303001858,right,0.42604579986073077,4,0,0,99,0.48000000000000004,0.32,right,0.34691570000723004,,,,,,,,,,,,,,,,,,,,,,,,,,,,,,,,,,,,,,,,,,,,,,,,,,,,,,,,,,,,7AFWVA,train_y,blue_star,top_right,2025-07-26_13h13.18.416,HideSeek_v1,2022.2.5,59.96929576602406,
,6,9,6,6,0,-3,64,,train_dim1_1,15,30,,,,2,0,2,0,,,,,,,,,0,0,0,0,0,14,14,14,6,0,6,0,,,,,,,,,,,,,,,,,,,,,,,,,,,,,,,,,,,,,,,,,,,,,,,,,,,,,,,,,,,,,,,,30,,,,,,,,1002.357311300002,1002.357311300002,1002.357311300002,1002.357311300002,1002.357311300002,right,0.393598300172016,4,0,0,99,0.56,0.32,right,0.30952889984473586,,,,,,,,,,,,,,,,,,,,,,,,,,,,,,,,,,,,,,,,,,,,,,,,,,,,,,,,,,,,7AFWVA,train_y,blue_star,top_right,2025-07-26_13h13.18.416,HideSeek_v1,2022.2.5,59.96929576602406,
,6,9,6,6,0,-3,64,,train_dim1_1,15,30,,,,2,0,2,0,,,,,,,,,0,0,0,0,0,14,14,14,7,0,7,0,,,,,,,,,,,,,,,,,,,,,,,,,,,,,,,,,,,,,,,,,,,,,,,,,,,,,,,,,,,,,,,,30,,,,,,,,1002.758656400023,1002.758656400023,1002.758656400023,1002.758656400023,1002.758656400023,return,0.8098321999423206,4,0,0,0,0.56,0.32,return,0.7315885997377336,-12,-9,0.56,0.32,,,,,,,,,,,,,,,,,,,,,,,,,,,,,,,,,,,,,,,,,,,,,,,,,,,,,,,,7AFWVA,train_y,blue_star,top_right,2025-07-26_13h13.18.416,HideSeek_v1,2022.2.5,59.96929576602406,
,9,5,9,1,0,-4,65,,train_dim1_1,16,30,,,,2,0,2,0,,,,,,,,,0,0,0,0,0,15,15,15,0,0,0,0,,,,,,,,,,,,,,,,,,,,,,,,,stimuli/alien_stimuli/65.png,,,,,,,,,,,,,,,,,,,,,,,,,,,,,stimuli/alien_stimuli/64.png,64,6,17,,,,,,,30,,,,,,,,1009.2846260999795,1009.2846260999795,1009.2846260999795,1009.2846260999795,1009.2846260999795,down,8.112134200055152,4,0,0,99,0.56,-0.08,down,8.03584299981594,,,,,1007.7314697999973,1009.2846260999795,0.32,0.08,0.24,0.0,0.2,0.32,0.32,0.32,0.08,1005.1388858000282,1005.1388858000282,1005.1388858000282,1005.1388858000282,1005.1388858000282,1005.1388858000282,1005.1388858000282,1005.1388858000282,1005.1296692901058,2.7044391999952495,return,2.574661999940872,,,,,,,,,,,,,,,,,,,,,,,,,,,,,,,,,7AFWVA,train_y,blue_star,top_right,2025-07-26_13h13.18.416,HideSeek_v1,2022.2.5,59.96929576602406,
,9,5,9,1,0,-4,65,,train_dim1_1,16,30,,,,2,0,2,0,,,,,,,,,0,0,0,0,0,15,15,15,1,0,1,0,,,,,,,,,,,,,,,,,,,,,,,,,,,,,,,,,,,,,,,,,,,,,,,,,,,,,,,,,,,,,,,,30,,,,,,,,1017.4146718999837,1017.4146718999837,1017.4146718999837,1017.4146718999837,1017.4146718999837,down,0.554539600154385,4,0,0,99,0.56,-0.16,down,0.4651784999296069,,,,,,,,,,,,,,,,,,,,,,,,,,,,,,,,,,,,,,,,,,,,,,,,,,,,,,,,,,,,7AFWVA,train_y,blue_star,top_right,2025-07-26_13h13.18.416,HideSeek_v1,2022.2.5,59.96929576602406,
,9,5,9,1,0,-4,65,,train_dim1_1,16,30,,,,2,0,2,0,,,,,,,,,0,0,0,0,0,15,15,15,2,0,2,0,,,,,,,,,,,,,,,,,,,,,,,,,,,,,,,,,,,,,,,,,,,,,,,,,,,,,,,,,,,,,,,,30,,,,,,,,1017.9703667999711,1017.9703667999711,1017.9703667999711,1017.9703667999711,1017.9703667999711,return,1.077163300011307,4,0,0,0,0.56,-0.16,return,0.9919279997702688,-14,-9,0.56,-0.16,,,,,,,,,,,,,,,,,,,,,,,,,,,,,,,,,,,,,,,,,,,,,,,,,,,,,,,,7AFWVA,train_y,blue_star,top_right,2025-07-26_13h13.18.416,HideSeek_v1,2022.2.5,59.96929576602406,
,8,8,8,5,0,-3,64,,train_dim1_1,17,30,,,,2,0,2,0,,,,,,,,,0,0,0,0,0,16,16,16,0,0,0,0,,,,,,,,,,,,,,,,,,,,,,,,,stimuli/alien_stimuli/64.png,,,,,,,,,,,,,,,,,,,,,,,,,,,,,stimuli/alien_stimuli/65.png,65,9,18,,,,,,,30,,,,,,,,1024.6278783001471,1024.6278783001471,1024.6278783001471,1024.6278783001471,1024.6278783001471,down,3.745528700063005,4,0,0,99,0.48,0.15999999999999998,down,3.660830999724567,,,,,1023.0607522001956,1024.6278783001471,0.56,-0.32,0.32,0.0,-0.16,0.56,0.56,0.56,-0.32,1020.6363624001388,1020.6363624001388,1020.6363624001388,1020.6363624001388,1020.6363624001388,1020.6363624001388,1020.6363624001388,1020.6363624001388,1020.6257612600922,2.554433000041172,return,2.393237799871713,,,,,,,,,,,,,,,,,,,,,,,,,,,,,,,,,7AFWVA,train_y,blue_star,top_right,2025-07-26_13h13.18.416,HideSeek_v1,2022.2.5,59.96929576602406,
,8,8,8,5,0,-3,64,,train_dim1_1,17,30,,,,2,0,2,0,,,,,,,,,0,0,0,0,0,16,16,16,1,0,1,0,,,,,,,,,,,,,,,,,,,,,,,,,,,,,,,,,,,,,,,,,,,,,,,,,,,,,,,,,,,,,,,,30,,,,,,,,1028.3788293001708,1028.3788293001708,1028.3788293001708,1028.3788293001708,1028.3788293001708,down,0.32620680006220937,4,0,0,99,0.48,0.07999999999999997,down,0.23971130000427365,,,,,,,,,,,,,,,,,,,,,,,,,,,,,,,,,,,,,,,,,,,,,,,,,,,,,,,,,,,,7AFWVA,train_y,blue_star,top_right,2025-07-26_13h13.18.416,HideSeek_v1,2022.2.5,59.96929576602406,
,8,8,8,5,0,-3,64,,train_dim1_1,17,30,,,,2,0,2,0,,,,,,,,,0,0,0,0,0,16,16,16,2,0,2,0,,,,,,,,,,,,,,,,,,,,,,,,,,,,,,,,,,,,,,,,,,,,,,,,,,,,,,,,,,,,,,,,30,,,,,,,,1028.7123648000415,1028.7123648000415,1028.7123648000415,1028.7123648000415,1028.7123648000415,down,0.4266934001352638,4,0,0,99,0.48,-2.7755575615628914e-17,down,0.34629699983634055,,,,,,,,,,,,,,,,,,,,,,,,,,,,,,,,,,,,,,,,,,,,,,,,,,,,,,,,,,,,7AFWVA,train_y,blue_star,top_right,2025-07-26_13h13.18.416,HideSeek_v1,2022.2.5,59.96929576602406,
,8,8,8,5,0,-3,64,,train_dim1_1,17,30,,,,2,0,2,0,,,,,,,,,0,0,0,0,0,16,16,16,3,0,3,0,,,,,,,,,,,,,,,,,,,,,,,,,,,,,,,,,,,,,,,,,,,,,,,,,,,,,,,,,,,,,,,,30,,,,,,,,1029.1471753001679,1029.1471753001679,1029.1471753001679,1029.1471753001679,1029.1471753001679,return,1.2436045999638736,5,0,0,1,0.48,-2.7755575615628914e-17,return,1.1550882998853922,-17,-9,0.48,-2.7755575615628914e-17,,,,,,,,,,,,,,,,,,,,,,,,,,,,,,,,,,,,,,,,,,,,,,,,,,,,,,,,7AFWVA,train_y,blue_star,top_right,2025-07-26_13h13.18.416,HideSeek_v1,2022.2.5,59.96929576602406,
,7,6,7,6,0,0,61,,train_dim1_1,18,30,,,,2,0,2,0,,,,,,,,,0,0,0,0,0,17,17,17,0,0,0,0,,,,,,,,,,,,,,,,,,,,,,,,,stimuli/alien_stimuli/61.png,,,,,,,,,,,,,,,,,,,,,,,,,,,,,stimuli/alien_stimuli/64.png,64,8,19,,,,,,,30,,,,,,,,1035.993390200194,1035.993390200194,1035.993390200194,1035.993390200194,1035.993390200194,down,7.05802939995192,5,0,0,99,0.4,0.0,down,6.969087199773639,,,,,1034.4370699999854,1035.993390200194,0.48,0,0.24,0.0,0.12,0.48,0.48,0.48,0,1031.9616572000086,1031.9616572000086,1031.9616572000086,1031.9616572000086,1031.9616572000086,1031.9616572000086,1031.9616572000086,1031.9616572000086,1031.9517993899763,2.5879466999322176,return,2.4585611999500543,,,,,,,,,,,,,,,,,,,,,,,,,,,,,,,,,7AFWVA,train_y,blue_star,top_right,2025-07-26_13h13.18.416,HideSeek_v1,2022.2.5,59.96929576602406,
,7,6,7,6,0,0,61,,train_dim1_1,18,30,,,,2,0,2,0,,,,,,,,,0,0,0,0,0,17,17,17,1,0,1,0,,,,,,,,,,,,,,,,,,,,,,,,,,,,,,,,,,,,,,,,,,,,,,,,,,,,,,,,,,,,,,,,30,,,,,,,,1043.0770569001324,1043.0770569001324,1043.0770569001324,1043.0770569001324,1043.0770569001324,down,0.25966249988414347,5,0,0,99,0.4,-0.08,down,0.15436029992997646,,,,,,,,,,,,,,,,,,,,,,,,,,,,,,,,,,,,,,,,,,,,,,,,,,,,,,,,,,,,7AFWVA,train_y,blue_star,top_right,2025-07-26_13h13.18.416,HideSeek_v1,2022.2.5,59.96929576602406,
,7,6,7,6,0,0,61,,train_dim1_1,18,30,,,,2,0,2,0,,,,,,,,,0,0,0,0,0,17,17,17,2,0,2,0,,,,,,,,,,,,,,,,,,,,,,,,,,,,,,,,,,,,,,,,,,,,,,,,,,,,,,,,,,,,,,,,30,,,,,,,,1043.3250506999902,1043.3250506999902,1043.3250506999902,1043.3250506999902,1043.3250506999902,up,2.478574100183323,5,0,0,99,0.4,0.0,up,2.3996654998045415,,,,,,,,,,,,,,,,,,,,,,,,,,,,,,,,,,,,,,,,,,,,,,,,,,,,,,,,,,,,7AFWVA,train_y,blue_star,top_right,2025-07-26_13h13.18.416,HideSeek_v1,2022.2.5,59.96929576602406,
,7,6,7,6,0,0,61,,train_dim1_1,18,30,,,,2,0,2,0,,,,,,,,,0,0,0,0,0,17,17,17,3,0,3,0,,,,,,,,,,,,,,,,,,,,,,,,,,,,,,,,,,,,,,,,,,,,,,,,,,,,,,,,,,,,,,,,30,,,,,,,,1045.8113612001762,1045.8113612001762,1045.8113612001762,1045.8113612001762,1045.8113612001762,return,0.9599905000068247,5,1,0,0,0.4,0.0,return,0.8843388999812305,-18,-9,0.4,0.0,,,,,,,,,,,,,,,,,,,,,,,,,,,,,,,,,,,,,,,,,,,,,,,,,,,,,,,,7AFWVA,train_y,blue_star,top_right,2025-07-26_13h13.18.416,HideSeek_v1,2022.2.5,59.96929576602406,
,5,9,5,8,0,-1,62,,train_dim1_1,19,30,,,,2,0,2,0,,,,,,,,,0,0,0,0,0,18,18,18,0,0,0,0,,,,,,,,,,,,,,,,,,,,,,,,,stimuli/alien_stimuli/62.png,,,,,,,,,,,,,,,,,,,,,,,,,,,,,stimuli/alien_stimuli/61.png,61,7,20,,,,,,,30,,,,,,,,1052.8210840001702,1052.8210840001702,1052.8210840001702,1052.8210840001702,1052.8210840001702,return,4.2261433999519795,5,1,0,0,0.24,0.32,return,4.138974299887195,-18,-9,0.24,0.32,1051.2677192001138,1052.8210840001702,0.4,0.08,0.0,0.0,0.08,0.4,0.4,0.4,0.08,1048.3382594001014,1048.3382594001014,1048.3382594001014,1048.3382594001014,1048.3382594001014,1048.3382594001014,1048.3382594001014,1048.3382594001014,1048.3320330901306,3.0377830998040736,return,2.899381499737501,,,,,,,,,,,,,,,,,,,,,,,,,,,,,,,,,7AFWVA,train_y,blue_star,top_right,2025-07-26_13h13.18.416,HideSeek_v1,2022.2.5,59.96929576602406,
,7,5,7,0,0,-5,66,,train_dim1_1,20,30,,,,2,0,2,0,,,,,,,,,0,0,0,0,0,19,19,19,0,0,0,0,,,,,,,,,,,,,,,,,,,,,,,,,stimuli/alien_stimuli/66.png,,,,,,,,,,,,,,,,,,,,,,,,,,,,,stimuli/alien_stimuli/62.png,62,5,21,,,,,,,30,,,,,,,,1064.0161415999755,1064.0161415999755,1064.0161415999755,1064.0161415999755,1064.0161415999755,left,10.329825199907646,5,1,0,99,0.32,0,left,10.249710999894887,,,,,1062.4602171001025,1064.0161415999755,0.24,0.24,0.08,0.0,0.28,0.24,0.24,0.24,0.24,1058.6182282001246,1058.6182282001246,1058.6182282001246,1058.6182282001246,1058.6182282001246,1058.6182282001246,1058.6182282001246,1058.6182282001246,1058.6073627901033,3.9553445999044925,return,3.8147222998086363,,,,,,,,,,,,,,,,,,,,,,,,,,,,,,,,,7AFWVA,train_y,blue_star,top_right,2025-07-26_13h13.18.416,HideSeek_v1,2022.2.5,59.96929576602406,
,7,5,7,0,0,-5,66,,train_dim1_1,20,30,,,,2,0,2,0,,,,,,,,,0,0,0,0,0,19,19,19,1,0,1,0,,,,,,,,,,,,,,,,,,,,,,,,,,,,,,,,,,,,,,,,,,,,,,,,,,,,,,,,,,,,,,,,30,,,,,,,,1074.3670663000084,1074.3670663000084,1074.3670663000084,1074.3670663000084,1074.3670663000084,left,0.40953689999878407,5,1,0,99,0.24,0,left,0.3163963998667896,,,,,,,,,,,,,,,,,,,,,,,,,,,,,,,,,,,,,,,,,,,,,,,,,,,,,,,,,,,,7AFWVA,train_y,blue_star,top_right,2025-07-26_13h13.18.416,HideSeek_v1,2022.2.5,59.96929576602406,
,7,5,7,0,0,-5,66,,train_dim1_1,20,30,,,,2,0,2,0,,,,,,,,,0,0,0,0,0,19,19,19,2,0,2,0,,,,,,,,,,,,,,,,,,,,,,,,,,,,,,,,,,,,,,,,,,,,,,,,,,,,,,,,,,,,,,,,30,,,,,,,,1074.7680709999986,1074.7680709999986,1074.7680709999986,1074.7680709999986,1074.7680709999986,left,0.4766687999945134,5,1,0,99,0.15999999999999998,0,left,0.3908163998275995,,,,,,,,,,,,,,,,,,,,,,,,,,,,,,,,,,,,,,,,,,,,,,,,,,,,,,,,,,,,7AFWVA,train_y,blue_star,top_right,2025-07-26_13h13.18.416,HideSeek_v1,2022.2.5,59.96929576602406,
,7,5,7,0,0,-5,66,,train_dim1_1,20,30,,,,2,0,2,0,,,,,,,,,0,0,0,0,0,19,19,19,3,0,3,0,,,,,,,,,,,,,,,,,,,,,,,,,,,,,,,,,,,,,,,,,,,,,,,,,,,,,,,,,,,,,,,,30,,,,,,,,1075.251349600032,1075.251349600032,1075.251349600032,1075.251349600032,1075.251349600032,left,0.42660879995673895,5,1,0,99,0.07999999999999997,0,left,0.34369440004229546,,,,,,,,,,,,,,,,,,,,,,,,,,,,,,,,,,,,,,,,,,,,,,,,,,,,,,,,,,,,7AFWVA,train_y,blue_star,top_right,2025-07-26_13h13.18.416,HideSeek_v1,2022.2.5,59.96929576602406,
,7,5,7,0,0,-5,66,,train_dim1_1,20,30,,,,2,0,2,0,,,,,,,,,0,0,0,0,0,19,19,19,4,0,4,0,,,,,,,,,,,,,,,,,,,,,,,,,,,,,,,,,,,,,,,,,,,,,,,,,,,,,,,,,,,,,,,,30,,,,,,,,1075.6854960999917,1075.6854960999917,1075.6854960999917,1075.6854960999917,1075.6854960999917,left,0.9103463999927044,5,1,0,99,-2.7755575615628914e-17,0,left,0.8350759998429567,,,,,,,,,,,,,,,,,,,,,,,,,,,,,,,,,,,,,,,,,,,,,,,,,,,,,,,,,,,,7AFWVA,train_y,blue_star,top_right,2025-07-26_13h13.18.416,HideSeek_v1,2022.2.5,59.96929576602406,
,7,5,7,0,0,-5,66,,train_dim1_1,20,30,,,,2,0,2,0,,,,,,,,,0,0,0,0,0,19,19,19,5,0,5,0,,,,,,,,,,,,,,,,,,,,,,,,,,,,,,,,,,,,,,,,,,,,,,,,,,,,,,,,,,,,,,,,30,,,,,,,,1076.6025940000545,1076.6025940000545,1076.6025940000545,1076.6025940000545,1076.6025940000545,down,1.0271878999192268,5,1,0,99,-2.7755575615628914e-17,-0.08,down,0.9531377998646349,,,,,,,,,,,,,,,,,,,,,,,,,,,,,,,,,,,,,,,,,,,,,,,,,,,,,,,,,,,,7AFWVA,train_y,blue_star,top_right,2025-07-26_13h13.18.416,HideSeek_v1,2022.2.5,59.96929576602406,
,7,5,7,0,0,-5,66,,train_dim1_1,20,30,,,,2,0,2,0,,,,,,,,,0,0,0,0,0,19,19,19,6,0,6,0,,,,,,,,,,,,,,,,,,,,,,,,,,,,,,,,,,,,,,,,,,,,,,,,,,,,,,,,,,,,,,,,30,,,,,,,,1077.6371017000638,1077.6371017000638,1077.6371017000638,1077.6371017000638,1077.6371017000638,down,0.20985910017043352,5,1,0,99,-2.7755575615628914e-17,-0.16,down,0.12951449980027974,,,,,,,,,,,,,,,,,,,,,,,,,,,,,,,,,,,,,,,,,,,,,,,,,,,,,,,,,,,,7AFWVA,train_y,blue_star,top_right,2025-07-26_13h13.18.416,HideSeek_v1,2022.2.5,59.96929576602406,
,7,5,7,0,0,-5,66,,train_dim1_1,20,30,,,,2,0,2,0,,,,,,,,,0,0,0,0,0,19,19,19,7,0,7,0,,,,,,,,,,,,,,,,,,,,,,,,,,,,,,,,,,,,,,,,,,,,,,,,,,,,,,,,,,,,,,,,30,,,,,,,,1077.8543023001403,1077.8543023001403,1077.8543023001403,1077.8543023001403,1077.8543023001403,down,0.1936779001262039,5,1,0,99,-2.7755575615628914e-17,-0.24,down,0.11113509978167713,,,,,,,,,,,,,,,,,,,,,,,,,,,,,,,,,,,,,,,,,,,,,,,,,,,,,,,,,,,,7AFWVA,train_y,blue_star,top_right,2025-07-26_13h13.18.416,HideSeek_v1,2022.2.5,59.96929576602406,
,7,5,7,0,0,-5,66,,train_dim1_1,20,30,,,,2,0,2,0,,,,,,,,,0,0,0,0,0,19,19,19,8,0,8,0,,,,,,,,,,,,,,,,,,,,,,,,,,,,,,,,,,,,,,,,,,,,,,,,,,,,,,,,,,,,,,,,30,,,,,,,,1078.055131000001,1078.055131000001,1078.055131000001,1078.055131000001,1078.055131000001,down,0.2093582998495549,5,1,0,99,-2.7755575615628914e-17,-0.32,down,0.12764169974252582,,,,,,,,,,,,,,,,,,,,,,,,,,,,,,,,,,,,,,,,,,,,,,,,,,,,,,,,,,,,7AFWVA,train_y,blue_star,top_right,2025-07-26_13h13.18.416,HideSeek_v1,2022.2.5,59.96929576602406,
,7,5,7,0,0,-5,66,,train_dim1_1,20,30,,,,2,0,2,0,,,,,,,,,0,0,0,0,0,19,19,19,9,0,9,0,,,,,,,,,,,,,,,,,,,,,,,,,,,,,,,,,,,,,,,,,,,,,,,,,,,,,,,,,,,,,,,,30,,,,,,,,1078.2706363000907,1078.2706363000907,1078.2706363000907,1078.2706363000907,1078.2706363000907,up,2.778532600030303,5,1,0,99,-2.7755575615628914e-17,-0.24,up,2.6919445998501033,,,,,,,,,,,,,,,,,,,,,,,,,,,,,,,,,,,,,,,,,,,,,,,,,,,,,,,,,,,,7AFWVA,train_y,blue_star,top_right,2025-07-26_13h13.18.416,HideSeek_v1,2022.2.5,59.96929576602406,
,7,5,7,0,0,-5,66,,train_dim1_1,20,30,,,,2,0,2,0,,,,,,,,,0,0,0,0,0,19,19,19,10,0,10,0,,,,,,,,,,,,,,,,,,,,,,,,,,,,,,,,,,,,,,,,,,,,,,,,,,,,,,,,,,,,,,,,30,,,,,,,,1081.0560813001357,1081.0560813001357,1081.0560813001357,1081.0560813001357,1081.0560813001357,up,0.17643989995121956,5,1,0,99,-2.7755575615628914e-17,-0.15999999999999998,up,0.08808899996802211,,,,,,,,,,,,,,,,,,,,,,,,,,,,,,,,,,,,,,,,,,,,,,,,,,,,,,,,,,,,7AFWVA,train_y,blue_star,top_right,2025-07-26_13h13.18.416,HideSeek_v1,2022.2.5,59.96929576602406,
,7,5,7,0,0,-5,66,,train_dim1_1,20,30,,,,2,0,2,0,,,,,,,,,0,0,0,0,0,19,19,19,11,0,11,0,,,,,,,,,,,,,,,,,,,,,,,,,,,,,,,,,,,,,,,,,,,,,,,,,,,,,,,,,,,,,,,,30,,,,,,,,1081.2403118000366,1081.2403118000366,1081.2403118000366,1081.2403118000366,1081.2403118000366,up,0.14292169990949333,5,1,0,99,-2.7755575615628914e-17,-0.07999999999999997,up,0.054866999853402376,,,,,,,,,,,,,,,,,,,,,,,,,,,,,,,,,,,,,,,,,,,,,,,,,,,,,,,,,,,,7AFWVA,train_y,blue_star,top_right,2025-07-26_13h13.18.416,HideSeek_v1,2022.2.5,59.96929576602406,
,7,5,7,0,0,-5,66,,train_dim1_1,20,30,,,,2,0,2,0,,,,,,,,,0,0,0,0,0,19,19,19,12,0,12,0,,,,,,,,,,,,,,,,,,,,,,,,,,,,,,,,,,,,,,,,,,,,,,,,,,,,,,,,,,,,,,,,30,,,,,,,,1081.390314700082,1081.390314700082,1081.390314700082,1081.390314700082,1081.390314700082,up,0.12654089997522533,5,1,0,99,-2.7755575615628914e-17,2.7755575615628914e-17,up,0.046008599922060966,,,,,,,,,,,,,,,,,,,,,,,,,,,,,,,,,,,,,,,,,,,,,,,,,,,,,,,,,,,,7AFWVA,train_y,blue_star,top_right,2025-07-26_13h13.18.416,HideSeek_v1,2022.2.5,59.96929576602406,
