trialInstr,x_fixStart,y_fixStart,x_corrSteps,y_corrSteps,x_nrSteps,y_nrSteps,alienID,trialLength,version,trialTrain,praclen,testlen,trial_label,break_on_off,beforeExpLoop.thisRepN,beforeExpLoop.thisTrialN,beforeExpLoop.thisN,beforeExpLoop.thisIndex,mini_instr_trials.thisRepN,mini_instr_trials.thisTrialN,mini_instr_trials.thisN,mini_instr_trials.thisIndex,instrLoop.thisRepN,instrLoop.thisTrialN,instrLoop.thisN,instrLoop.thisIndex,repeat_prac.thisRepN,repeat_prac.thisTrialN,repeat_prac.thisN,repeat_prac.thisIndex,trainLoop.thisRepN,trainLoop.thisTrialN,trainLoop.thisN,trainLoop.thisIndex,moveLoop_train.thisRepN,moveLoop_train.thisTrialN,moveLoop_train.thisN,moveLoop_train.thisIndex,experiment.thisRepN,experiment.thisTrialN,experiment.thisN,experiment.thisIndex,moveLoop_test.thisRepN,moveLoop_test.thisTrialN,moveLoop_test.thisN,moveLoop_test.thisIndex,mini_instr2_trials.thisRepN,mini_instr2_trials.thisTrialN,mini_instr2_trials.thisN,mini_instr2_trials.thisIndex,start_all_time,url,slideStim,audioStim,slides.started,sounds.started,nextButton.numClicks,nextButton.timesOn,nextButton.timesOff,prev_but.numClicks,prev_but.timesOn,prev_but.timesOff,alienStim,instrFile,alienStim_instr,gridImage_instr.started,startPos_3.started,key_instr.started,alienImage_3.started,sounds_1.started,key_instr.keys,key_instr.rt,all_x,all_y,FBy_corrSteps,FBy_fixStart,FBx_corrSteps,FBx_fixStart,FBy_pathSize_check,FBx_pathSize_check,gridImage_9.started,alienImageFB_3.started,startPosFB_3.started,keyFB_3.started,pathLine_ydir_2.started,pathLine_xdir_2.started,alienFace_3.started,sounds_2.started,RTFB_instr,keyFB_3.keys,keyFB_3.rt,draw_alienStim,draw_alienID,test_x,nrepcount,perfthres,percthres,earlierperf,earlystop,nextPrac,fileidx,praclen,saveACC_train,pracFile,nextPrac_train,addNrep,fileidx_endr,repExp,showearly,gridImage_4.started,startPos.started,movePos.started,key_resp.started,alienImage.started,buttonPress_train,RTchoice_train,cumAcctrain,aCorr,saveACC_choice,corrAns,x_movePos_end,y_movePos_end,key_resp.keys,key_resp.rt,wLy_dir,wLx_dir,x_movePos,y_movePos,text_2.started,text_2.stopped,aft_x_corrPos,aft_y_corrPos,y_pathSize_check,x_pathSize_check,y_pathdirY,x_pathdirY,x_pathdirX,x_corrPos,y_corrPos,gridImage_6.started,alienImageFB_2.started,startPosFB_2.started,movePosFB_2.started,keyFB_2.started,pathLine_xdir.started,pathLine_ydir.started,alienFace.started,sounds_4.started,RT_FBtrain,keyFB_2.keys,keyFB_2.rt,saveACC_pre,ACC,within_saveACC_train,earlystop_wloop,cumAcctrain_check,gridImage_3.started,alienImage_test.started,startPos_test.started,movePos_test.started,key_resp_test.started,wLy_dir_test,wLx_dir_test,buttonPress_test,RTchoice_test,cumAcctest,corrAns_test,key_resp_test.keys,key_resp_test.rt,text_3.started,text_3.stopped,total_time,end_all_time,key_resp_3.keys,slides_2.started,sounds_3.started,nextButton_2.numClicks,nextButton_2.timesOn,nextButton_2.timesOff,prev_but_2.numClicks,prev_but_2.timesOn,prev_but_2.timesOff,bye.started,participant,train_first,00_coordinate,starting corner,date,expName,psychopyVersion,frameRate,
,,,,,,,,,,,,,,,0,0,0,0,0,0,0,0,,,,,,,,,,,,,,,,,,,,,,,,,,,,,start_all_time,testround,conditions/schedules/train_x_first/red_square_00/bottom_left/instructions/Slide1.png,conditions/schedules/train_x_first/red_square_00/bottom_left/instructions/Audio1.wav,3037.789272500002,3037.7458246000206,1,[3.968392800001311],[3.968398900000466],0,,,,,,,,,,,,,,,,,,,,,,,,,,,,,,,,,,,,,,,,,,,,,,,,,,,,,,,,,,,,,,,,,,,,,,,,,,,,,,,,,,,,,,,,,,,,,,,,,,,,,,,,,,,,,,,,,,,,,,,,,,,,7MLGXN,train_x,red_square,bottom_left,2025-08-07_15h57.08.819,HideSeek_v1,2022.2.5,59.98706678856125,
,,,,,,,,,,,,,,,0,0,0,0,1,0,1,0,,,,,,,,,,,,,,,,,,,,,,,,,,,,,,,conditions/schedules/train_x_first/red_square_00/bottom_left/instructions/Slide2.png,conditions/schedules/train_x_first/red_square_00/bottom_left/instructions/Audio2.wav,3041.777675600002,3041.7646704600024,2,"[3.968392800001311, 17.780833300002996]","[3.968398900000466, 17.78083980000156]",0,,,,,,,,,,,,,,,,,,,,,,,,,,,,,,,,,,,,,,,,,,,,,,,,,,,,,,,,,,,,,,,,,,,,,,,,,,,,,,,,,,,,,,,,,,,,,,,,,,,,,,,,,,,,,,,,,,,,,,,,,,,,7MLGXN,train_x,red_square,bottom_left,2025-08-07_15h57.08.819,HideSeek_v1,2022.2.5,59.98706678856125,
,,,,,,,,,,,,,,,0,0,0,0,2,0,2,0,,,,,,,,,,,,,,,,,,,,,,,,,,,,,,,conditions/schedules/train_x_first/red_square_00/bottom_left/instructions/Slide3.png,conditions/schedules/train_x_first/red_square_00/bottom_left/instructions/Audio3.wav,3059.630609400003,3059.6274309500004,3,"[3.968392800001311, 17.780833300002996, 16.742034099999728]","[3.968398900000466, 0.014298999998572981, 16.74204649999956]",0,,,,,,,,,,,,,,,,,,,,,,,,,,,,,,,,,,,,,,,,,,,,,,,,,,,,,,,,,,,,,,,,,,,,,,,,,,,,,,,,,,,,,,,,,,,,,,,,,,,,,,,,,,,,,,,,,,,,,,,,,,,,7MLGXN,train_x,red_square,bottom_left,2025-08-07_15h57.08.819,HideSeek_v1,2022.2.5,59.98706678856125,
,,,,,,,,,,,,,,,0,0,0,0,3,0,3,0,,,,,,,,,,,,,,,,,,,,,,,,,,,,,,,conditions/schedules/train_x_first/red_square_00/bottom_left/instructions/Slide4.png,conditions/schedules/train_x_first/red_square_00/bottom_left/instructions/Audio4.wav,3076.452760700002,3076.441555950001,4,"[3.968392800001311, 17.780833300002996, 16.742034099999728, 19.040827799999533]","[3.968398900000466, 0.014298999998572981, 0.014353499998833286, 19.040834800001903]",0,,,,,,,,,,,,,,,,,,,,,,,,,,,,,,,,,,,,,,,,,,,,,,,,,,,,,,,,,,,,,,,,,,,,,,,,,,,,,,,,,,,,,,,,,,,,,,,,,,,,,,,,,,,,,,,,,,,,,,,,,,,,7MLGXN,train_x,red_square,bottom_left,2025-08-07_15h57.08.819,HideSeek_v1,2022.2.5,59.98706678856125,
,,,,,,,,,,,,,,,0,0,0,0,4,0,4,0,,,,,,,,,,,,,,,,,,,,,,,,,,,,,,,conditions/schedules/train_x_first/red_square_00/bottom_left/instructions/Slide5.png,conditions/schedules/train_x_first/red_square_00/bottom_left/instructions/Audio5.wav,3095.561838400001,3095.562507750001,5,"[3.968392800001311, 17.780833300002996, 16.742034099999728, 19.040827799999533, 5.11883079999825]","[3.968398900000466, 0.014298999998572981, 0.014353499998833286, 0.014025399999809451, 5.118837499998335]",0,,,,,,,,,,,,,,,,,,,,,,,,,,,,,,,,,,,,,,,,,,,,,,,,,,,,,,,,,,,,,,,,,,,,,,,,,,,,,,,,,,,,,,,,,,,,,,,,,,,,,,,,,,,,,,,,,,,,,,,,,,,,7MLGXN,train_x,red_square,bottom_left,2025-08-07_15h57.08.819,HideSeek_v1,2022.2.5,59.98706678856125,
,,,,,,,,,,,,,,,0,0,0,0,5,0,5,0,,,,,,,,,,,,,,,,,,,,,,,,,,,,,,,conditions/schedules/train_x_first/red_square_00/bottom_left/instructions/Slide6.png,conditions/schedules/train_x_first/red_square_00/bottom_left/instructions/Audio6.wav,3100.732308100003,3100.7331698600005,6,"[3.968392800001311, 17.780833300002996, 16.742034099999728, 19.040827799999533, 5.11883079999825, 4.61909580000065]","[3.968398900000466, 0.014298999998572981, 0.014353499998833286, 0.014025399999809451, 0.014011999999638647, 4.619103000000905]",0,,,,,,,,,,,,,,,,,,,,,,,,,,,,,,,,,,,,,,,,,,,,,,,,,,,,,,,,,,,,,,,,,,,,,,,,,,,,,,,,,,,,,,,,,,,,,,,,,,,,,,,,,,,,,,,,,,,,,,,,,,,,7MLGXN,train_x,red_square,bottom_left,2025-08-07_15h57.08.819,HideSeek_v1,2022.2.5,59.98706678856125,
,,,,,,,,,,,,,,,0,0,0,0,6,0,6,0,,,,,,,,,,,,,,,,,,,,,,,,,,,,,,,conditions/schedules/train_x_first/red_square_00/bottom_left/instructions/Slide7.png,conditions/schedules/train_x_first/red_square_00/bottom_left/instructions/Audio7.wav,3105.4039281000005,3105.403907460002,7,"[3.968392800001311, 17.780833300002996, 16.742034099999728, 19.040827799999533, 5.11883079999825, 4.61909580000065, 5.081482900000992]","[3.968398900000466, 0.014298999998572981, 0.014353499998833286, 0.014025399999809451, 0.014011999999638647, 0.058516000000963686, 5.0814897999989626]",0,,,,,,,,,,,,,,,,,,,,,,,,,,,,,,,,,,,,,,,,,,,,,,,,,,,,,,,,,,,,,,,,,,,,,,,,,,,,,,,,,,,,,,,,,,,,,,,,,,,,,,,,,,,,,,,,,,,,,,,,,,,,7MLGXN,train_x,red_square,bottom_left,2025-08-07_15h57.08.819,HideSeek_v1,2022.2.5,59.98706678856125,
,,,,,,,,,,,,,,,0,0,0,0,7,0,7,0,,,,,,,,,,,,,,,,,,,,,,,,,,,,,,,conditions/schedules/train_x_first/red_square_00/bottom_left/instructions/Slide8.png,conditions/schedules/train_x_first/red_square_00/bottom_left/instructions/Audio8.wav,3110.539201900003,3110.5382656600027,8,"[3.968392800001311, 17.780833300002996, 16.742034099999728, 19.040827799999533, 5.11883079999825, 4.61909580000065, 5.081482900000992, 11.639217700001609]","[3.968398900000466, 0.014298999998572981, 0.014353499998833286, 0.014025399999809451, 0.014011999999638647, 0.058516000000963686, 0.0661989000000176, 11.639224000002287]",0,,,,,,,,,,,,,,,,,,,,,,,,,,,,,,,,,,,,,,,,,,,,,,,,,,,,,,,,,,,,,,,,,,,,,,,,,,,,,,,,,,,,,,,,,,,,,,,,,,,,,,,,,,,,,,,,,,,,,,,,,,,,7MLGXN,train_x,red_square,bottom_left,2025-08-07_15h57.08.819,HideSeek_v1,2022.2.5,59.98706678856125,
,,,,,,,,,,,,,,,0,0,0,0,8,0,8,0,,,,,,,,,,,,,,,,,,,,,,,,,,,,,,,conditions/schedules/train_x_first/red_square_00/bottom_left/instructions/Slide9.png,conditions/schedules/train_x_first/red_square_00/bottom_left/instructions/Audio9.wav,3122.2467469000003,3122.247969850003,9,"[3.968392800001311, 17.780833300002996, 16.742034099999728, 19.040827799999533, 5.11883079999825, 4.61909580000065, 5.081482900000992, 11.639217700001609, 5.3194685999988]","[3.968398900000466, 0.014298999998572981, 0.014353499998833286, 0.014025399999809451, 0.014011999999638647, 0.058516000000963686, 0.0661989000000176, 0.00024910000138334, 5.319475299998885]",0,,,,,,,,,,,,,,,,,,,,,,,,,,,,,,,,,,,,,,,,,,,,,,,,,,,,,,,,,,,,,,,,,,,,,,,,,,,,,,,,,,,,,,,,,,,,,,,,,,,,,,,,,,,,,,,,,,,,,,,,,,,,7MLGXN,train_x,red_square,bottom_left,2025-08-07_15h57.08.819,HideSeek_v1,2022.2.5,59.98706678856125,
,,,,,,,,,,,,,,,0,0,0,0,9,0,9,0,,,,,,,,,,,,,,,,,,,,,,,,,,,,,,,conditions/schedules/train_x_first/red_square_00/bottom_left/instructions/Slide10.png,conditions/schedules/train_x_first/red_square_00/bottom_left/instructions/Audio10.wav,3127.6043618000003,3127.602074170001,10,"[3.968392800001311, 17.780833300002996, 16.742034099999728, 19.040827799999533, 5.11883079999825, 4.61909580000065, 5.081482900000992, 11.639217700001609, 5.3194685999988, 6.485275400002138]","[3.968398900000466, 0.014298999998572981, 0.014353499998833286, 0.014025399999809451, 0.014011999999638647, 0.058516000000963686, 0.0661989000000176, 0.00024910000138334, 0.048768100001325365, 6.485282600002392]",0,,,,,,,,,,,,,,,,,,,,,,,,,,,,,,,,,,,,,,,,,,,,,,,,,,,,,,,,,,,,,,,,,,,,,,,,,,,,,,,,,,,,,,,,,,,,,,,,,,,,,,,,,,,,,,,,,,,,,,,,,,,,7MLGXN,train_x,red_square,bottom_left,2025-08-07_15h57.08.819,HideSeek_v1,2022.2.5,59.98706678856125,
,,,,,,,,,,,,,,,0,0,0,0,10,0,10,0,,,,,,,,,,,,,,,,,,,,,,,,,,,,,,,conditions/schedules/train_x_first/red_square_00/bottom_left/instructions/Slide11.png,conditions/schedules/train_x_first/red_square_00/bottom_left/instructions/Audio11.wav,3134.146598200001,3134.142383660002,11,"[3.968392800001311, 17.780833300002996, 16.742034099999728, 19.040827799999533, 5.11883079999825, 4.61909580000065, 5.081482900000992, 11.639217700001609, 5.3194685999988, 6.485275400002138, 9.620352800000546]","[3.968398900000466, 0.014298999998572981, 0.014353499998833286, 0.014025399999809451, 0.014011999999638647, 0.058516000000963686, 0.0661989000000176, 0.00024910000138334, 0.048768100001325365, 0.013789200002065627, 9.620358899999701]",0,,,,,,,,,,,,,,,,,,,,,,,,,,,,,,,,,,,,,,,,,,,,,,,,,,,,,,,,,,,,,,,,,,,,,,,,,,,,,,,,,,,,,,,,,,,,,,,,,,,,,,,,,,,,,,,,,,,,,,,,,,,,7MLGXN,train_x,red_square,bottom_left,2025-08-07_15h57.08.819,HideSeek_v1,2022.2.5,59.98706678856125,
,,,,,,,,,,,,,,,0,0,0,0,11,0,11,0,,,,,,,,,,,,,,,,,,,,,,,,,,,,,,,conditions/schedules/train_x_first/red_square_00/bottom_left/instructions/Slide12.png,conditions/schedules/train_x_first/red_square_00/bottom_left/instructions/Audio12.wav,3143.8367822,3143.8364399500024,12,"[3.968392800001311, 17.780833300002996, 16.742034099999728, 19.040827799999533, 5.11883079999825, 4.61909580000065, 5.081482900000992, 11.639217700001609, 5.3194685999988, 6.485275400002138, 9.620352800000546, 12.501497700002801]","[3.968398900000466, 0.014298999998572981, 0.014353499998833286, 0.014025399999809451, 0.014011999999638647, 0.058516000000963686, 0.0661989000000176, 0.00024910000138334, 0.048768100001325365, 0.013789200002065627, 0.013936900002590846, 12.50150399999984]",0,,,,,,,,,,,,,,,,,,,,,,,,,,,,,,,,,,,,,,,,,,,,,,,,,,,,,,,,,,,,,,,,,,,,,,,,,,,,,,,,,,,,,,,,,,,,,,,,,,,,,,,,,,,,,,,,,,,,,,,,,,,,7MLGXN,train_x,red_square,bottom_left,2025-08-07_15h57.08.819,HideSeek_v1,2022.2.5,59.98706678856125,
1,3,2,8,2,5,0,66,2,instr_dim1_1,,,,,,0,0,0,0,,,,,0,0,0,0,,,,,,,,,,,,,,,,,,,,,,,,,,,,,,,,,,,,,stimuli/alien_stimuli/66.png,conditions/schedules/train_x_first/red_square_00/bottom_left/inputInstr_1.xlsx,stimuli/alien_stimuli/66.png,3156.4443911000017,3156.4443911000017,3156.4443911000017,3156.4443911000017,3156.441006330003,return,7.867065099995671,"[-0.16, -0.08, 0, 0.08, 0.16, 0.24, 0.32, 0.4, 0.48, 0.56]","[-0.4, -0.32, -0.24, -0.16, -0.08, 0, 0.08, 0.16, 0.24, 0.32]",2,2,8,3,0.0,0.4,3164.4457275000022,3164.4457275000022,3164.4457275000022,3164.4457275000022,3164.4457275000022,3164.4457275000022,3164.4457275000022,3164.430751330002,8.86000090000016,return,8.722050299995317,stimuli/alien_stimuli/66.png,66,3,1,,,,,,,,,,,,,,,,,,,,,,,,,,,,,,,,,,,,,,,,,,,,,,,,,,,,,,,,,,,,,,,,,,,,,,,,,,,,,,,,,,,,,,,,,7MLGXN,train_x,red_square,bottom_left,2025-08-07_15h57.08.819,HideSeek_v1,2022.2.5,59.98706678856125,
,,,,,,,,,,,30,,,,0,0,0,0,,,,,,,,,,,,,,,,,,,,,,,,,,,,,,,,,,,,,,,,,,,,,,,,,,,,,,,,,,,,,,,,,,,,,,,,,,,,,,21,0.7,0,0,99,1,30,0,conditions/schedules/train_x_first/red_square_00/bottom_left/inputTrain_1.1.xlsx,99,1,1,1,0,,,,,,,,,,,,,,,,,,,,,,,,,,,,,,,,,,,,,,,,,,,,,,,,,,,,,,,,,,,,,,,,,,,,,,,,,,,7MLGXN,train_x,red_square,bottom_left,2025-08-07_15h57.08.819,HideSeek_v1,2022.2.5,59.98706678856125,
,,,,,,,,,,,,,,,1,0,1,0,0,0,0,0,,,,,,,,,,,,,,,,,,,,,,,,,,,,,,,conditions/schedules/train_x_first/red_square_00/bottom_left/instructions/Slide13.png,conditions/schedules/train_x_first/red_square_00/bottom_left/instructions/Audio13.wav,3173.3244062000012,3173.3228783100035,13,"[3.968392800001311, 17.780833300002996, 16.742034099999728, 19.040827799999533, 5.11883079999825, 4.61909580000065, 5.081482900000992, 11.639217700001609, 5.3194685999988, 6.485275400002138, 9.620352800000546, 12.501497700002801, 16.962365000003047]","[3.968398900000466, 0.014298999998572981, 0.014353499998833286, 0.014025399999809451, 0.014011999999638647, 0.058516000000963686, 0.0661989000000176, 0.00024910000138334, 0.048768100001325365, 0.013789200002065627, 0.013936900002590846, 12.50150399999984, 16.96237150000161]",0,,,,,,,,,,,,,,,,,,,,,,,,,,,,,,,,,,,,,,,,,,,,,,,,,,,,,,,,,,,,,,,,,,,,,,,,,,,,,,,,,,,,,,,,,,,,,,,,,,,,,,,,,,,,,,,,,,,,,,,,,,,,7MLGXN,train_x,red_square,bottom_left,2025-08-07_15h57.08.819,HideSeek_v1,2022.2.5,59.98706678856125,
,,,,,,,,,,,,,,,1,0,1,0,1,0,1,0,,,,,,,,,,,,,,,,,,,,,,,,,,,,,,,conditions/schedules/train_x_first/red_square_00/bottom_left/instructions/Slide14.png,conditions/schedules/train_x_first/red_square_00/bottom_left/instructions/Audio14.wav,3190.353413800003,3190.3400408600005,14,"[3.968392800001311, 17.780833300002996, 16.742034099999728, 19.040827799999533, 5.11883079999825, 4.61909580000065, 5.081482900000992, 11.639217700001609, 5.3194685999988, 6.485275400002138, 9.620352800000546, 12.501497700002801, 16.962365000003047, 12.44064839999919]","[3.968398900000466, 0.014298999998572981, 0.014353499998833286, 0.014025399999809451, 0.014011999999638647, 0.058516000000963686, 0.0661989000000176, 0.00024910000138334, 0.048768100001325365, 0.013789200002065627, 0.013936900002590846, 12.50150399999984, 0.014123199998721248, 12.440655800000968]",0,,,,,,,,,,,,,,,,,,,,,,,,,,,,,,,,,,,,,,,,,,,,,,,,,,,,,,,,,,,,,,,,,,,,,,,,,,,,,,,,,,,,,,,,,,,,,,,,,,,,,,,,,,,,,,,,,,,,,,,,,,,,7MLGXN,train_x,red_square,bottom_left,2025-08-07_15h57.08.819,HideSeek_v1,2022.2.5,59.98706678856125,
2,4,0,4,0,0,0,16,2,instr_dim1_1,,,,,,1,0,1,0,,,,,0,0,0,0,,,,,,,,,,,,,,,,,,,,,,,,,,,,,,,,,,,,,stimuli/alien_stimuli/16.png,conditions/schedules/train_x_first/red_square_00/bottom_left/inputInstr_1.xlsx,stimuli/alien_stimuli/16.png,3202.9037199000013,3202.9037199000013,3202.9037199000013,3202.9037199000013,3202.896294230003,return,6.551595399996586,"[-0.16, -0.08, 0, 0.08, 0.16, 0.24, 0.32, 0.4, 0.48, 0.56]","[-0.4, -0.32, -0.24, -0.16, -0.08, 0, 0.08, 0.16, 0.24, 0.32]",0,0,4,4,0.0,0.0,3209.6263117000017,3209.6263117000017,3209.6263117000017,3209.6263117000017,3209.6263117000017,3209.6263117000017,3209.6263117000017,3209.618518410001,8.3302549,return,8.1688380999949,stimuli/alien_stimuli/16.png,16,4,2,,,,,,,,,,,,,,,,,,,,,,,,,,,,,,,,,,,,,,,,,,,,,,,,,,,,,,,,,,,,,,,,,,,,,,,,,,,,,,,,,,,,,,,,,7MLGXN,train_x,red_square,bottom_left,2025-08-07_15h57.08.819,HideSeek_v1,2022.2.5,59.98706678856125,
,,,,,,,,,,,30,,,,1,0,1,0,,,,,,,,,,,,,,,,,,,,,,,,,,,,,,,,,,,,,,,,,,,,,,,,,,,,,,,,,,,,,,,,,,,,,,,,,,,,,,21,0.7,0,0,99,1,30,0,conditions/schedules/train_x_first/red_square_00/bottom_left/inputTrain_1.1.xlsx,99,1,1,1,0,,,,,,,,,,,,,,,,,,,,,,,,,,,,,,,,,,,,,,,,,,,,,,,,,,,,,,,,,,,,,,,,,,,,,,,,,,,7MLGXN,train_x,red_square,bottom_left,2025-08-07_15h57.08.819,HideSeek_v1,2022.2.5,59.98706678856125,
,,,,,,,,,,,,,,,2,0,2,0,0,0,0,0,,,,,,,,,,,,,,,,,,,,,,,,,,,,,,,conditions/schedules/train_x_first/red_square_00/bottom_left/instructions/Slide15.png,conditions/schedules/train_x_first/red_square_00/bottom_left/instructions/Audio15.wav,3217.952663600001,3217.9473246100038,15,"[3.968392800001311, 17.780833300002996, 16.742034099999728, 19.040827799999533, 5.11883079999825, 4.61909580000065, 5.081482900000992, 11.639217700001609, 5.3194685999988, 6.485275400002138, 9.620352800000546, 12.501497700002801, 16.962365000003047, 12.44064839999919, 30.750668900000164]","[3.968398900000466, 0.014298999998572981, 0.014353499998833286, 0.014025399999809451, 0.014011999999638647, 0.058516000000963686, 0.0661989000000176, 0.00024910000138334, 0.048768100001325365, 0.013789200002065627, 0.013936900002590846, 12.50150399999984, 0.014123199998721248, 12.440655800000968, 30.75067510000008]",0,,,,,,,,,,,,,,,,,,,,,,,,,,,,,,,,,,,,,,,,,,,,,,,,,,,,,,,,,,,,,,,,,,,,,,,,,,,,,,,,,,,,,,,,,,,,,,,,,,,,,,,,,,,,,,,,,,,,,,,,,,,,7MLGXN,train_x,red_square,bottom_left,2025-08-07_15h57.08.819,HideSeek_v1,2022.2.5,59.98706678856125,
,,,,,,,,,,,,,,,2,0,2,0,1,0,1,0,,,,,,,,,,,,,,,,,,,,,,,,,,,,,,,conditions/schedules/train_x_first/red_square_00/bottom_left/instructions/Slide16.png,conditions/schedules/train_x_first/red_square_00/bottom_left/instructions/Audio16.wav,3248.7641956000007,3248.7559216600034,16,"[3.968392800001311, 17.780833300002996, 16.742034099999728, 19.040827799999533, 5.11883079999825, 4.61909580000065, 5.081482900000992, 11.639217700001609, 5.3194685999988, 6.485275400002138, 9.620352800000546, 12.501497700002801, 16.962365000003047, 12.44064839999919, 30.750668900000164, 20.804628299996693]","[3.968398900000466, 0.014298999998572981, 0.014353499998833286, 0.014025399999809451, 0.014011999999638647, 0.058516000000963686, 0.0661989000000176, 0.00024910000138334, 0.048768100001325365, 0.013789200002065627, 0.013936900002590846, 12.50150399999984, 0.014123199998721248, 12.440655800000968, 0.00031569999919156544, 20.80463499999678]",0,,,,,,,,,,,,,,,,,,,,,,,,,,,,,,,,,,,,,,,,,,,,,,,,,,,,,,,,,,,,,,,,,,,,,,,,,,,,,,,,,,,,,,,,,,,,,,,,,,,,,,,,,,,,,,,,,,,,,,,,,,,,7MLGXN,train_x,red_square,bottom_left,2025-08-07_15h57.08.819,HideSeek_v1,2022.2.5,59.98706678856125,
,2,1,5,1,3,0,46,,train_dim1_1,1,30,,,,2,0,2,0,,,,,,,,,0,0,0,0,0,0,0,0,0,0,0,0,,,,,,,,,,,,,,,,,,,,,,,,,stimuli/alien_stimuli/46.png,,,,,,,,,,,,,,,,,,,,,,,,,,,,,,,,,,,,,,,30,,,,,,,,3269.671827500002,3269.671827500002,3269.671827500002,3269.671827500002,3269.671827500002,right,2.912104500002897,0,0,0,99,0.08,-0.32,right,2.812092699994537,,,,,,,,,,,,,,,,,,,,,,,,,,,,,,,,,,,,,,,,,,,,,,,,,,,,,,,,,,,,7MLGXN,train_x,red_square,bottom_left,2025-08-07_15h57.08.819,HideSeek_v1,2022.2.5,59.98706678856125,
,2,1,5,1,3,0,46,,train_dim1_1,1,30,,,,2,0,2,0,,,,,,,,,0,0,0,0,0,0,0,0,1,0,1,0,,,,,,,,,,,,,,,,,,,,,,,,,,,,,,,,,,,,,,,,,,,,,,,,,,,,,,,,,,,,,,,,30,,,,,,,,3272.5695320000013,3272.5695320000013,3272.5695320000013,3272.5695320000013,3272.5695320000013,right,0.8926080000019283,0,0,0,99,0.16,-0.32,right,0.8120548999941093,,,,,,,,,,,,,,,,,,,,,,,,,,,,,,,,,,,,,,,,,,,,,,,,,,,,,,,,,,,,7MLGXN,train_x,red_square,bottom_left,2025-08-07_15h57.08.819,HideSeek_v1,2022.2.5,59.98706678856125,
,2,1,5,1,3,0,46,,train_dim1_1,1,30,,,,2,0,2,0,,,,,,,,,0,0,0,0,0,0,0,0,2,0,2,0,,,,,,,,,,,,,,,,,,,,,,,,,,,,,,,,,,,,,,,,,,,,,,,,,,,,,,,,,,,,,,,,30,,,,,,,,3273.4694781000035,3273.4694781000035,3273.4694781000035,3273.4694781000035,3273.4694781000035,return,1.3774125000018103,0,1,0,0,0.16,-0.32,return,1.3026261999948474,0,2,0.16,-0.32,,,,,,,,,,,,,,,,,,,,,,,,,,,,,,,,,,,,,,,,,,,,,,,,,,,,,,,,7MLGXN,train_x,red_square,bottom_left,2025-08-07_15h57.08.819,HideSeek_v1,2022.2.5,59.98706678856125,
,2,4,2,4,0,0,16,,train_dim1_1,2,30,,,,2,0,2,0,,,,,,,,,0,0,0,0,0,1,1,1,0,0,0,0,,,,,,,,,,,,,,,,,,,,,,,,,stimuli/alien_stimuli/16.png,,,,,,,,,,,,,,,,,,,,,,,,,,,,,stimuli/alien_stimuli/46.png,46,2,3,,,,,,,30,,,,,,,,3281.244951300003,3281.244951300003,3281.244951300003,3281.244951300003,3281.244951300003,right,9.71318009999959,0,1,0,99,0.08,-0.08,right,9.618662099997891,,,,,3279.6768623000025,3276.4179998,0.24,-0.32,0.0,0.24,-0.32,0.24,0.12,0.24,-0.32,3276.4179998,3276.4179998,3276.4179998,3276.4179998,3276.4179998,3276.4179998,3276.4179998,3276.4179998,3276.4074369300006,3.365517700000055,return,3.2202580999983184,,,,,,,,,,,,,,,,,,,,,,,,,,,,,,,,,7MLGXN,train_x,red_square,bottom_left,2025-08-07_15h57.08.819,HideSeek_v1,2022.2.5,59.98706678856125,
,2,4,2,4,0,0,16,,train_dim1_1,2,30,,,,2,0,2,0,,,,,,,,,0,0,0,0,0,1,1,1,1,0,1,0,,,,,,,,,,,,,,,,,,,,,,,,,,,,,,,,,,,,,,,,,,,,,,,,,,,,,,,,,,,,,,,,30,,,,,,,,3290.9549061000034,3290.9549061000034,3290.9549061000034,3290.9549061000034,3290.9549061000034,right,1.4100564000000304,0,1,0,99,0.16,-0.08,right,1.321910199996637,,,,,,,,,,,,,,,,,,,,,,,,,,,,,,,,,,,,,,,,,,,,,,,,,,,,,,,,,,,,7MLGXN,train_x,red_square,bottom_left,2025-08-07_15h57.08.819,HideSeek_v1,2022.2.5,59.98706678856125,
,2,4,2,4,0,0,16,,train_dim1_1,2,30,,,,2,0,2,0,,,,,,,,,0,0,0,0,0,1,1,1,2,0,2,0,,,,,,,,,,,,,,,,,,,,,,,,,,,,,,,,,,,,,,,,,,,,,,,,,,,,,,,,,,,,,,,,30,,,,,,,,3292.375584900001,3292.375584900001,3292.375584900001,3292.375584900001,3292.375584900001,right,0.826982799997495,0,1,0,99,0.24,-0.08,right,0.7368069000003743,,,,,,,,,,,,,,,,,,,,,,,,,,,,,,,,,,,,,,,,,,,,,,,,,,,,,,,,,,,,7MLGXN,train_x,red_square,bottom_left,2025-08-07_15h57.08.819,HideSeek_v1,2022.2.5,59.98706678856125,
,2,4,2,4,0,0,16,,train_dim1_1,2,30,,,,2,0,2,0,,,,,,,,,0,0,0,0,0,1,1,1,3,0,3,0,,,,,,,,,,,,,,,,,,,,,,,,,,,,,,,,,,,,,,,,,,,,,,,,,,,,,,,,,,,,,,,,30,,,,,,,,3293.2061098000013,3293.2061098000013,3293.2061098000013,3293.2061098000013,3293.2061098000013,return,0.9274250999987999,0,0,0,0,0.24,-0.08,return,0.8428427999970154,0,5,0.24,-0.08,,,,,,,,,,,,,,,,,,,,,,,,,,,,,,,,,,,,,,,,,,,,,,,,,,,,,,,,7MLGXN,train_x,red_square,bottom_left,2025-08-07_15h57.08.819,HideSeek_v1,2022.2.5,59.98706678856125,
,4,4,5,4,1,0,26,,train_dim1_1,3,30,,,,2,0,2,0,,,,,,,,,0,0,0,0,0,2,2,2,0,0,0,0,,,,,,,,,,,,,,,,,,,,,,,,,stimuli/alien_stimuli/26.png,,,,,,,,,,,,,,,,,,,,,,,,,,,,,stimuli/alien_stimuli/16.png,16,2,4,,,,,,,30,,,,,,,,3300.443765,3300.443765,3300.443765,3300.443765,3300.443765,down,4.056697500000155,0,0,0,99,0.16,-0.16,down,3.9631117999961134,,,,,3298.875808200002,,0,-0.08,0.0,0.0,-0.08,0,0.0,0,-0.08,3295.737223700002,3295.737223700002,3295.737223700002,3295.737223700002,3295.737223700002,3295.737223700002,3295.737223700002,3295.737223700002,3295.7233038200025,3.2661761000017577,return,3.104787699998269,,,,,,,,,,,,,,,,,,,,,,,,,,,,,,,,,7MLGXN,train_x,red_square,bottom_left,2025-08-07_15h57.08.819,HideSeek_v1,2022.2.5,59.98706678856125,
,4,4,5,4,1,0,26,,train_dim1_1,3,30,,,,2,0,2,0,,,,,,,,,0,0,0,0,0,2,2,2,1,0,1,0,,,,,,,,,,,,,,,,,,,,,,,,,,,,,,,,,,,,,,,,,,,,,,,,,,,,,,,,,,,,,,,,30,,,,,,,,3304.4982372000013,3304.4982372000013,3304.4982372000013,3304.4982372000013,3304.4982372000013,down,4.5127197000001615,0,0,0,99,0.16,-0.24,down,4.425832299999456,,,,,,,,,,,,,,,,,,,,,,,,,,,,,,,,,,,,,,,,,,,,,,,,,,,,,,,,,,,,7MLGXN,train_x,red_square,bottom_left,2025-08-07_15h57.08.819,HideSeek_v1,2022.2.5,59.98706678856125,
,4,4,5,4,1,0,26,,train_dim1_1,3,30,,,,2,0,2,0,,,,,,,,,0,0,0,0,0,2,2,2,2,0,2,0,,,,,,,,,,,,,,,,,,,,,,,,,,,,,,,,,,,,,,,,,,,,,,,,,,,,,,,,,,,,,,,,30,,,,,,,,3309.018307600003,3309.018307600003,3309.018307600003,3309.018307600003,3309.018307600003,down,0.5435470999982499,0,0,0,99,0.16,-0.32,down,0.46069319999514846,,,,,,,,,,,,,,,,,,,,,,,,,,,,,,,,,,,,,,,,,,,,,,,,,,,,,,,,,,,,7MLGXN,train_x,red_square,bottom_left,2025-08-07_15h57.08.819,HideSeek_v1,2022.2.5,59.98706678856125,
,4,4,5,4,1,0,26,,train_dim1_1,3,30,,,,2,0,2,0,,,,,,,,,0,0,0,0,0,2,2,2,3,0,3,0,,,,,,,,,,,,,,,,,,,,,,,,,,,,,,,,,,,,,,,,,,,,,,,,,,,,,,,,,,,,,,,,30,,,,,,,,3309.569735600002,3309.569735600002,3309.569735600002,3309.569735600002,3309.569735600002,return,0.9103838999981235,0,0,0,0,0.16,-0.32,return,0.8235428999942087,-3,5,0.16,-0.32,,,,,,,,,,,,,,,,,,,,,,,,,,,,,,,,,,,,,,,,,,,,,,,,,,,,,,,,7MLGXN,train_x,red_square,bottom_left,2025-08-07_15h57.08.819,HideSeek_v1,2022.2.5,59.98706678856125,
,2,3,6,3,4,0,56,,train_dim1_1,4,30,,,,2,0,2,0,,,,,,,,,0,0,0,0,0,3,3,3,0,0,0,0,,,,,,,,,,,,,,,,,,,,,,,,,stimuli/alien_stimuli/56.png,,,,,,,,,,,,,,,,,,,,,,,,,,,,,stimuli/alien_stimuli/26.png,26,4,5,,,,,,,30,,,,,,,,3318.4839460000003,3318.4839460000003,3318.4839460000003,3318.4839460000003,3318.4839460000003,right,1.7066469999990659,0,0,0,99,0.08,-0.16,right,1.6260351999953855,,,,,3316.9108737000024,3312.060256800003,0.24,-0.08,0.0,0.08,-0.08,0.24,0.2,0.24,-0.08,3312.060256800003,3312.060256800003,3312.060256800003,3312.060256800003,3312.060256800003,3312.060256800003,3312.060256800003,3312.060256800003,3312.0369823300034,4.975869499998225,return,4.824043299999175,,,,,,,,,,,,,,,,,,,,,,,,,,,,,,,,,7MLGXN,train_x,red_square,bottom_left,2025-08-07_15h57.08.819,HideSeek_v1,2022.2.5,59.98706678856125,
,2,3,6,3,4,0,56,,train_dim1_1,4,30,,,,2,0,2,0,,,,,,,,,0,0,0,0,0,3,3,3,1,0,1,0,,,,,,,,,,,,,,,,,,,,,,,,,,,,,,,,,,,,,,,,,,,,,,,,,,,,,,,,,,,,,,,,30,,,,,,,,3320.1932108,3320.1932108,3320.1932108,3320.1932108,3320.1932108,right,3.662835899998754,0,0,0,99,0.16,-0.16,right,3.585215099996276,,,,,,,,,,,,,,,,,,,,,,,,,,,,,,,,,,,,,,,,,,,,,,,,,,,,,,,,,,,,7MLGXN,train_x,red_square,bottom_left,2025-08-07_15h57.08.819,HideSeek_v1,2022.2.5,59.98706678856125,
,2,3,6,3,4,0,56,,train_dim1_1,4,30,,,,2,0,2,0,,,,,,,,,0,0,0,0,0,3,3,3,2,0,2,0,,,,,,,,,,,,,,,,,,,,,,,,,,,,,,,,,,,,,,,,,,,,,,,,,,,,,,,,,,,,,,,,30,,,,,,,,3323.863370700001,3323.863370700001,3323.863370700001,3323.863370700001,3323.863370700001,right,0.4595915999998397,0,0,0,99,0.24,-0.16,right,0.37657129999570316,,,,,,,,,,,,,,,,,,,,,,,,,,,,,,,,,,,,,,,,,,,,,,,,,,,,,,,,,,,,7MLGXN,train_x,red_square,bottom_left,2025-08-07_15h57.08.819,HideSeek_v1,2022.2.5,59.98706678856125,
,2,3,6,3,4,0,56,,train_dim1_1,4,30,,,,2,0,2,0,,,,,,,,,0,0,0,0,0,3,3,3,3,0,3,0,,,,,,,,,,,,,,,,,,,,,,,,,,,,,,,,,,,,,,,,,,,,,,,,,,,,,,,,,,,,,,,,30,,,,,,,,3324.329465400002,3324.329465400002,3324.329465400002,3324.329465400002,3324.329465400002,return,0.6099740999998176,0,1,0,0,0.24,-0.16,return,0.5331368999977713,-3,8,0.24,-0.16,,,,,,,,,,,,,,,,,,,,,,,,,,,,,,,,,,,,,,,,,,,,,,,,,,,,,,,,7MLGXN,train_x,red_square,bottom_left,2025-08-07_15h57.08.819,HideSeek_v1,2022.2.5,59.98706678856125,
,0,2,5,2,5,0,66,,train_dim1_1,5,30,,,,2,0,2,0,,,,,,,,,0,0,0,0,0,4,4,4,0,0,0,0,,,,,,,,,,,,,,,,,,,,,,,,,stimuli/alien_stimuli/66.png,,,,,,,,,,,,,,,,,,,,,,,,,,,,,stimuli/alien_stimuli/56.png,56,2,6,,,,,,,30,,,,,,,,3330.759035400002,3330.759035400002,3330.759035400002,3330.759035400002,3330.759035400002,right,1.1062087999998766,0,1,0,99,-0.08,-0.24,right,1.0270341999967059,,,,,3329.1951855000007,3326.5215848000007,0.32,-0.16,0.0,0.32,-0.16,0.32,0.16,0.32,-0.16,3326.5215848000007,3326.5215848000007,3326.5215848000007,3326.5215848000007,3326.5215848000007,3326.5215848000007,3326.5215848000007,3326.5215848000007,3326.498956730001,2.792916599999444,return,2.6480027999969025,,,,,,,,,,,,,,,,,,,,,,,,,,,,,,,,,7MLGXN,train_x,red_square,bottom_left,2025-08-07_15h57.08.819,HideSeek_v1,2022.2.5,59.98706678856125,
,0,2,5,2,5,0,66,,train_dim1_1,5,30,,,,2,0,2,0,,,,,,,,,0,0,0,0,0,4,4,4,1,0,1,0,,,,,,,,,,,,,,,,,,,,,,,,,,,,,,,,,,,,,,,,,,,,,,,,,,,,,,,,,,,,,,,,30,,,,,,,,3331.867425700002,3331.867425700002,3331.867425700002,3331.867425700002,3331.867425700002,right,1.277217599999858,0,1,0,99,0.0,-0.24,right,1.1883381999978155,,,,,,,,,,,,,,,,,,,,,,,,,,,,,,,,,,,,,,,,,,,,,,,,,,,,,,,,,,,,7MLGXN,train_x,red_square,bottom_left,2025-08-07_15h57.08.819,HideSeek_v1,2022.2.5,59.98706678856125,
,0,2,5,2,5,0,66,,train_dim1_1,5,30,,,,2,0,2,0,,,,,,,,,0,0,0,0,0,4,4,4,2,0,2,0,,,,,,,,,,,,,,,,,,,,,,,,,,,,,,,,,,,,,,,,,,,,,,,,,,,,,,,,,,,,,,,,30,,,,,,,,3333.151800200001,3333.151800200001,3333.151800200001,3333.151800200001,3333.151800200001,right,0.8772453000019595,0,1,0,99,0.08,-0.24,right,0.8016603999967629,,,,,,,,,,,,,,,,,,,,,,,,,,,,,,,,,,,,,,,,,,,,,,,,,,,,,,,,,,,,7MLGXN,train_x,red_square,bottom_left,2025-08-07_15h57.08.819,HideSeek_v1,2022.2.5,59.98706678856125,
,0,2,5,2,5,0,66,,train_dim1_1,5,30,,,,2,0,2,0,,,,,,,,,0,0,0,0,0,4,4,4,3,0,3,0,,,,,,,,,,,,,,,,,,,,,,,,,,,,,,,,,,,,,,,,,,,,,,,,,,,,,,,,,,,,,,,,30,,,,,,,,3334.0355261000004,3334.0355261000004,3334.0355261000004,3334.0355261000004,3334.0355261000004,return,2.2446126000031654,0,0,0,0,0.08,-0.24,return,2.165861599998607,-3,11,0.08,-0.24,,,,,,,,,,,,,,,,,,,,,,,,,,,,,,,,,,,,,,,,,,,,,,,,,,,,,,,,7MLGXN,train_x,red_square,bottom_left,2025-08-07_15h57.08.819,HideSeek_v1,2022.2.5,59.98706678856125,
,0,0,1,0,1,0,26,,train_dim1_1,6,30,,,,2,0,2,0,,,,,,,,,0,0,0,0,0,5,5,5,0,0,0,0,,,,,,,,,,,,,,,,,,,,,,,,,stimuli/alien_stimuli/26.png,,,,,,,,,,,,,,,,,,,,,,,,,,,,,stimuli/alien_stimuli/66.png,66,0,7,,,,,,,30,,,,,,,,3342.4242421000017,3342.4242421000017,3342.4242421000017,3342.4242421000017,3342.4242421000017,right,1.4060260000005655,0,0,0,99,-0.08,-0.4,right,1.3197493999978178,,,,,3340.860829100002,3337.863266100001,0.24,-0.24,0.0,0.4,-0.24,0.24,0.039999999999999994,0.24,-0.24,3337.863266100001,3337.863266100001,3337.863266100001,3337.863266100001,3337.863266100001,3337.863266100001,3337.863266100001,3337.863266100001,3337.8416988300023,3.115590199999133,return,2.9540510999977414,,,,,,,,,,,,,,,,,,,,,,,,,,,,,,,,,7MLGXN,train_x,red_square,bottom_left,2025-08-07_15h57.08.819,HideSeek_v1,2022.2.5,59.98706678856125,
,0,0,1,0,1,0,26,,train_dim1_1,6,30,,,,2,0,2,0,,,,,,,,,0,0,0,0,0,5,5,5,1,0,1,0,,,,,,,,,,,,,,,,,,,,,,,,,,,,,,,,,,,,,,,,,,,,,,,,,,,,,,,,,,,,,,,,30,,,,,,,,3343.8319114000005,3343.8319114000005,3343.8319114000005,3343.8319114000005,3343.8319114000005,right,0.2593927000016265,0,0,0,99,0.0,-0.4,right,0.1731060999991314,,,,,,,,,,,,,,,,,,,,,,,,,,,,,,,,,,,,,,,,,,,,,,,,,,,,,,,,,,,,7MLGXN,train_x,red_square,bottom_left,2025-08-07_15h57.08.819,HideSeek_v1,2022.2.5,59.98706678856125,
,0,0,1,0,1,0,26,,train_dim1_1,6,30,,,,2,0,2,0,,,,,,,,,0,0,0,0,0,5,5,5,2,0,2,0,,,,,,,,,,,,,,,,,,,,,,,,,,,,,,,,,,,,,,,,,,,,,,,,,,,,,,,,,,,,,,,,30,,,,,,,,3344.0977439000017,3344.0977439000017,3344.0977439000017,3344.0977439000017,3344.0977439000017,right,2.1938889999983076,0,0,0,99,0.08,-0.4,right,2.102775899995322,,,,,,,,,,,,,,,,,,,,,,,,,,,,,,,,,,,,,,,,,,,,,,,,,,,,,,,,,,,,7MLGXN,train_x,red_square,bottom_left,2025-08-07_15h57.08.819,HideSeek_v1,2022.2.5,59.98706678856125,
,0,0,1,0,1,0,26,,train_dim1_1,6,30,,,,2,0,2,0,,,,,,,,,0,0,0,0,0,5,5,5,3,0,3,0,,,,,,,,,,,,,,,,,,,,,,,,,,,,,,,,,,,,,,,,,,,,,,,,,,,,,,,,,,,,,,,,30,,,,,,,,3346.298606600001,3346.298606600001,3346.298606600001,3346.298606600001,3346.298606600001,return,0.9104523999994854,0,0,0,0,0.08,-0.4,return,0.8268622999967192,-3,14,0.08,-0.4,,,,,,,,,,,,,,,,,,,,,,,,,,,,,,,,,,,,,,,,,,,,,,,,,,,,,,,,7MLGXN,train_x,red_square,bottom_left,2025-08-07_15h57.08.819,HideSeek_v1,2022.2.5,59.98706678856125,
,3,0,8,0,5,0,66,,train_dim1_1,7,30,,,,2,0,2,0,,,,,,,,,0,0,0,0,0,6,6,6,0,0,0,0,,,,,,,,,,,,,,,,,,,,,,,,,stimuli/alien_stimuli/66.png,,,,,,,,,,,,,,,,,,,,,,,,,,,,,stimuli/alien_stimuli/26.png,26,0,8,,,,,,,30,,,,,,,,3353.0120984000023,3353.0120984000023,3353.0120984000023,3353.0120984000023,3353.0120984000023,up,3.0737860999979603,0,0,0,99,0.08,-0.32,up,2.9835393999965163,,,,,3351.441577900001,3348.780391100001,-0.08,-0.4,0.0,0.08,-0.4,-0.08,-0.12,-0.08,-0.4,3348.780391100001,3348.780391100001,3348.780391100001,3348.780391100001,3348.780391100001,3348.780391100001,3348.780391100001,3348.780391100001,3348.7675411300015,2.7771489000006113,return,2.6360101999998733,,,,,,,,,,,,,,,,,,,,,,,,,,,,,,,,,7MLGXN,train_x,red_square,bottom_left,2025-08-07_15h57.08.819,HideSeek_v1,2022.2.5,59.98706678856125,
,3,0,8,0,5,0,66,,train_dim1_1,7,30,,,,2,0,2,0,,,,,,,,,0,0,0,0,0,6,6,6,1,0,1,0,,,,,,,,,,,,,,,,,,,,,,,,,,,,,,,,,,,,,,,,,,,,,,,,,,,,,,,,,,,,,,,,30,,,,,,,,3356.0866682000014,3356.0866682000014,3356.0866682000014,3356.0866682000014,3356.0866682000014,up,0.5597367999980634,0,0,0,99,0.08,-0.24,up,0.4781970999974874,,,,,,,,,,,,,,,,,,,,,,,,,,,,,,,,,,,,,,,,,,,,,,,,,,,,,,,,,,,,7MLGXN,train_x,red_square,bottom_left,2025-08-07_15h57.08.819,HideSeek_v1,2022.2.5,59.98706678856125,
,3,0,8,0,5,0,66,,train_dim1_1,7,30,,,,2,0,2,0,,,,,,,,,0,0,0,0,0,6,6,6,2,0,2,0,,,,,,,,,,,,,,,,,,,,,,,,,,,,,,,,,,,,,,,,,,,,,,,,,,,,,,,,,,,,,,,,30,,,,,,,,3356.6541565000007,3356.6541565000007,3356.6541565000007,3356.6541565000007,3356.6541565000007,down,1.794127599998319,0,0,0,99,0.08,-0.32,down,1.7174200999979803,,,,,,,,,,,,,,,,,,,,,,,,,,,,,,,,,,,,,,,,,,,,,,,,,,,,,,,,,,,,7MLGXN,train_x,red_square,bottom_left,2025-08-07_15h57.08.819,HideSeek_v1,2022.2.5,59.98706678856125,
,3,0,8,0,5,0,66,,train_dim1_1,7,30,,,,2,0,2,0,,,,,,,,,0,0,0,0,0,6,6,6,3,0,3,0,,,,,,,,,,,,,,,,,,,,,,,,,,,,,,,,,,,,,,,,,,,,,,,,,,,,,,,,,,,,,,,,30,,,,,,,,3358.4549252000033,3358.4549252000033,3358.4549252000033,3358.4549252000033,3358.4549252000033,down,0.5099530999978015,0,0,0,99,0.08,-0.4,down,0.4384650999963924,,,,,,,,,,,,,,,,,,,,,,,,,,,,,,,,,,,,,,,,,,,,,,,,,,,,,,,,,,,,7MLGXN,train_x,red_square,bottom_left,2025-08-07_15h57.08.819,HideSeek_v1,2022.2.5,59.98706678856125,
,3,0,8,0,5,0,66,,train_dim1_1,7,30,,,,2,0,2,0,,,,,,,,,0,0,0,0,0,6,6,6,4,0,4,0,,,,,,,,,,,,,,,,,,,,,,,,,,,,,,,,,,,,,,,,,,,,,,,,,,,,,,,,,,,,,,,,30,,,,,,,,3358.9727321000028,3358.9727321000028,3358.9727321000028,3358.9727321000028,3358.9727321000028,left,0.8606222999987949,0,0,0,99,0.0,-0.4,left,0.785419699997874,,,,,,,,,,,,,,,,,,,,,,,,,,,,,,,,,,,,,,,,,,,,,,,,,,,,,,,,,,,,7MLGXN,train_x,red_square,bottom_left,2025-08-07_15h57.08.819,HideSeek_v1,2022.2.5,59.98706678856125,
,3,0,8,0,5,0,66,,train_dim1_1,7,30,,,,2,0,2,0,,,,,,,,,0,0,0,0,0,6,6,6,5,0,5,0,,,,,,,,,,,,,,,,,,,,,,,,,,,,,,,,,,,,,,,,,,,,,,,,,,,,,,,,,,,,,,,,30,,,,,,,,3359.8404223000034,3359.8404223000034,3359.8404223000034,3359.8404223000034,3359.8404223000034,return,0.5933021000018925,0,0,0,0,0.0,-0.4,return,0.5051947999963886,-3,13,0.0,-0.4,,,,,,,,,,,,,,,,,,,,,,,,,,,,,,,,,,,,,,,,,,,,,,,,,,,,,,,,7MLGXN,train_x,red_square,bottom_left,2025-08-07_15h57.08.819,HideSeek_v1,2022.2.5,59.98706678856125,
,0,4,3,4,3,0,46,,train_dim1_1,8,30,,,,2,0,2,0,,,,,,,,,0,0,0,0,0,7,7,7,0,0,0,0,,,,,,,,,,,,,,,,,,,,,,,,,stimuli/alien_stimuli/46.png,,,,,,,,,,,,,,,,,,,,,,,,,,,,,stimuli/alien_stimuli/66.png,66,3,9,,,,,,,30,,,,,,,,3366.9906075,3366.9906075,3366.9906075,3366.9906075,3366.9906075,right,0.7053653000002669,0,0,0,99,-0.08,-0.08,right,0.6212325999949826,,,,,3365.4201758000017,3362.014931200003,0.48,-0.4,0.0,0.4,-0.4,0.48,0.27999999999999997,0.48,-0.4,3362.014931200003,3362.014931200003,3362.014931200003,3362.014931200003,3362.014931200003,3362.014931200003,3362.014931200003,3362.014931200003,3361.9952058300014,3.5264126999973087,return,3.3873716999951284,,,,,,,,,,,,,,,,,,,,,,,,,,,,,,,,,7MLGXN,train_x,red_square,bottom_left,2025-08-07_15h57.08.819,HideSeek_v1,2022.2.5,59.98706678856125,
,0,4,3,4,3,0,46,,train_dim1_1,8,30,,,,2,0,2,0,,,,,,,,,0,0,0,0,0,7,7,7,1,0,1,0,,,,,,,,,,,,,,,,,,,,,,,,,,,,,,,,,,,,,,,,,,,,,,,,,,,,,,,,,,,,,,,,30,,,,,,,,3367.6969589,3367.6969589,3367.6969589,3367.6969589,3367.6969589,right,0.709158199999365,0,0,0,99,0.0,-0.08,right,0.6223185999988345,,,,,,,,,,,,,,,,,,,,,,,,,,,,,,,,,,,,,,,,,,,,,,,,,,,,,,,,,,,,7MLGXN,train_x,red_square,bottom_left,2025-08-07_15h57.08.819,HideSeek_v1,2022.2.5,59.98706678856125,
,0,4,3,4,3,0,46,,train_dim1_1,8,30,,,,2,0,2,0,,,,,,,,,0,0,0,0,0,7,7,7,2,0,2,0,,,,,,,,,,,,,,,,,,,,,,,,,,,,,,,,,,,,,,,,,,,,,,,,,,,,,,,,,,,,,,,,30,,,,,,,,3368.414584500002,3368.414584500002,3368.414584500002,3368.414584500002,3368.414584500002,return,3.4295873000010033,0,1,0,0,0.0,-0.08,return,3.355052099996101,-3,15,0.0,-0.08,,,,,,,,,,,,,,,,,,,,,,,,,,,,,,,,,,,,,,,,,,,,,,,,,,,,,,,,7MLGXN,train_x,red_square,bottom_left,2025-08-07_15h57.08.819,HideSeek_v1,2022.2.5,59.98706678856125,
,1,0,5,0,4,0,56,,train_dim1_1,9,30,,,,2,0,2,0,,,,,,,,,0,0,0,0,0,8,8,8,0,0,0,0,,,,,,,,,,,,,,,,,,,,,,,,,stimuli/alien_stimuli/56.png,,,,,,,,,,,,,,,,,,,,,,,,,,,,,stimuli/alien_stimuli/46.png,46,0,10,,,,,,,30,,,,,,,,3376.898825,3376.898825,3376.898825,3376.898825,3376.898825,right,2.1729816000006394,0,1,0,99,0.0,-0.4,right,2.063667799997347,,,,,3375.3227675000016,3376.898825,0.08,-0.08,0.0,0.24,-0.08,0.08,-0.04,0.08,-0.08,3373.4094447000025,3373.4094447000025,3373.4094447000025,3373.4094447000025,3373.4094447000025,3373.4094447000025,3373.4094447000025,3373.4094447000025,3373.3875855400024,2.0205750000022817,return,1.88893449999523,,,,,,,,,,,,,,,,,,,,,,,,,,,,,,,,,7MLGXN,train_x,red_square,bottom_left,2025-08-07_15h57.08.819,HideSeek_v1,2022.2.5,59.98706678856125,
,1,0,5,0,4,0,56,,train_dim1_1,9,30,,,,2,0,2,0,,,,,,,,,0,0,0,0,0,8,8,8,1,0,1,0,,,,,,,,,,,,,,,,,,,,,,,,,,,,,,,,,,,,,,,,,,,,,,,,,,,,,,,,,,,,,,,,30,,,,,,,,3379.0583678000003,3379.0583678000003,3379.0583678000003,3379.0583678000003,3379.0583678000003,right,0.4096050000007381,0,1,0,99,0.08,-0.4,right,0.3312969999969937,,,,,,,,,,,,,,,,,,,,,,,,,,,,,,,,,,,,,,,,,,,,,,,,,,,,,,,,,,,,7MLGXN,train_x,red_square,bottom_left,2025-08-07_15h57.08.819,HideSeek_v1,2022.2.5,59.98706678856125,
,1,0,5,0,4,0,56,,train_dim1_1,9,30,,,,2,0,2,0,,,,,,,,,0,0,0,0,0,8,8,8,2,0,2,0,,,,,,,,,,,,,,,,,,,,,,,,,,,,,,,,,,,,,,,,,,,,,,,,,,,,,,,,,,,,,,,,30,,,,,,,,3379.475421700001,3379.475421700001,3379.475421700001,3379.475421700001,3379.475421700001,right,0.4931797999997798,0,1,0,99,0.16,-0.4,right,0.4034373999966192,,,,,,,,,,,,,,,,,,,,,,,,,,,,,,,,,,,,,,,,,,,,,,,,,,,,,,,,,,,,7MLGXN,train_x,red_square,bottom_left,2025-08-07_15h57.08.819,HideSeek_v1,2022.2.5,59.98706678856125,
,1,0,5,0,4,0,56,,train_dim1_1,9,30,,,,2,0,2,0,,,,,,,,,0,0,0,0,0,8,8,8,3,0,3,0,,,,,,,,,,,,,,,,,,,,,,,,,,,,,,,,,,,,,,,,,,,,,,,,,,,,,,,,,,,,,,,,30,,,,,,,,3379.9779879000016,3379.9779879000016,3379.9779879000016,3379.9779879000016,3379.9779879000016,return,0.5936606999966898,0,1,0,0,0.16,-0.4,return,0.5038600999978371,-3,18,0.16,-0.4,,,,,,,,,,,,,,,,,,,,,,,,,,,,,,,,,,,,,,,,,,,,,,,,,,,,,,,,7MLGXN,train_x,red_square,bottom_left,2025-08-07_15h57.08.819,HideSeek_v1,2022.2.5,59.98706678856125,
,0,3,0,3,0,0,16,,train_dim1_1,10,30,,,,2,0,2,0,,,,,,,,,0,0,0,0,0,9,9,9,0,0,0,0,,,,,,,,,,,,,,,,,,,,,,,,,stimuli/alien_stimuli/16.png,,,,,,,,,,,,,,,,,,,,,,,,,,,,,stimuli/alien_stimuli/56.png,56,1,11,,,,,,,30,,,,,,,,3385.3594316000017,3385.3594316000017,3385.3594316000017,3385.3594316000017,3385.3594316000017,right,1.4059401000013168,0,1,0,99,-0.08,-0.16,right,1.2974817999966035,,,,,3383.7665533,3382.1327815000004,0.24,-0.4,0.0,0.32,-0.4,0.24,0.07999999999999999,0.24,-0.4,3382.1327815000004,3382.1327815000004,3382.1327815000004,3382.1327815000004,3382.1327815000004,3382.1327815000004,3382.1327815000004,3382.1327815000004,3382.1119058400022,1.7397942000025068,return,1.6041643999960797,,,,,,,,,,,,,,,,,,,,,,,,,,,,,,,,,7MLGXN,train_x,red_square,bottom_left,2025-08-07_15h57.08.819,HideSeek_v1,2022.2.5,59.98706678856125,
,0,3,0,3,0,0,16,,train_dim1_1,10,30,,,,2,0,2,0,,,,,,,,,0,0,0,0,0,9,9,9,1,0,1,0,,,,,,,,,,,,,,,,,,,,,,,,,,,,,,,,,,,,,,,,,,,,,,,,,,,,,,,,,,,,,,,,30,,,,,,,,3386.750327200003,3386.750327200003,3386.750327200003,3386.750327200003,3386.750327200003,right,0.459573600001022,0,1,0,99,0.0,-0.16,right,0.3790424999970128,,,,,,,,,,,,,,,,,,,,,,,,,,,,,,,,,,,,,,,,,,,,,,,,,,,,,,,,,,,,7MLGXN,train_x,red_square,bottom_left,2025-08-07_15h57.08.819,HideSeek_v1,2022.2.5,59.98706678856125,
,0,3,0,3,0,0,16,,train_dim1_1,10,30,,,,2,0,2,0,,,,,,,,,0,0,0,0,0,9,9,9,2,0,2,0,,,,,,,,,,,,,,,,,,,,,,,,,,,,,,,,,,,,,,,,,,,,,,,,,,,,,,,,,,,,,,,,30,,,,,,,,3387.2179159000007,3387.2179159000007,3387.2179159000007,3387.2179159000007,3387.2179159000007,right,0.40983300000152667,0,1,0,99,0.08,-0.16,right,0.3270169999959762,,,,,,,,,,,,,,,,,,,,,,,,,,,,,,,,,,,,,,,,,,,,,,,,,,,,,,,,,,,,7MLGXN,train_x,red_square,bottom_left,2025-08-07_15h57.08.819,HideSeek_v1,2022.2.5,59.98706678856125,
,0,3,0,3,0,0,16,,train_dim1_1,10,30,,,,2,0,2,0,,,,,,,,,0,0,0,0,0,9,9,9,3,0,3,0,,,,,,,,,,,,,,,,,,,,,,,,,,,,,,,,,,,,,,,,,,,,,,,,,,,,,,,,,,,,,,,,30,,,,,,,,3387.6347565000033,3387.6347565000033,3387.6347565000033,3387.6347565000033,3387.6347565000033,right,0.3597585999996227,0,1,0,99,0.16,-0.16,right,0.2792896999962977,,,,,,,,,,,,,,,,,,,,,,,,,,,,,,,,,,,,,,,,,,,,,,,,,,,,,,,,,,,,7MLGXN,train_x,red_square,bottom_left,2025-08-07_15h57.08.819,HideSeek_v1,2022.2.5,59.98706678856125,
,0,3,0,3,0,0,16,,train_dim1_1,10,30,,,,2,0,2,0,,,,,,,,,0,0,0,0,0,9,9,9,4,0,4,0,,,,,,,,,,,,,,,,,,,,,,,,,,,,,,,,,,,,,,,,,,,,,,,,,,,,,,,,,,,,,,,,30,,,,,,,,3388.001283100002,3388.001283100002,3388.001283100002,3388.001283100002,3388.001283100002,return,0.6434494999994058,0,0,0,0,0.16,-0.16,return,0.5547519999963697,-3,22,0.16,-0.16,,,,,,,,,,,,,,,,,,,,,,,,,,,,,,,,,,,,,,,,,,,,,,,,,,,,,,,,7MLGXN,train_x,red_square,bottom_left,2025-08-07_15h57.08.819,HideSeek_v1,2022.2.5,59.98706678856125,
,2,2,5,2,3,0,46,,train_dim1_1,11,30,,,,2,0,2,0,,,,,,,,,0,0,0,0,0,10,10,10,0,0,0,0,,,,,,,,,,,,,,,,,,,,,,,,,stimuli/alien_stimuli/46.png,,,,,,,,,,,,,,,,,,,,,,,,,,,,,stimuli/alien_stimuli/16.png,16,0,12,,,,,,,30,,,,,,,,3393.7937829,3393.7937829,3393.7937829,3393.7937829,3393.7937829,left,2.708118200000172,0,0,0,99,-0.08,-0.24,left,2.6075199999977485,,,,,3392.2078315,3390.210885100001,-0.16,-0.16,0.0,0.0,-0.16,-0.16,-0.16,-0.16,-0.16,3390.210885100001,3390.210885100001,3390.210885100001,3390.210885100001,3390.210885100001,3390.210885100001,3390.210885100001,3390.210885100001,3390.2017537300026,2.1075720000008005,return,1.9697455999958038,,,,,,,,,,,,,,,,,,,,,,,,,,,,,,,,,7MLGXN,train_x,red_square,bottom_left,2025-08-07_15h57.08.819,HideSeek_v1,2022.2.5,59.98706678856125,
,2,2,5,2,3,0,46,,train_dim1_1,11,30,,,,2,0,2,0,,,,,,,,,0,0,0,0,0,10,10,10,1,0,1,0,,,,,,,,,,,,,,,,,,,,,,,,,,,,,,,,,,,,,,,,,,,,,,,,,,,,,,,,,,,,,,,,30,,,,,,,,3396.4868840000017,3396.4868840000017,3396.4868840000017,3396.4868840000017,3396.4868840000017,right,1.6104211999991094,0,0,0,99,0.0,-0.24,right,1.5243855999979132,,,,,,,,,,,,,,,,,,,,,,,,,,,,,,,,,,,,,,,,,,,,,,,,,,,,,,,,,,,,7MLGXN,train_x,red_square,bottom_left,2025-08-07_15h57.08.819,HideSeek_v1,2022.2.5,59.98706678856125,
,2,2,5,2,3,0,46,,train_dim1_1,11,30,,,,2,0,2,0,,,,,,,,,0,0,0,0,0,10,10,10,2,0,2,0,,,,,,,,,,,,,,,,,,,,,,,,,,,,,,,,,,,,,,,,,,,,,,,,,,,,,,,,,,,,,,,,30,,,,,,,,3398.1050122000015,3398.1050122000015,3398.1050122000015,3398.1050122000015,3398.1050122000015,right,0.30985750000036205,0,0,0,99,0.08,-0.24,right,0.23690479999640957,,,,,,,,,,,,,,,,,,,,,,,,,,,,,,,,,,,,,,,,,,,,,,,,,,,,,,,,,,,,7MLGXN,train_x,red_square,bottom_left,2025-08-07_15h57.08.819,HideSeek_v1,2022.2.5,59.98706678856125,
,2,2,5,2,3,0,46,,train_dim1_1,11,30,,,,2,0,2,0,,,,,,,,,0,0,0,0,0,10,10,10,3,0,3,0,,,,,,,,,,,,,,,,,,,,,,,,,,,,,,,,,,,,,,,,,,,,,,,,,,,,,,,,,,,,,,,,30,,,,,,,,3398.422536600003,3398.422536600003,3398.422536600003,3398.422536600003,3398.422536600003,right,0.30950510000184295,0,0,0,99,0.16,-0.24,right,0.23227899999619694,,,,,,,,,,,,,,,,,,,,,,,,,,,,,,,,,,,,,,,,,,,,,,,,,,,,,,,,,,,,7MLGXN,train_x,red_square,bottom_left,2025-08-07_15h57.08.819,HideSeek_v1,2022.2.5,59.98706678856125,
,2,2,5,2,3,0,46,,train_dim1_1,11,30,,,,2,0,2,0,,,,,,,,,0,0,0,0,0,10,10,10,4,0,4,0,,,,,,,,,,,,,,,,,,,,,,,,,,,,,,,,,,,,,,,,,,,,,,,,,,,,,,,,,,,,,,,,30,,,,,,,,3398.7399404000025,3398.7399404000025,3398.7399404000025,3398.7399404000025,3398.7399404000025,return,2.1952239999991434,0,1,0,0,0.16,-0.24,return,2.1102982999946107,-3,24,0.16,-0.24,,,,,,,,,,,,,,,,,,,,,,,,,,,,,,,,,,,,,,,,,,,,,,,,,,,,,,,,7MLGXN,train_x,red_square,bottom_left,2025-08-07_15h57.08.819,HideSeek_v1,2022.2.5,59.98706678856125,
,0,0,1,0,1,0,26,,train_dim1_1,12,30,,,,2,0,2,0,,,,,,,,,0,0,0,0,0,11,11,11,0,0,0,0,,,,,,,,,,,,,,,,,,,,,,,,,stimuli/alien_stimuli/26.png,,,,,,,,,,,,,,,,,,,,,,,,,,,,,stimuli/alien_stimuli/46.png,46,2,13,,,,,,,30,,,,,,,,3405.4771912000033,3405.4771912000033,3405.4771912000033,3405.4771912000033,3405.4771912000033,up,3.5411219999987225,0,1,0,99,-0.16,-0.32,up,3.4400859999987006,,,,,3403.8905134000015,,0.24,-0.24,0.0,0.24,-0.24,0.24,0.12,0.24,-0.24,3402.5166897000017,3402.5166897000017,3402.5166897000017,3402.5166897000017,3402.5166897000017,3402.5166897000017,3402.5166897000017,3402.5166897000017,3402.495338440002,1.4756592999983695,return,1.3434596999977657,,,,,,,,,,,,,,,,,,,,,,,,,,,,,,,,,7MLGXN,train_x,red_square,bottom_left,2025-08-07_15h57.08.819,HideSeek_v1,2022.2.5,59.98706678856125,
,0,0,1,0,1,0,26,,train_dim1_1,12,30,,,,2,0,2,0,,,,,,,,,0,0,0,0,0,11,11,11,1,0,1,0,,,,,,,,,,,,,,,,,,,,,,,,,,,,,,,,,,,,,,,,,,,,,,,,,,,,,,,,,,,,,,,,30,,,,,,,,3409.003626700003,3409.003626700003,3409.003626700003,3409.003626700003,3409.003626700003,up,0.509083400000236,0,1,0,99,-0.16,-0.24,up,0.4262791999935871,,,,,,,,,,,,,,,,,,,,,,,,,,,,,,,,,,,,,,,,,,,,,,,,,,,,,,,,,,,,7MLGXN,train_x,red_square,bottom_left,2025-08-07_15h57.08.819,HideSeek_v1,2022.2.5,59.98706678856125,
,0,0,1,0,1,0,26,,train_dim1_1,12,30,,,,2,0,2,0,,,,,,,,,0,0,0,0,0,11,11,11,2,0,2,0,,,,,,,,,,,,,,,,,,,,,,,,,,,,,,,,,,,,,,,,,,,,,,,,,,,,,,,,,,,,,,,,30,,,,,,,,3409.518853100002,3409.518853100002,3409.518853100002,3409.518853100002,3409.518853100002,up,0.576987200001895,0,1,0,99,-0.16,-0.15999999999999998,up,0.48602119999486604,,,,,,,,,,,,,,,,,,,,,,,,,,,,,,,,,,,,,,,,,,,,,,,,,,,,,,,,,,,,7MLGXN,train_x,red_square,bottom_left,2025-08-07_15h57.08.819,HideSeek_v1,2022.2.5,59.98706678856125,
,0,0,1,0,1,0,26,,train_dim1_1,12,30,,,,2,0,2,0,,,,,,,,,0,0,0,0,0,11,11,11,3,0,3,0,,,,,,,,,,,,,,,,,,,,,,,,,,,,,,,,,,,,,,,,,,,,,,,,,,,,,,,,,,,,,,,,30,,,,,,,,3410.1018549,3410.1018549,3410.1018549,3410.1018549,3410.1018549,right,0.7436751999994158,0,1,0,99,-0.08,-0.15999999999999998,right,0.6575031999964267,,,,,,,,,,,,,,,,,,,,,,,,,,,,,,,,,,,,,,,,,,,,,,,,,,,,,,,,,,,,7MLGXN,train_x,red_square,bottom_left,2025-08-07_15h57.08.819,HideSeek_v1,2022.2.5,59.98706678856125,
,0,0,1,0,1,0,26,,train_dim1_1,12,30,,,,2,0,2,0,,,,,,,,,0,0,0,0,0,11,11,11,4,0,4,0,,,,,,,,,,,,,,,,,,,,,,,,,,,,,,,,,,,,,,,,,,,,,,,,,,,,,,,,,,,,,,,,30,,,,,,,,3410.853916100001,3410.853916100001,3410.853916100001,3410.853916100001,3410.853916100001,return,0.7601666000009573,0,0,0,0,-0.08,-0.15999999999999998,return,0.6667482999982894,0,25,-0.08,-0.15999999999999998,,,,,,,,,,,,,,,,,,,,,,,,,,,,,,,,,,,,,,,,,,,,,,,,,,,,,,,,7MLGXN,train_x,red_square,bottom_left,2025-08-07_15h57.08.819,HideSeek_v1,2022.2.5,59.98706678856125,
,0,4,4,4,4,0,56,,train_dim1_1,13,30,,,,2,0,2,0,,,,,,,,,0,0,0,0,0,12,12,12,0,0,0,0,,,,,,,,,,,,,,,,,,,,,,,,,stimuli/alien_stimuli/56.png,,,,,,,,,,,,,,,,,,,,,,,,,,,,,stimuli/alien_stimuli/26.png,26,0,14,,,,,,,30,,,,,,,,3416.2843900000007,3416.2843900000007,3416.2843900000007,3416.2843900000007,3416.2843900000007,down,6.559496899997612,0,0,0,99,-0.16,-0.16,down,6.454070699997828,,,,,3414.705951300002,3416.2843900000007,-0.08,-0.4,0.0,0.08,-0.4,-0.08,-0.12,-0.08,-0.4,3413.1979845000023,3413.1979845000023,3413.1979845000023,3413.1979845000023,3413.1979845000023,3413.1979845000023,3413.1979845000023,3413.1979845000023,3413.187566420001,1.6371072000001732,return,1.481893999996828,,,,,,,,,,,,,,,,,,,,,,,,,,,,,,,,,7MLGXN,train_x,red_square,bottom_left,2025-08-07_15h57.08.819,HideSeek_v1,2022.2.5,59.98706678856125,
,0,4,4,4,4,0,56,,train_dim1_1,13,30,,,,2,0,2,0,,,,,,,,,0,0,0,0,0,12,12,12,1,0,1,0,,,,,,,,,,,,,,,,,,,,,,,,,,,,,,,,,,,,,,,,,,,,,,,,,,,,,,,,,,,,,,,,30,,,,,,,,3422.829432100003,3422.829432100003,3422.829432100003,3422.829432100003,3422.829432100003,return,0.4090899000002537,0,0,0,0,-0.16,-0.16,return,0.319677599996794,-1,25,-0.16,-0.16,,,,,,,,,,,,,,,,,,,,,,,,,,,,,,,,,,,,,,,,,,,,,,,,,,,,,,,,7MLGXN,train_x,red_square,bottom_left,2025-08-07_15h57.08.819,HideSeek_v1,2022.2.5,59.98706678856125,
,4,3,4,3,0,0,16,,train_dim1_1,14,30,,,,2,0,2,0,,,,,,,,,0,0,0,0,0,13,13,13,0,0,0,0,,,,,,,,,,,,,,,,,,,,,,,,,stimuli/alien_stimuli/16.png,,,,,,,,,,,,,,,,,,,,,,,,,,,,,stimuli/alien_stimuli/56.png,56,0,15,,,,,,,30,,,,,,,,3427.8461269,3427.8461269,3427.8461269,3427.8461269,3427.8461269,left,3.7089651999995112,0,0,0,99,0.08,-0.16,left,3.600354799997149,,,,,3426.2648825000033,3424.8036519000016,0.16,-0.08,0.0,0.32,-0.08,0.16,0.0,0.16,-0.08,3424.8036519000016,3424.8036519000016,3424.8036519000016,3424.8036519000016,3424.8036519000016,3424.8036519000016,3424.8036519000016,3424.8036519000016,3424.797440530002,1.5640424999983225,return,1.4183312999957707,,,,,,,,,,,,,,,,,,,,,,,,,,,,,,,,,7MLGXN,train_x,red_square,bottom_left,2025-08-07_15h57.08.819,HideSeek_v1,2022.2.5,59.98706678856125,
,4,3,4,3,0,0,16,,train_dim1_1,14,30,,,,2,0,2,0,,,,,,,,,0,0,0,0,0,13,13,13,1,0,1,0,,,,,,,,,,,,,,,,,,,,,,,,,,,,,,,,,,,,,,,,,,,,,,,,,,,,,,,,,,,,,,,,30,,,,,,,,3431.5378710000005,3431.5378710000005,3431.5378710000005,3431.5378710000005,3431.5378710000005,left,0.6428252999976394,0,0,0,99,0.0,-0.16,left,0.5549606999957177,,,,,,,,,,,,,,,,,,,,,,,,,,,,,,,,,,,,,,,,,,,,,,,,,,,,,,,,,,,,7MLGXN,train_x,red_square,bottom_left,2025-08-07_15h57.08.819,HideSeek_v1,2022.2.5,59.98706678856125,
,4,3,4,3,0,0,16,,train_dim1_1,14,30,,,,2,0,2,0,,,,,,,,,0,0,0,0,0,13,13,13,2,0,2,0,,,,,,,,,,,,,,,,,,,,,,,,,,,,,,,,,,,,,,,,,,,,,,,,,,,,,,,,,,,,,,,,30,,,,,,,,3432.187977700003,3432.187977700003,3432.187977700003,3432.187977700003,3432.187977700003,left,1.0106163999989803,0,0,0,99,-0.08,-0.16,left,0.9195644999963406,,,,,,,,,,,,,,,,,,,,,,,,,,,,,,,,,,,,,,,,,,,,,,,,,,,,,,,,,,,,7MLGXN,train_x,red_square,bottom_left,2025-08-07_15h57.08.819,HideSeek_v1,2022.2.5,59.98706678856125,
,4,3,4,3,0,0,16,,train_dim1_1,14,30,,,,2,0,2,0,,,,,,,,,0,0,0,0,0,13,13,13,3,0,3,0,,,,,,,,,,,,,,,,,,,,,,,,,,,,,,,,,,,,,,,,,,,,,,,,,,,,,,,,,,,,,,,,30,,,,,,,,3433.2060410000013,3433.2060410000013,3433.2060410000013,3433.2060410000013,3433.2060410000013,return,1.193843700002617,0,0,0,0,-0.08,-0.16,return,1.1136882999999216,-1,22,-0.08,-0.16,,,,,,,,,,,,,,,,,,,,,,,,,,,,,,,,,,,,,,,,,,,,,,,,,,,,,,,,7MLGXN,train_x,red_square,bottom_left,2025-08-07_15h57.08.819,HideSeek_v1,2022.2.5,59.98706678856125,
,4,2,9,2,5,0,66,,train_dim1_1,15,30,,,,2,0,2,0,,,,,,,,,0,0,0,0,0,14,14,14,0,0,0,0,,,,,,,,,,,,,,,,,,,,,,,,,stimuli/alien_stimuli/66.png,,,,,,,,,,,,,,,,,,,,,,,,,,,,,stimuli/alien_stimuli/16.png,16,4,16,,,,,,,30,,,,,,,,3439.234209500002,3439.234209500002,3439.234209500002,3439.234209500002,3439.234209500002,up,2.1737925999987056,0,0,0,99,0.16,-0.15999999999999998,up,2.0666311999993923,,,,,3437.658462700001,3439.234209500002,0.16,-0.16,0.0,0.0,-0.16,0.16,0.16,0.16,-0.16,3435.9670903000006,3435.9670903000006,3435.9670903000006,3435.9670903000006,3435.9670903000006,3435.9670903000006,3435.9670903000006,3435.9670903000006,3435.956438830003,1.8042462000012165,return,1.6711804999940796,,,,,,,,,,,,,,,,,,,,,,,,,,,,,,,,,7MLGXN,train_x,red_square,bottom_left,2025-08-07_15h57.08.819,HideSeek_v1,2022.2.5,59.98706678856125,
,4,2,9,2,5,0,66,,train_dim1_1,15,30,,,,2,0,2,0,,,,,,,,,0,0,0,0,0,14,14,14,1,0,1,0,,,,,,,,,,,,,,,,,,,,,,,,,,,,,,,,,,,,,,,,,,,,,,,,,,,,,,,,,,,,,,,,30,,,,,,,,3441.3914472000033,3441.3914472000033,3441.3914472000033,3441.3914472000033,3441.3914472000033,return,0.9932077000012214,0,0,0,0,0.16,-0.15999999999999998,return,0.905069899996306,0,22,0.16,-0.15999999999999998,,,,,,,,,,,,,,,,,,,,,,,,,,,,,,,,,,,,,,,,,,,,,,,,,,,,,,,,7MLGXN,train_x,red_square,bottom_left,2025-08-07_15h57.08.819,HideSeek_v1,2022.2.5,59.98706678856125,
,3,3,7,3,4,0,56,,train_dim1_1,16,30,,,,2,0,2,0,,,,,,,,,0,0,0,0,0,15,15,15,0,0,0,0,,,,,,,,,,,,,,,,,,,,,,,,,stimuli/alien_stimuli/56.png,,,,,,,,,,,,,,,,,,,,,,,,,,,,,stimuli/alien_stimuli/66.png,66,4,17,,,,,,,30,,,,,,,,3446.7478209,3446.7478209,3446.7478209,3446.7478209,3446.7478209,right,1.3550771000009263,0,0,0,99,0.16,-0.16,right,1.2523329999967245,,,,,3445.1524866,3443.9466101000035,0.56,-0.24,0.0,0.4,-0.24,0.56,0.36000000000000004,0.56,-0.24,3443.9466101000035,3443.9466101000035,3443.9466101000035,3443.9466101000035,3443.9466101000035,3443.9466101000035,3443.9466101000035,3443.9466101000035,3443.9297935400014,1.3075403999973787,return,1.1799280999948678,,,,,,,,,,,,,,,,,,,,,,,,,,,,,,,,,7MLGXN,train_x,red_square,bottom_left,2025-08-07_15h57.08.819,HideSeek_v1,2022.2.5,59.98706678856125,
,3,3,7,3,4,0,56,,train_dim1_1,16,30,,,,2,0,2,0,,,,,,,,,0,0,0,0,0,15,15,15,1,0,1,0,,,,,,,,,,,,,,,,,,,,,,,,,,,,,,,,,,,,,,,,,,,,,,,,,,,,,,,,,,,,,,,,30,,,,,,,,3448.082864400003,3448.082864400003,3448.082864400003,3448.082864400003,3448.082864400003,right,0.292720499997813,0,0,0,99,0.24,-0.16,right,0.21819719999984954,,,,,,,,,,,,,,,,,,,,,,,,,,,,,,,,,,,,,,,,,,,,,,,,,,,,,,,,,,,,7MLGXN,train_x,red_square,bottom_left,2025-08-07_15h57.08.819,HideSeek_v1,2022.2.5,59.98706678856125,
,3,3,7,3,4,0,56,,train_dim1_1,16,30,,,,2,0,2,0,,,,,,,,,0,0,0,0,0,15,15,15,2,0,2,0,,,,,,,,,,,,,,,,,,,,,,,,,,,,,,,,,,,,,,,,,,,,,,,,,,,,,,,,,,,,,,,,30,,,,,,,,3448.3822843000016,3448.3822843000016,3448.3822843000016,3448.3822843000016,3448.3822843000016,right,0.3265466999982891,0,0,0,99,0.32,-0.16,right,0.2448004999969271,,,,,,,,,,,,,,,,,,,,,,,,,,,,,,,,,,,,,,,,,,,,,,,,,,,,,,,,,,,,7MLGXN,train_x,red_square,bottom_left,2025-08-07_15h57.08.819,HideSeek_v1,2022.2.5,59.98706678856125,
,3,3,7,3,4,0,56,,train_dim1_1,16,30,,,,2,0,2,0,,,,,,,,,0,0,0,0,0,15,15,15,3,0,3,0,,,,,,,,,,,,,,,,,,,,,,,,,,,,,,,,,,,,,,,,,,,,,,,,,,,,,,,,,,,,,,,,30,,,,,,,,3448.716416000003,3448.716416000003,3448.716416000003,3448.716416000003,3448.716416000003,right,0.6932700999968802,0,0,0,99,0.4,-0.16,right,0.6117467999938526,,,,,,,,,,,,,,,,,,,,,,,,,,,,,,,,,,,,,,,,,,,,,,,,,,,,,,,,,,,,7MLGXN,train_x,red_square,bottom_left,2025-08-07_15h57.08.819,HideSeek_v1,2022.2.5,59.98706678856125,
,3,3,7,3,4,0,56,,train_dim1_1,16,30,,,,2,0,2,0,,,,,,,,,0,0,0,0,0,15,15,15,4,0,4,0,,,,,,,,,,,,,,,,,,,,,,,,,,,,,,,,,,,,,,,,,,,,,,,,,,,,,,,,,,,,,,,,30,,,,,,,,3449.4173475000025,3449.4173475000025,3449.4173475000025,3449.4173475000025,3449.4173475000025,return,0.4598623999991105,1,0,0,1,0.4,-0.16,return,0.3709584999960498,0,26,0.4,-0.16,,,,,,,,,,,,,,,,,,,,,,,,,,,,,,,,,,,,,,,,,,,,,,,,,,,,,,,,7MLGXN,train_x,red_square,bottom_left,2025-08-07_15h57.08.819,HideSeek_v1,2022.2.5,59.98706678856125,
,2,4,3,4,1,0,26,,train_dim1_1,17,30,,,,2,0,2,0,,,,,,,,,0,0,0,0,0,16,16,16,0,0,0,0,,,,,,,,,,,,,,,,,,,,,,,,,stimuli/alien_stimuli/26.png,,,,,,,,,,,,,,,,,,,,,,,,,,,,,stimuli/alien_stimuli/56.png,56,3,18,,,,,,,30,,,,,,,,3455.6402398000027,3455.6402398000027,3455.6402398000027,3455.6402398000027,3455.6402398000027,down,2.838290899999265,1,0,0,99,0,-0.16,down,2.7299766999967687,,,,,3454.0547011000017,3455.6402398000027,0.4,-0.16,0.0,0.32,-0.16,0.4,0.24000000000000002,0.4,-0.16,3451.4449335000027,3451.4449335000027,3451.4449335000027,3451.4449335000027,3451.4449335000027,3451.4449335000027,3451.4449335000027,3451.4449335000027,3451.4359751300008,2.7212576999991143,return,2.5739787999955297,,,,,,,,,,,,,,,,,,,,,,,,,,,,,,,,,7MLGXN,train_x,red_square,bottom_left,2025-08-07_15h57.08.819,HideSeek_v1,2022.2.5,59.98706678856125,
,2,4,3,4,1,0,26,,train_dim1_1,17,30,,,,2,0,2,0,,,,,,,,,0,0,0,0,0,16,16,16,1,0,1,0,,,,,,,,,,,,,,,,,,,,,,,,,,,,,,,,,,,,,,,,,,,,,,,,,,,,,,,,,,,,,,,,30,,,,,,,,3458.459664400001,3458.459664400001,3458.459664400001,3458.459664400001,3458.459664400001,up,2.0608428999985335,1,0,0,99,0,-0.08,up,1.972773799996503,,,,,,,,,,,,,,,,,,,,,,,,,,,,,,,,,,,,,,,,,,,,,,,,,,,,,,,,,,,,7MLGXN,train_x,red_square,bottom_left,2025-08-07_15h57.08.819,HideSeek_v1,2022.2.5,59.98706678856125,
,2,4,3,4,1,0,26,,train_dim1_1,17,30,,,,2,0,2,0,,,,,,,,,0,0,0,0,0,16,16,16,2,0,2,0,,,,,,,,,,,,,,,,,,,,,,,,,,,,,,,,,,,,,,,,,,,,,,,,,,,,,,,,,,,,,,,,30,,,,,,,,3460.5292223000033,3460.5292223000033,3460.5292223000033,3460.5292223000033,3460.5292223000033,return,0.45941820000007283,1,1,0,0,0,-0.08,return,0.375059499998315,0,26,0,-0.08,,,,,,,,,,,,,,,,,,,,,,,,,,,,,,,,,,,,,,,,,,,,,,,,,,,,,,,,7MLGXN,train_x,red_square,bottom_left,2025-08-07_15h57.08.819,HideSeek_v1,2022.2.5,59.98706678856125,
,2,1,7,1,5,0,66,,train_dim1_1,18,30,,,,2,0,2,0,,,,,,,,,0,0,0,0,0,17,17,17,0,0,0,0,,,,,,,,,,,,,,,,,,,,,,,,,stimuli/alien_stimuli/66.png,,,,,,,,,,,,,,,,,,,,,,,,,,,,,stimuli/alien_stimuli/26.png,26,2,19,,,,,,,30,,,,,,,,3465.7062651000015,3465.7062651000015,3465.7062651000015,3465.7062651000015,3465.7062651000015,right,2.830170500001259,1,1,0,99,0.08,-0.32,right,2.72166599999764,,,,,3464.1133580000023,3465.7062651000015,0.08,-0.08,0.0,0.08,-0.08,0.08,0.04,0.08,-0.08,3462.572174500001,3462.572174500001,3462.572174500001,3462.572174500001,3462.572174500001,3462.572174500001,3462.572174500001,3462.572174500001,3462.561978420002,1.670233000000735,return,1.510697399997298,,,,,,,,,,,,,,,,,,,,,,,,,,,,,,,,,7MLGXN,train_x,red_square,bottom_left,2025-08-07_15h57.08.819,HideSeek_v1,2022.2.5,59.98706678856125,
,2,1,7,1,5,0,66,,train_dim1_1,18,30,,,,2,0,2,0,,,,,,,,,0,0,0,0,0,17,17,17,1,0,1,0,,,,,,,,,,,,,,,,,,,,,,,,,,,,,,,,,,,,,,,,,,,,,,,,,,,,,,,,,,,,,,,,30,,,,,,,,3468.514024400003,3468.514024400003,3468.514024400003,3468.514024400003,3468.514024400003,right,0.37603699999817763,1,1,0,99,0.16,-0.32,right,0.29673969999930705,,,,,,,,,,,,,,,,,,,,,,,,,,,,,,,,,,,,,,,,,,,,,,,,,,,,,,,,,,,,7MLGXN,train_x,red_square,bottom_left,2025-08-07_15h57.08.819,HideSeek_v1,2022.2.5,59.98706678856125,
,2,1,7,1,5,0,66,,train_dim1_1,18,30,,,,2,0,2,0,,,,,,,,,0,0,0,0,0,17,17,17,2,0,2,0,,,,,,,,,,,,,,,,,,,,,,,,,,,,,,,,,,,,,,,,,,,,,,,,,,,,,,,,,,,,,,,,30,,,,,,,,3468.8979155000015,3468.8979155000015,3468.8979155000015,3468.8979155000015,3468.8979155000015,right,0.34341009999843664,1,1,0,99,0.24,-0.32,right,0.2682877999977791,,,,,,,,,,,,,,,,,,,,,,,,,,,,,,,,,,,,,,,,,,,,,,,,,,,,,,,,,,,,7MLGXN,train_x,red_square,bottom_left,2025-08-07_15h57.08.819,HideSeek_v1,2022.2.5,59.98706678856125,
,2,1,7,1,5,0,66,,train_dim1_1,18,30,,,,2,0,2,0,,,,,,,,,0,0,0,0,0,17,17,17,3,0,3,0,,,,,,,,,,,,,,,,,,,,,,,,,,,,,,,,,,,,,,,,,,,,,,,,,,,,,,,,,,,,,,,,30,,,,,,,,3469.2499706000017,3469.2499706000017,3469.2499706000017,3469.2499706000017,3469.2499706000017,right,0.7760721999984526,1,1,0,99,0.32,-0.32,right,0.6943935999988753,,,,,,,,,,,,,,,,,,,,,,,,,,,,,,,,,,,,,,,,,,,,,,,,,,,,,,,,,,,,7MLGXN,train_x,red_square,bottom_left,2025-08-07_15h57.08.819,HideSeek_v1,2022.2.5,59.98706678856125,
,2,1,7,1,5,0,66,,train_dim1_1,18,30,,,,2,0,2,0,,,,,,,,,0,0,0,0,0,17,17,17,4,0,4,0,,,,,,,,,,,,,,,,,,,,,,,,,,,,,,,,,,,,,,,,,,,,,,,,,,,,,,,,,,,,,,,,30,,,,,,,,3470.031340200003,3470.031340200003,3470.031340200003,3470.031340200003,3470.031340200003,return,0.5104675000002317,1,1,0,0,0.32,-0.32,return,0.4239367999944079,0,30,0.32,-0.32,,,,,,,,,,,,,,,,,,,,,,,,,,,,,,,,,,,,,,,,,,,,,,,,,,,,,,,,7MLGXN,train_x,red_square,bottom_left,2025-08-07_15h57.08.819,HideSeek_v1,2022.2.5,59.98706678856125,
,0,3,3,3,3,0,46,,train_dim1_1,19,30,,,,2,0,2,0,,,,,,,,,0,0,0,0,0,18,18,18,0,0,0,0,,,,,,,,,,,,,,,,,,,,,,,,,stimuli/alien_stimuli/46.png,,,,,,,,,,,,,,,,,,,,,,,,,,,,,stimuli/alien_stimuli/66.png,66,2,20,,,,,,,30,,,,,,,,3475.810762000001,3475.810762000001,3475.810762000001,3475.810762000001,3475.810762000001,down,2.5752739000017755,1,1,0,99,-0.16,-0.24,down,2.474175199997262,,,,,3474.2266087000025,3472.105674000002,0.4,-0.32,0.0,0.4,-0.32,0.4,0.2,0.4,-0.32,3472.105674000002,3472.105674000002,3472.105674000002,3472.105674000002,3472.105674000002,3472.105674000002,3472.105674000002,3472.105674000002,3472.0865545400034,2.2260260000002745,return,2.0894624999964435,,,,,,,,,,,,,,,,,,,,,,,,,,,,,,,,,7MLGXN,train_x,red_square,bottom_left,2025-08-07_15h57.08.819,HideSeek_v1,2022.2.5,59.98706678856125,
,0,3,3,3,3,0,46,,train_dim1_1,19,30,,,,2,0,2,0,,,,,,,,,0,0,0,0,0,18,18,18,1,0,1,0,,,,,,,,,,,,,,,,,,,,,,,,,,,,,,,,,,,,,,,,,,,,,,,,,,,,,,,,,,,,,,,,30,,,,,,,,3478.3781953000034,3478.3781953000034,3478.3781953000034,3478.3781953000034,3478.3781953000034,down,1.5389845999998215,1,1,0,99,-0.16,-0.32,down,1.4603740999955335,,,,,,,,,,,,,,,,,,,,,,,,,,,,,,,,,,,,,,,,,,,,,,,,,,,,,,,,,,,,7MLGXN,train_x,red_square,bottom_left,2025-08-07_15h57.08.819,HideSeek_v1,2022.2.5,59.98706678856125,
,0,3,3,3,3,0,46,,train_dim1_1,19,30,,,,2,0,2,0,,,,,,,,,0,0,0,0,0,18,18,18,2,0,2,0,,,,,,,,,,,,,,,,,,,,,,,,,,,,,,,,,,,,,,,,,,,,,,,,,,,,,,,,,,,,,,,,30,,,,,,,,3479.9236131000034,3479.9236131000034,3479.9236131000034,3479.9236131000034,3479.9236131000034,right,1.0611514000011084,1,1,0,99,-0.08,-0.32,right,0.9869254999975965,,,,,,,,,,,,,,,,,,,,,,,,,,,,,,,,,,,,,,,,,,,,,,,,,,,,,,,,,,,,7MLGXN,train_x,red_square,bottom_left,2025-08-07_15h57.08.819,HideSeek_v1,2022.2.5,59.98706678856125,
,0,3,3,3,3,0,46,,train_dim1_1,19,30,,,,2,0,2,0,,,,,,,,,0,0,0,0,0,18,18,18,3,0,3,0,,,,,,,,,,,,,,,,,,,,,,,,,,,,,,,,,,,,,,,,,,,,,,,,,,,,,,,,,,,,,,,,30,,,,,,,,3480.9917701000013,3480.9917701000013,3480.9917701000013,3480.9917701000013,3480.9917701000013,right,0.44262460000027204,1,1,0,99,0.0,-0.32,right,0.3698960999972769,,,,,,,,,,,,,,,,,,,,,,,,,,,,,,,,,,,,,,,,,,,,,,,,,,,,,,,,,,,,7MLGXN,train_x,red_square,bottom_left,2025-08-07_15h57.08.819,HideSeek_v1,2022.2.5,59.98706678856125,
,0,3,3,3,3,0,46,,train_dim1_1,19,30,,,,2,0,2,0,,,,,,,,,0,0,0,0,0,18,18,18,4,0,4,0,,,,,,,,,,,,,,,,,,,,,,,,,,,,,,,,,,,,,,,,,,,,,,,,,,,,,,,,,,,,,,,,30,,,,,,,,3481.441162400002,3481.441162400002,3481.441162400002,3481.441162400002,3481.441162400002,return,2.2951346000008925,1,0,0,0,0.0,-0.32,return,2.2105254999987665,-2,32,0.0,-0.32,,,,,,,,,,,,,,,,,,,,,,,,,,,,,,,,,,,,,,,,,,,,,,,,,,,,,,,,7MLGXN,train_x,red_square,bottom_left,2025-08-07_15h57.08.819,HideSeek_v1,2022.2.5,59.98706678856125,
,0,1,0,1,0,0,16,,train_dim1_1,20,30,,,,2,0,2,0,,,,,,,,,0,0,0,0,0,19,19,19,0,0,0,0,,,,,,,,,,,,,,,,,,,,,,,,,stimuli/alien_stimuli/16.png,,,,,,,,,,,,,,,,,,,,,,,,,,,,,stimuli/alien_stimuli/46.png,46,0,21,,,,,,,30,,,,,,,,3488.5980132000004,3488.5980132000004,3488.5980132000004,3488.5980132000004,3488.5980132000004,right,2.3566008000016154,1,0,0,99,-0.08,-0.32,right,2.245309499998257,,,,,3487.009564,3485.3162156000035,0.08,-0.16,0.0,0.24,-0.16,0.08,-0.04,0.08,-0.16,3485.3162156000035,3485.3162156000035,3485.3162156000035,3485.3162156000035,3485.3162156000035,3485.3162156000035,3485.3162156000035,3485.3162156000035,3485.297809830002,1.8091191000021354,return,1.6702729999960866,,,,,,,,,,,,,,,,,,,,,,,,,,,,,,,,,7MLGXN,train_x,red_square,bottom_left,2025-08-07_15h57.08.819,HideSeek_v1,2022.2.5,59.98706678856125,
,0,1,0,1,0,0,16,,train_dim1_1,20,30,,,,2,0,2,0,,,,,,,,,0,0,0,0,0,19,19,19,1,0,1,0,,,,,,,,,,,,,,,,,,,,,,,,,,,,,,,,,,,,,,,,,,,,,,,,,,,,,,,,,,,,,,,,30,,,,,,,,3490.937484600003,3490.937484600003,3490.937484600003,3490.937484600003,3490.937484600003,return,0.3595956999997725,1,1,0,0,-0.08,-0.32,return,0.2704517999991367,-2,33,-0.08,-0.32,,,,,,,,,,,,,,,,,,,,,,,,,,,,,,,,,,,,,,,,,,,,,,,,,,,,,,,,7MLGXN,train_x,red_square,bottom_left,2025-08-07_15h57.08.819,HideSeek_v1,2022.2.5,59.98706678856125,
,4,2,7,2,3,0,46,,train_dim1_1,21,30,,,,2,0,2,0,,,,,,,,,0,0,0,0,0,20,20,20,0,0,0,0,,,,,,,,,,,,,,,,,,,,,,,,,stimuli/alien_stimuli/46.png,,,,,,,,,,,,,,,,,,,,,,,,,,,,,stimuli/alien_stimuli/16.png,16,0,22,,,,,,,30,,,,,,,,3496.9613044000034,3496.9613044000034,3496.9613044000034,3496.9613044000034,3496.9613044000034,left,3.2458072999979777,1,1,0,99,0.08,-0.24,left,3.14761919999728,,,,,3495.3832822000004,3492.8622313000014,-0.16,-0.32,0.0,0.0,-0.32,-0.16,-0.16,-0.16,-0.32,3492.8622313000014,3492.8622313000014,3492.8622313000014,3492.8622313000014,3492.8622313000014,3492.8622313000014,3492.8622313000014,3492.8622313000014,3492.8537145300006,2.6263961999975436,return,2.4902969999966444,,,,,,,,,,,,,,,,,,,,,,,,,,,,,,,,,7MLGXN,train_x,red_square,bottom_left,2025-08-07_15h57.08.819,HideSeek_v1,2022.2.5,59.98706678856125,
,4,2,7,2,3,0,46,,train_dim1_1,21,30,,,,2,0,2,0,,,,,,,,,0,0,0,0,0,20,20,20,1,0,1,0,,,,,,,,,,,,,,,,,,,,,,,,,,,,,,,,,,,,,,,,,,,,,,,,,,,,,,,,,,,,,,,,30,,,,,,,,3500.1981553000005,3500.1981553000005,3500.1981553000005,3500.1981553000005,3500.1981553000005,left,0.4353339000008418,1,1,0,99,0.0,-0.24,left,0.350272199997562,,,,,,,,,,,,,,,,,,,,,,,,,,,,,,,,,,,,,,,,,,,,,,,,,,,,,,,,,,,,7MLGXN,train_x,red_square,bottom_left,2025-08-07_15h57.08.819,HideSeek_v1,2022.2.5,59.98706678856125,
,4,2,7,2,3,0,46,,train_dim1_1,21,30,,,,2,0,2,0,,,,,,,,,0,0,0,0,0,20,20,20,2,0,2,0,,,,,,,,,,,,,,,,,,,,,,,,,,,,,,,,,,,,,,,,,,,,,,,,,,,,,,,,,,,,,,,,30,,,,,,,,3500.6403640000026,3500.6403640000026,3500.6403640000026,3500.6403640000026,3500.6403640000026,left,0.4101163000013912,1,1,0,99,-0.08,-0.24,left,0.33256539999638335,,,,,,,,,,,,,,,,,,,,,,,,,,,,,,,,,,,,,,,,,,,,,,,,,,,,,,,,,,,,7MLGXN,train_x,red_square,bottom_left,2025-08-07_15h57.08.819,HideSeek_v1,2022.2.5,59.98706678856125,
,4,2,7,2,3,0,46,,train_dim1_1,21,30,,,,2,0,2,0,,,,,,,,,0,0,0,0,0,20,20,20,3,0,3,0,,,,,,,,,,,,,,,,,,,,,,,,,,,,,,,,,,,,,,,,,,,,,,,,,,,,,,,,,,,,,,,,30,,,,,,,,3501.057789800001,3501.057789800001,3501.057789800001,3501.057789800001,3501.057789800001,return,0.6601907000003848,1,0,0,0,-0.08,-0.24,return,0.5825664999974833,-2,30,-0.08,-0.24,,,,,,,,,,,,,,,,,,,,,,,,,,,,,,,,,,,,,,,,,,,,,,,,,,,,,,,,7MLGXN,train_x,red_square,bottom_left,2025-08-07_15h57.08.819,HideSeek_v1,2022.2.5,59.98706678856125,
,1,0,2,0,1,0,26,,train_dim1_1,22,30,,,,2,0,2,0,,,,,,,,,0,0,0,0,0,21,21,21,0,0,0,0,,,,,,,,,,,,,,,,,,,,,,,,,stimuli/alien_stimuli/26.png,,,,,,,,,,,,,,,,,,,,,,,,,,,,,stimuli/alien_stimuli/46.png,46,4,23,,,,,,,30,,,,,,,,3505.9900065,3505.9900065,3505.9900065,3505.9900065,3505.9900065,return,2.774641399999382,1,1,0,0,-0.08,-0.4,return,2.664614799996343,-2,30,-0.08,-0.4,3504.4140030000017,3505.9900065,0.4,-0.24,0.0,0.24,-0.24,0.4,0.28,0.4,-0.24,3503.310011100002,3503.310011100002,3503.310011100002,3503.310011100002,3503.310011100002,3503.310011100002,3503.310011100002,3503.310011100002,3503.2951863300013,1.2210760000016307,return,1.0807190999948943,,,,,,,,,,,,,,,,,,,,,,,,,,,,,,,,,7MLGXN,train_x,red_square,bottom_left,2025-08-07_15h57.08.819,HideSeek_v1,2022.2.5,59.98706678856125,
,2,1,7,1,5,0,66,,train_dim1_1,23,30,,,,2,0,2,0,,,,,,,,,0,0,0,0,0,22,22,22,0,0,0,0,,,,,,,,,,,,,,,,,,,,,,,,,stimuli/alien_stimuli/66.png,,,,,,,,,,,,,,,,,,,,,,,,,,,,,stimuli/alien_stimuli/26.png,26,1,24,,,,,,,30,,,,,,,,3514.296318200002,3514.296318200002,3514.296318200002,3514.296318200002,3514.296318200002,right,1.706354599999031,1,1,0,99,0.08,-0.32,right,1.5943265999994765,,,,,3512.721681500003,3514.296318200002,0,-0.4,0.0,0.08,-0.4,0,-0.04,0,-0.4,3510.308483300003,3510.308483300003,3510.308483300003,3510.308483300003,3510.308483300003,3510.308483300003,3510.308483300003,3510.308483300003,3510.301734130001,2.5219011000008322,return,2.383857999997417,,,,,,,,,,,,,,,,,,,,,,,,,,,,,,,,,7MLGXN,train_x,red_square,bottom_left,2025-08-07_15h57.08.819,HideSeek_v1,2022.2.5,59.98706678856125,
,2,1,7,1,5,0,66,,train_dim1_1,23,30,,,,2,0,2,0,,,,,,,,,0,0,0,0,0,22,22,22,1,0,1,0,,,,,,,,,,,,,,,,,,,,,,,,,,,,,,,,,,,,,,,,,,,,,,,,,,,,,,,,,,,,,,,,30,,,,,,,,3515.986899800002,3515.986899800002,3515.986899800002,3515.986899800002,3515.986899800002,right,0.34266849999767146,1,1,0,99,0.16,-0.32,right,0.2662824999970326,,,,,,,,,,,,,,,,,,,,,,,,,,,,,,,,,,,,,,,,,,,,,,,,,,,,,,,,,,,,7MLGXN,train_x,red_square,bottom_left,2025-08-07_15h57.08.819,HideSeek_v1,2022.2.5,59.98706678856125,
,2,1,7,1,5,0,66,,train_dim1_1,23,30,,,,2,0,2,0,,,,,,,,,0,0,0,0,0,22,22,22,2,0,2,0,,,,,,,,,,,,,,,,,,,,,,,,,,,,,,,,,,,,,,,,,,,,,,,,,,,,,,,,,,,,,,,,30,,,,,,,,3516.337008900002,3516.337008900002,3516.337008900002,3516.337008900002,3516.337008900002,right,0.3604921000005561,1,1,0,99,0.24,-0.32,right,0.28665199999522883,,,,,,,,,,,,,,,,,,,,,,,,,,,,,,,,,,,,,,,,,,,,,,,,,,,,,,,,,,,,7MLGXN,train_x,red_square,bottom_left,2025-08-07_15h57.08.819,HideSeek_v1,2022.2.5,59.98706678856125,
,2,1,7,1,5,0,66,,train_dim1_1,23,30,,,,2,0,2,0,,,,,,,,,0,0,0,0,0,22,22,22,3,0,3,0,,,,,,,,,,,,,,,,,,,,,,,,,,,,,,,,,,,,,,,,,,,,,,,,,,,,,,,,,,,,,,,,30,,,,,,,,3516.704192500001,3516.704192500001,3516.704192500001,3516.704192500001,3516.704192500001,right,0.4426906000007875,1,1,0,99,0.32,-0.32,right,0.3549631999958365,,,,,,,,,,,,,,,,,,,,,,,,,,,,,,,,,,,,,,,,,,,,,,,,,,,,,,,,,,,,7MLGXN,train_x,red_square,bottom_left,2025-08-07_15h57.08.819,HideSeek_v1,2022.2.5,59.98706678856125,
,2,1,7,1,5,0,66,,train_dim1_1,23,30,,,,2,0,2,0,,,,,,,,,0,0,0,0,0,22,22,22,4,0,4,0,,,,,,,,,,,,,,,,,,,,,,,,,,,,,,,,,,,,,,,,,,,,,,,,,,,,,,,,,,,,,,,,30,,,,,,,,3517.157724800003,3517.157724800003,3517.157724800003,3517.157724800003,3517.157724800003,return,0.5098331999979564,1,1,0,0,0.32,-0.32,return,0.42914289999680477,-2,34,0.32,-0.32,,,,,,,,,,,,,,,,,,,,,,,,,,,,,,,,,,,,,,,,,,,,,,,,,,,,,,,,7MLGXN,train_x,red_square,bottom_left,2025-08-07_15h57.08.819,HideSeek_v1,2022.2.5,59.98706678856125,
,4,4,8,4,4,0,56,,train_dim1_1,24,30,,,,2,0,2,0,,,,,,,,,0,0,0,0,0,23,23,23,0,0,0,0,,,,,,,,,,,,,,,,,,,,,,,,,stimuli/alien_stimuli/56.png,,,,,,,,,,,,,,,,,,,,,,,,,,,,,stimuli/alien_stimuli/66.png,66,2,25,,,,,,,30,,,,,,,,3522.2936959,3522.2936959,3522.2936959,3522.2936959,3522.2936959,right,1.203583400001662,1,1,0,99,0.24,-0.08,right,1.091917599995213,,,,,3520.710582200001,3522.2936959,0.4,-0.32,0.0,0.4,-0.32,0.4,0.2,0.4,-0.32,3519.2266156000005,3519.2266156000005,3519.2266156000005,3519.2266156000005,3519.2266156000005,3519.2266156000005,3519.2266156000005,3519.2266156000005,3519.2090651400017,1.5869915000002948,return,1.453083799995511,,,,,,,,,,,,,,,,,,,,,,,,,,,,,,,,,7MLGXN,train_x,red_square,bottom_left,2025-08-07_15h57.08.819,HideSeek_v1,2022.2.5,59.98706678856125,
,4,4,8,4,4,0,56,,train_dim1_1,24,30,,,,2,0,2,0,,,,,,,,,0,0,0,0,0,23,23,23,1,0,1,0,,,,,,,,,,,,,,,,,,,,,,,,,,,,,,,,,,,,,,,,,,,,,,,,,,,,,,,,,,,,,,,,30,,,,,,,,3523.4800633000013,3523.4800633000013,3523.4800633000013,3523.4800633000013,3523.4800633000013,right,0.34293939999770373,1,1,0,99,0.32,-0.08,right,0.2603793999987829,,,,,,,,,,,,,,,,,,,,,,,,,,,,,,,,,,,,,,,,,,,,,,,,,,,,,,,,,,,,7MLGXN,train_x,red_square,bottom_left,2025-08-07_15h57.08.819,HideSeek_v1,2022.2.5,59.98706678856125,
,4,4,8,4,4,0,56,,train_dim1_1,24,30,,,,2,0,2,0,,,,,,,,,0,0,0,0,0,23,23,23,2,0,2,0,,,,,,,,,,,,,,,,,,,,,,,,,,,,,,,,,,,,,,,,,,,,,,,,,,,,,,,,,,,,,,,,30,,,,,,,,3523.8302435000005,3523.8302435000005,3523.8302435000005,3523.8302435000005,3523.8302435000005,right,0.3430206000011822,1,1,0,99,0.4,-0.08,right,0.26727549999486655,,,,,,,,,,,,,,,,,,,,,,,,,,,,,,,,,,,,,,,,,,,,,,,,,,,,,,,,,,,,7MLGXN,train_x,red_square,bottom_left,2025-08-07_15h57.08.819,HideSeek_v1,2022.2.5,59.98706678856125,
,4,4,8,4,4,0,56,,train_dim1_1,24,30,,,,2,0,2,0,,,,,,,,,0,0,0,0,0,23,23,23,3,0,3,0,,,,,,,,,,,,,,,,,,,,,,,,,,,,,,,,,,,,,,,,,,,,,,,,,,,,,,,,,,,,,,,,30,,,,,,,,3524.1793161000023,3524.1793161000023,3524.1793161000023,3524.1793161000023,3524.1793161000023,right,1.3605743999978586,1,1,0,99,0.48000000000000004,-0.08,right,1.2744690999970771,,,,,,,,,,,,,,,,,,,,,,,,,,,,,,,,,,,,,,,,,,,,,,,,,,,,,,,,,,,,7MLGXN,train_x,red_square,bottom_left,2025-08-07_15h57.08.819,HideSeek_v1,2022.2.5,59.98706678856125,
,4,4,8,4,4,0,56,,train_dim1_1,24,30,,,,2,0,2,0,,,,,,,,,0,0,0,0,0,23,23,23,4,0,4,0,,,,,,,,,,,,,,,,,,,,,,,,,,,,,,,,,,,,,,,,,,,,,,,,,,,,,,,,,,,,,,,,30,,,,,,,,3525.5464662000013,3525.5464662000013,3525.5464662000013,3525.5464662000013,3525.5464662000013,right,1.0270392000020365,1,1,0,99,0.56,-0.08,right,0.9490026999956171,,,,,,,,,,,,,,,,,,,,,,,,,,,,,,,,,,,,,,,,,,,,,,,,,,,,,,,,,,,,7MLGXN,train_x,red_square,bottom_left,2025-08-07_15h57.08.819,HideSeek_v1,2022.2.5,59.98706678856125,
,4,4,8,4,4,0,56,,train_dim1_1,24,30,,,,2,0,2,0,,,,,,,,,0,0,0,0,0,23,23,23,5,0,5,0,,,,,,,,,,,,,,,,,,,,,,,,,,,,,,,,,,,,,,,,,,,,,,,,,,,,,,,,,,,,,,,,30,,,,,,,,3526.5811509000014,3526.5811509000014,3526.5811509000014,3526.5811509000014,3526.5811509000014,return,0.7267955000024813,1,1,0,0,0.56,-0.08,return,0.6387683999964793,-2,39,0.56,-0.08,,,,,,,,,,,,,,,,,,,,,,,,,,,,,,,,,,,,,,,,,,,,,,,,,,,,,,,,7MLGXN,train_x,red_square,bottom_left,2025-08-07_15h57.08.819,HideSeek_v1,2022.2.5,59.98706678856125,
,3,0,3,0,0,0,16,,train_dim1_1,25,30,,,,2,0,2,0,,,,,,,,,0,0,0,0,0,24,24,24,0,0,0,0,,,,,,,,,,,,,,,,,,,,,,,,,stimuli/alien_stimuli/16.png,,,,,,,,,,,,,,,,,,,,,,,,,,,,,stimuli/alien_stimuli/56.png,56,4,26,,,,,,,30,,,,,,,,3532.1812376000016,3532.1812376000016,3532.1812376000016,3532.1812376000016,3532.1812376000016,right,3.892291899999691,1,1,0,99,0.16,-0.4,right,3.7844503999986046,,,,,3530.6018477000034,3528.874959800003,0.48,-0.08,0.0,0.32,-0.08,0.48,0.32,0.48,-0.08,3528.874959800003,3528.874959800003,3528.874959800003,3528.874959800003,3528.874959800003,3528.874959800003,3528.874959800003,3528.874959800003,3528.8670868300005,1.8310982000002696,return,1.7026542999956291,,,,,,,,,,,,,,,,,,,,,,,,,,,,,,,,,7MLGXN,train_x,red_square,bottom_left,2025-08-07_15h57.08.819,HideSeek_v1,2022.2.5,59.98706678856125,
,3,0,3,0,0,0,16,,train_dim1_1,25,30,,,,2,0,2,0,,,,,,,,,0,0,0,0,0,24,24,24,1,0,1,0,,,,,,,,,,,,,,,,,,,,,,,,,,,,,,,,,,,,,,,,,,,,,,,,,,,,,,,,,,,,,,,,30,,,,,,,,3536.058341,3536.058341,3536.058341,3536.058341,3536.058341,return,0.5260818000024301,1,1,0,0,0.16,-0.4,return,0.43261619999611867,-2,40,0.16,-0.4,,,,,,,,,,,,,,,,,,,,,,,,,,,,,,,,,,,,,,,,,,,,,,,,,,,,,,,,7MLGXN,train_x,red_square,bottom_left,2025-08-07_15h57.08.819,HideSeek_v1,2022.2.5,59.98706678856125,
,1,1,6,1,5,0,66,,train_dim1_1,26,30,,,,2,0,2,0,,,,,,,,,0,0,0,0,0,25,25,25,0,0,0,0,,,,,,,,,,,,,,,,,,,,,,,,,stimuli/alien_stimuli/66.png,,,,,,,,,,,,,,,,,,,,,,,,,,,,,stimuli/alien_stimuli/16.png,16,3,27,,,,,,,30,,,,,,,,3541.4164261000005,3541.4164261000005,3541.4164261000005,3541.4164261000005,3541.4164261000005,right,1.5899439999993774,1,1,0,99,0.0,-0.32,right,1.4869445999975142,,,,,3539.843066700003,3541.4164261000005,0.08,-0.4,0.0,0.0,-0.4,0.08,0.08,0.08,-0.4,3538.169064400001,3538.169064400001,3538.169064400001,3538.169064400001,3538.169064400001,3538.169064400001,3538.169064400001,3538.169064400001,3538.157814830004,1.7877869999974791,return,1.6521469999970577,,,,,,,,,,,,,,,,,,,,,,,,,,,,,,,,,7MLGXN,train_x,red_square,bottom_left,2025-08-07_15h57.08.819,HideSeek_v1,2022.2.5,59.98706678856125,
,1,1,6,1,5,0,66,,train_dim1_1,26,30,,,,2,0,2,0,,,,,,,,,0,0,0,0,0,25,25,25,1,0,1,0,,,,,,,,,,,,,,,,,,,,,,,,,,,,,,,,,,,,,,,,,,,,,,,,,,,,,,,,,,,,,,,,30,,,,,,,,3542.9949816000008,3542.9949816000008,3542.9949816000008,3542.9949816000008,3542.9949816000008,right,0.3595292999998492,1,1,0,99,0.08,-0.32,right,0.27547629999753553,,,,,,,,,,,,,,,,,,,,,,,,,,,,,,,,,,,,,,,,,,,,,,,,,,,,,,,,,,,,7MLGXN,train_x,red_square,bottom_left,2025-08-07_15h57.08.819,HideSeek_v1,2022.2.5,59.98706678856125,
,1,1,6,1,5,0,66,,train_dim1_1,26,30,,,,2,0,2,0,,,,,,,,,0,0,0,0,0,25,25,25,2,0,2,0,,,,,,,,,,,,,,,,,,,,,,,,,,,,,,,,,,,,,,,,,,,,,,,,,,,,,,,,,,,,,,,,30,,,,,,,,3543.3623620000035,3543.3623620000035,3543.3623620000035,3543.3623620000035,3543.3623620000035,right,0.37655310000263853,1,1,0,99,0.16,-0.32,right,0.28925409999646945,,,,,,,,,,,,,,,,,,,,,,,,,,,,,,,,,,,,,,,,,,,,,,,,,,,,,,,,,,,,7MLGXN,train_x,red_square,bottom_left,2025-08-07_15h57.08.819,HideSeek_v1,2022.2.5,59.98706678856125,
,1,1,6,1,5,0,66,,train_dim1_1,26,30,,,,2,0,2,0,,,,,,,,,0,0,0,0,0,25,25,25,3,0,3,0,,,,,,,,,,,,,,,,,,,,,,,,,,,,,,,,,,,,,,,,,,,,,,,,,,,,,,,,,,,,,,,,30,,,,,,,,3543.744942600002,3543.744942600002,3543.744942600002,3543.744942600002,3543.744942600002,right,1.0435198999985005,1,1,0,99,0.24,-0.32,right,0.9572939999961818,,,,,,,,,,,,,,,,,,,,,,,,,,,,,,,,,,,,,,,,,,,,,,,,,,,,,,,,,,,,7MLGXN,train_x,red_square,bottom_left,2025-08-07_15h57.08.819,HideSeek_v1,2022.2.5,59.98706678856125,
,1,1,6,1,5,0,66,,train_dim1_1,26,30,,,,2,0,2,0,,,,,,,,,0,0,0,0,0,25,25,25,4,0,4,0,,,,,,,,,,,,,,,,,,,,,,,,,,,,,,,,,,,,,,,,,,,,,,,,,,,,,,,,,,,,,,,,30,,,,,,,,3544.7983194000008,3544.7983194000008,3544.7983194000008,3544.7983194000008,3544.7983194000008,return,0.44361249999928987,1,1,0,0,0.24,-0.32,return,0.35680069999580155,-2,44,0.24,-0.32,,,,,,,,,,,,,,,,,,,,,,,,,,,,,,,,,,,,,,,,,,,,,,,,,,,,,,,,7MLGXN,train_x,red_square,bottom_left,2025-08-07_15h57.08.819,HideSeek_v1,2022.2.5,59.98706678856125,
,0,1,3,1,3,0,46,,train_dim1_1,27,30,,,,2,0,2,0,,,,,,,,,0,0,0,0,0,26,26,26,0,0,0,0,,,,,,,,,,,,,,,,,,,,,,,,,stimuli/alien_stimuli/46.png,,,,,,,,,,,,,,,,,,,,,,,,,,,,,stimuli/alien_stimuli/66.png,66,1,28,,,,,,,30,,,,,,,,3549.5765474,3549.5765474,3549.5765474,3549.5765474,3549.5765474,right,2.573715999998967,1,1,0,99,-0.08,-0.32,right,2.469288799999049,,,,,3547.9992033000017,3549.5765474,0.32,-0.32,0.0,0.4,-0.32,0.32,0.12,0.32,-0.32,3546.8269586000024,3546.8269586000024,3546.8269586000024,3546.8269586000024,3546.8269586000024,3546.8269586000024,3546.8269586000024,3546.8269586000024,3546.8149338300036,1.2869336000003386,return,1.1510011999998824,,,,,,,,,,,,,,,,,,,,,,,,,,,,,,,,,7MLGXN,train_x,red_square,bottom_left,2025-08-07_15h57.08.819,HideSeek_v1,2022.2.5,59.98706678856125,
,0,1,3,1,3,0,46,,train_dim1_1,27,30,,,,2,0,2,0,,,,,,,,,0,0,0,0,0,26,26,26,1,0,1,0,,,,,,,,,,,,,,,,,,,,,,,,,,,,,,,,,,,,,,,,,,,,,,,,,,,,,,,,,,,,,,,,30,,,,,,,,3552.142668100001,3552.142668100001,3552.142668100001,3552.142668100001,3552.142668100001,right,0.5413389999994251,1,1,0,99,0.0,-0.32,right,0.45438409999769647,,,,,,,,,,,,,,,,,,,,,,,,,,,,,,,,,,,,,,,,,,,,,,,,,,,,,,,,,,,,7MLGXN,train_x,red_square,bottom_left,2025-08-07_15h57.08.819,HideSeek_v1,2022.2.5,59.98706678856125,
,0,1,3,1,3,0,46,,train_dim1_1,27,30,,,,2,0,2,0,,,,,,,,,0,0,0,0,0,26,26,26,2,0,2,0,,,,,,,,,,,,,,,,,,,,,,,,,,,,,,,,,,,,,,,,,,,,,,,,,,,,,,,,,,,,,,,,30,,,,,,,,3552.683582900001,3552.683582900001,3552.683582900001,3552.683582900001,3552.683582900001,return,0.7273874999991676,1,1,0,0,0.0,-0.32,return,0.65327029999753,-2,46,0.0,-0.32,,,,,,,,,,,,,,,,,,,,,,,,,,,,,,,,,,,,,,,,,,,,,,,,,,,,,,,,7MLGXN,train_x,red_square,bottom_left,2025-08-07_15h57.08.819,HideSeek_v1,2022.2.5,59.98706678856125,
,3,1,4,1,1,0,26,,train_dim1_1,28,30,,,,2,0,2,0,,,,,,,,,0,0,0,0,0,27,27,27,0,0,0,0,,,,,,,,,,,,,,,,,,,,,,,,,stimuli/alien_stimuli/26.png,,,,,,,,,,,,,,,,,,,,,,,,,,,,,stimuli/alien_stimuli/46.png,46,0,29,,,,,,,30,,,,,,,,3557.735294600003,3557.735294600003,3557.735294600003,3557.735294600003,3557.735294600003,right,2.674048299999413,1,1,0,99,0.16,-0.32,right,2.5674164999945788,,,,,3556.1589418000003,3557.735294600003,0.08,-0.32,0.0,0.24,-0.32,0.08,-0.04,0.08,-0.32,3554.9748376000025,3554.9748376000025,3554.9748376000025,3554.9748376000025,3554.9748376000025,3554.9748376000025,3554.9748376000025,3554.9748376000025,3554.955640040002,1.2886316999974952,return,1.165587699997559,,,,,,,,,,,,,,,,,,,,,,,,,,,,,,,,,7MLGXN,train_x,red_square,bottom_left,2025-08-07_15h57.08.819,HideSeek_v1,2022.2.5,59.98706678856125,
,3,1,4,1,1,0,26,,train_dim1_1,28,30,,,,2,0,2,0,,,,,,,,,0,0,0,0,0,27,27,27,1,0,1,0,,,,,,,,,,,,,,,,,,,,,,,,,,,,,,,,,,,,,,,,,,,,,,,,,,,,,,,,,,,,,,,,30,,,,,,,,3560.394602700002,3560.394602700002,3560.394602700002,3560.394602700002,3560.394602700002,right,0.9433200000021316,1,1,0,99,0.24,-0.32,right,0.8530276999954367,,,,,,,,,,,,,,,,,,,,,,,,,,,,,,,,,,,,,,,,,,,,,,,,,,,,,,,,,,,,7MLGXN,train_x,red_square,bottom_left,2025-08-07_15h57.08.819,HideSeek_v1,2022.2.5,59.98706678856125,
,3,1,4,1,1,0,26,,train_dim1_1,28,30,,,,2,0,2,0,,,,,,,,,0,0,0,0,0,27,27,27,2,0,2,0,,,,,,,,,,,,,,,,,,,,,,,,,,,,,,,,,,,,,,,,,,,,,,,,,,,,,,,,,,,,,,,,30,,,,,,,,3561.3450046000034,3561.3450046000034,3561.3450046000034,3561.3450046000034,3561.3450046000034,left,1.8608260999972117,1,1,0,99,0.15999999999999998,-0.32,left,1.775115199994616,,,,,,,,,,,,,,,,,,,,,,,,,,,,,,,,,,,,,,,,,,,,,,,,,,,,,,,,,,,,7MLGXN,train_x,red_square,bottom_left,2025-08-07_15h57.08.819,HideSeek_v1,2022.2.5,59.98706678856125,
,3,1,4,1,1,0,26,,train_dim1_1,28,30,,,,2,0,2,0,,,,,,,,,0,0,0,0,0,27,27,27,3,0,3,0,,,,,,,,,,,,,,,,,,,,,,,,,,,,,,,,,,,,,,,,,,,,,,,,,,,,,,,,,,,,,,,,30,,,,,,,,3563.2133747000007,3563.2133747000007,3563.2133747000007,3563.2133747000007,3563.2133747000007,return,0.5102280999999493,2,0,0,1,0.15999999999999998,-0.32,return,0.42445739999675425,-2,47,0.15999999999999998,-0.32,,,,,,,,,,,,,,,,,,,,,,,,,,,,,,,,,,,,,,,,,,,,,,,,,,,,,,,,7MLGXN,train_x,red_square,bottom_left,2025-08-07_15h57.08.819,HideSeek_v1,2022.2.5,59.98706678856125,
,4,0,8,0,4,0,56,,train_dim1_1,29,30,,,,2,0,2,0,,,,,,,,,0,0,0,0,0,28,28,28,0,0,0,0,,,,,,,,,,,,,,,,,,,,,,,,,stimuli/alien_stimuli/56.png,,,,,,,,,,,,,,,,,,,,,,,,,,,,,stimuli/alien_stimuli/26.png,26,3,30,,,,,,,30,,,,,,,,3568.888221100002,3568.888221100002,3568.888221100002,3568.888221100002,3568.888221100002,right,2.7082179999997607,2,0,0,99,0.24,-0.4,right,2.6120603999988816,,,,,3567.3041435000014,3565.3066214000028,0.16,-0.32,0.0,0.08,-0.32,0.16,0.12,0.16,-0.32,3565.3066214000028,3565.3066214000028,3565.3066214000028,3565.3066214000028,3565.3066214000028,3565.3066214000028,3565.3066214000028,3565.3066214000028,3565.297519920004,2.1252690000001166,return,1.980083399997966,,,,,,,,,,,,,,,,,,,,,,,,,,,,,,,,,7MLGXN,train_x,red_square,bottom_left,2025-08-07_15h57.08.819,HideSeek_v1,2022.2.5,59.98706678856125,
,4,0,8,0,4,0,56,,train_dim1_1,29,30,,,,2,0,2,0,,,,,,,,,0,0,0,0,0,28,28,28,1,0,1,0,,,,,,,,,,,,,,,,,,,,,,,,,,,,,,,,,,,,,,,,,,,,,,,,,,,,,,,,,,,,,,,,30,,,,,,,,3571.5861238000034,3571.5861238000034,3571.5861238000034,3571.5861238000034,3571.5861238000034,right,0.543329599997378,2,0,0,99,0.32,-0.4,right,0.4530162999944878,,,,,,,,,,,,,,,,,,,,,,,,,,,,,,,,,,,,,,,,,,,,,,,,,,,,,,,,,,,,7MLGXN,train_x,red_square,bottom_left,2025-08-07_15h57.08.819,HideSeek_v1,2022.2.5,59.98706678856125,
,4,0,8,0,4,0,56,,train_dim1_1,29,30,,,,2,0,2,0,,,,,,,,,0,0,0,0,0,28,28,28,2,0,2,0,,,,,,,,,,,,,,,,,,,,,,,,,,,,,,,,,,,,,,,,,,,,,,,,,,,,,,,,,,,,,,,,30,,,,,,,,3572.1353848,3572.1353848,3572.1353848,3572.1353848,3572.1353848,right,0.8935973000006925,2,0,0,99,0.4,-0.4,right,0.8099179999953776,,,,,,,,,,,,,,,,,,,,,,,,,,,,,,,,,,,,,,,,,,,,,,,,,,,,,,,,,,,,7MLGXN,train_x,red_square,bottom_left,2025-08-07_15h57.08.819,HideSeek_v1,2022.2.5,59.98706678856125,
,4,0,8,0,4,0,56,,train_dim1_1,29,30,,,,2,0,2,0,,,,,,,,,0,0,0,0,0,28,28,28,3,0,3,0,,,,,,,,,,,,,,,,,,,,,,,,,,,,,,,,,,,,,,,,,,,,,,,,,,,,,,,,,,,,,,,,30,,,,,,,,3573.036206200002,3573.036206200002,3573.036206200002,3573.036206200002,3573.036206200002,right,0.9100896999989345,2,0,0,99,0.48000000000000004,-0.4,right,0.8237599999956728,,,,,,,,,,,,,,,,,,,,,,,,,,,,,,,,,,,,,,,,,,,,,,,,,,,,,,,,,,,,7MLGXN,train_x,red_square,bottom_left,2025-08-07_15h57.08.819,HideSeek_v1,2022.2.5,59.98706678856125,
,4,0,8,0,4,0,56,,train_dim1_1,29,30,,,,2,0,2,0,,,,,,,,,0,0,0,0,0,28,28,28,4,0,4,0,,,,,,,,,,,,,,,,,,,,,,,,,,,,,,,,,,,,,,,,,,,,,,,,,,,,,,,,,,,,,,,,30,,,,,,,,3573.953375600002,3573.953375600002,3573.953375600002,3573.953375600002,3573.953375600002,right,1.0439136999993934,2,0,0,99,0.56,-0.4,right,0.9623156999950879,,,,,,,,,,,,,,,,,,,,,,,,,,,,,,,,,,,,,,,,,,,,,,,,,,,,,,,,,,,,7MLGXN,train_x,red_square,bottom_left,2025-08-07_15h57.08.819,HideSeek_v1,2022.2.5,59.98706678856125,
,4,0,8,0,4,0,56,,train_dim1_1,29,30,,,,2,0,2,0,,,,,,,,,0,0,0,0,0,28,28,28,5,0,5,0,,,,,,,,,,,,,,,,,,,,,,,,,,,,,,,,,,,,,,,,,,,,,,,,,,,,,,,,,,,,,,,,30,,,,,,,,3575.0047029000016,3575.0047029000016,3575.0047029000016,3575.0047029000016,3575.0047029000016,return,0.5933347999998659,2,1,0,0,0.56,-0.4,return,0.5054545999955735,-2,52,0.56,-0.4,,,,,,,,,,,,,,,,,,,,,,,,,,,,,,,,,,,,,,,,,,,,,,,,,,,,,,,,7MLGXN,train_x,red_square,bottom_left,2025-08-07_15h57.08.819,HideSeek_v1,2022.2.5,59.98706678856125,
,2,2,2,2,0,0,16,,train_dim1_1,30,30,,,,2,0,2,0,,,,,,,,,0,0,0,0,0,29,29,29,0,0,0,0,,,,,,,,,,,,,,,,,,,,,,,,,stimuli/alien_stimuli/16.png,,,,,,,,,,,,,,,,,,,,,,,,,,,,,stimuli/alien_stimuli/56.png,56,4,31,,,,,,,30,,,,,,,,3579.838638700003,3579.838638700003,3579.838638700003,3579.838638700003,3579.838638700003,return,6.766242300000158,3,0,0,1,0,-0.24,return,6.6600292999937665,-2,52,0,-0.24,3578.244020000002,3577.182455000002,0.48,-0.4,0.0,0.32,-0.4,0.48,0.32,0.48,-0.4,3577.182455000002,3577.182455000002,3577.182455000002,3577.182455000002,3577.182455000002,3577.182455000002,3577.182455000002,3577.182455000002,3577.1741970200014,1.188220399999409,return,1.0337448999962362,,,,,,,,,,,,,,,,,,,,,,,,,,,,,,,,,7MLGXN,train_x,red_square,bottom_left,2025-08-07_15h57.08.819,HideSeek_v1,2022.2.5,59.98706678856125,
,,,,,,,,,,,30,,,,2,0,2,0,,,,,,,,,,,,,,,,,,,,,,,,,,,,,,,,,,,,,,,,,,,,,,,,,,,,,,,,,,,,,,,,,,,,,,,,,,stimuli/alien_stimuli/16.png,16,2,32,21,0.7,0.125,1,1,1,30,0,conditions/schedules/train_x_first/red_square_00/bottom_left/inputTrain_2.1.xlsx,99,1,2,1,0,,,,,,,,,,,1,,,,,,,,,3589.370496300002,,0,-0.24,0.0,0.0,-0.24,0,0.0,0,-0.24,3588.1788227000034,3588.1788227000034,3588.1788227000034,3588.1788227000034,3588.1788227000034,3588.1788227000034,3588.1788227000034,3588.1788227000034,3588.1662952200018,1.3228767000000516,return,1.17137079999884,0,0.9,0,1,3,,,,,,,,,,,,,,,,,,,,,,,,,,,,7MLGXN,train_x,red_square,bottom_left,2025-08-07_15h57.08.819,HideSeek_v1,2022.2.5,59.98706678856125,
,,,,,,,,,,,,,,,3,0,3,0,0,0,0,0,,,,,,,,,,,,,,,,,,,,,,,,,,,,,,,conditions/schedules/train_x_first/red_square_00/bottom_left/instructions/Slide17.png,conditions/schedules/train_x_first/red_square_00/bottom_left/instructions/Audio17.wav,3590.9444337000023,3590.9352590600006,17,"[3.968392800001311, 17.780833300002996, 16.742034099999728, 19.040827799999533, 5.11883079999825, 4.61909580000065, 5.081482900000992, 11.639217700001609, 5.3194685999988, 6.485275400002138, 9.620352800000546, 12.501497700002801, 16.962365000003047, 12.44064839999919, 30.750668900000164, 20.804628299996693, 38.30387499999779]","[3.968398900000466, 0.014298999998572981, 0.014353499998833286, 0.014025399999809451, 0.014011999999638647, 0.058516000000963686, 0.0661989000000176, 0.00024910000138334, 0.048768100001325365, 0.013789200002065627, 0.013936900002590846, 12.50150399999984, 0.014123199998721248, 12.440655800000968, 0.00031569999919156544, 20.80463499999678, 38.30388209999728]",0,,,,,,,,,,,,,,,,,,,,,,,,,,,,,,,,,,,,,,,,,,,,,,,,,,,,,,,,,,,,,,,,,,,,,,,,,,,,,,,,,,,,,,,,,,,,,,,,,,,,,,,,,,,,,,,,,,,,,,,,,,,,7MLGXN,train_x,red_square,bottom_left,2025-08-07_15h57.08.819,HideSeek_v1,2022.2.5,59.98706678856125,
,,,,,,,,,,,,,,,3,0,3,0,1,0,1,0,,,,,,,,,,,,,,,,,,,,,,,,,,,,,,,conditions/schedules/train_x_first/red_square_00/bottom_left/instructions/Slide18.png,conditions/schedules/train_x_first/red_square_00/bottom_left/instructions/Audio18.wav,3629.3056824000014,3629.300832860002,18,"[3.968392800001311, 17.780833300002996, 16.742034099999728, 19.040827799999533, 5.11883079999825, 4.61909580000065, 5.081482900000992, 11.639217700001609, 5.3194685999988, 6.485275400002138, 9.620352800000546, 12.501497700002801, 16.962365000003047, 12.44064839999919, 30.750668900000164, 20.804628299996693, 38.30387499999779, 6.085797100000491]","[3.968398900000466, 0.014298999998572981, 0.014353499998833286, 0.014025399999809451, 0.014011999999638647, 0.058516000000963686, 0.0661989000000176, 0.00024910000138334, 0.048768100001325365, 0.013789200002065627, 0.013936900002590846, 12.50150399999984, 0.014123199998721248, 12.440655800000968, 0.00031569999919156544, 20.80463499999678, 0.013903300001402386, 6.085804599999392]",0,,,,,,,,,,,,,,,,,,,,,,,,,,,,,,,,,,,,,,,,,,,,,,,,,,,,,,,,,,,,,,,,,,,,,,,,,,,,,,,,,,,,,,,,,,,,,,,,,,,,,,,,,,,,,,,,,,,,,,,,,,,,7MLGXN,train_x,red_square,bottom_left,2025-08-07_15h57.08.819,HideSeek_v1,2022.2.5,59.98706678856125,
,,,,,,,,,,,,,,,3,0,3,0,2,0,2,0,,,,,,,,,,,,,,,,,,,,,,,,,,,,,,,conditions/schedules/train_x_first/red_square_00/bottom_left/instructions/Slide19.png,conditions/schedules/train_x_first/red_square_00/bottom_left/instructions/Audio19.wav,3635.4309925000016,3635.4274776700036,19,"[3.968392800001311, 17.780833300002996, 16.742034099999728, 19.040827799999533, 5.11883079999825, 4.61909580000065, 5.081482900000992, 11.639217700001609, 5.3194685999988, 6.485275400002138, 9.620352800000546, 12.501497700002801, 16.962365000003047, 12.44064839999919, 30.750668900000164, 20.804628299996693, 38.30387499999779, 6.085797100000491, 9.907200799996644]","[3.968398900000466, 0.014298999998572981, 0.014353499998833286, 0.014025399999809451, 0.014011999999638647, 0.058516000000963686, 0.0661989000000176, 0.00024910000138334, 0.048768100001325365, 0.013789200002065627, 0.013936900002590846, 12.50150399999984, 0.014123199998721248, 12.440655800000968, 0.00031569999919156544, 20.80463499999678, 0.013903300001402386, 0.05693109999992885, 9.907207199998084]",0,,,,,,,,,,,,,,,,,,,,,,,,,,,,,,,,,,,,,,,,,,,,,,,,,,,,,,,,,,,,,,,,,,,,,,,,,,,,,,,,,,,,,,,,,,,,,,,,,,,,,,,,,,,,,,,,,,,,,,,,,,,,7MLGXN,train_x,red_square,bottom_left,2025-08-07_15h57.08.819,HideSeek_v1,2022.2.5,59.98706678856125,
,,,,,,,,,,,,,,,3,0,3,0,3,0,3,0,,,,,,,,,,,,,,,,,,,,,,,,,,,,,,,conditions/schedules/train_x_first/red_square_00/bottom_left/instructions/Slide20.png,conditions/schedules/train_x_first/red_square_00/bottom_left/instructions/Audio20.wav,3645.4118485,3645.407822450001,20,"[3.968392800001311, 17.780833300002996, 16.742034099999728, 19.040827799999533, 5.11883079999825, 4.61909580000065, 5.081482900000992, 11.639217700001609, 5.3194685999988, 6.485275400002138, 9.620352800000546, 12.501497700002801, 16.962365000003047, 12.44064839999919, 30.750668900000164, 20.804628299996693, 38.30387499999779, 6.085797100000491, 9.907200799996644, 13.513555599998654]","[3.968398900000466, 0.014298999998572981, 0.014353499998833286, 0.014025399999809451, 0.014011999999638647, 0.058516000000963686, 0.0661989000000176, 0.00024910000138334, 0.048768100001325365, 0.013789200002065627, 0.013936900002590846, 12.50150399999984, 0.014123199998721248, 12.440655800000968, 0.00031569999919156544, 20.80463499999678, 0.013903300001402386, 0.05693109999992885, 9.907207199998084, 13.513563699998485]",0,,,,,,,,,,,,,,,,,,,,,,,,,,,,,,,,,,,,,,,,,,,,,,,,,,,,,,,,,,,,,,,,,,,,,,,,,,,,,,,,,,,,,,,,,,,,,,,,,,,,,,,,,,,,,,,,,,,,,,,,,,,,7MLGXN,train_x,red_square,bottom_left,2025-08-07_15h57.08.819,HideSeek_v1,2022.2.5,59.98706678856125,
1,2,3,2,8,0,5,11,2,instr_dim1_2,,,,,,3,0,3,0,,,,,0,0,0,0,,,,,,,,,,,,,,,,,,,,,,,,,,,,,,,,,,,,,stimuli/alien_stimuli/11.png,conditions/schedules/train_x_first/red_square_00/bottom_left/inputInstr_2.xlsx,stimuli/alien_stimuli/11.png,3659.027764100003,3659.027764100003,3659.027764100003,3659.027764100003,3659.028525130002,return,9.611483599997882,"[-0.16, -0.08, 0, 0.08, 0.16, 0.24, 0.32, 0.4, 0.48, 0.56]","[-0.4, -0.32, -0.24, -0.16, -0.08, 0, 0.08, 0.16, 0.24, 0.32]",8,3,2,2,0.4,0.0,3668.799775800002,3668.799775800002,3668.799775800002,3668.799775800002,3668.799775800002,3668.799775800002,3668.799775800002,3668.799633410004,7.645283499998186,return,7.48370999999679,stimuli/alien_stimuli/11.png,11,2,1,,,,,,,,,,,,,,,,,,,,,,,,,,,,,,,,,,,,,,,,,,,,,,,,,,,,,,,,,,,,,,,,,,,,,,,,,,,,,,,,,,,,,,,,,7MLGXN,train_x,red_square,bottom_left,2025-08-07_15h57.08.819,HideSeek_v1,2022.2.5,59.98706678856125,
,,,,,,,,,,,30,,,,3,0,3,0,,,,,,,,,,,,,,,,,,,,,,,,,,,,,,,,,,,,,,,,,,,,,,,,,,,,,,,,,,,,,,,,,,,,,,,,,,,,,,21,0.7,0.125,1,99,2,30,0,conditions/schedules/train_x_first/red_square_00/bottom_left/inputTrain_2.1.xlsx,99,1,2,1,0,,,,,,,,,,,,,,,,,,,,,,,,,,,,,,,,,,,,,,,,,,,,,,,,,,,,,,,,,,,,,,,,,,,,,,,,,,,7MLGXN,train_x,red_square,bottom_left,2025-08-07_15h57.08.819,HideSeek_v1,2022.2.5,59.98706678856125,
,,,,,,,,,,,,,,,4,0,4,0,0,0,0,0,,,,,,,,,,,,,,,,,,,,,,,,,,,,,,,conditions/schedules/train_x_first/red_square_00/bottom_left/instructions/Slide21.png,conditions/schedules/train_x_first/red_square_00/bottom_left/instructions/Audio21.wav,3676.4592323000034,3676.4606305000016,21,"[3.968392800001311, 17.780833300002996, 16.742034099999728, 19.040827799999533, 5.11883079999825, 4.61909580000065, 5.081482900000992, 11.639217700001609, 5.3194685999988, 6.485275400002138, 9.620352800000546, 12.501497700002801, 16.962365000003047, 12.44064839999919, 30.750668900000164, 20.804628299996693, 38.30387499999779, 6.085797100000491, 9.907200799996644, 13.513555599998654, 18.32989069999894]","[3.968398900000466, 0.014298999998572981, 0.014353499998833286, 0.014025399999809451, 0.014011999999638647, 0.058516000000963686, 0.0661989000000176, 0.00024910000138334, 0.048768100001325365, 0.013789200002065627, 0.013936900002590846, 12.50150399999984, 0.014123199998721248, 12.440655800000968, 0.00031569999919156544, 20.80463499999678, 0.013903300001402386, 0.05693109999992885, 9.907207199998084, 13.513563699998485, 18.329897199997504]",0,,,,,,,,,,,,,,,,,,,,,,,,,,,,,,,,,,,,,,,,,,,,,,,,,,,,,,,,,,,,,,,,,,,,,,,,,,,,,,,,,,,,,,,,,,,,,,,,,,,,,,,,,,,,,,,,,,,,,,,,,,,,7MLGXN,train_x,red_square,bottom_left,2025-08-07_15h57.08.819,HideSeek_v1,2022.2.5,59.98706678856125,
2,0,3,0,3,0,0,16,2,instr_dim1_2,,,,,,4,0,4,0,,,,,0,0,0,0,,,,,,,,,,,,,,,,,,,,,,,,,,,,,,,,,,,,,stimuli/alien_stimuli/16.png,conditions/schedules/train_x_first/red_square_00/bottom_left/inputInstr_2.xlsx,stimuli/alien_stimuli/16.png,3694.8871378000003,3694.8871378000003,3694.8871378000003,3694.8871378000003,3694.892155530001,return,6.652398999995057,"[-0.16, -0.08, 0, 0.08, 0.16, 0.24, 0.32, 0.4, 0.48, 0.56]","[-0.4, -0.32, -0.24, -0.16, -0.08, 0, 0.08, 0.16, 0.24, 0.32]",3,3,0,0,0.0,0.0,3701.691127600003,3701.691127600003,3701.691127600003,3701.691127600003,3701.691127600003,3701.691127600003,3701.691127600003,3701.677045320004,6.027654199999233,return,5.872050199996011,stimuli/alien_stimuli/16.png,16,0,2,,,,,,,,,,,,,,,,,,,,,,,,,,,,,,,,,,,,,,,,,,,,,,,,,,,,,,,,,,,,,,,,,,,,,,,,,,,,,,,,,,,,,,,,,7MLGXN,train_x,red_square,bottom_left,2025-08-07_15h57.08.819,HideSeek_v1,2022.2.5,59.98706678856125,
,,,,,,,,,,,30,,,,4,0,4,0,,,,,,,,,,,,,,,,,,,,,,,,,,,,,,,,,,,,,,,,,,,,,,,,,,,,,,,,,,,,,,,,,,,,,,,,,,,,,,21,0.7,0.125,1,99,2,30,0,conditions/schedules/train_x_first/red_square_00/bottom_left/inputTrain_2.1.xlsx,99,1,2,1,0,,,,,,,,,,,,,,,,,,,,,,,,,,,,,,,,,,,,,,,,,,,,,,,,,,,,,,,,,,,,,,,,,,,,,,,,,,,7MLGXN,train_x,red_square,bottom_left,2025-08-07_15h57.08.819,HideSeek_v1,2022.2.5,59.98706678856125,
,,,,,,,,,,,,,,,5,0,5,0,0,0,0,0,,,,,,,,,,,,,,,,,,,,,,,,,,,,,,,conditions/schedules/train_x_first/red_square_00/bottom_left/instructions/Slide22.png,conditions/schedules/train_x_first/red_square_00/bottom_left/instructions/Audio22.wav,3707.7452142,3707.7371121000033,22,"[3.968392800001311, 17.780833300002996, 16.742034099999728, 19.040827799999533, 5.11883079999825, 4.61909580000065, 5.081482900000992, 11.639217700001609, 5.3194685999988, 6.485275400002138, 9.620352800000546, 12.501497700002801, 16.962365000003047, 12.44064839999919, 30.750668900000164, 20.804628299996693, 38.30387499999779, 6.085797100000491, 9.907200799996644, 13.513555599998654, 18.32989069999894, 42.972545500000706]","[3.968398900000466, 0.014298999998572981, 0.014353499998833286, 0.014025399999809451, 0.014011999999638647, 0.058516000000963686, 0.0661989000000176, 0.00024910000138334, 0.048768100001325365, 0.013789200002065627, 0.013936900002590846, 12.50150399999984, 0.014123199998721248, 12.440655800000968, 0.00031569999919156544, 20.80463499999678, 0.013903300001402386, 0.05693109999992885, 9.907207199998084, 13.513563699998485, 18.329897199997504, 42.972552500003076]",0,,,,,,,,,,,,,,,,,,,,,,,,,,,,,,,,,,,,,,,,,,,,,,,,,,,,,,,,,,,,,,,,,,,,,,,,,,,,,,,,,,,,,,,,,,,,,,,,,,,,,,,,,,,,,,,,,,,,,,,,,,,,7MLGXN,train_x,red_square,bottom_left,2025-08-07_15h57.08.819,HideSeek_v1,2022.2.5,59.98706678856125,
,0,0,0,1,0,1,15,,train_dim1_2,1,30,,,,5,0,5,0,,,,,,,,,0,0,0,0,0,0,0,0,0,0,0,0,,,,,,,,,,,,,,,,,,,,,,,,,stimuli/alien_stimuli/15.png,,,,,,,,,,,,,,,,,,,,,,,,,,,,,,,,,,,,,,,30,,,,,,,,3750.8200234000033,3750.8200234000033,3750.8200234000033,3750.8200234000033,3750.8200234000033,up,1.8600819999992382,0,0,0,99,-0.16,-0.32,up,1.7618963999957487,,,,,,,,,,,,,,,,,,,,,,,,,,,,,,,,,,,,,,,,,,,,,,,,,,,,,,,,,,,,7MLGXN,train_x,red_square,bottom_left,2025-08-07_15h57.08.819,HideSeek_v1,2022.2.5,59.98706678856125,
,0,0,0,1,0,1,15,,train_dim1_2,1,30,,,,5,0,5,0,,,,,,,,,0,0,0,0,0,0,0,0,1,0,1,0,,,,,,,,,,,,,,,,,,,,,,,,,,,,,,,,,,,,,,,,,,,,,,,,,,,,,,,,,,,,,,,,30,,,,,,,,3752.6805169,3752.6805169,3752.6805169,3752.6805169,3752.6805169,up,0.4890360999997938,0,0,0,99,-0.16,-0.24,up,0.3909194999941974,,,,,,,,,,,,,,,,,,,,,,,,,,,,,,,,,,,,,,,,,,,,,,,,,,,,,,,,,,,,7MLGXN,train_x,red_square,bottom_left,2025-08-07_15h57.08.819,HideSeek_v1,2022.2.5,59.98706678856125,
,0,0,0,1,0,1,15,,train_dim1_2,1,30,,,,5,0,5,0,,,,,,,,,0,0,0,0,0,0,0,0,2,0,2,0,,,,,,,,,,,,,,,,,,,,,,,,,,,,,,,,,,,,,,,,,,,,,,,,,,,,,,,,,,,,,,,,30,,,,,,,,3753.1751092000013,3753.1751092000013,3753.1751092000013,3753.1751092000013,3753.1751092000013,up,0.5096505000001343,0,0,0,99,-0.16,-0.15999999999999998,up,0.4169941999971343,,,,,,,,,,,,,,,,,,,,,,,,,,,,,,,,,,,,,,,,,,,,,,,,,,,,,,,,,,,,7MLGXN,train_x,red_square,bottom_left,2025-08-07_15h57.08.819,HideSeek_v1,2022.2.5,59.98706678856125,
,0,0,0,1,0,1,15,,train_dim1_2,1,30,,,,5,0,5,0,,,,,,,,,0,0,0,0,0,0,0,0,3,0,3,0,,,,,,,,,,,,,,,,,,,,,,,,,,,,,,,,,,,,,,,,,,,,,,,,,,,,,,,,,,,,,,,,30,,,,,,,,3753.6897290000015,3753.6897290000015,3753.6897290000015,3753.6897290000015,3753.6897290000015,up,0.5939510999996855,0,0,0,99,-0.16,-0.07999999999999997,up,0.5077909999963595,,,,,,,,,,,,,,,,,,,,,,,,,,,,,,,,,,,,,,,,,,,,,,,,,,,,,,,,,,,,7MLGXN,train_x,red_square,bottom_left,2025-08-07_15h57.08.819,HideSeek_v1,2022.2.5,59.98706678856125,
,0,0,0,1,0,1,15,,train_dim1_2,1,30,,,,5,0,5,0,,,,,,,,,0,0,0,0,0,0,0,0,4,0,4,0,,,,,,,,,,,,,,,,,,,,,,,,,,,,,,,,,,,,,,,,,,,,,,,,,,,,,,,,,,,,,,,,30,,,,,,,,3754.2917627000024,3754.2917627000024,3754.2917627000024,3754.2917627000024,3754.2917627000024,down,2.1271692000009352,0,0,0,99,-0.16,-0.15999999999999998,down,2.0370242999961192,,,,,,,,,,,,,,,,,,,,,,,,,,,,,,,,,,,,,,,,,,,,,,,,,,,,,,,,,,,,7MLGXN,train_x,red_square,bottom_left,2025-08-07_15h57.08.819,HideSeek_v1,2022.2.5,59.98706678856125,
,0,0,0,1,0,1,15,,train_dim1_2,1,30,,,,5,0,5,0,,,,,,,,,0,0,0,0,0,0,0,0,5,0,5,0,,,,,,,,,,,,,,,,,,,,,,,,,,,,,,,,,,,,,,,,,,,,,,,,,,,,,,,,,,,,,,,,30,,,,,,,,3756.4260673000026,3756.4260673000026,3756.4260673000026,3756.4260673000026,3756.4260673000026,down,0.2599095000005036,0,0,0,99,-0.16,-0.24,down,0.1648845999952755,,,,,,,,,,,,,,,,,,,,,,,,,,,,,,,,,,,,,,,,,,,,,,,,,,,,,,,,,,,,7MLGXN,train_x,red_square,bottom_left,2025-08-07_15h57.08.819,HideSeek_v1,2022.2.5,59.98706678856125,
,0,0,0,1,0,1,15,,train_dim1_2,1,30,,,,5,0,5,0,,,,,,,,,0,0,0,0,0,0,0,0,6,0,6,0,,,,,,,,,,,,,,,,,,,,,,,,,,,,,,,,,,,,,,,,,,,,,,,,,,,,,,,,,,,,,,,,30,,,,,,,,3756.691986500002,3756.691986500002,3756.691986500002,3756.691986500002,3756.691986500002,down,0.2097226000005321,0,0,0,99,-0.16,-0.32,down,0.1228847999991558,,,,,,,,,,,,,,,,,,,,,,,,,,,,,,,,,,,,,,,,,,,,,,,,,,,,,,,,,,,,7MLGXN,train_x,red_square,bottom_left,2025-08-07_15h57.08.819,HideSeek_v1,2022.2.5,59.98706678856125,
,0,0,0,1,0,1,15,,train_dim1_2,1,30,,,,5,0,5,0,,,,,,,,,0,0,0,0,0,0,0,0,7,0,7,0,,,,,,,,,,,,,,,,,,,,,,,,,,,,,,,,,,,,,,,,,,,,,,,,,,,,,,,,,,,,,,,,30,,,,,,,,3756.9087722000004,3756.9087722000004,3756.9087722000004,3756.9087722000004,3756.9087722000004,down,0.5598389000006136,0,0,0,99,-0.16,-0.4,down,0.47961039999790955,,,,,,,,,,,,,,,,,,,,,,,,,,,,,,,,,,,,,,,,,,,,,,,,,,,,,,,,,,,,7MLGXN,train_x,red_square,bottom_left,2025-08-07_15h57.08.819,HideSeek_v1,2022.2.5,59.98706678856125,
,0,0,0,1,0,1,15,,train_dim1_2,1,30,,,,5,0,5,0,,,,,,,,,0,0,0,0,0,0,0,0,8,0,8,0,,,,,,,,,,,,,,,,,,,,,,,,,,,,,,,,,,,,,,,,,,,,,,,,,,,,,,,,,,,,,,,,30,,,,,,,,3757.4754165000013,3757.4754165000013,3757.4754165000013,3757.4754165000013,3757.4754165000013,return,0.4936647999966226,0,1,0,0,-0.16,-0.4,return,0.4133090999966953,-2,52,-0.16,-0.4,,,,,,,,,,,,,,,,,,,,,,,,,,,,,,,,,,,,,,,,,,,,,,,,,,,,,,,,7MLGXN,train_x,red_square,bottom_left,2025-08-07_15h57.08.819,HideSeek_v1,2022.2.5,59.98706678856125,
