trialInstr,x_fixStart,y_fixStart,x_corrSteps,y_corrSteps,x_nrSteps,y_nrSteps,alienID,trialLength,version,trialTrain,praclen,testlen,trial_label,break_on_off,beforeExpLoop.thisRepN,beforeExpLoop.thisTrialN,beforeExpLoop.thisN,beforeExpLoop.thisIndex,mini_instr_trials.thisRepN,mini_instr_trials.thisTrialN,mini_instr_trials.thisN,mini_instr_trials.thisIndex,instrLoop.thisRepN,instrLoop.thisTrialN,instrLoop.thisN,instrLoop.thisIndex,repeat_prac.thisRepN,repeat_prac.thisTrialN,repeat_prac.thisN,repeat_prac.thisIndex,trainLoop.thisRepN,trainLoop.thisTrialN,trainLoop.thisN,trainLoop.thisIndex,moveLoop_train.thisRepN,moveLoop_train.thisTrialN,moveLoop_train.thisN,moveLoop_train.thisIndex,experiment.thisRepN,experiment.thisTrialN,experiment.thisN,experiment.thisIndex,moveLoop_test.thisRepN,moveLoop_test.thisTrialN,moveLoop_test.thisN,moveLoop_test.thisIndex,mini_instr2_trials.thisRepN,mini_instr2_trials.thisTrialN,mini_instr2_trials.thisN,mini_instr2_trials.thisIndex,start_all_time,url,slideStim,audioStim,slides.started,sounds.started,nextButton.numClicks,nextButton.timesOn,nextButton.timesOff,prev_but.numClicks,prev_but.timesOn,prev_but.timesOff,alienStim,instrFile,alienStim_instr,gridImage_instr.started,startPos_3.started,key_instr.started,alienImage_3.started,sounds_1.started,key_instr.keys,key_instr.rt,all_x,all_y,FBy_corrSteps,FBy_fixStart,FBx_corrSteps,FBx_fixStart,FBy_pathSize_check,FBx_pathSize_check,gridImage_9.started,alienImageFB_3.started,startPosFB_3.started,keyFB_3.started,pathLine_ydir_2.started,pathLine_xdir_2.started,alienFace_3.started,sounds_2.started,RTFB_instr,keyFB_3.keys,keyFB_3.rt,draw_alienStim,draw_alienID,test_x,nrepcount,perfthres,percthres,earlierperf,earlystop,nextPrac,fileidx,praclen,saveACC_train,pracFile,nextPrac_train,addNrep,fileidx_endr,repExp,showearly,gridImage_4.started,startPos.started,movePos.started,key_resp.started,alienImage.started,buttonPress_train,RTchoice_train,cumAcctrain,aCorr,saveACC_choice,corrAns,x_movePos_end,y_movePos_end,key_resp.keys,key_resp.rt,wLy_dir,wLx_dir,x_movePos,y_movePos,text_2.started,text_2.stopped,aft_x_corrPos,aft_y_corrPos,y_pathSize_check,x_pathSize_check,y_pathdirY,x_pathdirY,x_pathdirX,x_corrPos,y_corrPos,gridImage_6.started,alienImageFB_2.started,startPosFB_2.started,movePosFB_2.started,keyFB_2.started,pathLine_xdir.started,pathLine_ydir.started,alienFace.started,sounds_4.started,RT_FBtrain,keyFB_2.keys,keyFB_2.rt,saveACC_pre,ACC,within_saveACC_train,earlystop_wloop,cumAcctrain_check,gridImage_3.started,alienImage_test.started,startPos_test.started,movePos_test.started,key_resp_test.started,wLy_dir_test,wLx_dir_test,buttonPress_test,RTchoice_test,cumAcctest,corrAns_test,key_resp_test.keys,key_resp_test.rt,text_3.started,text_3.stopped,total_time,end_all_time,key_resp_3.keys,slides_2.started,sounds_3.started,nextButton_2.numClicks,nextButton_2.timesOn,nextButton_2.timesOff,prev_but_2.numClicks,prev_but_2.timesOn,prev_but_2.timesOff,bye.started,participant,train_first,00_coordinate,starting corner,date,expName,psychopyVersion,frameRate,
,,,,,,,,,,,,,,,0,0,0,0,0,0,0,0,,,,,,,,,,,,,,,,,,,,,,,,,,,,,start_all_time,testround,conditions/schedules/train_y_first/red_square_00/bottom_right/instructions/Slide1.png,conditions/schedules/train_y_first/red_square_00/bottom_right/instructions/Audio1.wav,454.4739753000904,454.4233248879667,1,[4.900960200000554],[4.90097300009802],0,,,,,,,,,,,,,,,,,,,,,,,,,,,,,,,,,,,,,,,,,,,,,,,,,,,,,,,,,,,,,,,,,,,,,,,,,,,,,,,,,,,,,,,,,,,,,,,,,,,,,,,,,,,,,,,,,,,,,,,,,,,,7NQM7N,train_y,red_square,bottom_right,2025-08-21_10h51.48.483,HideSeek_v1,2022.2.5,60.03348666827258,
,,,,,,,,,,,,,,,0,0,0,0,1,0,1,0,,,,,,,,,,,,,,,,,,,,,,,,,,,,,,,conditions/schedules/train_y_first/red_square_00/bottom_right/instructions/Slide2.png,conditions/schedules/train_y_first/red_square_00/bottom_right/instructions/Audio2.wav,459.39332240005024,459.3942743500229,2,"[4.900960200000554, 18.746880399994552]","[0.00024480000138282776, 18.746887299930677]",0,,,,,,,,,,,,,,,,,,,,,,,,,,,,,,,,,,,,,,,,,,,,,,,,,,,,,,,,,,,,,,,,,,,,,,,,,,,,,,,,,,,,,,,,,,,,,,,,,,,,,,,,,,,,,,,,,,,,,,,,,,,,7NQM7N,train_y,red_square,bottom_right,2025-08-21_10h51.48.483,HideSeek_v1,2022.2.5,60.03348666827258,
,,,,,,,,,,,,,,,0,0,0,0,2,0,2,0,,,,,,,,,,,,,,,,,,,,,,,,,,,,,,,conditions/schedules/train_y_first/red_square_00/bottom_right/instructions/Slide3.png,conditions/schedules/train_y_first/red_square_00/bottom_right/instructions/Audio3.wav,478.2186378999613,478.2091990499757,3,"[4.900960200000554, 18.746880399994552, 16.55199070018716]","[0.00024480000138282776, 0.05486730020493269, 16.551997900009155]",0,,,,,,,,,,,,,,,,,,,,,,,,,,,,,,,,,,,,,,,,,,,,,,,,,,,,,,,,,,,,,,,,,,,,,,,,,,,,,,,,,,,,,,,,,,,,,,,,,,,,,,,,,,,,,,,,,,,,,,,,,,,,7NQM7N,train_y,red_square,bottom_right,2025-08-21_10h51.48.483,HideSeek_v1,2022.2.5,60.03348666827258,
,,,,,,,,,,,,,,,0,0,0,0,3,0,3,0,,,,,,,,,,,,,,,,,,,,,,,,,,,,,,,conditions/schedules/train_y_first/red_square_00/bottom_right/instructions/Slide4.png,conditions/schedules/train_y_first/red_square_00/bottom_right/instructions/Audio4.wav,494.85805279994383,494.85668771998024,4,"[4.900960200000554, 18.746880399994552, 16.55199070018716, 19.746147099882364]","[0.00024480000138282776, 0.05486730020493269, 0.0311640000436455, 19.746153600048274]",0,,,,,,,,,,,,,,,,,,,,,,,,,,,,,,,,,,,,,,,,,,,,,,,,,,,,,,,,,,,,,,,,,,,,,,,,,,,,,,,,,,,,,,,,,,,,,,,,,,,,,,,,,,,,,,,,,,,,,,,,,,,,7NQM7N,train_y,red_square,bottom_right,2025-08-21_10h51.48.483,HideSeek_v1,2022.2.5,60.03348666827258,
,,,,,,,,,,,,,,,0,0,0,0,4,0,4,0,,,,,,,,,,,,,,,,,,,,,,,,,,,,,,,conditions/schedules/train_y_first/red_square_00/bottom_right/instructions/Slide5.png,conditions/schedules/train_y_first/red_square_00/bottom_right/instructions/Audio5.wav,514.671554800123,514.6733265500516,5,"[4.900960200000554, 18.746880399994552, 16.55199070018716, 19.746147099882364, 5.5703036999329925]","[0.00024480000138282776, 0.05486730020493269, 0.0311640000436455, 0.09896249999292195, 5.570310699986294]",0,,,,,,,,,,,,,,,,,,,,,,,,,,,,,,,,,,,,,,,,,,,,,,,,,,,,,,,,,,,,,,,,,,,,,,,,,,,,,,,,,,,,,,,,,,,,,,,,,,,,,,,,,,,,,,,,,,,,,,,,,,,,7NQM7N,train_y,red_square,bottom_right,2025-08-21_10h51.48.483,HideSeek_v1,2022.2.5,60.03348666827258,
,,,,,,,,,,,,,,,0,0,0,0,5,0,5,0,,,,,,,,,,,,,,,,,,,,,,,,,,,,,,,conditions/schedules/train_y_first/red_square_00/bottom_right/instructions/Slide6.png,conditions/schedules/train_y_first/red_square_00/bottom_right/instructions/Audio6.wav,520.2949630001094,520.2946953800973,6,"[4.900960200000554, 18.746880399994552, 16.55199070018716, 19.746147099882364, 5.5703036999329925, 6.019445999991149]","[0.00024480000138282776, 0.05486730020493269, 0.0311640000436455, 0.09896249999292195, 0.06439159996807575, 6.0194529998116195]",0,,,,,,,,,,,,,,,,,,,,,,,,,,,,,,,,,,,,,,,,,,,,,,,,,,,,,,,,,,,,,,,,,,,,,,,,,,,,,,,,,,,,,,,,,,,,,,,,,,,,,,,,,,,,,,,,,,,,,,,,,,,,7NQM7N,train_y,red_square,bottom_right,2025-08-21_10h51.48.483,HideSeek_v1,2022.2.5,60.03348666827258,
,,,,,,,,,,,,,,,0,0,0,0,6,0,6,0,,,,,,,,,,,,,,,,,,,,,,,,,,,,,,,conditions/schedules/train_y_first/red_square_00/bottom_right/instructions/Slide7.png,conditions/schedules/train_y_first/red_square_00/bottom_right/instructions/Audio7.wav,526.3645216000732,526.3663152800408,7,"[4.900960200000554, 18.746880399994552, 16.55199070018716, 19.746147099882364, 5.5703036999329925, 6.019445999991149, 5.854293799959123]","[0.00024480000138282776, 0.05486730020493269, 0.0311640000436455, 0.09896249999292195, 0.06439159996807575, 0.05076720006763935, 5.854300500126556]",0,,,,,,,,,,,,,,,,,,,,,,,,,,,,,,,,,,,,,,,,,,,,,,,,,,,,,,,,,,,,,,,,,,,,,,,,,,,,,,,,,,,,,,,,,,,,,,,,,,,,,,,,,,,,,,,,,,,,,,,,,,,,7NQM7N,train_y,red_square,bottom_right,2025-08-21_10h51.48.483,HideSeek_v1,2022.2.5,60.03348666827258,
,,,,,,,,,,,,,,,0,0,0,0,7,0,7,0,,,,,,,,,,,,,,,,,,,,,,,,,,,,,,,conditions/schedules/train_y_first/red_square_00/bottom_right/instructions/Slide8.png,conditions/schedules/train_y_first/red_square_00/bottom_right/instructions/Audio8.wav,532.2730262000114,532.271091679996,8,"[4.900960200000554, 18.746880399994552, 16.55199070018716, 19.746147099882364, 5.5703036999329925, 6.019445999991149, 5.854293799959123, 12.22292759991251]","[0.00024480000138282776, 0.05486730020493269, 0.0311640000436455, 0.09896249999292195, 0.06439159996807575, 0.05076720006763935, 0.06295379996299744, 12.222934199962765]",0,,,,,,,,,,,,,,,,,,,,,,,,,,,,,,,,,,,,,,,,,,,,,,,,,,,,,,,,,,,,,,,,,,,,,,,,,,,,,,,,,,,,,,,,,,,,,,,,,,,,,,,,,,,,,,,,,,,,,,,,,,,,7NQM7N,train_y,red_square,bottom_right,2025-08-21_10h51.48.483,HideSeek_v1,2022.2.5,60.03348666827258,
,,,,,,,,,,,,,,,0,0,0,0,8,0,8,0,,,,,,,,,,,,,,,,,,,,,,,,,,,,,,,conditions/schedules/train_y_first/red_square_00/bottom_right/instructions/Slide9.png,conditions/schedules/train_y_first/red_square_00/bottom_right/instructions/Audio9.wav,544.5668422000017,544.5649465499446,9,"[4.900960200000554, 18.746880399994552, 16.55199070018716, 19.746147099882364, 5.5703036999329925, 6.019445999991149, 5.854293799959123, 12.22292759991251, 6.817720300052315]","[0.00024480000138282776, 0.05486730020493269, 0.0311640000436455, 0.09896249999292195, 0.06439159996807575, 0.05076720006763935, 0.06295379996299744, 0.013932100031524897, 6.817727099871263]",0,,,,,,,,,,,,,,,,,,,,,,,,,,,,,,,,,,,,,,,,,,,,,,,,,,,,,,,,,,,,,,,,,,,,,,,,,,,,,,,,,,,,,,,,,,,,,,,,,,,,,,,,,,,,,,,,,,,,,,,,,,,,7NQM7N,train_y,red_square,bottom_right,2025-08-21_10h51.48.483,HideSeek_v1,2022.2.5,60.03348666827258,
,,,,,,,,,,,,,,,0,0,0,0,9,0,9,0,,,,,,,,,,,,,,,,,,,,,,,,,,,,,,,conditions/schedules/train_y_first/red_square_00/bottom_right/instructions/Slide10.png,conditions/schedules/train_y_first/red_square_00/bottom_right/instructions/Audio10.wav,551.4240663000382,551.4204577099532,10,"[4.900960200000554, 18.746880399994552, 16.55199070018716, 19.746147099882364, 5.5703036999329925, 6.019445999991149, 5.854293799959123, 12.22292759991251, 6.817720300052315, 7.600042900070548]","[0.00024480000138282776, 0.05486730020493269, 0.0311640000436455, 0.09896249999292195, 0.06439159996807575, 0.05076720006763935, 0.06295379996299744, 0.013932100031524897, 0.06392490002326667, 7.600049700122327]",0,,,,,,,,,,,,,,,,,,,,,,,,,,,,,,,,,,,,,,,,,,,,,,,,,,,,,,,,,,,,,,,,,,,,,,,,,,,,,,,,,,,,,,,,,,,,,,,,,,,,,,,,,,,,,,,,,,,,,,,,,,,,7NQM7N,train_y,red_square,bottom_right,2025-08-21_10h51.48.483,HideSeek_v1,2022.2.5,60.03348666827258,
,,,,,,,,,,,,,,,0,0,0,0,10,0,10,0,,,,,,,,,,,,,,,,,,,,,,,,,,,,,,,conditions/schedules/train_y_first/red_square_00/bottom_right/instructions/Slide11.png,conditions/schedules/train_y_first/red_square_00/bottom_right/instructions/Audio11.wav,559.0624547000043,559.0601083099842,11,"[4.900960200000554, 18.746880399994552, 16.55199070018716, 19.746147099882364, 5.5703036999329925, 6.019445999991149, 5.854293799959123, 12.22292759991251, 6.817720300052315, 7.600042900070548, 10.536850200034678]","[0.00024480000138282776, 0.05486730020493269, 0.0311640000436455, 0.09896249999292195, 0.06439159996807575, 0.05076720006763935, 0.06295379996299744, 0.013932100031524897, 0.06392490002326667, 0.07796939997933805, 10.536857099970803]",0,,,,,,,,,,,,,,,,,,,,,,,,,,,,,,,,,,,,,,,,,,,,,,,,,,,,,,,,,,,,,,,,,,,,,,,,,,,,,,,,,,,,,,,,,,,,,,,,,,,,,,,,,,,,,,,,,,,,,,,,,,,,7NQM7N,train_y,red_square,bottom_right,2025-08-21_10h51.48.483,HideSeek_v1,2022.2.5,60.03348666827258,
,,,,,,,,,,,,,,,0,0,0,0,11,0,11,0,,,,,,,,,,,,,,,,,,,,,,,,,,,,,,,conditions/schedules/train_y_first/red_square_00/bottom_right/instructions/Slide12.png,conditions/schedules/train_y_first/red_square_00/bottom_right/instructions/Audio12.wav,569.6719041001052,569.6688078499865,12,"[4.900960200000554, 18.746880399994552, 16.55199070018716, 19.746147099882364, 5.5703036999329925, 6.019445999991149, 5.854293799959123, 12.22292759991251, 6.817720300052315, 7.600042900070548, 10.536850200034678, 14.573396400082856]","[0.00024480000138282776, 0.05486730020493269, 0.0311640000436455, 0.09896249999292195, 0.06439159996807575, 0.05076720006763935, 0.06295379996299744, 0.013932100031524897, 0.06392490002326667, 0.07796939997933805, 0.06170890014618635, 14.573404400143772]",0,,,,,,,,,,,,,,,,,,,,,,,,,,,,,,,,,,,,,,,,,,,,,,,,,,,,,,,,,,,,,,,,,,,,,,,,,,,,,,,,,,,,,,,,,,,,,,,,,,,,,,,,,,,,,,,,,,,,,,,,,,,,7NQM7N,train_y,red_square,bottom_right,2025-08-21_10h51.48.483,HideSeek_v1,2022.2.5,60.03348666827258,
1,7,3,7,8,0,5,11,2,instr_dim1_1,,,,,,0,0,0,0,,,,,0,0,0,0,,,,,,,,,,,,,,,,,,,,,,,,,,,,,,,,,,,,,stimuli/alien_stimuli/11.png,conditions/schedules/train_y_first/red_square_00/bottom_right/inputInstr_1.xlsx,stimuli/alien_stimuli/11.png,584.349661400076,584.349661400076,584.349661400076,584.349661400076,584.3477270899807,return,9.520661699818447,"[-0.16, -0.08, 0, 0.08, 0.16, 0.24, 0.32, 0.4, 0.48, 0.56]","[-0.4, -0.32, -0.24, -0.16, -0.08, 0, 0.08, 0.16, 0.24, 0.32]",8,3,7,7,0.4,0.0,594.0227500000037,594.0227500000037,594.0227500000037,594.0227500000037,594.0227500000037,594.0227500000037,594.0227500000037,594.0223516299856,7.023183999815956,return,6.860856599872932,stimuli/alien_stimuli/11.png,11,7,1,,,,,,,,,,,,,,,,,,,,,,,,,,,,,,,,,,,,,,,,,,,,,,,,,,,,,,,,,,,,,,,,,,,,,,,,,,,,,,,,,,,,,,,,,7NQM7N,train_y,red_square,bottom_right,2025-08-21_10h51.48.483,HideSeek_v1,2022.2.5,60.03348666827258,
,,,,,,,,,,,30,,,,0,0,0,0,,,,,,,,,,,,,,,,,,,,,,,,,,,,,,,,,,,,,,,,,,,,,,,,,,,,,,,,,,,,,,,,,,,,,,,,,,,,,,21,0.7,0,0,99,1,30,0,conditions/schedules/train_y_first/red_square_00/bottom_right/inputTrain_1.1.xlsx,99,1,1,1,0,,,,,,,,,,,,,,,,,,,,,,,,,,,,,,,,,,,,,,,,,,,,,,,,,,,,,,,,,,,,,,,,,,,,,,,,,,,7NQM7N,train_y,red_square,bottom_right,2025-08-21_10h51.48.483,HideSeek_v1,2022.2.5,60.03348666827258,
,,,,,,,,,,,,,,,1,0,1,0,0,0,0,0,,,,,,,,,,,,,,,,,,,,,,,,,,,,,,,conditions/schedules/train_y_first/red_square_00/bottom_right/instructions/Slide13.png,conditions/schedules/train_y_first/red_square_00/bottom_right/instructions/Audio13.wav,601.0417081001215,601.0282525600866,13,"[4.900960200000554, 18.746880399994552, 16.55199070018716, 19.746147099882364, 5.5703036999329925, 6.019445999991149, 5.854293799959123, 12.22292759991251, 6.817720300052315, 7.600042900070548, 10.536850200034678, 14.573396400082856, 17.915409700013697]","[0.00024480000138282776, 0.05486730020493269, 0.0311640000436455, 0.09896249999292195, 0.06439159996807575, 0.05076720006763935, 0.06295379996299744, 0.013932100031524897, 0.06392490002326667, 0.07796939997933805, 0.06170890014618635, 14.573404400143772, 17.91541640018113]",0,,,,,,,,,,,,,,,,,,,,,,,,,,,,,,,,,,,,,,,,,,,,,,,,,,,,,,,,,,,,,,,,,,,,,,,,,,,,,,,,,,,,,,,,,,,,,,,,,,,,,,,,,,,,,,,,,,,,,,,,,,,,7NQM7N,train_y,red_square,bottom_right,2025-08-21_10h51.48.483,HideSeek_v1,2022.2.5,60.03348666827258,
,,,,,,,,,,,,,,,1,0,1,0,1,0,1,0,,,,,,,,,,,,,,,,,,,,,,,,,,,,,,,conditions/schedules/train_y_first/red_square_00/bottom_right/instructions/Slide14.png,conditions/schedules/train_y_first/red_square_00/bottom_right/instructions/Audio14.wav,619.0324385000858,619.0265225500334,14,"[4.900960200000554, 18.746880399994552, 16.55199070018716, 19.746147099882364, 5.5703036999329925, 6.019445999991149, 5.854293799959123, 12.22292759991251, 6.817720300052315, 7.600042900070548, 10.536850200034678, 14.573396400082856, 17.915409700013697, 17.172947200015187]","[0.00024480000138282776, 0.05486730020493269, 0.0311640000436455, 0.09896249999292195, 0.06439159996807575, 0.05076720006763935, 0.06295379996299744, 0.013932100031524897, 0.06392490002326667, 0.07796939997933805, 0.06170890014618635, 14.573404400143772, 0.014546700054779649, 17.17295390018262]",0,,,,,,,,,,,,,,,,,,,,,,,,,,,,,,,,,,,,,,,,,,,,,,,,,,,,,,,,,,,,,,,,,,,,,,,,,,,,,,,,,,,,,,,,,,,,,,,,,,,,,,,,,,,,,,,,,,,,,,,,,,,,7NQM7N,train_y,red_square,bottom_right,2025-08-21_10h51.48.483,HideSeek_v1,2022.2.5,60.03348666827258,
2,5,3,5,3,0,0,16,2,instr_dim1_1,,,,,,1,0,1,0,,,,,0,0,0,0,,,,,,,,,,,,,,,,,,,,,,,,,,,,,,,,,,,,,stimuli/alien_stimuli/16.png,conditions/schedules/train_y_first/red_square_00/bottom_right/inputInstr_1.xlsx,stimuli/alien_stimuli/16.png,636.303942900151,636.303942900151,636.303942900151,636.303942900151,636.3075753900689,return,6.2406531998422,"[-0.16, -0.08, 0, 0.08, 0.16, 0.24, 0.32, 0.4, 0.48, 0.56]","[-0.4, -0.32, -0.24, -0.16, -0.08, 0, 0.08, 0.16, 0.24, 0.32]",3,3,5,5,0.0,0.0,642.6886696999427,642.6886696999427,642.6886696999427,642.6886696999427,642.6886696999427,642.6886696999427,642.6886696999427,642.6793906599283,7.340469799935818,return,7.196351199876517,stimuli/alien_stimuli/16.png,16,5,2,,,,,,,,,,,,,,,,,,,,,,,,,,,,,,,,,,,,,,,,,,,,,,,,,,,,,,,,,,,,,,,,,,,,,,,,,,,,,,,,,,,,,,,,,7NQM7N,train_y,red_square,bottom_right,2025-08-21_10h51.48.483,HideSeek_v1,2022.2.5,60.03348666827258,
,,,,,,,,,,,30,,,,1,0,1,0,,,,,,,,,,,,,,,,,,,,,,,,,,,,,,,,,,,,,,,,,,,,,,,,,,,,,,,,,,,,,,,,,,,,,,,,,,,,,,21,0.7,0,0,99,1,30,0,conditions/schedules/train_y_first/red_square_00/bottom_right/inputTrain_1.1.xlsx,99,1,1,1,0,,,,,,,,,,,,,,,,,,,,,,,,,,,,,,,,,,,,,,,,,,,,,,,,,,,,,,,,,,,,,,,,,,,,,,,,,,,7NQM7N,train_y,red_square,bottom_right,2025-08-21_10h51.48.483,HideSeek_v1,2022.2.5,60.03348666827258,
,,,,,,,,,,,,,,,2,0,2,0,0,0,0,0,,,,,,,,,,,,,,,,,,,,,,,,,,,,,,,conditions/schedules/train_y_first/red_square_00/bottom_right/instructions/Slide15.png,conditions/schedules/train_y_first/red_square_00/bottom_right/instructions/Audio15.wav,650.0388054000214,650.0355402300601,15,"[4.900960200000554, 18.746880399994552, 16.55199070018716, 19.746147099882364, 5.5703036999329925, 6.019445999991149, 5.854293799959123, 12.22292759991251, 6.817720300052315, 7.600042900070548, 10.536850200034678, 14.573396400082856, 17.915409700013697, 17.172947200015187, 45.94895080011338]","[0.00024480000138282776, 0.05486730020493269, 0.0311640000436455, 0.09896249999292195, 0.06439159996807575, 0.05076720006763935, 0.06295379996299744, 0.013932100031524897, 0.06392490002326667, 0.07796939997933805, 0.06170890014618635, 14.573404400143772, 0.014546700054779649, 17.17295390018262, 45.94895810005255]",0,,,,,,,,,,,,,,,,,,,,,,,,,,,,,,,,,,,,,,,,,,,,,,,,,,,,,,,,,,,,,,,,,,,,,,,,,,,,,,,,,,,,,,,,,,,,,,,,,,,,,,,,,,,,,,,,,,,,,,,,,,,,7NQM7N,train_y,red_square,bottom_right,2025-08-21_10h51.48.483,HideSeek_v1,2022.2.5,60.03348666827258,
,,,,,,,,,,,,,,,2,0,2,0,1,0,1,0,,,,,,,,,,,,,,,,,,,,,,,,,,,,,,,conditions/schedules/train_y_first/red_square_00/bottom_right/instructions/Slide16.png,conditions/schedules/train_y_first/red_square_00/bottom_right/instructions/Audio16.wav,696.0530207999982,696.0406484798995,16,"[4.900960200000554, 18.746880399994552, 16.55199070018716, 19.746147099882364, 5.5703036999329925, 6.019445999991149, 5.854293799959123, 12.22292759991251, 6.817720300052315, 7.600042900070548, 10.536850200034678, 14.573396400082856, 17.915409700013697, 17.172947200015187, 45.94895080011338, 21.75333740003407]","[0.00024480000138282776, 0.05486730020493269, 0.0311640000436455, 0.09896249999292195, 0.06439159996807575, 0.05076720006763935, 0.06295379996299744, 0.013932100031524897, 0.06392490002326667, 0.07796939997933805, 0.06170890014618635, 14.573404400143772, 0.014546700054779649, 17.17295390018262, 0.014117199927568436, 21.75334420008585]",0,,,,,,,,,,,,,,,,,,,,,,,,,,,,,,,,,,,,,,,,,,,,,,,,,,,,,,,,,,,,,,,,,,,,,,,,,,,,,,,,,,,,,,,,,,,,,,,,,,,,,,,,,,,,,,,,,,,,,,,,,,,,7NQM7N,train_y,red_square,bottom_right,2025-08-21_10h51.48.483,HideSeek_v1,2022.2.5,60.03348666827258,
,5,0,5,1,0,1,15,,train_dim1_1,1,30,,,,2,0,2,0,,,,,,,,,0,0,0,0,0,0,0,0,0,0,0,0,,,,,,,,,,,,,,,,,,,,,,,,,stimuli/alien_stimuli/15.png,,,,,,,,,,,,,,,,,,,,,,,,,,,,,,,,,,,,,,,30,,,,,,,,717.9149895999581,717.9149895999581,717.9149895999581,717.9149895999581,717.9149895999581,up,6.5321339999791235,0,0,0,99,0.24,-0.32,up,6.416698999935761,,,,,,,,,,,,,,,,,,,,,,,,,,,,,,,,,,,,,,,,,,,,,,,,,,,,,,,,,,,,7NQM7N,train_y,red_square,bottom_right,2025-08-21_10h51.48.483,HideSeek_v1,2022.2.5,60.03348666827258,
,5,0,5,1,0,1,15,,train_dim1_1,1,30,,,,2,0,2,0,,,,,,,,,0,0,0,0,0,0,0,0,1,0,1,0,,,,,,,,,,,,,,,,,,,,,,,,,,,,,,,,,,,,,,,,,,,,,,,,,,,,,,,,,,,,,,,,30,,,,,,,,724.4331757000182,724.4331757000182,724.4331757000182,724.4331757000182,724.4331757000182,up,1.3438074998557568,0,0,0,99,0.24,-0.24,up,1.2603169998619705,,,,,,,,,,,,,,,,,,,,,,,,,,,,,,,,,,,,,,,,,,,,,,,,,,,,,,,,,,,,7NQM7N,train_y,red_square,bottom_right,2025-08-21_10h51.48.483,HideSeek_v1,2022.2.5,60.03348666827258,
,5,0,5,1,0,1,15,,train_dim1_1,1,30,,,,2,0,2,0,,,,,,,,,0,0,0,0,0,0,0,0,2,0,2,0,,,,,,,,,,,,,,,,,,,,,,,,,,,,,,,,,,,,,,,,,,,,,,,,,,,,,,,,,,,,,,,,30,,,,,,,,725.7829040000215,725.7829040000215,725.7829040000215,725.7829040000215,725.7829040000215,up,1.3775794000830501,0,0,0,99,0.24,-0.15999999999999998,up,1.2995697997976094,,,,,,,,,,,,,,,,,,,,,,,,,,,,,,,,,,,,,,,,,,,,,,,,,,,,,,,,,,,,7NQM7N,train_y,red_square,bottom_right,2025-08-21_10h51.48.483,HideSeek_v1,2022.2.5,60.03348666827258,
,5,0,5,1,0,1,15,,train_dim1_1,1,30,,,,2,0,2,0,,,,,,,,,0,0,0,0,0,0,0,0,3,0,3,0,,,,,,,,,,,,,,,,,,,,,,,,,,,,,,,,,,,,,,,,,,,,,,,,,,,,,,,,,,,,,,,,30,,,,,,,,727.167475100141,727.167475100141,727.167475100141,727.167475100141,727.167475100141,up,1.5108349998481572,0,0,0,99,0.24,-0.07999999999999997,up,1.4321863998193294,,,,,,,,,,,,,,,,,,,,,,,,,,,,,,,,,,,,,,,,,,,,,,,,,,,,,,,,,,,,7NQM7N,train_y,red_square,bottom_right,2025-08-21_10h51.48.483,HideSeek_v1,2022.2.5,60.03348666827258,
,5,0,5,1,0,1,15,,train_dim1_1,1,30,,,,2,0,2,0,,,,,,,,,0,0,0,0,0,0,0,0,4,0,4,0,,,,,,,,,,,,,,,,,,,,,,,,,,,,,,,,,,,,,,,,,,,,,,,,,,,,,,,,,,,,,,,,30,,,,,,,,728.6852520999964,728.6852520999964,728.6852520999964,728.6852520999964,728.6852520999964,up,2.2781517000403255,0,0,0,99,0.24,2.7755575615628914e-17,up,2.2007319000549614,,,,,,,,,,,,,,,,,,,,,,,,,,,,,,,,,,,,,,,,,,,,,,,,,,,,,,,,,,,,7NQM7N,train_y,red_square,bottom_right,2025-08-21_10h51.48.483,HideSeek_v1,2022.2.5,60.03348666827258,
,5,0,5,1,0,1,15,,train_dim1_1,1,30,,,,2,0,2,0,,,,,,,,,0,0,0,0,0,0,0,0,5,0,5,0,,,,,,,,,,,,,,,,,,,,,,,,,,,,,,,,,,,,,,,,,,,,,,,,,,,,,,,,,,,,,,,,30,,,,,,,,730.9717475001235,730.9717475001235,730.9717475001235,730.9717475001235,730.9717475001235,return,2.2279652999714017,0,0,0,0,0.24,2.7755575615628914e-17,return,2.1494402999524027,5,0,0.24,2.7755575615628914e-17,,,,,,,,,,,,,,,,,,,,,,,,,,,,,,,,,,,,,,,,,,,,,,,,,,,,,,,,7NQM7N,train_y,red_square,bottom_right,2025-08-21_10h51.48.483,HideSeek_v1,2022.2.5,60.03348666827258,
,8,2,8,2,0,0,16,,train_dim1_1,2,30,,,,2,0,2,0,,,,,,,,,0,0,0,0,0,1,1,1,0,0,0,0,,,,,,,,,,,,,,,,,,,,,,,,,stimuli/alien_stimuli/16.png,,,,,,,,,,,,,,,,,,,,,,,,,,,,,stimuli/alien_stimuli/15.png,15,5,3,,,,,,,30,,,,,,,,748.1113716999535,748.1113716999535,748.1113716999535,748.1113716999535,748.1113716999535,up,13.598381800111383,0,0,0,99,0.48,-0.15999999999999998,up,13.494158199755475,,,,,746.532777100103,748.1113716999535,0.24,-0.32,0.08,0.0,-0.36,0.24,0.24,0.24,-0.32,734.7799104999285,734.7799104999285,734.7799104999285,734.7799104999285,734.7799104999285,734.7799104999285,734.7799104999285,734.7799104999285,734.7727285599336,11.879054500022903,return,11.73357389983721,,,,,,,,,,,,,,,,,,,,,,,,,,,,,,,,,7NQM7N,train_y,red_square,bottom_right,2025-08-21_10h51.48.483,HideSeek_v1,2022.2.5,60.03348666827258,
,8,2,8,2,0,0,16,,train_dim1_1,2,30,,,,2,0,2,0,,,,,,,,,0,0,0,0,0,1,1,1,1,0,1,0,,,,,,,,,,,,,,,,,,,,,,,,,,,,,,,,,,,,,,,,,,,,,,,,,,,,,,,,,,,,,,,,30,,,,,,,,761.7141851000488,761.7141851000488,761.7141851000488,761.7141851000488,761.7141851000488,up,1.3769292999058962,0,0,0,99,0.48,-0.07999999999999997,up,1.27571289986372,,,,,,,,,,,,,,,,,,,,,,,,,,,,,,,,,,,,,,,,,,,,,,,,,,,,,,,,,,,,7NQM7N,train_y,red_square,bottom_right,2025-08-21_10h51.48.483,HideSeek_v1,2022.2.5,60.03348666827258,
,8,2,8,2,0,0,16,,train_dim1_1,2,30,,,,2,0,2,0,,,,,,,,,0,0,0,0,0,1,1,1,2,0,2,0,,,,,,,,,,,,,,,,,,,,,,,,,,,,,,,,,,,,,,,,,,,,,,,,,,,,,,,,,,,,,,,,30,,,,,,,,763.0806684999261,763.0806684999261,763.0806684999261,763.0806684999261,763.0806684999261,up,1.4107707999646664,0,0,0,99,0.48,2.7755575615628914e-17,up,1.3178187999874353,,,,,,,,,,,,,,,,,,,,,,,,,,,,,,,,,,,,,,,,,,,,,,,,,,,,,,,,,,,,7NQM7N,train_y,red_square,bottom_right,2025-08-21_10h51.48.483,HideSeek_v1,2022.2.5,60.03348666827258,
,8,2,8,2,0,0,16,,train_dim1_1,2,30,,,,2,0,2,0,,,,,,,,,0,0,0,0,0,1,1,1,3,0,3,0,,,,,,,,,,,,,,,,,,,,,,,,,,,,,,,,,,,,,,,,,,,,,,,,,,,,,,,,,,,,,,,,30,,,,,,,,764.4982356000692,764.4982356000692,764.4982356000692,764.4982356000692,764.4982356000692,return,2.1782760000787675,0,0,0,0,0.48,2.7755575615628914e-17,return,2.0914497000630945,8,0,0.48,2.7755575615628914e-17,,,,,,,,,,,,,,,,,,,,,,,,,,,,,,,,,,,,,,,,,,,,,,,,,,,,,,,,7NQM7N,train_y,red_square,bottom_right,2025-08-21_10h51.48.483,HideSeek_v1,2022.2.5,60.03348666827258,
,7,3,7,6,0,3,13,,train_dim1_1,3,30,,,,2,0,2,0,,,,,,,,,0,0,0,0,0,2,2,2,0,0,0,0,,,,,,,,,,,,,,,,,,,,,,,,,stimuli/alien_stimuli/13.png,,,,,,,,,,,,,,,,,,,,,,,,,,,,,stimuli/alien_stimuli/16.png,16,8,4,,,,,,,30,,,,,,,,777.2982481000945,777.2982481000945,777.2982481000945,777.2982481000945,777.2982481000945,left,9.579646500060335,0,0,0,99,0.32,-0.16,left,9.490075099747628,,,,,775.7399586001411,777.2982481000945,0.48,-0.24,0.0,0.0,-0.24,0.48,0.48,0.48,-0.24,768.2494538000319,768.2494538000319,768.2494538000319,768.2494538000319,768.2494538000319,768.2494538000319,768.2494538000319,768.2494538000319,768.2505348600913,7.608598199905828,return,7.4646234000101686,,,,,,,,,,,,,,,,,,,,,,,,,,,,,,,,,7NQM7N,train_y,red_square,bottom_right,2025-08-21_10h51.48.483,HideSeek_v1,2022.2.5,60.03348666827258,
,7,3,7,6,0,3,13,,train_dim1_1,3,30,,,,2,0,2,0,,,,,,,,,0,0,0,0,0,2,2,2,1,0,1,0,,,,,,,,,,,,,,,,,,,,,,,,,,,,,,,,,,,,,,,,,,,,,,,,,,,,,,,,,,,,,,,,30,,,,,,,,786.8837783001363,786.8837783001363,786.8837783001363,786.8837783001363,786.8837783001363,return,1.0439327000640333,0,0,0,0,0.32,-0.16,return,0.9619106999598444,8,-1,0.32,-0.16,,,,,,,,,,,,,,,,,,,,,,,,,,,,,,,,,,,,,,,,,,,,,,,,,,,,,,,,7NQM7N,train_y,red_square,bottom_right,2025-08-21_10h51.48.483,HideSeek_v1,2022.2.5,60.03348666827258,
,5,1,5,5,0,4,12,,train_dim1_1,4,30,,,,2,0,2,0,,,,,,,,,0,0,0,0,0,3,3,3,0,0,0,0,,,,,,,,,,,,,,,,,,,,,,,,,stimuli/alien_stimuli/12.png,,,,,,,,,,,,,,,,,,,,,,,,,,,,,stimuli/alien_stimuli/13.png,13,7,5,,,,,,,30,,,,,,,,799.7387177001219,799.7387177001219,799.7387177001219,799.7387177001219,799.7387177001219,return,9.009838399942964,0,0,0,0,0.24,-0.32,return,8.897358799818903,8,-1,0.24,-0.32,798.158766800072,799.7387177001219,0.4,0.08,0.24,0.0,-0.04,0.4,0.4,0.4,0.08,789.4956325001549,789.4956325001549,789.4956325001549,789.4956325001549,789.4956325001549,789.4956325001549,789.4956325001549,789.4956325001549,789.4848962899764,8.776060999836773,return,8.63483399990946,,,,,,,,,,,,,,,,,,,,,,,,,,,,,,,,,7NQM7N,train_y,red_square,bottom_right,2025-08-21_10h51.48.483,HideSeek_v1,2022.2.5,60.03348666827258,
,8,3,8,8,0,5,11,,train_dim1_1,5,30,,,,2,0,2,0,,,,,,,,,0,0,0,0,0,4,4,4,0,0,0,0,,,,,,,,,,,,,,,,,,,,,,,,,stimuli/alien_stimuli/11.png,,,,,,,,,,,,,,,,,,,,,,,,,,,,,stimuli/alien_stimuli/12.png,12,5,6,,,,,,,30,,,,,,,,816.1275247000158,816.1275247000158,816.1275247000158,816.1275247000158,816.1275247000158,down,6.578109200112522,0,0,0,99,0.48,-0.24,down,6.494863599771634,,,,,814.5723779001273,816.1275247000158,0.24,0,0.32,0.0,-0.16,0.24,0.24,0.24,0,810.3188012000173,810.3188012000173,810.3188012000173,810.3188012000173,810.3188012000173,810.3188012000173,810.3188012000173,810.3188012000173,810.3186691300479,4.389625299954787,return,4.222295599989593,,,,,,,,,,,,,,,,,,,,,,,,,,,,,,,,,7NQM7N,train_y,red_square,bottom_right,2025-08-21_10h51.48.483,HideSeek_v1,2022.2.5,60.03348666827258,
,8,3,8,8,0,5,11,,train_dim1_1,5,30,,,,2,0,2,0,,,,,,,,,0,0,0,0,0,4,4,4,1,0,1,0,,,,,,,,,,,,,,,,,,,,,,,,,,,,,,,,,,,,,,,,,,,,,,,,,,,,,,,,,,,,,,,,30,,,,,,,,822.7140434000175,822.7140434000175,822.7140434000175,822.7140434000175,822.7140434000175,down,0.5764838999602944,0,0,0,99,0.48,-0.32,down,0.48521199985407293,,,,,,,,,,,,,,,,,,,,,,,,,,,,,,,,,,,,,,,,,,,,,,,,,,,,,,,,,,,,7NQM7N,train_y,red_square,bottom_right,2025-08-21_10h51.48.483,HideSeek_v1,2022.2.5,60.03348666827258,
,8,3,8,8,0,5,11,,train_dim1_1,5,30,,,,2,0,2,0,,,,,,,,,0,0,0,0,0,4,4,4,2,0,2,0,,,,,,,,,,,,,,,,,,,,,,,,,,,,,,,,,,,,,,,,,,,,,,,,,,,,,,,,,,,,,,,,30,,,,,,,,823.2958198001143,823.2958198001143,823.2958198001143,823.2958198001143,823.2958198001143,return,0.8104071000125259,0,0,0,0,0.48,-0.32,return,0.7207939999643713,6,-1,0.48,-0.32,,,,,,,,,,,,,,,,,,,,,,,,,,,,,,,,,,,,,,,,,,,,,,,,,,,,,,,,7NQM7N,train_y,red_square,bottom_right,2025-08-21_10h51.48.483,HideSeek_v1,2022.2.5,60.03348666827258,
,6,4,6,8,0,4,12,,train_dim1_1,6,30,,,,2,0,2,0,,,,,,,,,0,0,0,0,0,5,5,5,0,0,0,0,,,,,,,,,,,,,,,,,,,,,,,,,stimuli/alien_stimuli/12.png,,,,,,,,,,,,,,,,,,,,,,,,,,,,,stimuli/alien_stimuli/11.png,11,8,7,,,,,,,30,,,,,,,,832.2415491000284,832.2415491000284,832.2415491000284,832.2415491000284,832.2415491000284,up,4.943641799967736,0,0,0,99,0.32,0.0,up,4.853700299747288,,,,,830.6858109000605,832.2415491000284,0.48,0.24,0.4,0.0,0.039999999999999994,0.48,0.48,0.48,0.24,825.6735617001541,825.6735617001541,825.6735617001541,825.6735617001541,825.6735617001541,825.6735617001541,825.6735617001541,825.6735617001541,825.6642698900309,5.123767399927601,return,4.983785499818623,,,,,,,,,,,,,,,,,,,,,,,,,,,,,,,,,7NQM7N,train_y,red_square,bottom_right,2025-08-21_10h51.48.483,HideSeek_v1,2022.2.5,60.03348666827258,
,6,4,6,8,0,4,12,,train_dim1_1,6,30,,,,2,0,2,0,,,,,,,,,0,0,0,0,0,5,5,5,1,0,1,0,,,,,,,,,,,,,,,,,,,,,,,,,,,,,,,,,,,,,,,,,,,,,,,,,,,,,,,,,,,,,,,,30,,,,,,,,837.1925890999846,837.1925890999846,837.1925890999846,837.1925890999846,837.1925890999846,up,0.5433368000667542,0,0,0,99,0.32,0.08,up,0.4532551998272538,,,,,,,,,,,,,,,,,,,,,,,,,,,,,,,,,,,,,,,,,,,,,,,,,,,,,,,,,,,,7NQM7N,train_y,red_square,bottom_right,2025-08-21_10h51.48.483,HideSeek_v1,2022.2.5,60.03348666827258,
,6,4,6,8,0,4,12,,train_dim1_1,6,30,,,,2,0,2,0,,,,,,,,,0,0,0,0,0,5,5,5,2,0,2,0,,,,,,,,,,,,,,,,,,,,,,,,,,,,,,,,,,,,,,,,,,,,,,,,,,,,,,,,,,,,,,,,30,,,,,,,,837.7418724999297,837.7418724999297,837.7418724999297,837.7418724999297,837.7418724999297,up,0.4602471999824047,0,0,0,99,0.32,0.16,up,0.3752728998661041,,,,,,,,,,,,,,,,,,,,,,,,,,,,,,,,,,,,,,,,,,,,,,,,,,,,,,,,,,,,7NQM7N,train_y,red_square,bottom_right,2025-08-21_10h51.48.483,HideSeek_v1,2022.2.5,60.03348666827258,
,6,4,6,8,0,4,12,,train_dim1_1,6,30,,,,2,0,2,0,,,,,,,,,0,0,0,0,0,5,5,5,3,0,3,0,,,,,,,,,,,,,,,,,,,,,,,,,,,,,,,,,,,,,,,,,,,,,,,,,,,,,,,,,,,,,,,,30,,,,,,,,838.2092633000575,838.2092633000575,838.2092633000575,838.2092633000575,838.2092633000575,return,1.0271077000070363,0,1,0,0,0.32,0.16,return,0.9478362000081688,9,-1,0.32,0.16,,,,,,,,,,,,,,,,,,,,,,,,,,,,,,,,,,,,,,,,,,,,,,,,,,,,,,,,7NQM7N,train_y,red_square,bottom_right,2025-08-21_10h51.48.483,HideSeek_v1,2022.2.5,60.03348666827258,
,6,3,6,6,0,3,13,,train_dim1_1,7,30,,,,2,0,2,0,,,,,,,,,0,0,0,0,0,6,6,6,0,0,0,0,,,,,,,,,,,,,,,,,,,,,,,,,stimuli/alien_stimuli/13.png,,,,,,,,,,,,,,,,,,,,,,,,,,,,,stimuli/alien_stimuli/12.png,12,6,8,,,,,,,30,,,,,,,,860.3371113999747,860.3371113999747,860.3371113999747,860.3371113999747,860.3371113999747,up,8.744019500212744,0,1,0,99,0.32,-0.08,up,8.635191799839959,,,,,858.7592538001481,860.3371113999747,0.32,0.24,0.32,0.0,0.07999999999999999,0.32,0.32,0.32,0.24,840.811607300071,840.811607300071,840.811607300071,840.811607300071,840.811607300071,840.811607300071,840.811607300071,840.811607300071,840.810796959931,18.067070699995384,return,17.927035799715668,,,,,,,,,,,,,,,,,,,,,,,,,,,,,,,,,7NQM7N,train_y,red_square,bottom_right,2025-08-21_10h51.48.483,HideSeek_v1,2022.2.5,60.03348666827258,
,6,3,6,6,0,3,13,,train_dim1_1,7,30,,,,2,0,2,0,,,,,,,,,0,0,0,0,0,6,6,6,1,0,1,0,,,,,,,,,,,,,,,,,,,,,,,,,,,,,,,,,,,,,,,,,,,,,,,,,,,,,,,,,,,,,,,,30,,,,,,,,869.0688855999615,869.0688855999615,869.0688855999615,869.0688855999615,869.0688855999615,up,0.5432551000267267,0,1,0,99,0.32,0.0,up,0.4541686000302434,,,,,,,,,,,,,,,,,,,,,,,,,,,,,,,,,,,,,,,,,,,,,,,,,,,,,,,,,,,,7NQM7N,train_y,red_square,bottom_right,2025-08-21_10h51.48.483,HideSeek_v1,2022.2.5,60.03348666827258,
,6,3,6,6,0,3,13,,train_dim1_1,7,30,,,,2,0,2,0,,,,,,,,,0,0,0,0,0,6,6,6,2,0,2,0,,,,,,,,,,,,,,,,,,,,,,,,,,,,,,,,,,,,,,,,,,,,,,,,,,,,,,,,,,,,,,,,30,,,,,,,,869.6186447001528,869.6186447001528,869.6186447001528,869.6186447001528,869.6186447001528,up,0.4434293999802321,0,1,0,99,0.32,0.08,up,0.35640729987062514,,,,,,,,,,,,,,,,,,,,,,,,,,,,,,,,,,,,,,,,,,,,,,,,,,,,,,,,,,,,7NQM7N,train_y,red_square,bottom_right,2025-08-21_10h51.48.483,HideSeek_v1,2022.2.5,60.03348666827258,
,6,3,6,6,0,3,13,,train_dim1_1,7,30,,,,2,0,2,0,,,,,,,,,0,0,0,0,0,6,6,6,3,0,3,0,,,,,,,,,,,,,,,,,,,,,,,,,,,,,,,,,,,,,,,,,,,,,,,,,,,,,,,,,,,,,,,,30,,,,,,,,870.0690514999442,870.0690514999442,870.0690514999442,870.0690514999442,870.0690514999442,up,0.4266985999420285,0,1,0,99,0.32,0.16,up,0.33499849983491004,,,,,,,,,,,,,,,,,,,,,,,,,,,,,,,,,,,,,,,,,,,,,,,,,,,,,,,,,,,,7NQM7N,train_y,red_square,bottom_right,2025-08-21_10h51.48.483,HideSeek_v1,2022.2.5,60.03348666827258,
,6,3,6,6,0,3,13,,train_dim1_1,7,30,,,,2,0,2,0,,,,,,,,,0,0,0,0,0,6,6,6,4,0,4,0,,,,,,,,,,,,,,,,,,,,,,,,,,,,,,,,,,,,,,,,,,,,,,,,,,,,,,,,,,,,,,,,30,,,,,,,,870.5020826000255,870.5020826000255,870.5020826000255,870.5020826000255,870.5020826000255,up,0.4605663998518139,0,1,0,99,0.32,0.24,up,0.3834920998197049,,,,,,,,,,,,,,,,,,,,,,,,,,,,,,,,,,,,,,,,,,,,,,,,,,,,,,,,,,,,7NQM7N,train_y,red_square,bottom_right,2025-08-21_10h51.48.483,HideSeek_v1,2022.2.5,60.03348666827258,
,6,3,6,6,0,3,13,,train_dim1_1,7,30,,,,2,0,2,0,,,,,,,,,0,0,0,0,0,6,6,6,5,0,5,0,,,,,,,,,,,,,,,,,,,,,,,,,,,,,,,,,,,,,,,,,,,,,,,,,,,,,,,,,,,,,,,,30,,,,,,,,870.9701364999637,870.9701364999637,870.9701364999637,870.9701364999637,870.9701364999637,return,0.9934902000240982,0,0,0,0,0.32,0.24,return,0.9130333997309208,14,-1,0.32,0.24,,,,,,,,,,,,,,,,,,,,,,,,,,,,,,,,,,,,,,,,,,,,,,,,,,,,,,,,7NQM7N,train_y,red_square,bottom_right,2025-08-21_10h51.48.483,HideSeek_v1,2022.2.5,60.03348666827258,
,9,2,9,7,0,5,11,,train_dim1_1,8,30,,,,2,0,2,0,,,,,,,,,0,0,0,0,0,7,7,7,0,0,0,0,,,,,,,,,,,,,,,,,,,,,,,,,stimuli/alien_stimuli/11.png,,,,,,,,,,,,,,,,,,,,,,,,,,,,,stimuli/alien_stimuli/13.png,13,6,9,,,,,,,30,,,,,,,,880.0656163999811,880.0656163999811,880.0656163999811,880.0656163999811,880.0656163999811,left,5.059527300065383,0,0,0,99,0.48000000000000004,-0.24,left,4.967171199852601,,,,,878.5088915999513,880.0656163999811,0.32,0.08,0.24,0.0,-0.04,0.32,0.32,0.32,0.08,873.534542700043,873.534542700043,873.534542700043,873.534542700043,873.534542700043,873.534542700043,873.534542700043,873.534542700043,873.5212346900721,5.090033499989659,return,4.949875999940559,,,,,,,,,,,,,,,,,,,,,,,,,,,,,,,,,7NQM7N,train_y,red_square,bottom_right,2025-08-21_10h51.48.483,HideSeek_v1,2022.2.5,60.03348666827258,
,9,2,9,7,0,5,11,,train_dim1_1,8,30,,,,2,0,2,0,,,,,,,,,0,0,0,0,0,7,7,7,1,0,1,0,,,,,,,,,,,,,,,,,,,,,,,,,,,,,,,,,,,,,,,,,,,,,,,,,,,,,,,,,,,,,,,,30,,,,,,,,885.1323768999428,885.1323768999428,885.1323768999428,885.1323768999428,885.1323768999428,left,0.3762129000388086,0,0,0,99,0.4,-0.24,left,0.29049309995025396,,,,,,,,,,,,,,,,,,,,,,,,,,,,,,,,,,,,,,,,,,,,,,,,,,,,,,,,,,,,7NQM7N,train_y,red_square,bottom_right,2025-08-21_10h51.48.483,HideSeek_v1,2022.2.5,60.03348666827258,
,9,2,9,7,0,5,11,,train_dim1_1,8,30,,,,2,0,2,0,,,,,,,,,0,0,0,0,0,7,7,7,2,0,2,0,,,,,,,,,,,,,,,,,,,,,,,,,,,,,,,,,,,,,,,,,,,,,,,,,,,,,,,,,,,,,,,,30,,,,,,,,885.5152565001044,885.5152565001044,885.5152565001044,885.5152565001044,885.5152565001044,left,0.4264468001201749,0,0,0,99,0.32,-0.24,left,0.34242359991185367,,,,,,,,,,,,,,,,,,,,,,,,,,,,,,,,,,,,,,,,,,,,,,,,,,,,,,,,,,,,7NQM7N,train_y,red_square,bottom_right,2025-08-21_10h51.48.483,HideSeek_v1,2022.2.5,60.03348666827258,
,9,2,9,7,0,5,11,,train_dim1_1,8,30,,,,2,0,2,0,,,,,,,,,0,0,0,0,0,7,7,7,3,0,3,0,,,,,,,,,,,,,,,,,,,,,,,,,,,,,,,,,,,,,,,,,,,,,,,,,,,,,,,,,,,,,,,,30,,,,,,,,885.9484522999264,885.9484522999264,885.9484522999264,885.9484522999264,885.9484522999264,left,0.4267436000518501,0,0,0,99,0.24,-0.24,left,0.35004379972815514,,,,,,,,,,,,,,,,,,,,,,,,,,,,,,,,,,,,,,,,,,,,,,,,,,,,,,,,,,,,7NQM7N,train_y,red_square,bottom_right,2025-08-21_10h51.48.483,HideSeek_v1,2022.2.5,60.03348666827258,
,9,2,9,7,0,5,11,,train_dim1_1,8,30,,,,2,0,2,0,,,,,,,,,0,0,0,0,0,7,7,7,4,0,4,0,,,,,,,,,,,,,,,,,,,,,,,,,,,,,,,,,,,,,,,,,,,,,,,,,,,,,,,,,,,,,,,,30,,,,,,,,886.381587299984,886.381587299984,886.381587299984,886.381587299984,886.381587299984,return,0.7768836000468582,0,0,0,0,0.24,-0.24,return,0.7003868999890983,14,-5,0.24,-0.24,,,,,,,,,,,,,,,,,,,,,,,,,,,,,,,,,,,,,,,,,,,,,,,,,,,,,,,,7NQM7N,train_y,red_square,bottom_right,2025-08-21_10h51.48.483,HideSeek_v1,2022.2.5,60.03348666827258,
,9,3,9,4,0,1,15,,train_dim1_1,9,30,,,,2,0,2,0,,,,,,,,,0,0,0,0,0,8,8,8,0,0,0,0,,,,,,,,,,,,,,,,,,,,,,,,,stimuli/alien_stimuli/15.png,,,,,,,,,,,,,,,,,,,,,,,,,,,,,stimuli/alien_stimuli/11.png,11,9,10,,,,,,,30,,,,,,,,894.2275882000104,894.2275882000104,894.2275882000104,894.2275882000104,894.2275882000104,return,7.5456701999064535,0,1,0,0,0.56,-0.16,return,7.468267299933359,14,-5,0.56,-0.16,892.6704933999572,894.2275882000104,0.56,0.16,0.4,0.0,-0.039999999999999994,0.56,0.56,0.56,0.16,888.7324213001411,888.7324213001411,888.7324213001411,888.7324213001411,888.7324213001411,888.7324213001411,888.7324213001411,888.7324213001411,888.7342927599326,4.055275900056586,return,3.9142817999236286,,,,,,,,,,,,,,,,,,,,,,,,,,,,,,,,,7NQM7N,train_y,red_square,bottom_right,2025-08-21_10h51.48.483,HideSeek_v1,2022.2.5,60.03348666827258,
,7,2,7,2,0,0,16,,train_dim1_1,10,30,,,,2,0,2,0,,,,,,,,,0,0,0,0,0,9,9,9,0,0,0,0,,,,,,,,,,,,,,,,,,,,,,,,,stimuli/alien_stimuli/16.png,,,,,,,,,,,,,,,,,,,,,,,,,,,,,stimuli/alien_stimuli/15.png,15,9,11,,,,,,,30,,,,,,,,911.5241599001456,911.5241599001456,911.5241599001456,911.5241599001456,911.5241599001456,return,11.465612899977714,1,0,0,1,0.4,-0.24,return,11.375346899963915,14,-5,0.4,-0.24,909.9684661999345,911.5241599001456,0.56,-0.08,0.08,0.0,-0.12,0.56,0.56,0.56,-0.08,903.3416140000336,903.3416140000336,903.3416140000336,903.3416140000336,903.3416140000336,903.3416140000336,903.3416140000336,903.3416140000336,903.3292441899889,6.74125159997493,return,6.597312599886209,,,,,,,,,,,,,,,,,,,,,,,,,,,,,,,,,7NQM7N,train_y,red_square,bottom_right,2025-08-21_10h51.48.483,HideSeek_v1,2022.2.5,60.03348666827258,
,9,1,9,2,0,1,15,,train_dim1_1,11,30,,,,2,0,2,0,,,,,,,,,0,0,0,0,0,10,10,10,0,0,0,0,,,,,,,,,,,,,,,,,,,,,,,,,stimuli/alien_stimuli/15.png,,,,,,,,,,,,,,,,,,,,,,,,,,,,,stimuli/alien_stimuli/16.png,16,7,12,,,,,,,30,,,,,,,,932.7597479000688,932.7597479000688,932.7597479000688,932.7597479000688,932.7597479000688,up,3.34067860012874,1,0,0,99,0.56,-0.24,up,3.2615114997606725,,,,,931.2026281999424,932.7597479000688,0.4,-0.24,0.0,0.0,-0.24,0.4,0.4,0.4,-0.24,924.5764405000955,924.5764405000955,924.5764405000955,924.5764405000955,924.5764405000955,924.5764405000955,924.5764405000955,924.5764405000955,924.5638938598801,6.757715000072494,return,6.603275999892503,,,,,,,,,,,,,,,,,,,,,,,,,,,,,,,,,7NQM7N,train_y,red_square,bottom_right,2025-08-21_10h51.48.483,HideSeek_v1,2022.2.5,60.03348666827258,
,9,1,9,2,0,1,15,,train_dim1_1,11,30,,,,2,0,2,0,,,,,,,,,0,0,0,0,0,10,10,10,1,0,1,0,,,,,,,,,,,,,,,,,,,,,,,,,,,,,,,,,,,,,,,,,,,,,,,,,,,,,,,,,,,,,,,,30,,,,,,,,936.1074888999574,936.1074888999574,936.1074888999574,936.1074888999574,936.1074888999574,up,0.5092243000399321,1,0,0,99,0.56,-0.15999999999999998,up,0.4251195997931063,,,,,,,,,,,,,,,,,,,,,,,,,,,,,,,,,,,,,,,,,,,,,,,,,,,,,,,,,,,,7NQM7N,train_y,red_square,bottom_right,2025-08-21_10h51.48.483,HideSeek_v1,2022.2.5,60.03348666827258,
,9,1,9,2,0,1,15,,train_dim1_1,11,30,,,,2,0,2,0,,,,,,,,,0,0,0,0,0,10,10,10,2,0,2,0,,,,,,,,,,,,,,,,,,,,,,,,,,,,,,,,,,,,,,,,,,,,,,,,,,,,,,,,,,,,,,,,30,,,,,,,,936.6234876001254,936.6234876001254,936.6234876001254,936.6234876001254,936.6234876001254,up,0.5607289001345634,1,0,0,99,0.56,-0.07999999999999997,up,0.47756709973327816,,,,,,,,,,,,,,,,,,,,,,,,,,,,,,,,,,,,,,,,,,,,,,,,,,,,,,,,,,,,7NQM7N,train_y,red_square,bottom_right,2025-08-21_10h51.48.483,HideSeek_v1,2022.2.5,60.03348666827258,
,9,1,9,2,0,1,15,,train_dim1_1,11,30,,,,2,0,2,0,,,,,,,,,0,0,0,0,0,10,10,10,3,0,3,0,,,,,,,,,,,,,,,,,,,,,,,,,,,,,,,,,,,,,,,,,,,,,,,,,,,,,,,,,,,,,,,,30,,,,,,,,937.1921630001161,937.1921630001161,937.1921630001161,937.1921630001161,937.1921630001161,return,0.8605382998939604,1,0,0,0,0.56,-0.07999999999999997,return,0.7727991999126971,17,-5,0.56,-0.07999999999999997,,,,,,,,,,,,,,,,,,,,,,,,,,,,,,,,,,,,,,,,,,,,,,,,,,,,,,,,7NQM7N,train_y,red_square,bottom_right,2025-08-21_10h51.48.483,HideSeek_v1,2022.2.5,60.03348666827258,
,5,0,5,5,0,5,11,,train_dim1_1,12,30,,,,2,0,2,0,,,,,,,,,0,0,0,0,0,11,11,11,0,0,0,0,,,,,,,,,,,,,,,,,,,,,,,,,stimuli/alien_stimuli/11.png,,,,,,,,,,,,,,,,,,,,,,,,,,,,,stimuli/alien_stimuli/15.png,15,9,13,,,,,,,30,,,,,,,,945.3358040000312,945.3358040000312,945.3358040000312,945.3358040000312,945.3358040000312,up,4.492783700115979,1,0,0,99,0.24,-0.32,up,4.414907399797812,,,,,943.7796076999512,945.3358040000312,0.56,-0.24,0.08,0.0,-0.28,0.56,0.56,0.56,-0.24,939.6275134999305,939.6275134999305,939.6275134999305,939.6275134999305,939.6275134999305,939.6275134999305,939.6275134999305,939.6275134999305,939.6262645599433,4.27241550013423,return,4.125331199960783,,,,,,,,,,,,,,,,,,,,,,,,,,,,,,,,,7NQM7N,train_y,red_square,bottom_right,2025-08-21_10h51.48.483,HideSeek_v1,2022.2.5,60.03348666827258,
,5,0,5,5,0,5,11,,train_dim1_1,12,30,,,,2,0,2,0,,,,,,,,,0,0,0,0,0,11,11,11,1,0,1,0,,,,,,,,,,,,,,,,,,,,,,,,,,,,,,,,,,,,,,,,,,,,,,,,,,,,,,,,,,,,,,,,30,,,,,,,,949.8369299999904,949.8369299999904,949.8369299999904,949.8369299999904,949.8369299999904,right,2.678277000086382,1,0,0,99,0.32,-0.32,right,2.5954199999105185,,,,,,,,,,,,,,,,,,,,,,,,,,,,,,,,,,,,,,,,,,,,,,,,,,,,,,,,,,,,7NQM7N,train_y,red_square,bottom_right,2025-08-21_10h51.48.483,HideSeek_v1,2022.2.5,60.03348666827258,
,5,0,5,5,0,5,11,,train_dim1_1,12,30,,,,2,0,2,0,,,,,,,,,0,0,0,0,0,11,11,11,2,0,2,0,,,,,,,,,,,,,,,,,,,,,,,,,,,,,,,,,,,,,,,,,,,,,,,,,,,,,,,,,,,,,,,,30,,,,,,,,952.5204535999801,952.5204535999801,952.5204535999801,952.5204535999801,952.5204535999801,right,2.6954749999567866,1,0,0,99,0.4,-0.32,right,2.6057978000026196,,,,,,,,,,,,,,,,,,,,,,,,,,,,,,,,,,,,,,,,,,,,,,,,,,,,,,,,,,,,7NQM7N,train_y,red_square,bottom_right,2025-08-21_10h51.48.483,HideSeek_v1,2022.2.5,60.03348666827258,
,5,0,5,5,0,5,11,,train_dim1_1,12,30,,,,2,0,2,0,,,,,,,,,0,0,0,0,0,11,11,11,3,0,3,0,,,,,,,,,,,,,,,,,,,,,,,,,,,,,,,,,,,,,,,,,,,,,,,,,,,,,,,,,,,,,,,,30,,,,,,,,955.2275917001534,955.2275917001534,955.2275917001534,955.2275917001534,955.2275917001534,return,1.2573263000231236,1,0,0,0,0.4,-0.32,return,1.169145899824798,18,-3,0.4,-0.32,,,,,,,,,,,,,,,,,,,,,,,,,,,,,,,,,,,,,,,,,,,,,,,,,,,,,,,,7NQM7N,train_y,red_square,bottom_right,2025-08-21_10h51.48.483,HideSeek_v1,2022.2.5,60.03348666827258,
,9,3,9,7,0,4,12,,train_dim1_1,13,30,,,,2,0,2,0,,,,,,,,,0,0,0,0,0,12,12,12,0,0,0,0,,,,,,,,,,,,,,,,,,,,,,,,,stimuli/alien_stimuli/12.png,,,,,,,,,,,,,,,,,,,,,,,,,,,,,stimuli/alien_stimuli/11.png,11,5,14,,,,,,,30,,,,,,,,963.2862595999613,963.2862595999613,963.2862595999613,963.2862595999613,963.2862595999613,up,3.9070025000255555,1,0,0,99,0.56,-0.08,up,3.8157498999498785,,,,,961.7280351000372,963.2862595999613,0.24,0,0.4,0.0,-0.2,0.24,0.24,0.24,0,958.0566160001326,958.0566160001326,958.0566160001326,958.0566160001326,958.0566160001326,958.0566160001326,958.0566160001326,958.0566160001326,958.0415535900743,3.7889743000268936,return,3.6535305997822434,,,,,,,,,,,,,,,,,,,,,,,,,,,,,,,,,7NQM7N,train_y,red_square,bottom_right,2025-08-21_10h51.48.483,HideSeek_v1,2022.2.5,60.03348666827258,
,9,3,9,7,0,4,12,,train_dim1_1,13,30,,,,2,0,2,0,,,,,,,,,0,0,0,0,0,12,12,12,1,0,1,0,,,,,,,,,,,,,,,,,,,,,,,,,,,,,,,,,,,,,,,,,,,,,,,,,,,,,,,,,,,,,,,,30,,,,,,,,967.1996238001157,967.1996238001157,967.1996238001157,967.1996238001157,967.1996238001157,up,0.47618269990198314,1,0,0,99,0.56,0.0,up,0.39124149992130697,,,,,,,,,,,,,,,,,,,,,,,,,,,,,,,,,,,,,,,,,,,,,,,,,,,,,,,,,,,,7NQM7N,train_y,red_square,bottom_right,2025-08-21_10h51.48.483,HideSeek_v1,2022.2.5,60.03348666827258,
,9,3,9,7,0,4,12,,train_dim1_1,13,30,,,,2,0,2,0,,,,,,,,,0,0,0,0,0,12,12,12,2,0,2,0,,,,,,,,,,,,,,,,,,,,,,,,,,,,,,,,,,,,,,,,,,,,,,,,,,,,,,,,,,,,,,,,30,,,,,,,,967.684067199938,967.684067199938,967.684067199938,967.684067199938,967.684067199938,up,0.4267406000290066,1,0,0,99,0.56,0.08,up,0.3446265999227762,,,,,,,,,,,,,,,,,,,,,,,,,,,,,,,,,,,,,,,,,,,,,,,,,,,,,,,,,,,,7NQM7N,train_y,red_square,bottom_right,2025-08-21_10h51.48.483,HideSeek_v1,2022.2.5,60.03348666827258,
,9,3,9,7,0,4,12,,train_dim1_1,13,30,,,,2,0,2,0,,,,,,,,,0,0,0,0,0,12,12,12,3,0,3,0,,,,,,,,,,,,,,,,,,,,,,,,,,,,,,,,,,,,,,,,,,,,,,,,,,,,,,,,,,,,,,,,30,,,,,,,,968.1176332000177,968.1176332000177,968.1176332000177,968.1176332000177,968.1176332000177,return,1.1105194999836385,1,1,0,0,0.56,0.08,return,1.0288581000640988,21,-3,0.56,0.08,,,,,,,,,,,,,,,,,,,,,,,,,,,,,,,,,,,,,,,,,,,,,,,,,,,,,,,,7NQM7N,train_y,red_square,bottom_right,2025-08-21_10h51.48.483,HideSeek_v1,2022.2.5,60.03348666827258,
,7,2,7,2,0,0,16,,train_dim1_1,14,30,,,,2,0,2,0,,,,,,,,,0,0,0,0,0,13,13,13,0,0,0,0,,,,,,,,,,,,,,,,,,,,,,,,,stimuli/alien_stimuli/16.png,,,,,,,,,,,,,,,,,,,,,,,,,,,,,stimuli/alien_stimuli/12.png,12,9,15,,,,,,,30,,,,,,,,977.8151114000939,977.8151114000939,977.8151114000939,977.8151114000939,977.8151114000939,up,1.7217893998604268,1,1,0,99,0.4,-0.15999999999999998,up,1.629043199820444,,,,,976.256604900118,977.8151114000939,0.56,0.16,0.32,0.0,0.0,0.56,0.56,0.56,0.16,970.8019493999891,970.8019493999891,970.8019493999891,970.8019493999891,970.8019493999891,970.8019493999891,970.8019493999891,970.8019493999891,970.8022236599587,5.573172300122678,return,5.4265675998758525,,,,,,,,,,,,,,,,,,,,,,,,,,,,,,,,,7NQM7N,train_y,red_square,bottom_right,2025-08-21_10h51.48.483,HideSeek_v1,2022.2.5,60.03348666827258,
,7,2,7,2,0,0,16,,train_dim1_1,14,30,,,,2,0,2,0,,,,,,,,,0,0,0,0,0,13,13,13,1,0,1,0,,,,,,,,,,,,,,,,,,,,,,,,,,,,,,,,,,,,,,,,,,,,,,,,,,,,,,,,,,,,,,,,30,,,,,,,,979.543104399927,979.543104399927,979.543104399927,979.543104399927,979.543104399927,return,0.7265695000533015,1,1,0,0,0.4,-0.15999999999999998,return,0.6421384999994189,22,-3,0.4,-0.15999999999999998,,,,,,,,,,,,,,,,,,,,,,,,,,,,,,,,,,,,,,,,,,,,,,,,,,,,,,,,7NQM7N,train_y,red_square,bottom_right,2025-08-21_10h51.48.483,HideSeek_v1,2022.2.5,60.03348666827258,
,6,4,6,7,0,3,13,,train_dim1_1,15,30,,,,2,0,2,0,,,,,,,,,0,0,0,0,0,14,14,14,0,0,0,0,,,,,,,,,,,,,,,,,,,,,,,,,stimuli/alien_stimuli/13.png,,,,,,,,,,,,,,,,,,,,,,,,,,,,,stimuli/alien_stimuli/16.png,16,7,16,,,,,,,30,,,,,,,,987.7373403999954,987.7373403999954,987.7373403999954,987.7373403999954,987.7373403999954,up,3.342962000053376,1,1,0,99,0.32,0.0,up,3.2603937997482717,,,,,986.1811731001362,987.7373403999954,0.4,-0.24,0.0,0.0,-0.24,0.4,0.4,0.4,-0.24,981.8388841999695,981.8388841999695,981.8388841999695,981.8388841999695,981.8388841999695,981.8388841999695,981.8388841999695,981.8388841999695,981.8280180900824,4.455647200113162,return,4.325580099830404,,,,,,,,,,,,,,,,,,,,,,,,,,,,,,,,,7NQM7N,train_y,red_square,bottom_right,2025-08-21_10h51.48.483,HideSeek_v1,2022.2.5,60.03348666827258,
,6,4,6,7,0,3,13,,train_dim1_1,15,30,,,,2,0,2,0,,,,,,,,,0,0,0,0,0,14,14,14,1,0,1,0,,,,,,,,,,,,,,,,,,,,,,,,,,,,,,,,,,,,,,,,,,,,,,,,,,,,,,,,,,,,,,,,30,,,,,,,,991.0869503000285,991.0869503000285,991.0869503000285,991.0869503000285,991.0869503000285,up,0.4755931000690907,1,1,0,99,0.32,0.08,up,0.3944012997671962,,,,,,,,,,,,,,,,,,,,,,,,,,,,,,,,,,,,,,,,,,,,,,,,,,,,,,,,,,,,7NQM7N,train_y,red_square,bottom_right,2025-08-21_10h51.48.483,HideSeek_v1,2022.2.5,60.03348666827258,
,6,4,6,7,0,3,13,,train_dim1_1,15,30,,,,2,0,2,0,,,,,,,,,0,0,0,0,0,14,14,14,2,0,2,0,,,,,,,,,,,,,,,,,,,,,,,,,,,,,,,,,,,,,,,,,,,,,,,,,,,,,,,,,,,,,,,,30,,,,,,,,991.5695535999257,991.5695535999257,991.5695535999257,991.5695535999257,991.5695535999257,up,0.543266799999401,1,1,0,99,0.32,0.16,up,0.4552026998717338,,,,,,,,,,,,,,,,,,,,,,,,,,,,,,,,,,,,,,,,,,,,,,,,,,,,,,,,,,,,7NQM7N,train_y,red_square,bottom_right,2025-08-21_10h51.48.483,HideSeek_v1,2022.2.5,60.03348666827258,
,6,4,6,7,0,3,13,,train_dim1_1,15,30,,,,2,0,2,0,,,,,,,,,0,0,0,0,0,14,14,14,3,0,3,0,,,,,,,,,,,,,,,,,,,,,,,,,,,,,,,,,,,,,,,,,,,,,,,,,,,,,,,,,,,,,,,,30,,,,,,,,992.1199237999972,992.1199237999972,992.1199237999972,992.1199237999972,992.1199237999972,up,0.5602508001029491,1,1,0,99,0.32,0.24,up,0.4714976998511702,,,,,,,,,,,,,,,,,,,,,,,,,,,,,,,,,,,,,,,,,,,,,,,,,,,,,,,,,,,,7NQM7N,train_y,red_square,bottom_right,2025-08-21_10h51.48.483,HideSeek_v1,2022.2.5,60.03348666827258,
,6,4,6,7,0,3,13,,train_dim1_1,15,30,,,,2,0,2,0,,,,,,,,,0,0,0,0,0,14,14,14,4,0,4,0,,,,,,,,,,,,,,,,,,,,,,,,,,,,,,,,,,,,,,,,,,,,,,,,,,,,,,,,,,,,,,,,30,,,,,,,,992.6874160000589,992.6874160000589,992.6874160000589,992.6874160000589,992.6874160000589,return,0.7269904999993742,1,1,0,0,0.32,0.24,return,0.637917899992317,26,-3,0.32,0.24,,,,,,,,,,,,,,,,,,,,,,,,,,,,,,,,,,,,,,,,,,,,,,,,,,,,,,,,7NQM7N,train_y,red_square,bottom_right,2025-08-21_10h51.48.483,HideSeek_v1,2022.2.5,60.03348666827258,
,9,0,9,1,0,1,15,,train_dim1_1,16,30,,,,2,0,2,0,,,,,,,,,0,0,0,0,0,15,15,15,0,0,0,0,,,,,,,,,,,,,,,,,,,,,,,,,stimuli/alien_stimuli/15.png,,,,,,,,,,,,,,,,,,,,,,,,,,,,,stimuli/alien_stimuli/13.png,13,6,17,,,,,,,30,,,,,,,,1000.9832854000852,1000.9832854000852,1000.9832854000852,1000.9832854000852,1000.9832854000852,up,5.075259199831635,1,1,0,99,0.56,-0.32,up,4.99306709994562,,,,,999.4259373000823,1000.9832854000852,0.32,0.16,0.24,0.0,0.04,0.32,0.32,0.32,0.16,994.9897046000697,994.9897046000697,994.9897046000697,994.9897046000697,994.9897046000697,994.9897046000697,994.9897046000697,994.9897046000697,994.9888341600541,4.555968199856579,return,4.406808199826628,,,,,,,,,,,,,,,,,,,,,,,,,,,,,,,,,7NQM7N,train_y,red_square,bottom_right,2025-08-21_10h51.48.483,HideSeek_v1,2022.2.5,60.03348666827258,
,9,0,9,1,0,1,15,,train_dim1_1,16,30,,,,2,0,2,0,,,,,,,,,0,0,0,0,0,15,15,15,1,0,1,0,,,,,,,,,,,,,,,,,,,,,,,,,,,,,,,,,,,,,,,,,,,,,,,,,,,,,,,,,,,,,,,,30,,,,,,,,1006.0670919001568,1006.0670919001568,1006.0670919001568,1006.0670919001568,1006.0670919001568,return,0.4265097000170499,2,0,0,1,0.56,-0.32,return,0.343014599988237,27,-3,0.56,-0.32,,,,,,,,,,,,,,,,,,,,,,,,,,,,,,,,,,,,,,,,,,,,,,,,,,,,,,,,7NQM7N,train_y,red_square,bottom_right,2025-08-21_10h51.48.483,HideSeek_v1,2022.2.5,60.03348666827258,
,8,3,8,6,0,3,13,,train_dim1_1,17,30,,,,2,0,2,0,,,,,,,,,0,0,0,0,0,16,16,16,0,0,0,0,,,,,,,,,,,,,,,,,,,,,,,,,stimuli/alien_stimuli/13.png,,,,,,,,,,,,,,,,,,,,,,,,,,,,,stimuli/alien_stimuli/15.png,15,9,18,,,,,,,30,,,,,,,,1015.7966332000215,1015.7966332000215,1015.7966332000215,1015.7966332000215,1015.7966332000215,up,4.3072374002076685,2,0,0,99,0.48,-0.08,up,4.225573299918324,,,,,1014.2382736001164,1015.7966332000215,0.56,-0.32,0.08,0.0,-0.36,0.56,0.56,0.56,-0.32,1008.0655276000034,1008.0655276000034,1008.0655276000034,1008.0655276000034,1008.0655276000034,1008.0655276000034,1008.0655276000034,1008.0655276000034,1008.0663200599607,6.290984699968249,return,6.15394529979676,,,,,,,,,,,,,,,,,,,,,,,,,,,,,,,,,7NQM7N,train_y,red_square,bottom_right,2025-08-21_10h51.48.483,HideSeek_v1,2022.2.5,60.03348666827258,
,8,3,8,6,0,3,13,,train_dim1_1,17,30,,,,2,0,2,0,,,,,,,,,0,0,0,0,0,16,16,16,1,0,1,0,,,,,,,,,,,,,,,,,,,,,,,,,,,,,,,,,,,,,,,,,,,,,,,,,,,,,,,,,,,,,,,,30,,,,,,,,1020.1106070000678,1020.1106070000678,1020.1106070000678,1020.1106070000678,1020.1106070000678,up,0.6094279000535607,2,0,0,99,0.48,0.0,up,0.5283633000217378,,,,,,,,,,,,,,,,,,,,,,,,,,,,,,,,,,,,,,,,,,,,,,,,,,,,,,,,,,,,7NQM7N,train_y,red_square,bottom_right,2025-08-21_10h51.48.483,HideSeek_v1,2022.2.5,60.03348666827258,
,8,3,8,6,0,3,13,,train_dim1_1,17,30,,,,2,0,2,0,,,,,,,,,0,0,0,0,0,16,16,16,2,0,2,0,,,,,,,,,,,,,,,,,,,,,,,,,,,,,,,,,,,,,,,,,,,,,,,,,,,,,,,,,,,,,,,,30,,,,,,,,1020.7267209999263,1020.7267209999263,1020.7267209999263,1020.7267209999263,1020.7267209999263,up,0.5939354998990893,2,0,0,99,0.48,0.08,up,0.5064460998401046,,,,,,,,,,,,,,,,,,,,,,,,,,,,,,,,,,,,,,,,,,,,,,,,,,,,,,,,,,,,7NQM7N,train_y,red_square,bottom_right,2025-08-21_10h51.48.483,HideSeek_v1,2022.2.5,60.03348666827258,
,8,3,8,6,0,3,13,,train_dim1_1,17,30,,,,2,0,2,0,,,,,,,,,0,0,0,0,0,16,16,16,3,0,3,0,,,,,,,,,,,,,,,,,,,,,,,,,,,,,,,,,,,,,,,,,,,,,,,,,,,,,,,,,,,,,,,,30,,,,,,,,1021.3312482000329,1021.3312482000329,1021.3312482000329,1021.3312482000329,1021.3312482000329,up,0.8086356001440436,2,0,0,99,0.48,0.16,up,0.7225219998508692,,,,,,,,,,,,,,,,,,,,,,,,,,,,,,,,,,,,,,,,,,,,,,,,,,,,,,,,,,,,7NQM7N,train_y,red_square,bottom_right,2025-08-21_10h51.48.483,HideSeek_v1,2022.2.5,60.03348666827258,
,8,3,8,6,0,3,13,,train_dim1_1,17,30,,,,2,0,2,0,,,,,,,,,0,0,0,0,0,16,16,16,4,0,4,0,,,,,,,,,,,,,,,,,,,,,,,,,,,,,,,,,,,,,,,,,,,,,,,,,,,,,,,,,,,,,,,,30,,,,,,,,1022.1462856000289,1022.1462856000289,1022.1462856000289,1022.1462856000289,1022.1462856000289,down,1.928086900152266,2,0,0,99,0.48,0.08,down,1.8450490997638553,,,,,,,,,,,,,,,,,,,,,,,,,,,,,,,,,,,,,,,,,,,,,,,,,,,,,,,,,,,,7NQM7N,train_y,red_square,bottom_right,2025-08-21_10h51.48.483,HideSeek_v1,2022.2.5,60.03348666827258,
,8,3,8,6,0,3,13,,train_dim1_1,17,30,,,,2,0,2,0,,,,,,,,,0,0,0,0,0,16,16,16,5,0,5,0,,,,,,,,,,,,,,,,,,,,,,,,,,,,,,,,,,,,,,,,,,,,,,,,,,,,,,,,,,,,,,,,30,,,,,,,,1024.0792622000445,1024.0792622000445,1024.0792622000445,1024.0792622000445,1024.0792622000445,return,0.7440392998978496,3,0,0,1,0.48,0.08,return,0.6556432999204844,30,-3,0.48,0.08,,,,,,,,,,,,,,,,,,,,,,,,,,,,,,,,,,,,,,,,,,,,,,,,,,,,,,,,7NQM7N,train_y,red_square,bottom_right,2025-08-21_10h51.48.483,HideSeek_v1,2022.2.5,60.03348666827258,
,7,1,7,6,0,5,11,,train_dim1_1,18,30,,,,2,0,2,0,,,,,,,,,0,0,0,0,0,17,17,17,0,0,0,0,,,,,,,,,,,,,,,,,,,,,,,,,stimuli/alien_stimuli/11.png,,,,,,,,,,,,,,,,,,,,,,,,,,,,,stimuli/alien_stimuli/13.png,13,8,19,,,,,,,30,,,,,,,,1032.928096699994,1032.928096699994,1032.928096699994,1032.928096699994,1032.928096699994,up,4.943205400137231,3,0,0,99,0.4,-0.24,up,4.858621299965307,,,,,1031.368965000147,1032.928096699994,0.48,0.08,0.24,0.0,-0.04,0.48,0.48,0.48,0.08,1026.3973831001204,1026.3973831001204,1026.3973831001204,1026.3973831001204,1026.3973831001204,1026.3973831001204,1026.3973831001204,1026.3973831001204,1026.3983258599417,5.09074219991453,return,4.940589899895713,,,,,,,,,,,,,,,,,,,,,,,,,,,,,,,,,7NQM7N,train_y,red_square,bottom_right,2025-08-21_10h51.48.483,HideSeek_v1,2022.2.5,60.03348666827258,
,7,1,7,6,0,5,11,,train_dim1_1,18,30,,,,2,0,2,0,,,,,,,,,0,0,0,0,0,17,17,17,1,0,1,0,,,,,,,,,,,,,,,,,,,,,,,,,,,,,,,,,,,,,,,,,,,,,,,,,,,,,,,,,,,,,,,,30,,,,,,,,1037.8760814000852,1037.8760814000852,1037.8760814000852,1037.8760814000852,1037.8760814000852,up,0.6432279001455754,3,0,0,99,0.4,-0.15999999999999998,up,0.564011899754405,,,,,,,,,,,,,,,,,,,,,,,,,,,,,,,,,,,,,,,,,,,,,,,,,,,,,,,,,,,,7NQM7N,train_y,red_square,bottom_right,2025-08-21_10h51.48.483,HideSeek_v1,2022.2.5,60.03348666827258,
,7,1,7,6,0,5,11,,train_dim1_1,18,30,,,,2,0,2,0,,,,,,,,,0,0,0,0,0,17,17,17,2,0,2,0,,,,,,,,,,,,,,,,,,,,,,,,,,,,,,,,,,,,,,,,,,,,,,,,,,,,,,,,,,,,,,,,30,,,,,,,,1038.5263408001047,1038.5263408001047,1038.5263408001047,1038.5263408001047,1038.5263408001047,up,0.4435129000339657,3,0,0,99,0.4,-0.07999999999999997,up,0.36149889999069273,,,,,,,,,,,,,,,,,,,,,,,,,,,,,,,,,,,,,,,,,,,,,,,,,,,,,,,,,,,,7NQM7N,train_y,red_square,bottom_right,2025-08-21_10h51.48.483,HideSeek_v1,2022.2.5,60.03348666827258,
,7,1,7,6,0,5,11,,train_dim1_1,18,30,,,,2,0,2,0,,,,,,,,,0,0,0,0,0,17,17,17,3,0,3,0,,,,,,,,,,,,,,,,,,,,,,,,,,,,,,,,,,,,,,,,,,,,,,,,,,,,,,,,,,,,,,,,30,,,,,,,,1038.9752056000289,1038.9752056000289,1038.9752056000289,1038.9752056000289,1038.9752056000289,return,0.7270779998507351,3,0,0,0,0.4,-0.07999999999999997,return,0.6516769998706877,33,-3,0.4,-0.07999999999999997,,,,,,,,,,,,,,,,,,,,,,,,,,,,,,,,,,,,,,,,,,,,,,,,,,,,,,,,7NQM7N,train_y,red_square,bottom_right,2025-08-21_10h51.48.483,HideSeek_v1,2022.2.5,60.03348666827258,
,5,4,5,8,0,4,12,,train_dim1_1,19,30,,,,2,0,2,0,,,,,,,,,0,0,0,0,0,18,18,18,0,0,0,0,,,,,,,,,,,,,,,,,,,,,,,,,stimuli/alien_stimuli/12.png,,,,,,,,,,,,,,,,,,,,,,,,,,,,,stimuli/alien_stimuli/11.png,11,7,20,,,,,,,30,,,,,,,,1046.6694865999743,1046.6694865999743,1046.6694865999743,1046.6694865999743,1046.6694865999743,return,3.7758696998935193,3,0,0,0,0.24,-0.08,return,3.6940871998667717,33,-3,0.24,-0.08,1045.1140119000338,1046.6694865999743,0.4,0.08,0.4,0.0,-0.12,0.4,0.4,0.4,0.08,1041.2763143000193,1041.2763143000193,1041.2763143000193,1041.2763143000193,1041.2763143000193,1041.2763143000193,1041.2763143000193,1041.2763143000193,1041.2773928599433,3.9555025999434292,return,3.81656949990429,,,,,,,,,,,,,,,,,,,,,,,,,,,,,,,,,7NQM7N,train_y,red_square,bottom_right,2025-08-21_10h51.48.483,HideSeek_v1,2022.2.5,60.03348666827258,
,7,0,7,0,0,0,16,,train_dim1_1,20,30,,,,2,0,2,0,,,,,,,,,0,0,0,0,0,19,19,19,0,0,0,0,,,,,,,,,,,,,,,,,,,,,,,,,stimuli/alien_stimuli/16.png,,,,,,,,,,,,,,,,,,,,,,,,,,,,,stimuli/alien_stimuli/12.png,12,5,21,,,,,,,30,,,,,,,,1056.7626662000548,1056.7626662000548,1056.7626662000548,1056.7626662000548,1056.7626662000548,up,2.073587500024587,3,0,0,99,0.4,-0.32,up,1.9812376997433603,,,,,1055.205553200096,1056.7626662000548,0.24,0.24,0.32,0.0,0.07999999999999999,0.24,0.24,0.24,0.24,1052.0201922999695,1052.0201922999695,1052.0201922999695,1052.0201922999695,1052.0201922999695,1052.0201922999695,1052.0201922999695,1052.0201922999695,1052.0196081599222,3.305068700108677,return,3.1583600998856127,,,,,,,,,,,,,,,,,,,,,,,,,,,,,,,,,7NQM7N,train_y,red_square,bottom_right,2025-08-21_10h51.48.483,HideSeek_v1,2022.2.5,60.03348666827258,
,7,0,7,0,0,0,16,,train_dim1_1,20,30,,,,2,0,2,0,,,,,,,,,0,0,0,0,0,19,19,19,1,0,1,0,,,,,,,,,,,,,,,,,,,,,,,,,,,,,,,,,,,,,,,,,,,,,,,,,,,,,,,,,,,,,,,,30,,,,,,,,1058.8426238000393,1058.8426238000393,1058.8426238000393,1058.8426238000393,1058.8426238000393,return,0.7098640999756753,3,1,0,0,0.4,-0.32,return,0.6179567999206483,34,-3,0.4,-0.32,,,,,,,,,,,,,,,,,,,,,,,,,,,,,,,,,,,,,,,,,,,,,,,,,,,,,,,,7NQM7N,train_y,red_square,bottom_right,2025-08-21_10h51.48.483,HideSeek_v1,2022.2.5,60.03348666827258,
,7,4,7,5,0,1,15,,train_dim1_1,21,30,,,,2,0,2,0,,,,,,,,,0,0,0,0,0,20,20,20,0,0,0,0,,,,,,,,,,,,,,,,,,,,,,,,,stimuli/alien_stimuli/15.png,,,,,,,,,,,,,,,,,,,,,,,,,,,,,stimuli/alien_stimuli/16.png,16,7,22,,,,,,,30,,,,,,,,1066.2032844000496,1066.2032844000496,1066.2032844000496,1066.2032844000496,1066.2032844000496,up,2.50767290010117,3,1,0,99,0.4,0.0,up,2.4281788000371307,,,,,1064.64677760005,1066.2032844000496,0.4,-0.4,0.0,0.0,-0.4,0.4,0.4,0.4,-0.4,1061.1060311000329,1061.1060311000329,1061.1060311000329,1061.1060311000329,1061.1060311000329,1061.1060311000329,1061.1060311000329,1061.1060311000329,1061.093846119987,3.6389814000576735,return,3.5097328000701964,,,,,,,,,,,,,,,,,,,,,,,,,,,,,,,,,7NQM7N,train_y,red_square,bottom_right,2025-08-21_10h51.48.483,HideSeek_v1,2022.2.5,60.03348666827258,
,7,4,7,5,0,1,15,,train_dim1_1,21,30,,,,2,0,2,0,,,,,,,,,0,0,0,0,0,20,20,20,1,0,1,0,,,,,,,,,,,,,,,,,,,,,,,,,,,,,,,,,,,,,,,,,,,,,,,,,,,,,,,,,,,,,,,,30,,,,,,,,1068.7180888000876,1068.7180888000876,1068.7180888000876,1068.7180888000876,1068.7180888000876,return,0.3928021998144686,4,0,0,1,0.4,0.0,return,0.3117147998418659,35,-3,0.4,0.0,,,,,,,,,,,,,,,,,,,,,,,,,,,,,,,,,,,,,,,,,,,,,,,,,,,,,,,,7NQM7N,train_y,red_square,bottom_right,2025-08-21_10h51.48.483,HideSeek_v1,2022.2.5,60.03348666827258,
,5,2,5,5,0,3,13,,train_dim1_1,22,30,,,,2,0,2,0,,,,,,,,,0,0,0,0,0,21,21,21,0,0,0,0,,,,,,,,,,,,,,,,,,,,,,,,,stimuli/alien_stimuli/13.png,,,,,,,,,,,,,,,,,,,,,,,,,,,,,stimuli/alien_stimuli/15.png,15,7,23,,,,,,,30,,,,,,,,1078.3299398999661,1078.3299398999661,1078.3299398999661,1078.3299398999661,1078.3299398999661,up,3.307419399963692,4,0,0,99,0.24,-0.15999999999999998,up,3.2259576998185366,,,,,1076.7739147001412,1078.3299398999661,0.4,0,0.08,0.0,-0.04,0.4,0.4,0.4,0,1070.6669731999282,1070.6669731999282,1070.6669731999282,1070.6669731999282,1070.6669731999282,1070.6669731999282,1070.6669731999282,1070.6669731999282,1070.6684888900259,6.20791899994947,return,6.0898939000908285,,,,,,,,,,,,,,,,,,,,,,,,,,,,,,,,,7NQM7N,train_y,red_square,bottom_right,2025-08-21_10h51.48.483,HideSeek_v1,2022.2.5,60.03348666827258,
,5,2,5,5,0,3,13,,train_dim1_1,22,30,,,,2,0,2,0,,,,,,,,,0,0,0,0,0,21,21,21,1,0,1,0,,,,,,,,,,,,,,,,,,,,,,,,,,,,,,,,,,,,,,,,,,,,,,,,,,,,,,,,,,,,,,,,30,,,,,,,,1081.6454318999313,1081.6454318999313,1081.6454318999313,1081.6454318999313,1081.6454318999313,up,0.442970700096339,4,0,0,99,0.24,-0.07999999999999997,up,0.3520719998050481,,,,,,,,,,,,,,,,,,,,,,,,,,,,,,,,,,,,,,,,,,,,,,,,,,,,,,,,,,,,7NQM7N,train_y,red_square,bottom_right,2025-08-21_10h51.48.483,HideSeek_v1,2022.2.5,60.03348666827258,
,5,2,5,5,0,3,13,,train_dim1_1,22,30,,,,2,0,2,0,,,,,,,,,0,0,0,0,0,21,21,21,2,0,2,0,,,,,,,,,,,,,,,,,,,,,,,,,,,,,,,,,,,,,,,,,,,,,,,,,,,,,,,,,,,,,,,,30,,,,,,,,1082.0943360000383,1082.0943360000383,1082.0943360000383,1082.0943360000383,1082.0943360000383,up,0.8100393998902291,4,0,0,99,0.24,2.7755575615628914e-17,up,0.7286261999979615,,,,,,,,,,,,,,,,,,,,,,,,,,,,,,,,,,,,,,,,,,,,,,,,,,,,,,,,,,,,7NQM7N,train_y,red_square,bottom_right,2025-08-21_10h51.48.483,HideSeek_v1,2022.2.5,60.03348666827258,
,5,2,5,5,0,3,13,,train_dim1_1,22,30,,,,2,0,2,0,,,,,,,,,0,0,0,0,0,21,21,21,3,0,3,0,,,,,,,,,,,,,,,,,,,,,,,,,,,,,,,,,,,,,,,,,,,,,,,,,,,,,,,,,,,,,,,,30,,,,,,,,1082.9124013001565,1082.9124013001565,1082.9124013001565,1082.9124013001565,1082.9124013001565,up,0.4939116998575628,4,0,0,99,0.24,0.08000000000000003,up,0.41483729984611273,,,,,,,,,,,,,,,,,,,,,,,,,,,,,,,,,,,,,,,,,,,,,,,,,,,,,,,,,,,,7NQM7N,train_y,red_square,bottom_right,2025-08-21_10h51.48.483,HideSeek_v1,2022.2.5,60.03348666827258,
,5,2,5,5,0,3,13,,train_dim1_1,22,30,,,,2,0,2,0,,,,,,,,,0,0,0,0,0,21,21,21,4,0,4,0,,,,,,,,,,,,,,,,,,,,,,,,,,,,,,,,,,,,,,,,,,,,,,,,,,,,,,,,,,,,,,,,30,,,,,,,,1083.418614800088,1083.418614800088,1083.418614800088,1083.418614800088,1083.418614800088,return,0.8226079000160098,4,1,0,0,0.24,0.08000000000000003,return,0.7377664998639375,39,-3,0.24,0.08000000000000003,,,,,,,,,,,,,,,,,,,,,,,,,,,,,,,,,,,,,,,,,,,,,,,,,,,,,,,,7NQM7N,train_y,red_square,bottom_right,2025-08-21_10h51.48.483,HideSeek_v1,2022.2.5,60.03348666827258,
,5,3,5,8,0,5,11,,train_dim1_1,23,30,,,,2,0,2,0,,,,,,,,,0,0,0,0,0,22,22,22,0,0,0,0,,,,,,,,,,,,,,,,,,,,,,,,,stimuli/alien_stimuli/11.png,,,,,,,,,,,,,,,,,,,,,,,,,,,,,stimuli/alien_stimuli/13.png,13,5,24,,,,,,,30,,,,,,,,1095.178008200135,1095.178008200135,1095.178008200135,1095.178008200135,1095.178008200135,up,2.5573408000636846,4,1,0,99,0.24,-0.08,up,2.475356699898839,,,,,1093.6208359000739,1095.178008200135,0.24,0,0.24,0.0,-0.12,0.24,0.24,0.24,0,1085.811003800016,1085.811003800016,1085.811003800016,1085.811003800016,1085.811003800016,1085.811003800016,1085.811003800016,1085.811003800016,1085.7977401899175,7.925325699849054,return,7.788826199946925,,,,,,,,,,,,,,,,,,,,,,,,,,,,,,,,,7NQM7N,train_y,red_square,bottom_right,2025-08-21_10h51.48.483,HideSeek_v1,2022.2.5,60.03348666827258,
,5,3,5,8,0,5,11,,train_dim1_1,23,30,,,,2,0,2,0,,,,,,,,,0,0,0,0,0,22,22,22,1,0,1,0,,,,,,,,,,,,,,,,,,,,,,,,,,,,,,,,,,,,,,,,,,,,,,,,,,,,,,,,,,,,,,,,30,,,,,,,,1097.741783299949,1097.741783299949,1097.741783299949,1097.741783299949,1097.741783299949,up,0.49313420010730624,4,1,0,99,0.24,0.0,up,0.41605879995040596,,,,,,,,,,,,,,,,,,,,,,,,,,,,,,,,,,,,,,,,,,,,,,,,,,,,,,,,,,,,7NQM7N,train_y,red_square,bottom_right,2025-08-21_10h51.48.483,HideSeek_v1,2022.2.5,60.03348666827258,
,5,3,5,8,0,5,11,,train_dim1_1,23,30,,,,2,0,2,0,,,,,,,,,0,0,0,0,0,22,22,22,2,0,2,0,,,,,,,,,,,,,,,,,,,,,,,,,,,,,,,,,,,,,,,,,,,,,,,,,,,,,,,,,,,,,,,,30,,,,,,,,1098.241810000036,1098.241810000036,1098.241810000036,1098.241810000036,1098.241810000036,up,0.42674920009449124,4,1,0,99,0.24,0.08,up,0.348981199786067,,,,,,,,,,,,,,,,,,,,,,,,,,,,,,,,,,,,,,,,,,,,,,,,,,,,,,,,,,,,7NQM7N,train_y,red_square,bottom_right,2025-08-21_10h51.48.483,HideSeek_v1,2022.2.5,60.03348666827258,
,5,3,5,8,0,5,11,,train_dim1_1,23,30,,,,2,0,2,0,,,,,,,,,0,0,0,0,0,22,22,22,3,0,3,0,,,,,,,,,,,,,,,,,,,,,,,,,,,,,,,,,,,,,,,,,,,,,,,,,,,,,,,,,,,,,,,,30,,,,,,,,1098.6751173001248,1098.6751173001248,1098.6751173001248,1098.6751173001248,1098.6751173001248,up,0.44325140002183616,4,1,0,99,0.24,0.16,up,0.3646256998181343,,,,,,,,,,,,,,,,,,,,,,,,,,,,,,,,,,,,,,,,,,,,,,,,,,,,,,,,,,,,7NQM7N,train_y,red_square,bottom_right,2025-08-21_10h51.48.483,HideSeek_v1,2022.2.5,60.03348666827258,
,5,3,5,8,0,5,11,,train_dim1_1,23,30,,,,2,0,2,0,,,,,,,,,0,0,0,0,0,22,22,22,4,0,4,0,,,,,,,,,,,,,,,,,,,,,,,,,,,,,,,,,,,,,,,,,,,,,,,,,,,,,,,,,,,,,,,,30,,,,,,,,1099.1270397999324,1099.1270397999324,1099.1270397999324,1099.1270397999324,1099.1270397999324,up,0.4599975000601262,4,1,0,99,0.24,0.24,up,0.38052350003272295,,,,,,,,,,,,,,,,,,,,,,,,,,,,,,,,,,,,,,,,,,,,,,,,,,,,,,,,,,,,7NQM7N,train_y,red_square,bottom_right,2025-08-21_10h51.48.483,HideSeek_v1,2022.2.5,60.03348666827258,
,5,3,5,8,0,5,11,,train_dim1_1,23,30,,,,2,0,2,0,,,,,,,,,0,0,0,0,0,22,22,22,5,0,5,0,,,,,,,,,,,,,,,,,,,,,,,,,,,,,,,,,,,,,,,,,,,,,,,,,,,,,,,,,,,,,,,,30,,,,,,,,1099.5927765001543,1099.5927765001543,1099.5927765001543,1099.5927765001543,1099.5927765001543,return,0.8104226998984814,5,0,0,1,0.24,0.24,return,0.733201399911195,44,-3,0.24,0.24,,,,,,,,,,,,,,,,,,,,,,,,,,,,,,,,,,,,,,,,,,,,,,,,,,,,,,,,7NQM7N,train_y,red_square,bottom_right,2025-08-21_10h51.48.483,HideSeek_v1,2022.2.5,60.03348666827258,
,8,2,8,2,0,0,16,,train_dim1_1,24,30,,,,2,0,2,0,,,,,,,,,0,0,0,0,0,23,23,23,0,0,0,0,,,,,,,,,,,,,,,,,,,,,,,,,stimuli/alien_stimuli/16.png,,,,,,,,,,,,,,,,,,,,,,,,,,,,,stimuli/alien_stimuli/11.png,11,5,25,,,,,,,30,,,,,,,,1108.2036952001508,1108.2036952001508,1108.2036952001508,1108.2036952001508,1108.2036952001508,return,2.591706900158897,6,0,0,1,0.48,-0.24,return,2.502169599989429,44,-3,0.48,-0.24,1106.648228800157,1108.2036952001508,0.24,0.24,0.4,0.0,0.039999999999999994,0.24,0.24,0.24,0.24,1101.9763434999622,1101.9763434999622,1101.9763434999622,1101.9763434999622,1101.9763434999622,1101.9763434999622,1101.9763434999622,1101.9763434999622,1101.977754060086,4.789706600131467,return,4.6535846998449415,,,,,,,,,,,,,,,,,,,,,,,,,,,,,,,,,7NQM7N,train_y,red_square,bottom_right,2025-08-21_10h51.48.483,HideSeek_v1,2022.2.5,60.03348666827258,
,8,3,8,7,0,4,12,,train_dim1_1,25,30,,,,2,0,2,0,,,,,,,,,0,0,0,0,0,24,24,24,0,0,0,0,,,,,,,,,,,,,,,,,,,,,,,,,stimuli/alien_stimuli/12.png,,,,,,,,,,,,,,,,,,,,,,,,,,,,,stimuli/alien_stimuli/16.png,16,8,26,,,,,,,30,,,,,,,,1117.5790385999717,1117.5790385999717,1117.5790385999717,1117.5790385999717,1117.5790385999717,up,2.708230100106448,6,0,0,99,0.48,-0.08,up,2.6206137998960912,,,,,1116.022834799951,1117.5790385999717,0.48,-0.24,0.0,0.0,-0.24,0.48,0.48,0.48,-0.24,1112.3680304000154,1112.3680304000154,1112.3680304000154,1112.3680304000154,1112.3680304000154,1112.3680304000154,1112.3680304000154,1112.3680304000154,1112.3694624599536,3.7721130000427365,return,3.630744099849835,,,,,,,,,,,,,,,,,,,,,,,,,,,,,,,,,7NQM7N,train_y,red_square,bottom_right,2025-08-21_10h51.48.483,HideSeek_v1,2022.2.5,60.03348666827258,
,8,3,8,7,0,4,12,,train_dim1_1,25,30,,,,2,0,2,0,,,,,,,,,0,0,0,0,0,24,24,24,1,0,1,0,,,,,,,,,,,,,,,,,,,,,,,,,,,,,,,,,,,,,,,,,,,,,,,,,,,,,,,,,,,,,,,,30,,,,,,,,1120.2938924001064,1120.2938924001064,1120.2938924001064,1120.2938924001064,1120.2938924001064,up,0.42631369992159307,6,0,0,99,0.48,0.0,up,0.34889840008690953,,,,,,,,,,,,,,,,,,,,,,,,,,,,,,,,,,,,,,,,,,,,,,,,,,,,,,,,,,,,7NQM7N,train_y,red_square,bottom_right,2025-08-21_10h51.48.483,HideSeek_v1,2022.2.5,60.03348666827258,
,8,3,8,7,0,4,12,,train_dim1_1,25,30,,,,2,0,2,0,,,,,,,,,0,0,0,0,0,24,24,24,2,0,2,0,,,,,,,,,,,,,,,,,,,,,,,,,,,,,,,,,,,,,,,,,,,,,,,,,,,,,,,,,,,,,,,,30,,,,,,,,1120.7275275001302,1120.7275275001302,1120.7275275001302,1120.7275275001302,1120.7275275001302,up,0.4267184000927955,6,0,0,99,0.48,0.08,up,0.34203739976510406,,,,,,,,,,,,,,,,,,,,,,,,,,,,,,,,,,,,,,,,,,,,,,,,,,,,,,,,,,,,7NQM7N,train_y,red_square,bottom_right,2025-08-21_10h51.48.483,HideSeek_v1,2022.2.5,60.03348666827258,
,8,3,8,7,0,4,12,,train_dim1_1,25,30,,,,2,0,2,0,,,,,,,,,0,0,0,0,0,24,24,24,3,0,3,0,,,,,,,,,,,,,,,,,,,,,,,,,,,,,,,,,,,,,,,,,,,,,,,,,,,,,,,,,,,,,,,,30,,,,,,,,1121.16014729999,1121.16014729999,1121.16014729999,1121.16014729999,1121.16014729999,up,0.5432618998456746,6,0,0,99,0.48,0.16,up,0.4667898998595774,,,,,,,,,,,,,,,,,,,,,,,,,,,,,,,,,,,,,,,,,,,,,,,,,,,,,,,,,,,,7NQM7N,train_y,red_square,bottom_right,2025-08-21_10h51.48.483,HideSeek_v1,2022.2.5,60.03348666827258,
,8,3,8,7,0,4,12,,train_dim1_1,25,30,,,,2,0,2,0,,,,,,,,,0,0,0,0,0,24,24,24,4,0,4,0,,,,,,,,,,,,,,,,,,,,,,,,,,,,,,,,,,,,,,,,,,,,,,,,,,,,,,,,,,,,,,,,30,,,,,,,,1121.7116605001502,1121.7116605001502,1121.7116605001502,1121.7116605001502,1121.7116605001502,up,0.8269393001683056,6,0,0,99,0.48,0.24,up,0.734773299889639,,,,,,,,,,,,,,,,,,,,,,,,,,,,,,,,,,,,,,,,,,,,,,,,,,,,,,,,,,,,7NQM7N,train_y,red_square,bottom_right,2025-08-21_10h51.48.483,HideSeek_v1,2022.2.5,60.03348666827258,
,8,3,8,7,0,4,12,,train_dim1_1,25,30,,,,2,0,2,0,,,,,,,,,0,0,0,0,0,24,24,24,5,0,5,0,,,,,,,,,,,,,,,,,,,,,,,,,,,,,,,,,,,,,,,,,,,,,,,,,,,,,,,,,,,,,,,,30,,,,,,,,1122.5462883999571,1122.5462883999571,1122.5462883999571,1122.5462883999571,1122.5462883999571,return,0.8437751999590546,6,1,0,0,0.48,0.24,return,0.7505933998618275,49,-3,0.48,0.24,,,,,,,,,,,,,,,,,,,,,,,,,,,,,,,,,,,,,,,,,,,,,,,,,,,,,,,,7NQM7N,train_y,red_square,bottom_right,2025-08-21_10h51.48.483,HideSeek_v1,2022.2.5,60.03348666827258,
,9,4,9,7,0,3,13,,train_dim1_1,26,30,,,,2,0,2,0,,,,,,,,,0,0,0,0,0,25,25,25,0,0,0,0,,,,,,,,,,,,,,,,,,,,,,,,,stimuli/alien_stimuli/13.png,,,,,,,,,,,,,,,,,,,,,,,,,,,,,stimuli/alien_stimuli/12.png,12,8,27,,,,,,,30,,,,,,,,1129.4885408999398,1129.4885408999398,1129.4885408999398,1129.4885408999398,1129.4885408999398,up,7.345325200119987,6,1,0,99,0.56,0.0,up,7.2666666998993605,,,,,1127.9326536001172,1129.4885408999398,0.48,0.16,0.32,0.0,0.0,0.48,0.48,0.48,0.16,1124.9612418001052,1124.9612418001052,1124.9612418001052,1124.9612418001052,1124.9612418001052,1124.9612418001052,1124.9612418001052,1124.9612418001052,1124.9468353899197,3.0881858998909593,return,2.9522919997107238,,,,,,,,,,,,,,,,,,,,,,,,,,,,,,,,,7NQM7N,train_y,red_square,bottom_right,2025-08-21_10h51.48.483,HideSeek_v1,2022.2.5,60.03348666827258,
,9,4,9,7,0,3,13,,train_dim1_1,26,30,,,,2,0,2,0,,,,,,,,,0,0,0,0,0,25,25,25,1,0,1,0,,,,,,,,,,,,,,,,,,,,,,,,,,,,,,,,,,,,,,,,,,,,,,,,,,,,,,,,,,,,,,,,30,,,,,,,,1136.8412671000697,1136.8412671000697,1136.8412671000697,1136.8412671000697,1136.8412671000697,up,0.3930226999800652,6,1,0,99,0.56,0.08,up,0.31568229966796935,,,,,,,,,,,,,,,,,,,,,,,,,,,,,,,,,,,,,,,,,,,,,,,,,,,,,,,,,,,,7NQM7N,train_y,red_square,bottom_right,2025-08-21_10h51.48.483,HideSeek_v1,2022.2.5,60.03348666827258,
,9,4,9,7,0,3,13,,train_dim1_1,26,30,,,,2,0,2,0,,,,,,,,,0,0,0,0,0,25,25,25,2,0,2,0,,,,,,,,,,,,,,,,,,,,,,,,,,,,,,,,,,,,,,,,,,,,,,,,,,,,,,,,,,,,,,,,30,,,,,,,,1137.2395786000416,1137.2395786000416,1137.2395786000416,1137.2395786000416,1137.2395786000416,up,0.4263612001668662,6,1,0,99,0.56,0.16,up,0.35095439990982413,,,,,,,,,,,,,,,,,,,,,,,,,,,,,,,,,,,,,,,,,,,,,,,,,,,,,,,,,,,,7NQM7N,train_y,red_square,bottom_right,2025-08-21_10h51.48.483,HideSeek_v1,2022.2.5,60.03348666827258,
,9,4,9,7,0,3,13,,train_dim1_1,26,30,,,,2,0,2,0,,,,,,,,,0,0,0,0,0,25,25,25,3,0,3,0,,,,,,,,,,,,,,,,,,,,,,,,,,,,,,,,,,,,,,,,,,,,,,,,,,,,,,,,,,,,,,,,30,,,,,,,,1137.6746304000262,1137.6746304000262,1137.6746304000262,1137.6746304000262,1137.6746304000262,up,0.5103180999867618,6,1,0,99,0.56,0.24,up,0.41852879989892244,,,,,,,,,,,,,,,,,,,,,,,,,,,,,,,,,,,,,,,,,,,,,,,,,,,,,,,,,,,,7NQM7N,train_y,red_square,bottom_right,2025-08-21_10h51.48.483,HideSeek_v1,2022.2.5,60.03348666827258,
,9,4,9,7,0,3,13,,train_dim1_1,26,30,,,,2,0,2,0,,,,,,,,,0,0,0,0,0,25,25,25,4,0,4,0,,,,,,,,,,,,,,,,,,,,,,,,,,,,,,,,,,,,,,,,,,,,,,,,,,,,,,,,,,,,,,,,30,,,,,,,,1138.1913751999382,1138.1913751999382,1138.1913751999382,1138.1913751999382,1138.1913751999382,return,0.760448900051415,6,1,0,0,0.56,0.24,return,0.6736536999233067,53,-3,0.56,0.24,,,,,,,,,,,,,,,,,,,,,,,,,,,,,,,,,,,,,,,,,,,,,,,,,,,,,,,,7NQM7N,train_y,red_square,bottom_right,2025-08-21_10h51.48.483,HideSeek_v1,2022.2.5,60.03348666827258,
,8,4,8,4,0,0,16,,train_dim1_1,27,30,,,,2,0,2,0,,,,,,,,,0,0,0,0,0,26,26,26,0,0,0,0,,,,,,,,,,,,,,,,,,,,,,,,,stimuli/alien_stimuli/16.png,,,,,,,,,,,,,,,,,,,,,,,,,,,,,stimuli/alien_stimuli/13.png,13,9,28,,,,,,,30,,,,,,,,1145.7358606001362,1145.7358606001362,1145.7358606001362,1145.7358606001362,1145.7358606001362,up,4.192373899975792,6,1,0,99,0.48,0.0,up,4.110033799894154,,,,,1144.1798545001075,1145.7358606001362,0.56,0.16,0.24,0.0,0.04,0.56,0.56,0.56,0.16,1140.5258023999631,1140.5258023999631,1140.5258023999631,1140.5258023999631,1140.5258023999631,1140.5258023999631,1140.5258023999631,1140.5258023999631,1140.5265187599232,3.7726380999665707,return,3.622487099841237,,,,,,,,,,,,,,,,,,,,,,,,,,,,,,,,,7NQM7N,train_y,red_square,bottom_right,2025-08-21_10h51.48.483,HideSeek_v1,2022.2.5,60.03348666827258,
,8,4,8,4,0,0,16,,train_dim1_1,27,30,,,,2,0,2,0,,,,,,,,,0,0,0,0,0,26,26,26,1,0,1,0,,,,,,,,,,,,,,,,,,,,,,,,,,,,,,,,,,,,,,,,,,,,,,,,,,,,,,,,,,,,,,,,30,,,,,,,,1149.934904600028,1149.934904600028,1149.934904600028,1149.934904600028,1149.934904600028,return,0.5432484000921249,6,1,0,0,0.48,0.0,return,0.4567895997315645,54,-3,0.48,0.0,,,,,,,,,,,,,,,,,,,,,,,,,,,,,,,,,,,,,,,,,,,,,,,,,,,,,,,,7NQM7N,train_y,red_square,bottom_right,2025-08-21_10h51.48.483,HideSeek_v1,2022.2.5,60.03348666827258,
,9,1,9,6,0,5,11,,train_dim1_1,28,30,,,,2,0,2,0,,,,,,,,,0,0,0,0,0,27,27,27,0,0,0,0,,,,,,,,,,,,,,,,,,,,,,,,,stimuli/alien_stimuli/11.png,,,,,,,,,,,,,,,,,,,,,,,,,,,,,stimuli/alien_stimuli/16.png,16,8,29,,,,,,,30,,,,,,,,1156.1453090999275,1156.1453090999275,1156.1453090999275,1156.1453090999275,1156.1453090999275,up,1.6725465999916196,6,1,0,99,0.56,-0.24,up,1.5912581998854876,,,,,1154.5884102000855,1156.1453090999275,0.48,-0.08,0.0,0.0,-0.08,0.48,0.48,0.48,-0.08,1152.0520417999942,1152.0520417999942,1152.0520417999942,1152.0520417999942,1152.0520417999942,1152.0520417999942,1152.0520417999942,1152.0520417999942,1152.0526877598838,2.6543437000364065,return,2.5090001998469234,,,,,,,,,,,,,,,,,,,,,,,,,,,,,,,,,7NQM7N,train_y,red_square,bottom_right,2025-08-21_10h51.48.483,HideSeek_v1,2022.2.5,60.03348666827258,
,9,1,9,6,0,5,11,,train_dim1_1,28,30,,,,2,0,2,0,,,,,,,,,0,0,0,0,0,27,27,27,1,0,1,0,,,,,,,,,,,,,,,,,,,,,,,,,,,,,,,,,,,,,,,,,,,,,,,,,,,,,,,,,,,,,,,,30,,,,,,,,1157.8259050999768,1157.8259050999768,1157.8259050999768,1157.8259050999768,1157.8259050999768,up,0.4260781002230942,6,1,0,99,0.56,-0.15999999999999998,up,0.34540980006568134,,,,,,,,,,,,,,,,,,,,,,,,,,,,,,,,,,,,,,,,,,,,,,,,,,,,,,,,,,,,7NQM7N,train_y,red_square,bottom_right,2025-08-21_10h51.48.483,HideSeek_v1,2022.2.5,60.03348666827258,
,9,1,9,6,0,5,11,,train_dim1_1,28,30,,,,2,0,2,0,,,,,,,,,0,0,0,0,0,27,27,27,2,0,2,0,,,,,,,,,,,,,,,,,,,,,,,,,,,,,,,,,,,,,,,,,,,,,,,,,,,,,,,,,,,,,,,,30,,,,,,,,1158.2586547001265,1158.2586547001265,1158.2586547001265,1158.2586547001265,1158.2586547001265,up,0.40970070008188486,6,1,0,99,0.56,-0.07999999999999997,up,0.3181423998903483,,,,,,,,,,,,,,,,,,,,,,,,,,,,,,,,,,,,,,,,,,,,,,,,,,,,,,,,,,,,7NQM7N,train_y,red_square,bottom_right,2025-08-21_10h51.48.483,HideSeek_v1,2022.2.5,60.03348666827258,
,9,1,9,6,0,5,11,,train_dim1_1,28,30,,,,2,0,2,0,,,,,,,,,0,0,0,0,0,27,27,27,3,0,3,0,,,,,,,,,,,,,,,,,,,,,,,,,,,,,,,,,,,,,,,,,,,,,,,,,,,,,,,,,,,,,,,,30,,,,,,,,1158.6754934000783,1158.6754934000783,1158.6754934000783,1158.6754934000783,1158.6754934000783,up,0.42673579999245703,6,1,0,99,0.56,2.7755575615628914e-17,up,0.33428659988567233,,,,,,,,,,,,,,,,,,,,,,,,,,,,,,,,,,,,,,,,,,,,,,,,,,,,,,,,,,,,7NQM7N,train_y,red_square,bottom_right,2025-08-21_10h51.48.483,HideSeek_v1,2022.2.5,60.03348666827258,
,9,1,9,6,0,5,11,,train_dim1_1,28,30,,,,2,0,2,0,,,,,,,,,0,0,0,0,0,27,27,27,4,0,4,0,,,,,,,,,,,,,,,,,,,,,,,,,,,,,,,,,,,,,,,,,,,,,,,,,,,,,,,,,,,,,,,,30,,,,,,,,1159.1086270001251,1159.1086270001251,1159.1086270001251,1159.1086270001251,1159.1086270001251,up,0.37635739985853434,6,1,0,99,0.56,0.08000000000000003,up,0.29030509991571307,,,,,,,,,,,,,,,,,,,,,,,,,,,,,,,,,,,,,,,,,,,,,,,,,,,,,,,,,,,,7NQM7N,train_y,red_square,bottom_right,2025-08-21_10h51.48.483,HideSeek_v1,2022.2.5,60.03348666827258,
,9,1,9,6,0,5,11,,train_dim1_1,28,30,,,,2,0,2,0,,,,,,,,,0,0,0,0,0,27,27,27,5,0,5,0,,,,,,,,,,,,,,,,,,,,,,,,,,,,,,,,,,,,,,,,,,,,,,,,,,,,,,,,,,,,,,,,30,,,,,,,,1159.4921673999634,1159.4921673999634,1159.4921673999634,1159.4921673999634,1159.4921673999634,return,1.0437395998742431,7,0,0,1,0.56,0.08000000000000003,return,0.9524244999047369,59,-3,0.56,0.08000000000000003,,,,,,,,,,,,,,,,,,,,,,,,,,,,,,,,,,,,,,,,,,,,,,,,,,,,,,,,7NQM7N,train_y,red_square,bottom_right,2025-08-21_10h51.48.483,HideSeek_v1,2022.2.5,60.03348666827258,
,7,2,7,6,0,4,12,,train_dim1_1,29,30,,,,2,0,2,0,,,,,,,,,0,0,0,0,0,28,28,28,0,0,0,0,,,,,,,,,,,,,,,,,,,,,,,,,stimuli/alien_stimuli/12.png,,,,,,,,,,,,,,,,,,,,,,,,,,,,,stimuli/alien_stimuli/11.png,11,9,30,,,,,,,30,,,,,,,,1167.3397337000351,1167.3397337000351,1167.3397337000351,1167.3397337000351,1167.3397337000351,up,2.556319599971175,7,0,0,99,0.4,-0.15999999999999998,up,2.473039999837056,,,,,1165.78086910001,1167.3397337000351,0.56,0.08,0.4,0.0,-0.12,0.56,0.56,0.56,0.08,1162.0935236001387,1162.0935236001387,1162.0935236001387,1162.0935236001387,1162.0935236001387,1162.0935236001387,1162.0935236001387,1162.0935236001387,1162.0945705900435,3.7886556000448763,return,3.6688646997790784,,,,,,,,,,,,,,,,,,,,,,,,,,,,,,,,,7NQM7N,train_y,red_square,bottom_right,2025-08-21_10h51.48.483,HideSeek_v1,2022.2.5,60.03348666827258,
,7,2,7,6,0,4,12,,train_dim1_1,29,30,,,,2,0,2,0,,,,,,,,,0,0,0,0,0,28,28,28,1,0,1,0,,,,,,,,,,,,,,,,,,,,,,,,,,,,,,,,,,,,,,,,,,,,,,,,,,,,,,,,,,,,,,,,30,,,,,,,,1169.9018630001228,1169.9018630001228,1169.9018630001228,1169.9018630001228,1169.9018630001228,up,0.39260010002180934,7,0,0,99,0.4,-0.07999999999999997,up,0.3108969999011606,,,,,,,,,,,,,,,,,,,,,,,,,,,,,,,,,,,,,,,,,,,,,,,,,,,,,,,,,,,,7NQM7N,train_y,red_square,bottom_right,2025-08-21_10h51.48.483,HideSeek_v1,2022.2.5,60.03348666827258,
,7,2,7,6,0,4,12,,train_dim1_1,29,30,,,,2,0,2,0,,,,,,,,,0,0,0,0,0,28,28,28,2,0,2,0,,,,,,,,,,,,,,,,,,,,,,,,,,,,,,,,,,,,,,,,,,,,,,,,,,,,,,,,,,,,,,,,30,,,,,,,,1170.301799000008,1170.301799000008,1170.301799000008,1170.301799000008,1170.301799000008,up,0.3934615000616759,7,0,0,99,0.4,2.7755575615628914e-17,up,0.31405879999510944,,,,,,,,,,,,,,,,,,,,,,,,,,,,,,,,,,,,,,,,,,,,,,,,,,,,,,,,,,,,7NQM7N,train_y,red_square,bottom_right,2025-08-21_10h51.48.483,HideSeek_v1,2022.2.5,60.03348666827258,
,7,2,7,6,0,4,12,,train_dim1_1,29,30,,,,2,0,2,0,,,,,,,,,0,0,0,0,0,28,28,28,3,0,3,0,,,,,,,,,,,,,,,,,,,,,,,,,,,,,,,,,,,,,,,,,,,,,,,,,,,,,,,,,,,,,,,,30,,,,,,,,1170.7023149000015,1170.7023149000015,1170.7023149000015,1170.7023149000015,1170.7023149000015,up,0.8103237000759691,7,0,0,99,0.4,0.08000000000000003,up,0.7240220999810845,,,,,,,,,,,,,,,,,,,,,,,,,,,,,,,,,,,,,,,,,,,,,,,,,,,,,,,,,,,,7NQM7N,train_y,red_square,bottom_right,2025-08-21_10h51.48.483,HideSeek_v1,2022.2.5,60.03348666827258,
,7,2,7,6,0,4,12,,train_dim1_1,29,30,,,,2,0,2,0,,,,,,,,,0,0,0,0,0,28,28,28,4,0,4,0,,,,,,,,,,,,,,,,,,,,,,,,,,,,,,,,,,,,,,,,,,,,,,,,,,,,,,,,,,,,,,,,30,,,,,,,,1171.5189724999946,1171.5189724999946,1171.5189724999946,1171.5189724999946,1171.5189724999946,return,0.7271393998526037,8,0,0,1,0.4,0.08000000000000003,return,0.6448950998019427,63,-3,0.4,0.08000000000000003,,,,,,,,,,,,,,,,,,,,,,,,,,,,,,,,,,,,,,,,,,,,,,,,,,,,,,,,7NQM7N,train_y,red_square,bottom_right,2025-08-21_10h51.48.483,HideSeek_v1,2022.2.5,60.03348666827258,
,5,1,5,2,0,1,15,,train_dim1_1,30,30,,,,2,0,2,0,,,,,,,,,0,0,0,0,0,29,29,29,0,0,0,0,,,,,,,,,,,,,,,,,,,,,,,,,stimuli/alien_stimuli/15.png,,,,,,,,,,,,,,,,,,,,,,,,,,,,,stimuli/alien_stimuli/12.png,12,7,31,,,,,,,30,,,,,,,,1178.2463315001223,1178.2463315001223,1178.2463315001223,1178.2463315001223,1178.2463315001223,return,2.724790599895641,8,1,0,0,0.24,-0.32,return,2.6465815999545157,63,-3,0.24,-0.32,1176.6898384001106,1178.2463315001223,0.4,0.08,0.32,0.0,-0.07999999999999999,0.4,0.4,0.4,0.08,1173.821599900024,1173.821599900024,1173.821599900024,1173.821599900024,1173.821599900024,1173.821599900024,1173.821599900024,1173.821599900024,1173.8207813600545,2.9880733999889344,return,2.842000999720767,,,,,,,,,,,,,,,,,,,,,,,,,,,,,,,,,7NQM7N,train_y,red_square,bottom_right,2025-08-21_10h51.48.483,HideSeek_v1,2022.2.5,60.03348666827258,
,,,,,,,,,,,30,,,,2,0,2,0,,,,,,,,,,,,,,,,,,,,,,,,,,,,,,,,,,,,,,,,,,,,,,,,,,,,,,,,,,,,,,,,,,,,,,,,,,stimuli/alien_stimuli/15.png,15,5,32,21,0.7,0.33333333333333337,1,1,1,30,0,conditions/schedules/train_y_first/red_square_00/bottom_right/inputTrain_2.1.xlsx,99,1,2,1,0,,,,,,,,,,,0,,,,,,,,,1185.5472043000627,1187.1019888999872,0.24,-0.24,0.08,0.0,-0.28,0.24,0.24,0.24,-0.24,1182.525327600073,1182.525327600073,1182.525327600073,1182.525327600073,1182.525327600073,1182.525327600073,1182.525327600073,1182.525327600073,1182.5112798200455,3.1215524999424815,return,3.0009364997968078,0,0.9,0,1,8,,,,,,,,,,,,,,,,,,,,,,,,,,,,7NQM7N,train_y,red_square,bottom_right,2025-08-21_10h51.48.483,HideSeek_v1,2022.2.5,60.03348666827258,
,,,,,,,,,,,,,,,3,0,3,0,0,0,0,0,,,,,,,,,,,,,,,,,,,,,,,,,,,,,,,conditions/schedules/train_y_first/red_square_00/bottom_right/instructions/Slide17.png,conditions/schedules/train_y_first/red_square_00/bottom_right/instructions/Audio17.wav,1187.1019888999872,1187.0983771800063,17,"[4.900960200000554, 18.746880399994552, 16.55199070018716, 19.746147099882364, 5.5703036999329925, 6.019445999991149, 5.854293799959123, 12.22292759991251, 6.817720300052315, 7.600042900070548, 10.536850200034678, 14.573396400082856, 17.915409700013697, 17.172947200015187, 45.94895080011338, 21.75333740003407, 183.4128847999964]","[0.00024480000138282776, 0.05486730020493269, 0.0311640000436455, 0.09896249999292195, 0.06439159996807575, 0.05076720006763935, 0.06295379996299744, 0.013932100031524897, 0.06392490002326667, 0.07796939997933805, 0.06170890014618635, 14.573404400143772, 0.014546700054779649, 17.17295390018262, 0.014117199927568436, 21.75334420008585, 183.41289169993252]",0,,,,,,,,,,,,,,,,,,,,,,,,,,,,,,,,,,,,,,,,,,,,,,,,,,,,,,,,,,,,,,,,,,,,,,,,,,,,,,,,,,,,,,,,,,,,,,,,,,,,,,,,,,,,,,,,,,,,,,,,,,,,7NQM7N,train_y,red_square,bottom_right,2025-08-21_10h51.48.483,HideSeek_v1,2022.2.5,60.03348666827258,
,,,,,,,,,,,,,,,3,0,3,0,1,0,1,0,,,,,,,,,,,,,,,,,,,,,,,,,,,,,,,conditions/schedules/train_y_first/red_square_00/bottom_right/instructions/Slide18.png,conditions/schedules/train_y_first/red_square_00/bottom_right/instructions/Audio18.wav,1370.584829099942,1370.5843700501136,18,"[4.900960200000554, 18.746880399994552, 16.55199070018716, 19.746147099882364, 5.5703036999329925, 6.019445999991149, 5.854293799959123, 12.22292759991251, 6.817720300052315, 7.600042900070548, 10.536850200034678, 14.573396400082856, 17.915409700013697, 17.172947200015187, 45.94895080011338, 21.75333740003407, 183.4128847999964, 7.069533900124952]","[0.00024480000138282776, 0.05486730020493269, 0.0311640000436455, 0.09896249999292195, 0.06439159996807575, 0.05076720006763935, 0.06295379996299744, 0.013932100031524897, 0.06392490002326667, 0.07796939997933805, 0.06170890014618635, 14.573404400143772, 0.014546700054779649, 17.17295390018262, 0.014117199927568436, 21.75334420008585, 0.04645729996263981, 7.0695410000626]",0,,,,,,,,,,,,,,,,,,,,,,,,,,,,,,,,,,,,,,,,,,,,,,,,,,,,,,,,,,,,,,,,,,,,,,,,,,,,,,,,,,,,,,,,,,,,,,,,,,,,,,,,,,,,,,,,,,,,,,,,,,,,7NQM7N,train_y,red_square,bottom_right,2025-08-21_10h51.48.483,HideSeek_v1,2022.2.5,60.03348666827258,
,,,,,,,,,,,,,,,3,0,3,0,2,0,2,0,,,,,,,,,,,,,,,,,,,,,,,,,,,,,,,conditions/schedules/train_y_first/red_square_00/bottom_right/instructions/Slide19.png,conditions/schedules/train_y_first/red_square_00/bottom_right/instructions/Audio19.wav,1377.715632500127,1377.7070465799886,19,"[4.900960200000554, 18.746880399994552, 16.55199070018716, 19.746147099882364, 5.5703036999329925, 6.019445999991149, 5.854293799959123, 12.22292759991251, 6.817720300052315, 7.600042900070548, 10.536850200034678, 14.573396400082856, 17.915409700013697, 17.172947200015187, 45.94895080011338, 21.75333740003407, 183.4128847999964, 7.069533900124952, 10.5140298998449]","[0.00024480000138282776, 0.05486730020493269, 0.0311640000436455, 0.09896249999292195, 0.06439159996807575, 0.05076720006763935, 0.06295379996299744, 0.013932100031524897, 0.06392490002326667, 0.07796939997933805, 0.06170890014618635, 14.573404400143772, 0.014546700054779649, 17.17295390018262, 0.014117199927568436, 21.75334420008585, 0.04645729996263981, 0.013921499950811267, 10.514036600012332]",0,,,,,,,,,,,,,,,,,,,,,,,,,,,,,,,,,,,,,,,,,,,,,,,,,,,,,,,,,,,,,,,,,,,,,,,,,,,,,,,,,,,,,,,,,,,,,,,,,,,,,,,,,,,,,,,,,,,,,,,,,,,,7NQM7N,train_y,red_square,bottom_right,2025-08-21_10h51.48.483,HideSeek_v1,2022.2.5,60.03348666827258,
,,,,,,,,,,,,,,,3,0,3,0,3,0,3,0,,,,,,,,,,,,,,,,,,,,,,,,,,,,,,,conditions/schedules/train_y_first/red_square_00/bottom_right/instructions/Slide20.png,conditions/schedules/train_y_first/red_square_00/bottom_right/instructions/Audio20.wav,1388.3017597999424,1388.2992055499926,20,"[4.900960200000554, 18.746880399994552, 16.55199070018716, 19.746147099882364, 5.5703036999329925, 6.019445999991149, 5.854293799959123, 12.22292759991251, 6.817720300052315, 7.600042900070548, 10.536850200034678, 14.573396400082856, 17.915409700013697, 17.172947200015187, 45.94895080011338, 21.75333740003407, 183.4128847999964, 7.069533900124952, 10.5140298998449, 13.356278700055555]","[0.00024480000138282776, 0.05486730020493269, 0.0311640000436455, 0.09896249999292195, 0.06439159996807575, 0.05076720006763935, 0.06295379996299744, 0.013932100031524897, 0.06392490002326667, 0.07796939997933805, 0.06170890014618635, 14.573404400143772, 0.014546700054779649, 17.17295390018262, 0.014117199927568436, 21.75334420008585, 0.04645729996263981, 0.013921499950811267, 0.00021249987185001373, 13.356285799993202]",0,,,,,,,,,,,,,,,,,,,,,,,,,,,,,,,,,,,,,,,,,,,,,,,,,,,,,,,,,,,,,,,,,,,,,,,,,,,,,,,,,,,,,,,,,,,,,,,,,,,,,,,,,,,,,,,,,,,,,,,,,,,,7NQM7N,train_y,red_square,bottom_right,2025-08-21_10h51.48.483,HideSeek_v1,2022.2.5,60.03348666827258,
1,8,2,3,2,-5,0,66,2,instr_dim1_2,,,,,,3,0,3,0,,,,,0,0,0,0,,,,,,,,,,,,,,,,,,,,,,,,,,,,,,,,,,,,,stimuli/alien_stimuli/66.png,conditions/schedules/train_y_first/red_square_00/bottom_right/inputInstr_2.xlsx,stimuli/alien_stimuli/66.png,1401.7649378001224,1401.7649378001224,1401.7649378001224,1401.7649378001224,1401.760275990097,return,6.592854699818417,"[-0.16, -0.08, 0, 0.08, 0.16, 0.24, 0.32, 0.4, 0.48, 0.56]","[-0.4, -0.32, -0.24, -0.16, -0.08, 0, 0.08, 0.16, 0.24, 0.32]",2,2,3,8,0.0,0.4,1408.5211205000523,1408.5211205000523,1408.5211205000523,1408.5211205000523,1408.5211205000523,1408.5211205000523,1408.5211205000523,1408.4990962600803,7.5072402998339385,return,7.346210499992594,stimuli/alien_stimuli/66.png,66,8,1,,,,,,,,,,,,,,,,,,,,,,,,,,,,,,,,,,,,,,,,,,,,,,,,,,,,,,,,,,,,,,,,,,,,,,,,,,,,,,,,,,,,,,,,,7NQM7N,train_y,red_square,bottom_right,2025-08-21_10h51.48.483,HideSeek_v1,2022.2.5,60.03348666827258,
,,,,,,,,,,,30,,,,3,0,3,0,,,,,,,,,,,,,,,,,,,,,,,,,,,,,,,,,,,,,,,,,,,,,,,,,,,,,,,,,,,,,,,,,,,,,,,,,,,,,,21,0.7,0.33333333333333337,1,99,2,30,0,conditions/schedules/train_y_first/red_square_00/bottom_right/inputTrain_2.1.xlsx,99,1,2,1,0,,,,,,,,,,,,,,,,,,,,,,,,,,,,,,,,,,,,,,,,,,,,,,,,,,,,,,,,,,,,,,,,,,,,,,,,,,,7NQM7N,train_y,red_square,bottom_right,2025-08-21_10h51.48.483,HideSeek_v1,2022.2.5,60.03348666827258,
,,,,,,,,,,,,,,,4,0,4,0,0,0,0,0,,,,,,,,,,,,,,,,,,,,,,,,,,,,,,,conditions/schedules/train_y_first/red_square_00/bottom_right/instructions/Slide21.png,conditions/schedules/train_y_first/red_square_00/bottom_right/instructions/Audio21.wav,1416.019231500104,1416.0219687299802,21,"[4.900960200000554, 18.746880399994552, 16.55199070018716, 19.746147099882364, 5.5703036999329925, 6.019445999991149, 5.854293799959123, 12.22292759991251, 6.817720300052315, 7.600042900070548, 10.536850200034678, 14.573396400082856, 17.915409700013697, 17.172947200015187, 45.94895080011338, 21.75333740003407, 183.4128847999964, 7.069533900124952, 10.5140298998449, 13.356278700055555, 14.545651399996132]","[0.00024480000138282776, 0.05486730020493269, 0.0311640000436455, 0.09896249999292195, 0.06439159996807575, 0.05076720006763935, 0.06295379996299744, 0.013932100031524897, 0.06392490002326667, 0.07796939997933805, 0.06170890014618635, 14.573404400143772, 0.014546700054779649, 17.17295390018262, 0.014117199927568436, 21.75334420008585, 0.04645729996263981, 0.013921499950811267, 0.00021249987185001373, 13.356285799993202, 14.545658800052479]",0,,,,,,,,,,,,,,,,,,,,,,,,,,,,,,,,,,,,,,,,,,,,,,,,,,,,,,,,,,,,,,,,,,,,,,,,,,,,,,,,,,,,,,,,,,,,,,,,,,,,,,,,,,,,,,,,,,,,,,,,,,,,7NQM7N,train_y,red_square,bottom_right,2025-08-21_10h51.48.483,HideSeek_v1,2022.2.5,60.03348666827258,
2,9,0,9,0,0,0,16,2,instr_dim1_2,,,,,,4,0,4,0,,,,,0,0,0,0,,,,,,,,,,,,,,,,,,,,,,,,,,,,,,,,,,,,,stimuli/alien_stimuli/16.png,conditions/schedules/train_y_first/red_square_00/bottom_right/inputInstr_2.xlsx,stimuli/alien_stimuli/16.png,1430.6660986000206,1430.6660986000206,1430.6660986000206,1430.6660986000206,1430.6509071200155,return,0.06631509982980788,"[-0.16, -0.08, 0, 0.08, 0.16, 0.24, 0.32, 0.4, 0.48, 0.56]","[-0.4, -0.32, -0.24, -0.16, -0.08, 0, 0.08, 0.16, 0.24, 0.32]",0,0,9,9,0.0,0.0,1430.8910179000814,1430.8910179000814,1430.8910179000814,1430.8910179000814,1430.8910179000814,1430.8910179000814,1430.8910179000814,1430.884466829896,6.089425000129268,return,5.929746399866417,stimuli/alien_stimuli/16.png,16,9,2,,,,,,,,,,,,,,,,,,,,,,,,,,,,,,,,,,,,,,,,,,,,,,,,,,,,,,,,,,,,,,,,,,,,,,,,,,,,,,,,,,,,,,,,,7NQM7N,train_y,red_square,bottom_right,2025-08-21_10h51.48.483,HideSeek_v1,2022.2.5,60.03348666827258,
,,,,,,,,,,,30,,,,4,0,4,0,,,,,,,,,,,,,,,,,,,,,,,,,,,,,,,,,,,,,,,,,,,,,,,,,,,,,,,,,,,,,,,,,,,,,,,,,,,,,,21,0.7,0.33333333333333337,1,99,2,30,0,conditions/schedules/train_y_first/red_square_00/bottom_right/inputTrain_2.1.xlsx,99,1,2,1,0,,,,,,,,,,,,,,,,,,,,,,,,,,,,,,,,,,,,,,,,,,,,,,,,,,,,,,,,,,,,,,,,,,,,,,,,,,,7NQM7N,train_y,red_square,bottom_right,2025-08-21_10h51.48.483,HideSeek_v1,2022.2.5,60.03348666827258,
,,,,,,,,,,,,,,,5,0,5,0,0,0,0,0,,,,,,,,,,,,,,,,,,,,,,,,,,,,,,,conditions/schedules/train_y_first/red_square_00/bottom_right/instructions/Slide22.png,conditions/schedules/train_y_first/red_square_00/bottom_right/instructions/Audio22.wav,1436.980701399967,1436.972863129992,22,"[4.900960200000554, 18.746880399994552, 16.55199070018716, 19.746147099882364, 5.5703036999329925, 6.019445999991149, 5.854293799959123, 12.22292759991251, 6.817720300052315, 7.600042900070548, 10.536850200034678, 14.573396400082856, 17.915409700013697, 17.172947200015187, 45.94895080011338, 21.75333740003407, 183.4128847999964, 7.069533900124952, 10.5140298998449, 13.356278700055555, 14.545651399996132, 30.548358300002292]","[0.00024480000138282776, 0.05486730020493269, 0.0311640000436455, 0.09896249999292195, 0.06439159996807575, 0.05076720006763935, 0.06295379996299744, 0.013932100031524897, 0.06392490002326667, 0.07796939997933805, 0.06170890014618635, 14.573404400143772, 0.014546700054779649, 17.17295390018262, 0.014117199927568436, 21.75334420008585, 0.04645729996263981, 0.013921499950811267, 0.00021249987185001373, 13.356285799993202, 14.545658800052479, 30.548365300055593]",0,,,,,,,,,,,,,,,,,,,,,,,,,,,,,,,,,,,,,,,,,,,,,,,,,,,,,,,,,,,,,,,,,,,,,,,,,,,,,,,,,,,,,,,,,,,,,,,,,,,,,,,,,,,,,,,,,,,,,,,,,,,,7NQM7N,train_y,red_square,bottom_right,2025-08-21_10h51.48.483,HideSeek_v1,2022.2.5,60.03348666827258,
,7,1,4,1,-3,0,46,,train_dim1_2,1,30,,,,5,0,5,0,,,,,,,,,0,0,0,0,0,0,0,0,0,0,0,0,,,,,,,,,,,,,,,,,,,,,,,,,stimuli/alien_stimuli/46.png,,,,,,,,,,,,,,,,,,,,,,,,,,,,,,,,,,,,,,,30,,,,,,,,1467.62935380009,1467.62935380009,1467.62935380009,1467.62935380009,1467.62935380009,up,5.047732000006363,0,1,0,99,0.4,-0.24,up,4.954002599930391,,,,,,,,,,,,,,,,,,,,,,,,,,,,,,,,,,,,,,,,,,,,,,,,,,,,,,,,,,,,7NQM7N,train_y,red_square,bottom_right,2025-08-21_10h51.48.483,HideSeek_v1,2022.2.5,60.03348666827258,
,7,1,4,1,-3,0,46,,train_dim1_2,1,30,,,,5,0,5,0,,,,,,,,,0,0,0,0,0,0,0,0,1,0,1,0,,,,,,,,,,,,,,,,,,,,,,,,,,,,,,,,,,,,,,,,,,,,,,,,,,,,,,,,,,,,,,,,30,,,,,,,,1472.6659121999983,1472.6659121999983,1472.6659121999983,1472.6659121999983,1472.6659121999983,up,0.6264472000766546,0,1,0,99,0.4,-0.15999999999999998,up,0.5544767999090254,,,,,,,,,,,,,,,,,,,,,,,,,,,,,,,,,,,,,,,,,,,,,,,,,,,,,,,,,,,,7NQM7N,train_y,red_square,bottom_right,2025-08-21_10h51.48.483,HideSeek_v1,2022.2.5,60.03348666827258,
,7,1,4,1,-3,0,46,,train_dim1_2,1,30,,,,5,0,5,0,,,,,,,,,0,0,0,0,0,0,0,0,2,0,2,0,,,,,,,,,,,,,,,,,,,,,,,,,,,,,,,,,,,,,,,,,,,,,,,,,,,,,,,,,,,,,,,,30,,,,,,,,1473.2985253001098,1473.2985253001098,1473.2985253001098,1473.2985253001098,1473.2985253001098,up,0.6768363998271525,0,1,0,99,0.4,-0.07999999999999997,up,0.6022908999584615,,,,,,,,,,,,,,,,,,,,,,,,,,,,,,,,,,,,,,,,,,,,,,,,,,,,,,,,,,,,7NQM7N,train_y,red_square,bottom_right,2025-08-21_10h51.48.483,HideSeek_v1,2022.2.5,60.03348666827258,
,7,1,4,1,-3,0,46,,train_dim1_2,1,30,,,,5,0,5,0,,,,,,,,,0,0,0,0,0,0,0,0,3,0,3,0,,,,,,,,,,,,,,,,,,,,,,,,,,,,,,,,,,,,,,,,,,,,,,,,,,,,,,,,,,,,,,,,30,,,,,,,,1473.9830424999818,1473.9830424999818,1473.9830424999818,1473.9830424999818,1473.9830424999818,return,0.643493500072509,0,0,0,0,0.4,-0.07999999999999997,return,0.5629188998136669,66,-3,0.4,-0.07999999999999997,,,,,,,,,,,,,,,,,,,,,,,,,,,,,,,,,,,,,,,,,,,,,,,,,,,,,,,,7NQM7N,train_y,red_square,bottom_right,2025-08-21_10h51.48.483,HideSeek_v1,2022.2.5,60.03348666827258,
,7,4,7,4,0,0,16,,train_dim1_2,2,30,,,,5,0,5,0,,,,,,,,,0,0,0,0,0,1,1,1,0,0,0,0,,,,,,,,,,,,,,,,,,,,,,,,,stimuli/alien_stimuli/16.png,,,,,,,,,,,,,,,,,,,,,,,,,,,,,stimuli/alien_stimuli/46.png,46,7,3,,,,,,,30,,,,,,,,1482.7743744000327,1482.7743744000327,1482.7743744000327,1482.7743744000327,1482.7743744000327,return,2.40656129992567,1,0,0,1,0.4,-0.08,return,2.313820099690929,66,-3,0.4,-0.08,1481.2094569001347,1482.7743744000327,0.16,-0.32,0.0,0.24,-0.32,0.16,0.28,0.16,-0.32,1476.1987753000576,1476.1987753000576,1476.1987753000576,1476.1987753000576,1476.1987753000576,1476.1987753000576,1476.1987753000576,1476.1987753000576,1476.188799789967,5.123315599979833,return,4.994294399861246,,,,,,,,,,,,,,,,,,,,,,,,,,,,,,,,,7NQM7N,train_y,red_square,bottom_right,2025-08-21_10h51.48.483,HideSeek_v1,2022.2.5,60.03348666827258,
,9,4,8,4,-1,0,26,,train_dim1_2,3,30,,,,5,0,5,0,,,,,,,,,0,0,0,0,0,2,2,2,0,0,0,0,,,,,,,,,,,,,,,,,,,,,,,,,stimuli/alien_stimuli/26.png,,,,,,,,,,,,,,,,,,,,,,,,,,,,,stimuli/alien_stimuli/16.png,16,7,4,,,,,,,30,,,,,,,,1493.1808190001175,1493.1808190001175,1493.1808190001175,1493.1808190001175,1493.1808190001175,down,5.494123300071806,1,0,0,99,0.56,-0.16,down,5.395217699930072,,,,,1491.618363500107,1493.1808190001175,0.4,-0.08,0.0,0.0,-0.08,0.4,0.4,0.4,-0.08,1486.7580989000853,1486.7580989000853,1486.7580989000853,1486.7580989000853,1486.7580989000853,1486.7580989000853,1486.7580989000853,1486.7580989000853,1486.7476344598924,4.989592199912295,return,4.838467499706894,,,,,,,,,,,,,,,,,,,,,,,,,,,,,,,,,7NQM7N,train_y,red_square,bottom_right,2025-08-21_10h51.48.483,HideSeek_v1,2022.2.5,60.03348666827258,
,9,4,8,4,-1,0,26,,train_dim1_2,3,30,,,,5,0,5,0,,,,,,,,,0,0,0,0,0,2,2,2,1,0,1,0,,,,,,,,,,,,,,,,,,,,,,,,,,,,,,,,,,,,,,,,,,,,,,,,,,,,,,,,,,,,,,,,30,,,,,,,,1498.6755301000085,1498.6755301000085,1498.6755301000085,1498.6755301000085,1498.6755301000085,down,0.6931256998796016,1,0,0,99,0.56,-0.24,down,0.609308399958536,,,,,,,,,,,,,,,,,,,,,,,,,,,,,,,,,,,,,,,,,,,,,,,,,,,,,,,,,,,,7NQM7N,train_y,red_square,bottom_right,2025-08-21_10h51.48.483,HideSeek_v1,2022.2.5,60.03348666827258,
,9,4,8,4,-1,0,26,,train_dim1_2,3,30,,,,5,0,5,0,,,,,,,,,0,0,0,0,0,2,2,2,2,0,2,0,,,,,,,,,,,,,,,,,,,,,,,,,,,,,,,,,,,,,,,,,,,,,,,,,,,,,,,,,,,,,,,,30,,,,,,,,1499.3752954001538,1499.3752954001538,1499.3752954001538,1499.3752954001538,1499.3752954001538,return,0.8101536999456584,1,0,0,0,0.56,-0.24,return,0.7254740998614579,64,-3,0.56,-0.24,,,,,,,,,,,,,,,,,,,,,,,,,,,,,,,,,,,,,,,,,,,,,,,,,,,,,,,,7NQM7N,train_y,red_square,bottom_right,2025-08-21_10h51.48.483,HideSeek_v1,2022.2.5,60.03348666827258,
,7,3,3,3,-4,0,56,,train_dim1_2,4,30,,,,5,0,5,0,,,,,,,,,0,0,0,0,0,3,3,3,0,0,0,0,,,,,,,,,,,,,,,,,,,,,,,,,stimuli/alien_stimuli/56.png,,,,,,,,,,,,,,,,,,,,,,,,,,,,,stimuli/alien_stimuli/26.png,26,9,5,,,,,,,30,,,,,,,,1508.3114797000308,1508.3114797000308,1508.3114797000308,1508.3114797000308,1508.3114797000308,left,5.473505799891427,1,0,0,99,0.32,-0.16,left,5.385141399921849,,,,,1506.7473784999456,1508.3114797000308,0.48,-0.08,0.0,0.08,-0.08,0.48,0.52,0.48,-0.08,1501.7733684999403,1501.7733684999403,1501.7733684999403,1501.7733684999403,1501.7733684999403,1501.7733684999403,1501.7733684999403,1501.7733684999403,1501.759977660049,5.106617799960077,return,4.957710399758071,,,,,,,,,,,,,,,,,,,,,,,,,,,,,,,,,7NQM7N,train_y,red_square,bottom_right,2025-08-21_10h51.48.483,HideSeek_v1,2022.2.5,60.03348666827258,
,7,3,3,3,-4,0,56,,train_dim1_2,4,30,,,,5,0,5,0,,,,,,,,,0,0,0,0,0,3,3,3,1,0,1,0,,,,,,,,,,,,,,,,,,,,,,,,,,,,,,,,,,,,,,,,,,,,,,,,,,,,,,,,,,,,,,,,30,,,,,,,,1513.7858001000714,1513.7858001000714,1513.7858001000714,1513.7858001000714,1513.7858001000714,left,0.44307820009998977,1,0,0,99,0.24,-0.16,left,0.35459839971736073,,,,,,,,,,,,,,,,,,,,,,,,,,,,,,,,,,,,,,,,,,,,,,,,,,,,,,,,,,,,7NQM7N,train_y,red_square,bottom_right,2025-08-21_10h51.48.483,HideSeek_v1,2022.2.5,60.03348666827258,
,7,3,3,3,-4,0,56,,train_dim1_2,4,30,,,,5,0,5,0,,,,,,,,,0,0,0,0,0,3,3,3,2,0,2,0,,,,,,,,,,,,,,,,,,,,,,,,,,,,,,,,,,,,,,,,,,,,,,,,,,,,,,,,,,,,,,,,30,,,,,,,,1514.2363784001209,1514.2363784001209,1514.2363784001209,1514.2363784001209,1514.2363784001209,left,0.4600473998580128,1,0,0,99,0.15999999999999998,-0.16,left,0.37479269970208406,,,,,,,,,,,,,,,,,,,,,,,,,,,,,,,,,,,,,,,,,,,,,,,,,,,,,,,,,,,,7NQM7N,train_y,red_square,bottom_right,2025-08-21_10h51.48.483,HideSeek_v1,2022.2.5,60.03348666827258,
,7,3,3,3,-4,0,56,,train_dim1_2,4,30,,,,5,0,5,0,,,,,,,,,0,0,0,0,0,3,3,3,3,0,3,0,,,,,,,,,,,,,,,,,,,,,,,,,,,,,,,,,,,,,,,,,,,,,,,,,,,,,,,,,,,,,,,,30,,,,,,,,1514.7024129000492,1514.7024129000492,1514.7024129000492,1514.7024129000492,1514.7024129000492,return,0.5770030999556184,1,1,0,0,0.15999999999999998,-0.16,return,0.492768099764362,64,-6,0.15999999999999998,-0.16,,,,,,,,,,,,,,,,,,,,,,,,,,,,,,,,,,,,,,,,,,,,,,,,,,,,,,,,7NQM7N,train_y,red_square,bottom_right,2025-08-21_10h51.48.483,HideSeek_v1,2022.2.5,60.03348666827258,
,5,2,0,2,-5,0,66,,train_dim1_2,5,30,,,,5,0,5,0,,,,,,,,,0,0,0,0,0,4,4,4,0,0,0,0,,,,,,,,,,,,,,,,,,,,,,,,,stimuli/alien_stimuli/66.png,,,,,,,,,,,,,,,,,,,,,,,,,,,,,stimuli/alien_stimuli/56.png,56,7,6,,,,,,,30,,,,,,,,1523.3515294999816,1523.3515294999816,1523.3515294999816,1523.3515294999816,1523.3515294999816,left,3.725614700000733,1,1,0,99,0.15999999999999998,-0.24,left,3.6416751998476684,,,,,1521.7934069000185,1523.3515294999816,0.08,-0.16,0.0,0.32,-0.16,0.08,0.24000000000000002,0.08,-0.16,1516.8610576000065,1516.8610576000065,1516.8610576000065,1516.8610576000065,1516.8610576000065,1516.8610576000065,1516.8610576000065,1516.8610576000065,1516.839044889994,5.056888499995694,return,4.916383799863979,,,,,,,,,,,,,,,,,,,,,,,,,,,,,,,,,7NQM7N,train_y,red_square,bottom_right,2025-08-21_10h51.48.483,HideSeek_v1,2022.2.5,60.03348666827258,
,5,2,0,2,-5,0,66,,train_dim1_2,5,30,,,,5,0,5,0,,,,,,,,,0,0,0,0,0,4,4,4,1,0,1,0,,,,,,,,,,,,,,,,,,,,,,,,,,,,,,,,,,,,,,,,,,,,,,,,,,,,,,,,,,,,,,,,30,,,,,,,,1527.0793229001574,1527.0793229001574,1527.0793229001574,1527.0793229001574,1527.0793229001574,left,0.42655249987728894,1,1,0,99,0.07999999999999997,-0.24,left,0.3471178999170661,,,,,,,,,,,,,,,,,,,,,,,,,,,,,,,,,,,,,,,,,,,,,,,,,,,,,,,,,,,,7NQM7N,train_y,red_square,bottom_right,2025-08-21_10h51.48.483,HideSeek_v1,2022.2.5,60.03348666827258,
,5,2,0,2,-5,0,66,,train_dim1_2,5,30,,,,5,0,5,0,,,,,,,,,0,0,0,0,0,4,4,4,2,0,2,0,,,,,,,,,,,,,,,,,,,,,,,,,,,,,,,,,,,,,,,,,,,,,,,,,,,,,,,,,,,,,,,,30,,,,,,,,1527.5118807000108,1527.5118807000108,1527.5118807000108,1527.5118807000108,1527.5118807000108,left,0.40924660000018775,1,1,0,99,-2.7755575615628914e-17,-0.24,left,0.3268224997445941,,,,,,,,,,,,,,,,,,,,,,,,,,,,,,,,,,,,,,,,,,,,,,,,,,,,,,,,,,,,7NQM7N,train_y,red_square,bottom_right,2025-08-21_10h51.48.483,HideSeek_v1,2022.2.5,60.03348666827258,
