trialInstr,x_fixStart,y_fixStart,x_corrSteps,y_corrSteps,x_nrSteps,y_nrSteps,alienID,trialLength,version,trialTrain,praclen,testlen,trial_label,break_on_off,beforeExpLoop.thisRepN,beforeExpLoop.thisTrialN,beforeExpLoop.thisN,beforeExpLoop.thisIndex,mini_instr_trials.thisRepN,mini_instr_trials.thisTrialN,mini_instr_trials.thisN,mini_instr_trials.thisIndex,instrLoop.thisRepN,instrLoop.thisTrialN,instrLoop.thisN,instrLoop.thisIndex,repeat_prac.thisRepN,repeat_prac.thisTrialN,repeat_prac.thisN,repeat_prac.thisIndex,trainLoop.thisRepN,trainLoop.thisTrialN,trainLoop.thisN,trainLoop.thisIndex,moveLoop_train.thisRepN,moveLoop_train.thisTrialN,moveLoop_train.thisN,moveLoop_train.thisIndex,experiment.thisRepN,experiment.thisTrialN,experiment.thisN,experiment.thisIndex,moveLoop_test.thisRepN,moveLoop_test.thisTrialN,moveLoop_test.thisN,moveLoop_test.thisIndex,mini_instr2_trials.thisRepN,mini_instr2_trials.thisTrialN,mini_instr2_trials.thisN,mini_instr2_trials.thisIndex,start_all_time,url,slideStim,audioStim,slides.started,sounds.started,nextButton.numClicks,nextButton.timesOn,nextButton.timesOff,prev_but.numClicks,prev_but.timesOn,prev_but.timesOff,alienStim,instrFile,alienStim_instr,gridImage_instr.started,startPos_3.started,key_instr.started,alienImage_3.started,sounds_1.started,key_instr.keys,key_instr.rt,all_x,all_y,FBy_corrSteps,FBy_fixStart,FBx_corrSteps,FBx_fixStart,FBy_pathSize_check,FBx_pathSize_check,gridImage_9.started,alienImageFB_3.started,startPosFB_3.started,keyFB_3.started,pathLine_ydir_2.started,pathLine_xdir_2.started,alienFace_3.started,sounds_2.started,RTFB_instr,keyFB_3.keys,keyFB_3.rt,draw_alienStim,draw_alienID,test_x,nrepcount,perfthres,percthres,earlierperf,earlystop,nextPrac,fileidx,praclen,saveACC_train,pracFile,nextPrac_train,addNrep,fileidx_endr,repExp,showearly,gridImage_4.started,startPos.started,movePos.started,key_resp.started,alienImage.started,buttonPress_train,RTchoice_train,cumAcctrain,aCorr,saveACC_choice,corrAns,x_movePos_end,y_movePos_end,key_resp.keys,key_resp.rt,wLy_dir,wLx_dir,x_movePos,y_movePos,text_2.started,text_2.stopped,aft_x_corrPos,aft_y_corrPos,y_pathSize_check,x_pathSize_check,y_pathdirY,x_pathdirY,x_pathdirX,x_corrPos,y_corrPos,gridImage_6.started,alienImageFB_2.started,startPosFB_2.started,movePosFB_2.started,keyFB_2.started,pathLine_xdir.started,pathLine_ydir.started,alienFace.started,sounds_4.started,RT_FBtrain,keyFB_2.keys,keyFB_2.rt,saveACC_pre,ACC,within_saveACC_train,earlystop_wloop,cumAcctrain_check,gridImage_3.started,alienImage_test.started,startPos_test.started,movePos_test.started,key_resp_test.started,wLy_dir_test,wLx_dir_test,buttonPress_test,RTchoice_test,cumAcctest,corrAns_test,key_resp_test.keys,key_resp_test.rt,text_3.started,text_3.stopped,total_time,end_all_time,key_resp_3.keys,slides_2.started,sounds_3.started,nextButton_2.numClicks,nextButton_2.timesOn,nextButton_2.timesOff,prev_but_2.numClicks,prev_but_2.timesOn,prev_but_2.timesOff,bye.started,participant,train_first,00_coordinate,starting corner,date,expName,psychopyVersion,frameRate,
,,,,,,,,,,,,,,,0,0,0,0,0,0,0,0,,,,,,,,,,,,,,,,,,,,,,,,,,,,,start_all_time,testround,conditions/schedules/train_x_first/blue_star_00/top_left/instructions/Slide1.png,conditions/schedules/train_x_first/blue_star_00/top_left/instructions/Audio1.wav,1437.7000389000168,1437.6524555987562,1,[11.810914400033653],[11.81092349998653],0,,,,,,,,,,,,,,,,,,,,,,,,,,,,,,,,,,,,,,,,,,,,,,,,,,,,,,,,,,,,,,,,,,,,,,,,,,,,,,,,,,,,,,,,,,,,,,,,,,,,,,,,,,,,,,,,,,,,,,,,,,,,8CLW2F,train_x,blue_star,top_left,2025-03-26_17h51.12.325,HideSeek_v1,2022.2.5,59.94840841165399,
,,,,,,,,,,,,,,,0,0,0,0,1,0,1,0,,,,,,,,,,,,,,,,,,,,,,,,,,,,,,,conditions/schedules/train_x_first/blue_star_00/top_left/instructions/Slide2.png,conditions/schedules/train_x_first/blue_star_00/top_left/instructions/Audio2.wav,1449.529932100093,1449.5298154000775,2,"[11.810914400033653, 18.329316099989228]","[0.013681999989785254, 18.32932289992459]",0,,,,,,,,,,,,,,,,,,,,,,,,,,,,,,,,,,,,,,,,,,,,,,,,,,,,,,,,,,,,,,,,,,,,,,,,,,,,,,,,,,,,,,,,,,,,,,,,,,,,,,,,,,,,,,,,,,,,,,,,,,,,8CLW2F,train_x,blue_star,top_left,2025-03-26_17h51.12.325,HideSeek_v1,2022.2.5,59.94840841165399,
,,,,,,,,,,,,,,,0,0,0,0,2,0,2,0,,,,,,,,,,,,,,,,,,,,,,,,,,,,,,,conditions/schedules/train_x_first/blue_star_00/top_left/instructions/Slide3.png,conditions/schedules/train_x_first/blue_star_00/top_left/instructions/Audio3.wav,1467.9402065000031,1467.9284125000122,3,"[11.810914400033653, 18.329316099989228, 16.60023069998715]","[0.013681999989785254, 18.32932289992459, 16.600238500046544]",0,,,,,,,,,,,,,,,,,,,,,,,,,,,,,,,,,,,,,,,,,,,,,,,,,,,,,,,,,,,,,,,,,,,,,,,,,,,,,,,,,,,,,,,,,,,,,,,,,,,,,,,,,,,,,,,,,,,,,,,,,,,,8CLW2F,train_x,blue_star,top_left,2025-03-26_17h51.12.325,HideSeek_v1,2022.2.5,59.94840841165399,
,,,,,,,,,,,,,,,0,0,0,0,3,0,3,0,,,,,,,,,,,,,,,,,,,,,,,,,,,,,,,conditions/schedules/train_x_first/blue_star_00/top_left/instructions/Slide4.png,conditions/schedules/train_x_first/blue_star_00/top_left/instructions/Audio4.wav,1484.6259877000703,1484.6259968600468,4,"[11.810914400033653, 18.329316099989228, 16.60023069998715, 19.39767039997969]","[0.013681999989785254, 18.32932289992459, 0.014106800081208348, 19.397676600026898]",0,,,,,,,,,,,,,,,,,,,,,,,,,,,,,,,,,,,,,,,,,,,,,,,,,,,,,,,,,,,,,,,,,,,,,,,,,,,,,,,,,,,,,,,,,,,,,,,,,,,,,,,,,,,,,,,,,,,,,,,,,,,,8CLW2F,train_x,blue_star,top_left,2025-03-26_17h51.12.325,HideSeek_v1,2022.2.5,59.94840841165399,
,,,,,,,,,,,,,,,0,0,0,0,4,0,4,0,,,,,,,,,,,,,,,,,,,,,,,,,,,,,,,conditions/schedules/train_x_first/blue_star_00/top_left/instructions/Slide5.png,conditions/schedules/train_x_first/blue_star_00/top_left/instructions/Audio5.wav,1504.0905981000978,1504.0921732000425,5,"[11.810914400033653, 18.329316099989228, 16.60023069998715, 19.39767039997969, 4.220391000038944]","[0.013681999989785254, 18.32932289992459, 0.014106800081208348, 0.032972400076687336, 4.220397499972023]",0,,,,,,,,,,,,,,,,,,,,,,,,,,,,,,,,,,,,,,,,,,,,,,,,,,,,,,,,,,,,,,,,,,,,,,,,,,,,,,,,,,,,,,,,,,,,,,,,,,,,,,,,,,,,,,,,,,,,,,,,,,,,8CLW2F,train_x,blue_star,top_left,2025-03-26_17h51.12.325,HideSeek_v1,2022.2.5,59.94840841165399,
,,,,,,,,,,,,,,,0,0,0,0,5,0,5,0,,,,,,,,,,,,,,,,,,,,,,,,,,,,,,,conditions/schedules/train_x_first/blue_star_00/top_left/instructions/Slide6.png,conditions/schedules/train_x_first/blue_star_00/top_left/instructions/Audio6.wav,1508.3616130000446,1508.362728240015,6,"[11.810914400033653, 18.329316099989228, 16.60023069998715, 19.39767039997969, 4.220391000038944, 4.368765000021085]","[0.013681999989785254, 18.32932289992459, 0.014106800081208348, 0.032972400076687336, 0.0648935999488458, 4.368770899949595]",0,,,,,,,,,,,,,,,,,,,,,,,,,,,,,,,,,,,,,,,,,,,,,,,,,,,,,,,,,,,,,,,,,,,,,,,,,,,,,,,,,,,,,,,,,,,,,,,,,,,,,,,,,,,,,,,,,,,,,,,,,,,,8CLW2F,train_x,blue_star,top_left,2025-03-26_17h51.12.325,HideSeek_v1,2022.2.5,59.94840841165399,
,,,,,,,,,,,,,,,0,0,0,0,6,0,6,0,,,,,,,,,,,,,,,,,,,,,,,,,,,,,,,conditions/schedules/train_x_first/blue_star_00/top_left/instructions/Slide7.png,conditions/schedules/train_x_first/blue_star_00/top_left/instructions/Audio7.wav,1512.7814182000002,1512.7830421400024,7,"[11.810914400033653, 18.329316099989228, 16.60023069998715, 19.39767039997969, 4.220391000038944, 4.368765000021085, 5.503891200060025]","[0.013681999989785254, 18.32932289992459, 0.014106800081208348, 0.032972400076687336, 0.0648935999488458, 0.08271930005867034, 5.503897399990819]",0,,,,,,,,,,,,,,,,,,,,,,,,,,,,,,,,,,,,,,,,,,,,,,,,,,,,,,,,,,,,,,,,,,,,,,,,,,,,,,,,,,,,,,,,,,,,,,,,,,,,,,,,,,,,,,,,,,,,,,,,,,,,8CLW2F,train_x,blue_star,top_left,2025-03-26_17h51.12.325,HideSeek_v1,2022.2.5,59.94840841165399,
,,,,,,,,,,,,,,,0,0,0,0,7,0,7,0,,,,,,,,,,,,,,,,,,,,,,,,,,,,,,,conditions/schedules/train_x_first/blue_star_00/top_left/instructions/Slide8.png,conditions/schedules/train_x_first/blue_star_00/top_left/instructions/Audio8.wav,1518.3386791000376,1518.3374649400823,8,"[11.810914400033653, 18.329316099989228, 16.60023069998715, 19.39767039997969, 4.220391000038944, 4.368765000021085, 5.503891200060025, 11.573267200030386]","[0.013681999989785254, 18.32932289992459, 0.014106800081208348, 0.032972400076687336, 0.0648935999488458, 0.08271930005867034, 0.04718520003370941, 11.57327399996575]",0,,,,,,,,,,,,,,,,,,,,,,,,,,,,,,,,,,,,,,,,,,,,,,,,,,,,,,,,,,,,,,,,,,,,,,,,,,,,,,,,,,,,,,,,,,,,,,,,,,,,,,,,,,,,,,,,,,,,,,,,,,,,8CLW2F,train_x,blue_star,top_left,2025-03-26_17h51.12.325,HideSeek_v1,2022.2.5,59.94840841165399,
,,,,,,,,,,,,,,,0,0,0,0,8,0,8,0,,,,,,,,,,,,,,,,,,,,,,,,,,,,,,,conditions/schedules/train_x_first/blue_star_00/top_left/instructions/Slide9.png,conditions/schedules/train_x_first/blue_star_00/top_left/instructions/Audio9.wav,1529.983025600086,1529.9802351000835,9,"[11.810914400033653, 18.329316099989228, 16.60023069998715, 19.39767039997969, 4.220391000038944, 4.368765000021085, 5.503891200060025, 11.573267200030386, 6.166931099956855]","[0.013681999989785254, 18.32932289992459, 0.014106800081208348, 0.032972400076687336, 0.0648935999488458, 0.08271930005867034, 0.04718520003370941, 0.04554699989967048, 6.166937500005588]",0,,,,,,,,,,,,,,,,,,,,,,,,,,,,,,,,,,,,,,,,,,,,,,,,,,,,,,,,,,,,,,,,,,,,,,,,,,,,,,,,,,,,,,,,,,,,,,,,,,,,,,,,,,,,,,,,,,,,,,,,,,,,8CLW2F,train_x,blue_star,top_left,2025-03-26_17h51.12.325,HideSeek_v1,2022.2.5,59.94840841165399,
,,,,,,,,,,,,,,,0,0,0,0,9,0,9,0,,,,,,,,,,,,,,,,,,,,,,,,,,,,,,,conditions/schedules/train_x_first/blue_star_00/top_left/instructions/Slide10.png,conditions/schedules/train_x_first/blue_star_00/top_left/instructions/Audio10.wav,1536.2083099000156,1536.2023549400503,10,"[11.810914400033653, 18.329316099989228, 16.60023069998715, 19.39767039997969, 4.220391000038944, 4.368765000021085, 5.503891200060025, 11.573267200030386, 6.166931099956855, 7.381826199940406]","[0.013681999989785254, 18.32932289992459, 0.014106800081208348, 0.032972400076687336, 0.0648935999488458, 0.08271930005867034, 0.04718520003370941, 0.04554699989967048, 6.166937500005588, 7.381832499988377]",0,,,,,,,,,,,,,,,,,,,,,,,,,,,,,,,,,,,,,,,,,,,,,,,,,,,,,,,,,,,,,,,,,,,,,,,,,,,,,,,,,,,,,,,,,,,,,,,,,,,,,,,,,,,,,,,,,,,,,,,,,,,,8CLW2F,train_x,blue_star,top_left,2025-03-26_17h51.12.325,HideSeek_v1,2022.2.5,59.94840841165399,
,,,,,,,,,,,,,,,0,0,0,0,10,0,10,0,,,,,,,,,,,,,,,,,,,,,,,,,,,,,,,conditions/schedules/train_x_first/blue_star_00/top_left/instructions/Slide11.png,conditions/schedules/train_x_first/blue_star_00/top_left/instructions/Audio11.wav,1543.6430298000341,1543.6419180400437,11,"[11.810914400033653, 18.329316099989228, 16.60023069998715, 19.39767039997969, 4.220391000038944, 4.368765000021085, 5.503891200060025, 11.573267200030386, 6.166931099956855, 7.381826199940406, 10.454815899953246]","[0.013681999989785254, 18.32932289992459, 0.014106800081208348, 0.032972400076687336, 0.0648935999488458, 0.08271930005867034, 0.04718520003370941, 0.04554699989967048, 6.166937500005588, 0.029984899912960827, 10.454822100000456]",0,,,,,,,,,,,,,,,,,,,,,,,,,,,,,,,,,,,,,,,,,,,,,,,,,,,,,,,,,,,,,,,,,,,,,,,,,,,,,,,,,,,,,,,,,,,,,,,,,,,,,,,,,,,,,,,,,,,,,,,,,,,,8CLW2F,train_x,blue_star,top_left,2025-03-26_17h51.12.325,HideSeek_v1,2022.2.5,59.94840841165399,
,,,,,,,,,,,,,,,0,0,0,0,11,0,11,0,,,,,,,,,,,,,,,,,,,,,,,,,,,,,,,conditions/schedules/train_x_first/blue_star_00/top_left/instructions/Slide12.png,conditions/schedules/train_x_first/blue_star_00/top_left/instructions/Audio12.wav,1554.1677758001024,1554.1670554000302,12,"[11.810914400033653, 18.329316099989228, 16.60023069998715, 19.39767039997969, 4.220391000038944, 4.368765000021085, 5.503891200060025, 11.573267200030386, 6.166931099956855, 7.381826199940406, 10.454815899953246, 12.457776899915189]","[0.013681999989785254, 18.32932289992459, 0.014106800081208348, 0.032972400076687336, 0.0648935999488458, 0.08271930005867034, 0.04718520003370941, 0.04554699989967048, 6.166937500005588, 0.029984899912960827, 0.04717109992634505, 12.457783499965444]",0,,,,,,,,,,,,,,,,,,,,,,,,,,,,,,,,,,,,,,,,,,,,,,,,,,,,,,,,,,,,,,,,,,,,,,,,,,,,,,,,,,,,,,,,,,,,,,,,,,,,,,,,,,,,,,,,,,,,,,,,,,,,8CLW2F,train_x,blue_star,top_left,2025-03-26_17h51.12.325,HideSeek_v1,2022.2.5,59.94840841165399,
1,4,5,9,5,5,0,11,2,instr_dim1_1,,,,,,0,0,0,0,,,,,0,0,0,0,,,,,,,,,,,,,,,,,,,,,,,,,,,,,,,,,,,,,stimuli/alien_stimuli/11.png,conditions/schedules/train_x_first/blue_star_00/top_left/inputInstr_1.xlsx,stimuli/alien_stimuli/11.png,1566.7235042999964,1566.7235042999964,1566.7235042999964,1566.7235042999964,1566.7108083599712,return,11.852627899963409,"[-0.16, -0.08, 0, 0.08, 0.16, 0.24, 0.32, 0.4, 0.48, 0.56]","[-0.4, -0.32, -0.24, -0.16, -0.08, 0, 0.08, 0.16, 0.24, 0.32]",5,5,9,4,0.0,0.4,1578.75923960004,1578.75923960004,1578.75923960004,1578.75923960004,1578.75923960004,1578.75923960004,1578.75923960004,1578.7534096000018,83.58701430005021,return,83.40504970005713,stimuli/alien_stimuli/11.png,11,4,1,,,,,,,,,,,,,,,,,,,,,,,,,,,,,,,,,,,,,,,,,,,,,,,,,,,,,,,,,,,,,,,,,,,,,,,,,,,,,,,,,,,,,,,,,8CLW2F,train_x,blue_star,top_left,2025-03-26_17h51.12.325,HideSeek_v1,2022.2.5,59.94840841165399,
,,,,,,,,,,,30,,,,0,0,0,0,,,,,,,,,,,,,,,,,,,,,,,,,,,,,,,,,,,,,,,,,,,,,,,,,,,,,,,,,,,,,,,,,,,,,,,,,,,,,,21,0.7,0,0,99,1,30,0,conditions/schedules/train_x_first/blue_star_00/top_left/inputTrain_1.1.xlsx,99,1,1,1,0,,,,,,,,,,,,,,,,,,,,,,,,,,,,,,,,,,,,,,,,,,,,,,,,,,,,,,,,,,,,,,,,,,,,,,,,,,,8CLW2F,train_x,blue_star,top_left,2025-03-26_17h51.12.325,HideSeek_v1,2022.2.5,59.94840841165399,
,,,,,,,,,,,,,,,1,0,1,0,0,0,0,0,,,,,,,,,,,,,,,,,,,,,,,,,,,,,,,conditions/schedules/train_x_first/blue_star_00/top_left/instructions/Slide13.png,conditions/schedules/train_x_first/blue_star_00/top_left/instructions/Audio13.wav,1662.3423301000148,1662.3395419999724,13,"[11.810914400033653, 18.329316099989228, 16.60023069998715, 19.39767039997969, 4.220391000038944, 4.368765000021085, 5.503891200060025, 11.573267200030386, 6.166931099956855, 7.381826199940406, 10.454815899953246, 12.457776899915189, 24.74973909999244]","[0.013681999989785254, 18.32932289992459, 0.014106800081208348, 0.032972400076687336, 0.0648935999488458, 0.08271930005867034, 0.04718520003370941, 0.04554699989967048, 6.166937500005588, 0.029984899912960827, 0.04717109992634505, 12.457783499965444, 24.749745700042695]",0,,,,,,,,,,,,,,,,,,,,,,,,,,,,,,,,,,,,,,,,,,,,,,,,,,,,,,,,,,,,,,,,,,,,,,,,,,,,,,,,,,,,,,,,,,,,,,,,,,,,,,,,,,,,,,,,,,,,,,,,,,,,8CLW2F,train_x,blue_star,top_left,2025-03-26_17h51.12.325,HideSeek_v1,2022.2.5,59.94840841165399,
,,,,,,,,,,,,,,,1,0,1,0,1,0,1,0,,,,,,,,,,,,,,,,,,,,,,,,,,,,,,,conditions/schedules/train_x_first/blue_star_00/top_left/instructions/Slide14.png,conditions/schedules/train_x_first/blue_star_00/top_left/instructions/Audio14.wav,1687.1670597000048,1687.1606896999874,14,"[11.810914400033653, 18.329316099989228, 16.60023069998715, 19.39767039997969, 4.220391000038944, 4.368765000021085, 5.503891200060025, 11.573267200030386, 6.166931099956855, 7.381826199940406, 10.454815899953246, 12.457776899915189, 24.74973909999244, 12.668766399961896]","[0.013681999989785254, 18.32932289992459, 0.014106800081208348, 0.032972400076687336, 0.0648935999488458, 0.08271930005867034, 0.04718520003370941, 0.04554699989967048, 6.166937500005588, 0.029984899912960827, 0.04717109992634505, 12.457783499965444, 24.749745700042695, 12.668773799901828]",0,,,,,,,,,,,,,,,,,,,,,,,,,,,,,,,,,,,,,,,,,,,,,,,,,,,,,,,,,,,,,,,,,,,,,,,,,,,,,,,,,,,,,,,,,,,,,,,,,,,,,,,,,,,,,,,,,,,,,,,,,,,,8CLW2F,train_x,blue_star,top_left,2025-03-26_17h51.12.325,HideSeek_v1,2022.2.5,59.94840841165399,
2,3,7,3,7,0,0,61,2,instr_dim1_1,,,,,,1,0,1,0,,,,,0,0,0,0,,,,,,,,,,,,,,,,,,,,,,,,,,,,,,,,,,,,,stimuli/alien_stimuli/61.png,conditions/schedules/train_x_first/blue_star_00/top_left/inputInstr_1.xlsx,stimuli/alien_stimuli/61.png,1699.9369808000047,1699.9369808000047,1699.9369808000047,1699.9369808000047,1699.9377240200643,return,7.039335999987088,"[-0.16, -0.08, 0, 0.08, 0.16, 0.24, 0.32, 0.4, 0.48, 0.56]","[-0.4, -0.32, -0.24, -0.16, -0.08, 0, 0.08, 0.16, 0.24, 0.32]",7,7,3,3,0.0,0.0,1707.129318500054,1707.129318500054,1707.129318500054,1707.129318500054,1707.129318500054,1707.129318500054,1707.129318500054,1707.110288680042,6.640301199979149,return,6.48037599993404,stimuli/alien_stimuli/61.png,61,3,2,,,,,,,,,,,,,,,,,,,,,,,,,,,,,,,,,,,,,,,,,,,,,,,,,,,,,,,,,,,,,,,,,,,,,,,,,,,,,,,,,,,,,,,,,8CLW2F,train_x,blue_star,top_left,2025-03-26_17h51.12.325,HideSeek_v1,2022.2.5,59.94840841165399,
,,,,,,,,,,,30,,,,1,0,1,0,,,,,,,,,,,,,,,,,,,,,,,,,,,,,,,,,,,,,,,,,,,,,,,,,,,,,,,,,,,,,,,,,,,,,,,,,,,,,,21,0.7,0,0,99,1,30,0,conditions/schedules/train_x_first/blue_star_00/top_left/inputTrain_1.1.xlsx,99,1,1,1,0,,,,,,,,,,,,,,,,,,,,,,,,,,,,,,,,,,,,,,,,,,,,,,,,,,,,,,,,,,,,,,,,,,,,,,,,,,,8CLW2F,train_x,blue_star,top_left,2025-03-26_17h51.12.325,HideSeek_v1,2022.2.5,59.94840841165399,
,,,,,,,,,,,,,,,2,0,2,0,0,0,0,0,,,,,,,,,,,,,,,,,,,,,,,,,,,,,,,conditions/schedules/train_x_first/blue_star_00/top_left/instructions/Slide15.png,conditions/schedules/train_x_first/blue_star_00/top_left/instructions/Audio15.wav,1713.7890082000522,1713.782668299973,15,"[11.810914400033653, 18.329316099989228, 16.60023069998715, 19.39767039997969, 4.220391000038944, 4.368765000021085, 5.503891200060025, 11.573267200030386, 6.166931099956855, 7.381826199940406, 10.454815899953246, 12.457776899915189, 24.74973909999244, 12.668766399961896, 29.699779400019906]","[0.013681999989785254, 18.32932289992459, 0.014106800081208348, 0.032972400076687336, 0.0648935999488458, 0.08271930005867034, 0.04718520003370941, 0.04554699989967048, 6.166937500005588, 0.029984899912960827, 0.04717109992634505, 12.457783499965444, 24.749745700042695, 12.668773799901828, 29.699786599958315]",0,,,,,,,,,,,,,,,,,,,,,,,,,,,,,,,,,,,,,,,,,,,,,,,,,,,,,,,,,,,,,,,,,,,,,,,,,,,,,,,,,,,,,,,,,,,,,,,,,,,,,,,,,,,,,,,,,,,,,,,,,,,,8CLW2F,train_x,blue_star,top_left,2025-03-26_17h51.12.325,HideSeek_v1,2022.2.5,59.94840841165399,
,,,,,,,,,,,,,,,2,0,2,0,1,0,1,0,,,,,,,,,,,,,,,,,,,,,,,,,,,,,,,conditions/schedules/train_x_first/blue_star_00/top_left/instructions/Slide16.png,conditions/schedules/train_x_first/blue_star_00/top_left/instructions/Audio16.wav,1743.567162499996,1743.5570677000214,16,"[11.810914400033653, 18.329316099989228, 16.60023069998715, 19.39767039997969, 4.220391000038944, 4.368765000021085, 5.503891200060025, 11.573267200030386, 6.166931099956855, 7.381826199940406, 10.454815899953246, 12.457776899915189, 24.74973909999244, 12.668766399961896, 29.699779400019906, 21.10691550001502]","[0.013681999989785254, 18.32932289992459, 0.014106800081208348, 0.032972400076687336, 0.0648935999488458, 0.08271930005867034, 0.04718520003370941, 0.04554699989967048, 6.166937500005588, 0.029984899912960827, 0.04717109992634505, 12.457783499965444, 24.749745700042695, 12.668773799901828, 29.699786599958315, 21.10692209994886]",0,,,,,,,,,,,,,,,,,,,,,,,,,,,,,,,,,,,,,,,,,,,,,,,,,,,,,,,,,,,,,,,,,,,,,,,,,,,,,,,,,,,,,,,,,,,,,,,,,,,,,,,,,,,,,,,,,,,,,,,,,,,,8CLW2F,train_x,blue_star,top_left,2025-03-26_17h51.12.325,HideSeek_v1,2022.2.5,59.94840841165399,
,2,6,5,6,3,0,31,,train_dim1_1,1,30,,,,2,0,2,0,,,,,,,,,0,0,0,0,0,0,0,0,0,0,0,0,,,,,,,,,,,,,,,,,,,,,,,,,stimuli/alien_stimuli/31.png,,,,,,,,,,,,,,,,,,,,,,,,,,,,,,,,,,,,,,,30,,,,,,,,1764.7763142000185,1764.7763142000185,1764.7763142000185,1764.7763142000185,1764.7763142000185,left,4.647247300017625,0,0,0,99,-0.08,0.08,left,4.538557599997148,,,,,,,,,,,,,,,,,,,,,,,,,,,,,,,,,,,,,,,,,,,,,,,,,,,,,,,,,,,,8CLW2F,train_x,blue_star,top_left,2025-03-26_17h51.12.325,HideSeek_v1,2022.2.5,59.94840841165399,
,2,6,5,6,3,0,31,,train_dim1_1,1,30,,,,2,0,2,0,,,,,,,,,0,0,0,0,0,0,0,0,1,0,1,0,,,,,,,,,,,,,,,,,,,,,,,,,,,,,,,,,,,,,,,,,,,,,,,,,,,,,,,,,,,,,,,,30,,,,,,,,1769.411058000056,1769.411058000056,1769.411058000056,1769.411058000056,1769.411058000056,right,5.313479000004008,0,0,0,99,0.0,0.08,right,5.229192900005728,,,,,,,,,,,,,,,,,,,,,,,,,,,,,,,,,,,,,,,,,,,,,,,,,,,,,,,,,,,,8CLW2F,train_x,blue_star,top_left,2025-03-26_17h51.12.325,HideSeek_v1,2022.2.5,59.94840841165399,
,2,6,5,6,3,0,31,,train_dim1_1,1,30,,,,2,0,2,0,,,,,,,,,0,0,0,0,0,0,0,0,2,0,2,0,,,,,,,,,,,,,,,,,,,,,,,,,,,,,,,,,,,,,,,,,,,,,,,,,,,,,,,,,,,,,,,,30,,,,,,,,1774.7307175000897,1774.7307175000897,1774.7307175000897,1774.7307175000897,1774.7307175000897,right,1.2273881000000983,0,0,0,99,0.08,0.08,right,1.1437317000236362,,,,,,,,,,,,,,,,,,,,,,,,,,,,,,,,,,,,,,,,,,,,,,,,,,,,,,,,,,,,8CLW2F,train_x,blue_star,top_left,2025-03-26_17h51.12.325,HideSeek_v1,2022.2.5,59.94840841165399,
,2,6,5,6,3,0,31,,train_dim1_1,1,30,,,,2,0,2,0,,,,,,,,,0,0,0,0,0,0,0,0,3,0,3,0,,,,,,,,,,,,,,,,,,,,,,,,,,,,,,,,,,,,,,,,,,,,,,,,,,,,,,,,,,,,,,,,30,,,,,,,,1775.9648061000044,1775.9648061000044,1775.9648061000044,1775.9648061000044,1775.9648061000044,right,0.8100969000952318,0,0,0,99,0.16,0.08,right,0.735565899987705,,,,,,,,,,,,,,,,,,,,,,,,,,,,,,,,,,,,,,,,,,,,,,,,,,,,,,,,,,,,8CLW2F,train_x,blue_star,top_left,2025-03-26_17h51.12.325,HideSeek_v1,2022.2.5,59.94840841165399,
,2,6,5,6,3,0,31,,train_dim1_1,1,30,,,,2,0,2,0,,,,,,,,,0,0,0,0,0,0,0,0,4,0,4,0,,,,,,,,,,,,,,,,,,,,,,,,,,,,,,,,,,,,,,,,,,,,,,,,,,,,,,,,,,,,,,,,30,,,,,,,,1776.7827205000212,1776.7827205000212,1776.7827205000212,1776.7827205000212,1776.7827205000212,down,0.8604422999778762,0,0,0,99,0.16,0.0,down,0.7806573999114335,,,,,,,,,,,,,,,,,,,,,,,,,,,,,,,,,,,,,,,,,,,,,,,,,,,,,,,,,,,,8CLW2F,train_x,blue_star,top_left,2025-03-26_17h51.12.325,HideSeek_v1,2022.2.5,59.94840841165399,
,2,6,5,6,3,0,31,,train_dim1_1,1,30,,,,2,0,2,0,,,,,,,,,0,0,0,0,0,0,0,0,5,0,5,0,,,,,,,,,,,,,,,,,,,,,,,,,,,,,,,,,,,,,,,,,,,,,,,,,,,,,,,,,,,,,,,,30,,,,,,,,1777.6499100000365,1777.6499100000365,1777.6499100000365,1777.6499100000365,1777.6499100000365,down,0.6602121000178158,0,0,0,99,0.16,-0.08,down,0.5768913000356406,,,,,,,,,,,,,,,,,,,,,,,,,,,,,,,,,,,,,,,,,,,,,,,,,,,,,,,,,,,,8CLW2F,train_x,blue_star,top_left,2025-03-26_17h51.12.325,HideSeek_v1,2022.2.5,59.94840841165399,
,2,6,5,6,3,0,31,,train_dim1_1,1,30,,,,2,0,2,0,,,,,,,,,0,0,0,0,0,0,0,0,6,0,6,0,,,,,,,,,,,,,,,,,,,,,,,,,,,,,,,,,,,,,,,,,,,,,,,,,,,,,,,,,,,,,,,,30,,,,,,,,1778.3165573000442,1778.3165573000442,1778.3165573000442,1778.3165573000442,1778.3165573000442,right,0.6438026999821886,0,0,0,99,0.24,-0.08,right,0.5557929000351578,,,,,,,,,,,,,,,,,,,,,,,,,,,,,,,,,,,,,,,,,,,,,,,,,,,,,,,,,,,,8CLW2F,train_x,blue_star,top_left,2025-03-26_17h51.12.325,HideSeek_v1,2022.2.5,59.94840841165399,
,2,6,5,6,3,0,31,,train_dim1_1,1,30,,,,2,0,2,0,,,,,,,,,0,0,0,0,0,0,0,0,7,0,7,0,,,,,,,,,,,,,,,,,,,,,,,,,,,,,,,,,,,,,,,,,,,,,,,,,,,,,,,,,,,,,,,,30,,,,,,,,1778.9671492000343,1778.9671492000343,1778.9671492000343,1778.9671492000343,1778.9671492000343,right,0.6601434999611229,0,0,0,99,0.32,-0.08,right,0.5873970000538975,,,,,,,,,,,,,,,,,,,,,,,,,,,,,,,,,,,,,,,,,,,,,,,,,,,,,,,,,,,,8CLW2F,train_x,blue_star,top_left,2025-03-26_17h51.12.325,HideSeek_v1,2022.2.5,59.94840841165399,
,2,6,5,6,3,0,31,,train_dim1_1,1,30,,,,2,0,2,0,,,,,,,,,0,0,0,0,0,0,0,0,8,0,8,0,,,,,,,,,,,,,,,,,,,,,,,,,,,,,,,,,,,,,,,,,,,,,,,,,,,,,,,,,,,,,,,,30,,,,,,,,1779.6346588000888,1779.6346588000888,1779.6346588000888,1779.6346588000888,1779.6346588000888,return,4.180388799984939,0,0,0,0,0.32,-0.08,return,4.102688200073317,-2,4,0.32,-0.08,,,,,,,,,,,,,,,,,,,,,,,,,,,,,,,,,,,,,,,,,,,,,,,,,,,,,,,,8CLW2F,train_x,blue_star,top_left,2025-03-26_17h51.12.325,HideSeek_v1,2022.2.5,59.94840841165399,
,2,9,7,9,5,0,11,,train_dim1_1,2,30,,,,2,0,2,0,,,,,,,,,0,0,0,0,0,1,1,1,0,0,0,0,,,,,,,,,,,,,,,,,,,,,,,,,stimuli/alien_stimuli/11.png,,,,,,,,,,,,,,,,,,,,,,,,,,,,,stimuli/alien_stimuli/31.png,31,2,3,,,,,,,30,,,,,,,,1804.524704700103,1804.524704700103,1804.524704700103,1804.524704700103,1804.524704700103,return,0.2886481999885291,0,0,0,0,0,0.32,return,0.17931809998117387,-2,4,0,0.32,1802.940995800076,1804.524704700103,0.24,0.08,0.0,0.24,0.08,0.24,0.12,0.24,0.08,1785.389674700098,1785.389674700098,1785.389674700098,1785.389674700098,1785.389674700098,1785.389674700098,1785.389674700098,1785.389674700098,1785.3756805200478,17.666612899978645,return,17.52152880001813,,,,,,,,,,,,,,,,,,,,,,,,,,,,,,,,,8CLW2F,train_x,blue_star,top_left,2025-03-26_17h51.12.325,HideSeek_v1,2022.2.5,59.94840841165399,
,4,9,8,9,4,0,21,,train_dim1_1,3,30,,,,2,0,2,0,,,,,,,,,0,0,0,0,0,2,2,2,0,0,0,0,,,,,,,,,,,,,,,,,,,,,,,,,stimuli/alien_stimuli/21.png,,,,,,,,,,,,,,,,,,,,,,,,,,,,,stimuli/alien_stimuli/11.png,11,2,4,,,,,,,30,,,,,,,,1816.0999615000328,1816.0999615000328,1816.0999615000328,1816.0999615000328,1816.0999615000328,right,4.041931099956855,0,0,0,99,0.24,0.32,right,3.9429536999668926,,,,,1814.5340808000183,1816.0999615000328,0.4,0.32,0.0,0.4,0.32,0.4,0.2,0.4,0.32,1806.372288200073,1806.372288200073,1806.372288200073,1806.372288200073,1806.372288200073,1806.372288200073,1806.372288200073,1806.372288200073,1806.359509480046,8.292346100090072,return,8.1295435000211,,,,,,,,,,,,,,,,,,,,,,,,,,,,,,,,,8CLW2F,train_x,blue_star,top_left,2025-03-26_17h51.12.325,HideSeek_v1,2022.2.5,59.94840841165399,
,4,9,8,9,4,0,21,,train_dim1_1,3,30,,,,2,0,2,0,,,,,,,,,0,0,0,0,0,2,2,2,1,0,1,0,,,,,,,,,,,,,,,,,,,,,,,,,,,,,,,,,,,,,,,,,,,,,,,,,,,,,,,,,,,,,,,,30,,,,,,,,1820.1414741000626,1820.1414741000626,1820.1414741000626,1820.1414741000626,1820.1414741000626,right,0.5761396000161767,0,0,0,99,0.32,0.32,right,0.48933300003409386,,,,,,,,,,,,,,,,,,,,,,,,,,,,,,,,,,,,,,,,,,,,,,,,,,,,,,,,,,,,8CLW2F,train_x,blue_star,top_left,2025-03-26_17h51.12.325,HideSeek_v1,2022.2.5,59.94840841165399,
,4,9,8,9,4,0,21,,train_dim1_1,3,30,,,,2,0,2,0,,,,,,,,,0,0,0,0,0,2,2,2,2,0,2,0,,,,,,,,,,,,,,,,,,,,,,,,,,,,,,,,,,,,,,,,,,,,,,,,,,,,,,,,,,,,,,,,30,,,,,,,,1820.7232369000558,1820.7232369000558,1820.7232369000558,1820.7232369000558,1820.7232369000558,right,0.5599531000480056,0,0,0,99,0.4,0.32,right,0.48116740002296865,,,,,,,,,,,,,,,,,,,,,,,,,,,,,,,,,,,,,,,,,,,,,,,,,,,,,,,,,,,,8CLW2F,train_x,blue_star,top_left,2025-03-26_17h51.12.325,HideSeek_v1,2022.2.5,59.94840841165399,
,4,9,8,9,4,0,21,,train_dim1_1,3,30,,,,2,0,2,0,,,,,,,,,0,0,0,0,0,2,2,2,3,0,3,0,,,,,,,,,,,,,,,,,,,,,,,,,,,,,,,,,,,,,,,,,,,,,,,,,,,,,,,,,,,,,,,,30,,,,,,,,1821.2898483000463,1821.2898483000463,1821.2898483000463,1821.2898483000463,1821.2898483000463,right,1.84435080003459,0,0,0,99,0.48000000000000004,0.32,right,1.7673401000211015,,,,,,,,,,,,,,,,,,,,,,,,,,,,,,,,,,,,,,,,,,,,,,,,,,,,,,,,,,,,8CLW2F,train_x,blue_star,top_left,2025-03-26_17h51.12.325,HideSeek_v1,2022.2.5,59.94840841165399,
,4,9,8,9,4,0,21,,train_dim1_1,3,30,,,,2,0,2,0,,,,,,,,,0,0,0,0,0,2,2,2,4,0,4,0,,,,,,,,,,,,,,,,,,,,,,,,,,,,,,,,,,,,,,,,,,,,,,,,,,,,,,,,,,,,,,,,30,,,,,,,,1823.141338000074,1823.141338000074,1823.141338000074,1823.141338000074,1823.141338000074,return,0.6102623000042513,1,0,0,1,0.48000000000000004,0.32,return,0.5258357999846339,-2,8,0.48000000000000004,0.32,,,,,,,,,,,,,,,,,,,,,,,,,,,,,,,,,,,,,,,,,,,,,,,,,,,,,,,,8CLW2F,train_x,blue_star,top_left,2025-03-26_17h51.12.325,HideSeek_v1,2022.2.5,59.94840841165399,
,2,8,3,8,1,0,51,,train_dim1_1,4,30,,,,2,0,2,0,,,,,,,,,0,0,0,0,0,3,3,3,0,0,0,0,,,,,,,,,,,,,,,,,,,,,,,,,stimuli/alien_stimuli/51.png,,,,,,,,,,,,,,,,,,,,,,,,,,,,,stimuli/alien_stimuli/21.png,21,4,5,,,,,,,30,,,,,,,,1831.6092214999953,1831.6092214999953,1831.6092214999953,1831.6092214999953,1831.6092214999953,down,3.0411138999043033,1,0,0,99,0,0.15999999999999998,down,2.9527731999987736,,,,,1830.0475914001,1831.6092214999953,0.48,0.32,0.0,0.32,0.32,0.48,0.32,0.48,0.32,1825.3390536000952,1825.3390536000952,1825.3390536000952,1825.3390536000952,1825.3390536000952,1825.3390536000952,1825.3390536000952,1825.3390536000952,1825.3250378799623,4.83964110002853,return,4.679966400028206,,,,,,,,,,,,,,,,,,,,,,,,,,,,,,,,,8CLW2F,train_x,blue_star,top_left,2025-03-26_17h51.12.325,HideSeek_v1,2022.2.5,59.94840841165399,
,2,8,3,8,1,0,51,,train_dim1_1,4,30,,,,2,0,2,0,,,,,,,,,0,0,0,0,0,3,3,3,1,0,1,0,,,,,,,,,,,,,,,,,,,,,,,,,,,,,,,,,,,,,,,,,,,,,,,,,,,,,,,,,,,,,,,,30,,,,,,,,1834.6498631000286,1834.6498631000286,1834.6498631000286,1834.6498631000286,1834.6498631000286,down,1.0100590999936685,1,0,0,99,0,0.07999999999999997,down,0.9227925000013784,,,,,,,,,,,,,,,,,,,,,,,,,,,,,,,,,,,,,,,,,,,,,,,,,,,,,,,,,,,,8CLW2F,train_x,blue_star,top_left,2025-03-26_17h51.12.325,HideSeek_v1,2022.2.5,59.94840841165399,
,2,8,3,8,1,0,51,,train_dim1_1,4,30,,,,2,0,2,0,,,,,,,,,0,0,0,0,0,3,3,3,2,0,2,0,,,,,,,,,,,,,,,,,,,,,,,,,,,,,,,,,,,,,,,,,,,,,,,,,,,,,,,,,,,,,,,,30,,,,,,,,1835.6665189000778,1835.6665189000778,1835.6665189000778,1835.6665189000778,1835.6665189000778,right,0.5267178999492899,1,0,0,99,0.08,0.07999999999999997,right,0.4445028000045568,,,,,,,,,,,,,,,,,,,,,,,,,,,,,,,,,,,,,,,,,,,,,,,,,,,,,,,,,,,,8CLW2F,train_x,blue_star,top_left,2025-03-26_17h51.12.325,HideSeek_v1,2022.2.5,59.94840841165399,
,2,8,3,8,1,0,51,,train_dim1_1,4,30,,,,2,0,2,0,,,,,,,,,0,0,0,0,0,3,3,3,3,0,3,0,,,,,,,,,,,,,,,,,,,,,,,,,,,,,,,,,,,,,,,,,,,,,,,,,,,,,,,,,,,,,,,,30,,,,,,,,1836.2008948000148,1836.2008948000148,1836.2008948000148,1836.2008948000148,1836.2008948000148,right,0.4435426000272855,1,0,0,99,0.16,0.07999999999999997,right,0.3605364999966696,,,,,,,,,,,,,,,,,,,,,,,,,,,,,,,,,,,,,,,,,,,,,,,,,,,,,,,,,,,,8CLW2F,train_x,blue_star,top_left,2025-03-26_17h51.12.325,HideSeek_v1,2022.2.5,59.94840841165399,
,2,8,3,8,1,0,51,,train_dim1_1,4,30,,,,2,0,2,0,,,,,,,,,0,0,0,0,0,3,3,3,4,0,4,0,,,,,,,,,,,,,,,,,,,,,,,,,,,,,,,,,,,,,,,,,,,,,,,,,,,,,,,,,,,,,,,,30,,,,,,,,1836.6507385000587,1836.6507385000587,1836.6507385000587,1836.6507385000587,1836.6507385000587,down,0.5931317000649869,1,0,0,99,0.16,-2.7755575615628914e-17,down,0.5077518000034615,,,,,,,,,,,,,,,,,,,,,,,,,,,,,,,,,,,,,,,,,,,,,,,,,,,,,,,,,,,,8CLW2F,train_x,blue_star,top_left,2025-03-26_17h51.12.325,HideSeek_v1,2022.2.5,59.94840841165399,
,2,8,3,8,1,0,51,,train_dim1_1,4,30,,,,2,0,2,0,,,,,,,,,0,0,0,0,0,3,3,3,5,0,5,0,,,,,,,,,,,,,,,,,,,,,,,,,,,,,,,,,,,,,,,,,,,,,,,,,,,,,,,,,,,,,,,,30,,,,,,,,1837.2516360000009,1837.2516360000009,1837.2516360000009,1837.2516360000009,1837.2516360000009,right,0.3263669000007212,1,0,0,99,0.24,-2.7755575615628914e-17,right,0.25205259991344064,,,,,,,,,,,,,,,,,,,,,,,,,,,,,,,,,,,,,,,,,,,,,,,,,,,,,,,,,,,,8CLW2F,train_x,blue_star,top_left,2025-03-26_17h51.12.325,HideSeek_v1,2022.2.5,59.94840841165399,
,2,8,3,8,1,0,51,,train_dim1_1,4,30,,,,2,0,2,0,,,,,,,,,0,0,0,0,0,3,3,3,6,0,6,0,,,,,,,,,,,,,,,,,,,,,,,,,,,,,,,,,,,,,,,,,,,,,,,,,,,,,,,,,,,,,,,,30,,,,,,,,1837.5850425000535,1837.5850425000535,1837.5850425000535,1837.5850425000535,1837.5850425000535,right,2.6619706000201404,1,0,0,99,0.32,-2.7755575615628914e-17,right,2.5759230999974534,,,,,,,,,,,,,,,,,,,,,,,,,,,,,,,,,,,,,,,,,,,,,,,,,,,,,,,,,,,,8CLW2F,train_x,blue_star,top_left,2025-03-26_17h51.12.325,HideSeek_v1,2022.2.5,59.94840841165399,
,2,8,3,8,1,0,51,,train_dim1_1,4,30,,,,2,0,2,0,,,,,,,,,0,0,0,0,0,3,3,3,7,0,7,0,,,,,,,,,,,,,,,,,,,,,,,,,,,,,,,,,,,,,,,,,,,,,,,,,,,,,,,,,,,,,,,,30,,,,,,,,1840.253480100073,1840.253480100073,1840.253480100073,1840.253480100073,1840.253480100073,return,0.6263938000192866,1,0,0,0,0.32,-2.7755575615628914e-17,return,0.5497689000330865,-5,12,0.32,-2.7755575615628914e-17,,,,,,,,,,,,,,,,,,,,,,,,,,,,,,,,,,,,,,,,,,,,,,,,,,,,,,,,8CLW2F,train_x,blue_star,top_left,2025-03-26_17h51.12.325,HideSeek_v1,2022.2.5,59.94840841165399,
,0,7,0,7,0,0,61,,train_dim1_1,5,30,,,,2,0,2,0,,,,,,,,,0,0,0,0,0,4,4,4,0,0,0,0,,,,,,,,,,,,,,,,,,,,,,,,,stimuli/alien_stimuli/61.png,,,,,,,,,,,,,,,,,,,,,,,,,,,,,stimuli/alien_stimuli/51.png,51,2,6,,,,,,,30,,,,,,,,1848.769177100039,1848.769177100039,1848.769177100039,1848.769177100039,1848.769177100039,right,1.3072824999690056,1,0,0,99,-0.08,0.16,right,1.215786000015214,,,,,1847.2110591999954,1848.769177100039,0.08,0.24,0.0,0.08,0.24,0.08,0.04,0.08,0.24,1842.459134100005,1842.459134100005,1842.459134100005,1842.459134100005,1842.459134100005,1842.459134100005,1842.459134100005,1842.459134100005,1842.439436720067,4.87339039996732,return,4.731388699961826,,,,,,,,,,,,,,,,,,,,,,,,,,,,,,,,,8CLW2F,train_x,blue_star,top_left,2025-03-26_17h51.12.325,HideSeek_v1,2022.2.5,59.94840841165399,
,0,7,0,7,0,0,61,,train_dim1_1,5,30,,,,2,0,2,0,,,,,,,,,0,0,0,0,0,4,4,4,1,0,1,0,,,,,,,,,,,,,,,,,,,,,,,,,,,,,,,,,,,,,,,,,,,,,,,,,,,,,,,,,,,,,,,,30,,,,,,,,1850.076911900076,1850.076911900076,1850.076911900076,1850.076911900076,1850.076911900076,return,0.5765579999424517,1,1,0,0,-0.08,0.16,return,0.5010013999417424,-5,13,-0.08,0.16,,,,,,,,,,,,,,,,,,,,,,,,,,,,,,,,,,,,,,,,,,,,,,,,,,,,,,,,8CLW2F,train_x,blue_star,top_left,2025-03-26_17h51.12.325,HideSeek_v1,2022.2.5,59.94840841165399,
,0,5,4,5,4,0,21,,train_dim1_1,6,30,,,,2,0,2,0,,,,,,,,,0,0,0,0,0,5,5,5,0,0,0,0,,,,,,,,,,,,,,,,,,,,,,,,,stimuli/alien_stimuli/21.png,,,,,,,,,,,,,,,,,,,,,,,,,,,,,stimuli/alien_stimuli/61.png,61,0,7,,,,,,,30,,,,,,,,1868.9782250000862,1868.9782250000862,1868.9782250000862,1868.9782250000862,1868.9782250000862,return,0.17531180009245872,1,0,0,0,-0.16,0,return,0.06934319995343685,-5,13,-0.16,0,1867.394552300102,1868.9782250000862,-0.16,0.16,0.0,0.0,0.16,-0.16,-0.16,-0.16,0.16,1852.2148605000693,1852.2148605000693,1852.2148605000693,1852.2148605000693,1852.2148605000693,1852.2148605000693,1852.2148605000693,1852.2148605000693,1852.197802560008,15.281400399981067,return,15.155084599973634,,,,,,,,,,,,,,,,,,,,,,,,,,,,,,,,,8CLW2F,train_x,blue_star,top_left,2025-03-26_17h51.12.325,HideSeek_v1,2022.2.5,59.94840841165399,
,3,5,3,5,0,0,61,,train_dim1_1,7,30,,,,2,0,2,0,,,,,,,,,0,0,0,0,0,6,6,6,0,0,0,0,,,,,,,,,,,,,,,,,,,,,,,,,stimuli/alien_stimuli/61.png,,,,,,,,,,,,,,,,,,,,,,,,,,,,,stimuli/alien_stimuli/21.png,21,0,8,,,,,,,30,,,,,,,,1873.8742496001069,1873.8742496001069,1873.8742496001069,1873.8742496001069,1873.8742496001069,right,2.491558499983512,1,0,0,99,0.16,0,right,2.3966799000045285,,,,,1872.315385300084,1873.8742496001069,0.16,0,0.0,0.32,0.0,0.16,0.0,0.16,0,1870.7225038000615,1870.7225038000615,1870.7225038000615,1870.7225038000615,1870.7225038000615,1870.7225038000615,1870.7225038000615,1870.7225038000615,1870.7128132800337,1.7210500000510365,return,1.5710949000203982,,,,,,,,,,,,,,,,,,,,,,,,,,,,,,,,,8CLW2F,train_x,blue_star,top_left,2025-03-26_17h51.12.325,HideSeek_v1,2022.2.5,59.94840841165399,
,3,5,3,5,0,0,61,,train_dim1_1,7,30,,,,2,0,2,0,,,,,,,,,0,0,0,0,0,6,6,6,1,0,1,0,,,,,,,,,,,,,,,,,,,,,,,,,,,,,,,,,,,,,,,,,,,,,,,,,,,,,,,,,,,,,,,,30,,,,,,,,1876.3655937000876,1876.3655937000876,1876.3655937000876,1876.3655937000876,1876.3655937000876,return,0.60914179997053,1,1,0,0,0.16,0,return,0.5263092999812216,-5,14,0.16,0,,,,,,,,,,,,,,,,,,,,,,,,,,,,,,,,,,,,,,,,,,,,,,,,,,,,,,,,8CLW2F,train_x,blue_star,top_left,2025-03-26_17h51.12.325,HideSeek_v1,2022.2.5,59.94840841165399,
,0,9,3,9,3,0,31,,train_dim1_1,8,30,,,,2,0,2,0,,,,,,,,,0,0,0,0,0,7,7,7,0,0,0,0,,,,,,,,,,,,,,,,,,,,,,,,,stimuli/alien_stimuli/31.png,,,,,,,,,,,,,,,,,,,,,,,,,,,,,stimuli/alien_stimuli/61.png,61,3,9,,,,,,,30,,,,,,,,1881.7493902000133,1881.7493902000133,1881.7493902000133,1881.7493902000133,1881.7493902000133,right,1.706413200008683,1,1,0,99,-0.08,0.32,right,1.6133732000598684,,,,,1880.1884361000266,1881.7493902000133,0.08,0,0.0,0.0,0.0,0.08,0.08,0.08,0,1878.536142500001,1878.536142500001,1878.536142500001,1878.536142500001,1878.536142500001,1878.536142500001,1878.536142500001,1878.536142500001,1878.5198246599873,1.7535769999958575,return,1.623032100033015,,,,,,,,,,,,,,,,,,,,,,,,,,,,,,,,,8CLW2F,train_x,blue_star,top_left,2025-03-26_17h51.12.325,HideSeek_v1,2022.2.5,59.94840841165399,
,0,9,3,9,3,0,31,,train_dim1_1,8,30,,,,2,0,2,0,,,,,,,,,0,0,0,0,0,7,7,7,1,0,1,0,,,,,,,,,,,,,,,,,,,,,,,,,,,,,,,,,,,,,,,,,,,,,,,,,,,,,,,,,,,,,,,,30,,,,,,,,1883.4551236000843,1883.4551236000843,1883.4551236000843,1883.4551236000843,1883.4551236000843,right,0.44303450000006706,1,1,0,99,0.0,0.32,right,0.36519169993698597,,,,,,,,,,,,,,,,,,,,,,,,,,,,,,,,,,,,,,,,,,,,,,,,,,,,,,,,,,,,8CLW2F,train_x,blue_star,top_left,2025-03-26_17h51.12.325,HideSeek_v1,2022.2.5,59.94840841165399,
,0,9,3,9,3,0,31,,train_dim1_1,8,30,,,,2,0,2,0,,,,,,,,,0,0,0,0,0,7,7,7,2,0,2,0,,,,,,,,,,,,,,,,,,,,,,,,,,,,,,,,,,,,,,,,,,,,,,,,,,,,,,,,,,,,,,,,30,,,,,,,,1883.9049950001063,1883.9049950001063,1883.9049950001063,1883.9049950001063,1883.9049950001063,right,0.443107100087218,1,1,0,99,0.08,0.32,right,0.37129480007570237,,,,,,,,,,,,,,,,,,,,,,,,,,,,,,,,,,,,,,,,,,,,,,,,,,,,,,,,,,,,8CLW2F,train_x,blue_star,top_left,2025-03-26_17h51.12.325,HideSeek_v1,2022.2.5,59.94840841165399,
,0,9,3,9,3,0,31,,train_dim1_1,8,30,,,,2,0,2,0,,,,,,,,,0,0,0,0,0,7,7,7,3,0,3,0,,,,,,,,,,,,,,,,,,,,,,,,,,,,,,,,,,,,,,,,,,,,,,,,,,,,,,,,,,,,,,,,30,,,,,,,,1884.355047399993,1884.355047399993,1884.355047399993,1884.355047399993,1884.355047399993,right,0.4936423000181094,1,1,0,99,0.16,0.32,right,0.40537419996690005,,,,,,,,,,,,,,,,,,,,,,,,,,,,,,,,,,,,,,,,,,,,,,,,,,,,,,,,,,,,8CLW2F,train_x,blue_star,top_left,2025-03-26_17h51.12.325,HideSeek_v1,2022.2.5,59.94840841165399,
,0,9,3,9,3,0,31,,train_dim1_1,8,30,,,,2,0,2,0,,,,,,,,,0,0,0,0,0,7,7,7,4,0,4,0,,,,,,,,,,,,,,,,,,,,,,,,,,,,,,,,,,,,,,,,,,,,,,,,,,,,,,,,,,,,,,,,30,,,,,,,,1884.8557478000876,1884.8557478000876,1884.8557478000876,1884.8557478000876,1884.8557478000876,return,0.3764340999769047,1,1,0,0,0.16,0.32,return,0.2908331999788061,-5,18,0.16,0.32,,,,,,,,,,,,,,,,,,,,,,,,,,,,,,,,,,,,,,,,,,,,,,,,,,,,,,,,8CLW2F,train_x,blue_star,top_left,2025-03-26_17h51.12.325,HideSeek_v1,2022.2.5,59.94840841165399,
,1,5,2,5,1,0,51,,train_dim1_1,9,30,,,,2,0,2,0,,,,,,,,,0,0,0,0,0,8,8,8,0,0,0,0,,,,,,,,,,,,,,,,,,,,,,,,,stimuli/alien_stimuli/51.png,,,,,,,,,,,,,,,,,,,,,,,,,,,,,stimuli/alien_stimuli/31.png,31,0,10,,,,,,,30,,,,,,,,1891.9251686000498,1891.9251686000498,1891.9251686000498,1891.9251686000498,1891.9251686000498,return,3.124098200001754,1,1,0,0,-0.08,0,return,3.0420961000490934,-5,18,-0.08,0,1890.3636218000902,1891.9251686000498,0.08,0.32,0.0,0.24,0.32,0.08,-0.04,0.08,0.32,1886.7953554000705,1886.7953554000705,1886.7953554000705,1886.7953554000705,1886.7953554000705,1886.7953554000705,1886.7953554000705,1886.7953554000705,1886.7768238600809,3.6713936999440193,return,3.5433005000231788,,,,,,,,,,,,,,,,,,,,,,,,,,,,,,,,,8CLW2F,train_x,blue_star,top_left,2025-03-26_17h51.12.325,HideSeek_v1,2022.2.5,59.94840841165399,
,0,8,5,8,5,0,11,,train_dim1_1,10,30,,,,2,0,2,0,,,,,,,,,0,0,0,0,0,9,9,9,0,0,0,0,,,,,,,,,,,,,,,,,,,,,,,,,stimuli/alien_stimuli/11.png,,,,,,,,,,,,,,,,,,,,,,,,,,,,,stimuli/alien_stimuli/51.png,51,1,11,,,,,,,30,,,,,,,,1904.4599021000322,1904.4599021000322,1904.4599021000322,1904.4599021000322,1904.4599021000322,right,2.600950499996543,1,1,0,99,-0.08,0.24,right,2.514233599998988,,,,,1902.8908479000675,1904.4599021000322,0,0,0.0,0.08,0.0,0,-0.04,0,0,1896.606430200045,1896.606430200045,1896.606430200045,1896.606430200045,1896.606430200045,1896.606430200045,1896.606430200045,1896.606430200045,1896.5849499600706,6.390469799982384,return,6.259152799961157,,,,,,,,,,,,,,,,,,,,,,,,,,,,,,,,,8CLW2F,train_x,blue_star,top_left,2025-03-26_17h51.12.325,HideSeek_v1,2022.2.5,59.94840841165399,
,0,8,5,8,5,0,11,,train_dim1_1,10,30,,,,2,0,2,0,,,,,,,,,0,0,0,0,0,9,9,9,1,0,1,0,,,,,,,,,,,,,,,,,,,,,,,,,,,,,,,,,,,,,,,,,,,,,,,,,,,,,,,,,,,,,,,,30,,,,,,,,1907.0614439001074,1907.0614439001074,1907.0614439001074,1907.0614439001074,1907.0614439001074,right,0.4600812999997288,1,1,0,99,0.0,0.24,right,0.3796464999904856,,,,,,,,,,,,,,,,,,,,,,,,,,,,,,,,,,,,,,,,,,,,,,,,,,,,,,,,,,,,8CLW2F,train_x,blue_star,top_left,2025-03-26_17h51.12.325,HideSeek_v1,2022.2.5,59.94840841165399,
,0,8,5,8,5,0,11,,train_dim1_1,10,30,,,,2,0,2,0,,,,,,,,,0,0,0,0,0,9,9,9,2,0,2,0,,,,,,,,,,,,,,,,,,,,,,,,,,,,,,,,,,,,,,,,,,,,,,,,,,,,,,,,,,,,,,,,30,,,,,,,,1907.5284327000845,1907.5284327000845,1907.5284327000845,1907.5284327000845,1907.5284327000845,right,0.4426672999979928,1,1,0,99,0.08,0.24,right,0.3660416998900473,,,,,,,,,,,,,,,,,,,,,,,,,,,,,,,,,,,,,,,,,,,,,,,,,,,,,,,,,,,,8CLW2F,train_x,blue_star,top_left,2025-03-26_17h51.12.325,HideSeek_v1,2022.2.5,59.94840841165399,
,0,8,5,8,5,0,11,,train_dim1_1,10,30,,,,2,0,2,0,,,,,,,,,0,0,0,0,0,9,9,9,3,0,3,0,,,,,,,,,,,,,,,,,,,,,,,,,,,,,,,,,,,,,,,,,,,,,,,,,,,,,,,,,,,,,,,,30,,,,,,,,1907.9775820000796,1907.9775820000796,1907.9775820000796,1907.9775820000796,1907.9775820000796,right,0.4607552000088617,1,1,0,99,0.16,0.24,right,0.3833371000364423,,,,,,,,,,,,,,,,,,,,,,,,,,,,,,,,,,,,,,,,,,,,,,,,,,,,,,,,,,,,8CLW2F,train_x,blue_star,top_left,2025-03-26_17h51.12.325,HideSeek_v1,2022.2.5,59.94840841165399,
,0,8,5,8,5,0,11,,train_dim1_1,10,30,,,,2,0,2,0,,,,,,,,,0,0,0,0,0,9,9,9,4,0,4,0,,,,,,,,,,,,,,,,,,,,,,,,,,,,,,,,,,,,,,,,,,,,,,,,,,,,,,,,,,,,,,,,30,,,,,,,,1908.4456982000265,1908.4456982000265,1908.4456982000265,1908.4456982000265,1908.4456982000265,return,0.492614799994044,1,1,0,0,0.16,0.24,return,0.4101960000116378,-5,22,0.16,0.24,,,,,,,,,,,,,,,,,,,,,,,,,,,,,,,,,,,,,,,,,,,,,,,,,,,,,,,,8CLW2F,train_x,blue_star,top_left,2025-03-26_17h51.12.325,HideSeek_v1,2022.2.5,59.94840841165399,
,2,7,5,7,3,0,31,,train_dim1_1,11,30,,,,2,0,2,0,,,,,,,,,0,0,0,0,0,10,10,10,0,0,0,0,,,,,,,,,,,,,,,,,,,,,,,,,stimuli/alien_stimuli/31.png,,,,,,,,,,,,,,,,,,,,,,,,,,,,,stimuli/alien_stimuli/11.png,11,0,12,,,,,,,30,,,,,,,,1916.2291741000954,1916.2291741000954,1916.2291741000954,1916.2291741000954,1916.2291741000954,right,1.659155200002715,1,1,0,99,0.08,0.16,right,1.5645177999977022,,,,,1914.666733500082,1916.2291741000954,0.24,0.24,0.0,0.4,0.24,0.24,0.039999999999999994,0.24,0.24,1910.53079790005,1910.53079790005,1910.53079790005,1910.53079790005,1910.53079790005,1910.53079790005,1910.53079790005,1910.53079790005,1910.5128601799718,4.271944900043309,return,4.11093730002176,,,,,,,,,,,,,,,,,,,,,,,,,,,,,,,,,8CLW2F,train_x,blue_star,top_left,2025-03-26_17h51.12.325,HideSeek_v1,2022.2.5,59.94840841165399,
,2,7,5,7,3,0,31,,train_dim1_1,11,30,,,,2,0,2,0,,,,,,,,,0,0,0,0,0,10,10,10,1,0,1,0,,,,,,,,,,,,,,,,,,,,,,,,,,,,,,,,,,,,,,,,,,,,,,,,,,,,,,,,,,,,,,,,30,,,,,,,,1917.88875500008,1917.88875500008,1917.88875500008,1917.88875500008,1917.88875500008,right,0.43807230005040765,1,1,0,99,0.16,0.16,right,0.3523044999456033,,,,,,,,,,,,,,,,,,,,,,,,,,,,,,,,,,,,,,,,,,,,,,,,,,,,,,,,,,,,8CLW2F,train_x,blue_star,top_left,2025-03-26_17h51.12.325,HideSeek_v1,2022.2.5,59.94840841165399,
,2,7,5,7,3,0,31,,train_dim1_1,11,30,,,,2,0,2,0,,,,,,,,,0,0,0,0,0,10,10,10,2,0,2,0,,,,,,,,,,,,,,,,,,,,,,,,,,,,,,,,,,,,,,,,,,,,,,,,,,,,,,,,,,,,,,,,30,,,,,,,,1918.333614800009,1918.333614800009,1918.333614800009,1918.333614800009,1918.333614800009,right,0.4761525000212714,1,1,0,99,0.24,0.16,right,0.39387670007999986,,,,,,,,,,,,,,,,,,,,,,,,,,,,,,,,,,,,,,,,,,,,,,,,,,,,,,,,,,,,8CLW2F,train_x,blue_star,top_left,2025-03-26_17h51.12.325,HideSeek_v1,2022.2.5,59.94840841165399,
,2,7,5,7,3,0,31,,train_dim1_1,11,30,,,,2,0,2,0,,,,,,,,,0,0,0,0,0,10,10,10,3,0,3,0,,,,,,,,,,,,,,,,,,,,,,,,,,,,,,,,,,,,,,,,,,,,,,,,,,,,,,,,,,,,,,,,30,,,,,,,,1918.8169130000751,1918.8169130000751,1918.8169130000751,1918.8169130000751,1918.8169130000751,return,1.1935213000979275,2,0,0,1,0.24,0.16,return,1.108714499976486,-5,25,0.24,0.16,,,,,,,,,,,,,,,,,,,,,,,,,,,,,,,,,,,,,,,,,,,,,,,,,,,,,,,,8CLW2F,train_x,blue_star,top_left,2025-03-26_17h51.12.325,HideSeek_v1,2022.2.5,59.94840841165399,
,0,5,4,5,4,0,21,,train_dim1_1,12,30,,,,2,0,2,0,,,,,,,,,0,0,0,0,0,11,11,11,0,0,0,0,,,,,,,,,,,,,,,,,,,,,,,,,stimuli/alien_stimuli/21.png,,,,,,,,,,,,,,,,,,,,,,,,,,,,,stimuli/alien_stimuli/31.png,31,2,13,,,,,,,30,,,,,,,,1925.619780600071,1925.619780600071,1925.619780600071,1925.619780600071,1925.619780600071,right,1.6218126999447122,2,0,0,99,-0.08,0,right,1.5193163000512868,,,,,1924.0414931999985,1925.619780600071,0.24,0.16,0.0,0.24,0.16,0.24,0.12,0.24,0.16,1921.574367800029,1921.574367800029,1921.574367800029,1921.574367800029,1921.574367800029,1921.574367800029,1921.574367800029,1921.574367800029,1921.55547336007,2.571083099930547,return,2.4430638999911025,,,,,,,,,,,,,,,,,,,,,,,,,,,,,,,,,8CLW2F,train_x,blue_star,top_left,2025-03-26_17h51.12.325,HideSeek_v1,2022.2.5,59.94840841165399,
,0,5,4,5,4,0,21,,train_dim1_1,12,30,,,,2,0,2,0,,,,,,,,,0,0,0,0,0,11,11,11,1,0,1,0,,,,,,,,,,,,,,,,,,,,,,,,,,,,,,,,,,,,,,,,,,,,,,,,,,,,,,,,,,,,,,,,30,,,,,,,,1927.2286063000793,1927.2286063000793,1927.2286063000793,1927.2286063000793,1927.2286063000793,right,0.3930976000847295,2,0,0,99,0.0,0,right,0.30520369997248054,,,,,,,,,,,,,,,,,,,,,,,,,,,,,,,,,,,,,,,,,,,,,,,,,,,,,,,,,,,,8CLW2F,train_x,blue_star,top_left,2025-03-26_17h51.12.325,HideSeek_v1,2022.2.5,59.94840841165399,
,0,5,4,5,4,0,21,,train_dim1_1,12,30,,,,2,0,2,0,,,,,,,,,0,0,0,0,0,11,11,11,2,0,2,0,,,,,,,,,,,,,,,,,,,,,,,,,,,,,,,,,,,,,,,,,,,,,,,,,,,,,,,,,,,,,,,,30,,,,,,,,1927.6284667000873,1927.6284667000873,1927.6284667000873,1927.6284667000873,1927.6284667000873,right,0.4259917000308633,2,0,0,99,0.08,0,right,0.34546700003556907,,,,,,,,,,,,,,,,,,,,,,,,,,,,,,,,,,,,,,,,,,,,,,,,,,,,,,,,,,,,8CLW2F,train_x,blue_star,top_left,2025-03-26_17h51.12.325,HideSeek_v1,2022.2.5,59.94840841165399,
,0,5,4,5,4,0,21,,train_dim1_1,12,30,,,,2,0,2,0,,,,,,,,,0,0,0,0,0,11,11,11,3,0,3,0,,,,,,,,,,,,,,,,,,,,,,,,,,,,,,,,,,,,,,,,,,,,,,,,,,,,,,,,,,,,,,,,30,,,,,,,,1928.0611577000236,1928.0611577000236,1928.0611577000236,1928.0611577000236,1928.0611577000236,right,0.41018490004353225,2,0,0,99,0.16,0,right,0.3322318000718951,,,,,,,,,,,,,,,,,,,,,,,,,,,,,,,,,,,,,,,,,,,,,,,,,,,,,,,,,,,,8CLW2F,train_x,blue_star,top_left,2025-03-26_17h51.12.325,HideSeek_v1,2022.2.5,59.94840841165399,
,0,5,4,5,4,0,21,,train_dim1_1,12,30,,,,2,0,2,0,,,,,,,,,0,0,0,0,0,11,11,11,4,0,4,0,,,,,,,,,,,,,,,,,,,,,,,,,,,,,,,,,,,,,,,,,,,,,,,,,,,,,,,,,,,,,,,,30,,,,,,,,1928.4790004000533,1928.4790004000533,1928.4790004000533,1928.4790004000533,1928.4790004000533,right,0.3766408999217674,2,0,0,99,0.24,0,right,0.29761740006506443,,,,,,,,,,,,,,,,,,,,,,,,,,,,,,,,,,,,,,,,,,,,,,,,,,,,,,,,,,,,8CLW2F,train_x,blue_star,top_left,2025-03-26_17h51.12.325,HideSeek_v1,2022.2.5,59.94840841165399,
,0,5,4,5,4,0,21,,train_dim1_1,12,30,,,,2,0,2,0,,,,,,,,,0,0,0,0,0,11,11,11,5,0,5,0,,,,,,,,,,,,,,,,,,,,,,,,,,,,,,,,,,,,,,,,,,,,,,,,,,,,,,,,,,,,,,,,30,,,,,,,,1928.862161600031,1928.862161600031,1928.862161600031,1928.862161600031,1928.862161600031,return,0.3764868000289425,2,1,0,0,0.24,0,return,0.29207600001245737,-5,30,0.24,0,,,,,,,,,,,,,,,,,,,,,,,,,,,,,,,,,,,,,,,,,,,,,,,,,,,,,,,,8CLW2F,train_x,blue_star,top_left,2025-03-26_17h51.12.325,HideSeek_v1,2022.2.5,59.94840841165399,
,0,9,1,9,1,0,51,,train_dim1_1,13,30,,,,2,0,2,0,,,,,,,,,0,0,0,0,0,12,12,12,0,0,0,0,,,,,,,,,,,,,,,,,,,,,,,,,stimuli/alien_stimuli/51.png,,,,,,,,,,,,,,,,,,,,,,,,,,,,,stimuli/alien_stimuli/21.png,21,0,14,,,,,,,30,,,,,,,,1935.645338100032,1935.645338100032,1935.645338100032,1935.645338100032,1935.645338100032,return,1.690671700052917,2,1,0,0,-0.16,0.32,return,1.6010024000424892,-5,30,-0.16,0.32,1934.083024600055,1935.645338100032,0.16,0,0.0,0.32,0.0,0.16,0.0,0.16,0,1930.8017097000265,1930.8017097000265,1930.8017097000265,1930.8017097000265,1930.8017097000265,1930.8017097000265,1930.8017097000265,1930.8017097000265,1930.7798760600388,3.3882522999774665,return,3.2504365000640973,,,,,,,,,,,,,,,,,,,,,,,,,,,,,,,,,8CLW2F,train_x,blue_star,top_left,2025-03-26_17h51.12.325,HideSeek_v1,2022.2.5,59.94840841165399,
,4,8,9,8,5,0,11,,train_dim1_1,14,30,,,,2,0,2,0,,,,,,,,,0,0,0,0,0,13,13,13,0,0,0,0,,,,,,,,,,,,,,,,,,,,,,,,,stimuli/alien_stimuli/11.png,,,,,,,,,,,,,,,,,,,,,,,,,,,,,stimuli/alien_stimuli/51.png,51,0,15,,,,,,,30,,,,,,,,1941.8135987001006,1941.8135987001006,1941.8135987001006,1941.8135987001006,1941.8135987001006,right,1.8408616000087932,2,1,0,99,0.24,0.24,right,1.7400090000592172,,,,,1940.2384569999995,1941.8135987001006,-0.08,0.32,0.0,0.08,0.32,-0.08,-0.12,-0.08,0.32,1938.890174600063,1938.890174600063,1938.890174600063,1938.890174600063,1938.890174600063,1938.890174600063,1938.890174600063,1938.890174600063,1938.8699787599733,1.453243499970995,return,1.3250095999101177,,,,,,,,,,,,,,,,,,,,,,,,,,,,,,,,,8CLW2F,train_x,blue_star,top_left,2025-03-26_17h51.12.325,HideSeek_v1,2022.2.5,59.94840841165399,
,4,8,9,8,5,0,11,,train_dim1_1,14,30,,,,2,0,2,0,,,,,,,,,0,0,0,0,0,13,13,13,1,0,1,0,,,,,,,,,,,,,,,,,,,,,,,,,,,,,,,,,,,,,,,,,,,,,,,,,,,,,,,,,,,,,,,,30,,,,,,,,1943.6425647001015,1943.6425647001015,1943.6425647001015,1943.6425647001015,1943.6425647001015,right,0.3760380999883637,2,1,0,99,0.32,0.24,right,0.2880778999533504,,,,,,,,,,,,,,,,,,,,,,,,,,,,,,,,,,,,,,,,,,,,,,,,,,,,,,,,,,,,8CLW2F,train_x,blue_star,top_left,2025-03-26_17h51.12.325,HideSeek_v1,2022.2.5,59.94840841165399,
,4,8,9,8,5,0,11,,train_dim1_1,14,30,,,,2,0,2,0,,,,,,,,,0,0,0,0,0,13,13,13,2,0,2,0,,,,,,,,,,,,,,,,,,,,,,,,,,,,,,,,,,,,,,,,,,,,,,,,,,,,,,,,,,,,,,,,30,,,,,,,,1944.0253755000886,1944.0253755000886,1944.0253755000886,1944.0253755000886,1944.0253755000886,right,0.3598425999516621,2,1,0,99,0.4,0.24,right,0.2780804999638349,,,,,,,,,,,,,,,,,,,,,,,,,,,,,,,,,,,,,,,,,,,,,,,,,,,,,,,,,,,,8CLW2F,train_x,blue_star,top_left,2025-03-26_17h51.12.325,HideSeek_v1,2022.2.5,59.94840841165399,
,4,8,9,8,5,0,11,,train_dim1_1,14,30,,,,2,0,2,0,,,,,,,,,0,0,0,0,0,13,13,13,3,0,3,0,,,,,,,,,,,,,,,,,,,,,,,,,,,,,,,,,,,,,,,,,,,,,,,,,,,,,,,,,,,,,,,,30,,,,,,,,1944.3917079000967,1944.3917079000967,1944.3917079000967,1944.3917079000967,1944.3917079000967,right,1.3941483000526205,2,1,0,99,0.48000000000000004,0.24,right,1.307828199933283,,,,,,,,,,,,,,,,,,,,,,,,,,,,,,,,,,,,,,,,,,,,,,,,,,,,,,,,,,,,8CLW2F,train_x,blue_star,top_left,2025-03-26_17h51.12.325,HideSeek_v1,2022.2.5,59.94840841165399,
,4,8,9,8,5,0,11,,train_dim1_1,14,30,,,,2,0,2,0,,,,,,,,,0,0,0,0,0,13,13,13,4,0,4,0,,,,,,,,,,,,,,,,,,,,,,,,,,,,,,,,,,,,,,,,,,,,,,,,,,,,,,,,,,,,,,,,30,,,,,,,,1945.7931517000543,1945.7931517000543,1945.7931517000543,1945.7931517000543,1945.7931517000543,return,0.4432843999238685,2,1,0,0,0.48000000000000004,0.24,return,0.35755049996078014,-5,34,0.48000000000000004,0.24,,,,,,,,,,,,,,,,,,,,,,,,,,,,,,,,,,,,,,,,,,,,,,,,,,,,,,,,8CLW2F,train_x,blue_star,top_left,2025-03-26_17h51.12.325,HideSeek_v1,2022.2.5,59.94840841165399,
,4,7,4,7,0,0,61,,train_dim1_1,15,30,,,,2,0,2,0,,,,,,,,,0,0,0,0,0,14,14,14,0,0,0,0,,,,,,,,,,,,,,,,,,,,,,,,,stimuli/alien_stimuli/61.png,,,,,,,,,,,,,,,,,,,,,,,,,,,,,stimuli/alien_stimuli/11.png,11,4,16,,,,,,,30,,,,,,,,1951.6265526000643,1951.6265526000643,1951.6265526000643,1951.6265526000643,1951.6265526000643,right,1.7567757000215352,2,1,0,99,0.24,0.16,right,1.6536647999892011,,,,,1950.0467874000315,1951.6265526000643,0.56,0.24,0.0,0.4,0.24,0.56,0.36000000000000004,0.56,0.24,1947.808467200026,1947.808467200026,1947.808467200026,1947.808467200026,1947.808467200026,1947.808467200026,1947.808467200026,1947.808467200026,1947.7938220200244,2.3537158999824896,return,2.2121464000083506,,,,,,,,,,,,,,,,,,,,,,,,,,,,,,,,,8CLW2F,train_x,blue_star,top_left,2025-03-26_17h51.12.325,HideSeek_v1,2022.2.5,59.94840841165399,
,4,7,4,7,0,0,61,,train_dim1_1,15,30,,,,2,0,2,0,,,,,,,,,0,0,0,0,0,14,14,14,1,0,1,0,,,,,,,,,,,,,,,,,,,,,,,,,,,,,,,,,,,,,,,,,,,,,,,,,,,,,,,,,,,,,,,,30,,,,,,,,1953.3622812000103,1953.3622812000103,1953.3622812000103,1953.3622812000103,1953.3622812000103,return,0.6435330000240356,2,1,0,0,0.24,0.16,return,0.5692961000604555,-5,35,0.24,0.16,,,,,,,,,,,,,,,,,,,,,,,,,,,,,,,,,,,,,,,,,,,,,,,,,,,,,,,,8CLW2F,train_x,blue_star,top_left,2025-03-26_17h51.12.325,HideSeek_v1,2022.2.5,59.94840841165399,
,3,8,4,8,1,0,51,,train_dim1_1,16,30,,,,2,0,2,0,,,,,,,,,0,0,0,0,0,15,15,15,0,0,0,0,,,,,,,,,,,,,,,,,,,,,,,,,stimuli/alien_stimuli/51.png,,,,,,,,,,,,,,,,,,,,,,,,,,,,,stimuli/alien_stimuli/61.png,61,4,17,,,,,,,30,,,,,,,,1959.1804229000118,1959.1804229000118,1959.1804229000118,1959.1804229000118,1959.1804229000118,right,1.1733568999916315,2,1,0,99,0.16,0.24,right,1.0704050000058487,,,,,1957.6026972000254,1959.1804229000118,0.16,0.16,0.0,0.0,0.16,0.16,0.16,0.16,0.16,1955.566882400075,1955.566882400075,1955.566882400075,1955.566882400075,1955.566882400075,1955.566882400075,1955.566882400075,1955.566882400075,1955.550419060001,2.1372325000120327,return,2.0065181999234483,,,,,,,,,,,,,,,,,,,,,,,,,,,,,,,,,8CLW2F,train_x,blue_star,top_left,2025-03-26_17h51.12.325,HideSeek_v1,2022.2.5,59.94840841165399,
,3,8,4,8,1,0,51,,train_dim1_1,16,30,,,,2,0,2,0,,,,,,,,,0,0,0,0,0,15,15,15,1,0,1,0,,,,,,,,,,,,,,,,,,,,,,,,,,,,,,,,,,,,,,,,,,,,,,,,,,,,,,,,,,,,,,,,30,,,,,,,,1960.3411833000137,1960.3411833000137,1960.3411833000137,1960.3411833000137,1960.3411833000137,left,1.7083496999694034,2,1,0,99,0.08,0.24,left,1.6262779999524355,,,,,,,,,,,,,,,,,,,,,,,,,,,,,,,,,,,,,,,,,,,,,,,,,,,,,,,,,,,,8CLW2F,train_x,blue_star,top_left,2025-03-26_17h51.12.325,HideSeek_v1,2022.2.5,59.94840841165399,
,3,8,4,8,1,0,51,,train_dim1_1,16,30,,,,2,0,2,0,,,,,,,,,0,0,0,0,0,15,15,15,2,0,2,0,,,,,,,,,,,,,,,,,,,,,,,,,,,,,,,,,,,,,,,,,,,,,,,,,,,,,,,,,,,,,,,,30,,,,,,,,1962.055342500098,1962.055342500098,1962.055342500098,1962.055342500098,1962.055342500098,return,0.7433261000551283,2,1,0,0,0.08,0.24,return,0.6589651999529451,-5,35,0.08,0.24,,,,,,,,,,,,,,,,,,,,,,,,,,,,,,,,,,,,,,,,,,,,,,,,,,,,,,,,8CLW2F,train_x,blue_star,top_left,2025-03-26_17h51.12.325,HideSeek_v1,2022.2.5,59.94840841165399,
,2,9,6,9,4,0,21,,train_dim1_1,17,30,,,,2,0,2,0,,,,,,,,,0,0,0,0,0,16,16,16,0,0,0,0,,,,,,,,,,,,,,,,,,,,,,,,,stimuli/alien_stimuli/21.png,,,,,,,,,,,,,,,,,,,,,,,,,,,,,stimuli/alien_stimuli/51.png,51,3,18,,,,,,,30,,,,,,,,1967.7021808000281,1967.7021808000281,1967.7021808000281,1967.7021808000281,1967.7021808000281,right,1.4236986000323668,2,1,0,99,0.08,0.32,right,1.3231038000667468,,,,,1966.1266703000292,1967.7021808000281,0.16,0.24,0.0,0.08,0.24,0.16,0.12,0.16,0.24,1964.3633629000979,1964.3633629000979,1964.3633629000979,1964.3633629000979,1964.3633629000979,1964.3633629000979,1964.3633629000979,1964.3633629000979,1964.357335620059,1.8711406000657007,return,1.7320967999985442,,,,,,,,,,,,,,,,,,,,,,,,,,,,,,,,,8CLW2F,train_x,blue_star,top_left,2025-03-26_17h51.12.325,HideSeek_v1,2022.2.5,59.94840841165399,
,2,9,6,9,4,0,21,,train_dim1_1,17,30,,,,2,0,2,0,,,,,,,,,0,0,0,0,0,16,16,16,1,0,1,0,,,,,,,,,,,,,,,,,,,,,,,,,,,,,,,,,,,,,,,,,,,,,,,,,,,,,,,,,,,,,,,,30,,,,,,,,1969.112982599996,1969.112982599996,1969.112982599996,1969.112982599996,1969.112982599996,right,0.4263918000506237,2,1,0,99,0.16,0.32,right,0.3413647999987006,,,,,,,,,,,,,,,,,,,,,,,,,,,,,,,,,,,,,,,,,,,,,,,,,,,,,,,,,,,,8CLW2F,train_x,blue_star,top_left,2025-03-26_17h51.12.325,HideSeek_v1,2022.2.5,59.94840841165399,
,2,9,6,9,4,0,21,,train_dim1_1,17,30,,,,2,0,2,0,,,,,,,,,0,0,0,0,0,16,16,16,2,0,2,0,,,,,,,,,,,,,,,,,,,,,,,,,,,,,,,,,,,,,,,,,,,,,,,,,,,,,,,,,,,,,,,,30,,,,,,,,1969.5467538000084,1969.5467538000084,1969.5467538000084,1969.5467538000084,1969.5467538000084,right,0.47667460003867745,2,1,0,99,0.24,0.32,right,0.3899409999139607,,,,,,,,,,,,,,,,,,,,,,,,,,,,,,,,,,,,,,,,,,,,,,,,,,,,,,,,,,,,8CLW2F,train_x,blue_star,top_left,2025-03-26_17h51.12.325,HideSeek_v1,2022.2.5,59.94840841165399,
,2,9,6,9,4,0,21,,train_dim1_1,17,30,,,,2,0,2,0,,,,,,,,,0,0,0,0,0,16,16,16,3,0,3,0,,,,,,,,,,,,,,,,,,,,,,,,,,,,,,,,,,,,,,,,,,,,,,,,,,,,,,,,,,,,,,,,30,,,,,,,,1970.030100400094,1970.030100400094,1970.030100400094,1970.030100400094,1970.030100400094,right,0.3927771000890061,2,1,0,99,0.32,0.32,right,0.30732570006512105,,,,,,,,,,,,,,,,,,,,,,,,,,,,,,,,,,,,,,,,,,,,,,,,,,,,,,,,,,,,8CLW2F,train_x,blue_star,top_left,2025-03-26_17h51.12.325,HideSeek_v1,2022.2.5,59.94840841165399,
,2,9,6,9,4,0,21,,train_dim1_1,17,30,,,,2,0,2,0,,,,,,,,,0,0,0,0,0,16,16,16,4,0,4,0,,,,,,,,,,,,,,,,,,,,,,,,,,,,,,,,,,,,,,,,,,,,,,,,,,,,,,,,,,,,,,,,30,,,,,,,,1970.4299754000967,1970.4299754000967,1970.4299754000967,1970.4299754000967,1970.4299754000967,return,0.3939849999733269,3,0,0,1,0.32,0.32,return,0.30875899991951883,-5,39,0.32,0.32,,,,,,,,,,,,,,,,,,,,,,,,,,,,,,,,,,,,,,,,,,,,,,,,,,,,,,,,8CLW2F,train_x,blue_star,top_left,2025-03-26_17h51.12.325,HideSeek_v1,2022.2.5,59.94840841165399,
,2,6,2,6,0,0,61,,train_dim1_1,18,30,,,,2,0,2,0,,,,,,,,,0,0,0,0,0,17,17,17,0,0,0,0,,,,,,,,,,,,,,,,,,,,,,,,,stimuli/alien_stimuli/61.png,,,,,,,,,,,,,,,,,,,,,,,,,,,,,stimuli/alien_stimuli/21.png,21,2,19,,,,,,,30,,,,,,,,1974.6446701000677,1974.6446701000677,1974.6446701000677,1974.6446701000677,1974.6446701000677,return,3.0251877000555396,4,0,0,1,0,0.08,return,2.9244930000277236,-5,39,0,0.08,1973.0657159000402,1974.6446701000677,0.32,0.32,0.0,0.32,0.32,0.32,0.16,0.32,0.32,1972.3888793000951,1972.3888793000951,1972.3888793000951,1972.3888793000951,1972.3888793000951,1972.3888793000951,1972.3888793000951,1972.3888793000951,1972.380976519978,0.786049299989827,return,0.6497209999943152,,,,,,,,,,,,,,,,,,,,,,,,,,,,,,,,,8CLW2F,train_x,blue_star,top_left,2025-03-26_17h51.12.325,HideSeek_v1,2022.2.5,59.94840841165399,
,0,8,3,8,3,0,31,,train_dim1_1,19,30,,,,2,0,2,0,,,,,,,,,0,0,0,0,0,18,18,18,0,0,0,0,,,,,,,,,,,,,,,,,,,,,,,,,stimuli/alien_stimuli/31.png,,,,,,,,,,,,,,,,,,,,,,,,,,,,,stimuli/alien_stimuli/61.png,61,2,20,,,,,,,30,,,,,,,,1982.6596554000862,1982.6596554000862,1982.6596554000862,1982.6596554000862,1982.6596554000862,right,1.3237432000460103,4,0,0,99,-0.08,0.24,right,1.2310271000023931,,,,,1981.0888500000583,1982.6596554000862,0,0.08,0.0,0.0,0.08,0,0.0,0,0.08,1979.2067744000815,1979.2067744000815,1979.2067744000815,1979.2067744000815,1979.2067744000815,1979.2067744000815,1979.2067744000815,1979.2067744000815,1979.1867943600053,1.9871926000341773,return,1.8521553999744356,,,,,,,,,,,,,,,,,,,,,,,,,,,,,,,,,8CLW2F,train_x,blue_star,top_left,2025-03-26_17h51.12.325,HideSeek_v1,2022.2.5,59.94840841165399,
,0,8,3,8,3,0,31,,train_dim1_1,19,30,,,,2,0,2,0,,,,,,,,,0,0,0,0,0,18,18,18,1,0,1,0,,,,,,,,,,,,,,,,,,,,,,,,,,,,,,,,,,,,,,,,,,,,,,,,,,,,,,,,,,,,,,,,30,,,,,,,,1983.972826100071,1983.972826100071,1983.972826100071,1983.972826100071,1983.972826100071,right,0.39286579994950444,4,0,0,99,0.0,0.24,right,0.3032933999784291,,,,,,,,,,,,,,,,,,,,,,,,,,,,,,,,,,,,,,,,,,,,,,,,,,,,,,,,,,,,8CLW2F,train_x,blue_star,top_left,2025-03-26_17h51.12.325,HideSeek_v1,2022.2.5,59.94840841165399,
,0,8,3,8,3,0,31,,train_dim1_1,19,30,,,,2,0,2,0,,,,,,,,,0,0,0,0,0,18,18,18,2,0,2,0,,,,,,,,,,,,,,,,,,,,,,,,,,,,,,,,,,,,,,,,,,,,,,,,,,,,,,,,,,,,,,,,30,,,,,,,,1984.371107300045,1984.371107300045,1984.371107300045,1984.371107300045,1984.371107300045,right,0.37684540008194745,4,0,0,99,0.08,0.24,right,0.2940174000104889,,,,,,,,,,,,,,,,,,,,,,,,,,,,,,,,,,,,,,,,,,,,,,,,,,,,,,,,,,,,8CLW2F,train_x,blue_star,top_left,2025-03-26_17h51.12.325,HideSeek_v1,2022.2.5,59.94840841165399,
,0,8,3,8,3,0,31,,train_dim1_1,19,30,,,,2,0,2,0,,,,,,,,,0,0,0,0,0,18,18,18,3,0,3,0,,,,,,,,,,,,,,,,,,,,,,,,,,,,,,,,,,,,,,,,,,,,,,,,,,,,,,,,,,,,,,,,30,,,,,,,,1984.7551337000914,1984.7551337000914,1984.7551337000914,1984.7551337000914,1984.7551337000914,right,0.443348899949342,4,0,0,99,0.16,0.24,right,0.3655120999319479,,,,,,,,,,,,,,,,,,,,,,,,,,,,,,,,,,,,,,,,,,,,,,,,,,,,,,,,,,,,8CLW2F,train_x,blue_star,top_left,2025-03-26_17h51.12.325,HideSeek_v1,2022.2.5,59.94840841165399,
,0,8,3,8,3,0,31,,train_dim1_1,19,30,,,,2,0,2,0,,,,,,,,,0,0,0,0,0,18,18,18,4,0,4,0,,,,,,,,,,,,,,,,,,,,,,,,,,,,,,,,,,,,,,,,,,,,,,,,,,,,,,,,,,,,,,,,30,,,,,,,,1985.2059163000667,1985.2059163000667,1985.2059163000667,1985.2059163000667,1985.2059163000667,right,1.7775586999487132,4,0,0,99,0.24,0.24,right,1.701019800035283,,,,,,,,,,,,,,,,,,,,,,,,,,,,,,,,,,,,,,,,,,,,,,,,,,,,,,,,,,,,8CLW2F,train_x,blue_star,top_left,2025-03-26_17h51.12.325,HideSeek_v1,2022.2.5,59.94840841165399,
,0,8,3,8,3,0,31,,train_dim1_1,19,30,,,,2,0,2,0,,,,,,,,,0,0,0,0,0,18,18,18,5,0,5,0,,,,,,,,,,,,,,,,,,,,,,,,,,,,,,,,,,,,,,,,,,,,,,,,,,,,,,,,,,,,,,,,30,,,,,,,,1986.9914859000128,1986.9914859000128,1986.9914859000128,1986.9914859000128,1986.9914859000128,return,0.2768336998997256,4,0,0,0,0.24,0.24,return,0.19211139995604753,-5,44,0.24,0.24,,,,,,,,,,,,,,,,,,,,,,,,,,,,,,,,,,,,,,,,,,,,,,,,,,,,,,,,8CLW2F,train_x,blue_star,top_left,2025-03-26_17h51.12.325,HideSeek_v1,2022.2.5,59.94840841165399,
,0,6,5,6,5,0,11,,train_dim1_1,20,30,,,,2,0,2,0,,,,,,,,,0,0,0,0,0,19,19,19,0,0,0,0,,,,,,,,,,,,,,,,,,,,,,,,,stimuli/alien_stimuli/11.png,,,,,,,,,,,,,,,,,,,,,,,,,,,,,stimuli/alien_stimuli/31.png,31,0,21,,,,,,,30,,,,,,,,1992.5300597000169,1992.5300597000169,1992.5300597000169,1992.5300597000169,1992.5300597000169,right,1.5901077999733388,4,0,0,99,-0.08,0.08,right,1.4789739000843838,,,,,1990.9472928000614,1992.5300597000169,0.08,0.24,0.0,0.24,0.24,0.08,-0.04,0.08,0.24,1988.8314983000746,1988.8314983000746,1988.8314983000746,1988.8314983000746,1988.8314983000746,1988.8314983000746,1988.8314983000746,1988.8314983000746,1988.8110427599865,2.221145399962552,return,2.084269199986011,,,,,,,,,,,,,,,,,,,,,,,,,,,,,,,,,8CLW2F,train_x,blue_star,top_left,2025-03-26_17h51.12.325,HideSeek_v1,2022.2.5,59.94840841165399,
,0,6,5,6,5,0,11,,train_dim1_1,20,30,,,,2,0,2,0,,,,,,,,,0,0,0,0,0,19,19,19,1,0,1,0,,,,,,,,,,,,,,,,,,,,,,,,,,,,,,,,,,,,,,,,,,,,,,,,,,,,,,,,,,,,,,,,30,,,,,,,,1994.100793800084,1994.100793800084,1994.100793800084,1994.100793800084,1994.100793800084,right,0.2760847000172362,4,0,0,99,0.0,0.08,right,0.1843224000185728,,,,,,,,,,,,,,,,,,,,,,,,,,,,,,,,,,,,,,,,,,,,,,,,,,,,,,,,,,,,8CLW2F,train_x,blue_star,top_left,2025-03-26_17h51.12.325,HideSeek_v1,2022.2.5,59.94840841165399,
,0,6,5,6,5,0,11,,train_dim1_1,20,30,,,,2,0,2,0,,,,,,,,,0,0,0,0,0,19,19,19,2,0,2,0,,,,,,,,,,,,,,,,,,,,,,,,,,,,,,,,,,,,,,,,,,,,,,,,,,,,,,,,,,,,,,,,30,,,,,,,,1994.3859381000511,1994.3859381000511,1994.3859381000511,1994.3859381000511,1994.3859381000511,right,0.4266123999841511,4,0,0,99,0.08,0.08,right,0.3370819999836385,,,,,,,,,,,,,,,,,,,,,,,,,,,,,,,,,,,,,,,,,,,,,,,,,,,,,,,,,,,,8CLW2F,train_x,blue_star,top_left,2025-03-26_17h51.12.325,HideSeek_v1,2022.2.5,59.94840841165399,
,0,6,5,6,5,0,11,,train_dim1_1,20,30,,,,2,0,2,0,,,,,,,,,0,0,0,0,0,19,19,19,3,0,3,0,,,,,,,,,,,,,,,,,,,,,,,,,,,,,,,,,,,,,,,,,,,,,,,,,,,,,,,,,,,,,,,,30,,,,,,,,1994.8185186000774,1994.8185186000774,1994.8185186000774,1994.8185186000774,1994.8185186000774,right,0.45970699994359165,4,0,0,99,0.16,0.08,right,0.37170380004681647,,,,,,,,,,,,,,,,,,,,,,,,,,,,,,,,,,,,,,,,,,,,,,,,,,,,,,,,,,,,8CLW2F,train_x,blue_star,top_left,2025-03-26_17h51.12.325,HideSeek_v1,2022.2.5,59.94840841165399,
,0,6,5,6,5,0,11,,train_dim1_1,20,30,,,,2,0,2,0,,,,,,,,,0,0,0,0,0,19,19,19,4,0,4,0,,,,,,,,,,,,,,,,,,,,,,,,,,,,,,,,,,,,,,,,,,,,,,,,,,,,,,,,,,,,,,,,30,,,,,,,,1995.2855258000782,1995.2855258000782,1995.2855258000782,1995.2855258000782,1995.2855258000782,return,0.36006259999703616,4,1,0,0,0.16,0.08,return,0.27962529996875674,-5,48,0.16,0.08,,,,,,,,,,,,,,,,,,,,,,,,,,,,,,,,,,,,,,,,,,,,,,,,,,,,,,,,8CLW2F,train_x,blue_star,top_left,2025-03-26_17h51.12.325,HideSeek_v1,2022.2.5,59.94840841165399,
,4,7,7,7,3,0,31,,train_dim1_1,21,30,,,,2,0,2,0,,,,,,,,,0,0,0,0,0,20,20,20,0,0,0,0,,,,,,,,,,,,,,,,,,,,,,,,,stimuli/alien_stimuli/31.png,,,,,,,,,,,,,,,,,,,,,,,,,,,,,stimuli/alien_stimuli/11.png,11,0,22,,,,,,,30,,,,,,,,2000.4627983000828,2000.4627983000828,2000.4627983000828,2000.4627983000828,2000.4627983000828,right,1.2887433000141755,4,1,0,99,0.24,0.16,right,1.1913656999822706,,,,,1998.8870588000864,2000.4627983000828,0.24,0.08,0.0,0.4,0.08,0.24,0.039999999999999994,0.24,0.08,1997.210652400041,1997.210652400041,1997.210652400041,1997.210652400041,1997.210652400041,1997.210652400041,1997.210652400041,1997.210652400041,1997.2013441200484,1.7870660999324173,return,1.645295099937357,,,,,,,,,,,,,,,,,,,,,,,,,,,,,,,,,8CLW2F,train_x,blue_star,top_left,2025-03-26_17h51.12.325,HideSeek_v1,2022.2.5,59.94840841165399,
,4,7,7,7,3,0,31,,train_dim1_1,21,30,,,,2,0,2,0,,,,,,,,,0,0,0,0,0,20,20,20,1,0,1,0,,,,,,,,,,,,,,,,,,,,,,,,,,,,,,,,,,,,,,,,,,,,,,,,,,,,,,,,,,,,,,,,30,,,,,,,,2001.7372538000345,2001.7372538000345,2001.7372538000345,2001.7372538000345,2001.7372538000345,right,0.45988560002297163,4,1,0,99,0.32,0.16,right,0.3784620000515133,,,,,,,,,,,,,,,,,,,,,,,,,,,,,,,,,,,,,,,,,,,,,,,,,,,,,,,,,,,,8CLW2F,train_x,blue_star,top_left,2025-03-26_17h51.12.325,HideSeek_v1,2022.2.5,59.94840841165399,
,4,7,7,7,3,0,31,,train_dim1_1,21,30,,,,2,0,2,0,,,,,,,,,0,0,0,0,0,20,20,20,2,0,2,0,,,,,,,,,,,,,,,,,,,,,,,,,,,,,,,,,,,,,,,,,,,,,,,,,,,,,,,,,,,,,,,,30,,,,,,,,2002.2036722000921,2002.2036722000921,2002.2036722000921,2002.2036722000921,2002.2036722000921,right,0.4930550999706611,4,1,0,99,0.4,0.16,right,0.4091194999637082,,,,,,,,,,,,,,,,,,,,,,,,,,,,,,,,,,,,,,,,,,,,,,,,,,,,,,,,,,,,8CLW2F,train_x,blue_star,top_left,2025-03-26_17h51.12.325,HideSeek_v1,2022.2.5,59.94840841165399,
,4,7,7,7,3,0,31,,train_dim1_1,21,30,,,,2,0,2,0,,,,,,,,,0,0,0,0,0,20,20,20,3,0,3,0,,,,,,,,,,,,,,,,,,,,,,,,,,,,,,,,,,,,,,,,,,,,,,,,,,,,,,,,,,,,,,,,30,,,,,,,,2002.7024524000008,2002.7024524000008,2002.7024524000008,2002.7024524000008,2002.7024524000008,right,0.5600125999189913,4,1,0,99,0.48000000000000004,0.16,right,0.48849189991597086,,,,,,,,,,,,,,,,,,,,,,,,,,,,,,,,,,,,,,,,,,,,,,,,,,,,,,,,,,,,8CLW2F,train_x,blue_star,top_left,2025-03-26_17h51.12.325,HideSeek_v1,2022.2.5,59.94840841165399,
,4,7,7,7,3,0,31,,train_dim1_1,21,30,,,,2,0,2,0,,,,,,,,,0,0,0,0,0,20,20,20,4,0,4,0,,,,,,,,,,,,,,,,,,,,,,,,,,,,,,,,,,,,,,,,,,,,,,,,,,,,,,,,,,,,,,,,30,,,,,,,,2003.2706700999988,2003.2706700999988,2003.2706700999988,2003.2706700999988,2003.2706700999988,return,0.3599673000862822,4,1,0,0,0.48000000000000004,0.16,return,0.2834892999380827,-5,52,0.48000000000000004,0.16,,,,,,,,,,,,,,,,,,,,,,,,,,,,,,,,,,,,,,,,,,,,,,,,,,,,,,,,8CLW2F,train_x,blue_star,top_left,2025-03-26_17h51.12.325,HideSeek_v1,2022.2.5,59.94840841165399,
,1,5,5,5,4,0,21,,train_dim1_1,22,30,,,,2,0,2,0,,,,,,,,,0,0,0,0,0,21,21,21,0,0,0,0,,,,,,,,,,,,,,,,,,,,,,,,,stimuli/alien_stimuli/21.png,,,,,,,,,,,,,,,,,,,,,,,,,,,,,stimuli/alien_stimuli/31.png,31,4,23,,,,,,,30,,,,,,,,2008.6042429000372,2008.6042429000372,2008.6042429000372,2008.6042429000372,2008.6042429000372,right,1.3072333000600338,4,1,0,99,0.0,0,right,1.20624750002753,,,,,2007.027235400048,2008.6042429000372,0.4,0.16,0.0,0.24,0.16,0.4,0.28,0.4,0.16,2005.1964476000285,2005.1964476000285,2005.1964476000285,2005.1964476000285,2005.1964476000285,2005.1964476000285,2005.1964476000285,2005.1964476000285,2005.1746831599855,1.9372265000129119,return,1.8012230000458658,,,,,,,,,,,,,,,,,,,,,,,,,,,,,,,,,8CLW2F,train_x,blue_star,top_left,2025-03-26_17h51.12.325,HideSeek_v1,2022.2.5,59.94840841165399,
,1,5,5,5,4,0,21,,train_dim1_1,22,30,,,,2,0,2,0,,,,,,,,,0,0,0,0,0,21,21,21,1,0,1,0,,,,,,,,,,,,,,,,,,,,,,,,,,,,,,,,,,,,,,,,,,,,,,,,,,,,,,,,,,,,,,,,30,,,,,,,,2009.8975626000902,2009.8975626000902,2009.8975626000902,2009.8975626000902,2009.8975626000902,right,0.4596603000536561,4,1,0,99,0.08,0,right,0.37058799993246794,,,,,,,,,,,,,,,,,,,,,,,,,,,,,,,,,,,,,,,,,,,,,,,,,,,,,,,,,,,,8CLW2F,train_x,blue_star,top_left,2025-03-26_17h51.12.325,HideSeek_v1,2022.2.5,59.94840841165399,
,1,5,5,5,4,0,21,,train_dim1_1,22,30,,,,2,0,2,0,,,,,,,,,0,0,0,0,0,21,21,21,2,0,2,0,,,,,,,,,,,,,,,,,,,,,,,,,,,,,,,,,,,,,,,,,,,,,,,,,,,,,,,,,,,,,,,,30,,,,,,,,2010.3635353000136,2010.3635353000136,2010.3635353000136,2010.3635353000136,2010.3635353000136,right,0.4602162000956014,4,1,0,99,0.16,0,right,0.37143219995778054,,,,,,,,,,,,,,,,,,,,,,,,,,,,,,,,,,,,,,,,,,,,,,,,,,,,,,,,,,,,8CLW2F,train_x,blue_star,top_left,2025-03-26_17h51.12.325,HideSeek_v1,2022.2.5,59.94840841165399,
,1,5,5,5,4,0,21,,train_dim1_1,22,30,,,,2,0,2,0,,,,,,,,,0,0,0,0,0,21,21,21,3,0,3,0,,,,,,,,,,,,,,,,,,,,,,,,,,,,,,,,,,,,,,,,,,,,,,,,,,,,,,,,,,,,,,,,30,,,,,,,,2010.8309488000814,2010.8309488000814,2010.8309488000814,2010.8309488000814,2010.8309488000814,right,0.3766571000451222,4,1,0,99,0.24,0,right,0.28754329995717853,,,,,,,,,,,,,,,,,,,,,,,,,,,,,,,,,,,,,,,,,,,,,,,,,,,,,,,,,,,,8CLW2F,train_x,blue_star,top_left,2025-03-26_17h51.12.325,HideSeek_v1,2022.2.5,59.94840841165399,
,1,5,5,5,4,0,21,,train_dim1_1,22,30,,,,2,0,2,0,,,,,,,,,0,0,0,0,0,21,21,21,4,0,4,0,,,,,,,,,,,,,,,,,,,,,,,,,,,,,,,,,,,,,,,,,,,,,,,,,,,,,,,,,,,,,,,,30,,,,,,,,2011.214853900019,2011.214853900019,2011.214853900019,2011.214853900019,2011.214853900019,return,0.3264387999661267,5,0,0,1,0.24,0,return,0.2385647000046447,-5,56,0.24,0,,,,,,,,,,,,,,,,,,,,,,,,,,,,,,,,,,,,,,,,,,,,,,,,,,,,,,,,8CLW2F,train_x,blue_star,top_left,2025-03-26_17h51.12.325,HideSeek_v1,2022.2.5,59.94840841165399,
,2,6,2,6,0,0,61,,train_dim1_1,23,30,,,,2,0,2,0,,,,,,,,,0,0,0,0,0,22,22,22,0,0,0,0,,,,,,,,,,,,,,,,,,,,,,,,,stimuli/alien_stimuli/61.png,,,,,,,,,,,,,,,,,,,,,,,,,,,,,stimuli/alien_stimuli/21.png,21,1,24,,,,,,,30,,,,,,,,2015.9069377999986,2015.9069377999986,2015.9069377999986,2015.9069377999986,2015.9069377999986,return,2.106770500075072,6,0,0,1,0,0.08,return,2.0052631000289693,-5,56,0,0.08,2014.3332875000779,2015.9069377999986,0.24,0,0.0,0.32,0.0,0.24,0.07999999999999999,0.24,0,2013.105532900081,2013.105532900081,2013.105532900081,2013.105532900081,2013.105532900081,2013.105532900081,2013.105532900081,2013.105532900081,2013.098091419984,1.336955500068143,return,1.1986280999844894,,,,,,,,,,,,,,,,,,,,,,,,,,,,,,,,,8CLW2F,train_x,blue_star,top_left,2025-03-26_17h51.12.325,HideSeek_v1,2022.2.5,59.94840841165399,
,4,9,5,9,1,0,51,,train_dim1_1,24,30,,,,2,0,2,0,,,,,,,,,0,0,0,0,0,23,23,23,0,0,0,0,,,,,,,,,,,,,,,,,,,,,,,,,stimuli/alien_stimuli/51.png,,,,,,,,,,,,,,,,,,,,,,,,,,,,,stimuli/alien_stimuli/61.png,61,2,25,,,,,,,30,,,,,,,,2022.7494569000555,2022.7494569000555,2022.7494569000555,2022.7494569000555,2022.7494569000555,right,1.2404866000870243,6,0,0,99,0.24,0.32,right,1.1543059999821708,,,,,2021.1887649000855,2022.7494569000555,0,0.08,0.0,0.0,0.08,0,0.0,0,0.08,2019.5561207000865,2019.5561207000865,2019.5561207000865,2019.5561207000865,2019.5561207000865,2019.5561207000865,2019.5561207000865,2019.5561207000865,2019.5367187599884,1.736839900026098,return,1.609717799932696,,,,,,,,,,,,,,,,,,,,,,,,,,,,,,,,,8CLW2F,train_x,blue_star,top_left,2025-03-26_17h51.12.325,HideSeek_v1,2022.2.5,59.94840841165399,
,4,9,5,9,1,0,51,,train_dim1_1,24,30,,,,2,0,2,0,,,,,,,,,0,0,0,0,0,23,23,23,1,0,1,0,,,,,,,,,,,,,,,,,,,,,,,,,,,,,,,,,,,,,,,,,,,,,,,,,,,,,,,,,,,,,,,,30,,,,,,,,2023.9922687000362,2023.9922687000362,2023.9922687000362,2023.9922687000362,2023.9922687000362,return,0.3761271999683231,7,0,0,1,0.24,0.32,return,0.28421469999011606,-5,57,0.24,0.32,,,,,,,,,,,,,,,,,,,,,,,,,,,,,,,,,,,,,,,,,,,,,,,,,,,,,,,,8CLW2F,train_x,blue_star,top_left,2025-03-26_17h51.12.325,HideSeek_v1,2022.2.5,59.94840841165399,
,3,5,8,5,5,0,11,,train_dim1_1,25,30,,,,2,0,2,0,,,,,,,,,0,0,0,0,0,24,24,24,0,0,0,0,,,,,,,,,,,,,,,,,,,,,,,,,stimuli/alien_stimuli/11.png,,,,,,,,,,,,,,,,,,,,,,,,,,,,,stimuli/alien_stimuli/51.png,51,4,26,,,,,,,30,,,,,,,,2028.2050474000862,2028.2050474000862,2028.2050474000862,2028.2050474000862,2028.2050474000862,right,0.8730815999442711,7,0,0,99,0.16,0,right,0.7845197999849916,,,,,2026.6434543000069,2028.2050474000862,0.24,0.32,0.0,0.08,0.32,0.24,0.2,0.24,0.32,2025.9317482000915,2025.9317482000915,2025.9317482000915,2025.9317482000915,2025.9317482000915,2025.9317482000915,2025.9317482000915,2025.9317482000915,2025.9088463600026,0.8191605999600142,return,0.6798641999484971,,,,,,,,,,,,,,,,,,,,,,,,,,,,,,,,,8CLW2F,train_x,blue_star,top_left,2025-03-26_17h51.12.325,HideSeek_v1,2022.2.5,59.94840841165399,
,3,5,8,5,5,0,11,,train_dim1_1,25,30,,,,2,0,2,0,,,,,,,,,0,0,0,0,0,24,24,24,1,0,1,0,,,,,,,,,,,,,,,,,,,,,,,,,,,,,,,,,,,,,,,,,,,,,,,,,,,,,,,,,,,,,,,,30,,,,,,,,2029.080367000075,2029.080367000075,2029.080367000075,2029.080367000075,2029.080367000075,right,0.44317600002977997,7,0,0,99,0.24,0,right,0.35395539994351566,,,,,,,,,,,,,,,,,,,,,,,,,,,,,,,,,,,,,,,,,,,,,,,,,,,,,,,,,,,,8CLW2F,train_x,blue_star,top_left,2025-03-26_17h51.12.325,HideSeek_v1,2022.2.5,59.94840841165399,
,3,5,8,5,5,0,11,,train_dim1_1,25,30,,,,2,0,2,0,,,,,,,,,0,0,0,0,0,24,24,24,2,0,2,0,,,,,,,,,,,,,,,,,,,,,,,,,,,,,,,,,,,,,,,,,,,,,,,,,,,,,,,,,,,,,,,,30,,,,,,,,2029.5291425000178,2029.5291425000178,2029.5291425000178,2029.5291425000178,2029.5291425000178,right,0.47670670005027205,7,0,0,99,0.32,0,right,0.3944457001052797,,,,,,,,,,,,,,,,,,,,,,,,,,,,,,,,,,,,,,,,,,,,,,,,,,,,,,,,,,,,8CLW2F,train_x,blue_star,top_left,2025-03-26_17h51.12.325,HideSeek_v1,2022.2.5,59.94840841165399,
,3,5,8,5,5,0,11,,train_dim1_1,25,30,,,,2,0,2,0,,,,,,,,,0,0,0,0,0,24,24,24,3,0,3,0,,,,,,,,,,,,,,,,,,,,,,,,,,,,,,,,,,,,,,,,,,,,,,,,,,,,,,,,,,,,,,,,30,,,,,,,,2030.0127052000025,2030.0127052000025,2030.0127052000025,2030.0127052000025,2030.0127052000025,return,0.4435941999545321,7,0,0,0,0.32,0,return,0.3540778000606224,-5,60,0.32,0,,,,,,,,,,,,,,,,,,,,,,,,,,,,,,,,,,,,,,,,,,,,,,,,,,,,,,,,8CLW2F,train_x,blue_star,top_left,2025-03-26_17h51.12.325,HideSeek_v1,2022.2.5,59.94840841165399,
,1,6,1,6,0,0,61,,train_dim1_1,26,30,,,,2,0,2,0,,,,,,,,,0,0,0,0,0,25,25,25,0,0,0,0,,,,,,,,,,,,,,,,,,,,,,,,,stimuli/alien_stimuli/61.png,,,,,,,,,,,,,,,,,,,,,,,,,,,,,stimuli/alien_stimuli/11.png,11,3,27,,,,,,,30,,,,,,,,2034.8913949000416,2034.8913949000416,2034.8913949000416,2034.8913949000416,2034.8913949000416,return,2.1576354999560863,8,0,0,1,-0.08,0.08,return,2.073315699934028,-5,60,-0.08,0.08,2033.3324680000078,2034.8913949000416,0.48,0,0.0,0.4,0.0,0.48,0.27999999999999997,0.48,0,2032.0217798000667,2032.0217798000667,2032.0217798000667,2032.0217798000667,2032.0217798000667,2032.0217798000667,2032.0217798000667,2032.0217798000667,2032.0137102200765,1.4199060999089852,return,1.2800020999275148,,,,,,,,,,,,,,,,,,,,,,,,,,,,,,,,,8CLW2F,train_x,blue_star,top_left,2025-03-26_17h51.12.325,HideSeek_v1,2022.2.5,59.94840841165399,
,0,6,3,6,3,0,31,,train_dim1_1,27,30,,,,2,0,2,0,,,,,,,,,0,0,0,0,0,26,26,26,0,0,0,0,,,,,,,,,,,,,,,,,,,,,,,,,stimuli/alien_stimuli/31.png,,,,,,,,,,,,,,,,,,,,,,,,,,,,,stimuli/alien_stimuli/61.png,61,1,28,,,,,,,30,,,,,,,,2041.2291451001074,2041.2291451001074,2041.2291451001074,2041.2291451001074,2041.2291451001074,right,1.1232403999892995,8,0,0,99,-0.08,0.08,right,1.031619800021872,,,,,2039.6708050000016,2041.2291451001074,-0.08,0.08,0.0,0.0,0.08,-0.08,-0.08,-0.08,0.08,2038.6066021000734,2038.6066021000734,2038.6066021000734,2038.6066021000734,2038.6066021000734,2038.6066021000734,2038.6066021000734,2038.6066021000734,2038.585945659969,1.1700326000573114,return,1.0429719999665394,,,,,,,,,,,,,,,,,,,,,,,,,,,,,,,,,8CLW2F,train_x,blue_star,top_left,2025-03-26_17h51.12.325,HideSeek_v1,2022.2.5,59.94840841165399,
,0,6,3,6,3,0,31,,train_dim1_1,27,30,,,,2,0,2,0,,,,,,,,,0,0,0,0,0,26,26,26,1,0,1,0,,,,,,,,,,,,,,,,,,,,,,,,,,,,,,,,,,,,,,,,,,,,,,,,,,,,,,,,,,,,,,,,30,,,,,,,,2042.35531480005,2042.35531480005,2042.35531480005,2042.35531480005,2042.35531480005,right,0.35979060002136976,8,0,0,99,0.0,0.08,right,0.28450820001307875,,,,,,,,,,,,,,,,,,,,,,,,,,,,,,,,,,,,,,,,,,,,,,,,,,,,,,,,,,,,8CLW2F,train_x,blue_star,top_left,2025-03-26_17h51.12.325,HideSeek_v1,2022.2.5,59.94840841165399,
,0,6,3,6,3,0,31,,train_dim1_1,27,30,,,,2,0,2,0,,,,,,,,,0,0,0,0,0,26,26,26,2,0,2,0,,,,,,,,,,,,,,,,,,,,,,,,,,,,,,,,,,,,,,,,,,,,,,,,,,,,,,,,,,,,,,,,30,,,,,,,,2042.720837000059,2042.720837000059,2042.720837000059,2042.720837000059,2042.720837000059,right,0.4100352000677958,8,0,0,99,0.08,0.08,right,0.3208566999528557,,,,,,,,,,,,,,,,,,,,,,,,,,,,,,,,,,,,,,,,,,,,,,,,,,,,,,,,,,,,8CLW2F,train_x,blue_star,top_left,2025-03-26_17h51.12.325,HideSeek_v1,2022.2.5,59.94840841165399,
,0,6,3,6,3,0,31,,train_dim1_1,27,30,,,,2,0,2,0,,,,,,,,,0,0,0,0,0,26,26,26,3,0,3,0,,,,,,,,,,,,,,,,,,,,,,,,,,,,,,,,,,,,,,,,,,,,,,,,,,,,,,,,,,,,,,,,30,,,,,,,,2043.136657300056,2043.136657300056,2043.136657300056,2043.136657300056,2043.136657300056,right,0.4433108000084758,8,0,0,99,0.16,0.08,right,0.37048959999810904,,,,,,,,,,,,,,,,,,,,,,,,,,,,,,,,,,,,,,,,,,,,,,,,,,,,,,,,,,,,8CLW2F,train_x,blue_star,top_left,2025-03-26_17h51.12.325,HideSeek_v1,2022.2.5,59.94840841165399,
,0,6,3,6,3,0,31,,train_dim1_1,27,30,,,,2,0,2,0,,,,,,,,,0,0,0,0,0,26,26,26,4,0,4,0,,,,,,,,,,,,,,,,,,,,,,,,,,,,,,,,,,,,,,,,,,,,,,,,,,,,,,,,,,,,,,,,30,,,,,,,,2043.5875204000622,2043.5875204000622,2043.5875204000622,2043.5875204000622,2043.5875204000622,return,0.5102172000333667,8,1,0,0,0.16,0.08,return,0.42237619997467846,-5,64,0.16,0.08,,,,,,,,,,,,,,,,,,,,,,,,,,,,,,,,,,,,,,,,,,,,,,,,,,,,,,,,8CLW2F,train_x,blue_star,top_left,2025-03-26_17h51.12.325,HideSeek_v1,2022.2.5,59.94840841165399,
,3,6,7,6,4,0,21,,train_dim1_1,28,30,,,,2,0,2,0,,,,,,,,,0,0,0,0,0,27,27,27,0,0,0,0,,,,,,,,,,,,,,,,,,,,,,,,,stimuli/alien_stimuli/21.png,,,,,,,,,,,,,,,,,,,,,,,,,,,,,stimuli/alien_stimuli/31.png,31,0,29,,,,,,,30,,,,,,,,2048.1223962000804,2048.1223962000804,2048.1223962000804,2048.1223962000804,2048.1223962000804,right,0.9901933999499306,8,1,0,99,0.16,0.08,right,0.9072865999769419,,,,,2046.5601211000467,2048.1223962000804,0.08,0.08,0.0,0.24,0.08,0.08,-0.04,0.08,0.08,2045.6605169000104,2045.6605169000104,2045.6605169000104,2045.6605169000104,2045.6605169000104,2045.6605169000104,2045.6605169000104,2045.6605169000104,2045.6419813599903,1.0030347000574693,return,0.8833301999839023,,,,,,,,,,,,,,,,,,,,,,,,,,,,,,,,,8CLW2F,train_x,blue_star,top_left,2025-03-26_17h51.12.325,HideSeek_v1,2022.2.5,59.94840841165399,
,3,6,7,6,4,0,21,,train_dim1_1,28,30,,,,2,0,2,0,,,,,,,,,0,0,0,0,0,27,27,27,1,0,1,0,,,,,,,,,,,,,,,,,,,,,,,,,,,,,,,,,,,,,,,,,,,,,,,,,,,,,,,,,,,,,,,,30,,,,,,,,2049.1121846000897,2049.1121846000897,2049.1121846000897,2049.1121846000897,2049.1121846000897,right,0.39316549990326166,8,1,0,99,0.24,0.08,right,0.30391859996598214,,,,,,,,,,,,,,,,,,,,,,,,,,,,,,,,,,,,,,,,,,,,,,,,,,,,,,,,,,,,8CLW2F,train_x,blue_star,top_left,2025-03-26_17h51.12.325,HideSeek_v1,2022.2.5,59.94840841165399,
,3,6,7,6,4,0,21,,train_dim1_1,28,30,,,,2,0,2,0,,,,,,,,,0,0,0,0,0,27,27,27,2,0,2,0,,,,,,,,,,,,,,,,,,,,,,,,,,,,,,,,,,,,,,,,,,,,,,,,,,,,,,,,,,,,,,,,30,,,,,,,,2049.512282700045,2049.512282700045,2049.512282700045,2049.512282700045,2049.512282700045,right,0.39354289998300374,8,1,0,99,0.32,0.08,right,0.3100448999321088,,,,,,,,,,,,,,,,,,,,,,,,,,,,,,,,,,,,,,,,,,,,,,,,,,,,,,,,,,,,8CLW2F,train_x,blue_star,top_left,2025-03-26_17h51.12.325,HideSeek_v1,2022.2.5,59.94840841165399,
,3,6,7,6,4,0,21,,train_dim1_1,28,30,,,,2,0,2,0,,,,,,,,,0,0,0,0,0,27,27,27,3,0,3,0,,,,,,,,,,,,,,,,,,,,,,,,,,,,,,,,,,,,,,,,,,,,,,,,,,,,,,,,,,,,,,,,30,,,,,,,,2049.912923600059,2049.912923600059,2049.912923600059,2049.912923600059,2049.912923600059,right,0.4763914999784902,8,1,0,99,0.4,0.08,right,0.3975872000446543,,,,,,,,,,,,,,,,,,,,,,,,,,,,,,,,,,,,,,,,,,,,,,,,,,,,,,,,,,,,8CLW2F,train_x,blue_star,top_left,2025-03-26_17h51.12.325,HideSeek_v1,2022.2.5,59.94840841165399,
,3,6,7,6,4,0,21,,train_dim1_1,28,30,,,,2,0,2,0,,,,,,,,,0,0,0,0,0,27,27,27,4,0,4,0,,,,,,,,,,,,,,,,,,,,,,,,,,,,,,,,,,,,,,,,,,,,,,,,,,,,,,,,,,,,,,,,30,,,,,,,,2050.397326400038,2050.397326400038,2050.397326400038,2050.397326400038,2050.397326400038,right,0.4432350000133738,8,1,0,99,0.48000000000000004,0.08,right,0.3503270000219345,,,,,,,,,,,,,,,,,,,,,,,,,,,,,,,,,,,,,,,,,,,,,,,,,,,,,,,,,,,,8CLW2F,train_x,blue_star,top_left,2025-03-26_17h51.12.325,HideSeek_v1,2022.2.5,59.94840841165399,
,3,6,7,6,4,0,21,,train_dim1_1,28,30,,,,2,0,2,0,,,,,,,,,0,0,0,0,0,27,27,27,5,0,5,0,,,,,,,,,,,,,,,,,,,,,,,,,,,,,,,,,,,,,,,,,,,,,,,,,,,,,,,,,,,,,,,,30,,,,,,,,2050.846890600049,2050.846890600049,2050.846890600049,2050.846890600049,2050.846890600049,return,1.093424699967727,8,1,0,0,0.48000000000000004,0.08,return,1.0054180999286473,-5,69,0.48000000000000004,0.08,,,,,,,,,,,,,,,,,,,,,,,,,,,,,,,,,,,,,,,,,,,,,,,,,,,,,,,,8CLW2F,train_x,blue_star,top_left,2025-03-26_17h51.12.325,HideSeek_v1,2022.2.5,59.94840841165399,
,4,5,5,5,1,0,51,,train_dim1_1,29,30,,,,2,0,2,0,,,,,,,,,0,0,0,0,0,28,28,28,0,0,0,0,,,,,,,,,,,,,,,,,,,,,,,,,stimuli/alien_stimuli/51.png,,,,,,,,,,,,,,,,,,,,,,,,,,,,,stimuli/alien_stimuli/21.png,21,3,30,,,,,,,30,,,,,,,,2057.5570185000543,2057.5570185000543,2057.5570185000543,2057.5570185000543,2057.5570185000543,right,3.5753145000198856,8,1,0,99,0.24,0,right,3.466537300031632,,,,,2055.984589200001,2057.5570185000543,0.4,0.08,0.0,0.32,0.08,0.4,0.24000000000000002,0.4,0.08,2053.504324400099,2053.504324400099,2053.504324400099,2053.504324400099,2053.504324400099,2053.504324400099,2053.504324400099,2053.504324400099,2053.498320920009,2.587637500022538,return,2.452337000053376,,,,,,,,,,,,,,,,,,,,,,,,,,,,,,,,,8CLW2F,train_x,blue_star,top_left,2025-03-26_17h51.12.325,HideSeek_v1,2022.2.5,59.94840841165399,
,4,5,5,5,1,0,51,,train_dim1_1,29,30,,,,2,0,2,0,,,,,,,,,0,0,0,0,0,28,28,28,1,0,1,0,,,,,,,,,,,,,,,,,,,,,,,,,,,,,,,,,,,,,,,,,,,,,,,,,,,,,,,,,,,,,,,,30,,,,,,,,2061.1211448000977,2061.1211448000977,2061.1211448000977,2061.1211448000977,2061.1211448000977,return,0.643266599974595,9,0,0,1,0.24,0,return,0.5585241999942809,-5,70,0.24,0,,,,,,,,,,,,,,,,,,,,,,,,,,,,,,,,,,,,,,,,,,,,,,,,,,,,,,,,8CLW2F,train_x,blue_star,top_left,2025-03-26_17h51.12.325,HideSeek_v1,2022.2.5,59.94840841165399,
,2,7,7,7,5,0,11,,train_dim1_1,30,30,,,,2,0,2,0,,,,,,,,,0,0,0,0,0,29,29,29,0,0,0,0,,,,,,,,,,,,,,,,,,,,,,,,,stimuli/alien_stimuli/11.png,,,,,,,,,,,,,,,,,,,,,,,,,,,,,stimuli/alien_stimuli/51.png,51,4,31,,,,,,,30,,,,,,,,2065.839679100085,2065.839679100085,2065.839679100085,2065.839679100085,2065.839679100085,right,1.4387690000003204,9,0,0,99,0.08,0.16,right,1.326316799968481,,,,,2064.258036900079,2065.839679100085,0.24,0,0.0,0.08,0.0,0.24,0.2,0.24,0,2063.3273383000633,2063.3273383000633,2063.3273383000633,2063.3273383000633,2063.3273383000633,2063.3273383000633,2063.3273383000633,2063.3273383000633,2063.3066750600237,1.0365731000201777,return,0.9093215999891981,,,,,,,,,,,,,,,,,,,,,,,,,,,,,,,,,8CLW2F,train_x,blue_star,top_left,2025-03-26_17h51.12.325,HideSeek_v1,2022.2.5,59.94840841165399,
,2,7,7,7,5,0,11,,train_dim1_1,30,30,,,,2,0,2,0,,,,,,,,,0,0,0,0,0,29,29,29,1,0,1,0,,,,,,,,,,,,,,,,,,,,,,,,,,,,,,,,,,,,,,,,,,,,,,,,,,,,,,,,,,,,,,,,30,,,,,,,,2067.261228700052,2067.261228700052,2067.261228700052,2067.261228700052,2067.261228700052,right,0.5094745999667794,9,0,0,99,0.16,0.16,right,0.42684700002428144,,,,,,,,,,,,,,,,,,,,,,,,,,,,,,,,,,,,,,,,,,,,,,,,,,,,,,,,,,,,8CLW2F,train_x,blue_star,top_left,2025-03-26_17h51.12.325,HideSeek_v1,2022.2.5,59.94840841165399,
,2,7,7,7,5,0,11,,train_dim1_1,30,30,,,,2,0,2,0,,,,,,,,,0,0,0,0,0,29,29,29,2,0,2,0,,,,,,,,,,,,,,,,,,,,,,,,,,,,,,,,,,,,,,,,,,,,,,,,,,,,,,,,,,,,,,,,30,,,,,,,,2067.7772969000507,2067.7772969000507,2067.7772969000507,2067.7772969000507,2067.7772969000507,right,0.5099831999978051,9,0,0,99,0.24,0.16,right,0.42178200010675937,,,,,,,,,,,,,,,,,,,,,,,,,,,,,,,,,,,,,,,,,,,,,,,,,,,,,,,,,,,,8CLW2F,train_x,blue_star,top_left,2025-03-26_17h51.12.325,HideSeek_v1,2022.2.5,59.94840841165399,
,2,7,7,7,5,0,11,,train_dim1_1,30,30,,,,2,0,2,0,,,,,,,,,0,0,0,0,0,29,29,29,3,0,3,0,,,,,,,,,,,,,,,,,,,,,,,,,,,,,,,,,,,,,,,,,,,,,,,,,,,,,,,,,,,,,,,,30,,,,,,,,2068.29581270006,2068.29581270006,2068.29581270006,2068.29581270006,2068.29581270006,right,1.21080310002435,9,0,0,99,0.32,0.16,right,1.1309471999993548,,,,,,,,,,,,,,,,,,,,,,,,,,,,,,,,,,,,,,,,,,,,,,,,,,,,,,,,,,,,8CLW2F,train_x,blue_star,top_left,2025-03-26_17h51.12.325,HideSeek_v1,2022.2.5,59.94840841165399,
,2,7,7,7,5,0,11,,train_dim1_1,30,30,,,,2,0,2,0,,,,,,,,,0,0,0,0,0,29,29,29,4,0,4,0,,,,,,,,,,,,,,,,,,,,,,,,,,,,,,,,,,,,,,,,,,,,,,,,,,,,,,,,,,,,,,,,30,,,,,,,,2069.5121292000404,2069.5121292000404,2069.5121292000404,2069.5121292000404,2069.5121292000404,return,1.8777837000088766,9,1,0,0,0.32,0.16,return,1.791873999987729,-5,74,0.32,0.16,,,,,,,,,,,,,,,,,,,,,,,,,,,,,,,,,,,,,,,,,,,,,,,,,,,,,,,,8CLW2F,train_x,blue_star,top_left,2025-03-26_17h51.12.325,HideSeek_v1,2022.2.5,59.94840841165399,
,,,,,,,,,,,30,,,,2,0,2,0,,,,,,,,,,,,,,,,,,,,,,,,,,,,,,,,,,,,,,,,,,,,,,,,,,,,,,,,,,,,,,,,,,,,,,,,,,stimuli/alien_stimuli/11.png,11,2,32,21,0.7,0.375,1,1,1,30,0,conditions/schedules/train_x_first/blue_star_00/top_left/inputTrain_2.1.xlsx,99,1,2,1,0,,,,,,,,,,,0,,,,,,,,,2074.266466400004,2075.822682099999,0.4,0.16,0.0,0.4,0.16,0.4,0.2,0.4,0.16,2072.952225200017,2072.952225200017,2072.952225200017,2072.952225200017,2072.952225200017,2072.952225200017,2072.952225200017,2072.952225200017,2072.931334559992,1.4197361000115052,return,1.295363900018856,0,0.9,0,1,9,,,,,,,,,,,,,,,,,,,,,,,,,,,,8CLW2F,train_x,blue_star,top_left,2025-03-26_17h51.12.325,HideSeek_v1,2022.2.5,59.94840841165399,
,,,,,,,,,,,,,,,3,0,3,0,0,0,0,0,,,,,,,,,,,,,,,,,,,,,,,,,,,,,,,conditions/schedules/train_x_first/blue_star_00/top_left/instructions/Slide17.png,conditions/schedules/train_x_first/blue_star_00/top_left/instructions/Audio17.wav,2075.822682099999,2075.8172496400543,17,"[11.810914400033653, 18.329316099989228, 16.60023069998715, 19.39767039997969, 4.220391000038944, 4.368765000021085, 5.503891200060025, 11.573267200030386, 6.166931099956855, 7.381826199940406, 10.454815899953246, 12.457776899915189, 24.74973909999244, 12.668766399961896, 29.699779400019906, 21.10691550001502, 43.195342599996366]","[0.013681999989785254, 18.32932289992459, 0.014106800081208348, 0.032972400076687336, 0.0648935999488458, 0.08271930005867034, 0.04718520003370941, 0.04554699989967048, 6.166937500005588, 0.029984899912960827, 0.04717109992634505, 12.457783499965444, 24.749745700042695, 12.668773799901828, 29.699786599958315, 21.10692209994886, 43.19534949993249]",0,,,,,,,,,,,,,,,,,,,,,,,,,,,,,,,,,,,,,,,,,,,,,,,,,,,,,,,,,,,,,,,,,,,,,,,,,,,,,,,,,,,,,,,,,,,,,,,,,,,,,,,,,,,,,,,,,,,,,,,,,,,,8CLW2F,train_x,blue_star,top_left,2025-03-26_17h51.12.325,HideSeek_v1,2022.2.5,59.94840841165399,
,,,,,,,,,,,,,,,3,0,3,0,1,0,1,0,,,,,,,,,,,,,,,,,,,,,,,,,,,,,,,conditions/schedules/train_x_first/blue_star_00/top_left/instructions/Slide18.png,conditions/schedules/train_x_first/blue_star_00/top_left/instructions/Audio18.wav,2119.0837083000224,2119.070164340013,18,"[11.810914400033653, 18.329316099989228, 16.60023069998715, 19.39767039997969, 4.220391000038944, 4.368765000021085, 5.503891200060025, 11.573267200030386, 6.166931099956855, 7.381826199940406, 10.454815899953246, 12.457776899915189, 24.74973909999244, 12.668766399961896, 29.699779400019906, 21.10691550001502, 43.195342599996366, 7.040134600014426]","[0.013681999989785254, 18.32932289992459, 0.014106800081208348, 0.032972400076687336, 0.0648935999488458, 0.08271930005867034, 0.04718520003370941, 0.04554699989967048, 6.166937500005588, 0.029984899912960827, 0.04717109992634505, 12.457783499965444, 24.749745700042695, 12.668773799901828, 29.699786599958315, 21.10692209994886, 0.00024940003640949726, 7.04014040005859]",0,,,,,,,,,,,,,,,,,,,,,,,,,,,,,,,,,,,,,,,,,,,,,,,,,,,,,,,,,,,,,,,,,,,,,,,,,,,,,,,,,,,,,,,,,,,,,,,,,,,,,,,,,,,,,,,,,,,,,,,,,,,,8CLW2F,train_x,blue_star,top_left,2025-03-26_17h51.12.325,HideSeek_v1,2022.2.5,59.94840841165399,
,,,,,,,,,,,,,,,3,0,3,0,2,0,2,0,,,,,,,,,,,,,,,,,,,,,,,,,,,,,,,conditions/schedules/train_x_first/blue_star_00/top_left/instructions/Slide19.png,conditions/schedules/train_x_first/blue_star_00/top_left/instructions/Audio19.wav,2126.1633034000406,2126.1591089800118,19,"[11.810914400033653, 18.329316099989228, 16.60023069998715, 19.39767039997969, 4.220391000038944, 4.368765000021085, 5.503891200060025, 11.573267200030386, 6.166931099956855, 7.381826199940406, 10.454815899953246, 12.457776899915189, 24.74973909999244, 12.668766399961896, 29.699779400019906, 21.10691550001502, 43.195342599996366, 7.040134600014426, 11.886774500017054]","[0.013681999989785254, 18.32932289992459, 0.014106800081208348, 0.032972400076687336, 0.0648935999488458, 0.08271930005867034, 0.04718520003370941, 0.04554699989967048, 6.166937500005588, 0.029984899912960827, 0.04717109992634505, 12.457783499965444, 24.749745700042695, 12.668773799901828, 29.699786599958315, 21.10692209994886, 0.00024940003640949726, 0.00021660001948475838, 11.886780999950133]",0,,,,,,,,,,,,,,,,,,,,,,,,,,,,,,,,,,,,,,,,,,,,,,,,,,,,,,,,,,,,,,,,,,,,,,,,,,,,,,,,,,,,,,,,,,,,,,,,,,,,,,,,,,,,,,,,,,,,,,,,,,,,8CLW2F,train_x,blue_star,top_left,2025-03-26_17h51.12.325,HideSeek_v1,2022.2.5,59.94840841165399,
,,,,,,,,,,,,,,,3,0,3,0,3,0,3,0,,,,,,,,,,,,,,,,,,,,,,,,,,,,,,,conditions/schedules/train_x_first/blue_star_00/top_left/instructions/Slide20.png,conditions/schedules/train_x_first/blue_star_00/top_left/instructions/Audio20.wav,2138.122258400079,2138.118801400007,20,"[11.810914400033653, 18.329316099989228, 16.60023069998715, 19.39767039997969, 4.220391000038944, 4.368765000021085, 5.503891200060025, 11.573267200030386, 6.166931099956855, 7.381826199940406, 10.454815899953246, 12.457776899915189, 24.74973909999244, 12.668766399961896, 29.699779400019906, 21.10691550001502, 43.195342599996366, 7.040134600014426, 11.886774500017054, 13.855581899988465]","[0.013681999989785254, 18.32932289992459, 0.014106800081208348, 0.032972400076687336, 0.0648935999488458, 0.08271930005867034, 0.04718520003370941, 0.04554699989967048, 6.166937500005588, 0.029984899912960827, 0.04717109992634505, 12.457783499965444, 24.749745700042695, 12.668773799901828, 29.699786599958315, 21.10692209994886, 0.00024940003640949726, 0.00021660001948475838, 0.029450499918311834, 13.855587799916975]",0,,,,,,,,,,,,,,,,,,,,,,,,,,,,,,,,,,,,,,,,,,,,,,,,,,,,,,,,,,,,,,,,,,,,,,,,,,,,,,,,,,,,,,,,,,,,,,,,,,,,,,,,,,,,,,,,,,,,,,,,,,,,8CLW2F,train_x,blue_star,top_left,2025-03-26_17h51.12.325,HideSeek_v1,2022.2.5,59.94840841165399,
1,0,8,0,3,0,-5,66,2,instr_dim1_2,,,,,,3,0,3,0,,,,,0,0,0,0,,,,,,,,,,,,,,,,,,,,,,,,,,,,,,,,,,,,,stimuli/alien_stimuli/66.png,conditions/schedules/train_x_first/blue_star_00/top_left/inputInstr_2.xlsx,stimuli/alien_stimuli/66.png,2152.0776705000317,2152.0776705000317,2152.0776705000317,2152.0776705000317,2152.0802432200526,return,8.239311199984513,"[-0.16, -0.08, 0, 0.08, 0.16, 0.24, 0.32, 0.4, 0.48, 0.56]","[-0.4, -0.32, -0.24, -0.16, -0.08, 0, 0.08, 0.16, 0.24, 0.32]",3,8,0,0,0.4,0.0,2160.4528554000426,2160.4528554000426,2160.4528554000426,2160.4528554000426,2160.4528554000426,2160.4528554000426,2160.4528554000426,2160.4536453800742,5.572126999963075,return,5.424572500050999,stimuli/alien_stimuli/66.png,66,0,1,,,,,,,,,,,,,,,,,,,,,,,,,,,,,,,,,,,,,,,,,,,,,,,,,,,,,,,,,,,,,,,,,,,,,,,,,,,,,,,,,,,,,,,,,8CLW2F,train_x,blue_star,top_left,2025-03-26_17h51.12.325,HideSeek_v1,2022.2.5,59.94840841165399,
,,,,,,,,,,,30,,,,3,0,3,0,,,,,,,,,,,,,,,,,,,,,,,,,,,,,,,,,,,,,,,,,,,,,,,,,,,,,,,,,,,,,,,,,,,,,,,,,,,,,,21,0.7,0.375,1,99,2,30,0,conditions/schedules/train_x_first/blue_star_00/top_left/inputTrain_2.1.xlsx,99,1,2,1,0,,,,,,,,,,,,,,,,,,,,,,,,,,,,,,,,,,,,,,,,,,,,,,,,,,,,,,,,,,,,,,,,,,,,,,,,,,,8CLW2F,train_x,blue_star,top_left,2025-03-26_17h51.12.325,HideSeek_v1,2022.2.5,59.94840841165399,
,,,,,,,,,,,,,,,4,0,4,0,0,0,0,0,,,,,,,,,,,,,,,,,,,,,,,,,,,,,,,conditions/schedules/train_x_first/blue_star_00/top_left/instructions/Slide21.png,conditions/schedules/train_x_first/blue_star_00/top_left/instructions/Audio21.wav,2166.0558473001,2166.058186899987,21,"[11.810914400033653, 18.329316099989228, 16.60023069998715, 19.39767039997969, 4.220391000038944, 4.368765000021085, 5.503891200060025, 11.573267200030386, 6.166931099956855, 7.381826199940406, 10.454815899953246, 12.457776899915189, 24.74973909999244, 12.668766399961896, 29.699779400019906, 21.10691550001502, 43.195342599996366, 7.040134600014426, 11.886774500017054, 13.855581899988465, 16.17987330001779]","[0.013681999989785254, 18.32932289992459, 0.014106800081208348, 0.032972400076687336, 0.0648935999488458, 0.08271930005867034, 0.04718520003370941, 0.04554699989967048, 6.166937500005588, 0.029984899912960827, 0.04717109992634505, 12.457783499965444, 24.749745700042695, 12.668773799901828, 29.699786599958315, 21.10692209994886, 0.00024940003640949726, 0.00021660001948475838, 0.029450499918311834, 13.855587799916975, 16.179880100069568]",0,,,,,,,,,,,,,,,,,,,,,,,,,,,,,,,,,,,,,,,,,,,,,,,,,,,,,,,,,,,,,,,,,,,,,,,,,,,,,,,,,,,,,,,,,,,,,,,,,,,,,,,,,,,,,,,,,,,,,,,,,,,,8CLW2F,train_x,blue_star,top_left,2025-03-26_17h51.12.325,HideSeek_v1,2022.2.5,59.94840841165399,
2,2,8,2,8,0,0,61,2,instr_dim1_2,,,,,,4,0,4,0,,,,,0,0,0,0,,,,,,,,,,,,,,,,,,,,,,,,,,,,,,,,,,,,,stimuli/alien_stimuli/61.png,conditions/schedules/train_x_first/blue_star_00/top_left/inputInstr_2.xlsx,stimuli/alien_stimuli/61.png,2182.334764500032,2182.334764500032,2182.334764500032,2182.334764500032,2182.3386314200125,return,4.729592700023204,"[-0.16, -0.08, 0, 0.08, 0.16, 0.24, 0.32, 0.4, 0.48, 0.56]","[-0.4, -0.32, -0.24, -0.16, -0.08, 0, 0.08, 0.16, 0.24, 0.32]",8,8,2,2,0.0,0.0,2187.209536600043,2187.209536600043,2187.209536600043,2187.209536600043,2187.209536600043,2187.209536600043,2187.209536600043,2187.2091522799806,5.722706399974413,return,5.587836900027469,stimuli/alien_stimuli/61.png,61,2,2,,,,,,,,,,,,,,,,,,,,,,,,,,,,,,,,,,,,,,,,,,,,,,,,,,,,,,,,,,,,,,,,,,,,,,,,,,,,,,,,,,,,,,,,,8CLW2F,train_x,blue_star,top_left,2025-03-26_17h51.12.325,HideSeek_v1,2022.2.5,59.94840841165399,
,,,,,,,,,,,30,,,,4,0,4,0,,,,,,,,,,,,,,,,,,,,,,,,,,,,,,,,,,,,,,,,,,,,,,,,,,,,,,,,,,,,,,,,,,,,,,,,,,,,,,21,0.7,0.375,1,99,2,30,0,conditions/schedules/train_x_first/blue_star_00/top_left/inputTrain_2.1.xlsx,99,1,2,1,0,,,,,,,,,,,,,,,,,,,,,,,,,,,,,,,,,,,,,,,,,,,,,,,,,,,,,,,,,,,,,,,,,,,,,,,,,,,8CLW2F,train_x,blue_star,top_left,2025-03-26_17h51.12.325,HideSeek_v1,2022.2.5,59.94840841165399,
,,,,,,,,,,,,,,,5,0,5,0,0,0,0,0,,,,,,,,,,,,,,,,,,,,,,,,,,,,,,,conditions/schedules/train_x_first/blue_star_00/top_left/instructions/Slide22.png,conditions/schedules/train_x_first/blue_star_00/top_left/instructions/Audio22.wav,2192.969941000105,2192.963894400047,22,"[11.810914400033653, 18.329316099989228, 16.60023069998715, 19.39767039997969, 4.220391000038944, 4.368765000021085, 5.503891200060025, 11.573267200030386, 6.166931099956855, 7.381826199940406, 10.454815899953246, 12.457776899915189, 24.74973909999244, 12.668766399961896, 29.699779400019906, 21.10691550001502, 43.195342599996366, 7.040134600014426, 11.886774500017054, 13.855581899988465, 16.17987330001779, 43.878701300011016]","[0.013681999989785254, 18.32932289992459, 0.014106800081208348, 0.032972400076687336, 0.0648935999488458, 0.08271930005867034, 0.04718520003370941, 0.04554699989967048, 6.166937500005588, 0.029984899912960827, 0.04717109992634505, 12.457783499965444, 24.749745700042695, 12.668773799901828, 29.699786599958315, 21.10692209994886, 0.00024940003640949726, 0.00021660001948475838, 0.029450499918311834, 13.855587799916975, 16.179880100069568, 43.878707799944095]",0,,,,,,,,,,,,,,,,,,,,,,,,,,,,,,,,,,,,,,,,,,,,,,,,,,,,,,,,,,,,,,,,,,,,,,,,,,,,,,,,,,,,,,,,,,,,,,,,,,,,,,,,,,,,,,,,,,,,,,,,,,,,8CLW2F,train_x,blue_star,top_left,2025-03-26_17h51.12.325,HideSeek_v1,2022.2.5,59.94840841165399,
,0,5,0,1,0,-4,65,,train_dim1_2,1,30,,,,5,0,5,0,,,,,,,,,0,0,0,0,0,0,0,0,0,0,0,0,,,,,,,,,,,,,,,,,,,,,,,,,stimuli/alien_stimuli/65.png,,,,,,,,,,,,,,,,,,,,,,,,,,,,,,,,,,,,,,,30,,,,,,,,2236.957953900099,2236.957953900099,2236.957953900099,2236.957953900099,2236.957953900099,return,5.481813000049442,0,0,0,0,-0.16,0,return,5.372895099921152,-5,74,-0.16,0,,,,,,,,,,,,,,,,,,,,,,,,,,,,,,,,,,,,,,,,,,,,,,,,,,,,,,,,8CLW2F,train_x,blue_star,top_left,2025-03-26_17h51.12.325,HideSeek_v1,2022.2.5,59.94840841165399,
,3,7,3,2,0,-5,66,,train_dim1_2,2,30,,,,5,0,5,0,,,,,,,,,0,0,0,0,0,1,1,1,0,0,0,0,,,,,,,,,,,,,,,,,,,,,,,,,stimuli/alien_stimuli/66.png,,,,,,,,,,,,,,,,,,,,,,,,,,,,,stimuli/alien_stimuli/65.png,65,0,3,,,,,,,30,,,,,,,,2248.8304095000494,2248.8304095000494,2248.8304095000494,2248.8304095000494,2248.8304095000494,down,1.8558003000216559,0,0,0,99,0.08,0.08,down,1.7834952999837697,,,,,2247.2767975000897,2248.8304095000494,-0.16,-0.32,0.32,0.0,-0.16,-0.16,-0.16,-0.16,-0.32,2243.9933729000622,2243.9933729000622,2243.9933729000622,2243.9933729000622,2243.9933729000622,2243.9933729000622,2243.9933729000622,2243.9933729000622,2243.9729183200634,3.405464700073935,return,3.2652331999270245,,,,,,,,,,,,,,,,,,,,,,,,,,,,,,,,,8CLW2F,train_x,blue_star,top_left,2025-03-26_17h51.12.325,HideSeek_v1,2022.2.5,59.94840841165399,
,3,7,3,2,0,-5,66,,train_dim1_2,2,30,,,,5,0,5,0,,,,,,,,,0,0,0,0,0,1,1,1,1,0,1,0,,,,,,,,,,,,,,,,,,,,,,,,,,,,,,,,,,,,,,,,,,,,,,,,,,,,,,,,,,,,,,,,30,,,,,,,,2250.692564600031,2250.692564600031,2250.692564600031,2250.692564600031,2250.692564600031,down,0.5266494000097737,0,0,0,99,0.08,0.0,down,0.4492165999254212,,,,,,,,,,,,,,,,,,,,,,,,,,,,,,,,,,,,,,,,,,,,,,,,,,,,,,,,,,,,8CLW2F,train_x,blue_star,top_left,2025-03-26_17h51.12.325,HideSeek_v1,2022.2.5,59.94840841165399,
,3,7,3,2,0,-5,66,,train_dim1_2,2,30,,,,5,0,5,0,,,,,,,,,0,0,0,0,0,1,1,1,2,0,2,0,,,,,,,,,,,,,,,,,,,,,,,,,,,,,,,,,,,,,,,,,,,,,,,,,,,,,,,,,,,,,,,,30,,,,,,,,2251.225816800026,2251.225816800026,2251.225816800026,2251.225816800026,2251.225816800026,down,0.5101141000632197,0,0,0,99,0.08,-0.08,down,0.42303619999438524,,,,,,,,,,,,,,,,,,,,,,,,,,,,,,,,,,,,,,,,,,,,,,,,,,,,,,,,,,,,8CLW2F,train_x,blue_star,top_left,2025-03-26_17h51.12.325,HideSeek_v1,2022.2.5,59.94840841165399,
,3,7,3,2,0,-5,66,,train_dim1_2,2,30,,,,5,0,5,0,,,,,,,,,0,0,0,0,0,1,1,1,3,0,3,0,,,,,,,,,,,,,,,,,,,,,,,,,,,,,,,,,,,,,,,,,,,,,,,,,,,,,,,,,,,,,,,,30,,,,,,,,2251.7433752000798,2251.7433752000798,2251.7433752000798,2251.7433752000798,2251.7433752000798,down,0.5100210999371484,0,0,0,99,0.08,-0.16,down,0.42362730007153004,,,,,,,,,,,,,,,,,,,,,,,,,,,,,,,,,,,,,,,,,,,,,,,,,,,,,,,,,,,,8CLW2F,train_x,blue_star,top_left,2025-03-26_17h51.12.325,HideSeek_v1,2022.2.5,59.94840841165399,
,3,7,3,2,0,-5,66,,train_dim1_2,2,30,,,,5,0,5,0,,,,,,,,,0,0,0,0,0,1,1,1,4,0,4,0,,,,,,,,,,,,,,,,,,,,,,,,,,,,,,,,,,,,,,,,,,,,,,,,,,,,,,,,,,,,,,,,30,,,,,,,,2252.259853900061,2252.259853900061,2252.259853900061,2252.259853900061,2252.259853900061,down,0.4600556999212131,0,0,0,99,0.08,-0.24,down,0.37959210004191846,,,,,,,,,,,,,,,,,,,,,,,,,,,,,,,,,,,,,,,,,,,,,,,,,,,,,,,,,,,,8CLW2F,train_x,blue_star,top_left,2025-03-26_17h51.12.325,HideSeek_v1,2022.2.5,59.94840841165399,
,3,7,3,2,0,-5,66,,train_dim1_2,2,30,,,,5,0,5,0,,,,,,,,,0,0,0,0,0,1,1,1,5,0,5,0,,,,,,,,,,,,,,,,,,,,,,,,,,,,,,,,,,,,,,,,,,,,,,,,,,,,,,,,,,,,,,,,30,,,,,,,,2252.727702900069,2252.727702900069,2252.727702900069,2252.727702900069,2252.727702900069,return,1.510879100067541,1,0,0,1,0.08,-0.24,return,1.4339239000109956,-10,74,0.08,-0.24,,,,,,,,,,,,,,,,,,,,,,,,,,,,,,,,,,,,,,,,,,,,,,,,,,,,,,,,8CLW2F,train_x,blue_star,top_left,2025-03-26_17h51.12.325,HideSeek_v1,2022.2.5,59.94840841165399,
,2,8,2,5,0,-3,64,,train_dim1_2,3,30,,,,5,0,5,0,,,,,,,,,0,0,0,0,0,2,2,2,0,0,0,0,,,,,,,,,,,,,,,,,,,,,,,,,stimuli/alien_stimuli/64.png,,,,,,,,,,,,,,,,,,,,,,,,,,,,,stimuli/alien_stimuli/66.png,66,3,4,,,,,,,30,,,,,,,,2259.9057380000595,2259.9057380000595,2259.9057380000595,2259.9057380000595,2259.9057380000595,down,2.0077529000118375,1,0,0,99,0,0.15999999999999998,down,1.9306771999690682,,,,,2258.3527176000644,2259.9057380000595,0.08,-0.24,0.4,0.0,-0.039999999999999994,0.08,0.08,0.08,-0.24,2255.8091307000723,2255.8091307000723,2255.8091307000723,2255.8091307000723,2255.8091307000723,2255.8091307000723,2255.8091307000723,2255.8091307000723,2255.799786320038,2.6541379000991583,return,2.5178289000177756,,,,,,,,,,,,,,,,,,,,,,,,,,,,,,,,,8CLW2F,train_x,blue_star,top_left,2025-03-26_17h51.12.325,HideSeek_v1,2022.2.5,59.94840841165399,
,2,8,2,5,0,-3,64,,train_dim1_2,3,30,,,,5,0,5,0,,,,,,,,,0,0,0,0,0,2,2,2,1,0,1,0,,,,,,,,,,,,,,,,,,,,,,,,,,,,,,,,,,,,,,,,,,,,,,,,,,,,,,,,,,,,,,,,30,,,,,,,,2261.9186928001,2261.9186928001,2261.9186928001,2261.9186928001,2261.9186928001,down,0.359173099976033,1,0,0,99,0,0.07999999999999997,down,0.2722535999491811,,,,,,,,,,,,,,,,,,,,,,,,,,,,,,,,,,,,,,,,,,,,,,,,,,,,,,,,,,,,8CLW2F,train_x,blue_star,top_left,2025-03-26_17h51.12.325,HideSeek_v1,2022.2.5,59.94840841165399,
,2,8,2,5,0,-3,64,,train_dim1_2,3,30,,,,5,0,5,0,,,,,,,,,0,0,0,0,0,2,2,2,2,0,2,0,,,,,,,,,,,,,,,,,,,,,,,,,,,,,,,,,,,,,,,,,,,,,,,,,,,,,,,,,,,,,,,,30,,,,,,,,2262.284690200002,2262.284690200002,2262.284690200002,2262.284690200002,2262.284690200002,down,0.32686179992742836,1,0,0,99,0,-2.7755575615628914e-17,down,0.2425428000278771,,,,,,,,,,,,,,,,,,,,,,,,,,,,,,,,,,,,,,,,,,,,,,,,,,,,,,,,,,,,8CLW2F,train_x,blue_star,top_left,2025-03-26_17h51.12.325,HideSeek_v1,2022.2.5,59.94840841165399,
,2,8,2,5,0,-3,64,,train_dim1_2,3,30,,,,5,0,5,0,,,,,,,,,0,0,0,0,0,2,2,2,3,0,3,0,,,,,,,,,,,,,,,,,,,,,,,,,,,,,,,,,,,,,,,,,,,,,,,,,,,,,,,,,,,,,,,,30,,,,,,,,2262.6199433000293,2262.6199433000293,2262.6199433000293,2262.6199433000293,2262.6199433000293,return,1.0104676999617368,2,0,0,1,0,-2.7755575615628914e-17,return,0.9330328000942245,-13,74,0,-2.7755575615628914e-17,,,,,,,,,,,,,,,,,,,,,,,,,,,,,,,,,,,,,,,,,,,,,,,,,,,,,,,,8CLW2F,train_x,blue_star,top_left,2025-03-26_17h51.12.325,HideSeek_v1,2022.2.5,59.94840841165399,
