trialInstr,x_fixStart,y_fixStart,x_corrSteps,y_corrSteps,x_nrSteps,y_nrSteps,alienID,trialLength,version,trialTrain,praclen,testlen,trial_label,break_on_off,beforeExpLoop.thisRepN,beforeExpLoop.thisTrialN,beforeExpLoop.thisN,beforeExpLoop.thisIndex,mini_instr_trials.thisRepN,mini_instr_trials.thisTrialN,mini_instr_trials.thisN,mini_instr_trials.thisIndex,instrLoop.thisRepN,instrLoop.thisTrialN,instrLoop.thisN,instrLoop.thisIndex,repeat_prac.thisRepN,repeat_prac.thisTrialN,repeat_prac.thisN,repeat_prac.thisIndex,trainLoop.thisRepN,trainLoop.thisTrialN,trainLoop.thisN,trainLoop.thisIndex,moveLoop_train.thisRepN,moveLoop_train.thisTrialN,moveLoop_train.thisN,moveLoop_train.thisIndex,experiment.thisRepN,experiment.thisTrialN,experiment.thisN,experiment.thisIndex,moveLoop_test.thisRepN,moveLoop_test.thisTrialN,moveLoop_test.thisN,moveLoop_test.thisIndex,mini_instr2_trials.thisRepN,mini_instr2_trials.thisTrialN,mini_instr2_trials.thisN,mini_instr2_trials.thisIndex,start_all_time,url,slideStim,audioStim,slides.started,sounds.started,nextButton.numClicks,nextButton.timesOn,nextButton.timesOff,prev_but.numClicks,prev_but.timesOn,prev_but.timesOff,alienStim,instrFile,alienStim_instr,gridImage_instr.started,startPos_3.started,key_instr.started,alienImage_3.started,sounds_1.started,key_instr.keys,key_instr.rt,all_x,all_y,FBy_corrSteps,FBy_fixStart,FBx_corrSteps,FBx_fixStart,FBy_pathSize_check,FBx_pathSize_check,gridImage_9.started,alienImageFB_3.started,startPosFB_3.started,keyFB_3.started,pathLine_ydir_2.started,pathLine_xdir_2.started,alienFace_3.started,sounds_2.started,RTFB_instr,keyFB_3.keys,keyFB_3.rt,draw_alienStim,draw_alienID,test_x,nrepcount,perfthres,percthres,earlierperf,earlystop,nextPrac,fileidx,praclen,saveACC_train,pracFile,nextPrac_train,addNrep,fileidx_endr,repExp,showearly,gridImage_4.started,startPos.started,movePos.started,key_resp.started,alienImage.started,buttonPress_train,RTchoice_train,cumAcctrain,aCorr,saveACC_choice,corrAns,x_movePos_end,y_movePos_end,key_resp.keys,key_resp.rt,wLy_dir,wLx_dir,x_movePos,y_movePos,text_2.started,text_2.stopped,aft_x_corrPos,aft_y_corrPos,y_pathSize_check,x_pathSize_check,y_pathdirY,x_pathdirY,x_pathdirX,x_corrPos,y_corrPos,gridImage_6.started,alienImageFB_2.started,startPosFB_2.started,movePosFB_2.started,keyFB_2.started,pathLine_xdir.started,pathLine_ydir.started,alienFace.started,sounds_4.started,RT_FBtrain,keyFB_2.keys,keyFB_2.rt,saveACC_pre,ACC,within_saveACC_train,earlystop_wloop,cumAcctrain_check,gridImage_3.started,alienImage_test.started,startPos_test.started,movePos_test.started,key_resp_test.started,wLy_dir_test,wLx_dir_test,buttonPress_test,RTchoice_test,cumAcctest,corrAns_test,key_resp_test.keys,key_resp_test.rt,text_3.started,text_3.stopped,total_time,end_all_time,key_resp_3.keys,slides_2.started,sounds_3.started,nextButton_2.numClicks,nextButton_2.timesOn,nextButton_2.timesOff,prev_but_2.numClicks,prev_but_2.timesOn,prev_but_2.timesOff,bye.started,participant,train_first,00_coordinate,starting corner,date,expName,psychopyVersion,frameRate,
,,,,,,,,,,,,,,,0,0,0,0,0,0,0,0,,,,,,,,,,,,,,,,,,,,,,,,,,,,,start_all_time,testround,conditions/schedules/train_y_first/blue_star_00/top_right/instructions/Slide1.png,conditions/schedules/train_y_first/blue_star_00/top_right/instructions/Audio1.wav,598.2515237000043,598.2032816400562,1,[90.71056559999124],[90.71057270000165],0,,,,,,,,,,,,,,,,,,,,,,,,,,,,,,,,,,,,,,,,,,,,,,,,,,,,,,,,,,,,,,,,,,,,,,,,,,,,,,,,,,,,,,,,,,,,,,,,,,,,,,,,,,,,,,,,,,,,,,,,,,,,8J1937,train_y,blue_star,top_right,2025-05-15_15h32.50.340,HideSeek_v1,2022.2.5,59.95541714910406,
,,,,,,,,,,,,,,,0,0,0,0,1,0,1,0,,,,,,,,,,,,,,,,,,,,,,,,,,,,,,,conditions/schedules/train_y_first/blue_star_00/top_right/instructions/Slide2.png,conditions/schedules/train_y_first/blue_star_00/top_right/instructions/Audio2.wav,689.0002808999998,689.0008886799973,2,"[90.71056559999124, 18.163595100006205]","[0.03182119999837596, 18.163601600012043]",0,,,,,,,,,,,,,,,,,,,,,,,,,,,,,,,,,,,,,,,,,,,,,,,,,,,,,,,,,,,,,,,,,,,,,,,,,,,,,,,,,,,,,,,,,,,,,,,,,,,,,,,,,,,,,,,,,,,,,,,,,,,,8J1937,train_y,blue_star,top_right,2025-05-15_15h32.50.340,HideSeek_v1,2022.2.5,59.95541714910406,
,,,,,,,,,,,,,,,0,0,0,0,2,0,2,0,,,,,,,,,,,,,,,,,,,,,,,,,,,,,,,conditions/schedules/train_y_first/blue_star_00/top_right/instructions/Slide3.png,conditions/schedules/train_y_first/blue_star_00/top_right/instructions/Audio3.wav,707.2460876999976,707.2329480999979,3,"[90.71056559999124, 18.163595100006205, 16.598402400006307]","[0.03182119999837596, 0.0002066000015474856, 16.598408999998355]",0,,,,,,,,,,,,,,,,,,,,,,,,,,,,,,,,,,,,,,,,,,,,,,,,,,,,,,,,,,,,,,,,,,,,,,,,,,,,,,,,,,,,,,,,,,,,,,,,,,,,,,,,,,,,,,,,,,,,,,,,,,,,8J1937,train_y,blue_star,top_right,2025-05-15_15h32.50.340,HideSeek_v1,2022.2.5,59.95541714910406,
,,,,,,,,,,,,,,,0,0,0,0,3,0,3,0,,,,,,,,,,,,,,,,,,,,,,,,,,,,,,,conditions/schedules/train_y_first/blue_star_00/top_right/instructions/Slide4.png,conditions/schedules/train_y_first/blue_star_00/top_right/instructions/Audio4.wav,723.9212701999932,723.9134130999955,4,"[90.71056559999124, 18.163595100006205, 16.598402400006307, 19.156158500001766]","[0.03182119999837596, 0.0002066000015474856, 0.00027289999707136303, 19.15616470000532]",0,,,,,,,,,,,,,,,,,,,,,,,,,,,,,,,,,,,,,,,,,,,,,,,,,,,,,,,,,,,,,,,,,,,,,,,,,,,,,,,,,,,,,,,,,,,,,,,,,,,,,,,,,,,,,,,,,,,,,,,,,,,,8J1937,train_y,blue_star,top_right,2025-05-15_15h32.50.340,HideSeek_v1,2022.2.5,59.95541714910406,
,,,,,,,,,,,,,,,0,0,0,0,4,0,4,0,,,,,,,,,,,,,,,,,,,,,,,,,,,,,,,conditions/schedules/train_y_first/blue_star_00/top_right/instructions/Slide5.png,conditions/schedules/train_y_first/blue_star_00/top_right/instructions/Audio5.wav,743.1404256999958,743.1293809199939,5,"[90.71056559999124, 18.163595100006205, 16.598402400006307, 19.156158500001766, 4.3569533999980194]","[0.03182119999837596, 0.0002066000015474856, 0.00027289999707136303, 0.03287799999816343, 4.356960300006904]",0,,,,,,,,,,,,,,,,,,,,,,,,,,,,,,,,,,,,,,,,,,,,,,,,,,,,,,,,,,,,,,,,,,,,,,,,,,,,,,,,,,,,,,,,,,,,,,,,,,,,,,,,,,,,,,,,,,,,,,,,,,,,8J1937,train_y,blue_star,top_right,2025-05-15_15h32.50.340,HideSeek_v1,2022.2.5,59.95541714910406,
,,,,,,,,,,,,,,,0,0,0,0,5,0,5,0,,,,,,,,,,,,,,,,,,,,,,,,,,,,,,,conditions/schedules/train_y_first/blue_star_00/top_right/instructions/Slide6.png,conditions/schedules/train_y_first/blue_star_00/top_right/instructions/Audio6.wav,747.548406499991,747.5495058199973,6,"[90.71056559999124, 18.163595100006205, 16.598402400006307, 19.156158500001766, 4.3569533999980194, 4.319175399999949]","[0.03182119999837596, 0.0002066000015474856, 0.00027289999707136303, 0.03287799999816343, 0.013912599999457598, 4.319181799990474]",0,,,,,,,,,,,,,,,,,,,,,,,,,,,,,,,,,,,,,,,,,,,,,,,,,,,,,,,,,,,,,,,,,,,,,,,,,,,,,,,,,,,,,,,,,,,,,,,,,,,,,,,,,,,,,,,,,,,,,,,,,,,,8J1937,train_y,blue_star,top_right,2025-05-15_15h32.50.340,HideSeek_v1,2022.2.5,59.95541714910406,
,,,,,,,,,,,,,,,0,0,0,0,6,0,6,0,,,,,,,,,,,,,,,,,,,,,,,,,,,,,,,conditions/schedules/train_y_first/blue_star_00/top_right/instructions/Slide7.png,conditions/schedules/train_y_first/blue_star_00/top_right/instructions/Audio7.wav,751.9186852999992,751.9200551199989,7,"[90.71056559999124, 18.163595100006205, 16.598402400006307, 19.156158500001766, 4.3569533999980194, 4.319175399999949, 5.4035524999926565]","[0.03182119999837596, 0.0002066000015474856, 0.00027289999707136303, 0.03287799999816343, 0.013912599999457598, 0.06574279999767896, 5.403559099999256]",0,,,,,,,,,,,,,,,,,,,,,,,,,,,,,,,,,,,,,,,,,,,,,,,,,,,,,,,,,,,,,,,,,,,,,,,,,,,,,,,,,,,,,,,,,,,,,,,,,,,,,,,,,,,,,,,,,,,,,,,,,,,,8J1937,train_y,blue_star,top_right,2025-05-15_15h32.50.340,HideSeek_v1,2022.2.5,59.95541714910406,
,,,,,,,,,,,,,,,0,0,0,0,7,0,7,0,,,,,,,,,,,,,,,,,,,,,,,,,,,,,,,conditions/schedules/train_y_first/blue_star_00/top_right/instructions/Slide8.png,conditions/schedules/train_y_first/blue_star_00/top_right/instructions/Audio8.wav,757.3735670000024,757.3745044199983,8,"[90.71056559999124, 18.163595100006205, 16.598402400006307, 19.156158500001766, 4.3569533999980194, 4.319175399999949, 5.4035524999926565, 11.341185500001302]","[0.03182119999837596, 0.0002066000015474856, 0.00027289999707136303, 0.03287799999816343, 0.013912599999457598, 0.06574279999767896, 0.048415799989015795, 11.341192699997919]",0,,,,,,,,,,,,,,,,,,,,,,,,,,,,,,,,,,,,,,,,,,,,,,,,,,,,,,,,,,,,,,,,,,,,,,,,,,,,,,,,,,,,,,,,,,,,,,,,,,,,,,,,,,,,,,,,,,,,,,,,,,,,8J1937,train_y,blue_star,top_right,2025-05-15_15h32.50.340,HideSeek_v1,2022.2.5,59.95541714910406,
,,,,,,,,,,,,,,,0,0,0,0,8,0,8,0,,,,,,,,,,,,,,,,,,,,,,,,,,,,,,,conditions/schedules/train_y_first/blue_star_00/top_right/instructions/Slide9.png,conditions/schedules/train_y_first/blue_star_00/top_right/instructions/Audio9.wav,768.7836720999912,768.7838700999928,9,"[90.71056559999124, 18.163595100006205, 16.598402400006307, 19.156158500001766, 4.3569533999980194, 4.319175399999949, 5.4035524999926565, 11.341185500001302, 5.769933999996283]","[0.03182119999837596, 0.0002066000015474856, 0.00027289999707136303, 0.03287799999816343, 0.013912599999457598, 0.06574279999767896, 0.048415799989015795, 0.03184690000489354, 5.769943699997384]",0,,,,,,,,,,,,,,,,,,,,,,,,,,,,,,,,,,,,,,,,,,,,,,,,,,,,,,,,,,,,,,,,,,,,,,,,,,,,,,,,,,,,,,,,,,,,,,,,,,,,,,,,,,,,,,,,,,,,,,,,,,,,8J1937,train_y,blue_star,top_right,2025-05-15_15h32.50.340,HideSeek_v1,2022.2.5,59.95541714910406,
,,,,,,,,,,,,,,,0,0,0,0,9,0,9,0,,,,,,,,,,,,,,,,,,,,,,,,,,,,,,,conditions/schedules/train_y_first/blue_star_00/top_right/instructions/Slide10.png,conditions/schedules/train_y_first/blue_star_00/top_right/instructions/Audio10.wav,774.590946700002,774.5888809400013,10,"[90.71056559999124, 18.163595100006205, 16.598402400006307, 19.156158500001766, 4.3569533999980194, 4.319175399999949, 5.4035524999926565, 11.341185500001302, 5.769933999996283, 6.951518099987879]","[0.03182119999837596, 0.0002066000015474856, 0.00027289999707136303, 0.03287799999816343, 0.013912599999457598, 0.06574279999767896, 0.048415799989015795, 0.03184690000489354, 0.07950729998992756, 6.951524799995241]",0,,,,,,,,,,,,,,,,,,,,,,,,,,,,,,,,,,,,,,,,,,,,,,,,,,,,,,,,,,,,,,,,,,,,,,,,,,,,,,,,,,,,,,,,,,,,,,,,,,,,,,,,,,,,,,,,,,,,,,,,,,,,8J1937,train_y,blue_star,top_right,2025-05-15_15h32.50.340,HideSeek_v1,2022.2.5,59.95541714910406,
,,,,,,,,,,,,,,,0,0,0,0,10,0,10,0,,,,,,,,,,,,,,,,,,,,,,,,,,,,,,,conditions/schedules/train_y_first/blue_star_00/top_right/instructions/Slide11.png,conditions/schedules/train_y_first/blue_star_00/top_right/instructions/Audio11.wav,781.5839527999924,781.5782893399984,11,"[90.71056559999124, 18.163595100006205, 16.598402400006307, 19.156158500001766, 4.3569533999980194, 4.319175399999949, 5.4035524999926565, 11.341185500001302, 5.769933999996283, 6.951518099987879, 10.200566999992589]","[0.03182119999837596, 0.0002066000015474856, 0.00027289999707136303, 0.03287799999816343, 0.013912599999457598, 0.06574279999767896, 0.048415799989015795, 0.03184690000489354, 0.07950729998992756, 0.06377320000319742, 10.200573800000711]",0,,,,,,,,,,,,,,,,,,,,,,,,,,,,,,,,,,,,,,,,,,,,,,,,,,,,,,,,,,,,,,,,,,,,,,,,,,,,,,,,,,,,,,,,,,,,,,,,,,,,,,,,,,,,,,,,,,,,,,,,,,,,8J1937,train_y,blue_star,top_right,2025-05-15_15h32.50.340,HideSeek_v1,2022.2.5,59.95541714910406,
,,,,,,,,,,,,,,,0,0,0,0,11,0,11,0,,,,,,,,,,,,,,,,,,,,,,,,,,,,,,,conditions/schedules/train_y_first/blue_star_00/top_right/instructions/Slide12.png,conditions/schedules/train_y_first/blue_star_00/top_right/instructions/Audio12.wav,791.8547079999989,791.8532157999944,12,"[90.71056559999124, 18.163595100006205, 16.598402400006307, 19.156158500001766, 4.3569533999980194, 4.319175399999949, 5.4035524999926565, 11.341185500001302, 5.769933999996283, 6.951518099987879, 10.200566999992589, 13.607556299990392]","[0.03182119999837596, 0.0002066000015474856, 0.00027289999707136303, 0.03287799999816343, 0.013912599999457598, 0.06574279999767896, 0.048415799989015795, 0.03184690000489354, 0.07950729998992756, 0.06377320000319742, 0.07939139999507461, 13.607566199993016]",0,,,,,,,,,,,,,,,,,,,,,,,,,,,,,,,,,,,,,,,,,,,,,,,,,,,,,,,,,,,,,,,,,,,,,,,,,,,,,,,,,,,,,,,,,,,,,,,,,,,,,,,,,,,,,,,,,,,,,,,,,,,,8J1937,train_y,blue_star,top_right,2025-05-15_15h32.50.340,HideSeek_v1,2022.2.5,59.95541714910406,
1,5,8,5,3,0,-5,66,2,instr_dim1_1,,,,,,0,0,0,0,,,,,0,0,0,0,,,,,,,,,,,,,,,,,,,,,,,,,,,,,,,,,,,,,stimuli/alien_stimuli/66.png,conditions/schedules/train_y_first/blue_star_00/top_right/inputInstr_1.xlsx,stimuli/alien_stimuli/66.png,805.5635992000025,805.5635992000025,805.5635992000025,805.5635992000025,805.5642306599955,return,6.809461299984832,"[-0.16, -0.08, 0, 0.08, 0.16, 0.24, 0.32, 0.4, 0.48, 0.56]","[-0.4, -0.32, -0.24, -0.16, -0.08, 0, 0.08, 0.16, 0.24, 0.32]",3,8,5,5,0.4,0.0,812.525221399992,812.525221399992,812.525221399992,812.525221399992,812.525221399992,812.525221399992,812.525221399992,812.5199665400024,7.707430400012527,return,7.5535711999982595,stimuli/alien_stimuli/66.png,66,5,1,,,,,,,,,,,,,,,,,,,,,,,,,,,,,,,,,,,,,,,,,,,,,,,,,,,,,,,,,,,,,,,,,,,,,,,,,,,,,,,,,,,,,,,,,8J1937,train_y,blue_star,top_right,2025-05-15_15h32.50.340,HideSeek_v1,2022.2.5,59.95541714910406,
,,,,,,,,,,,30,,,,0,0,0,0,,,,,,,,,,,,,,,,,,,,,,,,,,,,,,,,,,,,,,,,,,,,,,,,,,,,,,,,,,,,,,,,,,,,,,,,,,,,,,21,0.7,0,0,99,1,30,0,conditions/schedules/train_y_first/blue_star_00/top_right/inputTrain_1.1.xlsx,99,1,1,1,0,,,,,,,,,,,,,,,,,,,,,,,,,,,,,,,,,,,,,,,,,,,,,,,,,,,,,,,,,,,,,,,,,,,,,,,,,,,8J1937,train_y,blue_star,top_right,2025-05-15_15h32.50.340,HideSeek_v1,2022.2.5,59.95541714910406,
,,,,,,,,,,,,,,,1,0,1,0,0,0,0,0,,,,,,,,,,,,,,,,,,,,,,,,,,,,,,,conditions/schedules/train_y_first/blue_star_00/top_right/instructions/Slide13.png,conditions/schedules/train_y_first/blue_star_00/top_right/instructions/Audio13.wav,820.2418917000032,820.2428834199978,13,"[90.71056559999124, 18.163595100006205, 16.598402400006307, 19.156158500001766, 4.3569533999980194, 4.319175399999949, 5.4035524999926565, 11.341185500001302, 5.769933999996283, 6.951518099987879, 10.200566999992589, 13.607556299990392, 17.113348800005042]","[0.03182119999837596, 0.0002066000015474856, 0.00027289999707136303, 0.03287799999816343, 0.013912599999457598, 0.06574279999767896, 0.048415799989015795, 0.03184690000489354, 0.07950729998992756, 0.06377320000319742, 0.07939139999507461, 13.607566199993016, 17.113355000008596]",0,,,,,,,,,,,,,,,,,,,,,,,,,,,,,,,,,,,,,,,,,,,,,,,,,,,,,,,,,,,,,,,,,,,,,,,,,,,,,,,,,,,,,,,,,,,,,,,,,,,,,,,,,,,,,,,,,,,,,,,,,,,,8J1937,train_y,blue_star,top_right,2025-05-15_15h32.50.340,HideSeek_v1,2022.2.5,59.95541714910406,
,,,,,,,,,,,,,,,1,0,1,0,1,0,1,0,,,,,,,,,,,,,,,,,,,,,,,,,,,,,,,conditions/schedules/train_y_first/blue_star_00/top_right/instructions/Slide14.png,conditions/schedules/train_y_first/blue_star_00/top_right/instructions/Audio14.wav,837.4268435999984,837.4242459000016,14,"[90.71056559999124, 18.163595100006205, 16.598402400006307, 19.156158500001766, 4.3569533999980194, 4.319175399999949, 5.4035524999926565, 11.341185500001302, 5.769933999996283, 6.951518099987879, 10.200566999992589, 13.607556299990392, 17.113348800005042, 16.224952399992617]","[0.03182119999837596, 0.0002066000015474856, 0.00027289999707136303, 0.03287799999816343, 0.013912599999457598, 0.06574279999767896, 0.048415799989015795, 0.03184690000489354, 0.07950729998992756, 0.06377320000319742, 0.07939139999507461, 13.607566199993016, 0.06222209999396, 16.224959799990756]",0,,,,,,,,,,,,,,,,,,,,,,,,,,,,,,,,,,,,,,,,,,,,,,,,,,,,,,,,,,,,,,,,,,,,,,,,,,,,,,,,,,,,,,,,,,,,,,,,,,,,,,,,,,,,,,,,,,,,,,,,,,,,8J1937,train_y,blue_star,top_right,2025-05-15_15h32.50.340,HideSeek_v1,2022.2.5,59.95541714910406,
2,7,8,7,8,0,0,61,2,instr_dim1_1,,,,,,1,0,1,0,,,,,0,0,0,0,,,,,,,,,,,,,,,,,,,,,,,,,,,,,,,,,,,,,stimuli/alien_stimuli/61.png,conditions/schedules/train_y_first/blue_star_00/top_right/inputInstr_1.xlsx,stimuli/alien_stimuli/61.png,853.7486976999935,853.7486976999935,853.7486976999935,853.7486976999935,853.7540091599992,return,6.255115099993418,"[-0.16, -0.08, 0, 0.08, 0.16, 0.24, 0.32, 0.4, 0.48, 0.56]","[-0.4, -0.32, -0.24, -0.16, -0.08, 0, 0.08, 0.16, 0.24, 0.32]",8,8,7,7,0.0,0.0,860.1479233999999,860.1479233999999,860.1479233999999,860.1479233999999,860.1479233999999,860.1479233999999,860.1479233999999,860.1426492399943,10.526934099994833,return,10.376091799989808,stimuli/alien_stimuli/61.png,61,7,2,,,,,,,,,,,,,,,,,,,,,,,,,,,,,,,,,,,,,,,,,,,,,,,,,,,,,,,,,,,,,,,,,,,,,,,,,,,,,,,,,,,,,,,,,8J1937,train_y,blue_star,top_right,2025-05-15_15h32.50.340,HideSeek_v1,2022.2.5,59.95541714910406,
,,,,,,,,,,,30,,,,1,0,1,0,,,,,,,,,,,,,,,,,,,,,,,,,,,,,,,,,,,,,,,,,,,,,,,,,,,,,,,,,,,,,,,,,,,,,,,,,,,,,,21,0.7,0,0,99,1,30,0,conditions/schedules/train_y_first/blue_star_00/top_right/inputTrain_1.1.xlsx,99,1,1,1,0,,,,,,,,,,,,,,,,,,,,,,,,,,,,,,,,,,,,,,,,,,,,,,,,,,,,,,,,,,,,,,,,,,,,,,,,,,,8J1937,train_y,blue_star,top_right,2025-05-15_15h32.50.340,HideSeek_v1,2022.2.5,59.95541714910406,
,,,,,,,,,,,,,,,2,0,2,0,0,0,0,0,,,,,,,,,,,,,,,,,,,,,,,,,,,,,,,conditions/schedules/train_y_first/blue_star_00/top_right/instructions/Slide15.png,conditions/schedules/train_y_first/blue_star_00/top_right/instructions/Audio15.wav,870.7055604000052,870.701559299996,15,"[90.71056559999124, 18.163595100006205, 16.598402400006307, 19.156158500001766, 4.3569533999980194, 4.319175399999949, 5.4035524999926565, 11.341185500001302, 5.769933999996283, 6.951518099987879, 10.200566999992589, 13.607556299990392, 17.113348800005042, 16.224952399992617, 42.47990160000336]","[0.03182119999837596, 0.0002066000015474856, 0.00027289999707136303, 0.03287799999816343, 0.013912599999457598, 0.06574279999767896, 0.048415799989015795, 0.03184690000489354, 0.07950729998992756, 0.06377320000319742, 0.07939139999507461, 13.607566199993016, 0.06222209999396, 16.224959799990756, 42.47990760000539]",0,,,,,,,,,,,,,,,,,,,,,,,,,,,,,,,,,,,,,,,,,,,,,,,,,,,,,,,,,,,,,,,,,,,,,,,,,,,,,,,,,,,,,,,,,,,,,,,,,,,,,,,,,,,,,,,,,,,,,,,,,,,,8J1937,train_y,blue_star,top_right,2025-05-15_15h32.50.340,HideSeek_v1,2022.2.5,59.95541714910406,
,,,,,,,,,,,,,,,2,0,2,0,1,0,1,0,,,,,,,,,,,,,,,,,,,,,,,,,,,,,,,conditions/schedules/train_y_first/blue_star_00/top_right/instructions/Slide16.png,conditions/schedules/train_y_first/blue_star_00/top_right/instructions/Audio16.wav,913.2528385000041,913.2550493999952,16,"[90.71056559999124, 18.163595100006205, 16.598402400006307, 19.156158500001766, 4.3569533999980194, 4.319175399999949, 5.4035524999926565, 11.341185500001302, 5.769933999996283, 6.951518099987879, 10.200566999992589, 13.607556299990392, 17.113348800005042, 16.224952399992617, 42.47990160000336, 21.53300829998625]","[0.03182119999837596, 0.0002066000015474856, 0.00027289999707136303, 0.03287799999816343, 0.013912599999457598, 0.06574279999767896, 0.048415799989015795, 0.03184690000489354, 0.07950729998992756, 0.06377320000319742, 0.07939139999507461, 13.607566199993016, 0.06222209999396, 16.224959799990756, 0.013904099992942065, 21.53301429998828]",0,,,,,,,,,,,,,,,,,,,,,,,,,,,,,,,,,,,,,,,,,,,,,,,,,,,,,,,,,,,,,,,,,,,,,,,,,,,,,,,,,,,,,,,,,,,,,,,,,,,,,,,,,,,,,,,,,,,,,,,,,,,,8J1937,train_y,blue_star,top_right,2025-05-15_15h32.50.340,HideSeek_v1,2022.2.5,59.95541714910406,
,5,5,5,1,0,-4,65,,train_dim1_1,1,30,,,,2,0,2,0,,,,,,,,,0,0,0,0,0,0,0,0,0,0,0,0,,,,,,,,,,,,,,,,,,,,,,,,,stimuli/alien_stimuli/65.png,,,,,,,,,,,,,,,,,,,,,,,,,,,,,,,,,,,,,,,30,,,,,,,,934.8871663000027,934.8871663000027,934.8871663000027,934.8871663000027,934.8871663000027,down,4.699497599998722,0,0,0,99,0.24,-0.08,down,4.602429599995958,,,,,,,,,,,,,,,,,,,,,,,,,,,,,,,,,,,,,,,,,,,,,,,,,,,,,,,,,,,,8J1937,train_y,blue_star,top_right,2025-05-15_15h32.50.340,HideSeek_v1,2022.2.5,59.95541714910406,
,5,5,5,1,0,-4,65,,train_dim1_1,1,30,,,,2,0,2,0,,,,,,,,,0,0,0,0,0,0,0,0,1,0,1,0,,,,,,,,,,,,,,,,,,,,,,,,,,,,,,,,,,,,,,,,,,,,,,,,,,,,,,,,,,,,,,,,30,,,,,,,,939.5736948999984,939.5736948999984,939.5736948999984,939.5736948999984,939.5736948999984,down,0.7264436999976169,0,0,0,99,0.24,-0.16,down,0.6460146999888821,,,,,,,,,,,,,,,,,,,,,,,,,,,,,,,,,,,,,,,,,,,,,,,,,,,,,,,,,,,,8J1937,train_y,blue_star,top_right,2025-05-15_15h32.50.340,HideSeek_v1,2022.2.5,59.95541714910406,
,5,5,5,1,0,-4,65,,train_dim1_1,1,30,,,,2,0,2,0,,,,,,,,,0,0,0,0,0,0,0,0,2,0,2,0,,,,,,,,,,,,,,,,,,,,,,,,,,,,,,,,,,,,,,,,,,,,,,,,,,,,,,,,,,,,,,,,30,,,,,,,,940.306076199995,940.306076199995,940.306076199995,940.306076199995,940.306076199995,down,0.726975700003095,0,0,0,99,0.24,-0.24,down,0.6531249999825377,,,,,,,,,,,,,,,,,,,,,,,,,,,,,,,,,,,,,,,,,,,,,,,,,,,,,,,,,,,,8J1937,train_y,blue_star,top_right,2025-05-15_15h32.50.340,HideSeek_v1,2022.2.5,59.95541714910406,
,5,5,5,1,0,-4,65,,train_dim1_1,1,30,,,,2,0,2,0,,,,,,,,,0,0,0,0,0,0,0,0,3,0,3,0,,,,,,,,,,,,,,,,,,,,,,,,,,,,,,,,,,,,,,,,,,,,,,,,,,,,,,,,,,,,,,,,30,,,,,,,,941.0397471000033,941.0397471000033,941.0397471000033,941.0397471000033,941.0397471000033,down,1.6609954000014113,0,0,0,99,0.24,-0.32,down,1.5781059000000823,,,,,,,,,,,,,,,,,,,,,,,,,,,,,,,,,,,,,,,,,,,,,,,,,,,,,,,,,,,,8J1937,train_y,blue_star,top_right,2025-05-15_15h32.50.340,HideSeek_v1,2022.2.5,59.95541714910406,
,5,5,5,1,0,-4,65,,train_dim1_1,1,30,,,,2,0,2,0,,,,,,,,,0,0,0,0,0,0,0,0,4,0,4,0,,,,,,,,,,,,,,,,,,,,,,,,,,,,,,,,,,,,,,,,,,,,,,,,,,,,,,,,,,,,,,,,30,,,,,,,,942.7076898999949,942.7076898999949,942.7076898999949,942.7076898999949,942.7076898999949,return,0.8772135000035632,1,0,0,1,0.24,-0.32,return,0.7945011999981944,-4,0,0.24,-0.32,,,,,,,,,,,,,,,,,,,,,,,,,,,,,,,,,,,,,,,,,,,,,,,,,,,,,,,,8J1937,train_y,blue_star,top_right,2025-05-15_15h32.50.340,HideSeek_v1,2022.2.5,59.95541714910406,
,8,7,8,2,0,-5,66,,train_dim1_1,2,30,,,,2,0,2,0,,,,,,,,,0,0,0,0,0,1,1,1,0,0,0,0,,,,,,,,,,,,,,,,,,,,,,,,,stimuli/alien_stimuli/66.png,,,,,,,,,,,,,,,,,,,,,,,,,,,,,stimuli/alien_stimuli/65.png,65,5,3,,,,,,,30,,,,,,,,954.6068048000016,954.6068048000016,954.6068048000016,954.6068048000016,954.6068048000016,down,1.2064760999928694,1,0,0,99,0.48,0.08,down,1.120332699996652,,,,,953.0537188000017,954.6068048000016,0.24,-0.32,0.32,0.0,-0.16,0.24,0.24,0.24,-0.32,945.1656030000013,945.1656030000013,945.1656030000013,945.1656030000013,945.1656030000013,945.1656030000013,945.1656030000013,945.1656030000013,945.1465503599945,8.008816200002912,return,7.856446200006758,,,,,,,,,,,,,,,,,,,,,,,,,,,,,,,,,8J1937,train_y,blue_star,top_right,2025-05-15_15h32.50.340,HideSeek_v1,2022.2.5,59.95541714910406,
,8,7,8,2,0,-5,66,,train_dim1_1,2,30,,,,2,0,2,0,,,,,,,,,0,0,0,0,0,1,1,1,1,0,1,0,,,,,,,,,,,,,,,,,,,,,,,,,,,,,,,,,,,,,,,,,,,,,,,,,,,,,,,,,,,,,,,,30,,,,,,,,955.8208472999977,955.8208472999977,955.8208472999977,955.8208472999977,955.8208472999977,down,0.9768978000065545,1,0,0,99,0.48,0.0,down,0.8976040999841643,,,,,,,,,,,,,,,,,,,,,,,,,,,,,,,,,,,,,,,,,,,,,,,,,,,,,,,,,,,,8J1937,train_y,blue_star,top_right,2025-05-15_15h32.50.340,HideSeek_v1,2022.2.5,59.95541714910406,
,8,7,8,2,0,-5,66,,train_dim1_1,2,30,,,,2,0,2,0,,,,,,,,,0,0,0,0,0,1,1,1,2,0,2,0,,,,,,,,,,,,,,,,,,,,,,,,,,,,,,,,,,,,,,,,,,,,,,,,,,,,,,,,,,,,,,,,30,,,,,,,,956.8048784999992,956.8048784999992,956.8048784999992,956.8048784999992,956.8048784999992,down,0.8100570000096923,1,0,0,99,0.48,-0.08,down,0.7349827999860281,,,,,,,,,,,,,,,,,,,,,,,,,,,,,,,,,,,,,,,,,,,,,,,,,,,,,,,,,,,,8J1937,train_y,blue_star,top_right,2025-05-15_15h32.50.340,HideSeek_v1,2022.2.5,59.95541714910406,
,8,7,8,2,0,-5,66,,train_dim1_1,2,30,,,,2,0,2,0,,,,,,,,,0,0,0,0,0,1,1,1,3,0,3,0,,,,,,,,,,,,,,,,,,,,,,,,,,,,,,,,,,,,,,,,,,,,,,,,,,,,,,,,,,,,,,,,30,,,,,,,,957.6204867999913,957.6204867999913,957.6204867999913,957.6204867999913,957.6204867999913,down,0.8267580999963684,1,0,0,99,0.48,-0.16,down,0.7475375999929383,,,,,,,,,,,,,,,,,,,,,,,,,,,,,,,,,,,,,,,,,,,,,,,,,,,,,,,,,,,,8J1937,train_y,blue_star,top_right,2025-05-15_15h32.50.340,HideSeek_v1,2022.2.5,59.95541714910406,
,8,7,8,2,0,-5,66,,train_dim1_1,2,30,,,,2,0,2,0,,,,,,,,,0,0,0,0,0,1,1,1,4,0,4,0,,,,,,,,,,,,,,,,,,,,,,,,,,,,,,,,,,,,,,,,,,,,,,,,,,,,,,,,,,,,,,,,30,,,,,,,,958.4546150999959,958.4546150999959,958.4546150999959,958.4546150999959,958.4546150999959,down,0.776872699992964,1,0,0,99,0.48,-0.24,down,0.699105799998506,,,,,,,,,,,,,,,,,,,,,,,,,,,,,,,,,,,,,,,,,,,,,,,,,,,,,,,,,,,,8J1937,train_y,blue_star,top_right,2025-05-15_15h32.50.340,HideSeek_v1,2022.2.5,59.95541714910406,
,8,7,8,2,0,-5,66,,train_dim1_1,2,30,,,,2,0,2,0,,,,,,,,,0,0,0,0,0,1,1,1,5,0,5,0,,,,,,,,,,,,,,,,,,,,,,,,,,,,,,,,,,,,,,,,,,,,,,,,,,,,,,,,,,,,,,,,30,,,,,,,,959.2383842999989,959.2383842999989,959.2383842999989,959.2383842999989,959.2383842999989,return,1.1442739000049187,2,0,0,1,0.48,-0.24,return,1.0666333999834023,-9,0,0.48,-0.24,,,,,,,,,,,,,,,,,,,,,,,,,,,,,,,,,,,,,,,,,,,,,,,,,,,,,,,,8J1937,train_y,blue_star,top_right,2025-05-15_15h32.50.340,HideSeek_v1,2022.2.5,59.95541714910406,
,7,8,7,5,0,-3,64,,train_dim1_1,3,30,,,,2,0,2,0,,,,,,,,,0,0,0,0,0,2,2,2,0,0,0,0,,,,,,,,,,,,,,,,,,,,,,,,,stimuli/alien_stimuli/64.png,,,,,,,,,,,,,,,,,,,,,,,,,,,,,stimuli/alien_stimuli/66.png,66,8,4,,,,,,,30,,,,,,,,965.3343989999994,965.3343989999994,965.3343989999994,965.3343989999994,965.3343989999994,down,1.136968999999226,2,0,0,99,0.4,0.15999999999999998,down,1.05708469999081,,,,,963.7792462999932,965.3343989999994,0.48,-0.24,0.4,0.0,-0.039999999999999994,0.48,0.48,0.48,-0.24,961.9531879999995,961.9531879999995,961.9531879999995,961.9531879999995,961.9531879999995,961.9531879999995,961.9531879999995,961.9531879999995,961.9436526599936,1.9371062999998685,return,1.7964840999920852,,,,,,,,,,,,,,,,,,,,,,,,,,,,,,,,,8J1937,train_y,blue_star,top_right,2025-05-15_15h32.50.340,HideSeek_v1,2022.2.5,59.95541714910406,
,7,8,7,5,0,-3,64,,train_dim1_1,3,30,,,,2,0,2,0,,,,,,,,,0,0,0,0,0,2,2,2,1,0,1,0,,,,,,,,,,,,,,,,,,,,,,,,,,,,,,,,,,,,,,,,,,,,,,,,,,,,,,,,,,,,,,,,30,,,,,,,,966.4779063000024,966.4779063000024,966.4779063000024,966.4779063000024,966.4779063000024,down,1.1101327000069432,2,0,0,99,0.4,0.07999999999999997,down,1.0357622000010451,,,,,,,,,,,,,,,,,,,,,,,,,,,,,,,,,,,,,,,,,,,,,,,,,,,,,,,,,,,,8J1937,train_y,blue_star,top_right,2025-05-15_15h32.50.340,HideSeek_v1,2022.2.5,59.95541714910406,
,7,8,7,5,0,-3,64,,train_dim1_1,3,30,,,,2,0,2,0,,,,,,,,,0,0,0,0,0,2,2,2,2,0,2,0,,,,,,,,,,,,,,,,,,,,,,,,,,,,,,,,,,,,,,,,,,,,,,,,,,,,,,,,,,,,,,,,30,,,,,,,,967.5947577000043,967.5947577000043,967.5947577000043,967.5947577000043,967.5947577000043,down,0.8771057999983896,2,0,0,99,0.4,-2.7755575615628914e-17,down,0.793548199988436,,,,,,,,,,,,,,,,,,,,,,,,,,,,,,,,,,,,,,,,,,,,,,,,,,,,,,,,,,,,8J1937,train_y,blue_star,top_right,2025-05-15_15h32.50.340,HideSeek_v1,2022.2.5,59.95541714910406,
,7,8,7,5,0,-3,64,,train_dim1_1,3,30,,,,2,0,2,0,,,,,,,,,0,0,0,0,0,2,2,2,3,0,3,0,,,,,,,,,,,,,,,,,,,,,,,,,,,,,,,,,,,,,,,,,,,,,,,,,,,,,,,,,,,,,,,,30,,,,,,,,968.4781813000009,968.4781813000009,968.4781813000009,968.4781813000009,968.4781813000009,return,0.6435709999932442,3,0,0,1,0.4,-2.7755575615628914e-17,return,0.566918299999088,-12,0,0.4,-2.7755575615628914e-17,,,,,,,,,,,,,,,,,,,,,,,,,,,,,,,,,,,,,,,,,,,,,,,,,,,,,,,,8J1937,train_y,blue_star,top_right,2025-05-15_15h32.50.340,HideSeek_v1,2022.2.5,59.95541714910406,
,5,6,5,5,0,-1,62,,train_dim1_1,4,30,,,,2,0,2,0,,,,,,,,,0,0,0,0,0,3,3,3,0,0,0,0,,,,,,,,,,,,,,,,,,,,,,,,,stimuli/alien_stimuli/62.png,,,,,,,,,,,,,,,,,,,,,,,,,,,,,stimuli/alien_stimuli/64.png,64,7,5,,,,,,,30,,,,,,,,974.1747981999943,974.1747981999943,974.1747981999943,974.1747981999943,974.1747981999943,return,2.404165300002205,3,1,0,0,0.24,0.08,return,2.319493599992711,-12,0,0.24,0.08,972.6199994999915,974.1747981999943,0.4,0,0.24,0.0,0.12,0.4,0.4,0.4,0,970.6718530999933,970.6718530999933,970.6718530999933,970.6718530999933,970.6718530999933,970.6718530999933,970.6718530999933,970.6718530999933,970.6674370799941,2.0374513999995543,return,1.916615099995397,,,,,,,,,,,,,,,,,,,,,,,,,,,,,,,,,8J1937,train_y,blue_star,top_right,2025-05-15_15h32.50.340,HideSeek_v1,2022.2.5,59.95541714910406,
,8,8,8,8,0,0,61,,train_dim1_1,5,30,,,,2,0,2,0,,,,,,,,,0,0,0,0,0,4,4,4,0,0,0,0,,,,,,,,,,,,,,,,,,,,,,,,,stimuli/alien_stimuli/61.png,,,,,,,,,,,,,,,,,,,,,,,,,,,,,stimuli/alien_stimuli/62.png,62,5,6,,,,,,,30,,,,,,,,997.8258776000002,997.8258776000002,997.8258776000002,997.8258776000002,997.8258776000002,down,1.2566522999986773,3,1,0,99,0.48,0.15999999999999998,down,1.1575651000021026,,,,,996.2560773000005,997.8258776000002,0.24,0,0.08,0.0,0.04,0.24,0.24,0.24,0,978.1309391999966,978.1309391999966,978.1309391999966,978.1309391999966,978.1309391999966,978.1309391999966,978.1309391999966,978.1309391999966,978.1239537800051,18.217616200010525,return,18.10492259998864,,,,,,,,,,,,,,,,,,,,,,,,,,,,,,,,,8J1937,train_y,blue_star,top_right,2025-05-15_15h32.50.340,HideSeek_v1,2022.2.5,59.95541714910406,
,8,8,8,8,0,0,61,,train_dim1_1,5,30,,,,2,0,2,0,,,,,,,,,0,0,0,0,0,4,4,4,1,0,1,0,,,,,,,,,,,,,,,,,,,,,,,,,,,,,,,,,,,,,,,,,,,,,,,,,,,,,,,,,,,,,,,,30,,,,,,,,999.0716525000025,999.0716525000025,999.0716525000025,999.0716525000025,999.0716525000025,down,0.6430115999974078,3,1,0,99,0.48,0.07999999999999997,down,0.5664267999964068,,,,,,,,,,,,,,,,,,,,,,,,,,,,,,,,,,,,,,,,,,,,,,,,,,,,,,,,,,,,8J1937,train_y,blue_star,top_right,2025-05-15_15h32.50.340,HideSeek_v1,2022.2.5,59.95541714910406,
,8,8,8,8,0,0,61,,train_dim1_1,5,30,,,,2,0,2,0,,,,,,,,,0,0,0,0,0,4,4,4,2,0,2,0,,,,,,,,,,,,,,,,,,,,,,,,,,,,,,,,,,,,,,,,,,,,,,,,,,,,,,,,,,,,,,,,30,,,,,,,,999.7222528999991,999.7222528999991,999.7222528999991,999.7222528999991,999.7222528999991,up,1.6612956000026315,3,1,0,99,0.48,0.15999999999999998,up,1.587810700002592,,,,,,,,,,,,,,,,,,,,,,,,,,,,,,,,,,,,,,,,,,,,,,,,,,,,,,,,,,,,8J1937,train_y,blue_star,top_right,2025-05-15_15h32.50.340,HideSeek_v1,2022.2.5,59.95541714910406,
,8,8,8,8,0,0,61,,train_dim1_1,5,30,,,,2,0,2,0,,,,,,,,,0,0,0,0,0,4,4,4,3,0,3,0,,,,,,,,,,,,,,,,,,,,,,,,,,,,,,,,,,,,,,,,,,,,,,,,,,,,,,,,,,,,,,,,30,,,,,,,,1001.3897568999964,1001.3897568999964,1001.3897568999964,1001.3897568999964,1001.3897568999964,return,0.7436166000115918,3,1,0,0,0.48,0.15999999999999998,return,0.6688214000023436,-13,0,0.48,0.15999999999999998,,,,,,,,,,,,,,,,,,,,,,,,,,,,,,,,,,,,,,,,,,,,,,,,,,,,,,,,8J1937,train_y,blue_star,top_right,2025-05-15_15h32.50.340,HideSeek_v1,2022.2.5,59.95541714910406,
,6,9,6,8,0,-1,62,,train_dim1_1,6,30,,,,2,0,2,0,,,,,,,,,0,0,0,0,0,5,5,5,0,0,0,0,,,,,,,,,,,,,,,,,,,,,,,,,stimuli/alien_stimuli/62.png,,,,,,,,,,,,,,,,,,,,,,,,,,,,,stimuli/alien_stimuli/61.png,61,8,7,,,,,,,30,,,,,,,,1014.2010336999956,1014.2010336999956,1014.2010336999956,1014.2010336999956,1014.2010336999956,down,2.007576199990581,3,1,0,99,0.32,0.24,down,1.9131275999970967,,,,,1012.6364210000029,1014.2010336999956,0.48,0.24,0.0,0.0,0.24,0.48,0.48,0.48,0.24,1003.7038242999988,1003.7038242999988,1003.7038242999988,1003.7038242999988,1003.7038242999988,1003.7038242999988,1003.7038242999988,1003.7038242999988,1003.6949367599925,9.043228099995758,return,8.90070939999714,,,,,,,,,,,,,,,,,,,,,,,,,,,,,,,,,8J1937,train_y,blue_star,top_right,2025-05-15_15h32.50.340,HideSeek_v1,2022.2.5,59.95541714910406,
,6,9,6,8,0,-1,62,,train_dim1_1,6,30,,,,2,0,2,0,,,,,,,,,0,0,0,0,0,5,5,5,1,0,1,0,,,,,,,,,,,,,,,,,,,,,,,,,,,,,,,,,,,,,,,,,,,,,,,,,,,,,,,,,,,,,,,,30,,,,,,,,1016.2031856999965,1016.2031856999965,1016.2031856999965,1016.2031856999965,1016.2031856999965,return,1.0601416999998037,4,0,0,1,0.32,0.24,return,0.9859405999886803,-14,0,0.32,0.24,,,,,,,,,,,,,,,,,,,,,,,,,,,,,,,,,,,,,,,,,,,,,,,,,,,,,,,,8J1937,train_y,blue_star,top_right,2025-05-15_15h32.50.340,HideSeek_v1,2022.2.5,59.95541714910406,
,6,8,6,5,0,-3,64,,train_dim1_1,7,30,,,,2,0,2,0,,,,,,,,,0,0,0,0,0,6,6,6,0,0,0,0,,,,,,,,,,,,,,,,,,,,,,,,,stimuli/alien_stimuli/64.png,,,,,,,,,,,,,,,,,,,,,,,,,,,,,stimuli/alien_stimuli/62.png,62,6,8,,,,,,,30,,,,,,,,1022.244388799998,1022.244388799998,1022.244388799998,1022.244388799998,1022.244388799998,down,1.65677320001123,4,0,0,99,0.32,0.15999999999999998,down,1.569605299999239,,,,,1020.6927957000007,1022.244388799998,0.32,0.24,0.08,0.0,0.28,0.32,0.32,0.32,0.24,1018.8338332999992,1018.8338332999992,1018.8338332999992,1018.8338332999992,1018.8338332999992,1018.8338332999992,1018.8338332999992,1018.8338332999992,1018.8239916600039,1.9705991000082577,return,1.8342393999919295,,,,,,,,,,,,,,,,,,,,,,,,,,,,,,,,,8J1937,train_y,blue_star,top_right,2025-05-15_15h32.50.340,HideSeek_v1,2022.2.5,59.95541714910406,
,6,8,6,5,0,-3,64,,train_dim1_1,7,30,,,,2,0,2,0,,,,,,,,,0,0,0,0,0,6,6,6,1,0,1,0,,,,,,,,,,,,,,,,,,,,,,,,,,,,,,,,,,,,,,,,,,,,,,,,,,,,,,,,,,,,,,,,30,,,,,,,,1023.9083990999934,1023.9083990999934,1023.9083990999934,1023.9083990999934,1023.9083990999934,down,0.493094999997993,4,0,0,99,0.32,0.07999999999999997,down,0.41396720000193454,,,,,,,,,,,,,,,,,,,,,,,,,,,,,,,,,,,,,,,,,,,,,,,,,,,,,,,,,,,,8J1937,train_y,blue_star,top_right,2025-05-15_15h32.50.340,HideSeek_v1,2022.2.5,59.95541714910406,
,6,8,6,5,0,-3,64,,train_dim1_1,7,30,,,,2,0,2,0,,,,,,,,,0,0,0,0,0,6,6,6,2,0,2,0,,,,,,,,,,,,,,,,,,,,,,,,,,,,,,,,,,,,,,,,,,,,,,,,,,,,,,,,,,,,,,,,30,,,,,,,,1024.4090160999913,1024.4090160999913,1024.4090160999913,1024.4090160999913,1024.4090160999913,return,0.6101506999984849,4,1,0,0,0.32,0.07999999999999997,return,0.5305991999921389,-16,0,0.32,0.07999999999999997,,,,,,,,,,,,,,,,,,,,,,,,,,,,,,,,,,,,,,,,,,,,,,,,,,,,,,,,8J1937,train_y,blue_star,top_right,2025-05-15_15h32.50.340,HideSeek_v1,2022.2.5,59.95541714910406,
,9,7,9,7,0,0,61,,train_dim1_1,8,30,,,,2,0,2,0,,,,,,,,,0,0,0,0,0,7,7,7,0,0,0,0,,,,,,,,,,,,,,,,,,,,,,,,,stimuli/alien_stimuli/61.png,,,,,,,,,,,,,,,,,,,,,,,,,,,,,stimuli/alien_stimuli/64.png,64,6,9,,,,,,,30,,,,,,,,1031.952374200002,1031.952374200002,1031.952374200002,1031.952374200002,1031.952374200002,down,2.307778899994446,4,1,0,99,0.56,0.08,down,2.226029199999175,,,,,1030.401252399999,1031.952374200002,0.32,0,0.24,0.0,0.12,0.32,0.32,0.32,0,1026.5690692999924,1026.5690692999924,1026.5690692999924,1026.5690692999924,1026.5690692999924,1026.5690692999924,1026.5690692999924,1026.5690692999924,1026.5639938799927,3.922016500000609,return,3.8052782000013394,,,,,,,,,,,,,,,,,,,,,,,,,,,,,,,,,8J1937,train_y,blue_star,top_right,2025-05-15_15h32.50.340,HideSeek_v1,2022.2.5,59.95541714910406,
,9,7,9,7,0,0,61,,train_dim1_1,8,30,,,,2,0,2,0,,,,,,,,,0,0,0,0,0,7,7,7,1,0,1,0,,,,,,,,,,,,,,,,,,,,,,,,,,,,,,,,,,,,,,,,,,,,,,,,,,,,,,,,,,,,,,,,30,,,,,,,,1034.2677094999963,1034.2677094999963,1034.2677094999963,1034.2677094999963,1034.2677094999963,down,0.543114300002344,4,1,0,99,0.56,0.0,down,0.45668360000126995,,,,,,,,,,,,,,,,,,,,,,,,,,,,,,,,,,,,,,,,,,,,,,,,,,,,,,,,,,,,8J1937,train_y,blue_star,top_right,2025-05-15_15h32.50.340,HideSeek_v1,2022.2.5,59.95541714910406,
,9,7,9,7,0,0,61,,train_dim1_1,8,30,,,,2,0,2,0,,,,,,,,,0,0,0,0,0,7,7,7,2,0,2,0,,,,,,,,,,,,,,,,,,,,,,,,,,,,,,,,,,,,,,,,,,,,,,,,,,,,,,,,,,,,,,,,30,,,,,,,,1034.8175396000006,1034.8175396000006,1034.8175396000006,1034.8175396000006,1034.8175396000006,left,0.9437930999993114,4,1,0,99,0.48000000000000004,0.0,left,0.8594341999996686,,,,,,,,,,,,,,,,,,,,,,,,,,,,,,,,,,,,,,,,,,,,,,,,,,,,,,,,,,,,8J1937,train_y,blue_star,top_right,2025-05-15_15h32.50.340,HideSeek_v1,2022.2.5,59.95541714910406,
,9,7,9,7,0,0,61,,train_dim1_1,8,30,,,,2,0,2,0,,,,,,,,,0,0,0,0,0,7,7,7,3,0,3,0,,,,,,,,,,,,,,,,,,,,,,,,,,,,,,,,,,,,,,,,,,,,,,,,,,,,,,,,,,,,,,,,30,,,,,,,,1035.7687048999942,1035.7687048999942,1035.7687048999942,1035.7687048999942,1035.7687048999942,left,0.4268279999960214,4,1,0,99,0.4,0.0,left,0.3399121999973431,,,,,,,,,,,,,,,,,,,,,,,,,,,,,,,,,,,,,,,,,,,,,,,,,,,,,,,,,,,,8J1937,train_y,blue_star,top_right,2025-05-15_15h32.50.340,HideSeek_v1,2022.2.5,59.95541714910406,
,9,7,9,7,0,0,61,,train_dim1_1,8,30,,,,2,0,2,0,,,,,,,,,0,0,0,0,0,7,7,7,4,0,4,0,,,,,,,,,,,,,,,,,,,,,,,,,,,,,,,,,,,,,,,,,,,,,,,,,,,,,,,,,,,,,,,,30,,,,,,,,1036.2027153999952,1036.2027153999952,1036.2027153999952,1036.2027153999952,1036.2027153999952,left,0.6266714000084903,4,1,0,99,0.32,0.0,left,0.543061200005468,,,,,,,,,,,,,,,,,,,,,,,,,,,,,,,,,,,,,,,,,,,,,,,,,,,,,,,,,,,,8J1937,train_y,blue_star,top_right,2025-05-15_15h32.50.340,HideSeek_v1,2022.2.5,59.95541714910406,
,9,7,9,7,0,0,61,,train_dim1_1,8,30,,,,2,0,2,0,,,,,,,,,0,0,0,0,0,7,7,7,5,0,5,0,,,,,,,,,,,,,,,,,,,,,,,,,,,,,,,,,,,,,,,,,,,,,,,,,,,,,,,,,,,,,,,,30,,,,,,,,1036.836131899996,1036.836131899996,1036.836131899996,1036.836131899996,1036.836131899996,return,0.6933036999980686,4,0,0,0,0.32,0.0,return,0.6215589999919757,-18,-3,0.32,0.0,,,,,,,,,,,,,,,,,,,,,,,,,,,,,,,,,,,,,,,,,,,,,,,,,,,,,,,,8J1937,train_y,blue_star,top_right,2025-05-15_15h32.50.340,HideSeek_v1,2022.2.5,59.95541714910406,
,9,8,9,4,0,-4,65,,train_dim1_1,9,30,,,,2,0,2,0,,,,,,,,,0,0,0,0,0,8,8,8,0,0,0,0,,,,,,,,,,,,,,,,,,,,,,,,,stimuli/alien_stimuli/65.png,,,,,,,,,,,,,,,,,,,,,,,,,,,,,stimuli/alien_stimuli/61.png,61,9,10,,,,,,,30,,,,,,,,1047.0989813999913,1047.0989813999913,1047.0989813999913,1047.0989813999913,1047.0989813999913,return,2.007474199999706,4,0,0,0,0.56,0.24,return,1.9218757000053301,-18,-3,0.56,0.24,1045.546998299993,1047.0989813999913,0.56,0.16,0.0,0.0,0.16,0.56,0.56,0.56,0.16,1039.100968999992,1039.100968999992,1039.100968999992,1039.100968999992,1039.100968999992,1039.100968999992,1039.100968999992,1039.100968999992,1039.0908770599972,6.558199200007948,return,6.42945250000048,,,,,,,,,,,,,,,,,,,,,,,,,,,,,,,,,8J1937,train_y,blue_star,top_right,2025-05-15_15h32.50.340,HideSeek_v1,2022.2.5,59.95541714910406,
,7,7,7,2,0,-5,66,,train_dim1_1,10,30,,,,2,0,2,0,,,,,,,,,0,0,0,0,0,9,9,9,0,0,0,0,,,,,,,,,,,,,,,,,,,,,,,,,stimuli/alien_stimuli/66.png,,,,,,,,,,,,,,,,,,,,,,,,,,,,,stimuli/alien_stimuli/65.png,65,9,11,,,,,,,30,,,,,,,,1054.854496999993,1054.854496999993,1054.854496999993,1054.854496999993,1054.854496999993,down,1.4905362999998033,4,0,0,99,0.4,0.08,down,1.4164821000013035,,,,,1053.3035412000027,1054.854496999993,0.56,-0.08,0.32,0.0,0.07999999999999999,0.56,0.56,0.56,-0.08,1050.6740004000021,1050.6740004000021,1050.6740004000021,1050.6740004000021,1050.6740004000021,1050.6740004000021,1050.6740004000021,1050.6740004000021,1050.6676149599998,2.7379807000106666,return,2.6092525999993086,,,,,,,,,,,,,,,,,,,,,,,,,,,,,,,,,8J1937,train_y,blue_star,top_right,2025-05-15_15h32.50.340,HideSeek_v1,2022.2.5,59.95541714910406,
,7,7,7,2,0,-5,66,,train_dim1_1,10,30,,,,2,0,2,0,,,,,,,,,0,0,0,0,0,9,9,9,1,0,1,0,,,,,,,,,,,,,,,,,,,,,,,,,,,,,,,,,,,,,,,,,,,,,,,,,,,,,,,,,,,,,,,,30,,,,,,,,1056.3522678000008,1056.3522678000008,1056.3522678000008,1056.3522678000008,1056.3522678000008,down,0.5429708000010578,4,0,0,99,0.4,0.0,down,0.4661807999946177,,,,,,,,,,,,,,,,,,,,,,,,,,,,,,,,,,,,,,,,,,,,,,,,,,,,,,,,,,,,8J1937,train_y,blue_star,top_right,2025-05-15_15h32.50.340,HideSeek_v1,2022.2.5,59.95541714910406,
,7,7,7,2,0,-5,66,,train_dim1_1,10,30,,,,2,0,2,0,,,,,,,,,0,0,0,0,0,9,9,9,2,0,2,0,,,,,,,,,,,,,,,,,,,,,,,,,,,,,,,,,,,,,,,,,,,,,,,,,,,,,,,,,,,,,,,,30,,,,,,,,1056.9024157999957,1056.9024157999957,1056.9024157999957,1056.9024157999957,1056.9024157999957,down,0.627227099990705,4,0,0,99,0.4,-0.08,down,0.55407969999942,,,,,,,,,,,,,,,,,,,,,,,,,,,,,,,,,,,,,,,,,,,,,,,,,,,,,,,,,,,,8J1937,train_y,blue_star,top_right,2025-05-15_15h32.50.340,HideSeek_v1,2022.2.5,59.95541714910406,
,7,7,7,2,0,-5,66,,train_dim1_1,10,30,,,,2,0,2,0,,,,,,,,,0,0,0,0,0,9,9,9,3,0,3,0,,,,,,,,,,,,,,,,,,,,,,,,,,,,,,,,,,,,,,,,,,,,,,,,,,,,,,,,,,,,,,,,30,,,,,,,,1057.5366044999973,1057.5366044999973,1057.5366044999973,1057.5366044999973,1057.5366044999973,return,1.0939773999998579,4,0,0,0,0.4,-0.08,return,1.012380199987092,-21,-3,0.4,-0.08,,,,,,,,,,,,,,,,,,,,,,,,,,,,,,,,,,,,,,,,,,,,,,,,,,,,,,,,8J1937,train_y,blue_star,top_right,2025-05-15_15h32.50.340,HideSeek_v1,2022.2.5,59.95541714910406,
,9,6,9,2,0,-4,65,,train_dim1_1,11,30,,,,2,0,2,0,,,,,,,,,0,0,0,0,0,10,10,10,0,0,0,0,,,,,,,,,,,,,,,,,,,,,,,,,stimuli/alien_stimuli/65.png,,,,,,,,,,,,,,,,,,,,,,,,,,,,,stimuli/alien_stimuli/66.png,66,7,12,,,,,,,30,,,,,,,,1064.798363199996,1064.798363199996,1064.798363199996,1064.798363199996,1064.798363199996,left,1.3221771999960765,4,0,0,99,0.48000000000000004,0.08,left,1.2469318999937968,,,,,1063.2450580000004,1064.798363199996,0.4,-0.24,0.4,0.0,-0.039999999999999994,0.4,0.4,0.4,-0.24,1060.1810779999942,1060.1810779999942,1060.1810779999942,1060.1810779999942,1060.1810779999942,1060.1810779999942,1060.1810779999942,1060.1810779999942,1060.175416880002,3.1550399999978254,return,3.039593200010131,,,,,,,,,,,,,,,,,,,,,,,,,,,,,,,,,8J1937,train_y,blue_star,top_right,2025-05-15_15h32.50.340,HideSeek_v1,2022.2.5,59.95541714910406,
,9,6,9,2,0,-4,65,,train_dim1_1,11,30,,,,2,0,2,0,,,,,,,,,0,0,0,0,0,10,10,10,1,0,1,0,,,,,,,,,,,,,,,,,,,,,,,,,,,,,,,,,,,,,,,,,,,,,,,,,,,,,,,,,,,,,,,,30,,,,,,,,1066.1259204999951,1066.1259204999951,1066.1259204999951,1066.1259204999951,1066.1259204999951,down,1.7610106999927666,4,0,0,99,0.48000000000000004,0.0,down,1.6851179999939632,,,,,,,,,,,,,,,,,,,,,,,,,,,,,,,,,,,,,,,,,,,,,,,,,,,,,,,,,,,,8J1937,train_y,blue_star,top_right,2025-05-15_15h32.50.340,HideSeek_v1,2022.2.5,59.95541714910406,
,9,6,9,2,0,-4,65,,train_dim1_1,11,30,,,,2,0,2,0,,,,,,,,,0,0,0,0,0,10,10,10,2,0,2,0,,,,,,,,,,,,,,,,,,,,,,,,,,,,,,,,,,,,,,,,,,,,,,,,,,,,,,,,,,,,,,,,30,,,,,,,,1067.8944354999985,1067.8944354999985,1067.8944354999985,1067.8944354999985,1067.8944354999985,return,1.0605585999874165,4,0,0,0,0.48000000000000004,0.0,return,0.9801783000002615,-22,-4,0.48000000000000004,0.0,,,,,,,,,,,,,,,,,,,,,,,,,,,,,,,,,,,,,,,,,,,,,,,,,,,,,,,,8J1937,train_y,blue_star,top_right,2025-05-15_15h32.50.340,HideSeek_v1,2022.2.5,59.95541714910406,
,5,5,5,5,0,0,61,,train_dim1_1,12,30,,,,2,0,2,0,,,,,,,,,0,0,0,0,0,11,11,11,0,0,0,0,,,,,,,,,,,,,,,,,,,,,,,,,stimuli/alien_stimuli/61.png,,,,,,,,,,,,,,,,,,,,,,,,,,,,,stimuli/alien_stimuli/65.png,65,9,13,,,,,,,30,,,,,,,,1074.3877686999913,1074.3877686999913,1074.3877686999913,1074.3877686999913,1074.3877686999913,down,1.4904075999947963,4,0,0,99,0.24,-0.08,down,1.4085957999923266,,,,,1072.8363897999952,1074.3877686999913,0.56,-0.24,0.32,0.0,-0.07999999999999999,0.56,0.56,0.56,-0.24,1070.5049788000033,1070.5049788000033,1070.5049788000033,1070.5049788000033,1070.5049788000033,1070.5049788000033,1070.5049788000033,1070.5049788000033,1070.5006093799952,2.4215308999991976,return,2.3159645999985514,,,,,,,,,,,,,,,,,,,,,,,,,,,,,,,,,8J1937,train_y,blue_star,top_right,2025-05-15_15h32.50.340,HideSeek_v1,2022.2.5,59.95541714910406,
,5,5,5,5,0,0,61,,train_dim1_1,12,30,,,,2,0,2,0,,,,,,,,,0,0,0,0,0,11,11,11,1,0,1,0,,,,,,,,,,,,,,,,,,,,,,,,,,,,,,,,,,,,,,,,,,,,,,,,,,,,,,,,,,,,,,,,30,,,,,,,,1075.8852791999961,1075.8852791999961,1075.8852791999961,1075.8852791999961,1075.8852791999961,down,0.5593993000074988,4,0,0,99,0.24,-0.16,down,0.48697359999641776,,,,,,,,,,,,,,,,,,,,,,,,,,,,,,,,,,,,,,,,,,,,,,,,,,,,,,,,,,,,8J1937,train_y,blue_star,top_right,2025-05-15_15h32.50.340,HideSeek_v1,2022.2.5,59.95541714910406,
,5,5,5,5,0,0,61,,train_dim1_1,12,30,,,,2,0,2,0,,,,,,,,,0,0,0,0,0,11,11,11,2,0,2,0,,,,,,,,,,,,,,,,,,,,,,,,,,,,,,,,,,,,,,,,,,,,,,,,,,,,,,,,,,,,,,,,30,,,,,,,,1076.4519837999978,1076.4519837999978,1076.4519837999978,1076.4519837999978,1076.4519837999978,down,0.6271239000052446,4,0,0,99,0.24,-0.24,down,0.5436870999983512,,,,,,,,,,,,,,,,,,,,,,,,,,,,,,,,,,,,,,,,,,,,,,,,,,,,,,,,,,,,8J1937,train_y,blue_star,top_right,2025-05-15_15h32.50.340,HideSeek_v1,2022.2.5,59.95541714910406,
,5,5,5,5,0,0,61,,train_dim1_1,12,30,,,,2,0,2,0,,,,,,,,,0,0,0,0,0,11,11,11,3,0,3,0,,,,,,,,,,,,,,,,,,,,,,,,,,,,,,,,,,,,,,,,,,,,,,,,,,,,,,,,,,,,,,,,30,,,,,,,,1077.087979799995,1077.087979799995,1077.087979799995,1077.087979799995,1077.087979799995,return,0.6595912000047974,4,0,0,0,0.24,-0.24,return,0.5710686999955215,-25,-4,0.24,-0.24,,,,,,,,,,,,,,,,,,,,,,,,,,,,,,,,,,,,,,,,,,,,,,,,,,,,,,,,8J1937,train_y,blue_star,top_right,2025-05-15_15h32.50.340,HideSeek_v1,2022.2.5,59.95541714910406,
,9,8,9,7,0,-1,62,,train_dim1_1,13,30,,,,2,0,2,0,,,,,,,,,0,0,0,0,0,12,12,12,0,0,0,0,,,,,,,,,,,,,,,,,,,,,,,,,stimuli/alien_stimuli/62.png,,,,,,,,,,,,,,,,,,,,,,,,,,,,,stimuli/alien_stimuli/61.png,61,5,14,,,,,,,30,,,,,,,,1082.4958441999916,1082.4958441999916,1082.4958441999916,1082.4958441999916,1082.4958441999916,return,0.5719282000063686,4,1,0,0,0.56,0.24,return,0.4866267999896081,-25,-4,0.56,0.24,1080.9428638999962,1082.4958441999916,0.24,0,0.0,0.0,0.0,0.24,0.24,0.24,0,1079.2963061000046,1079.2963061000046,1079.2963061000046,1079.2963061000046,1079.2963061000046,1079.2963061000046,1079.2963061000046,1079.2963061000046,1079.2910446800001,1.7369269999908283,return,1.6225814999925205,,,,,,,,,,,,,,,,,,,,,,,,,,,,,,,,,8J1937,train_y,blue_star,top_right,2025-05-15_15h32.50.340,HideSeek_v1,2022.2.5,59.95541714910406,
,7,7,7,2,0,-5,66,,train_dim1_1,14,30,,,,2,0,2,0,,,,,,,,,0,0,0,0,0,13,13,13,0,0,0,0,,,,,,,,,,,,,,,,,,,,,,,,,stimuli/alien_stimuli/66.png,,,,,,,,,,,,,,,,,,,,,,,,,,,,,stimuli/alien_stimuli/62.png,62,9,15,,,,,,,30,,,,,,,,1091.3206242000015,1091.3206242000015,1091.3206242000015,1091.3206242000015,1091.3206242000015,down,0.7885899999964749,4,1,0,99,0.4,0.08,down,0.7104493999941042,,,,,1089.7670603000006,1091.3206242000015,0.56,0.16,0.08,0.0,0.2,0.56,0.56,0.56,0.16,1084.6180967999971,1084.6180967999971,1084.6180967999971,1084.6180967999971,1084.6180967999971,1084.6180967999971,1084.6180967999971,1084.6180967999971,1084.612010079995,5.24021950000315,return,5.123783499991987,,,,,,,,,,,,,,,,,,,,,,,,,,,,,,,,,8J1937,train_y,blue_star,top_right,2025-05-15_15h32.50.340,HideSeek_v1,2022.2.5,59.95541714910406,
,7,7,7,2,0,-5,66,,train_dim1_1,14,30,,,,2,0,2,0,,,,,,,,,0,0,0,0,0,13,13,13,1,0,1,0,,,,,,,,,,,,,,,,,,,,,,,,,,,,,,,,,,,,,,,,,,,,,,,,,,,,,,,,,,,,,,,,30,,,,,,,,1092.1146769000043,1092.1146769000043,1092.1146769000043,1092.1146769000043,1092.1146769000043,down,0.543274100011331,4,1,0,99,0.4,0.0,down,0.45788609998999164,,,,,,,,,,,,,,,,,,,,,,,,,,,,,,,,,,,,,,,,,,,,,,,,,,,,,,,,,,,,8J1937,train_y,blue_star,top_right,2025-05-15_15h32.50.340,HideSeek_v1,2022.2.5,59.95541714910406,
,7,7,7,2,0,-5,66,,train_dim1_1,14,30,,,,2,0,2,0,,,,,,,,,0,0,0,0,0,13,13,13,2,0,2,0,,,,,,,,,,,,,,,,,,,,,,,,,,,,,,,,,,,,,,,,,,,,,,,,,,,,,,,,,,,,,,,,30,,,,,,,,1092.6659078999946,1092.6659078999946,1092.6659078999946,1092.6659078999946,1092.6659078999946,left,0.9766705999936676,4,1,0,99,0.32,0.0,left,0.8972537999943597,,,,,,,,,,,,,,,,,,,,,,,,,,,,,,,,,,,,,,,,,,,,,,,,,,,,,,,,,,,,8J1937,train_y,blue_star,top_right,2025-05-15_15h32.50.340,HideSeek_v1,2022.2.5,59.95541714910406,
,7,7,7,2,0,-5,66,,train_dim1_1,14,30,,,,2,0,2,0,,,,,,,,,0,0,0,0,0,13,13,13,3,0,3,0,,,,,,,,,,,,,,,,,,,,,,,,,,,,,,,,,,,,,,,,,,,,,,,,,,,,,,,,,,,,,,,,30,,,,,,,,1093.6498797999957,1093.6498797999957,1093.6498797999957,1093.6498797999957,1093.6498797999957,right,0.9274295999930473,4,1,0,99,0.4,0.0,right,0.8421254999993835,,,,,,,,,,,,,,,,,,,,,,,,,,,,,,,,,,,,,,,,,,,,,,,,,,,,,,,,,,,,8J1937,train_y,blue_star,top_right,2025-05-15_15h32.50.340,HideSeek_v1,2022.2.5,59.95541714910406,
,7,7,7,2,0,-5,66,,train_dim1_1,14,30,,,,2,0,2,0,,,,,,,,,0,0,0,0,0,13,13,13,4,0,4,0,,,,,,,,,,,,,,,,,,,,,,,,,,,,,,,,,,,,,,,,,,,,,,,,,,,,,,,,,,,,,,,,30,,,,,,,,1094.583583300002,1094.583583300002,1094.583583300002,1094.583583300002,1094.583583300002,up,1.0438818999973591,4,1,0,99,0.4,0.08,up,0.9569328999932623,,,,,,,,,,,,,,,,,,,,,,,,,,,,,,,,,,,,,,,,,,,,,,,,,,,,,,,,,,,,8J1937,train_y,blue_star,top_right,2025-05-15_15h32.50.340,HideSeek_v1,2022.2.5,59.95541714910406,
,7,7,7,2,0,-5,66,,train_dim1_1,14,30,,,,2,0,2,0,,,,,,,,,0,0,0,0,0,13,13,13,5,0,5,0,,,,,,,,,,,,,,,,,,,,,,,,,,,,,,,,,,,,,,,,,,,,,,,,,,,,,,,,,,,,,,,,30,,,,,,,,1095.634813800003,1095.634813800003,1095.634813800003,1095.634813800003,1095.634813800003,down,1.1267463000112912,4,1,0,99,0.4,0.0,down,1.0408888999954797,,,,,,,,,,,,,,,,,,,,,,,,,,,,,,,,,,,,,,,,,,,,,,,,,,,,,,,,,,,,8J1937,train_y,blue_star,top_right,2025-05-15_15h32.50.340,HideSeek_v1,2022.2.5,59.95541714910406,
,7,7,7,2,0,-5,66,,train_dim1_1,14,30,,,,2,0,2,0,,,,,,,,,0,0,0,0,0,13,13,13,6,0,6,0,,,,,,,,,,,,,,,,,,,,,,,,,,,,,,,,,,,,,,,,,,,,,,,,,,,,,,,,,,,,,,,,30,,,,,,,,1096.7685172999918,1096.7685172999918,1096.7685172999918,1096.7685172999918,1096.7685172999918,down,0.1435951000021305,4,1,0,99,0.4,-0.08,down,0.06265669998538215,,,,,,,,,,,,,,,,,,,,,,,,,,,,,,,,,,,,,,,,,,,,,,,,,,,,,,,,,,,,8J1937,train_y,blue_star,top_right,2025-05-15_15h32.50.340,HideSeek_v1,2022.2.5,59.95541714910406,
,7,7,7,2,0,-5,66,,train_dim1_1,14,30,,,,2,0,2,0,,,,,,,,,0,0,0,0,0,13,13,13,7,0,7,0,,,,,,,,,,,,,,,,,,,,,,,,,,,,,,,,,,,,,,,,,,,,,,,,,,,,,,,,,,,,,,,,30,,,,,,,,1096.9201580999943,1096.9201580999943,1096.9201580999943,1096.9201580999943,1096.9201580999943,down,0.6428786000033142,4,1,0,99,0.4,-0.16,down,0.5657713999971747,,,,,,,,,,,,,,,,,,,,,,,,,,,,,,,,,,,,,,,,,,,,,,,,,,,,,,,,,,,,8J1937,train_y,blue_star,top_right,2025-05-15_15h32.50.340,HideSeek_v1,2022.2.5,59.95541714910406,
,7,7,7,2,0,-5,66,,train_dim1_1,14,30,,,,2,0,2,0,,,,,,,,,0,0,0,0,0,13,13,13,8,0,8,0,,,,,,,,,,,,,,,,,,,,,,,,,,,,,,,,,,,,,,,,,,,,,,,,,,,,,,,,,,,,,,,,30,,,,,,,,1097.5703342999914,1097.5703342999914,1097.5703342999914,1097.5703342999914,1097.5703342999914,left,0.7434315999998944,4,1,0,99,0.32,-0.16,left,0.6630396999826189,,,,,,,,,,,,,,,,,,,,,,,,,,,,,,,,,,,,,,,,,,,,,,,,,,,,,,,,,,,,8J1937,train_y,blue_star,top_right,2025-05-15_15h32.50.340,HideSeek_v1,2022.2.5,59.95541714910406,
,7,7,7,2,0,-5,66,,train_dim1_1,14,30,,,,2,0,2,0,,,,,,,,,0,0,0,0,0,13,13,13,9,0,9,0,,,,,,,,,,,,,,,,,,,,,,,,,,,,,,,,,,,,,,,,,,,,,,,,,,,,,,,,,,,,,,,,30,,,,,,,,1098.321681100002,1098.321681100002,1098.321681100002,1098.321681100002,1098.321681100002,left,0.5097382999956608,4,1,0,99,0.24,-0.16,left,0.43565149999631103,,,,,,,,,,,,,,,,,,,,,,,,,,,,,,,,,,,,,,,,,,,,,,,,,,,,,,,,,,,,8J1937,train_y,blue_star,top_right,2025-05-15_15h32.50.340,HideSeek_v1,2022.2.5,59.95541714910406,
,7,7,7,2,0,-5,66,,train_dim1_1,14,30,,,,2,0,2,0,,,,,,,,,0,0,0,0,0,13,13,13,10,0,10,0,,,,,,,,,,,,,,,,,,,,,,,,,,,,,,,,,,,,,,,,,,,,,,,,,,,,,,,,,,,,,,,,30,,,,,,,,1098.8376116,1098.8376116,1098.8376116,1098.8376116,1098.8376116,return,0.7933945999975549,4,0,0,0,0.24,-0.16,return,0.7079807999980403,-29,-6,0.24,-0.16,,,,,,,,,,,,,,,,,,,,,,,,,,,,,,,,,,,,,,,,,,,,,,,,,,,,,,,,8J1937,train_y,blue_star,top_right,2025-05-15_15h32.50.340,HideSeek_v1,2022.2.5,59.95541714910406,
,6,9,6,6,0,-3,64,,train_dim1_1,15,30,,,,2,0,2,0,,,,,,,,,0,0,0,0,0,14,14,14,0,0,0,0,,,,,,,,,,,,,,,,,,,,,,,,,stimuli/alien_stimuli/64.png,,,,,,,,,,,,,,,,,,,,,,,,,,,,,stimuli/alien_stimuli/66.png,66,7,16,,,,,,,30,,,,,,,,1106.3811935999984,1106.3811935999984,1106.3811935999984,1106.3811935999984,1106.3811935999984,down,0.8231352000002516,4,0,0,99,0.32,0.24,down,0.75148619999527,,,,,1104.8296749,1106.3811935999984,0.4,-0.24,0.4,0.0,-0.039999999999999994,0.4,0.4,0.4,-0.24,1101.2016235999909,1101.2016235999909,1101.2016235999909,1101.2016235999909,1101.2016235999909,1101.2016235999909,1101.2016235999909,1101.2016235999909,1101.1922507600002,3.738921299998765,return,3.60614999999234,,,,,,,,,,,,,,,,,,,,,,,,,,,,,,,,,8J1937,train_y,blue_star,top_right,2025-05-15_15h32.50.340,HideSeek_v1,2022.2.5,59.95541714910406,
,6,9,6,6,0,-3,64,,train_dim1_1,15,30,,,,2,0,2,0,,,,,,,,,0,0,0,0,0,14,14,14,1,0,1,0,,,,,,,,,,,,,,,,,,,,,,,,,,,,,,,,,,,,,,,,,,,,,,,,,,,,,,,,,,,,,,,,30,,,,,,,,1107.2123170999985,1107.2123170999985,1107.2123170999985,1107.2123170999985,1107.2123170999985,down,0.4262148999987403,4,0,0,99,0.32,0.15999999999999998,down,0.34042069999850355,,,,,,,,,,,,,,,,,,,,,,,,,,,,,,,,,,,,,,,,,,,,,,,,,,,,,,,,,,,,8J1937,train_y,blue_star,top_right,2025-05-15_15h32.50.340,HideSeek_v1,2022.2.5,59.95541714910406,
,6,9,6,6,0,-3,64,,train_dim1_1,15,30,,,,2,0,2,0,,,,,,,,,0,0,0,0,0,14,14,14,2,0,2,0,,,,,,,,,,,,,,,,,,,,,,,,,,,,,,,,,,,,,,,,,,,,,,,,,,,,,,,,,,,,,,,,30,,,,,,,,1107.6443113999994,1107.6443113999994,1107.6443113999994,1107.6443113999994,1107.6443113999994,down,0.6100694999913685,4,0,0,99,0.32,0.07999999999999997,down,0.5336542999866651,,,,,,,,,,,,,,,,,,,,,,,,,,,,,,,,,,,,,,,,,,,,,,,,,,,,,,,,,,,,8J1937,train_y,blue_star,top_right,2025-05-15_15h32.50.340,HideSeek_v1,2022.2.5,59.95541714910406,
,6,9,6,6,0,-3,64,,train_dim1_1,15,30,,,,2,0,2,0,,,,,,,,,0,0,0,0,0,14,14,14,3,0,3,0,,,,,,,,,,,,,,,,,,,,,,,,,,,,,,,,,,,,,,,,,,,,,,,,,,,,,,,,,,,,,,,,30,,,,,,,,1108.2621019999933,1108.2621019999933,1108.2621019999933,1108.2621019999933,1108.2621019999933,return,0.8770851000008406,5,0,0,1,0.32,0.07999999999999997,return,0.7993748999870149,-32,-6,0.32,0.07999999999999997,,,,,,,,,,,,,,,,,,,,,,,,,,,,,,,,,,,,,,,,,,,,,,,,,,,,,,,,8J1937,train_y,blue_star,top_right,2025-05-15_15h32.50.340,HideSeek_v1,2022.2.5,59.95541714910406,
,9,5,9,1,0,-4,65,,train_dim1_1,16,30,,,,2,0,2,0,,,,,,,,,0,0,0,0,0,15,15,15,0,0,0,0,,,,,,,,,,,,,,,,,,,,,,,,,stimuli/alien_stimuli/65.png,,,,,,,,,,,,,,,,,,,,,,,,,,,,,stimuli/alien_stimuli/64.png,64,6,17,,,,,,,30,,,,,,,,1113.8533362000016,1113.8533362000016,1113.8533362000016,1113.8533362000016,1113.8533362000016,left,1.340527699998347,5,0,0,99,0.48000000000000004,0,left,1.255833299990627,,,,,1112.302282699995,1113.8533362000016,0.32,0.08,0.24,0.0,0.2,0.32,0.32,0.32,0.08,1110.6883493999921,1110.6883493999921,1110.6883493999921,1110.6883493999921,1110.6883493999921,1110.6883493999921,1110.6883493999921,1110.6883493999921,1110.6838773800032,1.7040718000062043,return,1.5937490000069374,,,,,,,,,,,,,,,,,,,,,,,,,,,,,,,,,8J1937,train_y,blue_star,top_right,2025-05-15_15h32.50.340,HideSeek_v1,2022.2.5,59.95541714910406,
,9,5,9,1,0,-4,65,,train_dim1_1,16,30,,,,2,0,2,0,,,,,,,,,0,0,0,0,0,15,15,15,1,0,1,0,,,,,,,,,,,,,,,,,,,,,,,,,,,,,,,,,,,,,,,,,,,,,,,,,,,,,,,,,,,,,,,,30,,,,,,,,1115.201476000002,1115.201476000002,1115.201476000002,1115.201476000002,1115.201476000002,left,0.4927233000053093,5,0,0,99,0.4,0,left,0.41211330000078306,,,,,,,,,,,,,,,,,,,,,,,,,,,,,,,,,,,,,,,,,,,,,,,,,,,,,,,,,,,,8J1937,train_y,blue_star,top_right,2025-05-15_15h32.50.340,HideSeek_v1,2022.2.5,59.95541714910406,
,9,5,9,1,0,-4,65,,train_dim1_1,16,30,,,,2,0,2,0,,,,,,,,,0,0,0,0,0,15,15,15,2,0,2,0,,,,,,,,,,,,,,,,,,,,,,,,,,,,,,,,,,,,,,,,,,,,,,,,,,,,,,,,,,,,,,,,30,,,,,,,,1115.7008541999967,1115.7008541999967,1115.7008541999967,1115.7008541999967,1115.7008541999967,left,1.077445599992643,5,0,0,99,0.32,0,left,0.996583299987833,,,,,,,,,,,,,,,,,,,,,,,,,,,,,,,,,,,,,,,,,,,,,,,,,,,,,,,,,,,,8J1937,train_y,blue_star,top_right,2025-05-15_15h32.50.340,HideSeek_v1,2022.2.5,59.95541714910406,
,9,5,9,1,0,-4,65,,train_dim1_1,16,30,,,,2,0,2,0,,,,,,,,,0,0,0,0,0,15,15,15,3,0,3,0,,,,,,,,,,,,,,,,,,,,,,,,,,,,,,,,,,,,,,,,,,,,,,,,,,,,,,,,,,,,,,,,30,,,,,,,,1116.7851989000046,1116.7851989000046,1116.7851989000046,1116.7851989000046,1116.7851989000046,return,0.30985710000095423,5,0,0,0,0.32,0,return,0.22719649999635294,-32,-9,0.32,0,,,,,,,,,,,,,,,,,,,,,,,,,,,,,,,,,,,,,,,,,,,,,,,,,,,,,,,,8J1937,train_y,blue_star,top_right,2025-05-15_15h32.50.340,HideSeek_v1,2022.2.5,59.95541714910406,
,8,8,8,5,0,-3,64,,train_dim1_1,17,30,,,,2,0,2,0,,,,,,,,,0,0,0,0,0,16,16,16,0,0,0,0,,,,,,,,,,,,,,,,,,,,,,,,,stimuli/alien_stimuli/64.png,,,,,,,,,,,,,,,,,,,,,,,,,,,,,stimuli/alien_stimuli/65.png,65,9,18,,,,,,,30,,,,,,,,1122.4949135999923,1122.4949135999923,1122.4949135999923,1122.4949135999923,1122.4949135999923,down,1.0551284999964992,5,0,0,99,0.48,0.15999999999999998,down,0.9825375999935204,,,,,1120.942551,1122.4949135999923,0.56,-0.32,0.32,0.0,-0.16,0.56,0.56,0.56,-0.32,1118.644705300001,1118.644705300001,1118.644705300001,1118.644705300001,1118.644705300001,1118.644705300001,1118.644705300001,1118.644705300001,1118.640200179993,2.3876027000078466,return,2.275062800006708,,,,,,,,,,,,,,,,,,,,,,,,,,,,,,,,,8J1937,train_y,blue_star,top_right,2025-05-15_15h32.50.340,HideSeek_v1,2022.2.5,59.95541714910406,
,8,8,8,5,0,-3,64,,train_dim1_1,17,30,,,,2,0,2,0,,,,,,,,,0,0,0,0,0,16,16,16,1,0,1,0,,,,,,,,,,,,,,,,,,,,,,,,,,,,,,,,,,,,,,,,,,,,,,,,,,,,,,,,,,,,,,,,30,,,,,,,,1123.5582559000031,1123.5582559000031,1123.5582559000031,1123.5582559000031,1123.5582559000031,down,0.6265056999982335,5,0,0,99,0.48,0.07999999999999997,down,0.5528017999895383,,,,,,,,,,,,,,,,,,,,,,,,,,,,,,,,,,,,,,,,,,,,,,,,,,,,,,,,,,,,8J1937,train_y,blue_star,top_right,2025-05-15_15h32.50.340,HideSeek_v1,2022.2.5,59.95541714910406,
,8,8,8,5,0,-3,64,,train_dim1_1,17,30,,,,2,0,2,0,,,,,,,,,0,0,0,0,0,16,16,16,2,0,2,0,,,,,,,,,,,,,,,,,,,,,,,,,,,,,,,,,,,,,,,,,,,,,,,,,,,,,,,,,,,,,,,,30,,,,,,,,1124.1909428999934,1124.1909428999934,1124.1909428999934,1124.1909428999934,1124.1909428999934,left,0.9107458000071347,5,0,0,99,0.39999999999999997,0.07999999999999997,left,0.8267507999989903,,,,,,,,,,,,,,,,,,,,,,,,,,,,,,,,,,,,,,,,,,,,,,,,,,,,,,,,,,,,8J1937,train_y,blue_star,top_right,2025-05-15_15h32.50.340,HideSeek_v1,2022.2.5,59.95541714910406,
,8,8,8,5,0,-3,64,,train_dim1_1,17,30,,,,2,0,2,0,,,,,,,,,0,0,0,0,0,16,16,16,3,0,3,0,,,,,,,,,,,,,,,,,,,,,,,,,,,,,,,,,,,,,,,,,,,,,,,,,,,,,,,,,,,,,,,,30,,,,,,,,1125.1090463,1125.1090463,1125.1090463,1125.1090463,1125.1090463,return,0.5264619999943534,5,0,0,0,0.39999999999999997,0.07999999999999997,return,0.44998279999708757,-34,-10,0.39999999999999997,0.07999999999999997,,,,,,,,,,,,,,,,,,,,,,,,,,,,,,,,,,,,,,,,,,,,,,,,,,,,,,,,8J1937,train_y,blue_star,top_right,2025-05-15_15h32.50.340,HideSeek_v1,2022.2.5,59.95541714910406,
,7,6,7,6,0,0,61,,train_dim1_1,18,30,,,,2,0,2,0,,,,,,,,,0,0,0,0,0,17,17,17,0,0,0,0,,,,,,,,,,,,,,,,,,,,,,,,,stimuli/alien_stimuli/61.png,,,,,,,,,,,,,,,,,,,,,,,,,,,,,stimuli/alien_stimuli/64.png,64,8,19,,,,,,,30,,,,,,,,1132.1699789999984,1132.1699789999984,1132.1699789999984,1132.1699789999984,1132.1699789999984,down,1.0401534999982687,5,0,0,99,0.4,0.0,down,0.9575162999972235,,,,,1130.6175146000023,1132.1699789999984,0.48,0,0.24,0.0,0.12,0.48,0.48,0.48,0,1127.1857261999976,1127.1857261999976,1127.1857261999976,1127.1857261999976,1127.1857261999976,1127.1857261999976,1127.1857261999976,1127.1857261999976,1127.1807903799986,3.522204900000361,return,3.4105160999897635,,,,,,,,,,,,,,,,,,,,,,,,,,,,,,,,,8J1937,train_y,blue_star,top_right,2025-05-15_15h32.50.340,HideSeek_v1,2022.2.5,59.95541714910406,
,7,6,7,6,0,0,61,,train_dim1_1,18,30,,,,2,0,2,0,,,,,,,,,0,0,0,0,0,17,17,17,1,0,1,0,,,,,,,,,,,,,,,,,,,,,,,,,,,,,,,,,,,,,,,,,,,,,,,,,,,,,,,,,,,,,,,,30,,,,,,,,1133.216970900001,1133.216970900001,1133.216970900001,1133.216970900001,1133.216970900001,left,0.6929644999909215,5,0,0,99,0.32,0.0,left,0.6066315999923972,,,,,,,,,,,,,,,,,,,,,,,,,,,,,,,,,,,,,,,,,,,,,,,,,,,,,,,,,,,,8J1937,train_y,blue_star,top_right,2025-05-15_15h32.50.340,HideSeek_v1,2022.2.5,59.95541714910406,
,7,6,7,6,0,0,61,,train_dim1_1,18,30,,,,2,0,2,0,,,,,,,,,0,0,0,0,0,17,17,17,2,0,2,0,,,,,,,,,,,,,,,,,,,,,,,,,,,,,,,,,,,,,,,,,,,,,,,,,,,,,,,,,,,,,,,,30,,,,,,,,1133.9176774999942,1133.9176774999942,1133.9176774999942,1133.9176774999942,1133.9176774999942,down,1.3941199999972014,5,0,0,99,0.32,-0.08,down,1.3069613999978174,,,,,,,,,,,,,,,,,,,,,,,,,,,,,,,,,,,,,,,,,,,,,,,,,,,,,,,,,,,,8J1937,train_y,blue_star,top_right,2025-05-15_15h32.50.340,HideSeek_v1,2022.2.5,59.95541714910406,
,7,6,7,6,0,0,61,,train_dim1_1,18,30,,,,2,0,2,0,,,,,,,,,0,0,0,0,0,17,17,17,3,0,3,0,,,,,,,,,,,,,,,,,,,,,,,,,,,,,,,,,,,,,,,,,,,,,,,,,,,,,,,,,,,,,,,,30,,,,,,,,1135.3175806999934,1135.3175806999934,1135.3175806999934,1135.3175806999934,1135.3175806999934,down,0.8266168999980437,5,0,0,99,0.32,-0.16,down,0.7518195999873569,,,,,,,,,,,,,,,,,,,,,,,,,,,,,,,,,,,,,,,,,,,,,,,,,,,,,,,,,,,,8J1937,train_y,blue_star,top_right,2025-05-15_15h32.50.340,HideSeek_v1,2022.2.5,59.95541714910406,
,7,6,7,6,0,0,61,,train_dim1_1,18,30,,,,2,0,2,0,,,,,,,,,0,0,0,0,0,17,17,17,4,0,4,0,,,,,,,,,,,,,,,,,,,,,,,,,,,,,,,,,,,,,,,,,,,,,,,,,,,,,,,,,,,,,,,,30,,,,,,,,1136.1511651000037,1136.1511651000037,1136.1511651000037,1136.1511651000037,1136.1511651000037,left,1.2442518000025302,5,0,0,99,0.24,-0.16,left,1.1728338999964762,,,,,,,,,,,,,,,,,,,,,,,,,,,,,,,,,,,,,,,,,,,,,,,,,,,,,,,,,,,,8J1937,train_y,blue_star,top_right,2025-05-15_15h32.50.340,HideSeek_v1,2022.2.5,59.95541714910406,
,7,6,7,6,0,0,61,,train_dim1_1,18,30,,,,2,0,2,0,,,,,,,,,0,0,0,0,0,17,17,17,5,0,5,0,,,,,,,,,,,,,,,,,,,,,,,,,,,,,,,,,,,,,,,,,,,,,,,,,,,,,,,,,,,,,,,,30,,,,,,,,1137.4064761999907,1137.4064761999907,1137.4064761999907,1137.4064761999907,1137.4064761999907,left,0.40981769999780226,5,0,0,99,0.15999999999999998,-0.16,left,0.32045909999578726,,,,,,,,,,,,,,,,,,,,,,,,,,,,,,,,,,,,,,,,,,,,,,,,,,,,,,,,,,,,8J1937,train_y,blue_star,top_right,2025-05-15_15h32.50.340,HideSeek_v1,2022.2.5,59.95541714910406,
,7,6,7,6,0,0,61,,train_dim1_1,18,30,,,,2,0,2,0,,,,,,,,,0,0,0,0,0,17,17,17,6,0,6,0,,,,,,,,,,,,,,,,,,,,,,,,,,,,,,,,,,,,,,,,,,,,,,,,,,,,,,,,,,,,,,,,30,,,,,,,,1137.8201774999907,1137.8201774999907,1137.8201774999907,1137.8201774999907,1137.8201774999907,return,0.5764978999941377,5,0,0,0,0.15999999999999998,-0.16,return,0.49215900000126567,-37,-13,0.15999999999999998,-0.16,,,,,,,,,,,,,,,,,,,,,,,,,,,,,,,,,,,,,,,,,,,,,,,,,,,,,,,,8J1937,train_y,blue_star,top_right,2025-05-15_15h32.50.340,HideSeek_v1,2022.2.5,59.95541714910406,
,5,9,5,8,0,-1,62,,train_dim1_1,19,30,,,,2,0,2,0,,,,,,,,,0,0,0,0,0,18,18,18,0,0,0,0,,,,,,,,,,,,,,,,,,,,,,,,,stimuli/alien_stimuli/62.png,,,,,,,,,,,,,,,,,,,,,,,,,,,,,stimuli/alien_stimuli/61.png,61,7,20,,,,,,,30,,,,,,,,1143.9640986000013,1143.9640986000013,1143.9640986000013,1143.9640986000013,1143.9640986000013,return,1.2561936999991303,5,1,0,0,0.24,0.32,return,1.1718299999920418,-37,-13,0.24,0.32,1142.4108716999908,1143.9640986000013,0.4,0.08,0.0,0.0,0.08,0.4,0.4,0.4,0.08,1139.969570000001,1139.969570000001,1139.969570000001,1139.969570000001,1139.969570000001,1139.969570000001,1139.969570000001,1139.969570000001,1139.9580535600007,2.554847699997481,return,2.4237326000002213,,,,,,,,,,,,,,,,,,,,,,,,,,,,,,,,,8J1937,train_y,blue_star,top_right,2025-05-15_15h32.50.340,HideSeek_v1,2022.2.5,59.95541714910406,
,7,5,7,0,0,-5,66,,train_dim1_1,20,30,,,,2,0,2,0,,,,,,,,,0,0,0,0,0,19,19,19,0,0,0,0,,,,,,,,,,,,,,,,,,,,,,,,,stimuli/alien_stimuli/66.png,,,,,,,,,,,,,,,,,,,,,,,,,,,,,stimuli/alien_stimuli/62.png,62,5,21,,,,,,,30,,,,,,,,1151.4199679000012,1151.4199679000012,1151.4199679000012,1151.4199679000012,1151.4199679000012,down,0.9726647000061348,5,1,0,99,0.4,-0.08,down,0.8941883999941638,,,,,1149.8665895000013,1151.4199679000012,0.24,0.24,0.08,0.0,0.28,0.24,0.24,0.24,0.24,1146.7678747000027,1146.7678747000027,1146.7678747000027,1146.7678747000027,1146.7678747000027,1146.7678747000027,1146.7678747000027,1146.7678747000027,1146.76381368,3.1884869000059552,return,3.0763129999977536,,,,,,,,,,,,,,,,,,,,,,,,,,,,,,,,,8J1937,train_y,blue_star,top_right,2025-05-15_15h32.50.340,HideSeek_v1,2022.2.5,59.95541714910406,
,7,5,7,0,0,-5,66,,train_dim1_1,20,30,,,,2,0,2,0,,,,,,,,,0,0,0,0,0,19,19,19,1,0,1,0,,,,,,,,,,,,,,,,,,,,,,,,,,,,,,,,,,,,,,,,,,,,,,,,,,,,,,,,,,,,,,,,30,,,,,,,,1152.398501699994,1152.398501699994,1152.398501699994,1152.398501699994,1152.398501699994,return,0.6428997999901185,5,0,0,0,0.4,-0.08,return,0.5559921999956714,-38,-13,0.4,-0.08,,,,,,,,,,,,,,,,,,,,,,,,,,,,,,,,,,,,,,,,,,,,,,,,,,,,,,,,8J1937,train_y,blue_star,top_right,2025-05-15_15h32.50.340,HideSeek_v1,2022.2.5,59.95541714910406,
,7,9,7,5,0,-4,65,,train_dim1_1,21,30,,,,2,0,2,0,,,,,,,,,0,0,0,0,0,20,20,20,0,0,0,0,,,,,,,,,,,,,,,,,,,,,,,,,stimuli/alien_stimuli/65.png,,,,,,,,,,,,,,,,,,,,,,,,,,,,,stimuli/alien_stimuli/66.png,66,7,22,,,,,,,30,,,,,,,,1158.6748225000047,1158.6748225000047,1158.6748225000047,1158.6748225000047,1158.6748225000047,down,2.4747948000003817,5,0,0,99,0.4,0.24,down,2.4010154999850783,,,,,1157.1229692999914,1158.6748225000047,0.4,-0.4,0.4,0.0,-0.2,0.4,0.4,0.4,-0.4,1154.593725300001,1154.593725300001,1154.593725300001,1154.593725300001,1154.593725300001,1154.593725300001,1154.593725300001,1154.593725300001,1154.5867760799943,2.621154499996919,return,2.4977814000012586,,,,,,,,,,,,,,,,,,,,,,,,,,,,,,,,,8J1937,train_y,blue_star,top_right,2025-05-15_15h32.50.340,HideSeek_v1,2022.2.5,59.95541714910406,
,7,9,7,5,0,-4,65,,train_dim1_1,21,30,,,,2,0,2,0,,,,,,,,,0,0,0,0,0,20,20,20,1,0,1,0,,,,,,,,,,,,,,,,,,,,,,,,,,,,,,,,,,,,,,,,,,,,,,,,,,,,,,,,,,,,,,,,30,,,,,,,,1161.155672599998,1161.155672599998,1161.155672599998,1161.155672599998,1161.155672599998,down,0.5094828000001144,5,0,0,99,0.4,0.15999999999999998,down,0.42497870000079274,,,,,,,,,,,,,,,,,,,,,,,,,,,,,,,,,,,,,,,,,,,,,,,,,,,,,,,,,,,,8J1937,train_y,blue_star,top_right,2025-05-15_15h32.50.340,HideSeek_v1,2022.2.5,59.95541714910406,
,7,9,7,5,0,-4,65,,train_dim1_1,21,30,,,,2,0,2,0,,,,,,,,,0,0,0,0,0,20,20,20,2,0,2,0,,,,,,,,,,,,,,,,,,,,,,,,,,,,,,,,,,,,,,,,,,,,,,,,,,,,,,,,,,,,,,,,30,,,,,,,,1161.6727133999957,1161.6727133999957,1161.6727133999957,1161.6727133999957,1161.6727133999957,down,0.41031479999946896,5,0,0,99,0.4,0.07999999999999997,down,0.336357100008172,,,,,,,,,,,,,,,,,,,,,,,,,,,,,,,,,,,,,,,,,,,,,,,,,,,,,,,,,,,,8J1937,train_y,blue_star,top_right,2025-05-15_15h32.50.340,HideSeek_v1,2022.2.5,59.95541714910406,
,7,9,7,5,0,-4,65,,train_dim1_1,21,30,,,,2,0,2,0,,,,,,,,,0,0,0,0,0,20,20,20,3,0,3,0,,,,,,,,,,,,,,,,,,,,,,,,,,,,,,,,,,,,,,,,,,,,,,,,,,,,,,,,,,,,,,,,30,,,,,,,,1162.0900816999929,1162.0900816999929,1162.0900816999929,1162.0900816999929,1162.0900816999929,down,0.39294459999655373,5,0,0,99,0.4,-2.7755575615628914e-17,down,0.31610269998782314,,,,,,,,,,,,,,,,,,,,,,,,,,,,,,,,,,,,,,,,,,,,,,,,,,,,,,,,,,,,8J1937,train_y,blue_star,top_right,2025-05-15_15h32.50.340,HideSeek_v1,2022.2.5,59.95541714910406,
,7,9,7,5,0,-4,65,,train_dim1_1,21,30,,,,2,0,2,0,,,,,,,,,0,0,0,0,0,20,20,20,4,0,4,0,,,,,,,,,,,,,,,,,,,,,,,,,,,,,,,,,,,,,,,,,,,,,,,,,,,,,,,,,,,,,,,,30,,,,,,,,1162.4902322999988,1162.4902322999988,1162.4902322999988,1162.4902322999988,1162.4902322999988,down,0.42669210000894964,5,0,0,99,0.4,-0.08000000000000003,down,0.3475297999975737,,,,,,,,,,,,,,,,,,,,,,,,,,,,,,,,,,,,,,,,,,,,,,,,,,,,,,,,,,,,8J1937,train_y,blue_star,top_right,2025-05-15_15h32.50.340,HideSeek_v1,2022.2.5,59.95541714910406,
,7,9,7,5,0,-4,65,,train_dim1_1,21,30,,,,2,0,2,0,,,,,,,,,0,0,0,0,0,20,20,20,5,0,5,0,,,,,,,,,,,,,,,,,,,,,,,,,,,,,,,,,,,,,,,,,,,,,,,,,,,,,,,,,,,,,,,,30,,,,,,,,1162.9241937000043,1162.9241937000043,1162.9241937000043,1162.9241937000043,1162.9241937000043,down,0.5099266000033822,5,0,0,99,0.4,-0.16000000000000003,down,0.43014389999734703,,,,,,,,,,,,,,,,,,,,,,,,,,,,,,,,,,,,,,,,,,,,,,,,,,,,,,,,,,,,8J1937,train_y,blue_star,top_right,2025-05-15_15h32.50.340,HideSeek_v1,2022.2.5,59.95541714910406,
,7,9,7,5,0,-4,65,,train_dim1_1,21,30,,,,2,0,2,0,,,,,,,,,0,0,0,0,0,20,20,20,6,0,6,0,,,,,,,,,,,,,,,,,,,,,,,,,,,,,,,,,,,,,,,,,,,,,,,,,,,,,,,,,,,,,,,,30,,,,,,,,1163.4405527999916,1163.4405527999916,1163.4405527999916,1163.4405527999916,1163.4405527999916,left,0.743603399998392,5,0,0,99,0.32,-0.16000000000000003,left,0.6672252999996999,,,,,,,,,,,,,,,,,,,,,,,,,,,,,,,,,,,,,,,,,,,,,,,,,,,,,,,,,,,,8J1937,train_y,blue_star,top_right,2025-05-15_15h32.50.340,HideSeek_v1,2022.2.5,59.95541714910406,
,7,9,7,5,0,-4,65,,train_dim1_1,21,30,,,,2,0,2,0,,,,,,,,,0,0,0,0,0,20,20,20,7,0,7,0,,,,,,,,,,,,,,,,,,,,,,,,,,,,,,,,,,,,,,,,,,,,,,,,,,,,,,,,,,,,,,,,30,,,,,,,,1164.1918022000027,1164.1918022000027,1164.1918022000027,1164.1918022000027,1164.1918022000027,right,1.6274851999914972,5,0,0,99,0.4,-0.16000000000000003,right,1.5473644000012428,,,,,,,,,,,,,,,,,,,,,,,,,,,,,,,,,,,,,,,,,,,,,,,,,,,,,,,,,,,,8J1937,train_y,blue_star,top_right,2025-05-15_15h32.50.340,HideSeek_v1,2022.2.5,59.95541714910406,
,7,9,7,5,0,-4,65,,train_dim1_1,21,30,,,,2,0,2,0,,,,,,,,,0,0,0,0,0,20,20,20,8,0,8,0,,,,,,,,,,,,,,,,,,,,,,,,,,,,,,,,,,,,,,,,,,,,,,,,,,,,,,,,,,,,,,,,30,,,,,,,,1165.825573299997,1165.825573299997,1165.825573299997,1165.825573299997,1165.825573299997,down,0.6769210999918869,5,0,0,99,0.4,-0.24000000000000005,down,0.5976763000071514,,,,,,,,,,,,,,,,,,,,,,,,,,,,,,,,,,,,,,,,,,,,,,,,,,,,,,,,,,,,8J1937,train_y,blue_star,top_right,2025-05-15_15h32.50.340,HideSeek_v1,2022.2.5,59.95541714910406,
,7,9,7,5,0,-4,65,,train_dim1_1,21,30,,,,2,0,2,0,,,,,,,,,0,0,0,0,0,20,20,20,9,0,9,0,,,,,,,,,,,,,,,,,,,,,,,,,,,,,,,,,,,,,,,,,,,,,,,,,,,,,,,,,,,,,,,,30,,,,,,,,1166.510106799993,1166.510106799993,1166.510106799993,1166.510106799993,1166.510106799993,return,0.4935043999867048,5,0,0,0,0.4,-0.24000000000000005,return,0.4165514000051189,-45,-13,0.4,-0.24000000000000005,,,,,,,,,,,,,,,,,,,,,,,,,,,,,,,,,,,,,,,,,,,,,,,,,,,,,,,,8J1937,train_y,blue_star,top_right,2025-05-15_15h32.50.340,HideSeek_v1,2022.2.5,59.95541714910406,
,5,7,5,4,0,-3,64,,train_dim1_1,22,30,,,,2,0,2,0,,,,,,,,,0,0,0,0,0,21,21,21,0,0,0,0,,,,,,,,,,,,,,,,,,,,,,,,,stimuli/alien_stimuli/64.png,,,,,,,,,,,,,,,,,,,,,,,,,,,,,stimuli/alien_stimuli/65.png,65,7,23,,,,,,,30,,,,,,,,1174.138529799995,1174.138529799995,1174.138529799995,1174.138529799995,1174.138529799995,down,0.63916700000118,5,0,0,99,0.24,0.08,down,0.5531516000046395,,,,,1172.5858721999975,1174.138529799995,0.4,0,0.32,0.0,0.16,0.4,0.4,0.4,0,1168.5733088999987,1168.5733088999987,1168.5733088999987,1168.5733088999987,1168.5733088999987,1168.5733088999987,1168.5733088999987,1168.5733088999987,1168.5650851599976,4.122264499994344,return,3.9840464999870164,,,,,,,,,,,,,,,,,,,,,,,,,,,,,,,,,8J1937,train_y,blue_star,top_right,2025-05-15_15h32.50.340,HideSeek_v1,2022.2.5,59.95541714910406,
,5,7,5,4,0,-3,64,,train_dim1_1,22,30,,,,2,0,2,0,,,,,,,,,0,0,0,0,0,21,21,21,1,0,1,0,,,,,,,,,,,,,,,,,,,,,,,,,,,,,,,,,,,,,,,,,,,,,,,,,,,,,,,,,,,,,,,,30,,,,,,,,1174.7835438000038,1174.7835438000038,1174.7835438000038,1174.7835438000038,1174.7835438000038,down,0.5095000000001164,5,0,0,99,0.24,0.0,down,0.42554090000339784,,,,,,,,,,,,,,,,,,,,,,,,,,,,,,,,,,,,,,,,,,,,,,,,,,,,,,,,,,,,8J1937,train_y,blue_star,top_right,2025-05-15_15h32.50.340,HideSeek_v1,2022.2.5,59.95541714910406,
,5,7,5,4,0,-3,64,,train_dim1_1,22,30,,,,2,0,2,0,,,,,,,,,0,0,0,0,0,21,21,21,2,0,2,0,,,,,,,,,,,,,,,,,,,,,,,,,,,,,,,,,,,,,,,,,,,,,,,,,,,,,,,,,,,,,,,,30,,,,,,,,1175.3009805000038,1175.3009805000038,1175.3009805000038,1175.3009805000038,1175.3009805000038,return,1.2438529999926686,5,1,0,0,0.24,0.0,return,1.1667228000005707,-47,-13,0.24,0.0,,,,,,,,,,,,,,,,,,,,,,,,,,,,,,,,,,,,,,,,,,,,,,,,,,,,,,,,8J1937,train_y,blue_star,top_right,2025-05-15_15h32.50.340,HideSeek_v1,2022.2.5,59.95541714910406,
,5,8,5,8,0,0,61,,train_dim1_1,23,30,,,,2,0,2,0,,,,,,,,,0,0,0,0,0,22,22,22,0,0,0,0,,,,,,,,,,,,,,,,,,,,,,,,,stimuli/alien_stimuli/61.png,,,,,,,,,,,,,,,,,,,,,,,,,,,,,stimuli/alien_stimuli/64.png,64,5,24,,,,,,,30,,,,,,,,1181.6603719999985,1181.6603719999985,1181.6603719999985,1181.6603719999985,1181.6603719999985,return,1.390078900003573,6,0,0,1,0.24,0.24,return,1.3112650999973994,-47,-13,0.24,0.24,1180.1086121999979,1181.6603719999985,0.24,-0.08,0.24,0.0,0.04,0.24,0.24,0.24,-0.08,1178.0947780999995,1178.0947780999995,1178.0947780999995,1178.0947780999995,1178.0947780999995,1178.0947780999995,1178.0947780999995,1178.0947780999995,1178.089794680002,2.103998999999021,return,1.9919672999967588,,,,,,,,,,,,,,,,,,,,,,,,,,,,,,,,,8J1937,train_y,blue_star,top_right,2025-05-15_15h32.50.340,HideSeek_v1,2022.2.5,59.95541714910406,
,8,7,8,2,0,-5,66,,train_dim1_1,24,30,,,,2,0,2,0,,,,,,,,,0,0,0,0,0,23,23,23,0,0,0,0,,,,,,,,,,,,,,,,,,,,,,,,,stimuli/alien_stimuli/66.png,,,,,,,,,,,,,,,,,,,,,,,,,,,,,stimuli/alien_stimuli/61.png,61,5,25,,,,,,,30,,,,,,,,1187.883478799995,1187.883478799995,1187.883478799995,1187.883478799995,1187.883478799995,down,1.2391167000023415,6,0,0,99,0.48,0.08,down,1.1615874999843072,,,,,1186.3305171999964,1187.883478799995,0.24,0.24,0.0,0.0,0.24,0.24,0.24,0.24,0.24,1184.6007750999997,1184.6007750999997,1184.6007750999997,1184.6007750999997,1184.6007750999997,1184.6007750999997,1184.6007750999997,1184.6007750999997,1184.5952782799927,1.8202561000071,return,1.702684899995802,,,,,,,,,,,,,,,,,,,,,,,,,,,,,,,,,8J1937,train_y,blue_star,top_right,2025-05-15_15h32.50.340,HideSeek_v1,2022.2.5,59.95541714910406,
,8,7,8,2,0,-5,66,,train_dim1_1,24,30,,,,2,0,2,0,,,,,,,,,0,0,0,0,0,23,23,23,1,0,1,0,,,,,,,,,,,,,,,,,,,,,,,,,,,,,,,,,,,,,,,,,,,,,,,,,,,,,,,,,,,,,,,,30,,,,,,,,1189.1293043000042,1189.1293043000042,1189.1293043000042,1189.1293043000042,1189.1293043000042,down,0.6260688999900594,6,0,0,99,0.48,0.0,down,0.5524989999976242,,,,,,,,,,,,,,,,,,,,,,,,,,,,,,,,,,,,,,,,,,,,,,,,,,,,,,,,,,,,8J1937,train_y,blue_star,top_right,2025-05-15_15h32.50.340,HideSeek_v1,2022.2.5,59.95541714910406,
,8,7,8,2,0,-5,66,,train_dim1_1,24,30,,,,2,0,2,0,,,,,,,,,0,0,0,0,0,23,23,23,2,0,2,0,,,,,,,,,,,,,,,,,,,,,,,,,,,,,,,,,,,,,,,,,,,,,,,,,,,,,,,,,,,,,,,,30,,,,,,,,1189.762982699991,1189.762982699991,1189.762982699991,1189.762982699991,1189.762982699991,down,0.5101454999967245,6,0,0,99,0.48,-0.08,down,0.4221648999955505,,,,,,,,,,,,,,,,,,,,,,,,,,,,,,,,,,,,,,,,,,,,,,,,,,,,,,,,,,,,8J1937,train_y,blue_star,top_right,2025-05-15_15h32.50.340,HideSeek_v1,2022.2.5,59.95541714910406,
,8,7,8,2,0,-5,66,,train_dim1_1,24,30,,,,2,0,2,0,,,,,,,,,0,0,0,0,0,23,23,23,3,0,3,0,,,,,,,,,,,,,,,,,,,,,,,,,,,,,,,,,,,,,,,,,,,,,,,,,,,,,,,,,,,,,,,,30,,,,,,,,1190.281678799991,1190.281678799991,1190.281678799991,1190.281678799991,1190.281678799991,down,0.4098480999964522,6,0,0,99,0.48,-0.16,down,0.33264239999698475,,,,,,,,,,,,,,,,,,,,,,,,,,,,,,,,,,,,,,,,,,,,,,,,,,,,,,,,,,,,8J1937,train_y,blue_star,top_right,2025-05-15_15h32.50.340,HideSeek_v1,2022.2.5,59.95541714910406,
,8,7,8,2,0,-5,66,,train_dim1_1,24,30,,,,2,0,2,0,,,,,,,,,0,0,0,0,0,23,23,23,4,0,4,0,,,,,,,,,,,,,,,,,,,,,,,,,,,,,,,,,,,,,,,,,,,,,,,,,,,,,,,,,,,,,,,,30,,,,,,,,1190.6978244999918,1190.6978244999918,1190.6978244999918,1190.6978244999918,1190.6978244999918,return,0.6271601000044029,6,1,0,0,0.48,-0.16,return,0.5377927999943495,-51,-13,0.48,-0.16,,,,,,,,,,,,,,,,,,,,,,,,,,,,,,,,,,,,,,,,,,,,,,,,,,,,,,,,8J1937,train_y,blue_star,top_right,2025-05-15_15h32.50.340,HideSeek_v1,2022.2.5,59.95541714910406,
,8,8,8,7,0,-1,62,,train_dim1_1,25,30,,,,2,0,2,0,,,,,,,,,0,0,0,0,0,24,24,24,0,0,0,0,,,,,,,,,,,,,,,,,,,,,,,,,stimuli/alien_stimuli/62.png,,,,,,,,,,,,,,,,,,,,,,,,,,,,,stimuli/alien_stimuli/66.png,66,8,26,,,,,,,30,,,,,,,,1196.1743380999978,1196.1743380999978,1196.1743380999978,1196.1743380999978,1196.1743380999978,down,0.47159000000101514,6,1,0,99,0.48,0.15999999999999998,down,0.38382020000426564,,,,,1194.6208017000026,1196.1743380999978,0.48,-0.24,0.4,0.0,-0.039999999999999994,0.48,0.48,0.48,-0.24,1192.8747735999932,1192.8747735999932,1192.8747735999932,1192.8747735999932,1192.8747735999932,1192.8747735999932,1192.8747735999932,1192.8747735999932,1192.868593180005,1.8369410000013886,return,1.7172010999929626,,,,,,,,,,,,,,,,,,,,,,,,,,,,,,,,,8J1937,train_y,blue_star,top_right,2025-05-15_15h32.50.340,HideSeek_v1,2022.2.5,59.95541714910406,
,8,8,8,7,0,-1,62,,train_dim1_1,25,30,,,,2,0,2,0,,,,,,,,,0,0,0,0,0,24,24,24,1,0,1,0,,,,,,,,,,,,,,,,,,,,,,,,,,,,,,,,,,,,,,,,,,,,,,,,,,,,,,,,,,,,,,,,30,,,,,,,,1196.6534892999916,1196.6534892999916,1196.6534892999916,1196.6534892999916,1196.6534892999916,down,0.542785300000105,6,1,0,99,0.48,0.07999999999999997,down,0.4538472999993246,,,,,,,,,,,,,,,,,,,,,,,,,,,,,,,,,,,,,,,,,,,,,,,,,,,,,,,,,,,,8J1937,train_y,blue_star,top_right,2025-05-15_15h32.50.340,HideSeek_v1,2022.2.5,59.95541714910406,
,8,8,8,7,0,-1,62,,train_dim1_1,25,30,,,,2,0,2,0,,,,,,,,,0,0,0,0,0,24,24,24,2,0,2,0,,,,,,,,,,,,,,,,,,,,,,,,,,,,,,,,,,,,,,,,,,,,,,,,,,,,,,,,,,,,,,,,30,,,,,,,,1197.2027076999948,1197.2027076999948,1197.2027076999948,1197.2027076999948,1197.2027076999948,down,0.49340490000031423,6,1,0,99,0.48,-2.7755575615628914e-17,down,0.4179786000022432,,,,,,,,,,,,,,,,,,,,,,,,,,,,,,,,,,,,,,,,,,,,,,,,,,,,,,,,,,,,8J1937,train_y,blue_star,top_right,2025-05-15_15h32.50.340,HideSeek_v1,2022.2.5,59.95541714910406,
,8,8,8,7,0,-1,62,,train_dim1_1,25,30,,,,2,0,2,0,,,,,,,,,0,0,0,0,0,24,24,24,3,0,3,0,,,,,,,,,,,,,,,,,,,,,,,,,,,,,,,,,,,,,,,,,,,,,,,,,,,,,,,,,,,,,,,,30,,,,,,,,1197.7025167999964,1197.7025167999964,1197.7025167999964,1197.7025167999964,1197.7025167999964,left,0.5098938000010094,6,1,0,99,0.39999999999999997,-2.7755575615628914e-17,left,0.42839919999823906,,,,,,,,,,,,,,,,,,,,,,,,,,,,,,,,,,,,,,,,,,,,,,,,,,,,,,,,,,,,8J1937,train_y,blue_star,top_right,2025-05-15_15h32.50.340,HideSeek_v1,2022.2.5,59.95541714910406,
,8,8,8,7,0,-1,62,,train_dim1_1,25,30,,,,2,0,2,0,,,,,,,,,0,0,0,0,0,24,24,24,4,0,4,0,,,,,,,,,,,,,,,,,,,,,,,,,,,,,,,,,,,,,,,,,,,,,,,,,,,,,,,,,,,,,,,,30,,,,,,,,1198.2192929000012,1198.2192929000012,1198.2192929000012,1198.2192929000012,1198.2192929000012,return,0.4435957000096096,6,0,0,0,0.39999999999999997,-2.7755575615628914e-17,return,0.3559362000087276,-54,-14,0.39999999999999997,-2.7755575615628914e-17,,,,,,,,,,,,,,,,,,,,,,,,,,,,,,,,,,,,,,,,,,,,,,,,,,,,,,,,8J1937,train_y,blue_star,top_right,2025-05-15_15h32.50.340,HideSeek_v1,2022.2.5,59.95541714910406,
,9,9,9,6,0,-3,64,,train_dim1_1,26,30,,,,2,0,2,0,,,,,,,,,0,0,0,0,0,25,25,25,0,0,0,0,,,,,,,,,,,,,,,,,,,,,,,,,stimuli/alien_stimuli/64.png,,,,,,,,,,,,,,,,,,,,,,,,,,,,,stimuli/alien_stimuli/62.png,62,8,27,,,,,,,30,,,,,,,,1204.812885499996,1204.812885499996,1204.812885499996,1204.812885499996,1204.812885499996,down,1.090550400011125,6,0,0,99,0.56,0.24,down,1.0087864999950398,,,,,1203.2612031000026,1204.812885499996,0.48,0.16,0.08,0.0,0.2,0.48,0.48,0.48,0.16,1200.2175619999907,1200.2175619999907,1200.2175619999907,1200.2175619999907,1200.2175619999907,1200.2175619999907,1200.2175619999907,1200.2175619999907,1200.2080438799953,3.1381909999909112,return,3.016720699990401,,,,,,,,,,,,,,,,,,,,,,,,,,,,,,,,,8J1937,train_y,blue_star,top_right,2025-05-15_15h32.50.340,HideSeek_v1,2022.2.5,59.95541714910406,
,9,9,9,6,0,-3,64,,train_dim1_1,26,30,,,,2,0,2,0,,,,,,,,,0,0,0,0,0,25,25,25,1,0,1,0,,,,,,,,,,,,,,,,,,,,,,,,,,,,,,,,,,,,,,,,,,,,,,,,,,,,,,,,,,,,,,,,30,,,,,,,,1205.911000699998,1205.911000699998,1205.911000699998,1205.911000699998,1205.911000699998,left,0.6591951000009431,6,0,0,99,0.48000000000000004,0.24,left,0.5818885000044247,,,,,,,,,,,,,,,,,,,,,,,,,,,,,,,,,,,,,,,,,,,,,,,,,,,,,,,,,,,,8J1937,train_y,blue_star,top_right,2025-05-15_15h32.50.340,HideSeek_v1,2022.2.5,59.95541714910406,
,9,9,9,6,0,-3,64,,train_dim1_1,26,30,,,,2,0,2,0,,,,,,,,,0,0,0,0,0,25,25,25,2,0,2,0,,,,,,,,,,,,,,,,,,,,,,,,,,,,,,,,,,,,,,,,,,,,,,,,,,,,,,,,,,,,,,,,30,,,,,,,,1206.5759954999958,1206.5759954999958,1206.5759954999958,1206.5759954999958,1206.5759954999958,down,0.5099743999890052,6,0,0,99,0.48000000000000004,0.15999999999999998,down,0.4366353000077652,,,,,,,,,,,,,,,,,,,,,,,,,,,,,,,,,,,,,,,,,,,,,,,,,,,,,,,,,,,,8J1937,train_y,blue_star,top_right,2025-05-15_15h32.50.340,HideSeek_v1,2022.2.5,59.95541714910406,
,9,9,9,6,0,-3,64,,train_dim1_1,26,30,,,,2,0,2,0,,,,,,,,,0,0,0,0,0,25,25,25,3,0,3,0,,,,,,,,,,,,,,,,,,,,,,,,,,,,,,,,,,,,,,,,,,,,,,,,,,,,,,,,,,,,,,,,30,,,,,,,,1207.0938526999962,1207.0938526999962,1207.0938526999962,1207.0938526999962,1207.0938526999962,down,0.3933773000026122,6,0,0,99,0.48000000000000004,0.07999999999999997,down,0.317596599998069,,,,,,,,,,,,,,,,,,,,,,,,,,,,,,,,,,,,,,,,,,,,,,,,,,,,,,,,,,,,8J1937,train_y,blue_star,top_right,2025-05-15_15h32.50.340,HideSeek_v1,2022.2.5,59.95541714910406,
,9,9,9,6,0,-3,64,,train_dim1_1,26,30,,,,2,0,2,0,,,,,,,,,0,0,0,0,0,25,25,25,4,0,4,0,,,,,,,,,,,,,,,,,,,,,,,,,,,,,,,,,,,,,,,,,,,,,,,,,,,,,,,,,,,,,,,,30,,,,,,,,1207.4937640999997,1207.4937640999997,1207.4937640999997,1207.4937640999997,1207.4937640999997,down,0.4934224000026006,6,0,0,99,0.48000000000000004,-2.7755575615628914e-17,down,0.40780699999595527,,,,,,,,,,,,,,,,,,,,,,,,,,,,,,,,,,,,,,,,,,,,,,,,,,,,,,,,,,,,8J1937,train_y,blue_star,top_right,2025-05-15_15h32.50.340,HideSeek_v1,2022.2.5,59.95541714910406,
,9,9,9,6,0,-3,64,,train_dim1_1,26,30,,,,2,0,2,0,,,,,,,,,0,0,0,0,0,25,25,25,5,0,5,0,,,,,,,,,,,,,,,,,,,,,,,,,,,,,,,,,,,,,,,,,,,,,,,,,,,,,,,,,,,,,,,,30,,,,,,,,1207.9948579000047,1207.9948579000047,1207.9948579000047,1207.9948579000047,1207.9948579000047,return,0.910575300003984,6,0,0,0,0.48000000000000004,-2.7755575615628914e-17,return,0.8334363999892958,-58,-15,0.48000000000000004,-2.7755575615628914e-17,,,,,,,,,,,,,,,,,,,,,,,,,,,,,,,,,,,,,,,,,,,,,,,,,,,,,,,,8J1937,train_y,blue_star,top_right,2025-05-15_15h32.50.340,HideSeek_v1,2022.2.5,59.95541714910406,
,8,9,8,4,0,-5,66,,train_dim1_1,27,30,,,,2,0,2,0,,,,,,,,,0,0,0,0,0,26,26,26,0,0,0,0,,,,,,,,,,,,,,,,,,,,,,,,,stimuli/alien_stimuli/66.png,,,,,,,,,,,,,,,,,,,,,,,,,,,,,stimuli/alien_stimuli/64.png,64,9,28,,,,,,,30,,,,,,,,1214.204384800003,1214.204384800003,1214.204384800003,1214.204384800003,1214.204384800003,down,1.4904442999977618,6,0,0,99,0.48,0.24,down,1.4168317000003299,,,,,1212.652285899996,1214.204384800003,0.56,0.08,0.24,0.0,0.2,0.56,0.56,0.56,0.08,1210.4726761999918,1210.4726761999918,1210.4726761999918,1210.4726761999918,1210.4726761999918,1210.4726761999918,1210.4726761999918,1210.4726761999918,1210.4665613599982,2.2878261000005296,return,2.163968599998043,,,,,,,,,,,,,,,,,,,,,,,,,,,,,,,,,8J1937,train_y,blue_star,top_right,2025-05-15_15h32.50.340,HideSeek_v1,2022.2.5,59.95541714910406,
,8,9,8,4,0,-5,66,,train_dim1_1,27,30,,,,2,0,2,0,,,,,,,,,0,0,0,0,0,26,26,26,1,0,1,0,,,,,,,,,,,,,,,,,,,,,,,,,,,,,,,,,,,,,,,,,,,,,,,,,,,,,,,,,,,,,,,,30,,,,,,,,1215.7010658999934,1215.7010658999934,1215.7010658999934,1215.7010658999934,1215.7010658999934,down,0.4597219999996014,6,0,0,99,0.48,0.15999999999999998,down,0.37712499998451676,,,,,,,,,,,,,,,,,,,,,,,,,,,,,,,,,,,,,,,,,,,,,,,,,,,,,,,,,,,,8J1937,train_y,blue_star,top_right,2025-05-15_15h32.50.340,HideSeek_v1,2022.2.5,59.95541714910406,
,8,9,8,4,0,-5,66,,train_dim1_1,27,30,,,,2,0,2,0,,,,,,,,,0,0,0,0,0,26,26,26,2,0,2,0,,,,,,,,,,,,,,,,,,,,,,,,,,,,,,,,,,,,,,,,,,,,,,,,,,,,,,,,,,,,,,,,30,,,,,,,,1216.168520399995,1216.168520399995,1216.168520399995,1216.168520399995,1216.168520399995,down,0.4434095000033267,6,0,0,99,0.48,0.07999999999999997,down,0.3630690999998478,,,,,,,,,,,,,,,,,,,,,,,,,,,,,,,,,,,,,,,,,,,,,,,,,,,,,,,,,,,,8J1937,train_y,blue_star,top_right,2025-05-15_15h32.50.340,HideSeek_v1,2022.2.5,59.95541714910406,
,8,9,8,4,0,-5,66,,train_dim1_1,27,30,,,,2,0,2,0,,,,,,,,,0,0,0,0,0,26,26,26,3,0,3,0,,,,,,,,,,,,,,,,,,,,,,,,,,,,,,,,,,,,,,,,,,,,,,,,,,,,,,,,,,,,,,,,30,,,,,,,,1216.6187914000038,1216.6187914000038,1216.6187914000038,1216.6187914000038,1216.6187914000038,down,0.4266632000071695,6,0,0,99,0.48,-2.7755575615628914e-17,down,0.34975770000892226,,,,,,,,,,,,,,,,,,,,,,,,,,,,,,,,,,,,,,,,,,,,,,,,,,,,,,,,,,,,8J1937,train_y,blue_star,top_right,2025-05-15_15h32.50.340,HideSeek_v1,2022.2.5,59.95541714910406,
,8,9,8,4,0,-5,66,,train_dim1_1,27,30,,,,2,0,2,0,,,,,,,,,0,0,0,0,0,26,26,26,4,0,4,0,,,,,,,,,,,,,,,,,,,,,,,,,,,,,,,,,,,,,,,,,,,,,,,,,,,,,,,,,,,,,,,,30,,,,,,,,1217.052920999995,1217.052920999995,1217.052920999995,1217.052920999995,1217.052920999995,return,0.5933867000130704,6,1,0,0,0.48,-2.7755575615628914e-17,return,0.5148937999911141,-62,-15,0.48,-2.7755575615628914e-17,,,,,,,,,,,,,,,,,,,,,,,,,,,,,,,,,,,,,,,,,,,,,,,,,,,,,,,,8J1937,train_y,blue_star,top_right,2025-05-15_15h32.50.340,HideSeek_v1,2022.2.5,59.95541714910406,
,9,6,9,6,0,0,61,,train_dim1_1,28,30,,,,2,0,2,0,,,,,,,,,0,0,0,0,0,27,27,27,0,0,0,0,,,,,,,,,,,,,,,,,,,,,,,,,stimuli/alien_stimuli/61.png,,,,,,,,,,,,,,,,,,,,,,,,,,,,,stimuli/alien_stimuli/66.png,66,8,29,,,,,,,30,,,,,,,,1222.3440524000034,1222.3440524000034,1222.3440524000034,1222.3440524000034,1222.3440524000034,down,0.5229413000051863,6,1,0,99,0.56,0.0,down,0.44953429998713546,,,,,1220.7922053999937,1222.3440524000034,0.48,-0.08,0.4,0.0,0.12,0.48,0.48,0.48,-0.08,1219.1964099000033,1219.1964099000033,1219.1964099000033,1219.1964099000033,1219.1964099000033,1219.1964099000033,1219.1964099000033,1219.1964099000033,1219.1905968800043,1.687181100001908,return,1.5718669000052614,,,,,,,,,,,,,,,,,,,,,,,,,,,,,,,,,8J1937,train_y,blue_star,top_right,2025-05-15_15h32.50.340,HideSeek_v1,2022.2.5,59.95541714910406,
,9,6,9,6,0,0,61,,train_dim1_1,28,30,,,,2,0,2,0,,,,,,,,,0,0,0,0,0,27,27,27,1,0,1,0,,,,,,,,,,,,,,,,,,,,,,,,,,,,,,,,,,,,,,,,,,,,,,,,,,,,,,,,,,,,,,,,30,,,,,,,,1222.8743104000023,1222.8743104000023,1222.8743104000023,1222.8743104000023,1222.8743104000023,up,1.4105715000041528,6,1,0,99,0.56,0.08,up,1.3304552000045078,,,,,,,,,,,,,,,,,,,,,,,,,,,,,,,,,,,,,,,,,,,,,,,,,,,,,,,,,,,,8J1937,train_y,blue_star,top_right,2025-05-15_15h32.50.340,HideSeek_v1,2022.2.5,59.95541714910406,
,9,6,9,6,0,0,61,,train_dim1_1,28,30,,,,2,0,2,0,,,,,,,,,0,0,0,0,0,27,27,27,2,0,2,0,,,,,,,,,,,,,,,,,,,,,,,,,,,,,,,,,,,,,,,,,,,,,,,,,,,,,,,,,,,,,,,,30,,,,,,,,1224.2916735000035,1224.2916735000035,1224.2916735000035,1224.2916735000035,1224.2916735000035,return,0.6102184999908786,7,0,0,1,0.56,0.08,return,0.5276524999935646,-62,-15,0.56,0.08,,,,,,,,,,,,,,,,,,,,,,,,,,,,,,,,,,,,,,,,,,,,,,,,,,,,,,,,8J1937,train_y,blue_star,top_right,2025-05-15_15h32.50.340,HideSeek_v1,2022.2.5,59.95541714910406,
,7,7,7,6,0,-1,62,,train_dim1_1,29,30,,,,2,0,2,0,,,,,,,,,0,0,0,0,0,28,28,28,0,0,0,0,,,,,,,,,,,,,,,,,,,,,,,,,stimuli/alien_stimuli/62.png,,,,,,,,,,,,,,,,,,,,,,,,,,,,,stimuli/alien_stimuli/61.png,61,9,30,,,,,,,30,,,,,,,,1230.0838686999923,1230.0838686999923,1230.0838686999923,1230.0838686999923,1230.0838686999923,return,1.607502500002738,7,1,0,0,0.4,0.16,return,1.5337461000017356,-62,-15,0.4,0.16,1228.5317899999936,1230.0838686999923,0.56,0.08,0.0,0.0,0.08,0.56,0.56,0.56,0.08,1226.452476499995,1226.452476499995,1226.452476499995,1226.452476499995,1226.452476499995,1226.452476499995,1226.452476499995,1226.452476499995,1226.4462866799936,2.170631899993168,return,2.056439499996486,,,,,,,,,,,,,,,,,,,,,,,,,,,,,,,,,8J1937,train_y,blue_star,top_right,2025-05-15_15h32.50.340,HideSeek_v1,2022.2.5,59.95541714910406,
,5,6,5,2,0,-4,65,,train_dim1_1,30,30,,,,2,0,2,0,,,,,,,,,0,0,0,0,0,29,29,29,0,0,0,0,,,,,,,,,,,,,,,,,,,,,,,,,stimuli/alien_stimuli/65.png,,,,,,,,,,,,,,,,,,,,,,,,,,,,,stimuli/alien_stimuli/62.png,62,7,31,,,,,,,30,,,,,,,,1237.0230015999987,1237.0230015999987,1237.0230015999987,1237.0230015999987,1237.0230015999987,right,1.3890147000056459,7,1,0,99,0.32,0.08,right,1.3023075999954017,,,,,1235.4712058000005,1237.0230015999987,0.4,0.08,0.08,0.0,0.12,0.4,0.4,0.4,0.08,1233.241865399992,1233.241865399992,1233.241865399992,1233.241865399992,1233.241865399992,1233.241865399992,1233.241865399992,1233.241865399992,1233.2355369799975,2.3207514000096126,return,2.2121116999915102,,,,,,,,,,,,,,,,,,,,,,,,,,,,,,,,,8J1937,train_y,blue_star,top_right,2025-05-15_15h32.50.340,HideSeek_v1,2022.2.5,59.95541714910406,
,5,6,5,2,0,-4,65,,train_dim1_1,30,30,,,,2,0,2,0,,,,,,,,,0,0,0,0,0,29,29,29,1,0,1,0,,,,,,,,,,,,,,,,,,,,,,,,,,,,,,,,,,,,,,,,,,,,,,,,,,,,,,,,,,,,,,,,30,,,,,,,,1238.4198802000028,1238.4198802000028,1238.4198802000028,1238.4198802000028,1238.4198802000028,down,1.1765984000085155,7,1,0,99,0.32,0.0,down,1.0943819999956759,,,,,,,,,,,,,,,,,,,,,,,,,,,,,,,,,,,,,,,,,,,,,,,,,,,,,,,,,,,,8J1937,train_y,blue_star,top_right,2025-05-15_15h32.50.340,HideSeek_v1,2022.2.5,59.95541714910406,
,5,6,5,2,0,-4,65,,train_dim1_1,30,30,,,,2,0,2,0,,,,,,,,,0,0,0,0,0,29,29,29,2,0,2,0,,,,,,,,,,,,,,,,,,,,,,,,,,,,,,,,,,,,,,,,,,,,,,,,,,,,,,,,,,,,,,,,30,,,,,,,,1239.6032995999994,1239.6032995999994,1239.6032995999994,1239.6032995999994,1239.6032995999994,left,1.2111476999998558,7,1,0,99,0.24,0.0,left,1.1370236999937333,,,,,,,,,,,,,,,,,,,,,,,,,,,,,,,,,,,,,,,,,,,,,,,,,,,,,,,,,,,,8J1937,train_y,blue_star,top_right,2025-05-15_15h32.50.340,HideSeek_v1,2022.2.5,59.95541714910406,
,5,6,5,2,0,-4,65,,train_dim1_1,30,30,,,,2,0,2,0,,,,,,,,,0,0,0,0,0,29,29,29,3,0,3,0,,,,,,,,,,,,,,,,,,,,,,,,,,,,,,,,,,,,,,,,,,,,,,,,,,,,,,,,,,,,,,,,30,,,,,,,,1240.8222021999973,1240.8222021999973,1240.8222021999973,1240.8222021999973,1240.8222021999973,down,0.4095346999965841,7,1,0,99,0.24,-0.08,down,0.32312369999999646,,,,,,,,,,,,,,,,,,,,,,,,,,,,,,,,,,,,,,,,,,,,,,,,,,,,,,,,,,,,8J1937,train_y,blue_star,top_right,2025-05-15_15h32.50.340,HideSeek_v1,2022.2.5,59.95541714910406,
,5,6,5,2,0,-4,65,,train_dim1_1,30,30,,,,2,0,2,0,,,,,,,,,0,0,0,0,0,29,29,29,4,0,4,0,,,,,,,,,,,,,,,,,,,,,,,,,,,,,,,,,,,,,,,,,,,,,,,,,,,,,,,,,,,,,,,,30,,,,,,,,1241.2387359999993,1241.2387359999993,1241.2387359999993,1241.2387359999993,1241.2387359999993,down,0.29316479999397416,7,1,0,99,0.24,-0.16,down,0.22052059999259654,,,,,,,,,,,,,,,,,,,,,,,,,,,,,,,,,,,,,,,,,,,,,,,,,,,,,,,,,,,,8J1937,train_y,blue_star,top_right,2025-05-15_15h32.50.340,HideSeek_v1,2022.2.5,59.95541714910406,
,5,6,5,2,0,-4,65,,train_dim1_1,30,30,,,,2,0,2,0,,,,,,,,,0,0,0,0,0,29,29,29,5,0,5,0,,,,,,,,,,,,,,,,,,,,,,,,,,,,,,,,,,,,,,,,,,,,,,,,,,,,,,,,,,,,,,,,30,,,,,,,,1241.539067299993,1241.539067299993,1241.539067299993,1241.539067299993,1241.539067299993,down,0.259857800003374,7,1,0,99,0.24,-0.24,down,0.17477209999924526,,,,,,,,,,,,,,,,,,,,,,,,,,,,,,,,,,,,,,,,,,,,,,,,,,,,,,,,,,,,8J1937,train_y,blue_star,top_right,2025-05-15_15h32.50.340,HideSeek_v1,2022.2.5,59.95541714910406,
,5,6,5,2,0,-4,65,,train_dim1_1,30,30,,,,2,0,2,0,,,,,,,,,0,0,0,0,0,29,29,29,6,0,6,0,,,,,,,,,,,,,,,,,,,,,,,,,,,,,,,,,,,,,,,,,,,,,,,,,,,,,,,,,,,,,,,,30,,,,,,,,1241.806152899997,1241.806152899997,1241.806152899997,1241.806152899997,1241.806152899997,return,0.6101712999952724,8,0,0,1,0.24,-0.24,return,0.5249425999936648,-66,-15,0.24,-0.24,,,,,,,,,,,,,,,,,,,,,,,,,,,,,,,,,,,,,,,,,,,,,,,,,,,,,,,,8J1937,train_y,blue_star,top_right,2025-05-15_15h32.50.340,HideSeek_v1,2022.2.5,59.95541714910406,
,,,,,,,,,,,30,,,,2,0,2,0,,,,,,,,,,,,,,,,,,,,,,,,,,,,,,,,,,,,,,,,,,,,,,,,,,,,,,,,,,,,,,,,,,,,,,,,,,stimuli/alien_stimuli/65.png,65,5,32,21,0.7,0.33333333333333337,1,1,1,30,0,conditions/schedules/train_y_first/blue_star_00/top_right/inputTrain_2.1.xlsx,99,1,2,1,0,,,,,,,,,,,1,,,,,,,,,1246.1967881000019,1247.7519756999973,0.24,-0.24,0.32,0.0,-0.07999999999999999,0.24,0.24,0.24,-0.24,1243.9847711000039,1243.9847711000039,1243.9847711000039,1243.9847711000039,1243.9847711000039,1243.9847711000039,1243.9847711000039,1243.9847711000039,1243.9774269600066,2.3211351000063587,return,2.1861819999903673,0,0.9,0,1,8,,,,,,,,,,,,,,,,,,,,,,,,,,,,8J1937,train_y,blue_star,top_right,2025-05-15_15h32.50.340,HideSeek_v1,2022.2.5,59.95541714910406,
,,,,,,,,,,,,,,,3,0,3,0,0,0,0,0,,,,,,,,,,,,,,,,,,,,,,,,,,,,,,,conditions/schedules/train_y_first/blue_star_00/top_right/instructions/Slide17.png,conditions/schedules/train_y_first/blue_star_00/top_right/instructions/Audio17.wav,1247.7519756999973,1247.7475013199962,17,"[90.71056559999124, 18.163595100006205, 16.598402400006307, 19.156158500001766, 4.3569533999980194, 4.319175399999949, 5.4035524999926565, 11.341185500001302, 5.769933999996283, 6.951518099987879, 10.200566999992589, 13.607556299990392, 17.113348800005042, 16.224952399992617, 42.47990160000336, 21.53300829998625, 115.88970290000725]","[0.03182119999837596, 0.0002066000015474856, 0.00027289999707136303, 0.03287799999816343, 0.013912599999457598, 0.06574279999767896, 0.048415799989015795, 0.03184690000489354, 0.07950729998992756, 0.06377320000319742, 0.07939139999507461, 13.607566199993016, 0.06222209999396, 16.224959799990756, 0.013904099992942065, 21.53301429998828, 115.88971010000387]",0,,,,,,,,,,,,,,,,,,,,,,,,,,,,,,,,,,,,,,,,,,,,,,,,,,,,,,,,,,,,,,,,,,,,,,,,,,,,,,,,,,,,,,,,,,,,,,,,,,,,,,,,,,,,,,,,,,,,,,,,,,,,8J1937,train_y,blue_star,top_right,2025-05-15_15h32.50.340,HideSeek_v1,2022.2.5,59.95541714910406,
,,,,,,,,,,,,,,,3,0,3,0,1,0,1,0,,,,,,,,,,,,,,,,,,,,,,,,,,,,,,,conditions/schedules/train_y_first/blue_star_00/top_right/instructions/Slide18.png,conditions/schedules/train_y_first/blue_star_00/top_right/instructions/Audio18.wav,1363.7124380000023,1363.7104264000009,18,"[90.71056559999124, 18.163595100006205, 16.598402400006307, 19.156158500001766, 4.3569533999980194, 4.319175399999949, 5.4035524999926565, 11.341185500001302, 5.769933999996283, 6.951518099987879, 10.200566999992589, 13.607556299990392, 17.113348800005042, 16.224952399992617, 42.47990160000336, 21.53300829998625, 115.88970290000725, 6.884992399995099]","[0.03182119999837596, 0.0002066000015474856, 0.00027289999707136303, 0.03287799999816343, 0.013912599999457598, 0.06574279999767896, 0.048415799989015795, 0.03184690000489354, 0.07950729998992756, 0.06377320000319742, 0.07939139999507461, 13.607566199993016, 0.06222209999396, 16.224959799990756, 0.013904099992942065, 21.53301429998828, 115.88971010000387, 6.884999600006267]",0,,,,,,,,,,,,,,,,,,,,,,,,,,,,,,,,,,,,,,,,,,,,,,,,,,,,,,,,,,,,,,,,,,,,,,,,,,,,,,,,,,,,,,,,,,,,,,,,,,,,,,,,,,,,,,,,,,,,,,,,,,,,8J1937,train_y,blue_star,top_right,2025-05-15_15h32.50.340,HideSeek_v1,2022.2.5,59.95541714910406,
,,,,,,,,,,,,,,,3,0,3,0,2,0,2,0,,,,,,,,,,,,,,,,,,,,,,,,,,,,,,,conditions/schedules/train_y_first/blue_star_00/top_right/instructions/Slide19.png,conditions/schedules/train_y_first/blue_star_00/top_right/instructions/Audio19.wav,1370.6531181000028,1370.6498511199986,19,"[90.71056559999124, 18.163595100006205, 16.598402400006307, 19.156158500001766, 4.3569533999980194, 4.319175399999949, 5.4035524999926565, 11.341185500001302, 5.769933999996283, 6.951518099987879, 10.200566999992589, 13.607556299990392, 17.113348800005042, 16.224952399992617, 42.47990160000336, 21.53300829998625, 115.88970290000725, 6.884992399995099, 10.186151500005508]","[0.03182119999837596, 0.0002066000015474856, 0.00027289999707136303, 0.03287799999816343, 0.013912599999457598, 0.06574279999767896, 0.048415799989015795, 0.03184690000489354, 0.07950729998992756, 0.06377320000319742, 0.07939139999507461, 13.607566199993016, 0.06222209999396, 16.224959799990756, 0.013904099992942065, 21.53301429998828, 115.88971010000387, 0.04665630000818055, 10.186159500008216]",0,,,,,,,,,,,,,,,,,,,,,,,,,,,,,,,,,,,,,,,,,,,,,,,,,,,,,,,,,,,,,,,,,,,,,,,,,,,,,,,,,,,,,,,,,,,,,,,,,,,,,,,,,,,,,,,,,,,,,,,,,,,,8J1937,train_y,blue_star,top_right,2025-05-15_15h32.50.340,HideSeek_v1,2022.2.5,59.95541714910406,
,,,,,,,,,,,,,,,3,0,3,0,3,0,3,0,,,,,,,,,,,,,,,,,,,,,,,,,,,,,,,conditions/schedules/train_y_first/blue_star_00/top_right/instructions/Slide20.png,conditions/schedules/train_y_first/blue_star_00/top_right/instructions/Audio20.wav,1380.9100212000048,1380.9081347999963,20,"[90.71056559999124, 18.163595100006205, 16.598402400006307, 19.156158500001766, 4.3569533999980194, 4.319175399999949, 5.4035524999926565, 11.341185500001302, 5.769933999996283, 6.951518099987879, 10.200566999992589, 13.607556299990392, 17.113348800005042, 16.224952399992617, 42.47990160000336, 21.53300829998625, 115.88970290000725, 6.884992399995099, 10.186151500005508, 12.472899899992626]","[0.03182119999837596, 0.0002066000015474856, 0.00027289999707136303, 0.03287799999816343, 0.013912599999457598, 0.06574279999767896, 0.048415799989015795, 0.03184690000489354, 0.07950729998992756, 0.06377320000319742, 0.07939139999507461, 13.607566199993016, 0.06222209999396, 16.224959799990756, 0.013904099992942065, 21.53301429998828, 115.88971010000387, 0.04665630000818055, 0.03009139999630861, 12.472906700000749]",0,,,,,,,,,,,,,,,,,,,,,,,,,,,,,,,,,,,,,,,,,,,,,,,,,,,,,,,,,,,,,,,,,,,,,,,,,,,,,,,,,,,,,,,,,,,,,,,,,,,,,,,,,,,,,,,,,,,,,,,,,,,,8J1937,train_y,blue_star,top_right,2025-05-15_15h32.50.340,HideSeek_v1,2022.2.5,59.95541714910406,
1,9,5,4,5,-5,0,11,2,instr_dim1_2,,,,,,3,0,3,0,,,,,0,0,0,0,,,,,,,,,,,,,,,,,,,,,,,,,,,,,,,,,,,,,stimuli/alien_stimuli/11.png,conditions/schedules/train_y_first/blue_star_00/top_right/inputInstr_2.xlsx,stimuli/alien_stimuli/11.png,1393.4846500999993,1393.4846500999993,1393.4846500999993,1393.4846500999993,1393.4851162599998,return,5.6250085000065155,"[-0.16, -0.08, 0, 0.08, 0.16, 0.24, 0.32, 0.4, 0.48, 0.56]","[-0.4, -0.32, -0.24, -0.16, -0.08, 0, 0.08, 0.16, 0.24, 0.32]",5,5,4,9,0.0,0.4,1399.2842419999943,1399.2842419999943,1399.2842419999943,1399.2842419999943,1399.2842419999943,1399.2842419999943,1399.2842419999943,1399.2730606199927,0.3037181999970926,return,0.13370959999156184,stimuli/alien_stimuli/11.png,11,9,1,,,,,,,,,,,,,,,,,,,,,,,,,,,,,,,,,,,,,,,,,,,,,,,,,,,,,,,,,,,,,,,,,,,,,,,,,,,,,,,,,,,,,,,,,8J1937,train_y,blue_star,top_right,2025-05-15_15h32.50.340,HideSeek_v1,2022.2.5,59.95541714910406,
,,,,,,,,,,,30,,,,3,0,3,0,,,,,,,,,,,,,,,,,,,,,,,,,,,,,,,,,,,,,,,,,,,,,,,,,,,,,,,,,,,,,,,,,,,,,,,,,,,,,,21,0.7,0.33333333333333337,1,99,2,30,0,conditions/schedules/train_y_first/blue_star_00/top_right/inputTrain_2.1.xlsx,99,1,2,1,0,,,,,,,,,,,,,,,,,,,,,,,,,,,,,,,,,,,,,,,,,,,,,,,,,,,,,,,,,,,,,,,,,,,,,,,,,,,8J1937,train_y,blue_star,top_right,2025-05-15_15h32.50.340,HideSeek_v1,2022.2.5,59.95541714910406,
,,,,,,,,,,,,,,,4,0,4,0,0,0,0,0,,,,,,,,,,,,,,,,,,,,,,,,,,,,,,,conditions/schedules/train_y_first/blue_star_00/top_right/instructions/Slide21.png,conditions/schedules/train_y_first/blue_star_00/top_right/instructions/Audio21.wav,1399.5943382999976,1399.5920549000002,21,"[90.71056559999124, 18.163595100006205, 16.598402400006307, 19.156158500001766, 4.3569533999980194, 4.319175399999949, 5.4035524999926565, 11.341185500001302, 5.769933999996283, 6.951518099987879, 10.200566999992589, 13.607556299990392, 17.113348800005042, 16.224952399992617, 42.47990160000336, 21.53300829998625, 115.88970290000725, 6.884992399995099, 10.186151500005508, 12.472899899992626, 33.60520050000923]","[0.03182119999837596, 0.0002066000015474856, 0.00027289999707136303, 0.03287799999816343, 0.013912599999457598, 0.06574279999767896, 0.048415799989015795, 0.03184690000489354, 0.07950729998992756, 0.06377320000319742, 0.07939139999507461, 13.607566199993016, 0.06222209999396, 16.224959799990756, 0.013904099992942065, 21.53301429998828, 115.88971010000387, 0.04665630000818055, 0.03009139999630861, 12.472906700000749, 33.60520710000128]",0,,,,,,,,,,,,,,,,,,,,,,,,,,,,,,,,,,,,,,,,,,,,,,,,,,,,,,,,,,,,,,,,,,,,,,,,,,,,,,,,,,,,,,,,,,,,,,,,,,,,,,,,,,,,,,,,,,,,,,,,,,,,8J1937,train_y,blue_star,top_right,2025-05-15_15h32.50.340,HideSeek_v1,2022.2.5,59.95541714910406,
2,8,7,8,7,0,0,61,2,instr_dim1_2,,,,,,4,0,4,0,,,,,0,0,0,0,,,,,,,,,,,,,,,,,,,,,,,,,,,,,,,,,,,,,stimuli/alien_stimuli/61.png,conditions/schedules/train_y_first/blue_star_00/top_right/inputInstr_2.xlsx,stimuli/alien_stimuli/61.png,1433.3063091999938,1433.3063091999938,1433.3063091999938,1433.3063091999938,1433.301761159998,return,2.8210013000061736,"[-0.16, -0.08, 0, 0.08, 0.16, 0.24, 0.32, 0.4, 0.48, 0.56]","[-0.4, -0.32, -0.24, -0.16, -0.08, 0, 0.08, 0.16, 0.24, 0.32]",7,7,8,8,0.0,0.0,1436.2835114999907,1436.2835114999907,1436.2835114999907,1436.2835114999907,1436.2835114999907,1436.2835114999907,1436.2835114999907,1436.270067239998,6.356442499993136,return,6.195616599987261,stimuli/alien_stimuli/61.png,61,8,2,,,,,,,,,,,,,,,,,,,,,,,,,,,,,,,,,,,,,,,,,,,,,,,,,,,,,,,,,,,,,,,,,,,,,,,,,,,,,,,,,,,,,,,,,8J1937,train_y,blue_star,top_right,2025-05-15_15h32.50.340,HideSeek_v1,2022.2.5,59.95541714910406,
,,,,,,,,,,,30,,,,4,0,4,0,,,,,,,,,,,,,,,,,,,,,,,,,,,,,,,,,,,,,,,,,,,,,,,,,,,,,,,,,,,,,,,,,,,,,,,,,,,,,,21,0.7,0.33333333333333337,1,99,2,30,0,conditions/schedules/train_y_first/blue_star_00/top_right/inputTrain_2.1.xlsx,99,1,2,1,0,,,,,,,,,,,,,,,,,,,,,,,,,,,,,,,,,,,,,,,,,,,,,,,,,,,,,,,,,,,,,,,,,,,,,,,,,,,8J1937,train_y,blue_star,top_right,2025-05-15_15h32.50.340,HideSeek_v1,2022.2.5,59.95541714910406,
,,,,,,,,,,,,,,,5,0,5,0,0,0,0,0,,,,,,,,,,,,,,,,,,,,,,,,,,,,,,,conditions/schedules/train_y_first/blue_star_00/top_right/instructions/Slide22.png,conditions/schedules/train_y_first/blue_star_00/top_right/instructions/Audio22.wav,1442.6508839000016,1442.642002320006,22,"[90.71056559999124, 18.163595100006205, 16.598402400006307, 19.156158500001766, 4.3569533999980194, 4.319175399999949, 5.4035524999926565, 11.341185500001302, 5.769933999996283, 6.951518099987879, 10.200566999992589, 13.607556299990392, 17.113348800005042, 16.224952399992617, 42.47990160000336, 21.53300829998625, 115.88970290000725, 6.884992399995099, 10.186151500005508, 12.472899899992626, 33.60520050000923, 31.115611199988052]","[0.03182119999837596, 0.0002066000015474856, 0.00027289999707136303, 0.03287799999816343, 0.013912599999457598, 0.06574279999767896, 0.048415799989015795, 0.03184690000489354, 0.07950729998992756, 0.06377320000319742, 0.07939139999507461, 13.607566199993016, 0.06222209999396, 16.224959799990756, 0.013904099992942065, 21.53301429998828, 115.88971010000387, 0.04665630000818055, 0.03009139999630861, 12.472906700000749, 33.60520710000128, 31.11561769999389]",0,,,,,,,,,,,,,,,,,,,,,,,,,,,,,,,,,,,,,,,,,,,,,,,,,,,,,,,,,,,,,,,,,,,,,,,,,,,,,,,,,,,,,,,,,,,,,,,,,,,,,,,,,,,,,,,,,,,,,,,,,,,,8J1937,train_y,blue_star,top_right,2025-05-15_15h32.50.340,HideSeek_v1,2022.2.5,59.95541714910406,
,7,6,4,6,-3,0,31,,train_dim1_2,1,30,,,,5,0,5,0,,,,,,,,,0,0,0,0,0,0,0,0,0,0,0,0,,,,,,,,,,,,,,,,,,,,,,,,,stimuli/alien_stimuli/31.png,,,,,,,,,,,,,,,,,,,,,,,,,,,,,,,,,,,,,,,30,,,,,,,,1473.8710457999987,1473.8710457999987,1473.8710457999987,1473.8710457999987,1473.8710457999987,down,2.74620490000234,0,0,0,99,0.4,0.0,down,2.6356360999925528,,,,,,,,,,,,,,,,,,,,,,,,,,,,,,,,,,,,,,,,,,,,,,,,,,,,,,,,,,,,8J1937,train_y,blue_star,top_right,2025-05-15_15h32.50.340,HideSeek_v1,2022.2.5,59.95541714910406,
