trialInstr,x_fixStart,y_fixStart,x_corrSteps,y_corrSteps,x_nrSteps,y_nrSteps,alienID,trialLength,version,trialTrain,praclen,testlen,trial_label,break_on_off,beforeExpLoop.thisRepN,beforeExpLoop.thisTrialN,beforeExpLoop.thisN,beforeExpLoop.thisIndex,mini_instr_trials.thisRepN,mini_instr_trials.thisTrialN,mini_instr_trials.thisN,mini_instr_trials.thisIndex,instrLoop.thisRepN,instrLoop.thisTrialN,instrLoop.thisN,instrLoop.thisIndex,repeat_prac.thisRepN,repeat_prac.thisTrialN,repeat_prac.thisN,repeat_prac.thisIndex,trainLoop.thisRepN,trainLoop.thisTrialN,trainLoop.thisN,trainLoop.thisIndex,moveLoop_train.thisRepN,moveLoop_train.thisTrialN,moveLoop_train.thisN,moveLoop_train.thisIndex,experiment.thisRepN,experiment.thisTrialN,experiment.thisN,experiment.thisIndex,moveLoop_test.thisRepN,moveLoop_test.thisTrialN,moveLoop_test.thisN,moveLoop_test.thisIndex,mini_instr2_trials.thisRepN,mini_instr2_trials.thisTrialN,mini_instr2_trials.thisN,mini_instr2_trials.thisIndex,start_all_time,url,slideStim,audioStim,slides.started,sounds.started,nextButton.numClicks,nextButton.timesOn,nextButton.timesOff,prev_but.numClicks,prev_but.timesOn,prev_but.timesOff,alienStim,instrFile,alienStim_instr,gridImage_instr.started,startPos_3.started,key_instr.started,alienImage_3.started,sounds_1.started,key_instr.keys,key_instr.rt,all_x,all_y,FBy_corrSteps,FBy_fixStart,FBx_corrSteps,FBx_fixStart,FBy_pathSize_check,FBx_pathSize_check,gridImage_9.started,alienImageFB_3.started,startPosFB_3.started,keyFB_3.started,pathLine_ydir_2.started,pathLine_xdir_2.started,alienFace_3.started,sounds_2.started,RTFB_instr,keyFB_3.keys,keyFB_3.rt,draw_alienStim,draw_alienID,test_x,nrepcount,perfthres,percthres,earlierperf,earlystop,nextPrac,fileidx,praclen,saveACC_train,pracFile,nextPrac_train,addNrep,fileidx_endr,repExp,showearly,gridImage_4.started,startPos.started,movePos.started,key_resp.started,alienImage.started,buttonPress_train,RTchoice_train,cumAcctrain,aCorr,saveACC_choice,corrAns,x_movePos_end,y_movePos_end,key_resp.keys,key_resp.rt,wLy_dir,wLx_dir,x_movePos,y_movePos,text_2.started,text_2.stopped,aft_x_corrPos,aft_y_corrPos,y_pathSize_check,x_pathSize_check,y_pathdirY,x_pathdirY,x_pathdirX,x_corrPos,y_corrPos,gridImage_6.started,alienImageFB_2.started,startPosFB_2.started,movePosFB_2.started,keyFB_2.started,pathLine_xdir.started,pathLine_ydir.started,alienFace.started,sounds_4.started,RT_FBtrain,keyFB_2.keys,keyFB_2.rt,saveACC_pre,ACC,within_saveACC_train,earlystop_wloop,cumAcctrain_check,gridImage_3.started,alienImage_test.started,startPos_test.started,movePos_test.started,key_resp_test.started,wLy_dir_test,wLx_dir_test,buttonPress_test,RTchoice_test,cumAcctest,corrAns_test,key_resp_test.keys,key_resp_test.rt,text_3.started,text_3.stopped,total_time,end_all_time,key_resp_3.keys,slides_2.started,sounds_3.started,nextButton_2.numClicks,nextButton_2.timesOn,nextButton_2.timesOff,prev_but_2.numClicks,prev_but_2.timesOn,prev_but_2.timesOff,bye.started,participant,train_first,00_coordinate,starting corner,date,expName,psychopyVersion,frameRate,
,,,,,,,,,,,,,,,0,0,0,0,0,0,0,0,,,,,,,,,,,,,,,,,,,,,,,,,,,,,start_all_time,testround,conditions/schedules/train_y_first/red_square_00/bottom_right/instructions/Slide1.png,conditions/schedules/train_y_first/red_square_00/bottom_right/instructions/Audio1.wav,50.265650899964385,50.21518064982956,1,[5.145644000032917],[5.145651799975894],0,,,,,,,,,,,,,,,,,,,,,,,,,,,,,,,,,,,,,,,,,,,,,,,,,,,,,,,,,,,,,,,,,,,,,,,,,,,,,,,,,,,,,,,,,,,,,,,,,,,,,,,,,,,,,,,,,,,,,,,,,,,,903T5Z,train_y,red_square,bottom_right,2025-06-07_10h04.46.003,HideSeek_v1,2022.2.5,60.398472867477516,
,,,,,,,,,,,,,,,0,0,0,0,1,0,1,0,,,,,,,,,,,,,,,,,,,,,,,,,,,,,,,conditions/schedules/train_y_first/red_square_00/bottom_right/instructions/Slide2.png,conditions/schedules/train_y_first/red_square_00/bottom_right/instructions/Audio2.wav,55.4321859999327,55.433657449961174,2,"[5.145644000032917, 19.097939600003883]","[0.00021620001643896103, 19.0979459999362]",0,,,,,,,,,,,,,,,,,,,,,,,,,,,,,,,,,,,,,,,,,,,,,,,,,,,,,,,,,,,,,,,,,,,,,,,,,,,,,,,,,,,,,,,,,,,,,,,,,,,,,,,,,,,,,,,,,,,,,,,,,,,,903T5Z,train_y,red_square,bottom_right,2025-06-07_10h04.46.003,HideSeek_v1,2022.2.5,60.398472867477516,
,,,,,,,,,,,,,,,0,0,0,0,2,0,2,0,,,,,,,,,,,,,,,,,,,,,,,,,,,,,,,conditions/schedules/train_y_first/red_square_00/bottom_right/instructions/Slide3.png,conditions/schedules/train_y_first/red_square_00/bottom_right/instructions/Audio3.wav,74.60886879998725,74.59959045000141,3,"[5.145644000032917, 19.097939600003883, 16.619051399989985]","[0.00021620001643896103, 19.0979459999362, 16.619058300042525]",0,,,,,,,,,,,,,,,,,,,,,,,,,,,,,,,,,,,,,,,,,,,,,,,,,,,,,,,,,,,,,,,,,,,,,,,,,,,,,,,,,,,,,,,,,,,,,,,,,,,,,,,,,,,,,,,,,,,,,,,,,,,,903T5Z,train_y,red_square,bottom_right,2025-06-07_10h04.46.003,HideSeek_v1,2022.2.5,60.398472867477516,
,,,,,,,,,,,,,,,0,0,0,0,3,0,3,0,,,,,,,,,,,,,,,,,,,,,,,,,,,,,,,conditions/schedules/train_y_first/red_square_00/bottom_right/instructions/Slide4.png,conditions/schedules/train_y_first/red_square_00/bottom_right/instructions/Audio4.wav,91.3109346999554,91.31319986002055,4,"[5.145644000032917, 19.097939600003883, 16.619051399989985, 19.232758500031196]","[0.00021620001643896103, 19.0979459999362, 0.03373040002770722, 19.232765300082974]",0,,,,,,,,,,,,,,,,,,,,,,,,,,,,,,,,,,,,,,,,,,,,,,,,,,,,,,,,,,,,,,,,,,,,,,,,,,,,,,,,,,,,,,,,,,,,,,,,,,,,,,,,,,,,,,,,,,,,,,,,,,,,903T5Z,train_y,red_square,bottom_right,2025-06-07_10h04.46.003,HideSeek_v1,2022.2.5,60.398472867477516,
,,,,,,,,,,,,,,,0,0,0,0,4,0,4,0,,,,,,,,,,,,,,,,,,,,,,,,,,,,,,,conditions/schedules/train_y_first/red_square_00/bottom_right/instructions/Slide5.png,conditions/schedules/train_y_first/red_square_00/bottom_right/instructions/Audio5.wav,110.61158919997979,110.61271664995002,5,"[5.145644000032917, 19.097939600003883, 16.619051399989985, 19.232758500031196, 4.185286900028586]","[0.00021620001643896103, 19.0979459999362, 0.03373040002770722, 0.014150100061669946, 4.185294199967757]",0,,,,,,,,,,,,,,,,,,,,,,,,,,,,,,,,,,,,,,,,,,,,,,,,,,,,,,,,,,,,,,,,,,,,,,,,,,,,,,,,,,,,,,,,,,,,,,,,,,,,,,,,,,,,,,,,,,,,,,,,,,,,903T5Z,train_y,red_square,bottom_right,2025-06-07_10h04.46.003,HideSeek_v1,2022.2.5,60.398472867477516,
,,,,,,,,,,,,,,,0,0,0,0,5,0,5,0,,,,,,,,,,,,,,,,,,,,,,,,,,,,,,,conditions/schedules/train_y_first/red_square_00/bottom_right/instructions/Slide6.png,conditions/schedules/train_y_first/red_square_00/bottom_right/instructions/Audio6.wav,114.84791430004407,114.84936563998927,6,"[5.145644000032917, 19.097939600003883, 16.619051399989985, 19.232758500031196, 4.185286900028586, 4.969715900020674]","[0.00021620001643896103, 19.0979459999362, 0.03373040002770722, 0.014150100061669946, 0.048993100062943995, 4.9697225000709295]",0,,,,,,,,,,,,,,,,,,,,,,,,,,,,,,,,,,,,,,,,,,,,,,,,,,,,,,,,,,,,,,,,,,,,,,,,,,,,,,,,,,,,,,,,,,,,,,,,,,,,,,,,,,,,,,,,,,,,,,,,,,,,903T5Z,train_y,red_square,bottom_right,2025-06-07_10h04.46.003,HideSeek_v1,2022.2.5,60.398472867477516,
,,,,,,,,,,,,,,,0,0,0,0,6,0,6,0,,,,,,,,,,,,,,,,,,,,,,,,,,,,,,,conditions/schedules/train_y_first/red_square_00/bottom_right/instructions/Slide7.png,conditions/schedules/train_y_first/red_square_00/bottom_right/instructions/Audio7.wav,119.86821780004539,119.87023283997551,7,"[5.145644000032917, 19.097939600003883, 16.619051399989985, 19.232758500031196, 4.185286900028586, 4.969715900020674, 5.7379287999356166]","[0.00021620001643896103, 19.0979459999362, 0.03373040002770722, 0.014150100061669946, 0.048993100062943995, 0.11651249998249114, 5.737935799988918]",0,,,,,,,,,,,,,,,,,,,,,,,,,,,,,,,,,,,,,,,,,,,,,,,,,,,,,,,,,,,,,,,,,,,,,,,,,,,,,,,,,,,,,,,,,,,,,,,,,,,,,,,,,,,,,,,,,,,,,,,,,,,,903T5Z,train_y,red_square,bottom_right,2025-06-07_10h04.46.003,HideSeek_v1,2022.2.5,60.398472867477516,
,,,,,,,,,,,,,,,0,0,0,0,7,0,7,0,,,,,,,,,,,,,,,,,,,,,,,,,,,,,,,conditions/schedules/train_y_first/red_square_00/bottom_right/instructions/Slide8.png,conditions/schedules/train_y_first/red_square_00/bottom_right/instructions/Audio8.wav,125.65985579998232,125.65845493997914,8,"[5.145644000032917, 19.097939600003883, 16.619051399989985, 19.232758500031196, 4.185286900028586, 4.969715900020674, 5.7379287999356166, 12.089669700013474]","[0.00021620001643896103, 19.0979459999362, 0.03373040002770722, 0.014150100061669946, 0.048993100062943995, 0.11651249998249114, 0.0797131999861449, 12.089676700066775]",0,,,,,,,,,,,,,,,,,,,,,,,,,,,,,,,,,,,,,,,,,,,,,,,,,,,,,,,,,,,,,,,,,,,,,,,,,,,,,,,,,,,,,,,,,,,,,,,,,,,,,,,,,,,,,,,,,,,,,,,,,,,,903T5Z,train_y,red_square,bottom_right,2025-06-07_10h04.46.003,HideSeek_v1,2022.2.5,60.398472867477516,
,,,,,,,,,,,,,,,0,0,0,0,8,0,8,0,,,,,,,,,,,,,,,,,,,,,,,,,,,,,,,conditions/schedules/train_y_first/red_square_00/bottom_right/instructions/Slide9.png,conditions/schedules/train_y_first/red_square_00/bottom_right/instructions/Audio9.wav,137.82087379996665,137.81846605002647,9,"[5.145644000032917, 19.097939600003883, 16.619051399989985, 19.232758500031196, 4.185286900028586, 4.969715900020674, 5.7379287999356166, 12.089669700013474, 38.27651540003717]","[0.00021620001643896103, 19.0979459999362, 0.03373040002770722, 0.014150100061669946, 0.048993100062943995, 0.11651249998249114, 0.0797131999861449, 0.013853900018148124, 38.27652549999766]",0,,,,,,,,,,,,,,,,,,,,,,,,,,,,,,,,,,,,,,,,,,,,,,,,,,,,,,,,,,,,,,,,,,,,,,,,,,,,,,,,,,,,,,,,,,,,,,,,,,,,,,,,,,,,,,,,,,,,,,,,,,,,903T5Z,train_y,red_square,bottom_right,2025-06-07_10h04.46.003,HideSeek_v1,2022.2.5,60.398472867477516,
,,,,,,,,,,,,,,,0,0,0,0,9,0,9,0,,,,,,,,,,,,,,,,,,,,,,,,,,,,,,,conditions/schedules/train_y_first/red_square_00/bottom_right/instructions/Slide10.png,conditions/schedules/train_y_first/red_square_00/bottom_right/instructions/Audio10.wav,176.15085720003117,176.15029674002434,10,"[5.145644000032917, 19.097939600003883, 16.619051399989985, 19.232758500031196, 4.185286900028586, 4.969715900020674, 5.7379287999356166, 12.089669700013474, 38.27651540003717, 7.386038600001484]","[0.00021620001643896103, 19.0979459999362, 0.03373040002770722, 0.014150100061669946, 0.048993100062943995, 0.11651249998249114, 0.0797131999861449, 0.013853900018148124, 0.014011100050993264, 7.386045300052501]",0,,,,,,,,,,,,,,,,,,,,,,,,,,,,,,,,,,,,,,,,,,,,,,,,,,,,,,,,,,,,,,,,,,,,,,,,,,,,,,,,,,,,,,,,,,,,,,,,,,,,,,,,,,,,,,,,,,,,,,,,,,,,903T5Z,train_y,red_square,bottom_right,2025-06-07_10h04.46.003,HideSeek_v1,2022.2.5,60.398472867477516,
,,,,,,,,,,,,,,,0,0,0,0,10,0,10,0,,,,,,,,,,,,,,,,,,,,,,,,,,,,,,,conditions/schedules/train_y_first/red_square_00/bottom_right/instructions/Slide11.png,conditions/schedules/train_y_first/red_square_00/bottom_right/instructions/Audio11.wav,183.57533679995686,183.57300762993984,11,"[5.145644000032917, 19.097939600003883, 16.619051399989985, 19.232758500031196, 4.185286900028586, 4.969715900020674, 5.7379287999356166, 12.089669700013474, 38.27651540003717, 7.386038600001484, 10.30329760001041]","[0.00021620001643896103, 19.0979459999362, 0.03373040002770722, 0.014150100061669946, 0.048993100062943995, 0.11651249998249114, 0.0797131999861449, 0.013853900018148124, 0.014011100050993264, 0.00021899992134422064, 10.303304599947296]",0,,,,,,,,,,,,,,,,,,,,,,,,,,,,,,,,,,,,,,,,,,,,,,,,,,,,,,,,,,,,,,,,,,,,,,,,,,,,,,,,,,,,,,,,,,,,,,,,,,,,,,,,,,,,,,,,,,,,,,,,,,,,903T5Z,train_y,red_square,bottom_right,2025-06-07_10h04.46.003,HideSeek_v1,2022.2.5,60.398472867477516,
,,,,,,,,,,,,,,,0,0,0,0,11,0,11,0,,,,,,,,,,,,,,,,,,,,,,,,,,,,,,,conditions/schedules/train_y_first/red_square_00/bottom_right/instructions/Slide12.png,conditions/schedules/train_y_first/red_square_00/bottom_right/instructions/Audio12.wav,193.95009539998136,193.94832995004253,12,"[5.145644000032917, 19.097939600003883, 16.619051399989985, 19.232758500031196, 4.185286900028586, 4.969715900020674, 5.7379287999356166, 12.089669700013474, 38.27651540003717, 7.386038600001484, 10.30329760001041, 13.924072199966758]","[0.00021620001643896103, 19.0979459999362, 0.03373040002770722, 0.014150100061669946, 0.048993100062943995, 0.11651249998249114, 0.0797131999861449, 0.013853900018148124, 0.014011100050993264, 0.00021899992134422064, 10.303304599947296, 13.924078599899076]",0,,,,,,,,,,,,,,,,,,,,,,,,,,,,,,,,,,,,,,,,,,,,,,,,,,,,,,,,,,,,,,,,,,,,,,,,,,,,,,,,,,,,,,,,,,,,,,,,,,,,,,,,,,,,,,,,,,,,,,,,,,,,903T5Z,train_y,red_square,bottom_right,2025-06-07_10h04.46.003,HideSeek_v1,2022.2.5,60.398472867477516,
1,7,3,7,8,0,5,11,2,instr_dim1_1,,,,,,0,0,0,0,,,,,0,0,0,0,,,,,,,,,,,,,,,,,,,,,,,,,,,,,,,,,,,,,stimuli/alien_stimuli/11.png,conditions/schedules/train_y_first/red_square_00/bottom_right/inputInstr_1.xlsx,stimuli/alien_stimuli/11.png,207.98009690002073,207.98009690002073,207.98009690002073,207.98009690002073,207.97685346998043,return,9.609447599970736,"[-0.16, -0.08, 0, 0.08, 0.16, 0.24, 0.32, 0.4, 0.48, 0.56]","[-0.4, -0.32, -0.24, -0.16, -0.08, 0, 0.08, 0.16, 0.24, 0.32]",8,3,7,7,0.4,0.0,217.74798570002895,217.74798570002895,217.74798570002895,217.74798570002895,217.74798570002895,217.74798570002895,217.74798570002895,217.73500118001832,8.457645900081843,return,8.296715499949642,stimuli/alien_stimuli/11.png,11,7,1,,,,,,,,,,,,,,,,,,,,,,,,,,,,,,,,,,,,,,,,,,,,,,,,,,,,,,,,,,,,,,,,,,,,,,,,,,,,,,,,,,,,,,,,,903T5Z,train_y,red_square,bottom_right,2025-06-07_10h04.46.003,HideSeek_v1,2022.2.5,60.398472867477516,
,,,,,,,,,,,30,,,,0,0,0,0,,,,,,,,,,,,,,,,,,,,,,,,,,,,,,,,,,,,,,,,,,,,,,,,,,,,,,,,,,,,,,,,,,,,,,,,,,,,,,21,0.7,0,0,99,1,30,0,conditions/schedules/train_y_first/red_square_00/bottom_right/inputTrain_1.1.xlsx,99,1,1,1,0,,,,,,,,,,,,,,,,,,,,,,,,,,,,,,,,,,,,,,,,,,,,,,,,,,,,,,,,,,,,,,,,,,,,,,,,,,,903T5Z,train_y,red_square,bottom_right,2025-06-07_10h04.46.003,HideSeek_v1,2022.2.5,60.398472867477516,
,,,,,,,,,,,,,,,1,0,1,0,0,0,0,0,,,,,,,,,,,,,,,,,,,,,,,,,,,,,,,conditions/schedules/train_y_first/red_square_00/bottom_right/instructions/Slide13.png,conditions/schedules/train_y_first/red_square_00/bottom_right/instructions/Audio13.wav,226.20563889993355,226.20840068996185,13,"[5.145644000032917, 19.097939600003883, 16.619051399989985, 19.232758500031196, 4.185286900028586, 4.969715900020674, 5.7379287999356166, 12.089669700013474, 38.27651540003717, 7.386038600001484, 10.30329760001041, 13.924072199966758, 17.94830270006787]","[0.00021620001643896103, 19.0979459999362, 0.03373040002770722, 0.014150100061669946, 0.048993100062943995, 0.11651249998249114, 0.0797131999861449, 0.013853900018148124, 0.014011100050993264, 0.00021899992134422064, 10.303304599947296, 13.924078599899076, 17.94830920000095]",0,,,,,,,,,,,,,,,,,,,,,,,,,,,,,,,,,,,,,,,,,,,,,,,,,,,,,,,,,,,,,,,,,,,,,,,,,,,,,,,,,,,,,,,,,,,,,,,,,,,,,,,,,,,,,,,,,,,,,,,,,,,,903T5Z,train_y,red_square,bottom_right,2025-06-07_10h04.46.003,HideSeek_v1,2022.2.5,60.398472867477516,
,,,,,,,,,,,,,,,1,0,1,0,1,0,1,0,,,,,,,,,,,,,,,,,,,,,,,,,,,,,,,conditions/schedules/train_y_first/red_square_00/bottom_right/instructions/Slide14.png,conditions/schedules/train_y_first/red_square_00/bottom_right/instructions/Audio14.wav,244.22227779997047,244.22354144993005,14,"[5.145644000032917, 19.097939600003883, 16.619051399989985, 19.232758500031196, 4.185286900028586, 4.969715900020674, 5.7379287999356166, 12.089669700013474, 38.27651540003717, 7.386038600001484, 10.30329760001041, 13.924072199966758, 17.94830270006787, 16.896391000016592]","[0.00021620001643896103, 19.0979459999362, 0.03373040002770722, 0.014150100061669946, 0.048993100062943995, 0.11651249998249114, 0.0797131999861449, 0.013853900018148124, 0.014011100050993264, 0.00021899992134422064, 10.303304599947296, 13.924078599899076, 0.00020790006965398788, 16.8963998000836]",0,,,,,,,,,,,,,,,,,,,,,,,,,,,,,,,,,,,,,,,,,,,,,,,,,,,,,,,,,,,,,,,,,,,,,,,,,,,,,,,,,,,,,,,,,,,,,,,,,,,,,,,,,,,,,,,,,,,,,,,,,,,,903T5Z,train_y,red_square,bottom_right,2025-06-07_10h04.46.003,HideSeek_v1,2022.2.5,60.398472867477516,
2,5,3,5,3,0,0,16,2,instr_dim1_1,,,,,,1,0,1,0,,,,,0,0,0,0,,,,,,,,,,,,,,,,,,,,,,,,,,,,,,,,,,,,,stimuli/alien_stimuli/16.png,conditions/schedules/train_y_first/red_square_00/bottom_right/inputInstr_1.xlsx,stimuli/alien_stimuli/16.png,261.2202180000022,261.2202180000022,261.2202180000022,261.2202180000022,261.22089966993076,return,6.59823750006035,"[-0.16, -0.08, 0, 0.08, 0.16, 0.24, 0.32, 0.4, 0.48, 0.56]","[-0.4, -0.32, -0.24, -0.16, -0.08, 0, 0.08, 0.16, 0.24, 0.32]",3,3,5,5,0.0,0.0,267.96416129998397,267.96416129998397,267.96416129998397,267.96416129998397,267.96416129998397,267.96416129998397,267.96416129998397,267.95975397997535,7.523944600019604,return,7.378911099978723,stimuli/alien_stimuli/16.png,16,5,2,,,,,,,,,,,,,,,,,,,,,,,,,,,,,,,,,,,,,,,,,,,,,,,,,,,,,,,,,,,,,,,,,,,,,,,,,,,,,,,,,,,,,,,,,903T5Z,train_y,red_square,bottom_right,2025-06-07_10h04.46.003,HideSeek_v1,2022.2.5,60.398472867477516,
,,,,,,,,,,,30,,,,1,0,1,0,,,,,,,,,,,,,,,,,,,,,,,,,,,,,,,,,,,,,,,,,,,,,,,,,,,,,,,,,,,,,,,,,,,,,,,,,,,,,,21,0.7,0,0,99,1,30,0,conditions/schedules/train_y_first/red_square_00/bottom_right/inputTrain_1.1.xlsx,99,1,1,1,0,,,,,,,,,,,,,,,,,,,,,,,,,,,,,,,,,,,,,,,,,,,,,,,,,,,,,,,,,,,,,,,,,,,,,,,,,,,903T5Z,train_y,red_square,bottom_right,2025-06-07_10h04.46.003,HideSeek_v1,2022.2.5,60.398472867477516,
,,,,,,,,,,,,,,,2,0,2,0,0,0,0,0,,,,,,,,,,,,,,,,,,,,,,,,,,,,,,,conditions/schedules/train_y_first/red_square_00/bottom_right/instructions/Slide15.png,conditions/schedules/train_y_first/red_square_00/bottom_right/instructions/Audio15.wav,275.50402330001816,275.4993868899415,15,"[5.145644000032917, 19.097939600003883, 16.619051399989985, 19.232758500031196, 4.185286900028586, 4.969715900020674, 5.7379287999356166, 12.089669700013474, 38.27651540003717, 7.386038600001484, 10.30329760001041, 13.924072199966758, 17.94830270006787, 16.896391000016592, 44.54606269998476]","[0.00021620001643896103, 19.0979459999362, 0.03373040002770722, 0.014150100061669946, 0.048993100062943995, 0.11651249998249114, 0.0797131999861449, 0.013853900018148124, 0.014011100050993264, 0.00021899992134422064, 10.303304599947296, 13.924078599899076, 0.00020790006965398788, 16.8963998000836, 44.54606970003806]",0,,,,,,,,,,,,,,,,,,,,,,,,,,,,,,,,,,,,,,,,,,,,,,,,,,,,,,,,,,,,,,,,,,,,,,,,,,,,,,,,,,,,,,,,,,,,,,,,,,,,,,,,,,,,,,,,,,,,,,,,,,,,903T5Z,train_y,red_square,bottom_right,2025-06-07_10h04.46.003,HideSeek_v1,2022.2.5,60.398472867477516,
,,,,,,,,,,,,,,,2,0,2,0,1,0,1,0,,,,,,,,,,,,,,,,,,,,,,,,,,,,,,,conditions/schedules/train_y_first/red_square_00/bottom_right/instructions/Slide16.png,conditions/schedules/train_y_first/red_square_00/bottom_right/instructions/Audio16.wav,320.1243177000433,320.1197263500071,16,"[5.145644000032917, 19.097939600003883, 16.619051399989985, 19.232758500031196, 4.185286900028586, 4.969715900020674, 5.7379287999356166, 12.089669700013474, 38.27651540003717, 7.386038600001484, 10.30329760001041, 13.924072199966758, 17.94830270006787, 16.896391000016592, 44.54606269998476, 22.010976000106893]","[0.00021620001643896103, 19.0979459999362, 0.03373040002770722, 0.014150100061669946, 0.048993100062943995, 0.11651249998249114, 0.0797131999861449, 0.013853900018148124, 0.014011100050993264, 0.00021899992134422064, 10.303304599947296, 13.924078599899076, 0.00020790006965398788, 16.8963998000836, 0.014157700003124774, 22.01098230003845]",0,,,,,,,,,,,,,,,,,,,,,,,,,,,,,,,,,,,,,,,,,,,,,,,,,,,,,,,,,,,,,,,,,,,,,,,,,,,,,,,,,,,,,,,,,,,,,,,,,,,,,,,,,,,,,,,,,,,,,,,,,,,,903T5Z,train_y,red_square,bottom_right,2025-06-07_10h04.46.003,HideSeek_v1,2022.2.5,60.398472867477516,
,5,0,5,1,0,1,15,,train_dim1_1,1,30,,,,2,0,2,0,,,,,,,,,0,0,0,0,0,0,0,0,0,0,0,0,,,,,,,,,,,,,,,,,,,,,,,,,stimuli/alien_stimuli/15.png,,,,,,,,,,,,,,,,,,,,,,,,,,,,,,,,,,,,,,,30,,,,,,,,342.23718619998544,342.23718619998544,342.23718619998544,342.23718619998544,342.23718619998544,right,7.802045900025405,0,0,0,99,0.32,-0.4,right,7.695646499982104,,,,,,,,,,,,,,,,,,,,,,,,,,,,,,,,,,,,,,,,,,,,,,,,,,,,,,,,,,,,903T5Z,train_y,red_square,bottom_right,2025-06-07_10h04.46.003,HideSeek_v1,2022.2.5,60.398472867477516,
,5,0,5,1,0,1,15,,train_dim1_1,1,30,,,,2,0,2,0,,,,,,,,,0,0,0,0,0,0,0,0,1,0,1,0,,,,,,,,,,,,,,,,,,,,,,,,,,,,,,,,,,,,,,,,,,,,,,,,,,,,,,,,,,,,,,,,30,,,,,,,,350.0296885999851,350.0296885999851,350.0296885999851,350.0296885999851,350.0296885999851,left,0.7434311000397429,0,0,0,99,0.24,-0.4,left,0.6578430000226945,,,,,,,,,,,,,,,,,,,,,,,,,,,,,,,,,,,,,,,,,,,,,,,,,,,,,,,,,,,,903T5Z,train_y,red_square,bottom_right,2025-06-07_10h04.46.003,HideSeek_v1,2022.2.5,60.398472867477516,
,5,0,5,1,0,1,15,,train_dim1_1,1,30,,,,2,0,2,0,,,,,,,,,0,0,0,0,0,0,0,0,2,0,2,0,,,,,,,,,,,,,,,,,,,,,,,,,,,,,,,,,,,,,,,,,,,,,,,,,,,,,,,,,,,,,,,,30,,,,,,,,350.7801156999776,350.7801156999776,350.7801156999776,350.7801156999776,350.7801156999776,return,4.713221999933012,0,1,0,0,0.24,-0.4,return,4.62503250001464,0,0,0.24,-0.4,,,,,,,,,,,,,,,,,,,,,,,,,,,,,,,,,,,,,,,,,,,,,,,,,,,,,,,,903T5Z,train_y,red_square,bottom_right,2025-06-07_10h04.46.003,HideSeek_v1,2022.2.5,60.398472867477516,
,8,2,8,2,0,0,16,,train_dim1_1,2,30,,,,2,0,2,0,,,,,,,,,0,0,0,0,0,1,1,1,0,0,0,0,,,,,,,,,,,,,,,,,,,,,,,,,stimuli/alien_stimuli/16.png,,,,,,,,,,,,,,,,,,,,,,,,,,,,,stimuli/alien_stimuli/15.png,15,5,3,,,,,,,30,,,,,,,,433.52996139996685,433.52996139996685,433.52996139996685,433.52996139996685,433.52996139996685,left,3.0710333000170067,0,1,0,99,0.39999999999999997,-0.24,left,2.9619408000726253,,,,,431.94548719993327,433.52996139996685,0.24,-0.32,0.08,0.0,-0.36,0.24,0.24,0.24,-0.32,357.08784809999634,357.08784809999634,357.08784809999634,357.08784809999634,357.08784809999634,357.08784809999634,357.08784809999634,357.08784809999634,357.08363428999434,74.99791090004146,return,74.82732969999779,,,,,,,,,,,,,,,,,,,,,,,,,,,,,,,,,903T5Z,train_y,red_square,bottom_right,2025-06-07_10h04.46.003,HideSeek_v1,2022.2.5,60.398472867477516,
,8,2,8,2,0,0,16,,train_dim1_1,2,30,,,,2,0,2,0,,,,,,,,,0,0,0,0,0,1,1,1,1,0,1,0,,,,,,,,,,,,,,,,,,,,,,,,,,,,,,,,,,,,,,,,,,,,,,,,,,,,,,,,,,,,,,,,30,,,,,,,,436.5972063000081,436.5972063000081,436.5972063000081,436.5972063000081,436.5972063000081,return,0.8267747999634594,0,1,0,0,0.39999999999999997,-0.24,return,0.723833900061436,0,-1,0.39999999999999997,-0.24,,,,,,,,,,,,,,,,,,,,,,,,,,,,,,,,,,,,,,,,,,,,,,,,,,,,,,,,903T5Z,train_y,red_square,bottom_right,2025-06-07_10h04.46.003,HideSeek_v1,2022.2.5,60.398472867477516,
,7,3,7,6,0,3,13,,train_dim1_1,3,30,,,,2,0,2,0,,,,,,,,,0,0,0,0,0,2,2,2,0,0,0,0,,,,,,,,,,,,,,,,,,,,,,,,,stimuli/alien_stimuli/13.png,,,,,,,,,,,,,,,,,,,,,,,,,,,,,stimuli/alien_stimuli/16.png,16,8,4,,,,,,,30,,,,,,,,446.54808259999845,446.54808259999845,446.54808259999845,446.54808259999845,446.54808259999845,left,2.940158399986103,0,1,0,99,0.32,-0.16,left,2.847425299929455,,,,,444.98983269999735,446.54808259999845,0.48,-0.24,0.0,0.0,-0.24,0.48,0.48,0.48,-0.24,438.9834652999416,438.9834652999416,438.9834652999416,438.9834652999416,438.9834652999416,438.9834652999416,438.9834652999416,438.9834652999416,438.9849002799485,6.123762400005944,return,5.98594939999748,,,,,,,,,,,,,,,,,,,,,,,,,,,,,,,,,903T5Z,train_y,red_square,bottom_right,2025-06-07_10h04.46.003,HideSeek_v1,2022.2.5,60.398472867477516,
,7,3,7,6,0,3,13,,train_dim1_1,3,30,,,,2,0,2,0,,,,,,,,,0,0,0,0,0,2,2,2,1,0,1,0,,,,,,,,,,,,,,,,,,,,,,,,,,,,,,,,,,,,,,,,,,,,,,,,,,,,,,,,,,,,,,,,30,,,,,,,,449.49490039993543,449.49490039993543,449.49490039993543,449.49490039993543,449.49490039993543,left,0.35940680000931025,0,1,0,99,0.24,-0.16,left,0.27764889993704855,,,,,,,,,,,,,,,,,,,,,,,,,,,,,,,,,,,,,,,,,,,,,,,,,,,,,,,,,,,,903T5Z,train_y,red_square,bottom_right,2025-06-07_10h04.46.003,HideSeek_v1,2022.2.5,60.398472867477516,
,7,3,7,6,0,3,13,,train_dim1_1,3,30,,,,2,0,2,0,,,,,,,,,0,0,0,0,0,2,2,2,2,0,2,0,,,,,,,,,,,,,,,,,,,,,,,,,,,,,,,,,,,,,,,,,,,,,,,,,,,,,,,,,,,,,,,,30,,,,,,,,449.86583419993985,449.86583419993985,449.86583419993985,449.86583419993985,449.86583419993985,left,0.2266374999890104,0,1,0,99,0.15999999999999998,-0.16,left,0.14009690005332232,,,,,,,,,,,,,,,,,,,,,,,,,,,,,,,,,,,,,,,,,,,,,,,,,,,,,,,,,,,,903T5Z,train_y,red_square,bottom_right,2025-06-07_10h04.46.003,HideSeek_v1,2022.2.5,60.398472867477516,
,7,3,7,6,0,3,13,,train_dim1_1,3,30,,,,2,0,2,0,,,,,,,,,0,0,0,0,0,2,2,2,3,0,3,0,,,,,,,,,,,,,,,,,,,,,,,,,,,,,,,,,,,,,,,,,,,,,,,,,,,,,,,,,,,,,,,,30,,,,,,,,450.10143899999093,450.10143899999093,450.10143899999093,450.10143899999093,450.10143899999093,left,1.293999299989082,0,1,0,99,0.07999999999999997,-0.16,left,1.2051116999937221,,,,,,,,,,,,,,,,,,,,,,,,,,,,,,,,,,,,,,,,,,,,,,,,,,,,,,,,,,,,903T5Z,train_y,red_square,bottom_right,2025-06-07_10h04.46.003,HideSeek_v1,2022.2.5,60.398472867477516,
,7,3,7,6,0,3,13,,train_dim1_1,3,30,,,,2,0,2,0,,,,,,,,,0,0,0,0,0,2,2,2,4,0,4,0,,,,,,,,,,,,,,,,,,,,,,,,,,,,,,,,,,,,,,,,,,,,,,,,,,,,,,,,,,,,,,,,30,,,,,,,,451.3999440999469,451.3999440999469,451.3999440999469,451.3999440999469,451.3999440999469,return,0.8097165999934077,0,0,0,0,0.07999999999999997,-0.16,return,0.7275114000076428,0,-5,0.07999999999999997,-0.16,,,,,,,,,,,,,,,,,,,,,,,,,,,,,,,,,,,,,,,,,,,,,,,,,,,,,,,,903T5Z,train_y,red_square,bottom_right,2025-06-07_10h04.46.003,HideSeek_v1,2022.2.5,60.398472867477516,
,5,1,5,5,0,4,12,,train_dim1_1,4,30,,,,2,0,2,0,,,,,,,,,0,0,0,0,0,3,3,3,0,0,0,0,,,,,,,,,,,,,,,,,,,,,,,,,stimuli/alien_stimuli/12.png,,,,,,,,,,,,,,,,,,,,,,,,,,,,,stimuli/alien_stimuli/13.png,13,7,5,,,,,,,30,,,,,,,,458.85862169996835,458.85862169996835,458.85862169996835,458.85862169996835,458.85862169996835,up,2.056100200046785,0,0,0,99,0.24,-0.24,up,1.9674555000383407,,,,,457.3000900000334,458.85862169996835,0.4,0.08,0.24,0.0,-0.04,0.4,0.4,0.4,0.08,453.7761817999417,453.7761817999417,453.7761817999417,453.7761817999417,453.7761817999417,453.7761817999417,453.7761817999417,453.7761817999417,453.7636502699577,3.6387537999544293,return,3.500898100086488,,,,,,,,,,,,,,,,,,,,,,,,,,,,,,,,,903T5Z,train_y,red_square,bottom_right,2025-06-07_10h04.46.003,HideSeek_v1,2022.2.5,60.398472867477516,
,5,1,5,5,0,4,12,,train_dim1_1,4,30,,,,2,0,2,0,,,,,,,,,0,0,0,0,0,3,3,3,1,0,1,0,,,,,,,,,,,,,,,,,,,,,,,,,,,,,,,,,,,,,,,,,,,,,,,,,,,,,,,,,,,,,,,,30,,,,,,,,460.9216184000252,460.9216184000252,460.9216184000252,460.9216184000252,460.9216184000252,up,0.19266709999646991,0,0,0,99,0.24,-0.15999999999999998,up,0.11569140001665801,,,,,,,,,,,,,,,,,,,,,,,,,,,,,,,,,,,,,,,,,,,,,,,,,,,,,,,,,,,,903T5Z,train_y,red_square,bottom_right,2025-06-07_10h04.46.003,HideSeek_v1,2022.2.5,60.398472867477516,
,5,1,5,5,0,4,12,,train_dim1_1,4,30,,,,2,0,2,0,,,,,,,,,0,0,0,0,0,3,3,3,2,0,2,0,,,,,,,,,,,,,,,,,,,,,,,,,,,,,,,,,,,,,,,,,,,,,,,,,,,,,,,,,,,,,,,,30,,,,,,,,461.12149389996193,461.12149389996193,461.12149389996193,461.12149389996193,461.12149389996193,up,0.24313729989808053,0,0,0,99,0.24,-0.07999999999999997,up,0.15869089995976537,,,,,,,,,,,,,,,,,,,,,,,,,,,,,,,,,,,,,,,,,,,,,,,,,,,,,,,,,,,,903T5Z,train_y,red_square,bottom_right,2025-06-07_10h04.46.003,HideSeek_v1,2022.2.5,60.398472867477516,
,5,1,5,5,0,4,12,,train_dim1_1,4,30,,,,2,0,2,0,,,,,,,,,0,0,0,0,0,3,3,3,3,0,3,0,,,,,,,,,,,,,,,,,,,,,,,,,,,,,,,,,,,,,,,,,,,,,,,,,,,,,,,,,,,,,,,,30,,,,,,,,461.3710527999792,461.3710527999792,461.3710527999792,461.3710527999792,461.3710527999792,up,0.8599651000695303,0,0,0,99,0.24,2.7755575615628914e-17,up,0.7781815000344068,,,,,,,,,,,,,,,,,,,,,,,,,,,,,,,,,,,,,,,,,,,,,,,,,,,,,,,,,,,,903T5Z,train_y,red_square,bottom_right,2025-06-07_10h04.46.003,HideSeek_v1,2022.2.5,60.398472867477516,
,5,1,5,5,0,4,12,,train_dim1_1,4,30,,,,2,0,2,0,,,,,,,,,0,0,0,0,0,3,3,3,4,0,4,0,,,,,,,,,,,,,,,,,,,,,,,,,,,,,,,,,,,,,,,,,,,,,,,,,,,,,,,,,,,,,,,,30,,,,,,,,462.2380306000123,462.2380306000123,462.2380306000123,462.2380306000123,462.2380306000123,return,0.6437872999813408,1,0,0,1,0.24,2.7755575615628914e-17,return,0.5650177999632433,4,-5,0.24,2.7755575615628914e-17,,,,,,,,,,,,,,,,,,,,,,,,,,,,,,,,,,,,,,,,,,,,,,,,,,,,,,,,903T5Z,train_y,red_square,bottom_right,2025-06-07_10h04.46.003,HideSeek_v1,2022.2.5,60.398472867477516,
,8,3,8,8,0,5,11,,train_dim1_1,5,30,,,,2,0,2,0,,,,,,,,,0,0,0,0,0,4,4,4,0,0,0,0,,,,,,,,,,,,,,,,,,,,,,,,,stimuli/alien_stimuli/11.png,,,,,,,,,,,,,,,,,,,,,,,,,,,,,stimuli/alien_stimuli/12.png,12,5,6,,,,,,,30,,,,,,,,470.04824819997884,470.04824819997884,470.04824819997884,470.04824819997884,470.04824819997884,left,3.0252236999804154,1,0,0,99,0.39999999999999997,-0.16,left,2.937689600046724,,,,,468.4924075000454,470.04824819997884,0.24,0,0.32,0.0,-0.16,0.24,0.24,0.24,0,464.4613588999491,464.4613588999491,464.4613588999491,464.4613588999491,464.4613588999491,464.4613588999491,464.4613588999491,464.4613588999491,464.45596938002853,4.15556420001667,return,4.009304499952123,,,,,,,,,,,,,,,,,,,,,,,,,,,,,,,,,903T5Z,train_y,red_square,bottom_right,2025-06-07_10h04.46.003,HideSeek_v1,2022.2.5,60.398472867477516,
,8,3,8,8,0,5,11,,train_dim1_1,5,30,,,,2,0,2,0,,,,,,,,,0,0,0,0,0,4,4,4,1,0,1,0,,,,,,,,,,,,,,,,,,,,,,,,,,,,,,,,,,,,,,,,,,,,,,,,,,,,,,,,,,,,,,,,30,,,,,,,,473.08132580004167,473.08132580004167,473.08132580004167,473.08132580004167,473.08132580004167,left,0.7925815000198781,1,0,0,99,0.31999999999999995,-0.16,left,0.7056399999419227,,,,,,,,,,,,,,,,,,,,,,,,,,,,,,,,,,,,,,,,,,,,,,,,,,,,,,,,,,,,903T5Z,train_y,red_square,bottom_right,2025-06-07_10h04.46.003,HideSeek_v1,2022.2.5,60.398472867477516,
,8,3,8,8,0,5,11,,train_dim1_1,5,30,,,,2,0,2,0,,,,,,,,,0,0,0,0,0,4,4,4,2,0,2,0,,,,,,,,,,,,,,,,,,,,,,,,,,,,,,,,,,,,,,,,,,,,,,,,,,,,,,,,,,,,,,,,30,,,,,,,,473.88138939999044,473.88138939999044,473.88138939999044,473.88138939999044,473.88138939999044,return,0.7604150000261143,1,0,0,0,0.31999999999999995,-0.16,return,0.674627700005658,4,-7,0.31999999999999995,-0.16,,,,,,,,,,,,,,,,,,,,,,,,,,,,,,,,,,,,,,,,,,,,,,,,,,,,,,,,903T5Z,train_y,red_square,bottom_right,2025-06-07_10h04.46.003,HideSeek_v1,2022.2.5,60.398472867477516,
,6,4,6,8,0,4,12,,train_dim1_1,6,30,,,,2,0,2,0,,,,,,,,,0,0,0,0,0,5,5,5,0,0,0,0,,,,,,,,,,,,,,,,,,,,,,,,,stimuli/alien_stimuli/12.png,,,,,,,,,,,,,,,,,,,,,,,,,,,,,stimuli/alien_stimuli/11.png,11,8,7,,,,,,,30,,,,,,,,480.39087999996264,480.39087999996264,480.39087999996264,480.39087999996264,480.39087999996264,up,3.1250683999387547,1,0,0,99,0.32,0.0,up,3.035753400065005,,,,,478.83442740002647,480.39087999996264,0.48,0.24,0.4,0.0,0.039999999999999994,0.48,0.48,0.48,0.24,476.2152238000417,476.2152238000417,476.2152238000417,476.2152238000417,476.2152238000417,476.2152238000417,476.2152238000417,476.2152238000417,476.21570307998917,2.7377897000405937,return,2.601498799980618,,,,,,,,,,,,,,,,,,,,,,,,,,,,,,,,,903T5Z,train_y,red_square,bottom_right,2025-06-07_10h04.46.003,HideSeek_v1,2022.2.5,60.398472867477516,
,6,4,6,8,0,4,12,,train_dim1_1,6,30,,,,2,0,2,0,,,,,,,,,0,0,0,0,0,5,5,5,1,0,1,0,,,,,,,,,,,,,,,,,,,,,,,,,,,,,,,,,,,,,,,,,,,,,,,,,,,,,,,,,,,,,,,,30,,,,,,,,483.5220398999518,483.5220398999518,483.5220398999518,483.5220398999518,483.5220398999518,up,0.27641319995746017,1,0,0,99,0.32,0.08,up,0.18680939998012036,,,,,,,,,,,,,,,,,,,,,,,,,,,,,,,,,,,,,,,,,,,,,,,,,,,,,,,,,,,,903T5Z,train_y,red_square,bottom_right,2025-06-07_10h04.46.003,HideSeek_v1,2022.2.5,60.398472867477516,
,6,4,6,8,0,4,12,,train_dim1_1,6,30,,,,2,0,2,0,,,,,,,,,0,0,0,0,0,5,5,5,2,0,2,0,,,,,,,,,,,,,,,,,,,,,,,,,,,,,,,,,,,,,,,,,,,,,,,,,,,,,,,,,,,,,,,,30,,,,,,,,483.8060786999995,483.8060786999995,483.8060786999995,483.8060786999995,483.8060786999995,up,0.2600739999907091,1,0,0,99,0.32,0.16,up,0.17455999995581806,,,,,,,,,,,,,,,,,,,,,,,,,,,,,,,,,,,,,,,,,,,,,,,,,,,,,,,,,,,,903T5Z,train_y,red_square,bottom_right,2025-06-07_10h04.46.003,HideSeek_v1,2022.2.5,60.398472867477516,
,6,4,6,8,0,4,12,,train_dim1_1,6,30,,,,2,0,2,0,,,,,,,,,0,0,0,0,0,5,5,5,3,0,3,0,,,,,,,,,,,,,,,,,,,,,,,,,,,,,,,,,,,,,,,,,,,,,,,,,,,,,,,,,,,,,,,,30,,,,,,,,484.07270280004013,484.07270280004013,484.07270280004013,484.07270280004013,484.07270280004013,up,0.29329179995693266,1,0,0,99,0.32,0.24,up,0.2145913999993354,,,,,,,,,,,,,,,,,,,,,,,,,,,,,,,,,,,,,,,,,,,,,,,,,,,,,,,,,,,,903T5Z,train_y,red_square,bottom_right,2025-06-07_10h04.46.003,HideSeek_v1,2022.2.5,60.398472867477516,
,6,4,6,8,0,4,12,,train_dim1_1,6,30,,,,2,0,2,0,,,,,,,,,0,0,0,0,0,5,5,5,4,0,4,0,,,,,,,,,,,,,,,,,,,,,,,,,,,,,,,,,,,,,,,,,,,,,,,,,,,,,,,,,,,,,,,,30,,,,,,,,484.37272670003586,484.37272670003586,484.37272670003586,484.37272670003586,484.37272670003586,return,0.5771136999828741,2,0,0,1,0.32,0.24,return,0.4932300999062136,8,-7,0.32,0.24,,,,,,,,,,,,,,,,,,,,,,,,,,,,,,,,,,,,,,,,,,,,,,,,,,,,,,,,903T5Z,train_y,red_square,bottom_right,2025-06-07_10h04.46.003,HideSeek_v1,2022.2.5,60.398472867477516,
,6,3,6,6,0,3,13,,train_dim1_1,7,30,,,,2,0,2,0,,,,,,,,,0,0,0,0,0,6,6,6,0,0,0,0,,,,,,,,,,,,,,,,,,,,,,,,,stimuli/alien_stimuli/13.png,,,,,,,,,,,,,,,,,,,,,,,,,,,,,stimuli/alien_stimuli/12.png,12,6,8,,,,,,,30,,,,,,,,492.4375171000138,492.4375171000138,492.4375171000138,492.4375171000138,492.4375171000138,up,2.7877274999627843,2,0,0,99,0.32,-0.08,up,2.7062283999985084,,,,,490.87760859995615,492.4375171000138,0.32,0.24,0.32,0.0,0.07999999999999999,0.32,0.32,0.32,0.24,486.5262298999587,486.5262298999587,486.5262298999587,486.5262298999587,486.5262298999587,486.5262298999587,486.5262298999587,486.5262298999587,486.52445317995733,4.472103300038725,return,4.325546799926087,,,,,,,,,,,,,,,,,,,,,,,,,,,,,,,,,903T5Z,train_y,red_square,bottom_right,2025-06-07_10h04.46.003,HideSeek_v1,2022.2.5,60.398472867477516,
,6,3,6,6,0,3,13,,train_dim1_1,7,30,,,,2,0,2,0,,,,,,,,,0,0,0,0,0,6,6,6,1,0,1,0,,,,,,,,,,,,,,,,,,,,,,,,,,,,,,,,,,,,,,,,,,,,,,,,,,,,,,,,,,,,,,,,30,,,,,,,,495.2317305000033,495.2317305000033,495.2317305000033,495.2317305000033,495.2317305000033,up,0.4597000000067055,2,0,0,99,0.32,0.0,up,0.3697162000462413,,,,,,,,,,,,,,,,,,,,,,,,,,,,,,,,,,,,,,,,,,,,,,,,,,,,,,,,,,,,903T5Z,train_y,red_square,bottom_right,2025-06-07_10h04.46.003,HideSeek_v1,2022.2.5,60.398472867477516,
,6,3,6,6,0,3,13,,train_dim1_1,7,30,,,,2,0,2,0,,,,,,,,,0,0,0,0,0,6,6,6,2,0,2,0,,,,,,,,,,,,,,,,,,,,,,,,,,,,,,,,,,,,,,,,,,,,,,,,,,,,,,,,,,,,,,,,30,,,,,,,,495.69947300001513,495.69947300001513,495.69947300001513,495.69947300001513,495.69947300001513,up,0.4267318999627605,2,0,0,99,0.32,0.08,up,0.3426236000377685,,,,,,,,,,,,,,,,,,,,,,,,,,,,,,,,,,,,,,,,,,,,,,,,,,,,,,,,,,,,903T5Z,train_y,red_square,bottom_right,2025-06-07_10h04.46.003,HideSeek_v1,2022.2.5,60.398472867477516,
,6,3,6,6,0,3,13,,train_dim1_1,7,30,,,,2,0,2,0,,,,,,,,,0,0,0,0,0,6,6,6,3,0,3,0,,,,,,,,,,,,,,,,,,,,,,,,,,,,,,,,,,,,,,,,,,,,,,,,,,,,,,,,,,,,,,,,30,,,,,,,,496.1323058999842,496.1323058999842,496.1323058999842,496.1323058999842,496.1323058999842,up,0.6434735000366345,2,0,0,99,0.32,0.16,up,0.5669950000010431,,,,,,,,,,,,,,,,,,,,,,,,,,,,,,,,,,,,,,,,,,,,,,,,,,,,,,,,,,,,903T5Z,train_y,red_square,bottom_right,2025-06-07_10h04.46.003,HideSeek_v1,2022.2.5,60.398472867477516,
,6,3,6,6,0,3,13,,train_dim1_1,7,30,,,,2,0,2,0,,,,,,,,,0,0,0,0,0,6,6,6,4,0,4,0,,,,,,,,,,,,,,,,,,,,,,,,,,,,,,,,,,,,,,,,,,,,,,,,,,,,,,,,,,,,,,,,30,,,,,,,,496.7830504999729,496.7830504999729,496.7830504999729,496.7830504999729,496.7830504999729,return,0.5100800000363961,2,1,0,0,0.32,0.16,return,0.42243310005869716,12,-7,0.32,0.16,,,,,,,,,,,,,,,,,,,,,,,,,,,,,,,,,,,,,,,,,,,,,,,,,,,,,,,,903T5Z,train_y,red_square,bottom_right,2025-06-07_10h04.46.003,HideSeek_v1,2022.2.5,60.398472867477516,
,9,2,9,7,0,5,11,,train_dim1_1,8,30,,,,2,0,2,0,,,,,,,,,0,0,0,0,0,7,7,7,0,0,0,0,,,,,,,,,,,,,,,,,,,,,,,,,stimuli/alien_stimuli/11.png,,,,,,,,,,,,,,,,,,,,,,,,,,,,,stimuli/alien_stimuli/13.png,13,6,9,,,,,,,30,,,,,,,,504.5154236999806,504.5154236999806,504.5154236999806,504.5154236999806,504.5154236999806,left,1.6697805000003427,2,1,0,99,0.48000000000000004,-0.24,left,1.583268899936229,,,,,502.95439570001327,504.5154236999806,0.32,0.08,0.24,0.0,-0.04,0.32,0.32,0.32,0.08,498.87268739996944,498.87268739996944,498.87268739996944,498.87268739996944,498.87268739996944,498.87268739996944,498.87268739996944,498.87268739996944,498.86772937995846,4.20554340002127,return,4.0518034000415355,,,,,,,,,,,,,,,,,,,,,,,,,,,,,,,,,903T5Z,train_y,red_square,bottom_right,2025-06-07_10h04.46.003,HideSeek_v1,2022.2.5,60.398472867477516,
,9,2,9,7,0,5,11,,train_dim1_1,8,30,,,,2,0,2,0,,,,,,,,,0,0,0,0,0,7,7,7,1,0,1,0,,,,,,,,,,,,,,,,,,,,,,,,,,,,,,,,,,,,,,,,,,,,,,,,,,,,,,,,,,,,,,,,30,,,,,,,,506.19155879993923,506.19155879993923,506.19155879993923,506.19155879993923,506.19155879993923,left,0.27612100006081164,2,1,0,99,0.4,-0.24,left,0.18924440001137555,,,,,,,,,,,,,,,,,,,,,,,,,,,,,,,,,,,,,,,,,,,,,,,,,,,,,,,,,,,,903T5Z,train_y,red_square,bottom_right,2025-06-07_10h04.46.003,HideSeek_v1,2022.2.5,60.398472867477516,
,9,2,9,7,0,5,11,,train_dim1_1,8,30,,,,2,0,2,0,,,,,,,,,0,0,0,0,0,7,7,7,2,0,2,0,,,,,,,,,,,,,,,,,,,,,,,,,,,,,,,,,,,,,,,,,,,,,,,,,,,,,,,,,,,,,,,,30,,,,,,,,506.4742267000256,506.4742267000256,506.4742267000256,506.4742267000256,506.4742267000256,left,0.29370749997906387,2,1,0,99,0.32,-0.24,left,0.2080865999450907,,,,,,,,,,,,,,,,,,,,,,,,,,,,,,,,,,,,,,,,,,,,,,,,,,,,,,,,,,,,903T5Z,train_y,red_square,bottom_right,2025-06-07_10h04.46.003,HideSeek_v1,2022.2.5,60.398472867477516,
,9,2,9,7,0,5,11,,train_dim1_1,8,30,,,,2,0,2,0,,,,,,,,,0,0,0,0,0,7,7,7,3,0,3,0,,,,,,,,,,,,,,,,,,,,,,,,,,,,,,,,,,,,,,,,,,,,,,,,,,,,,,,,,,,,,,,,30,,,,,,,,506.7751126999501,506.7751126999501,506.7751126999501,506.7751126999501,506.7751126999501,left,0.30982419999781996,2,1,0,99,0.24,-0.24,left,0.23215140006504953,,,,,,,,,,,,,,,,,,,,,,,,,,,,,,,,,,,,,,,,,,,,,,,,,,,,,,,,,,,,903T5Z,train_y,red_square,bottom_right,2025-06-07_10h04.46.003,HideSeek_v1,2022.2.5,60.398472867477516,
,9,2,9,7,0,5,11,,train_dim1_1,8,30,,,,2,0,2,0,,,,,,,,,0,0,0,0,0,7,7,7,4,0,4,0,,,,,,,,,,,,,,,,,,,,,,,,,,,,,,,,,,,,,,,,,,,,,,,,,,,,,,,,,,,,,,,,30,,,,,,,,507.0907721000258,507.0907721000258,507.0907721000258,507.0907721000258,507.0907721000258,left,1.7113123999442905,2,1,0,99,0.15999999999999998,-0.24,left,1.6259360000258312,,,,,,,,,,,,,,,,,,,,,,,,,,,,,,,,,,,,,,,,,,,,,,,,,,,,,,,,,,,,903T5Z,train_y,red_square,bottom_right,2025-06-07_10h04.46.003,HideSeek_v1,2022.2.5,60.398472867477516,
,9,2,9,7,0,5,11,,train_dim1_1,8,30,,,,2,0,2,0,,,,,,,,,0,0,0,0,0,7,7,7,5,0,5,0,,,,,,,,,,,,,,,,,,,,,,,,,,,,,,,,,,,,,,,,,,,,,,,,,,,,,,,,,,,,,,,,30,,,,,,,,508.8103129999945,508.8103129999945,508.8103129999945,508.8103129999945,508.8103129999945,return,0.4434809999074787,2,0,0,0,0.15999999999999998,-0.24,return,0.36140019993763417,12,-12,0.15999999999999998,-0.24,,,,,,,,,,,,,,,,,,,,,,,,,,,,,,,,,,,,,,,,,,,,,,,,,,,,,,,,903T5Z,train_y,red_square,bottom_right,2025-06-07_10h04.46.003,HideSeek_v1,2022.2.5,60.398472867477516,
,9,3,9,4,0,1,15,,train_dim1_1,9,30,,,,2,0,2,0,,,,,,,,,0,0,0,0,0,8,8,8,0,0,0,0,,,,,,,,,,,,,,,,,,,,,,,,,stimuli/alien_stimuli/15.png,,,,,,,,,,,,,,,,,,,,,,,,,,,,,stimuli/alien_stimuli/11.png,11,9,10,,,,,,,30,,,,,,,,513.9396297000349,513.9396297000349,513.9396297000349,513.9396297000349,513.9396297000349,return,1.7533911000937223,2,1,0,0,0.56,-0.16,return,1.6606916000600904,12,-12,0.56,-0.16,512.3789976999396,513.9396297000349,0.56,0.16,0.4,0.0,-0.039999999999999994,0.56,0.56,0.56,0.16,510.8313142999541,510.8313142999541,510.8313142999541,510.8313142999541,510.8313142999541,510.8313142999541,510.8313142999541,510.8313142999541,510.8278026800137,1.670111900079064,return,1.5305120999692008,,,,,,,,,,,,,,,,,,,,,,,,,,,,,,,,,903T5Z,train_y,red_square,bottom_right,2025-06-07_10h04.46.003,HideSeek_v1,2022.2.5,60.398472867477516,
,7,2,7,2,0,0,16,,train_dim1_1,10,30,,,,2,0,2,0,,,,,,,,,0,0,0,0,0,9,9,9,0,0,0,0,,,,,,,,,,,,,,,,,,,,,,,,,stimuli/alien_stimuli/16.png,,,,,,,,,,,,,,,,,,,,,,,,,,,,,stimuli/alien_stimuli/15.png,15,9,11,,,,,,,30,,,,,,,,521.0091188999359,521.0091188999359,521.0091188999359,521.0091188999359,521.0091188999359,up,1.9052487999433652,2,1,0,99,0.4,-0.15999999999999998,up,1.8227068000705913,,,,,519.451369300019,521.0091188999359,0.56,-0.08,0.08,0.0,-0.12,0.56,0.56,0.56,-0.08,517.2688085000264,517.2688085000264,517.2688085000264,517.2688085000264,517.2688085000264,517.2688085000264,517.2688085000264,517.2688085000264,517.2663803799543,2.303950999979861,return,2.1555634000105783,,,,,,,,,,,,,,,,,,,,,,,,,,,,,,,,,903T5Z,train_y,red_square,bottom_right,2025-06-07_10h04.46.003,HideSeek_v1,2022.2.5,60.398472867477516,
,7,2,7,2,0,0,16,,train_dim1_1,10,30,,,,2,0,2,0,,,,,,,,,0,0,0,0,0,9,9,9,1,0,1,0,,,,,,,,,,,,,,,,,,,,,,,,,,,,,,,,,,,,,,,,,,,,,,,,,,,,,,,,,,,,,,,,30,,,,,,,,522.9217092000181,522.9217092000181,522.9217092000181,522.9217092000181,522.9217092000181,return,1.160136100021191,2,1,0,0,0.4,-0.15999999999999998,return,1.071429600007832,13,-12,0.4,-0.15999999999999998,,,,,,,,,,,,,,,,,,,,,,,,,,,,,,,,,,,,,,,,,,,,,,,,,,,,,,,,903T5Z,train_y,red_square,bottom_right,2025-06-07_10h04.46.003,HideSeek_v1,2022.2.5,60.398472867477516,
,9,1,9,2,0,1,15,,train_dim1_1,11,30,,,,2,0,2,0,,,,,,,,,0,0,0,0,0,10,10,10,0,0,0,0,,,,,,,,,,,,,,,,,,,,,,,,,stimuli/alien_stimuli/15.png,,,,,,,,,,,,,,,,,,,,,,,,,,,,,stimuli/alien_stimuli/16.png,16,7,12,,,,,,,30,,,,,,,,528.5703491000459,528.5703491000459,528.5703491000459,528.5703491000459,528.5703491000459,return,1.3014559000730515,2,1,0,0,0.56,-0.32,return,1.2207616999512538,13,-12,0.56,-0.32,527.0076253999723,528.5703491000459,0.4,-0.24,0.0,0.0,-0.24,0.4,0.4,0.4,-0.24,525.6378580000019,525.6378580000019,525.6378580000019,525.6378580000019,525.6378580000019,525.6378580000019,525.6378580000019,525.6378580000019,525.6399861700017,1.4699780999217182,return,1.3413692000322044,,,,,,,,,,,,,,,,,,,,,,,,,,,,,,,,,903T5Z,train_y,red_square,bottom_right,2025-06-07_10h04.46.003,HideSeek_v1,2022.2.5,60.398472867477516,
,5,0,5,5,0,5,11,,train_dim1_1,12,30,,,,2,0,2,0,,,,,,,,,0,0,0,0,0,11,11,11,0,0,0,0,,,,,,,,,,,,,,,,,,,,,,,,,stimuli/alien_stimuli/11.png,,,,,,,,,,,,,,,,,,,,,,,,,,,,,stimuli/alien_stimuli/15.png,15,9,13,,,,,,,30,,,,,,,,534.3178431999404,534.3178431999404,534.3178431999404,534.3178431999404,534.3178431999404,up,1.1067422999767587,2,1,0,99,0.24,-0.32,up,1.019324199995026,,,,,532.762420300045,534.3178431999404,0.56,-0.24,0.08,0.0,-0.28,0.56,0.56,0.56,-0.24,531.4264549999498,531.4264549999498,531.4264549999498,531.4264549999498,531.4264549999498,531.4264549999498,531.4264549999498,531.4264549999498,531.4280697699985,1.4368670000694692,return,1.3061705000000075,,,,,,,,,,,,,,,,,,,,,,,,,,,,,,,,,903T5Z,train_y,red_square,bottom_right,2025-06-07_10h04.46.003,HideSeek_v1,2022.2.5,60.398472867477516,
,5,0,5,5,0,5,11,,train_dim1_1,12,30,,,,2,0,2,0,,,,,,,,,0,0,0,0,0,11,11,11,1,0,1,0,,,,,,,,,,,,,,,,,,,,,,,,,,,,,,,,,,,,,,,,,,,,,,,,,,,,,,,,,,,,,,,,30,,,,,,,,535.4319300999632,535.4319300999632,535.4319300999632,535.4319300999632,535.4319300999632,up,0.3263555000303313,2,1,0,99,0.24,-0.24,up,0.2422074000351131,,,,,,,,,,,,,,,,,,,,,,,,,,,,,,,,,,,,,,,,,,,,,,,,,,,,,,,,,,,,903T5Z,train_y,red_square,bottom_right,2025-06-07_10h04.46.003,HideSeek_v1,2022.2.5,60.398472867477516,
,5,0,5,5,0,5,11,,train_dim1_1,12,30,,,,2,0,2,0,,,,,,,,,0,0,0,0,0,11,11,11,2,0,2,0,,,,,,,,,,,,,,,,,,,,,,,,,,,,,,,,,,,,,,,,,,,,,,,,,,,,,,,,,,,,,,,,30,,,,,,,,535.7652091999771,535.7652091999771,535.7652091999771,535.7652091999771,535.7652091999771,up,0.3435669000027701,2,1,0,99,0.24,-0.15999999999999998,up,0.2656928999349475,,,,,,,,,,,,,,,,,,,,,,,,,,,,,,,,,,,,,,,,,,,,,,,,,,,,,,,,,,,,903T5Z,train_y,red_square,bottom_right,2025-06-07_10h04.46.003,HideSeek_v1,2022.2.5,60.398472867477516,
,5,0,5,5,0,5,11,,train_dim1_1,12,30,,,,2,0,2,0,,,,,,,,,0,0,0,0,0,11,11,11,3,0,3,0,,,,,,,,,,,,,,,,,,,,,,,,,,,,,,,,,,,,,,,,,,,,,,,,,,,,,,,,,,,,,,,,30,,,,,,,,536.1157482999843,536.1157482999843,536.1157482999843,536.1157482999843,536.1157482999843,up,0.35975090006832033,2,1,0,99,0.24,-0.07999999999999997,up,0.2840157999889925,,,,,,,,,,,,,,,,,,,,,,,,,,,,,,,,,,,,,,,,,,,,,,,,,,,,,,,,,,,,903T5Z,train_y,red_square,bottom_right,2025-06-07_10h04.46.003,HideSeek_v1,2022.2.5,60.398472867477516,
,5,0,5,5,0,5,11,,train_dim1_1,12,30,,,,2,0,2,0,,,,,,,,,0,0,0,0,0,11,11,11,4,0,4,0,,,,,,,,,,,,,,,,,,,,,,,,,,,,,,,,,,,,,,,,,,,,,,,,,,,,,,,,,,,,,,,,30,,,,,,,,536.4829977999907,536.4829977999907,536.4829977999907,536.4829977999907,536.4829977999907,up,0.7434059999650344,2,1,0,99,0.24,2.7755575615628914e-17,up,0.6513979999581352,,,,,,,,,,,,,,,,,,,,,,,,,,,,,,,,,,,,,,,,,,,,,,,,,,,,,,,,,,,,903T5Z,train_y,red_square,bottom_right,2025-06-07_10h04.46.003,HideSeek_v1,2022.2.5,60.398472867477516,
,5,0,5,5,0,5,11,,train_dim1_1,12,30,,,,2,0,2,0,,,,,,,,,0,0,0,0,0,11,11,11,5,0,5,0,,,,,,,,,,,,,,,,,,,,,,,,,,,,,,,,,,,,,,,,,,,,,,,,,,,,,,,,,,,,,,,,30,,,,,,,,537.2332493000431,537.2332493000431,537.2332493000431,537.2332493000431,537.2332493000431,return,0.9774804000044242,3,0,0,1,0.24,2.7755575615628914e-17,return,0.8874043000396341,18,-12,0.24,2.7755575615628914e-17,,,,,,,,,,,,,,,,,,,,,,,,,,,,,,,,,,,,,,,,,,,,,,,,,,,,,,,,903T5Z,train_y,red_square,bottom_right,2025-06-07_10h04.46.003,HideSeek_v1,2022.2.5,60.398472867477516,
,9,3,9,7,0,4,12,,train_dim1_1,13,30,,,,2,0,2,0,,,,,,,,,0,0,0,0,0,12,12,12,0,0,0,0,,,,,,,,,,,,,,,,,,,,,,,,,stimuli/alien_stimuli/12.png,,,,,,,,,,,,,,,,,,,,,,,,,,,,,stimuli/alien_stimuli/11.png,11,5,14,,,,,,,30,,,,,,,,544.4600782999769,544.4600782999769,544.4600782999769,544.4600782999769,544.4600782999769,left,3.175527200102806,3,0,0,99,0.48000000000000004,-0.16,left,3.098814099910669,,,,,542.9041470999364,544.4600782999769,0.24,0,0.4,0.0,-0.2,0.24,0.24,0.24,0,539.7658924999414,539.7658924999414,539.7658924999414,539.7658924999414,539.7658924999414,539.7658924999414,539.7658924999414,539.7658924999414,539.7516869599698,3.238138699904084,return,3.1099202999612316,,,,,,,,,,,,,,,,,,,,,,,,,,,,,,,,,903T5Z,train_y,red_square,bottom_right,2025-06-07_10h04.46.003,HideSeek_v1,2022.2.5,60.398472867477516,
,9,3,9,7,0,4,12,,train_dim1_1,13,30,,,,2,0,2,0,,,,,,,,,0,0,0,0,0,12,12,12,1,0,1,0,,,,,,,,,,,,,,,,,,,,,,,,,,,,,,,,,,,,,,,,,,,,,,,,,,,,,,,,,,,,,,,,30,,,,,,,,547.6436716000317,547.6436716000317,547.6436716000317,547.6436716000317,547.6436716000317,left,0.35957739991135895,3,0,0,99,0.4,-0.16,left,0.2719222999876365,,,,,,,,,,,,,,,,,,,,,,,,,,,,,,,,,,,,,,,,,,,,,,,,,,,,,,,,,,,,903T5Z,train_y,red_square,bottom_right,2025-06-07_10h04.46.003,HideSeek_v1,2022.2.5,60.398472867477516,
,9,3,9,7,0,4,12,,train_dim1_1,13,30,,,,2,0,2,0,,,,,,,,,0,0,0,0,0,12,12,12,2,0,2,0,,,,,,,,,,,,,,,,,,,,,,,,,,,,,,,,,,,,,,,,,,,,,,,,,,,,,,,,,,,,,,,,30,,,,,,,,548.0094133999664,548.0094133999664,548.0094133999664,548.0094133999664,548.0094133999664,left,0.35995690000709146,3,0,0,99,0.32,-0.16,left,0.2704567000037059,,,,,,,,,,,,,,,,,,,,,,,,,,,,,,,,,,,,,,,,,,,,,,,,,,,,,,,,,,,,903T5Z,train_y,red_square,bottom_right,2025-06-07_10h04.46.003,HideSeek_v1,2022.2.5,60.398472867477516,
,9,3,9,7,0,4,12,,train_dim1_1,13,30,,,,2,0,2,0,,,,,,,,,0,0,0,0,0,12,12,12,3,0,3,0,,,,,,,,,,,,,,,,,,,,,,,,,,,,,,,,,,,,,,,,,,,,,,,,,,,,,,,,,,,,,,,,30,,,,,,,,548.3755048000021,548.3755048000021,548.3755048000021,548.3755048000021,548.3755048000021,left,0.46002140000928193,3,0,0,99,0.24,-0.16,left,0.3788098000222817,,,,,,,,,,,,,,,,,,,,,,,,,,,,,,,,,,,,,,,,,,,,,,,,,,,,,,,,,,,,903T5Z,train_y,red_square,bottom_right,2025-06-07_10h04.46.003,HideSeek_v1,2022.2.5,60.398472867477516,
,9,3,9,7,0,4,12,,train_dim1_1,13,30,,,,2,0,2,0,,,,,,,,,0,0,0,0,0,12,12,12,4,0,4,0,,,,,,,,,,,,,,,,,,,,,,,,,,,,,,,,,,,,,,,,,,,,,,,,,,,,,,,,,,,,,,,,30,,,,,,,,548.8421614000108,548.8421614000108,548.8421614000108,548.8421614000108,548.8421614000108,return,0.3936907999450341,3,0,0,0,0.24,-0.16,return,0.31316360004711896,18,-16,0.24,-0.16,,,,,,,,,,,,,,,,,,,,,,,,,,,,,,,,,,,,,,,,,,,,,,,,,,,,,,,,903T5Z,train_y,red_square,bottom_right,2025-06-07_10h04.46.003,HideSeek_v1,2022.2.5,60.398472867477516,
,7,2,7,2,0,0,16,,train_dim1_1,14,30,,,,2,0,2,0,,,,,,,,,0,0,0,0,0,13,13,13,0,0,0,0,,,,,,,,,,,,,,,,,,,,,,,,,stimuli/alien_stimuli/16.png,,,,,,,,,,,,,,,,,,,,,,,,,,,,,stimuli/alien_stimuli/12.png,12,9,15,,,,,,,30,,,,,,,,553.7535890999716,553.7535890999716,553.7535890999716,553.7535890999716,553.7535890999716,left,1.9212605999782681,3,0,0,99,0.32,-0.24,left,1.844015400041826,,,,,552.195314600016,553.7535890999716,0.56,0.16,0.32,0.0,0.0,0.56,0.56,0.56,0.16,550.8117832000135,550.8117832000135,550.8117832000135,550.8117832000135,550.8117832000135,550.8117832000135,550.8117832000135,550.8117832000135,550.810768679995,1.5036887000314891,return,1.3670011999784037,,,,,,,,,,,,,,,,,,,,,,,,,,,,,,,,,903T5Z,train_y,red_square,bottom_right,2025-06-07_10h04.46.003,HideSeek_v1,2022.2.5,60.398472867477516,
,7,2,7,2,0,0,16,,train_dim1_1,14,30,,,,2,0,2,0,,,,,,,,,0,0,0,0,0,13,13,13,1,0,1,0,,,,,,,,,,,,,,,,,,,,,,,,,,,,,,,,,,,,,,,,,,,,,,,,,,,,,,,,,,,,,,,,30,,,,,,,,555.6837026999565,555.6837026999565,555.6837026999565,555.6837026999565,555.6837026999565,return,0.37671330000739545,3,1,0,0,0.32,-0.24,return,0.2878579000243917,18,-17,0.32,-0.24,,,,,,,,,,,,,,,,,,,,,,,,,,,,,,,,,,,,,,,,,,,,,,,,,,,,,,,,903T5Z,train_y,red_square,bottom_right,2025-06-07_10h04.46.003,HideSeek_v1,2022.2.5,60.398472867477516,
,6,4,6,7,0,3,13,,train_dim1_1,15,30,,,,2,0,2,0,,,,,,,,,0,0,0,0,0,14,14,14,0,0,0,0,,,,,,,,,,,,,,,,,,,,,,,,,stimuli/alien_stimuli/13.png,,,,,,,,,,,,,,,,,,,,,,,,,,,,,stimuli/alien_stimuli/16.png,16,7,16,,,,,,,30,,,,,,,,559.8742615999654,559.8742615999654,559.8742615999654,559.8742615999654,559.8742615999654,down,2.4716763000469655,3,1,0,99,0.32,-0.16,down,2.3841761000221595,,,,,558.3168682999676,559.8742615999654,0.4,-0.24,0.0,0.0,-0.24,0.4,0.4,0.4,-0.24,557.6155199999921,557.6155199999921,557.6155199999921,557.6155199999921,557.6155199999921,557.6155199999921,557.6155199999921,557.6155199999921,557.6167597699794,0.8027362000430003,return,0.6805927000241354,,,,,,,,,,,,,,,,,,,,,,,,,,,,,,,,,903T5Z,train_y,red_square,bottom_right,2025-06-07_10h04.46.003,HideSeek_v1,2022.2.5,60.398472867477516,
,6,4,6,7,0,3,13,,train_dim1_1,15,30,,,,2,0,2,0,,,,,,,,,0,0,0,0,0,14,14,14,1,0,1,0,,,,,,,,,,,,,,,,,,,,,,,,,,,,,,,,,,,,,,,,,,,,,,,,,,,,,,,,,,,,,,,,30,,,,,,,,562.3529333999613,562.3529333999613,562.3529333999613,562.3529333999613,562.3529333999613,down,0.24351130006834865,3,1,0,99,0.32,-0.24,down,0.15237060002982616,,,,,,,,,,,,,,,,,,,,,,,,,,,,,,,,,,,,,,,,,,,,,,,,,,,,,,,,,,,,903T5Z,train_y,red_square,bottom_right,2025-06-07_10h04.46.003,HideSeek_v1,2022.2.5,60.398472867477516,
,6,4,6,7,0,3,13,,train_dim1_1,15,30,,,,2,0,2,0,,,,,,,,,0,0,0,0,0,14,14,14,2,0,2,0,,,,,,,,,,,,,,,,,,,,,,,,,,,,,,,,,,,,,,,,,,,,,,,,,,,,,,,,,,,,,,,,30,,,,,,,,562.6041020000121,562.6041020000121,562.6041020000121,562.6041020000121,562.6041020000121,down,0.1936752999899909,3,1,0,99,0.32,-0.32,down,0.11634690000209957,,,,,,,,,,,,,,,,,,,,,,,,,,,,,,,,,,,,,,,,,,,,,,,,,,,,,,,,,,,,903T5Z,train_y,red_square,bottom_right,2025-06-07_10h04.46.003,HideSeek_v1,2022.2.5,60.398472867477516,
,6,4,6,7,0,3,13,,train_dim1_1,15,30,,,,2,0,2,0,,,,,,,,,0,0,0,0,0,14,14,14,3,0,3,0,,,,,,,,,,,,,,,,,,,,,,,,,,,,,,,,,,,,,,,,,,,,,,,,,,,,,,,,,,,,,,,,30,,,,,,,,562.8042483000318,562.8042483000318,562.8042483000318,562.8042483000318,562.8042483000318,return,0.3932094000047073,3,0,0,0,0.32,-0.32,return,0.30660449992865324,15,-17,0.32,-0.32,,,,,,,,,,,,,,,,,,,,,,,,,,,,,,,,,,,,,,,,,,,,,,,,,,,,,,,,903T5Z,train_y,red_square,bottom_right,2025-06-07_10h04.46.003,HideSeek_v1,2022.2.5,60.398472867477516,
,9,0,9,1,0,1,15,,train_dim1_1,16,30,,,,2,0,2,0,,,,,,,,,0,0,0,0,0,15,15,15,0,0,0,0,,,,,,,,,,,,,,,,,,,,,,,,,stimuli/alien_stimuli/15.png,,,,,,,,,,,,,,,,,,,,,,,,,,,,,stimuli/alien_stimuli/13.png,13,6,17,,,,,,,30,,,,,,,,567.0310171999736,567.0310171999736,567.0310171999736,567.0310171999736,567.0310171999736,return,1.4881018999731168,3,1,0,0,0.56,-0.4,return,1.396503399941139,15,-17,0.56,-0.4,565.4729444000404,567.0310171999736,0.32,0.16,0.24,0.0,0.04,0.32,0.32,0.32,0.16,564.7527459999546,564.7527459999546,564.7527459999546,564.7527459999546,564.7527459999546,564.7527459999546,564.7527459999546,564.7527459999546,564.7389932599384,0.8195567999500781,return,0.7024142000591382,,,,,,,,,,,,,,,,,,,,,,,,,,,,,,,,,903T5Z,train_y,red_square,bottom_right,2025-06-07_10h04.46.003,HideSeek_v1,2022.2.5,60.398472867477516,
,8,3,8,6,0,3,13,,train_dim1_1,17,30,,,,2,0,2,0,,,,,,,,,0,0,0,0,0,16,16,16,0,0,0,0,,,,,,,,,,,,,,,,,,,,,,,,,stimuli/alien_stimuli/13.png,,,,,,,,,,,,,,,,,,,,,,,,,,,,,stimuli/alien_stimuli/15.png,15,9,18,,,,,,,30,,,,,,,,572.2996615000302,572.2996615000302,572.2996615000302,572.2996615000302,572.2996615000302,up,2.5077510999981314,3,1,0,99,0.48,-0.08,up,2.4270934999221936,,,,,570.7444169999799,572.2996615000302,0.56,-0.32,0.08,0.0,-0.36,0.56,0.56,0.56,-0.32,570.0781871000072,570.0781871000072,570.0781871000072,570.0781871000072,570.0781871000072,570.0781871000072,570.0781871000072,570.0781871000072,570.0769895699457,0.7693524999776855,return,0.64003629994113,,,,,,,,,,,,,,,,,,,,,,,,,,,,,,,,,903T5Z,train_y,red_square,bottom_right,2025-06-07_10h04.46.003,HideSeek_v1,2022.2.5,60.398472867477516,
,8,3,8,6,0,3,13,,train_dim1_1,17,30,,,,2,0,2,0,,,,,,,,,0,0,0,0,0,16,16,16,1,0,1,0,,,,,,,,,,,,,,,,,,,,,,,,,,,,,,,,,,,,,,,,,,,,,,,,,,,,,,,,,,,,,,,,30,,,,,,,,574.8134677000344,574.8134677000344,574.8134677000344,574.8134677000344,574.8134677000344,up,0.2597588999196887,3,1,0,99,0.48,0.0,up,0.179544199956581,,,,,,,,,,,,,,,,,,,,,,,,,,,,,,,,,,,,,,,,,,,,,,,,,,,,,,,,,,,,903T5Z,train_y,red_square,bottom_right,2025-06-07_10h04.46.003,HideSeek_v1,2022.2.5,60.398472867477516,
,8,3,8,6,0,3,13,,train_dim1_1,17,30,,,,2,0,2,0,,,,,,,,,0,0,0,0,0,16,16,16,2,0,2,0,,,,,,,,,,,,,,,,,,,,,,,,,,,,,,,,,,,,,,,,,,,,,,,,,,,,,,,,,,,,,,,,30,,,,,,,,575.0813724000473,575.0813724000473,575.0813724000473,575.0813724000473,575.0813724000473,up,0.2931335000321269,3,1,0,99,0.48,0.08,up,0.20547579997219145,,,,,,,,,,,,,,,,,,,,,,,,,,,,,,,,,,,,,,,,,,,,,,,,,,,,,,,,,,,,903T5Z,train_y,red_square,bottom_right,2025-06-07_10h04.46.003,HideSeek_v1,2022.2.5,60.398472867477516,
,8,3,8,6,0,3,13,,train_dim1_1,17,30,,,,2,0,2,0,,,,,,,,,0,0,0,0,0,16,16,16,3,0,3,0,,,,,,,,,,,,,,,,,,,,,,,,,,,,,,,,,,,,,,,,,,,,,,,,,,,,,,,,,,,,,,,,30,,,,,,,,575.380671699997,575.380671699997,575.380671699997,575.380671699997,575.380671699997,up,1.027195499977097,3,1,0,99,0.48,0.16,up,0.9419066000264138,,,,,,,,,,,,,,,,,,,,,,,,,,,,,,,,,,,,,,,,,,,,,,,,,,,,,,,,,,,,903T5Z,train_y,red_square,bottom_right,2025-06-07_10h04.46.003,HideSeek_v1,2022.2.5,60.398472867477516,
,8,3,8,6,0,3,13,,train_dim1_1,17,30,,,,2,0,2,0,,,,,,,,,0,0,0,0,0,16,16,16,4,0,4,0,,,,,,,,,,,,,,,,,,,,,,,,,,,,,,,,,,,,,,,,,,,,,,,,,,,,,,,,,,,,,,,,30,,,,,,,,576.414140000008,576.414140000008,576.414140000008,576.414140000008,576.414140000008,return,0.4769122999859974,3,1,0,0,0.48,0.16,return,0.39248449995648116,19,-17,0.48,0.16,,,,,,,,,,,,,,,,,,,,,,,,,,,,,,,,,,,,,,,,,,,,,,,,,,,,,,,,903T5Z,train_y,red_square,bottom_right,2025-06-07_10h04.46.003,HideSeek_v1,2022.2.5,60.398472867477516,
,7,1,7,6,0,5,11,,train_dim1_1,18,30,,,,2,0,2,0,,,,,,,,,0,0,0,0,0,17,17,17,0,0,0,0,,,,,,,,,,,,,,,,,,,,,,,,,stimuli/alien_stimuli/11.png,,,,,,,,,,,,,,,,,,,,,,,,,,,,,stimuli/alien_stimuli/13.png,13,8,19,,,,,,,30,,,,,,,,581.591404399951,581.591404399951,581.591404399951,581.591404399951,581.591404399951,up,1.5569079000269994,3,1,0,99,0.4,-0.24,up,1.4780078999465331,,,,,580.0349122999469,581.591404399951,0.48,0.08,0.24,0.0,-0.04,0.48,0.48,0.48,0.08,578.4491856000386,578.4491856000386,578.4491856000386,578.4491856000386,578.4491856000386,578.4491856000386,578.4491856000386,578.4491856000386,578.450578270026,1.6863774000667036,return,1.5644482999341562,,,,,,,,,,,,,,,,,,,,,,,,,,,,,,,,,903T5Z,train_y,red_square,bottom_right,2025-06-07_10h04.46.003,HideSeek_v1,2022.2.5,60.398472867477516,
,7,1,7,6,0,5,11,,train_dim1_1,18,30,,,,2,0,2,0,,,,,,,,,0,0,0,0,0,17,17,17,1,0,1,0,,,,,,,,,,,,,,,,,,,,,,,,,,,,,,,,,,,,,,,,,,,,,,,,,,,,,,,,,,,,,,,,30,,,,,,,,583.1554347999627,583.1554347999627,583.1554347999627,583.1554347999627,583.1554347999627,up,0.2421139000216499,3,1,0,99,0.4,-0.15999999999999998,up,0.15251249994616956,,,,,,,,,,,,,,,,,,,,,,,,,,,,,,,,,,,,,,,,,,,,,,,,,,,,,,,,,,,,903T5Z,train_y,red_square,bottom_right,2025-06-07_10h04.46.003,HideSeek_v1,2022.2.5,60.398472867477516,
,7,1,7,6,0,5,11,,train_dim1_1,18,30,,,,2,0,2,0,,,,,,,,,0,0,0,0,0,17,17,17,2,0,2,0,,,,,,,,,,,,,,,,,,,,,,,,,,,,,,,,,,,,,,,,,,,,,,,,,,,,,,,,,,,,,,,,30,,,,,,,,583.4042689999333,583.4042689999333,583.4042689999333,583.4042689999333,583.4042689999333,up,0.2936608000891283,3,1,0,99,0.4,-0.07999999999999997,up,0.21483710000757128,,,,,,,,,,,,,,,,,,,,,,,,,,,,,,,,,,,,,,,,,,,,,,,,,,,,,,,,,,,,903T5Z,train_y,red_square,bottom_right,2025-06-07_10h04.46.003,HideSeek_v1,2022.2.5,60.398472867477516,
,7,1,7,6,0,5,11,,train_dim1_1,18,30,,,,2,0,2,0,,,,,,,,,0,0,0,0,0,17,17,17,3,0,3,0,,,,,,,,,,,,,,,,,,,,,,,,,,,,,,,,,,,,,,,,,,,,,,,,,,,,,,,,,,,,,,,,30,,,,,,,,583.7049150000094,583.7049150000094,583.7049150000094,583.7049150000094,583.7049150000094,up,0.2761795000405982,3,1,0,99,0.4,2.7755575615628914e-17,up,0.19959109998308122,,,,,,,,,,,,,,,,,,,,,,,,,,,,,,,,,,,,,,,,,,,,,,,,,,,,,,,,,,,,903T5Z,train_y,red_square,bottom_right,2025-06-07_10h04.46.003,HideSeek_v1,2022.2.5,60.398472867477516,
,7,1,7,6,0,5,11,,train_dim1_1,18,30,,,,2,0,2,0,,,,,,,,,0,0,0,0,0,17,17,17,4,0,4,0,,,,,,,,,,,,,,,,,,,,,,,,,,,,,,,,,,,,,,,,,,,,,,,,,,,,,,,,,,,,,,,,30,,,,,,,,583.9881284999428,583.9881284999428,583.9881284999428,583.9881284999428,583.9881284999428,up,0.25991280004382133,3,1,0,99,0.4,0.08000000000000003,up,0.17426220001652837,,,,,,,,,,,,,,,,,,,,,,,,,,,,,,,,,,,,,,,,,,,,,,,,,,,,,,,,,,,,903T5Z,train_y,red_square,bottom_right,2025-06-07_10h04.46.003,HideSeek_v1,2022.2.5,60.398472867477516,
,7,1,7,6,0,5,11,,train_dim1_1,18,30,,,,2,0,2,0,,,,,,,,,0,0,0,0,0,17,17,17,5,0,5,0,,,,,,,,,,,,,,,,,,,,,,,,,,,,,,,,,,,,,,,,,,,,,,,,,,,,,,,,,,,,,,,,30,,,,,,,,584.2572089999449,584.2572089999449,584.2572089999449,584.2572089999449,584.2572089999449,return,0.5268704000627622,4,0,0,1,0.4,0.08000000000000003,return,0.44717340008355677,24,-17,0.4,0.08000000000000003,,,,,,,,,,,,,,,,,,,,,,,,,,,,,,,,,,,,,,,,,,,,,,,,,,,,,,,,903T5Z,train_y,red_square,bottom_right,2025-06-07_10h04.46.003,HideSeek_v1,2022.2.5,60.398472867477516,
,5,4,5,8,0,4,12,,train_dim1_1,19,30,,,,2,0,2,0,,,,,,,,,0,0,0,0,0,18,18,18,0,0,0,0,,,,,,,,,,,,,,,,,,,,,,,,,stimuli/alien_stimuli/12.png,,,,,,,,,,,,,,,,,,,,,,,,,,,,,stimuli/alien_stimuli/11.png,11,7,20,,,,,,,30,,,,,,,,591.6169978999533,591.6169978999533,591.6169978999533,591.6169978999533,591.6169978999533,up,1.973428800003603,4,0,0,99,0.24,0.0,up,1.8808530999813229,,,,,590.0600386000006,591.6169978999533,0.4,0.08,0.4,0.0,-0.12,0.4,0.4,0.4,0.08,586.341040099971,586.341040099971,586.341040099971,586.341040099971,586.341040099971,586.341040099971,586.341040099971,586.341040099971,586.3405583700048,3.8217255000490695,return,3.6876912000589073,,,,,,,,,,,,,,,,,,,,,,,,,,,,,,,,,903T5Z,train_y,red_square,bottom_right,2025-06-07_10h04.46.003,HideSeek_v1,2022.2.5,60.398472867477516,
,5,4,5,8,0,4,12,,train_dim1_1,19,30,,,,2,0,2,0,,,,,,,,,0,0,0,0,0,18,18,18,1,0,1,0,,,,,,,,,,,,,,,,,,,,,,,,,,,,,,,,,,,,,,,,,,,,,,,,,,,,,,,,,,,,,,,,30,,,,,,,,593.5973962999415,593.5973962999415,593.5973962999415,593.5973962999415,593.5973962999415,up,0.24307129997760057,4,0,0,99,0.24,0.08,up,0.16533730004448444,,,,,,,,,,,,,,,,,,,,,,,,,,,,,,,,,,,,,,,,,,,,,,,,,,,,,,,,,,,,903T5Z,train_y,red_square,bottom_right,2025-06-07_10h04.46.003,HideSeek_v1,2022.2.5,60.398472867477516,
,5,4,5,8,0,4,12,,train_dim1_1,19,30,,,,2,0,2,0,,,,,,,,,0,0,0,0,0,18,18,18,2,0,2,0,,,,,,,,,,,,,,,,,,,,,,,,,,,,,,,,,,,,,,,,,,,,,,,,,,,,,,,,,,,,,,,,30,,,,,,,,593.8478168000001,593.8478168000001,593.8478168000001,593.8478168000001,593.8478168000001,up,0.3096443999093026,4,0,0,99,0.24,0.16,up,0.2219208999304101,,,,,,,,,,,,,,,,,,,,,,,,,,,,,,,,,,,,,,,,,,,,,,,,,,,,,,,,,,,,903T5Z,train_y,red_square,bottom_right,2025-06-07_10h04.46.003,HideSeek_v1,2022.2.5,60.398472867477516,
,5,4,5,8,0,4,12,,train_dim1_1,19,30,,,,2,0,2,0,,,,,,,,,0,0,0,0,0,18,18,18,3,0,3,0,,,,,,,,,,,,,,,,,,,,,,,,,,,,,,,,,,,,,,,,,,,,,,,,,,,,,,,,,,,,,,,,30,,,,,,,,594.1638391000452,594.1638391000452,594.1638391000452,594.1638391000452,594.1638391000452,up,0.27675690001342446,4,0,0,99,0.24,0.24,up,0.18714150006417185,,,,,,,,,,,,,,,,,,,,,,,,,,,,,,,,,,,,,,,,,,,,,,,,,,,,,,,,,,,,903T5Z,train_y,red_square,bottom_right,2025-06-07_10h04.46.003,HideSeek_v1,2022.2.5,60.398472867477516,
,5,4,5,8,0,4,12,,train_dim1_1,19,30,,,,2,0,2,0,,,,,,,,,0,0,0,0,0,18,18,18,4,0,4,0,,,,,,,,,,,,,,,,,,,,,,,,,,,,,,,,,,,,,,,,,,,,,,,,,,,,,,,,,,,,,,,,30,,,,,,,,594.4477134000044,594.4477134000044,594.4477134000044,594.4477134000044,594.4477134000044,return,0.44359120004810393,5,0,0,1,0.24,0.24,return,0.35172929998952895,28,-17,0.24,0.24,,,,,,,,,,,,,,,,,,,,,,,,,,,,,,,,,,,,,,,,,,,,,,,,,,,,,,,,903T5Z,train_y,red_square,bottom_right,2025-06-07_10h04.46.003,HideSeek_v1,2022.2.5,60.398472867477516,
,7,0,7,0,0,0,16,,train_dim1_1,20,30,,,,2,0,2,0,,,,,,,,,0,0,0,0,0,19,19,19,0,0,0,0,,,,,,,,,,,,,,,,,,,,,,,,,stimuli/alien_stimuli/16.png,,,,,,,,,,,,,,,,,,,,,,,,,,,,,stimuli/alien_stimuli/12.png,12,5,21,,,,,,,30,,,,,,,,600.4244413999841,600.4244413999841,600.4244413999841,600.4244413999841,600.4244413999841,return,2.1061282000737265,6,0,0,1,0.4,-0.4,return,2.0304547999985516,28,-17,0.4,-0.4,598.8672149999766,600.4244413999841,0.24,0.24,0.32,0.0,0.07999999999999999,0.24,0.24,0.24,0.24,596.4472788999556,596.4472788999556,596.4472788999556,596.4472788999556,596.4472788999556,596.4472788999556,596.4472788999556,596.4472788999556,596.4319805600447,2.521093099960126,return,2.397179900086485,,,,,,,,,,,,,,,,,,,,,,,,,,,,,,,,,903T5Z,train_y,red_square,bottom_right,2025-06-07_10h04.46.003,HideSeek_v1,2022.2.5,60.398472867477516,
,7,4,7,5,0,1,15,,train_dim1_1,21,30,,,,2,0,2,0,,,,,,,,,0,0,0,0,0,20,20,20,0,0,0,0,,,,,,,,,,,,,,,,,,,,,,,,,stimuli/alien_stimuli/15.png,,,,,,,,,,,,,,,,,,,,,,,,,,,,,stimuli/alien_stimuli/16.png,16,7,22,,,,,,,30,,,,,,,,606.877360100043,606.877360100043,606.877360100043,606.877360100043,606.877360100043,up,1.3239918999606743,6,0,0,99,0.4,0.0,up,1.2485065999208018,,,,,605.3228384000249,606.877360100043,0.4,-0.4,0.0,0.0,-0.4,0.4,0.4,0.4,-0.4,604.0873695999617,604.0873695999617,604.0873695999617,604.0873695999617,604.0873695999617,604.0873695999617,604.0873695999617,604.0873695999617,604.0883577700122,1.3377017000457272,return,1.215643300092779,,,,,,,,,,,,,,,,,,,,,,,,,,,,,,,,,903T5Z,train_y,red_square,bottom_right,2025-06-07_10h04.46.003,HideSeek_v1,2022.2.5,60.398472867477516,
,7,4,7,5,0,1,15,,train_dim1_1,21,30,,,,2,0,2,0,,,,,,,,,0,0,0,0,0,20,20,20,1,0,1,0,,,,,,,,,,,,,,,,,,,,,,,,,,,,,,,,,,,,,,,,,,,,,,,,,,,,,,,,,,,,,,,,30,,,,,,,,608.2099325000308,608.2099325000308,608.2099325000308,608.2099325000308,608.2099325000308,return,0.4762911999132484,7,0,0,1,0.4,0.0,return,0.3977900000754744,29,-17,0.4,0.0,,,,,,,,,,,,,,,,,,,,,,,,,,,,,,,,,,,,,,,,,,,,,,,,,,,,,,,,903T5Z,train_y,red_square,bottom_right,2025-06-07_10h04.46.003,HideSeek_v1,2022.2.5,60.398472867477516,
,5,2,5,5,0,3,13,,train_dim1_1,22,30,,,,2,0,2,0,,,,,,,,,0,0,0,0,0,21,21,21,0,0,0,0,,,,,,,,,,,,,,,,,,,,,,,,,stimuli/alien_stimuli/13.png,,,,,,,,,,,,,,,,,,,,,,,,,,,,,stimuli/alien_stimuli/15.png,15,7,23,,,,,,,30,,,,,,,,612.8017955999821,612.8017955999821,612.8017955999821,612.8017955999821,612.8017955999821,up,1.8224940999643877,7,0,0,99,0.24,-0.15999999999999998,up,1.7382086000870913,,,,,611.24415579997,612.8017955999821,0.4,0,0.08,0.0,-0.04,0.4,0.4,0.4,0,610.2569814999588,610.2569814999588,610.2569814999588,610.2569814999588,610.2569814999588,610.2569814999588,610.2569814999588,610.2569814999588,610.2434910700074,1.103006099932827,return,0.9657048999797553,,,,,,,,,,,,,,,,,,,,,,,,,,,,,,,,,903T5Z,train_y,red_square,bottom_right,2025-06-07_10h04.46.003,HideSeek_v1,2022.2.5,60.398472867477516,
,5,2,5,5,0,3,13,,train_dim1_1,22,30,,,,2,0,2,0,,,,,,,,,0,0,0,0,0,21,21,21,1,0,1,0,,,,,,,,,,,,,,,,,,,,,,,,,,,,,,,,,,,,,,,,,,,,,,,,,,,,,,,,,,,,,,,,30,,,,,,,,614.6312112000305,614.6312112000305,614.6312112000305,614.6312112000305,614.6312112000305,up,0.24272310000378639,7,0,0,99,0.24,-0.07999999999999997,up,0.15107429993804544,,,,,,,,,,,,,,,,,,,,,,,,,,,,,,,,,,,,,,,,,,,,,,,,,,,,,,,,,,,,903T5Z,train_y,red_square,bottom_right,2025-06-07_10h04.46.003,HideSeek_v1,2022.2.5,60.398472867477516,
,5,2,5,5,0,3,13,,train_dim1_1,22,30,,,,2,0,2,0,,,,,,,,,0,0,0,0,0,21,21,21,2,0,2,0,,,,,,,,,,,,,,,,,,,,,,,,,,,,,,,,,,,,,,,,,,,,,,,,,,,,,,,,,,,,,,,,30,,,,,,,,614.8798297999892,614.8798297999892,614.8798297999892,614.8798297999892,614.8798297999892,up,0.32670889992732555,7,0,0,99,0.24,2.7755575615628914e-17,up,0.2501286000479013,,,,,,,,,,,,,,,,,,,,,,,,,,,,,,,,,,,,,,,,,,,,,,,,,,,,,,,,,,,,903T5Z,train_y,red_square,bottom_right,2025-06-07_10h04.46.003,HideSeek_v1,2022.2.5,60.398472867477516,
,5,2,5,5,0,3,13,,train_dim1_1,22,30,,,,2,0,2,0,,,,,,,,,0,0,0,0,0,21,21,21,3,0,3,0,,,,,,,,,,,,,,,,,,,,,,,,,,,,,,,,,,,,,,,,,,,,,,,,,,,,,,,,,,,,,,,,30,,,,,,,,615.2140670999652,615.2140670999652,615.2140670999652,615.2140670999652,615.2140670999652,up,0.326657300000079,7,0,0,99,0.24,0.08000000000000003,up,0.2452972000464797,,,,,,,,,,,,,,,,,,,,,,,,,,,,,,,,,,,,,,,,,,,,,,,,,,,,,,,,,,,,903T5Z,train_y,red_square,bottom_right,2025-06-07_10h04.46.003,HideSeek_v1,2022.2.5,60.398472867477516,
,5,2,5,5,0,3,13,,train_dim1_1,22,30,,,,2,0,2,0,,,,,,,,,0,0,0,0,0,21,21,21,4,0,4,0,,,,,,,,,,,,,,,,,,,,,,,,,,,,,,,,,,,,,,,,,,,,,,,,,,,,,,,,,,,,,,,,30,,,,,,,,615.550169199938,615.550169199938,615.550169199938,615.550169199938,615.550169199938,down,1.6612528000259772,7,0,0,99,0.24,2.7755575615628914e-17,down,1.5787254000315443,,,,,,,,,,,,,,,,,,,,,,,,,,,,,,,,,,,,,,,,,,,,,,,,,,,,,,,,,,,,903T5Z,train_y,red_square,bottom_right,2025-06-07_10h04.46.003,HideSeek_v1,2022.2.5,60.398472867477516,
,5,2,5,5,0,3,13,,train_dim1_1,22,30,,,,2,0,2,0,,,,,,,,,0,0,0,0,0,21,21,21,5,0,5,0,,,,,,,,,,,,,,,,,,,,,,,,,,,,,,,,,,,,,,,,,,,,,,,,,,,,,,,,,,,,,,,,30,,,,,,,,617.2162340999348,617.2162340999348,617.2162340999348,617.2162340999348,617.2162340999348,return,0.22637799999210984,8,0,0,1,0.24,2.7755575615628914e-17,return,0.14449480001349002,32,-17,0.24,2.7755575615628914e-17,,,,,,,,,,,,,,,,,,,,,,,,,,,,,,,,,,,,,,,,,,,,,,,,,,,,,,,,903T5Z,train_y,red_square,bottom_right,2025-06-07_10h04.46.003,HideSeek_v1,2022.2.5,60.398472867477516,
,5,3,5,8,0,5,11,,train_dim1_1,23,30,,,,2,0,2,0,,,,,,,,,0,0,0,0,0,22,22,22,0,0,0,0,,,,,,,,,,,,,,,,,,,,,,,,,stimuli/alien_stimuli/11.png,,,,,,,,,,,,,,,,,,,,,,,,,,,,,stimuli/alien_stimuli/13.png,13,5,24,,,,,,,30,,,,,,,,621.7136221999535,621.7136221999535,621.7136221999535,621.7136221999535,621.7136221999535,up,0.9008134000468999,8,0,0,99,0.24,-0.08,up,0.8184326000045985,,,,,620.1515064999694,621.7136221999535,0.24,0,0.24,0.0,-0.12,0.24,0.24,0.24,0,619.0135906999931,619.0135906999931,619.0135906999931,619.0135906999931,619.0135906999931,619.0135906999931,619.0135906999931,619.0135906999931,619.0007296699448,1.2531850000377744,return,1.1161739999661222,,,,,,,,,,,,,,,,,,,,,,,,,,,,,,,,,903T5Z,train_y,red_square,bottom_right,2025-06-07_10h04.46.003,HideSeek_v1,2022.2.5,60.398472867477516,
,5,3,5,8,0,5,11,,train_dim1_1,23,30,,,,2,0,2,0,,,,,,,,,0,0,0,0,0,22,22,22,1,0,1,0,,,,,,,,,,,,,,,,,,,,,,,,,,,,,,,,,,,,,,,,,,,,,,,,,,,,,,,,,,,,,,,,30,,,,,,,,622.6207016999833,622.6207016999833,622.6207016999833,622.6207016999833,622.6207016999833,up,0.2762150999624282,8,0,0,99,0.24,0.0,up,0.1926760000642389,,,,,,,,,,,,,,,,,,,,,,,,,,,,,,,,,,,,,,,,,,,,,,,,,,,,,,,,,,,,903T5Z,train_y,red_square,bottom_right,2025-06-07_10h04.46.003,HideSeek_v1,2022.2.5,60.398472867477516,
,5,3,5,8,0,5,11,,train_dim1_1,23,30,,,,2,0,2,0,,,,,,,,,0,0,0,0,0,22,22,22,2,0,2,0,,,,,,,,,,,,,,,,,,,,,,,,,,,,,,,,,,,,,,,,,,,,,,,,,,,,,,,,,,,,,,,,30,,,,,,,,622.9044618000044,622.9044618000044,622.9044618000044,622.9044618000044,622.9044618000044,up,0.2933692999649793,8,0,0,99,0.24,0.08,up,0.21709569997619838,,,,,,,,,,,,,,,,,,,,,,,,,,,,,,,,,,,,,,,,,,,,,,,,,,,,,,,,,,,,903T5Z,train_y,red_square,bottom_right,2025-06-07_10h04.46.003,HideSeek_v1,2022.2.5,60.398472867477516,
,5,3,5,8,0,5,11,,train_dim1_1,23,30,,,,2,0,2,0,,,,,,,,,0,0,0,0,0,22,22,22,3,0,3,0,,,,,,,,,,,,,,,,,,,,,,,,,,,,,,,,,,,,,,,,,,,,,,,,,,,,,,,,,,,,,,,,30,,,,,,,,623.2041092000436,623.2041092000436,623.2041092000436,623.2041092000436,623.2041092000436,up,0.29293320002034307,8,0,0,99,0.24,0.16,up,0.21266899991314858,,,,,,,,,,,,,,,,,,,,,,,,,,,,,,,,,,,,,,,,,,,,,,,,,,,,,,,,,,,,903T5Z,train_y,red_square,bottom_right,2025-06-07_10h04.46.003,HideSeek_v1,2022.2.5,60.398472867477516,
,5,3,5,8,0,5,11,,train_dim1_1,23,30,,,,2,0,2,0,,,,,,,,,0,0,0,0,0,22,22,22,4,0,4,0,,,,,,,,,,,,,,,,,,,,,,,,,,,,,,,,,,,,,,,,,,,,,,,,,,,,,,,,,,,,,,,,30,,,,,,,,623.5039850999601,623.5039850999601,623.5039850999601,623.5039850999601,623.5039850999601,up,0.2931327000260353,8,0,0,99,0.24,0.24,up,0.21837990009225905,,,,,,,,,,,,,,,,,,,,,,,,,,,,,,,,,,,,,,,,,,,,,,,,,,,,,,,,,,,,903T5Z,train_y,red_square,bottom_right,2025-06-07_10h04.46.003,HideSeek_v1,2022.2.5,60.398472867477516,
,5,3,5,8,0,5,11,,train_dim1_1,23,30,,,,2,0,2,0,,,,,,,,,0,0,0,0,0,22,22,22,5,0,5,0,,,,,,,,,,,,,,,,,,,,,,,,,,,,,,,,,,,,,,,,,,,,,,,,,,,,,,,,,,,,,,,,30,,,,,,,,623.8064313000068,623.8064313000068,623.8064313000068,623.8064313000068,623.8064313000068,return,0.39447719999589026,9,0,0,1,0.24,0.24,return,0.3046759999124333,37,-17,0.24,0.24,,,,,,,,,,,,,,,,,,,,,,,,,,,,,,,,,,,,,,,,,,,,,,,,,,,,,,,,903T5Z,train_y,red_square,bottom_right,2025-06-07_10h04.46.003,HideSeek_v1,2022.2.5,60.398472867477516,
,8,2,8,2,0,0,16,,train_dim1_1,24,30,,,,2,0,2,0,,,,,,,,,0,0,0,0,0,23,23,23,0,0,0,0,,,,,,,,,,,,,,,,,,,,,,,,,stimuli/alien_stimuli/16.png,,,,,,,,,,,,,,,,,,,,,,,,,,,,,stimuli/alien_stimuli/11.png,11,5,25,,,,,,,30,,,,,,,,628.2642543000402,628.2642543000402,628.2642543000402,628.2642543000402,628.2642543000402,return,3.1561325000366196,10,0,0,1,0.48,-0.24,return,3.0674128000391647,37,-17,0.48,-0.24,626.7070556000108,628.2642543000402,0.24,0.24,0.4,0.0,0.039999999999999994,0.24,0.24,0.24,0.24,625.7523783999495,625.7523783999495,625.7523783999495,625.7523783999495,625.7523783999495,625.7523783999495,625.7523783999495,625.7523783999495,625.7397444599541,1.052963300026022,return,0.9230363999959081,,,,,,,,,,,,,,,,,,,,,,,,,,,,,,,,,903T5Z,train_y,red_square,bottom_right,2025-06-07_10h04.46.003,HideSeek_v1,2022.2.5,60.398472867477516,
,8,3,8,7,0,4,12,,train_dim1_1,25,30,,,,2,0,2,0,,,,,,,,,0,0,0,0,0,24,24,24,0,0,0,0,,,,,,,,,,,,,,,,,,,,,,,,,stimuli/alien_stimuli/12.png,,,,,,,,,,,,,,,,,,,,,,,,,,,,,stimuli/alien_stimuli/16.png,16,8,26,,,,,,,30,,,,,,,,637.1712314999895,637.1712314999895,637.1712314999895,637.1712314999895,637.1712314999895,up,1.7574570999713615,10,0,0,99,0.48,-0.08,up,1.6638572999509051,,,,,635.6143505999353,637.1712314999895,0.48,-0.24,0.0,0.0,-0.24,0.48,0.48,0.48,-0.24,632.9767900999868,632.9767900999868,632.9767900999868,632.9767900999868,632.9767900999868,632.9767900999868,632.9767900999868,632.9767900999868,632.962161359936,2.7378860000753775,return,2.610587100032717,,,,,,,,,,,,,,,,,,,,,,,,,,,,,,,,,903T5Z,train_y,red_square,bottom_right,2025-06-07_10h04.46.003,HideSeek_v1,2022.2.5,60.398472867477516,
,8,3,8,7,0,4,12,,train_dim1_1,25,30,,,,2,0,2,0,,,,,,,,,0,0,0,0,0,24,24,24,1,0,1,0,,,,,,,,,,,,,,,,,,,,,,,,,,,,,,,,,,,,,,,,,,,,,,,,,,,,,,,,,,,,,,,,30,,,,,,,,638.9345479999902,638.9345479999902,638.9345479999902,638.9345479999902,638.9345479999902,up,0.24284600000828505,10,0,0,99,0.48,0.0,up,0.15063499996904284,,,,,,,,,,,,,,,,,,,,,,,,,,,,,,,,,,,,,,,,,,,,,,,,,,,,,,,,,,,,903T5Z,train_y,red_square,bottom_right,2025-06-07_10h04.46.003,HideSeek_v1,2022.2.5,60.398472867477516,
,8,3,8,7,0,4,12,,train_dim1_1,25,30,,,,2,0,2,0,,,,,,,,,0,0,0,0,0,24,24,24,2,0,2,0,,,,,,,,,,,,,,,,,,,,,,,,,,,,,,,,,,,,,,,,,,,,,,,,,,,,,,,,,,,,,,,,30,,,,,,,,639.1847516000271,639.1847516000271,639.1847516000271,639.1847516000271,639.1847516000271,up,0.27664749999530613,10,0,0,99,0.48,0.08,up,0.19238010002300143,,,,,,,,,,,,,,,,,,,,,,,,,,,,,,,,,,,,,,,,,,,,,,,,,,,,,,,,,,,,903T5Z,train_y,red_square,bottom_right,2025-06-07_10h04.46.003,HideSeek_v1,2022.2.5,60.398472867477516,
,8,3,8,7,0,4,12,,train_dim1_1,25,30,,,,2,0,2,0,,,,,,,,,0,0,0,0,0,24,24,24,3,0,3,0,,,,,,,,,,,,,,,,,,,,,,,,,,,,,,,,,,,,,,,,,,,,,,,,,,,,,,,,,,,,,,,,30,,,,,,,,639.4684555999702,639.4684555999702,639.4684555999702,639.4684555999702,639.4684555999702,up,0.27654530003201216,10,0,0,99,0.48,0.16,up,0.19451699999626726,,,,,,,,,,,,,,,,,,,,,,,,,,,,,,,,,,,,,,,,,,,,,,,,,,,,,,,,,,,,903T5Z,train_y,red_square,bottom_right,2025-06-07_10h04.46.003,HideSeek_v1,2022.2.5,60.398472867477516,
,8,3,8,7,0,4,12,,train_dim1_1,25,30,,,,2,0,2,0,,,,,,,,,0,0,0,0,0,24,24,24,4,0,4,0,,,,,,,,,,,,,,,,,,,,,,,,,,,,,,,,,,,,,,,,,,,,,,,,,,,,,,,,,,,,,,,,30,,,,,,,,639.7517663999461,639.7517663999461,639.7517663999461,639.7517663999461,639.7517663999461,return,0.29352609999477863,11,0,0,1,0.48,0.16,return,0.21131029992830008,41,-17,0.48,0.16,,,,,,,,,,,,,,,,,,,,,,,,,,,,,,,,,,,,,,,,,,,,,,,,,,,,,,,,903T5Z,train_y,red_square,bottom_right,2025-06-07_10h04.46.003,HideSeek_v1,2022.2.5,60.398472867477516,
,9,4,9,7,0,3,13,,train_dim1_1,26,30,,,,2,0,2,0,,,,,,,,,0,0,0,0,0,25,25,25,0,0,0,0,,,,,,,,,,,,,,,,,,,,,,,,,stimuli/alien_stimuli/13.png,,,,,,,,,,,,,,,,,,,,,,,,,,,,,stimuli/alien_stimuli/12.png,12,8,27,,,,,,,30,,,,,,,,644.279345799936,644.279345799936,644.279345799936,644.279345799936,644.279345799936,up,1.3031696999678388,11,0,0,99,0.56,0.0,up,1.2164151000324637,,,,,642.7203297000378,644.279345799936,0.48,0.16,0.32,0.0,0.0,0.48,0.48,0.48,0.16,641.6226923000067,641.6226923000067,641.6226923000067,641.6226923000067,641.6226923000067,641.6226923000067,641.6226923000067,641.6226923000067,641.6195517799816,1.2202388999285176,return,1.0820403000107035,,,,,,,,,,,,,,,,,,,,,,,,,,,,,,,,,903T5Z,train_y,red_square,bottom_right,2025-06-07_10h04.46.003,HideSeek_v1,2022.2.5,60.398472867477516,
,9,4,9,7,0,3,13,,train_dim1_1,26,30,,,,2,0,2,0,,,,,,,,,0,0,0,0,0,25,25,25,1,0,1,0,,,,,,,,,,,,,,,,,,,,,,,,,,,,,,,,,,,,,,,,,,,,,,,,,,,,,,,,,,,,,,,,30,,,,,,,,645.5896717000287,645.5896717000287,645.5896717000287,645.5896717000287,645.5896717000287,up,0.1930041000014171,11,0,0,99,0.56,0.08,up,0.11606399994343519,,,,,,,,,,,,,,,,,,,,,,,,,,,,,,,,,,,,,,,,,,,,,,,,,,,,,,,,,,,,903T5Z,train_y,red_square,bottom_right,2025-06-07_10h04.46.003,HideSeek_v1,2022.2.5,60.398472867477516,
,9,4,9,7,0,3,13,,train_dim1_1,26,30,,,,2,0,2,0,,,,,,,,,0,0,0,0,0,25,25,25,2,0,2,0,,,,,,,,,,,,,,,,,,,,,,,,,,,,,,,,,,,,,,,,,,,,,,,,,,,,,,,,,,,,,,,,30,,,,,,,,645.790445099934,645.790445099934,645.790445099934,645.790445099934,645.790445099934,up,0.25984209997113794,11,0,0,99,0.56,0.16,up,0.16812909999862313,,,,,,,,,,,,,,,,,,,,,,,,,,,,,,,,,,,,,,,,,,,,,,,,,,,,,,,,,,,,903T5Z,train_y,red_square,bottom_right,2025-06-07_10h04.46.003,HideSeek_v1,2022.2.5,60.398472867477516,
,9,4,9,7,0,3,13,,train_dim1_1,26,30,,,,2,0,2,0,,,,,,,,,0,0,0,0,0,25,25,25,3,0,3,0,,,,,,,,,,,,,,,,,,,,,,,,,,,,,,,,,,,,,,,,,,,,,,,,,,,,,,,,,,,,,,,,30,,,,,,,,646.0562640000135,646.0562640000135,646.0562640000135,646.0562640000135,646.0562640000135,up,1.0437558999983594,11,0,0,99,0.56,0.24,up,0.9628663000185043,,,,,,,,,,,,,,,,,,,,,,,,,,,,,,,,,,,,,,,,,,,,,,,,,,,,,,,,,,,,903T5Z,train_y,red_square,bottom_right,2025-06-07_10h04.46.003,HideSeek_v1,2022.2.5,60.398472867477516,
,9,4,9,7,0,3,13,,train_dim1_1,26,30,,,,2,0,2,0,,,,,,,,,0,0,0,0,0,25,25,25,4,0,4,0,,,,,,,,,,,,,,,,,,,,,,,,,,,,,,,,,,,,,,,,,,,,,,,,,,,,,,,,,,,,,,,,30,,,,,,,,647.1075819999678,647.1075819999678,647.1075819999678,647.1075819999678,647.1075819999678,down,1.0107295999769121,11,0,0,99,0.56,0.15999999999999998,down,0.9268042000476271,,,,,,,,,,,,,,,,,,,,,,,,,,,,,,,,,,,,,,,,,,,,,,,,,,,,,,,,,,,,903T5Z,train_y,red_square,bottom_right,2025-06-07_10h04.46.003,HideSeek_v1,2022.2.5,60.398472867477516,
,9,4,9,7,0,3,13,,train_dim1_1,26,30,,,,2,0,2,0,,,,,,,,,0,0,0,0,0,25,25,25,5,0,5,0,,,,,,,,,,,,,,,,,,,,,,,,,,,,,,,,,,,,,,,,,,,,,,,,,,,,,,,,,,,,,,,,30,,,,,,,,648.1249553000089,648.1249553000089,648.1249553000089,648.1249553000089,648.1249553000089,return,0.4100103999953717,12,0,0,1,0.56,0.15999999999999998,return,0.32500399998389184,44,-17,0.56,0.15999999999999998,,,,,,,,,,,,,,,,,,,,,,,,,,,,,,,,,,,,,,,,,,,,,,,,,,,,,,,,903T5Z,train_y,red_square,bottom_right,2025-06-07_10h04.46.003,HideSeek_v1,2022.2.5,60.398472867477516,
,8,4,8,4,0,0,16,,train_dim1_1,27,30,,,,2,0,2,0,,,,,,,,,0,0,0,0,0,26,26,26,0,0,0,0,,,,,,,,,,,,,,,,,,,,,,,,,stimuli/alien_stimuli/16.png,,,,,,,,,,,,,,,,,,,,,,,,,,,,,stimuli/alien_stimuli/13.png,13,9,28,,,,,,,30,,,,,,,,653.7670771999983,653.7670771999983,653.7670771999983,653.7670771999983,653.7670771999983,left,0.8396636999677867,12,0,0,99,0.39999999999999997,-0.08,left,0.7581430999562144,,,,,652.211446100031,653.7670771999983,0.56,0.16,0.24,0.0,0.04,0.56,0.56,0.56,0.16,650.0922127999365,650.0922127999365,650.0922127999365,650.0922127999365,650.0922127999365,650.0922127999365,650.0922127999365,650.0922127999365,650.0932824700255,2.2203530999831855,return,2.0872246000217274,,,,,,,,,,,,,,,,,,,,,,,,,,,,,,,,,903T5Z,train_y,red_square,bottom_right,2025-06-07_10h04.46.003,HideSeek_v1,2022.2.5,60.398472867477516,
,8,4,8,4,0,0,16,,train_dim1_1,27,30,,,,2,0,2,0,,,,,,,,,0,0,0,0,0,26,26,26,1,0,1,0,,,,,,,,,,,,,,,,,,,,,,,,,,,,,,,,,,,,,,,,,,,,,,,,,,,,,,,,,,,,,,,,30,,,,,,,,654.6139625000069,654.6139625000069,654.6139625000069,654.6139625000069,654.6139625000069,return,0.49313710001297295,12,1,0,0,0.39999999999999997,-0.08,return,0.40222669998183846,44,-18,0.39999999999999997,-0.08,,,,,,,,,,,,,,,,,,,,,,,,,,,,,,,,,,,,,,,,,,,,,,,,,,,,,,,,903T5Z,train_y,red_square,bottom_right,2025-06-07_10h04.46.003,HideSeek_v1,2022.2.5,60.398472867477516,
,9,1,9,6,0,5,11,,train_dim1_1,28,30,,,,2,0,2,0,,,,,,,,,0,0,0,0,0,27,27,27,0,0,0,0,,,,,,,,,,,,,,,,,,,,,,,,,stimuli/alien_stimuli/11.png,,,,,,,,,,,,,,,,,,,,,,,,,,,,,stimuli/alien_stimuli/16.png,16,8,29,,,,,,,30,,,,,,,,659.7067717999453,659.7067717999453,659.7067717999453,659.7067717999453,659.7067717999453,up,1.2886690000304952,12,1,0,99,0.56,-0.24,up,1.2084944000234827,,,,,658.1500818999484,659.7067717999453,0.48,-0.08,0.0,0.0,-0.08,0.48,0.48,0.48,-0.08,656.6635629000375,656.6635629000375,656.6635629000375,656.6635629000375,656.6635629000375,656.6635629000375,656.6635629000375,656.6635629000375,656.6652591700083,1.586815100046806,return,1.46355699992273,,,,,,,,,,,,,,,,,,,,,,,,,,,,,,,,,903T5Z,train_y,red_square,bottom_right,2025-06-07_10h04.46.003,HideSeek_v1,2022.2.5,60.398472867477516,
,9,1,9,6,0,5,11,,train_dim1_1,28,30,,,,2,0,2,0,,,,,,,,,0,0,0,0,0,27,27,27,1,0,1,0,,,,,,,,,,,,,,,,,,,,,,,,,,,,,,,,,,,,,,,,,,,,,,,,,,,,,,,,,,,,,,,,30,,,,,,,,661.0026476000203,661.0026476000203,661.0026476000203,661.0026476000203,661.0026476000203,up,0.20929679996334016,12,1,0,99,0.56,-0.15999999999999998,up,0.124471899936907,,,,,,,,,,,,,,,,,,,,,,,,,,,,,,,,,,,,,,,,,,,,,,,,,,,,,,,,,,,,903T5Z,train_y,red_square,bottom_right,2025-06-07_10h04.46.003,HideSeek_v1,2022.2.5,60.398472867477516,
,9,1,9,6,0,5,11,,train_dim1_1,28,30,,,,2,0,2,0,,,,,,,,,0,0,0,0,0,27,27,27,2,0,2,0,,,,,,,,,,,,,,,,,,,,,,,,,,,,,,,,,,,,,,,,,,,,,,,,,,,,,,,,,,,,,,,,30,,,,,,,,661.2203164999373,661.2203164999373,661.2203164999373,661.2203164999373,661.2203164999373,up,0.26013110007625073,12,1,0,99,0.56,-0.07999999999999997,up,0.16856679995544255,,,,,,,,,,,,,,,,,,,,,,,,,,,,,,,,,,,,,,,,,,,,,,,,,,,,,,,,,,,,903T5Z,train_y,red_square,bottom_right,2025-06-07_10h04.46.003,HideSeek_v1,2022.2.5,60.398472867477516,
,9,1,9,6,0,5,11,,train_dim1_1,28,30,,,,2,0,2,0,,,,,,,,,0,0,0,0,0,27,27,27,3,0,3,0,,,,,,,,,,,,,,,,,,,,,,,,,,,,,,,,,,,,,,,,,,,,,,,,,,,,,,,,,,,,,,,,30,,,,,,,,661.4856950000394,661.4856950000394,661.4856950000394,661.4856950000394,661.4856950000394,up,0.19298169994726777,12,1,0,99,0.56,2.7755575615628914e-17,up,0.11634340009186417,,,,,,,,,,,,,,,,,,,,,,,,,,,,,,,,,,,,,,,,,,,,,,,,,,,,,,,,,,,,903T5Z,train_y,red_square,bottom_right,2025-06-07_10h04.46.003,HideSeek_v1,2022.2.5,60.398472867477516,
,9,1,9,6,0,5,11,,train_dim1_1,28,30,,,,2,0,2,0,,,,,,,,,0,0,0,0,0,27,27,27,4,0,4,0,,,,,,,,,,,,,,,,,,,,,,,,,,,,,,,,,,,,,,,,,,,,,,,,,,,,,,,,,,,,,,,,30,,,,,,,,661.6864468000131,661.6864468000131,661.6864468000131,661.6864468000131,661.6864468000131,up,0.2101333000464365,12,1,0,99,0.56,0.08000000000000003,up,0.12391720002051443,,,,,,,,,,,,,,,,,,,,,,,,,,,,,,,,,,,,,,,,,,,,,,,,,,,,,,,,,,,,903T5Z,train_y,red_square,bottom_right,2025-06-07_10h04.46.003,HideSeek_v1,2022.2.5,60.398472867477516,
,9,1,9,6,0,5,11,,train_dim1_1,28,30,,,,2,0,2,0,,,,,,,,,0,0,0,0,0,27,27,27,5,0,5,0,,,,,,,,,,,,,,,,,,,,,,,,,,,,,,,,,,,,,,,,,,,,,,,,,,,,,,,,,,,,,,,,30,,,,,,,,661.9037485000445,661.9037485000445,661.9037485000445,661.9037485000445,661.9037485000445,return,0.4434106000699103,13,0,0,1,0.56,0.08000000000000003,return,0.3581610999535769,49,-18,0.56,0.08000000000000003,,,,,,,,,,,,,,,,,,,,,,,,,,,,,,,,,,,,,,,,,,,,,,,,,,,,,,,,903T5Z,train_y,red_square,bottom_right,2025-06-07_10h04.46.003,HideSeek_v1,2022.2.5,60.398472867477516,
,7,2,7,6,0,4,12,,train_dim1_1,29,30,,,,2,0,2,0,,,,,,,,,0,0,0,0,0,28,28,28,0,0,0,0,,,,,,,,,,,,,,,,,,,,,,,,,stimuli/alien_stimuli/12.png,,,,,,,,,,,,,,,,,,,,,,,,,,,,,stimuli/alien_stimuli/11.png,11,9,30,,,,,,,30,,,,,,,,666.0298406999791,666.0298406999791,666.0298406999791,666.0298406999791,666.0298406999791,up,1.1216682000085711,13,0,0,99,0.4,-0.15999999999999998,up,1.0418873999733478,,,,,664.471684499993,666.0298406999791,0.56,0.08,0.4,0.0,-0.12,0.56,0.56,0.56,0.08,663.9009209999349,663.9009209999349,663.9009209999349,663.9009209999349,663.9009209999349,663.9009209999349,663.9009209999349,663.9009209999349,663.8878288599429,0.6695080000208691,return,0.5386997999157757,,,,,,,,,,,,,,,,,,,,,,,,,,,,,,,,,903T5Z,train_y,red_square,bottom_right,2025-06-07_10h04.46.003,HideSeek_v1,2022.2.5,60.398472867477516,
,7,2,7,6,0,4,12,,train_dim1_1,29,30,,,,2,0,2,0,,,,,,,,,0,0,0,0,0,28,28,28,1,0,1,0,,,,,,,,,,,,,,,,,,,,,,,,,,,,,,,,,,,,,,,,,,,,,,,,,,,,,,,,,,,,,,,,30,,,,,,,,667.1591111000162,667.1591111000162,667.1591111000162,667.1591111000162,667.1591111000162,up,0.19285840005613863,13,0,0,99,0.4,-0.07999999999999997,up,0.10552490002010018,,,,,,,,,,,,,,,,,,,,,,,,,,,,,,,,,,,,,,,,,,,,,,,,,,,,,,,,,,,,903T5Z,train_y,red_square,bottom_right,2025-06-07_10h04.46.003,HideSeek_v1,2022.2.5,60.398472867477516,
,7,2,7,6,0,4,12,,train_dim1_1,29,30,,,,2,0,2,0,,,,,,,,,0,0,0,0,0,28,28,28,2,0,2,0,,,,,,,,,,,,,,,,,,,,,,,,,,,,,,,,,,,,,,,,,,,,,,,,,,,,,,,,,,,,,,,,30,,,,,,,,667.358869299991,667.358869299991,667.358869299991,667.358869299991,667.358869299991,up,0.25975209998432547,13,0,0,99,0.4,2.7755575615628914e-17,up,0.16800860001239926,,,,,,,,,,,,,,,,,,,,,,,,,,,,,,,,,,,,,,,,,,,,,,,,,,,,,,,,,,,,903T5Z,train_y,red_square,bottom_right,2025-06-07_10h04.46.003,HideSeek_v1,2022.2.5,60.398472867477516,
,7,2,7,6,0,4,12,,train_dim1_1,29,30,,,,2,0,2,0,,,,,,,,,0,0,0,0,0,28,28,28,3,0,3,0,,,,,,,,,,,,,,,,,,,,,,,,,,,,,,,,,,,,,,,,,,,,,,,,,,,,,,,,,,,,,,,,30,,,,,,,,667.6253949999809,667.6253949999809,667.6253949999809,667.6253949999809,667.6253949999809,up,0.2100329000968486,13,0,0,99,0.4,0.08000000000000003,up,0.12127729994244874,,,,,,,,,,,,,,,,,,,,,,,,,,,,,,,,,,,,,,,,,,,,,,,,,,,,,,,,,,,,903T5Z,train_y,red_square,bottom_right,2025-06-07_10h04.46.003,HideSeek_v1,2022.2.5,60.398472867477516,
,7,2,7,6,0,4,12,,train_dim1_1,29,30,,,,2,0,2,0,,,,,,,,,0,0,0,0,0,28,28,28,4,0,4,0,,,,,,,,,,,,,,,,,,,,,,,,,,,,,,,,,,,,,,,,,,,,,,,,,,,,,,,,,,,,,,,,30,,,,,,,,667.841810700018,667.841810700018,667.841810700018,667.841810700018,667.841810700018,return,0.2934944999869913,14,0,0,1,0.4,0.08000000000000003,return,0.21393329999409616,53,-18,0.4,0.08000000000000003,,,,,,,,,,,,,,,,,,,,,,,,,,,,,,,,,,,,,,,,,,,,,,,,,,,,,,,,903T5Z,train_y,red_square,bottom_right,2025-06-07_10h04.46.003,HideSeek_v1,2022.2.5,60.398472867477516,
,5,1,5,2,0,1,15,,train_dim1_1,30,30,,,,2,0,2,0,,,,,,,,,0,0,0,0,0,29,29,29,0,0,0,0,,,,,,,,,,,,,,,,,,,,,,,,,stimuli/alien_stimuli/15.png,,,,,,,,,,,,,,,,,,,,,,,,,,,,,stimuli/alien_stimuli/12.png,12,7,31,,,,,,,30,,,,,,,,671.7189254999394,671.7189254999394,671.7189254999394,671.7189254999394,671.7189254999394,return,2.3221554999472573,14,1,0,0,0.24,-0.32,return,2.231814300059341,53,-18,0.24,-0.32,670.1597769999644,671.7189254999394,0.4,0.08,0.32,0.0,-0.07999999999999999,0.4,0.4,0.4,0.08,669.6928763999604,669.6928763999604,669.6928763999604,669.6928763999604,669.6928763999604,669.6928763999604,669.6928763999604,669.6928763999604,669.6928309699404,0.5689955999841914,return,0.43845999997574836,,,,,,,,,,,,,,,,,,,,,,,,,,,,,,,,,903T5Z,train_y,red_square,bottom_right,2025-06-07_10h04.46.003,HideSeek_v1,2022.2.5,60.398472867477516,
,,,,,,,,,,,30,,,,2,0,2,0,,,,,,,,,,,,,,,,,,,,,,,,,,,,,,,,,,,,,,,,,,,,,,,,,,,,,,,,,,,,,,,,,,,,,,,,,,stimuli/alien_stimuli/15.png,15,5,32,21,0.7,0.5833333333333334,1,1,1,30,0,conditions/schedules/train_y_first/red_square_00/bottom_right/inputTrain_2.1.xlsx,99,1,2,1,0,,,,,,,,,,,0,,,,,,,,,676.8151112999767,678.3765856999671,0.24,-0.24,0.08,0.0,-0.28,0.24,0.24,0.24,-0.24,675.5942626999458,675.5942626999458,675.5942626999458,675.5942626999458,675.5942626999458,675.5942626999458,675.5942626999458,675.5942626999458,675.5809179600095,1.3198397000087425,return,1.2006503000156954,0,0.9,0,1,14,,,,,,,,,,,,,,,,,,,,,,,,,,,,903T5Z,train_y,red_square,bottom_right,2025-06-07_10h04.46.003,HideSeek_v1,2022.2.5,60.398472867477516,
,,,,,,,,,,,,,,,3,0,3,0,0,0,0,0,,,,,,,,,,,,,,,,,,,,,,,,,,,,,,,conditions/schedules/train_y_first/red_square_00/bottom_right/instructions/Slide17.png,conditions/schedules/train_y_first/red_square_00/bottom_right/instructions/Audio17.wav,678.3765856999671,678.366129639931,17,"[5.145644000032917, 19.097939600003883, 16.619051399989985, 19.232758500031196, 4.185286900028586, 4.969715900020674, 5.7379287999356166, 12.089669700013474, 38.27651540003717, 7.386038600001484, 10.30329760001041, 13.924072199966758, 17.94830270006787, 16.896391000016592, 44.54606269998476, 22.010976000106893, 41.555153899942525]","[0.00021620001643896103, 19.0979459999362, 0.03373040002770722, 0.014150100061669946, 0.048993100062943995, 0.11651249998249114, 0.0797131999861449, 0.013853900018148124, 0.014011100050993264, 0.00021899992134422064, 10.303304599947296, 13.924078599899076, 0.00020790006965398788, 16.8963998000836, 0.014157700003124774, 22.01098230003845, 41.55516099999659]",0,,,,,,,,,,,,,,,,,,,,,,,,,,,,,,,,,,,,,,,,,,,,,,,,,,,,,,,,,,,,,,,,,,,,,,,,,,,,,,,,,,,,,,,,,,,,,,,,,,,,,,,,,,,,,,,,,,,,,,,,,,,,903T5Z,train_y,red_square,bottom_right,2025-06-07_10h04.46.003,HideSeek_v1,2022.2.5,60.398472867477516,
,,,,,,,,,,,,,,,3,0,3,0,1,0,1,0,,,,,,,,,,,,,,,,,,,,,,,,,,,,,,,conditions/schedules/train_y_first/red_square_00/bottom_right/instructions/Slide18.png,conditions/schedules/train_y_first/red_square_00/bottom_right/instructions/Audio18.wav,719.9986371999839,720.0009822500288,18,"[5.145644000032917, 19.097939600003883, 16.619051399989985, 19.232758500031196, 4.185286900028586, 4.969715900020674, 5.7379287999356166, 12.089669700013474, 38.27651540003717, 7.386038600001484, 10.30329760001041, 13.924072199966758, 17.94830270006787, 16.896391000016592, 44.54606269998476, 22.010976000106893, 41.555153899942525, 6.505175599944778]","[0.00021620001643896103, 19.0979459999362, 0.03373040002770722, 0.014150100061669946, 0.048993100062943995, 0.11651249998249114, 0.0797131999861449, 0.013853900018148124, 0.014011100050993264, 0.00021899992134422064, 10.303304599947296, 13.924078599899076, 0.00020790006965398788, 16.8963998000836, 0.014157700003124774, 22.01098230003845, 0.06655490002594888, 6.505182199995033]",0,,,,,,,,,,,,,,,,,,,,,,,,,,,,,,,,,,,,,,,,,,,,,,,,,,,,,,,,,,,,,,,,,,,,,,,,,,,,,,,,,,,,,,,,,,,,,,,,,,,,,,,,,,,,,,,,,,,,,,,,,,,,903T5Z,train_y,red_square,bottom_right,2025-06-07_10h04.46.003,HideSeek_v1,2022.2.5,60.398472867477516,
,,,,,,,,,,,,,,,3,0,3,0,2,0,2,0,,,,,,,,,,,,,,,,,,,,,,,,,,,,,,,conditions/schedules/train_y_first/red_square_00/bottom_right/instructions/Slide19.png,conditions/schedules/train_y_first/red_square_00/bottom_right/instructions/Audio19.wav,726.5635788999498,726.5566280399449,19,"[5.145644000032917, 19.097939600003883, 16.619051399989985, 19.232758500031196, 4.185286900028586, 4.969715900020674, 5.7379287999356166, 12.089669700013474, 38.27651540003717, 7.386038600001484, 10.30329760001041, 13.924072199966758, 17.94830270006787, 16.896391000016592, 44.54606269998476, 22.010976000106893, 41.555153899942525, 6.505175599944778, 16.087063200073317]","[0.00021620001643896103, 19.0979459999362, 0.03373040002770722, 0.014150100061669946, 0.048993100062943995, 0.11651249998249114, 0.0797131999861449, 0.013853900018148124, 0.014011100050993264, 0.00021899992134422064, 10.303304599947296, 13.924078599899076, 0.00020790006965398788, 16.8963998000836, 0.014157700003124774, 22.01098230003845, 0.06655490002594888, 0.0139121999964118, 16.08707010000944]",0,,,,,,,,,,,,,,,,,,,,,,,,,,,,,,,,,,,,,,,,,,,,,,,,,,,,,,,,,,,,,,,,,,,,,,,,,,,,,,,,,,,,,,,,,,,,,,,,,,,,,,,,,,,,,,,,,,,,,,,,,,,,903T5Z,train_y,red_square,bottom_right,2025-06-07_10h04.46.003,HideSeek_v1,2022.2.5,60.398472867477516,
,,,,,,,,,,,,,,,3,0,3,0,3,0,3,0,,,,,,,,,,,,,,,,,,,,,,,,,,,,,,,conditions/schedules/train_y_first/red_square_00/bottom_right/instructions/Slide20.png,conditions/schedules/train_y_first/red_square_00/bottom_right/instructions/Audio20.wav,742.7180086999433,742.7199506499455,20,"[5.145644000032917, 19.097939600003883, 16.619051399989985, 19.232758500031196, 4.185286900028586, 4.969715900020674, 5.7379287999356166, 12.089669700013474, 38.27651540003717, 7.386038600001484, 10.30329760001041, 13.924072199966758, 17.94830270006787, 16.896391000016592, 44.54606269998476, 22.010976000106893, 41.555153899942525, 6.505175599944778, 16.087063200073317, 14.478123800014146]","[0.00021620001643896103, 19.0979459999362, 0.03373040002770722, 0.014150100061669946, 0.048993100062943995, 0.11651249998249114, 0.0797131999861449, 0.013853900018148124, 0.014011100050993264, 0.00021899992134422064, 10.303304599947296, 13.924078599899076, 0.00020790006965398788, 16.8963998000836, 0.014157700003124774, 22.01098230003845, 0.06655490002594888, 0.0139121999964118, 0.38294639997184277, 14.478130600065924]",0,,,,,,,,,,,,,,,,,,,,,,,,,,,,,,,,,,,,,,,,,,,,,,,,,,,,,,,,,,,,,,,,,,,,,,,,,,,,,,,,,,,,,,,,,,,,,,,,,,,,,,,,,,,,,,,,,,,,,,,,,,,,903T5Z,train_y,red_square,bottom_right,2025-06-07_10h04.46.003,HideSeek_v1,2022.2.5,60.398472867477516,
1,8,2,3,2,-5,0,66,2,instr_dim1_2,,,,,,3,0,3,0,,,,,0,0,0,0,,,,,,,,,,,,,,,,,,,,,,,,,,,,,,,,,,,,,stimuli/alien_stimuli/66.png,conditions/schedules/train_y_first/red_square_00/bottom_right/inputInstr_2.xlsx,stimuli/alien_stimuli/66.png,757.3049699999392,757.3049699999392,757.3049699999392,757.3049699999392,757.2986736699356,return,9.385029099998064,"[-0.16, -0.08, 0, 0.08, 0.16, 0.24, 0.32, 0.4, 0.48, 0.56]","[-0.4, -0.32, -0.24, -0.16, -0.08, 0, 0.08, 0.16, 0.24, 0.32]",2,2,3,8,0.0,0.4,766.8420332999667,766.8420332999667,766.8420332999667,766.8420332999667,766.8420332999667,766.8420332999667,766.8420332999667,766.8232770800124,8.040680999984033,return,7.878459900035523,stimuli/alien_stimuli/66.png,66,8,1,,,,,,,,,,,,,,,,,,,,,,,,,,,,,,,,,,,,,,,,,,,,,,,,,,,,,,,,,,,,,,,,,,,,,,,,,,,,,,,,,,,,,,,,,903T5Z,train_y,red_square,bottom_right,2025-06-07_10h04.46.003,HideSeek_v1,2022.2.5,60.398472867477516,
,,,,,,,,,,,30,,,,3,0,3,0,,,,,,,,,,,,,,,,,,,,,,,,,,,,,,,,,,,,,,,,,,,,,,,,,,,,,,,,,,,,,,,,,,,,,,,,,,,,,,21,0.7,0.5833333333333334,1,99,2,30,0,conditions/schedules/train_y_first/red_square_00/bottom_right/inputTrain_2.1.xlsx,99,1,2,1,0,,,,,,,,,,,,,,,,,,,,,,,,,,,,,,,,,,,,,,,,,,,,,,,,,,,,,,,,,,,,,,,,,,,,,,,,,,,903T5Z,train_y,red_square,bottom_right,2025-06-07_10h04.46.003,HideSeek_v1,2022.2.5,60.398472867477516,
,,,,,,,,,,,,,,,4,0,4,0,0,0,0,0,,,,,,,,,,,,,,,,,,,,,,,,,,,,,,,conditions/schedules/train_y_first/red_square_00/bottom_right/instructions/Slide21.png,conditions/schedules/train_y_first/red_square_00/bottom_right/instructions/Audio21.wav,774.8781241000397,774.8799524899456,21,"[5.145644000032917, 19.097939600003883, 16.619051399989985, 19.232758500031196, 4.185286900028586, 4.969715900020674, 5.7379287999356166, 12.089669700013474, 38.27651540003717, 7.386038600001484, 10.30329760001041, 13.924072199966758, 17.94830270006787, 16.896391000016592, 44.54606269998476, 22.010976000106893, 41.555153899942525, 6.505175599944778, 16.087063200073317, 14.478123800014146, 13.344055499997921]","[0.00021620001643896103, 19.0979459999362, 0.03373040002770722, 0.014150100061669946, 0.048993100062943995, 0.11651249998249114, 0.0797131999861449, 0.013853900018148124, 0.014011100050993264, 0.00021899992134422064, 10.303304599947296, 13.924078599899076, 0.00020790006965398788, 16.8963998000836, 0.014157700003124774, 22.01098230003845, 0.06655490002594888, 0.0139121999964118, 0.38294639997184277, 14.478130600065924, 13.344062599935569]",0,,,,,,,,,,,,,,,,,,,,,,,,,,,,,,,,,,,,,,,,,,,,,,,,,,,,,,,,,,,,,,,,,,,,,,,,,,,,,,,,,,,,,,,,,,,,,,,,,,,,,,,,,,,,,,,,,,,,,,,,,,,,903T5Z,train_y,red_square,bottom_right,2025-06-07_10h04.46.003,HideSeek_v1,2022.2.5,60.398472867477516,
2,9,0,9,0,0,0,16,2,instr_dim1_2,,,,,,4,0,4,0,,,,,0,0,0,0,,,,,,,,,,,,,,,,,,,,,,,,,,,,,,,,,,,,,stimuli/alien_stimuli/16.png,conditions/schedules/train_y_first/red_square_00/bottom_right/inputInstr_2.xlsx,stimuli/alien_stimuli/16.png,788.3337961999932,788.3337961999932,788.3337961999932,788.3337961999932,788.3245413699303,return,3.745272899977863,"[-0.16, -0.08, 0, 0.08, 0.16, 0.24, 0.32, 0.4, 0.48, 0.56]","[-0.4, -0.32, -0.24, -0.16, -0.08, 0, 0.08, 0.16, 0.24, 0.32]",0,0,9,9,0.0,0.0,792.2573218999896,792.2573218999896,792.2573218999896,792.2573218999896,792.2573218999896,792.2573218999896,792.2573218999896,792.2442473900388,4.938315600040369,return,4.759789599920623,stimuli/alien_stimuli/16.png,16,9,2,,,,,,,,,,,,,,,,,,,,,,,,,,,,,,,,,,,,,,,,,,,,,,,,,,,,,,,,,,,,,,,,,,,,,,,,,,,,,,,,,,,,,,,,,903T5Z,train_y,red_square,bottom_right,2025-06-07_10h04.46.003,HideSeek_v1,2022.2.5,60.398472867477516,
,,,,,,,,,,,30,,,,4,0,4,0,,,,,,,,,,,,,,,,,,,,,,,,,,,,,,,,,,,,,,,,,,,,,,,,,,,,,,,,,,,,,,,,,,,,,,,,,,,,,,21,0.7,0.5833333333333334,1,99,2,30,0,conditions/schedules/train_y_first/red_square_00/bottom_right/inputTrain_2.1.xlsx,99,1,2,1,0,,,,,,,,,,,,,,,,,,,,,,,,,,,,,,,,,,,,,,,,,,,,,,,,,,,,,,,,,,,,,,,,,,,,,,,,,,,903T5Z,train_y,red_square,bottom_right,2025-06-07_10h04.46.003,HideSeek_v1,2022.2.5,60.398472867477516,
,,,,,,,,,,,,,,,5,0,5,0,0,0,0,0,,,,,,,,,,,,,,,,,,,,,,,,,,,,,,,conditions/schedules/train_y_first/red_square_00/bottom_right/instructions/Slide22.png,conditions/schedules/train_y_first/red_square_00/bottom_right/instructions/Audio22.wav,797.1943245000439,797.1815811899374,22,"[5.145644000032917, 19.097939600003883, 16.619051399989985, 19.232758500031196, 4.185286900028586, 4.969715900020674, 5.7379287999356166, 12.089669700013474, 38.27651540003717, 7.386038600001484, 10.30329760001041, 13.924072199966758, 17.94830270006787, 16.896391000016592, 44.54606269998476, 22.010976000106893, 41.555153899942525, 6.505175599944778, 16.087063200073317, 14.478123800014146, 13.344055499997921, 26.990438799955882]","[0.00021620001643896103, 19.0979459999362, 0.03373040002770722, 0.014150100061669946, 0.048993100062943995, 0.11651249998249114, 0.0797131999861449, 0.013853900018148124, 0.014011100050993264, 0.00021899992134422064, 10.303304599947296, 13.924078599899076, 0.00020790006965398788, 16.8963998000836, 0.014157700003124774, 22.01098230003845, 0.06655490002594888, 0.0139121999964118, 0.38294639997184277, 14.478130600065924, 13.344062599935569, 26.99044560000766]",0,,,,,,,,,,,,,,,,,,,,,,,,,,,,,,,,,,,,,,,,,,,,,,,,,,,,,,,,,,,,,,,,,,,,,,,,,,,,,,,,,,,,,,,,,,,,,,,,,,,,,,,,,,,,,,,,,,,,,,,,,,,,903T5Z,train_y,red_square,bottom_right,2025-06-07_10h04.46.003,HideSeek_v1,2022.2.5,60.398472867477516,
,7,1,4,1,-3,0,46,,train_dim1_2,1,30,,,,5,0,5,0,,,,,,,,,0,0,0,0,0,0,0,0,0,0,0,0,,,,,,,,,,,,,,,,,,,,,,,,,stimuli/alien_stimuli/46.png,,,,,,,,,,,,,,,,,,,,,,,,,,,,,,,,,,,,,,,30,,,,,,,,824.2781703999499,824.2781703999499,824.2781703999499,824.2781703999499,824.2781703999499,up,2.112821099930443,0,1,0,99,0.4,-0.24,up,2.0205248000565916,,,,,,,,,,,,,,,,,,,,,,,,,,,,,,,,,,,,,,,,,,,,,,,,,,,,,,,,,,,,903T5Z,train_y,red_square,bottom_right,2025-06-07_10h04.46.003,HideSeek_v1,2022.2.5,60.398472867477516,
,7,1,4,1,-3,0,46,,train_dim1_2,1,30,,,,5,0,5,0,,,,,,,,,0,0,0,0,0,0,0,0,1,0,1,0,,,,,,,,,,,,,,,,,,,,,,,,,,,,,,,,,,,,,,,,,,,,,,,,,,,,,,,,,,,,,,,,30,,,,,,,,826.3874834999442,826.3874834999442,826.3874834999442,826.3874834999442,826.3874834999442,up,0.8433492000913247,0,1,0,99,0.4,-0.15999999999999998,up,0.7545229000970721,,,,,,,,,,,,,,,,,,,,,,,,,,,,,,,,,,,,,,,,,,,,,,,,,,,,,,,,,,,,903T5Z,train_y,red_square,bottom_right,2025-06-07_10h04.46.003,HideSeek_v1,2022.2.5,60.398472867477516,
,7,1,4,1,-3,0,46,,train_dim1_2,1,30,,,,5,0,5,0,,,,,,,,,0,0,0,0,0,0,0,0,2,0,2,0,,,,,,,,,,,,,,,,,,,,,,,,,,,,,,,,,,,,,,,,,,,,,,,,,,,,,,,,,,,,,,,,30,,,,,,,,827.2357719000429,827.2357719000429,827.2357719000429,827.2357719000429,827.2357719000429,up,3.062398499925621,0,1,0,99,0.4,-0.07999999999999997,up,2.981885699904524,,,,,,,,,,,,,,,,,,,,,,,,,,,,,,,,,,,,,,,,,,,,,,,,,,,,,,,,,,,,903T5Z,train_y,red_square,bottom_right,2025-06-07_10h04.46.003,HideSeek_v1,2022.2.5,60.398472867477516,
,7,1,4,1,-3,0,46,,train_dim1_2,1,30,,,,5,0,5,0,,,,,,,,,0,0,0,0,0,0,0,0,3,0,3,0,,,,,,,,,,,,,,,,,,,,,,,,,,,,,,,,,,,,,,,,,,,,,,,,,,,,,,,,,,,,,,,,30,,,,,,,,830.3062753999839,830.3062753999839,830.3062753999839,830.3062753999839,830.3062753999839,left,1.3775059999898076,0,1,0,99,0.32,-0.07999999999999997,left,1.2918946000281721,,,,,,,,,,,,,,,,,,,,,,,,,,,,,,,,,,,,,,,,,,,,,,,,,,,,,,,,,,,,903T5Z,train_y,red_square,bottom_right,2025-06-07_10h04.46.003,HideSeek_v1,2022.2.5,60.398472867477516,
,7,1,4,1,-3,0,46,,train_dim1_2,1,30,,,,5,0,5,0,,,,,,,,,0,0,0,0,0,0,0,0,4,0,4,0,,,,,,,,,,,,,,,,,,,,,,,,,,,,,,,,,,,,,,,,,,,,,,,,,,,,,,,,,,,,,,,,30,,,,,,,,831.690276499954,831.690276499954,831.690276499954,831.690276499954,831.690276499954,left,0.29327240004204214,0,1,0,99,0.24,-0.07999999999999997,left,0.2213323999894783,,,,,,,,,,,,,,,,,,,,,,,,,,,,,,,,,,,,,,,,,,,,,,,,,,,,,,,,,,,,903T5Z,train_y,red_square,bottom_right,2025-06-07_10h04.46.003,HideSeek_v1,2022.2.5,60.398472867477516,
,7,1,4,1,-3,0,46,,train_dim1_2,1,30,,,,5,0,5,0,,,,,,,,,0,0,0,0,0,0,0,0,5,0,5,0,,,,,,,,,,,,,,,,,,,,,,,,,,,,,,,,,,,,,,,,,,,,,,,,,,,,,,,,,,,,,,,,30,,,,,,,,831.9907847000286,831.9907847000286,831.9907847000286,831.9907847000286,831.9907847000286,left,0.9441478000953794,0,1,0,99,0.15999999999999998,-0.07999999999999997,left,0.8658265999983996,,,,,,,,,,,,,,,,,,,,,,,,,,,,,,,,,,,,,,,,,,,,,,,,,,,,,,,,,,,,903T5Z,train_y,red_square,bottom_right,2025-06-07_10h04.46.003,HideSeek_v1,2022.2.5,60.398472867477516,
,7,1,4,1,-3,0,46,,train_dim1_2,1,30,,,,5,0,5,0,,,,,,,,,0,0,0,0,0,0,0,0,6,0,6,0,,,,,,,,,,,,,,,,,,,,,,,,,,,,,,,,,,,,,,,,,,,,,,,,,,,,,,,,,,,,,,,,30,,,,,,,,832.9414893999929,832.9414893999929,832.9414893999929,832.9414893999929,832.9414893999929,return,0.5099401000188664,0,0,0,0,0.15999999999999998,-0.07999999999999997,return,0.4256266000447795,56,-21,0.15999999999999998,-0.07999999999999997,,,,,,,,,,,,,,,,,,,,,,,,,,,,,,,,,,,,,,,,,,,,,,,,,,,,,,,,903T5Z,train_y,red_square,bottom_right,2025-06-07_10h04.46.003,HideSeek_v1,2022.2.5,60.398472867477516,
,7,4,7,4,0,0,16,,train_dim1_2,2,30,,,,5,0,5,0,,,,,,,,,0,0,0,0,0,1,1,1,0,0,0,0,,,,,,,,,,,,,,,,,,,,,,,,,stimuli/alien_stimuli/16.png,,,,,,,,,,,,,,,,,,,,,,,,,,,,,stimuli/alien_stimuli/46.png,46,7,3,,,,,,,30,,,,,,,,838.900855600019,838.900855600019,838.900855600019,838.900855600019,838.900855600019,return,1.3556176000274718,1,0,0,1,0.4,-0.08,return,1.2397891000146046,56,-21,0.4,-0.08,837.3148355999729,838.900855600019,0.16,-0.32,0.0,0.24,-0.32,0.16,0.28,0.16,-0.32,835.0305766999954,835.0305766999954,835.0305766999954,835.0305766999954,835.0305766999954,835.0305766999954,835.0305766999954,835.0305766999954,835.013419269945,2.404078199993819,return,2.255860200035386,,,,,,,,,,,,,,,,,,,,,,,,,,,,,,,,,903T5Z,train_y,red_square,bottom_right,2025-06-07_10h04.46.003,HideSeek_v1,2022.2.5,60.398472867477516,
,9,4,8,4,-1,0,26,,train_dim1_2,3,30,,,,5,0,5,0,,,,,,,,,0,0,0,0,0,2,2,2,0,0,0,0,,,,,,,,,,,,,,,,,,,,,,,,,stimuli/alien_stimuli/26.png,,,,,,,,,,,,,,,,,,,,,,,,,,,,,stimuli/alien_stimuli/16.png,16,7,4,,,,,,,30,,,,,,,,844.5549636000069,844.5549636000069,844.5549636000069,844.5549636000069,844.5549636000069,return,2.572379900026135,1,1,0,0,0.56,-0.08,return,2.483415300026536,56,-21,0.56,-0.08,842.9864739000332,844.5549636000069,0.4,-0.08,0.0,0.0,-0.08,0.4,0.4,0.4,-0.08,841.8240110999905,841.8240110999905,841.8240110999905,841.8240110999905,841.8240110999905,841.8240110999905,841.8240110999905,841.8240110999905,841.8021178800146,1.303382399957627,return,1.1446129999822006,,,,,,,,,,,,,,,,,,,,,,,,,,,,,,,,,903T5Z,train_y,red_square,bottom_right,2025-06-07_10h04.46.003,HideSeek_v1,2022.2.5,60.398472867477516,
