trialInstr,x_fixStart,y_fixStart,x_corrSteps,y_corrSteps,x_nrSteps,y_nrSteps,alienID,trialLength,version,trialTrain,praclen,testlen,trial_label,break_on_off,beforeExpLoop.thisRepN,beforeExpLoop.thisTrialN,beforeExpLoop.thisN,beforeExpLoop.thisIndex,mini_instr_trials.thisRepN,mini_instr_trials.thisTrialN,mini_instr_trials.thisN,mini_instr_trials.thisIndex,instrLoop.thisRepN,instrLoop.thisTrialN,instrLoop.thisN,instrLoop.thisIndex,repeat_prac.thisRepN,repeat_prac.thisTrialN,repeat_prac.thisN,repeat_prac.thisIndex,trainLoop.thisRepN,trainLoop.thisTrialN,trainLoop.thisN,trainLoop.thisIndex,moveLoop_train.thisRepN,moveLoop_train.thisTrialN,moveLoop_train.thisN,moveLoop_train.thisIndex,experiment.thisRepN,experiment.thisTrialN,experiment.thisN,experiment.thisIndex,moveLoop_test.thisRepN,moveLoop_test.thisTrialN,moveLoop_test.thisN,moveLoop_test.thisIndex,mini_instr2_trials.thisRepN,mini_instr2_trials.thisTrialN,mini_instr2_trials.thisN,mini_instr2_trials.thisIndex,start_all_time,url,slideStim,audioStim,slides.started,sounds.started,nextButton.numClicks,nextButton.timesOn,nextButton.timesOff,prev_but.numClicks,prev_but.timesOn,prev_but.timesOff,alienStim,instrFile,alienStim_instr,gridImage_instr.started,startPos_3.started,key_instr.started,alienImage_3.started,sounds_1.started,key_instr.keys,key_instr.rt,all_x,all_y,FBy_corrSteps,FBy_fixStart,FBx_corrSteps,FBx_fixStart,FBy_pathSize_check,FBx_pathSize_check,gridImage_9.started,alienImageFB_3.started,startPosFB_3.started,keyFB_3.started,pathLine_ydir_2.started,pathLine_xdir_2.started,alienFace_3.started,sounds_2.started,RTFB_instr,keyFB_3.keys,keyFB_3.rt,draw_alienStim,draw_alienID,test_x,nrepcount,perfthres,percthres,earlierperf,earlystop,nextPrac,fileidx,praclen,saveACC_train,pracFile,nextPrac_train,addNrep,fileidx_endr,repExp,showearly,gridImage_4.started,startPos.started,movePos.started,key_resp.started,alienImage.started,buttonPress_train,RTchoice_train,cumAcctrain,aCorr,saveACC_choice,corrAns,x_movePos_end,y_movePos_end,key_resp.keys,key_resp.rt,wLy_dir,wLx_dir,x_movePos,y_movePos,text_2.started,text_2.stopped,aft_x_corrPos,aft_y_corrPos,y_pathSize_check,x_pathSize_check,y_pathdirY,x_pathdirY,x_pathdirX,x_corrPos,y_corrPos,gridImage_6.started,alienImageFB_2.started,startPosFB_2.started,movePosFB_2.started,keyFB_2.started,pathLine_xdir.started,pathLine_ydir.started,alienFace.started,sounds_4.started,RT_FBtrain,keyFB_2.keys,keyFB_2.rt,saveACC_pre,ACC,within_saveACC_train,earlystop_wloop,cumAcctrain_check,gridImage_3.started,alienImage_test.started,startPos_test.started,movePos_test.started,key_resp_test.started,wLy_dir_test,wLx_dir_test,buttonPress_test,RTchoice_test,cumAcctest,corrAns_test,key_resp_test.keys,key_resp_test.rt,text_3.started,text_3.stopped,total_time,end_all_time,key_resp_3.keys,slides_2.started,sounds_3.started,nextButton_2.numClicks,nextButton_2.timesOn,nextButton_2.timesOff,prev_but_2.numClicks,prev_but_2.timesOn,prev_but_2.timesOff,bye.started,participant,train_first,00_coordinate,starting corner,date,expName,psychopyVersion,frameRate,
,,,,,,,,,,,,,,,0,0,0,0,0,0,0,0,,,,,,,,,,,,,,,,,,,,,,,,,,,,,start_all_time,testround,conditions/schedules/train_x_first/red_square_00/bottom_right/instructions/Slide1.png,conditions/schedules/train_x_first/red_square_00/bottom_right/instructions/Audio1.wav,1105.6383112999902,1105.587282470228,1,[6.880906499995035],[6.880913400003919],0,,,,,,,,,,,,,,,,,,,,,,,,,,,,,,,,,,,,,,,,,,,,,,,,,,,,,,,,,,,,,,,,,,,,,,,,,,,,,,,,,,,,,,,,,,,,,,,,,,,,,,,,,,,,,,,,,,,,,,,,,,,,9651N2,train_x,red_square,bottom_right,2025-09-26_15h36.49.855,HideSeek_v1,2022.2.5,59.970986032458654,
,,,,,,,,,,,,,,,0,0,0,0,1,0,1,0,,,,,,,,,,,,,,,,,,,,,,,,,,,,,,,conditions/schedules/train_x_first/red_square_00/bottom_right/instructions/Slide2.png,conditions/schedules/train_x_first/red_square_00/bottom_right/instructions/Audio2.wav,1112.537372699997,1112.53868125,2,"[6.880906499995035, 18.56394839999848]","[0.0002077999961329624, 18.56395490000432]",0,,,,,,,,,,,,,,,,,,,,,,,,,,,,,,,,,,,,,,,,,,,,,,,,,,,,,,,,,,,,,,,,,,,,,,,,,,,,,,,,,,,,,,,,,,,,,,,,,,,,,,,,,,,,,,,,,,,,,,,,,,,,9651N2,train_x,red_square,bottom_right,2025-09-26_15h36.49.855,HideSeek_v1,2022.2.5,59.970986032458654,
,,,,,,,,,,,,,,,0,0,0,0,2,0,2,0,,,,,,,,,,,,,,,,,,,,,,,,,,,,,,,conditions/schedules/train_x_first/red_square_00/bottom_right/instructions/Slide3.png,conditions/schedules/train_x_first/red_square_00/bottom_right/instructions/Audio3.wav,1131.1765209000005,1131.1706564499982,3,"[6.880906499995035, 18.56394839999848, 16.872843500008457]","[0.0002077999961329624, 0.0002651000104378909, 16.872849800012773]",0,,,,,,,,,,,,,,,,,,,,,,,,,,,,,,,,,,,,,,,,,,,,,,,,,,,,,,,,,,,,,,,,,,,,,,,,,,,,,,,,,,,,,,,,,,,,,,,,,,,,,,,,,,,,,,,,,,,,,,,,,,,,9651N2,train_x,red_square,bottom_right,2025-09-26_15h36.49.855,HideSeek_v1,2022.2.5,59.970986032458654,
,,,,,,,,,,,,,,,0,0,0,0,3,0,3,0,,,,,,,,,,,,,,,,,,,,,,,,,,,,,,,conditions/schedules/train_x_first/red_square_00/bottom_right/instructions/Slide4.png,conditions/schedules/train_x_first/red_square_00/bottom_right/instructions/Audio4.wav,1148.1279326999938,1148.1179698499982,4,"[6.880906499995035, 18.56394839999848, 16.872843500008457, 19.5876741999964]","[0.0002077999961329624, 0.0002651000104378909, 0.014805999991949648, 19.587680500000715]",0,,,,,,,,,,,,,,,,,,,,,,,,,,,,,,,,,,,,,,,,,,,,,,,,,,,,,,,,,,,,,,,,,,,,,,,,,,,,,,,,,,,,,,,,,,,,,,,,,,,,,,,,,,,,,,,,,,,,,,,,,,,,9651N2,train_x,red_square,bottom_right,2025-09-26_15h36.49.855,HideSeek_v1,2022.2.5,59.970986032458654,
,,,,,,,,,,,,,,,0,0,0,0,4,0,4,0,,,,,,,,,,,,,,,,,,,,,,,,,,,,,,,conditions/schedules/train_x_first/red_square_00/bottom_right/instructions/Slide5.png,conditions/schedules/train_x_first/red_square_00/bottom_right/instructions/Audio5.wav,1167.7889856999973,1167.7844235500015,5,"[6.880906499995035, 18.56394839999848, 16.872843500008457, 19.5876741999964, 4.5800490000110585]","[0.0002077999961329624, 0.0002651000104378909, 0.014805999991949648, 0.013989700004458427, 4.580055500002345]",0,,,,,,,,,,,,,,,,,,,,,,,,,,,,,,,,,,,,,,,,,,,,,,,,,,,,,,,,,,,,,,,,,,,,,,,,,,,,,,,,,,,,,,,,,,,,,,,,,,,,,,,,,,,,,,,,,,,,,,,,,,,,9651N2,train_x,red_square,bottom_right,2025-09-26_15h36.49.855,HideSeek_v1,2022.2.5,59.970986032458654,
,,,,,,,,,,,,,,,0,0,0,0,5,0,5,0,,,,,,,,,,,,,,,,,,,,,,,,,,,,,,,conditions/schedules/train_x_first/red_square_00/bottom_right/instructions/Slide6.png,conditions/schedules/train_x_first/red_square_00/bottom_right/instructions/Audio6.wav,1172.418980699993,1172.4216231799976,6,"[6.880906499995035, 18.56394839999848, 16.872843500008457, 19.5876741999964, 4.5800490000110585, 5.654586200005724]","[0.0002077999961329624, 0.0002651000104378909, 0.014805999991949648, 0.013989700004458427, 0.05001010000705719, 5.654593100000056]",0,,,,,,,,,,,,,,,,,,,,,,,,,,,,,,,,,,,,,,,,,,,,,,,,,,,,,,,,,,,,,,,,,,,,,,,,,,,,,,,,,,,,,,,,,,,,,,,,,,,,,,,,,,,,,,,,,,,,,,,,,,,,9651N2,train_x,red_square,bottom_right,2025-09-26_15h36.49.855,HideSeek_v1,2022.2.5,59.970986032458654,
,,,,,,,,,,,,,,,0,0,0,0,6,0,6,0,,,,,,,,,,,,,,,,,,,,,,,,,,,,,,,conditions/schedules/train_x_first/red_square_00/bottom_right/instructions/Slide7.png,conditions/schedules/train_x_first/red_square_00/bottom_right/instructions/Audio7.wav,1178.1252835999912,1178.126219779998,7,"[6.880906499995035, 18.56394839999848, 16.872843500008457, 19.5876741999964, 4.5800490000110585, 5.654586200005724, 6.120244499994442]","[0.0002077999961329624, 0.0002651000104378909, 0.014805999991949648, 0.013989700004458427, 0.05001010000705719, 0.014207599990186282, 6.120251299988013]",0,,,,,,,,,,,,,,,,,,,,,,,,,,,,,,,,,,,,,,,,,,,,,,,,,,,,,,,,,,,,,,,,,,,,,,,,,,,,,,,,,,,,,,,,,,,,,,,,,,,,,,,,,,,,,,,,,,,,,,,,,,,,9651N2,train_x,red_square,bottom_right,2025-09-26_15h36.49.855,HideSeek_v1,2022.2.5,59.970986032458654,
,,,,,,,,,,,,,,,0,0,0,0,7,0,7,0,,,,,,,,,,,,,,,,,,,,,,,,,,,,,,,conditions/schedules/train_x_first/red_square_00/bottom_right/instructions/Slide8.png,conditions/schedules/train_x_first/red_square_00/bottom_right/instructions/Audio8.wav,1184.3049104999955,1184.2980844799924,8,"[6.880906499995035, 18.56394839999848, 16.872843500008457, 19.5876741999964, 4.5800490000110585, 5.654586200005724, 6.120244499994442, 12.151866699990933]","[0.0002077999961329624, 0.0002651000104378909, 0.014805999991949648, 0.013989700004458427, 0.05001010000705719, 0.014207599990186282, 0.03738889998930972, 12.151874399991357]",0,,,,,,,,,,,,,,,,,,,,,,,,,,,,,,,,,,,,,,,,,,,,,,,,,,,,,,,,,,,,,,,,,,,,,,,,,,,,,,,,,,,,,,,,,,,,,,,,,,,,,,,,,,,,,,,,,,,,,,,,,,,,9651N2,train_x,red_square,bottom_right,2025-09-26_15h36.49.855,HideSeek_v1,2022.2.5,59.970986032458654,
,,,,,,,,,,,,,,,0,0,0,0,8,0,8,0,,,,,,,,,,,,,,,,,,,,,,,,,,,,,,,conditions/schedules/train_x_first/red_square_00/bottom_right/instructions/Slide9.png,conditions/schedules/train_x_first/red_square_00/bottom_right/instructions/Audio9.wav,1196.5260968999937,1196.5250307500028,9,"[6.880906499995035, 18.56394839999848, 16.872843500008457, 19.5876741999964, 4.5800490000110585, 5.654586200005724, 6.120244499994442, 12.151866699990933, 6.418876499999897]","[0.0002077999961329624, 0.0002651000104378909, 0.014805999991949648, 0.013989700004458427, 0.05001010000705719, 0.014207599990186282, 0.03738889998930972, 0.00022820000594947487, 6.418883200007258]",0,,,,,,,,,,,,,,,,,,,,,,,,,,,,,,,,,,,,,,,,,,,,,,,,,,,,,,,,,,,,,,,,,,,,,,,,,,,,,,,,,,,,,,,,,,,,,,,,,,,,,,,,,,,,,,,,,,,,,,,,,,,,9651N2,train_x,red_square,bottom_right,2025-09-26_15h36.49.855,HideSeek_v1,2022.2.5,59.970986032458654,
,,,,,,,,,,,,,,,0,0,0,0,9,0,9,0,,,,,,,,,,,,,,,,,,,,,,,,,,,,,,,conditions/schedules/train_x_first/red_square_00/bottom_right/instructions/Slide10.png,conditions/schedules/train_x_first/red_square_00/bottom_right/instructions/Audio10.wav,1202.9830371999997,1202.9803268099915,10,"[6.880906499995035, 18.56394839999848, 16.872843500008457, 19.5876741999964, 4.5800490000110585, 5.654586200005724, 6.120244499994442, 12.151866699990933, 6.418876499999897, 7.684282799993525]","[0.0002077999961329624, 0.0002651000104378909, 0.014805999991949648, 0.013989700004458427, 0.05001010000705719, 0.014207599990186282, 0.03738889998930972, 0.00022820000594947487, 0.013768899996648543, 7.684289699987858]",0,,,,,,,,,,,,,,,,,,,,,,,,,,,,,,,,,,,,,,,,,,,,,,,,,,,,,,,,,,,,,,,,,,,,,,,,,,,,,,,,,,,,,,,,,,,,,,,,,,,,,,,,,,,,,,,,,,,,,,,,,,,,9651N2,train_x,red_square,bottom_right,2025-09-26_15h36.49.855,HideSeek_v1,2022.2.5,59.970986032458654,
,,,,,,,,,,,,,,,0,0,0,0,10,0,10,0,,,,,,,,,,,,,,,,,,,,,,,,,,,,,,,conditions/schedules/train_x_first/red_square_00/bottom_right/instructions/Slide11.png,conditions/schedules/train_x_first/red_square_00/bottom_right/instructions/Audio11.wav,1210.7265263000008,1210.7201222799952,11,"[6.880906499995035, 18.56394839999848, 16.872843500008457, 19.5876741999964, 4.5800490000110585, 5.654586200005724, 6.120244499994442, 12.151866699990933, 6.418876499999897, 7.684282799993525, 10.099159099991084]","[0.0002077999961329624, 0.0002651000104378909, 0.014805999991949648, 0.013989700004458427, 0.05001010000705719, 0.014207599990186282, 0.03738889998930972, 0.00022820000594947487, 0.013768899996648543, 0.04644759999064263, 10.099165799998445]",0,,,,,,,,,,,,,,,,,,,,,,,,,,,,,,,,,,,,,,,,,,,,,,,,,,,,,,,,,,,,,,,,,,,,,,,,,,,,,,,,,,,,,,,,,,,,,,,,,,,,,,,,,,,,,,,,,,,,,,,,,,,,9651N2,train_x,red_square,bottom_right,2025-09-26_15h36.49.855,HideSeek_v1,2022.2.5,59.970986032458654,
,,,,,,,,,,,,,,,0,0,0,0,11,0,11,0,,,,,,,,,,,,,,,,,,,,,,,,,,,,,,,conditions/schedules/train_x_first/red_square_00/bottom_right/instructions/Slide12.png,conditions/schedules/train_x_first/red_square_00/bottom_right/instructions/Audio12.wav,1220.8801935999945,1220.878440980002,12,"[6.880906499995035, 18.56394839999848, 16.872843500008457, 19.5876741999964, 4.5800490000110585, 5.654586200005724, 6.120244499994442, 12.151866699990933, 6.418876499999897, 7.684282799993525, 10.099159099991084, 13.056667400000151]","[0.0002077999961329624, 0.0002651000104378909, 0.014805999991949648, 0.013989700004458427, 0.05001010000705719, 0.014207599990186282, 0.03738889998930972, 0.00022820000594947487, 0.013768899996648543, 0.04644759999064263, 0.0792652999953134, 13.056674199993722]",0,,,,,,,,,,,,,,,,,,,,,,,,,,,,,,,,,,,,,,,,,,,,,,,,,,,,,,,,,,,,,,,,,,,,,,,,,,,,,,,,,,,,,,,,,,,,,,,,,,,,,,,,,,,,,,,,,,,,,,,,,,,,9651N2,train_x,red_square,bottom_right,2025-09-26_15h36.49.855,HideSeek_v1,2022.2.5,59.970986032458654,
1,8,2,3,2,-5,0,66,2,instr_dim1_1,,,,,,0,0,0,0,,,,,0,0,0,0,,,,,,,,,,,,,,,,,,,,,,,,,,,,,,,,,,,,,stimuli/alien_stimuli/66.png,conditions/schedules/train_x_first/red_square_00/bottom_right/inputInstr_1.xlsx,stimuli/alien_stimuli/66.png,1234.038685099993,1234.038685099993,1234.038685099993,1234.038685099993,1234.0394301899955,return,10.90914000000339,"[-0.16, -0.08, 0, 0.08, 0.16, 0.24, 0.32, 0.4, 0.48, 0.56]","[-0.4, -0.32, -0.24, -0.16, -0.08, 0, 0.08, 0.16, 0.24, 0.32]",2,2,3,8,0.0,0.4,1245.1092544999992,1245.1092544999992,1245.1092544999992,1245.1092544999992,1245.1092544999992,1245.1092544999992,1245.1092544999992,1245.0988165300034,7.506337600003462,return,7.3339236000028905,stimuli/alien_stimuli/66.png,66,8,1,,,,,,,,,,,,,,,,,,,,,,,,,,,,,,,,,,,,,,,,,,,,,,,,,,,,,,,,,,,,,,,,,,,,,,,,,,,,,,,,,,,,,,,,,9651N2,train_x,red_square,bottom_right,2025-09-26_15h36.49.855,HideSeek_v1,2022.2.5,59.970986032458654,
,,,,,,,,,,,30,,,,0,0,0,0,,,,,,,,,,,,,,,,,,,,,,,,,,,,,,,,,,,,,,,,,,,,,,,,,,,,,,,,,,,,,,,,,,,,,,,,,,,,,,21,0.7,0,0,99,1,30,0,conditions/schedules/train_x_first/red_square_00/bottom_right/inputTrain_1.1.xlsx,99,1,1,1,0,,,,,,,,,,,,,,,,,,,,,,,,,,,,,,,,,,,,,,,,,,,,,,,,,,,,,,,,,,,,,,,,,,,,,,,,,,,9651N2,train_x,red_square,bottom_right,2025-09-26_15h36.49.855,HideSeek_v1,2022.2.5,59.970986032458654,
,,,,,,,,,,,,,,,1,0,1,0,0,0,0,0,,,,,,,,,,,,,,,,,,,,,,,,,,,,,,,conditions/schedules/train_x_first/red_square_00/bottom_right/instructions/Slide13.png,conditions/schedules/train_x_first/red_square_00/bottom_right/instructions/Audio13.wav,1252.6138181999995,1252.6047554299978,13,"[6.880906499995035, 18.56394839999848, 16.872843500008457, 19.5876741999964, 4.5800490000110585, 5.654586200005724, 6.120244499994442, 12.151866699990933, 6.418876499999897, 7.684282799993525, 10.099159099991084, 13.056667400000151, 16.869519700005185]","[0.0002077999961329624, 0.0002651000104378909, 0.014805999991949648, 0.013989700004458427, 0.05001010000705719, 0.014207599990186282, 0.03738889998930972, 0.00022820000594947487, 0.013768899996648543, 0.04644759999064263, 0.0792652999953134, 13.056674199993722, 16.869527200004086]",0,,,,,,,,,,,,,,,,,,,,,,,,,,,,,,,,,,,,,,,,,,,,,,,,,,,,,,,,,,,,,,,,,,,,,,,,,,,,,,,,,,,,,,,,,,,,,,,,,,,,,,,,,,,,,,,,,,,,,,,,,,,,9651N2,train_x,red_square,bottom_right,2025-09-26_15h36.49.855,HideSeek_v1,2022.2.5,59.970986032458654,
,,,,,,,,,,,,,,,1,0,1,0,1,0,1,0,,,,,,,,,,,,,,,,,,,,,,,,,,,,,,,conditions/schedules/train_x_first/red_square_00/bottom_right/instructions/Slide14.png,conditions/schedules/train_x_first/red_square_00/bottom_right/instructions/Audio14.wav,1269.5541658000002,1269.552388050004,14,"[6.880906499995035, 18.56394839999848, 16.872843500008457, 19.5876741999964, 4.5800490000110585, 5.654586200005724, 6.120244499994442, 12.151866699990933, 6.418876499999897, 7.684282799993525, 10.099159099991084, 13.056667400000151, 16.869519700005185, 13.424545800007763]","[0.0002077999961329624, 0.0002651000104378909, 0.014805999991949648, 0.013989700004458427, 0.05001010000705719, 0.014207599990186282, 0.03738889998930972, 0.00022820000594947487, 0.013768899996648543, 0.04644759999064263, 0.0792652999953134, 13.056674199993722, 0.01538359999540262, 13.424552700002096]",0,,,,,,,,,,,,,,,,,,,,,,,,,,,,,,,,,,,,,,,,,,,,,,,,,,,,,,,,,,,,,,,,,,,,,,,,,,,,,,,,,,,,,,,,,,,,,,,,,,,,,,,,,,,,,,,,,,,,,,,,,,,,9651N2,train_x,red_square,bottom_right,2025-09-26_15h36.49.855,HideSeek_v1,2022.2.5,59.970986032458654,
2,9,0,9,0,0,0,16,2,instr_dim1_1,,,,,,1,0,1,0,,,,,0,0,0,0,,,,,,,,,,,,,,,,,,,,,,,,,,,,,,,,,,,,,stimuli/alien_stimuli/16.png,conditions/schedules/train_x_first/red_square_00/bottom_right/inputInstr_1.xlsx,stimuli/alien_stimuli/16.png,1283.0814046000014,1283.0814046000014,1283.0814046000014,1283.0814046000014,1283.0799368900057,return,6.571609200007515,"[-0.16, -0.08, 0, 0.08, 0.16, 0.24, 0.32, 0.4, 0.48, 0.56]","[-0.4, -0.32, -0.24, -0.16, -0.08, 0, 0.08, 0.16, 0.24, 0.32]",0,0,9,9,0.0,0.0,1289.8306592000008,1289.8306592000008,1289.8306592000008,1289.8306592000008,1289.8306592000008,1289.8306592000008,1289.8306592000008,1289.8189836299964,7.5573450999945635,return,7.392516899999464,stimuli/alien_stimuli/16.png,16,9,2,,,,,,,,,,,,,,,,,,,,,,,,,,,,,,,,,,,,,,,,,,,,,,,,,,,,,,,,,,,,,,,,,,,,,,,,,,,,,,,,,,,,,,,,,9651N2,train_x,red_square,bottom_right,2025-09-26_15h36.49.855,HideSeek_v1,2022.2.5,59.970986032458654,
,,,,,,,,,,,30,,,,1,0,1,0,,,,,,,,,,,,,,,,,,,,,,,,,,,,,,,,,,,,,,,,,,,,,,,,,,,,,,,,,,,,,,,,,,,,,,,,,,,,,,21,0.7,0,0,99,1,30,0,conditions/schedules/train_x_first/red_square_00/bottom_right/inputTrain_1.1.xlsx,99,1,1,1,0,,,,,,,,,,,,,,,,,,,,,,,,,,,,,,,,,,,,,,,,,,,,,,,,,,,,,,,,,,,,,,,,,,,,,,,,,,,9651N2,train_x,red_square,bottom_right,2025-09-26_15h36.49.855,HideSeek_v1,2022.2.5,59.970986032458654,
,,,,,,,,,,,,,,,2,0,2,0,0,0,0,0,,,,,,,,,,,,,,,,,,,,,,,,,,,,,,,conditions/schedules/train_x_first/red_square_00/bottom_right/instructions/Slide15.png,conditions/schedules/train_x_first/red_square_00/bottom_right/instructions/Audio15.wav,1297.4015916999924,1297.3919586999982,15,"[6.880906499995035, 18.56394839999848, 16.872843500008457, 19.5876741999964, 4.5800490000110585, 5.654586200005724, 6.120244499994442, 12.151866699990933, 6.418876499999897, 7.684282799993525, 10.099159099991084, 13.056667400000151, 16.869519700005185, 13.424545800007763, 30.62917610000295]","[0.0002077999961329624, 0.0002651000104378909, 0.014805999991949648, 0.013989700004458427, 0.05001010000705719, 0.014207599990186282, 0.03738889998930972, 0.00022820000594947487, 0.013768899996648543, 0.04644759999064263, 0.0792652999953134, 13.056674199993722, 0.01538359999540262, 13.424552700002096, 30.629183900004136]",0,,,,,,,,,,,,,,,,,,,,,,,,,,,,,,,,,,,,,,,,,,,,,,,,,,,,,,,,,,,,,,,,,,,,,,,,,,,,,,,,,,,,,,,,,,,,,,,,,,,,,,,,,,,,,,,,,,,,,,,,,,,,9651N2,train_x,red_square,bottom_right,2025-09-26_15h36.49.855,HideSeek_v1,2022.2.5,59.970986032458654,
,,,,,,,,,,,,,,,2,0,2,0,1,0,1,0,,,,,,,,,,,,,,,,,,,,,,,,,,,,,,,conditions/schedules/train_x_first/red_square_00/bottom_right/instructions/Slide16.png,conditions/schedules/train_x_first/red_square_00/bottom_right/instructions/Audio16.wav,1328.1269067999965,1328.117586420002,16,"[6.880906499995035, 18.56394839999848, 16.872843500008457, 19.5876741999964, 4.5800490000110585, 5.654586200005724, 6.120244499994442, 12.151866699990933, 6.418876499999897, 7.684282799993525, 10.099159099991084, 13.056667400000151, 16.869519700005185, 13.424545800007763, 30.62917610000295, 21.5730179999955]","[0.0002077999961329624, 0.0002651000104378909, 0.014805999991949648, 0.013989700004458427, 0.05001010000705719, 0.014207599990186282, 0.03738889998930972, 0.00022820000594947487, 0.013768899996648543, 0.04644759999064263, 0.0792652999953134, 13.056674199993722, 0.01538359999540262, 13.424552700002096, 30.629183900004136, 21.57302450000134]",0,,,,,,,,,,,,,,,,,,,,,,,,,,,,,,,,,,,,,,,,,,,,,,,,,,,,,,,,,,,,,,,,,,,,,,,,,,,,,,,,,,,,,,,,,,,,,,,,,,,,,,,,,,,,,,,,,,,,,,,,,,,,9651N2,train_x,red_square,bottom_right,2025-09-26_15h36.49.855,HideSeek_v1,2022.2.5,59.970986032458654,
,7,1,4,1,-3,0,46,,train_dim1_1,1,30,,,,2,0,2,0,,,,,,,,,0,0,0,0,0,0,0,0,0,0,0,0,,,,,,,,,,,,,,,,,,,,,,,,,stimuli/alien_stimuli/46.png,,,,,,,,,,,,,,,,,,,,,,,,,,,,,,,,,,,,,,,30,,,,,,,,1349.801209600002,1349.801209600002,1349.801209600002,1349.801209600002,1349.801209600002,left,5.842578900002991,0,0,0,99,0.32,-0.32,left,5.740571399990586,,,,,,,,,,,,,,,,,,,,,,,,,,,,,,,,,,,,,,,,,,,,,,,,,,,,,,,,,,,,9651N2,train_x,red_square,bottom_right,2025-09-26_15h36.49.855,HideSeek_v1,2022.2.5,59.970986032458654,
,7,1,4,1,-3,0,46,,train_dim1_1,1,30,,,,2,0,2,0,,,,,,,,,0,0,0,0,0,0,0,0,1,0,1,0,,,,,,,,,,,,,,,,,,,,,,,,,,,,,,,,,,,,,,,,,,,,,,,,,,,,,,,,,,,,,,,,30,,,,,,,,1355.640511599995,1355.640511599995,1355.640511599995,1355.640511599995,1355.640511599995,left,1.0578668000089237,0,0,0,99,0.24,-0.32,left,0.969567799998913,,,,,,,,,,,,,,,,,,,,,,,,,,,,,,,,,,,,,,,,,,,,,,,,,,,,,,,,,,,,9651N2,train_x,red_square,bottom_right,2025-09-26_15h36.49.855,HideSeek_v1,2022.2.5,59.970986032458654,
,7,1,4,1,-3,0,46,,train_dim1_1,1,30,,,,2,0,2,0,,,,,,,,,0,0,0,0,0,0,0,0,2,0,2,0,,,,,,,,,,,,,,,,,,,,,,,,,,,,,,,,,,,,,,,,,,,,,,,,,,,,,,,,,,,,,,,,30,,,,,,,,1356.7044487999956,1356.7044487999956,1356.7044487999956,1356.7044487999956,1356.7044487999956,left,1.561100400009309,0,0,0,99,0.15999999999999998,-0.32,left,1.4838890999963041,,,,,,,,,,,,,,,,,,,,,,,,,,,,,,,,,,,,,,,,,,,,,,,,,,,,,,,,,,,,9651N2,train_x,red_square,bottom_right,2025-09-26_15h36.49.855,HideSeek_v1,2022.2.5,59.970986032458654,
,7,1,4,1,-3,0,46,,train_dim1_1,1,30,,,,2,0,2,0,,,,,,,,,0,0,0,0,0,0,0,0,3,0,3,0,,,,,,,,,,,,,,,,,,,,,,,,,,,,,,,,,,,,,,,,,,,,,,,,,,,,,,,,,,,,,,,,30,,,,,,,,1358.271695000003,1358.271695000003,1358.271695000003,1358.271695000003,1358.271695000003,right,2.328229699996882,0,0,0,99,0.24,-0.32,right,2.2467381000024034,,,,,,,,,,,,,,,,,,,,,,,,,,,,,,,,,,,,,,,,,,,,,,,,,,,,,,,,,,,,9651N2,train_x,red_square,bottom_right,2025-09-26_15h36.49.855,HideSeek_v1,2022.2.5,59.970986032458654,
,7,1,4,1,-3,0,46,,train_dim1_1,1,30,,,,2,0,2,0,,,,,,,,,0,0,0,0,0,0,0,0,4,0,4,0,,,,,,,,,,,,,,,,,,,,,,,,,,,,,,,,,,,,,,,,,,,,,,,,,,,,,,,,,,,,,,,,30,,,,,,,,1360.607779699989,1360.607779699989,1360.607779699989,1360.607779699989,1360.607779699989,return,0.84402570000384,0,1,0,0,0.24,-0.32,return,0.7627538999950048,0,-2,0.24,-0.32,,,,,,,,,,,,,,,,,,,,,,,,,,,,,,,,,,,,,,,,,,,,,,,,,,,,,,,,9651N2,train_x,red_square,bottom_right,2025-09-26_15h36.49.855,HideSeek_v1,2022.2.5,59.970986032458654,
,7,4,7,4,0,0,16,,train_dim1_1,2,30,,,,2,0,2,0,,,,,,,,,0,0,0,0,0,1,1,1,0,0,0,0,,,,,,,,,,,,,,,,,,,,,,,,,stimuli/alien_stimuli/16.png,,,,,,,,,,,,,,,,,,,,,,,,,,,,,stimuli/alien_stimuli/46.png,46,7,3,,,,,,,30,,,,,,,,1378.4122534999915,1378.4122534999915,1378.4122534999915,1378.4122534999915,1378.4122534999915,return,4.800734899996314,1,0,0,1,0.4,-0.08,return,4.701772400003392,0,-2,0.4,-0.08,1376.8248086999956,1378.4122534999915,0.16,-0.32,0.0,0.24,-0.32,0.16,0.28,0.16,-0.32,1363.0252474000008,1363.0252474000008,1363.0252474000008,1363.0252474000008,1363.0252474000008,1363.0252474000008,1363.0252474000008,1363.0252474000008,1363.0130113899954,13.913973000002443,return,13.783417899991036,,,,,,,,,,,,,,,,,,,,,,,,,,,,,,,,,9651N2,train_x,red_square,bottom_right,2025-09-26_15h36.49.855,HideSeek_v1,2022.2.5,59.970986032458654,
,9,4,8,4,-1,0,26,,train_dim1_1,3,30,,,,2,0,2,0,,,,,,,,,0,0,0,0,0,2,2,2,0,0,0,0,,,,,,,,,,,,,,,,,,,,,,,,,stimuli/alien_stimuli/26.png,,,,,,,,,,,,,,,,,,,,,,,,,,,,,stimuli/alien_stimuli/16.png,16,7,4,,,,,,,30,,,,,,,,1390.8532298999926,1390.8532298999926,1390.8532298999926,1390.8532298999926,1390.8532298999926,left,4.423011099992436,1,0,0,99,0.48000000000000004,-0.08,left,4.33739179999975,,,,,1389.2848266999936,1390.8532298999926,0.4,-0.08,0.0,0.0,-0.08,0.4,0.4,0.4,-0.08,1384.7787784999964,1384.7787784999964,1384.7787784999964,1384.7787784999964,1384.7787784999964,1384.7787784999964,1384.7787784999964,1384.7787784999964,1384.7644822600034,4.639199099998223,return,4.481908000001567,,,,,,,,,,,,,,,,,,,,,,,,,,,,,,,,,9651N2,train_x,red_square,bottom_right,2025-09-26_15h36.49.855,HideSeek_v1,2022.2.5,59.970986032458654,
,9,4,8,4,-1,0,26,,train_dim1_1,3,30,,,,2,0,2,0,,,,,,,,,0,0,0,0,0,2,2,2,1,0,1,0,,,,,,,,,,,,,,,,,,,,,,,,,,,,,,,,,,,,,,,,,,,,,,,,,,,,,,,,,,,,,,,,30,,,,,,,,1395.2747237000003,1395.2747237000003,1395.2747237000003,1395.2747237000003,1395.2747237000003,return,2.8275989000103436,2,0,0,1,0.48000000000000004,-0.08,return,2.7414222000079462,0,-3,0.48000000000000004,-0.08,,,,,,,,,,,,,,,,,,,,,,,,,,,,,,,,,,,,,,,,,,,,,,,,,,,,,,,,9651N2,train_x,red_square,bottom_right,2025-09-26_15h36.49.855,HideSeek_v1,2022.2.5,59.970986032458654,
,7,3,3,3,-4,0,56,,train_dim1_1,4,30,,,,2,0,2,0,,,,,,,,,0,0,0,0,0,3,3,3,0,0,0,0,,,,,,,,,,,,,,,,,,,,,,,,,stimuli/alien_stimuli/56.png,,,,,,,,,,,,,,,,,,,,,,,,,,,,,stimuli/alien_stimuli/26.png,26,9,5,,,,,,,30,,,,,,,,1403.6365659000003,1403.6365659000003,1403.6365659000003,1403.6365659000003,1403.6365659000003,left,2.5866034000064246,2,0,0,99,0.32,-0.16,left,2.4837275999889243,,,,,1402.0620553999906,1403.6365659000003,0.48,-0.08,0.0,0.08,-0.08,0.48,0.52,0.48,-0.08,1399.6838178999897,1399.6838178999897,1399.6838178999897,1399.6838178999897,1399.6838178999897,1399.6838178999897,1399.6838178999897,1399.6838178999897,1399.676969459999,2.504311600001529,return,2.3567199999961304,,,,,,,,,,,,,,,,,,,,,,,,,,,,,,,,,9651N2,train_x,red_square,bottom_right,2025-09-26_15h36.49.855,HideSeek_v1,2022.2.5,59.970986032458654,
,7,3,3,3,-4,0,56,,train_dim1_1,4,30,,,,2,0,2,0,,,,,,,,,0,0,0,0,0,3,3,3,1,0,1,0,,,,,,,,,,,,,,,,,,,,,,,,,,,,,,,,,,,,,,,,,,,,,,,,,,,,,,,,,,,,,,,,30,,,,,,,,1406.215872899993,1406.215872899993,1406.215872899993,1406.215872899993,1406.215872899993,left,0.8252022000087891,2,0,0,99,0.24,-0.16,left,0.7383376000070712,,,,,,,,,,,,,,,,,,,,,,,,,,,,,,,,,,,,,,,,,,,,,,,,,,,,,,,,,,,,9651N2,train_x,red_square,bottom_right,2025-09-26_15h36.49.855,HideSeek_v1,2022.2.5,59.970986032458654,
,7,3,3,3,-4,0,56,,train_dim1_1,4,30,,,,2,0,2,0,,,,,,,,,0,0,0,0,0,3,3,3,2,0,2,0,,,,,,,,,,,,,,,,,,,,,,,,,,,,,,,,,,,,,,,,,,,,,,,,,,,,,,,,,,,,,,,,30,,,,,,,,1407.049243699992,1407.049243699992,1407.049243699992,1407.049243699992,1407.049243699992,left,0.7940181000012672,2,0,0,99,0.15999999999999998,-0.16,left,0.7100328000087757,,,,,,,,,,,,,,,,,,,,,,,,,,,,,,,,,,,,,,,,,,,,,,,,,,,,,,,,,,,,9651N2,train_x,red_square,bottom_right,2025-09-26_15h36.49.855,HideSeek_v1,2022.2.5,59.970986032458654,
,7,3,3,3,-4,0,56,,train_dim1_1,4,30,,,,2,0,2,0,,,,,,,,,0,0,0,0,0,3,3,3,3,0,3,0,,,,,,,,,,,,,,,,,,,,,,,,,,,,,,,,,,,,,,,,,,,,,,,,,,,,,,,,,,,,,,,,30,,,,,,,,1407.8522050000029,1407.8522050000029,1407.8522050000029,1407.8522050000029,1407.8522050000029,left,1.958377200004179,2,0,0,99,0.07999999999999997,-0.16,left,1.8813464000122622,,,,,,,,,,,,,,,,,,,,,,,,,,,,,,,,,,,,,,,,,,,,,,,,,,,,,,,,,,,,9651N2,train_x,red_square,bottom_right,2025-09-26_15h36.49.855,HideSeek_v1,2022.2.5,59.970986032458654,
,7,3,3,3,-4,0,56,,train_dim1_1,4,30,,,,2,0,2,0,,,,,,,,,0,0,0,0,0,3,3,3,4,0,4,0,,,,,,,,,,,,,,,,,,,,,,,,,,,,,,,,,,,,,,,,,,,,,,,,,,,,,,,,,,,,,,,,30,,,,,,,,1409.8171557000023,1409.8171557000023,1409.8171557000023,1409.8171557000023,1409.8171557000023,return,0.9272931000014069,3,0,0,1,0.07999999999999997,-0.16,return,0.843707899999572,0,-7,0.07999999999999997,-0.16,,,,,,,,,,,,,,,,,,,,,,,,,,,,,,,,,,,,,,,,,,,,,,,,,,,,,,,,9651N2,train_x,red_square,bottom_right,2025-09-26_15h36.49.855,HideSeek_v1,2022.2.5,59.970986032458654,
,5,2,0,2,-5,0,66,,train_dim1_1,5,30,,,,2,0,2,0,,,,,,,,,0,0,0,0,0,4,4,4,0,0,0,0,,,,,,,,,,,,,,,,,,,,,,,,,stimuli/alien_stimuli/66.png,,,,,,,,,,,,,,,,,,,,,,,,,,,,,stimuli/alien_stimuli/56.png,56,7,6,,,,,,,30,,,,,,,,1415.7760801999975,1415.7760801999975,1415.7760801999975,1415.7760801999975,1415.7760801999975,left,1.907479899993632,3,0,0,99,0.15999999999999998,-0.24,left,1.8050998999970034,,,,,1414.2057017999905,1415.7760801999975,0.08,-0.16,0.0,0.32,-0.16,0.08,0.24000000000000002,0.08,-0.16,1412.322076700002,1412.322076700002,1412.322076700002,1412.322076700002,1412.322076700002,1412.322076700002,1412.322076700002,1412.322076700002,1412.3040774900014,2.0037312999920687,return,1.8655990000115708,,,,,,,,,,,,,,,,,,,,,,,,,,,,,,,,,9651N2,train_x,red_square,bottom_right,2025-09-26_15h36.49.855,HideSeek_v1,2022.2.5,59.970986032458654,
,5,2,0,2,-5,0,66,,train_dim1_1,5,30,,,,2,0,2,0,,,,,,,,,0,0,0,0,0,4,4,4,1,0,1,0,,,,,,,,,,,,,,,,,,,,,,,,,,,,,,,,,,,,,,,,,,,,,,,,,,,,,,,,,,,,,,,,30,,,,,,,,1417.6716436999995,1417.6716436999995,1417.6716436999995,1417.6716436999995,1417.6716436999995,left,0.7770730000047479,3,0,0,99,0.07999999999999997,-0.24,left,0.7039712000114378,,,,,,,,,,,,,,,,,,,,,,,,,,,,,,,,,,,,,,,,,,,,,,,,,,,,,,,,,,,,9651N2,train_x,red_square,bottom_right,2025-09-26_15h36.49.855,HideSeek_v1,2022.2.5,59.970986032458654,
,5,2,0,2,-5,0,66,,train_dim1_1,5,30,,,,2,0,2,0,,,,,,,,,0,0,0,0,0,4,4,4,2,0,2,0,,,,,,,,,,,,,,,,,,,,,,,,,,,,,,,,,,,,,,,,,,,,,,,,,,,,,,,,,,,,,,,,30,,,,,,,,1418.4552167999937,1418.4552167999937,1418.4552167999937,1418.4552167999937,1418.4552167999937,left,0.7604501000023447,3,0,0,99,-2.7755575615628914e-17,-0.24,left,0.6858398000040324,,,,,,,,,,,,,,,,,,,,,,,,,,,,,,,,,,,,,,,,,,,,,,,,,,,,,,,,,,,,9651N2,train_x,red_square,bottom_right,2025-09-26_15h36.49.855,HideSeek_v1,2022.2.5,59.970986032458654,
,5,2,0,2,-5,0,66,,train_dim1_1,5,30,,,,2,0,2,0,,,,,,,,,0,0,0,0,0,4,4,4,3,0,3,0,,,,,,,,,,,,,,,,,,,,,,,,,,,,,,,,,,,,,,,,,,,,,,,,,,,,,,,,,,,,,,,,30,,,,,,,,1419.2224404000008,1419.2224404000008,1419.2224404000008,1419.2224404000008,1419.2224404000008,left,0.7940017000073567,3,0,0,99,-0.08000000000000003,-0.24,left,0.7055988000065554,,,,,,,,,,,,,,,,,,,,,,,,,,,,,,,,,,,,,,,,,,,,,,,,,,,,,,,,,,,,9651N2,train_x,red_square,bottom_right,2025-09-26_15h36.49.855,HideSeek_v1,2022.2.5,59.970986032458654,
,5,2,0,2,-5,0,66,,train_dim1_1,5,30,,,,2,0,2,0,,,,,,,,,0,0,0,0,0,4,4,4,4,0,4,0,,,,,,,,,,,,,,,,,,,,,,,,,,,,,,,,,,,,,,,,,,,,,,,,,,,,,,,,,,,,,,,,30,,,,,,,,1420.0262708999944,1420.0262708999944,1420.0262708999944,1420.0262708999944,1420.0262708999944,left,0.7245887000026414,3,0,0,99,-0.16000000000000003,-0.24,left,0.6378339999937452,,,,,,,,,,,,,,,,,,,,,,,,,,,,,,,,,,,,,,,,,,,,,,,,,,,,,,,,,,,,9651N2,train_x,red_square,bottom_right,2025-09-26_15h36.49.855,HideSeek_v1,2022.2.5,59.970986032458654,
,5,2,0,2,-5,0,66,,train_dim1_1,5,30,,,,2,0,2,0,,,,,,,,,0,0,0,0,0,4,4,4,5,0,5,0,,,,,,,,,,,,,,,,,,,,,,,,,,,,,,,,,,,,,,,,,,,,,,,,,,,,,,,,,,,,,,,,30,,,,,,,,1420.7608305999893,1420.7608305999893,1420.7608305999893,1420.7608305999893,1420.7608305999893,return,0.8267655999952694,4,0,0,1,-0.16000000000000003,-0.24,return,0.7398206000070786,0,-12,-0.16000000000000003,-0.24,,,,,,,,,,,,,,,,,,,,,,,,,,,,,,,,,,,,,,,,,,,,,,,,,,,,,,,,9651N2,train_x,red_square,bottom_right,2025-09-26_15h36.49.855,HideSeek_v1,2022.2.5,59.970986032458654,
,5,0,4,0,-1,0,26,,train_dim1_1,6,30,,,,2,0,2,0,,,,,,,,,0,0,0,0,0,5,5,5,0,0,0,0,,,,,,,,,,,,,,,,,,,,,,,,,stimuli/alien_stimuli/26.png,,,,,,,,,,,,,,,,,,,,,,,,,,,,,stimuli/alien_stimuli/66.png,66,5,7,,,,,,,30,,,,,,,,1426.523776499991,1426.523776499991,1426.523776499991,1426.523776499991,1426.523776499991,left,4.976971800002502,4,0,0,99,0.15999999999999998,-0.4,left,4.870419499988202,,,,,1424.9476251000015,1426.523776499991,-0.16,-0.24,0.0,0.4,-0.24,-0.16,0.039999999999999994,-0.16,-0.24,1423.167749100001,1423.167749100001,1423.167749100001,1423.167749100001,1423.167749100001,1423.167749100001,1423.167749100001,1423.167749100001,1423.1462444899967,1.9043206999922404,return,1.7619554999982938,,,,,,,,,,,,,,,,,,,,,,,,,,,,,,,,,9651N2,train_x,red_square,bottom_right,2025-09-26_15h36.49.855,HideSeek_v1,2022.2.5,59.970986032458654,
,5,0,4,0,-1,0,26,,train_dim1_1,6,30,,,,2,0,2,0,,,,,,,,,0,0,0,0,0,5,5,5,1,0,1,0,,,,,,,,,,,,,,,,,,,,,,,,,,,,,,,,,,,,,,,,,,,,,,,,,,,,,,,,,,,,,,,,30,,,,,,,,1431.4912463999935,1431.4912463999935,1431.4912463999935,1431.4912463999935,1431.4912463999935,left,1.4913765000092098,4,0,0,99,0.07999999999999997,-0.4,left,1.3976509999920381,,,,,,,,,,,,,,,,,,,,,,,,,,,,,,,,,,,,,,,,,,,,,,,,,,,,,,,,,,,,9651N2,train_x,red_square,bottom_right,2025-09-26_15h36.49.855,HideSeek_v1,2022.2.5,59.970986032458654,
,5,0,4,0,-1,0,26,,train_dim1_1,6,30,,,,2,0,2,0,,,,,,,,,0,0,0,0,0,5,5,5,2,0,2,0,,,,,,,,,,,,,,,,,,,,,,,,,,,,,,,,,,,,,,,,,,,,,,,,,,,,,,,,,,,,,,,,30,,,,,,,,1432.9877613999997,1432.9877613999997,1432.9877613999997,1432.9877613999997,1432.9877613999997,return,0.6771161999931792,4,1,0,0,0.07999999999999997,-0.4,return,0.5850849999987986,0,-14,0.07999999999999997,-0.4,,,,,,,,,,,,,,,,,,,,,,,,,,,,,,,,,,,,,,,,,,,,,,,,,,,,,,,,9651N2,train_x,red_square,bottom_right,2025-09-26_15h36.49.855,HideSeek_v1,2022.2.5,59.970986032458654,
,8,0,3,0,-5,0,66,,train_dim1_1,7,30,,,,2,0,2,0,,,,,,,,,0,0,0,0,0,6,6,6,0,0,0,0,,,,,,,,,,,,,,,,,,,,,,,,,stimuli/alien_stimuli/66.png,,,,,,,,,,,,,,,,,,,,,,,,,,,,,stimuli/alien_stimuli/26.png,26,5,8,,,,,,,30,,,,,,,,1439.236178799998,1439.236178799998,1439.236178799998,1439.236178799998,1439.236178799998,left,1.9903913000016473,4,1,0,99,0.39999999999999997,-0.4,left,1.8866970000090078,,,,,1437.65842159999,1439.236178799998,0.16,-0.4,0.0,0.08,-0.4,0.16,0.2,0.16,-0.4,1435.2318416999915,1435.2318416999915,1435.2318416999915,1435.2318416999915,1435.2318416999915,1435.2318416999915,1435.2318416999915,1435.2318416999915,1435.2230341900008,2.537841600002139,return,2.4070074999908684,,,,,,,,,,,,,,,,,,,,,,,,,,,,,,,,,9651N2,train_x,red_square,bottom_right,2025-09-26_15h36.49.855,HideSeek_v1,2022.2.5,59.970986032458654,
,8,0,3,0,-5,0,66,,train_dim1_1,7,30,,,,2,0,2,0,,,,,,,,,0,0,0,0,0,6,6,6,1,0,1,0,,,,,,,,,,,,,,,,,,,,,,,,,,,,,,,,,,,,,,,,,,,,,,,,,,,,,,,,,,,,,,,,30,,,,,,,,1441.2088581999997,1441.2088581999997,1441.2088581999997,1441.2088581999997,1441.2088581999997,left,0.8442195000097854,4,1,0,99,0.31999999999999995,-0.4,left,0.7586074999999255,,,,,,,,,,,,,,,,,,,,,,,,,,,,,,,,,,,,,,,,,,,,,,,,,,,,,,,,,,,,9651N2,train_x,red_square,bottom_right,2025-09-26_15h36.49.855,HideSeek_v1,2022.2.5,59.970986032458654,
,8,0,3,0,-5,0,66,,train_dim1_1,7,30,,,,2,0,2,0,,,,,,,,,0,0,0,0,0,6,6,6,2,0,2,0,,,,,,,,,,,,,,,,,,,,,,,,,,,,,,,,,,,,,,,,,,,,,,,,,,,,,,,,,,,,,,,,30,,,,,,,,1442.061246600002,1442.061246600002,1442.061246600002,1442.061246600002,1442.061246600002,left,0.8925471999973524,4,1,0,99,0.23999999999999994,-0.4,left,0.816422000003513,,,,,,,,,,,,,,,,,,,,,,,,,,,,,,,,,,,,,,,,,,,,,,,,,,,,,,,,,,,,9651N2,train_x,red_square,bottom_right,2025-09-26_15h36.49.855,HideSeek_v1,2022.2.5,59.970986032458654,
,8,0,3,0,-5,0,66,,train_dim1_1,7,30,,,,2,0,2,0,,,,,,,,,0,0,0,0,0,6,6,6,3,0,3,0,,,,,,,,,,,,,,,,,,,,,,,,,,,,,,,,,,,,,,,,,,,,,,,,,,,,,,,,,,,,,,,,30,,,,,,,,1442.9599030999962,1442.9599030999962,1442.9599030999962,1442.9599030999962,1442.9599030999962,left,0.9439314000046579,4,1,0,99,0.15999999999999992,-0.4,left,0.8652005000039935,,,,,,,,,,,,,,,,,,,,,,,,,,,,,,,,,,,,,,,,,,,,,,,,,,,,,,,,,,,,9651N2,train_x,red_square,bottom_right,2025-09-26_15h36.49.855,HideSeek_v1,2022.2.5,59.970986032458654,
,8,0,3,0,-5,0,66,,train_dim1_1,7,30,,,,2,0,2,0,,,,,,,,,0,0,0,0,0,6,6,6,4,0,4,0,,,,,,,,,,,,,,,,,,,,,,,,,,,,,,,,,,,,,,,,,,,,,,,,,,,,,,,,,,,,,,,,30,,,,,,,,1443.9139447999914,1443.9139447999914,1443.9139447999914,1443.9139447999914,1443.9139447999914,left,0.8738335000089137,4,1,0,99,0.07999999999999992,-0.4,left,0.7931701000052271,,,,,,,,,,,,,,,,,,,,,,,,,,,,,,,,,,,,,,,,,,,,,,,,,,,,,,,,,,,,9651N2,train_x,red_square,bottom_right,2025-09-26_15h36.49.855,HideSeek_v1,2022.2.5,59.970986032458654,
,8,0,3,0,-5,0,66,,train_dim1_1,7,30,,,,2,0,2,0,,,,,,,,,0,0,0,0,0,6,6,6,5,0,5,0,,,,,,,,,,,,,,,,,,,,,,,,,,,,,,,,,,,,,,,,,,,,,,,,,,,,,,,,,,,,,,,,30,,,,,,,,1444.7938767000014,1444.7938767000014,1444.7938767000014,1444.7938767000014,1444.7938767000014,return,0.8939651999971829,5,0,0,1,0.07999999999999992,-0.4,return,0.816145000004326,0,-19,0.07999999999999992,-0.4,,,,,,,,,,,,,,,,,,,,,,,,,,,,,,,,,,,,,,,,,,,,,,,,,,,,,,,,9651N2,train_x,red_square,bottom_right,2025-09-26_15h36.49.855,HideSeek_v1,2022.2.5,59.970986032458654,
,5,4,2,4,-3,0,46,,train_dim1_1,8,30,,,,2,0,2,0,,,,,,,,,0,0,0,0,0,7,7,7,0,0,0,0,,,,,,,,,,,,,,,,,,,,,,,,,stimuli/alien_stimuli/46.png,,,,,,,,,,,,,,,,,,,,,,,,,,,,,stimuli/alien_stimuli/66.png,66,8,9,,,,,,,30,,,,,,,,1450.8391344999982,1450.8391344999982,1450.8391344999982,1450.8391344999982,1450.8391344999982,left,2.874923800001852,5,0,0,99,0.15999999999999998,-0.08,left,2.7813886999938404,,,,,1449.2679022999946,1450.8391344999982,0.08,-0.4,0.0,0.4,-0.4,0.08,0.27999999999999997,0.08,-0.4,1447.250804299998,1447.250804299998,1447.250804299998,1447.250804299998,1447.250804299998,1447.250804299998,1447.250804299998,1447.250804299998,1447.2328648200025,2.12058829999296,return,1.98538740001095,,,,,,,,,,,,,,,,,,,,,,,,,,,,,,,,,9651N2,train_x,red_square,bottom_right,2025-09-26_15h36.49.855,HideSeek_v1,2022.2.5,59.970986032458654,
,5,4,2,4,-3,0,46,,train_dim1_1,8,30,,,,2,0,2,0,,,,,,,,,0,0,0,0,0,7,7,7,1,0,1,0,,,,,,,,,,,,,,,,,,,,,,,,,,,,,,,,,,,,,,,,,,,,,,,,,,,,,,,,,,,,,,,,30,,,,,,,,1453.702062899989,1453.702062899989,1453.702062899989,1453.702062899989,1453.702062899989,left,0.826632399999653,5,0,0,99,0.07999999999999997,-0.08,left,0.7428842000081204,,,,,,,,,,,,,,,,,,,,,,,,,,,,,,,,,,,,,,,,,,,,,,,,,,,,,,,,,,,,9651N2,train_x,red_square,bottom_right,2025-09-26_15h36.49.855,HideSeek_v1,2022.2.5,59.970986032458654,
,5,4,2,4,-3,0,46,,train_dim1_1,8,30,,,,2,0,2,0,,,,,,,,,0,0,0,0,0,7,7,7,2,0,2,0,,,,,,,,,,,,,,,,,,,,,,,,,,,,,,,,,,,,,,,,,,,,,,,,,,,,,,,,,,,,,,,,30,,,,,,,,1454.5352249999996,1454.5352249999996,1454.5352249999996,1454.5352249999996,1454.5352249999996,return,1.8946890000079293,5,1,0,0,0.07999999999999997,-0.08,return,1.8200447999988683,0,-21,0.07999999999999997,-0.08,,,,,,,,,,,,,,,,,,,,,,,,,,,,,,,,,,,,,,,,,,,,,,,,,,,,,,,,9651N2,train_x,red_square,bottom_right,2025-09-26_15h36.49.855,HideSeek_v1,2022.2.5,59.970986032458654,
,6,0,2,0,-4,0,56,,train_dim1_1,9,30,,,,2,0,2,0,,,,,,,,,0,0,0,0,0,8,8,8,0,0,0,0,,,,,,,,,,,,,,,,,,,,,,,,,stimuli/alien_stimuli/56.png,,,,,,,,,,,,,,,,,,,,,,,,,,,,,stimuli/alien_stimuli/46.png,46,5,10,,,,,,,30,,,,,,,,1461.652994899996,1461.652994899996,1461.652994899996,1461.652994899996,1461.652994899996,left,2.2732692999998108,5,1,0,99,0.24,-0.4,left,2.178070399997523,,,,,1460.0770517999918,1461.652994899996,0,-0.08,0.0,0.24,-0.08,0,0.12,0,-0.08,1458.0100096999959,1458.0100096999959,1458.0100096999959,1458.0100096999959,1458.0100096999959,1458.0100096999959,1458.0100096999959,1458.0100096999959,1457.9918981899987,2.187720600006287,return,2.049481399997603,,,,,,,,,,,,,,,,,,,,,,,,,,,,,,,,,9651N2,train_x,red_square,bottom_right,2025-09-26_15h36.49.855,HideSeek_v1,2022.2.5,59.970986032458654,
,6,0,2,0,-4,0,56,,train_dim1_1,9,30,,,,2,0,2,0,,,,,,,,,0,0,0,0,0,8,8,8,1,0,1,0,,,,,,,,,,,,,,,,,,,,,,,,,,,,,,,,,,,,,,,,,,,,,,,,,,,,,,,,,,,,,,,,30,,,,,,,,1463.912534099989,1463.912534099989,1463.912534099989,1463.912534099989,1463.912534099989,left,0.9763535000092816,5,1,0,99,0.15999999999999998,-0.4,left,0.8900678999925731,,,,,,,,,,,,,,,,,,,,,,,,,,,,,,,,,,,,,,,,,,,,,,,,,,,,,,,,,,,,9651N2,train_x,red_square,bottom_right,2025-09-26_15h36.49.855,HideSeek_v1,2022.2.5,59.970986032458654,
,6,0,2,0,-4,0,56,,train_dim1_1,9,30,,,,2,0,2,0,,,,,,,,,0,0,0,0,0,8,8,8,2,0,2,0,,,,,,,,,,,,,,,,,,,,,,,,,,,,,,,,,,,,,,,,,,,,,,,,,,,,,,,,,,,,,,,,30,,,,,,,,1464.8965172999888,1464.8965172999888,1464.8965172999888,1464.8965172999888,1464.8965172999888,left,0.7938143999926979,5,1,0,99,0.07999999999999997,-0.4,left,0.7146651000075508,,,,,,,,,,,,,,,,,,,,,,,,,,,,,,,,,,,,,,,,,,,,,,,,,,,,,,,,,,,,9651N2,train_x,red_square,bottom_right,2025-09-26_15h36.49.855,HideSeek_v1,2022.2.5,59.970986032458654,
,6,0,2,0,-4,0,56,,train_dim1_1,9,30,,,,2,0,2,0,,,,,,,,,0,0,0,0,0,8,8,8,3,0,3,0,,,,,,,,,,,,,,,,,,,,,,,,,,,,,,,,,,,,,,,,,,,,,,,,,,,,,,,,,,,,,,,,30,,,,,,,,1465.7000389000023,1465.7000389000023,1465.7000389000023,1465.7000389000023,1465.7000389000023,left,1.041172800003551,5,1,0,99,-2.7755575615628914e-17,-0.4,left,0.9654660999949556,,,,,,,,,,,,,,,,,,,,,,,,,,,,,,,,,,,,,,,,,,,,,,,,,,,,,,,,,,,,9651N2,train_x,red_square,bottom_right,2025-09-26_15h36.49.855,HideSeek_v1,2022.2.5,59.970986032458654,
,6,0,2,0,-4,0,56,,train_dim1_1,9,30,,,,2,0,2,0,,,,,,,,,0,0,0,0,0,8,8,8,4,0,4,0,,,,,,,,,,,,,,,,,,,,,,,,,,,,,,,,,,,,,,,,,,,,,,,,,,,,,,,,,,,,,,,,30,,,,,,,,1466.7486776000005,1466.7486776000005,1466.7486776000005,1466.7486776000005,1466.7486776000005,return,0.8605157999991206,6,0,0,1,-2.7755575615628914e-17,-0.4,return,0.7732695000013337,0,-25,-2.7755575615628914e-17,-0.4,,,,,,,,,,,,,,,,,,,,,,,,,,,,,,,,,,,,,,,,,,,,,,,,,,,,,,,,9651N2,train_x,red_square,bottom_right,2025-09-26_15h36.49.855,HideSeek_v1,2022.2.5,59.970986032458654,
,5,3,5,3,0,0,16,,train_dim1_1,10,30,,,,2,0,2,0,,,,,,,,,0,0,0,0,0,9,9,9,0,0,0,0,,,,,,,,,,,,,,,,,,,,,,,,,stimuli/alien_stimuli/16.png,,,,,,,,,,,,,,,,,,,,,,,,,,,,,stimuli/alien_stimuli/56.png,56,6,11,,,,,,,30,,,,,,,,1472.250159599993,1472.250159599993,1472.250159599993,1472.250159599993,1472.250159599993,return,2.906609000012395,7,0,0,1,0.24,-0.16,return,2.7991249000042444,0,-25,0.24,-0.16,1470.669124299995,1472.250159599993,0,-0.4,0.0,0.32,-0.4,0,0.16,0,-0.4,1469.1878104999923,1469.1878104999923,1469.1878104999923,1469.1878104999923,1469.1878104999923,1469.1878104999923,1469.1878104999923,1469.1878104999923,1469.1678942900048,1.6037857000046642,return,1.456217099999776,,,,,,,,,,,,,,,,,,,,,,,,,,,,,,,,,9651N2,train_x,red_square,bottom_right,2025-09-26_15h36.49.855,HideSeek_v1,2022.2.5,59.970986032458654,
,7,2,4,2,-3,0,46,,train_dim1_1,11,30,,,,2,0,2,0,,,,,,,,,0,0,0,0,0,10,10,10,0,0,0,0,,,,,,,,,,,,,,,,,,,,,,,,,stimuli/alien_stimuli/46.png,,,,,,,,,,,,,,,,,,,,,,,,,,,,,stimuli/alien_stimuli/16.png,16,5,12,,,,,,,30,,,,,,,,1479.7680926999892,1479.7680926999892,1479.7680926999892,1479.7680926999892,1479.7680926999892,left,1.671343699999852,7,0,0,99,0.32,-0.24,left,1.563661600011983,,,,,1478.1919019999914,1479.7680926999892,0.24,-0.16,0.0,0.0,-0.16,0.24,0.24,0.24,-0.16,1476.6979935999989,1476.6979935999989,1476.6979935999989,1476.6979935999989,1476.6979935999989,1476.6979935999989,1476.6979935999989,1476.6979935999989,1476.690782289997,1.603441200000816,return,1.4655746000062209,,,,,,,,,,,,,,,,,,,,,,,,,,,,,,,,,9651N2,train_x,red_square,bottom_right,2025-09-26_15h36.49.855,HideSeek_v1,2022.2.5,59.970986032458654,
,7,2,4,2,-3,0,46,,train_dim1_1,11,30,,,,2,0,2,0,,,,,,,,,0,0,0,0,0,10,10,10,1,0,1,0,,,,,,,,,,,,,,,,,,,,,,,,,,,,,,,,,,,,,,,,,,,,,,,,,,,,,,,,,,,,,,,,30,,,,,,,,1481.4244111000007,1481.4244111000007,1481.4244111000007,1481.4244111000007,1481.4244111000007,left,0.810096799992607,7,0,0,99,0.24,-0.24,left,0.7220900999964215,,,,,,,,,,,,,,,,,,,,,,,,,,,,,,,,,,,,,,,,,,,,,,,,,,,,,,,,,,,,9651N2,train_x,red_square,bottom_right,2025-09-26_15h36.49.855,HideSeek_v1,2022.2.5,59.970986032458654,
,7,2,4,2,-3,0,46,,train_dim1_1,11,30,,,,2,0,2,0,,,,,,,,,0,0,0,0,0,10,10,10,2,0,2,0,,,,,,,,,,,,,,,,,,,,,,,,,,,,,,,,,,,,,,,,,,,,,,,,,,,,,,,,,,,,,,,,30,,,,,,,,1482.240940699994,1482.240940699994,1482.240940699994,1482.240940699994,1482.240940699994,left,1.1940345999901183,7,0,0,99,0.15999999999999998,-0.24,left,1.106358300006832,,,,,,,,,,,,,,,,,,,,,,,,,,,,,,,,,,,,,,,,,,,,,,,,,,,,,,,,,,,,9651N2,train_x,red_square,bottom_right,2025-09-26_15h36.49.855,HideSeek_v1,2022.2.5,59.970986032458654,
,7,2,4,2,-3,0,46,,train_dim1_1,11,30,,,,2,0,2,0,,,,,,,,,0,0,0,0,0,10,10,10,3,0,3,0,,,,,,,,,,,,,,,,,,,,,,,,,,,,,,,,,,,,,,,,,,,,,,,,,,,,,,,,,,,,,,,,30,,,,,,,,1483.4430776999943,1483.4430776999943,1483.4430776999943,1483.4430776999943,1483.4430776999943,return,2.1448777000041446,8,0,0,1,0.15999999999999998,-0.24,return,2.063220000010915,0,-28,0.15999999999999998,-0.24,,,,,,,,,,,,,,,,,,,,,,,,,,,,,,,,,,,,,,,,,,,,,,,,,,,,,,,,9651N2,train_x,red_square,bottom_right,2025-09-26_15h36.49.855,HideSeek_v1,2022.2.5,59.970986032458654,
,5,0,4,0,-1,0,26,,train_dim1_1,12,30,,,,2,0,2,0,,,,,,,,,0,0,0,0,0,11,11,11,0,0,0,0,,,,,,,,,,,,,,,,,,,,,,,,,stimuli/alien_stimuli/26.png,,,,,,,,,,,,,,,,,,,,,,,,,,,,,stimuli/alien_stimuli/46.png,46,7,13,,,,,,,30,,,,,,,,1490.2257848000008,1490.2257848000008,1490.2257848000008,1490.2257848000008,1490.2257848000008,left,2.1395407000090927,8,0,0,99,0.15999999999999998,-0.4,left,2.029074699996272,,,,,1488.650756499992,1490.2257848000008,0.16,-0.24,0.0,0.24,-0.24,0.16,0.28,0.16,-0.24,1487.1645285999984,1487.1645285999984,1487.1645285999984,1487.1645285999984,1487.1645285999984,1487.1645285999984,1487.1645285999984,1487.1645285999984,1487.1494109899954,1.6039121000067098,return,1.4545931000029668,,,,,,,,,,,,,,,,,,,,,,,,,,,,,,,,,9651N2,train_x,red_square,bottom_right,2025-09-26_15h36.49.855,HideSeek_v1,2022.2.5,59.970986032458654,
,5,0,4,0,-1,0,26,,train_dim1_1,12,30,,,,2,0,2,0,,,,,,,,,0,0,0,0,0,11,11,11,1,0,1,0,,,,,,,,,,,,,,,,,,,,,,,,,,,,,,,,,,,,,,,,,,,,,,,,,,,,,,,,,,,,,,,,30,,,,,,,,1492.3545990999992,1492.3545990999992,1492.3545990999992,1492.3545990999992,1492.3545990999992,return,4.396384000006947,9,0,0,1,0.15999999999999998,-0.4,return,4.310427900010836,0,-29,0.15999999999999998,-0.4,,,,,,,,,,,,,,,,,,,,,,,,,,,,,,,,,,,,,,,,,,,,,,,,,,,,,,,,9651N2,train_x,red_square,bottom_right,2025-09-26_15h36.49.855,HideSeek_v1,2022.2.5,59.970986032458654,
,5,4,1,4,-4,0,56,,train_dim1_1,13,30,,,,2,0,2,0,,,,,,,,,0,0,0,0,0,12,12,12,0,0,0,0,,,,,,,,,,,,,,,,,,,,,,,,,stimuli/alien_stimuli/56.png,,,,,,,,,,,,,,,,,,,,,,,,,,,,,stimuli/alien_stimuli/26.png,26,5,14,,,,,,,30,,,,,,,,1501.0605968000018,1501.0605968000018,1501.0605968000018,1501.0605968000018,1501.0605968000018,left,1.355491099995561,9,0,0,99,0.15999999999999998,-0.08,left,1.2607273000030546,,,,,1499.492951399996,1501.0605968000018,0.16,-0.4,0.0,0.08,-0.4,0.16,0.2,0.16,-0.4,1498.3373324999993,1498.3373324999993,1498.3373324999993,1498.3373324999993,1498.3373324999993,1498.3373324999993,1498.3373324999993,1498.3373324999993,1498.3254834599995,1.286319500009995,return,1.1236179999978049,,,,,,,,,,,,,,,,,,,,,,,,,,,,,,,,,9651N2,train_x,red_square,bottom_right,2025-09-26_15h36.49.855,HideSeek_v1,2022.2.5,59.970986032458654,
,5,4,1,4,-4,0,56,,train_dim1_1,13,30,,,,2,0,2,0,,,,,,,,,0,0,0,0,0,12,12,12,1,0,1,0,,,,,,,,,,,,,,,,,,,,,,,,,,,,,,,,,,,,,,,,,,,,,,,,,,,,,,,,,,,,,,,,30,,,,,,,,1502.4156546000013,1502.4156546000013,1502.4156546000013,1502.4156546000013,1502.4156546000013,left,0.6568153000116581,9,0,0,99,0.07999999999999997,-0.08,left,0.5715728000068339,,,,,,,,,,,,,,,,,,,,,,,,,,,,,,,,,,,,,,,,,,,,,,,,,,,,,,,,,,,,9651N2,train_x,red_square,bottom_right,2025-09-26_15h36.49.855,HideSeek_v1,2022.2.5,59.970986032458654,
,5,4,1,4,-4,0,56,,train_dim1_1,13,30,,,,2,0,2,0,,,,,,,,,0,0,0,0,0,12,12,12,2,0,2,0,,,,,,,,,,,,,,,,,,,,,,,,,,,,,,,,,,,,,,,,,,,,,,,,,,,,,,,,,,,,,,,,30,,,,,,,,1503.0779200999968,1503.0779200999968,1503.0779200999968,1503.0779200999968,1503.0779200999968,left,0.743793600006029,9,0,0,99,-2.7755575615628914e-17,-0.08,left,0.6655037000018638,,,,,,,,,,,,,,,,,,,,,,,,,,,,,,,,,,,,,,,,,,,,,,,,,,,,,,,,,,,,9651N2,train_x,red_square,bottom_right,2025-09-26_15h36.49.855,HideSeek_v1,2022.2.5,59.970986032458654,
,5,4,1,4,-4,0,56,,train_dim1_1,13,30,,,,2,0,2,0,,,,,,,,,0,0,0,0,0,12,12,12,3,0,3,0,,,,,,,,,,,,,,,,,,,,,,,,,,,,,,,,,,,,,,,,,,,,,,,,,,,,,,,,,,,,,,,,30,,,,,,,,1503.828623399997,1503.828623399997,1503.828623399997,1503.828623399997,1503.828623399997,left,0.7270433000085177,9,0,0,99,-0.08000000000000003,-0.08,left,0.6499954999890178,,,,,,,,,,,,,,,,,,,,,,,,,,,,,,,,,,,,,,,,,,,,,,,,,,,,,,,,,,,,9651N2,train_x,red_square,bottom_right,2025-09-26_15h36.49.855,HideSeek_v1,2022.2.5,59.970986032458654,
,5,4,1,4,-4,0,56,,train_dim1_1,13,30,,,,2,0,2,0,,,,,,,,,0,0,0,0,0,12,12,12,4,0,4,0,,,,,,,,,,,,,,,,,,,,,,,,,,,,,,,,,,,,,,,,,,,,,,,,,,,,,,,,,,,,,,,,30,,,,,,,,1504.5620565999998,1504.5620565999998,1504.5620565999998,1504.5620565999998,1504.5620565999998,return,0.727038500001072,10,0,0,1,-0.08000000000000003,-0.08,return,0.6511423000047216,0,-33,-0.08000000000000003,-0.08,,,,,,,,,,,,,,,,,,,,,,,,,,,,,,,,,,,,,,,,,,,,,,,,,,,,,,,,9651N2,train_x,red_square,bottom_right,2025-09-26_15h36.49.855,HideSeek_v1,2022.2.5,59.970986032458654,
,9,3,9,3,0,0,16,,train_dim1_1,14,30,,,,2,0,2,0,,,,,,,,,0,0,0,0,0,13,13,13,0,0,0,0,,,,,,,,,,,,,,,,,,,,,,,,,stimuli/alien_stimuli/16.png,,,,,,,,,,,,,,,,,,,,,,,,,,,,,stimuli/alien_stimuli/56.png,56,5,15,,,,,,,30,,,,,,,,1509.364402799998,1509.364402799998,1509.364402799998,1509.364402799998,1509.364402799998,return,2.5073396999941906,11,0,0,1,0.56,-0.16,return,2.3969261000020197,0,-33,0.56,-0.16,1507.7831046999927,1509.364402799998,-0.08,-0.08,0.0,0.32,-0.08,-0.08,0.07999999999999999,-0.08,-0.08,1506.8519505000004,1506.8519505000004,1506.8519505000004,1506.8519505000004,1506.8519505000004,1506.8519505000004,1506.8519505000004,1506.8519505000004,1506.8324293199955,1.036257800005842,return,0.8989553999999771,,,,,,,,,,,,,,,,,,,,,,,,,,,,,,,,,9651N2,train_x,red_square,bottom_right,2025-09-26_15h36.49.855,HideSeek_v1,2022.2.5,59.970986032458654,
,9,2,4,2,-5,0,66,,train_dim1_1,15,30,,,,2,0,2,0,,,,,,,,,0,0,0,0,0,14,14,14,0,0,0,0,,,,,,,,,,,,,,,,,,,,,,,,,stimuli/alien_stimuli/66.png,,,,,,,,,,,,,,,,,,,,,,,,,,,,,stimuli/alien_stimuli/16.png,16,9,16,,,,,,,30,,,,,,,,1515.883702799998,1515.883702799998,1515.883702799998,1515.883702799998,1515.883702799998,left,1.004775499997777,11,0,0,99,0.48000000000000004,-0.24,left,0.9204939000046579,,,,,1514.3219169999938,1515.883702799998,0.56,-0.16,0.0,0.0,-0.16,0.56,0.56,0.56,-0.16,1513.4146107999986,1513.4146107999986,1513.4146107999986,1513.4146107999986,1513.4146107999986,1513.4146107999986,1513.4146107999986,1513.4146107999986,1513.4046130899965,1.0194350999954622,return,0.8841453000059118,,,,,,,,,,,,,,,,,,,,,,,,,,,,,,,,,9651N2,train_x,red_square,bottom_right,2025-09-26_15h36.49.855,HideSeek_v1,2022.2.5,59.970986032458654,
,9,2,4,2,-5,0,66,,train_dim1_1,15,30,,,,2,0,2,0,,,,,,,,,0,0,0,0,0,14,14,14,1,0,1,0,,,,,,,,,,,,,,,,,,,,,,,,,,,,,,,,,,,,,,,,,,,,,,,,,,,,,,,,,,,,,,,,30,,,,,,,,1516.8876235999924,1516.8876235999924,1516.8876235999924,1516.8876235999924,1516.8876235999924,left,0.6266461000050185,11,0,0,99,0.4,-0.24,left,0.5399267000029795,,,,,,,,,,,,,,,,,,,,,,,,,,,,,,,,,,,,,,,,,,,,,,,,,,,,,,,,,,,,9651N2,train_x,red_square,bottom_right,2025-09-26_15h36.49.855,HideSeek_v1,2022.2.5,59.970986032458654,
,9,2,4,2,-5,0,66,,train_dim1_1,15,30,,,,2,0,2,0,,,,,,,,,0,0,0,0,0,14,14,14,2,0,2,0,,,,,,,,,,,,,,,,,,,,,,,,,,,,,,,,,,,,,,,,,,,,,,,,,,,,,,,,,,,,,,,,30,,,,,,,,1517.521609599993,1517.521609599993,1517.521609599993,1517.521609599993,1517.521609599993,left,0.6435303000034764,11,0,0,99,0.32,-0.24,left,0.5628224999964004,,,,,,,,,,,,,,,,,,,,,,,,,,,,,,,,,,,,,,,,,,,,,,,,,,,,,,,,,,,,9651N2,train_x,red_square,bottom_right,2025-09-26_15h36.49.855,HideSeek_v1,2022.2.5,59.970986032458654,
,9,2,4,2,-5,0,66,,train_dim1_1,15,30,,,,2,0,2,0,,,,,,,,,0,0,0,0,0,14,14,14,3,0,3,0,,,,,,,,,,,,,,,,,,,,,,,,,,,,,,,,,,,,,,,,,,,,,,,,,,,,,,,,,,,,,,,,30,,,,,,,,1518.1722747000022,1518.1722747000022,1518.1722747000022,1518.1722747000022,1518.1722747000022,left,0.576701600002707,11,0,0,99,0.24,-0.24,left,0.5035004000092158,,,,,,,,,,,,,,,,,,,,,,,,,,,,,,,,,,,,,,,,,,,,,,,,,,,,,,,,,,,,9651N2,train_x,red_square,bottom_right,2025-09-26_15h36.49.855,HideSeek_v1,2022.2.5,59.970986032458654,
,9,2,4,2,-5,0,66,,train_dim1_1,15,30,,,,2,0,2,0,,,,,,,,,0,0,0,0,0,14,14,14,4,0,4,0,,,,,,,,,,,,,,,,,,,,,,,,,,,,,,,,,,,,,,,,,,,,,,,,,,,,,,,,,,,,,,,,30,,,,,,,,1518.7560292999988,1518.7560292999988,1518.7560292999988,1518.7560292999988,1518.7560292999988,left,0.6435716999985743,11,0,0,99,0.15999999999999998,-0.24,left,0.5591941000020597,,,,,,,,,,,,,,,,,,,,,,,,,,,,,,,,,,,,,,,,,,,,,,,,,,,,,,,,,,,,9651N2,train_x,red_square,bottom_right,2025-09-26_15h36.49.855,HideSeek_v1,2022.2.5,59.970986032458654,
,9,2,4,2,-5,0,66,,train_dim1_1,15,30,,,,2,0,2,0,,,,,,,,,0,0,0,0,0,14,14,14,5,0,5,0,,,,,,,,,,,,,,,,,,,,,,,,,,,,,,,,,,,,,,,,,,,,,,,,,,,,,,,,,,,,,,,,30,,,,,,,,1519.405718599999,1519.405718599999,1519.405718599999,1519.405718599999,1519.405718599999,return,0.6270651999948313,12,0,0,1,0.15999999999999998,-0.24,return,0.5495430000009947,0,-38,0.15999999999999998,-0.24,,,,,,,,,,,,,,,,,,,,,,,,,,,,,,,,,,,,,,,,,,,,,,,,,,,,,,,,9651N2,train_x,red_square,bottom_right,2025-09-26_15h36.49.855,HideSeek_v1,2022.2.5,59.970986032458654,
,8,3,4,3,-4,0,56,,train_dim1_1,16,30,,,,2,0,2,0,,,,,,,,,0,0,0,0,0,15,15,15,0,0,0,0,,,,,,,,,,,,,,,,,,,,,,,,,stimuli/alien_stimuli/56.png,,,,,,,,,,,,,,,,,,,,,,,,,,,,,stimuli/alien_stimuli/66.png,66,9,17,,,,,,,30,,,,,,,,1524.4474860999908,1524.4474860999908,1524.4474860999908,1524.4474860999908,1524.4474860999908,left,1.1805560999928275,12,0,0,99,0.39999999999999997,-0.16,left,1.0835602000006475,,,,,1522.862268099998,1524.4474860999908,0.16,-0.24,0.0,0.4,-0.24,0.16,0.36000000000000004,0.16,-0.24,1521.5947031999967,1521.5947031999967,1521.5947031999967,1521.5947031999967,1521.5947031999967,1521.5947031999967,1521.5947031999967,1521.5947031999967,1521.5780216200044,1.3698875999980373,return,1.2363958000059938,,,,,,,,,,,,,,,,,,,,,,,,,,,,,,,,,9651N2,train_x,red_square,bottom_right,2025-09-26_15h36.49.855,HideSeek_v1,2022.2.5,59.970986032458654,
,8,3,4,3,-4,0,56,,train_dim1_1,16,30,,,,2,0,2,0,,,,,,,,,0,0,0,0,0,15,15,15,1,0,1,0,,,,,,,,,,,,,,,,,,,,,,,,,,,,,,,,,,,,,,,,,,,,,,,,,,,,,,,,,,,,,,,,30,,,,,,,,1525.613802199994,1525.613802199994,1525.613802199994,1525.613802199994,1525.613802199994,left,0.7436524999939138,12,0,0,99,0.31999999999999995,-0.16,left,0.6547860999999102,,,,,,,,,,,,,,,,,,,,,,,,,,,,,,,,,,,,,,,,,,,,,,,,,,,,,,,,,,,,9651N2,train_x,red_square,bottom_right,2025-09-26_15h36.49.855,HideSeek_v1,2022.2.5,59.970986032458654,
,8,3,4,3,-4,0,56,,train_dim1_1,16,30,,,,2,0,2,0,,,,,,,,,0,0,0,0,0,15,15,15,2,0,2,0,,,,,,,,,,,,,,,,,,,,,,,,,,,,,,,,,,,,,,,,,,,,,,,,,,,,,,,,,,,,,,,,30,,,,,,,,1526.3644072000025,1526.3644072000025,1526.3644072000025,1526.3644072000025,1526.3644072000025,left,0.6608358999947086,12,0,0,99,0.23999999999999994,-0.16,left,0.5834595000051195,,,,,,,,,,,,,,,,,,,,,,,,,,,,,,,,,,,,,,,,,,,,,,,,,,,,,,,,,,,,9651N2,train_x,red_square,bottom_right,2025-09-26_15h36.49.855,HideSeek_v1,2022.2.5,59.970986032458654,
,8,3,4,3,-4,0,56,,train_dim1_1,16,30,,,,2,0,2,0,,,,,,,,,0,0,0,0,0,15,15,15,3,0,3,0,,,,,,,,,,,,,,,,,,,,,,,,,,,,,,,,,,,,,,,,,,,,,,,,,,,,,,,,,,,,,,,,30,,,,,,,,1527.0316276999947,1527.0316276999947,1527.0316276999947,1527.0316276999947,1527.0316276999947,left,0.7097370999981649,12,0,0,99,0.15999999999999992,-0.16,left,0.6193879000056768,,,,,,,,,,,,,,,,,,,,,,,,,,,,,,,,,,,,,,,,,,,,,,,,,,,,,,,,,,,,9651N2,train_x,red_square,bottom_right,2025-09-26_15h36.49.855,HideSeek_v1,2022.2.5,59.970986032458654,
,8,3,4,3,-4,0,56,,train_dim1_1,16,30,,,,2,0,2,0,,,,,,,,,0,0,0,0,0,15,15,15,4,0,4,0,,,,,,,,,,,,,,,,,,,,,,,,,,,,,,,,,,,,,,,,,,,,,,,,,,,,,,,,,,,,,,,,30,,,,,,,,1527.7485447999934,1527.7485447999934,1527.7485447999934,1527.7485447999934,1527.7485447999934,return,0.6103784000006272,13,0,0,1,0.15999999999999992,-0.16,return,0.529356099999859,0,-42,0.15999999999999992,-0.16,,,,,,,,,,,,,,,,,,,,,,,,,,,,,,,,,,,,,,,,,,,,,,,,,,,,,,,,9651N2,train_x,red_square,bottom_right,2025-09-26_15h36.49.855,HideSeek_v1,2022.2.5,59.970986032458654,
,7,4,6,4,-1,0,26,,train_dim1_1,17,30,,,,2,0,2,0,,,,,,,,,0,0,0,0,0,16,16,16,0,0,0,0,,,,,,,,,,,,,,,,,,,,,,,,,stimuli/alien_stimuli/26.png,,,,,,,,,,,,,,,,,,,,,,,,,,,,,stimuli/alien_stimuli/56.png,56,8,18,,,,,,,30,,,,,,,,1532.9964369999943,1532.9964369999943,1532.9964369999943,1532.9964369999943,1532.9964369999943,left,1.9400275999942096,13,0,0,99,0.32,-0.08,left,1.8324445000034757,,,,,1531.419578599991,1532.9964369999943,0.16,-0.16,0.0,0.32,-0.16,0.16,0.32,0.16,-0.16,1529.9217913999892,1529.9217913999892,1529.9217913999892,1529.9217913999892,1529.9217913999892,1529.9217913999892,1529.9217913999892,1529.9217913999892,1529.901651320001,1.6035501999867847,return,1.4794653999997536,,,,,,,,,,,,,,,,,,,,,,,,,,,,,,,,,9651N2,train_x,red_square,bottom_right,2025-09-26_15h36.49.855,HideSeek_v1,2022.2.5,59.970986032458654,
,7,4,6,4,-1,0,26,,train_dim1_1,17,30,,,,2,0,2,0,,,,,,,,,0,0,0,0,0,16,16,16,1,0,1,0,,,,,,,,,,,,,,,,,,,,,,,,,,,,,,,,,,,,,,,,,,,,,,,,,,,,,,,,,,,,,,,,30,,,,,,,,1534.9249689999997,1534.9249689999997,1534.9249689999997,1534.9249689999997,1534.9249689999997,return,0.6767291999858571,14,0,0,1,0.32,-0.08,return,0.5985468000144465,0,-43,0.32,-0.08,,,,,,,,,,,,,,,,,,,,,,,,,,,,,,,,,,,,,,,,,,,,,,,,,,,,,,,,9651N2,train_x,red_square,bottom_right,2025-09-26_15h36.49.855,HideSeek_v1,2022.2.5,59.970986032458654,
,7,1,2,1,-5,0,66,,train_dim1_1,18,30,,,,2,0,2,0,,,,,,,,,0,0,0,0,0,17,17,17,0,0,0,0,,,,,,,,,,,,,,,,,,,,,,,,,stimuli/alien_stimuli/66.png,,,,,,,,,,,,,,,,,,,,,,,,,,,,,stimuli/alien_stimuli/26.png,26,7,19,,,,,,,30,,,,,,,,1539.5694487,1539.5694487,1539.5694487,1539.5694487,1539.5694487,left,1.019528300006641,14,0,0,99,0.32,-0.32,left,0.9288344999949913,,,,,1538.0082355999912,1539.5694487,0.32,-0.08,0.0,0.08,-0.08,0.32,0.36,0.32,-0.08,1537.1653308999958,1537.1653308999958,1537.1653308999958,1537.1653308999958,1537.1653308999958,1537.1653308999958,1537.1653308999958,1537.1653308999958,1537.1576850900033,0.9528940000018338,return,0.824003999994602,,,,,,,,,,,,,,,,,,,,,,,,,,,,,,,,,9651N2,train_x,red_square,bottom_right,2025-09-26_15h36.49.855,HideSeek_v1,2022.2.5,59.970986032458654,
,7,1,2,1,-5,0,66,,train_dim1_1,18,30,,,,2,0,2,0,,,,,,,,,0,0,0,0,0,17,17,17,1,0,1,0,,,,,,,,,,,,,,,,,,,,,,,,,,,,,,,,,,,,,,,,,,,,,,,,,,,,,,,,,,,,,,,,30,,,,,,,,1540.5916496999998,1540.5916496999998,1540.5916496999998,1540.5916496999998,1540.5916496999998,left,0.6926016000070376,14,0,0,99,0.24,-0.32,left,0.6142662000056589,,,,,,,,,,,,,,,,,,,,,,,,,,,,,,,,,,,,,,,,,,,,,,,,,,,,,,,,,,,,9651N2,train_x,red_square,bottom_right,2025-09-26_15h36.49.855,HideSeek_v1,2022.2.5,59.970986032458654,
,7,1,2,1,-5,0,66,,train_dim1_1,18,30,,,,2,0,2,0,,,,,,,,,0,0,0,0,0,17,17,17,2,0,2,0,,,,,,,,,,,,,,,,,,,,,,,,,,,,,,,,,,,,,,,,,,,,,,,,,,,,,,,,,,,,,,,,30,,,,,,,,1541.2903223999892,1541.2903223999892,1541.2903223999892,1541.2903223999892,1541.2903223999892,left,0.6600735999963945,14,0,0,99,0.15999999999999998,-0.32,left,0.5793439999979455,,,,,,,,,,,,,,,,,,,,,,,,,,,,,,,,,,,,,,,,,,,,,,,,,,,,,,,,,,,,9651N2,train_x,red_square,bottom_right,2025-09-26_15h36.49.855,HideSeek_v1,2022.2.5,59.970986032458654,
,7,1,2,1,-5,0,66,,train_dim1_1,18,30,,,,2,0,2,0,,,,,,,,,0,0,0,0,0,17,17,17,3,0,3,0,,,,,,,,,,,,,,,,,,,,,,,,,,,,,,,,,,,,,,,,,,,,,,,,,,,,,,,,,,,,,,,,30,,,,,,,,1541.9584151000017,1541.9584151000017,1541.9584151000017,1541.9584151000017,1541.9584151000017,left,0.8102799999905983,14,0,0,99,0.07999999999999997,-0.32,left,0.7252713000052609,,,,,,,,,,,,,,,,,,,,,,,,,,,,,,,,,,,,,,,,,,,,,,,,,,,,,,,,,,,,9651N2,train_x,red_square,bottom_right,2025-09-26_15h36.49.855,HideSeek_v1,2022.2.5,59.970986032458654,
,7,1,2,1,-5,0,66,,train_dim1_1,18,30,,,,2,0,2,0,,,,,,,,,0,0,0,0,0,17,17,17,4,0,4,0,,,,,,,,,,,,,,,,,,,,,,,,,,,,,,,,,,,,,,,,,,,,,,,,,,,,,,,,,,,,,,,,30,,,,,,,,1542.7776232999895,1542.7776232999895,1542.7776232999895,1542.7776232999895,1542.7776232999895,left,0.6253885000041919,14,0,0,99,-2.7755575615628914e-17,-0.32,left,0.5508273000014015,,,,,,,,,,,,,,,,,,,,,,,,,,,,,,,,,,,,,,,,,,,,,,,,,,,,,,,,,,,,9651N2,train_x,red_square,bottom_right,2025-09-26_15h36.49.855,HideSeek_v1,2022.2.5,59.970986032458654,
,7,1,2,1,-5,0,66,,train_dim1_1,18,30,,,,2,0,2,0,,,,,,,,,0,0,0,0,0,17,17,17,5,0,5,0,,,,,,,,,,,,,,,,,,,,,,,,,,,,,,,,,,,,,,,,,,,,,,,,,,,,,,,,,,,,,,,,30,,,,,,,,1543.409155699992,1543.409155699992,1543.409155699992,1543.409155699992,1543.409155699992,return,0.6768763000000035,15,0,0,1,-2.7755575615628914e-17,-0.32,return,0.6002378999983193,0,-48,-2.7755575615628914e-17,-0.32,,,,,,,,,,,,,,,,,,,,,,,,,,,,,,,,,,,,,,,,,,,,,,,,,,,,,,,,9651N2,train_x,red_square,bottom_right,2025-09-26_15h36.49.855,HideSeek_v1,2022.2.5,59.970986032458654,
,5,3,2,3,-3,0,46,,train_dim1_1,19,30,,,,2,0,2,0,,,,,,,,,0,0,0,0,0,18,18,18,0,0,0,0,,,,,,,,,,,,,,,,,,,,,,,,,stimuli/alien_stimuli/46.png,,,,,,,,,,,,,,,,,,,,,,,,,,,,,stimuli/alien_stimuli/66.png,66,7,20,,,,,,,30,,,,,,,,1548.1606975999894,1548.1606975999894,1548.1606975999894,1548.1606975999894,1548.1606975999894,left,1.5528201999986777,15,0,0,99,0.15999999999999998,-0.16,left,1.4427780999976676,,,,,1546.5821148999967,1548.1606975999894,0,-0.32,0.0,0.4,-0.32,0,0.2,0,-0.32,1545.6483537000022,1545.6483537000022,1545.6483537000022,1545.6483537000022,1545.6483537000022,1545.6483537000022,1545.6483537000022,1545.6483537000022,1545.6313986199937,1.0365464000060456,return,0.9154051000077743,,,,,,,,,,,,,,,,,,,,,,,,,,,,,,,,,9651N2,train_x,red_square,bottom_right,2025-09-26_15h36.49.855,HideSeek_v1,2022.2.5,59.970986032458654,
,5,3,2,3,-3,0,46,,train_dim1_1,19,30,,,,2,0,2,0,,,,,,,,,0,0,0,0,0,18,18,18,1,0,1,0,,,,,,,,,,,,,,,,,,,,,,,,,,,,,,,,,,,,,,,,,,,,,,,,,,,,,,,,,,,,,,,,30,,,,,,,,1549.6989030999976,1549.6989030999976,1549.6989030999976,1549.6989030999976,1549.6989030999976,left,0.6764380999957211,15,0,0,99,0.07999999999999997,-0.16,left,0.5921047000010731,,,,,,,,,,,,,,,,,,,,,,,,,,,,,,,,,,,,,,,,,,,,,,,,,,,,,,,,,,,,9651N2,train_x,red_square,bottom_right,2025-09-26_15h36.49.855,HideSeek_v1,2022.2.5,59.970986032458654,
,5,3,2,3,-3,0,46,,train_dim1_1,19,30,,,,2,0,2,0,,,,,,,,,0,0,0,0,0,18,18,18,2,0,2,0,,,,,,,,,,,,,,,,,,,,,,,,,,,,,,,,,,,,,,,,,,,,,,,,,,,,,,,,,,,,,,,,30,,,,,,,,1550.3854682999954,1550.3854682999954,1550.3854682999954,1550.3854682999954,1550.3854682999954,left,1.1744830999959959,15,0,0,99,-2.7755575615628914e-17,-0.16,left,1.0967658000008669,,,,,,,,,,,,,,,,,,,,,,,,,,,,,,,,,,,,,,,,,,,,,,,,,,,,,,,,,,,,9651N2,train_x,red_square,bottom_right,2025-09-26_15h36.49.855,HideSeek_v1,2022.2.5,59.970986032458654,
,5,3,2,3,-3,0,46,,train_dim1_1,19,30,,,,2,0,2,0,,,,,,,,,0,0,0,0,0,18,18,18,3,0,3,0,,,,,,,,,,,,,,,,,,,,,,,,,,,,,,,,,,,,,,,,,,,,,,,,,,,,,,,,,,,,,,,,30,,,,,,,,1551.5662932999985,1551.5662932999985,1551.5662932999985,1551.5662932999985,1551.5662932999985,return,1.4442829000036,16,0,0,1,-2.7755575615628914e-17,-0.16,return,1.357124100002693,0,-51,-2.7755575615628914e-17,-0.16,,,,,,,,,,,,,,,,,,,,,,,,,,,,,,,,,,,,,,,,,,,,,,,,,,,,,,,,9651N2,train_x,red_square,bottom_right,2025-09-26_15h36.49.855,HideSeek_v1,2022.2.5,59.970986032458654,
,5,1,5,1,0,0,16,,train_dim1_1,20,30,,,,2,0,2,0,,,,,,,,,0,0,0,0,0,19,19,19,0,0,0,0,,,,,,,,,,,,,,,,,,,,,,,,,stimuli/alien_stimuli/16.png,,,,,,,,,,,,,,,,,,,,,,,,,,,,,stimuli/alien_stimuli/46.png,46,5,21,,,,,,,30,,,,,,,,1557.1643595999922,1557.1643595999922,1557.1643595999922,1557.1643595999922,1557.1643595999922,left,3.519297999999253,16,0,0,99,0.15999999999999998,-0.32,left,3.4078460999880917,,,,,1555.5728023999982,1557.1643595999922,0,-0.16,0.0,0.24,-0.16,0,0.12,0,-0.16,1554.5750876999955,1554.5750876999955,1554.5750876999955,1554.5750876999955,1554.5750876999955,1554.5750876999955,1554.5750876999955,1554.5750876999955,1554.55533652,1.1030138000060106,return,0.9665270999976201,,,,,,,,,,,,,,,,,,,,,,,,,,,,,,,,,9651N2,train_x,red_square,bottom_right,2025-09-26_15h36.49.855,HideSeek_v1,2022.2.5,59.970986032458654,
,5,1,5,1,0,0,16,,train_dim1_1,20,30,,,,2,0,2,0,,,,,,,,,0,0,0,0,0,19,19,19,1,0,1,0,,,,,,,,,,,,,,,,,,,,,,,,,,,,,,,,,,,,,,,,,,,,,,,,,,,,,,,,,,,,,,,,30,,,,,,,,1560.6617987999925,1560.6617987999925,1560.6617987999925,1560.6617987999925,1560.6617987999925,return,1.244051900008344,16,1,0,0,0.15999999999999998,-0.32,return,1.158965900001931,0,-52,0.15999999999999998,-0.32,,,,,,,,,,,,,,,,,,,,,,,,,,,,,,,,,,,,,,,,,,,,,,,,,,,,,,,,9651N2,train_x,red_square,bottom_right,2025-09-26_15h36.49.855,HideSeek_v1,2022.2.5,59.970986032458654,
,9,2,6,2,-3,0,46,,train_dim1_1,21,30,,,,2,0,2,0,,,,,,,,,0,0,0,0,0,20,20,20,0,0,0,0,,,,,,,,,,,,,,,,,,,,,,,,,stimuli/alien_stimuli/46.png,,,,,,,,,,,,,,,,,,,,,,,,,,,,,stimuli/alien_stimuli/16.png,16,5,22,,,,,,,30,,,,,,,,1566.4051141999953,1566.4051141999953,1566.4051141999953,1566.4051141999953,1566.4051141999953,left,1.4400216999929398,16,1,0,99,0.48000000000000004,-0.24,left,1.3309078000020236,,,,,1564.8194108999887,1563.4713660999987,0.24,-0.32,0.0,0.0,-0.32,0.24,0.24,0.24,-0.32,1563.4713660999987,1563.4713660999987,1563.4713660999987,1563.4713660999987,1563.4713660999987,1563.4713660999987,1563.4713660999987,1563.4713660999987,1563.4628118900014,1.4594336000009207,return,1.3259180999884848,,,,,,,,,,,,,,,,,,,,,,,,,,,,,,,,,9651N2,train_x,red_square,bottom_right,2025-09-26_15h36.49.855,HideSeek_v1,2022.2.5,59.970986032458654,
,9,2,6,2,-3,0,46,,train_dim1_1,21,30,,,,2,0,2,0,,,,,,,,,0,0,0,0,0,20,20,20,1,0,1,0,,,,,,,,,,,,,,,,,,,,,,,,,,,,,,,,,,,,,,,,,,,,,,,,,,,,,,,,,,,,,,,,30,,,,,,,,1567.8293742999958,1567.8293742999958,1567.8293742999958,1567.8293742999958,1567.8293742999958,left,0.6766225000028498,16,1,0,99,0.4,-0.24,left,0.5997133999917423,,,,,,,,,,,,,,,,,,,,,,,,,,,,,,,,,,,,,,,,,,,,,,,,,,,,,,,,,,,,9651N2,train_x,red_square,bottom_right,2025-09-26_15h36.49.855,HideSeek_v1,2022.2.5,59.970986032458654,
,9,2,6,2,-3,0,46,,train_dim1_1,21,30,,,,2,0,2,0,,,,,,,,,0,0,0,0,0,20,20,20,2,0,2,0,,,,,,,,,,,,,,,,,,,,,,,,,,,,,,,,,,,,,,,,,,,,,,,,,,,,,,,,,,,,,,,,30,,,,,,,,1568.5142060999933,1568.5142060999933,1568.5142060999933,1568.5142060999933,1568.5142060999933,left,0.8272632000007434,16,1,0,99,0.32,-0.24,left,0.7499244999926304,,,,,,,,,,,,,,,,,,,,,,,,,,,,,,,,,,,,,,,,,,,,,,,,,,,,,,,,,,,,9651N2,train_x,red_square,bottom_right,2025-09-26_15h36.49.855,HideSeek_v1,2022.2.5,59.970986032458654,
,9,2,6,2,-3,0,46,,train_dim1_1,21,30,,,,2,0,2,0,,,,,,,,,0,0,0,0,0,20,20,20,3,0,3,0,,,,,,,,,,,,,,,,,,,,,,,,,,,,,,,,,,,,,,,,,,,,,,,,,,,,,,,,,,,,,,,,30,,,,,,,,1569.3554914999986,1569.3554914999986,1569.3554914999986,1569.3554914999986,1569.3554914999986,return,1.1893158000020776,17,0,0,1,0.32,-0.24,return,1.1096106999902986,0,-55,0.32,-0.24,,,,,,,,,,,,,,,,,,,,,,,,,,,,,,,,,,,,,,,,,,,,,,,,,,,,,,,,9651N2,train_x,red_square,bottom_right,2025-09-26_15h36.49.855,HideSeek_v1,2022.2.5,59.970986032458654,
,6,0,5,0,-1,0,26,,train_dim1_1,22,30,,,,2,0,2,0,,,,,,,,,0,0,0,0,0,21,21,21,0,0,0,0,,,,,,,,,,,,,,,,,,,,,,,,,stimuli/alien_stimuli/26.png,,,,,,,,,,,,,,,,,,,,,,,,,,,,,stimuli/alien_stimuli/46.png,46,9,23,,,,,,,30,,,,,,,,1575.1014555000002,1575.1014555000002,1575.1014555000002,1575.1014555000002,1575.1014555000002,left,1.6722515000001295,17,0,0,99,0.24,-0.4,left,1.5644938000041293,,,,,1573.521227099991,1575.1014555000002,0.32,-0.24,0.0,0.24,-0.24,0.32,0.44000000000000006,0.32,-0.24,1572.1042176999908,1572.1042176999908,1572.1042176999908,1572.1042176999908,1572.1042176999908,1572.1042176999908,1572.1042176999908,1572.1042176999908,1572.0866031199955,1.5199141000048257,return,1.393665100011276,,,,,,,,,,,,,,,,,,,,,,,,,,,,,,,,,9651N2,train_x,red_square,bottom_right,2025-09-26_15h36.49.855,HideSeek_v1,2022.2.5,59.970986032458654,
,6,0,5,0,-1,0,26,,train_dim1_1,22,30,,,,2,0,2,0,,,,,,,,,0,0,0,0,0,21,21,21,1,0,1,0,,,,,,,,,,,,,,,,,,,,,,,,,,,,,,,,,,,,,,,,,,,,,,,,,,,,,,,,,,,,,,,,30,,,,,,,,1576.7579832999909,1576.7579832999909,1576.7579832999909,1576.7579832999909,1576.7579832999909,return,3.495611899998039,18,0,0,1,0.24,-0.4,return,3.411165900004562,0,-56,0.24,-0.4,,,,,,,,,,,,,,,,,,,,,,,,,,,,,,,,,,,,,,,,,,,,,,,,,,,,,,,,9651N2,train_x,red_square,bottom_right,2025-09-26_15h36.49.855,HideSeek_v1,2022.2.5,59.970986032458654,
,7,1,2,1,-5,0,66,,train_dim1_1,23,30,,,,2,0,2,0,,,,,,,,,0,0,0,0,0,22,22,22,0,0,0,0,,,,,,,,,,,,,,,,,,,,,,,,,stimuli/alien_stimuli/66.png,,,,,,,,,,,,,,,,,,,,,,,,,,,,,stimuli/alien_stimuli/26.png,26,6,24,,,,,,,30,,,,,,,,1584.285917599991,1584.285917599991,1584.285917599991,1584.285917599991,1584.285917599991,left,1.1731910000089556,18,0,0,99,0.32,-0.32,left,1.0691482999973232,,,,,1582.7121740000002,1584.285917599991,0.24,-0.4,0.0,0.08,-0.4,0.24,0.28,0.24,-0.4,1581.8205759999983,1581.8205759999983,1581.8205759999983,1581.8205759999983,1581.8205759999983,1581.8205759999983,1581.8205759999983,1581.8205759999983,1581.8115404900032,1.0031154000025708,return,0.8681218999990961,,,,,,,,,,,,,,,,,,,,,,,,,,,,,,,,,9651N2,train_x,red_square,bottom_right,2025-09-26_15h36.49.855,HideSeek_v1,2022.2.5,59.970986032458654,
,7,1,2,1,-5,0,66,,train_dim1_1,23,30,,,,2,0,2,0,,,,,,,,,0,0,0,0,0,22,22,22,1,0,1,0,,,,,,,,,,,,,,,,,,,,,,,,,,,,,,,,,,,,,,,,,,,,,,,,,,,,,,,,,,,,,,,,30,,,,,,,,1585.4451353999902,1585.4451353999902,1585.4451353999902,1585.4451353999902,1585.4451353999902,left,0.5925588999962201,18,0,0,99,0.24,-0.32,left,0.5042048000032082,,,,,,,,,,,,,,,,,,,,,,,,,,,,,,,,,,,,,,,,,,,,,,,,,,,,,,,,,,,,9651N2,train_x,red_square,bottom_right,2025-09-26_15h36.49.855,HideSeek_v1,2022.2.5,59.970986032458654,
,7,1,2,1,-5,0,66,,train_dim1_1,23,30,,,,2,0,2,0,,,,,,,,,0,0,0,0,0,22,22,22,2,0,2,0,,,,,,,,,,,,,,,,,,,,,,,,,,,,,,,,,,,,,,,,,,,,,,,,,,,,,,,,,,,,,,,,30,,,,,,,,1586.0446535999945,1586.0446535999945,1586.0446535999945,1586.0446535999945,1586.0446535999945,left,0.6767950999928871,18,0,0,99,0.15999999999999998,-0.32,left,0.5990736999956425,,,,,,,,,,,,,,,,,,,,,,,,,,,,,,,,,,,,,,,,,,,,,,,,,,,,,,,,,,,,9651N2,train_x,red_square,bottom_right,2025-09-26_15h36.49.855,HideSeek_v1,2022.2.5,59.970986032458654,
,7,1,2,1,-5,0,66,,train_dim1_1,23,30,,,,2,0,2,0,,,,,,,,,0,0,0,0,0,22,22,22,3,0,3,0,,,,,,,,,,,,,,,,,,,,,,,,,,,,,,,,,,,,,,,,,,,,,,,,,,,,,,,,,,,,,,,,30,,,,,,,,1586.7284328999958,1586.7284328999958,1586.7284328999958,1586.7284328999958,1586.7284328999958,left,0.7105613000021549,18,0,0,99,0.07999999999999997,-0.32,left,0.629125399995246,,,,,,,,,,,,,,,,,,,,,,,,,,,,,,,,,,,,,,,,,,,,,,,,,,,,,,,,,,,,9651N2,train_x,red_square,bottom_right,2025-09-26_15h36.49.855,HideSeek_v1,2022.2.5,59.970986032458654,
,7,1,2,1,-5,0,66,,train_dim1_1,23,30,,,,2,0,2,0,,,,,,,,,0,0,0,0,0,22,22,22,4,0,4,0,,,,,,,,,,,,,,,,,,,,,,,,,,,,,,,,,,,,,,,,,,,,,,,,,,,,,,,,,,,,,,,,30,,,,,,,,1587.4541903999925,1587.4541903999925,1587.4541903999925,1587.4541903999925,1587.4541903999925,left,0.620709299997543,18,0,0,99,-2.7755575615628914e-17,-0.32,left,0.534803100003046,,,,,,,,,,,,,,,,,,,,,,,,,,,,,,,,,,,,,,,,,,,,,,,,,,,,,,,,,,,,9651N2,train_x,red_square,bottom_right,2025-09-26_15h36.49.855,HideSeek_v1,2022.2.5,59.970986032458654,
,7,1,2,1,-5,0,66,,train_dim1_1,23,30,,,,2,0,2,0,,,,,,,,,0,0,0,0,0,22,22,22,5,0,5,0,,,,,,,,,,,,,,,,,,,,,,,,,,,,,,,,,,,,,,,,,,,,,,,,,,,,,,,,,,,,,,,,30,,,,,,,,1588.0809729999892,1588.0809729999892,1588.0809729999892,1588.0809729999892,1588.0809729999892,return,0.8090058000088902,19,0,0,1,-2.7755575615628914e-17,-0.32,return,0.7343517000117572,0,-61,-2.7755575615628914e-17,-0.32,,,,,,,,,,,,,,,,,,,,,,,,,,,,,,,,,,,,,,,,,,,,,,,,,,,,,,,,9651N2,train_x,red_square,bottom_right,2025-09-26_15h36.49.855,HideSeek_v1,2022.2.5,59.970986032458654,
,9,4,5,4,-4,0,56,,train_dim1_1,24,30,,,,2,0,2,0,,,,,,,,,0,0,0,0,0,23,23,23,0,0,0,0,,,,,,,,,,,,,,,,,,,,,,,,,stimuli/alien_stimuli/56.png,,,,,,,,,,,,,,,,,,,,,,,,,,,,,stimuli/alien_stimuli/66.png,66,7,25,,,,,,,30,,,,,,,,1593.045190799996,1593.045190799996,1593.045190799996,1593.045190799996,1593.045190799996,left,1.5403438000066672,19,0,0,99,0.48000000000000004,-0.08,left,1.4450311999971746,,,,,1591.486133600003,1593.045190799996,0,-0.32,0.0,0.4,-0.32,0,0.2,0,-0.32,1590.4522073999979,1590.4522073999979,1590.4522073999979,1590.4522073999979,1590.4522073999979,1590.4522073999979,1590.4522073999979,1590.4522073999979,1590.435313620005,1.1362556999956723,return,1.004553400009172,,,,,,,,,,,,,,,,,,,,,,,,,,,,,,,,,9651N2,train_x,red_square,bottom_right,2025-09-26_15h36.49.855,HideSeek_v1,2022.2.5,59.970986032458654,
,9,4,5,4,-4,0,56,,train_dim1_1,24,30,,,,2,0,2,0,,,,,,,,,0,0,0,0,0,23,23,23,1,0,1,0,,,,,,,,,,,,,,,,,,,,,,,,,,,,,,,,,,,,,,,,,,,,,,,,,,,,,,,,,,,,,,,,30,,,,,,,,1594.588183499989,1594.588183499989,1594.588183499989,1594.588183499989,1594.588183499989,left,0.7267318999947747,19,0,0,99,0.4,-0.08,left,0.636078900002758,,,,,,,,,,,,,,,,,,,,,,,,,,,,,,,,,,,,,,,,,,,,,,,,,,,,,,,,,,,,9651N2,train_x,red_square,bottom_right,2025-09-26_15h36.49.855,HideSeek_v1,2022.2.5,59.970986032458654,
,9,4,5,4,-4,0,56,,train_dim1_1,24,30,,,,2,0,2,0,,,,,,,,,0,0,0,0,0,23,23,23,2,0,2,0,,,,,,,,,,,,,,,,,,,,,,,,,,,,,,,,,,,,,,,,,,,,,,,,,,,,,,,,,,,,,,,,30,,,,,,,,1595.3212780999893,1595.3212780999893,1595.3212780999893,1595.3212780999893,1595.3212780999893,left,0.6602234000019962,19,0,0,99,0.32,-0.08,left,0.5781718999933219,,,,,,,,,,,,,,,,,,,,,,,,,,,,,,,,,,,,,,,,,,,,,,,,,,,,,,,,,,,,9651N2,train_x,red_square,bottom_right,2025-09-26_15h36.49.855,HideSeek_v1,2022.2.5,59.970986032458654,
,9,4,5,4,-4,0,56,,train_dim1_1,24,30,,,,2,0,2,0,,,,,,,,,0,0,0,0,0,23,23,23,3,0,3,0,,,,,,,,,,,,,,,,,,,,,,,,,,,,,,,,,,,,,,,,,,,,,,,,,,,,,,,,,,,,,,,,30,,,,,,,,1595.9889338999928,1595.9889338999928,1595.9889338999928,1595.9889338999928,1595.9889338999928,left,0.693733499996597,19,0,0,99,0.24,-0.08,left,0.6087691000138875,,,,,,,,,,,,,,,,,,,,,,,,,,,,,,,,,,,,,,,,,,,,,,,,,,,,,,,,,,,,9651N2,train_x,red_square,bottom_right,2025-09-26_15h36.49.855,HideSeek_v1,2022.2.5,59.970986032458654,
,9,4,5,4,-4,0,56,,train_dim1_1,24,30,,,,2,0,2,0,,,,,,,,,0,0,0,0,0,23,23,23,4,0,4,0,,,,,,,,,,,,,,,,,,,,,,,,,,,,,,,,,,,,,,,,,,,,,,,,,,,,,,,,,,,,,,,,30,,,,,,,,1596.6912912999978,1596.6912912999978,1596.6912912999978,1596.6912912999978,1596.6912912999978,return,0.6913532000035048,20,0,0,1,0.24,-0.08,return,0.6153741000016453,0,-65,0.24,-0.08,,,,,,,,,,,,,,,,,,,,,,,,,,,,,,,,,,,,,,,,,,,,,,,,,,,,,,,,9651N2,train_x,red_square,bottom_right,2025-09-26_15h36.49.855,HideSeek_v1,2022.2.5,59.970986032458654,
,8,0,8,0,0,0,16,,train_dim1_1,25,30,,,,2,0,2,0,,,,,,,,,0,0,0,0,0,24,24,24,0,0,0,0,,,,,,,,,,,,,,,,,,,,,,,,,stimuli/alien_stimuli/16.png,,,,,,,,,,,,,,,,,,,,,,,,,,,,,stimuli/alien_stimuli/56.png,56,9,26,,,,,,,30,,,,,,,,1601.7447699999902,1601.7447699999902,1601.7447699999902,1601.7447699999902,1601.7447699999902,return,1.6376415999984602,21,0,0,1,0.48,-0.4,return,1.5194460000057006,0,-65,0.48,-0.4,1600.1598260000028,1601.7447699999902,0.24,-0.08,0.0,0.32,-0.08,0.24,0.4,0.24,-0.08,1598.9495836999995,1598.9495836999995,1598.9495836999995,1598.9495836999995,1598.9495836999995,1598.9495836999995,1598.9495836999995,1598.9495836999995,1598.9422733900005,1.3200268000073265,return,1.193574200005969,,,,,,,,,,,,,,,,,,,,,,,,,,,,,,,,,9651N2,train_x,red_square,bottom_right,2025-09-26_15h36.49.855,HideSeek_v1,2022.2.5,59.970986032458654,
,6,1,1,1,-5,0,66,,train_dim1_1,26,30,,,,2,0,2,0,,,,,,,,,0,0,0,0,0,25,25,25,0,0,0,0,,,,,,,,,,,,,,,,,,,,,,,,,stimuli/alien_stimuli/66.png,,,,,,,,,,,,,,,,,,,,,,,,,,,,,stimuli/alien_stimuli/16.png,16,8,27,,,,,,,30,,,,,,,,1607.3933523000014,1607.3933523000014,1607.3933523000014,1607.3933523000014,1607.3933523000014,left,1.188544999997248,21,0,0,99,0.24,-0.32,left,1.092911900006584,,,,,1605.8312589999987,1607.3933523000014,0.48,-0.4,0.0,0.0,-0.4,0.48,0.48,0.48,-0.4,1604.9230574999965,1604.9230574999965,1604.9230574999965,1604.9230574999965,1604.9230574999965,1604.9230574999965,1604.9230574999965,1604.9230574999965,1604.913954389996,1.019569500000216,return,0.8795818000071449,,,,,,,,,,,,,,,,,,,,,,,,,,,,,,,,,9651N2,train_x,red_square,bottom_right,2025-09-26_15h36.49.855,HideSeek_v1,2022.2.5,59.970986032458654,
,6,1,1,1,-5,0,66,,train_dim1_1,26,30,,,,2,0,2,0,,,,,,,,,0,0,0,0,0,25,25,25,1,0,1,0,,,,,,,,,,,,,,,,,,,,,,,,,,,,,,,,,,,,,,,,,,,,,,,,,,,,,,,,,,,,,,,,30,,,,,,,,1608.58022969999,1608.58022969999,1608.58022969999,1608.58022969999,1608.58022969999,left,0.6095284000039101,21,0,0,99,0.15999999999999998,-0.32,left,0.5283755999989808,,,,,,,,,,,,,,,,,,,,,,,,,,,,,,,,,,,,,,,,,,,,,,,,,,,,,,,,,,,,9651N2,train_x,red_square,bottom_right,2025-09-26_15h36.49.855,HideSeek_v1,2022.2.5,59.970986032458654,
,6,1,1,1,-5,0,66,,train_dim1_1,26,30,,,,2,0,2,0,,,,,,,,,0,0,0,0,0,25,25,25,2,0,2,0,,,,,,,,,,,,,,,,,,,,,,,,,,,,,,,,,,,,,,,,,,,,,,,,,,,,,,,,,,,,,,,,30,,,,,,,,1609.1994283999957,1609.1994283999957,1609.1994283999957,1609.1994283999957,1609.1994283999957,left,0.6914861999975983,21,0,0,99,0.07999999999999997,-0.32,left,0.6035248999978648,,,,,,,,,,,,,,,,,,,,,,,,,,,,,,,,,,,,,,,,,,,,,,,,,,,,,,,,,,,,9651N2,train_x,red_square,bottom_right,2025-09-26_15h36.49.855,HideSeek_v1,2022.2.5,59.970986032458654,
,6,1,1,1,-5,0,66,,train_dim1_1,26,30,,,,2,0,2,0,,,,,,,,,0,0,0,0,0,25,25,25,3,0,3,0,,,,,,,,,,,,,,,,,,,,,,,,,,,,,,,,,,,,,,,,,,,,,,,,,,,,,,,,,,,,,,,,30,,,,,,,,1609.89781509999,1609.89781509999,1609.89781509999,1609.89781509999,1609.89781509999,left,0.7102805000031367,21,0,0,99,-2.7755575615628914e-17,-0.32,left,0.6373522000067169,,,,,,,,,,,,,,,,,,,,,,,,,,,,,,,,,,,,,,,,,,,,,,,,,,,,,,,,,,,,9651N2,train_x,red_square,bottom_right,2025-09-26_15h36.49.855,HideSeek_v1,2022.2.5,59.970986032458654,
,6,1,1,1,-5,0,66,,train_dim1_1,26,30,,,,2,0,2,0,,,,,,,,,0,0,0,0,0,25,25,25,4,0,4,0,,,,,,,,,,,,,,,,,,,,,,,,,,,,,,,,,,,,,,,,,,,,,,,,,,,,,,,,,,,,,,,,30,,,,,,,,1610.6151459999965,1610.6151459999965,1610.6151459999965,1610.6151459999965,1610.6151459999965,left,0.8773111000045901,21,0,0,99,-0.08000000000000003,-0.32,left,0.790953100004117,,,,,,,,,,,,,,,,,,,,,,,,,,,,,,,,,,,,,,,,,,,,,,,,,,,,,,,,,,,,9651N2,train_x,red_square,bottom_right,2025-09-26_15h36.49.855,HideSeek_v1,2022.2.5,59.970986032458654,
,6,1,1,1,-5,0,66,,train_dim1_1,26,30,,,,2,0,2,0,,,,,,,,,0,0,0,0,0,25,25,25,5,0,5,0,,,,,,,,,,,,,,,,,,,,,,,,,,,,,,,,,,,,,,,,,,,,,,,,,,,,,,,,,,,,,,,,30,,,,,,,,1611.498928999994,1611.498928999994,1611.498928999994,1611.498928999994,1611.498928999994,return,0.5768488999892725,22,0,0,1,-0.08000000000000003,-0.32,return,0.5038765000062995,0,-70,-0.08000000000000003,-0.32,,,,,,,,,,,,,,,,,,,,,,,,,,,,,,,,,,,,,,,,,,,,,,,,,,,,,,,,9651N2,train_x,red_square,bottom_right,2025-09-26_15h36.49.855,HideSeek_v1,2022.2.5,59.970986032458654,
,5,1,2,1,-3,0,46,,train_dim1_1,27,30,,,,2,0,2,0,,,,,,,,,0,0,0,0,0,26,26,26,0,0,0,0,,,,,,,,,,,,,,,,,,,,,,,,,stimuli/alien_stimuli/46.png,,,,,,,,,,,,,,,,,,,,,,,,,,,,,stimuli/alien_stimuli/66.png,66,6,28,,,,,,,30,,,,,,,,1616.4274333999929,1616.4274333999929,1616.4274333999929,1616.4274333999929,1616.4274333999929,left,2.073614399996586,22,0,0,99,0.15999999999999998,-0.32,left,1.9746194000035757,,,,,1614.8555546999996,1616.4274333999929,-0.08,-0.32,0.0,0.4,-0.32,-0.08,0.12,-0.08,-0.32,1613.6394509999955,1613.6394509999955,1613.6394509999955,1613.6394509999955,1613.6394509999955,1613.6394509999955,1613.6394509999955,1613.6394509999955,1613.6211351200006,1.3198971999954665,return,1.1913725000049453,,,,,,,,,,,,,,,,,,,,,,,,,,,,,,,,,9651N2,train_x,red_square,bottom_right,2025-09-26_15h36.49.855,HideSeek_v1,2022.2.5,59.970986032458654,
,5,1,2,1,-3,0,46,,train_dim1_1,27,30,,,,2,0,2,0,,,,,,,,,0,0,0,0,0,26,26,26,1,0,1,0,,,,,,,,,,,,,,,,,,,,,,,,,,,,,,,,,,,,,,,,,,,,,,,,,,,,,,,,,,,,,,,,30,,,,,,,,1618.4905369999906,1618.4905369999906,1618.4905369999906,1618.4905369999906,1618.4905369999906,left,0.70954320000601,22,0,0,99,0.07999999999999997,-0.32,left,0.6365312999987509,,,,,,,,,,,,,,,,,,,,,,,,,,,,,,,,,,,,,,,,,,,,,,,,,,,,,,,,,,,,9651N2,train_x,red_square,bottom_right,2025-09-26_15h36.49.855,HideSeek_v1,2022.2.5,59.970986032458654,
,5,1,2,1,-3,0,46,,train_dim1_1,27,30,,,,2,0,2,0,,,,,,,,,0,0,0,0,0,26,26,26,2,0,2,0,,,,,,,,,,,,,,,,,,,,,,,,,,,,,,,,,,,,,,,,,,,,,,,,,,,,,,,,,,,,,,,,30,,,,,,,,1619.2082450000016,1619.2082450000016,1619.2082450000016,1619.2082450000016,1619.2082450000016,left,2.6099029000033624,22,0,0,99,-2.7755575615628914e-17,-0.32,left,2.535517099997378,,,,,,,,,,,,,,,,,,,,,,,,,,,,,,,,,,,,,,,,,,,,,,,,,,,,,,,,,,,,9651N2,train_x,red_square,bottom_right,2025-09-26_15h36.49.855,HideSeek_v1,2022.2.5,59.970986032458654,
,5,1,2,1,-3,0,46,,train_dim1_1,27,30,,,,2,0,2,0,,,,,,,,,0,0,0,0,0,26,26,26,3,0,3,0,,,,,,,,,,,,,,,,,,,,,,,,,,,,,,,,,,,,,,,,,,,,,,,,,,,,,,,,,,,,,,,,30,,,,,,,,1621.8247429999901,1621.8247429999901,1621.8247429999901,1621.8247429999901,1621.8247429999901,return,0.7601963999914005,23,0,0,1,-2.7755575615628914e-17,-0.32,return,0.6750428000086686,0,-73,-2.7755575615628914e-17,-0.32,,,,,,,,,,,,,,,,,,,,,,,,,,,,,,,,,,,,,,,,,,,,,,,,,,,,,,,,9651N2,train_x,red_square,bottom_right,2025-09-26_15h36.49.855,HideSeek_v1,2022.2.5,59.970986032458654,
,8,1,7,1,-1,0,26,,train_dim1_1,28,30,,,,2,0,2,0,,,,,,,,,0,0,0,0,0,27,27,27,0,0,0,0,,,,,,,,,,,,,,,,,,,,,,,,,stimuli/alien_stimuli/26.png,,,,,,,,,,,,,,,,,,,,,,,,,,,,,stimuli/alien_stimuli/46.png,46,5,29,,,,,,,30,,,,,,,,1627.5845272000006,1627.5845272000006,1627.5845272000006,1627.5845272000006,1627.5845272000006,left,1.536297900005593,23,0,0,99,0.39999999999999997,-0.32,left,1.4284312000090722,,,,,1625.9982267000014,1627.5845272000006,0,-0.32,0.0,0.24,-0.32,0,0.12,0,-0.32,1624.1631322999892,1624.1631322999892,1624.1631322999892,1624.1631322999892,1624.1631322999892,1624.1631322999892,1624.1631322999892,1624.1631322999892,1624.146437090008,1.954894599999534,return,1.8183099000016227,,,,,,,,,,,,,,,,,,,,,,,,,,,,,,,,,9651N2,train_x,red_square,bottom_right,2025-09-26_15h36.49.855,HideSeek_v1,2022.2.5,59.970986032458654,
,8,1,7,1,-1,0,26,,train_dim1_1,28,30,,,,2,0,2,0,,,,,,,,,0,0,0,0,0,27,27,27,1,0,1,0,,,,,,,,,,,,,,,,,,,,,,,,,,,,,,,,,,,,,,,,,,,,,,,,,,,,,,,,,,,,,,,,30,,,,,,,,1629.1024115999899,1629.1024115999899,1629.1024115999899,1629.1024115999899,1629.1024115999899,return,0.9423430000024382,24,0,0,1,0.39999999999999997,-0.32,return,0.8609863000019686,0,-74,0.39999999999999997,-0.32,,,,,,,,,,,,,,,,,,,,,,,,,,,,,,,,,,,,,,,,,,,,,,,,,,,,,,,,9651N2,train_x,red_square,bottom_right,2025-09-26_15h36.49.855,HideSeek_v1,2022.2.5,59.970986032458654,
,9,0,5,0,-4,0,56,,train_dim1_1,29,30,,,,2,0,2,0,,,,,,,,,0,0,0,0,0,28,28,28,0,0,0,0,,,,,,,,,,,,,,,,,,,,,,,,,stimuli/alien_stimuli/56.png,,,,,,,,,,,,,,,,,,,,,,,,,,,,,stimuli/alien_stimuli/26.png,26,8,30,,,,,,,30,,,,,,,,1633.9979023999913,1633.9979023999913,1633.9979023999913,1633.9979023999913,1633.9979023999913,left,1.122294899992994,24,0,0,99,0.48000000000000004,-0.4,left,1.0265598999976646,,,,,1632.4366911999969,1633.9979023999913,0.4,-0.32,0.0,0.08,-0.32,0.4,0.44,0.4,-0.32,1631.6104543999973,1631.6104543999973,1631.6104543999973,1631.6104543999973,1631.6104543999973,1631.6104543999973,1631.6104543999973,1631.6104543999973,1631.6026614900052,0.9361327000078745,return,0.7988860000041313,,,,,,,,,,,,,,,,,,,,,,,,,,,,,,,,,9651N2,train_x,red_square,bottom_right,2025-09-26_15h36.49.855,HideSeek_v1,2022.2.5,59.970986032458654,
,9,0,5,0,-4,0,56,,train_dim1_1,29,30,,,,2,0,2,0,,,,,,,,,0,0,0,0,0,28,28,28,1,0,1,0,,,,,,,,,,,,,,,,,,,,,,,,,,,,,,,,,,,,,,,,,,,,,,,,,,,,,,,,,,,,,,,,30,,,,,,,,1635.1227739000024,1635.1227739000024,1635.1227739000024,1635.1227739000024,1635.1227739000024,left,0.7424580000079004,24,0,0,99,0.4,-0.4,left,0.6628524999978254,,,,,,,,,,,,,,,,,,,,,,,,,,,,,,,,,,,,,,,,,,,,,,,,,,,,,,,,,,,,9651N2,train_x,red_square,bottom_right,2025-09-26_15h36.49.855,HideSeek_v1,2022.2.5,59.970986032458654,
,9,0,5,0,-4,0,56,,train_dim1_1,29,30,,,,2,0,2,0,,,,,,,,,0,0,0,0,0,28,28,28,2,0,2,0,,,,,,,,,,,,,,,,,,,,,,,,,,,,,,,,,,,,,,,,,,,,,,,,,,,,,,,,,,,,,,,,30,,,,,,,,1635.872715599995,1635.872715599995,1635.872715599995,1635.872715599995,1635.872715599995,left,0.7095091000082903,24,0,0,99,0.32,-0.4,left,0.618663800007198,,,,,,,,,,,,,,,,,,,,,,,,,,,,,,,,,,,,,,,,,,,,,,,,,,,,,,,,,,,,9651N2,train_x,red_square,bottom_right,2025-09-26_15h36.49.855,HideSeek_v1,2022.2.5,59.970986032458654,
,9,0,5,0,-4,0,56,,train_dim1_1,29,30,,,,2,0,2,0,,,,,,,,,0,0,0,0,0,28,28,28,3,0,3,0,,,,,,,,,,,,,,,,,,,,,,,,,,,,,,,,,,,,,,,,,,,,,,,,,,,,,,,,,,,,,,,,30,,,,,,,,1636.5886593000032,1636.5886593000032,1636.5886593000032,1636.5886593000032,1636.5886593000032,return,1.1274284000101034,24,1,0,0,0.32,-0.4,return,1.0453563000046415,0,-77,0.32,-0.4,,,,,,,,,,,,,,,,,,,,,,,,,,,,,,,,,,,,,,,,,,,,,,,,,,,,,,,,9651N2,train_x,red_square,bottom_right,2025-09-26_15h36.49.855,HideSeek_v1,2022.2.5,59.970986032458654,
,7,2,7,2,0,0,16,,train_dim1_1,30,30,,,,2,0,2,0,,,,,,,,,0,0,0,0,0,29,29,29,0,0,0,0,,,,,,,,,,,,,,,,,,,,,,,,,stimuli/alien_stimuli/16.png,,,,,,,,,,,,,,,,,,,,,,,,,,,,,stimuli/alien_stimuli/56.png,56,9,31,,,,,,,30,,,,,,,,1642.4735938999947,1642.4735938999947,1642.4735938999947,1642.4735938999947,1642.4735938999947,return,1.3529711000010138,25,0,0,1,0.4,-0.24,return,1.251974800004973,0,-77,0.4,-0.24,1640.8936490999913,1642.4735938999947,0.24,-0.4,0.0,0.32,-0.4,0.24,0.4,0.24,-0.4,1639.2783981999964,1639.2783981999964,1639.2783981999964,1639.2783981999964,1639.2783981999964,1639.2783981999964,1639.2783981999964,1639.2783981999964,1639.2589527200005,1.7203625999973156,return,1.5910402000008617,,,,,,,,,,,,,,,,,,,,,,,,,,,,,,,,,9651N2,train_x,red_square,bottom_right,2025-09-26_15h36.49.855,HideSeek_v1,2022.2.5,59.970986032458654,
,,,,,,,,,,,30,,,,2,0,2,0,,,,,,,,,,,,,,,,,,,,,,,,,,,,,,,,,,,,,,,,,,,,,,,,,,,,,,,,,,,,,,,,,,,,,,,,,,stimuli/alien_stimuli/16.png,16,7,32,21,0.7,1.0416666666666667,1,1,1,30,0,conditions/schedules/train_x_first/red_square_00/bottom_right/inputTrain_2.1.xlsx,99,1,2,1,0,,,,,,,,,,,1,,,,,,,,,1646.8820432999928,1648.4270868000021,0.4,-0.24,0.0,0.0,-0.24,0.4,0.4,0.4,-0.24,1645.371724800003,1645.371724800003,1645.371724800003,1645.371724800003,1645.371724800003,1645.371724800003,1645.371724800003,1645.371724800003,1645.3643211900066,1.6199078999925405,return,1.4870416000048863,0,0.9,0,1,25,,,,,,,,,,,,,,,,,,,,,,,,,,,,9651N2,train_x,red_square,bottom_right,2025-09-26_15h36.49.855,HideSeek_v1,2022.2.5,59.970986032458654,
,,,,,,,,,,,,,,,3,0,3,0,0,0,0,0,,,,,,,,,,,,,,,,,,,,,,,,,,,,,,,conditions/schedules/train_x_first/red_square_00/bottom_right/instructions/Slide17.png,conditions/schedules/train_x_first/red_square_00/bottom_right/instructions/Audio17.wav,1648.4270868000021,1648.4167435099937,17,"[6.880906499995035, 18.56394839999848, 16.872843500008457, 19.5876741999964, 4.5800490000110585, 5.654586200005724, 6.120244499994442, 12.151866699990933, 6.418876499999897, 7.684282799993525, 10.099159099991084, 13.056667400000151, 16.869519700005185, 13.424545800007763, 30.62917610000295, 21.5730179999955, 33.414898100003484]","[0.0002077999961329624, 0.0002651000104378909, 0.014805999991949648, 0.013989700004458427, 0.05001010000705719, 0.014207599990186282, 0.03738889998930972, 0.00022820000594947487, 0.013768899996648543, 0.04644759999064263, 0.0792652999953134, 13.056674199993722, 0.01538359999540262, 13.424552700002096, 30.629183900004136, 21.57302450000134, 33.41490600000543]",0,,,,,,,,,,,,,,,,,,,,,,,,,,,,,,,,,,,,,,,,,,,,,,,,,,,,,,,,,,,,,,,,,,,,,,,,,,,,,,,,,,,,,,,,,,,,,,,,,,,,,,,,,,,,,,,,,,,,,,,,,,,,9651N2,train_x,red_square,bottom_right,2025-09-26_15h36.49.855,HideSeek_v1,2022.2.5,59.970986032458654,
,,,,,,,,,,,,,,,3,0,3,0,1,0,1,0,,,,,,,,,,,,,,,,,,,,,,,,,,,,,,,conditions/schedules/train_x_first/red_square_00/bottom_right/instructions/Slide18.png,conditions/schedules/train_x_first/red_square_00/bottom_right/instructions/Audio18.wav,1681.9036003999936,1681.8943945800013,18,"[6.880906499995035, 18.56394839999848, 16.872843500008457, 19.5876741999964, 4.5800490000110585, 5.654586200005724, 6.120244499994442, 12.151866699990933, 6.418876499999897, 7.684282799993525, 10.099159099991084, 13.056667400000151, 16.869519700005185, 13.424545800007763, 30.62917610000295, 21.5730179999955, 33.414898100003484, 6.360648800007766]","[0.0002077999961329624, 0.0002651000104378909, 0.014805999991949648, 0.013989700004458427, 0.05001010000705719, 0.014207599990186282, 0.03738889998930972, 0.00022820000594947487, 0.013768899996648543, 0.04644759999064263, 0.0792652999953134, 13.056674199993722, 0.01538359999540262, 13.424552700002096, 30.629183900004136, 21.57302450000134, 0.03486939999856986, 6.360655399999814]",0,,,,,,,,,,,,,,,,,,,,,,,,,,,,,,,,,,,,,,,,,,,,,,,,,,,,,,,,,,,,,,,,,,,,,,,,,,,,,,,,,,,,,,,,,,,,,,,,,,,,,,,,,,,,,,,,,,,,,,,,,,,,9651N2,train_x,red_square,bottom_right,2025-09-26_15h36.49.855,HideSeek_v1,2022.2.5,59.970986032458654,
,,,,,,,,,,,,,,,3,0,3,0,2,0,2,0,,,,,,,,,,,,,,,,,,,,,,,,,,,,,,,conditions/schedules/train_x_first/red_square_00/bottom_right/instructions/Slide19.png,conditions/schedules/train_x_first/red_square_00/bottom_right/instructions/Audio19.wav,1688.3047374000016,1688.300039409993,19,"[6.880906499995035, 18.56394839999848, 16.872843500008457, 19.5876741999964, 4.5800490000110585, 5.654586200005724, 6.120244499994442, 12.151866699990933, 6.418876499999897, 7.684282799993525, 10.099159099991084, 13.056667400000151, 16.869519700005185, 13.424545800007763, 30.62917610000295, 21.5730179999955, 33.414898100003484, 6.360648800007766, 10.367195099999662]","[0.0002077999961329624, 0.0002651000104378909, 0.014805999991949648, 0.013989700004458427, 0.05001010000705719, 0.014207599990186282, 0.03738889998930972, 0.00022820000594947487, 0.013768899996648543, 0.04644759999064263, 0.0792652999953134, 13.056674199993722, 0.01538359999540262, 13.424552700002096, 30.629183900004136, 21.57302450000134, 0.03486939999856986, 0.06363469999632798, 10.367201299988665]",0,,,,,,,,,,,,,,,,,,,,,,,,,,,,,,,,,,,,,,,,,,,,,,,,,,,,,,,,,,,,,,,,,,,,,,,,,,,,,,,,,,,,,,,,,,,,,,,,,,,,,,,,,,,,,,,,,,,,,,,,,,,,9651N2,train_x,red_square,bottom_right,2025-09-26_15h36.49.855,HideSeek_v1,2022.2.5,59.970986032458654,
,,,,,,,,,,,,,,,3,0,3,0,3,0,3,0,,,,,,,,,,,,,,,,,,,,,,,,,,,,,,,conditions/schedules/train_x_first/red_square_00/bottom_right/instructions/Slide20.png,conditions/schedules/train_x_first/red_square_00/bottom_right/instructions/Audio20.wav,1698.7453551999934,1698.7417383499924,20,"[6.880906499995035, 18.56394839999848, 16.872843500008457, 19.5876741999964, 4.5800490000110585, 5.654586200005724, 6.120244499994442, 12.151866699990933, 6.418876499999897, 7.684282799993525, 10.099159099991084, 13.056667400000151, 16.869519700005185, 13.424545800007763, 30.62917610000295, 21.5730179999955, 33.414898100003484, 6.360648800007766, 10.367195099999662, 14.389488400003756]","[0.0002077999961329624, 0.0002651000104378909, 0.014805999991949648, 0.013989700004458427, 0.05001010000705719, 0.014207599990186282, 0.03738889998930972, 0.00022820000594947487, 0.013768899996648543, 0.04644759999064263, 0.0792652999953134, 13.056674199993722, 0.01538359999540262, 13.424552700002096, 30.629183900004136, 21.57302450000134, 0.03486939999856986, 0.06363469999632798, 0.00025409999943803996, 14.389495199997327]",0,,,,,,,,,,,,,,,,,,,,,,,,,,,,,,,,,,,,,,,,,,,,,,,,,,,,,,,,,,,,,,,,,,,,,,,,,,,,,,,,,,,,,,,,,,,,,,,,,,,,,,,,,,,,,,,,,,,,,,,,,,,,9651N2,train_x,red_square,bottom_right,2025-09-26_15h36.49.855,HideSeek_v1,2022.2.5,59.970986032458654,
1,7,3,7,8,0,5,11,2,instr_dim1_2,,,,,,3,0,3,0,,,,,0,0,0,0,,,,,,,,,,,,,,,,,,,,,,,,,,,,,,,,,,,,,stimuli/alien_stimuli/11.png,conditions/schedules/train_x_first/red_square_00/bottom_right/inputInstr_2.xlsx,stimuli/alien_stimuli/11.png,1713.237281099995,1713.237281099995,1713.237281099995,1713.237281099995,1713.2373093899964,return,7.070683300000383,"[-0.16, -0.08, 0, 0.08, 0.16, 0.24, 0.32, 0.4, 0.48, 0.56]","[-0.4, -0.32, -0.24, -0.16, -0.08, 0, 0.08, 0.16, 0.24, 0.32]",8,3,7,7,0.4,0.0,1720.4593241999974,1720.4593241999974,1720.4593241999974,1720.4593241999974,1720.4593241999974,1720.4593241999974,1720.4593241999974,1720.4603264300051,8.65722549999191,return,8.496405500001856,stimuli/alien_stimuli/11.png,11,7,1,,,,,,,,,,,,,,,,,,,,,,,,,,,,,,,,,,,,,,,,,,,,,,,,,,,,,,,,,,,,,,,,,,,,,,,,,,,,,,,,,,,,,,,,,9651N2,train_x,red_square,bottom_right,2025-09-26_15h36.49.855,HideSeek_v1,2022.2.5,59.970986032458654,
,,,,,,,,,,,30,,,,3,0,3,0,,,,,,,,,,,,,,,,,,,,,,,,,,,,,,,,,,,,,,,,,,,,,,,,,,,,,,,,,,,,,,,,,,,,,,,,,,,,,,21,0.7,1.0416666666666667,1,99,2,30,0,conditions/schedules/train_x_first/red_square_00/bottom_right/inputTrain_2.1.xlsx,99,1,2,1,0,,,,,,,,,,,,,,,,,,,,,,,,,,,,,,,,,,,,,,,,,,,,,,,,,,,,,,,,,,,,,,,,,,,,,,,,,,,9651N2,train_x,red_square,bottom_right,2025-09-26_15h36.49.855,HideSeek_v1,2022.2.5,59.970986032458654,
,,,,,,,,,,,,,,,4,0,4,0,0,0,0,0,,,,,,,,,,,,,,,,,,,,,,,,,,,,,,,conditions/schedules/train_x_first/red_square_00/bottom_right/instructions/Slide21.png,conditions/schedules/train_x_first/red_square_00/bottom_right/instructions/Audio21.wav,1729.1523745000013,1729.150355970011,21,"[6.880906499995035, 18.56394839999848, 16.872843500008457, 19.5876741999964, 4.5800490000110585, 5.654586200005724, 6.120244499994442, 12.151866699990933, 6.418876499999897, 7.684282799993525, 10.099159099991084, 13.056667400000151, 16.869519700005185, 13.424545800007763, 30.62917610000295, 21.5730179999955, 33.414898100003484, 6.360648800007766, 10.367195099999662, 14.389488400003756, 17.059379600003012]","[0.0002077999961329624, 0.0002651000104378909, 0.014805999991949648, 0.013989700004458427, 0.05001010000705719, 0.014207599990186282, 0.03738889998930972, 0.00022820000594947487, 0.013768899996648543, 0.04644759999064263, 0.0792652999953134, 13.056674199993722, 0.01538359999540262, 13.424552700002096, 30.629183900004136, 21.57302450000134, 0.03486939999856986, 0.06363469999632798, 0.00025409999943803996, 14.389495199997327, 17.059387400004198]",0,,,,,,,,,,,,,,,,,,,,,,,,,,,,,,,,,,,,,,,,,,,,,,,,,,,,,,,,,,,,,,,,,,,,,,,,,,,,,,,,,,,,,,,,,,,,,,,,,,,,,,,,,,,,,,,,,,,,,,,,,,,,9651N2,train_x,red_square,bottom_right,2025-09-26_15h36.49.855,HideSeek_v1,2022.2.5,59.970986032458654,
2,5,3,5,3,0,0,16,2,instr_dim1_2,,,,,,4,0,4,0,,,,,0,0,0,0,,,,,,,,,,,,,,,,,,,,,,,,,,,,,,,,,,,,,stimuli/alien_stimuli/16.png,conditions/schedules/train_x_first/red_square_00/bottom_right/inputInstr_2.xlsx,stimuli/alien_stimuli/16.png,1746.3164537999983,1746.3164537999983,1746.3164537999983,1746.3164537999983,1746.3148152899971,return,6.137183999991976,"[-0.16, -0.08, 0, 0.08, 0.16, 0.24, 0.32, 0.4, 0.48, 0.56]","[-0.4, -0.32, -0.24, -0.16, -0.08, 0, 0.08, 0.16, 0.24, 0.32]",3,3,5,5,0.0,0.0,1752.6168744000024,1752.6168744000024,1752.6168744000024,1752.6168744000024,1752.6168744000024,1752.6168744000024,1752.6168744000024,1752.6031765599967,5.522761200001696,return,5.364187099999981,stimuli/alien_stimuli/16.png,16,5,2,,,,,,,,,,,,,,,,,,,,,,,,,,,,,,,,,,,,,,,,,,,,,,,,,,,,,,,,,,,,,,,,,,,,,,,,,,,,,,,,,,,,,,,,,9651N2,train_x,red_square,bottom_right,2025-09-26_15h36.49.855,HideSeek_v1,2022.2.5,59.970986032458654,
,,,,,,,,,,,30,,,,4,0,4,0,,,,,,,,,,,,,,,,,,,,,,,,,,,,,,,,,,,,,,,,,,,,,,,,,,,,,,,,,,,,,,,,,,,,,,,,,,,,,,21,0.7,1.0416666666666667,1,99,2,30,0,conditions/schedules/train_x_first/red_square_00/bottom_right/inputTrain_2.1.xlsx,99,1,2,1,0,,,,,,,,,,,,,,,,,,,,,,,,,,,,,,,,,,,,,,,,,,,,,,,,,,,,,,,,,,,,,,,,,,,,,,,,,,,9651N2,train_x,red_square,bottom_right,2025-09-26_15h36.49.855,HideSeek_v1,2022.2.5,59.970986032458654,
,,,,,,,,,,,,,,,5,0,5,0,0,0,0,0,,,,,,,,,,,,,,,,,,,,,,,,,,,,,,,conditions/schedules/train_x_first/red_square_00/bottom_right/instructions/Slide22.png,conditions/schedules/train_x_first/red_square_00/bottom_right/instructions/Audio22.wav,1758.194731999989,1758.1912221400066,22,"[6.880906499995035, 18.56394839999848, 16.872843500008457, 19.5876741999964, 4.5800490000110585, 5.654586200005724, 6.120244499994442, 12.151866699990933, 6.418876499999897, 7.684282799993525, 10.099159099991084, 13.056667400000151, 16.869519700005185, 13.424545800007763, 30.62917610000295, 21.5730179999955, 33.414898100003484, 6.360648800007766, 10.367195099999662, 14.389488400003756, 17.059379600003012, 43.01299119999749]","[0.0002077999961329624, 0.0002651000104378909, 0.014805999991949648, 0.013989700004458427, 0.05001010000705719, 0.014207599990186282, 0.03738889998930972, 0.00022820000594947487, 0.013768899996648543, 0.04644759999064263, 0.0792652999953134, 13.056674199993722, 0.01538359999540262, 13.424552700002096, 30.629183900004136, 21.57302450000134, 0.03486939999856986, 0.06363469999632798, 0.00025409999943803996, 14.389495199997327, 17.059387400004198, 43.01299940000172]",0,,,,,,,,,,,,,,,,,,,,,,,,,,,,,,,,,,,,,,,,,,,,,,,,,,,,,,,,,,,,,,,,,,,,,,,,,,,,,,,,,,,,,,,,,,,,,,,,,,,,,,,,,,,,,,,,,,,,,,,,,,,,9651N2,train_x,red_square,bottom_right,2025-09-26_15h36.49.855,HideSeek_v1,2022.2.5,59.970986032458654,
,5,0,5,1,0,1,15,,train_dim1_2,1,30,,,,5,0,5,0,,,,,,,,,0,0,0,0,0,0,0,0,0,0,0,0,,,,,,,,,,,,,,,,,,,,,,,,,stimuli/alien_stimuli/15.png,,,,,,,,,,,,,,,,,,,,,,,,,,,,,,,,,,,,,,,30,,,,,,,,1801.306374599997,1801.306374599997,1801.306374599997,1801.306374599997,1801.306374599997,return,4.347354099998483,0,1,0,0,0.24,-0.4,return,4.248278899991419,0,-77,0.24,-0.4,,,,,,,,,,,,,,,,,,,,,,,,,,,,,,,,,,,,,,,,,,,,,,,,,,,,,,,,9651N2,train_x,red_square,bottom_right,2025-09-26_15h36.49.855,HideSeek_v1,2022.2.5,59.970986032458654,
,8,2,8,2,0,0,16,,train_dim1_2,2,30,,,,5,0,5,0,,,,,,,,,0,0,0,0,0,1,1,1,0,0,0,0,,,,,,,,,,,,,,,,,,,,,,,,,stimuli/alien_stimuli/16.png,,,,,,,,,,,,,,,,,,,,,,,,,,,,,stimuli/alien_stimuli/15.png,15,5,3,,,,,,,30,,,,,,,,1810.8423186,1810.8423186,1810.8423186,1810.8423186,1810.8423186,return,5.8403332000016235,1,0,0,1,0.48,-0.24,return,5.759973300009733,0,-77,0.48,-0.24,1809.2835193999927,1810.8423186,0.24,-0.32,0.08,0.0,-0.36,0.24,0.24,0.24,-0.32,1807.2183565000014,1807.2183565000014,1807.2183565000014,1807.2183565000014,1807.2183565000014,1807.2183565000014,1807.2183565000014,1807.2183565000014,1807.2152153599948,2.187858300007065,return,2.032337299999199,,,,,,,,,,,,,,,,,,,,,,,,,,,,,,,,,9651N2,train_x,red_square,bottom_right,2025-09-26_15h36.49.855,HideSeek_v1,2022.2.5,59.970986032458654,
,7,3,7,6,0,3,13,,train_dim1_2,3,30,,,,5,0,5,0,,,,,,,,,0,0,0,0,0,2,2,2,0,0,0,0,,,,,,,,,,,,,,,,,,,,,,,,,stimuli/alien_stimuli/13.png,,,,,,,,,,,,,,,,,,,,,,,,,,,,,stimuli/alien_stimuli/16.png,16,8,4,,,,,,,30,,,,,,,,1821.2008961999964,1821.2008961999964,1821.2008961999964,1821.2008961999964,1821.2008961999964,up,3.040441400007694,1,0,0,99,0.4,-0.08,up,2.9608953000133624,,,,,1819.6422214999911,1821.2008961999964,0.48,-0.24,0.0,0.0,-0.24,0.48,0.48,0.48,-0.24,1818.2567116999999,1818.2567116999999,1818.2567116999999,1818.2567116999999,1818.2567116999999,1818.2567116999999,1818.2567116999999,1818.2567116999999,1818.2574280600004,1.5040880999877118,return,1.3530031999980565,,,,,,,,,,,,,,,,,,,,,,,,,,,,,,,,,9651N2,train_x,red_square,bottom_right,2025-09-26_15h36.49.855,HideSeek_v1,2022.2.5,59.970986032458654,
,7,3,7,6,0,3,13,,train_dim1_2,3,30,,,,5,0,5,0,,,,,,,,,0,0,0,0,0,2,2,2,1,0,1,0,,,,,,,,,,,,,,,,,,,,,,,,,,,,,,,,,,,,,,,,,,,,,,,,,,,,,,,,,,,,,,,,30,,,,,,,,1824.2462276000006,1824.2462276000006,1824.2462276000006,1824.2462276000006,1824.2462276000006,up,0.6101002999930643,1,0,0,99,0.4,0.0,up,0.5272750000003725,,,,,,,,,,,,,,,,,,,,,,,,,,,,,,,,,,,,,,,,,,,,,,,,,,,,,,,,,,,,9651N2,train_x,red_square,bottom_right,2025-09-26_15h36.49.855,HideSeek_v1,2022.2.5,59.970986032458654,
,7,3,7,6,0,3,13,,train_dim1_2,3,30,,,,5,0,5,0,,,,,,,,,0,0,0,0,0,2,2,2,2,0,2,0,,,,,,,,,,,,,,,,,,,,,,,,,,,,,,,,,,,,,,,,,,,,,,,,,,,,,,,,,,,,,,,,30,,,,,,,,1824.862455399998,1824.862455399998,1824.862455399998,1824.862455399998,1824.862455399998,up,0.6768824000027962,1,0,0,99,0.4,0.08,up,0.5962966999941273,,,,,,,,,,,,,,,,,,,,,,,,,,,,,,,,,,,,,,,,,,,,,,,,,,,,,,,,,,,,9651N2,train_x,red_square,bottom_right,2025-09-26_15h36.49.855,HideSeek_v1,2022.2.5,59.970986032458654,
,7,3,7,6,0,3,13,,train_dim1_2,3,30,,,,5,0,5,0,,,,,,,,,0,0,0,0,0,2,2,2,3,0,3,0,,,,,,,,,,,,,,,,,,,,,,,,,,,,,,,,,,,,,,,,,,,,,,,,,,,,,,,,,,,,,,,,30,,,,,,,,1825.5469310999906,1825.5469310999906,1825.5469310999906,1825.5469310999906,1825.5469310999906,up,0.7268508000124712,1,0,0,99,0.4,0.16,up,0.6457627000054345,,,,,,,,,,,,,,,,,,,,,,,,,,,,,,,,,,,,,,,,,,,,,,,,,,,,,,,,,,,,9651N2,train_x,red_square,bottom_right,2025-09-26_15h36.49.855,HideSeek_v1,2022.2.5,59.970986032458654,
,7,3,7,6,0,3,13,,train_dim1_2,3,30,,,,5,0,5,0,,,,,,,,,0,0,0,0,0,2,2,2,4,0,4,0,,,,,,,,,,,,,,,,,,,,,,,,,,,,,,,,,,,,,,,,,,,,,,,,,,,,,,,,,,,,,,,,30,,,,,,,,1826.2845439999946,1826.2845439999946,1826.2845439999946,1826.2845439999946,1826.2845439999946,return,3.2924998000089545,1,1,0,0,0.4,0.16,return,3.2111680999951204,4,-77,0.4,0.16,,,,,,,,,,,,,,,,,,,,,,,,,,,,,,,,,,,,,,,,,,,,,,,,,,,,,,,,9651N2,train_x,red_square,bottom_right,2025-09-26_15h36.49.855,HideSeek_v1,2022.2.5,59.970986032458654,
,5,1,5,5,0,4,12,,train_dim1_2,4,30,,,,5,0,5,0,,,,,,,,,0,0,0,0,0,3,3,3,0,0,0,0,,,,,,,,,,,,,,,,,,,,,,,,,stimuli/alien_stimuli/12.png,,,,,,,,,,,,,,,,,,,,,,,,,,,,,stimuli/alien_stimuli/13.png,13,7,5,,,,,,,30,,,,,,,,1834.5123119999917,1834.5123119999917,1834.5123119999917,1834.5123119999917,1834.5123119999917,up,2.473099099996034,1,1,0,99,0.24,-0.24,up,2.3897886000049766,,,,,1832.9529911999998,1834.5123119999917,0.4,0.08,0.24,0.0,-0.04,0.4,0.4,0.4,0.08,1831.1521285999916,1831.1521285999916,1831.1521285999916,1831.1521285999916,1831.1521285999916,1831.1521285999916,1831.1521285999916,1831.1521285999916,1831.15166876,1.920554500000435,return,1.7833041999983834,,,,,,,,,,,,,,,,,,,,,,,,,,,,,,,,,9651N2,train_x,red_square,bottom_right,2025-09-26_15h36.49.855,HideSeek_v1,2022.2.5,59.970986032458654,
,5,1,5,5,0,4,12,,train_dim1_2,4,30,,,,5,0,5,0,,,,,,,,,0,0,0,0,0,3,3,3,1,0,1,0,,,,,,,,,,,,,,,,,,,,,,,,,,,,,,,,,,,,,,,,,,,,,,,,,,,,,,,,,,,,,,,,30,,,,,,,,1836.9912799000012,1836.9912799000012,1836.9912799000012,1836.9912799000012,1836.9912799000012,up,0.8100043999875197,1,1,0,99,0.24,-0.15999999999999998,up,0.7286231000034604,,,,,,,,,,,,,,,,,,,,,,,,,,,,,,,,,,,,,,,,,,,,,,,,,,,,,,,,,,,,9651N2,train_x,red_square,bottom_right,2025-09-26_15h36.49.855,HideSeek_v1,2022.2.5,59.970986032458654,
