trialInstr,x_fixStart,y_fixStart,x_corrSteps,y_corrSteps,x_nrSteps,y_nrSteps,alienID,trialLength,version,trialTrain,praclen,testlen,trial_label,break_on_off,beforeExpLoop.thisRepN,beforeExpLoop.thisTrialN,beforeExpLoop.thisN,beforeExpLoop.thisIndex,mini_instr_trials.thisRepN,mini_instr_trials.thisTrialN,mini_instr_trials.thisN,mini_instr_trials.thisIndex,instrLoop.thisRepN,instrLoop.thisTrialN,instrLoop.thisN,instrLoop.thisIndex,repeat_prac.thisRepN,repeat_prac.thisTrialN,repeat_prac.thisN,repeat_prac.thisIndex,trainLoop.thisRepN,trainLoop.thisTrialN,trainLoop.thisN,trainLoop.thisIndex,moveLoop_train.thisRepN,moveLoop_train.thisTrialN,moveLoop_train.thisN,moveLoop_train.thisIndex,experiment.thisRepN,experiment.thisTrialN,experiment.thisN,experiment.thisIndex,moveLoop_test.thisRepN,moveLoop_test.thisTrialN,moveLoop_test.thisN,moveLoop_test.thisIndex,mini_instr2_trials.thisRepN,mini_instr2_trials.thisTrialN,mini_instr2_trials.thisN,mini_instr2_trials.thisIndex,start_all_time,url,slideStim,audioStim,slides.started,sounds.started,nextButton.numClicks,nextButton.timesOn,nextButton.timesOff,prev_but.numClicks,prev_but.timesOn,prev_but.timesOff,alienStim,instrFile,alienStim_instr,gridImage_instr.started,startPos_3.started,key_instr.started,alienImage_3.started,sounds_1.started,key_instr.keys,key_instr.rt,all_x,all_y,FBy_corrSteps,FBy_fixStart,FBx_corrSteps,FBx_fixStart,FBy_pathSize_check,FBx_pathSize_check,gridImage_9.started,alienImageFB_3.started,startPosFB_3.started,keyFB_3.started,pathLine_ydir_2.started,pathLine_xdir_2.started,alienFace_3.started,sounds_2.started,RTFB_instr,keyFB_3.keys,keyFB_3.rt,draw_alienStim,draw_alienID,test_x,nrepcount,perfthres,percthres,earlierperf,earlystop,nextPrac,fileidx,praclen,saveACC_train,pracFile,nextPrac_train,addNrep,fileidx_endr,repExp,showearly,gridImage_4.started,startPos.started,movePos.started,key_resp.started,alienImage.started,buttonPress_train,RTchoice_train,cumAcctrain,aCorr,saveACC_choice,corrAns,x_movePos_end,y_movePos_end,key_resp.keys,key_resp.rt,wLy_dir,wLx_dir,x_movePos,y_movePos,text_2.started,text_2.stopped,aft_x_corrPos,aft_y_corrPos,y_pathSize_check,x_pathSize_check,y_pathdirY,x_pathdirY,x_pathdirX,x_corrPos,y_corrPos,gridImage_6.started,alienImageFB_2.started,startPosFB_2.started,movePosFB_2.started,keyFB_2.started,pathLine_xdir.started,pathLine_ydir.started,alienFace.started,sounds_4.started,RT_FBtrain,keyFB_2.keys,keyFB_2.rt,saveACC_pre,ACC,within_saveACC_train,earlystop_wloop,cumAcctrain_check,gridImage_3.started,alienImage_test.started,startPos_test.started,movePos_test.started,key_resp_test.started,wLy_dir_test,wLx_dir_test,buttonPress_test,RTchoice_test,cumAcctest,corrAns_test,key_resp_test.keys,key_resp_test.rt,text_3.started,text_3.stopped,total_time,end_all_time,key_resp_3.keys,slides_2.started,sounds_3.started,nextButton_2.numClicks,nextButton_2.timesOn,nextButton_2.timesOff,prev_but_2.numClicks,prev_but_2.timesOn,prev_but_2.timesOff,bye.started,participant,train_first,00_coordinate,starting corner,date,expName,psychopyVersion,frameRate,
,,,,,,,,,,,,,,,0,0,0,0,0,0,0,0,,,,,,,,,,,,,,,,,,,,,,,,,,,,,start_all_time,testround,conditions/schedules/train_x_first/red_square_00/bottom_left/instructions/Slide1.png,conditions/schedules/train_x_first/red_square_00/bottom_left/instructions/Audio1.wav,1652.4929412000347,1652.435995562526,1,[4.99449019995518],[4.994501000037417],0,,,,,,,,,,,,,,,,,,,,,,,,,,,,,,,,,,,,,,,,,,,,,,,,,,,,,,,,,,,,,,,,,,,,,,,,,,,,,,,,,,,,,,,,,,,,,,,,,,,,,,,,,,,,,,,,,,,,,,,,,,,,98P29L,train_x,red_square,bottom_left,2025-05-23_17h03.29.089,HideSeek_v1,2022.2.5,59.93683856700536,
,,,,,,,,,,,,,,,0,0,0,0,1,0,1,0,,,,,,,,,,,,,,,,,,,,,,,,,,,,,,,conditions/schedules/train_x_first/red_square_00/bottom_left/instructions/Slide2.png,conditions/schedules/train_x_first/red_square_00/bottom_left/instructions/Audio2.wav,1657.5006127000088,1657.5006551000406,2,"[4.99449019995518, 18.16219370008912]","[0.00022110005374997854, 18.162204700056463]",0,,,,,,,,,,,,,,,,,,,,,,,,,,,,,,,,,,,,,,,,,,,,,,,,,,,,,,,,,,,,,,,,,,,,,,,,,,,,,,,,,,,,,,,,,,,,,,,,,,,,,,,,,,,,,,,,,,,,,,,,,,,,98P29L,train_x,red_square,bottom_left,2025-05-23_17h03.29.089,HideSeek_v1,2022.2.5,59.93683856700536,
,,,,,,,,,,,,,,,0,0,0,0,2,0,2,0,,,,,,,,,,,,,,,,,,,,,,,,,,,,,,,conditions/schedules/train_x_first/red_square_00/bottom_left/instructions/Slide3.png,conditions/schedules/train_x_first/red_square_00/bottom_left/instructions/Audio3.wav,1675.7449675000971,1675.7326449000393,3,"[4.99449019995518, 18.16219370008912, 18.217754099983722]","[0.00022110005374997854, 0.06943390006199479, 18.217800299986266]",0,,,,,,,,,,,,,,,,,,,,,,,,,,,,,,,,,,,,,,,,,,,,,,,,,,,,,,,,,,,,,,,,,,,,,,,,,,,,,,,,,,,,,,,,,,,,,,,,,,,,,,,,,,,,,,,,,,,,,,,,,,,,98P29L,train_x,red_square,bottom_left,2025-05-23_17h03.29.089,HideSeek_v1,2022.2.5,59.93683856700536,
,,,,,,,,,,,,,,,0,0,0,0,3,0,3,0,,,,,,,,,,,,,,,,,,,,,,,,,,,,,,,conditions/schedules/train_x_first/red_square_00/bottom_left/instructions/Slide4.png,conditions/schedules/train_x_first/red_square_00/bottom_left/instructions/Audio4.wav,1694.0430979999946,1694.0316098001203,4,"[4.99449019995518, 18.16219370008912, 18.217754099983722, 19.26971409993712]","[0.00022110005374997854, 0.06943390006199479, 0.00022209994494915009, 19.269730299944058]",0,,,,,,,,,,,,,,,,,,,,,,,,,,,,,,,,,,,,,,,,,,,,,,,,,,,,,,,,,,,,,,,,,,,,,,,,,,,,,,,,,,,,,,,,,,,,,,,,,,,,,,,,,,,,,,,,,,,,,,,,,,,,98P29L,train_x,red_square,bottom_left,2025-05-23_17h03.29.089,HideSeek_v1,2022.2.5,59.93683856700536,
,,,,,,,,,,,,,,,0,0,0,0,4,0,4,0,,,,,,,,,,,,,,,,,,,,,,,,,,,,,,,conditions/schedules/train_x_first/red_square_00/bottom_left/instructions/Slide5.png,conditions/schedules/train_x_first/red_square_00/bottom_left/instructions/Audio5.wav,1713.377496900037,1713.3652558401227,5,"[4.99449019995518, 18.16219370008912, 18.217754099983722, 19.26971409993712, 4.387430599890649]","[0.00022110005374997854, 0.06943390006199479, 0.00022209994494915009, 0.05218889995012432, 4.387450099922717]",0,,,,,,,,,,,,,,,,,,,,,,,,,,,,,,,,,,,,,,,,,,,,,,,,,,,,,,,,,,,,,,,,,,,,,,,,,,,,,,,,,,,,,,,,,,,,,,,,,,,,,,,,,,,,,,,,,,,,,,,,,,,,98P29L,train_x,red_square,bottom_left,2025-05-23_17h03.29.089,HideSeek_v1,2022.2.5,59.93683856700536,
,,,,,,,,,,,,,,,0,0,0,0,5,0,5,0,,,,,,,,,,,,,,,,,,,,,,,,,,,,,,,conditions/schedules/train_x_first/red_square_00/bottom_left/instructions/Slide6.png,conditions/schedules/train_x_first/red_square_00/bottom_left/instructions/Audio6.wav,1717.8211570000276,1717.8175427400274,6,"[4.99449019995518, 18.16219370008912, 18.217754099983722, 19.26971409993712, 4.387430599890649, 4.93242409999948]","[0.00022110005374997854, 0.06943390006199479, 0.00022209994494915009, 0.05218889995012432, 0.03114650002680719, 4.932434399961494]",0,,,,,,,,,,,,,,,,,,,,,,,,,,,,,,,,,,,,,,,,,,,,,,,,,,,,,,,,,,,,,,,,,,,,,,,,,,,,,,,,,,,,,,,,,,,,,,,,,,,,,,,,,,,,,,,,,,,,,,,,,,,,98P29L,train_x,red_square,bottom_left,2025-05-23_17h03.29.089,HideSeek_v1,2022.2.5,59.93683856700536,
,,,,,,,,,,,,,,,0,0,0,0,6,0,6,0,,,,,,,,,,,,,,,,,,,,,,,,,,,,,,,conditions/schedules/train_x_first/red_square_00/bottom_left/instructions/Slide7.png,conditions/schedules/train_x_first/red_square_00/bottom_left/instructions/Audio7.wav,1722.8066485000309,1722.8048047401244,7,"[4.99449019995518, 18.16219370008912, 18.217754099983722, 19.26971409993712, 4.387430599890649, 4.93242409999948, 5.6019704000791535]","[0.00022110005374997854, 0.06943390006199479, 0.00022209994494915009, 0.05218889995012432, 0.03114650002680719, 0.047520400024950504, 5.601979400031269]",0,,,,,,,,,,,,,,,,,,,,,,,,,,,,,,,,,,,,,,,,,,,,,,,,,,,,,,,,,,,,,,,,,,,,,,,,,,,,,,,,,,,,,,,,,,,,,,,,,,,,,,,,,,,,,,,,,,,,,,,,,,,,98P29L,train_x,red_square,bottom_left,2025-05-23_17h03.29.089,HideSeek_v1,2022.2.5,59.93683856700536,
,,,,,,,,,,,,,,,0,0,0,0,7,0,7,0,,,,,,,,,,,,,,,,,,,,,,,,,,,,,,,conditions/schedules/train_x_first/red_square_00/bottom_left/instructions/Slide8.png,conditions/schedules/train_x_first/red_square_00/bottom_left/instructions/Audio8.wav,1728.4659665999934,1728.46148094011,8,"[4.99449019995518, 18.16219370008912, 18.217754099983722, 19.26971409993712, 4.387430599890649, 4.93242409999948, 5.6019704000791535, 13.954265600070357]","[0.00022110005374997854, 0.06943390006199479, 0.00022209994494915009, 0.05218889995012432, 0.03114650002680719, 0.047520400024950504, 0.01478960004169494, 13.954287500004284]",0,,,,,,,,,,,,,,,,,,,,,,,,,,,,,,,,,,,,,,,,,,,,,,,,,,,,,,,,,,,,,,,,,,,,,,,,,,,,,,,,,,,,,,,,,,,,,,,,,,,,,,,,,,,,,,,,,,,,,,,,,,,,98P29L,train_x,red_square,bottom_left,2025-05-23_17h03.29.089,HideSeek_v1,2022.2.5,59.93683856700536,
,,,,,,,,,,,,,,,0,0,0,0,8,0,8,0,,,,,,,,,,,,,,,,,,,,,,,,,,,,,,,conditions/schedules/train_x_first/red_square_00/bottom_left/instructions/Slide9.png,conditions/schedules/train_x_first/red_square_00/bottom_left/instructions/Audio9.wav,1742.488717100001,1742.4885558001115,9,"[4.99449019995518, 18.16219370008912, 18.217754099983722, 19.26971409993712, 4.387430599890649, 4.93242409999948, 5.6019704000791535, 13.954265600070357, 5.886185500072315]","[0.00022110005374997854, 0.06943390006199479, 0.00022209994494915009, 0.05218889995012432, 0.03114650002680719, 0.047520400024950504, 0.01478960004169494, 0.014149600057862699, 5.886195800034329]",0,,,,,,,,,,,,,,,,,,,,,,,,,,,,,,,,,,,,,,,,,,,,,,,,,,,,,,,,,,,,,,,,,,,,,,,,,,,,,,,,,,,,,,,,,,,,,,,,,,,,,,,,,,,,,,,,,,,,,,,,,,,,98P29L,train_x,red_square,bottom_left,2025-05-23_17h03.29.089,HideSeek_v1,2022.2.5,59.93683856700536,
,,,,,,,,,,,,,,,0,0,0,0,9,0,9,0,,,,,,,,,,,,,,,,,,,,,,,,,,,,,,,conditions/schedules/train_x_first/red_square_00/bottom_left/instructions/Slide10.png,conditions/schedules/train_x_first/red_square_00/bottom_left/instructions/Audio10.wav,1748.4161443000194,1748.4106960800127,10,"[4.99449019995518, 18.16219370008912, 18.217754099983722, 19.26971409993712, 4.387430599890649, 4.93242409999948, 5.6019704000791535, 13.954265600070357, 5.886185500072315, 6.817121300031431]","[0.00022110005374997854, 0.06943390006199479, 0.00022209994494915009, 0.05218889995012432, 0.03114650002680719, 0.047520400024950504, 0.01478960004169494, 0.014149600057862699, 0.06074840005021542, 6.8171294999774545]",0,,,,,,,,,,,,,,,,,,,,,,,,,,,,,,,,,,,,,,,,,,,,,,,,,,,,,,,,,,,,,,,,,,,,,,,,,,,,,,,,,,,,,,,,,,,,,,,,,,,,,,,,,,,,,,,,,,,,,,,,,,,,98P29L,train_x,red_square,bottom_left,2025-05-23_17h03.29.089,HideSeek_v1,2022.2.5,59.93683856700536,
,,,,,,,,,,,,,,,0,0,0,0,10,0,10,0,,,,,,,,,,,,,,,,,,,,,,,,,,,,,,,conditions/schedules/train_x_first/red_square_00/bottom_left/instructions/Slide11.png,conditions/schedules/train_x_first/red_square_00/bottom_left/instructions/Audio11.wav,1755.2879428000888,1755.2840707401047,11,"[4.99449019995518, 18.16219370008912, 18.217754099983722, 19.26971409993712, 4.387430599890649, 4.93242409999948, 5.6019704000791535, 13.954265600070357, 5.886185500072315, 6.817121300031431, 11.352088499930687]","[0.00022110005374997854, 0.06943390006199479, 0.00022209994494915009, 0.05218889995012432, 0.03114650002680719, 0.047520400024950504, 0.01478960004169494, 0.014149600057862699, 0.06074840005021542, 0.03753820003475994, 11.352098200004548]",0,,,,,,,,,,,,,,,,,,,,,,,,,,,,,,,,,,,,,,,,,,,,,,,,,,,,,,,,,,,,,,,,,,,,,,,,,,,,,,,,,,,,,,,,,,,,,,,,,,,,,,,,,,,,,,,,,,,,,,,,,,,,98P29L,train_x,red_square,bottom_left,2025-05-23_17h03.29.089,HideSeek_v1,2022.2.5,59.93683856700536,
,,,,,,,,,,,,,,,0,0,0,0,11,0,11,0,,,,,,,,,,,,,,,,,,,,,,,,,,,,,,,conditions/schedules/train_x_first/red_square_00/bottom_left/instructions/Slide12.png,conditions/schedules/train_x_first/red_square_00/bottom_left/instructions/Audio12.wav,1766.71450370003,1766.7088986001327,12,"[4.99449019995518, 18.16219370008912, 18.217754099983722, 19.26971409993712, 4.387430599890649, 4.93242409999948, 5.6019704000791535, 13.954265600070357, 5.886185500072315, 6.817121300031431, 11.352088499930687, 12.471175100072287]","[0.00022110005374997854, 0.06943390006199479, 0.00022209994494915009, 0.05218889995012432, 0.03114650002680719, 0.047520400024950504, 0.01478960004169494, 0.014149600057862699, 0.06074840005021542, 0.03753820003475994, 11.352098200004548, 12.471185000031255]",0,,,,,,,,,,,,,,,,,,,,,,,,,,,,,,,,,,,,,,,,,,,,,,,,,,,,,,,,,,,,,,,,,,,,,,,,,,,,,,,,,,,,,,,,,,,,,,,,,,,,,,,,,,,,,,,,,,,,,,,,,,,,98P29L,train_x,red_square,bottom_left,2025-05-23_17h03.29.089,HideSeek_v1,2022.2.5,59.93683856700536,
1,3,2,8,2,5,0,66,2,instr_dim1_1,,,,,,0,0,0,0,,,,,0,0,0,0,,,,,,,,,,,,,,,,,,,,,,,,,,,,,,,,,,,,,stimuli/alien_stimuli/66.png,conditions/schedules/train_x_first/red_square_00/bottom_left/inputInstr_1.xlsx,stimuli/alien_stimuli/66.png,1779.287521100021,1779.287521100021,1779.287521100021,1779.287521100021,1779.2868157200865,return,9.538889999967068,"[-0.16, -0.08, 0, 0.08, 0.16, 0.24, 0.32, 0.4, 0.48, 0.56]","[-0.4, -0.32, -0.24, -0.16, -0.08, 0, 0.08, 0.16, 0.24, 0.32]",2,2,8,3,0.0,0.4,1788.9720371000003,1788.9720371000003,1788.9720371000003,1788.9720371000003,1788.9720371000003,1788.9720371000003,1788.9720371000003,1788.9600385801168,7.022905600024387,return,6.865892600035295,stimuli/alien_stimuli/66.png,66,3,1,,,,,,,,,,,,,,,,,,,,,,,,,,,,,,,,,,,,,,,,,,,,,,,,,,,,,,,,,,,,,,,,,,,,,,,,,,,,,,,,,,,,,,,,,98P29L,train_x,red_square,bottom_left,2025-05-23_17h03.29.089,HideSeek_v1,2022.2.5,59.93683856700536,
,,,,,,,,,,,30,,,,0,0,0,0,,,,,,,,,,,,,,,,,,,,,,,,,,,,,,,,,,,,,,,,,,,,,,,,,,,,,,,,,,,,,,,,,,,,,,,,,,,,,,21,0.7,0,0,99,1,30,0,conditions/schedules/train_x_first/red_square_00/bottom_left/inputTrain_1.1.xlsx,99,1,1,1,0,,,,,,,,,,,,,,,,,,,,,,,,,,,,,,,,,,,,,,,,,,,,,,,,,,,,,,,,,,,,,,,,,,,,,,,,,,,98P29L,train_x,red_square,bottom_left,2025-05-23_17h03.29.089,HideSeek_v1,2022.2.5,59.93683856700536,
,,,,,,,,,,,,,,,1,0,1,0,0,0,0,0,,,,,,,,,,,,,,,,,,,,,,,,,,,,,,,conditions/schedules/train_x_first/red_square_00/bottom_left/instructions/Slide13.png,conditions/schedules/train_x_first/red_square_00/bottom_left/instructions/Audio13.wav,1796.0057621999877,1795.99922754016,13,"[4.99449019995518, 18.16219370008912, 18.217754099983722, 19.26971409993712, 4.387430599890649, 4.93242409999948, 5.6019704000791535, 13.954265600070357, 5.886185500072315, 6.817121300031431, 11.352088499930687, 12.471175100072287, 16.740096000023186]","[0.00022110005374997854, 0.06943390006199479, 0.00022209994494915009, 0.05218889995012432, 0.03114650002680719, 0.047520400024950504, 0.01478960004169494, 0.014149600057862699, 0.06074840005021542, 0.03753820003475994, 11.352098200004548, 12.471185000031255, 16.740133099956438]",0,,,,,,,,,,,,,,,,,,,,,,,,,,,,,,,,,,,,,,,,,,,,,,,,,,,,,,,,,,,,,,,,,,,,,,,,,,,,,,,,,,,,,,,,,,,,,,,,,,,,,,,,,,,,,,,,,,,,,,,,,,,,98P29L,train_x,red_square,bottom_left,2025-05-23_17h03.29.089,HideSeek_v1,2022.2.5,59.93683856700536,
,,,,,,,,,,,,,,,1,0,1,0,1,0,1,0,,,,,,,,,,,,,,,,,,,,,,,,,,,,,,,conditions/schedules/train_x_first/red_square_00/bottom_left/instructions/Slide14.png,conditions/schedules/train_x_first/red_square_00/bottom_left/instructions/Audio14.wav,1812.831036800053,1812.829998260131,14,"[4.99449019995518, 18.16219370008912, 18.217754099983722, 19.26971409993712, 4.387430599890649, 4.93242409999948, 5.6019704000791535, 13.954265600070357, 5.886185500072315, 6.817121300031431, 11.352088499930687, 12.471175100072287, 16.740096000023186, 12.858038599952124]","[0.00022110005374997854, 0.06943390006199479, 0.00022209994494915009, 0.05218889995012432, 0.03114650002680719, 0.047520400024950504, 0.01478960004169494, 0.014149600057862699, 0.06074840005021542, 0.03753820003475994, 11.352098200004548, 12.471185000031255, 0.030976300011388958, 12.858048300025985]",0,,,,,,,,,,,,,,,,,,,,,,,,,,,,,,,,,,,,,,,,,,,,,,,,,,,,,,,,,,,,,,,,,,,,,,,,,,,,,,,,,,,,,,,,,,,,,,,,,,,,,,,,,,,,,,,,,,,,,,,,,,,,98P29L,train_x,red_square,bottom_left,2025-05-23_17h03.29.089,HideSeek_v1,2022.2.5,59.93683856700536,
2,4,0,4,0,0,0,16,2,instr_dim1_1,,,,,,1,0,1,0,,,,,0,0,0,0,,,,,,,,,,,,,,,,,,,,,,,,,,,,,,,,,,,,,stimuli/alien_stimuli/16.png,conditions/schedules/train_x_first/red_square_00/bottom_left/inputInstr_1.xlsx,stimuli/alien_stimuli/16.png,1825.796299800044,1825.796299800044,1825.796299800044,1825.796299800044,1825.7916770200827,return,7.261941700009629,"[-0.16, -0.08, 0, 0.08, 0.16, 0.24, 0.32, 0.4, 0.48, 0.56]","[-0.4, -0.32, -0.24, -0.16, -0.08, 0, 0.08, 0.16, 0.24, 0.32]",0,0,4,4,0.0,0.0,1833.2096098000184,1833.2096098000184,1833.2096098000184,1833.2096098000184,1833.2096098000184,1833.2096098000184,1833.2096098000184,1833.197205780074,5.95600290002767,return,5.799188400036655,stimuli/alien_stimuli/16.png,16,4,2,,,,,,,,,,,,,,,,,,,,,,,,,,,,,,,,,,,,,,,,,,,,,,,,,,,,,,,,,,,,,,,,,,,,,,,,,,,,,,,,,,,,,,,,,98P29L,train_x,red_square,bottom_left,2025-05-23_17h03.29.089,HideSeek_v1,2022.2.5,59.93683856700536,
,,,,,,,,,,,30,,,,1,0,1,0,,,,,,,,,,,,,,,,,,,,,,,,,,,,,,,,,,,,,,,,,,,,,,,,,,,,,,,,,,,,,,,,,,,,,,,,,,,,,,21,0.7,0,0,99,1,30,0,conditions/schedules/train_x_first/red_square_00/bottom_left/inputTrain_1.1.xlsx,99,1,1,1,0,,,,,,,,,,,,,,,,,,,,,,,,,,,,,,,,,,,,,,,,,,,,,,,,,,,,,,,,,,,,,,,,,,,,,,,,,,,98P29L,train_x,red_square,bottom_left,2025-05-23_17h03.29.089,HideSeek_v1,2022.2.5,59.93683856700536,
,,,,,,,,,,,,,,,2,0,2,0,0,0,0,0,,,,,,,,,,,,,,,,,,,,,,,,,,,,,,,conditions/schedules/train_x_first/red_square_00/bottom_left/instructions/Slide15.png,conditions/schedules/train_x_first/red_square_00/bottom_left/instructions/Audio15.wav,1839.1827809000388,1839.184693800169,15,"[4.99449019995518, 18.16219370008912, 18.217754099983722, 19.26971409993712, 4.387430599890649, 4.93242409999948, 5.6019704000791535, 13.954265600070357, 5.886185500072315, 6.817121300031431, 11.352088499930687, 12.471175100072287, 16.740096000023186, 12.858038599952124, 30.490315899951383]","[0.00022110005374997854, 0.06943390006199479, 0.00022209994494915009, 0.05218889995012432, 0.03114650002680719, 0.047520400024950504, 0.01478960004169494, 0.014149600057862699, 0.06074840005021542, 0.03753820003475994, 11.352098200004548, 12.471185000031255, 0.030976300011388958, 12.858048300025985, 30.490325000020675]",0,,,,,,,,,,,,,,,,,,,,,,,,,,,,,,,,,,,,,,,,,,,,,,,,,,,,,,,,,,,,,,,,,,,,,,,,,,,,,,,,,,,,,,,,,,,,,,,,,,,,,,,,,,,,,,,,,,,,,,,,,,,,98P29L,train_x,red_square,bottom_left,2025-05-23_17h03.29.089,HideSeek_v1,2022.2.5,59.93683856700536,
,,,,,,,,,,,,,,,2,0,2,0,1,0,1,0,,,,,,,,,,,,,,,,,,,,,,,,,,,,,,,conditions/schedules/train_x_first/red_square_00/bottom_left/instructions/Slide16.png,conditions/schedules/train_x_first/red_square_00/bottom_left/instructions/Audio16.wav,1869.7488831999945,1869.7439774000668,16,"[4.99449019995518, 18.16219370008912, 18.217754099983722, 19.26971409993712, 4.387430599890649, 4.93242409999948, 5.6019704000791535, 13.954265600070357, 5.886185500072315, 6.817121300031431, 11.352088499930687, 12.471175100072287, 16.740096000023186, 12.858038599952124, 30.490315899951383, 21.9777678999817]","[0.00022110005374997854, 0.06943390006199479, 0.00022209994494915009, 0.05218889995012432, 0.03114650002680719, 0.047520400024950504, 0.01478960004169494, 0.014149600057862699, 0.06074840005021542, 0.03753820003475994, 11.352098200004548, 12.471185000031255, 0.030976300011388958, 12.858048300025985, 0.014619600027799606, 21.97777799994219]",0,,,,,,,,,,,,,,,,,,,,,,,,,,,,,,,,,,,,,,,,,,,,,,,,,,,,,,,,,,,,,,,,,,,,,,,,,,,,,,,,,,,,,,,,,,,,,,,,,,,,,,,,,,,,,,,,,,,,,,,,,,,,98P29L,train_x,red_square,bottom_left,2025-05-23_17h03.29.089,HideSeek_v1,2022.2.5,59.93683856700536,
,2,1,5,1,3,0,46,,train_dim1_1,1,30,,,,2,0,2,0,,,,,,,,,0,0,0,0,0,0,0,0,0,0,0,0,,,,,,,,,,,,,,,,,,,,,,,,,stimuli/alien_stimuli/46.png,,,,,,,,,,,,,,,,,,,,,,,,,,,,,,,,,,,,,,,30,,,,,,,,1891.8297484000213,1891.8297484000213,1891.8297484000213,1891.8297484000213,1891.8297484000213,up,3.039550199988298,0,0,0,99,0,-0.24,up,2.9466248999815434,,,,,,,,,,,,,,,,,,,,,,,,,,,,,,,,,,,,,,,,,,,,,,,,,,,,,,,,,,,,98P29L,train_x,red_square,bottom_left,2025-05-23_17h03.29.089,HideSeek_v1,2022.2.5,59.93683856700536,
,2,1,5,1,3,0,46,,train_dim1_1,1,30,,,,2,0,2,0,,,,,,,,,0,0,0,0,0,0,0,0,1,0,1,0,,,,,,,,,,,,,,,,,,,,,,,,,,,,,,,,,,,,,,,,,,,,,,,,,,,,,,,,,,,,,,,,30,,,,,,,,1894.8678691000678,1894.8678691000678,1894.8678691000678,1894.8678691000678,1894.8678691000678,right,2.5273586999392137,0,0,0,99,0.08,-0.24,right,2.436188800027594,,,,,,,,,,,,,,,,,,,,,,,,,,,,,,,,,,,,,,,,,,,,,,,,,,,,,,,,,,,,98P29L,train_x,red_square,bottom_left,2025-05-23_17h03.29.089,HideSeek_v1,2022.2.5,59.93683856700536,
,2,1,5,1,3,0,46,,train_dim1_1,1,30,,,,2,0,2,0,,,,,,,,,0,0,0,0,0,0,0,0,2,0,2,0,,,,,,,,,,,,,,,,,,,,,,,,,,,,,,,,,,,,,,,,,,,,,,,,,,,,,,,,,,,,,,,,30,,,,,,,,1897.4035135000013,1897.4035135000013,1897.4035135000013,1897.4035135000013,1897.4035135000013,up,0.6604072001064196,0,0,0,99,0.08,-0.15999999999999998,up,0.567897200002335,,,,,,,,,,,,,,,,,,,,,,,,,,,,,,,,,,,,,,,,,,,,,,,,,,,,,,,,,,,,98P29L,train_x,red_square,bottom_left,2025-05-23_17h03.29.089,HideSeek_v1,2022.2.5,59.93683856700536,
,2,1,5,1,3,0,46,,train_dim1_1,1,30,,,,2,0,2,0,,,,,,,,,0,0,0,0,0,0,0,0,3,0,3,0,,,,,,,,,,,,,,,,,,,,,,,,,,,,,,,,,,,,,,,,,,,,,,,,,,,,,,,,,,,,,,,,30,,,,,,,,1898.0663672999945,1898.0663672999945,1898.0663672999945,1898.0663672999945,1898.0663672999945,right,1.4605118000181392,0,0,0,99,0.16,-0.15999999999999998,right,1.3823846000013873,,,,,,,,,,,,,,,,,,,,,,,,,,,,,,,,,,,,,,,,,,,,,,,,,,,,,,,,,,,,98P29L,train_x,red_square,bottom_left,2025-05-23_17h03.29.089,HideSeek_v1,2022.2.5,59.93683856700536,
,2,1,5,1,3,0,46,,train_dim1_1,1,30,,,,2,0,2,0,,,,,,,,,0,0,0,0,0,0,0,0,4,0,4,0,,,,,,,,,,,,,,,,,,,,,,,,,,,,,,,,,,,,,,,,,,,,,,,,,,,,,,,,,,,,,,,,30,,,,,,,,1899.5394399000797,1899.5394399000797,1899.5394399000797,1899.5394399000797,1899.5394399000797,right,2.92842680006288,0,0,0,99,0.24,-0.15999999999999998,right,2.8403011000482365,,,,,,,,,,,,,,,,,,,,,,,,,,,,,,,,,,,,,,,,,,,,,,,,,,,,,,,,,,,,98P29L,train_x,red_square,bottom_left,2025-05-23_17h03.29.089,HideSeek_v1,2022.2.5,59.93683856700536,
,2,1,5,1,3,0,46,,train_dim1_1,1,30,,,,2,0,2,0,,,,,,,,,0,0,0,0,0,0,0,0,5,0,5,0,,,,,,,,,,,,,,,,,,,,,,,,,,,,,,,,,,,,,,,,,,,,,,,,,,,,,,,,,,,,,,,,30,,,,,,,,1902.4749491000548,1902.4749491000548,1902.4749491000548,1902.4749491000548,1902.4749491000548,right,0.5428825999842957,0,0,0,99,0.32,-0.15999999999999998,right,0.4555499000707641,,,,,,,,,,,,,,,,,,,,,,,,,,,,,,,,,,,,,,,,,,,,,,,,,,,,,,,,,,,,98P29L,train_x,red_square,bottom_left,2025-05-23_17h03.29.089,HideSeek_v1,2022.2.5,59.93683856700536,
,2,1,5,1,3,0,46,,train_dim1_1,1,30,,,,2,0,2,0,,,,,,,,,0,0,0,0,0,0,0,0,6,0,6,0,,,,,,,,,,,,,,,,,,,,,,,,,,,,,,,,,,,,,,,,,,,,,,,,,,,,,,,,,,,,,,,,30,,,,,,,,1903.0214922000887,1903.0214922000887,1903.0214922000887,1903.0214922000887,1903.0214922000887,return,1.0766212999587879,0,0,0,0,0.32,-0.15999999999999998,return,0.9953316999599338,2,4,0.32,-0.15999999999999998,,,,,,,,,,,,,,,,,,,,,,,,,,,,,,,,,,,,,,,,,,,,,,,,,,,,,,,,98P29L,train_x,red_square,bottom_left,2025-05-23_17h03.29.089,HideSeek_v1,2022.2.5,59.93683856700536,
,2,4,2,4,0,0,16,,train_dim1_1,2,30,,,,2,0,2,0,,,,,,,,,0,0,0,0,0,1,1,1,0,0,0,0,,,,,,,,,,,,,,,,,,,,,,,,,stimuli/alien_stimuli/16.png,,,,,,,,,,,,,,,,,,,,,,,,,,,,,stimuli/alien_stimuli/46.png,46,2,3,,,,,,,30,,,,,,,,1930.309466100065,1930.309466100065,1930.309466100065,1930.309466100065,1930.309466100065,down,4.135442099999636,0,0,0,99,0,-0.16,down,4.037139600026421,,,,,1928.7258998000761,1930.309466100065,0.24,-0.32,0.0,0.24,-0.32,0.24,0.12,0.24,-0.32,1905.6709900000133,1905.6709900000133,1905.6709900000133,1905.6709900000133,1905.6709900000133,1905.6709900000133,1905.6709900000133,1905.6709900000133,1905.657376820047,23.171206300030462,return,23.033245699945837,,,,,,,,,,,,,,,,,,,,,,,,,,,,,,,,,98P29L,train_x,red_square,bottom_left,2025-05-23_17h03.29.089,HideSeek_v1,2022.2.5,59.93683856700536,
,2,4,2,4,0,0,16,,train_dim1_1,2,30,,,,2,0,2,0,,,,,,,,,0,0,0,0,0,1,1,1,1,0,1,0,,,,,,,,,,,,,,,,,,,,,,,,,,,,,,,,,,,,,,,,,,,,,,,,,,,,,,,,,,,,,,,,30,,,,,,,,1934.4336019000039,1934.4336019000039,1934.4336019000039,1934.4336019000039,1934.4336019000039,down,1.0436147999716923,0,0,0,99,0,-0.24,down,0.9565962000051513,,,,,,,,,,,,,,,,,,,,,,,,,,,,,,,,,,,,,,,,,,,,,,,,,,,,,,,,,,,,98P29L,train_x,red_square,bottom_left,2025-05-23_17h03.29.089,HideSeek_v1,2022.2.5,59.93683856700536,
,2,4,2,4,0,0,16,,train_dim1_1,2,30,,,,2,0,2,0,,,,,,,,,0,0,0,0,0,1,1,1,2,0,2,0,,,,,,,,,,,,,,,,,,,,,,,,,,,,,,,,,,,,,,,,,,,,,,,,,,,,,,,,,,,,,,,,30,,,,,,,,1935.4855537000112,1935.4855537000112,1935.4855537000112,1935.4855537000112,1935.4855537000112,down,0.3929643000010401,0,0,0,99,0,-0.32,down,0.30494579998776317,,,,,,,,,,,,,,,,,,,,,,,,,,,,,,,,,,,,,,,,,,,,,,,,,,,,,,,,,,,,98P29L,train_x,red_square,bottom_left,2025-05-23_17h03.29.089,HideSeek_v1,2022.2.5,59.93683856700536,
,2,4,2,4,0,0,16,,train_dim1_1,2,30,,,,2,0,2,0,,,,,,,,,0,0,0,0,0,1,1,1,3,0,3,0,,,,,,,,,,,,,,,,,,,,,,,,,,,,,,,,,,,,,,,,,,,,,,,,,,,,,,,,,,,,,,,,30,,,,,,,,1935.8864772000816,1935.8864772000816,1935.8864772000816,1935.8864772000816,1935.8864772000816,down,1.4110936999786645,0,0,0,99,0,-0.4,down,1.3238648999249563,,,,,,,,,,,,,,,,,,,,,,,,,,,,,,,,,,,,,,,,,,,,,,,,,,,,,,,,,,,,98P29L,train_x,red_square,bottom_left,2025-05-23_17h03.29.089,HideSeek_v1,2022.2.5,59.93683856700536,
,2,4,2,4,0,0,16,,train_dim1_1,2,30,,,,2,0,2,0,,,,,,,,,0,0,0,0,0,1,1,1,4,0,4,0,,,,,,,,,,,,,,,,,,,,,,,,,,,,,,,,,,,,,,,,,,,,,,,,,,,,,,,,,,,,,,,,30,,,,,,,,1937.302816700074,1937.302816700074,1937.302816700074,1937.302816700074,1937.302816700074,return,1.0768398999935016,0,0,0,0,0,-0.4,return,0.9904589999932796,-2,4,0,-0.4,,,,,,,,,,,,,,,,,,,,,,,,,,,,,,,,,,,,,,,,,,,,,,,,,,,,,,,,98P29L,train_x,red_square,bottom_left,2025-05-23_17h03.29.089,HideSeek_v1,2022.2.5,59.93683856700536,
,4,4,5,4,1,0,26,,train_dim1_1,3,30,,,,2,0,2,0,,,,,,,,,0,0,0,0,0,2,2,2,0,0,0,0,,,,,,,,,,,,,,,,,,,,,,,,,stimuli/alien_stimuli/26.png,,,,,,,,,,,,,,,,,,,,,,,,,,,,,stimuli/alien_stimuli/16.png,16,2,4,,,,,,,30,,,,,,,,1947.8624972000252,1947.8624972000252,1947.8624972000252,1947.8624972000252,1947.8624972000252,up,5.050307600060478,0,0,0,99,0.16,0.0,up,4.958376699942164,,,,,1946.2900800000643,1947.8624972000252,0,-0.08,0.0,0.0,-0.08,0,0.0,0,-0.08,1939.9791985000484,1939.9791985000484,1939.9791985000484,1939.9791985000484,1939.9791985000484,1939.9791985000484,1939.9791985000484,1939.9791985000484,1939.9674710801337,6.442892799968831,return,6.295395299908705,,,,,,,,,,,,,,,,,,,,,,,,,,,,,,,,,98P29L,train_x,red_square,bottom_left,2025-05-23_17h03.29.089,HideSeek_v1,2022.2.5,59.93683856700536,
,4,4,5,4,1,0,26,,train_dim1_1,3,30,,,,2,0,2,0,,,,,,,,,0,0,0,0,0,2,2,2,1,0,1,0,,,,,,,,,,,,,,,,,,,,,,,,,,,,,,,,,,,,,,,,,,,,,,,,,,,,,,,,,,,,,,,,30,,,,,,,,1952.9162396000465,1952.9162396000465,1952.9162396000465,1952.9162396000465,1952.9162396000465,right,4.430665299994871,0,0,0,99,0.24,0.0,right,4.344294399954379,,,,,,,,,,,,,,,,,,,,,,,,,,,,,,,,,,,,,,,,,,,,,,,,,,,,,,,,,,,,98P29L,train_x,red_square,bottom_left,2025-05-23_17h03.29.089,HideSeek_v1,2022.2.5,59.93683856700536,
,4,4,5,4,1,0,26,,train_dim1_1,3,30,,,,2,0,2,0,,,,,,,,,0,0,0,0,0,2,2,2,2,0,2,0,,,,,,,,,,,,,,,,,,,,,,,,,,,,,,,,,,,,,,,,,,,,,,,,,,,,,,,,,,,,,,,,30,,,,,,,,1957.3532293000026,1957.3532293000026,1957.3532293000026,1957.3532293000026,1957.3532293000026,return,2.244944900041446,0,1,0,0,0.24,0.0,return,2.149793899967335,-1,5,0.24,0.0,,,,,,,,,,,,,,,,,,,,,,,,,,,,,,,,,,,,,,,,,,,,,,,,,,,,,,,,98P29L,train_x,red_square,bottom_left,2025-05-23_17h03.29.089,HideSeek_v1,2022.2.5,59.93683856700536,
,2,3,6,3,4,0,56,,train_dim1_1,4,30,,,,2,0,2,0,,,,,,,,,0,0,0,0,0,3,3,3,0,0,0,0,,,,,,,,,,,,,,,,,,,,,,,,,stimuli/alien_stimuli/56.png,,,,,,,,,,,,,,,,,,,,,,,,,,,,,stimuli/alien_stimuli/26.png,26,4,5,,,,,,,30,,,,,,,,1982.2680882000132,1982.2680882000132,1982.2680882000132,1982.2680882000132,1982.2680882000132,down,2.917009099968709,0,1,0,99,0,-0.24,down,2.8158455999800935,,,,,1980.6855786000378,1982.2680882000132,0.24,-0.08,0.0,0.08,-0.08,0.24,0.2,0.24,-0.08,1961.1850959000876,1961.1850959000876,1961.1850959000876,1961.1850959000876,1961.1850959000876,1961.1850959000876,1961.1850959000876,1961.1850959000876,1961.1700970800593,19.63477010000497,return,19.473520200001076,,,,,,,,,,,,,,,,,,,,,,,,,,,,,,,,,98P29L,train_x,red_square,bottom_left,2025-05-23_17h03.29.089,HideSeek_v1,2022.2.5,59.93683856700536,
,2,3,6,3,4,0,56,,train_dim1_1,4,30,,,,2,0,2,0,,,,,,,,,0,0,0,0,0,3,3,3,1,0,1,0,,,,,,,,,,,,,,,,,,,,,,,,,,,,,,,,,,,,,,,,,,,,,,,,,,,,,,,,,,,,,,,,30,,,,,,,,1985.176189300022,1985.176189300022,1985.176189300022,1985.176189300022,1985.176189300022,up,3.8287407000316307,0,1,0,99,0,-0.15999999999999998,up,3.747776100062765,,,,,,,,,,,,,,,,,,,,,,,,,,,,,,,,,,,,,,,,,,,,,,,,,,,,,,,,,,,,98P29L,train_x,red_square,bottom_left,2025-05-23_17h03.29.089,HideSeek_v1,2022.2.5,59.93683856700536,
,2,3,6,3,4,0,56,,train_dim1_1,4,30,,,,2,0,2,0,,,,,,,,,0,0,0,0,0,3,3,3,2,0,2,0,,,,,,,,,,,,,,,,,,,,,,,,,,,,,,,,,,,,,,,,,,,,,,,,,,,,,,,,,,,,,,,,30,,,,,,,,1989.0108409000095,1989.0108409000095,1989.0108409000095,1989.0108409000095,1989.0108409000095,right,1.0437366999685764,0,1,0,99,0.08,-0.15999999999999998,right,0.9657923999475315,,,,,,,,,,,,,,,,,,,,,,,,,,,,,,,,,,,,,,,,,,,,,,,,,,,,,,,,,,,,98P29L,train_x,red_square,bottom_left,2025-05-23_17h03.29.089,HideSeek_v1,2022.2.5,59.93683856700536,
,2,3,6,3,4,0,56,,train_dim1_1,4,30,,,,2,0,2,0,,,,,,,,,0,0,0,0,0,3,3,3,3,0,3,0,,,,,,,,,,,,,,,,,,,,,,,,,,,,,,,,,,,,,,,,,,,,,,,,,,,,,,,,,,,,,,,,30,,,,,,,,1990.06141319999,1990.06141319999,1990.06141319999,1990.06141319999,1990.06141319999,return,1.6609016000293195,0,0,0,0,0.08,-0.15999999999999998,return,1.5748207999859005,-1,6,0.08,-0.15999999999999998,,,,,,,,,,,,,,,,,,,,,,,,,,,,,,,,,,,,,,,,,,,,,,,,,,,,,,,,98P29L,train_x,red_square,bottom_left,2025-05-23_17h03.29.089,HideSeek_v1,2022.2.5,59.93683856700536,
,0,2,5,2,5,0,66,,train_dim1_1,5,30,,,,2,0,2,0,,,,,,,,,0,0,0,0,0,4,4,4,0,0,0,0,,,,,,,,,,,,,,,,,,,,,,,,,stimuli/alien_stimuli/66.png,,,,,,,,,,,,,,,,,,,,,,,,,,,,,stimuli/alien_stimuli/56.png,56,2,6,,,,,,,30,,,,,,,,1999.366166700027,1999.366166700027,1999.366166700027,1999.366166700027,1999.366166700027,right,3.7179675000952557,0,0,0,99,-0.08,-0.24,right,3.6318155999761075,,,,,1997.7995062000118,1999.366166700027,0.32,-0.16,0.0,0.32,-0.16,0.32,0.16,0.32,-0.16,1993.299938500044,1993.299938500044,1993.299938500044,1993.299938500044,1993.299938500044,1993.299938500044,1993.299938500044,1993.299938500044,1993.2797913201503,4.62227030005306,return,4.477671900065616,,,,,,,,,,,,,,,,,,,,,,,,,,,,,,,,,98P29L,train_x,red_square,bottom_left,2025-05-23_17h03.29.089,HideSeek_v1,2022.2.5,59.93683856700536,
,0,2,5,2,5,0,66,,train_dim1_1,5,30,,,,2,0,2,0,,,,,,,,,0,0,0,0,0,4,4,4,1,0,1,0,,,,,,,,,,,,,,,,,,,,,,,,,,,,,,,,,,,,,,,,,,,,,,,,,,,,,,,,,,,,,,,,30,,,,,,,,2003.0861233000178,2003.0861233000178,2003.0861233000178,2003.0861233000178,2003.0861233000178,right,0.8268653999548405,0,0,0,99,0.0,-0.24,right,0.7420006999745965,,,,,,,,,,,,,,,,,,,,,,,,,,,,,,,,,,,,,,,,,,,,,,,,,,,,,,,,,,,,98P29L,train_x,red_square,bottom_left,2025-05-23_17h03.29.089,HideSeek_v1,2022.2.5,59.93683856700536,
,0,2,5,2,5,0,66,,train_dim1_1,5,30,,,,2,0,2,0,,,,,,,,,0,0,0,0,0,4,4,4,2,0,2,0,,,,,,,,,,,,,,,,,,,,,,,,,,,,,,,,,,,,,,,,,,,,,,,,,,,,,,,,,,,,,,,,30,,,,,,,,2003.9215752000455,2003.9215752000455,2003.9215752000455,2003.9215752000455,2003.9215752000455,right,0.3763885999796912,0,0,0,99,0.08,-0.24,right,0.2988213000353426,,,,,,,,,,,,,,,,,,,,,,,,,,,,,,,,,,,,,,,,,,,,,,,,,,,,,,,,,,,,98P29L,train_x,red_square,bottom_left,2025-05-23_17h03.29.089,HideSeek_v1,2022.2.5,59.93683856700536,
,0,2,5,2,5,0,66,,train_dim1_1,5,30,,,,2,0,2,0,,,,,,,,,0,0,0,0,0,4,4,4,3,0,3,0,,,,,,,,,,,,,,,,,,,,,,,,,,,,,,,,,,,,,,,,,,,,,,,,,,,,,,,,,,,,,,,,30,,,,,,,,2004.3034335999982,2004.3034335999982,2004.3034335999982,2004.3034335999982,2004.3034335999982,right,0.34283700003288686,0,0,0,99,0.16,-0.24,right,0.25887630006764084,,,,,,,,,,,,,,,,,,,,,,,,,,,,,,,,,,,,,,,,,,,,,,,,,,,,,,,,,,,,98P29L,train_x,red_square,bottom_left,2025-05-23_17h03.29.089,HideSeek_v1,2022.2.5,59.93683856700536,
,0,2,5,2,5,0,66,,train_dim1_1,5,30,,,,2,0,2,0,,,,,,,,,0,0,0,0,0,4,4,4,4,0,4,0,,,,,,,,,,,,,,,,,,,,,,,,,,,,,,,,,,,,,,,,,,,,,,,,,,,,,,,,,,,,,,,,30,,,,,,,,2004.6540440000826,2004.6540440000826,2004.6540440000826,2004.6540440000826,2004.6540440000826,right,0.32654760009609163,0,0,0,99,0.24,-0.24,right,0.24297929997555912,,,,,,,,,,,,,,,,,,,,,,,,,,,,,,,,,,,,,,,,,,,,,,,,,,,,,,,,,,,,98P29L,train_x,red_square,bottom_left,2025-05-23_17h03.29.089,HideSeek_v1,2022.2.5,59.93683856700536,
,0,2,5,2,5,0,66,,train_dim1_1,5,30,,,,2,0,2,0,,,,,,,,,0,0,0,0,0,4,4,4,5,0,5,0,,,,,,,,,,,,,,,,,,,,,,,,,,,,,,,,,,,,,,,,,,,,,,,,,,,,,,,,,,,,,,,,30,,,,,,,,2004.9868890000507,2004.9868890000507,2004.9868890000507,2004.9868890000507,2004.9868890000507,left,1.9280184999806806,0,0,0,99,0.15999999999999998,-0.24,left,1.8385534000117332,,,,,,,,,,,,,,,,,,,,,,,,,,,,,,,,,,,,,,,,,,,,,,,,,,,,,,,,,,,,98P29L,train_x,red_square,bottom_left,2025-05-23_17h03.29.089,HideSeek_v1,2022.2.5,59.93683856700536,
,0,2,5,2,5,0,66,,train_dim1_1,5,30,,,,2,0,2,0,,,,,,,,,0,0,0,0,0,4,4,4,6,0,6,0,,,,,,,,,,,,,,,,,,,,,,,,,,,,,,,,,,,,,,,,,,,,,,,,,,,,,,,,,,,,,,,,30,,,,,,,,2006.9222495000577,2006.9222495000577,2006.9222495000577,2006.9222495000577,2006.9222495000577,up,0.9809221000177786,0,0,0,99,0.15999999999999998,-0.15999999999999998,up,0.8942847999278456,,,,,,,,,,,,,,,,,,,,,,,,,,,,,,,,,,,,,,,,,,,,,,,,,,,,,,,,,,,,98P29L,train_x,red_square,bottom_left,2025-05-23_17h03.29.089,HideSeek_v1,2022.2.5,59.93683856700536,
,0,2,5,2,5,0,66,,train_dim1_1,5,30,,,,2,0,2,0,,,,,,,,,0,0,0,0,0,4,4,4,7,0,7,0,,,,,,,,,,,,,,,,,,,,,,,,,,,,,,,,,,,,,,,,,,,,,,,,,,,,,,,,,,,,,,,,30,,,,,,,,2007.9313573000254,2007.9313573000254,2007.9313573000254,2007.9313573000254,2007.9313573000254,return,0.5912949000485241,0,0,0,0,0.15999999999999998,-0.15999999999999998,return,0.5040081000188366,0,10,0.15999999999999998,-0.15999999999999998,,,,,,,,,,,,,,,,,,,,,,,,,,,,,,,,,,,,,,,,,,,,,,,,,,,,,,,,98P29L,train_x,red_square,bottom_left,2025-05-23_17h03.29.089,HideSeek_v1,2022.2.5,59.93683856700536,
,0,0,1,0,1,0,26,,train_dim1_1,6,30,,,,2,0,2,0,,,,,,,,,0,0,0,0,0,5,5,5,0,0,0,0,,,,,,,,,,,,,,,,,,,,,,,,,stimuli/alien_stimuli/26.png,,,,,,,,,,,,,,,,,,,,,,,,,,,,,stimuli/alien_stimuli/66.png,66,0,7,,,,,,,30,,,,,,,,2020.9196156000253,2020.9196156000253,2020.9196156000253,2020.9196156000253,2020.9196156000253,right,2.7985118000069633,0,0,0,99,-0.08,-0.4,right,2.691862899926491,,,,,2019.3343614999903,2020.9196156000253,0.24,-0.24,0.0,0.4,-0.24,0.24,0.039999999999999994,0.24,-0.24,2010.0960063000675,2010.0960063000675,2010.0960063000675,2010.0960063000675,2010.0960063000675,2010.0960063000675,2010.0960063000675,2010.0960063000675,2010.0758648201008,9.361557699972764,return,9.207000000053085,,,,,,,,,,,,,,,,,,,,,,,,,,,,,,,,,98P29L,train_x,red_square,bottom_left,2025-05-23_17h03.29.089,HideSeek_v1,2022.2.5,59.93683856700536,
,0,0,1,0,1,0,26,,train_dim1_1,6,30,,,,2,0,2,0,,,,,,,,,0,0,0,0,0,5,5,5,1,0,1,0,,,,,,,,,,,,,,,,,,,,,,,,,,,,,,,,,,,,,,,,,,,,,,,,,,,,,,,,,,,,,,,,30,,,,,,,,2023.7085596000543,2023.7085596000543,2023.7085596000543,2023.7085596000543,2023.7085596000543,right,0.6443103000055999,0,0,0,99,0.0,-0.4,right,0.5573522999184206,,,,,,,,,,,,,,,,,,,,,,,,,,,,,,,,,,,,,,,,,,,,,,,,,,,,,,,,,,,,98P29L,train_x,red_square,bottom_left,2025-05-23_17h03.29.089,HideSeek_v1,2022.2.5,59.93683856700536,
,0,0,1,0,1,0,26,,train_dim1_1,6,30,,,,2,0,2,0,,,,,,,,,0,0,0,0,0,5,5,5,2,0,2,0,,,,,,,,,,,,,,,,,,,,,,,,,,,,,,,,,,,,,,,,,,,,,,,,,,,,,,,,,,,,,,,,30,,,,,,,,2024.3586437000195,2024.3586437000195,2024.3586437000195,2024.3586437000195,2024.3586437000195,right,1.0608265999471769,0,0,0,99,0.08,-0.4,right,0.9791385000571609,,,,,,,,,,,,,,,,,,,,,,,,,,,,,,,,,,,,,,,,,,,,,,,,,,,,,,,,,,,,98P29L,train_x,red_square,bottom_left,2025-05-23_17h03.29.089,HideSeek_v1,2022.2.5,59.93683856700536,
,0,0,1,0,1,0,26,,train_dim1_1,6,30,,,,2,0,2,0,,,,,,,,,0,0,0,0,0,5,5,5,3,0,3,0,,,,,,,,,,,,,,,,,,,,,,,,,,,,,,,,,,,,,,,,,,,,,,,,,,,,,,,,,,,,,,,,30,,,,,,,,2025.4275792000117,2025.4275792000117,2025.4275792000117,2025.4275792000117,2025.4275792000117,right,2.0441885999171063,0,0,0,99,0.16,-0.4,right,1.9470042999600992,,,,,,,,,,,,,,,,,,,,,,,,,,,,,,,,,,,,,,,,,,,,,,,,,,,,,,,,,,,,98P29L,train_x,red_square,bottom_left,2025-05-23_17h03.29.089,HideSeek_v1,2022.2.5,59.93683856700536,
,0,0,1,0,1,0,26,,train_dim1_1,6,30,,,,2,0,2,0,,,,,,,,,0,0,0,0,0,5,5,5,4,0,4,0,,,,,,,,,,,,,,,,,,,,,,,,,,,,,,,,,,,,,,,,,,,,,,,,,,,,,,,,,,,,,,,,30,,,,,,,,2027.4790080999956,2027.4790080999956,2027.4790080999956,2027.4790080999956,2027.4790080999956,up,1.2440126000437886,0,0,0,99,0.16,-0.32,up,1.1530985001008958,,,,,,,,,,,,,,,,,,,,,,,,,,,,,,,,,,,,,,,,,,,,,,,,,,,,,,,,,,,,98P29L,train_x,red_square,bottom_left,2025-05-23_17h03.29.089,HideSeek_v1,2022.2.5,59.93683856700536,
,0,0,1,0,1,0,26,,train_dim1_1,6,30,,,,2,0,2,0,,,,,,,,,0,0,0,0,0,5,5,5,5,0,5,0,,,,,,,,,,,,,,,,,,,,,,,,,,,,,,,,,,,,,,,,,,,,,,,,,,,,,,,,,,,,,,,,30,,,,,,,,2028.7318494000938,2028.7318494000938,2028.7318494000938,2028.7318494000938,2028.7318494000938,up,1.7925549000501633,0,0,0,99,0.16,-0.24,up,1.7077532999683172,,,,,,,,,,,,,,,,,,,,,,,,,,,,,,,,,,,,,,,,,,,,,,,,,,,,,,,,,,,,98P29L,train_x,red_square,bottom_left,2025-05-23_17h03.29.089,HideSeek_v1,2022.2.5,59.93683856700536,
,0,0,1,0,1,0,26,,train_dim1_1,6,30,,,,2,0,2,0,,,,,,,,,0,0,0,0,0,5,5,5,6,0,6,0,,,,,,,,,,,,,,,,,,,,,,,,,,,,,,,,,,,,,,,,,,,,,,,,,,,,,,,,,,,,,,,,30,,,,,,,,2030.5305732000852,2030.5305732000852,2030.5305732000852,2030.5305732000852,2030.5305732000852,return,0.5594777999212965,0,0,0,0,0.16,-0.24,return,0.4783682000124827,2,14,0.16,-0.24,,,,,,,,,,,,,,,,,,,,,,,,,,,,,,,,,,,,,,,,,,,,,,,,,,,,,,,,98P29L,train_x,red_square,bottom_left,2025-05-23_17h03.29.089,HideSeek_v1,2022.2.5,59.93683856700536,
,3,0,8,0,5,0,66,,train_dim1_1,7,30,,,,2,0,2,0,,,,,,,,,0,0,0,0,0,6,6,6,0,0,0,0,,,,,,,,,,,,,,,,,,,,,,,,,stimuli/alien_stimuli/66.png,,,,,,,,,,,,,,,,,,,,,,,,,,,,,stimuli/alien_stimuli/26.png,26,0,8,,,,,,,30,,,,,,,,2041.3350376000162,2041.3350376000162,2041.3350376000162,2041.3350376000162,2041.3350376000162,right,7.454027699888684,0,0,0,99,0.16,-0.4,right,7.374230200075544,,,,,2039.7680467000464,2041.3350376000162,-0.08,-0.4,0.0,0.08,-0.4,-0.08,-0.12,-0.08,-0.4,2032.6706054999959,2032.6706054999959,2032.6706054999959,2032.6706054999959,2032.6706054999959,2032.6706054999959,2032.6706054999959,2032.6706054999959,2032.6624387800694,7.224645199952647,return,7.070096299983561,,,,,,,,,,,,,,,,,,,,,,,,,,,,,,,,,98P29L,train_x,red_square,bottom_left,2025-05-23_17h03.29.089,HideSeek_v1,2022.2.5,59.93683856700536,
,3,0,8,0,5,0,66,,train_dim1_1,7,30,,,,2,0,2,0,,,,,,,,,0,0,0,0,0,6,6,6,1,0,1,0,,,,,,,,,,,,,,,,,,,,,,,,,,,,,,,,,,,,,,,,,,,,,,,,,,,,,,,,,,,,,,,,30,,,,,,,,2048.7945003000787,2048.7945003000787,2048.7945003000787,2048.7945003000787,2048.7945003000787,right,1.1433859000680968,0,0,0,99,0.24,-0.4,right,1.0518043000483885,,,,,,,,,,,,,,,,,,,,,,,,,,,,,,,,,,,,,,,,,,,,,,,,,,,,,,,,,,,,98P29L,train_x,red_square,bottom_left,2025-05-23_17h03.29.089,HideSeek_v1,2022.2.5,59.93683856700536,
,3,0,8,0,5,0,66,,train_dim1_1,7,30,,,,2,0,2,0,,,,,,,,,0,0,0,0,0,6,6,6,2,0,2,0,,,,,,,,,,,,,,,,,,,,,,,,,,,,,,,,,,,,,,,,,,,,,,,,,,,,,,,,,,,,,,,,30,,,,,,,,2049.9433001000434,2049.9433001000434,2049.9433001000434,2049.9433001000434,2049.9433001000434,right,2.5430980999954045,0,0,0,99,0.32,-0.4,right,2.4535073000006378,,,,,,,,,,,,,,,,,,,,,,,,,,,,,,,,,,,,,,,,,,,,,,,,,,,,,,,,,,,,98P29L,train_x,red_square,bottom_left,2025-05-23_17h03.29.089,HideSeek_v1,2022.2.5,59.93683856700536,
,3,0,8,0,5,0,66,,train_dim1_1,7,30,,,,2,0,2,0,,,,,,,,,0,0,0,0,0,6,6,6,3,0,3,0,,,,,,,,,,,,,,,,,,,,,,,,,,,,,,,,,,,,,,,,,,,,,,,,,,,,,,,,,,,,,,,,30,,,,,,,,2052.492719000089,2052.492719000089,2052.492719000089,2052.492719000089,2052.492719000089,up,0.46109739993698895,0,0,0,99,0.32,-0.32,up,0.37571910000406206,,,,,,,,,,,,,,,,,,,,,,,,,,,,,,,,,,,,,,,,,,,,,,,,,,,,,,,,,,,,98P29L,train_x,red_square,bottom_left,2025-05-23_17h03.29.089,HideSeek_v1,2022.2.5,59.93683856700536,
,3,0,8,0,5,0,66,,train_dim1_1,7,30,,,,2,0,2,0,,,,,,,,,0,0,0,0,0,6,6,6,4,0,4,0,,,,,,,,,,,,,,,,,,,,,,,,,,,,,,,,,,,,,,,,,,,,,,,,,,,,,,,,,,,,,,,,30,,,,,,,,2052.9623716000933,2052.9623716000933,2052.9623716000933,2052.9623716000933,2052.9623716000933,up,0.47633639990817755,0,0,0,99,0.32,-0.24,up,0.3969037000788376,,,,,,,,,,,,,,,,,,,,,,,,,,,,,,,,,,,,,,,,,,,,,,,,,,,,,,,,,,,,98P29L,train_x,red_square,bottom_left,2025-05-23_17h03.29.089,HideSeek_v1,2022.2.5,59.93683856700536,
,3,0,8,0,5,0,66,,train_dim1_1,7,30,,,,2,0,2,0,,,,,,,,,0,0,0,0,0,6,6,6,5,0,5,0,,,,,,,,,,,,,,,,,,,,,,,,,,,,,,,,,,,,,,,,,,,,,,,,,,,,,,,,,,,,,,,,30,,,,,,,,2053.444476200035,2053.444476200035,2053.444476200035,2053.444476200035,2053.444476200035,up,1.3251670999452472,0,0,0,99,0.32,-0.15999999999999998,up,1.239459100062959,,,,,,,,,,,,,,,,,,,,,,,,,,,,,,,,,,,,,,,,,,,,,,,,,,,,,,,,,,,,98P29L,train_x,red_square,bottom_left,2025-05-23_17h03.29.089,HideSeek_v1,2022.2.5,59.93683856700536,
,3,0,8,0,5,0,66,,train_dim1_1,7,30,,,,2,0,2,0,,,,,,,,,0,0,0,0,0,6,6,6,6,0,6,0,,,,,,,,,,,,,,,,,,,,,,,,,,,,,,,,,,,,,,,,,,,,,,,,,,,,,,,,,,,,,,,,30,,,,,,,,2054.777140900027,2054.777140900027,2054.777140900027,2054.777140900027,2054.777140900027,return,1.361909400089644,0,0,0,0,0.32,-0.15999999999999998,return,1.2811257999856025,5,17,0.32,-0.15999999999999998,,,,,,,,,,,,,,,,,,,,,,,,,,,,,,,,,,,,,,,,,,,,,,,,,,,,,,,,98P29L,train_x,red_square,bottom_left,2025-05-23_17h03.29.089,HideSeek_v1,2022.2.5,59.93683856700536,
,0,4,3,4,3,0,46,,train_dim1_1,8,30,,,,2,0,2,0,,,,,,,,,0,0,0,0,0,7,7,7,0,0,0,0,,,,,,,,,,,,,,,,,,,,,,,,,stimuli/alien_stimuli/46.png,,,,,,,,,,,,,,,,,,,,,,,,,,,,,stimuli/alien_stimuli/66.png,66,3,9,,,,,,,30,,,,,,,,2064.00429479999,2064.00429479999,2064.00429479999,2064.00429479999,2064.00429479999,right,7.271369800087996,0,0,0,99,-0.08,-0.08,right,7.190137600060552,,,,,2062.437666999991,2064.00429479999,0.48,-0.4,0.0,0.4,-0.4,0.48,0.27999999999999997,0.48,-0.4,2057.719494600082,2057.719494600082,2057.719494600082,2057.719494600082,2057.719494600082,2057.719494600082,2057.719494600082,2057.719494600082,2057.70008762012,4.840461499989033,return,4.6921183000085875,,,,,,,,,,,,,,,,,,,,,,,,,,,,,,,,,98P29L,train_x,red_square,bottom_left,2025-05-23_17h03.29.089,HideSeek_v1,2022.2.5,59.93683856700536,
,0,4,3,4,3,0,46,,train_dim1_1,8,30,,,,2,0,2,0,,,,,,,,,0,0,0,0,0,7,7,7,1,0,1,0,,,,,,,,,,,,,,,,,,,,,,,,,,,,,,,,,,,,,,,,,,,,,,,,,,,,,,,,,,,,,,,,30,,,,,,,,2071.276828500093,2071.276828500093,2071.276828500093,2071.276828500093,2071.276828500093,right,0.5930162000004202,0,0,0,99,0.0,-0.08,right,0.5143365000840276,,,,,,,,,,,,,,,,,,,,,,,,,,,,,,,,,,,,,,,,,,,,,,,,,,,,,,,,,,,,98P29L,train_x,red_square,bottom_left,2025-05-23_17h03.29.089,HideSeek_v1,2022.2.5,59.93683856700536,
,0,4,3,4,3,0,46,,train_dim1_1,8,30,,,,2,0,2,0,,,,,,,,,0,0,0,0,0,7,7,7,2,0,2,0,,,,,,,,,,,,,,,,,,,,,,,,,,,,,,,,,,,,,,,,,,,,,,,,,,,,,,,,,,,,,,,,30,,,,,,,,2071.877607500064,2071.877607500064,2071.877607500064,2071.877607500064,2071.877607500064,left,2.1281065000221133,0,0,0,99,-0.08,-0.08,left,2.0524292000336573,,,,,,,,,,,,,,,,,,,,,,,,,,,,,,,,,,,,,,,,,,,,,,,,,,,,,,,,,,,,98P29L,train_x,red_square,bottom_left,2025-05-23_17h03.29.089,HideSeek_v1,2022.2.5,59.93683856700536,
,0,4,3,4,3,0,46,,train_dim1_1,8,30,,,,2,0,2,0,,,,,,,,,0,0,0,0,0,7,7,7,3,0,3,0,,,,,,,,,,,,,,,,,,,,,,,,,,,,,,,,,,,,,,,,,,,,,,,,,,,,,,,,,,,,,,,,30,,,,,,,,2074.0112431000452,2074.0112431000452,2074.0112431000452,2074.0112431000452,2074.0112431000452,up,3.544059499981813,0,0,0,99,-0.08,0.0,up,3.468323600012809,,,,,,,,,,,,,,,,,,,,,,,,,,,,,,,,,,,,,,,,,,,,,,,,,,,,,,,,,,,,98P29L,train_x,red_square,bottom_left,2025-05-23_17h03.29.089,HideSeek_v1,2022.2.5,59.93683856700536,
,0,4,3,4,3,0,46,,train_dim1_1,8,30,,,,2,0,2,0,,,,,,,,,0,0,0,0,0,7,7,7,4,0,4,0,,,,,,,,,,,,,,,,,,,,,,,,,,,,,,,,,,,,,,,,,,,,,,,,,,,,,,,,,,,,,,,,30,,,,,,,,2077.5635366000934,2077.5635366000934,2077.5635366000934,2077.5635366000934,2077.5635366000934,up,0.6780989998951554,0,0,0,99,-0.08,0.08,up,0.5891097000567243,,,,,,,,,,,,,,,,,,,,,,,,,,,,,,,,,,,,,,,,,,,,,,,,,,,,,,,,,,,,98P29L,train_x,red_square,bottom_left,2025-05-23_17h03.29.089,HideSeek_v1,2022.2.5,59.93683856700536,
,0,4,3,4,3,0,46,,train_dim1_1,8,30,,,,2,0,2,0,,,,,,,,,0,0,0,0,0,7,7,7,5,0,5,0,,,,,,,,,,,,,,,,,,,,,,,,,,,,,,,,,,,,,,,,,,,,,,,,,,,,,,,,,,,,,,,,30,,,,,,,,2078.248329400085,2078.248329400085,2078.248329400085,2078.248329400085,2078.248329400085,right,0.6252059999387711,0,0,0,99,0.0,0.08,right,0.5483299000188708,,,,,,,,,,,,,,,,,,,,,,,,,,,,,,,,,,,,,,,,,,,,,,,,,,,,,,,,,,,,98P29L,train_x,red_square,bottom_left,2025-05-23_17h03.29.089,HideSeek_v1,2022.2.5,59.93683856700536,
,0,4,3,4,3,0,46,,train_dim1_1,8,30,,,,2,0,2,0,,,,,,,,,0,0,0,0,0,7,7,7,6,0,6,0,,,,,,,,,,,,,,,,,,,,,,,,,,,,,,,,,,,,,,,,,,,,,,,,,,,,,,,,,,,,,,,,30,,,,,,,,2078.881304700044,2078.881304700044,2078.881304700044,2078.881304700044,2078.881304700044,return,0.9781284000491723,0,0,0,0,0.0,0.08,return,0.9027150000911206,7,19,0.0,0.08,,,,,,,,,,,,,,,,,,,,,,,,,,,,,,,,,,,,,,,,,,,,,,,,,,,,,,,,98P29L,train_x,red_square,bottom_left,2025-05-23_17h03.29.089,HideSeek_v1,2022.2.5,59.93683856700536,
,1,0,5,0,4,0,56,,train_dim1_1,9,30,,,,2,0,2,0,,,,,,,,,0,0,0,0,0,8,8,8,0,0,0,0,,,,,,,,,,,,,,,,,,,,,,,,,stimuli/alien_stimuli/56.png,,,,,,,,,,,,,,,,,,,,,,,,,,,,,stimuli/alien_stimuli/46.png,46,0,10,,,,,,,30,,,,,,,,2088.6255408000434,2088.6255408000434,2088.6255408000434,2088.6255408000434,2088.6255408000434,right,7.954683799995109,0,0,0,99,0.0,-0.4,right,7.862004499998875,,,,,2087.0570975000737,2088.6255408000434,0.08,-0.08,0.0,0.24,-0.08,0.08,-0.04,0.08,-0.08,2081.438406100031,2081.438406100031,2081.438406100031,2081.438406100031,2081.438406100031,2081.438406100031,2081.438406100031,2081.438406100031,2081.419689420087,5.740624999976717,return,5.5983716999180615,,,,,,,,,,,,,,,,,,,,,,,,,,,,,,,,,98P29L,train_x,red_square,bottom_left,2025-05-23_17h03.29.089,HideSeek_v1,2022.2.5,59.93683856700536,
,1,0,5,0,4,0,56,,train_dim1_1,9,30,,,,2,0,2,0,,,,,,,,,0,0,0,0,0,8,8,8,1,0,1,0,,,,,,,,,,,,,,,,,,,,,,,,,,,,,,,,,,,,,,,,,,,,,,,,,,,,,,,,,,,,,,,,30,,,,,,,,2096.584936200059,2096.584936200059,2096.584936200059,2096.584936200059,2096.584936200059,right,1.15976600011345,0,0,0,99,0.08,-0.4,right,1.0748021999606863,,,,,,,,,,,,,,,,,,,,,,,,,,,,,,,,,,,,,,,,,,,,,,,,,,,,,,,,,,,,98P29L,train_x,red_square,bottom_left,2025-05-23_17h03.29.089,HideSeek_v1,2022.2.5,59.93683856700536,
,1,0,5,0,4,0,56,,train_dim1_1,9,30,,,,2,0,2,0,,,,,,,,,0,0,0,0,0,8,8,8,2,0,2,0,,,,,,,,,,,,,,,,,,,,,,,,,,,,,,,,,,,,,,,,,,,,,,,,,,,,,,,,,,,,,,,,30,,,,,,,,2097.748988000094,2097.748988000094,2097.748988000094,2097.748988000094,2097.748988000094,right,0.40798020001966506,0,0,0,99,0.16,-0.4,right,0.33140290004666895,,,,,,,,,,,,,,,,,,,,,,,,,,,,,,,,,,,,,,,,,,,,,,,,,,,,,,,,,,,,98P29L,train_x,red_square,bottom_left,2025-05-23_17h03.29.089,HideSeek_v1,2022.2.5,59.93683856700536,
,1,0,5,0,4,0,56,,train_dim1_1,9,30,,,,2,0,2,0,,,,,,,,,0,0,0,0,0,8,8,8,3,0,3,0,,,,,,,,,,,,,,,,,,,,,,,,,,,,,,,,,,,,,,,,,,,,,,,,,,,,,,,,,,,,,,,,30,,,,,,,,2098.1663884000154,2098.1663884000154,2098.1663884000154,2098.1663884000154,2098.1663884000154,right,0.39281399990431964,0,0,0,99,0.24,-0.4,right,0.3054580999305472,,,,,,,,,,,,,,,,,,,,,,,,,,,,,,,,,,,,,,,,,,,,,,,,,,,,,,,,,,,,98P29L,train_x,red_square,bottom_left,2025-05-23_17h03.29.089,HideSeek_v1,2022.2.5,59.93683856700536,
,1,0,5,0,4,0,56,,train_dim1_1,9,30,,,,2,0,2,0,,,,,,,,,0,0,0,0,0,8,8,8,4,0,4,0,,,,,,,,,,,,,,,,,,,,,,,,,,,,,,,,,,,,,,,,,,,,,,,,,,,,,,,,,,,,,,,,30,,,,,,,,2098.566294600023,2098.566294600023,2098.566294600023,2098.566294600023,2098.566294600023,right,0.31104689999483526,0,0,0,99,0.32,-0.4,right,0.2241609999909997,,,,,,,,,,,,,,,,,,,,,,,,,,,,,,,,,,,,,,,,,,,,,,,,,,,,,,,,,,,,98P29L,train_x,red_square,bottom_left,2025-05-23_17h03.29.089,HideSeek_v1,2022.2.5,59.93683856700536,
,1,0,5,0,4,0,56,,train_dim1_1,9,30,,,,2,0,2,0,,,,,,,,,0,0,0,0,0,8,8,8,5,0,5,0,,,,,,,,,,,,,,,,,,,,,,,,,,,,,,,,,,,,,,,,,,,,,,,,,,,,,,,,,,,,,,,,30,,,,,,,,2098.88482450007,2098.88482450007,2098.88482450007,2098.88482450007,2098.88482450007,right,0.41036789992358536,0,0,0,99,0.4,-0.4,right,0.33425710001029074,,,,,,,,,,,,,,,,,,,,,,,,,,,,,,,,,,,,,,,,,,,,,,,,,,,,,,,,,,,,98P29L,train_x,red_square,bottom_left,2025-05-23_17h03.29.089,HideSeek_v1,2022.2.5,59.93683856700536,
,1,0,5,0,4,0,56,,train_dim1_1,9,30,,,,2,0,2,0,,,,,,,,,0,0,0,0,0,8,8,8,6,0,6,0,,,,,,,,,,,,,,,,,,,,,,,,,,,,,,,,,,,,,,,,,,,,,,,,,,,,,,,,,,,,,,,,30,,,,,,,,2099.3054214000003,2099.3054214000003,2099.3054214000003,2099.3054214000003,2099.3054214000003,right,0.5914415000006557,0,0,0,99,0.48000000000000004,-0.4,right,0.49722600006498396,,,,,,,,,,,,,,,,,,,,,,,,,,,,,,,,,,,,,,,,,,,,,,,,,,,,,,,,,,,,98P29L,train_x,red_square,bottom_left,2025-05-23_17h03.29.089,HideSeek_v1,2022.2.5,59.93683856700536,
,1,0,5,0,4,0,56,,train_dim1_1,9,30,,,,2,0,2,0,,,,,,,,,0,0,0,0,0,8,8,8,7,0,7,0,,,,,,,,,,,,,,,,,,,,,,,,,,,,,,,,,,,,,,,,,,,,,,,,,,,,,,,,,,,,,,,,30,,,,,,,,2099.9018314999994,2099.9018314999994,2099.9018314999994,2099.9018314999994,2099.9018314999994,return,0.45991269999649376,0,0,0,0,0.48000000000000004,-0.4,return,0.38071850000415,7,26,0.48000000000000004,-0.4,,,,,,,,,,,,,,,,,,,,,,,,,,,,,,,,,,,,,,,,,,,,,,,,,,,,,,,,98P29L,train_x,red_square,bottom_left,2025-05-23_17h03.29.089,HideSeek_v1,2022.2.5,59.93683856700536,
,0,3,0,3,0,0,16,,train_dim1_1,10,30,,,,2,0,2,0,,,,,,,,,0,0,0,0,0,9,9,9,0,0,0,0,,,,,,,,,,,,,,,,,,,,,,,,,stimuli/alien_stimuli/16.png,,,,,,,,,,,,,,,,,,,,,,,,,,,,,stimuli/alien_stimuli/56.png,56,1,11,,,,,,,30,,,,,,,,2110.528362400015,2110.528362400015,2110.528362400015,2110.528362400015,2110.528362400015,right,12.576008800067939,0,0,0,99,-0.08,-0.16,right,12.482027799938805,,,,,2108.9585254000267,2110.528362400015,0.24,-0.4,0.0,0.32,-0.4,0.24,0.07999999999999999,0.24,-0.4,2101.9384562000632,2101.9384562000632,2101.9384562000632,2101.9384562000632,2101.9384562000632,2101.9384562000632,2101.9384562000632,2101.9384562000632,2101.9199685201165,7.1410906000528485,return,6.993412500014529,,,,,,,,,,,,,,,,,,,,,,,,,,,,,,,,,98P29L,train_x,red_square,bottom_left,2025-05-23_17h03.29.089,HideSeek_v1,2022.2.5,59.93683856700536,
,0,3,0,3,0,0,16,,train_dim1_1,10,30,,,,2,0,2,0,,,,,,,,,0,0,0,0,0,9,9,9,1,0,1,0,,,,,,,,,,,,,,,,,,,,,,,,,,,,,,,,,,,,,,,,,,,,,,,,,,,,,,,,,,,,,,,,30,,,,,,,,2123.1200008000014,2123.1200008000014,2123.1200008000014,2123.1200008000014,2123.1200008000014,right,0.6242851000279188,0,0,0,99,0.0,-0.16,right,0.5195862000109628,,,,,,,,,,,,,,,,,,,,,,,,,,,,,,,,,,,,,,,,,,,,,,,,,,,,,,,,,,,,98P29L,train_x,red_square,bottom_left,2025-05-23_17h03.29.089,HideSeek_v1,2022.2.5,59.93683856700536,
,0,3,0,3,0,0,16,,train_dim1_1,10,30,,,,2,0,2,0,,,,,,,,,0,0,0,0,0,9,9,9,2,0,2,0,,,,,,,,,,,,,,,,,,,,,,,,,,,,,,,,,,,,,,,,,,,,,,,,,,,,,,,,,,,,,,,,30,,,,,,,,2123.7385527000297,2123.7385527000297,2123.7385527000297,2123.7385527000297,2123.7385527000297,up,2.1792987999506295,0,0,0,99,0.0,-0.08,up,2.0976013999897987,,,,,,,,,,,,,,,,,,,,,,,,,,,,,,,,,,,,,,,,,,,,,,,,,,,,,,,,,,,,98P29L,train_x,red_square,bottom_left,2025-05-23_17h03.29.089,HideSeek_v1,2022.2.5,59.93683856700536,
,0,3,0,3,0,0,16,,train_dim1_1,10,30,,,,2,0,2,0,,,,,,,,,0,0,0,0,0,9,9,9,3,0,3,0,,,,,,,,,,,,,,,,,,,,,,,,,,,,,,,,,,,,,,,,,,,,,,,,,,,,,,,,,,,,,,,,30,,,,,,,,2125.9265241000103,2125.9265241000103,2125.9265241000103,2125.9265241000103,2125.9265241000103,return,1.410667599993758,0,0,0,0,0.0,-0.08,return,1.3313121000537649,8,28,0.0,-0.08,,,,,,,,,,,,,,,,,,,,,,,,,,,,,,,,,,,,,,,,,,,,,,,,,,,,,,,,98P29L,train_x,red_square,bottom_left,2025-05-23_17h03.29.089,HideSeek_v1,2022.2.5,59.93683856700536,
,2,2,5,2,3,0,46,,train_dim1_1,11,30,,,,2,0,2,0,,,,,,,,,0,0,0,0,0,10,10,10,0,0,0,0,,,,,,,,,,,,,,,,,,,,,,,,,stimuli/alien_stimuli/46.png,,,,,,,,,,,,,,,,,,,,,,,,,,,,,stimuli/alien_stimuli/16.png,16,0,12,,,,,,,30,,,,,,,,2134.2267590000993,2134.2267590000993,2134.2267590000993,2134.2267590000993,2134.2267590000993,right,5.069608599995263,0,0,0,99,0.08,-0.24,right,4.975977599970065,,,,,2132.6616497000214,2134.2267590000993,-0.16,-0.16,0.0,0.0,-0.16,-0.16,-0.16,-0.16,-0.16,2128.9159954000497,2128.9159954000497,2128.9159954000497,2128.9159954000497,2128.9159954000497,2128.9159954000497,2128.9159954000497,2128.9159954000497,2128.9091850800905,3.872180199949071,return,3.727337999967858,,,,,,,,,,,,,,,,,,,,,,,,,,,,,,,,,98P29L,train_x,red_square,bottom_left,2025-05-23_17h03.29.089,HideSeek_v1,2022.2.5,59.93683856700536,
,2,2,5,2,3,0,46,,train_dim1_1,11,30,,,,2,0,2,0,,,,,,,,,0,0,0,0,0,10,10,10,1,0,1,0,,,,,,,,,,,,,,,,,,,,,,,,,,,,,,,,,,,,,,,,,,,,,,,,,,,,,,,,,,,,,,,,30,,,,,,,,2139.298932200065,2139.298932200065,2139.298932200065,2139.298932200065,2139.298932200065,right,0.44295190006960183,0,0,0,99,0.16,-0.24,right,0.3543109999736771,,,,,,,,,,,,,,,,,,,,,,,,,,,,,,,,,,,,,,,,,,,,,,,,,,,,,,,,,,,,98P29L,train_x,red_square,bottom_left,2025-05-23_17h03.29.089,HideSeek_v1,2022.2.5,59.93683856700536,
,2,2,5,2,3,0,46,,train_dim1_1,11,30,,,,2,0,2,0,,,,,,,,,0,0,0,0,0,10,10,10,2,0,2,0,,,,,,,,,,,,,,,,,,,,,,,,,,,,,,,,,,,,,,,,,,,,,,,,,,,,,,,,,,,,,,,,30,,,,,,,,2139.7485141000943,2139.7485141000943,2139.7485141000943,2139.7485141000943,2139.7485141000943,right,0.359851700020954,0,0,0,99,0.24,-0.24,right,0.27525770000647753,,,,,,,,,,,,,,,,,,,,,,,,,,,,,,,,,,,,,,,,,,,,,,,,,,,,,,,,,,,,98P29L,train_x,red_square,bottom_left,2025-05-23_17h03.29.089,HideSeek_v1,2022.2.5,59.93683856700536,
,2,2,5,2,3,0,46,,train_dim1_1,11,30,,,,2,0,2,0,,,,,,,,,0,0,0,0,0,10,10,10,3,0,3,0,,,,,,,,,,,,,,,,,,,,,,,,,,,,,,,,,,,,,,,,,,,,,,,,,,,,,,,,,,,,,,,,30,,,,,,,,2140.115587300039,2140.115587300039,2140.115587300039,2140.115587300039,2140.115587300039,return,4.163186900084838,1,0,0,1,0.24,-0.24,return,4.07252739998512,8,31,0.24,-0.24,,,,,,,,,,,,,,,,,,,,,,,,,,,,,,,,,,,,,,,,,,,,,,,,,,,,,,,,98P29L,train_x,red_square,bottom_left,2025-05-23_17h03.29.089,HideSeek_v1,2022.2.5,59.93683856700536,
,0,0,1,0,1,0,26,,train_dim1_1,12,30,,,,2,0,2,0,,,,,,,,,0,0,0,0,0,11,11,11,0,0,0,0,,,,,,,,,,,,,,,,,,,,,,,,,stimuli/alien_stimuli/26.png,,,,,,,,,,,,,,,,,,,,,,,,,,,,,stimuli/alien_stimuli/46.png,46,2,13,,,,,,,30,,,,,,,,2151.7461743000895,2151.7461743000895,2151.7461743000895,2151.7461743000895,2151.7461743000895,right,5.687042499892414,1,0,0,99,-0.08,-0.4,right,5.601094000041485,,,,,2150.176240300061,2151.7461743000895,0.24,-0.24,0.0,0.24,-0.24,0.24,0.12,0.24,-0.24,2145.8675191000802,2145.8675191000802,2145.8675191000802,2145.8675191000802,2145.8675191000802,2145.8675191000802,2145.8675191000802,2145.8675191000802,2145.8560882800957,4.441531099961139,return,4.292411800008267,,,,,,,,,,,,,,,,,,,,,,,,,,,,,,,,,98P29L,train_x,red_square,bottom_left,2025-05-23_17h03.29.089,HideSeek_v1,2022.2.5,59.93683856700536,
,0,0,1,0,1,0,26,,train_dim1_1,12,30,,,,2,0,2,0,,,,,,,,,0,0,0,0,0,11,11,11,1,0,1,0,,,,,,,,,,,,,,,,,,,,,,,,,,,,,,,,,,,,,,,,,,,,,,,,,,,,,,,,,,,,,,,,30,,,,,,,,2157.4360990000423,2157.4360990000423,2157.4360990000423,2157.4360990000423,2157.4360990000423,right,0.5430440000491217,1,0,0,99,0.0,-0.4,right,0.45576809998601675,,,,,,,,,,,,,,,,,,,,,,,,,,,,,,,,,,,,,,,,,,,,,,,,,,,,,,,,,,,,98P29L,train_x,red_square,bottom_left,2025-05-23_17h03.29.089,HideSeek_v1,2022.2.5,59.93683856700536,
,0,0,1,0,1,0,26,,train_dim1_1,12,30,,,,2,0,2,0,,,,,,,,,0,0,0,0,0,11,11,11,2,0,2,0,,,,,,,,,,,,,,,,,,,,,,,,,,,,,,,,,,,,,,,,,,,,,,,,,,,,,,,,,,,,,,,,30,,,,,,,,2157.9887138000922,2157.9887138000922,2157.9887138000922,2157.9887138000922,2157.9887138000922,right,0.910265100072138,1,0,0,99,0.08,-0.4,right,0.8211651999736205,,,,,,,,,,,,,,,,,,,,,,,,,,,,,,,,,,,,,,,,,,,,,,,,,,,,,,,,,,,,98P29L,train_x,red_square,bottom_left,2025-05-23_17h03.29.089,HideSeek_v1,2022.2.5,59.93683856700536,
,0,0,1,0,1,0,26,,train_dim1_1,12,30,,,,2,0,2,0,,,,,,,,,0,0,0,0,0,11,11,11,3,0,3,0,,,,,,,,,,,,,,,,,,,,,,,,,,,,,,,,,,,,,,,,,,,,,,,,,,,,,,,,,,,,,,,,30,,,,,,,,2158.9020299999975,2158.9020299999975,2158.9020299999975,2158.9020299999975,2158.9020299999975,right,0.3096474999329075,1,0,0,99,0.16,-0.4,right,0.22125480009708554,,,,,,,,,,,,,,,,,,,,,,,,,,,,,,,,,,,,,,,,,,,,,,,,,,,,,,,,,,,,98P29L,train_x,red_square,bottom_left,2025-05-23_17h03.29.089,HideSeek_v1,2022.2.5,59.93683856700536,
,0,0,1,0,1,0,26,,train_dim1_1,12,30,,,,2,0,2,0,,,,,,,,,0,0,0,0,0,11,11,11,4,0,4,0,,,,,,,,,,,,,,,,,,,,,,,,,,,,,,,,,,,,,,,,,,,,,,,,,,,,,,,,,,,,,,,,30,,,,,,,,2159.221313600079,2159.221313600079,2159.221313600079,2159.221313600079,2159.221313600079,right,0.3097382999258116,1,0,0,99,0.24,-0.4,right,0.21437760000117123,,,,,,,,,,,,,,,,,,,,,,,,,,,,,,,,,,,,,,,,,,,,,,,,,,,,,,,,,,,,98P29L,train_x,red_square,bottom_left,2025-05-23_17h03.29.089,HideSeek_v1,2022.2.5,59.93683856700536,
,0,0,1,0,1,0,26,,train_dim1_1,12,30,,,,2,0,2,0,,,,,,,,,0,0,0,0,0,11,11,11,5,0,5,0,,,,,,,,,,,,,,,,,,,,,,,,,,,,,,,,,,,,,,,,,,,,,,,,,,,,,,,,,,,,,,,,30,,,,,,,,2159.5369083000114,2159.5369083000114,2159.5369083000114,2159.5369083000114,2159.5369083000114,right,0.8752460000105202,1,0,0,99,0.32,-0.4,right,0.7829027000116184,,,,,,,,,,,,,,,,,,,,,,,,,,,,,,,,,,,,,,,,,,,,,,,,,,,,,,,,,,,,98P29L,train_x,red_square,bottom_left,2025-05-23_17h03.29.089,HideSeek_v1,2022.2.5,59.93683856700536,
,0,0,1,0,1,0,26,,train_dim1_1,12,30,,,,2,0,2,0,,,,,,,,,0,0,0,0,0,11,11,11,6,0,6,0,,,,,,,,,,,,,,,,,,,,,,,,,,,,,,,,,,,,,,,,,,,,,,,,,,,,,,,,,,,,,,,,30,,,,,,,,2160.4194958000444,2160.4194958000444,2160.4194958000444,2160.4194958000444,2160.4194958000444,return,0.5781012000516057,1,0,0,0,0.32,-0.4,return,0.48639630002435297,8,37,0.32,-0.4,,,,,,,,,,,,,,,,,,,,,,,,,,,,,,,,,,,,,,,,,,,,,,,,,,,,,,,,98P29L,train_x,red_square,bottom_left,2025-05-23_17h03.29.089,HideSeek_v1,2022.2.5,59.93683856700536,
,0,4,4,4,4,0,56,,train_dim1_1,13,30,,,,2,0,2,0,,,,,,,,,0,0,0,0,0,12,12,12,0,0,0,0,,,,,,,,,,,,,,,,,,,,,,,,,stimuli/alien_stimuli/56.png,,,,,,,,,,,,,,,,,,,,,,,,,,,,,stimuli/alien_stimuli/26.png,26,0,14,,,,,,,30,,,,,,,,2168.127181600081,2168.127181600081,2168.127181600081,2168.127181600081,2168.127181600081,right,6.636704100063071,1,0,0,99,-0.08,-0.08,right,6.547036899952218,,,,,2166.5570267000003,2168.127181600081,-0.08,-0.4,0.0,0.08,-0.4,-0.08,-0.12,-0.08,-0.4,2162.5729075000854,2162.5729075000854,2162.5729075000854,2162.5729075000854,2162.5729075000854,2162.5729075000854,2162.5729075000854,2162.5729075000854,2162.553502820141,4.10633850004524,return,3.958075400092639,,,,,,,,,,,,,,,,,,,,,,,,,,,,,,,,,98P29L,train_x,red_square,bottom_left,2025-05-23_17h03.29.089,HideSeek_v1,2022.2.5,59.93683856700536,
,0,4,4,4,4,0,56,,train_dim1_1,13,30,,,,2,0,2,0,,,,,,,,,0,0,0,0,0,12,12,12,1,0,1,0,,,,,,,,,,,,,,,,,,,,,,,,,,,,,,,,,,,,,,,,,,,,,,,,,,,,,,,,,,,,,,,,30,,,,,,,,2174.766328800004,2174.766328800004,2174.766328800004,2174.766328800004,2174.766328800004,return,1.3253373000770807,1,0,0,0,-0.08,-0.08,return,1.2362680999794975,8,38,-0.08,-0.08,,,,,,,,,,,,,,,,,,,,,,,,,,,,,,,,,,,,,,,,,,,,,,,,,,,,,,,,98P29L,train_x,red_square,bottom_left,2025-05-23_17h03.29.089,HideSeek_v1,2022.2.5,59.93683856700536,
,4,3,4,3,0,0,16,,train_dim1_1,14,30,,,,2,0,2,0,,,,,,,,,0,0,0,0,0,13,13,13,0,0,0,0,,,,,,,,,,,,,,,,,,,,,,,,,stimuli/alien_stimuli/16.png,,,,,,,,,,,,,,,,,,,,,,,,,,,,,stimuli/alien_stimuli/56.png,56,0,15,,,,,,,30,,,,,,,,2187.9253396000713,2187.9253396000713,2187.9253396000713,2187.9253396000713,2187.9253396000713,return,3.318423099932261,2,0,0,1,0.16,-0.16,return,3.2296565000433475,8,38,0.16,-0.16,2186.35611240007,2187.9253396000713,0.16,-0.08,0.0,0.32,-0.08,0.16,0.0,0.16,-0.08,2177.6694434999954,2177.6694434999954,2177.6694434999954,2177.6694434999954,2177.6694434999954,2177.6694434999954,2177.6694434999954,2177.6694434999954,2177.6489968201495,8.810035299975425,return,8.668652399908751,,,,,,,,,,,,,,,,,,,,,,,,,,,,,,,,,98P29L,train_x,red_square,bottom_left,2025-05-23_17h03.29.089,HideSeek_v1,2022.2.5,59.93683856700536,
,4,2,9,2,5,0,66,,train_dim1_1,15,30,,,,2,0,2,0,,,,,,,,,0,0,0,0,0,14,14,14,0,0,0,0,,,,,,,,,,,,,,,,,,,,,,,,,stimuli/alien_stimuli/66.png,,,,,,,,,,,,,,,,,,,,,,,,,,,,,stimuli/alien_stimuli/16.png,16,4,16,,,,,,,30,,,,,,,,2197.2482699000975,2197.2482699000975,2197.2482699000975,2197.2482699000975,2197.2482699000975,right,5.90343499998562,2,0,0,99,0.24,-0.24,right,5.813576799933799,,,,,2195.6802183000837,2197.2482699000975,0.16,-0.16,0.0,0.0,-0.16,0.16,0.16,0.16,-0.16,2192.8208031000104,2192.8208031000104,2192.8208031000104,2192.8208031000104,2192.8208031000104,2192.8208031000104,2192.8208031000104,2192.8208031000104,2192.8121392801404,2.9876401000656188,return,2.836447799927555,,,,,,,,,,,,,,,,,,,,,,,,,,,,,,,,,98P29L,train_x,red_square,bottom_left,2025-05-23_17h03.29.089,HideSeek_v1,2022.2.5,59.93683856700536,
,4,2,9,2,5,0,66,,train_dim1_1,15,30,,,,2,0,2,0,,,,,,,,,0,0,0,0,0,14,14,14,1,0,1,0,,,,,,,,,,,,,,,,,,,,,,,,,,,,,,,,,,,,,,,,,,,,,,,,,,,,,,,,,,,,,,,,30,,,,,,,,2203.1542004999937,2203.1542004999937,2203.1542004999937,2203.1542004999937,2203.1542004999937,right,0.5094582999590784,2,0,0,99,0.32,-0.24,right,0.41853320004884154,,,,,,,,,,,,,,,,,,,,,,,,,,,,,,,,,,,,,,,,,,,,,,,,,,,,,,,,,,,,98P29L,train_x,red_square,bottom_left,2025-05-23_17h03.29.089,HideSeek_v1,2022.2.5,59.93683856700536,
,4,2,9,2,5,0,66,,train_dim1_1,15,30,,,,2,0,2,0,,,,,,,,,0,0,0,0,0,14,14,14,2,0,2,0,,,,,,,,,,,,,,,,,,,,,,,,,,,,,,,,,,,,,,,,,,,,,,,,,,,,,,,,,,,,,,,,30,,,,,,,,2203.6700118000153,2203.6700118000153,2203.6700118000153,2203.6700118000153,2203.6700118000153,right,1.7274223000276834,2,0,0,99,0.4,-0.24,right,1.6439568999921903,,,,,,,,,,,,,,,,,,,,,,,,,,,,,,,,,,,,,,,,,,,,,,,,,,,,,,,,,,,,98P29L,train_x,red_square,bottom_left,2025-05-23_17h03.29.089,HideSeek_v1,2022.2.5,59.93683856700536,
,4,2,9,2,5,0,66,,train_dim1_1,15,30,,,,2,0,2,0,,,,,,,,,0,0,0,0,0,14,14,14,3,0,3,0,,,,,,,,,,,,,,,,,,,,,,,,,,,,,,,,,,,,,,,,,,,,,,,,,,,,,,,,,,,,,,,,30,,,,,,,,2205.4039007000392,2205.4039007000392,2205.4039007000392,2205.4039007000392,2205.4039007000392,return,0.4934668999630958,2,0,0,0,0.4,-0.24,return,0.4130024000769481,8,41,0.4,-0.24,,,,,,,,,,,,,,,,,,,,,,,,,,,,,,,,,,,,,,,,,,,,,,,,,,,,,,,,98P29L,train_x,red_square,bottom_left,2025-05-23_17h03.29.089,HideSeek_v1,2022.2.5,59.93683856700536,
,3,3,7,3,4,0,56,,train_dim1_1,16,30,,,,2,0,2,0,,,,,,,,,0,0,0,0,0,15,15,15,0,0,0,0,,,,,,,,,,,,,,,,,,,,,,,,,stimuli/alien_stimuli/56.png,,,,,,,,,,,,,,,,,,,,,,,,,,,,,stimuli/alien_stimuli/66.png,66,4,17,,,,,,,30,,,,,,,,2213.1498690000735,2213.1498690000735,2213.1498690000735,2213.1498690000735,2213.1498690000735,right,5.0139805999351665,2,0,0,99,0.16,-0.16,right,4.9170635000336915,,,,,2211.5780643000035,2207.4759974000044,0.56,-0.24,0.0,0.4,-0.24,0.56,0.36000000000000004,0.56,-0.24,2207.4759974000044,2207.4759974000044,2207.4759974000044,2207.4759974000044,2207.4759974000044,2207.4759974000044,2207.4759974000044,2207.4759974000044,2207.4573035201174,4.218331700074486,return,4.057096999953501,,,,,,,,,,,,,,,,,,,,,,,,,,,,,,,,,98P29L,train_x,red_square,bottom_left,2025-05-23_17h03.29.089,HideSeek_v1,2022.2.5,59.93683856700536,
,3,3,7,3,4,0,56,,train_dim1_1,16,30,,,,2,0,2,0,,,,,,,,,0,0,0,0,0,15,15,15,1,0,1,0,,,,,,,,,,,,,,,,,,,,,,,,,,,,,,,,,,,,,,,,,,,,,,,,,,,,,,,,,,,,,,,,30,,,,,,,,2218.165030300035,2218.165030300035,2218.165030300035,2218.165030300035,2218.165030300035,right,0.5442494000308216,2,0,0,99,0.24,-0.16,right,0.4690644000656903,,,,,,,,,,,,,,,,,,,,,,,,,,,,,,,,,,,,,,,,,,,,,,,,,,,,,,,,,,,,98P29L,train_x,red_square,bottom_left,2025-05-23_17h03.29.089,HideSeek_v1,2022.2.5,59.93683856700536,
,3,3,7,3,4,0,56,,train_dim1_1,16,30,,,,2,0,2,0,,,,,,,,,0,0,0,0,0,15,15,15,2,0,2,0,,,,,,,,,,,,,,,,,,,,,,,,,,,,,,,,,,,,,,,,,,,,,,,,,,,,,,,,,,,,,,,,30,,,,,,,,2218.7166000000434,2218.7166000000434,2218.7166000000434,2218.7166000000434,2218.7166000000434,right,0.6932051000185311,2,0,0,99,0.32,-0.16,right,0.6035575000569224,,,,,,,,,,,,,,,,,,,,,,,,,,,,,,,,,,,,,,,,,,,,,,,,,,,,,,,,,,,,98P29L,train_x,red_square,bottom_left,2025-05-23_17h03.29.089,HideSeek_v1,2022.2.5,59.93683856700536,
,3,3,7,3,4,0,56,,train_dim1_1,16,30,,,,2,0,2,0,,,,,,,,,0,0,0,0,0,15,15,15,3,0,3,0,,,,,,,,,,,,,,,,,,,,,,,,,,,,,,,,,,,,,,,,,,,,,,,,,,,,,,,,,,,,,,,,30,,,,,,,,2219.416476899991,2219.416476899991,2219.416476899991,2219.416476899991,2219.416476899991,return,1.9949925999389961,2,1,0,0,0.32,-0.16,return,1.9171856000320986,8,44,0.32,-0.16,,,,,,,,,,,,,,,,,,,,,,,,,,,,,,,,,,,,,,,,,,,,,,,,,,,,,,,,98P29L,train_x,red_square,bottom_left,2025-05-23_17h03.29.089,HideSeek_v1,2022.2.5,59.93683856700536,
,2,4,3,4,1,0,26,,train_dim1_1,17,30,,,,2,0,2,0,,,,,,,,,0,0,0,0,0,16,16,16,0,0,0,0,,,,,,,,,,,,,,,,,,,,,,,,,stimuli/alien_stimuli/26.png,,,,,,,,,,,,,,,,,,,,,,,,,,,,,stimuli/alien_stimuli/56.png,56,3,18,,,,,,,30,,,,,,,,2228.3266825000755,2228.3266825000755,2228.3266825000755,2228.3266825000755,2228.3266825000755,right,6.369878700003028,2,1,0,99,0.08,-0.08,right,6.283274499932304,,,,,2226.757212100085,2228.3266825000755,0.4,-0.16,0.0,0.32,-0.16,0.4,0.24000000000000002,0.4,-0.16,2222.992079299991,2222.992079299991,2222.992079299991,2222.992079299991,2222.992079299991,2222.992079299991,2222.992079299991,2222.992079299991,2222.986743620073,3.873572100070305,return,3.7452507000416517,,,,,,,,,,,,,,,,,,,,,,,,,,,,,,,,,98P29L,train_x,red_square,bottom_left,2025-05-23_17h03.29.089,HideSeek_v1,2022.2.5,59.93683856700536,
,2,4,3,4,1,0,26,,train_dim1_1,17,30,,,,2,0,2,0,,,,,,,,,0,0,0,0,0,16,16,16,1,0,1,0,,,,,,,,,,,,,,,,,,,,,,,,,,,,,,,,,,,,,,,,,,,,,,,,,,,,,,,,,,,,,,,,30,,,,,,,,2234.7026191999903,2234.7026191999903,2234.7026191999903,2234.7026191999903,2234.7026191999903,right,1.142647400032729,2,1,0,99,0.16,-0.08,right,1.0520353999454528,,,,,,,,,,,,,,,,,,,,,,,,,,,,,,,,,,,,,,,,,,,,,,,,,,,,,,,,,,,,98P29L,train_x,red_square,bottom_left,2025-05-23_17h03.29.089,HideSeek_v1,2022.2.5,59.93683856700536,
,2,4,3,4,1,0,26,,train_dim1_1,17,30,,,,2,0,2,0,,,,,,,,,0,0,0,0,0,16,16,16,2,0,2,0,,,,,,,,,,,,,,,,,,,,,,,,,,,,,,,,,,,,,,,,,,,,,,,,,,,,,,,,,,,,,,,,30,,,,,,,,2235.849528599996,2235.849528599996,2235.849528599996,2235.849528599996,2235.849528599996,right,0.2919437000527978,2,1,0,99,0.24,-0.08,right,0.21154899999964982,,,,,,,,,,,,,,,,,,,,,,,,,,,,,,,,,,,,,,,,,,,,,,,,,,,,,,,,,,,,98P29L,train_x,red_square,bottom_left,2025-05-23_17h03.29.089,HideSeek_v1,2022.2.5,59.93683856700536,
,2,4,3,4,1,0,26,,train_dim1_1,17,30,,,,2,0,2,0,,,,,,,,,0,0,0,0,0,16,16,16,3,0,3,0,,,,,,,,,,,,,,,,,,,,,,,,,,,,,,,,,,,,,,,,,,,,,,,,,,,,,,,,,,,,,,,,30,,,,,,,,2236.1476615000283,2236.1476615000283,2236.1476615000283,2236.1476615000283,2236.1476615000283,right,0.2892376999370754,2,1,0,99,0.32,-0.08,right,0.19165419996716082,,,,,,,,,,,,,,,,,,,,,,,,,,,,,,,,,,,,,,,,,,,,,,,,,,,,,,,,,,,,98P29L,train_x,red_square,bottom_left,2025-05-23_17h03.29.089,HideSeek_v1,2022.2.5,59.93683856700536,
,2,4,3,4,1,0,26,,train_dim1_1,17,30,,,,2,0,2,0,,,,,,,,,0,0,0,0,0,16,16,16,4,0,4,0,,,,,,,,,,,,,,,,,,,,,,,,,,,,,,,,,,,,,,,,,,,,,,,,,,,,,,,,,,,,,,,,30,,,,,,,,2236.4487634000834,2236.4487634000834,2236.4487634000834,2236.4487634000834,2236.4487634000834,right,0.26213930000085384,2,1,0,99,0.4,-0.08,right,0.16972729994449764,,,,,,,,,,,,,,,,,,,,,,,,,,,,,,,,,,,,,,,,,,,,,,,,,,,,,,,,,,,,98P29L,train_x,red_square,bottom_left,2025-05-23_17h03.29.089,HideSeek_v1,2022.2.5,59.93683856700536,
,2,4,3,4,1,0,26,,train_dim1_1,17,30,,,,2,0,2,0,,,,,,,,,0,0,0,0,0,16,16,16,5,0,5,0,,,,,,,,,,,,,,,,,,,,,,,,,,,,,,,,,,,,,,,,,,,,,,,,,,,,,,,,,,,,,,,,30,,,,,,,,2236.7183075000066,2236.7183075000066,2236.7183075000066,2236.7183075000066,2236.7183075000066,right,0.27632429997902364,2,1,0,99,0.48000000000000004,-0.08,right,0.1969962000148371,,,,,,,,,,,,,,,,,,,,,,,,,,,,,,,,,,,,,,,,,,,,,,,,,,,,,,,,,,,,98P29L,train_x,red_square,bottom_left,2025-05-23_17h03.29.089,HideSeek_v1,2022.2.5,59.93683856700536,
,2,4,3,4,1,0,26,,train_dim1_1,17,30,,,,2,0,2,0,,,,,,,,,0,0,0,0,0,16,16,16,6,0,6,0,,,,,,,,,,,,,,,,,,,,,,,,,,,,,,,,,,,,,,,,,,,,,,,,,,,,,,,,,,,,,,,,30,,,,,,,,2237.001315900008,2237.001315900008,2237.001315900008,2237.001315900008,2237.001315900008,right,0.5432493999833241,2,1,0,99,0.56,-0.08,right,0.4638258999912068,,,,,,,,,,,,,,,,,,,,,,,,,,,,,,,,,,,,,,,,,,,,,,,,,,,,,,,,,,,,98P29L,train_x,red_square,bottom_left,2025-05-23_17h03.29.089,HideSeek_v1,2022.2.5,59.93683856700536,
,2,4,3,4,1,0,26,,train_dim1_1,17,30,,,,2,0,2,0,,,,,,,,,0,0,0,0,0,16,16,16,7,0,7,0,,,,,,,,,,,,,,,,,,,,,,,,,,,,,,,,,,,,,,,,,,,,,,,,,,,,,,,,,,,,,,,,30,,,,,,,,2237.552565800026,2237.552565800026,2237.552565800026,2237.552565800026,2237.552565800026,return,0.8272171000717208,2,0,0,0,0.56,-0.08,return,0.7321099999826401,8,51,0.56,-0.08,,,,,,,,,,,,,,,,,,,,,,,,,,,,,,,,,,,,,,,,,,,,,,,,,,,,,,,,98P29L,train_x,red_square,bottom_left,2025-05-23_17h03.29.089,HideSeek_v1,2022.2.5,59.93683856700536,
,2,1,7,1,5,0,66,,train_dim1_1,18,30,,,,2,0,2,0,,,,,,,,,0,0,0,0,0,17,17,17,0,0,0,0,,,,,,,,,,,,,,,,,,,,,,,,,stimuli/alien_stimuli/66.png,,,,,,,,,,,,,,,,,,,,,,,,,,,,,stimuli/alien_stimuli/26.png,26,2,19,,,,,,,30,,,,,,,,2244.386904700077,2244.386904700077,2244.386904700077,2244.386904700077,2244.386904700077,right,5.3692898999433964,2,0,0,99,0.08,-0.32,right,5.284687099978328,,,,,2242.8072655000724,2239.954149099998,0.08,-0.08,0.0,0.08,-0.08,0.08,0.04,0.08,-0.08,2239.954149099998,2239.954149099998,2239.954149099998,2239.954149099998,2239.954149099998,2239.954149099998,2239.954149099998,2239.954149099998,2239.9346783201327,2.9760893000056967,return,2.8352279999526218,,,,,,,,,,,,,,,,,,,,,,,,,,,,,,,,,98P29L,train_x,red_square,bottom_left,2025-05-23_17h03.29.089,HideSeek_v1,2022.2.5,59.93683856700536,
,2,1,7,1,5,0,66,,train_dim1_1,18,30,,,,2,0,2,0,,,,,,,,,0,0,0,0,0,17,17,17,1,0,1,0,,,,,,,,,,,,,,,,,,,,,,,,,,,,,,,,,,,,,,,,,,,,,,,,,,,,,,,,,,,,,,,,30,,,,,,,,2249.7581820000196,2249.7581820000196,2249.7581820000196,2249.7581820000196,2249.7581820000196,right,1.026229799957946,2,0,0,99,0.16,-0.32,right,0.9484677000436932,,,,,,,,,,,,,,,,,,,,,,,,,,,,,,,,,,,,,,,,,,,,,,,,,,,,,,,,,,,,98P29L,train_x,red_square,bottom_left,2025-05-23_17h03.29.089,HideSeek_v1,2022.2.5,59.93683856700536,
,2,1,7,1,5,0,66,,train_dim1_1,18,30,,,,2,0,2,0,,,,,,,,,0,0,0,0,0,17,17,17,2,0,2,0,,,,,,,,,,,,,,,,,,,,,,,,,,,,,,,,,,,,,,,,,,,,,,,,,,,,,,,,,,,,,,,,30,,,,,,,,2250.790969200083,2250.790969200083,2250.790969200083,2250.790969200083,2250.790969200083,right,0.27663109998684376,2,0,0,99,0.24,-0.32,right,0.1891113999299705,,,,,,,,,,,,,,,,,,,,,,,,,,,,,,,,,,,,,,,,,,,,,,,,,,,,,,,,,,,,98P29L,train_x,red_square,bottom_left,2025-05-23_17h03.29.089,HideSeek_v1,2022.2.5,59.93683856700536,
,2,1,7,1,5,0,66,,train_dim1_1,18,30,,,,2,0,2,0,,,,,,,,,0,0,0,0,0,17,17,17,3,0,3,0,,,,,,,,,,,,,,,,,,,,,,,,,,,,,,,,,,,,,,,,,,,,,,,,,,,,,,,,,,,,,,,,30,,,,,,,,2251.07489040005,2251.07489040005,2251.07489040005,2251.07489040005,2251.07489040005,right,0.2766606999794021,2,0,0,99,0.32,-0.32,right,0.1990838999627158,,,,,,,,,,,,,,,,,,,,,,,,,,,,,,,,,,,,,,,,,,,,,,,,,,,,,,,,,,,,98P29L,train_x,red_square,bottom_left,2025-05-23_17h03.29.089,HideSeek_v1,2022.2.5,59.93683856700536,
,2,1,7,1,5,0,66,,train_dim1_1,18,30,,,,2,0,2,0,,,,,,,,,0,0,0,0,0,17,17,17,4,0,4,0,,,,,,,,,,,,,,,,,,,,,,,,,,,,,,,,,,,,,,,,,,,,,,,,,,,,,,,,,,,,,,,,30,,,,,,,,2251.359002500074,2251.359002500074,2251.359002500074,2251.359002500074,2251.359002500074,right,0.4580341000109911,2,0,0,99,0.4,-0.32,right,0.37922909995540977,,,,,,,,,,,,,,,,,,,,,,,,,,,,,,,,,,,,,,,,,,,,,,,,,,,,,,,,,,,,98P29L,train_x,red_square,bottom_left,2025-05-23_17h03.29.089,HideSeek_v1,2022.2.5,59.93683856700536,
,2,1,7,1,5,0,66,,train_dim1_1,18,30,,,,2,0,2,0,,,,,,,,,0,0,0,0,0,17,17,17,5,0,5,0,,,,,,,,,,,,,,,,,,,,,,,,,,,,,,,,,,,,,,,,,,,,,,,,,,,,,,,,,,,,,,,,30,,,,,,,,2251.8244975000853,2251.8244975000853,2251.8244975000853,2251.8244975000853,2251.8244975000853,right,0.4093763999408111,2,0,0,99,0.48000000000000004,-0.32,right,0.3252809999976307,,,,,,,,,,,,,,,,,,,,,,,,,,,,,,,,,,,,,,,,,,,,,,,,,,,,,,,,,,,,98P29L,train_x,red_square,bottom_left,2025-05-23_17h03.29.089,HideSeek_v1,2022.2.5,59.93683856700536,
,2,1,7,1,5,0,66,,train_dim1_1,18,30,,,,2,0,2,0,,,,,,,,,0,0,0,0,0,17,17,17,6,0,6,0,,,,,,,,,,,,,,,,,,,,,,,,,,,,,,,,,,,,,,,,,,,,,,,,,,,,,,,,,,,,,,,,30,,,,,,,,2252.241404700093,2252.241404700093,2252.241404700093,2252.241404700093,2252.241404700093,right,0.3112553999526426,2,0,0,99,0.56,-0.32,right,0.2348608000902459,,,,,,,,,,,,,,,,,,,,,,,,,,,,,,,,,,,,,,,,,,,,,,,,,,,,,,,,,,,,98P29L,train_x,red_square,bottom_left,2025-05-23_17h03.29.089,HideSeek_v1,2022.2.5,59.93683856700536,
,2,1,7,1,5,0,66,,train_dim1_1,18,30,,,,2,0,2,0,,,,,,,,,0,0,0,0,0,17,17,17,7,0,7,0,,,,,,,,,,,,,,,,,,,,,,,,,,,,,,,,,,,,,,,,,,,,,,,,,,,,,,,,,,,,,,,,30,,,,,,,,2252.5606173000997,2252.5606173000997,2252.5606173000997,2252.5606173000997,2252.5606173000997,return,0.6933311999309808,2,0,0,0,0.56,-0.32,return,0.6162310000509024,8,58,0.56,-0.32,,,,,,,,,,,,,,,,,,,,,,,,,,,,,,,,,,,,,,,,,,,,,,,,,,,,,,,,98P29L,train_x,red_square,bottom_left,2025-05-23_17h03.29.089,HideSeek_v1,2022.2.5,59.93683856700536,
,0,3,3,3,3,0,46,,train_dim1_1,19,30,,,,2,0,2,0,,,,,,,,,0,0,0,0,0,18,18,18,0,0,0,0,,,,,,,,,,,,,,,,,,,,,,,,,stimuli/alien_stimuli/46.png,,,,,,,,,,,,,,,,,,,,,,,,,,,,,stimuli/alien_stimuli/66.png,66,2,20,,,,,,,30,,,,,,,,2259.1640843000496,2259.1640843000496,2259.1640843000496,2259.1640843000496,2259.1640843000496,right,3.0354289999231696,2,0,0,99,-0.08,-0.16,right,2.956880599958822,,,,,2257.5982823000522,2259.1640843000496,0.4,-0.32,0.0,0.4,-0.32,0.4,0.2,0.4,-0.32,2254.837629500078,2254.837629500078,2254.837629500078,2254.837629500078,2254.837629500078,2254.837629500078,2254.837629500078,2254.837629500078,2254.8283899801318,2.889289499958977,return,2.7388243000023067,,,,,,,,,,,,,,,,,,,,,,,,,,,,,,,,,98P29L,train_x,red_square,bottom_left,2025-05-23_17h03.29.089,HideSeek_v1,2022.2.5,59.93683856700536,
,0,3,3,3,3,0,46,,train_dim1_1,19,30,,,,2,0,2,0,,,,,,,,,0,0,0,0,0,18,18,18,1,0,1,0,,,,,,,,,,,,,,,,,,,,,,,,,,,,,,,,,,,,,,,,,,,,,,,,,,,,,,,,,,,,,,,,30,,,,,,,,2262.209826000035,2262.209826000035,2262.209826000035,2262.209826000035,2262.209826000035,return,0.6195271000033244,2,0,0,0,-0.08,-0.16,return,0.5319090000120923,8,59,-0.08,-0.16,,,,,,,,,,,,,,,,,,,,,,,,,,,,,,,,,,,,,,,,,,,,,,,,,,,,,,,,98P29L,train_x,red_square,bottom_left,2025-05-23_17h03.29.089,HideSeek_v1,2022.2.5,59.93683856700536,
,0,1,0,1,0,0,16,,train_dim1_1,20,30,,,,2,0,2,0,,,,,,,,,0,0,0,0,0,19,19,19,0,0,0,0,,,,,,,,,,,,,,,,,,,,,,,,,stimuli/alien_stimuli/16.png,,,,,,,,,,,,,,,,,,,,,,,,,,,,,stimuli/alien_stimuli/46.png,46,0,21,,,,,,,30,,,,,,,,2268.7593906000257,2268.7593906000257,2268.7593906000257,2268.7593906000257,2268.7593906000257,right,3.6841181000927463,2,0,0,99,-0.08,-0.32,right,3.595386100001633,,,,,2267.1896555999992,2268.7593906000257,0.08,-0.16,0.0,0.24,-0.16,0.08,-0.04,0.08,-0.16,2264.4098547000904,2264.4098547000904,2264.4098547000904,2264.4098547000904,2264.4098547000904,2264.4098547000904,2264.4098547000904,2264.4098547000904,2264.404802520119,2.8880103999981657,return,2.7542135000694543,,,,,,,,,,,,,,,,,,,,,,,,,,,,,,,,,98P29L,train_x,red_square,bottom_left,2025-05-23_17h03.29.089,HideSeek_v1,2022.2.5,59.93683856700536,
,0,1,0,1,0,0,16,,train_dim1_1,20,30,,,,2,0,2,0,,,,,,,,,0,0,0,0,0,19,19,19,1,0,1,0,,,,,,,,,,,,,,,,,,,,,,,,,,,,,,,,,,,,,,,,,,,,,,,,,,,,,,,,,,,,,,,,30,,,,,,,,2272.4483941000653,2272.4483941000653,2272.4483941000653,2272.4483941000653,2272.4483941000653,right,0.3932751000393182,2,0,0,99,0.0,-0.32,right,0.30037940002512187,,,,,,,,,,,,,,,,,,,,,,,,,,,,,,,,,,,,,,,,,,,,,,,,,,,,,,,,,,,,98P29L,train_x,red_square,bottom_left,2025-05-23_17h03.29.089,HideSeek_v1,2022.2.5,59.93683856700536,
,0,1,0,1,0,0,16,,train_dim1_1,20,30,,,,2,0,2,0,,,,,,,,,0,0,0,0,0,19,19,19,2,0,2,0,,,,,,,,,,,,,,,,,,,,,,,,,,,,,,,,,,,,,,,,,,,,,,,,,,,,,,,,,,,,,,,,30,,,,,,,,2272.8495932000224,2272.8495932000224,2272.8495932000224,2272.8495932000224,2272.8495932000224,right,0.3758234999841079,2,0,0,99,0.08,-0.32,right,0.28461940004490316,,,,,,,,,,,,,,,,,,,,,,,,,,,,,,,,,,,,,,,,,,,,,,,,,,,,,,,,,,,,98P29L,train_x,red_square,bottom_left,2025-05-23_17h03.29.089,HideSeek_v1,2022.2.5,59.93683856700536,
,0,1,0,1,0,0,16,,train_dim1_1,20,30,,,,2,0,2,0,,,,,,,,,0,0,0,0,0,19,19,19,3,0,3,0,,,,,,,,,,,,,,,,,,,,,,,,,,,,,,,,,,,,,,,,,,,,,,,,,,,,,,,,,,,,,,,,30,,,,,,,,2273.2287911000894,2273.2287911000894,2273.2287911000894,2273.2287911000894,2273.2287911000894,right,0.3595574999926612,2,0,0,99,0.16,-0.32,right,0.2725380000192672,,,,,,,,,,,,,,,,,,,,,,,,,,,,,,,,,,,,,,,,,,,,,,,,,,,,,,,,,,,,98P29L,train_x,red_square,bottom_left,2025-05-23_17h03.29.089,HideSeek_v1,2022.2.5,59.93683856700536,
,0,1,0,1,0,0,16,,train_dim1_1,20,30,,,,2,0,2,0,,,,,,,,,0,0,0,0,0,19,19,19,4,0,4,0,,,,,,,,,,,,,,,,,,,,,,,,,,,,,,,,,,,,,,,,,,,,,,,,,,,,,,,,,,,,,,,,30,,,,,,,,2273.600374600035,2273.600374600035,2273.600374600035,2273.600374600035,2273.600374600035,right,0.5103313999716192,2,0,0,99,0.24,-0.32,right,0.4241411000257358,,,,,,,,,,,,,,,,,,,,,,,,,,,,,,,,,,,,,,,,,,,,,,,,,,,,,,,,,,,,98P29L,train_x,red_square,bottom_left,2025-05-23_17h03.29.089,HideSeek_v1,2022.2.5,59.93683856700536,
,0,1,0,1,0,0,16,,train_dim1_1,20,30,,,,2,0,2,0,,,,,,,,,0,0,0,0,0,19,19,19,5,0,5,0,,,,,,,,,,,,,,,,,,,,,,,,,,,,,,,,,,,,,,,,,,,,,,,,,,,,,,,,,,,,,,,,30,,,,,,,,2274.1159207000164,2274.1159207000164,2274.1159207000164,2274.1159207000164,2274.1159207000164,right,3.7795375999994576,2,0,0,99,0.32,-0.32,right,3.7005569000029936,,,,,,,,,,,,,,,,,,,,,,,,,,,,,,,,,,,,,,,,,,,,,,,,,,,,,,,,,,,,98P29L,train_x,red_square,bottom_left,2025-05-23_17h03.29.089,HideSeek_v1,2022.2.5,59.93683856700536,
,0,1,0,1,0,0,16,,train_dim1_1,20,30,,,,2,0,2,0,,,,,,,,,0,0,0,0,0,19,19,19,6,0,6,0,,,,,,,,,,,,,,,,,,,,,,,,,,,,,,,,,,,,,,,,,,,,,,,,,,,,,,,,,,,,,,,,30,,,,,,,,2277.902839999995,2277.902839999995,2277.902839999995,2277.902839999995,2277.902839999995,return,0.6935712000122294,2,0,0,0,0.32,-0.32,return,0.6139279999770224,8,65,0.32,-0.32,,,,,,,,,,,,,,,,,,,,,,,,,,,,,,,,,,,,,,,,,,,,,,,,,,,,,,,,98P29L,train_x,red_square,bottom_left,2025-05-23_17h03.29.089,HideSeek_v1,2022.2.5,59.93683856700536,
,4,2,7,2,3,0,46,,train_dim1_1,21,30,,,,2,0,2,0,,,,,,,,,0,0,0,0,0,20,20,20,0,0,0,0,,,,,,,,,,,,,,,,,,,,,,,,,stimuli/alien_stimuli/46.png,,,,,,,,,,,,,,,,,,,,,,,,,,,,,stimuli/alien_stimuli/16.png,16,0,22,,,,,,,30,,,,,,,,2285.9075785999885,2285.9075785999885,2285.9075785999885,2285.9075785999885,2285.9075785999885,return,2.3635615999810398,2,0,0,0,0.16,-0.24,return,2.282100999960676,8,65,0.16,-0.24,2284.336393100093,2285.9075785999885,-0.16,-0.32,0.0,0.0,-0.32,-0.16,-0.16,-0.16,-0.32,2280.17436360009,2280.17436360009,2280.17436360009,2280.17436360009,2280.17436360009,2280.17436360009,2280.17436360009,2280.17436360009,2280.167362880078,4.290025800000876,return,4.1421605999348685,,,,,,,,,,,,,,,,,,,,,,,,,,,,,,,,,98P29L,train_x,red_square,bottom_left,2025-05-23_17h03.29.089,HideSeek_v1,2022.2.5,59.93683856700536,
,1,0,2,0,1,0,26,,train_dim1_1,22,30,,,,2,0,2,0,,,,,,,,,0,0,0,0,0,21,21,21,0,0,0,0,,,,,,,,,,,,,,,,,,,,,,,,,stimuli/alien_stimuli/26.png,,,,,,,,,,,,,,,,,,,,,,,,,,,,,stimuli/alien_stimuli/46.png,46,4,23,,,,,,,30,,,,,,,,2294.463824100094,2294.463824100094,2294.463824100094,2294.463824100094,2294.463824100094,right,3.868025799980387,2,0,0,99,0.0,-0.4,right,3.7706974000902846,,,,,2292.8947368999943,2294.463824100094,0.4,-0.24,0.0,0.24,-0.24,0.4,0.28,0.4,-0.24,2289.847576600034,2289.847576600034,2289.847576600034,2289.847576600034,2289.847576600034,2289.847576600034,2289.847576600034,2289.847576600034,2289.8259568600915,3.1553820999106392,return,3.028472000034526,,,,,,,,,,,,,,,,,,,,,,,,,,,,,,,,,98P29L,train_x,red_square,bottom_left,2025-05-23_17h03.29.089,HideSeek_v1,2022.2.5,59.93683856700536,
,1,0,2,0,1,0,26,,train_dim1_1,22,30,,,,2,0,2,0,,,,,,,,,0,0,0,0,0,21,21,21,1,0,1,0,,,,,,,,,,,,,,,,,,,,,,,,,,,,,,,,,,,,,,,,,,,,,,,,,,,,,,,,,,,,,,,,30,,,,,,,,2298.336378600099,2298.336378600099,2298.336378600099,2298.336378600099,2298.336378600099,right,0.6095965000567958,2,0,0,99,0.08,-0.4,right,0.5276555999880657,,,,,,,,,,,,,,,,,,,,,,,,,,,,,,,,,,,,,,,,,,,,,,,,,,,,,,,,,,,,98P29L,train_x,red_square,bottom_left,2025-05-23_17h03.29.089,HideSeek_v1,2022.2.5,59.93683856700536,
,1,0,2,0,1,0,26,,train_dim1_1,22,30,,,,2,0,2,0,,,,,,,,,0,0,0,0,0,21,21,21,2,0,2,0,,,,,,,,,,,,,,,,,,,,,,,,,,,,,,,,,,,,,,,,,,,,,,,,,,,,,,,,,,,,,,,,30,,,,,,,,2298.9543717000633,2298.9543717000633,2298.9543717000633,2298.9543717000633,2298.9543717000633,right,0.5267408000072464,2,0,0,99,0.16,-0.4,right,0.4398079999955371,,,,,,,,,,,,,,,,,,,,,,,,,,,,,,,,,,,,,,,,,,,,,,,,,,,,,,,,,,,,98P29L,train_x,red_square,bottom_left,2025-05-23_17h03.29.089,HideSeek_v1,2022.2.5,59.93683856700536,
,1,0,2,0,1,0,26,,train_dim1_1,22,30,,,,2,0,2,0,,,,,,,,,0,0,0,0,0,21,21,21,3,0,3,0,,,,,,,,,,,,,,,,,,,,,,,,,,,,,,,,,,,,,,,,,,,,,,,,,,,,,,,,,,,,,,,,30,,,,,,,,2299.486833900097,2299.486833900097,2299.486833900097,2299.486833900097,2299.486833900097,right,0.3099610999925062,2,0,0,99,0.24,-0.4,right,0.2173729999922216,,,,,,,,,,,,,,,,,,,,,,,,,,,,,,,,,,,,,,,,,,,,,,,,,,,,,,,,,,,,98P29L,train_x,red_square,bottom_left,2025-05-23_17h03.29.089,HideSeek_v1,2022.2.5,59.93683856700536,
,1,0,2,0,1,0,26,,train_dim1_1,22,30,,,,2,0,2,0,,,,,,,,,0,0,0,0,0,21,21,21,4,0,4,0,,,,,,,,,,,,,,,,,,,,,,,,,,,,,,,,,,,,,,,,,,,,,,,,,,,,,,,,,,,,,,,,30,,,,,,,,2299.8019930000883,2299.8019930000883,2299.8019930000883,2299.8019930000883,2299.8019930000883,right,0.32665079995058477,2,0,0,99,0.32,-0.4,right,0.24118160002399236,,,,,,,,,,,,,,,,,,,,,,,,,,,,,,,,,,,,,,,,,,,,,,,,,,,,,,,,,,,,98P29L,train_x,red_square,bottom_left,2025-05-23_17h03.29.089,HideSeek_v1,2022.2.5,59.93683856700536,
,1,0,2,0,1,0,26,,train_dim1_1,22,30,,,,2,0,2,0,,,,,,,,,0,0,0,0,0,21,21,21,5,0,5,0,,,,,,,,,,,,,,,,,,,,,,,,,,,,,,,,,,,,,,,,,,,,,,,,,,,,,,,,,,,,,,,,30,,,,,,,,2300.1371829001,2300.1371829001,2300.1371829001,2300.1371829001,2300.1371829001,right,0.2912452999735251,2,0,0,99,0.4,-0.4,right,0.1991745000705123,,,,,,,,,,,,,,,,,,,,,,,,,,,,,,,,,,,,,,,,,,,,,,,,,,,,,,,,,,,,98P29L,train_x,red_square,bottom_left,2025-05-23_17h03.29.089,HideSeek_v1,2022.2.5,59.93683856700536,
,1,0,2,0,1,0,26,,train_dim1_1,22,30,,,,2,0,2,0,,,,,,,,,0,0,0,0,0,21,21,21,6,0,6,0,,,,,,,,,,,,,,,,,,,,,,,,,,,,,,,,,,,,,,,,,,,,,,,,,,,,,,,,,,,,,,,,30,,,,,,,,2300.435530800023,2300.435530800023,2300.435530800023,2300.435530800023,2300.435530800023,right,0.29445369995664805,2,0,0,99,0.48000000000000004,-0.4,right,0.21271540003363043,,,,,,,,,,,,,,,,,,,,,,,,,,,,,,,,,,,,,,,,,,,,,,,,,,,,,,,,,,,,98P29L,train_x,red_square,bottom_left,2025-05-23_17h03.29.089,HideSeek_v1,2022.2.5,59.93683856700536,
,1,0,2,0,1,0,26,,train_dim1_1,22,30,,,,2,0,2,0,,,,,,,,,0,0,0,0,0,21,21,21,7,0,7,0,,,,,,,,,,,,,,,,,,,,,,,,,,,,,,,,,,,,,,,,,,,,,,,,,,,,,,,,,,,,,,,,30,,,,,,,,2300.738237200072,2300.738237200072,2300.738237200072,2300.738237200072,2300.738237200072,right,0.4266964999260381,2,0,0,99,0.56,-0.4,right,0.33174019993748516,,,,,,,,,,,,,,,,,,,,,,,,,,,,,,,,,,,,,,,,,,,,,,,,,,,,,,,,,,,,98P29L,train_x,red_square,bottom_left,2025-05-23_17h03.29.089,HideSeek_v1,2022.2.5,59.93683856700536,
,1,0,2,0,1,0,26,,train_dim1_1,22,30,,,,2,0,2,0,,,,,,,,,0,0,0,0,0,21,21,21,8,0,8,0,,,,,,,,,,,,,,,,,,,,,,,,,,,,,,,,,,,,,,,,,,,,,,,,,,,,,,,,,,,,,,,,30,,,,,,,,2301.1718525000615,2301.1718525000615,2301.1718525000615,2301.1718525000615,2301.1718525000615,return,0.843646900029853,2,0,0,0,0.56,-0.4,return,0.7541971999453381,8,73,0.56,-0.4,,,,,,,,,,,,,,,,,,,,,,,,,,,,,,,,,,,,,,,,,,,,,,,,,,,,,,,,98P29L,train_x,red_square,bottom_left,2025-05-23_17h03.29.089,HideSeek_v1,2022.2.5,59.93683856700536,
,2,1,7,1,5,0,66,,train_dim1_1,23,30,,,,2,0,2,0,,,,,,,,,0,0,0,0,0,22,22,22,0,0,0,0,,,,,,,,,,,,,,,,,,,,,,,,,stimuli/alien_stimuli/66.png,,,,,,,,,,,,,,,,,,,,,,,,,,,,,stimuli/alien_stimuli/26.png,26,1,24,,,,,,,30,,,,,,,,2334.2585223000497,2334.2585223000497,2334.2585223000497,2334.2585223000497,2334.2585223000497,right,10.206213299999945,2,0,0,99,0.08,-0.32,right,10.110790999955498,,,,,2332.6774592000293,2334.2585223000497,0,-0.4,0.0,0.08,-0.4,0,-0.04,0,-0.4,2303.589016800048,2303.589016800048,2303.589016800048,2303.589016800048,2303.589016800048,2303.589016800048,2303.589016800048,2303.589016800048,2303.568971220113,29.211393899982795,return,29.056761999963783,,,,,,,,,,,,,,,,,,,,,,,,,,,,,,,,,98P29L,train_x,red_square,bottom_left,2025-05-23_17h03.29.089,HideSeek_v1,2022.2.5,59.93683856700536,
,2,1,7,1,5,0,66,,train_dim1_1,23,30,,,,2,0,2,0,,,,,,,,,0,0,0,0,0,22,22,22,1,0,1,0,,,,,,,,,,,,,,,,,,,,,,,,,,,,,,,,,,,,,,,,,,,,,,,,,,,,,,,,,,,,,,,,30,,,,,,,,2344.455154500087,2344.455154500087,2344.455154500087,2344.455154500087,2344.455154500087,return,1.2099171999143437,2,0,0,0,0.08,-0.32,return,1.1163038000231609,8,74,0.08,-0.32,,,,,,,,,,,,,,,,,,,,,,,,,,,,,,,,,,,,,,,,,,,,,,,,,,,,,,,,98P29L,train_x,red_square,bottom_left,2025-05-23_17h03.29.089,HideSeek_v1,2022.2.5,59.93683856700536,
,4,4,8,4,4,0,56,,train_dim1_1,24,30,,,,2,0,2,0,,,,,,,,,0,0,0,0,0,23,23,23,0,0,0,0,,,,,,,,,,,,,,,,,,,,,,,,,stimuli/alien_stimuli/56.png,,,,,,,,,,,,,,,,,,,,,,,,,,,,,stimuli/alien_stimuli/66.png,66,2,25,,,,,,,30,,,,,,,,2354.4638312000316,2354.4638312000316,2354.4638312000316,2354.4638312000316,2354.4638312000316,return,3.484702100045979,2,0,0,0,0.16,-0.08,return,3.3877561000408605,8,74,0.16,-0.08,2352.8949322000844,2354.4638312000316,0.4,-0.32,0.0,0.4,-0.32,0.4,0.2,0.4,-0.32,2347.238479600055,2347.238479600055,2347.238479600055,2347.238479600055,2347.238479600055,2347.238479600055,2347.238479600055,2347.238479600055,2347.2231891201227,5.774438300053589,return,5.628996699932031,,,,,,,,,,,,,,,,,,,,,,,,,,,,,,,,,98P29L,train_x,red_square,bottom_left,2025-05-23_17h03.29.089,HideSeek_v1,2022.2.5,59.93683856700536,
,3,0,3,0,0,0,16,,train_dim1_1,25,30,,,,2,0,2,0,,,,,,,,,0,0,0,0,0,24,24,24,0,0,0,0,,,,,,,,,,,,,,,,,,,,,,,,,stimuli/alien_stimuli/16.png,,,,,,,,,,,,,,,,,,,,,,,,,,,,,stimuli/alien_stimuli/56.png,56,4,26,,,,,,,30,,,,,,,,2362.9833925000858,2362.9833925000858,2362.9833925000858,2362.9833925000858,2362.9833925000858,up,6.219944900018163,2,0,0,99,0.08,-0.32,up,6.1097838000860065,,,,,2361.4010206999956,2362.9833925000858,0.48,-0.08,0.0,0.32,-0.08,0.48,0.32,0.48,-0.08,2359.5286037999904,2359.5286037999904,2359.5286037999904,2359.5286037999904,2359.5286037999904,2359.5286037999904,2359.5286037999904,2359.5286037999904,2359.517038380145,2.003031799918972,return,1.8417278999695554,,,,,,,,,,,,,,,,,,,,,,,,,,,,,,,,,98P29L,train_x,red_square,bottom_left,2025-05-23_17h03.29.089,HideSeek_v1,2022.2.5,59.93683856700536,
,3,0,3,0,0,0,16,,train_dim1_1,25,30,,,,2,0,2,0,,,,,,,,,0,0,0,0,0,24,24,24,1,0,1,0,,,,,,,,,,,,,,,,,,,,,,,,,,,,,,,,,,,,,,,,,,,,,,,,,,,,,,,,,,,,,,,,30,,,,,,,,2369.197846300085,2369.197846300085,2369.197846300085,2369.197846300085,2369.197846300085,return,0.7596914999885485,2,1,0,0,0.08,-0.32,return,0.6620614000130445,9,74,0.08,-0.32,,,,,,,,,,,,,,,,,,,,,,,,,,,,,,,,,,,,,,,,,,,,,,,,,,,,,,,,98P29L,train_x,red_square,bottom_left,2025-05-23_17h03.29.089,HideSeek_v1,2022.2.5,59.93683856700536,
,1,1,6,1,5,0,66,,train_dim1_1,26,30,,,,2,0,2,0,,,,,,,,,0,0,0,0,0,25,25,25,0,0,0,0,,,,,,,,,,,,,,,,,,,,,,,,,stimuli/alien_stimuli/66.png,,,,,,,,,,,,,,,,,,,,,,,,,,,,,stimuli/alien_stimuli/16.png,16,3,27,,,,,,,30,,,,,,,,2377.2636522999965,2377.2636522999965,2377.2636522999965,2377.2636522999965,2377.2636522999965,right,6.320853000041097,2,1,0,99,0.0,-0.32,right,6.233845300041139,,,,,2375.6963325000834,2377.2636522999965,0.08,-0.4,0.0,0.0,-0.4,0.08,0.08,0.08,-0.4,2371.535024000099,2371.535024000099,2371.535024000099,2371.535024000099,2371.535024000099,2371.535024000099,2371.535024000099,2371.535024000099,2371.5273264801363,4.287393999984488,return,4.139371500001289,,,,,,,,,,,,,,,,,,,,,,,,,,,,,,,,,98P29L,train_x,red_square,bottom_left,2025-05-23_17h03.29.089,HideSeek_v1,2022.2.5,59.93683856700536,
,1,1,6,1,5,0,66,,train_dim1_1,26,30,,,,2,0,2,0,,,,,,,,,0,0,0,0,0,25,25,25,1,0,1,0,,,,,,,,,,,,,,,,,,,,,,,,,,,,,,,,,,,,,,,,,,,,,,,,,,,,,,,,,,,,,,,,30,,,,,,,,2383.5857794000767,2383.5857794000767,2383.5857794000767,2383.5857794000767,2383.5857794000767,right,0.3761712000705302,2,1,0,99,0.08,-0.32,right,0.2870169999077916,,,,,,,,,,,,,,,,,,,,,,,,,,,,,,,,,,,,,,,,,,,,,,,,,,,,,,,,,,,,98P29L,train_x,red_square,bottom_left,2025-05-23_17h03.29.089,HideSeek_v1,2022.2.5,59.93683856700536,
,1,1,6,1,5,0,66,,train_dim1_1,26,30,,,,2,0,2,0,,,,,,,,,0,0,0,0,0,25,25,25,2,0,2,0,,,,,,,,,,,,,,,,,,,,,,,,,,,,,,,,,,,,,,,,,,,,,,,,,,,,,,,,,,,,,,,,30,,,,,,,,2383.968189200037,2383.968189200037,2383.968189200037,2383.968189200037,2383.968189200037,right,0.3432351000374183,2,1,0,99,0.16,-0.32,right,0.26348219998180866,,,,,,,,,,,,,,,,,,,,,,,,,,,,,,,,,,,,,,,,,,,,,,,,,,,,,,,,,,,,98P29L,train_x,red_square,bottom_left,2025-05-23_17h03.29.089,HideSeek_v1,2022.2.5,59.93683856700536,
,1,1,6,1,5,0,66,,train_dim1_1,26,30,,,,2,0,2,0,,,,,,,,,0,0,0,0,0,25,25,25,3,0,3,0,,,,,,,,,,,,,,,,,,,,,,,,,,,,,,,,,,,,,,,,,,,,,,,,,,,,,,,,,,,,,,,,30,,,,,,,,2384.3201002000133,2384.3201002000133,2384.3201002000133,2384.3201002000133,2384.3201002000133,right,0.5261430999962613,2,1,0,99,0.24,-0.32,right,0.4363955999724567,,,,,,,,,,,,,,,,,,,,,,,,,,,,,,,,,,,,,,,,,,,,,,,,,,,,,,,,,,,,98P29L,train_x,red_square,bottom_left,2025-05-23_17h03.29.089,HideSeek_v1,2022.2.5,59.93683856700536,
,1,1,6,1,5,0,66,,train_dim1_1,26,30,,,,2,0,2,0,,,,,,,,,0,0,0,0,0,25,25,25,4,0,4,0,,,,,,,,,,,,,,,,,,,,,,,,,,,,,,,,,,,,,,,,,,,,,,,,,,,,,,,,,,,,,,,,30,,,,,,,,2384.8523827000754,2384.8523827000754,2384.8523827000754,2384.8523827000754,2384.8523827000754,right,1.0102430999977514,2,1,0,99,0.32,-0.32,right,0.9245584999443963,,,,,,,,,,,,,,,,,,,,,,,,,,,,,,,,,,,,,,,,,,,,,,,,,,,,,,,,,,,,98P29L,train_x,red_square,bottom_left,2025-05-23_17h03.29.089,HideSeek_v1,2022.2.5,59.93683856700536,
,1,1,6,1,5,0,66,,train_dim1_1,26,30,,,,2,0,2,0,,,,,,,,,0,0,0,0,0,25,25,25,5,0,5,0,,,,,,,,,,,,,,,,,,,,,,,,,,,,,,,,,,,,,,,,,,,,,,,,,,,,,,,,,,,,,,,,30,,,,,,,,2385.872577400063,2385.872577400063,2385.872577400063,2385.872577400063,2385.872577400063,return,5.480925100040622,3,0,0,1,0.32,-0.32,return,5.394011000054888,9,79,0.32,-0.32,,,,,,,,,,,,,,,,,,,,,,,,,,,,,,,,,,,,,,,,,,,,,,,,,,,,,,,,98P29L,train_x,red_square,bottom_left,2025-05-23_17h03.29.089,HideSeek_v1,2022.2.5,59.93683856700536,
,0,1,3,1,3,0,46,,train_dim1_1,27,30,,,,2,0,2,0,,,,,,,,,0,0,0,0,0,26,26,26,0,0,0,0,,,,,,,,,,,,,,,,,,,,,,,,,stimuli/alien_stimuli/46.png,,,,,,,,,,,,,,,,,,,,,,,,,,,,,stimuli/alien_stimuli/66.png,66,1,28,,,,,,,30,,,,,,,,2397.0548017000547,2397.0548017000547,2397.0548017000547,2397.0548017000547,2397.0548017000547,right,5.219121300033294,3,0,0,99,-0.08,-0.32,right,5.128769600065425,,,,,2395.4793460000074,2397.0548017000547,0.32,-0.32,0.0,0.4,-0.32,0.32,0.12,0.32,-0.32,2392.9476511999965,2392.9476511999965,2392.9476511999965,2392.9476511999965,2392.9476511999965,2392.9476511999965,2392.9476511999965,2392.9476511999965,2392.9280665200786,2.6540656000142917,return,2.4997410000069067,,,,,,,,,,,,,,,,,,,,,,,,,,,,,,,,,98P29L,train_x,red_square,bottom_left,2025-05-23_17h03.29.089,HideSeek_v1,2022.2.5,59.93683856700536,
,0,1,3,1,3,0,46,,train_dim1_1,27,30,,,,2,0,2,0,,,,,,,,,0,0,0,0,0,26,26,26,1,0,1,0,,,,,,,,,,,,,,,,,,,,,,,,,,,,,,,,,,,,,,,,,,,,,,,,,,,,,,,,,,,,,,,,30,,,,,,,,2402.2699196999893,2402.2699196999893,2402.2699196999893,2402.2699196999893,2402.2699196999893,right,0.2594214000273496,3,0,0,99,0.0,-0.32,right,0.17732359992805868,,,,,,,,,,,,,,,,,,,,,,,,,,,,,,,,,,,,,,,,,,,,,,,,,,,,,,,,,,,,98P29L,train_x,red_square,bottom_left,2025-05-23_17h03.29.089,HideSeek_v1,2022.2.5,59.93683856700536,
,0,1,3,1,3,0,46,,train_dim1_1,27,30,,,,2,0,2,0,,,,,,,,,0,0,0,0,0,26,26,26,2,0,2,0,,,,,,,,,,,,,,,,,,,,,,,,,,,,,,,,,,,,,,,,,,,,,,,,,,,,,,,,,,,,,,,,30,,,,,,,,2402.5338013999863,2402.5338013999863,2402.5338013999863,2402.5338013999863,2402.5338013999863,return,0.7932596999453381,3,1,0,0,0.0,-0.32,return,0.7183364999946207,9,81,0.0,-0.32,,,,,,,,,,,,,,,,,,,,,,,,,,,,,,,,,,,,,,,,,,,,,,,,,,,,,,,,98P29L,train_x,red_square,bottom_left,2025-05-23_17h03.29.089,HideSeek_v1,2022.2.5,59.93683856700536,
,3,1,4,1,1,0,26,,train_dim1_1,28,30,,,,2,0,2,0,,,,,,,,,0,0,0,0,0,27,27,27,0,0,0,0,,,,,,,,,,,,,,,,,,,,,,,,,stimuli/alien_stimuli/26.png,,,,,,,,,,,,,,,,,,,,,,,,,,,,,stimuli/alien_stimuli/46.png,46,0,29,,,,,,,30,,,,,,,,2408.6057530000107,2408.6057530000107,2408.6057530000107,2408.6057530000107,2408.6057530000107,return,4.166876999894157,3,1,0,0,0.08,-0.32,return,4.0662104999646544,9,81,0.08,-0.32,2407.0223162000766,2408.6057530000107,0.08,-0.32,0.0,0.24,-0.32,0.08,-0.04,0.08,-0.32,2404.8923995000077,2404.8923995000077,2404.8923995000077,2404.8923995000077,2404.8923995000077,2404.8923995000077,2404.8923995000077,2404.8923995000077,2404.871249360149,2.2360914999153465,return,2.110469799954444,,,,,,,,,,,,,,,,,,,,,,,,,,,,,,,,,98P29L,train_x,red_square,bottom_left,2025-05-23_17h03.29.089,HideSeek_v1,2022.2.5,59.93683856700536,
,4,0,8,0,4,0,56,,train_dim1_1,29,30,,,,2,0,2,0,,,,,,,,,0,0,0,0,0,28,28,28,0,0,0,0,,,,,,,,,,,,,,,,,,,,,,,,,stimuli/alien_stimuli/56.png,,,,,,,,,,,,,,,,,,,,,,,,,,,,,stimuli/alien_stimuli/26.png,26,3,30,,,,,,,30,,,,,,,,2418.0627434999915,2418.0627434999915,2418.0627434999915,2418.0627434999915,2418.0627434999915,up,10.138303900021128,3,1,0,99,0.16,-0.32,up,10.031620799913071,,,,,2416.480925800046,2418.0627434999915,0.16,-0.32,0.0,0.08,-0.32,0.16,0.12,0.16,-0.32,2414.3239216000075,2414.3239216000075,2414.3239216000075,2414.3239216000075,2414.3239216000075,2414.3239216000075,2414.3239216000075,2414.3239216000075,2414.3125354201184,2.272249500034377,return,2.1412594000576064,,,,,,,,,,,,,,,,,,,,,,,,,,,,,,,,,98P29L,train_x,red_square,bottom_left,2025-05-23_17h03.29.089,HideSeek_v1,2022.2.5,59.93683856700536,
,4,0,8,0,4,0,56,,train_dim1_1,29,30,,,,2,0,2,0,,,,,,,,,0,0,0,0,0,28,28,28,1,0,1,0,,,,,,,,,,,,,,,,,,,,,,,,,,,,,,,,,,,,,,,,,,,,,,,,,,,,,,,,,,,,,,,,30,,,,,,,,2428.190397200058,2428.190397200058,2428.190397200058,2428.190397200058,2428.190397200058,return,0.9754151999950409,3,0,0,0,0.16,-0.32,return,0.898837500018999,10,81,0.16,-0.32,,,,,,,,,,,,,,,,,,,,,,,,,,,,,,,,,,,,,,,,,,,,,,,,,,,,,,,,98P29L,train_x,red_square,bottom_left,2025-05-23_17h03.29.089,HideSeek_v1,2022.2.5,59.93683856700536,
,2,2,2,2,0,0,16,,train_dim1_1,30,30,,,,2,0,2,0,,,,,,,,,0,0,0,0,0,29,29,29,0,0,0,0,,,,,,,,,,,,,,,,,,,,,,,,,stimuli/alien_stimuli/16.png,,,,,,,,,,,,,,,,,,,,,,,,,,,,,stimuli/alien_stimuli/56.png,56,4,31,,,,,,,30,,,,,,,,2435.0654738000594,2435.0654738000594,2435.0654738000594,2435.0654738000594,2435.0654738000594,right,3.651384099968709,3,0,0,99,0.08,-0.24,right,3.5679646999342367,,,,,2433.4959213000257,2435.0654738000594,0.48,-0.4,0.0,0.32,-0.4,0.48,0.32,0.48,-0.4,2430.7446966000134,2430.7446966000134,2430.7446966000134,2430.7446966000134,2430.7446966000134,2430.7446966000134,2430.7446966000134,2430.7446966000134,2430.725534920057,2.873011599993333,return,2.734922399977222,,,,,,,,,,,,,,,,,,,,,,,,,,,,,,,,,98P29L,train_x,red_square,bottom_left,2025-05-23_17h03.29.089,HideSeek_v1,2022.2.5,59.93683856700536,
,2,2,2,2,0,0,16,,train_dim1_1,30,30,,,,2,0,2,0,,,,,,,,,0,0,0,0,0,29,29,29,1,0,1,0,,,,,,,,,,,,,,,,,,,,,,,,,,,,,,,,,,,,,,,,,,,,,,,,,,,,,,,,,,,,,,,,30,,,,,,,,2438.7204600000987,2438.7204600000987,2438.7204600000987,2438.7204600000987,2438.7204600000987,return,0.4735540000256151,3,1,0,0,0.08,-0.24,return,0.3807256000582129,10,82,0.08,-0.24,,,,,,,,,,,,,,,,,,,,,,,,,,,,,,,,,,,,,,,,,,,,,,,,,,,,,,,,98P29L,train_x,red_square,bottom_left,2025-05-23_17h03.29.089,HideSeek_v1,2022.2.5,59.93683856700536,
,,,,,,,,,,,30,,,,2,0,2,0,,,,,,,,,,,,,,,,,,,,,,,,,,,,,,,,,,,,,,,,,,,,,,,,,,,,,,,,,,,,,,,,,,,,,,,,,,stimuli/alien_stimuli/16.png,16,2,32,21,0.7,0.125,1,1,1,30,0,conditions/schedules/train_x_first/red_square_00/bottom_left/inputTrain_2.1.xlsx,99,1,2,1,0,,,,,,,,,,,0,,,,,,,,,2442.8028813001,2444.3612892000237,0,-0.24,0.0,0.0,-0.24,0,0.0,0,-0.24,2440.7683588000946,2440.7683588000946,2440.7683588000946,2440.7683588000946,2440.7683588000946,2440.7683588000946,2440.7683588000946,2440.7683588000946,2440.750515020045,2.1549119000555947,return,2.008910599979572,0,0.9,0,1,3,,,,,,,,,,,,,,,,,,,,,,,,,,,,98P29L,train_x,red_square,bottom_left,2025-05-23_17h03.29.089,HideSeek_v1,2022.2.5,59.93683856700536,
,,,,,,,,,,,,,,,3,0,3,0,0,0,0,0,,,,,,,,,,,,,,,,,,,,,,,,,,,,,,,conditions/schedules/train_x_first/red_square_00/bottom_left/instructions/Slide17.png,conditions/schedules/train_x_first/red_square_00/bottom_left/instructions/Audio17.wav,2444.3612892000237,2444.3541710401187,17,"[4.99449019995518, 18.16219370008912, 18.217754099983722, 19.26971409993712, 4.387430599890649, 4.93242409999948, 5.6019704000791535, 13.954265600070357, 5.886185500072315, 6.817121300031431, 11.352088499930687, 12.471175100072287, 16.740096000023186, 12.858038599952124, 30.490315899951383, 21.9777678999817, 131.63240929995663]","[0.00022110005374997854, 0.06943390006199479, 0.00022209994494915009, 0.05218889995012432, 0.03114650002680719, 0.047520400024950504, 0.01478960004169494, 0.014149600057862699, 0.06074840005021542, 0.03753820003475994, 11.352098200004548, 12.471185000031255, 0.030976300011388958, 12.858048300025985, 0.014619600027799606, 21.97777799994219, 131.6324240999529]",0,,,,,,,,,,,,,,,,,,,,,,,,,,,,,,,,,,,,,,,,,,,,,,,,,,,,,,,,,,,,,,,,,,,,,,,,,,,,,,,,,,,,,,,,,,,,,,,,,,,,,,,,,,,,,,,,,,,,,,,,,,,,98P29L,train_x,red_square,bottom_left,2025-05-23_17h03.29.089,HideSeek_v1,2022.2.5,59.93683856700536,
,,,,,,,,,,,,,,,3,0,3,0,1,0,1,0,,,,,,,,,,,,,,,,,,,,,,,,,,,,,,,conditions/schedules/train_x_first/red_square_00/bottom_left/instructions/Slide18.png,conditions/schedules/train_x_first/red_square_00/bottom_left/instructions/Audio18.wav,2576.0614202000434,2576.0623238001135,18,"[4.99449019995518, 18.16219370008912, 18.217754099983722, 19.26971409993712, 4.387430599890649, 4.93242409999948, 5.6019704000791535, 13.954265600070357, 5.886185500072315, 6.817121300031431, 11.352088499930687, 12.471175100072287, 16.740096000023186, 12.858038599952124, 30.490315899951383, 21.9777678999817, 131.63240929995663, 5.937154000042938]","[0.00022110005374997854, 0.06943390006199479, 0.00022209994494915009, 0.05218889995012432, 0.03114650002680719, 0.047520400024950504, 0.01478960004169494, 0.014149600057862699, 0.06074840005021542, 0.03753820003475994, 11.352098200004548, 12.471185000031255, 0.030976300011388958, 12.858048300025985, 0.014619600027799606, 21.97777799994219, 0.05029279994778335, 5.937162999995053]",0,,,,,,,,,,,,,,,,,,,,,,,,,,,,,,,,,,,,,,,,,,,,,,,,,,,,,,,,,,,,,,,,,,,,,,,,,,,,,,,,,,,,,,,,,,,,,,,,,,,,,,,,,,,,,,,,,,,,,,,,,,,,98P29L,train_x,red_square,bottom_left,2025-05-23_17h03.29.089,HideSeek_v1,2022.2.5,59.93683856700536,
,,,,,,,,,,,,,,,3,0,3,0,2,0,2,0,,,,,,,,,,,,,,,,,,,,,,,,,,,,,,,conditions/schedules/train_x_first/red_square_00/bottom_left/instructions/Slide19.png,conditions/schedules/train_x_first/red_square_00/bottom_left/instructions/Audio19.wav,2582.040953100077,2582.0349468800123,19,"[4.99449019995518, 18.16219370008912, 18.217754099983722, 19.26971409993712, 4.387430599890649, 4.93242409999948, 5.6019704000791535, 13.954265600070357, 5.886185500072315, 6.817121300031431, 11.352088499930687, 12.471175100072287, 16.740096000023186, 12.858038599952124, 30.490315899951383, 21.9777678999817, 131.63240929995663, 5.937154000042938, 9.918672399944626]","[0.00022110005374997854, 0.06943390006199479, 0.00022209994494915009, 0.05218889995012432, 0.03114650002680719, 0.047520400024950504, 0.01478960004169494, 0.014149600057862699, 0.06074840005021542, 0.03753820003475994, 11.352098200004548, 12.471185000031255, 0.030976300011388958, 12.858048300025985, 0.014619600027799606, 21.97777799994219, 0.05029279994778335, 0.038098599994555116, 9.918682299903594]",0,,,,,,,,,,,,,,,,,,,,,,,,,,,,,,,,,,,,,,,,,,,,,,,,,,,,,,,,,,,,,,,,,,,,,,,,,,,,,,,,,,,,,,,,,,,,,,,,,,,,,,,,,,,,,,,,,,,,,,,,,,,,98P29L,train_x,red_square,bottom_left,2025-05-23_17h03.29.089,HideSeek_v1,2022.2.5,59.93683856700536,
