trialInstr,x_fixStart,y_fixStart,x_corrSteps,y_corrSteps,x_nrSteps,y_nrSteps,alienID,trialLength,version,trialTrain,praclen,testlen,trial_label,break_on_off,beforeExpLoop.thisRepN,beforeExpLoop.thisTrialN,beforeExpLoop.thisN,beforeExpLoop.thisIndex,mini_instr_trials.thisRepN,mini_instr_trials.thisTrialN,mini_instr_trials.thisN,mini_instr_trials.thisIndex,instrLoop.thisRepN,instrLoop.thisTrialN,instrLoop.thisN,instrLoop.thisIndex,repeat_prac.thisRepN,repeat_prac.thisTrialN,repeat_prac.thisN,repeat_prac.thisIndex,trainLoop.thisRepN,trainLoop.thisTrialN,trainLoop.thisN,trainLoop.thisIndex,moveLoop_train.thisRepN,moveLoop_train.thisTrialN,moveLoop_train.thisN,moveLoop_train.thisIndex,experiment.thisRepN,experiment.thisTrialN,experiment.thisN,experiment.thisIndex,moveLoop_test.thisRepN,moveLoop_test.thisTrialN,moveLoop_test.thisN,moveLoop_test.thisIndex,mini_instr2_trials.thisRepN,mini_instr2_trials.thisTrialN,mini_instr2_trials.thisN,mini_instr2_trials.thisIndex,start_all_time,url,slideStim,audioStim,slides.started,sounds.started,nextButton.numClicks,nextButton.timesOn,nextButton.timesOff,prev_but.numClicks,prev_but.timesOn,prev_but.timesOff,alienStim,instrFile,alienStim_instr,gridImage_instr.started,startPos_3.started,key_instr.started,alienImage_3.started,sounds_1.started,key_instr.keys,key_instr.rt,all_x,all_y,FBy_corrSteps,FBy_fixStart,FBx_corrSteps,FBx_fixStart,FBy_pathSize_check,FBx_pathSize_check,gridImage_9.started,alienImageFB_3.started,startPosFB_3.started,keyFB_3.started,pathLine_ydir_2.started,pathLine_xdir_2.started,alienFace_3.started,sounds_2.started,RTFB_instr,keyFB_3.keys,keyFB_3.rt,draw_alienStim,draw_alienID,test_x,nrepcount,perfthres,percthres,earlierperf,earlystop,nextPrac,fileidx,praclen,saveACC_train,pracFile,nextPrac_train,addNrep,fileidx_endr,repExp,showearly,gridImage_4.started,startPos.started,movePos.started,key_resp.started,alienImage.started,buttonPress_train,RTchoice_train,cumAcctrain,aCorr,saveACC_choice,corrAns,x_movePos_end,y_movePos_end,key_resp.keys,key_resp.rt,wLy_dir,wLx_dir,x_movePos,y_movePos,text_2.started,text_2.stopped,aft_x_corrPos,aft_y_corrPos,y_pathSize_check,x_pathSize_check,y_pathdirY,x_pathdirY,x_pathdirX,x_corrPos,y_corrPos,gridImage_6.started,alienImageFB_2.started,startPosFB_2.started,movePosFB_2.started,keyFB_2.started,pathLine_xdir.started,pathLine_ydir.started,alienFace.started,sounds_4.started,RT_FBtrain,keyFB_2.keys,keyFB_2.rt,saveACC_pre,ACC,within_saveACC_train,earlystop_wloop,cumAcctrain_check,gridImage_3.started,alienImage_test.started,startPos_test.started,movePos_test.started,key_resp_test.started,wLy_dir_test,wLx_dir_test,buttonPress_test,RTchoice_test,cumAcctest,corrAns_test,key_resp_test.keys,key_resp_test.rt,text_3.started,text_3.stopped,total_time,end_all_time,key_resp_3.keys,slides_2.started,sounds_3.started,nextButton_2.numClicks,nextButton_2.timesOn,nextButton_2.timesOff,prev_but_2.numClicks,prev_but_2.timesOn,prev_but_2.timesOff,bye.started,participant,train_first,00_coordinate,starting corner,date,expName,psychopyVersion,frameRate,
,,,,,,,,,,,,,,,0,0,0,0,0,0,0,0,,,,,,,,,,,,,,,,,,,,,,,,,,,,,start_all_time,testround,conditions/schedules/train_x_first/red_square_00/bottom_right/instructions/Slide1.png,conditions/schedules/train_x_first/red_square_00/bottom_right/instructions/Audio1.wav,1150.6961588999256,1150.6497419498628,1,[11.552676500054076],[11.552683300105855],0,,,,,,,,,,,,,,,,,,,,,,,,,,,,,,,,,,,,,,,,,,,,,,,,,,,,,,,,,,,,,,,,,,,,,,,,,,,,,,,,,,,,,,,,,,,,,,,,,,,,,,,,,,,,,,,,,,,,,,,,,,,,9DAVUV,train_x,red_square,bottom_right,2025-02-04_11h05.24.754,HideSeek_v1,2022.2.5,59.86679643693921,
,,,,,,,,,,,,,,,0,0,0,0,1,0,1,0,,,,,,,,,,,,,,,,,,,,,,,,,,,,,,,conditions/schedules/train_x_first/red_square_00/bottom_right/instructions/Slide2.png,conditions/schedules/train_x_first/red_square_00/bottom_right/instructions/Audio2.wav,1162.2680214000866,1162.2545100799296,2,"[11.552676500054076, 37.598262399900705]","[11.552683300105855, 37.59826949983835]",0,,,,,,,,,,,,,,,,,,,,,,,,,,,,,,,,,,,,,,,,,,,,,,,,,,,,,,,,,,,,,,,,,,,,,,,,,,,,,,,,,,,,,,,,,,,,,,,,,,,,,,,,,,,,,,,,,,,,,,,,,,,,9DAVUV,train_x,red_square,bottom_right,2025-02-04_11h05.24.754,HideSeek_v1,2022.2.5,59.86679643693921,
,,,,,,,,,,,,,,,0,0,0,0,2,0,2,0,,,,,,,,,,,,,,,,,,,,,,,,,,,,,,,conditions/schedules/train_x_first/red_square_00/bottom_right/instructions/Slide3.png,conditions/schedules/train_x_first/red_square_00/bottom_right/instructions/Audio3.wav,1199.9472109999042,1199.9354738498805,3,"[11.552676500054076, 37.598262399900705, 17.383714499883354]","[11.552683300105855, 0.0002218999434262514, 17.383721799822524]",0,,,,,,,,,,,,,,,,,,,,,,,,,,,,,,,,,,,,,,,,,,,,,,,,,,,,,,,,,,,,,,,,,,,,,,,,,,,,,,,,,,,,,,,,,,,,,,,,,,,,,,,,,,,,,,,,,,,,,,,,,,,,9DAVUV,train_x,red_square,bottom_right,2025-02-04_11h05.24.754,HideSeek_v1,2022.2.5,59.86679643693921,
,,,,,,,,,,,,,,,0,0,0,0,3,0,3,0,,,,,,,,,,,,,,,,,,,,,,,,,,,,,,,conditions/schedules/train_x_first/red_square_00/bottom_right/instructions/Slide4.png,conditions/schedules/train_x_first/red_square_00/bottom_right/instructions/Audio4.wav,1217.4140301998705,1217.4165104199667,4,"[11.552676500054076, 37.598262399900705, 17.383714499883354, 19.583042499842122]","[11.552683300105855, 0.0002218999434262514, 0.03303479985333979, 19.583050600020215]",0,,,,,,,,,,,,,,,,,,,,,,,,,,,,,,,,,,,,,,,,,,,,,,,,,,,,,,,,,,,,,,,,,,,,,,,,,,,,,,,,,,,,,,,,,,,,,,,,,,,,,,,,,,,,,,,,,,,,,,,,,,,,9DAVUV,train_x,red_square,bottom_right,2025-02-04_11h05.24.754,HideSeek_v1,2022.2.5,59.86679643693921,
,,,,,,,,,,,,,,,0,0,0,0,4,0,4,0,,,,,,,,,,,,,,,,,,,,,,,,,,,,,,,conditions/schedules/train_x_first/red_square_00/bottom_right/instructions/Slide5.png,conditions/schedules/train_x_first/red_square_00/bottom_right/instructions/Audio5.wav,1237.0637280000374,1237.066354950075,5,"[11.552676500054076, 37.598262399900705, 17.383714499883354, 19.583042499842122, 4.8370477999560535]","[11.552683300105855, 0.0002218999434262514, 0.03303479985333979, 0.06636940012685955, 4.837054800009355]",0,,,,,,,,,,,,,,,,,,,,,,,,,,,,,,,,,,,,,,,,,,,,,,,,,,,,,,,,,,,,,,,,,,,,,,,,,,,,,,,,,,,,,,,,,,,,,,,,,,,,,,,,,,,,,,,,,,,,,,,,,,,,9DAVUV,train_x,red_square,bottom_right,2025-02-04_11h05.24.754,HideSeek_v1,2022.2.5,59.86679643693921,
,,,,,,,,,,,,,,,0,0,0,0,5,0,5,0,,,,,,,,,,,,,,,,,,,,,,,,,,,,,,,conditions/schedules/train_x_first/red_square_00/bottom_right/instructions/Slide6.png,conditions/schedules/train_x_first/red_square_00/bottom_right/instructions/Audio6.wav,1241.952049399959,1241.9538021799642,6,"[11.552676500054076, 37.598262399900705, 17.383714499883354, 19.583042499842122, 4.8370477999560535, 5.020280000055209]","[11.552683300105855, 0.0002218999434262514, 0.03303479985333979, 0.06636940012685955, 0.06563380011357367, 5.020288200117648]",0,,,,,,,,,,,,,,,,,,,,,,,,,,,,,,,,,,,,,,,,,,,,,,,,,,,,,,,,,,,,,,,,,,,,,,,,,,,,,,,,,,,,,,,,,,,,,,,,,,,,,,,,,,,,,,,,,,,,,,,,,,,,9DAVUV,train_x,red_square,bottom_right,2025-02-04_11h05.24.754,HideSeek_v1,2022.2.5,59.86679643693921,
,,,,,,,,,,,,,,,0,0,0,0,6,0,6,0,,,,,,,,,,,,,,,,,,,,,,,,,,,,,,,conditions/schedules/train_x_first/red_square_00/bottom_right/instructions/Slide7.png,conditions/schedules/train_x_first/red_square_00/bottom_right/instructions/Audio7.wav,1247.0229577999562,1247.0246777799446,7,"[11.552676500054076, 37.598262399900705, 17.383714499883354, 19.583042499842122, 4.8370477999560535, 5.020280000055209, 5.803791799815372]","[11.552683300105855, 0.0002218999434262514, 0.03303479985333979, 0.06636940012685955, 0.06563380011357367, 0.08213509991765022, 5.803798699984327]",0,,,,,,,,,,,,,,,,,,,,,,,,,,,,,,,,,,,,,,,,,,,,,,,,,,,,,,,,,,,,,,,,,,,,,,,,,,,,,,,,,,,,,,,,,,,,,,,,,,,,,,,,,,,,,,,,,,,,,,,,,,,,9DAVUV,train_x,red_square,bottom_right,2025-02-04_11h05.24.754,HideSeek_v1,2022.2.5,59.86679643693921,
,,,,,,,,,,,,,,,0,0,0,0,7,0,7,0,,,,,,,,,,,,,,,,,,,,,,,,,,,,,,,conditions/schedules/train_x_first/red_square_00/bottom_right/instructions/Slide8.png,conditions/schedules/train_x_first/red_square_00/bottom_right/instructions/Audio8.wav,1252.8800031000283,1252.8795111800544,8,"[11.552676500054076, 37.598262399900705, 17.383714499883354, 19.583042499842122, 4.8370477999560535, 5.020280000055209, 5.803791799815372, 11.974315300118178]","[11.552683300105855, 0.0002218999434262514, 0.03303479985333979, 0.06636940012685955, 0.06563380011357367, 0.08213509991765022, 0.06430750014260411, 11.974322700174525]",0,,,,,,,,,,,,,,,,,,,,,,,,,,,,,,,,,,,,,,,,,,,,,,,,,,,,,,,,,,,,,,,,,,,,,,,,,,,,,,,,,,,,,,,,,,,,,,,,,,,,,,,,,,,,,,,,,,,,,,,,,,,,9DAVUV,train_x,red_square,bottom_right,2025-02-04_11h05.24.754,HideSeek_v1,2022.2.5,59.86679643693921,
,,,,,,,,,,,,,,,0,0,0,0,8,0,8,0,,,,,,,,,,,,,,,,,,,,,,,,,,,,,,,conditions/schedules/train_x_first/red_square_00/bottom_right/instructions/Slide9.png,conditions/schedules/train_x_first/red_square_00/bottom_right/instructions/Audio9.wav,1264.9232292999513,1264.9228279498639,9,"[11.552676500054076, 37.598262399900705, 17.383714499883354, 19.583042499842122, 4.8370477999560535, 5.020280000055209, 5.803791799815372, 11.974315300118178, 6.335668599931523]","[11.552683300105855, 0.0002218999434262514, 0.03303479985333979, 0.06636940012685955, 0.06563380011357367, 0.08213509991765022, 0.06430750014260411, 0.0636668000370264, 6.3356759999878705]",0,,,,,,,,,,,,,,,,,,,,,,,,,,,,,,,,,,,,,,,,,,,,,,,,,,,,,,,,,,,,,,,,,,,,,,,,,,,,,,,,,,,,,,,,,,,,,,,,,,,,,,,,,,,,,,,,,,,,,,,,,,,,9DAVUV,train_x,red_square,bottom_right,2025-02-04_11h05.24.754,HideSeek_v1,2022.2.5,59.86679643693921,
,,,,,,,,,,,,,,,0,0,0,0,9,0,9,0,,,,,,,,,,,,,,,,,,,,,,,,,,,,,,,conditions/schedules/train_x_first/red_square_00/bottom_right/instructions/Slide10.png,conditions/schedules/train_x_first/red_square_00/bottom_right/instructions/Audio10.wav,1271.3179553998634,1271.3113967799115,10,"[11.552676500054076, 37.598262399900705, 17.383714499883354, 19.583042499842122, 4.8370477999560535, 5.020280000055209, 5.803791799815372, 11.974315300118178, 6.335668599931523, 7.46392529993318]","[11.552683300105855, 0.0002218999434262514, 0.03303479985333979, 0.06636940012685955, 0.06563380011357367, 0.08213509991765022, 0.06430750014260411, 0.0636668000370264, 0.07420639996416867, 7.463932799873874]",0,,,,,,,,,,,,,,,,,,,,,,,,,,,,,,,,,,,,,,,,,,,,,,,,,,,,,,,,,,,,,,,,,,,,,,,,,,,,,,,,,,,,,,,,,,,,,,,,,,,,,,,,,,,,,,,,,,,,,,,,,,,,9DAVUV,train_x,red_square,bottom_right,2025-02-04_11h05.24.754,HideSeek_v1,2022.2.5,59.86679643693921,
,,,,,,,,,,,,,,,0,0,0,0,10,0,10,0,,,,,,,,,,,,,,,,,,,,,,,,,,,,,,,conditions/schedules/train_x_first/red_square_00/bottom_right/instructions/Slide11.png,conditions/schedules/train_x_first/red_square_00/bottom_right/instructions/Audio11.wav,1278.8361889000516,1278.8341557799838,11,"[11.552676500054076, 37.598262399900705, 17.383714499883354, 19.583042499842122, 4.8370477999560535, 5.020280000055209, 5.803791799815372, 11.974315300118178, 6.335668599931523, 7.46392529993318, 10.136596000054851]","[11.552683300105855, 0.0002218999434262514, 0.03303479985333979, 0.06636940012685955, 0.06563380011357367, 0.08213509991765022, 0.06430750014260411, 0.0636668000370264, 0.07420639996416867, 0.07771890005096793, 10.136603400111198]",0,,,,,,,,,,,,,,,,,,,,,,,,,,,,,,,,,,,,,,,,,,,,,,,,,,,,,,,,,,,,,,,,,,,,,,,,,,,,,,,,,,,,,,,,,,,,,,,,,,,,,,,,,,,,,,,,,,,,,,,,,,,,9DAVUV,train_x,red_square,bottom_right,2025-02-04_11h05.24.754,HideSeek_v1,2022.2.5,59.86679643693921,
,,,,,,,,,,,,,,,0,0,0,0,11,0,11,0,,,,,,,,,,,,,,,,,,,,,,,,,,,,,,,conditions/schedules/train_x_first/red_square_00/bottom_right/instructions/Slide12.png,conditions/schedules/train_x_first/red_square_00/bottom_right/instructions/Audio12.wav,1289.0437459000386,1289.0427030500723,12,"[11.552676500054076, 37.598262399900705, 17.383714499883354, 19.583042499842122, 4.8370477999560535, 5.020280000055209, 5.803791799815372, 11.974315300118178, 6.335668599931523, 7.46392529993318, 10.136596000054851, 12.907078700140119]","[11.552683300105855, 0.0002218999434262514, 0.03303479985333979, 0.06636940012685955, 0.06563380011357367, 0.08213509991765022, 0.06430750014260411, 0.0636668000370264, 0.07420639996416867, 0.07771890005096793, 0.06295790011063218, 12.907085900194943]",0,,,,,,,,,,,,,,,,,,,,,,,,,,,,,,,,,,,,,,,,,,,,,,,,,,,,,,,,,,,,,,,,,,,,,,,,,,,,,,,,,,,,,,,,,,,,,,,,,,,,,,,,,,,,,,,,,,,,,,,,,,,,9DAVUV,train_x,red_square,bottom_right,2025-02-04_11h05.24.754,HideSeek_v1,2022.2.5,59.86679643693921,
1,8,2,3,2,-5,0,66,2,instr_dim1_1,,,,,,0,0,0,0,,,,,0,0,0,0,,,,,,,,,,,,,,,,,,,,,,,,,,,,,,,,,,,,,stimuli/alien_stimuli/66.png,conditions/schedules/train_x_first/red_square_00/bottom_right/inputInstr_1.xlsx,stimuli/alien_stimuli/66.png,1302.0526491999626,1302.0526491999626,1302.0526491999626,1302.0526491999626,1302.0536502899836,return,43.59391910000704,"[-0.16, -0.08, 0, 0.08, 0.16, 0.24, 0.32, 0.4, 0.48, 0.56]","[-0.4, -0.32, -0.24, -0.16, -0.08, 0, 0.08, 0.16, 0.24, 0.32]",2,2,3,8,0.0,0.4,1345.808762599947,1345.808762599947,1345.808762599947,1345.808762599947,1345.808762599947,1345.808762599947,1345.808762599947,1345.806038230029,8.925186200067401,return,8.76185500016436,stimuli/alien_stimuli/66.png,66,8,1,,,,,,,,,,,,,,,,,,,,,,,,,,,,,,,,,,,,,,,,,,,,,,,,,,,,,,,,,,,,,,,,,,,,,,,,,,,,,,,,,,,,,,,,,9DAVUV,train_x,red_square,bottom_right,2025-02-04_11h05.24.754,HideSeek_v1,2022.2.5,59.86679643693921,
,,,,,,,,,,,30,,,,0,0,0,0,,,,,,,,,,,,,,,,,,,,,,,,,,,,,,,,,,,,,,,,,,,,,,,,,,,,,,,,,,,,,,,,,,,,,,,,,,,,,,21,0.7,0,0,99,1,30,0,conditions/schedules/train_x_first/red_square_00/bottom_right/inputTrain_1.1.xlsx,99,1,1,1,0,,,,,,,,,,,,,,,,,,,,,,,,,,,,,,,,,,,,,,,,,,,,,,,,,,,,,,,,,,,,,,,,,,,,,,,,,,,9DAVUV,train_x,red_square,bottom_right,2025-02-04_11h05.24.754,HideSeek_v1,2022.2.5,59.86679643693921,
,,,,,,,,,,,,,,,1,0,1,0,0,0,0,0,,,,,,,,,,,,,,,,,,,,,,,,,,,,,,,conditions/schedules/train_x_first/red_square_00/bottom_right/instructions/Slide13.png,conditions/schedules/train_x_first/red_square_00/bottom_right/instructions/Audio13.wav,1354.7266985999886,1354.7136081600563,13,"[11.552676500054076, 37.598262399900705, 17.383714499883354, 19.583042499842122, 4.8370477999560535, 5.020280000055209, 5.803791799815372, 11.974315300118178, 6.335668599931523, 7.46392529993318, 10.136596000054851, 12.907078700140119, 18.466210799990222]","[11.552683300105855, 0.0002218999434262514, 0.03303479985333979, 0.06636940012685955, 0.06563380011357367, 0.08213509991765022, 0.06430750014260411, 0.0636668000370264, 0.07420639996416867, 0.07771890005096793, 0.06295790011063218, 12.907085900194943, 18.466217699926347]",0,,,,,,,,,,,,,,,,,,,,,,,,,,,,,,,,,,,,,,,,,,,,,,,,,,,,,,,,,,,,,,,,,,,,,,,,,,,,,,,,,,,,,,,,,,,,,,,,,,,,,,,,,,,,,,,,,,,,,,,,,,,,9DAVUV,train_x,red_square,bottom_right,2025-02-04_11h05.24.754,HideSeek_v1,2022.2.5,59.86679643693921,
,,,,,,,,,,,,,,,1,0,1,0,1,0,1,0,,,,,,,,,,,,,,,,,,,,,,,,,,,,,,,conditions/schedules/train_x_first/red_square_00/bottom_right/instructions/Slide14.png,conditions/schedules/train_x_first/red_square_00/bottom_right/instructions/Audio14.wav,1373.2656529999804,1373.2625798500376,14,"[11.552676500054076, 37.598262399900705, 17.383714499883354, 19.583042499842122, 4.8370477999560535, 5.020280000055209, 5.803791799815372, 11.974315300118178, 6.335668599931523, 7.46392529993318, 10.136596000054851, 12.907078700140119, 18.466210799990222, 23.89772229990922]","[11.552683300105855, 0.0002218999434262514, 0.03303479985333979, 0.06636940012685955, 0.06563380011357367, 0.08213509991765022, 0.06430750014260411, 0.0636668000370264, 0.07420639996416867, 0.07771890005096793, 0.06295790011063218, 12.907085900194943, 0.00021369988098740578, 23.897729499964043]",0,,,,,,,,,,,,,,,,,,,,,,,,,,,,,,,,,,,,,,,,,,,,,,,,,,,,,,,,,,,,,,,,,,,,,,,,,,,,,,,,,,,,,,,,,,,,,,,,,,,,,,,,,,,,,,,,,,,,,,,,,,,,9DAVUV,train_x,red_square,bottom_right,2025-02-04_11h05.24.754,HideSeek_v1,2022.2.5,59.86679643693921,
2,9,0,9,0,0,0,16,2,instr_dim1_1,,,,,,1,0,1,0,,,,,0,0,0,0,,,,,,,,,,,,,,,,,,,,,,,,,,,,,,,,,,,,,stimuli/alien_stimuli/16.png,conditions/schedules/train_x_first/red_square_00/bottom_right/inputInstr_1.xlsx,stimuli/alien_stimuli/16.png,1397.2752246998716,1397.2752246998716,1397.2752246998716,1397.2752246998716,1397.2660164900358,return,6.11369220004417,"[-0.16, -0.08, 0, 0.08, 0.16, 0.24, 0.32, 0.4, 0.48, 0.56]","[-0.4, -0.32, -0.24, -0.16, -0.08, 0, 0.08, 0.16, 0.24, 0.32]",0,0,9,9,0.0,0.0,1403.5801876999903,1403.5801876999903,1403.5801876999903,1403.5801876999903,1403.5801876999903,1403.5801876999903,1403.5801876999903,1403.571239599958,9.24143710010685,return,9.055058000143617,stimuli/alien_stimuli/16.png,16,9,2,,,,,,,,,,,,,,,,,,,,,,,,,,,,,,,,,,,,,,,,,,,,,,,,,,,,,,,,,,,,,,,,,,,,,,,,,,,,,,,,,,,,,,,,,9DAVUV,train_x,red_square,bottom_right,2025-02-04_11h05.24.754,HideSeek_v1,2022.2.5,59.86679643693921,
,,,,,,,,,,,30,,,,1,0,1,0,,,,,,,,,,,,,,,,,,,,,,,,,,,,,,,,,,,,,,,,,,,,,,,,,,,,,,,,,,,,,,,,,,,,,,,,,,,,,,21,0.7,0,0,99,1,30,0,conditions/schedules/train_x_first/red_square_00/bottom_right/inputTrain_1.1.xlsx,99,1,1,1,0,,,,,,,,,,,,,,,,,,,,,,,,,,,,,,,,,,,,,,,,,,,,,,,,,,,,,,,,,,,,,,,,,,,,,,,,,,,9DAVUV,train_x,red_square,bottom_right,2025-02-04_11h05.24.754,HideSeek_v1,2022.2.5,59.86679643693921,
,,,,,,,,,,,,,,,2,0,2,0,0,0,0,0,,,,,,,,,,,,,,,,,,,,,,,,,,,,,,,conditions/schedules/train_x_first/red_square_00/bottom_right/instructions/Slide15.png,conditions/schedules/train_x_first/red_square_00/bottom_right/instructions/Audio15.wav,1412.7988324000034,1412.7948877299903,15,"[11.552676500054076, 37.598262399900705, 17.383714499883354, 19.583042499842122, 4.8370477999560535, 5.020280000055209, 5.803791799815372, 11.974315300118178, 6.335668599931523, 7.46392529993318, 10.136596000054851, 12.907078700140119, 18.466210799990222, 23.89772229990922, 30.652438999852166]","[11.552683300105855, 0.0002218999434262514, 0.03303479985333979, 0.06636940012685955, 0.06563380011357367, 0.08213509991765022, 0.06430750014260411, 0.0636668000370264, 0.07420639996416867, 0.07771890005096793, 0.06295790011063218, 12.907085900194943, 0.00021369988098740578, 23.897729499964043, 30.65244619990699]",0,,,,,,,,,,,,,,,,,,,,,,,,,,,,,,,,,,,,,,,,,,,,,,,,,,,,,,,,,,,,,,,,,,,,,,,,,,,,,,,,,,,,,,,,,,,,,,,,,,,,,,,,,,,,,,,,,,,,,,,,,,,,9DAVUV,train_x,red_square,bottom_right,2025-02-04_11h05.24.754,HideSeek_v1,2022.2.5,59.86679643693921,
,,,,,,,,,,,,,,,2,0,2,0,1,0,1,0,,,,,,,,,,,,,,,,,,,,,,,,,,,,,,,conditions/schedules/train_x_first/red_square_00/bottom_right/instructions/Slide16.png,conditions/schedules/train_x_first/red_square_00/bottom_right/instructions/Audio16.wav,1443.52733479999,1443.5207166500622,16,"[11.552676500054076, 37.598262399900705, 17.383714499883354, 19.583042499842122, 4.8370477999560535, 5.020280000055209, 5.803791799815372, 11.974315300118178, 6.335668599931523, 7.46392529993318, 10.136596000054851, 12.907078700140119, 18.466210799990222, 23.89772229990922, 30.652438999852166, 22.025920699816197]","[11.552683300105855, 0.0002218999434262514, 0.03303479985333979, 0.06636940012685955, 0.06563380011357367, 0.08213509991765022, 0.06430750014260411, 0.0636668000370264, 0.07420639996416867, 0.07771890005096793, 0.06295790011063218, 12.907085900194943, 0.00021369988098740578, 23.897729499964043, 0.07874219981022179, 22.025927799986675]",0,,,,,,,,,,,,,,,,,,,,,,,,,,,,,,,,,,,,,,,,,,,,,,,,,,,,,,,,,,,,,,,,,,,,,,,,,,,,,,,,,,,,,,,,,,,,,,,,,,,,,,,,,,,,,,,,,,,,,,,,,,,,9DAVUV,train_x,red_square,bottom_right,2025-02-04_11h05.24.754,HideSeek_v1,2022.2.5,59.86679643693921,
,7,1,4,1,-3,0,46,,train_dim1_1,1,30,,,,2,0,2,0,,,,,,,,,0,0,0,0,0,0,0,0,0,0,0,0,,,,,,,,,,,,,,,,,,,,,,,,,stimuli/alien_stimuli/46.png,,,,,,,,,,,,,,,,,,,,,,,,,,,,,,,,,,,,,,,30,,,,,,,,1465.6495582000352,1465.6495582000352,1465.6495582000352,1465.6495582000352,1465.6495582000352,left,8.033745699794963,0,0,0,99,0.32,-0.32,left,7.946054799947888,,,,,,,,,,,,,,,,,,,,,,,,,,,,,,,,,,,,,,,,,,,,,,,,,,,,,,,,,,,,9DAVUV,train_x,red_square,bottom_right,2025-02-04_11h05.24.754,HideSeek_v1,2022.2.5,59.86679643693921,
,7,1,4,1,-3,0,46,,train_dim1_1,1,30,,,,2,0,2,0,,,,,,,,,0,0,0,0,0,0,0,0,1,0,1,0,,,,,,,,,,,,,,,,,,,,,,,,,,,,,,,,,,,,,,,,,,,,,,,,,,,,,,,,,,,,,,,,30,,,,,,,,1473.6771992000286,1473.6771992000286,1473.6771992000286,1473.6771992000286,1473.6771992000286,left,1.4932345000561327,0,0,0,99,0.24,-0.32,left,1.407056299969554,,,,,,,,,,,,,,,,,,,,,,,,,,,,,,,,,,,,,,,,,,,,,,,,,,,,,,,,,,,,9DAVUV,train_x,red_square,bottom_right,2025-02-04_11h05.24.754,HideSeek_v1,2022.2.5,59.86679643693921,
,7,1,4,1,-3,0,46,,train_dim1_1,1,30,,,,2,0,2,0,,,,,,,,,0,0,0,0,0,0,0,0,2,0,2,0,,,,,,,,,,,,,,,,,,,,,,,,,,,,,,,,,,,,,,,,,,,,,,,,,,,,,,,,,,,,,,,,30,,,,,,,,1475.17637989996,1475.17637989996,1475.17637989996,1475.17637989996,1475.17637989996,left,12.970323800109327,0,0,0,99,0.15999999999999998,-0.32,left,12.897597499890253,,,,,,,,,,,,,,,,,,,,,,,,,,,,,,,,,,,,,,,,,,,,,,,,,,,,,,,,,,,,9DAVUV,train_x,red_square,bottom_right,2025-02-04_11h05.24.754,HideSeek_v1,2022.2.5,59.86679643693921,
,7,1,4,1,-3,0,46,,train_dim1_1,1,30,,,,2,0,2,0,,,,,,,,,0,0,0,0,0,0,0,0,3,0,3,0,,,,,,,,,,,,,,,,,,,,,,,,,,,,,,,,,,,,,,,,,,,,,,,,,,,,,,,,,,,,,,,,30,,,,,,,,1488.1715317999478,1488.1715317999478,1488.1715317999478,1488.1715317999478,1488.1715317999478,left,1.0440982000436634,0,0,0,99,0.07999999999999997,-0.32,left,0.9502512998878956,,,,,,,,,,,,,,,,,,,,,,,,,,,,,,,,,,,,,,,,,,,,,,,,,,,,,,,,,,,,9DAVUV,train_x,red_square,bottom_right,2025-02-04_11h05.24.754,HideSeek_v1,2022.2.5,59.86679643693921,
,7,1,4,1,-3,0,46,,train_dim1_1,1,30,,,,2,0,2,0,,,,,,,,,0,0,0,0,0,0,0,0,4,0,4,0,,,,,,,,,,,,,,,,,,,,,,,,,,,,,,,,,,,,,,,,,,,,,,,,,,,,,,,,,,,,,,,,30,,,,,,,,1489.2064515999518,1489.2064515999518,1489.2064515999518,1489.2064515999518,1489.2064515999518,right,2.828577300067991,0,0,0,99,0.15999999999999998,-0.32,right,2.7477347999811172,,,,,,,,,,,,,,,,,,,,,,,,,,,,,,,,,,,,,,,,,,,,,,,,,,,,,,,,,,,,9DAVUV,train_x,red_square,bottom_right,2025-02-04_11h05.24.754,HideSeek_v1,2022.2.5,59.86679643693921,
,7,1,4,1,-3,0,46,,train_dim1_1,1,30,,,,2,0,2,0,,,,,,,,,0,0,0,0,0,0,0,0,5,0,5,0,,,,,,,,,,,,,,,,,,,,,,,,,,,,,,,,,,,,,,,,,,,,,,,,,,,,,,,,,,,,,,,,30,,,,,,,,1492.042953300057,1492.042953300057,1492.042953300057,1492.042953300057,1492.042953300057,right,0.3097877998370677,0,0,0,99,0.24,-0.32,right,0.22284900001250207,,,,,,,,,,,,,,,,,,,,,,,,,,,,,,,,,,,,,,,,,,,,,,,,,,,,,,,,,,,,9DAVUV,train_x,red_square,bottom_right,2025-02-04_11h05.24.754,HideSeek_v1,2022.2.5,59.86679643693921,
,7,1,4,1,-3,0,46,,train_dim1_1,1,30,,,,2,0,2,0,,,,,,,,,0,0,0,0,0,0,0,0,6,0,6,0,,,,,,,,,,,,,,,,,,,,,,,,,,,,,,,,,,,,,,,,,,,,,,,,,,,,,,,,,,,,,,,,30,,,,,,,,1492.3587358000223,1492.3587358000223,1492.3587358000223,1492.3587358000223,1492.3587358000223,right,0.22671640012413263,0,0,0,99,0.32,-0.32,right,0.1520909999962896,,,,,,,,,,,,,,,,,,,,,,,,,,,,,,,,,,,,,,,,,,,,,,,,,,,,,,,,,,,,9DAVUV,train_x,red_square,bottom_right,2025-02-04_11h05.24.754,HideSeek_v1,2022.2.5,59.86679643693921,
,7,1,4,1,-3,0,46,,train_dim1_1,1,30,,,,2,0,2,0,,,,,,,,,0,0,0,0,0,0,0,0,7,0,7,0,,,,,,,,,,,,,,,,,,,,,,,,,,,,,,,,,,,,,,,,,,,,,,,,,,,,,,,,,,,,,,,,30,,,,,,,,1492.591575599974,1492.591575599974,1492.591575599974,1492.591575599974,1492.591575599974,right,0.25990910013206303,0,0,0,99,0.4,-0.32,right,0.18044239981099963,,,,,,,,,,,,,,,,,,,,,,,,,,,,,,,,,,,,,,,,,,,,,,,,,,,,,,,,,,,,9DAVUV,train_x,red_square,bottom_right,2025-02-04_11h05.24.754,HideSeek_v1,2022.2.5,59.86679643693921,
,7,1,4,1,-3,0,46,,train_dim1_1,1,30,,,,2,0,2,0,,,,,,,,,0,0,0,0,0,0,0,0,8,0,8,0,,,,,,,,,,,,,,,,,,,,,,,,,,,,,,,,,,,,,,,,,,,,,,,,,,,,,,,,,,,,,,,,30,,,,,,,,1492.8578476000112,1492.8578476000112,1492.8578476000112,1492.8578476000112,1492.8578476000112,right,0.2430066999513656,0,0,0,99,0.48000000000000004,-0.32,right,0.17131820018403232,,,,,,,,,,,,,,,,,,,,,,,,,,,,,,,,,,,,,,,,,,,,,,,,,,,,,,,,,,,,9DAVUV,train_x,red_square,bottom_right,2025-02-04_11h05.24.754,HideSeek_v1,2022.2.5,59.86679643693921,
,7,1,4,1,-3,0,46,,train_dim1_1,1,30,,,,2,0,2,0,,,,,,,,,0,0,0,0,0,0,0,0,9,0,9,0,,,,,,,,,,,,,,,,,,,,,,,,,,,,,,,,,,,,,,,,,,,,,,,,,,,,,,,,,,,,,,,,30,,,,,,,,1493.1080233999528,1493.1080233999528,1493.1080233999528,1493.1080233999528,1493.1080233999528,left,1.8449526999611408,0,0,0,99,0.4,-0.32,left,1.7712188998702914,,,,,,,,,,,,,,,,,,,,,,,,,,,,,,,,,,,,,,,,,,,,,,,,,,,,,,,,,,,,9DAVUV,train_x,red_square,bottom_right,2025-02-04_11h05.24.754,HideSeek_v1,2022.2.5,59.86679643693921,
,7,1,4,1,-3,0,46,,train_dim1_1,1,30,,,,2,0,2,0,,,,,,,,,0,0,0,0,0,0,0,0,10,0,10,0,,,,,,,,,,,,,,,,,,,,,,,,,,,,,,,,,,,,,,,,,,,,,,,,,,,,,,,,,,,,,,,,30,,,,,,,,1494.9596343999729,1494.9596343999729,1494.9596343999729,1494.9596343999729,1494.9596343999729,up,0.5266603999771178,0,0,0,99,0.4,-0.24,up,0.44956759992055595,,,,,,,,,,,,,,,,,,,,,,,,,,,,,,,,,,,,,,,,,,,,,,,,,,,,,,,,,,,,9DAVUV,train_x,red_square,bottom_right,2025-02-04_11h05.24.754,HideSeek_v1,2022.2.5,59.86679643693921,
,7,1,4,1,-3,0,46,,train_dim1_1,1,30,,,,2,0,2,0,,,,,,,,,0,0,0,0,0,0,0,0,11,0,11,0,,,,,,,,,,,,,,,,,,,,,,,,,,,,,,,,,,,,,,,,,,,,,,,,,,,,,,,,,,,,,,,,30,,,,,,,,1495.4925714000128,1495.4925714000128,1495.4925714000128,1495.4925714000128,1495.4925714000128,up,0.2767147000413388,0,0,0,99,0.4,-0.15999999999999998,up,0.2000876001548022,,,,,,,,,,,,,,,,,,,,,,,,,,,,,,,,,,,,,,,,,,,,,,,,,,,,,,,,,,,,9DAVUV,train_x,red_square,bottom_right,2025-02-04_11h05.24.754,HideSeek_v1,2022.2.5,59.86679643693921,
,7,1,4,1,-3,0,46,,train_dim1_1,1,30,,,,2,0,2,0,,,,,,,,,0,0,0,0,0,0,0,0,12,0,12,0,,,,,,,,,,,,,,,,,,,,,,,,,,,,,,,,,,,,,,,,,,,,,,,,,,,,,,,,,,,,,,,,30,,,,,,,,1495.7773007000796,1495.7773007000796,1495.7773007000796,1495.7773007000796,1495.7773007000796,up,0.29314299998804927,0,0,0,99,0.4,-0.07999999999999997,up,0.20946140005253255,,,,,,,,,,,,,,,,,,,,,,,,,,,,,,,,,,,,,,,,,,,,,,,,,,,,,,,,,,,,9DAVUV,train_x,red_square,bottom_right,2025-02-04_11h05.24.754,HideSeek_v1,2022.2.5,59.86679643693921,
,7,1,4,1,-3,0,46,,train_dim1_1,1,30,,,,2,0,2,0,,,,,,,,,0,0,0,0,0,0,0,0,13,0,13,0,,,,,,,,,,,,,,,,,,,,,,,,,,,,,,,,,,,,,,,,,,,,,,,,,,,,,,,,,,,,,,,,30,,,,,,,,1496.0775947000366,1496.0775947000366,1496.0775947000366,1496.0775947000366,1496.0775947000366,return,1.7278426000848413,0,0,0,0,0.4,-0.07999999999999997,return,1.6525268000550568,3,0,0.4,-0.07999999999999997,,,,,,,,,,,,,,,,,,,,,,,,,,,,,,,,,,,,,,,,,,,,,,,,,,,,,,,,9DAVUV,train_x,red_square,bottom_right,2025-02-04_11h05.24.754,HideSeek_v1,2022.2.5,59.86679643693921,
,7,4,7,4,0,0,16,,train_dim1_1,2,30,,,,2,0,2,0,,,,,,,,,0,0,0,0,0,1,1,1,0,0,0,0,,,,,,,,,,,,,,,,,,,,,,,,,stimuli/alien_stimuli/16.png,,,,,,,,,,,,,,,,,,,,,,,,,,,,,stimuli/alien_stimuli/46.png,46,7,3,,,,,,,30,,,,,,,,1529.049146699952,1529.049146699952,1529.049146699952,1529.049146699952,1529.049146699952,up,9.797263599932194,0,0,0,99,0.4,0.0,up,9.700134600047022,,,,,1527.4736909999046,1529.049146699952,0.16,-0.32,0.0,0.24,-0.32,0.16,0.28,0.16,-0.32,1499.3787730000913,1499.3787730000913,1499.3787730000913,1499.3787730000913,1499.3787730000913,1499.3787730000913,1499.3787730000913,1499.3787730000913,1499.3669657900232,28.20918649993837,return,28.07362680020742,,,,,,,,,,,,,,,,,,,,,,,,,,,,,,,,,9DAVUV,train_x,red_square,bottom_right,2025-02-04_11h05.24.754,HideSeek_v1,2022.2.5,59.86679643693921,
,7,4,7,4,0,0,16,,train_dim1_1,2,30,,,,2,0,2,0,,,,,,,,,0,0,0,0,0,1,1,1,1,0,1,0,,,,,,,,,,,,,,,,,,,,,,,,,,,,,,,,,,,,,,,,,,,,,,,,,,,,,,,,,,,,,,,,30,,,,,,,,1538.8337886999361,1538.8337886999361,1538.8337886999361,1538.8337886999361,1538.8337886999361,up,0.32644030009396374,0,0,0,99,0.4,0.08,up,0.24324740003794432,,,,,,,,,,,,,,,,,,,,,,,,,,,,,,,,,,,,,,,,,,,,,,,,,,,,,,,,,,,,9DAVUV,train_x,red_square,bottom_right,2025-02-04_11h05.24.754,HideSeek_v1,2022.2.5,59.86679643693921,
,7,4,7,4,0,0,16,,train_dim1_1,2,30,,,,2,0,2,0,,,,,,,,,0,0,0,0,0,1,1,1,2,0,2,0,,,,,,,,,,,,,,,,,,,,,,,,,,,,,,,,,,,,,,,,,,,,,,,,,,,,,,,,,,,,,,,,30,,,,,,,,1539.167744099861,1539.167744099861,1539.167744099861,1539.167744099861,1539.167744099861,up,0.3265162999741733,0,0,0,99,0.4,0.16,up,0.23916410002857447,,,,,,,,,,,,,,,,,,,,,,,,,,,,,,,,,,,,,,,,,,,,,,,,,,,,,,,,,,,,9DAVUV,train_x,red_square,bottom_right,2025-02-04_11h05.24.754,HideSeek_v1,2022.2.5,59.86679643693921,
,7,4,7,4,0,0,16,,train_dim1_1,2,30,,,,2,0,2,0,,,,,,,,,0,0,0,0,0,1,1,1,3,0,3,0,,,,,,,,,,,,,,,,,,,,,,,,,,,,,,,,,,,,,,,,,,,,,,,,,,,,,,,,,,,,,,,,30,,,,,,,,1539.5047243000008,1539.5047243000008,1539.5047243000008,1539.5047243000008,1539.5047243000008,return,1.1231269999407232,0,0,0,0,0.4,0.16,return,1.0413629999384284,6,0,0.4,0.16,,,,,,,,,,,,,,,,,,,,,,,,,,,,,,,,,,,,,,,,,,,,,,,,,,,,,,,,9DAVUV,train_x,red_square,bottom_right,2025-02-04_11h05.24.754,HideSeek_v1,2022.2.5,59.86679643693921,
,9,4,8,4,-1,0,26,,train_dim1_1,3,30,,,,2,0,2,0,,,,,,,,,0,0,0,0,0,2,2,2,0,0,0,0,,,,,,,,,,,,,,,,,,,,,,,,,stimuli/alien_stimuli/26.png,,,,,,,,,,,,,,,,,,,,,,,,,,,,,stimuli/alien_stimuli/16.png,16,7,4,,,,,,,30,,,,,,,,1551.4240300999954,1551.4240300999954,1551.4240300999954,1551.4240300999954,1551.4240300999954,left,5.943259699968621,0,0,0,99,0.48000000000000004,-0.08,left,5.849404099863023,,,,,1549.8591565999668,1551.4240300999954,0.4,-0.08,0.0,0.0,-0.08,0.4,0.4,0.4,-0.08,1542.2063277000561,1542.2063277000561,1542.2063277000561,1542.2063277000561,1542.2063277000561,1542.2063277000561,1542.2063277000561,1542.2063277000561,1542.1858962899773,7.775536999804899,return,7.629810000071302,,,,,,,,,,,,,,,,,,,,,,,,,,,,,,,,,9DAVUV,train_x,red_square,bottom_right,2025-02-04_11h05.24.754,HideSeek_v1,2022.2.5,59.86679643693921,
,9,4,8,4,-1,0,26,,train_dim1_1,3,30,,,,2,0,2,0,,,,,,,,,0,0,0,0,0,2,2,2,1,0,1,0,,,,,,,,,,,,,,,,,,,,,,,,,,,,,,,,,,,,,,,,,,,,,,,,,,,,,,,,,,,,,,,,30,,,,,,,,1557.3665179000236,1557.3665179000236,1557.3665179000236,1557.3665179000236,1557.3665179000236,left,1.560510199982673,0,0,0,99,0.4,-0.08,left,1.4716741000302136,,,,,,,,,,,,,,,,,,,,,,,,,,,,,,,,,,,,,,,,,,,,,,,,,,,,,,,,,,,,9DAVUV,train_x,red_square,bottom_right,2025-02-04_11h05.24.754,HideSeek_v1,2022.2.5,59.86679643693921,
,9,4,8,4,-1,0,26,,train_dim1_1,3,30,,,,2,0,2,0,,,,,,,,,0,0,0,0,0,2,2,2,2,0,2,0,,,,,,,,,,,,,,,,,,,,,,,,,,,,,,,,,,,,,,,,,,,,,,,,,,,,,,,,,,,,,,,,30,,,,,,,,1558.9335978999734,1558.9335978999734,1558.9335978999734,1558.9335978999734,1558.9335978999734,down,1.027057400206104,0,0,0,99,0.4,-0.16,down,0.9496878001373261,,,,,,,,,,,,,,,,,,,,,,,,,,,,,,,,,,,,,,,,,,,,,,,,,,,,,,,,,,,,9DAVUV,train_x,red_square,bottom_right,2025-02-04_11h05.24.754,HideSeek_v1,2022.2.5,59.86679643693921,
,9,4,8,4,-1,0,26,,train_dim1_1,3,30,,,,2,0,2,0,,,,,,,,,0,0,0,0,0,2,2,2,3,0,3,0,,,,,,,,,,,,,,,,,,,,,,,,,,,,,,,,,,,,,,,,,,,,,,,,,,,,,,,,,,,,,,,,30,,,,,,,,1559.9678940998856,1559.9678940998856,1559.9678940998856,1559.9678940998856,1559.9678940998856,down,1.5110373001080006,0,0,0,99,0.4,-0.24,down,1.4218498000409454,,,,,,,,,,,,,,,,,,,,,,,,,,,,,,,,,,,,,,,,,,,,,,,,,,,,,,,,,,,,9DAVUV,train_x,red_square,bottom_right,2025-02-04_11h05.24.754,HideSeek_v1,2022.2.5,59.86679643693921,
,9,4,8,4,-1,0,26,,train_dim1_1,3,30,,,,2,0,2,0,,,,,,,,,0,0,0,0,0,2,2,2,4,0,4,0,,,,,,,,,,,,,,,,,,,,,,,,,,,,,,,,,,,,,,,,,,,,,,,,,,,,,,,,,,,,,,,,30,,,,,,,,1561.485594399972,1561.485594399972,1561.485594399972,1561.485594399972,1561.485594399972,return,2.0612295002210885,0,0,0,0,0.4,-0.24,return,1.976744499988854,4,-2,0.4,-0.24,,,,,,,,,,,,,,,,,,,,,,,,,,,,,,,,,,,,,,,,,,,,,,,,,,,,,,,,9DAVUV,train_x,red_square,bottom_right,2025-02-04_11h05.24.754,HideSeek_v1,2022.2.5,59.86679643693921,
,7,3,3,3,-4,0,56,,train_dim1_1,4,30,,,,2,0,2,0,,,,,,,,,0,0,0,0,0,3,3,3,0,0,0,0,,,,,,,,,,,,,,,,,,,,,,,,,stimuli/alien_stimuli/56.png,,,,,,,,,,,,,,,,,,,,,,,,,,,,,stimuli/alien_stimuli/26.png,26,9,5,,,,,,,30,,,,,,,,1571.1703417000826,1571.1703417000826,1571.1703417000826,1571.1703417000826,1571.1703417000826,left,3.3075153999961913,0,0,0,99,0.32,-0.16,left,3.2206213001627475,,,,,1569.608498699963,1571.1703417000826,0.48,-0.08,0.0,0.08,-0.08,0.48,0.52,0.48,-0.08,1565.1276946999133,1565.1276946999133,1565.1276946999133,1565.1276946999133,1565.1276946999133,1565.1276946999133,1565.1276946999133,1565.1276946999133,1565.1216718600133,4.605794299859554,return,4.463571599917486,,,,,,,,,,,,,,,,,,,,,,,,,,,,,,,,,9DAVUV,train_x,red_square,bottom_right,2025-02-04_11h05.24.754,HideSeek_v1,2022.2.5,59.86679643693921,
,7,3,3,3,-4,0,56,,train_dim1_1,4,30,,,,2,0,2,0,,,,,,,,,0,0,0,0,0,3,3,3,1,0,1,0,,,,,,,,,,,,,,,,,,,,,,,,,,,,,,,,,,,,,,,,,,,,,,,,,,,,,,,,,,,,,,,,30,,,,,,,,1574.478062799899,1574.478062799899,1574.478062799899,1574.478062799899,1574.478062799899,left,0.5263562998734415,0,0,0,99,0.24,-0.16,left,0.4440796999260783,,,,,,,,,,,,,,,,,,,,,,,,,,,,,,,,,,,,,,,,,,,,,,,,,,,,,,,,,,,,9DAVUV,train_x,red_square,bottom_right,2025-02-04_11h05.24.754,HideSeek_v1,2022.2.5,59.86679643693921,
,7,3,3,3,-4,0,56,,train_dim1_1,4,30,,,,2,0,2,0,,,,,,,,,0,0,0,0,0,3,3,3,2,0,2,0,,,,,,,,,,,,,,,,,,,,,,,,,,,,,,,,,,,,,,,,,,,,,,,,,,,,,,,,,,,,,,,,30,,,,,,,,1575.01121710008,1575.01121710008,1575.01121710008,1575.01121710008,1575.01121710008,left,0.5434563998132944,0,0,0,99,0.15999999999999998,-0.16,left,0.45955919986590743,,,,,,,,,,,,,,,,,,,,,,,,,,,,,,,,,,,,,,,,,,,,,,,,,,,,,,,,,,,,9DAVUV,train_x,red_square,bottom_right,2025-02-04_11h05.24.754,HideSeek_v1,2022.2.5,59.86679643693921,
,7,3,3,3,-4,0,56,,train_dim1_1,4,30,,,,2,0,2,0,,,,,,,,,0,0,0,0,0,3,3,3,3,0,3,0,,,,,,,,,,,,,,,,,,,,,,,,,,,,,,,,,,,,,,,,,,,,,,,,,,,,,,,,,,,,,,,,30,,,,,,,,1575.5622385998722,1575.5622385998722,1575.5622385998722,1575.5622385998722,1575.5622385998722,left,0.526902699843049,0,0,0,99,0.07999999999999997,-0.16,left,0.4510166000109166,,,,,,,,,,,,,,,,,,,,,,,,,,,,,,,,,,,,,,,,,,,,,,,,,,,,,,,,,,,,9DAVUV,train_x,red_square,bottom_right,2025-02-04_11h05.24.754,HideSeek_v1,2022.2.5,59.86679643693921,
,7,3,3,3,-4,0,56,,train_dim1_1,4,30,,,,2,0,2,0,,,,,,,,,0,0,0,0,0,3,3,3,4,0,4,0,,,,,,,,,,,,,,,,,,,,,,,,,,,,,,,,,,,,,,,,,,,,,,,,,,,,,,,,,,,,,,,,30,,,,,,,,1576.0962503999472,1576.0962503999472,1576.0962503999472,1576.0962503999472,1576.0962503999472,left,0.6103096001315862,0,0,0,99,-2.7755575615628914e-17,-0.16,left,0.525995000032708,,,,,,,,,,,,,,,,,,,,,,,,,,,,,,,,,,,,,,,,,,,,,,,,,,,,,,,,,,,,9DAVUV,train_x,red_square,bottom_right,2025-02-04_11h05.24.754,HideSeek_v1,2022.2.5,59.86679643693921,
,7,3,3,3,-4,0,56,,train_dim1_1,4,30,,,,2,0,2,0,,,,,,,,,0,0,0,0,0,3,3,3,5,0,5,0,,,,,,,,,,,,,,,,,,,,,,,,,,,,,,,,,,,,,,,,,,,,,,,,,,,,,,,,,,,,,,,,30,,,,,,,,1576.7127829999663,1576.7127829999663,1576.7127829999663,1576.7127829999663,1576.7127829999663,return,0.9431471999268979,0,1,0,0,-2.7755575615628914e-17,-0.16,return,0.8671882001217455,4,-7,-2.7755575615628914e-17,-0.16,,,,,,,,,,,,,,,,,,,,,,,,,,,,,,,,,,,,,,,,,,,,,,,,,,,,,,,,9DAVUV,train_x,red_square,bottom_right,2025-02-04_11h05.24.754,HideSeek_v1,2022.2.5,59.86679643693921,
,5,2,0,2,-5,0,66,,train_dim1_1,5,30,,,,2,0,2,0,,,,,,,,,0,0,0,0,0,4,4,4,0,0,0,0,,,,,,,,,,,,,,,,,,,,,,,,,stimuli/alien_stimuli/66.png,,,,,,,,,,,,,,,,,,,,,,,,,,,,,stimuli/alien_stimuli/56.png,56,7,6,,,,,,,30,,,,,,,,1607.8948981000576,1607.8948981000576,1607.8948981000576,1607.8948981000576,1607.8948981000576,right,3.6075776000507176,0,1,0,99,0.32,-0.24,right,3.500876200152561,,,,,1606.322233499959,1607.8948981000576,0.08,-0.16,0.0,0.32,-0.16,0.08,0.24000000000000002,0.08,-0.16,1579.2399174000602,1579.2399174000602,1579.2399174000602,1579.2399174000602,1579.2399174000602,1579.2399174000602,1579.2399174000602,1579.2399174000602,1579.2166146898876,27.208490999881178,return,27.06214280007407,,,,,,,,,,,,,,,,,,,,,,,,,,,,,,,,,9DAVUV,train_x,red_square,bottom_right,2025-02-04_11h05.24.754,HideSeek_v1,2022.2.5,59.86679643693921,
,5,2,0,2,-5,0,66,,train_dim1_1,5,30,,,,2,0,2,0,,,,,,,,,0,0,0,0,0,4,4,4,1,0,1,0,,,,,,,,,,,,,,,,,,,,,,,,,,,,,,,,,,,,,,,,,,,,,,,,,,,,,,,,,,,,,,,,30,,,,,,,,1611.4905987000093,1611.4905987000093,1611.4905987000093,1611.4905987000093,1611.4905987000093,right,0.326159399934113,0,1,0,99,0.4,-0.24,right,0.24622289999388158,,,,,,,,,,,,,,,,,,,,,,,,,,,,,,,,,,,,,,,,,,,,,,,,,,,,,,,,,,,,9DAVUV,train_x,red_square,bottom_right,2025-02-04_11h05.24.754,HideSeek_v1,2022.2.5,59.86679643693921,
,5,2,0,2,-5,0,66,,train_dim1_1,5,30,,,,2,0,2,0,,,,,,,,,0,0,0,0,0,4,4,4,2,0,2,0,,,,,,,,,,,,,,,,,,,,,,,,,,,,,,,,,,,,,,,,,,,,,,,,,,,,,,,,,,,,,,,,30,,,,,,,,1611.8226532000117,1611.8226532000117,1611.8226532000117,1611.8226532000117,1611.8226532000117,right,0.34361739992164075,0,1,0,99,0.48000000000000004,-0.24,right,0.2697419999167323,,,,,,,,,,,,,,,,,,,,,,,,,,,,,,,,,,,,,,,,,,,,,,,,,,,,,,,,,,,,9DAVUV,train_x,red_square,bottom_right,2025-02-04_11h05.24.754,HideSeek_v1,2022.2.5,59.86679643693921,
,5,2,0,2,-5,0,66,,train_dim1_1,5,30,,,,2,0,2,0,,,,,,,,,0,0,0,0,0,4,4,4,3,0,3,0,,,,,,,,,,,,,,,,,,,,,,,,,,,,,,,,,,,,,,,,,,,,,,,,,,,,,,,,,,,,,,,,30,,,,,,,,1612.1731404999737,1612.1731404999737,1612.1731404999737,1612.1731404999737,1612.1731404999737,return,0.9602630999870598,0,0,0,0,0.48000000000000004,-0.24,return,0.8844587998464704,4,-4,0.48000000000000004,-0.24,,,,,,,,,,,,,,,,,,,,,,,,,,,,,,,,,,,,,,,,,,,,,,,,,,,,,,,,9DAVUV,train_x,red_square,bottom_right,2025-02-04_11h05.24.754,HideSeek_v1,2022.2.5,59.86679643693921,
,5,0,4,0,-1,0,26,,train_dim1_1,6,30,,,,2,0,2,0,,,,,,,,,0,0,0,0,0,5,5,5,0,0,0,0,,,,,,,,,,,,,,,,,,,,,,,,,stimuli/alien_stimuli/26.png,,,,,,,,,,,,,,,,,,,,,,,,,,,,,stimuli/alien_stimuli/66.png,66,5,7,,,,,,,30,,,,,,,,1621.6130560999736,1621.6130560999736,1621.6130560999736,1621.6130560999736,1621.6130560999736,up,3.35829810006544,0,0,0,99,0.24,-0.32,up,3.2628176999278367,,,,,1620.0505234000739,1621.6130560999736,-0.16,-0.24,0.0,0.4,-0.24,-0.16,0.039999999999999994,-0.16,-0.24,1614.714058399899,1614.714058399899,1614.714058399899,1614.714058399899,1614.714058399899,1614.714058399899,1614.714058399899,1614.714058399899,1614.6959996900755,5.457200299948454,return,5.314890000037849,,,,,,,,,,,,,,,,,,,,,,,,,,,,,,,,,9DAVUV,train_x,red_square,bottom_right,2025-02-04_11h05.24.754,HideSeek_v1,2022.2.5,59.86679643693921,
,5,0,4,0,-1,0,26,,train_dim1_1,6,30,,,,2,0,2,0,,,,,,,,,0,0,0,0,0,5,5,5,1,0,1,0,,,,,,,,,,,,,,,,,,,,,,,,,,,,,,,,,,,,,,,,,,,,,,,,,,,,,,,,,,,,,,,,30,,,,,,,,1624.9710989999585,1624.9710989999585,1624.9710989999585,1624.9710989999585,1624.9710989999585,up,0.4597628000192344,0,0,0,99,0.24,-0.24,up,0.3800969999283552,,,,,,,,,,,,,,,,,,,,,,,,,,,,,,,,,,,,,,,,,,,,,,,,,,,,,,,,,,,,9DAVUV,train_x,red_square,bottom_right,2025-02-04_11h05.24.754,HideSeek_v1,2022.2.5,59.86679643693921,
,5,0,4,0,-1,0,26,,train_dim1_1,6,30,,,,2,0,2,0,,,,,,,,,0,0,0,0,0,5,5,5,2,0,2,0,,,,,,,,,,,,,,,,,,,,,,,,,,,,,,,,,,,,,,,,,,,,,,,,,,,,,,,,,,,,,,,,30,,,,,,,,1625.4381160999183,1625.4381160999183,1625.4381160999183,1625.4381160999183,1625.4381160999183,left,1.8946916998829693,0,0,0,99,0.15999999999999998,-0.24,left,1.8149979999288917,,,,,,,,,,,,,,,,,,,,,,,,,,,,,,,,,,,,,,,,,,,,,,,,,,,,,,,,,,,,9DAVUV,train_x,red_square,bottom_right,2025-02-04_11h05.24.754,HideSeek_v1,2022.2.5,59.86679643693921,
,5,0,4,0,-1,0,26,,train_dim1_1,6,30,,,,2,0,2,0,,,,,,,,,0,0,0,0,0,5,5,5,3,0,3,0,,,,,,,,,,,,,,,,,,,,,,,,,,,,,,,,,,,,,,,,,,,,,,,,,,,,,,,,,,,,,,,,30,,,,,,,,1627.3423870999832,1627.3423870999832,1627.3423870999832,1627.3423870999832,1627.3423870999832,right,1.5749921998940408,0,0,0,99,0.24,-0.24,right,1.4897173999343067,,,,,,,,,,,,,,,,,,,,,,,,,,,,,,,,,,,,,,,,,,,,,,,,,,,,,,,,,,,,9DAVUV,train_x,red_square,bottom_right,2025-02-04_11h05.24.754,HideSeek_v1,2022.2.5,59.86679643693921,
,5,0,4,0,-1,0,26,,train_dim1_1,6,30,,,,2,0,2,0,,,,,,,,,0,0,0,0,0,5,5,5,4,0,4,0,,,,,,,,,,,,,,,,,,,,,,,,,,,,,,,,,,,,,,,,,,,,,,,,,,,,,,,,,,,,,,,,30,,,,,,,,1628.924374199938,1628.924374199938,1628.924374199938,1628.924374199938,1628.924374199938,return,0.6100226000417024,0,0,0,0,0.24,-0.24,return,0.5184309999458492,6,-4,0.24,-0.24,,,,,,,,,,,,,,,,,,,,,,,,,,,,,,,,,,,,,,,,,,,,,,,,,,,,,,,,9DAVUV,train_x,red_square,bottom_right,2025-02-04_11h05.24.754,HideSeek_v1,2022.2.5,59.86679643693921,
,8,0,3,0,-5,0,66,,train_dim1_1,7,30,,,,2,0,2,0,,,,,,,,,0,0,0,0,0,6,6,6,0,0,0,0,,,,,,,,,,,,,,,,,,,,,,,,,stimuli/alien_stimuli/66.png,,,,,,,,,,,,,,,,,,,,,,,,,,,,,stimuli/alien_stimuli/26.png,26,5,8,,,,,,,30,,,,,,,,1637.5377509000245,1637.5377509000245,1637.5377509000245,1637.5377509000245,1637.5377509000245,up,3.0082376999780536,0,0,0,99,0.48,-0.32,up,2.92462439998053,,,,,1635.9804783000145,1637.5377509000245,0.16,-0.4,0.0,0.08,-0.4,0.16,0.2,0.16,-0.4,1631.1127617999446,1631.1127617999446,1631.1127617999446,1631.1127617999446,1631.1127617999446,1631.1127617999446,1631.1127617999446,1631.1127617999446,1631.0930551900296,4.989710199879482,return,4.850725899916142,,,,,,,,,,,,,,,,,,,,,,,,,,,,,,,,,9DAVUV,train_x,red_square,bottom_right,2025-02-04_11h05.24.754,HideSeek_v1,2022.2.5,59.86679643693921,
,8,0,3,0,-5,0,66,,train_dim1_1,7,30,,,,2,0,2,0,,,,,,,,,0,0,0,0,0,6,6,6,1,0,1,0,,,,,,,,,,,,,,,,,,,,,,,,,,,,,,,,,,,,,,,,,,,,,,,,,,,,,,,,,,,,,,,,30,,,,,,,,1640.5469076000154,1640.5469076000154,1640.5469076000154,1640.5469076000154,1640.5469076000154,down,1.2104195998981595,0,0,0,99,0.48,-0.4,down,1.1332993998657912,,,,,,,,,,,,,,,,,,,,,,,,,,,,,,,,,,,,,,,,,,,,,,,,,,,,,,,,,,,,9DAVUV,train_x,red_square,bottom_right,2025-02-04_11h05.24.754,HideSeek_v1,2022.2.5,59.86679643693921,
,8,0,3,0,-5,0,66,,train_dim1_1,7,30,,,,2,0,2,0,,,,,,,,,0,0,0,0,0,6,6,6,2,0,2,0,,,,,,,,,,,,,,,,,,,,,,,,,,,,,,,,,,,,,,,,,,,,,,,,,,,,,,,,,,,,,,,,30,,,,,,,,1641.7640998999123,1641.7640998999123,1641.7640998999123,1641.7640998999123,1641.7640998999123,right,0.543582099955529,0,0,0,99,0.5599999999999999,-0.4,right,0.466471099993214,,,,,,,,,,,,,,,,,,,,,,,,,,,,,,,,,,,,,,,,,,,,,,,,,,,,,,,,,,,,9DAVUV,train_x,red_square,bottom_right,2025-02-04_11h05.24.754,HideSeek_v1,2022.2.5,59.86679643693921,
,8,0,3,0,-5,0,66,,train_dim1_1,7,30,,,,2,0,2,0,,,,,,,,,0,0,0,0,0,6,6,6,3,0,3,0,,,,,,,,,,,,,,,,,,,,,,,,,,,,,,,,,,,,,,,,,,,,,,,,,,,,,,,,,,,,,,,,30,,,,,,,,1642.3154662998859,1642.3154662998859,1642.3154662998859,1642.3154662998859,1642.3154662998859,return,0.776850099908188,0,0,0,0,0.5599999999999999,-0.4,return,0.7015394999179989,6,-3,0.5599999999999999,-0.4,,,,,,,,,,,,,,,,,,,,,,,,,,,,,,,,,,,,,,,,,,,,,,,,,,,,,,,,9DAVUV,train_x,red_square,bottom_right,2025-02-04_11h05.24.754,HideSeek_v1,2022.2.5,59.86679643693921,
,5,4,2,4,-3,0,46,,train_dim1_1,8,30,,,,2,0,2,0,,,,,,,,,0,0,0,0,0,7,7,7,0,0,0,0,,,,,,,,,,,,,,,,,,,,,,,,,stimuli/alien_stimuli/46.png,,,,,,,,,,,,,,,,,,,,,,,,,,,,,stimuli/alien_stimuli/66.png,66,8,9,,,,,,,30,,,,,,,,1649.5805762999225,1649.5805762999225,1649.5805762999225,1649.5805762999225,1649.5805762999225,left,4.793335299938917,0,0,0,99,0.15999999999999998,-0.08,left,4.706248800037429,,,,,1648.0234918999486,1649.5805762999225,0.08,-0.4,0.0,0.4,-0.4,0.08,0.27999999999999997,0.08,-0.4,1644.6702972999774,1644.6702972999774,1644.6702972999774,1644.6702972999774,1644.6702972999774,1644.6702972999774,1644.6702972999774,1644.6702972999774,1644.6541142898845,3.471919999923557,return,3.3238284999970347,,,,,,,,,,,,,,,,,,,,,,,,,,,,,,,,,9DAVUV,train_x,red_square,bottom_right,2025-02-04_11h05.24.754,HideSeek_v1,2022.2.5,59.86679643693921,
,5,4,2,4,-3,0,46,,train_dim1_1,8,30,,,,2,0,2,0,,,,,,,,,0,0,0,0,0,7,7,7,1,0,1,0,,,,,,,,,,,,,,,,,,,,,,,,,,,,,,,,,,,,,,,,,,,,,,,,,,,,,,,,,,,,,,,,30,,,,,,,,1654.37520270003,1654.37520270003,1654.37520270003,1654.37520270003,1654.37520270003,left,0.25964499986730516,0,0,0,99,0.07999999999999997,-0.08,left,0.17598280007950962,,,,,,,,,,,,,,,,,,,,,,,,,,,,,,,,,,,,,,,,,,,,,,,,,,,,,,,,,,,,9DAVUV,train_x,red_square,bottom_right,2025-02-04_11h05.24.754,HideSeek_v1,2022.2.5,59.86679643693921,
,5,4,2,4,-3,0,46,,train_dim1_1,8,30,,,,2,0,2,0,,,,,,,,,0,0,0,0,0,7,7,7,2,0,2,0,,,,,,,,,,,,,,,,,,,,,,,,,,,,,,,,,,,,,,,,,,,,,,,,,,,,,,,,,,,,,,,,30,,,,,,,,1654.6420654000249,1654.6420654000249,1654.6420654000249,1654.6420654000249,1654.6420654000249,left,0.3598027001135051,0,0,0,99,-2.7755575615628914e-17,-0.08,left,0.2829079001676291,,,,,,,,,,,,,,,,,,,,,,,,,,,,,,,,,,,,,,,,,,,,,,,,,,,,,,,,,,,,9DAVUV,train_x,red_square,bottom_right,2025-02-04_11h05.24.754,HideSeek_v1,2022.2.5,59.86679643693921,
,5,4,2,4,-3,0,46,,train_dim1_1,8,30,,,,2,0,2,0,,,,,,,,,0,0,0,0,0,7,7,7,3,0,3,0,,,,,,,,,,,,,,,,,,,,,,,,,,,,,,,,,,,,,,,,,,,,,,,,,,,,,,,,,,,,,,,,30,,,,,,,,1655.0086042000912,1655.0086042000912,1655.0086042000912,1655.0086042000912,1655.0086042000912,return,0.7272996997926384,1,0,0,1,-2.7755575615628914e-17,-0.08,return,0.6449525998905301,6,-6,-2.7755575615628914e-17,-0.08,,,,,,,,,,,,,,,,,,,,,,,,,,,,,,,,,,,,,,,,,,,,,,,,,,,,,,,,9DAVUV,train_x,red_square,bottom_right,2025-02-04_11h05.24.754,HideSeek_v1,2022.2.5,59.86679643693921,
,6,0,2,0,-4,0,56,,train_dim1_1,9,30,,,,2,0,2,0,,,,,,,,,0,0,0,0,0,8,8,8,0,0,0,0,,,,,,,,,,,,,,,,,,,,,,,,,stimuli/alien_stimuli/56.png,,,,,,,,,,,,,,,,,,,,,,,,,,,,,stimuli/alien_stimuli/46.png,46,5,10,,,,,,,30,,,,,,,,1676.253773999866,1676.253773999866,1676.253773999866,1676.253773999866,1676.253773999866,left,2.3242493998259306,1,0,0,99,0.24,-0.4,left,2.2164338000584394,,,,,1674.6792240000796,1676.253773999866,0,-0.08,0.0,0.24,-0.08,0,0.12,0,-0.08,1657.3149466000032,1657.3149466000032,1657.3149466000032,1657.3149466000032,1657.3149466000032,1657.3149466000032,1657.3149466000032,1657.3149466000032,1657.29787989005,17.483681600075215,return,17.343078900128603,,,,,,,,,,,,,,,,,,,,,,,,,,,,,,,,,9DAVUV,train_x,red_square,bottom_right,2025-02-04_11h05.24.754,HideSeek_v1,2022.2.5,59.86679643693921,
,6,0,2,0,-4,0,56,,train_dim1_1,9,30,,,,2,0,2,0,,,,,,,,,0,0,0,0,0,8,8,8,1,0,1,0,,,,,,,,,,,,,,,,,,,,,,,,,,,,,,,,,,,,,,,,,,,,,,,,,,,,,,,,,,,,,,,,30,,,,,,,,1678.5638250999618,1678.5638250999618,1678.5638250999618,1678.5638250999618,1678.5638250999618,left,0.46021150005981326,1,0,0,99,0.15999999999999998,-0.4,left,0.3829383000265807,,,,,,,,,,,,,,,,,,,,,,,,,,,,,,,,,,,,,,,,,,,,,,,,,,,,,,,,,,,,9DAVUV,train_x,red_square,bottom_right,2025-02-04_11h05.24.754,HideSeek_v1,2022.2.5,59.86679643693921,
,6,0,2,0,-4,0,56,,train_dim1_1,9,30,,,,2,0,2,0,,,,,,,,,0,0,0,0,0,8,8,8,2,0,2,0,,,,,,,,,,,,,,,,,,,,,,,,,,,,,,,,,,,,,,,,,,,,,,,,,,,,,,,,,,,,,,,,30,,,,,,,,1679.0318410000764,1679.0318410000764,1679.0318410000764,1679.0318410000764,1679.0318410000764,left,0.5431347000412643,1,0,0,99,0.07999999999999997,-0.4,left,0.4623360999394208,,,,,,,,,,,,,,,,,,,,,,,,,,,,,,,,,,,,,,,,,,,,,,,,,,,,,,,,,,,,9DAVUV,train_x,red_square,bottom_right,2025-02-04_11h05.24.754,HideSeek_v1,2022.2.5,59.86679643693921,
,6,0,2,0,-4,0,56,,train_dim1_1,9,30,,,,2,0,2,0,,,,,,,,,0,0,0,0,0,8,8,8,3,0,3,0,,,,,,,,,,,,,,,,,,,,,,,,,,,,,,,,,,,,,,,,,,,,,,,,,,,,,,,,,,,,,,,,30,,,,,,,,1679.5812778000254,1679.5812778000254,1679.5812778000254,1679.5812778000254,1679.5812778000254,left,0.5438395999372005,1,0,0,99,-2.7755575615628914e-17,-0.4,left,0.45971200009807944,,,,,,,,,,,,,,,,,,,,,,,,,,,,,,,,,,,,,,,,,,,,,,,,,,,,,,,,,,,,9DAVUV,train_x,red_square,bottom_right,2025-02-04_11h05.24.754,HideSeek_v1,2022.2.5,59.86679643693921,
,6,0,2,0,-4,0,56,,train_dim1_1,9,30,,,,2,0,2,0,,,,,,,,,0,0,0,0,0,8,8,8,4,0,4,0,,,,,,,,,,,,,,,,,,,,,,,,,,,,,,,,,,,,,,,,,,,,,,,,,,,,,,,,,,,,,,,,30,,,,,,,,1680.1316239999142,1680.1316239999142,1680.1316239999142,1680.1316239999142,1680.1316239999142,return,0.9438485999125987,2,0,0,1,-2.7755575615628914e-17,-0.4,return,0.868845900055021,6,-10,-2.7755575615628914e-17,-0.4,,,,,,,,,,,,,,,,,,,,,,,,,,,,,,,,,,,,,,,,,,,,,,,,,,,,,,,,9DAVUV,train_x,red_square,bottom_right,2025-02-04_11h05.24.754,HideSeek_v1,2022.2.5,59.86679643693921,
,5,3,5,3,0,0,16,,train_dim1_1,10,30,,,,2,0,2,0,,,,,,,,,0,0,0,0,0,9,9,9,0,0,0,0,,,,,,,,,,,,,,,,,,,,,,,,,stimuli/alien_stimuli/16.png,,,,,,,,,,,,,,,,,,,,,,,,,,,,,stimuli/alien_stimuli/56.png,56,6,11,,,,,,,30,,,,,,,,1688.5846047999803,1688.5846047999803,1688.5846047999803,1688.5846047999803,1688.5846047999803,return,3.425388300092891,3,0,0,1,0.24,-0.16,return,3.3388556998688728,6,-10,0.24,-0.16,1687.0224526000675,1688.5846047999803,0,-0.4,0.0,0.32,-0.4,0,0.16,0,-0.4,1682.6534355999902,1682.6534355999902,1682.6534355999902,1682.6534355999902,1682.6534355999902,1682.6534355999902,1682.6534355999902,1682.6534355999902,1682.6354599899846,4.489523299969733,return,4.34622299997136,,,,,,,,,,,,,,,,,,,,,,,,,,,,,,,,,9DAVUV,train_x,red_square,bottom_right,2025-02-04_11h05.24.754,HideSeek_v1,2022.2.5,59.86679643693921,
,7,2,4,2,-3,0,46,,train_dim1_1,11,30,,,,2,0,2,0,,,,,,,,,0,0,0,0,0,10,10,10,0,0,0,0,,,,,,,,,,,,,,,,,,,,,,,,,stimuli/alien_stimuli/46.png,,,,,,,,,,,,,,,,,,,,,,,,,,,,,stimuli/alien_stimuli/16.png,16,5,12,,,,,,,30,,,,,,,,1698.50572320004,1698.50572320004,1698.50572320004,1698.50572320004,1698.50572320004,left,1.9735276000574231,3,0,0,99,0.32,-0.24,left,1.8876452001277357,,,,,1696.9474303000607,1698.50572320004,0.24,-0.16,0.0,0.0,-0.16,0.24,0.24,0.24,-0.16,1693.5886589998845,1693.5886589998845,1693.5886589998845,1693.5886589998845,1693.5886589998845,1693.5886589998845,1693.5886589998845,1693.5886589998845,1693.5779640599155,3.4880061000585556,return,3.328114200150594,,,,,,,,,,,,,,,,,,,,,,,,,,,,,,,,,9DAVUV,train_x,red_square,bottom_right,2025-02-04_11h05.24.754,HideSeek_v1,2022.2.5,59.86679643693921,
,7,2,4,2,-3,0,46,,train_dim1_1,11,30,,,,2,0,2,0,,,,,,,,,0,0,0,0,0,10,10,10,1,0,1,0,,,,,,,,,,,,,,,,,,,,,,,,,,,,,,,,,,,,,,,,,,,,,,,,,,,,,,,,,,,,,,,,30,,,,,,,,1700.4805707000196,1700.4805707000196,1700.4805707000196,1700.4805707000196,1700.4805707000196,return,0.17616629996336997,3,0,0,0,0.32,-0.24,return,0.09505010000430048,6,-11,0.32,-0.24,,,,,,,,,,,,,,,,,,,,,,,,,,,,,,,,,,,,,,,,,,,,,,,,,,,,,,,,9DAVUV,train_x,red_square,bottom_right,2025-02-04_11h05.24.754,HideSeek_v1,2022.2.5,59.86679643693921,
,5,0,4,0,-1,0,26,,train_dim1_1,12,30,,,,2,0,2,0,,,,,,,,,0,0,0,0,0,11,11,11,0,0,0,0,,,,,,,,,,,,,,,,,,,,,,,,,stimuli/alien_stimuli/26.png,,,,,,,,,,,,,,,,,,,,,,,,,,,,,stimuli/alien_stimuli/46.png,46,7,13,,,,,,,30,,,,,,,,1707.1672231999692,1707.1672231999692,1707.1672231999692,1707.1672231999692,1707.1672231999692,left,1.9397980999201536,3,0,0,99,0.15999999999999998,-0.4,left,1.8568882998079062,,,,,1705.604660199955,1707.1672231999692,0.16,-0.24,0.0,0.24,-0.24,0.16,0.28,0.16,-0.24,1702.2168459999375,1702.2168459999375,1702.2168459999375,1702.2168459999375,1702.2168459999375,1702.2168459999375,1702.2168459999375,1702.2168459999375,1702.2018080200535,3.4886715998873115,return,3.3592644999735057,,,,,,,,,,,,,,,,,,,,,,,,,,,,,,,,,9DAVUV,train_x,red_square,bottom_right,2025-02-04_11h05.24.754,HideSeek_v1,2022.2.5,59.86679643693921,
,5,0,4,0,-1,0,26,,train_dim1_1,12,30,,,,2,0,2,0,,,,,,,,,0,0,0,0,0,11,11,11,1,0,1,0,,,,,,,,,,,,,,,,,,,,,,,,,,,,,,,,,,,,,,,,,,,,,,,,,,,,,,,,,,,,,,,,30,,,,,,,,1709.1085580000654,1709.1085580000654,1709.1085580000654,1709.1085580000654,1709.1085580000654,left,0.32631230005063117,3,0,0,99,0.07999999999999997,-0.4,left,0.242791400058195,,,,,,,,,,,,,,,,,,,,,,,,,,,,,,,,,,,,,,,,,,,,,,,,,,,,,,,,,,,,9DAVUV,train_x,red_square,bottom_right,2025-02-04_11h05.24.754,HideSeek_v1,2022.2.5,59.86679643693921,
,5,0,4,0,-1,0,26,,train_dim1_1,12,30,,,,2,0,2,0,,,,,,,,,0,0,0,0,0,11,11,11,2,0,2,0,,,,,,,,,,,,,,,,,,,,,,,,,,,,,,,,,,,,,,,,,,,,,,,,,,,,,,,,,,,,,,,,30,,,,,,,,1709.4407760000322,1709.4407760000322,1709.4407760000322,1709.4407760000322,1709.4407760000322,return,0.3099307999946177,3,1,0,0,0.07999999999999997,-0.4,return,0.22153700003400445,6,-13,0.07999999999999997,-0.4,,,,,,,,,,,,,,,,,,,,,,,,,,,,,,,,,,,,,,,,,,,,,,,,,,,,,,,,9DAVUV,train_x,red_square,bottom_right,2025-02-04_11h05.24.754,HideSeek_v1,2022.2.5,59.86679643693921,
,5,4,1,4,-4,0,56,,train_dim1_1,13,30,,,,2,0,2,0,,,,,,,,,0,0,0,0,0,12,12,12,0,0,0,0,,,,,,,,,,,,,,,,,,,,,,,,,stimuli/alien_stimuli/56.png,,,,,,,,,,,,,,,,,,,,,,,,,,,,,stimuli/alien_stimuli/26.png,26,5,14,,,,,,,30,,,,,,,,1720.6445015000645,1720.6445015000645,1720.6445015000645,1720.6445015000645,1720.6445015000645,left,3.2249144001398236,3,1,0,99,0.15999999999999998,-0.08,left,3.1271563000045717,,,,,1719.0827182999346,1720.6445015000645,0.16,-0.4,0.0,0.08,-0.4,0.16,0.2,0.16,-0.4,1711.334841700038,1711.334841700038,1711.334841700038,1711.334841700038,1711.334841700038,1711.334841700038,1711.334841700038,1711.334841700038,1711.3259716598784,7.876497199991718,return,7.726991999894381,,,,,,,,,,,,,,,,,,,,,,,,,,,,,,,,,9DAVUV,train_x,red_square,bottom_right,2025-02-04_11h05.24.754,HideSeek_v1,2022.2.5,59.86679643693921,
,5,4,1,4,-4,0,56,,train_dim1_1,13,30,,,,2,0,2,0,,,,,,,,,0,0,0,0,0,12,12,12,1,0,1,0,,,,,,,,,,,,,,,,,,,,,,,,,,,,,,,,,,,,,,,,,,,,,,,,,,,,,,,,,,,,,,,,30,,,,,,,,1723.8693438000046,1723.8693438000046,1723.8693438000046,1723.8693438000046,1723.8693438000046,left,0.44331150013022125,3,1,0,99,0.07999999999999997,-0.08,left,0.3548828999046236,,,,,,,,,,,,,,,,,,,,,,,,,,,,,,,,,,,,,,,,,,,,,,,,,,,,,,,,,,,,9DAVUV,train_x,red_square,bottom_right,2025-02-04_11h05.24.754,HideSeek_v1,2022.2.5,59.86679643693921,
,5,4,1,4,-4,0,56,,train_dim1_1,13,30,,,,2,0,2,0,,,,,,,,,0,0,0,0,0,12,12,12,2,0,2,0,,,,,,,,,,,,,,,,,,,,,,,,,,,,,,,,,,,,,,,,,,,,,,,,,,,,,,,,,,,,,,,,30,,,,,,,,1724.3188847999554,1724.3188847999554,1724.3188847999554,1724.3188847999554,1724.3188847999554,left,0.5261784000322223,3,1,0,99,-2.7755575615628914e-17,-0.08,left,0.4433667999692261,,,,,,,,,,,,,,,,,,,,,,,,,,,,,,,,,,,,,,,,,,,,,,,,,,,,,,,,,,,,9DAVUV,train_x,red_square,bottom_right,2025-02-04_11h05.24.754,HideSeek_v1,2022.2.5,59.86679643693921,
,5,4,1,4,-4,0,56,,train_dim1_1,13,30,,,,2,0,2,0,,,,,,,,,0,0,0,0,0,12,12,12,3,0,3,0,,,,,,,,,,,,,,,,,,,,,,,,,,,,,,,,,,,,,,,,,,,,,,,,,,,,,,,,,,,,,,,,30,,,,,,,,1724.851606399985,1724.851606399985,1724.851606399985,1724.851606399985,1724.851606399985,left,1.0441770001780242,3,1,0,99,-0.08000000000000003,-0.08,left,0.9613132998347282,,,,,,,,,,,,,,,,,,,,,,,,,,,,,,,,,,,,,,,,,,,,,,,,,,,,,,,,,,,,9DAVUV,train_x,red_square,bottom_right,2025-02-04_11h05.24.754,HideSeek_v1,2022.2.5,59.86679643693921,
,5,4,1,4,-4,0,56,,train_dim1_1,13,30,,,,2,0,2,0,,,,,,,,,0,0,0,0,0,12,12,12,4,0,4,0,,,,,,,,,,,,,,,,,,,,,,,,,,,,,,,,,,,,,,,,,,,,,,,,,,,,,,,,,,,,,,,,30,,,,,,,,1725.903116799891,1725.903116799891,1725.903116799891,1725.903116799891,1725.903116799891,return,0.6771893000695854,4,0,0,1,-0.08000000000000003,-0.08,return,0.590814100112766,6,-17,-0.08000000000000003,-0.08,,,,,,,,,,,,,,,,,,,,,,,,,,,,,,,,,,,,,,,,,,,,,,,,,,,,,,,,9DAVUV,train_x,red_square,bottom_right,2025-02-04_11h05.24.754,HideSeek_v1,2022.2.5,59.86679643693921,
,9,3,9,3,0,0,16,,train_dim1_1,14,30,,,,2,0,2,0,,,,,,,,,0,0,0,0,0,13,13,13,0,0,0,0,,,,,,,,,,,,,,,,,,,,,,,,,stimuli/alien_stimuli/16.png,,,,,,,,,,,,,,,,,,,,,,,,,,,,,stimuli/alien_stimuli/56.png,56,5,15,,,,,,,30,,,,,,,,1733.0388327999972,1733.0388327999972,1733.0388327999972,1733.0388327999972,1733.0388327999972,return,3.041684600058943,5,0,0,1,0.56,-0.16,return,2.956902800127864,6,-17,0.56,-0.16,1731.4762476999313,1733.0388327999972,-0.08,-0.08,0.0,0.32,-0.08,-0.08,0.07999999999999999,-0.08,-0.08,1728.1615234999917,1728.1615234999917,1728.1615234999917,1728.1615234999917,1728.1615234999917,1728.1615234999917,1728.1615234999917,1728.1615234999917,1728.1403824898648,3.4380409999284893,return,3.292970099952072,,,,,,,,,,,,,,,,,,,,,,,,,,,,,,,,,9DAVUV,train_x,red_square,bottom_right,2025-02-04_11h05.24.754,HideSeek_v1,2022.2.5,59.86679643693921,
,9,2,4,2,-5,0,66,,train_dim1_1,15,30,,,,2,0,2,0,,,,,,,,,0,0,0,0,0,14,14,14,0,0,0,0,,,,,,,,,,,,,,,,,,,,,,,,,stimuli/alien_stimuli/66.png,,,,,,,,,,,,,,,,,,,,,,,,,,,,,stimuli/alien_stimuli/16.png,16,9,16,,,,,,,30,,,,,,,,1746.7461192000192,1746.7461192000192,1746.7461192000192,1746.7461192000192,1746.7461192000192,left,2.3244889001362026,5,0,0,99,0.48000000000000004,-0.24,left,2.2289696999359876,,,,,1745.1876566999126,1746.7461192000192,0.56,-0.16,0.0,0.0,-0.16,0.56,0.56,0.56,-0.16,1737.6551155999769,1737.6551155999769,1737.6551155999769,1737.6551155999769,1737.6551155999769,1737.6551155999769,1737.6551155999769,1737.6551155999769,1737.647987459926,7.6588793999981135,return,7.505942000076175,,,,,,,,,,,,,,,,,,,,,,,,,,,,,,,,,9DAVUV,train_x,red_square,bottom_right,2025-02-04_11h05.24.754,HideSeek_v1,2022.2.5,59.86679643693921,
,9,2,4,2,-5,0,66,,train_dim1_1,15,30,,,,2,0,2,0,,,,,,,,,0,0,0,0,0,14,14,14,1,0,1,0,,,,,,,,,,,,,,,,,,,,,,,,,,,,,,,,,,,,,,,,,,,,,,,,,,,,,,,,,,,,,,,,30,,,,,,,,1749.075886500068,1749.075886500068,1749.075886500068,1749.075886500068,1749.075886500068,left,0.29268620000220835,5,0,0,99,0.4,-0.24,left,0.19924849993549287,,,,,,,,,,,,,,,,,,,,,,,,,,,,,,,,,,,,,,,,,,,,,,,,,,,,,,,,,,,,9DAVUV,train_x,red_square,bottom_right,2025-02-04_11h05.24.754,HideSeek_v1,2022.2.5,59.86679643693921,
,9,2,4,2,-5,0,66,,train_dim1_1,15,30,,,,2,0,2,0,,,,,,,,,0,0,0,0,0,14,14,14,2,0,2,0,,,,,,,,,,,,,,,,,,,,,,,,,,,,,,,,,,,,,,,,,,,,,,,,,,,,,,,,,,,,,,,,30,,,,,,,,1749.369861899875,1749.369861899875,1749.369861899875,1749.369861899875,1749.369861899875,left,0.3601919000502676,5,0,0,99,0.32,-0.24,left,0.2723781999666244,,,,,,,,,,,,,,,,,,,,,,,,,,,,,,,,,,,,,,,,,,,,,,,,,,,,,,,,,,,,9DAVUV,train_x,red_square,bottom_right,2025-02-04_11h05.24.754,HideSeek_v1,2022.2.5,59.86679643693921,
,9,2,4,2,-5,0,66,,train_dim1_1,15,30,,,,2,0,2,0,,,,,,,,,0,0,0,0,0,14,14,14,3,0,3,0,,,,,,,,,,,,,,,,,,,,,,,,,,,,,,,,,,,,,,,,,,,,,,,,,,,,,,,,,,,,,,,,30,,,,,,,,1749.737330700038,1749.737330700038,1749.737330700038,1749.737330700038,1749.737330700038,left,1.2774561000987887,5,0,0,99,0.24,-0.24,left,1.2045406999532133,,,,,,,,,,,,,,,,,,,,,,,,,,,,,,,,,,,,,,,,,,,,,,,,,,,,,,,,,,,,9DAVUV,train_x,red_square,bottom_right,2025-02-04_11h05.24.754,HideSeek_v1,2022.2.5,59.86679643693921,
,9,2,4,2,-5,0,66,,train_dim1_1,15,30,,,,2,0,2,0,,,,,,,,,0,0,0,0,0,14,14,14,4,0,4,0,,,,,,,,,,,,,,,,,,,,,,,,,,,,,,,,,,,,,,,,,,,,,,,,,,,,,,,,,,,,,,,,30,,,,,,,,1751.0222068999428,1751.0222068999428,1751.0222068999428,1751.0222068999428,1751.0222068999428,left,0.3930210000835359,5,0,0,99,0.15999999999999998,-0.24,left,0.307909999974072,,,,,,,,,,,,,,,,,,,,,,,,,,,,,,,,,,,,,,,,,,,,,,,,,,,,,,,,,,,,9DAVUV,train_x,red_square,bottom_right,2025-02-04_11h05.24.754,HideSeek_v1,2022.2.5,59.86679643693921,
,9,2,4,2,-5,0,66,,train_dim1_1,15,30,,,,2,0,2,0,,,,,,,,,0,0,0,0,0,14,14,14,5,0,5,0,,,,,,,,,,,,,,,,,,,,,,,,,,,,,,,,,,,,,,,,,,,,,,,,,,,,,,,,,,,,,,,,30,,,,,,,,1751.4227106000762,1751.4227106000762,1751.4227106000762,1751.4227106000762,1751.4227106000762,right,0.9604178001172841,5,0,0,99,0.24,-0.24,right,0.8763114998582751,,,,,,,,,,,,,,,,,,,,,,,,,,,,,,,,,,,,,,,,,,,,,,,,,,,,,,,,,,,,9DAVUV,train_x,red_square,bottom_right,2025-02-04_11h05.24.754,HideSeek_v1,2022.2.5,59.86679643693921,
,9,2,4,2,-5,0,66,,train_dim1_1,15,30,,,,2,0,2,0,,,,,,,,,0,0,0,0,0,14,14,14,6,0,6,0,,,,,,,,,,,,,,,,,,,,,,,,,,,,,,,,,,,,,,,,,,,,,,,,,,,,,,,,,,,,,,,,30,,,,,,,,1752.3892369999085,1752.3892369999085,1752.3892369999085,1752.3892369999085,1752.3892369999085,return,0.310039300005883,5,1,0,0,0.24,-0.24,return,0.22241849987767637,6,-21,0.24,-0.24,,,,,,,,,,,,,,,,,,,,,,,,,,,,,,,,,,,,,,,,,,,,,,,,,,,,,,,,9DAVUV,train_x,red_square,bottom_right,2025-02-04_11h05.24.754,HideSeek_v1,2022.2.5,59.86679643693921,
,8,3,4,3,-4,0,56,,train_dim1_1,16,30,,,,2,0,2,0,,,,,,,,,0,0,0,0,0,15,15,15,0,0,0,0,,,,,,,,,,,,,,,,,,,,,,,,,stimuli/alien_stimuli/56.png,,,,,,,,,,,,,,,,,,,,,,,,,,,,,stimuli/alien_stimuli/66.png,66,9,17,,,,,,,30,,,,,,,,1760.4760672000702,1760.4760672000702,1760.4760672000702,1760.4760672000702,1760.4760672000702,down,4.609997300198302,5,1,0,99,0.48,-0.24,down,4.512312299804762,,,,,1758.9155130998697,1760.4760672000702,0.16,-0.24,0.0,0.4,-0.24,0.16,0.36000000000000004,0.16,-0.24,1754.2838347998913,1754.2838347998913,1754.2838347998913,1754.2838347998913,1754.2838347998913,1754.2838347998913,1754.2838347998913,1754.2838347998913,1754.2614617899294,4.756638899911195,return,4.604387499857694,,,,,,,,,,,,,,,,,,,,,,,,,,,,,,,,,9DAVUV,train_x,red_square,bottom_right,2025-02-04_11h05.24.754,HideSeek_v1,2022.2.5,59.86679643693921,
,8,3,4,3,-4,0,56,,train_dim1_1,16,30,,,,2,0,2,0,,,,,,,,,0,0,0,0,0,15,15,15,1,0,1,0,,,,,,,,,,,,,,,,,,,,,,,,,,,,,,,,,,,,,,,,,,,,,,,,,,,,,,,,,,,,,,,,30,,,,,,,,1765.0868877000175,1765.0868877000175,1765.0868877000175,1765.0868877000175,1765.0868877000175,return,0.6265331001486629,5,0,0,0,0.48,-0.24,return,0.5411014000419527,5,-21,0.48,-0.24,,,,,,,,,,,,,,,,,,,,,,,,,,,,,,,,,,,,,,,,,,,,,,,,,,,,,,,,9DAVUV,train_x,red_square,bottom_right,2025-02-04_11h05.24.754,HideSeek_v1,2022.2.5,59.86679643693921,
,7,4,6,4,-1,0,26,,train_dim1_1,17,30,,,,2,0,2,0,,,,,,,,,0,0,0,0,0,16,16,16,0,0,0,0,,,,,,,,,,,,,,,,,,,,,,,,,stimuli/alien_stimuli/26.png,,,,,,,,,,,,,,,,,,,,,,,,,,,,,stimuli/alien_stimuli/56.png,56,8,18,,,,,,,30,,,,,,,,1772.9208962998819,1772.9208962998819,1772.9208962998819,1772.9208962998819,1772.9208962998819,left,2.0909470000769943,5,0,0,99,0.32,-0.08,left,1.9949702001176775,,,,,1771.3595084999688,1772.9208962998819,0.16,-0.16,0.0,0.32,-0.16,0.16,0.32,0.16,-0.16,1767.2776683999691,1767.2776683999691,1767.2776683999691,1767.2776683999691,1767.2776683999691,1767.2776683999691,1767.2776683999691,1767.2776683999691,1767.2557824198623,4.18884150008671,return,4.050016100052744,,,,,,,,,,,,,,,,,,,,,,,,,,,,,,,,,9DAVUV,train_x,red_square,bottom_right,2025-02-04_11h05.24.754,HideSeek_v1,2022.2.5,59.86679643693921,
,7,4,6,4,-1,0,26,,train_dim1_1,17,30,,,,2,0,2,0,,,,,,,,,0,0,0,0,0,16,16,16,1,0,1,0,,,,,,,,,,,,,,,,,,,,,,,,,,,,,,,,,,,,,,,,,,,,,,,,,,,,,,,,,,,,,,,,30,,,,,,,,1775.0126187000424,1775.0126187000424,1775.0126187000424,1775.0126187000424,1775.0126187000424,return,0.7765873000025749,6,0,0,1,0.32,-0.08,return,0.6928673998918384,5,-22,0.32,-0.08,,,,,,,,,,,,,,,,,,,,,,,,,,,,,,,,,,,,,,,,,,,,,,,,,,,,,,,,9DAVUV,train_x,red_square,bottom_right,2025-02-04_11h05.24.754,HideSeek_v1,2022.2.5,59.86679643693921,
,7,1,2,1,-5,0,66,,train_dim1_1,18,30,,,,2,0,2,0,,,,,,,,,0,0,0,0,0,17,17,17,0,0,0,0,,,,,,,,,,,,,,,,,,,,,,,,,stimuli/alien_stimuli/66.png,,,,,,,,,,,,,,,,,,,,,,,,,,,,,stimuli/alien_stimuli/26.png,26,7,19,,,,,,,30,,,,,,,,1781.7242191999685,1781.7242191999685,1781.7242191999685,1781.7242191999685,1781.7242191999685,left,2.1910653000231832,6,0,0,99,0.32,-0.32,left,2.1108184000477195,,,,,1780.166304500075,1781.7242191999685,0.32,-0.08,0.0,0.08,-0.08,0.32,0.36,0.32,-0.08,1777.3695692999754,1777.3695692999754,1777.3695692999754,1777.3695692999754,1777.3695692999754,1777.3695692999754,1777.3695692999754,1777.3695692999754,1777.3641623599922,2.92101819999516,return,2.774469999829307,,,,,,,,,,,,,,,,,,,,,,,,,,,,,,,,,9DAVUV,train_x,red_square,bottom_right,2025-02-04_11h05.24.754,HideSeek_v1,2022.2.5,59.86679643693921,
,7,1,2,1,-5,0,66,,train_dim1_1,18,30,,,,2,0,2,0,,,,,,,,,0,0,0,0,0,17,17,17,1,0,1,0,,,,,,,,,,,,,,,,,,,,,,,,,,,,,,,,,,,,,,,,,,,,,,,,,,,,,,,,,,,,,,,,30,,,,,,,,1783.9164001999889,1783.9164001999889,1783.9164001999889,1783.9164001999889,1783.9164001999889,left,0.3595020000357181,6,0,0,99,0.24,-0.32,left,0.2724768999032676,,,,,,,,,,,,,,,,,,,,,,,,,,,,,,,,,,,,,,,,,,,,,,,,,,,,,,,,,,,,9DAVUV,train_x,red_square,bottom_right,2025-02-04_11h05.24.754,HideSeek_v1,2022.2.5,59.86679643693921,
,7,1,2,1,-5,0,66,,train_dim1_1,18,30,,,,2,0,2,0,,,,,,,,,0,0,0,0,0,17,17,17,2,0,2,0,,,,,,,,,,,,,,,,,,,,,,,,,,,,,,,,,,,,,,,,,,,,,,,,,,,,,,,,,,,,,,,,30,,,,,,,,1784.296820800053,1784.296820800053,1784.296820800053,1784.296820800053,1784.296820800053,left,0.454435900086537,6,0,0,99,0.15999999999999998,-0.32,left,0.35823120013810694,,,,,,,,,,,,,,,,,,,,,,,,,,,,,,,,,,,,,,,,,,,,,,,,,,,,,,,,,,,,9DAVUV,train_x,red_square,bottom_right,2025-02-04_11h05.24.754,HideSeek_v1,2022.2.5,59.86679643693921,
,7,1,2,1,-5,0,66,,train_dim1_1,18,30,,,,2,0,2,0,,,,,,,,,0,0,0,0,0,17,17,17,3,0,3,0,,,,,,,,,,,,,,,,,,,,,,,,,,,,,,,,,,,,,,,,,,,,,,,,,,,,,,,,,,,,,,,,30,,,,,,,,1784.753554099938,1784.753554099938,1784.753554099938,1784.753554099938,1784.753554099938,left,0.5401798998937011,6,0,0,99,0.07999999999999997,-0.32,left,0.46132480003871024,,,,,,,,,,,,,,,,,,,,,,,,,,,,,,,,,,,,,,,,,,,,,,,,,,,,,,,,,,,,9DAVUV,train_x,red_square,bottom_right,2025-02-04_11h05.24.754,HideSeek_v1,2022.2.5,59.86679643693921,
,7,1,2,1,-5,0,66,,train_dim1_1,18,30,,,,2,0,2,0,,,,,,,,,0,0,0,0,0,17,17,17,4,0,4,0,,,,,,,,,,,,,,,,,,,,,,,,,,,,,,,,,,,,,,,,,,,,,,,,,,,,,,,,,,,,,,,,30,,,,,,,,1785.3002464999445,1785.3002464999445,1785.3002464999445,1785.3002464999445,1785.3002464999445,return,1.0768617000430822,6,1,0,0,0.07999999999999997,-0.32,return,0.9921685999725014,5,-26,0.07999999999999997,-0.32,,,,,,,,,,,,,,,,,,,,,,,,,,,,,,,,,,,,,,,,,,,,,,,,,,,,,,,,9DAVUV,train_x,red_square,bottom_right,2025-02-04_11h05.24.754,HideSeek_v1,2022.2.5,59.86679643693921,
,5,3,2,3,-3,0,46,,train_dim1_1,19,30,,,,2,0,2,0,,,,,,,,,0,0,0,0,0,18,18,18,0,0,0,0,,,,,,,,,,,,,,,,,,,,,,,,,stimuli/alien_stimuli/46.png,,,,,,,,,,,,,,,,,,,,,,,,,,,,,stimuli/alien_stimuli/66.png,66,7,20,,,,,,,30,,,,,,,,1792.9504348000046,1792.9504348000046,1792.9504348000046,1792.9504348000046,1792.9504348000046,left,2.7400550998281687,6,1,0,99,0.15999999999999998,-0.16,left,2.6473381998948753,,,,,1791.3925320000853,1792.9504348000046,0,-0.32,0.0,0.4,-0.32,0,0.2,0,-0.32,1787.9565039000008,1787.9565039000008,1787.9565039000008,1787.9565039000008,1787.9565039000008,1787.9565039000008,1787.9565039000008,1787.9565039000008,1787.9397626900814,3.555214900057763,return,3.419094800017774,,,,,,,,,,,,,,,,,,,,,,,,,,,,,,,,,9DAVUV,train_x,red_square,bottom_right,2025-02-04_11h05.24.754,HideSeek_v1,2022.2.5,59.86679643693921,
,5,3,2,3,-3,0,46,,train_dim1_1,19,30,,,,2,0,2,0,,,,,,,,,0,0,0,0,0,18,18,18,1,0,1,0,,,,,,,,,,,,,,,,,,,,,,,,,,,,,,,,,,,,,,,,,,,,,,,,,,,,,,,,,,,,,,,,30,,,,,,,,1795.6922545998823,1795.6922545998823,1795.6922545998823,1795.6922545998823,1795.6922545998823,left,0.4264412000775337,6,1,0,99,0.07999999999999997,-0.16,left,0.34734820015728474,,,,,,,,,,,,,,,,,,,,,,,,,,,,,,,,,,,,,,,,,,,,,,,,,,,,,,,,,,,,9DAVUV,train_x,red_square,bottom_right,2025-02-04_11h05.24.754,HideSeek_v1,2022.2.5,59.86679643693921,
,5,3,2,3,-3,0,46,,train_dim1_1,19,30,,,,2,0,2,0,,,,,,,,,0,0,0,0,0,18,18,18,2,0,2,0,,,,,,,,,,,,,,,,,,,,,,,,,,,,,,,,,,,,,,,,,,,,,,,,,,,,,,,,,,,,,,,,30,,,,,,,,1796.1264810999855,1796.1264810999855,1796.1264810999855,1796.1264810999855,1796.1264810999855,left,0.677032700041309,6,1,0,99,-2.7755575615628914e-17,-0.16,left,0.6033163000829518,,,,,,,,,,,,,,,,,,,,,,,,,,,,,,,,,,,,,,,,,,,,,,,,,,,,,,,,,,,,9DAVUV,train_x,red_square,bottom_right,2025-02-04_11h05.24.754,HideSeek_v1,2022.2.5,59.86679643693921,
,5,3,2,3,-3,0,46,,train_dim1_1,19,30,,,,2,0,2,0,,,,,,,,,0,0,0,0,0,18,18,18,3,0,3,0,,,,,,,,,,,,,,,,,,,,,,,,,,,,,,,,,,,,,,,,,,,,,,,,,,,,,,,,,,,,,,,,30,,,,,,,,1796.8118646999355,1796.8118646999355,1796.8118646999355,1796.8118646999355,1796.8118646999355,return,1.125218200031668,7,0,0,1,-2.7755575615628914e-17,-0.16,return,1.0461638001725078,5,-29,-2.7755575615628914e-17,-0.16,,,,,,,,,,,,,,,,,,,,,,,,,,,,,,,,,,,,,,,,,,,,,,,,,,,,,,,,9DAVUV,train_x,red_square,bottom_right,2025-02-04_11h05.24.754,HideSeek_v1,2022.2.5,59.86679643693921,
,5,1,5,1,0,0,16,,train_dim1_1,20,30,,,,2,0,2,0,,,,,,,,,0,0,0,0,0,19,19,19,0,0,0,0,,,,,,,,,,,,,,,,,,,,,,,,,stimuli/alien_stimuli/16.png,,,,,,,,,,,,,,,,,,,,,,,,,,,,,stimuli/alien_stimuli/46.png,46,5,21,,,,,,,30,,,,,,,,1803.966087799985,1803.966087799985,1803.966087799985,1803.966087799985,1803.966087799985,return,2.4219967999961227,8,0,0,1,0.24,-0.32,return,2.337194100022316,5,-29,0.24,-0.32,1802.4013799000531,1803.966087799985,0,-0.16,0.0,0.24,-0.16,0,0.12,0,-0.16,1799.4985825999174,1799.4985825999174,1799.4985825999174,1799.4985825999174,1799.4985825999174,1799.4985825999174,1799.4985825999174,1799.4985825999174,1799.4826279199217,3.0048169000074267,return,2.875383800128475,,,,,,,,,,,,,,,,,,,,,,,,,,,,,,,,,9DAVUV,train_x,red_square,bottom_right,2025-02-04_11h05.24.754,HideSeek_v1,2022.2.5,59.86679643693921,
,9,2,6,2,-3,0,46,,train_dim1_1,21,30,,,,2,0,2,0,,,,,,,,,0,0,0,0,0,20,20,20,0,0,0,0,,,,,,,,,,,,,,,,,,,,,,,,,stimuli/alien_stimuli/46.png,,,,,,,,,,,,,,,,,,,,,,,,,,,,,stimuli/alien_stimuli/16.png,16,5,22,,,,,,,30,,,,,,,,1811.113600099925,1811.113600099925,1811.113600099925,1811.113600099925,1811.113600099925,left,3.4085959000512958,8,0,0,99,0.48000000000000004,-0.24,left,3.3194081999827176,,,,,1809.5581099998672,1811.113600099925,0.24,-0.32,0.0,0.0,-0.32,0.24,0.24,0.24,-0.32,1807.9641251000576,1807.9641251000576,1807.9641251000576,1807.9641251000576,1807.9641251000576,1807.9641251000576,1807.9641251000576,1807.9641251000576,1807.9563608599362,1.720434800023213,return,1.5692729998845607,,,,,,,,,,,,,,,,,,,,,,,,,,,,,,,,,9DAVUV,train_x,red_square,bottom_right,2025-02-04_11h05.24.754,HideSeek_v1,2022.2.5,59.86679643693921,
,9,2,6,2,-3,0,46,,train_dim1_1,21,30,,,,2,0,2,0,,,,,,,,,0,0,0,0,0,20,20,20,1,0,1,0,,,,,,,,,,,,,,,,,,,,,,,,,,,,,,,,,,,,,,,,,,,,,,,,,,,,,,,,,,,,,,,,30,,,,,,,,1814.5361627999227,1814.5361627999227,1814.5361627999227,1814.5361627999227,1814.5361627999227,left,0.46618150011636317,8,0,0,99,0.4,-0.24,left,0.3774290999863297,,,,,,,,,,,,,,,,,,,,,,,,,,,,,,,,,,,,,,,,,,,,,,,,,,,,,,,,,,,,9DAVUV,train_x,red_square,bottom_right,2025-02-04_11h05.24.754,HideSeek_v1,2022.2.5,59.86679643693921,
,9,2,6,2,-3,0,46,,train_dim1_1,21,30,,,,2,0,2,0,,,,,,,,,0,0,0,0,0,20,20,20,2,0,2,0,,,,,,,,,,,,,,,,,,,,,,,,,,,,,,,,,,,,,,,,,,,,,,,,,,,,,,,,,,,,,,,,30,,,,,,,,1815.0100217999425,1815.0100217999425,1815.0100217999425,1815.0100217999425,1815.0100217999425,left,0.46037960005924106,8,0,0,99,0.32,-0.24,left,0.3810360999777913,,,,,,,,,,,,,,,,,,,,,,,,,,,,,,,,,,,,,,,,,,,,,,,,,,,,,,,,,,,,9DAVUV,train_x,red_square,bottom_right,2025-02-04_11h05.24.754,HideSeek_v1,2022.2.5,59.86679643693921,
,9,2,6,2,-3,0,46,,train_dim1_1,21,30,,,,2,0,2,0,,,,,,,,,0,0,0,0,0,20,20,20,3,0,3,0,,,,,,,,,,,,,,,,,,,,,,,,,,,,,,,,,,,,,,,,,,,,,,,,,,,,,,,,,,,,,,,,30,,,,,,,,1815.4753783999477,1815.4753783999477,1815.4753783999477,1815.4753783999477,1815.4753783999477,return,0.5270480001345277,9,0,0,1,0.32,-0.24,return,0.44989829999394715,5,-32,0.32,-0.24,,,,,,,,,,,,,,,,,,,,,,,,,,,,,,,,,,,,,,,,,,,,,,,,,,,,,,,,9DAVUV,train_x,red_square,bottom_right,2025-02-04_11h05.24.754,HideSeek_v1,2022.2.5,59.86679643693921,
,6,0,5,0,-1,0,26,,train_dim1_1,22,30,,,,2,0,2,0,,,,,,,,,0,0,0,0,0,21,21,21,0,0,0,0,,,,,,,,,,,,,,,,,,,,,,,,,stimuli/alien_stimuli/26.png,,,,,,,,,,,,,,,,,,,,,,,,,,,,,stimuli/alien_stimuli/46.png,46,9,23,,,,,,,30,,,,,,,,1820.612297799904,1820.612297799904,1820.612297799904,1820.612297799904,1820.612297799904,left,2.591182899894193,9,0,0,99,0.24,-0.4,left,2.4850554999429733,,,,,1819.0322396000847,1820.612297799904,0.32,-0.24,0.0,0.24,-0.24,0.32,0.44000000000000006,0.32,-0.24,1817.563002299983,1817.563002299983,1817.563002299983,1817.563002299983,1817.563002299983,1817.563002299983,1817.563002299983,1817.563002299983,1817.5477130199317,1.5701640001498163,return,1.4522690000012517,,,,,,,,,,,,,,,,,,,,,,,,,,,,,,,,,9DAVUV,train_x,red_square,bottom_right,2025-02-04_11h05.24.754,HideSeek_v1,2022.2.5,59.86679643693921,
,6,0,5,0,-1,0,26,,train_dim1_1,22,30,,,,2,0,2,0,,,,,,,,,0,0,0,0,0,21,21,21,1,0,1,0,,,,,,,,,,,,,,,,,,,,,,,,,,,,,,,,,,,,,,,,,,,,,,,,,,,,,,,,,,,,,,,,30,,,,,,,,1823.1864348999225,1823.1864348999225,1823.1864348999225,1823.1864348999225,1823.1864348999225,return,0.8097590999677777,10,0,0,1,0.24,-0.4,return,0.7182271000929177,5,-33,0.24,-0.4,,,,,,,,,,,,,,,,,,,,,,,,,,,,,,,,,,,,,,,,,,,,,,,,,,,,,,,,9DAVUV,train_x,red_square,bottom_right,2025-02-04_11h05.24.754,HideSeek_v1,2022.2.5,59.86679643693921,
,7,1,2,1,-5,0,66,,train_dim1_1,23,30,,,,2,0,2,0,,,,,,,,,0,0,0,0,0,22,22,22,0,0,0,0,,,,,,,,,,,,,,,,,,,,,,,,,stimuli/alien_stimuli/66.png,,,,,,,,,,,,,,,,,,,,,,,,,,,,,stimuli/alien_stimuli/26.png,26,6,24,,,,,,,30,,,,,,,,1828.6829126998782,1828.6829126998782,1828.6829126998782,1828.6829126998782,1828.6829126998782,left,1.0389888000208884,10,0,0,99,0.32,-0.32,left,0.9301529999356717,,,,,1827.105421199929,1828.6829126998782,0.24,-0.4,0.0,0.08,-0.4,0.24,0.28,0.24,-0.4,1825.561397699872,1825.561397699872,1825.561397699872,1825.561397699872,1825.561397699872,1825.561397699872,1825.561397699872,1825.561397699872,1825.554124089866,1.653981100069359,return,1.5204751000273973,,,,,,,,,,,,,,,,,,,,,,,,,,,,,,,,,9DAVUV,train_x,red_square,bottom_right,2025-02-04_11h05.24.754,HideSeek_v1,2022.2.5,59.86679643693921,
,7,1,2,1,-5,0,66,,train_dim1_1,23,30,,,,2,0,2,0,,,,,,,,,0,0,0,0,0,22,22,22,1,0,1,0,,,,,,,,,,,,,,,,,,,,,,,,,,,,,,,,,,,,,,,,,,,,,,,,,,,,,,,,,,,,,,,,30,,,,,,,,1829.7042088999879,1829.7042088999879,1829.7042088999879,1829.7042088999879,1829.7042088999879,left,0.4765220999252051,10,0,0,99,0.24,-0.32,left,0.3887189000379294,,,,,,,,,,,,,,,,,,,,,,,,,,,,,,,,,,,,,,,,,,,,,,,,,,,,,,,,,,,,9DAVUV,train_x,red_square,bottom_right,2025-02-04_11h05.24.754,HideSeek_v1,2022.2.5,59.86679643693921,
,7,1,2,1,-5,0,66,,train_dim1_1,23,30,,,,2,0,2,0,,,,,,,,,0,0,0,0,0,22,22,22,2,0,2,0,,,,,,,,,,,,,,,,,,,,,,,,,,,,,,,,,,,,,,,,,,,,,,,,,,,,,,,,,,,,,,,,30,,,,,,,,1830.1875279999804,1830.1875279999804,1830.1875279999804,1830.1875279999804,1830.1875279999804,left,0.5601781001314521,10,0,0,99,0.15999999999999998,-0.32,left,0.4753244000021368,,,,,,,,,,,,,,,,,,,,,,,,,,,,,,,,,,,,,,,,,,,,,,,,,,,,,,,,,,,,9DAVUV,train_x,red_square,bottom_right,2025-02-04_11h05.24.754,HideSeek_v1,2022.2.5,59.86679643693921,
,7,1,2,1,-5,0,66,,train_dim1_1,23,30,,,,2,0,2,0,,,,,,,,,0,0,0,0,0,22,22,22,3,0,3,0,,,,,,,,,,,,,,,,,,,,,,,,,,,,,,,,,,,,,,,,,,,,,,,,,,,,,,,,,,,,,,,,30,,,,,,,,1830.7542274000589,1830.7542274000589,1830.7542274000589,1830.7542274000589,1830.7542274000589,left,0.6600852999836206,10,0,0,99,0.07999999999999997,-0.32,left,0.5732221999205649,,,,,,,,,,,,,,,,,,,,,,,,,,,,,,,,,,,,,,,,,,,,,,,,,,,,,,,,,,,,9DAVUV,train_x,red_square,bottom_right,2025-02-04_11h05.24.754,HideSeek_v1,2022.2.5,59.86679643693921,
,7,1,2,1,-5,0,66,,train_dim1_1,23,30,,,,2,0,2,0,,,,,,,,,0,0,0,0,0,22,22,22,4,0,4,0,,,,,,,,,,,,,,,,,,,,,,,,,,,,,,,,,,,,,,,,,,,,,,,,,,,,,,,,,,,,,,,,30,,,,,,,,1831.421502900077,1831.421502900077,1831.421502900077,1831.421502900077,1831.421502900077,return,0.7937451999168843,10,1,0,0,0.07999999999999997,-0.32,return,0.7115165998693556,5,-37,0.07999999999999997,-0.32,,,,,,,,,,,,,,,,,,,,,,,,,,,,,,,,,,,,,,,,,,,,,,,,,,,,,,,,9DAVUV,train_x,red_square,bottom_right,2025-02-04_11h05.24.754,HideSeek_v1,2022.2.5,59.86679643693921,
,9,4,5,4,-4,0,56,,train_dim1_1,24,30,,,,2,0,2,0,,,,,,,,,0,0,0,0,0,23,23,23,0,0,0,0,,,,,,,,,,,,,,,,,,,,,,,,,stimuli/alien_stimuli/56.png,,,,,,,,,,,,,,,,,,,,,,,,,,,,,stimuli/alien_stimuli/66.png,66,7,25,,,,,,,30,,,,,,,,1837.5886142998934,1837.5886142998934,1837.5886142998934,1837.5886142998934,1837.5886142998934,left,4.793393499916419,10,1,0,99,0.48000000000000004,-0.08,left,4.6891389999073,,,,,1836.012749799993,1837.5886142998934,0,-0.32,0.0,0.4,-0.32,0,0.2,0,-0.32,1833.777115300065,1833.777115300065,1833.777115300065,1833.777115300065,1833.777115300065,1833.777115300065,1833.777115300065,1833.777115300065,1833.7610629199073,2.3372383997775614,return,2.2052692999131978,,,,,,,,,,,,,,,,,,,,,,,,,,,,,,,,,9DAVUV,train_x,red_square,bottom_right,2025-02-04_11h05.24.754,HideSeek_v1,2022.2.5,59.86679643693921,
,9,4,5,4,-4,0,56,,train_dim1_1,24,30,,,,2,0,2,0,,,,,,,,,0,0,0,0,0,23,23,23,1,0,1,0,,,,,,,,,,,,,,,,,,,,,,,,,,,,,,,,,,,,,,,,,,,,,,,,,,,,,,,,,,,,,,,,30,,,,,,,,1842.367881800048,1842.367881800048,1842.367881800048,1842.367881800048,1842.367881800048,left,0.7261321998666972,10,1,0,99,0.4,-0.08,left,0.6439502001740038,,,,,,,,,,,,,,,,,,,,,,,,,,,,,,,,,,,,,,,,,,,,,,,,,,,,,,,,,,,,9DAVUV,train_x,red_square,bottom_right,2025-02-04_11h05.24.754,HideSeek_v1,2022.2.5,59.86679643693921,
,9,4,5,4,-4,0,56,,train_dim1_1,24,30,,,,2,0,2,0,,,,,,,,,0,0,0,0,0,23,23,23,2,0,2,0,,,,,,,,,,,,,,,,,,,,,,,,,,,,,,,,,,,,,,,,,,,,,,,,,,,,,,,,,,,,,,,,30,,,,,,,,1843.100554100005,1843.100554100005,1843.100554100005,1843.100554100005,1843.100554100005,left,0.5438164998777211,10,1,0,99,0.32,-0.08,left,0.45628400007262826,,,,,,,,,,,,,,,,,,,,,,,,,,,,,,,,,,,,,,,,,,,,,,,,,,,,,,,,,,,,9DAVUV,train_x,red_square,bottom_right,2025-02-04_11h05.24.754,HideSeek_v1,2022.2.5,59.86679643693921,
,9,4,5,4,-4,0,56,,train_dim1_1,24,30,,,,2,0,2,0,,,,,,,,,0,0,0,0,0,23,23,23,3,0,3,0,,,,,,,,,,,,,,,,,,,,,,,,,,,,,,,,,,,,,,,,,,,,,,,,,,,,,,,,,,,,,,,,30,,,,,,,,1843.6512082000263,1843.6512082000263,1843.6512082000263,1843.6512082000263,1843.6512082000263,return,0.44365100003778934,10,1,0,0,0.32,-0.08,return,0.35625469987280667,5,-40,0.32,-0.08,,,,,,,,,,,,,,,,,,,,,,,,,,,,,,,,,,,,,,,,,,,,,,,,,,,,,,,,9DAVUV,train_x,red_square,bottom_right,2025-02-04_11h05.24.754,HideSeek_v1,2022.2.5,59.86679643693921,
,8,0,8,0,0,0,16,,train_dim1_1,25,30,,,,2,0,2,0,,,,,,,,,0,0,0,0,0,24,24,24,0,0,0,0,,,,,,,,,,,,,,,,,,,,,,,,,stimuli/alien_stimuli/16.png,,,,,,,,,,,,,,,,,,,,,,,,,,,,,stimuli/alien_stimuli/56.png,56,9,26,,,,,,,30,,,,,,,,1849.9024219000712,1849.9024219000712,1849.9024219000712,1849.9024219000712,1849.9024219000712,return,1.9908108001109213,11,0,0,1,0.48,-0.4,return,1.898609499912709,5,-40,0.48,-0.4,1848.3397345999256,1849.9024219000712,0.24,-0.08,0.0,0.32,-0.08,0.24,0.4,0.24,-0.08,1845.6594040000346,1845.6594040000346,1845.6594040000346,1845.6594040000346,1845.6594040000346,1845.6594040000346,1845.6594040000346,1845.6594040000346,1845.6375106198714,2.787882500095293,return,2.6503095999360085,,,,,,,,,,,,,,,,,,,,,,,,,,,,,,,,,9DAVUV,train_x,red_square,bottom_right,2025-02-04_11h05.24.754,HideSeek_v1,2022.2.5,59.86679643693921,
,6,1,1,1,-5,0,66,,train_dim1_1,26,30,,,,2,0,2,0,,,,,,,,,0,0,0,0,0,25,25,25,0,0,0,0,,,,,,,,,,,,,,,,,,,,,,,,,stimuli/alien_stimuli/66.png,,,,,,,,,,,,,,,,,,,,,,,,,,,,,stimuli/alien_stimuli/16.png,16,8,27,,,,,,,30,,,,,,,,1858.4043781000655,1858.4043781000655,1858.4043781000655,1858.4043781000655,1858.4043781000655,left,2.708377300063148,11,0,0,99,0.24,-0.32,left,2.6136586999055,,,,,1856.8468498000875,1858.4043781000655,0.48,-0.4,0.0,0.0,-0.4,0.48,0.48,0.48,-0.4,1853.4636542999651,1853.4636542999651,1853.4636542999651,1853.4636542999651,1853.4636542999651,1853.4636542999651,1853.4636542999651,1853.4636542999651,1853.4442401900656,3.5048089001793414,return,3.3639740000944585,,,,,,,,,,,,,,,,,,,,,,,,,,,,,,,,,9DAVUV,train_x,red_square,bottom_right,2025-02-04_11h05.24.754,HideSeek_v1,2022.2.5,59.86679643693921,
,6,1,1,1,-5,0,66,,train_dim1_1,26,30,,,,2,0,2,0,,,,,,,,,0,0,0,0,0,25,25,25,1,0,1,0,,,,,,,,,,,,,,,,,,,,,,,,,,,,,,,,,,,,,,,,,,,,,,,,,,,,,,,,,,,,,,,,30,,,,,,,,1861.113538699923,1861.113538699923,1861.113538699923,1861.113538699923,1861.113538699923,left,0.4259770999196917,11,0,0,99,0.15999999999999998,-0.32,left,0.34862070018425584,,,,,,,,,,,,,,,,,,,,,,,,,,,,,,,,,,,,,,,,,,,,,,,,,,,,,,,,,,,,9DAVUV,train_x,red_square,bottom_right,2025-02-04_11h05.24.754,HideSeek_v1,2022.2.5,59.86679643693921,
,6,1,1,1,-5,0,66,,train_dim1_1,26,30,,,,2,0,2,0,,,,,,,,,0,0,0,0,0,25,25,25,2,0,2,0,,,,,,,,,,,,,,,,,,,,,,,,,,,,,,,,,,,,,,,,,,,,,,,,,,,,,,,,,,,,,,,,30,,,,,,,,1861.5475584999658,1861.5475584999658,1861.5475584999658,1861.5475584999658,1861.5475584999658,left,0.5262941000983119,11,0,0,99,0.07999999999999997,-0.32,left,0.44983729999512434,,,,,,,,,,,,,,,,,,,,,,,,,,,,,,,,,,,,,,,,,,,,,,,,,,,,,,,,,,,,9DAVUV,train_x,red_square,bottom_right,2025-02-04_11h05.24.754,HideSeek_v1,2022.2.5,59.86679643693921,
,6,1,1,1,-5,0,66,,train_dim1_1,26,30,,,,2,0,2,0,,,,,,,,,0,0,0,0,0,25,25,25,3,0,3,0,,,,,,,,,,,,,,,,,,,,,,,,,,,,,,,,,,,,,,,,,,,,,,,,,,,,,,,,,,,,,,,,30,,,,,,,,1862.0799650999252,1862.0799650999252,1862.0799650999252,1862.0799650999252,1862.0799650999252,left,0.5601156000047922,11,0,0,99,-2.7755575615628914e-17,-0.32,left,0.473958499962464,,,,,,,,,,,,,,,,,,,,,,,,,,,,,,,,,,,,,,,,,,,,,,,,,,,,,,,,,,,,9DAVUV,train_x,red_square,bottom_right,2025-02-04_11h05.24.754,HideSeek_v1,2022.2.5,59.86679643693921,
,6,1,1,1,-5,0,66,,train_dim1_1,26,30,,,,2,0,2,0,,,,,,,,,0,0,0,0,0,25,25,25,4,0,4,0,,,,,,,,,,,,,,,,,,,,,,,,,,,,,,,,,,,,,,,,,,,,,,,,,,,,,,,,,,,,,,,,30,,,,,,,,1862.648420699872,1862.648420699872,1862.648420699872,1862.648420699872,1862.648420699872,left,0.577080300077796,11,0,0,99,-0.08000000000000003,-0.32,left,0.49923379998654127,,,,,,,,,,,,,,,,,,,,,,,,,,,,,,,,,,,,,,,,,,,,,,,,,,,,,,,,,,,,9DAVUV,train_x,red_square,bottom_right,2025-02-04_11h05.24.754,HideSeek_v1,2022.2.5,59.86679643693921,
,6,1,1,1,-5,0,66,,train_dim1_1,26,30,,,,2,0,2,0,,,,,,,,,0,0,0,0,0,25,25,25,5,0,5,0,,,,,,,,,,,,,,,,,,,,,,,,,,,,,,,,,,,,,,,,,,,,,,,,,,,,,,,,,,,,,,,,30,,,,,,,,1863.2321820000652,1863.2321820000652,1863.2321820000652,1863.2321820000652,1863.2321820000652,return,0.6103297001682222,12,0,0,1,-0.08000000000000003,-0.32,return,0.5305335999000818,5,-45,-0.08000000000000003,-0.32,,,,,,,,,,,,,,,,,,,,,,,,,,,,,,,,,,,,,,,,,,,,,,,,,,,,,,,,9DAVUV,train_x,red_square,bottom_right,2025-02-04_11h05.24.754,HideSeek_v1,2022.2.5,59.86679643693921,
,5,1,2,1,-3,0,46,,train_dim1_1,27,30,,,,2,0,2,0,,,,,,,,,0,0,0,0,0,26,26,26,0,0,0,0,,,,,,,,,,,,,,,,,,,,,,,,,stimuli/alien_stimuli/46.png,,,,,,,,,,,,,,,,,,,,,,,,,,,,,stimuli/alien_stimuli/66.png,66,6,28,,,,,,,30,,,,,,,,1869.2124395000283,1869.2124395000283,1869.2124395000283,1869.2124395000283,1869.2124395000283,left,3.9091505999676883,12,0,0,99,0.15999999999999998,-0.32,left,3.810065699974075,,,,,1867.6391225000843,1869.2124395000283,-0.08,-0.32,0.0,0.4,-0.32,-0.08,0.12,-0.08,-0.32,1865.4209250998683,1865.4209250998683,1865.4209250998683,1865.4209250998683,1865.4209250998683,1865.4209250998683,1865.4209250998683,1865.4209250998683,1865.4036577900174,2.337973300134763,return,2.198635800043121,,,,,,,,,,,,,,,,,,,,,,,,,,,,,,,,,9DAVUV,train_x,red_square,bottom_right,2025-02-04_11h05.24.754,HideSeek_v1,2022.2.5,59.86679643693921,
,5,1,2,1,-3,0,46,,train_dim1_1,27,30,,,,2,0,2,0,,,,,,,,,0,0,0,0,0,26,26,26,1,0,1,0,,,,,,,,,,,,,,,,,,,,,,,,,,,,,,,,,,,,,,,,,,,,,,,,,,,,,,,,,,,,,,,,30,,,,,,,,1873.1070405999199,1873.1070405999199,1873.1070405999199,1873.1070405999199,1873.1070405999199,return,1.510732299881056,12,0,0,0,0.15999999999999998,-0.32,return,1.422923100180924,5,-46,0.15999999999999998,-0.32,,,,,,,,,,,,,,,,,,,,,,,,,,,,,,,,,,,,,,,,,,,,,,,,,,,,,,,,9DAVUV,train_x,red_square,bottom_right,2025-02-04_11h05.24.754,HideSeek_v1,2022.2.5,59.86679643693921,
,8,1,7,1,-1,0,26,,train_dim1_1,28,30,,,,2,0,2,0,,,,,,,,,0,0,0,0,0,27,27,27,0,0,0,0,,,,,,,,,,,,,,,,,,,,,,,,,stimuli/alien_stimuli/26.png,,,,,,,,,,,,,,,,,,,,,,,,,,,,,stimuli/alien_stimuli/46.png,46,5,29,,,,,,,30,,,,,,,,1879.8918429000769,1879.8918429000769,1879.8918429000769,1879.8918429000769,1879.8918429000769,left,2.8085853001102805,12,0,0,99,0.39999999999999997,-0.32,left,2.7034658999182284,,,,,1878.314333899878,1879.8918429000769,0,-0.32,0.0,0.24,-0.32,0,0.12,0,-0.32,1876.1909793999512,1876.1909793999512,1876.1909793999512,1876.1909793999512,1876.1909793999512,1876.1909793999512,1876.1909793999512,1876.1909793999512,1876.179642389971,2.236926699988544,return,2.096489500021562,,,,,,,,,,,,,,,,,,,,,,,,,,,,,,,,,9DAVUV,train_x,red_square,bottom_right,2025-02-04_11h05.24.754,HideSeek_v1,2022.2.5,59.86679643693921,
,8,1,7,1,-1,0,26,,train_dim1_1,28,30,,,,2,0,2,0,,,,,,,,,0,0,0,0,0,27,27,27,1,0,1,0,,,,,,,,,,,,,,,,,,,,,,,,,,,,,,,,,,,,,,,,,,,,,,,,,,,,,,,,,,,,,,,,30,,,,,,,,1882.6861684999894,1882.6861684999894,1882.6861684999894,1882.6861684999894,1882.6861684999894,return,0.3264217998366803,13,0,0,1,0.39999999999999997,-0.32,return,0.23958060005679727,5,-47,0.39999999999999997,-0.32,,,,,,,,,,,,,,,,,,,,,,,,,,,,,,,,,,,,,,,,,,,,,,,,,,,,,,,,9DAVUV,train_x,red_square,bottom_right,2025-02-04_11h05.24.754,HideSeek_v1,2022.2.5,59.86679643693921,
,9,0,5,0,-4,0,56,,train_dim1_1,29,30,,,,2,0,2,0,,,,,,,,,0,0,0,0,0,28,28,28,0,0,0,0,,,,,,,,,,,,,,,,,,,,,,,,,stimuli/alien_stimuli/56.png,,,,,,,,,,,,,,,,,,,,,,,,,,,,,stimuli/alien_stimuli/26.png,26,8,30,,,,,,,30,,,,,,,,1888.932283599861,1888.932283599861,1888.932283599861,1888.932283599861,1888.932283599861,left,2.441635200055316,13,0,0,99,0.48000000000000004,-0.4,left,2.3591376000549644,,,,,1887.372343200026,1888.932283599861,0.4,-0.32,0.0,0.08,-0.32,0.4,0.44,0.4,-0.32,1884.5757768000476,1884.5757768000476,1884.5757768000476,1884.5757768000476,1884.5757768000476,1884.5757768000476,1884.5757768000476,1884.5757768000476,1884.569877689914,2.904364400077611,return,2.778144899988547,,,,,,,,,,,,,,,,,,,,,,,,,,,,,,,,,9DAVUV,train_x,red_square,bottom_right,2025-02-04_11h05.24.754,HideSeek_v1,2022.2.5,59.86679643693921,
,9,0,5,0,-4,0,56,,train_dim1_1,29,30,,,,2,0,2,0,,,,,,,,,0,0,0,0,0,28,28,28,1,0,1,0,,,,,,,,,,,,,,,,,,,,,,,,,,,,,,,,,,,,,,,,,,,,,,,,,,,,,,,,,,,,,,,,30,,,,,,,,1891.3733107999433,1891.3733107999433,1891.3733107999433,1891.3733107999433,1891.3733107999433,left,0.4931209997739643,13,0,0,99,0.4,-0.4,left,0.4148146000225097,,,,,,,,,,,,,,,,,,,,,,,,,,,,,,,,,,,,,,,,,,,,,,,,,,,,,,,,,,,,9DAVUV,train_x,red_square,bottom_right,2025-02-04_11h05.24.754,HideSeek_v1,2022.2.5,59.86679643693921,
,9,0,5,0,-4,0,56,,train_dim1_1,29,30,,,,2,0,2,0,,,,,,,,,0,0,0,0,0,28,28,28,2,0,2,0,,,,,,,,,,,,,,,,,,,,,,,,,,,,,,,,,,,,,,,,,,,,,,,,,,,,,,,,,,,,,,,,30,,,,,,,,1891.8739684000611,1891.8739684000611,1891.8739684000611,1891.8739684000611,1891.8739684000611,left,0.6603361000306904,13,0,0,99,0.32,-0.4,left,0.5708471001125872,,,,,,,,,,,,,,,,,,,,,,,,,,,,,,,,,,,,,,,,,,,,,,,,,,,,,,,,,,,,9DAVUV,train_x,red_square,bottom_right,2025-02-04_11h05.24.754,HideSeek_v1,2022.2.5,59.86679643693921,
,9,0,5,0,-4,0,56,,train_dim1_1,29,30,,,,2,0,2,0,,,,,,,,,0,0,0,0,0,28,28,28,3,0,3,0,,,,,,,,,,,,,,,,,,,,,,,,,,,,,,,,,,,,,,,,,,,,,,,,,,,,,,,,,,,,,,,,30,,,,,,,,1892.5416498999111,1892.5416498999111,1892.5416498999111,1892.5416498999111,1892.5416498999111,left,0.5594242000952363,13,0,0,99,0.24,-0.4,left,0.4793408999685198,,,,,,,,,,,,,,,,,,,,,,,,,,,,,,,,,,,,,,,,,,,,,,,,,,,,,,,,,,,,9DAVUV,train_x,red_square,bottom_right,2025-02-04_11h05.24.754,HideSeek_v1,2022.2.5,59.86679643693921,
,9,0,5,0,-4,0,56,,train_dim1_1,29,30,,,,2,0,2,0,,,,,,,,,0,0,0,0,0,28,28,28,4,0,4,0,,,,,,,,,,,,,,,,,,,,,,,,,,,,,,,,,,,,,,,,,,,,,,,,,,,,,,,,,,,,,,,,30,,,,,,,,1893.107918099966,1893.107918099966,1893.107918099966,1893.107918099966,1893.107918099966,return,2.061750699998811,14,0,0,1,0.24,-0.4,return,1.972592799924314,5,-51,0.24,-0.4,,,,,,,,,,,,,,,,,,,,,,,,,,,,,,,,,,,,,,,,,,,,,,,,,,,,,,,,9DAVUV,train_x,red_square,bottom_right,2025-02-04_11h05.24.754,HideSeek_v1,2022.2.5,59.86679643693921,
,7,2,7,2,0,0,16,,train_dim1_1,30,30,,,,2,0,2,0,,,,,,,,,0,0,0,0,0,29,29,29,0,0,0,0,,,,,,,,,,,,,,,,,,,,,,,,,stimuli/alien_stimuli/16.png,,,,,,,,,,,,,,,,,,,,,,,,,,,,,stimuli/alien_stimuli/56.png,56,9,31,,,,,,,30,,,,,,,,1901.043823099928,1901.043823099928,1901.043823099928,1901.043823099928,1901.043823099928,return,2.3079291998874396,15,0,0,1,0.4,-0.24,return,2.2177182999439538,5,-51,0.4,-0.24,1899.4822174999863,1901.043823099928,0.24,-0.4,0.0,0.32,-0.4,0.24,0.4,0.24,-0.4,1896.7458116998896,1896.7458116998896,1896.7458116998896,1896.7458116998896,1896.7458116998896,1896.7458116998896,1896.7458116998896,1896.7458116998896,1896.7300392898965,2.8549009999260306,return,2.719772699987516,,,,,,,,,,,,,,,,,,,,,,,,,,,,,,,,,9DAVUV,train_x,red_square,bottom_right,2025-02-04_11h05.24.754,HideSeek_v1,2022.2.5,59.86679643693921,
,,,,,,,,,,,30,,,,2,0,2,0,,,,,,,,,,,,,,,,,,,,,,,,,,,,,,,,,,,,,,,,,,,,,,,,,,,,,,,,,,,,,,,,,,,,,,,,,,stimuli/alien_stimuli/16.png,16,7,32,21,0.7,0.625,1,1,1,30,0,conditions/schedules/train_x_first/red_square_00/bottom_right/inputTrain_2.1.xlsx,99,1,2,1,0,,,,,,,,,,,1,,,,,,,,,1912.576539899921,1914.1186605999246,0.4,-0.24,0.0,0.0,-0.24,0.4,0.4,0.4,-0.24,1904.925795899937,1904.925795899937,1904.925795899937,1904.925795899937,1904.925795899937,1904.925795899937,1904.925795899937,1904.925795899937,1904.9201572599356,7.775289899902418,return,7.618194799870253,0,0.9,0,1,15,,,,,,,,,,,,,,,,,,,,,,,,,,,,9DAVUV,train_x,red_square,bottom_right,2025-02-04_11h05.24.754,HideSeek_v1,2022.2.5,59.86679643693921,
,,,,,,,,,,,,,,,3,0,3,0,0,0,0,0,,,,,,,,,,,,,,,,,,,,,,,,,,,,,,,conditions/schedules/train_x_first/red_square_00/bottom_right/instructions/Slide17.png,conditions/schedules/train_x_first/red_square_00/bottom_right/instructions/Audio17.wav,1914.1186605999246,1914.1107911099914,17,"[11.552676500054076, 37.598262399900705, 17.383714499883354, 19.583042499842122, 4.8370477999560535, 5.020280000055209, 5.803791799815372, 11.974315300118178, 6.335668599931523, 7.46392529993318, 10.136596000054851, 12.907078700140119, 18.466210799990222, 23.89772229990922, 30.652438999852166, 22.025920699816197, 62.10791060002521]","[11.552683300105855, 0.0002218999434262514, 0.03303479985333979, 0.06636940012685955, 0.06563380011357367, 0.08213509991765022, 0.06430750014260411, 0.0636668000370264, 0.07420639996416867, 0.07771890005096793, 0.06295790011063218, 12.907085900194943, 0.00021369988098740578, 23.897729499964043, 0.07874219981022179, 22.025927799986675, 62.10791790019721]",0,,,,,,,,,,,,,,,,,,,,,,,,,,,,,,,,,,,,,,,,,,,,,,,,,,,,,,,,,,,,,,,,,,,,,,,,,,,,,,,,,,,,,,,,,,,,,,,,,,,,,,,,,,,,,,,,,,,,,,,,,,,,9DAVUV,train_x,red_square,bottom_right,2025-02-04_11h05.24.754,HideSeek_v1,2022.2.5,59.86679643693921,
,,,,,,,,,,,,,,,3,0,3,0,1,0,1,0,,,,,,,,,,,,,,,,,,,,,,,,,,,,,,,conditions/schedules/train_x_first/red_square_00/bottom_right/instructions/Slide18.png,conditions/schedules/train_x_first/red_square_00/bottom_right/instructions/Audio18.wav,1976.2897131000645,1976.279111880064,18,"[11.552676500054076, 37.598262399900705, 17.383714499883354, 19.583042499842122, 4.8370477999560535, 5.020280000055209, 5.803791799815372, 11.974315300118178, 6.335668599931523, 7.46392529993318, 10.136596000054851, 12.907078700140119, 18.466210799990222, 23.89772229990922, 30.652438999852166, 22.025920699816197, 62.10791060002521, 7.6603952997829765]","[11.552683300105855, 0.0002218999434262514, 0.03303479985333979, 0.06636940012685955, 0.06563380011357367, 0.08213509991765022, 0.06430750014260411, 0.0636668000370264, 0.07420639996416867, 0.07771890005096793, 0.06295790011063218, 12.907085900194943, 0.00021369988098740578, 23.897729499964043, 0.07874219981022179, 22.025927799986675, 0.03332729986868799, 7.660402599954978]",0,,,,,,,,,,,,,,,,,,,,,,,,,,,,,,,,,,,,,,,,,,,,,,,,,,,,,,,,,,,,,,,,,,,,,,,,,,,,,,,,,,,,,,,,,,,,,,,,,,,,,,,,,,,,,,,,,,,,,,,,,,,,9DAVUV,train_x,red_square,bottom_right,2025-02-04_11h05.24.754,HideSeek_v1,2022.2.5,59.86679643693921,
,,,,,,,,,,,,,,,3,0,3,0,2,0,2,0,,,,,,,,,,,,,,,,,,,,,,,,,,,,,,,conditions/schedules/train_x_first/red_square_00/bottom_right/instructions/Slide19.png,conditions/schedules/train_x_first/red_square_00/bottom_right/instructions/Audio19.wav,1983.9885249999352,1983.9856490099571,19,"[11.552676500054076, 37.598262399900705, 17.383714499883354, 19.583042499842122, 4.8370477999560535, 5.020280000055209, 5.803791799815372, 11.974315300118178, 6.335668599931523, 7.46392529993318, 10.136596000054851, 12.907078700140119, 18.466210799990222, 23.89772229990922, 30.652438999852166, 22.025920699816197, 62.10791060002521, 7.6603952997829765, 10.686905600130558]","[11.552683300105855, 0.0002218999434262514, 0.03303479985333979, 0.06636940012685955, 0.06563380011357367, 0.08213509991765022, 0.06430750014260411, 0.0636668000370264, 0.07420639996416867, 0.07771890005096793, 0.06295790011063218, 12.907085900194943, 0.00021369988098740578, 23.897729499964043, 0.07874219981022179, 22.025927799986675, 0.03332729986868799, 0.047508300049230456, 10.686913599958643]",0,,,,,,,,,,,,,,,,,,,,,,,,,,,,,,,,,,,,,,,,,,,,,,,,,,,,,,,,,,,,,,,,,,,,,,,,,,,,,,,,,,,,,,,,,,,,,,,,,,,,,,,,,,,,,,,,,,,,,,,,,,,,9DAVUV,train_x,red_square,bottom_right,2025-02-04_11h05.24.754,HideSeek_v1,2022.2.5,59.86679643693921,
,,,,,,,,,,,,,,,3,0,3,0,3,0,3,0,,,,,,,,,,,,,,,,,,,,,,,,,,,,,,,conditions/schedules/train_x_first/red_square_00/bottom_right/instructions/Slide20.png,conditions/schedules/train_x_first/red_square_00/bottom_right/instructions/Audio20.wav,1994.746388999978,1994.7445992500288,20,"[11.552676500054076, 37.598262399900705, 17.383714499883354, 19.583042499842122, 4.8370477999560535, 5.020280000055209, 5.803791799815372, 11.974315300118178, 6.335668599931523, 7.46392529993318, 10.136596000054851, 12.907078700140119, 18.466210799990222, 23.89772229990922, 30.652438999852166, 22.025920699816197, 62.10791060002521, 7.6603952997829765, 10.686905600130558, 14.323997100116685]","[11.552683300105855, 0.0002218999434262514, 0.03303479985333979, 0.06636940012685955, 0.06563380011357367, 0.08213509991765022, 0.06430750014260411, 0.0636668000370264, 0.07420639996416867, 0.07771890005096793, 0.06295790011063218, 12.907085900194943, 0.00021369988098740578, 23.897729499964043, 0.07874219981022179, 22.025927799986675, 0.03332729986868799, 0.047508300049230456, 10.686913599958643, 14.324004400055856]",0,,,,,,,,,,,,,,,,,,,,,,,,,,,,,,,,,,,,,,,,,,,,,,,,,,,,,,,,,,,,,,,,,,,,,,,,,,,,,,,,,,,,,,,,,,,,,,,,,,,,,,,,,,,,,,,,,,,,,,,,,,,,9DAVUV,train_x,red_square,bottom_right,2025-02-04_11h05.24.754,HideSeek_v1,2022.2.5,59.86679643693921,
1,7,3,7,8,0,5,11,2,instr_dim1_2,,,,,,3,0,3,0,,,,,0,0,0,0,,,,,,,,,,,,,,,,,,,,,,,,,,,,,,,,,,,,,stimuli/alien_stimuli/11.png,conditions/schedules/train_x_first/red_square_00/bottom_right/inputInstr_2.xlsx,stimuli/alien_stimuli/11.png,2009.1734770999756,2009.1734770999756,2009.1734770999756,2009.1734770999756,2009.1730937899324,return,9.257506699999794,"[-0.16, -0.08, 0, 0.08, 0.16, 0.24, 0.32, 0.4, 0.48, 0.56]","[-0.4, -0.32, -0.24, -0.16, -0.08, 0, 0.08, 0.16, 0.24, 0.32]",8,3,7,7,0.4,0.0,2018.5767946999986,2018.5767946999986,2018.5767946999986,2018.5767946999986,2018.5767946999986,2018.5767946999986,2018.5767946999986,2018.5644767600113,8.290806100005284,return,8.128759100101888,stimuli/alien_stimuli/11.png,11,7,1,,,,,,,,,,,,,,,,,,,,,,,,,,,,,,,,,,,,,,,,,,,,,,,,,,,,,,,,,,,,,,,,,,,,,,,,,,,,,,,,,,,,,,,,,9DAVUV,train_x,red_square,bottom_right,2025-02-04_11h05.24.754,HideSeek_v1,2022.2.5,59.86679643693921,
,,,,,,,,,,,30,,,,3,0,3,0,,,,,,,,,,,,,,,,,,,,,,,,,,,,,,,,,,,,,,,,,,,,,,,,,,,,,,,,,,,,,,,,,,,,,,,,,,,,,,21,0.7,0.625,1,99,2,30,0,conditions/schedules/train_x_first/red_square_00/bottom_right/inputTrain_2.1.xlsx,99,1,2,1,0,,,,,,,,,,,,,,,,,,,,,,,,,,,,,,,,,,,,,,,,,,,,,,,,,,,,,,,,,,,,,,,,,,,,,,,,,,,9DAVUV,train_x,red_square,bottom_right,2025-02-04_11h05.24.754,HideSeek_v1,2022.2.5,59.86679643693921,
,,,,,,,,,,,,,,,4,0,4,0,0,0,0,0,,,,,,,,,,,,,,,,,,,,,,,,,,,,,,,conditions/schedules/train_x_first/red_square_00/bottom_right/instructions/Slide21.png,conditions/schedules/train_x_first/red_square_00/bottom_right/instructions/Audio21.wav,2026.9508162999991,2026.937954509887,21,"[11.552676500054076, 37.598262399900705, 17.383714499883354, 19.583042499842122, 4.8370477999560535, 5.020280000055209, 5.803791799815372, 11.974315300118178, 6.335668599931523, 7.46392529993318, 10.136596000054851, 12.907078700140119, 18.466210799990222, 23.89772229990922, 30.652438999852166, 22.025920699816197, 62.10791060002521, 7.6603952997829765, 10.686905600130558, 14.323997100116685, 17.23158250004053]","[11.552683300105855, 0.0002218999434262514, 0.03303479985333979, 0.06636940012685955, 0.06563380011357367, 0.08213509991765022, 0.06430750014260411, 0.0636668000370264, 0.07420639996416867, 0.07771890005096793, 0.06295790011063218, 12.907085900194943, 0.00021369988098740578, 23.897729499964043, 0.07874219981022179, 22.025927799986675, 0.03332729986868799, 0.047508300049230456, 10.686913599958643, 14.324004400055856, 17.2315904002171]",0,,,,,,,,,,,,,,,,,,,,,,,,,,,,,,,,,,,,,,,,,,,,,,,,,,,,,,,,,,,,,,,,,,,,,,,,,,,,,,,,,,,,,,,,,,,,,,,,,,,,,,,,,,,,,,,,,,,,,,,,,,,,9DAVUV,train_x,red_square,bottom_right,2025-02-04_11h05.24.754,HideSeek_v1,2022.2.5,59.86679643693921,
2,5,3,5,3,0,0,16,2,instr_dim1_2,,,,,,4,0,4,0,,,,,0,0,0,0,,,,,,,,,,,,,,,,,,,,,,,,,,,,,,,,,,,,,stimuli/alien_stimuli/16.png,conditions/schedules/train_x_first/red_square_00/bottom_right/inputInstr_2.xlsx,stimuli/alien_stimuli/16.png,2044.2848499999382,2044.2848499999382,2044.2848499999382,2044.2848499999382,2044.2854598900071,return,8.232815499883145,"[-0.16, -0.08, 0, 0.08, 0.16, 0.24, 0.32, 0.4, 0.48, 0.56]","[-0.4, -0.32, -0.24, -0.16, -0.08, 0, 0.08, 0.16, 0.24, 0.32]",3,3,5,5,0.0,0.0,2052.6674214000814,2052.6674214000814,2052.6674214000814,2052.6674214000814,2052.6674214000814,2052.6674214000814,2052.6674214000814,2052.659162959922,6.339589099865407,return,6.19527930021286,stimuli/alien_stimuli/16.png,16,5,2,,,,,,,,,,,,,,,,,,,,,,,,,,,,,,,,,,,,,,,,,,,,,,,,,,,,,,,,,,,,,,,,,,,,,,,,,,,,,,,,,,,,,,,,,9DAVUV,train_x,red_square,bottom_right,2025-02-04_11h05.24.754,HideSeek_v1,2022.2.5,59.86679643693921,
,,,,,,,,,,,30,,,,4,0,4,0,,,,,,,,,,,,,,,,,,,,,,,,,,,,,,,,,,,,,,,,,,,,,,,,,,,,,,,,,,,,,,,,,,,,,,,,,,,,,,21,0.7,0.625,1,99,2,30,0,conditions/schedules/train_x_first/red_square_00/bottom_right/inputTrain_2.1.xlsx,99,1,2,1,0,,,,,,,,,,,,,,,,,,,,,,,,,,,,,,,,,,,,,,,,,,,,,,,,,,,,,,,,,,,,,,,,,,,,,,,,,,,9DAVUV,train_x,red_square,bottom_right,2025-02-04_11h05.24.754,HideSeek_v1,2022.2.5,59.86679643693921,
,,,,,,,,,,,,,,,5,0,5,0,0,0,0,0,,,,,,,,,,,,,,,,,,,,,,,,,,,,,,,conditions/schedules/train_x_first/red_square_00/bottom_right/instructions/Slide22.png,conditions/schedules/train_x_first/red_square_00/bottom_right/instructions/Audio22.wav,2059.0363926000427,2059.030937799951,22,"[11.552676500054076, 37.598262399900705, 17.383714499883354, 19.583042499842122, 4.8370477999560535, 5.020280000055209, 5.803791799815372, 11.974315300118178, 6.335668599931523, 7.46392529993318, 10.136596000054851, 12.907078700140119, 18.466210799990222, 23.89772229990922, 30.652438999852166, 22.025920699816197, 62.10791060002521, 7.6603952997829765, 10.686905600130558, 14.323997100116685, 17.23158250004053, 43.57789220008999]","[11.552683300105855, 0.0002218999434262514, 0.03303479985333979, 0.06636940012685955, 0.06563380011357367, 0.08213509991765022, 0.06430750014260411, 0.0636668000370264, 0.07420639996416867, 0.07771890005096793, 0.06295790011063218, 12.907085900194943, 0.00021369988098740578, 23.897729499964043, 0.07874219981022179, 22.025927799986675, 0.03332729986868799, 0.047508300049230456, 10.686913599958643, 14.324004400055856, 17.2315904002171, 43.57789930002764]",0,,,,,,,,,,,,,,,,,,,,,,,,,,,,,,,,,,,,,,,,,,,,,,,,,,,,,,,,,,,,,,,,,,,,,,,,,,,,,,,,,,,,,,,,,,,,,,,,,,,,,,,,,,,,,,,,,,,,,,,,,,,,9DAVUV,train_x,red_square,bottom_right,2025-02-04_11h05.24.754,HideSeek_v1,2022.2.5,59.86679643693921,
,5,0,5,1,0,1,15,,train_dim1_2,1,30,,,,5,0,5,0,,,,,,,,,0,0,0,0,0,0,0,0,0,0,0,0,,,,,,,,,,,,,,,,,,,,,,,,,stimuli/alien_stimuli/15.png,,,,,,,,,,,,,,,,,,,,,,,,,,,,,,,,,,,,,,,30,,,,,,,,2102.7152788999956,2102.7152788999956,2102.7152788999956,2102.7152788999956,2102.7152788999956,return,3.8137471999507397,0,1,0,0,0.24,-0.4,return,3.7178237999323756,5,-51,0.24,-0.4,,,,,,,,,,,,,,,,,,,,,,,,,,,,,,,,,,,,,,,,,,,,,,,,,,,,,,,,9DAVUV,train_x,red_square,bottom_right,2025-02-04_11h05.24.754,HideSeek_v1,2022.2.5,59.86679643693921,
,8,2,8,2,0,0,16,,train_dim1_2,2,30,,,,5,0,5,0,,,,,,,,,0,0,0,0,0,1,1,1,0,0,0,0,,,,,,,,,,,,,,,,,,,,,,,,,stimuli/alien_stimuli/16.png,,,,,,,,,,,,,,,,,,,,,,,,,,,,,stimuli/alien_stimuli/15.png,15,5,3,,,,,,,30,,,,,,,,2113.5319948000833,2113.5319948000833,2113.5319948000833,2113.5319948000833,2113.5319948000833,return,3.0571553001645952,1,0,0,1,0.48,-0.24,return,2.9658941999077797,5,-51,0.48,-0.24,2111.9749048000667,2113.5319948000833,0.24,-0.32,0.08,0.0,-0.36,0.24,0.24,0.24,-0.32,2108.10165289999,2108.10165289999,2108.10165289999,2108.10165289999,2108.10165289999,2108.10165289999,2108.10165289999,2108.10165289999,2108.088544659922,4.00500509981066,return,3.8412701000925153,,,,,,,,,,,,,,,,,,,,,,,,,,,,,,,,,9DAVUV,train_x,red_square,bottom_right,2025-02-04_11h05.24.754,HideSeek_v1,2022.2.5,59.86679643693921,
,7,3,7,6,0,3,13,,train_dim1_2,3,30,,,,5,0,5,0,,,,,,,,,0,0,0,0,0,2,2,2,0,0,0,0,,,,,,,,,,,,,,,,,,,,,,,,,stimuli/alien_stimuli/13.png,,,,,,,,,,,,,,,,,,,,,,,,,,,,,stimuli/alien_stimuli/16.png,16,8,4,,,,,,,30,,,,,,,,2124.708630600013,2124.708630600013,2124.708630600013,2124.708630600013,2124.708630600013,up,2.1409931001253426,1,0,0,99,0.4,-0.08,up,2.062767800176516,,,,,2123.1507117000874,2124.708630600013,0.48,-0.24,0.0,0.0,-0.24,0.48,0.48,0.48,-0.24,2118.1435628999025,2118.1435628999025,2118.1435628999025,2118.1435628999025,2118.1435628999025,2118.1435628999025,2118.1435628999025,2118.1435628999025,2118.1299830200614,5.106353200040758,return,4.97498089983128,,,,,,,,,,,,,,,,,,,,,,,,,,,,,,,,,9DAVUV,train_x,red_square,bottom_right,2025-02-04_11h05.24.754,HideSeek_v1,2022.2.5,59.86679643693921,
,7,3,7,6,0,3,13,,train_dim1_2,3,30,,,,5,0,5,0,,,,,,,,,0,0,0,0,0,2,2,2,1,0,1,0,,,,,,,,,,,,,,,,,,,,,,,,,,,,,,,,,,,,,,,,,,,,,,,,,,,,,,,,,,,,,,,,30,,,,,,,,2126.8539160999935,2126.8539160999935,2126.8539160999935,2126.8539160999935,2126.8539160999935,up,0.35953360004350543,1,0,0,99,0.4,0.0,up,0.2684470000676811,,,,,,,,,,,,,,,,,,,,,,,,,,,,,,,,,,,,,,,,,,,,,,,,,,,,,,,,,,,,9DAVUV,train_x,red_square,bottom_right,2025-02-04_11h05.24.754,HideSeek_v1,2022.2.5,59.86679643693921,
