trialInstr,x_fixStart,y_fixStart,x_corrSteps,y_corrSteps,x_nrSteps,y_nrSteps,alienID,trialLength,version,trialTrain,praclen,testlen,trial_label,break_on_off,beforeExpLoop.thisRepN,beforeExpLoop.thisTrialN,beforeExpLoop.thisN,beforeExpLoop.thisIndex,mini_instr_trials.thisRepN,mini_instr_trials.thisTrialN,mini_instr_trials.thisN,mini_instr_trials.thisIndex,instrLoop.thisRepN,instrLoop.thisTrialN,instrLoop.thisN,instrLoop.thisIndex,repeat_prac.thisRepN,repeat_prac.thisTrialN,repeat_prac.thisN,repeat_prac.thisIndex,trainLoop.thisRepN,trainLoop.thisTrialN,trainLoop.thisN,trainLoop.thisIndex,moveLoop_train.thisRepN,moveLoop_train.thisTrialN,moveLoop_train.thisN,moveLoop_train.thisIndex,experiment.thisRepN,experiment.thisTrialN,experiment.thisN,experiment.thisIndex,moveLoop_test.thisRepN,moveLoop_test.thisTrialN,moveLoop_test.thisN,moveLoop_test.thisIndex,mini_instr2_trials.thisRepN,mini_instr2_trials.thisTrialN,mini_instr2_trials.thisN,mini_instr2_trials.thisIndex,start_all_time,url,slideStim,audioStim,slides.started,sounds.started,nextButton.numClicks,nextButton.timesOn,nextButton.timesOff,prev_but.numClicks,prev_but.timesOn,prev_but.timesOff,alienStim,instrFile,alienStim_instr,gridImage_instr.started,startPos_3.started,key_instr.started,alienImage_3.started,sounds_1.started,key_instr.keys,key_instr.rt,all_x,all_y,FBy_corrSteps,FBy_fixStart,FBx_corrSteps,FBx_fixStart,FBy_pathSize_check,FBx_pathSize_check,gridImage_9.started,alienImageFB_3.started,startPosFB_3.started,keyFB_3.started,pathLine_ydir_2.started,pathLine_xdir_2.started,alienFace_3.started,sounds_2.started,RTFB_instr,keyFB_3.keys,keyFB_3.rt,draw_alienStim,draw_alienID,test_x,nrepcount,perfthres,percthres,earlierperf,earlystop,nextPrac,fileidx,praclen,saveACC_train,pracFile,nextPrac_train,addNrep,fileidx_endr,repExp,showearly,gridImage_4.started,startPos.started,movePos.started,key_resp.started,alienImage.started,buttonPress_train,RTchoice_train,cumAcctrain,aCorr,saveACC_choice,corrAns,x_movePos_end,y_movePos_end,key_resp.keys,key_resp.rt,wLy_dir,wLx_dir,x_movePos,y_movePos,text_2.started,text_2.stopped,aft_x_corrPos,aft_y_corrPos,y_pathSize_check,x_pathSize_check,y_pathdirY,x_pathdirY,x_pathdirX,x_corrPos,y_corrPos,gridImage_6.started,alienImageFB_2.started,startPosFB_2.started,movePosFB_2.started,keyFB_2.started,pathLine_xdir.started,pathLine_ydir.started,alienFace.started,sounds_4.started,RT_FBtrain,keyFB_2.keys,keyFB_2.rt,saveACC_pre,ACC,within_saveACC_train,earlystop_wloop,cumAcctrain_check,gridImage_3.started,alienImage_test.started,startPos_test.started,movePos_test.started,key_resp_test.started,wLy_dir_test,wLx_dir_test,buttonPress_test,RTchoice_test,cumAcctest,corrAns_test,key_resp_test.keys,key_resp_test.rt,text_3.started,text_3.stopped,total_time,end_all_time,key_resp_3.keys,slides_2.started,sounds_3.started,nextButton_2.numClicks,nextButton_2.timesOn,nextButton_2.timesOff,prev_but_2.numClicks,prev_but_2.timesOn,prev_but_2.timesOff,bye.started,participant,train_first,00_coordinate,starting corner,date,expName,psychopyVersion,frameRate,
,,,,,,,,,,,,,,,0,0,0,0,0,0,0,0,,,,,,,,,,,,,,,,,,,,,,,,,,,,,start_all_time,testround,conditions/schedules/train_y_first/red_square_00/top_right/instructions/Slide1.png,conditions/schedules/train_y_first/red_square_00/top_right/instructions/Audio1.wav,855.0220111999997,854.9668722000051,1,[9.876952899999196],[9.876964599999155],0,,,,,,,,,,,,,,,,,,,,,,,,,,,,,,,,,,,,,,,,,,,,,,,,,,,,,,,,,,,,,,,,,,,,,,,,,,,,,,,,,,,,,,,,,,,,,,,,,,,,,,,,,,,,,,,,,,,,,,,,,,,,9DNLX0,train_y,red_square,top_right,2025-01-20_15h05.53.525,HideSeek_v1,2022.2.5,59.42995971217878,
,,,,,,,,,,,,,,,0,0,0,0,1,0,1,0,,,,,,,,,,,,,,,,,,,,,,,,,,,,,,,conditions/schedules/train_y_first/red_square_00/top_right/instructions/Slide2.png,conditions/schedules/train_y_first/red_square_00/top_right/instructions/Audio2.wav,864.9185889999999,864.9205973999997,2,"[9.876952899999196, 24.053228200000376]","[0.03313960000014049, 24.05323430000044]",0,,,,,,,,,,,,,,,,,,,,,,,,,,,,,,,,,,,,,,,,,,,,,,,,,,,,,,,,,,,,,,,,,,,,,,,,,,,,,,,,,,,,,,,,,,,,,,,,,,,,,,,,,,,,,,,,,,,,,,,,,,,,9DNLX0,train_y,red_square,top_right,2025-01-20_15h05.53.525,HideSeek_v1,2022.2.5,59.42995971217878,
,,,,,,,,,,,,,,,0,0,0,0,2,0,2,0,,,,,,,,,,,,,,,,,,,,,,,,,,,,,,,conditions/schedules/train_y_first/red_square_00/top_right/instructions/Slide3.png,conditions/schedules/train_y_first/red_square_00/top_right/instructions/Audio3.wav,889.0464148000001,889.0406624999996,3,"[9.876952899999196, 24.053228200000376, 17.022495700000036]","[0.03313960000014049, 0.0002545000006648479, 17.022502200000417]",0,,,,,,,,,,,,,,,,,,,,,,,,,,,,,,,,,,,,,,,,,,,,,,,,,,,,,,,,,,,,,,,,,,,,,,,,,,,,,,,,,,,,,,,,,,,,,,,,,,,,,,,,,,,,,,,,,,,,,,,,,,,,9DNLX0,train_y,red_square,top_right,2025-01-20_15h05.53.525,HideSeek_v1,2022.2.5,59.42995971217878,
,,,,,,,,,,,,,,,0,0,0,0,3,0,3,0,,,,,,,,,,,,,,,,,,,,,,,,,,,,,,,conditions/schedules/train_y_first/red_square_00/top_right/instructions/Slide4.png,conditions/schedules/train_y_first/red_square_00/top_right/instructions/Audio4.wav,906.1494038999999,906.1378543000001,4,"[9.876952899999196, 24.053228200000376, 17.022495700000036, 19.685791099999733]","[0.03313960000014049, 0.0002545000006648479, 0.00021800000013172394, 19.685797999999522]",0,,,,,,,,,,,,,,,,,,,,,,,,,,,,,,,,,,,,,,,,,,,,,,,,,,,,,,,,,,,,,,,,,,,,,,,,,,,,,,,,,,,,,,,,,,,,,,,,,,,,,,,,,,,,,,,,,,,,,,,,,,,,9DNLX0,train_y,red_square,top_right,2025-01-20_15h05.53.525,HideSeek_v1,2022.2.5,59.42995971217878,
,,,,,,,,,,,,,,,0,0,0,0,4,0,4,0,,,,,,,,,,,,,,,,,,,,,,,,,,,,,,,conditions/schedules/train_y_first/red_square_00/top_right/instructions/Slide5.png,conditions/schedules/train_y_first/red_square_00/top_right/instructions/Audio5.wav,925.8905588999996,925.8876839799999,5,"[9.876952899999196, 24.053228200000376, 17.022495700000036, 19.685791099999733, 5.532450499999868]","[0.03313960000014049, 0.0002545000006648479, 0.00021800000013172394, 0.04703689999951166, 5.532456799999636]",0,,,,,,,,,,,,,,,,,,,,,,,,,,,,,,,,,,,,,,,,,,,,,,,,,,,,,,,,,,,,,,,,,,,,,,,,,,,,,,,,,,,,,,,,,,,,,,,,,,,,,,,,,,,,,,,,,,,,,,,,,,,,9DNLX0,train_y,red_square,top_right,2025-01-20_15h05.53.525,HideSeek_v1,2022.2.5,59.42995971217878,
,,,,,,,,,,,,,,,0,0,0,0,5,0,5,0,,,,,,,,,,,,,,,,,,,,,,,,,,,,,,,conditions/schedules/train_y_first/red_square_00/top_right/instructions/Slide6.png,conditions/schedules/train_y_first/red_square_00/top_right/instructions/Audio6.wav,931.4747700999997,931.4758448799997,6,"[9.876952899999196, 24.053228200000376, 17.022495700000036, 19.685791099999733, 5.532450499999868, 5.68694830000004]","[0.03313960000014049, 0.0002545000006648479, 0.00021800000013172394, 0.04703689999951166, 0.06530240000029153, 5.686954799999512]",0,,,,,,,,,,,,,,,,,,,,,,,,,,,,,,,,,,,,,,,,,,,,,,,,,,,,,,,,,,,,,,,,,,,,,,,,,,,,,,,,,,,,,,,,,,,,,,,,,,,,,,,,,,,,,,,,,,,,,,,,,,,,9DNLX0,train_y,red_square,top_right,2025-01-20_15h05.53.525,HideSeek_v1,2022.2.5,59.42995971217878,
,,,,,,,,,,,,,,,0,0,0,0,6,0,6,0,,,,,,,,,,,,,,,,,,,,,,,,,,,,,,,conditions/schedules/train_y_first/red_square_00/top_right/instructions/Slide7.png,conditions/schedules/train_y_first/red_square_00/top_right/instructions/Audio7.wav,937.2117469999994,937.2140197799994,7,"[9.876952899999196, 24.053228200000376, 17.022495700000036, 19.685791099999733, 5.532450499999868, 5.68694830000004, 5.9548187999998845]","[0.03313960000014049, 0.0002545000006648479, 0.00021800000013172394, 0.04703689999951166, 0.06530240000029153, 0.05022170000029291, 5.954825599999822]",0,,,,,,,,,,,,,,,,,,,,,,,,,,,,,,,,,,,,,,,,,,,,,,,,,,,,,,,,,,,,,,,,,,,,,,,,,,,,,,,,,,,,,,,,,,,,,,,,,,,,,,,,,,,,,,,,,,,,,,,,,,,,9DNLX0,train_y,red_square,top_right,2025-01-20_15h05.53.525,HideSeek_v1,2022.2.5,59.42995971217878,
,,,,,,,,,,,,,,,0,0,0,0,7,0,7,0,,,,,,,,,,,,,,,,,,,,,,,,,,,,,,,conditions/schedules/train_y_first/red_square_00/top_right/instructions/Slide8.png,conditions/schedules/train_y_first/red_square_00/top_right/instructions/Audio8.wav,943.2189988999999,943.2189038800001,8,"[9.876952899999196, 24.053228200000376, 17.022495700000036, 19.685791099999733, 5.532450499999868, 5.68694830000004, 5.9548187999998845, 12.040415499999654]","[0.03313960000014049, 0.0002545000006648479, 0.00021800000013172394, 0.04703689999951166, 0.06530240000029153, 0.05022170000029291, 0.04714769999918644, 12.040421799999422]",0,,,,,,,,,,,,,,,,,,,,,,,,,,,,,,,,,,,,,,,,,,,,,,,,,,,,,,,,,,,,,,,,,,,,,,,,,,,,,,,,,,,,,,,,,,,,,,,,,,,,,,,,,,,,,,,,,,,,,,,,,,,,9DNLX0,train_y,red_square,top_right,2025-01-20_15h05.53.525,HideSeek_v1,2022.2.5,59.42995971217878,
,,,,,,,,,,,,,,,0,0,0,0,8,0,8,0,,,,,,,,,,,,,,,,,,,,,,,,,,,,,,,conditions/schedules/train_y_first/red_square_00/top_right/instructions/Slide9.png,conditions/schedules/train_y_first/red_square_00/top_right/instructions/Audio9.wav,955.3151064999993,955.3120784799997,9,"[9.876952899999196, 24.053228200000376, 17.022495700000036, 19.685791099999733, 5.532450499999868, 5.68694830000004, 5.9548187999998845, 12.040415499999654, 7.166733500000191]","[0.03313960000014049, 0.0002545000006648479, 0.00021800000013172394, 0.04703689999951166, 0.06530240000029153, 0.05022170000029291, 0.04714769999918644, 0.029555899999650137, 7.166740300000129]",0,,,,,,,,,,,,,,,,,,,,,,,,,,,,,,,,,,,,,,,,,,,,,,,,,,,,,,,,,,,,,,,,,,,,,,,,,,,,,,,,,,,,,,,,,,,,,,,,,,,,,,,,,,,,,,,,,,,,,,,,,,,,9DNLX0,train_y,red_square,top_right,2025-01-20_15h05.53.525,HideSeek_v1,2022.2.5,59.42995971217878,
,,,,,,,,,,,,,,,0,0,0,0,9,0,9,0,,,,,,,,,,,,,,,,,,,,,,,,,,,,,,,conditions/schedules/train_y_first/red_square_00/top_right/instructions/Slide10.png,conditions/schedules/train_y_first/red_square_00/top_right/instructions/Audio10.wav,962.5195655999996,962.5179799599999,10,"[9.876952899999196, 24.053228200000376, 17.022495700000036, 19.685791099999733, 5.532450499999868, 5.68694830000004, 5.9548187999998845, 12.040415499999654, 7.166733500000191, 8.05202510000072]","[0.03313960000014049, 0.0002545000006648479, 0.00021800000013172394, 0.04703689999951166, 0.06530240000029153, 0.05022170000029291, 0.04714769999918644, 0.029555899999650137, 0.09502080000038404, 8.052031600000191]",0,,,,,,,,,,,,,,,,,,,,,,,,,,,,,,,,,,,,,,,,,,,,,,,,,,,,,,,,,,,,,,,,,,,,,,,,,,,,,,,,,,,,,,,,,,,,,,,,,,,,,,,,,,,,,,,,,,,,,,,,,,,,9DNLX0,train_y,red_square,top_right,2025-01-20_15h05.53.525,HideSeek_v1,2022.2.5,59.42995971217878,
,,,,,,,,,,,,,,,0,0,0,0,10,0,10,0,,,,,,,,,,,,,,,,,,,,,,,,,,,,,,,conditions/schedules/train_y_first/red_square_00/top_right/instructions/Slide11.png,conditions/schedules/train_y_first/red_square_00/top_right/instructions/Audio11.wav,970.6286132999994,970.6248457799996,11,"[9.876952899999196, 24.053228200000376, 17.022495700000036, 19.685791099999733, 5.532450499999868, 5.68694830000004, 5.9548187999998845, 12.040415499999654, 7.166733500000191, 8.05202510000072, 11.637172800000371]","[0.03313960000014049, 0.0002545000006648479, 0.00021800000013172394, 0.04703689999951166, 0.06530240000029153, 0.05022170000029291, 0.04714769999918644, 0.029555899999650137, 0.09502080000038404, 0.0816754999996192, 11.637179299999843]",0,,,,,,,,,,,,,,,,,,,,,,,,,,,,,,,,,,,,,,,,,,,,,,,,,,,,,,,,,,,,,,,,,,,,,,,,,,,,,,,,,,,,,,,,,,,,,,,,,,,,,,,,,,,,,,,,,,,,,,,,,,,,9DNLX0,train_y,red_square,top_right,2025-01-20_15h05.53.525,HideSeek_v1,2022.2.5,59.42995971217878,
,,,,,,,,,,,,,,,0,0,0,0,11,0,11,0,,,,,,,,,,,,,,,,,,,,,,,,,,,,,,,conditions/schedules/train_y_first/red_square_00/top_right/instructions/Slide12.png,conditions/schedules/train_y_first/red_square_00/top_right/instructions/Audio12.wav,982.3348120999999,982.3343445999999,12,"[9.876952899999196, 24.053228200000376, 17.022495700000036, 19.685791099999733, 5.532450499999868, 5.68694830000004, 5.9548187999998845, 12.040415499999654, 7.166733500000191, 8.05202510000072, 11.637172800000371, 14.526368599999842]","[0.03313960000014049, 0.0002545000006648479, 0.00021800000013172394, 0.04703689999951166, 0.06530240000029153, 0.05022170000029291, 0.04714769999918644, 0.029555899999650137, 0.09502080000038404, 0.0816754999996192, 0.04799029999958293, 14.526374999999462]",0,,,,,,,,,,,,,,,,,,,,,,,,,,,,,,,,,,,,,,,,,,,,,,,,,,,,,,,,,,,,,,,,,,,,,,,,,,,,,,,,,,,,,,,,,,,,,,,,,,,,,,,,,,,,,,,,,,,,,,,,,,,,9DNLX0,train_y,red_square,top_right,2025-01-20_15h05.53.525,HideSeek_v1,2022.2.5,59.42995971217878,
1,7,8,7,3,0,-5,11,2,instr_dim1_1,,,,,,0,0,0,0,,,,,0,0,0,0,,,,,,,,,,,,,,,,,,,,,,,,,,,,,,,,,,,,,stimuli/alien_stimuli/11.png,conditions/schedules/train_y_first/red_square_00/top_right/inputInstr_1.xlsx,stimuli/alien_stimuli/11.png,996.9656190999995,996.9656190999995,996.9656190999995,996.9656190999995,996.9638720400001,return,12.066425600000912,"[-0.16, -0.08, 0, 0.08, 0.16, 0.24, 0.32, 0.4, 0.48, 0.56]","[-0.4, -0.32, -0.24, -0.16, -0.08, 0, 0.08, 0.16, 0.24, 0.32]",3,8,7,7,0.4,0.0,1009.1985907999997,1009.1985907999997,1009.1985907999997,1009.1985907999997,1009.1985907999997,1009.1985907999997,1009.1985907999997,1009.1902713799994,10.793417200000476,return,10.624265300000843,stimuli/alien_stimuli/11.png,11,7,1,,,,,,,,,,,,,,,,,,,,,,,,,,,,,,,,,,,,,,,,,,,,,,,,,,,,,,,,,,,,,,,,,,,,,,,,,,,,,,,,,,,,,,,,,9DNLX0,train_y,red_square,top_right,2025-01-20_15h05.53.525,HideSeek_v1,2022.2.5,59.42995971217878,
,,,,,,,,,,,30,,,,0,0,0,0,,,,,,,,,,,,,,,,,,,,,,,,,,,,,,,,,,,,,,,,,,,,,,,,,,,,,,,,,,,,,,,,,,,,,,,,,,,,,,21,0.7,0,0,99,1,30,0,conditions/schedules/train_y_first/red_square_00/top_right/inputTrain_1.1.xlsx,99,1,1,1,0,,,,,,,,,,,,,,,,,,,,,,,,,,,,,,,,,,,,,,,,,,,,,,,,,,,,,,,,,,,,,,,,,,,,,,,,,,,9DNLX0,train_y,red_square,top_right,2025-01-20_15h05.53.525,HideSeek_v1,2022.2.5,59.42995971217878,
,,,,,,,,,,,,,,,1,0,1,0,0,0,0,0,,,,,,,,,,,,,,,,,,,,,,,,,,,,,,,conditions/schedules/train_y_first/red_square_00/top_right/instructions/Slide13.png,conditions/schedules/train_y_first/red_square_00/top_right/instructions/Audio13.wav,1019.9949385999998,1019.9827155799998,13,"[9.876952899999196, 24.053228200000376, 17.022495700000036, 19.685791099999733, 5.532450499999868, 5.68694830000004, 5.9548187999998845, 12.040415499999654, 7.166733500000191, 8.05202510000072, 11.637172800000371, 14.526368599999842, 24.304861300000084]","[0.03313960000014049, 0.0002545000006648479, 0.00021800000013172394, 0.04703689999951166, 0.06530240000029153, 0.05022170000029291, 0.04714769999918644, 0.029555899999650137, 0.09502080000038404, 0.0816754999996192, 0.04799029999958293, 14.526374999999462, 24.304868700000043]",0,,,,,,,,,,,,,,,,,,,,,,,,,,,,,,,,,,,,,,,,,,,,,,,,,,,,,,,,,,,,,,,,,,,,,,,,,,,,,,,,,,,,,,,,,,,,,,,,,,,,,,,,,,,,,,,,,,,,,,,,,,,,9DNLX0,train_y,red_square,top_right,2025-01-20_15h05.53.525,HideSeek_v1,2022.2.5,59.42995971217878,
,,,,,,,,,,,,,,,1,0,1,0,1,0,1,0,,,,,,,,,,,,,,,,,,,,,,,,,,,,,,,conditions/schedules/train_y_first/red_square_00/top_right/instructions/Slide14.png,conditions/schedules/train_y_first/red_square_00/top_right/instructions/Audio14.wav,1044.3716137000001,1044.3696762,14,"[9.876952899999196, 24.053228200000376, 17.022495700000036, 19.685791099999733, 5.532450499999868, 5.68694830000004, 5.9548187999998845, 12.040415499999654, 7.166733500000191, 8.05202510000072, 11.637172800000371, 14.526368599999842, 24.304861300000084, 16.675886900000478]","[0.03313960000014049, 0.0002545000006648479, 0.00021800000013172394, 0.04703689999951166, 0.06530240000029153, 0.05022170000029291, 0.04714769999918644, 0.029555899999650137, 0.09502080000038404, 0.0816754999996192, 0.04799029999958293, 14.526374999999462, 24.304868700000043, 16.675893700000415]",0,,,,,,,,,,,,,,,,,,,,,,,,,,,,,,,,,,,,,,,,,,,,,,,,,,,,,,,,,,,,,,,,,,,,,,,,,,,,,,,,,,,,,,,,,,,,,,,,,,,,,,,,,,,,,,,,,,,,,,,,,,,,9DNLX0,train_y,red_square,top_right,2025-01-20_15h05.53.525,HideSeek_v1,2022.2.5,59.42995971217878,
2,5,8,5,8,0,0,16,2,instr_dim1_1,,,,,,1,0,1,0,,,,,0,0,0,0,,,,,,,,,,,,,,,,,,,,,,,,,,,,,,,,,,,,,stimuli/alien_stimuli/16.png,conditions/schedules/train_y_first/red_square_00/top_right/inputInstr_1.xlsx,stimuli/alien_stimuli/16.png,1061.1501663,1061.1501663,1061.1501663,1061.1501663,1061.1501044399993,return,7.067478400000255,"[-0.16, -0.08, 0, 0.08, 0.16, 0.24, 0.32, 0.4, 0.48, 0.56]","[-0.4, -0.32, -0.24, -0.16, -0.08, 0, 0.08, 0.16, 0.24, 0.32]",8,8,5,5,0.0,0.0,1068.3589621,1068.3589621,1068.3589621,1068.3589621,1068.3589621,1068.3589621,1068.3589621,1068.3560056599997,11.927141699999993,return,11.776362600001448,stimuli/alien_stimuli/16.png,16,5,2,,,,,,,,,,,,,,,,,,,,,,,,,,,,,,,,,,,,,,,,,,,,,,,,,,,,,,,,,,,,,,,,,,,,,,,,,,,,,,,,,,,,,,,,,9DNLX0,train_y,red_square,top_right,2025-01-20_15h05.53.525,HideSeek_v1,2022.2.5,59.42995971217878,
,,,,,,,,,,,30,,,,1,0,1,0,,,,,,,,,,,,,,,,,,,,,,,,,,,,,,,,,,,,,,,,,,,,,,,,,,,,,,,,,,,,,,,,,,,,,,,,,,,,,,21,0.7,0,0,99,1,30,0,conditions/schedules/train_y_first/red_square_00/top_right/inputTrain_1.1.xlsx,99,1,1,1,0,,,,,,,,,,,,,,,,,,,,,,,,,,,,,,,,,,,,,,,,,,,,,,,,,,,,,,,,,,,,,,,,,,,,,,,,,,,9DNLX0,train_y,red_square,top_right,2025-01-20_15h05.53.525,HideSeek_v1,2022.2.5,59.42995971217878,
,,,,,,,,,,,,,,,2,0,2,0,0,0,0,0,,,,,,,,,,,,,,,,,,,,,,,,,,,,,,,conditions/schedules/train_y_first/red_square_00/top_right/instructions/Slide15.png,conditions/schedules/train_y_first/red_square_00/top_right/instructions/Audio15.wav,1080.3175229999997,1080.3157546000002,15,"[9.876952899999196, 24.053228200000376, 17.022495700000036, 19.685791099999733, 5.532450499999868, 5.68694830000004, 5.9548187999998845, 12.040415499999654, 7.166733500000191, 8.05202510000072, 11.637172800000371, 14.526368599999842, 24.304861300000084, 16.675886900000478, 316.8583823000008]","[0.03313960000014049, 0.0002545000006648479, 0.00021800000013172394, 0.04703689999951166, 0.06530240000029153, 0.05022170000029291, 0.04714769999918644, 0.029555899999650137, 0.09502080000038404, 0.0816754999996192, 0.04799029999958293, 14.526374999999462, 24.304868700000043, 16.675893700000415, 316.85839020000003]",0,,,,,,,,,,,,,,,,,,,,,,,,,,,,,,,,,,,,,,,,,,,,,,,,,,,,,,,,,,,,,,,,,,,,,,,,,,,,,,,,,,,,,,,,,,,,,,,,,,,,,,,,,,,,,,,,,,,,,,,,,,,,9DNLX0,train_y,red_square,top_right,2025-01-20_15h05.53.525,HideSeek_v1,2022.2.5,59.42995971217878,
,,,,,,,,,,,,,,,2,0,2,0,1,0,1,0,,,,,,,,,,,,,,,,,,,,,,,,,,,,,,,conditions/schedules/train_y_first/red_square_00/top_right/instructions/Slide16.png,conditions/schedules/train_y_first/red_square_00/top_right/instructions/Audio16.wav,1397.2483665999998,1397.2456279999997,16,"[9.876952899999196, 24.053228200000376, 17.022495700000036, 19.685791099999733, 5.532450499999868, 5.68694830000004, 5.9548187999998845, 12.040415499999654, 7.166733500000191, 8.05202510000072, 11.637172800000371, 14.526368599999842, 24.304861300000084, 16.675886900000478, 316.8583823000008, 22.697462899999664]","[0.03313960000014049, 0.0002545000006648479, 0.00021800000013172394, 0.04703689999951166, 0.06530240000029153, 0.05022170000029291, 0.04714769999918644, 0.029555899999650137, 0.09502080000038404, 0.0816754999996192, 0.04799029999958293, 14.526374999999462, 24.304868700000043, 16.675893700000415, 0.00024369999937334796, 22.69746959999975]",0,,,,,,,,,,,,,,,,,,,,,,,,,,,,,,,,,,,,,,,,,,,,,,,,,,,,,,,,,,,,,,,,,,,,,,,,,,,,,,,,,,,,,,,,,,,,,,,,,,,,,,,,,,,,,,,,,,,,,,,,,,,,9DNLX0,train_y,red_square,top_right,2025-01-20_15h05.53.525,HideSeek_v1,2022.2.5,59.42995971217878,
,5,5,5,4,0,-1,15,,train_dim1_1,1,30,,,,2,0,2,0,,,,,,,,,0,0,0,0,0,0,0,0,0,0,0,0,,,,,,,,,,,,,,,,,,,,,,,,,stimuli/alien_stimuli/15.png,,,,,,,,,,,,,,,,,,,,,,,,,,,,,,,,,,,,,,,30,,,,,,,,1420.0519958999994,1420.0519958999994,1420.0519958999994,1420.0519958999994,1420.0519958999994,left,8.750153599999976,0,0,0,99,0.15999999999999998,0,left,8.644570100000237,,,,,,,,,,,,,,,,,,,,,,,,,,,,,,,,,,,,,,,,,,,,,,,,,,,,,,,,,,,,9DNLX0,train_y,red_square,top_right,2025-01-20_15h05.53.525,HideSeek_v1,2022.2.5,59.42995971217878,
,5,5,5,4,0,-1,15,,train_dim1_1,1,30,,,,2,0,2,0,,,,,,,,,0,0,0,0,0,0,0,0,1,0,1,0,,,,,,,,,,,,,,,,,,,,,,,,,,,,,,,,,,,,,,,,,,,,,,,,,,,,,,,,,,,,,,,,30,,,,,,,,1428.7900660999994,1428.7900660999994,1428.7900660999994,1428.7900660999994,1428.7900660999994,up,3.412136300000384,0,0,0,99,0.15999999999999998,0.08,up,3.324363300001096,,,,,,,,,,,,,,,,,,,,,,,,,,,,,,,,,,,,,,,,,,,,,,,,,,,,,,,,,,,,9DNLX0,train_y,red_square,top_right,2025-01-20_15h05.53.525,HideSeek_v1,2022.2.5,59.42995971217878,
,5,5,5,4,0,-1,15,,train_dim1_1,1,30,,,,2,0,2,0,,,,,,,,,0,0,0,0,0,0,0,0,2,0,2,0,,,,,,,,,,,,,,,,,,,,,,,,,,,,,,,,,,,,,,,,,,,,,,,,,,,,,,,,,,,,,,,,30,,,,,,,,1432.2099362999998,1432.2099362999998,1432.2099362999998,1432.2099362999998,1432.2099362999998,return,1.3940821999995023,0,0,0,0,0.15999999999999998,0.08,return,1.311256000000867,1,-1,0.15999999999999998,0.08,,,,,,,,,,,,,,,,,,,,,,,,,,,,,,,,,,,,,,,,,,,,,,,,,,,,,,,,9DNLX0,train_y,red_square,top_right,2025-01-20_15h05.53.525,HideSeek_v1,2022.2.5,59.42995971217878,
,8,7,8,7,0,0,16,,train_dim1_1,2,30,,,,2,0,2,0,,,,,,,,,0,0,0,0,0,1,1,1,0,0,0,0,,,,,,,,,,,,,,,,,,,,,,,,,stimuli/alien_stimuli/16.png,,,,,,,,,,,,,,,,,,,,,,,,,,,,,stimuli/alien_stimuli/15.png,15,5,3,,,,,,,30,,,,,,,,1454.1233715999997,1454.1233715999997,1454.1233715999997,1454.1233715999997,1454.1233715999997,up,6.0084397999999055,0,0,0,99,0.48,0.24,up,5.910569400000895,,,,,1452.5579317000002,1454.1233715999997,0.24,-0.08,0.08,0.0,-0.04,0.24,0.24,0.24,-0.08,1435.1923029,1435.1923029,1435.1923029,1435.1923029,1435.1923029,1435.1923029,1435.1923029,1435.1923029,1435.1771751599997,17.499622000000272,return,17.33936249999988,,,,,,,,,,,,,,,,,,,,,,,,,,,,,,,,,9DNLX0,train_y,red_square,top_right,2025-01-20_15h05.53.525,HideSeek_v1,2022.2.5,59.42995971217878,
,8,7,8,7,0,0,16,,train_dim1_1,2,30,,,,2,0,2,0,,,,,,,,,0,0,0,0,0,1,1,1,1,0,1,0,,,,,,,,,,,,,,,,,,,,,,,,,,,,,,,,,,,,,,,,,,,,,,,,,,,,,,,,,,,,,,,,30,,,,,,,,1460.1368495999996,1460.1368495999996,1460.1368495999996,1460.1368495999996,1460.1368495999996,return,1.1765037000004668,0,1,0,0,0.48,0.24,return,1.0913245000010647,2,-1,0.48,0.24,,,,,,,,,,,,,,,,,,,,,,,,,,,,,,,,,,,,,,,,,,,,,,,,,,,,,,,,9DNLX0,train_y,red_square,top_right,2025-01-20_15h05.53.525,HideSeek_v1,2022.2.5,59.42995971217878,
,7,8,7,5,0,-3,13,,train_dim1_1,3,30,,,,2,0,2,0,,,,,,,,,0,0,0,0,0,2,2,2,0,0,0,0,,,,,,,,,,,,,,,,,,,,,,,,,stimuli/alien_stimuli/13.png,,,,,,,,,,,,,,,,,,,,,,,,,,,,,stimuli/alien_stimuli/16.png,16,8,4,,,,,,,30,,,,,,,,1481.7852832999997,1481.7852832999997,1481.7852832999997,1481.7852832999997,1481.7852832999997,down,6.509427800000594,0,1,0,99,0.4,0.15999999999999998,down,6.403866500000731,,,,,1480.2141201999993,1481.7852832999997,0.48,0.16,0.0,0.0,0.16,0.48,0.48,0.48,0.16,1462.8803454,1462.8803454,1462.8803454,1462.8803454,1462.8803454,1462.8803454,1462.8803454,1462.8803454,1462.8666149399996,17.450022900000477,return,17.316987200000767,,,,,,,,,,,,,,,,,,,,,,,,,,,,,,,,,9DNLX0,train_y,red_square,top_right,2025-01-20_15h05.53.525,HideSeek_v1,2022.2.5,59.42995971217878,
,7,8,7,5,0,-3,13,,train_dim1_1,3,30,,,,2,0,2,0,,,,,,,,,0,0,0,0,0,2,2,2,1,0,1,0,,,,,,,,,,,,,,,,,,,,,,,,,,,,,,,,,,,,,,,,,,,,,,,,,,,,,,,,,,,,,,,,30,,,,,,,,1488.3090256999994,1488.3090256999994,1488.3090256999994,1488.3090256999994,1488.3090256999994,down,1.8939173999997365,0,1,0,99,0.4,0.07999999999999997,down,1.7976951999999073,,,,,,,,,,,,,,,,,,,,,,,,,,,,,,,,,,,,,,,,,,,,,,,,,,,,,,,,,,,,9DNLX0,train_y,red_square,top_right,2025-01-20_15h05.53.525,HideSeek_v1,2022.2.5,59.42995971217878,
,7,8,7,5,0,-3,13,,train_dim1_1,3,30,,,,2,0,2,0,,,,,,,,,0,0,0,0,0,2,2,2,2,0,2,0,,,,,,,,,,,,,,,,,,,,,,,,,,,,,,,,,,,,,,,,,,,,,,,,,,,,,,,,,,,,,,,,30,,,,,,,,1490.1890439999997,1490.1890439999997,1490.1890439999997,1490.1890439999997,1490.1890439999997,left,1.7114118999998027,0,1,0,99,0.32,0.07999999999999997,left,1.6225505000002158,,,,,,,,,,,,,,,,,,,,,,,,,,,,,,,,,,,,,,,,,,,,,,,,,,,,,,,,,,,,9DNLX0,train_y,red_square,top_right,2025-01-20_15h05.53.525,HideSeek_v1,2022.2.5,59.42995971217878,
,7,8,7,5,0,-3,13,,train_dim1_1,3,30,,,,2,0,2,0,,,,,,,,,0,0,0,0,0,2,2,2,3,0,3,0,,,,,,,,,,,,,,,,,,,,,,,,,,,,,,,,,,,,,,,,,,,,,,,,,,,,,,,,,,,,,,,,30,,,,,,,,1491.9078884,1491.9078884,1491.9078884,1491.9078884,1491.9078884,return,1.160846899999342,0,0,0,0,0.32,0.07999999999999997,return,1.073465500000566,0,-2,0.32,0.07999999999999997,,,,,,,,,,,,,,,,,,,,,,,,,,,,,,,,,,,,,,,,,,,,,,,,,,,,,,,,9DNLX0,train_y,red_square,top_right,2025-01-20_15h05.53.525,HideSeek_v1,2022.2.5,59.42995971217878,
,5,6,5,2,0,-4,12,,train_dim1_1,4,30,,,,2,0,2,0,,,,,,,,,0,0,0,0,0,3,3,3,0,0,0,0,,,,,,,,,,,,,,,,,,,,,,,,,stimuli/alien_stimuli/12.png,,,,,,,,,,,,,,,,,,,,,,,,,,,,,stimuli/alien_stimuli/13.png,13,7,5,,,,,,,30,,,,,,,,1502.340252,1502.340252,1502.340252,1502.340252,1502.340252,down,4.173896100000093,0,0,0,99,0.24,0.0,down,4.080738700000438,,,,,1500.7810775999997,1502.340252,0.4,0,0.24,0.0,0.12,0.4,0.4,0.4,0,1494.6404033999997,1494.6404033999997,1494.6404033999997,1494.6404033999997,1494.6404033999997,1494.6404033999997,1494.6404033999997,1494.6404033999997,1494.62636974,6.257402899999761,return,6.110873800000263,,,,,,,,,,,,,,,,,,,,,,,,,,,,,,,,,9DNLX0,train_y,red_square,top_right,2025-01-20_15h05.53.525,HideSeek_v1,2022.2.5,59.42995971217878,
,5,6,5,2,0,-4,12,,train_dim1_1,4,30,,,,2,0,2,0,,,,,,,,,0,0,0,0,0,3,3,3,1,0,1,0,,,,,,,,,,,,,,,,,,,,,,,,,,,,,,,,,,,,,,,,,,,,,,,,,,,,,,,,,,,,,,,,30,,,,,,,,1506.5212603999998,1506.5212603999998,1506.5212603999998,1506.5212603999998,1506.5212603999998,down,0.8267757000003257,0,0,0,99,0.24,-0.08,down,0.743182700000034,,,,,,,,,,,,,,,,,,,,,,,,,,,,,,,,,,,,,,,,,,,,,,,,,,,,,,,,,,,,9DNLX0,train_y,red_square,top_right,2025-01-20_15h05.53.525,HideSeek_v1,2022.2.5,59.42995971217878,
,5,6,5,2,0,-4,12,,train_dim1_1,4,30,,,,2,0,2,0,,,,,,,,,0,0,0,0,0,3,3,3,2,0,2,0,,,,,,,,,,,,,,,,,,,,,,,,,,,,,,,,,,,,,,,,,,,,,,,,,,,,,,,,,,,,,,,,30,,,,,,,,1507.3557120999994,1507.3557120999994,1507.3557120999994,1507.3557120999994,1507.3557120999994,down,0.8936908999994557,0,0,0,99,0.24,-0.16,down,0.8054818000000523,,,,,,,,,,,,,,,,,,,,,,,,,,,,,,,,,,,,,,,,,,,,,,,,,,,,,,,,,,,,9DNLX0,train_y,red_square,top_right,2025-01-20_15h05.53.525,HideSeek_v1,2022.2.5,59.42995971217878,
,5,6,5,2,0,-4,12,,train_dim1_1,4,30,,,,2,0,2,0,,,,,,,,,0,0,0,0,0,3,3,3,3,0,3,0,,,,,,,,,,,,,,,,,,,,,,,,,,,,,,,,,,,,,,,,,,,,,,,,,,,,,,,,,,,,,,,,30,,,,,,,,1508.2555870999995,1508.2555870999995,1508.2555870999995,1508.2555870999995,1508.2555870999995,return,1.4442447000001266,0,1,0,0,0.24,-0.16,return,1.3551744000005783,-3,-2,0.24,-0.16,,,,,,,,,,,,,,,,,,,,,,,,,,,,,,,,,,,,,,,,,,,,,,,,,,,,,,,,9DNLX0,train_y,red_square,top_right,2025-01-20_15h05.53.525,HideSeek_v1,2022.2.5,59.42995971217878,
,8,8,8,3,0,-5,11,,train_dim1_1,5,30,,,,2,0,2,0,,,,,,,,,0,0,0,0,0,4,4,4,0,0,0,0,,,,,,,,,,,,,,,,,,,,,,,,,stimuli/alien_stimuli/11.png,,,,,,,,,,,,,,,,,,,,,,,,,,,,,stimuli/alien_stimuli/12.png,12,5,6,,,,,,,30,,,,,,,,1523.7723995999995,1523.7723995999995,1523.7723995999995,1523.7723995999995,1523.7723995999995,down,3.1571461000003183,0,1,0,99,0.48,0.15999999999999998,down,3.0497775000003458,,,,,1522.1988189999993,1523.7723995999995,0.24,-0.24,0.32,0.0,-0.07999999999999999,0.24,0.24,0.24,-0.24,1511.2726629,1511.2726629,1511.2726629,1511.2726629,1511.2726629,1511.2726629,1511.2726629,1511.2726629,1511.2734545599994,11.044849299999441,return,10.90817480000078,,,,,,,,,,,,,,,,,,,,,,,,,,,,,,,,,9DNLX0,train_y,red_square,top_right,2025-01-20_15h05.53.525,HideSeek_v1,2022.2.5,59.42995971217878,
,8,8,8,3,0,-5,11,,train_dim1_1,5,30,,,,2,0,2,0,,,,,,,,,0,0,0,0,0,4,4,4,1,0,1,0,,,,,,,,,,,,,,,,,,,,,,,,,,,,,,,,,,,,,,,,,,,,,,,,,,,,,,,,,,,,,,,,30,,,,,,,,1526.9210773999994,1526.9210773999994,1526.9210773999994,1526.9210773999994,1526.9210773999994,down,0.5600752000000284,0,1,0,99,0.48,0.07999999999999997,down,0.477912300000753,,,,,,,,,,,,,,,,,,,,,,,,,,,,,,,,,,,,,,,,,,,,,,,,,,,,,,,,,,,,9DNLX0,train_y,red_square,top_right,2025-01-20_15h05.53.525,HideSeek_v1,2022.2.5,59.42995971217878,
,8,8,8,3,0,-5,11,,train_dim1_1,5,30,,,,2,0,2,0,,,,,,,,,0,0,0,0,0,4,4,4,2,0,2,0,,,,,,,,,,,,,,,,,,,,,,,,,,,,,,,,,,,,,,,,,,,,,,,,,,,,,,,,,,,,,,,,30,,,,,,,,1527.488037,1527.488037,1527.488037,1527.488037,1527.488037,down,0.6436370999999781,0,1,0,99,0.48,-2.7755575615628914e-17,down,0.560285900000963,,,,,,,,,,,,,,,,,,,,,,,,,,,,,,,,,,,,,,,,,,,,,,,,,,,,,,,,,,,,9DNLX0,train_y,red_square,top_right,2025-01-20_15h05.53.525,HideSeek_v1,2022.2.5,59.42995971217878,
,8,8,8,3,0,-5,11,,train_dim1_1,5,30,,,,2,0,2,0,,,,,,,,,0,0,0,0,0,4,4,4,3,0,3,0,,,,,,,,,,,,,,,,,,,,,,,,,,,,,,,,,,,,,,,,,,,,,,,,,,,,,,,,,,,,,,,,30,,,,,,,,1528.1379355,1528.1379355,1528.1379355,1528.1379355,1528.1379355,down,0.8768694999998843,0,1,0,99,0.48,-0.08000000000000003,down,0.7847757000008642,,,,,,,,,,,,,,,,,,,,,,,,,,,,,,,,,,,,,,,,,,,,,,,,,,,,,,,,,,,,9DNLX0,train_y,red_square,top_right,2025-01-20_15h05.53.525,HideSeek_v1,2022.2.5,59.42995971217878,
,8,8,8,3,0,-5,11,,train_dim1_1,5,30,,,,2,0,2,0,,,,,,,,,0,0,0,0,0,4,4,4,4,0,4,0,,,,,,,,,,,,,,,,,,,,,,,,,,,,,,,,,,,,,,,,,,,,,,,,,,,,,,,,,,,,,,,,30,,,,,,,,1529.021597,1529.021597,1529.021597,1529.021597,1529.021597,return,0.8770178000004307,0,1,0,0,0.48,-0.08000000000000003,return,0.7855936000014481,-7,-2,0.48,-0.08000000000000003,,,,,,,,,,,,,,,,,,,,,,,,,,,,,,,,,,,,,,,,,,,,,,,,,,,,,,,,9DNLX0,train_y,red_square,top_right,2025-01-20_15h05.53.525,HideSeek_v1,2022.2.5,59.42995971217878,
,6,9,6,5,0,-4,12,,train_dim1_1,6,30,,,,2,0,2,0,,,,,,,,,0,0,0,0,0,5,5,5,0,0,0,0,,,,,,,,,,,,,,,,,,,,,,,,,stimuli/alien_stimuli/12.png,,,,,,,,,,,,,,,,,,,,,,,,,,,,,stimuli/alien_stimuli/11.png,11,8,7,,,,,,,30,,,,,,,,1537.9037872,1537.9037872,1537.9037872,1537.9037872,1537.9037872,down,3.6898820999995223,0,1,0,99,0.32,0.24,down,3.604285700001128,,,,,1536.3442509999995,1537.9037872,0.48,-0.16,0.4,0.0,0.039999999999999994,0.48,0.48,0.48,-0.16,1531.4718600999995,1531.4718600999995,1531.4718600999995,1531.4718600999995,1531.4718600999995,1531.4718600999995,1531.4718600999995,1531.4718600999995,1531.4568320399994,4.98991019999994,return,4.853719700000511,,,,,,,,,,,,,,,,,,,,,,,,,,,,,,,,,9DNLX0,train_y,red_square,top_right,2025-01-20_15h05.53.525,HideSeek_v1,2022.2.5,59.42995971217878,
,6,9,6,5,0,-4,12,,train_dim1_1,6,30,,,,2,0,2,0,,,,,,,,,0,0,0,0,0,5,5,5,1,0,1,0,,,,,,,,,,,,,,,,,,,,,,,,,,,,,,,,,,,,,,,,,,,,,,,,,,,,,,,,,,,,,,,,30,,,,,,,,1541.5998191999997,1541.5998191999997,1541.5998191999997,1541.5998191999997,1541.5998191999997,down,0.576424699999734,0,1,0,99,0.32,0.15999999999999998,down,0.4867442000004303,,,,,,,,,,,,,,,,,,,,,,,,,,,,,,,,,,,,,,,,,,,,,,,,,,,,,,,,,,,,9DNLX0,train_y,red_square,top_right,2025-01-20_15h05.53.525,HideSeek_v1,2022.2.5,59.42995971217878,
,6,9,6,5,0,-4,12,,train_dim1_1,6,30,,,,2,0,2,0,,,,,,,,,0,0,0,0,0,5,5,5,2,0,2,0,,,,,,,,,,,,,,,,,,,,,,,,,,,,,,,,,,,,,,,,,,,,,,,,,,,,,,,,,,,,,,,,30,,,,,,,,1542.183521,1542.183521,1542.183521,1542.183521,1542.183521,down,0.5100606000005428,0,1,0,99,0.32,0.07999999999999997,down,0.433377900000778,,,,,,,,,,,,,,,,,,,,,,,,,,,,,,,,,,,,,,,,,,,,,,,,,,,,,,,,,,,,9DNLX0,train_y,red_square,top_right,2025-01-20_15h05.53.525,HideSeek_v1,2022.2.5,59.42995971217878,
,6,9,6,5,0,-4,12,,train_dim1_1,6,30,,,,2,0,2,0,,,,,,,,,0,0,0,0,0,5,5,5,3,0,3,0,,,,,,,,,,,,,,,,,,,,,,,,,,,,,,,,,,,,,,,,,,,,,,,,,,,,,,,,,,,,,,,,30,,,,,,,,1542.7004948999993,1542.7004948999993,1542.7004948999993,1542.7004948999993,1542.7004948999993,down,0.5602559999997538,0,1,0,99,0.32,-2.7755575615628914e-17,down,0.4827965000013137,,,,,,,,,,,,,,,,,,,,,,,,,,,,,,,,,,,,,,,,,,,,,,,,,,,,,,,,,,,,9DNLX0,train_y,red_square,top_right,2025-01-20_15h05.53.525,HideSeek_v1,2022.2.5,59.42995971217878,
,6,9,6,5,0,-4,12,,train_dim1_1,6,30,,,,2,0,2,0,,,,,,,,,0,0,0,0,0,5,5,5,4,0,4,0,,,,,,,,,,,,,,,,,,,,,,,,,,,,,,,,,,,,,,,,,,,,,,,,,,,,,,,,,,,,,,,,30,,,,,,,,1543.2684560999996,1543.2684560999996,1543.2684560999996,1543.2684560999996,1543.2684560999996,down,0.6770503999996436,0,1,0,99,0.32,-0.08000000000000003,down,0.5963193000006868,,,,,,,,,,,,,,,,,,,,,,,,,,,,,,,,,,,,,,,,,,,,,,,,,,,,,,,,,,,,9DNLX0,train_y,red_square,top_right,2025-01-20_15h05.53.525,HideSeek_v1,2022.2.5,59.42995971217878,
,6,9,6,5,0,-4,12,,train_dim1_1,6,30,,,,2,0,2,0,,,,,,,,,0,0,0,0,0,5,5,5,5,0,5,0,,,,,,,,,,,,,,,,,,,,,,,,,,,,,,,,,,,,,,,,,,,,,,,,,,,,,,,,,,,,,,,,30,,,,,,,,1543.9513895,1543.9513895,1543.9513895,1543.9513895,1543.9513895,return,0.927125100000012,0,1,0,0,0.32,-0.08000000000000003,return,0.8491458000007697,-12,-2,0.32,-0.08000000000000003,,,,,,,,,,,,,,,,,,,,,,,,,,,,,,,,,,,,,,,,,,,,,,,,,,,,,,,,9DNLX0,train_y,red_square,top_right,2025-01-20_15h05.53.525,HideSeek_v1,2022.2.5,59.42995971217878,
,6,8,6,5,0,-3,13,,train_dim1_1,7,30,,,,2,0,2,0,,,,,,,,,0,0,0,0,0,6,6,6,0,0,0,0,,,,,,,,,,,,,,,,,,,,,,,,,stimuli/alien_stimuli/13.png,,,,,,,,,,,,,,,,,,,,,,,,,,,,,stimuli/alien_stimuli/12.png,12,6,8,,,,,,,30,,,,,,,,1552.8797919999997,1552.8797919999997,1552.8797919999997,1552.8797919999997,1552.8797919999997,down,2.607004500000585,0,1,0,99,0.32,0.15999999999999998,down,2.5153776000006474,,,,,1551.3231231999998,1552.8797919999997,0.32,0,0.32,0.0,0.16,0.32,0.32,0.32,0,1546.4507354999996,1546.4507354999996,1546.4507354999996,1546.4507354999996,1546.4507354999996,1546.4507354999996,1546.4507354999996,1546.4507354999996,1546.4358659399995,4.989797800000815,return,4.854909800000314,,,,,,,,,,,,,,,,,,,,,,,,,,,,,,,,,9DNLX0,train_y,red_square,top_right,2025-01-20_15h05.53.525,HideSeek_v1,2022.2.5,59.42995971217878,
,6,8,6,5,0,-3,13,,train_dim1_1,7,30,,,,2,0,2,0,,,,,,,,,0,0,0,0,0,6,6,6,1,0,1,0,,,,,,,,,,,,,,,,,,,,,,,,,,,,,,,,,,,,,,,,,,,,,,,,,,,,,,,,,,,,,,,,30,,,,,,,,1555.4936142999995,1555.4936142999995,1555.4936142999995,1555.4936142999995,1555.4936142999995,down,1.2937531999996281,0,1,0,99,0.32,0.07999999999999997,down,1.2136747000004107,,,,,,,,,,,,,,,,,,,,,,,,,,,,,,,,,,,,,,,,,,,,,,,,,,,,,,,,,,,,9DNLX0,train_y,red_square,top_right,2025-01-20_15h05.53.525,HideSeek_v1,2022.2.5,59.42995971217878,
,6,8,6,5,0,-3,13,,train_dim1_1,7,30,,,,2,0,2,0,,,,,,,,,0,0,0,0,0,6,6,6,2,0,2,0,,,,,,,,,,,,,,,,,,,,,,,,,,,,,,,,,,,,,,,,,,,,,,,,,,,,,,,,,,,,,,,,30,,,,,,,,1556.7950778999993,1556.7950778999993,1556.7950778999993,1556.7950778999993,1556.7950778999993,down,1.3775156000001516,0,1,0,99,0.32,-2.7755575615628914e-17,down,1.2988370000011855,,,,,,,,,,,,,,,,,,,,,,,,,,,,,,,,,,,,,,,,,,,,,,,,,,,,,,,,,,,,9DNLX0,train_y,red_square,top_right,2025-01-20_15h05.53.525,HideSeek_v1,2022.2.5,59.42995971217878,
,6,8,6,5,0,-3,13,,train_dim1_1,7,30,,,,2,0,2,0,,,,,,,,,0,0,0,0,0,6,6,6,3,0,3,0,,,,,,,,,,,,,,,,,,,,,,,,,,,,,,,,,,,,,,,,,,,,,,,,,,,,,,,,,,,,,,,,30,,,,,,,,1558.1798069999995,1558.1798069999995,1558.1798069999995,1558.1798069999995,1558.1798069999995,left,1.0604621000002226,0,1,0,99,0.24,-2.7755575615628914e-17,left,0.970702200001142,,,,,,,,,,,,,,,,,,,,,,,,,,,,,,,,,,,,,,,,,,,,,,,,,,,,,,,,,,,,9DNLX0,train_y,red_square,top_right,2025-01-20_15h05.53.525,HideSeek_v1,2022.2.5,59.42995971217878,
,6,8,6,5,0,-3,13,,train_dim1_1,7,30,,,,2,0,2,0,,,,,,,,,0,0,0,0,0,6,6,6,4,0,4,0,,,,,,,,,,,,,,,,,,,,,,,,,,,,,,,,,,,,,,,,,,,,,,,,,,,,,,,,,,,,,,,,30,,,,,,,,1559.2470514999995,1559.2470514999995,1559.2470514999995,1559.2470514999995,1559.2470514999995,return,1.36093560000063,0,1,0,0,0.24,-2.7755575615628914e-17,return,1.274724500000957,-15,-3,0.24,-2.7755575615628914e-17,,,,,,,,,,,,,,,,,,,,,,,,,,,,,,,,,,,,,,,,,,,,,,,,,,,,,,,,9DNLX0,train_y,red_square,top_right,2025-01-20_15h05.53.525,HideSeek_v1,2022.2.5,59.42995971217878,
,9,7,9,2,0,-5,11,,train_dim1_1,8,30,,,,2,0,2,0,,,,,,,,,0,0,0,0,0,7,7,7,0,0,0,0,,,,,,,,,,,,,,,,,,,,,,,,,stimuli/alien_stimuli/11.png,,,,,,,,,,,,,,,,,,,,,,,,,,,,,stimuli/alien_stimuli/13.png,13,6,9,,,,,,,30,,,,,,,,1566.563349,1566.563349,1566.563349,1566.563349,1566.563349,down,4.087249000000156,0,1,0,99,0.56,0.08,down,3.9948049000004175,,,,,1565.0013303999995,1566.563349,0.32,0,0.24,0.0,0.12,0.32,0.32,0.32,0,1562.1880629999996,1562.1880629999996,1562.1880629999996,1562.1880629999996,1562.1880629999996,1562.1880629999996,1562.1880629999996,1562.1880629999996,1562.18241646,2.9377802999997584,return,2.791659000000436,,,,,,,,,,,,,,,,,,,,,,,,,,,,,,,,,9DNLX0,train_y,red_square,top_right,2025-01-20_15h05.53.525,HideSeek_v1,2022.2.5,59.42995971217878,
,9,7,9,2,0,-5,11,,train_dim1_1,8,30,,,,2,0,2,0,,,,,,,,,0,0,0,0,0,7,7,7,1,0,1,0,,,,,,,,,,,,,,,,,,,,,,,,,,,,,,,,,,,,,,,,,,,,,,,,,,,,,,,,,,,,,,,,30,,,,,,,,1570.6573690999994,1570.6573690999994,1570.6573690999994,1570.6573690999994,1570.6573690999994,down,0.7098808000000645,0,1,0,99,0.56,0.0,down,0.6187427000004391,,,,,,,,,,,,,,,,,,,,,,,,,,,,,,,,,,,,,,,,,,,,,,,,,,,,,,,,,,,,9DNLX0,train_y,red_square,top_right,2025-01-20_15h05.53.525,HideSeek_v1,2022.2.5,59.42995971217878,
,9,7,9,2,0,-5,11,,train_dim1_1,8,30,,,,2,0,2,0,,,,,,,,,0,0,0,0,0,7,7,7,2,0,2,0,,,,,,,,,,,,,,,,,,,,,,,,,,,,,,,,,,,,,,,,,,,,,,,,,,,,,,,,,,,,,,,,30,,,,,,,,1571.3742997999998,1571.3742997999998,1571.3742997999998,1571.3742997999998,1571.3742997999998,down,1.8113227000003462,0,1,0,99,0.56,-0.08,down,1.7205791000005775,,,,,,,,,,,,,,,,,,,,,,,,,,,,,,,,,,,,,,,,,,,,,,,,,,,,,,,,,,,,9DNLX0,train_y,red_square,top_right,2025-01-20_15h05.53.525,HideSeek_v1,2022.2.5,59.42995971217878,
,9,7,9,2,0,-5,11,,train_dim1_1,8,30,,,,2,0,2,0,,,,,,,,,0,0,0,0,0,7,7,7,3,0,3,0,,,,,,,,,,,,,,,,,,,,,,,,,,,,,,,,,,,,,,,,,,,,,,,,,,,,,,,,,,,,,,,,30,,,,,,,,1573.1917072999995,1573.1917072999995,1573.1917072999995,1573.1917072999995,1573.1917072999995,down,2.6120546000001923,0,1,0,99,0.56,-0.16,down,2.5360738000008496,,,,,,,,,,,,,,,,,,,,,,,,,,,,,,,,,,,,,,,,,,,,,,,,,,,,,,,,,,,,9DNLX0,train_y,red_square,top_right,2025-01-20_15h05.53.525,HideSeek_v1,2022.2.5,59.42995971217878,
,9,7,9,2,0,-5,11,,train_dim1_1,8,30,,,,2,0,2,0,,,,,,,,,0,0,0,0,0,7,7,7,4,0,4,0,,,,,,,,,,,,,,,,,,,,,,,,,,,,,,,,,,,,,,,,,,,,,,,,,,,,,,,,,,,,,,,,30,,,,,,,,1575.8110117999995,1575.8110117999995,1575.8110117999995,1575.8110117999995,1575.8110117999995,return,0.9273147999992943,0,1,0,0,0.56,-0.16,return,0.837401000000682,-19,-3,0.56,-0.16,,,,,,,,,,,,,,,,,,,,,,,,,,,,,,,,,,,,,,,,,,,,,,,,,,,,,,,,9DNLX0,train_y,red_square,top_right,2025-01-20_15h05.53.525,HideSeek_v1,2022.2.5,59.42995971217878,
,9,8,9,7,0,-1,15,,train_dim1_1,9,30,,,,2,0,2,0,,,,,,,,,0,0,0,0,0,8,8,8,0,0,0,0,,,,,,,,,,,,,,,,,,,,,,,,,stimuli/alien_stimuli/15.png,,,,,,,,,,,,,,,,,,,,,,,,,,,,,stimuli/alien_stimuli/11.png,11,9,10,,,,,,,30,,,,,,,,1581.7578241,1581.7578241,1581.7578241,1581.7578241,1581.7578241,up,6.107354700000542,0,1,0,99,0.56,0.32,up,6.02463920000082,,,,,1580.1971699999995,1581.7578241,0.56,-0.24,0.4,0.0,-0.039999999999999994,0.56,0.56,0.56,-0.24,1578.3101815999999,1578.3101815999999,1578.3101815999999,1578.3101815999999,1578.3101815999999,1578.3101815999999,1578.3101815999999,1578.3101815999999,1578.2953749399994,2.0042216000001645,return,1.8567751000009594,,,,,,,,,,,,,,,,,,,,,,,,,,,,,,,,,9DNLX0,train_y,red_square,top_right,2025-01-20_15h05.53.525,HideSeek_v1,2022.2.5,59.42995971217878,
,9,8,9,7,0,-1,15,,train_dim1_1,9,30,,,,2,0,2,0,,,,,,,,,0,0,0,0,0,8,8,8,1,0,1,0,,,,,,,,,,,,,,,,,,,,,,,,,,,,,,,,,,,,,,,,,,,,,,,,,,,,,,,,,,,,,,,,30,,,,,,,,1587.8715493999998,1587.8715493999998,1587.8715493999998,1587.8715493999998,1587.8715493999998,return,0.9603353000002244,0,0,0,0,0.56,0.32,return,0.8698954000010417,-18,-3,0.56,0.32,,,,,,,,,,,,,,,,,,,,,,,,,,,,,,,,,,,,,,,,,,,,,,,,,,,,,,,,9DNLX0,train_y,red_square,top_right,2025-01-20_15h05.53.525,HideSeek_v1,2022.2.5,59.42995971217878,
,7,7,7,7,0,0,16,,train_dim1_1,10,30,,,,2,0,2,0,,,,,,,,,0,0,0,0,0,9,9,9,0,0,0,0,,,,,,,,,,,,,,,,,,,,,,,,,stimuli/alien_stimuli/16.png,,,,,,,,,,,,,,,,,,,,,,,,,,,,,stimuli/alien_stimuli/15.png,15,9,11,,,,,,,30,,,,,,,,1594.2582610999998,1594.2582610999998,1594.2582610999998,1594.2582610999998,1594.2582610999998,down,2.5375859999994645,0,0,0,99,0.4,0.08,down,2.4369890000007217,,,,,1592.6908399999993,1594.2582610999998,0.56,0.16,0.08,0.0,0.2,0.56,0.56,0.56,0.16,1590.4027872999995,1590.4027872999995,1590.4027872999995,1590.4027872999995,1590.4027872999995,1590.4027872999995,1590.4027872999995,1590.4027872999995,1590.3888823399993,2.404398200000287,return,2.262555200000861,,,,,,,,,,,,,,,,,,,,,,,,,,,,,,,,,9DNLX0,train_y,red_square,top_right,2025-01-20_15h05.53.525,HideSeek_v1,2022.2.5,59.42995971217878,
,7,7,7,7,0,0,16,,train_dim1_1,10,30,,,,2,0,2,0,,,,,,,,,0,0,0,0,0,9,9,9,1,0,1,0,,,,,,,,,,,,,,,,,,,,,,,,,,,,,,,,,,,,,,,,,,,,,,,,,,,,,,,,,,,,,,,,30,,,,,,,,1596.7946182999995,1596.7946182999995,1596.7946182999995,1596.7946182999995,1596.7946182999995,return,0.9770279999993363,0,1,0,0,0.4,0.08,return,0.8923251000005621,-19,-3,0.4,0.08,,,,,,,,,,,,,,,,,,,,,,,,,,,,,,,,,,,,,,,,,,,,,,,,,,,,,,,,9DNLX0,train_y,red_square,top_right,2025-01-20_15h05.53.525,HideSeek_v1,2022.2.5,59.42995971217878,
,9,6,9,5,0,-1,15,,train_dim1_1,11,30,,,,2,0,2,0,,,,,,,,,0,0,0,0,0,10,10,10,0,0,0,0,,,,,,,,,,,,,,,,,,,,,,,,,stimuli/alien_stimuli/15.png,,,,,,,,,,,,,,,,,,,,,,,,,,,,,stimuli/alien_stimuli/16.png,16,7,12,,,,,,,30,,,,,,,,1603.00572,1603.00572,1603.00572,1603.00572,1603.00572,down,3.6243665000001783,0,1,0,99,0.56,0.0,down,3.5400156000005154,,,,,1601.4480346999999,1603.00572,0.4,0.16,0.0,0.0,0.16,0.4,0.4,0.4,0.16,1599.3294848999994,1599.3294848999994,1599.3294848999994,1599.3294848999994,1599.3294848999994,1599.3294848999994,1599.3294848999994,1599.3294848999994,1599.32990324,2.2205753999996887,return,2.094352000000981,,,,,,,,,,,,,,,,,,,,,,,,,,,,,,,,,9DNLX0,train_y,red_square,top_right,2025-01-20_15h05.53.525,HideSeek_v1,2022.2.5,59.42995971217878,
,9,6,9,5,0,-1,15,,train_dim1_1,11,30,,,,2,0,2,0,,,,,,,,,0,0,0,0,0,10,10,10,1,0,1,0,,,,,,,,,,,,,,,,,,,,,,,,,,,,,,,,,,,,,,,,,,,,,,,,,,,,,,,,,,,,,,,,30,,,,,,,,1606.6379496,1606.6379496,1606.6379496,1606.6379496,1606.6379496,down,0.17632309999953577,0,1,0,99,0.56,-0.08,down,0.08635180000055698,,,,,,,,,,,,,,,,,,,,,,,,,,,,,,,,,,,,,,,,,,,,,,,,,,,,,,,,,,,,9DNLX0,train_y,red_square,top_right,2025-01-20_15h05.53.525,HideSeek_v1,2022.2.5,59.42995971217878,
,9,6,9,5,0,-1,15,,train_dim1_1,11,30,,,,2,0,2,0,,,,,,,,,0,0,0,0,0,10,10,10,2,0,2,0,,,,,,,,,,,,,,,,,,,,,,,,,,,,,,,,,,,,,,,,,,,,,,,,,,,,,,,,,,,,,,,,30,,,,,,,,1606.8207290999999,1606.8207290999999,1606.8207290999999,1606.8207290999999,1606.8207290999999,up,1.2943923000002542,0,1,0,99,0.56,0.0,up,1.2094225000009828,,,,,,,,,,,,,,,,,,,,,,,,,,,,,,,,,,,,,,,,,,,,,,,,,,,,,,,,,,,,9DNLX0,train_y,red_square,top_right,2025-01-20_15h05.53.525,HideSeek_v1,2022.2.5,59.42995971217878,
,9,6,9,5,0,-1,15,,train_dim1_1,11,30,,,,2,0,2,0,,,,,,,,,0,0,0,0,0,10,10,10,3,0,3,0,,,,,,,,,,,,,,,,,,,,,,,,,,,,,,,,,,,,,,,,,,,,,,,,,,,,,,,,,,,,,,,,30,,,,,,,,1608.1213963,1608.1213963,1608.1213963,1608.1213963,1608.1213963,up,0.14359929999955057,0,1,0,99,0.56,0.08,up,0.06596520000130113,,,,,,,,,,,,,,,,,,,,,,,,,,,,,,,,,,,,,,,,,,,,,,,,,,,,,,,,,,,,9DNLX0,train_y,red_square,top_right,2025-01-20_15h05.53.525,HideSeek_v1,2022.2.5,59.42995971217878,
,9,6,9,5,0,-1,15,,train_dim1_1,11,30,,,,2,0,2,0,,,,,,,,,0,0,0,0,0,10,10,10,4,0,4,0,,,,,,,,,,,,,,,,,,,,,,,,,,,,,,,,,,,,,,,,,,,,,,,,,,,,,,,,,,,,,,,,30,,,,,,,,1608.2719446,1608.2719446,1608.2719446,1608.2719446,1608.2719446,down,1.5610947000004671,0,1,0,99,0.56,0.0,down,1.4816604000006919,,,,,,,,,,,,,,,,,,,,,,,,,,,,,,,,,,,,,,,,,,,,,,,,,,,,,,,,,,,,9DNLX0,train_y,red_square,top_right,2025-01-20_15h05.53.525,HideSeek_v1,2022.2.5,59.42995971217878,
,9,6,9,5,0,-1,15,,train_dim1_1,11,30,,,,2,0,2,0,,,,,,,,,0,0,0,0,0,10,10,10,5,0,5,0,,,,,,,,,,,,,,,,,,,,,,,,,,,,,,,,,,,,,,,,,,,,,,,,,,,,,,,,,,,,,,,,30,,,,,,,,1609.8395053999993,1609.8395053999993,1609.8395053999993,1609.8395053999993,1609.8395053999993,return,0.8273637000002054,1,0,0,1,0.56,0.0,return,0.7502789000009216,-20,-3,0.56,0.0,,,,,,,,,,,,,,,,,,,,,,,,,,,,,,,,,,,,,,,,,,,,,,,,,,,,,,,,9DNLX0,train_y,red_square,top_right,2025-01-20_15h05.53.525,HideSeek_v1,2022.2.5,59.42995971217878,
,5,5,5,0,0,-5,11,,train_dim1_1,12,30,,,,2,0,2,0,,,,,,,,,0,0,0,0,0,11,11,11,0,0,0,0,,,,,,,,,,,,,,,,,,,,,,,,,stimuli/alien_stimuli/11.png,,,,,,,,,,,,,,,,,,,,,,,,,,,,,stimuli/alien_stimuli/15.png,15,9,13,,,,,,,30,,,,,,,,1622.7593874999993,1622.7593874999993,1622.7593874999993,1622.7593874999993,1622.7593874999993,down,5.091781700000865,1,0,0,99,0.24,-0.08,down,4.993522800001301,,,,,1621.1810747999998,1622.7593874999993,0.56,0,0.08,0.0,0.04,0.56,0.56,0.56,0,1612.2388056999998,1612.2388056999998,1612.2388056999998,1612.2388056999998,1612.2388056999998,1612.2388056999998,1612.2388056999998,1612.2388056999998,1612.2236941399997,9.060120599999209,return,8.921784300000581,,,,,,,,,,,,,,,,,,,,,,,,,,,,,,,,,9DNLX0,train_y,red_square,top_right,2025-01-20_15h05.53.525,HideSeek_v1,2022.2.5,59.42995971217878,
,5,5,5,0,0,-5,11,,train_dim1_1,12,30,,,,2,0,2,0,,,,,,,,,0,0,0,0,0,11,11,11,1,0,1,0,,,,,,,,,,,,,,,,,,,,,,,,,,,,,,,,,,,,,,,,,,,,,,,,,,,,,,,,,,,,,,,,30,,,,,,,,1627.8377694,1627.8377694,1627.8377694,1627.8377694,1627.8377694,down,0.3763504999997167,1,0,0,99,0.24,-0.16,down,0.2940918000003876,,,,,,,,,,,,,,,,,,,,,,,,,,,,,,,,,,,,,,,,,,,,,,,,,,,,,,,,,,,,9DNLX0,train_y,red_square,top_right,2025-01-20_15h05.53.525,HideSeek_v1,2022.2.5,59.42995971217878,
,5,5,5,0,0,-5,11,,train_dim1_1,12,30,,,,2,0,2,0,,,,,,,,,0,0,0,0,0,11,11,11,2,0,2,0,,,,,,,,,,,,,,,,,,,,,,,,,,,,,,,,,,,,,,,,,,,,,,,,,,,,,,,,,,,,,,,,30,,,,,,,,1628.2212283,1628.2212283,1628.2212283,1628.2212283,1628.2212283,down,0.4099500000002081,1,0,0,99,0.24,-0.24,down,0.33259480000106123,,,,,,,,,,,,,,,,,,,,,,,,,,,,,,,,,,,,,,,,,,,,,,,,,,,,,,,,,,,,9DNLX0,train_y,red_square,top_right,2025-01-20_15h05.53.525,HideSeek_v1,2022.2.5,59.42995971217878,
,5,5,5,0,0,-5,11,,train_dim1_1,12,30,,,,2,0,2,0,,,,,,,,,0,0,0,0,0,11,11,11,3,0,3,0,,,,,,,,,,,,,,,,,,,,,,,,,,,,,,,,,,,,,,,,,,,,,,,,,,,,,,,,,,,,,,,,30,,,,,,,,1628.6384093999995,1628.6384093999995,1628.6384093999995,1628.6384093999995,1628.6384093999995,down,0.5104979999996431,1,0,0,99,0.24,-0.32,down,0.4234959000004892,,,,,,,,,,,,,,,,,,,,,,,,,,,,,,,,,,,,,,,,,,,,,,,,,,,,,,,,,,,,9DNLX0,train_y,red_square,top_right,2025-01-20_15h05.53.525,HideSeek_v1,2022.2.5,59.42995971217878,
,5,5,5,0,0,-5,11,,train_dim1_1,12,30,,,,2,0,2,0,,,,,,,,,0,0,0,0,0,11,11,11,4,0,4,0,,,,,,,,,,,,,,,,,,,,,,,,,,,,,,,,,,,,,,,,,,,,,,,,,,,,,,,,,,,,,,,,30,,,,,,,,1629.1547371999995,1629.1547371999995,1629.1547371999995,1629.1547371999995,1629.1547371999995,down,1.4108108000000357,1,0,0,99,0.24,-0.4,down,1.3187337000008483,,,,,,,,,,,,,,,,,,,,,,,,,,,,,,,,,,,,,,,,,,,,,,,,,,,,,,,,,,,,9DNLX0,train_y,red_square,top_right,2025-01-20_15h05.53.525,HideSeek_v1,2022.2.5,59.42995971217878,
,5,5,5,0,0,-5,11,,train_dim1_1,12,30,,,,2,0,2,0,,,,,,,,,0,0,0,0,0,11,11,11,5,0,5,0,,,,,,,,,,,,,,,,,,,,,,,,,,,,,,,,,,,,,,,,,,,,,,,,,,,,,,,,,,,,,,,,30,,,,,,,,1630.5730144,1630.5730144,1630.5730144,1630.5730144,1630.5730144,return,1.2269996999993964,2,0,0,1,0.24,-0.4,return,1.145649200000662,-25,-3,0.24,-0.4,,,,,,,,,,,,,,,,,,,,,,,,,,,,,,,,,,,,,,,,,,,,,,,,,,,,,,,,9DNLX0,train_y,red_square,top_right,2025-01-20_15h05.53.525,HideSeek_v1,2022.2.5,59.42995971217878,
,9,8,9,4,0,-4,12,,train_dim1_1,13,30,,,,2,0,2,0,,,,,,,,,0,0,0,0,0,12,12,12,0,0,0,0,,,,,,,,,,,,,,,,,,,,,,,,,stimuli/alien_stimuli/12.png,,,,,,,,,,,,,,,,,,,,,,,,,,,,,stimuli/alien_stimuli/11.png,11,5,14,,,,,,,30,,,,,,,,1636.9101573999997,1636.9101573999997,1636.9101573999997,1636.9101573999997,1636.9101573999997,return,4.407092400000693,2,0,0,0,0.56,0.24,return,4.31088340000133,-25,-3,0.56,0.24,1635.3426028999993,1636.9101573999997,0.24,-0.4,0.4,0.0,-0.2,0.24,0.24,0.24,-0.4,1633.3746034999995,1633.3746034999995,1633.3746034999995,1633.3746034999995,1633.3746034999995,1633.3746034999995,1633.3746034999995,1633.3746034999995,1633.3747447599997,2.087561700000151,return,1.9485405000004903,,,,,,,,,,,,,,,,,,,,,,,,,,,,,,,,,9DNLX0,train_y,red_square,top_right,2025-01-20_15h05.53.525,HideSeek_v1,2022.2.5,59.42995971217878,
,7,7,7,7,0,0,16,,train_dim1_1,14,30,,,,2,0,2,0,,,,,,,,,0,0,0,0,0,13,13,13,0,0,0,0,,,,,,,,,,,,,,,,,,,,,,,,,stimuli/alien_stimuli/16.png,,,,,,,,,,,,,,,,,,,,,,,,,,,,,stimuli/alien_stimuli/12.png,12,9,15,,,,,,,30,,,,,,,,1649.3270293999994,1649.3270293999994,1649.3270293999994,1649.3270293999994,1649.3270293999994,up,2.6730886999994254,2,0,0,99,0.4,0.24,up,2.588786100001016,,,,,1647.7698594999993,1649.3270293999994,0.56,-0.08,0.32,0.0,0.07999999999999999,0.56,0.56,0.56,-0.08,1642.8671651999994,1642.8671651999994,1642.8671651999994,1642.8671651999994,1642.8671651999994,1642.8671651999994,1642.8671651999994,1642.8671651999994,1642.86585904,5.006517000000713,return,4.886389000001145,,,,,,,,,,,,,,,,,,,,,,,,,,,,,,,,,9DNLX0,train_y,red_square,top_right,2025-01-20_15h05.53.525,HideSeek_v1,2022.2.5,59.42995971217878,
,7,7,7,7,0,0,16,,train_dim1_1,14,30,,,,2,0,2,0,,,,,,,,,0,0,0,0,0,13,13,13,1,0,1,0,,,,,,,,,,,,,,,,,,,,,,,,,,,,,,,,,,,,,,,,,,,,,,,,,,,,,,,,,,,,,,,,30,,,,,,,,1652.0077565000001,1652.0077565000001,1652.0077565000001,1652.0077565000001,1652.0077565000001,return,0.9268576000004032,2,1,0,0,0.4,0.24,return,0.8387030000012601,-24,-3,0.4,0.24,,,,,,,,,,,,,,,,,,,,,,,,,,,,,,,,,,,,,,,,,,,,,,,,,,,,,,,,9DNLX0,train_y,red_square,top_right,2025-01-20_15h05.53.525,HideSeek_v1,2022.2.5,59.42995971217878,
,6,9,6,6,0,-3,13,,train_dim1_1,15,30,,,,2,0,2,0,,,,,,,,,0,0,0,0,0,14,14,14,0,0,0,0,,,,,,,,,,,,,,,,,,,,,,,,,stimuli/alien_stimuli/13.png,,,,,,,,,,,,,,,,,,,,,,,,,,,,,stimuli/alien_stimuli/16.png,16,7,16,,,,,,,30,,,,,,,,1658.2670429999998,1658.2670429999998,1658.2670429999998,1658.2670429999998,1658.2670429999998,down,3.057557299999644,2,1,0,99,0.32,0.24,down,2.9651583000004393,,,,,1656.7104825999995,1658.2670429999998,0.4,0.16,0.0,0.0,0.16,0.4,0.4,0.4,0.16,1654.5081086999999,1654.5081086999999,1654.5081086999999,1654.5081086999999,1654.5081086999999,1654.5081086999999,1654.5081086999999,1654.5081086999999,1654.50893926,2.3205640000005587,return,2.172093300000597,,,,,,,,,,,,,,,,,,,,,,,,,,,,,,,,,9DNLX0,train_y,red_square,top_right,2025-01-20_15h05.53.525,HideSeek_v1,2022.2.5,59.42995971217878,
,6,9,6,6,0,-3,13,,train_dim1_1,15,30,,,,2,0,2,0,,,,,,,,,0,0,0,0,0,14,14,14,1,0,1,0,,,,,,,,,,,,,,,,,,,,,,,,,,,,,,,,,,,,,,,,,,,,,,,,,,,,,,,,,,,,,,,,30,,,,,,,,1661.3330221999995,1661.3330221999995,1661.3330221999995,1661.3330221999995,1661.3330221999995,down,0.6264301999999589,2,1,0,99,0.32,0.15999999999999998,down,0.5328626000009535,,,,,,,,,,,,,,,,,,,,,,,,,,,,,,,,,,,,,,,,,,,,,,,,,,,,,,,,,,,,9DNLX0,train_y,red_square,top_right,2025-01-20_15h05.53.525,HideSeek_v1,2022.2.5,59.42995971217878,
,6,9,6,6,0,-3,13,,train_dim1_1,15,30,,,,2,0,2,0,,,,,,,,,0,0,0,0,0,14,14,14,2,0,2,0,,,,,,,,,,,,,,,,,,,,,,,,,,,,,,,,,,,,,,,,,,,,,,,,,,,,,,,,,,,,,,,,30,,,,,,,,1661.9660181,1661.9660181,1661.9660181,1661.9660181,1661.9660181,down,0.6772277000000031,2,1,0,99,0.32,0.07999999999999997,down,0.5954996000009487,,,,,,,,,,,,,,,,,,,,,,,,,,,,,,,,,,,,,,,,,,,,,,,,,,,,,,,,,,,,9DNLX0,train_y,red_square,top_right,2025-01-20_15h05.53.525,HideSeek_v1,2022.2.5,59.42995971217878,
,6,9,6,6,0,-3,13,,train_dim1_1,15,30,,,,2,0,2,0,,,,,,,,,0,0,0,0,0,14,14,14,3,0,3,0,,,,,,,,,,,,,,,,,,,,,,,,,,,,,,,,,,,,,,,,,,,,,,,,,,,,,,,,,,,,,,,,30,,,,,,,,1662.6487596999996,1662.6487596999996,1662.6487596999996,1662.6487596999996,1662.6487596999996,down,0.6604465000000346,2,1,0,99,0.32,-2.7755575615628914e-17,down,0.5848421000009694,,,,,,,,,,,,,,,,,,,,,,,,,,,,,,,,,,,,,,,,,,,,,,,,,,,,,,,,,,,,9DNLX0,train_y,red_square,top_right,2025-01-20_15h05.53.525,HideSeek_v1,2022.2.5,59.42995971217878,
,6,9,6,6,0,-3,13,,train_dim1_1,15,30,,,,2,0,2,0,,,,,,,,,0,0,0,0,0,14,14,14,4,0,4,0,,,,,,,,,,,,,,,,,,,,,,,,,,,,,,,,,,,,,,,,,,,,,,,,,,,,,,,,,,,,,,,,30,,,,,,,,1663.3168871999997,1663.3168871999997,1663.3168871999997,1663.3168871999997,1663.3168871999997,down,0.8105003999999099,2,1,0,99,0.32,-0.08000000000000003,down,0.7307845000004818,,,,,,,,,,,,,,,,,,,,,,,,,,,,,,,,,,,,,,,,,,,,,,,,,,,,,,,,,,,,9DNLX0,train_y,red_square,top_right,2025-01-20_15h05.53.525,HideSeek_v1,2022.2.5,59.42995971217878,
,6,9,6,6,0,-3,13,,train_dim1_1,15,30,,,,2,0,2,0,,,,,,,,,0,0,0,0,0,14,14,14,5,0,5,0,,,,,,,,,,,,,,,,,,,,,,,,,,,,,,,,,,,,,,,,,,,,,,,,,,,,,,,,,,,,,,,,30,,,,,,,,1664.1335530999995,1664.1335530999995,1664.1335530999995,1664.1335530999995,1664.1335530999995,return,1.0938599000000977,2,0,0,0,0.32,-0.08000000000000003,return,1.012250300001142,-29,-3,0.32,-0.08000000000000003,,,,,,,,,,,,,,,,,,,,,,,,,,,,,,,,,,,,,,,,,,,,,,,,,,,,,,,,9DNLX0,train_y,red_square,top_right,2025-01-20_15h05.53.525,HideSeek_v1,2022.2.5,59.42995971217878,
,9,5,9,4,0,-1,15,,train_dim1_1,16,30,,,,2,0,2,0,,,,,,,,,0,0,0,0,0,15,15,15,0,0,0,0,,,,,,,,,,,,,,,,,,,,,,,,,stimuli/alien_stimuli/15.png,,,,,,,,,,,,,,,,,,,,,,,,,,,,,stimuli/alien_stimuli/13.png,13,6,17,,,,,,,30,,,,,,,,1671.3857085999998,1671.3857085999998,1671.3857085999998,1671.3857085999998,1671.3857085999998,up,4.920252100000653,2,0,0,99,0.56,0.08,up,4.8260439000005135,,,,,1669.8216462999999,1671.3857085999998,0.32,0.08,0.24,0.0,0.2,0.32,0.32,0.32,0.08,1666.8042591999993,1666.8042591999993,1666.8042591999993,1666.8042591999993,1666.8042591999993,1666.8042591999993,1666.8042591999993,1666.8042591999993,1666.8023244599997,3.1382947000001877,return,2.9960593000005247,,,,,,,,,,,,,,,,,,,,,,,,,,,,,,,,,9DNLX0,train_y,red_square,top_right,2025-01-20_15h05.53.525,HideSeek_v1,2022.2.5,59.42995971217878,
,9,5,9,4,0,-1,15,,train_dim1_1,16,30,,,,2,0,2,0,,,,,,,,,0,0,0,0,0,15,15,15,1,0,1,0,,,,,,,,,,,,,,,,,,,,,,,,,,,,,,,,,,,,,,,,,,,,,,,,,,,,,,,,,,,,,,,,30,,,,,,,,1676.3119640999994,1676.3119640999994,1676.3119640999994,1676.3119640999994,1676.3119640999994,return,0.709801800000605,2,0,0,0,0.56,0.08,down,0.6405001000002812,-28,-3,0.56,0.08,,,,,,,,,,,,,,,,,,,,,,,,,,,,,,,,,,,,,,,,,,,,,,,,,,,,,,,,9DNLX0,train_y,red_square,top_right,2025-01-20_15h05.53.525,HideSeek_v1,2022.2.5,59.42995971217878,
,8,8,8,5,0,-3,13,,train_dim1_1,17,30,,,,2,0,2,0,,,,,,,,,0,0,0,0,0,16,16,16,0,0,0,0,,,,,,,,,,,,,,,,,,,,,,,,,stimuli/alien_stimuli/13.png,,,,,,,,,,,,,,,,,,,,,,,,,,,,,stimuli/alien_stimuli/15.png,15,9,18,,,,,,,30,,,,,,,,1682.0751989999999,1682.0751989999999,1682.0751989999999,1682.0751989999999,1682.0751989999999,down,5.574939799999811,2,0,0,99,0.48,0.15999999999999998,down,5.490690100000393,,,,,1680.5136431,1682.0751989999999,0.56,-0.08,0.08,0.0,-0.04,0.56,0.56,0.56,-0.08,1678.5948641999994,1678.5948641999994,1678.5948641999994,1678.5948641999994,1678.5948641999994,1678.5948641999994,1678.5948641999994,1678.5948641999994,1678.5955060599997,2.0374284999998054,return,1.9029480000008334,,,,,,,,,,,,,,,,,,,,,,,,,,,,,,,,,9DNLX0,train_y,red_square,top_right,2025-01-20_15h05.53.525,HideSeek_v1,2022.2.5,59.42995971217878,
,8,8,8,5,0,-3,13,,train_dim1_1,17,30,,,,2,0,2,0,,,,,,,,,0,0,0,0,0,16,16,16,1,0,1,0,,,,,,,,,,,,,,,,,,,,,,,,,,,,,,,,,,,,,,,,,,,,,,,,,,,,,,,,,,,,,,,,30,,,,,,,,1687.6549011999996,1687.6549011999996,1687.6549011999996,1687.6549011999996,1687.6549011999996,down,0.5603331000002072,2,0,0,99,0.48,0.07999999999999997,down,0.48202710000077786,,,,,,,,,,,,,,,,,,,,,,,,,,,,,,,,,,,,,,,,,,,,,,,,,,,,,,,,,,,,9DNLX0,train_y,red_square,top_right,2025-01-20_15h05.53.525,HideSeek_v1,2022.2.5,59.42995971217878,
,8,8,8,5,0,-3,13,,train_dim1_1,17,30,,,,2,0,2,0,,,,,,,,,0,0,0,0,0,16,16,16,2,0,2,0,,,,,,,,,,,,,,,,,,,,,,,,,,,,,,,,,,,,,,,,,,,,,,,,,,,,,,,,,,,,,,,,30,,,,,,,,1688.2385250999996,1688.2385250999996,1688.2385250999996,1688.2385250999996,1688.2385250999996,down,0.6268898999996964,2,0,0,99,0.48,-2.7755575615628914e-17,down,0.5227577000014207,,,,,,,,,,,,,,,,,,,,,,,,,,,,,,,,,,,,,,,,,,,,,,,,,,,,,,,,,,,,9DNLX0,train_y,red_square,top_right,2025-01-20_15h05.53.525,HideSeek_v1,2022.2.5,59.42995971217878,
,8,8,8,5,0,-3,13,,train_dim1_1,17,30,,,,2,0,2,0,,,,,,,,,0,0,0,0,0,16,16,16,3,0,3,0,,,,,,,,,,,,,,,,,,,,,,,,,,,,,,,,,,,,,,,,,,,,,,,,,,,,,,,,,,,,,,,,30,,,,,,,,1688.8555347000001,1688.8555347000001,1688.8555347000001,1688.8555347000001,1688.8555347000001,return,0.8436346999997113,3,0,0,1,0.48,-2.7755575615628914e-17,return,0.752959200000987,-31,-3,0.48,-2.7755575615628914e-17,,,,,,,,,,,,,,,,,,,,,,,,,,,,,,,,,,,,,,,,,,,,,,,,,,,,,,,,9DNLX0,train_y,red_square,top_right,2025-01-20_15h05.53.525,HideSeek_v1,2022.2.5,59.42995971217878,
,7,6,7,1,0,-5,11,,train_dim1_1,18,30,,,,2,0,2,0,,,,,,,,,0,0,0,0,0,17,17,17,0,0,0,0,,,,,,,,,,,,,,,,,,,,,,,,,stimuli/alien_stimuli/11.png,,,,,,,,,,,,,,,,,,,,,,,,,,,,,stimuli/alien_stimuli/13.png,13,8,19,,,,,,,30,,,,,,,,1694.5984179999996,1694.5984179999996,1694.5984179999996,1694.5984179999996,1694.5984179999996,down,2.3400598999996873,3,0,0,99,0.4,0.0,down,2.255538500001421,,,,,1693.0406184999993,1694.5984179999996,0.48,0,0.24,0.0,0.12,0.48,0.48,0.48,0,1691.2699170999995,1691.2699170999995,1691.2699170999995,1691.2699170999995,1691.2699170999995,1691.2699170999995,1691.2699170999995,1691.2699170999995,1691.2558301399995,1.8870944000000236,return,1.74444350000158,,,,,,,,,,,,,,,,,,,,,,,,,,,,,,,,,9DNLX0,train_y,red_square,top_right,2025-01-20_15h05.53.525,HideSeek_v1,2022.2.5,59.42995971217878,
,7,6,7,1,0,-5,11,,train_dim1_1,18,30,,,,2,0,2,0,,,,,,,,,0,0,0,0,0,17,17,17,1,0,1,0,,,,,,,,,,,,,,,,,,,,,,,,,,,,,,,,,,,,,,,,,,,,,,,,,,,,,,,,,,,,,,,,30,,,,,,,,1696.9448508999994,1696.9448508999994,1696.9448508999994,1696.9448508999994,1696.9448508999994,down,0.5432603999997809,3,0,0,99,0.4,-0.08,down,0.45396590000109427,,,,,,,,,,,,,,,,,,,,,,,,,,,,,,,,,,,,,,,,,,,,,,,,,,,,,,,,,,,,9DNLX0,train_y,red_square,top_right,2025-01-20_15h05.53.525,HideSeek_v1,2022.2.5,59.42995971217878,
,7,6,7,1,0,-5,11,,train_dim1_1,18,30,,,,2,0,2,0,,,,,,,,,0,0,0,0,0,17,17,17,2,0,2,0,,,,,,,,,,,,,,,,,,,,,,,,,,,,,,,,,,,,,,,,,,,,,,,,,,,,,,,,,,,,,,,,30,,,,,,,,1697.4961321,1697.4961321,1697.4961321,1697.4961321,1697.4961321,down,0.5763837999993484,3,0,0,99,0.4,-0.16,down,0.4977208000000246,,,,,,,,,,,,,,,,,,,,,,,,,,,,,,,,,,,,,,,,,,,,,,,,,,,,,,,,,,,,9DNLX0,train_y,red_square,top_right,2025-01-20_15h05.53.525,HideSeek_v1,2022.2.5,59.42995971217878,
,7,6,7,1,0,-5,11,,train_dim1_1,18,30,,,,2,0,2,0,,,,,,,,,0,0,0,0,0,17,17,17,3,0,3,0,,,,,,,,,,,,,,,,,,,,,,,,,,,,,,,,,,,,,,,,,,,,,,,,,,,,,,,,,,,,,,,,30,,,,,,,,1698.0791721999994,1698.0791721999994,1698.0791721999994,1698.0791721999994,1698.0791721999994,down,0.5602810000000318,3,0,0,99,0.4,-0.24,down,0.4726206000004822,,,,,,,,,,,,,,,,,,,,,,,,,,,,,,,,,,,,,,,,,,,,,,,,,,,,,,,,,,,,9DNLX0,train_y,red_square,top_right,2025-01-20_15h05.53.525,HideSeek_v1,2022.2.5,59.42995971217878,
,7,6,7,1,0,-5,11,,train_dim1_1,18,30,,,,2,0,2,0,,,,,,,,,0,0,0,0,0,17,17,17,4,0,4,0,,,,,,,,,,,,,,,,,,,,,,,,,,,,,,,,,,,,,,,,,,,,,,,,,,,,,,,,,,,,,,,,30,,,,,,,,1698.6463305999996,1698.6463305999996,1698.6463305999996,1698.6463305999996,1698.6463305999996,down,1.0608631000004607,3,0,0,99,0.4,-0.32,down,0.9818704000008438,,,,,,,,,,,,,,,,,,,,,,,,,,,,,,,,,,,,,,,,,,,,,,,,,,,,,,,,,,,,9DNLX0,train_y,red_square,top_right,2025-01-20_15h05.53.525,HideSeek_v1,2022.2.5,59.42995971217878,
,7,6,7,1,0,-5,11,,train_dim1_1,18,30,,,,2,0,2,0,,,,,,,,,0,0,0,0,0,17,17,17,5,0,5,0,,,,,,,,,,,,,,,,,,,,,,,,,,,,,,,,,,,,,,,,,,,,,,,,,,,,,,,,,,,,,,,,30,,,,,,,,1699.7140230999994,1699.7140230999994,1699.7140230999994,1699.7140230999994,1699.7140230999994,return,0.8604546000005939,4,0,0,1,0.4,-0.32,return,0.774804600000607,-36,-3,0.4,-0.32,,,,,,,,,,,,,,,,,,,,,,,,,,,,,,,,,,,,,,,,,,,,,,,,,,,,,,,,9DNLX0,train_y,red_square,top_right,2025-01-20_15h05.53.525,HideSeek_v1,2022.2.5,59.42995971217878,
,5,9,5,5,0,-4,12,,train_dim1_1,19,30,,,,2,0,2,0,,,,,,,,,0,0,0,0,0,18,18,18,0,0,0,0,,,,,,,,,,,,,,,,,,,,,,,,,stimuli/alien_stimuli/12.png,,,,,,,,,,,,,,,,,,,,,,,,,,,,,stimuli/alien_stimuli/11.png,11,7,20,,,,,,,30,,,,,,,,1704.9567097,1704.9567097,1704.9567097,1704.9567097,1704.9567097,down,1.9897313999999824,4,0,0,99,0.24,0.24,down,1.9039216000001034,,,,,1703.3991300999996,1704.9567097,0.4,-0.32,0.4,0.0,-0.12,0.4,0.4,0.4,-0.32,1702.1468045000001,1702.1468045000001,1702.1468045000001,1702.1468045000001,1702.1468045000001,1702.1468045000001,1702.1468045000001,1702.1468045000001,1702.1317265399994,1.3701418999999078,return,1.2282202000005782,,,,,,,,,,,,,,,,,,,,,,,,,,,,,,,,,9DNLX0,train_y,red_square,top_right,2025-01-20_15h05.53.525,HideSeek_v1,2022.2.5,59.42995971217878,
,5,9,5,5,0,-4,12,,train_dim1_1,19,30,,,,2,0,2,0,,,,,,,,,0,0,0,0,0,18,18,18,1,0,1,0,,,,,,,,,,,,,,,,,,,,,,,,,,,,,,,,,,,,,,,,,,,,,,,,,,,,,,,,,,,,,,,,30,,,,,,,,1706.9537313,1706.9537313,1706.9537313,1706.9537313,1706.9537313,down,0.559621899999911,4,0,0,99,0.24,0.15999999999999998,down,0.47016850000090926,,,,,,,,,,,,,,,,,,,,,,,,,,,,,,,,,,,,,,,,,,,,,,,,,,,,,,,,,,,,9DNLX0,train_y,red_square,top_right,2025-01-20_15h05.53.525,HideSeek_v1,2022.2.5,59.42995971217878,
,5,9,5,5,0,-4,12,,train_dim1_1,19,30,,,,2,0,2,0,,,,,,,,,0,0,0,0,0,18,18,18,2,0,2,0,,,,,,,,,,,,,,,,,,,,,,,,,,,,,,,,,,,,,,,,,,,,,,,,,,,,,,,,,,,,,,,,30,,,,,,,,1707.5207033999995,1707.5207033999995,1707.5207033999995,1707.5207033999995,1707.5207033999995,down,0.5767637999997532,4,0,0,99,0.24,0.07999999999999997,down,0.4986943000012616,,,,,,,,,,,,,,,,,,,,,,,,,,,,,,,,,,,,,,,,,,,,,,,,,,,,,,,,,,,,9DNLX0,train_y,red_square,top_right,2025-01-20_15h05.53.525,HideSeek_v1,2022.2.5,59.42995971217878,
,5,9,5,5,0,-4,12,,train_dim1_1,19,30,,,,2,0,2,0,,,,,,,,,0,0,0,0,0,18,18,18,3,0,3,0,,,,,,,,,,,,,,,,,,,,,,,,,,,,,,,,,,,,,,,,,,,,,,,,,,,,,,,,,,,,,,,,30,,,,,,,,1708.1049806,1708.1049806,1708.1049806,1708.1049806,1708.1049806,down,0.943598199999542,4,0,0,99,0.24,-2.7755575615628914e-17,down,0.8534752000014123,,,,,,,,,,,,,,,,,,,,,,,,,,,,,,,,,,,,,,,,,,,,,,,,,,,,,,,,,,,,9DNLX0,train_y,red_square,top_right,2025-01-20_15h05.53.525,HideSeek_v1,2022.2.5,59.42995971217878,
,5,9,5,5,0,-4,12,,train_dim1_1,19,30,,,,2,0,2,0,,,,,,,,,0,0,0,0,0,18,18,18,4,0,4,0,,,,,,,,,,,,,,,,,,,,,,,,,,,,,,,,,,,,,,,,,,,,,,,,,,,,,,,,,,,,,,,,30,,,,,,,,1709.0546719999993,1709.0546719999993,1709.0546719999993,1709.0546719999993,1709.0546719999993,return,2.2282392999995864,5,0,0,1,0.24,-2.7755575615628914e-17,return,2.136716000000888,-40,-3,0.24,-2.7755575615628914e-17,,,,,,,,,,,,,,,,,,,,,,,,,,,,,,,,,,,,,,,,,,,,,,,,,,,,,,,,9DNLX0,train_y,red_square,top_right,2025-01-20_15h05.53.525,HideSeek_v1,2022.2.5,59.42995971217878,
,7,5,7,5,0,0,16,,train_dim1_1,20,30,,,,2,0,2,0,,,,,,,,,0,0,0,0,0,19,19,19,0,0,0,0,,,,,,,,,,,,,,,,,,,,,,,,,stimuli/alien_stimuli/16.png,,,,,,,,,,,,,,,,,,,,,,,,,,,,,stimuli/alien_stimuli/12.png,12,5,21,,,,,,,30,,,,,,,,1715.7166311,1715.7166311,1715.7166311,1715.7166311,1715.7166311,down,3.7904238000000987,5,0,0,99,0.4,-0.08,down,3.705186100000901,,,,,1714.1580757000002,1715.7166311,0.24,0,0.32,0.0,0.16,0.24,0.24,0.24,0,1712.8571512999997,1712.8571512999997,1712.8571512999997,1712.8571512999997,1712.8571512999997,1712.8571512999997,1712.8571512999997,1712.8571512999997,1712.8572735599998,1.4200227999999697,return,1.2827522000006866,,,,,,,,,,,,,,,,,,,,,,,,,,,,,,,,,9DNLX0,train_y,red_square,top_right,2025-01-20_15h05.53.525,HideSeek_v1,2022.2.5,59.42995971217878,
,7,5,7,5,0,0,16,,train_dim1_1,20,30,,,,2,0,2,0,,,,,,,,,0,0,0,0,0,19,19,19,1,0,1,0,,,,,,,,,,,,,,,,,,,,,,,,,,,,,,,,,,,,,,,,,,,,,,,,,,,,,,,,,,,,,,,,30,,,,,,,,1719.5139634999996,1719.5139634999996,1719.5139634999996,1719.5139634999996,1719.5139634999996,return,0.6267407999994248,5,1,0,0,0.4,-0.08,return,0.5345340000012584,-41,-3,0.4,-0.08,,,,,,,,,,,,,,,,,,,,,,,,,,,,,,,,,,,,,,,,,,,,,,,,,,,,,,,,9DNLX0,train_y,red_square,top_right,2025-01-20_15h05.53.525,HideSeek_v1,2022.2.5,59.42995971217878,
,7,9,7,8,0,-1,15,,train_dim1_1,21,30,,,,2,0,2,0,,,,,,,,,0,0,0,0,0,20,20,20,0,0,0,0,,,,,,,,,,,,,,,,,,,,,,,,,stimuli/alien_stimuli/15.png,,,,,,,,,,,,,,,,,,,,,,,,,,,,,stimuli/alien_stimuli/16.png,16,7,22,,,,,,,30,,,,,,,,1725.5904852999993,1725.5904852999993,1725.5904852999993,1725.5904852999993,1725.5904852999993,return,2.6902696999995896,5,1,0,0,0.4,0.32,return,2.6078847000007954,-41,-3,0.4,0.32,1724.0329733999997,1725.5904852999993,0.4,0,0.0,0.0,0.0,0.4,0.4,0.4,0,1721.6928275,1721.6928275,1721.6928275,1721.6928275,1721.6928275,1721.6928275,1721.6928275,1721.6928275,1721.68128922,2.4372604000000138,return,2.3154173000011724,,,,,,,,,,,,,,,,,,,,,,,,,,,,,,,,,9DNLX0,train_y,red_square,top_right,2025-01-20_15h05.53.525,HideSeek_v1,2022.2.5,59.42995971217878,
,5,7,5,4,0,-3,13,,train_dim1_1,22,30,,,,2,0,2,0,,,,,,,,,0,0,0,0,0,21,21,21,0,0,0,0,,,,,,,,,,,,,,,,,,,,,,,,,stimuli/alien_stimuli/13.png,,,,,,,,,,,,,,,,,,,,,,,,,,,,,stimuli/alien_stimuli/15.png,15,7,23,,,,,,,30,,,,,,,,1733.0309087999995,1733.0309087999995,1733.0309087999995,1733.0309087999995,1733.0309087999995,down,2.155020600000171,5,1,0,99,0.24,0.08,down,2.073971600000732,,,,,1731.4724143999993,1733.0309087999995,0.4,0.24,0.08,0.0,0.28,0.4,0.4,0.4,0.24,1729.8379734,1729.8379734,1729.8379734,1729.8379734,1729.8379734,1729.8379734,1729.8379734,1729.8379734,1729.8379623399996,1.737065899999834,return,1.6024244000009276,,,,,,,,,,,,,,,,,,,,,,,,,,,,,,,,,9DNLX0,train_y,red_square,top_right,2025-01-20_15h05.53.525,HideSeek_v1,2022.2.5,59.42995971217878,
,5,7,5,4,0,-3,13,,train_dim1_1,22,30,,,,2,0,2,0,,,,,,,,,0,0,0,0,0,21,21,21,1,0,1,0,,,,,,,,,,,,,,,,,,,,,,,,,,,,,,,,,,,,,,,,,,,,,,,,,,,,,,,,,,,,,,,,30,,,,,,,,1735.1942751999995,1735.1942751999995,1735.1942751999995,1735.1942751999995,1735.1942751999995,down,0.7090776000004553,5,1,0,99,0.24,0.0,down,0.6219923000007839,,,,,,,,,,,,,,,,,,,,,,,,,,,,,,,,,,,,,,,,,,,,,,,,,,,,,,,,,,,,9DNLX0,train_y,red_square,top_right,2025-01-20_15h05.53.525,HideSeek_v1,2022.2.5,59.42995971217878,
,5,7,5,4,0,-3,13,,train_dim1_1,22,30,,,,2,0,2,0,,,,,,,,,0,0,0,0,0,21,21,21,2,0,2,0,,,,,,,,,,,,,,,,,,,,,,,,,,,,,,,,,,,,,,,,,,,,,,,,,,,,,,,,,,,,,,,,30,,,,,,,,1735.9098624999997,1735.9098624999997,1735.9098624999997,1735.9098624999997,1735.9098624999997,down,0.8937581999998656,5,1,0,99,0.24,-0.08,down,0.8015113999999812,,,,,,,,,,,,,,,,,,,,,,,,,,,,,,,,,,,,,,,,,,,,,,,,,,,,,,,,,,,,9DNLX0,train_y,red_square,top_right,2025-01-20_15h05.53.525,HideSeek_v1,2022.2.5,59.42995971217878,
,5,7,5,4,0,-3,13,,train_dim1_1,22,30,,,,2,0,2,0,,,,,,,,,0,0,0,0,0,21,21,21,3,0,3,0,,,,,,,,,,,,,,,,,,,,,,,,,,,,,,,,,,,,,,,,,,,,,,,,,,,,,,,,,,,,,,,,30,,,,,,,,1736.8101182999999,1736.8101182999999,1736.8101182999999,1736.8101182999999,1736.8101182999999,return,2.795731400000477,6,0,0,1,0.24,-0.08,return,2.7134679000009783,-44,-3,0.24,-0.08,,,,,,,,,,,,,,,,,,,,,,,,,,,,,,,,,,,,,,,,,,,,,,,,,,,,,,,,9DNLX0,train_y,red_square,top_right,2025-01-20_15h05.53.525,HideSeek_v1,2022.2.5,59.42995971217878,
,5,8,5,3,0,-5,11,,train_dim1_1,23,30,,,,2,0,2,0,,,,,,,,,0,0,0,0,0,22,22,22,0,0,0,0,,,,,,,,,,,,,,,,,,,,,,,,,stimuli/alien_stimuli/11.png,,,,,,,,,,,,,,,,,,,,,,,,,,,,,stimuli/alien_stimuli/13.png,13,5,24,,,,,,,30,,,,,,,,1743.8507249999993,1743.8507249999993,1743.8507249999993,1743.8507249999993,1743.8507249999993,down,3.0394468000004053,6,0,0,99,0.24,0.15999999999999998,down,2.9401917000004687,,,,,1742.2814528999997,1743.8507249999993,0.24,-0.08,0.24,0.0,0.04,0.24,0.24,0.24,-0.08,1741.1779821,1741.1779821,1741.1779821,1741.1779821,1741.1779821,1741.1779821,1741.1779821,1741.1779821,1741.1640441399995,1.2197039000002405,return,1.0812808000009682,,,,,,,,,,,,,,,,,,,,,,,,,,,,,,,,,9DNLX0,train_y,red_square,top_right,2025-01-20_15h05.53.525,HideSeek_v1,2022.2.5,59.42995971217878,
,5,8,5,3,0,-5,11,,train_dim1_1,23,30,,,,2,0,2,0,,,,,,,,,0,0,0,0,0,22,22,22,1,0,1,0,,,,,,,,,,,,,,,,,,,,,,,,,,,,,,,,,,,,,,,,,,,,,,,,,,,,,,,,,,,,,,,,30,,,,,,,,1746.8902801999993,1746.8902801999993,1746.8902801999993,1746.8902801999993,1746.8902801999993,down,0.47581929999978456,6,0,0,99,0.24,0.07999999999999997,down,0.38144670000019687,,,,,,,,,,,,,,,,,,,,,,,,,,,,,,,,,,,,,,,,,,,,,,,,,,,,,,,,,,,,9DNLX0,train_y,red_square,top_right,2025-01-20_15h05.53.525,HideSeek_v1,2022.2.5,59.42995971217878,
,5,8,5,3,0,-5,11,,train_dim1_1,23,30,,,,2,0,2,0,,,,,,,,,0,0,0,0,0,22,22,22,2,0,2,0,,,,,,,,,,,,,,,,,,,,,,,,,,,,,,,,,,,,,,,,,,,,,,,,,,,,,,,,,,,,,,,,30,,,,,,,,1747.3695558,1747.3695558,1747.3695558,1747.3695558,1747.3695558,down,0.47701280000001134,6,0,0,99,0.24,-2.7755575615628914e-17,down,0.39952590000029886,,,,,,,,,,,,,,,,,,,,,,,,,,,,,,,,,,,,,,,,,,,,,,,,,,,,,,,,,,,,9DNLX0,train_y,red_square,top_right,2025-01-20_15h05.53.525,HideSeek_v1,2022.2.5,59.42995971217878,
,5,8,5,3,0,-5,11,,train_dim1_1,23,30,,,,2,0,2,0,,,,,,,,,0,0,0,0,0,22,22,22,3,0,3,0,,,,,,,,,,,,,,,,,,,,,,,,,,,,,,,,,,,,,,,,,,,,,,,,,,,,,,,,,,,,,,,,30,,,,,,,,1747.8536629,1747.8536629,1747.8536629,1747.8536629,1747.8536629,down,0.509999500000049,6,0,0,99,0.24,-0.08000000000000003,down,0.4277419000009104,,,,,,,,,,,,,,,,,,,,,,,,,,,,,,,,,,,,,,,,,,,,,,,,,,,,,,,,,,,,9DNLX0,train_y,red_square,top_right,2025-01-20_15h05.53.525,HideSeek_v1,2022.2.5,59.42995971217878,
,5,8,5,3,0,-5,11,,train_dim1_1,23,30,,,,2,0,2,0,,,,,,,,,0,0,0,0,0,22,22,22,4,0,4,0,,,,,,,,,,,,,,,,,,,,,,,,,,,,,,,,,,,,,,,,,,,,,,,,,,,,,,,,,,,,,,,,30,,,,,,,,1748.3707519999998,1748.3707519999998,1748.3707519999998,1748.3707519999998,1748.3707519999998,down,0.6270595999994839,6,0,0,99,0.24,-0.16000000000000003,down,0.544980000000578,,,,,,,,,,,,,,,,,,,,,,,,,,,,,,,,,,,,,,,,,,,,,,,,,,,,,,,,,,,,9DNLX0,train_y,red_square,top_right,2025-01-20_15h05.53.525,HideSeek_v1,2022.2.5,59.42995971217878,
,5,8,5,3,0,-5,11,,train_dim1_1,23,30,,,,2,0,2,0,,,,,,,,,0,0,0,0,0,22,22,22,5,0,5,0,,,,,,,,,,,,,,,,,,,,,,,,,,,,,,,,,,,,,,,,,,,,,,,,,,,,,,,,,,,,,,,,30,,,,,,,,1749.0049248999994,1749.0049248999994,1749.0049248999994,1749.0049248999994,1749.0049248999994,down,0.1432070000000749,6,0,0,99,0.24,-0.24000000000000005,down,0.050843900000472786,,,,,,,,,,,,,,,,,,,,,,,,,,,,,,,,,,,,,,,,,,,,,,,,,,,,,,,,,,,,9DNLX0,train_y,red_square,top_right,2025-01-20_15h05.53.525,HideSeek_v1,2022.2.5,59.42995971217878,
,5,8,5,3,0,-5,11,,train_dim1_1,23,30,,,,2,0,2,0,,,,,,,,,0,0,0,0,0,22,22,22,6,0,6,0,,,,,,,,,,,,,,,,,,,,,,,,,,,,,,,,,,,,,,,,,,,,,,,,,,,,,,,,,,,,,,,,30,,,,,,,,1749.1537524999994,1749.1537524999994,1749.1537524999994,1749.1537524999994,1749.1537524999994,up,1.2778142999995907,6,0,0,99,0.24,-0.16000000000000003,up,1.193835000000945,,,,,,,,,,,,,,,,,,,,,,,,,,,,,,,,,,,,,,,,,,,,,,,,,,,,,,,,,,,,9DNLX0,train_y,red_square,top_right,2025-01-20_15h05.53.525,HideSeek_v1,2022.2.5,59.42995971217878,
,5,8,5,3,0,-5,11,,train_dim1_1,23,30,,,,2,0,2,0,,,,,,,,,0,0,0,0,0,22,22,22,7,0,7,0,,,,,,,,,,,,,,,,,,,,,,,,,,,,,,,,,,,,,,,,,,,,,,,,,,,,,,,,,,,,,,,,30,,,,,,,,1750.4389787,1750.4389787,1750.4389787,1750.4389787,1750.4389787,return,2.9452682999999524,7,0,0,1,0.24,-0.16000000000000003,return,2.8632012000007308,-49,-3,0.24,-0.16000000000000003,,,,,,,,,,,,,,,,,,,,,,,,,,,,,,,,,,,,,,,,,,,,,,,,,,,,,,,,9DNLX0,train_y,red_square,top_right,2025-01-20_15h05.53.525,HideSeek_v1,2022.2.5,59.42995971217878,
,8,7,8,7,0,0,16,,train_dim1_1,24,30,,,,2,0,2,0,,,,,,,,,0,0,0,0,0,23,23,23,0,0,0,0,,,,,,,,,,,,,,,,,,,,,,,,,stimuli/alien_stimuli/16.png,,,,,,,,,,,,,,,,,,,,,,,,,,,,,stimuli/alien_stimuli/11.png,11,5,25,,,,,,,30,,,,,,,,1757.8348188,1757.8348188,1757.8348188,1757.8348188,1757.8348188,return,2.6557005999993635,8,0,0,1,0.48,0.16,return,2.5661218000004737,-49,-3,0.48,0.16,1756.2765313,1757.8348188,0.24,-0.16,0.4,0.0,0.039999999999999994,0.24,0.24,0.24,-0.16,1754.9568714999996,1754.9568714999996,1754.9568714999996,1754.9568714999996,1754.9568714999996,1754.9568714999996,1754.9568714999996,1754.9568714999996,1754.9421094399995,1.4366384000004473,return,1.2953115000009348,,,,,,,,,,,,,,,,,,,,,,,,,,,,,,,,,9DNLX0,train_y,red_square,top_right,2025-01-20_15h05.53.525,HideSeek_v1,2022.2.5,59.42995971217878,
,8,8,8,4,0,-4,12,,train_dim1_1,25,30,,,,2,0,2,0,,,,,,,,,0,0,0,0,0,24,24,24,0,0,0,0,,,,,,,,,,,,,,,,,,,,,,,,,stimuli/alien_stimuli/12.png,,,,,,,,,,,,,,,,,,,,,,,,,,,,,stimuli/alien_stimuli/16.png,16,8,26,,,,,,,30,,,,,,,,1765.0575524999995,1765.0575524999995,1765.0575524999995,1765.0575524999995,1765.0575524999995,down,2.355529999999817,8,0,0,99,0.48,0.15999999999999998,down,2.274534400000448,,,,,1763.4989286,1765.0575524999995,0.48,0.16,0.0,0.0,0.16,0.48,0.48,0.48,0.16,1762.0459074999999,1762.0459074999999,1762.0459074999999,1762.0459074999999,1762.0459074999999,1762.0459074999999,1762.0459074999999,1762.0459074999999,1762.0313133199993,1.5534051000004183,return,1.4247962000008556,,,,,,,,,,,,,,,,,,,,,,,,,,,,,,,,,9DNLX0,train_y,red_square,top_right,2025-01-20_15h05.53.525,HideSeek_v1,2022.2.5,59.42995971217878,
,8,8,8,4,0,-4,12,,train_dim1_1,25,30,,,,2,0,2,0,,,,,,,,,0,0,0,0,0,24,24,24,1,0,1,0,,,,,,,,,,,,,,,,,,,,,,,,,,,,,,,,,,,,,,,,,,,,,,,,,,,,,,,,,,,,,,,,30,,,,,,,,1767.4197476,1767.4197476,1767.4197476,1767.4197476,1767.4197476,down,0.4932167999995727,8,0,0,99,0.48,0.07999999999999997,down,0.41394690000106493,,,,,,,,,,,,,,,,,,,,,,,,,,,,,,,,,,,,,,,,,,,,,,,,,,,,,,,,,,,,9DNLX0,train_y,red_square,top_right,2025-01-20_15h05.53.525,HideSeek_v1,2022.2.5,59.42995971217878,
,8,8,8,4,0,-4,12,,train_dim1_1,25,30,,,,2,0,2,0,,,,,,,,,0,0,0,0,0,24,24,24,2,0,2,0,,,,,,,,,,,,,,,,,,,,,,,,,,,,,,,,,,,,,,,,,,,,,,,,,,,,,,,,,,,,,,,,30,,,,,,,,1767.9209141000001,1767.9209141000001,1767.9209141000001,1767.9209141000001,1767.9209141000001,down,0.49360949999936565,8,0,0,99,0.48,-2.7755575615628914e-17,down,0.4106362000002264,,,,,,,,,,,,,,,,,,,,,,,,,,,,,,,,,,,,,,,,,,,,,,,,,,,,,,,,,,,,9DNLX0,train_y,red_square,top_right,2025-01-20_15h05.53.525,HideSeek_v1,2022.2.5,59.42995971217878,
,8,8,8,4,0,-4,12,,train_dim1_1,25,30,,,,2,0,2,0,,,,,,,,,0,0,0,0,0,24,24,24,3,0,3,0,,,,,,,,,,,,,,,,,,,,,,,,,,,,,,,,,,,,,,,,,,,,,,,,,,,,,,,,,,,,,,,,30,,,,,,,,1768.4215199999999,1768.4215199999999,1768.4215199999999,1768.4215199999999,1768.4215199999999,down,0.6601288000001659,8,0,0,99,0.48,-0.08000000000000003,down,0.5819937000005666,,,,,,,,,,,,,,,,,,,,,,,,,,,,,,,,,,,,,,,,,,,,,,,,,,,,,,,,,,,,9DNLX0,train_y,red_square,top_right,2025-01-20_15h05.53.525,HideSeek_v1,2022.2.5,59.42995971217878,
,8,8,8,4,0,-4,12,,train_dim1_1,25,30,,,,2,0,2,0,,,,,,,,,0,0,0,0,0,24,24,24,4,0,4,0,,,,,,,,,,,,,,,,,,,,,,,,,,,,,,,,,,,,,,,,,,,,,,,,,,,,,,,,,,,,,,,,30,,,,,,,,1769.0882387000001,1769.0882387000001,1769.0882387000001,1769.0882387000001,1769.0882387000001,down,1.2606445000001258,8,0,0,99,0.48,-0.16000000000000003,down,1.1814595000014378,,,,,,,,,,,,,,,,,,,,,,,,,,,,,,,,,,,,,,,,,,,,,,,,,,,,,,,,,,,,9DNLX0,train_y,red_square,top_right,2025-01-20_15h05.53.525,HideSeek_v1,2022.2.5,59.42995971217878,
,8,8,8,4,0,-4,12,,train_dim1_1,25,30,,,,2,0,2,0,,,,,,,,,0,0,0,0,0,24,24,24,5,0,5,0,,,,,,,,,,,,,,,,,,,,,,,,,,,,,,,,,,,,,,,,,,,,,,,,,,,,,,,,,,,,,,,,30,,,,,,,,1770.3552442,1770.3552442,1770.3552442,1770.3552442,1770.3552442,return,0.9271103999999468,8,1,0,0,0.48,-0.16000000000000003,return,0.8513627000002089,-54,-3,0.48,-0.16000000000000003,,,,,,,,,,,,,,,,,,,,,,,,,,,,,,,,,,,,,,,,,,,,,,,,,,,,,,,,9DNLX0,train_y,red_square,top_right,2025-01-20_15h05.53.525,HideSeek_v1,2022.2.5,59.42995971217878,
,9,9,9,6,0,-3,13,,train_dim1_1,26,30,,,,2,0,2,0,,,,,,,,,0,0,0,0,0,25,25,25,0,0,0,0,,,,,,,,,,,,,,,,,,,,,,,,,stimuli/alien_stimuli/13.png,,,,,,,,,,,,,,,,,,,,,,,,,,,,,stimuli/alien_stimuli/12.png,12,8,27,,,,,,,30,,,,,,,,1776.4313418000002,1776.4313418000002,1776.4313418000002,1776.4313418000002,1776.4313418000002,down,2.1395969000004698,8,1,0,99,0.56,0.24,down,2.0570016000010583,,,,,1774.8751556999996,1776.4313418000002,0.48,-0.08,0.32,0.0,0.07999999999999999,0.48,0.48,0.48,-0.08,1772.8521504999999,1772.8521504999999,1772.8521504999999,1772.8521504999999,1772.8521504999999,1772.8521504999999,1772.8521504999999,1772.8521504999999,1772.8402483399996,2.137439300000551,return,1.9999356000007538,,,,,,,,,,,,,,,,,,,,,,,,,,,,,,,,,9DNLX0,train_y,red_square,top_right,2025-01-20_15h05.53.525,HideSeek_v1,2022.2.5,59.42995971217878,
,9,9,9,6,0,-3,13,,train_dim1_1,26,30,,,,2,0,2,0,,,,,,,,,0,0,0,0,0,25,25,25,1,0,1,0,,,,,,,,,,,,,,,,,,,,,,,,,,,,,,,,,,,,,,,,,,,,,,,,,,,,,,,,,,,,,,,,30,,,,,,,,1778.5784804999994,1778.5784804999994,1778.5784804999994,1778.5784804999994,1778.5784804999994,down,0.5261983999998847,8,1,0,99,0.56,0.15999999999999998,down,0.4497384000005695,,,,,,,,,,,,,,,,,,,,,,,,,,,,,,,,,,,,,,,,,,,,,,,,,,,,,,,,,,,,9DNLX0,train_y,red_square,top_right,2025-01-20_15h05.53.525,HideSeek_v1,2022.2.5,59.42995971217878,
,9,9,9,6,0,-3,13,,train_dim1_1,26,30,,,,2,0,2,0,,,,,,,,,0,0,0,0,0,25,25,25,2,0,2,0,,,,,,,,,,,,,,,,,,,,,,,,,,,,,,,,,,,,,,,,,,,,,,,,,,,,,,,,,,,,,,,,30,,,,,,,,1779.1121024999993,1779.1121024999993,1779.1121024999993,1779.1121024999993,1779.1121024999993,down,0.677011599999787,8,1,0,99,0.56,0.07999999999999997,down,0.5956213000008574,,,,,,,,,,,,,,,,,,,,,,,,,,,,,,,,,,,,,,,,,,,,,,,,,,,,,,,,,,,,9DNLX0,train_y,red_square,top_right,2025-01-20_15h05.53.525,HideSeek_v1,2022.2.5,59.42995971217878,
,9,9,9,6,0,-3,13,,train_dim1_1,26,30,,,,2,0,2,0,,,,,,,,,0,0,0,0,0,25,25,25,3,0,3,0,,,,,,,,,,,,,,,,,,,,,,,,,,,,,,,,,,,,,,,,,,,,,,,,,,,,,,,,,,,,,,,,30,,,,,,,,1779.7967736,1779.7967736,1779.7967736,1779.7967736,1779.7967736,return,1.1940331999994669,9,0,0,1,0.56,0.07999999999999997,return,1.1045281000015166,-57,-3,0.56,0.07999999999999997,,,,,,,,,,,,,,,,,,,,,,,,,,,,,,,,,,,,,,,,,,,,,,,,,,,,,,,,9DNLX0,train_y,red_square,top_right,2025-01-20_15h05.53.525,HideSeek_v1,2022.2.5,59.42995971217878,
,8,9,8,9,0,0,16,,train_dim1_1,27,30,,,,2,0,2,0,,,,,,,,,0,0,0,0,0,26,26,26,0,0,0,0,,,,,,,,,,,,,,,,,,,,,,,,,stimuli/alien_stimuli/16.png,,,,,,,,,,,,,,,,,,,,,,,,,,,,,stimuli/alien_stimuli/13.png,13,9,28,,,,,,,30,,,,,,,,1785.7226605999995,1785.7226605999995,1785.7226605999995,1785.7226605999995,1785.7226605999995,down,3.257280400000127,9,0,0,99,0.48,0.24,down,3.172356600000967,,,,,1784.1663282999998,1785.7226605999995,0.56,0.08,0.24,0.0,0.2,0.56,0.56,0.56,0.08,1782.5480768999996,1782.5480768999996,1782.5480768999996,1782.5480768999996,1782.5480768999996,1782.5480768999996,1782.5480768999996,1782.5480768999996,1782.5483391399994,1.7201445000000604,return,1.5892221000003701,,,,,,,,,,,,,,,,,,,,,,,,,,,,,,,,,9DNLX0,train_y,red_square,top_right,2025-01-20_15h05.53.525,HideSeek_v1,2022.2.5,59.42995971217878,
,8,9,8,9,0,0,16,,train_dim1_1,27,30,,,,2,0,2,0,,,,,,,,,0,0,0,0,0,26,26,26,1,0,1,0,,,,,,,,,,,,,,,,,,,,,,,,,,,,,,,,,,,,,,,,,,,,,,,,,,,,,,,,,,,,,,,,30,,,,,,,,1788.9882247999994,1788.9882247999994,1788.9882247999994,1788.9882247999994,1788.9882247999994,return,0.7266583000000537,9,1,0,0,0.48,0.24,return,0.6339667000011104,-58,-3,0.48,0.24,,,,,,,,,,,,,,,,,,,,,,,,,,,,,,,,,,,,,,,,,,,,,,,,,,,,,,,,9DNLX0,train_y,red_square,top_right,2025-01-20_15h05.53.525,HideSeek_v1,2022.2.5,59.42995971217878,
,9,6,9,1,0,-5,11,,train_dim1_1,28,30,,,,2,0,2,0,,,,,,,,,0,0,0,0,0,27,27,27,0,0,0,0,,,,,,,,,,,,,,,,,,,,,,,,,stimuli/alien_stimuli/11.png,,,,,,,,,,,,,,,,,,,,,,,,,,,,,stimuli/alien_stimuli/16.png,16,8,29,,,,,,,30,,,,,,,,1794.7153386,1794.7153386,1794.7153386,1794.7153386,1794.7153386,down,4.0907616000004055,9,1,0,99,0.56,0.0,down,4.000275800000054,,,,,1793.1570275999993,1794.7153386,0.48,0.32,0.0,0.0,0.32,0.48,0.48,0.48,0.32,1791.2688717,1791.2688717,1791.2688717,1791.2688717,1791.2688717,1791.2688717,1791.2688717,1791.2688717,1791.2556899199994,1.9868246000005456,return,1.8667835000005653,,,,,,,,,,,,,,,,,,,,,,,,,,,,,,,,,9DNLX0,train_y,red_square,top_right,2025-01-20_15h05.53.525,HideSeek_v1,2022.2.5,59.42995971217878,
,9,6,9,1,0,-5,11,,train_dim1_1,28,30,,,,2,0,2,0,,,,,,,,,0,0,0,0,0,27,27,27,1,0,1,0,,,,,,,,,,,,,,,,,,,,,,,,,,,,,,,,,,,,,,,,,,,,,,,,,,,,,,,,,,,,,,,,30,,,,,,,,1798.8222323,1798.8222323,1798.8222323,1798.8222323,1798.8222323,down,0.40940890000001673,9,1,0,99,0.56,-0.08,down,0.3083907000009276,,,,,,,,,,,,,,,,,,,,,,,,,,,,,,,,,,,,,,,,,,,,,,,,,,,,,,,,,,,,9DNLX0,train_y,red_square,top_right,2025-01-20_15h05.53.525,HideSeek_v1,2022.2.5,59.42995971217878,
,9,6,9,1,0,-5,11,,train_dim1_1,28,30,,,,2,0,2,0,,,,,,,,,0,0,0,0,0,27,27,27,2,0,2,0,,,,,,,,,,,,,,,,,,,,,,,,,,,,,,,,,,,,,,,,,,,,,,,,,,,,,,,,,,,,,,,,30,,,,,,,,1799.2293636999993,1799.2293636999993,1799.2293636999993,1799.2293636999993,1799.2293636999993,down,0.41014849999919534,9,1,0,99,0.56,-0.16,down,0.3183225000011589,,,,,,,,,,,,,,,,,,,,,,,,,,,,,,,,,,,,,,,,,,,,,,,,,,,,,,,,,,,,9DNLX0,train_y,red_square,top_right,2025-01-20_15h05.53.525,HideSeek_v1,2022.2.5,59.42995971217878,
,9,6,9,1,0,-5,11,,train_dim1_1,28,30,,,,2,0,2,0,,,,,,,,,0,0,0,0,0,27,27,27,3,0,3,0,,,,,,,,,,,,,,,,,,,,,,,,,,,,,,,,,,,,,,,,,,,,,,,,,,,,,,,,,,,,,,,,30,,,,,,,,1799.6469823999996,1799.6469823999996,1799.6469823999996,1799.6469823999996,1799.6469823999996,down,0.4435616000000664,9,1,0,99,0.56,-0.24,down,0.3531250000005457,,,,,,,,,,,,,,,,,,,,,,,,,,,,,,,,,,,,,,,,,,,,,,,,,,,,,,,,,,,,9DNLX0,train_y,red_square,top_right,2025-01-20_15h05.53.525,HideSeek_v1,2022.2.5,59.42995971217878,
,9,6,9,1,0,-5,11,,train_dim1_1,28,30,,,,2,0,2,0,,,,,,,,,0,0,0,0,0,27,27,27,4,0,4,0,,,,,,,,,,,,,,,,,,,,,,,,,,,,,,,,,,,,,,,,,,,,,,,,,,,,,,,,,,,,,,,,30,,,,,,,,1800.0972941999999,1800.0972941999999,1800.0972941999999,1800.0972941999999,1800.0972941999999,down,0.4435012000003553,9,1,0,99,0.56,-0.32,down,0.35749370000121417,,,,,,,,,,,,,,,,,,,,,,,,,,,,,,,,,,,,,,,,,,,,,,,,,,,,,,,,,,,,9DNLX0,train_y,red_square,top_right,2025-01-20_15h05.53.525,HideSeek_v1,2022.2.5,59.42995971217878,
,9,6,9,1,0,-5,11,,train_dim1_1,28,30,,,,2,0,2,0,,,,,,,,,0,0,0,0,0,27,27,27,5,0,5,0,,,,,,,,,,,,,,,,,,,,,,,,,,,,,,,,,,,,,,,,,,,,,,,,,,,,,,,,,,,,,,,,30,,,,,,,,1800.5470276999995,1800.5470276999995,1800.5470276999995,1800.5470276999995,1800.5470276999995,return,0.7771142999999938,10,0,0,1,0.56,-0.32,return,0.6936745000011797,-63,-3,0.56,-0.32,,,,,,,,,,,,,,,,,,,,,,,,,,,,,,,,,,,,,,,,,,,,,,,,,,,,,,,,9DNLX0,train_y,red_square,top_right,2025-01-20_15h05.53.525,HideSeek_v1,2022.2.5,59.42995971217878,
,7,7,7,3,0,-4,12,,train_dim1_1,29,30,,,,2,0,2,0,,,,,,,,,0,0,0,0,0,28,28,28,0,0,0,0,,,,,,,,,,,,,,,,,,,,,,,,,stimuli/alien_stimuli/12.png,,,,,,,,,,,,,,,,,,,,,,,,,,,,,stimuli/alien_stimuli/11.png,11,9,30,,,,,,,30,,,,,,,,1805.5765574999996,1805.5765574999996,1805.5765574999996,1805.5765574999996,1805.5765574999996,down,3.7038230999996813,10,0,0,99,0.4,0.08,down,3.6226649000009274,,,,,1804.0162586999995,1805.5765574999996,0.56,-0.32,0.4,0.0,-0.12,0.56,0.56,0.56,-0.32,1802.8964357999994,1802.8964357999994,1802.8964357999994,1802.8964357999994,1802.8964357999994,1802.8964357999994,1802.8964357999994,1802.8964357999994,1802.88190864,1.2364715000003343,return,1.0941664000001765,,,,,,,,,,,,,,,,,,,,,,,,,,,,,,,,,9DNLX0,train_y,red_square,top_right,2025-01-20_15h05.53.525,HideSeek_v1,2022.2.5,59.42995971217878,
,7,7,7,3,0,-4,12,,train_dim1_1,29,30,,,,2,0,2,0,,,,,,,,,0,0,0,0,0,28,28,28,1,0,1,0,,,,,,,,,,,,,,,,,,,,,,,,,,,,,,,,,,,,,,,,,,,,,,,,,,,,,,,,,,,,,,,,30,,,,,,,,1809.2889337999995,1809.2889337999995,1809.2889337999995,1809.2889337999995,1809.2889337999995,down,0.542754000000059,10,0,0,99,0.4,0.0,down,0.45509990000118705,,,,,,,,,,,,,,,,,,,,,,,,,,,,,,,,,,,,,,,,,,,,,,,,,,,,,,,,,,,,9DNLX0,train_y,red_square,top_right,2025-01-20_15h05.53.525,HideSeek_v1,2022.2.5,59.42995971217878,
,7,7,7,3,0,-4,12,,train_dim1_1,29,30,,,,2,0,2,0,,,,,,,,,0,0,0,0,0,28,28,28,2,0,2,0,,,,,,,,,,,,,,,,,,,,,,,,,,,,,,,,,,,,,,,,,,,,,,,,,,,,,,,,,,,,,,,,30,,,,,,,,1809.8386806999997,1809.8386806999997,1809.8386806999997,1809.8386806999997,1809.8386806999997,down,0.6436698999996224,10,0,0,99,0.4,-0.08,down,0.5609542000011061,,,,,,,,,,,,,,,,,,,,,,,,,,,,,,,,,,,,,,,,,,,,,,,,,,,,,,,,,,,,9DNLX0,train_y,red_square,top_right,2025-01-20_15h05.53.525,HideSeek_v1,2022.2.5,59.42995971217878,
,7,7,7,3,0,-4,12,,train_dim1_1,29,30,,,,2,0,2,0,,,,,,,,,0,0,0,0,0,28,28,28,3,0,3,0,,,,,,,,,,,,,,,,,,,,,,,,,,,,,,,,,,,,,,,,,,,,,,,,,,,,,,,,,,,,,,,,30,,,,,,,,1810.4885199999999,1810.4885199999999,1810.4885199999999,1810.4885199999999,1810.4885199999999,down,0.7938664000002973,10,0,0,99,0.4,-0.16,down,0.7072342000010394,,,,,,,,,,,,,,,,,,,,,,,,,,,,,,,,,,,,,,,,,,,,,,,,,,,,,,,,,,,,9DNLX0,train_y,red_square,top_right,2025-01-20_15h05.53.525,HideSeek_v1,2022.2.5,59.42995971217878,
,7,7,7,3,0,-4,12,,train_dim1_1,29,30,,,,2,0,2,0,,,,,,,,,0,0,0,0,0,28,28,28,4,0,4,0,,,,,,,,,,,,,,,,,,,,,,,,,,,,,,,,,,,,,,,,,,,,,,,,,,,,,,,,,,,,,,,,30,,,,,,,,1811.2896596,1811.2896596,1811.2896596,1811.2896596,1811.2896596,return,3.8295828000000256,11,0,0,1,0.4,-0.16,return,3.7435595000006288,-67,-3,0.4,-0.16,,,,,,,,,,,,,,,,,,,,,,,,,,,,,,,,,,,,,,,,,,,,,,,,,,,,,,,,9DNLX0,train_y,red_square,top_right,2025-01-20_15h05.53.525,HideSeek_v1,2022.2.5,59.42995971217878,
,5,6,5,5,0,-1,15,,train_dim1_1,30,30,,,,2,0,2,0,,,,,,,,,0,0,0,0,0,29,29,29,0,0,0,0,,,,,,,,,,,,,,,,,,,,,,,,,stimuli/alien_stimuli/15.png,,,,,,,,,,,,,,,,,,,,,,,,,,,,,stimuli/alien_stimuli/12.png,12,7,31,,,,,,,30,,,,,,,,1819.7362030999993,1819.7362030999993,1819.7362030999993,1819.7362030999993,1819.7362030999993,up,4.006932399999641,11,0,0,99,0.24,0.16,up,3.917139300000599,,,,,1818.177756,1819.7362030999993,0.4,-0.16,0.32,0.0,0.0,0.4,0.4,0.4,-0.16,1816.6960417,1816.6960417,1816.6960417,1816.6960417,1816.6960417,1816.6960417,1816.6960417,1816.6960417,1816.6934645600002,1.6032299999997122,return,1.4609378000004654,,,,,,,,,,,,,,,,,,,,,,,,,,,,,,,,,9DNLX0,train_y,red_square,top_right,2025-01-20_15h05.53.525,HideSeek_v1,2022.2.5,59.42995971217878,
,5,6,5,5,0,-1,15,,train_dim1_1,30,30,,,,2,0,2,0,,,,,,,,,0,0,0,0,0,29,29,29,1,0,1,0,,,,,,,,,,,,,,,,,,,,,,,,,,,,,,,,,,,,,,,,,,,,,,,,,,,,,,,,,,,,,,,,30,,,,,,,,1823.7518900999994,1823.7518900999994,1823.7518900999994,1823.7518900999994,1823.7518900999994,return,2.044341799999529,11,0,0,0,0.24,0.16,return,1.9554207000010138,-66,-3,0.24,0.16,,,,,,,,,,,,,,,,,,,,,,,,,,,,,,,,,,,,,,,,,,,,,,,,,,,,,,,,9DNLX0,train_y,red_square,top_right,2025-01-20_15h05.53.525,HideSeek_v1,2022.2.5,59.42995971217878,
,,,,,,,,,,,30,,,,2,0,2,0,,,,,,,,,,,,,,,,,,,,,,,,,,,,,,,,,,,,,,,,,,,,,,,,,,,,,,,,,,,,,,,,,,,,,,,,,,stimuli/alien_stimuli/15.png,15,5,32,21,0.7,0.45833333333333337,1,1,1,30,0,conditions/schedules/train_y_first/red_square_00/top_right/inputTrain_2.1.xlsx,99,1,2,1,0,,,,,,,,,,,0,,,,,,,,,1830.0712733999999,1831.6158334000002,0.24,0,0.08,0.0,0.04,0.24,0.24,0.24,0,1827.3686363999996,1827.3686363999996,1827.3686363999996,1827.3686363999996,1827.3686363999996,1827.3686363999996,1827.3686363999996,1827.3686363999996,1827.3688613599995,2.821848100000352,return,2.6846352000011393,0,0.9,0,1,11,,,,,,,,,,,,,,,,,,,,,,,,,,,,9DNLX0,train_y,red_square,top_right,2025-01-20_15h05.53.525,HideSeek_v1,2022.2.5,59.42995971217878,
,,,,,,,,,,,,,,,3,0,3,0,0,0,0,0,,,,,,,,,,,,,,,,,,,,,,,,,,,,,,,conditions/schedules/train_y_first/red_square_00/top_right/instructions/Slide17.png,conditions/schedules/train_y_first/red_square_00/top_right/instructions/Audio17.wav,1831.6158334000002,1831.6057027599998,17,"[9.876952899999196, 24.053228200000376, 17.022495700000036, 19.685791099999733, 5.532450499999868, 5.68694830000004, 5.9548187999998845, 12.040415499999654, 7.166733500000191, 8.05202510000072, 11.637172800000371, 14.526368599999842, 24.304861300000084, 16.675886900000478, 316.8583823000008, 22.697462899999664, 40.68706640000073]","[0.03313960000014049, 0.0002545000006648479, 0.00021800000013172394, 0.04703689999951166, 0.06530240000029153, 0.05022170000029291, 0.04714769999918644, 0.029555899999650137, 0.09502080000038404, 0.0816754999996192, 0.04799029999958293, 14.526374999999462, 24.304868700000043, 16.675893700000415, 0.00024369999937334796, 22.69746959999975, 40.6870742000001]",0,,,,,,,,,,,,,,,,,,,,,,,,,,,,,,,,,,,,,,,,,,,,,,,,,,,,,,,,,,,,,,,,,,,,,,,,,,,,,,,,,,,,,,,,,,,,,,,,,,,,,,,,,,,,,,,,,,,,,,,,,,,,9DNLX0,train_y,red_square,top_right,2025-01-20_15h05.53.525,HideSeek_v1,2022.2.5,59.42995971217878,
,,,,,,,,,,,,,,,3,0,3,0,1,0,1,0,,,,,,,,,,,,,,,,,,,,,,,,,,,,,,,conditions/schedules/train_y_first/red_square_00/top_right/instructions/Slide18.png,conditions/schedules/train_y_first/red_square_00/top_right/instructions/Audio18.wav,1872.3719967999996,1872.3731010000001,18,"[9.876952899999196, 24.053228200000376, 17.022495700000036, 19.685791099999733, 5.532450499999868, 5.68694830000004, 5.9548187999998845, 12.040415499999654, 7.166733500000191, 8.05202510000072, 11.637172800000371, 14.526368599999842, 24.304861300000084, 16.675886900000478, 316.8583823000008, 22.697462899999664, 40.68706640000073, 7.964347999999518]","[0.03313960000014049, 0.0002545000006648479, 0.00021800000013172394, 0.04703689999951166, 0.06530240000029153, 0.05022170000029291, 0.04714769999918644, 0.029555899999650137, 0.09502080000038404, 0.0816754999996192, 0.04799029999958293, 14.526374999999462, 24.304868700000043, 16.675893700000415, 0.00024369999937334796, 22.69746959999975, 0.00023969999983819434, 7.964379199999712]",0,,,,,,,,,,,,,,,,,,,,,,,,,,,,,,,,,,,,,,,,,,,,,,,,,,,,,,,,,,,,,,,,,,,,,,,,,,,,,,,,,,,,,,,,,,,,,,,,,,,,,,,,,,,,,,,,,,,,,,,,,,,,9DNLX0,train_y,red_square,top_right,2025-01-20_15h05.53.525,HideSeek_v1,2022.2.5,59.42995971217878,
,,,,,,,,,,,,,,,3,0,3,0,2,0,2,0,,,,,,,,,,,,,,,,,,,,,,,,,,,,,,,conditions/schedules/train_y_first/red_square_00/top_right/instructions/Slide19.png,conditions/schedules/train_y_first/red_square_00/top_right/instructions/Audio19.wav,1880.4023042999997,1880.3885173799993,19,"[9.876952899999196, 24.053228200000376, 17.022495700000036, 19.685791099999733, 5.532450499999868, 5.68694830000004, 5.9548187999998845, 12.040415499999654, 7.166733500000191, 8.05202510000072, 11.637172800000371, 14.526368599999842, 24.304861300000084, 16.675886900000478, 316.8583823000008, 22.697462899999664, 40.68706640000073, 7.964347999999518, 10.433283200000005]","[0.03313960000014049, 0.0002545000006648479, 0.00021800000013172394, 0.04703689999951166, 0.06530240000029153, 0.05022170000029291, 0.04714769999918644, 0.029555899999650137, 0.09502080000038404, 0.0816754999996192, 0.04799029999958293, 14.526374999999462, 24.304868700000043, 16.675893700000415, 0.00024369999937334796, 22.69746959999975, 0.00023969999983819434, 7.964379199999712, 10.433289100000366]",0,,,,,,,,,,,,,,,,,,,,,,,,,,,,,,,,,,,,,,,,,,,,,,,,,,,,,,,,,,,,,,,,,,,,,,,,,,,,,,,,,,,,,,,,,,,,,,,,,,,,,,,,,,,,,,,,,,,,,,,,,,,,9DNLX0,train_y,red_square,top_right,2025-01-20_15h05.53.525,HideSeek_v1,2022.2.5,59.42995971217878,
,,,,,,,,,,,,,,,3,0,3,0,3,0,3,0,,,,,,,,,,,,,,,,,,,,,,,,,,,,,,,conditions/schedules/train_y_first/red_square_00/top_right/instructions/Slide20.png,conditions/schedules/train_y_first/red_square_00/top_right/instructions/Audio20.wav,1890.9041028000001,1890.9049166999994,20,"[9.876952899999196, 24.053228200000376, 17.022495700000036, 19.685791099999733, 5.532450499999868, 5.68694830000004, 5.9548187999998845, 12.040415499999654, 7.166733500000191, 8.05202510000072, 11.637172800000371, 14.526368599999842, 24.304861300000084, 16.675886900000478, 316.8583823000008, 22.697462899999664, 40.68706640000073, 7.964347999999518, 10.433283200000005, 12.408688299999994]","[0.03313960000014049, 0.0002545000006648479, 0.00021800000013172394, 0.04703689999951166, 0.06530240000029153, 0.05022170000029291, 0.04714769999918644, 0.029555899999650137, 0.09502080000038404, 0.0816754999996192, 0.04799029999958293, 14.526374999999462, 24.304868700000043, 16.675893700000415, 0.00024369999937334796, 22.69746959999975, 0.00023969999983819434, 7.964379199999712, 0.0320095000006404, 12.408695099999932]",0,,,,,,,,,,,,,,,,,,,,,,,,,,,,,,,,,,,,,,,,,,,,,,,,,,,,,,,,,,,,,,,,,,,,,,,,,,,,,,,,,,,,,,,,,,,,,,,,,,,,,,,,,,,,,,,,,,,,,,,,,,,,9DNLX0,train_y,red_square,top_right,2025-01-20_15h05.53.525,HideSeek_v1,2022.2.5,59.42995971217878,
1,8,7,3,7,-5,0,66,2,instr_dim1_2,,,,,,3,0,3,0,,,,,0,0,0,0,,,,,,,,,,,,,,,,,,,,,,,,,,,,,,,,,,,,,stimuli/alien_stimuli/66.png,conditions/schedules/train_y_first/red_square_00/top_right/inputInstr_2.xlsx,stimuli/alien_stimuli/66.png,1903.4200856999996,1903.4200856999996,1903.4200856999996,1903.4200856999996,1903.4151389399995,return,12.8959332000004,"[-0.16, -0.08, 0, 0.08, 0.16, 0.24, 0.32, 0.4, 0.48, 0.56]","[-0.4, -0.32, -0.24, -0.16, -0.08, 0, 0.08, 0.16, 0.24, 0.32]",7,7,3,8,0.0,0.4,1916.5027580999995,1916.5027580999995,1916.5027580999995,1916.5027580999995,1916.5027580999995,1916.5027580999995,1916.5027580999995,1916.4928756,9.108274199999869,return,8.915671000000657,stimuli/alien_stimuli/66.png,66,8,1,,,,,,,,,,,,,,,,,,,,,,,,,,,,,,,,,,,,,,,,,,,,,,,,,,,,,,,,,,,,,,,,,,,,,,,,,,,,,,,,,,,,,,,,,9DNLX0,train_y,red_square,top_right,2025-01-20_15h05.53.525,HideSeek_v1,2022.2.5,59.42995971217878,
,,,,,,,,,,,30,,,,3,0,3,0,,,,,,,,,,,,,,,,,,,,,,,,,,,,,,,,,,,,,,,,,,,,,,,,,,,,,,,,,,,,,,,,,,,,,,,,,,,,,,21,0.7,0.45833333333333337,1,99,2,30,0,conditions/schedules/train_y_first/red_square_00/top_right/inputTrain_2.1.xlsx,99,1,2,1,0,,,,,,,,,,,,,,,,,,,,,,,,,,,,,,,,,,,,,,,,,,,,,,,,,,,,,,,,,,,,,,,,,,,,,,,,,,,9DNLX0,train_y,red_square,top_right,2025-01-20_15h05.53.525,HideSeek_v1,2022.2.5,59.42995971217878,
,,,,,,,,,,,,,,,4,0,4,0,0,0,0,0,,,,,,,,,,,,,,,,,,,,,,,,,,,,,,,conditions/schedules/train_y_first/red_square_00/top_right/instructions/Slide21.png,conditions/schedules/train_y_first/red_square_00/top_right/instructions/Audio21.wav,1925.5814849999997,1925.5836547799993,21,"[9.876952899999196, 24.053228200000376, 17.022495700000036, 19.685791099999733, 5.532450499999868, 5.68694830000004, 5.9548187999998845, 12.040415499999654, 7.166733500000191, 8.05202510000072, 11.637172800000371, 14.526368599999842, 24.304861300000084, 16.675886900000478, 316.8583823000008, 22.697462899999664, 40.68706640000073, 7.964347999999518, 10.433283200000005, 12.408688299999994, 13.076836100000037]","[0.03313960000014049, 0.0002545000006648479, 0.00021800000013172394, 0.04703689999951166, 0.06530240000029153, 0.05022170000029291, 0.04714769999918644, 0.029555899999650137, 0.09502080000038404, 0.0816754999996192, 0.04799029999958293, 14.526374999999462, 24.304868700000043, 16.675893700000415, 0.00024369999937334796, 22.69746959999975, 0.00023969999983819434, 7.964379199999712, 0.0320095000006404, 12.408695099999932, 13.076843499999995]",0,,,,,,,,,,,,,,,,,,,,,,,,,,,,,,,,,,,,,,,,,,,,,,,,,,,,,,,,,,,,,,,,,,,,,,,,,,,,,,,,,,,,,,,,,,,,,,,,,,,,,,,,,,,,,,,,,,,,,,,,,,,,9DNLX0,train_y,red_square,top_right,2025-01-20_15h05.53.525,HideSeek_v1,2022.2.5,59.42995971217878,
2,9,5,9,5,0,0,16,2,instr_dim1_2,,,,,,4,0,4,0,,,,,0,0,0,0,,,,,,,,,,,,,,,,,,,,,,,,,,,,,,,,,,,,,stimuli/alien_stimuli/16.png,conditions/schedules/train_y_first/red_square_00/top_right/inputInstr_2.xlsx,stimuli/alien_stimuli/16.png,1938.7508529999996,1938.7508529999996,1938.7508529999996,1938.7508529999996,1938.7445769199999,return,7.78705330000048,"[-0.16, -0.08, 0, 0.08, 0.16, 0.24, 0.32, 0.4, 0.48, 0.56]","[-0.4, -0.32, -0.24, -0.16, -0.08, 0, 0.08, 0.16, 0.24, 0.32]",5,5,9,9,0.0,0.0,1946.7067299999999,1946.7067299999999,1946.7067299999999,1946.7067299999999,1946.7067299999999,1946.7067299999999,1946.7067299999999,1946.6843963600002,5.989486499999657,return,5.832148900000902,stimuli/alien_stimuli/16.png,16,9,2,,,,,,,,,,,,,,,,,,,,,,,,,,,,,,,,,,,,,,,,,,,,,,,,,,,,,,,,,,,,,,,,,,,,,,,,,,,,,,,,,,,,,,,,,9DNLX0,train_y,red_square,top_right,2025-01-20_15h05.53.525,HideSeek_v1,2022.2.5,59.42995971217878,
,,,,,,,,,,,30,,,,4,0,4,0,,,,,,,,,,,,,,,,,,,,,,,,,,,,,,,,,,,,,,,,,,,,,,,,,,,,,,,,,,,,,,,,,,,,,,,,,,,,,,21,0.7,0.45833333333333337,1,99,2,30,0,conditions/schedules/train_y_first/red_square_00/top_right/inputTrain_2.1.xlsx,99,1,2,1,0,,,,,,,,,,,,,,,,,,,,,,,,,,,,,,,,,,,,,,,,,,,,,,,,,,,,,,,,,,,,,,,,,,,,,,,,,,,9DNLX0,train_y,red_square,top_right,2025-01-20_15h05.53.525,HideSeek_v1,2022.2.5,59.42995971217878,
,,,,,,,,,,,,,,,5,0,5,0,0,0,0,0,,,,,,,,,,,,,,,,,,,,,,,,,,,,,,,conditions/schedules/train_y_first/red_square_00/top_right/instructions/Slide22.png,conditions/schedules/train_y_first/red_square_00/top_right/instructions/Audio22.wav,1952.7129292,1952.7058035999999,22,"[9.876952899999196, 24.053228200000376, 17.022495700000036, 19.685791099999733, 5.532450499999868, 5.68694830000004, 5.9548187999998845, 12.040415499999654, 7.166733500000191, 8.05202510000072, 11.637172800000371, 14.526368599999842, 24.304861300000084, 16.675886900000478, 316.8583823000008, 22.697462899999664, 40.68706640000073, 7.964347999999518, 10.433283200000005, 12.408688299999994, 13.076836100000037, 30.8333547000002]","[0.03313960000014049, 0.0002545000006648479, 0.00021800000013172394, 0.04703689999951166, 0.06530240000029153, 0.05022170000029291, 0.04714769999918644, 0.029555899999650137, 0.09502080000038404, 0.0816754999996192, 0.04799029999958293, 14.526374999999462, 24.304868700000043, 16.675893700000415, 0.00024369999937334796, 22.69746959999975, 0.00023969999983819434, 7.964379199999712, 0.0320095000006404, 12.408695099999932, 13.076843499999995, 30.833362499999566]",0,,,,,,,,,,,,,,,,,,,,,,,,,,,,,,,,,,,,,,,,,,,,,,,,,,,,,,,,,,,,,,,,,,,,,,,,,,,,,,,,,,,,,,,,,,,,,,,,,,,,,,,,,,,,,,,,,,,,,,,,,,,,9DNLX0,train_y,red_square,top_right,2025-01-20_15h05.53.525,HideSeek_v1,2022.2.5,59.42995971217878,
,7,6,4,6,-3,0,46,,train_dim1_2,1,30,,,,5,0,5,0,,,,,,,,,0,0,0,0,0,0,0,0,0,0,0,0,,,,,,,,,,,,,,,,,,,,,,,,,stimuli/alien_stimuli/46.png,,,,,,,,,,,,,,,,,,,,,,,,,,,,,,,,,,,,,,,30,,,,,,,,1983.6433293,1983.6433293,1983.6433293,1983.6433293,1983.6433293,down,6.68040370000017,0,0,0,99,0.4,0.0,down,6.593854800000372,,,,,,,,,,,,,,,,,,,,,,,,,,,,,,,,,,,,,,,,,,,,,,,,,,,,,,,,,,,,9DNLX0,train_y,red_square,top_right,2025-01-20_15h05.53.525,HideSeek_v1,2022.2.5,59.42995971217878,
,7,6,4,6,-3,0,46,,train_dim1_2,1,30,,,,5,0,5,0,,,,,,,,,0,0,0,0,0,0,0,0,1,0,1,0,,,,,,,,,,,,,,,,,,,,,,,,,,,,,,,,,,,,,,,,,,,,,,,,,,,,,,,,,,,,,,,,30,,,,,,,,1990.3184584,1990.3184584,1990.3184584,1990.3184584,1990.3184584,down,1.5105127999995602,0,0,0,99,0.4,-0.08,down,1.4245426000006773,,,,,,,,,,,,,,,,,,,,,,,,,,,,,,,,,,,,,,,,,,,,,,,,,,,,,,,,,,,,9DNLX0,train_y,red_square,top_right,2025-01-20_15h05.53.525,HideSeek_v1,2022.2.5,59.42995971217878,
,7,6,4,6,-3,0,46,,train_dim1_2,1,30,,,,5,0,5,0,,,,,,,,,0,0,0,0,0,0,0,0,2,0,2,0,,,,,,,,,,,,,,,,,,,,,,,,,,,,,,,,,,,,,,,,,,,,,,,,,,,,,,,,,,,,,,,,30,,,,,,,,1991.8353183999998,1991.8353183999998,1991.8353183999998,1991.8353183999998,1991.8353183999998,down,0.9938930000007531,0,0,0,99,0.4,-0.16,down,0.9063082000002396,,,,,,,,,,,,,,,,,,,,,,,,,,,,,,,,,,,,,,,,,,,,,,,,,,,,,,,,,,,,9DNLX0,train_y,red_square,top_right,2025-01-20_15h05.53.525,HideSeek_v1,2022.2.5,59.42995971217878,
,7,6,4,6,-3,0,46,,train_dim1_2,1,30,,,,5,0,5,0,,,,,,,,,0,0,0,0,0,0,0,0,3,0,3,0,,,,,,,,,,,,,,,,,,,,,,,,,,,,,,,,,,,,,,,,,,,,,,,,,,,,,,,,,,,,,,,,30,,,,,,,,1992.8366907,1992.8366907,1992.8366907,1992.8366907,1992.8366907,return,1.3441232000004675,0,0,0,0,0.4,-0.16,return,1.2645283000001655,-69,-3,0.4,-0.16,,,,,,,,,,,,,,,,,,,,,,,,,,,,,,,,,,,,,,,,,,,,,,,,,,,,,,,,9DNLX0,train_y,red_square,top_right,2025-01-20_15h05.53.525,HideSeek_v1,2022.2.5,59.42995971217878,
,7,9,7,9,0,0,16,,train_dim1_2,2,30,,,,5,0,5,0,,,,,,,,,0,0,0,0,0,1,1,1,0,0,0,0,,,,,,,,,,,,,,,,,,,,,,,,,stimuli/alien_stimuli/16.png,,,,,,,,,,,,,,,,,,,,,,,,,,,,,stimuli/alien_stimuli/46.png,46,7,3,,,,,,,30,,,,,,,,2000.3182873999995,2000.3182873999995,2000.3182873999995,2000.3182873999995,2000.3182873999995,down,4.002960900000289,0,0,0,99,0.4,0.24,down,3.8962731000010535,,,,,1998.7276262999994,2000.3182873999995,0.16,0.08,0.0,0.24,0.08,0.16,0.28,0.16,0.08,1995.7599789999995,1995.7599789999995,1995.7599789999995,1995.7599789999995,1995.7599789999995,1995.7599789999995,1995.7599789999995,1995.7599789999995,1995.7419438399993,3.088018899999952,return,2.9355593000000226,,,,,,,,,,,,,,,,,,,,,,,,,,,,,,,,,9DNLX0,train_y,red_square,top_right,2025-01-20_15h05.53.525,HideSeek_v1,2022.2.5,59.42995971217878,
,7,9,7,9,0,0,16,,train_dim1_2,2,30,,,,5,0,5,0,,,,,,,,,0,0,0,0,0,1,1,1,1,0,1,0,,,,,,,,,,,,,,,,,,,,,,,,,,,,,,,,,,,,,,,,,,,,,,,,,,,,,,,,,,,,,,,,30,,,,,,,,2004.3062001999997,2004.3062001999997,2004.3062001999997,2004.3062001999997,2004.3062001999997,return,1.2269765999999436,0,1,0,0,0.4,0.24,return,1.1359480000000985,-70,-3,0.4,0.24,,,,,,,,,,,,,,,,,,,,,,,,,,,,,,,,,,,,,,,,,,,,,,,,,,,,,,,,9DNLX0,train_y,red_square,top_right,2025-01-20_15h05.53.525,HideSeek_v1,2022.2.5,59.42995971217878,
,9,9,8,9,-1,0,26,,train_dim1_2,3,30,,,,5,0,5,0,,,,,,,,,0,0,0,0,0,2,2,2,0,0,0,0,,,,,,,,,,,,,,,,,,,,,,,,,stimuli/alien_stimuli/26.png,,,,,,,,,,,,,,,,,,,,,,,,,,,,,stimuli/alien_stimuli/16.png,16,7,4,,,,,,,30,,,,,,,,2011.6199577999996,2011.6199577999996,2011.6199577999996,2011.6199577999996,2011.6199577999996,left,4.7075488000000405,0,1,0,99,0.48000000000000004,0.32,left,4.612213500000507,,,,,2010.0539186999995,2011.6199577999996,0.4,0.32,0.0,0.0,0.32,0.4,0.4,0.4,0.32,2007.1142688,2007.1142688,2007.1142688,2007.1142688,2007.1142688,2007.1142688,2007.1142688,2007.1142688,2007.1012270600002,3.071157200000016,return,2.9182488000005833,,,,,,,,,,,,,,,,,,,,,,,,,,,,,,,,,9DNLX0,train_y,red_square,top_right,2025-01-20_15h05.53.525,HideSeek_v1,2022.2.5,59.42995971217878,
,9,9,8,9,-1,0,26,,train_dim1_2,3,30,,,,5,0,5,0,,,,,,,,,0,0,0,0,0,2,2,2,1,0,1,0,,,,,,,,,,,,,,,,,,,,,,,,,,,,,,,,,,,,,,,,,,,,,,,,,,,,,,,,,,,,,,,,30,,,,,,,,2016.3274778999994,2016.3274778999994,2016.3274778999994,2016.3274778999994,2016.3274778999994,left,1.910569900000155,0,1,0,99,0.4,0.32,left,1.8313614000007874,,,,,,,,,,,,,,,,,,,,,,,,,,,,,,,,,,,,,,,,,,,,,,,,,,,,,,,,,,,,9DNLX0,train_y,red_square,top_right,2025-01-20_15h05.53.525,HideSeek_v1,2022.2.5,59.42995971217878,
