trialInstr,x_fixStart,y_fixStart,x_corrSteps,y_corrSteps,x_nrSteps,y_nrSteps,alienID,trialLength,version,trialTrain,praclen,testlen,trial_label,break_on_off,beforeExpLoop.thisRepN,beforeExpLoop.thisTrialN,beforeExpLoop.thisN,beforeExpLoop.thisIndex,mini_instr_trials.thisRepN,mini_instr_trials.thisTrialN,mini_instr_trials.thisN,mini_instr_trials.thisIndex,instrLoop.thisRepN,instrLoop.thisTrialN,instrLoop.thisN,instrLoop.thisIndex,repeat_prac.thisRepN,repeat_prac.thisTrialN,repeat_prac.thisN,repeat_prac.thisIndex,trainLoop.thisRepN,trainLoop.thisTrialN,trainLoop.thisN,trainLoop.thisIndex,moveLoop_train.thisRepN,moveLoop_train.thisTrialN,moveLoop_train.thisN,moveLoop_train.thisIndex,experiment.thisRepN,experiment.thisTrialN,experiment.thisN,experiment.thisIndex,moveLoop_test.thisRepN,moveLoop_test.thisTrialN,moveLoop_test.thisN,moveLoop_test.thisIndex,mini_instr2_trials.thisRepN,mini_instr2_trials.thisTrialN,mini_instr2_trials.thisN,mini_instr2_trials.thisIndex,start_all_time,url,slideStim,audioStim,slides.started,sounds.started,nextButton.numClicks,nextButton.timesOn,nextButton.timesOff,prev_but.numClicks,prev_but.timesOn,prev_but.timesOff,alienStim,instrFile,alienStim_instr,gridImage_instr.started,startPos_3.started,key_instr.started,alienImage_3.started,sounds_1.started,key_instr.keys,key_instr.rt,all_x,all_y,FBy_corrSteps,FBy_fixStart,FBx_corrSteps,FBx_fixStart,FBy_pathSize_check,FBx_pathSize_check,gridImage_9.started,alienImageFB_3.started,startPosFB_3.started,keyFB_3.started,pathLine_ydir_2.started,pathLine_xdir_2.started,alienFace_3.started,sounds_2.started,RTFB_instr,keyFB_3.keys,keyFB_3.rt,draw_alienStim,draw_alienID,test_x,nrepcount,perfthres,percthres,earlierperf,earlystop,nextPrac,fileidx,praclen,saveACC_train,pracFile,nextPrac_train,addNrep,fileidx_endr,repExp,showearly,gridImage_4.started,startPos.started,movePos.started,key_resp.started,alienImage.started,buttonPress_train,RTchoice_train,cumAcctrain,aCorr,saveACC_choice,corrAns,x_movePos_end,y_movePos_end,key_resp.keys,key_resp.rt,wLy_dir,wLx_dir,x_movePos,y_movePos,text_2.started,text_2.stopped,aft_x_corrPos,aft_y_corrPos,y_pathSize_check,x_pathSize_check,y_pathdirY,x_pathdirY,x_pathdirX,x_corrPos,y_corrPos,gridImage_6.started,alienImageFB_2.started,startPosFB_2.started,movePosFB_2.started,keyFB_2.started,pathLine_xdir.started,pathLine_ydir.started,alienFace.started,sounds_4.started,RT_FBtrain,keyFB_2.keys,keyFB_2.rt,saveACC_pre,ACC,within_saveACC_train,earlystop_wloop,cumAcctrain_check,gridImage_3.started,alienImage_test.started,startPos_test.started,movePos_test.started,key_resp_test.started,wLy_dir_test,wLx_dir_test,buttonPress_test,RTchoice_test,cumAcctest,corrAns_test,key_resp_test.keys,key_resp_test.rt,text_3.started,text_3.stopped,total_time,end_all_time,key_resp_3.keys,slides_2.started,sounds_3.started,nextButton_2.numClicks,nextButton_2.timesOn,nextButton_2.timesOff,prev_but_2.numClicks,prev_but_2.timesOn,prev_but_2.timesOff,bye.started,participant,train_first,00_coordinate,starting corner,date,expName,psychopyVersion,frameRate,
,,,,,,,,,,,,,,,0,0,0,0,0,0,0,0,,,,,,,,,,,,,,,,,,,,,,,,,,,,,start_all_time,testround,conditions/schedules/train_y_first/blue_star_00/bottom_right/instructions/Slide1.png,conditions/schedules/train_y_first/blue_star_00/bottom_right/instructions/Audio1.wav,1637.2807314000092,1637.2312494801008,1,[4.92365669994615],[4.9236695999861695],0,,,,,,,,,,,,,,,,,,,,,,,,,,,,,,,,,,,,,,,,,,,,,,,,,,,,,,,,,,,,,,,,,,,,,,,,,,,,,,,,,,,,,,,,,,,,,,,,,,,,,,,,,,,,,,,,,,,,,,,,,,,,9R0QRV,train_y,blue_star,bottom_right,2025-06-12_16h13.25.092,HideSeek_v1,2022.2.5,59.94449140397595,
,,,,,,,,,,,,,,,0,0,0,0,1,0,1,0,,,,,,,,,,,,,,,,,,,,,,,,,,,,,,,conditions/schedules/train_y_first/blue_star_00/bottom_right/instructions/Slide2.png,conditions/schedules/train_y_first/blue_star_00/bottom_right/instructions/Audio2.wav,1642.2254207999795,1642.2234726999886,2,"[4.92365669994615, 18.278057900024578]","[0.0002196000423282385, 18.278064500016626]",0,,,,,,,,,,,,,,,,,,,,,,,,,,,,,,,,,,,,,,,,,,,,,,,,,,,,,,,,,,,,,,,,,,,,,,,,,,,,,,,,,,,,,,,,,,,,,,,,,,,,,,,,,,,,,,,,,,,,,,,,,,,,9R0QRV,train_y,blue_star,bottom_right,2025-06-12_16h13.25.092,HideSeek_v1,2022.2.5,59.94449140397595,
,,,,,,,,,,,,,,,0,0,0,0,2,0,2,0,,,,,,,,,,,,,,,,,,,,,,,,,,,,,,,conditions/schedules/train_y_first/blue_star_00/bottom_right/instructions/Slide3.png,conditions/schedules/train_y_first/blue_star_00/bottom_right/instructions/Audio3.wav,1660.5706710999948,1660.5718449999695,3,"[4.92365669994615, 18.278057900024578, 16.579415799991693]","[0.0002196000423282385, 0.032144299999345094, 16.579422699986026]",0,,,,,,,,,,,,,,,,,,,,,,,,,,,,,,,,,,,,,,,,,,,,,,,,,,,,,,,,,,,,,,,,,,,,,,,,,,,,,,,,,,,,,,,,,,,,,,,,,,,,,,,,,,,,,,,,,,,,,,,,,,,,9R0QRV,train_y,blue_star,bottom_right,2025-06-12_16h13.25.092,HideSeek_v1,2022.2.5,59.94449140397595,
,,,,,,,,,,,,,,,0,0,0,0,3,0,3,0,,,,,,,,,,,,,,,,,,,,,,,,,,,,,,,conditions/schedules/train_y_first/blue_star_00/bottom_right/instructions/Slide4.png,conditions/schedules/train_y_first/blue_star_00/bottom_right/instructions/Audio4.wav,1677.2310971000115,1677.2187086999766,4,"[4.92365669994615, 18.278057900024578, 16.579415799991693, 19.051545700000133]","[0.0002196000423282385, 0.032144299999345094, 0.052325099997688085, 19.05155219999142]",0,,,,,,,,,,,,,,,,,,,,,,,,,,,,,,,,,,,,,,,,,,,,,,,,,,,,,,,,,,,,,,,,,,,,,,,,,,,,,,,,,,,,,,,,,,,,,,,,,,,,,,,,,,,,,,,,,,,,,,,,,,,,9R0QRV,train_y,blue_star,bottom_right,2025-06-12_16h13.25.092,HideSeek_v1,2022.2.5,59.94449140397595,
,,,,,,,,,,,,,,,0,0,0,0,4,0,4,0,,,,,,,,,,,,,,,,,,,,,,,,,,,,,,,conditions/schedules/train_y_first/blue_star_00/bottom_right/instructions/Slide5.png,conditions/schedules/train_y_first/blue_star_00/bottom_right/instructions/Audio5.wav,1696.3502317999955,1696.3513678999734,5,"[4.92365669994615, 18.278057900024578, 16.579415799991693, 19.051545700000133, 4.569535700022243]","[0.0002196000423282385, 0.032144299999345094, 0.052325099997688085, 19.05155219999142, 4.5695433000219055]",0,,,,,,,,,,,,,,,,,,,,,,,,,,,,,,,,,,,,,,,,,,,,,,,,,,,,,,,,,,,,,,,,,,,,,,,,,,,,,,,,,,,,,,,,,,,,,,,,,,,,,,,,,,,,,,,,,,,,,,,,,,,,9R0QRV,train_y,blue_star,bottom_right,2025-06-12_16h13.25.092,HideSeek_v1,2022.2.5,59.94449140397595,
,,,,,,,,,,,,,,,0,0,0,0,5,0,5,0,,,,,,,,,,,,,,,,,,,,,,,,,,,,,,,conditions/schedules/train_y_first/blue_star_00/bottom_right/instructions/Slide6.png,conditions/schedules/train_y_first/blue_star_00/bottom_right/instructions/Audio6.wav,1700.9703730999609,1700.9719735200051,6,"[4.92365669994615, 18.278057900024578, 16.579415799991693, 19.051545700000133, 4.569535700022243, 4.720070699986536]","[0.0002196000423282385, 0.032144299999345094, 0.052325099997688085, 19.05155219999142, 0.03285429999232292, 4.720077299978584]",0,,,,,,,,,,,,,,,,,,,,,,,,,,,,,,,,,,,,,,,,,,,,,,,,,,,,,,,,,,,,,,,,,,,,,,,,,,,,,,,,,,,,,,,,,,,,,,,,,,,,,,,,,,,,,,,,,,,,,,,,,,,,9R0QRV,train_y,blue_star,bottom_right,2025-06-12_16h13.25.092,HideSeek_v1,2022.2.5,59.94449140397595,
,,,,,,,,,,,,,,,0,0,0,0,6,0,6,0,,,,,,,,,,,,,,,,,,,,,,,,,,,,,,,conditions/schedules/train_y_first/blue_star_00/bottom_right/instructions/Slide7.png,conditions/schedules/train_y_first/blue_star_00/bottom_right/instructions/Audio7.wav,1705.7430897000013,1705.7426867199829,7,"[4.92365669994615, 18.278057900024578, 16.579415799991693, 19.051545700000133, 4.569535700022243, 4.720070699986536, 5.418818900012411]","[0.0002196000423282385, 0.032144299999345094, 0.052325099997688085, 19.05155219999142, 0.03285429999232292, 0.04780850000679493, 5.418826000008266]",0,,,,,,,,,,,,,,,,,,,,,,,,,,,,,,,,,,,,,,,,,,,,,,,,,,,,,,,,,,,,,,,,,,,,,,,,,,,,,,,,,,,,,,,,,,,,,,,,,,,,,,,,,,,,,,,,,,,,,,,,,,,,9R0QRV,train_y,blue_star,bottom_right,2025-06-12_16h13.25.092,HideSeek_v1,2022.2.5,59.94449140397595,
,,,,,,,,,,,,,,,0,0,0,0,7,0,7,0,,,,,,,,,,,,,,,,,,,,,,,,,,,,,,,conditions/schedules/train_y_first/blue_star_00/bottom_right/instructions/Slide8.png,conditions/schedules/train_y_first/blue_star_00/bottom_right/instructions/Audio8.wav,1711.2298421000014,1711.2303119999706,8,"[4.92365669994615, 18.278057900024578, 16.579415799991693, 19.051545700000133, 4.569535700022243, 4.720070699986536, 5.418818900012411, 11.858607000031043]","[0.0002196000423282385, 0.032144299999345094, 0.052325099997688085, 19.05155219999142, 0.03285429999232292, 0.04780850000679493, 0.03209890000289306, 11.858614400029182]",0,,,,,,,,,,,,,,,,,,,,,,,,,,,,,,,,,,,,,,,,,,,,,,,,,,,,,,,,,,,,,,,,,,,,,,,,,,,,,,,,,,,,,,,,,,,,,,,,,,,,,,,,,,,,,,,,,,,,,,,,,,,,9R0QRV,train_y,blue_star,bottom_right,2025-06-12_16h13.25.092,HideSeek_v1,2022.2.5,59.94449140397595,
,,,,,,,,,,,,,,,0,0,0,0,8,0,8,0,,,,,,,,,,,,,,,,,,,,,,,,,,,,,,,conditions/schedules/train_y_first/blue_star_00/bottom_right/instructions/Slide9.png,conditions/schedules/train_y_first/blue_star_00/bottom_right/instructions/Audio9.wav,1723.1586245999788,1723.156877500005,9,"[4.92365669994615, 18.278057900024578, 16.579415799991693, 19.051545700000133, 4.569535700022243, 4.720070699986536, 5.418818900012411, 11.858607000031043, 6.117703899974003]","[0.0002196000423282385, 0.032144299999345094, 0.052325099997688085, 19.05155219999142, 0.03285429999232292, 0.04780850000679493, 0.03209890000289306, 0.0465457999962382, 6.1177102999645285]",0,,,,,,,,,,,,,,,,,,,,,,,,,,,,,,,,,,,,,,,,,,,,,,,,,,,,,,,,,,,,,,,,,,,,,,,,,,,,,,,,,,,,,,,,,,,,,,,,,,,,,,,,,,,,,,,,,,,,,,,,,,,,9R0QRV,train_y,blue_star,bottom_right,2025-06-12_16h13.25.092,HideSeek_v1,2022.2.5,59.94449140397595,
,,,,,,,,,,,,,,,0,0,0,0,9,0,9,0,,,,,,,,,,,,,,,,,,,,,,,,,,,,,,,conditions/schedules/train_y_first/blue_star_00/bottom_right/instructions/Slide10.png,conditions/schedules/train_y_first/blue_star_00/bottom_right/instructions/Audio10.wav,1729.3303584000096,1729.3288345200126,10,"[4.92365669994615, 18.278057900024578, 16.579415799991693, 19.051545700000133, 4.569535700022243, 4.720070699986536, 5.418818900012411, 11.858607000031043, 6.117703899974003, 7.235452699998859]","[0.0002196000423282385, 0.032144299999345094, 0.052325099997688085, 19.05155219999142, 0.03285429999232292, 0.04780850000679493, 0.03209890000289306, 0.0465457999962382, 0.04664229997433722, 7.235459599993192]",0,,,,,,,,,,,,,,,,,,,,,,,,,,,,,,,,,,,,,,,,,,,,,,,,,,,,,,,,,,,,,,,,,,,,,,,,,,,,,,,,,,,,,,,,,,,,,,,,,,,,,,,,,,,,,,,,,,,,,,,,,,,,9R0QRV,train_y,blue_star,bottom_right,2025-06-12_16h13.25.092,HideSeek_v1,2022.2.5,59.94449140397595,
,,,,,,,,,,,,,,,0,0,0,0,10,0,10,0,,,,,,,,,,,,,,,,,,,,,,,,,,,,,,,conditions/schedules/train_y_first/blue_star_00/bottom_right/instructions/Slide11.png,conditions/schedules/train_y_first/blue_star_00/bottom_right/instructions/Audio11.wav,1736.6192856999696,1736.617830919975,11,"[4.92365669994615, 18.278057900024578, 16.579415799991693, 19.051545700000133, 4.569535700022243, 4.720070699986536, 5.418818900012411, 11.858607000031043, 6.117703899974003, 7.235452699998859, 10.321622700023]","[0.0002196000423282385, 0.032144299999345094, 0.052325099997688085, 19.05155219999142, 0.03285429999232292, 0.04780850000679493, 0.03209890000289306, 0.0465457999962382, 0.04664229997433722, 0.04705420002574101, 10.32162880001124]",0,,,,,,,,,,,,,,,,,,,,,,,,,,,,,,,,,,,,,,,,,,,,,,,,,,,,,,,,,,,,,,,,,,,,,,,,,,,,,,,,,,,,,,,,,,,,,,,,,,,,,,,,,,,,,,,,,,,,,,,,,,,,9R0QRV,train_y,blue_star,bottom_right,2025-06-12_16h13.25.092,HideSeek_v1,2022.2.5,59.94449140397595,
,,,,,,,,,,,,,,,0,0,0,0,11,0,11,0,,,,,,,,,,,,,,,,,,,,,,,,,,,,,,,conditions/schedules/train_y_first/blue_star_00/bottom_right/instructions/Slide12.png,conditions/schedules/train_y_first/blue_star_00/bottom_right/instructions/Audio12.wav,1747.0095518999733,1747.0100086999591,12,"[4.92365669994615, 18.278057900024578, 16.579415799991693, 19.051545700000133, 4.569535700022243, 4.720070699986536, 5.418818900012411, 11.858607000031043, 6.117703899974003, 7.235452699998859, 10.321622700023, 14.009816300007515]","[0.0002196000423282385, 0.032144299999345094, 0.052325099997688085, 19.05155219999142, 0.03285429999232292, 0.04780850000679493, 0.03209890000289306, 0.0465457999962382, 0.04664229997433722, 0.04705420002574101, 0.0660061999806203, 14.009823000000324]",0,,,,,,,,,,,,,,,,,,,,,,,,,,,,,,,,,,,,,,,,,,,,,,,,,,,,,,,,,,,,,,,,,,,,,,,,,,,,,,,,,,,,,,,,,,,,,,,,,,,,,,,,,,,,,,,,,,,,,,,,,,,,9R0QRV,train_y,blue_star,bottom_right,2025-06-12_16h13.25.092,HideSeek_v1,2022.2.5,59.94449140397595,
1,5,3,5,8,0,5,66,2,instr_dim1_1,,,,,,0,0,0,0,,,,,0,0,0,0,,,,,,,,,,,,,,,,,,,,,,,,,,,,,,,,,,,,,stimuli/alien_stimuli/66.png,conditions/schedules/train_y_first/blue_star_00/bottom_right/inputInstr_1.xlsx,stimuli/alien_stimuli/66.png,1761.1185573000112,1761.1185573000112,1761.1185573000112,1761.1185573000112,1761.1051306799636,return,9.438772399968002,"[-0.16, -0.08, 0, 0.08, 0.16, 0.24, 0.32, 0.4, 0.48, 0.56]","[-0.4, -0.32, -0.24, -0.16, -0.08, 0, 0.08, 0.16, 0.24, 0.32]",8,3,5,5,0.4,0.0,1770.6972161000012,1770.6972161000012,1770.6972161000012,1770.6972161000012,1770.6972161000012,1770.6972161000012,1770.6972161000012,1770.6795874600066,11.077203100023326,return,10.937997900007758,stimuli/alien_stimuli/66.png,66,5,1,,,,,,,,,,,,,,,,,,,,,,,,,,,,,,,,,,,,,,,,,,,,,,,,,,,,,,,,,,,,,,,,,,,,,,,,,,,,,,,,,,,,,,,,,9R0QRV,train_y,blue_star,bottom_right,2025-06-12_16h13.25.092,HideSeek_v1,2022.2.5,59.94449140397595,
,,,,,,,,,,,30,,,,0,0,0,0,,,,,,,,,,,,,,,,,,,,,,,,,,,,,,,,,,,,,,,,,,,,,,,,,,,,,,,,,,,,,,,,,,,,,,,,,,,,,,21,0.7,0,0,99,1,30,0,conditions/schedules/train_y_first/blue_star_00/bottom_right/inputTrain_1.1.xlsx,99,1,1,1,0,,,,,,,,,,,,,,,,,,,,,,,,,,,,,,,,,,,,,,,,,,,,,,,,,,,,,,,,,,,,,,,,,,,,,,,,,,,9R0QRV,train_y,blue_star,bottom_right,2025-06-12_16h13.25.092,HideSeek_v1,2022.2.5,59.94449140397595,
,,,,,,,,,,,,,,,1,0,1,0,0,0,0,0,,,,,,,,,,,,,,,,,,,,,,,,,,,,,,,conditions/schedules/train_y_first/blue_star_00/bottom_right/instructions/Slide13.png,conditions/schedules/train_y_first/blue_star_00/bottom_right/instructions/Audio13.wav,1781.8054363999981,1781.8054538000142,13,"[4.92365669994615, 18.278057900024578, 16.579415799991693, 19.051545700000133, 4.569535700022243, 4.720070699986536, 5.418818900012411, 11.858607000031043, 6.117703899974003, 7.235452699998859, 10.321622700023, 14.009816300007515, 17.796012600010727]","[0.0002196000423282385, 0.032144299999345094, 0.052325099997688085, 19.05155219999142, 0.03285429999232292, 0.04780850000679493, 0.03209890000289306, 0.0465457999962382, 0.04664229997433722, 0.04705420002574101, 0.0660061999806203, 14.009823000000324, 17.796019700006582]",0,,,,,,,,,,,,,,,,,,,,,,,,,,,,,,,,,,,,,,,,,,,,,,,,,,,,,,,,,,,,,,,,,,,,,,,,,,,,,,,,,,,,,,,,,,,,,,,,,,,,,,,,,,,,,,,,,,,,,,,,,,,,9R0QRV,train_y,blue_star,bottom_right,2025-06-12_16h13.25.092,HideSeek_v1,2022.2.5,59.94449140397595,
,,,,,,,,,,,,,,,1,0,1,0,1,0,1,0,,,,,,,,,,,,,,,,,,,,,,,,,,,,,,,conditions/schedules/train_y_first/blue_star_00/bottom_right/instructions/Slide14.png,conditions/schedules/train_y_first/blue_star_00/bottom_right/instructions/Audio14.wav,1799.6774009999936,1799.6704395000124,14,"[4.92365669994615, 18.278057900024578, 16.579415799991693, 19.051545700000133, 4.569535700022243, 4.720070699986536, 5.418818900012411, 11.858607000031043, 6.117703899974003, 7.235452699998859, 10.321622700023, 14.009816300007515, 17.796012600010727, 16.38775860000169]","[0.0002196000423282385, 0.032144299999345094, 0.052325099997688085, 19.05155219999142, 0.03285429999232292, 0.04780850000679493, 0.03209890000289306, 0.0465457999962382, 0.04664229997433722, 0.04705420002574101, 0.0660061999806203, 14.009823000000324, 0.06284530000993982, 16.3877652999945]",0,,,,,,,,,,,,,,,,,,,,,,,,,,,,,,,,,,,,,,,,,,,,,,,,,,,,,,,,,,,,,,,,,,,,,,,,,,,,,,,,,,,,,,,,,,,,,,,,,,,,,,,,,,,,,,,,,,,,,,,,,,,,9R0QRV,train_y,blue_star,bottom_right,2025-06-12_16h13.25.092,HideSeek_v1,2022.2.5,59.94449140397595,
2,7,3,7,3,0,0,61,2,instr_dim1_1,,,,,,1,0,1,0,,,,,0,0,0,0,,,,,,,,,,,,,,,,,,,,,,,,,,,,,,,,,,,,,stimuli/alien_stimuli/61.png,conditions/schedules/train_y_first/blue_star_00/bottom_right/inputInstr_1.xlsx,stimuli/alien_stimuli/61.png,1816.1585998999653,1816.1585998999653,1816.1585998999653,1816.1585998999653,1816.1507416800014,return,7.564905999985058,"[-0.16, -0.08, 0, 0.08, 0.16, 0.24, 0.32, 0.4, 0.48, 0.56]","[-0.4, -0.32, -0.24, -0.16, -0.08, 0, 0.08, 0.16, 0.24, 0.32]",3,3,7,7,0.0,0.0,1823.8655802999856,1823.8655802999856,1823.8655802999856,1823.8655802999856,1823.8655802999856,1823.8655802999856,1823.8655802999856,1823.856874739984,5.538759000017308,return,5.387657499988563,stimuli/alien_stimuli/61.png,61,7,2,,,,,,,,,,,,,,,,,,,,,,,,,,,,,,,,,,,,,,,,,,,,,,,,,,,,,,,,,,,,,,,,,,,,,,,,,,,,,,,,,,,,,,,,,9R0QRV,train_y,blue_star,bottom_right,2025-06-12_16h13.25.092,HideSeek_v1,2022.2.5,59.94449140397595,
,,,,,,,,,,,30,,,,1,0,1,0,,,,,,,,,,,,,,,,,,,,,,,,,,,,,,,,,,,,,,,,,,,,,,,,,,,,,,,,,,,,,,,,,,,,,,,,,,,,,,21,0.7,0,0,99,1,30,0,conditions/schedules/train_y_first/blue_star_00/bottom_right/inputTrain_1.1.xlsx,99,1,1,1,0,,,,,,,,,,,,,,,,,,,,,,,,,,,,,,,,,,,,,,,,,,,,,,,,,,,,,,,,,,,,,,,,,,,,,,,,,,,9R0QRV,train_y,blue_star,bottom_right,2025-06-12_16h13.25.092,HideSeek_v1,2022.2.5,59.94449140397595,
,,,,,,,,,,,,,,,2,0,2,0,0,0,0,0,,,,,,,,,,,,,,,,,,,,,,,,,,,,,,,conditions/schedules/train_y_first/blue_star_00/bottom_right/instructions/Slide15.png,conditions/schedules/train_y_first/blue_star_00/bottom_right/instructions/Audio15.wav,1829.4356613999698,1829.4281223000144,15,"[4.92365669994615, 18.278057900024578, 16.579415799991693, 19.051545700000133, 4.569535700022243, 4.720070699986536, 5.418818900012411, 11.858607000031043, 6.117703899974003, 7.235452699998859, 10.321622700023, 14.009816300007515, 17.796012600010727, 16.38775860000169, 44.211105399997905]","[0.0002196000423282385, 0.032144299999345094, 0.052325099997688085, 19.05155219999142, 0.03285429999232292, 0.04780850000679493, 0.03209890000289306, 0.0465457999962382, 0.04664229997433722, 0.04705420002574101, 0.0660061999806203, 14.009823000000324, 0.06284530000993982, 16.3877652999945, 44.21111340000061]",0,,,,,,,,,,,,,,,,,,,,,,,,,,,,,,,,,,,,,,,,,,,,,,,,,,,,,,,,,,,,,,,,,,,,,,,,,,,,,,,,,,,,,,,,,,,,,,,,,,,,,,,,,,,,,,,,,,,,,,,,,,,,9R0QRV,train_y,blue_star,bottom_right,2025-06-12_16h13.25.092,HideSeek_v1,2022.2.5,59.94449140397595,
,,,,,,,,,,,,,,,2,0,2,0,1,0,1,0,,,,,,,,,,,,,,,,,,,,,,,,,,,,,,,conditions/schedules/train_y_first/blue_star_00/bottom_right/instructions/Slide16.png,conditions/schedules/train_y_first/blue_star_00/bottom_right/instructions/Audio16.wav,1873.7211954999948,1873.715400199988,16,"[4.92365669994615, 18.278057900024578, 16.579415799991693, 19.051545700000133, 4.569535700022243, 4.720070699986536, 5.418818900012411, 11.858607000031043, 6.117703899974003, 7.235452699998859, 10.321622700023, 14.009816300007515, 17.796012600010727, 16.38775860000169, 44.211105399997905, 21.643805400002748]","[0.0002196000423282385, 0.032144299999345094, 0.052325099997688085, 19.05155219999142, 0.03285429999232292, 0.04780850000679493, 0.03209890000289306, 0.0465457999962382, 0.04664229997433722, 0.04705420002574101, 0.0660061999806203, 14.009823000000324, 0.06284530000993982, 16.3877652999945, 0.0002316000172868371, 21.64381159999175]",0,,,,,,,,,,,,,,,,,,,,,,,,,,,,,,,,,,,,,,,,,,,,,,,,,,,,,,,,,,,,,,,,,,,,,,,,,,,,,,,,,,,,,,,,,,,,,,,,,,,,,,,,,,,,,,,,,,,,,,,,,,,,9R0QRV,train_y,blue_star,bottom_right,2025-06-12_16h13.25.092,HideSeek_v1,2022.2.5,59.94449140397595,
,5,0,5,4,0,4,65,,train_dim1_1,1,30,,,,2,0,2,0,,,,,,,,,0,0,0,0,0,0,0,0,0,0,0,0,,,,,,,,,,,,,,,,,,,,,,,,,stimuli/alien_stimuli/65.png,,,,,,,,,,,,,,,,,,,,,,,,,,,,,,,,,,,,,,,30,,,,,,,,1895.4662615999696,1895.4662615999696,1895.4662615999696,1895.4662615999696,1895.4662615999696,up,5.982950599980541,0,0,0,99,0.24,-0.32,up,5.8884864000137895,,,,,,,,,,,,,,,,,,,,,,,,,,,,,,,,,,,,,,,,,,,,,,,,,,,,,,,,,,,,9R0QRV,train_y,blue_star,bottom_right,2025-06-12_16h13.25.092,HideSeek_v1,2022.2.5,59.94449140397595,
,5,0,5,4,0,4,65,,train_dim1_1,1,30,,,,2,0,2,0,,,,,,,,,0,0,0,0,0,0,0,0,1,0,1,0,,,,,,,,,,,,,,,,,,,,,,,,,,,,,,,,,,,,,,,,,,,,,,,,,,,,,,,,,,,,,,,,30,,,,,,,,1901.4375876999693,1901.4375876999693,1901.4375876999693,1901.4375876999693,1901.4375876999693,up,3.227585300046485,0,0,0,99,0.24,-0.24,up,3.1495402000145987,,,,,,,,,,,,,,,,,,,,,,,,,,,,,,,,,,,,,,,,,,,,,,,,,,,,,,,,,,,,9R0QRV,train_y,blue_star,bottom_right,2025-06-12_16h13.25.092,HideSeek_v1,2022.2.5,59.94449140397595,
,5,0,5,4,0,4,65,,train_dim1_1,1,30,,,,2,0,2,0,,,,,,,,,0,0,0,0,0,0,0,0,2,0,2,0,,,,,,,,,,,,,,,,,,,,,,,,,,,,,,,,,,,,,,,,,,,,,,,,,,,,,,,,,,,,,,,,30,,,,,,,,1904.6702856000047,1904.6702856000047,1904.6702856000047,1904.6702856000047,1904.6702856000047,up,1.6779344999813475,0,0,0,99,0.24,-0.15999999999999998,up,1.5963688000338152,,,,,,,,,,,,,,,,,,,,,,,,,,,,,,,,,,,,,,,,,,,,,,,,,,,,,,,,,,,,9R0QRV,train_y,blue_star,bottom_right,2025-06-12_16h13.25.092,HideSeek_v1,2022.2.5,59.94449140397595,
,5,0,5,4,0,4,65,,train_dim1_1,1,30,,,,2,0,2,0,,,,,,,,,0,0,0,0,0,0,0,0,3,0,3,0,,,,,,,,,,,,,,,,,,,,,,,,,,,,,,,,,,,,,,,,,,,,,,,,,,,,,,,,,,,,,,,,30,,,,,,,,1906.3567009000108,1906.3567009000108,1906.3567009000108,1906.3567009000108,1906.3567009000108,up,1.5104654000024311,0,0,0,99,0.24,-0.07999999999999997,up,1.430118299962487,,,,,,,,,,,,,,,,,,,,,,,,,,,,,,,,,,,,,,,,,,,,,,,,,,,,,,,,,,,,9R0QRV,train_y,blue_star,bottom_right,2025-06-12_16h13.25.092,HideSeek_v1,2022.2.5,59.94449140397595,
,5,0,5,4,0,4,65,,train_dim1_1,1,30,,,,2,0,2,0,,,,,,,,,0,0,0,0,0,0,0,0,4,0,4,0,,,,,,,,,,,,,,,,,,,,,,,,,,,,,,,,,,,,,,,,,,,,,,,,,,,,,,,,,,,,,,,,30,,,,,,,,1907.8741828000057,1907.8741828000057,1907.8741828000057,1907.8741828000057,1907.8741828000057,up,1.0768390000448562,0,0,0,99,0.24,2.7755575615628914e-17,up,1.0033682999783196,,,,,,,,,,,,,,,,,,,,,,,,,,,,,,,,,,,,,,,,,,,,,,,,,,,,,,,,,,,,9R0QRV,train_y,blue_star,bottom_right,2025-06-12_16h13.25.092,HideSeek_v1,2022.2.5,59.94449140397595,
,5,0,5,4,0,4,65,,train_dim1_1,1,30,,,,2,0,2,0,,,,,,,,,0,0,0,0,0,0,0,0,5,0,5,0,,,,,,,,,,,,,,,,,,,,,,,,,,,,,,,,,,,,,,,,,,,,,,,,,,,,,,,,,,,,,,,,30,,,,,,,,1908.9583641999634,1908.9583641999634,1908.9583641999634,1908.9583641999634,1908.9583641999634,return,1.0937466999748722,0,1,0,0,0.24,2.7755575615628914e-17,return,1.0159666000399739,5,0,0.24,2.7755575615628914e-17,,,,,,,,,,,,,,,,,,,,,,,,,,,,,,,,,,,,,,,,,,,,,,,,,,,,,,,,9R0QRV,train_y,blue_star,bottom_right,2025-06-12_16h13.25.092,HideSeek_v1,2022.2.5,59.94449140397595,
,8,2,8,7,0,5,66,,train_dim1_1,2,30,,,,2,0,2,0,,,,,,,,,0,0,0,0,0,1,1,1,0,0,0,0,,,,,,,,,,,,,,,,,,,,,,,,,stimuli/alien_stimuli/66.png,,,,,,,,,,,,,,,,,,,,,,,,,,,,,stimuli/alien_stimuli/65.png,65,5,3,,,,,,,30,,,,,,,,1946.0210842000088,1946.0210842000088,1946.0210842000088,1946.0210842000088,1946.0210842000088,up,5.839578400016762,0,1,0,99,0.48,-0.15999999999999998,up,5.742928899999242,,,,,1944.4412920000032,1946.0210842000088,0.24,-0.08,0.32,0.0,-0.24000000000000002,0.24,0.24,0.24,-0.08,1911.6247487000073,1911.6247487000073,1911.6247487000073,1911.6247487000073,1911.6247487000073,1911.6247487000073,1911.6247487000073,1911.6247487000073,1911.6131108599948,32.929532399983145,return,32.786474200023804,,,,,,,,,,,,,,,,,,,,,,,,,,,,,,,,,9R0QRV,train_y,blue_star,bottom_right,2025-06-12_16h13.25.092,HideSeek_v1,2022.2.5,59.94449140397595,
,8,2,8,7,0,5,66,,train_dim1_1,2,30,,,,2,0,2,0,,,,,,,,,0,0,0,0,0,1,1,1,1,0,1,0,,,,,,,,,,,,,,,,,,,,,,,,,,,,,,,,,,,,,,,,,,,,,,,,,,,,,,,,,,,,,,,,30,,,,,,,,1951.8628513999865,1951.8628513999865,1951.8628513999865,1951.8628513999865,1951.8628513999865,up,1.1091557000181638,0,1,0,99,0.48,-0.07999999999999997,up,1.00810909998836,,,,,,,,,,,,,,,,,,,,,,,,,,,,,,,,,,,,,,,,,,,,,,,,,,,,,,,,,,,,9R0QRV,train_y,blue_star,bottom_right,2025-06-12_16h13.25.092,HideSeek_v1,2022.2.5,59.94449140397595,
,8,2,8,7,0,5,66,,train_dim1_1,2,30,,,,2,0,2,0,,,,,,,,,0,0,0,0,0,1,1,1,2,0,2,0,,,,,,,,,,,,,,,,,,,,,,,,,,,,,,,,,,,,,,,,,,,,,,,,,,,,,,,,,,,,,,,,30,,,,,,,,1952.9634560999693,1952.9634560999693,1952.9634560999693,1952.9634560999693,1952.9634560999693,up,1.0600479999557137,0,1,0,99,0.48,2.7755575615628914e-17,up,0.9781960000400431,,,,,,,,,,,,,,,,,,,,,,,,,,,,,,,,,,,,,,,,,,,,,,,,,,,,,,,,,,,,9R0QRV,train_y,blue_star,bottom_right,2025-06-12_16h13.25.092,HideSeek_v1,2022.2.5,59.94449140397595,
,8,2,8,7,0,5,66,,train_dim1_1,2,30,,,,2,0,2,0,,,,,,,,,0,0,0,0,0,1,1,1,3,0,3,0,,,,,,,,,,,,,,,,,,,,,,,,,,,,,,,,,,,,,,,,,,,,,,,,,,,,,,,,,,,,,,,,30,,,,,,,,1954.02916549996,1954.02916549996,1954.02916549996,1954.02916549996,1954.02916549996,up,1.0439645000151359,0,1,0,99,0.48,0.08000000000000003,up,0.9602600999642164,,,,,,,,,,,,,,,,,,,,,,,,,,,,,,,,,,,,,,,,,,,,,,,,,,,,,,,,,,,,9R0QRV,train_y,blue_star,bottom_right,2025-06-12_16h13.25.092,HideSeek_v1,2022.2.5,59.94449140397595,
,8,2,8,7,0,5,66,,train_dim1_1,2,30,,,,2,0,2,0,,,,,,,,,0,0,0,0,0,1,1,1,4,0,4,0,,,,,,,,,,,,,,,,,,,,,,,,,,,,,,,,,,,,,,,,,,,,,,,,,,,,,,,,,,,,,,,,30,,,,,,,,1955.079707900004,1955.079707900004,1955.079707900004,1955.079707900004,1955.079707900004,up,1.1437221000087447,0,1,0,99,0.48,0.16000000000000003,up,1.0602481000241823,,,,,,,,,,,,,,,,,,,,,,,,,,,,,,,,,,,,,,,,,,,,,,,,,,,,,,,,,,,,9R0QRV,train_y,blue_star,bottom_right,2025-06-12_16h13.25.092,HideSeek_v1,2022.2.5,59.94449140397595,
,8,2,8,7,0,5,66,,train_dim1_1,2,30,,,,2,0,2,0,,,,,,,,,0,0,0,0,0,1,1,1,5,0,5,0,,,,,,,,,,,,,,,,,,,,,,,,,,,,,,,,,,,,,,,,,,,,,,,,,,,,,,,,,,,,,,,,30,,,,,,,,1956.2318621999584,1956.2318621999584,1956.2318621999584,1956.2318621999584,1956.2318621999584,return,1.0268036000197753,1,0,0,1,0.48,0.16000000000000003,return,0.9528004000312649,10,0,0.48,0.16000000000000003,,,,,,,,,,,,,,,,,,,,,,,,,,,,,,,,,,,,,,,,,,,,,,,,,,,,,,,,9R0QRV,train_y,blue_star,bottom_right,2025-06-12_16h13.25.092,HideSeek_v1,2022.2.5,59.94449140397595,
,7,3,7,6,0,3,64,,train_dim1_1,3,30,,,,2,0,2,0,,,,,,,,,0,0,0,0,0,2,2,2,0,0,0,0,,,,,,,,,,,,,,,,,,,,,,,,,stimuli/alien_stimuli/64.png,,,,,,,,,,,,,,,,,,,,,,,,,,,,,stimuli/alien_stimuli/66.png,66,8,4,,,,,,,30,,,,,,,,1968.268886099977,1968.268886099977,1968.268886099977,1968.268886099977,1968.268886099977,up,6.105018000002019,1,0,0,99,0.4,-0.08,up,6.022384300013073,,,,,1966.709501300007,1968.268886099977,0.48,0.16,0.4,0.0,-0.039999999999999994,0.48,0.48,0.48,0.16,1958.835084499966,1958.835084499966,1958.835084499966,1958.835084499966,1958.835084499966,1958.835084499966,1958.835084499966,1958.835084499966,1958.8355298399692,7.992394400003832,return,7.8585561999934725,,,,,,,,,,,,,,,,,,,,,,,,,,,,,,,,,9R0QRV,train_y,blue_star,bottom_right,2025-06-12_16h13.25.092,HideSeek_v1,2022.2.5,59.94449140397595,
,7,3,7,6,0,3,64,,train_dim1_1,3,30,,,,2,0,2,0,,,,,,,,,0,0,0,0,0,2,2,2,1,0,1,0,,,,,,,,,,,,,,,,,,,,,,,,,,,,,,,,,,,,,,,,,,,,,,,,,,,,,,,,,,,,,,,,30,,,,,,,,1974.3898484999663,1974.3898484999663,1974.3898484999663,1974.3898484999663,1974.3898484999663,up,0.9424979999894276,1,0,0,99,0.4,0.0,up,0.8489052000222728,,,,,,,,,,,,,,,,,,,,,,,,,,,,,,,,,,,,,,,,,,,,,,,,,,,,,,,,,,,,9R0QRV,train_y,blue_star,bottom_right,2025-06-12_16h13.25.092,HideSeek_v1,2022.2.5,59.94449140397595,
,7,3,7,6,0,3,64,,train_dim1_1,3,30,,,,2,0,2,0,,,,,,,,,0,0,0,0,0,2,2,2,2,0,2,0,,,,,,,,,,,,,,,,,,,,,,,,,,,,,,,,,,,,,,,,,,,,,,,,,,,,,,,,,,,,,,,,30,,,,,,,,1975.329268499976,1975.329268499976,1975.329268499976,1975.329268499976,1975.329268499976,up,0.876765199995134,1,0,0,99,0.4,0.08,up,0.8002782000112347,,,,,,,,,,,,,,,,,,,,,,,,,,,,,,,,,,,,,,,,,,,,,,,,,,,,,,,,,,,,9R0QRV,train_y,blue_star,bottom_right,2025-06-12_16h13.25.092,HideSeek_v1,2022.2.5,59.94449140397595,
,7,3,7,6,0,3,64,,train_dim1_1,3,30,,,,2,0,2,0,,,,,,,,,0,0,0,0,0,2,2,2,3,0,3,0,,,,,,,,,,,,,,,,,,,,,,,,,,,,,,,,,,,,,,,,,,,,,,,,,,,,,,,,,,,,,,,,30,,,,,,,,1976.2148421999882,1976.2148421999882,1976.2148421999882,1976.2148421999882,1976.2148421999882,up,0.6941892000031658,1,0,0,99,0.4,0.16,up,0.6195287000155076,,,,,,,,,,,,,,,,,,,,,,,,,,,,,,,,,,,,,,,,,,,,,,,,,,,,,,,,,,,,9R0QRV,train_y,blue_star,bottom_right,2025-06-12_16h13.25.092,HideSeek_v1,2022.2.5,59.94449140397595,
,7,3,7,6,0,3,64,,train_dim1_1,3,30,,,,2,0,2,0,,,,,,,,,0,0,0,0,0,2,2,2,4,0,4,0,,,,,,,,,,,,,,,,,,,,,,,,,,,,,,,,,,,,,,,,,,,,,,,,,,,,,,,,,,,,,,,,30,,,,,,,,1976.9142661999795,1976.9142661999795,1976.9142661999795,1976.9142661999795,1976.9142661999795,up,0.7935060000163503,1,0,0,99,0.4,0.24,up,0.7164724000031129,,,,,,,,,,,,,,,,,,,,,,,,,,,,,,,,,,,,,,,,,,,,,,,,,,,,,,,,,,,,9R0QRV,train_y,blue_star,bottom_right,2025-06-12_16h13.25.092,HideSeek_v1,2022.2.5,59.94449140397595,
,7,3,7,6,0,3,64,,train_dim1_1,3,30,,,,2,0,2,0,,,,,,,,,0,0,0,0,0,2,2,2,5,0,5,0,,,,,,,,,,,,,,,,,,,,,,,,,,,,,,,,,,,,,,,,,,,,,,,,,,,,,,,,,,,,,,,,30,,,,,,,,1977.7153186000069,1977.7153186000069,1977.7153186000069,1977.7153186000069,1977.7153186000069,return,0.9271115999436006,1,0,0,0,0.4,0.24,return,0.8453796000103466,15,0,0.4,0.24,,,,,,,,,,,,,,,,,,,,,,,,,,,,,,,,,,,,,,,,,,,,,,,,,,,,,,,,9R0QRV,train_y,blue_star,bottom_right,2025-06-12_16h13.25.092,HideSeek_v1,2022.2.5,59.94449140397595,
,5,1,5,2,0,1,62,,train_dim1_1,4,30,,,,2,0,2,0,,,,,,,,,0,0,0,0,0,3,3,3,0,0,0,0,,,,,,,,,,,,,,,,,,,,,,,,,stimuli/alien_stimuli/62.png,,,,,,,,,,,,,,,,,,,,,,,,,,,,,stimuli/alien_stimuli/64.png,64,7,5,,,,,,,30,,,,,,,,1991.4660763000138,1991.4660763000138,1991.4660763000138,1991.4660763000138,1991.4660763000138,up,8.043603999947663,1,0,0,99,0.24,-0.24,up,7.953675500000827,,,,,1989.895539899997,1991.4660763000138,0.4,0.08,0.24,0.0,-0.04,0.4,0.4,0.4,0.08,1980.2123165999656,1980.2123165999656,1980.2123165999656,1980.2123165999656,1980.2123165999656,1980.2123165999656,1980.2123165999656,1980.2123165999656,1980.2032794599654,9.793649300001562,return,9.654770800028928,,,,,,,,,,,,,,,,,,,,,,,,,,,,,,,,,9R0QRV,train_y,blue_star,bottom_right,2025-06-12_16h13.25.092,HideSeek_v1,2022.2.5,59.94449140397595,
,5,1,5,2,0,1,62,,train_dim1_1,4,30,,,,2,0,2,0,,,,,,,,,0,0,0,0,0,3,3,3,1,0,1,0,,,,,,,,,,,,,,,,,,,,,,,,,,,,,,,,,,,,,,,,,,,,,,,,,,,,,,,,,,,,,,,,30,,,,,,,,1999.501978299988,1999.501978299988,1999.501978299988,1999.501978299988,1999.501978299988,return,2.593886599992402,2,0,0,1,0.24,-0.24,return,2.5106923999846913,16,0,0.24,-0.24,,,,,,,,,,,,,,,,,,,,,,,,,,,,,,,,,,,,,,,,,,,,,,,,,,,,,,,,9R0QRV,train_y,blue_star,bottom_right,2025-06-12_16h13.25.092,HideSeek_v1,2022.2.5,59.94449140397595,
,8,3,8,3,0,0,61,,train_dim1_1,5,30,,,,2,0,2,0,,,,,,,,,0,0,0,0,0,4,4,4,0,0,0,0,,,,,,,,,,,,,,,,,,,,,,,,,stimuli/alien_stimuli/61.png,,,,,,,,,,,,,,,,,,,,,,,,,,,,,stimuli/alien_stimuli/62.png,62,5,6,,,,,,,30,,,,,,,,2008.2297369999578,2008.2297369999578,2008.2297369999578,2008.2297369999578,2008.2297369999578,up,3.8730069000157528,2,0,0,99,0.48,-0.08,up,3.7820472000166774,,,,,2006.6592986999894,2008.2297369999578,0.24,-0.24,0.08,0.0,-0.28,0.24,0.24,0.24,-0.24,2003.6638046999578,2003.6638046999578,2003.6638046999578,2003.6638046999578,2003.6638046999578,2003.6638046999578,2003.6638046999578,2003.6638046999578,2003.6563741599675,3.104817900049966,return,2.9771031999844126,,,,,,,,,,,,,,,,,,,,,,,,,,,,,,,,,9R0QRV,train_y,blue_star,bottom_right,2025-06-12_16h13.25.092,HideSeek_v1,2022.2.5,59.94449140397595,
,8,3,8,3,0,0,61,,train_dim1_1,5,30,,,,2,0,2,0,,,,,,,,,0,0,0,0,0,4,4,4,1,0,1,0,,,,,,,,,,,,,,,,,,,,,,,,,,,,,,,,,,,,,,,,,,,,,,,,,,,,,,,,,,,,,,,,30,,,,,,,,2012.095254099986,2012.095254099986,2012.095254099986,2012.095254099986,2012.095254099986,up,2.210238100029528,2,0,0,99,0.48,0.0,up,2.1273271000245586,,,,,,,,,,,,,,,,,,,,,,,,,,,,,,,,,,,,,,,,,,,,,,,,,,,,,,,,,,,,9R0QRV,train_y,blue_star,bottom_right,2025-06-12_16h13.25.092,HideSeek_v1,2022.2.5,59.94449140397595,
,8,3,8,3,0,0,61,,train_dim1_1,5,30,,,,2,0,2,0,,,,,,,,,0,0,0,0,0,4,4,4,2,0,2,0,,,,,,,,,,,,,,,,,,,,,,,,,,,,,,,,,,,,,,,,,,,,,,,,,,,,,,,,,,,,,,,,30,,,,,,,,2014.3129422999918,2014.3129422999918,2014.3129422999918,2014.3129422999918,2014.3129422999918,return,1.060572799993679,2,0,0,0,0.48,0.0,return,0.9862551999976858,18,0,0.48,0.0,,,,,,,,,,,,,,,,,,,,,,,,,,,,,,,,,,,,,,,,,,,,,,,,,,,,,,,,9R0QRV,train_y,blue_star,bottom_right,2025-06-12_16h13.25.092,HideSeek_v1,2022.2.5,59.94449140397595,
,6,4,6,5,0,1,62,,train_dim1_1,6,30,,,,2,0,2,0,,,,,,,,,0,0,0,0,0,5,5,5,0,0,0,0,,,,,,,,,,,,,,,,,,,,,,,,,stimuli/alien_stimuli/62.png,,,,,,,,,,,,,,,,,,,,,,,,,,,,,stimuli/alien_stimuli/61.png,61,8,7,,,,,,,30,,,,,,,,2023.127864399983,2023.127864399983,2023.127864399983,2023.127864399983,2023.127864399983,up,4.1553823000285774,2,0,0,99,0.32,0.0,up,4.073252799978945,,,,,2021.5717472999822,2023.127864399983,0.48,-0.16,0.0,0.0,-0.16,0.48,0.48,0.48,-0.16,2016.942990899959,2016.942990899959,2016.942990899959,2016.942990899959,2016.942990899959,2016.942990899959,2016.942990899959,2016.942990899959,2016.934021360008,4.739289600052871,return,4.596487000002526,,,,,,,,,,,,,,,,,,,,,,,,,,,,,,,,,9R0QRV,train_y,blue_star,bottom_right,2025-06-12_16h13.25.092,HideSeek_v1,2022.2.5,59.94449140397595,
,6,4,6,5,0,1,62,,train_dim1_1,6,30,,,,2,0,2,0,,,,,,,,,0,0,0,0,0,5,5,5,1,0,1,0,,,,,,,,,,,,,,,,,,,,,,,,,,,,,,,,,,,,,,,,,,,,,,,,,,,,,,,,,,,,,,,,30,,,,,,,,2027.2921115999925,2027.2921115999925,2027.2921115999925,2027.2921115999925,2027.2921115999925,return,0.960593499999959,3,0,0,1,0.32,0.0,return,0.8735904999775812,19,0,0.32,0.0,,,,,,,,,,,,,,,,,,,,,,,,,,,,,,,,,,,,,,,,,,,,,,,,,,,,,,,,9R0QRV,train_y,blue_star,bottom_right,2025-06-12_16h13.25.092,HideSeek_v1,2022.2.5,59.94449140397595,
,6,3,6,6,0,3,64,,train_dim1_1,7,30,,,,2,0,2,0,,,,,,,,,0,0,0,0,0,6,6,6,0,0,0,0,,,,,,,,,,,,,,,,,,,,,,,,,stimuli/alien_stimuli/64.png,,,,,,,,,,,,,,,,,,,,,,,,,,,,,stimuli/alien_stimuli/62.png,62,6,8,,,,,,,30,,,,,,,,2033.6702598999836,2033.6702598999836,2033.6702598999836,2033.6702598999836,2033.6702598999836,up,6.640153800020926,3,0,0,99,0.32,-0.08,up,6.551905300002545,,,,,2032.113765099959,2033.6702598999836,0.32,0,0.08,0.0,-0.04,0.32,0.32,0.32,0,2029.8282016000012,2029.8282016000012,2029.8282016000012,2029.8282016000012,2029.8282016000012,2029.8282016000012,2029.8282016000012,2029.8282016000012,2029.8278707399732,2.40335049998248,return,2.2571393999969587,,,,,,,,,,,,,,,,,,,,,,,,,,,,,,,,,9R0QRV,train_y,blue_star,bottom_right,2025-06-12_16h13.25.092,HideSeek_v1,2022.2.5,59.94449140397595,
,6,3,6,6,0,3,64,,train_dim1_1,7,30,,,,2,0,2,0,,,,,,,,,0,0,0,0,0,6,6,6,1,0,1,0,,,,,,,,,,,,,,,,,,,,,,,,,,,,,,,,,,,,,,,,,,,,,,,,,,,,,,,,,,,,,,,,30,,,,,,,,2040.3219464999856,2040.3219464999856,2040.3219464999856,2040.3219464999856,2040.3219464999856,up,2.2099611000157893,3,0,0,99,0.32,0.0,up,2.1275263000279665,,,,,,,,,,,,,,,,,,,,,,,,,,,,,,,,,,,,,,,,,,,,,,,,,,,,,,,,,,,,9R0QRV,train_y,blue_star,bottom_right,2025-06-12_16h13.25.092,HideSeek_v1,2022.2.5,59.94449140397595,
,6,3,6,6,0,3,64,,train_dim1_1,7,30,,,,2,0,2,0,,,,,,,,,0,0,0,0,0,6,6,6,2,0,2,0,,,,,,,,,,,,,,,,,,,,,,,,,,,,,,,,,,,,,,,,,,,,,,,,,,,,,,,,,,,,,,,,30,,,,,,,,2042.53713349998,2042.53713349998,2042.53713349998,2042.53713349998,2042.53713349998,up,1.1775256000109948,3,0,0,99,0.32,0.08,up,1.0957810999825597,,,,,,,,,,,,,,,,,,,,,,,,,,,,,,,,,,,,,,,,,,,,,,,,,,,,,,,,,,,,9R0QRV,train_y,blue_star,bottom_right,2025-06-12_16h13.25.092,HideSeek_v1,2022.2.5,59.94449140397595,
,6,3,6,6,0,3,64,,train_dim1_1,7,30,,,,2,0,2,0,,,,,,,,,0,0,0,0,0,6,6,6,3,0,3,0,,,,,,,,,,,,,,,,,,,,,,,,,,,,,,,,,,,,,,,,,,,,,,,,,,,,,,,,,,,,,,,,30,,,,,,,,2043.7200326999882,2043.7200326999882,2043.7200326999882,2043.7200326999882,2043.7200326999882,return,0.860041200008709,4,0,0,1,0.32,0.08,return,0.78076700004749,22,0,0.32,0.08,,,,,,,,,,,,,,,,,,,,,,,,,,,,,,,,,,,,,,,,,,,,,,,,,,,,,,,,9R0QRV,train_y,blue_star,bottom_right,2025-06-12_16h13.25.092,HideSeek_v1,2022.2.5,59.94449140397595,
,9,2,9,2,0,0,61,,train_dim1_1,8,30,,,,2,0,2,0,,,,,,,,,0,0,0,0,0,7,7,7,0,0,0,0,,,,,,,,,,,,,,,,,,,,,,,,,stimuli/alien_stimuli/61.png,,,,,,,,,,,,,,,,,,,,,,,,,,,,,stimuli/alien_stimuli/64.png,64,6,9,,,,,,,30,,,,,,,,2049.7668921999866,2049.7668921999866,2049.7668921999866,2049.7668921999866,2049.7668921999866,up,6.2742815999663435,4,0,0,99,0.56,-0.15999999999999998,up,6.198032799991779,,,,,2048.2102706999867,2049.7668921999866,0.32,0.08,0.24,0.0,-0.04,0.32,0.32,0.32,0.08,2046.1484082000097,2046.1484082000097,2046.1484082000097,2046.1484082000097,2046.1484082000097,2046.1484082000097,2046.1484082000097,2046.1484082000097,2046.1416325600003,2.17076150001958,return,2.0439514000318013,,,,,,,,,,,,,,,,,,,,,,,,,,,,,,,,,9R0QRV,train_y,blue_star,bottom_right,2025-06-12_16h13.25.092,HideSeek_v1,2022.2.5,59.94449140397595,
,9,2,9,2,0,0,61,,train_dim1_1,8,30,,,,2,0,2,0,,,,,,,,,0,0,0,0,0,7,7,7,1,0,1,0,,,,,,,,,,,,,,,,,,,,,,,,,,,,,,,,,,,,,,,,,,,,,,,,,,,,,,,,,,,,,,,,30,,,,,,,,2056.0498114000075,2056.0498114000075,2056.0498114000075,2056.0498114000075,2056.0498114000075,return,0.8083334999973886,4,1,0,0,0.56,-0.15999999999999998,return,0.732839000003878,23,0,0.56,-0.15999999999999998,,,,,,,,,,,,,,,,,,,,,,,,,,,,,,,,,,,,,,,,,,,,,,,,,,,,,,,,9R0QRV,train_y,blue_star,bottom_right,2025-06-12_16h13.25.092,HideSeek_v1,2022.2.5,59.94449140397595,
,9,3,9,7,0,4,65,,train_dim1_1,9,30,,,,2,0,2,0,,,,,,,,,0,0,0,0,0,8,8,8,0,0,0,0,,,,,,,,,,,,,,,,,,,,,,,,,stimuli/alien_stimuli/65.png,,,,,,,,,,,,,,,,,,,,,,,,,,,,,stimuli/alien_stimuli/61.png,61,9,10,,,,,,,30,,,,,,,,2067.029567199992,2067.029567199992,2067.029567199992,2067.029567199992,2067.029567199992,up,3.705647900002077,4,1,0,99,0.56,-0.08,up,3.6251760000013746,,,,,2065.474940199987,2067.029567199992,0.56,-0.24,0.0,0.0,-0.24,0.56,0.56,0.56,-0.24,2058.4256339999847,2058.4256339999847,2058.4256339999847,2058.4256339999847,2058.4256339999847,2058.4256339999847,2058.4256339999847,2058.4256339999847,2058.4182714599883,7.158512900001369,return,7.032508699980099,,,,,,,,,,,,,,,,,,,,,,,,,,,,,,,,,9R0QRV,train_y,blue_star,bottom_right,2025-06-12_16h13.25.092,HideSeek_v1,2022.2.5,59.94449140397595,
,9,3,9,7,0,4,65,,train_dim1_1,9,30,,,,2,0,2,0,,,,,,,,,0,0,0,0,0,8,8,8,1,0,1,0,,,,,,,,,,,,,,,,,,,,,,,,,,,,,,,,,,,,,,,,,,,,,,,,,,,,,,,,,,,,,,,,30,,,,,,,,2070.7424727999605,2070.7424727999605,2070.7424727999605,2070.7424727999605,2070.7424727999605,up,0.7433959000045434,4,1,0,99,0.56,0.0,up,0.6661981000215746,,,,,,,,,,,,,,,,,,,,,,,,,,,,,,,,,,,,,,,,,,,,,,,,,,,,,,,,,,,,9R0QRV,train_y,blue_star,bottom_right,2025-06-12_16h13.25.092,HideSeek_v1,2022.2.5,59.94449140397595,
,9,3,9,7,0,4,65,,train_dim1_1,9,30,,,,2,0,2,0,,,,,,,,,0,0,0,0,0,8,8,8,2,0,2,0,,,,,,,,,,,,,,,,,,,,,,,,,,,,,,,,,,,,,,,,,,,,,,,,,,,,,,,,,,,,,,,,30,,,,,,,,2071.493394399993,2071.493394399993,2071.493394399993,2071.493394399993,2071.493394399993,up,0.6932666999637149,4,1,0,99,0.56,0.08,up,0.6129508999874815,,,,,,,,,,,,,,,,,,,,,,,,,,,,,,,,,,,,,,,,,,,,,,,,,,,,,,,,,,,,9R0QRV,train_y,blue_star,bottom_right,2025-06-12_16h13.25.092,HideSeek_v1,2022.2.5,59.94449140397595,
,9,3,9,7,0,4,65,,train_dim1_1,9,30,,,,2,0,2,0,,,,,,,,,0,0,0,0,0,8,8,8,3,0,3,0,,,,,,,,,,,,,,,,,,,,,,,,,,,,,,,,,,,,,,,,,,,,,,,,,,,,,,,,,,,,,,,,30,,,,,,,,2072.1941732999985,2072.1941732999985,2072.1941732999985,2072.1941732999985,2072.1941732999985,up,0.8603851000079885,4,1,0,99,0.56,0.16,up,0.7823899999493733,,,,,,,,,,,,,,,,,,,,,,,,,,,,,,,,,,,,,,,,,,,,,,,,,,,,,,,,,,,,9R0QRV,train_y,blue_star,bottom_right,2025-06-12_16h13.25.092,HideSeek_v1,2022.2.5,59.94449140397595,
,9,3,9,7,0,4,65,,train_dim1_1,9,30,,,,2,0,2,0,,,,,,,,,0,0,0,0,0,8,8,8,4,0,4,0,,,,,,,,,,,,,,,,,,,,,,,,,,,,,,,,,,,,,,,,,,,,,,,,,,,,,,,,,,,,,,,,30,,,,,,,,2073.0612316000042,2073.0612316000042,2073.0612316000042,2073.0612316000042,2073.0612316000042,return,6.231532100006007,5,0,0,1,0.56,0.16,return,6.154794099973515,27,0,0.56,0.16,,,,,,,,,,,,,,,,,,,,,,,,,,,,,,,,,,,,,,,,,,,,,,,,,,,,,,,,9R0QRV,train_y,blue_star,bottom_right,2025-06-12_16h13.25.092,HideSeek_v1,2022.2.5,59.94449140397595,
,7,2,7,7,0,5,66,,train_dim1_1,10,30,,,,2,0,2,0,,,,,,,,,0,0,0,0,0,9,9,9,0,0,0,0,,,,,,,,,,,,,,,,,,,,,,,,,stimuli/alien_stimuli/66.png,,,,,,,,,,,,,,,,,,,,,,,,,,,,,stimuli/alien_stimuli/65.png,65,9,11,,,,,,,30,,,,,,,,2084.960968500003,2084.960968500003,2084.960968500003,2084.960968500003,2084.960968500003,up,2.9893720999825746,5,0,0,99,0.4,-0.15999999999999998,up,2.9106320000137202,,,,,2083.4062463999726,2084.960968500003,0.56,0.16,0.32,0.0,0.0,0.56,0.56,0.56,0.16,2080.8625082999934,2080.8625082999934,2080.8625082999934,2080.8625082999934,2080.8625082999934,2080.8625082999934,2080.8625082999934,2080.8625082999934,2080.8534159599803,2.654609300021548,return,2.5121356999734417,,,,,,,,,,,,,,,,,,,,,,,,,,,,,,,,,9R0QRV,train_y,blue_star,bottom_right,2025-06-12_16h13.25.092,HideSeek_v1,2022.2.5,59.94449140397595,
,7,2,7,7,0,5,66,,train_dim1_1,10,30,,,,2,0,2,0,,,,,,,,,0,0,0,0,0,9,9,9,1,0,1,0,,,,,,,,,,,,,,,,,,,,,,,,,,,,,,,,,,,,,,,,,,,,,,,,,,,,,,,,,,,,,,,,30,,,,,,,,2087.9573200999876,2087.9573200999876,2087.9573200999876,2087.9573200999876,2087.9573200999876,up,0.7433424000046216,5,0,0,99,0.4,-0.07999999999999997,up,0.6709691999712959,,,,,,,,,,,,,,,,,,,,,,,,,,,,,,,,,,,,,,,,,,,,,,,,,,,,,,,,,,,,9R0QRV,train_y,blue_star,bottom_right,2025-06-12_16h13.25.092,HideSeek_v1,2022.2.5,59.94449140397595,
,7,2,7,7,0,5,66,,train_dim1_1,10,30,,,,2,0,2,0,,,,,,,,,0,0,0,0,0,9,9,9,2,0,2,0,,,,,,,,,,,,,,,,,,,,,,,,,,,,,,,,,,,,,,,,,,,,,,,,,,,,,,,,,,,,,,,,30,,,,,,,,2088.707681,2088.707681,2088.707681,2088.707681,2088.707681,up,0.7600574999814853,5,0,0,99,0.4,2.7755575615628914e-17,up,0.6766897999914363,,,,,,,,,,,,,,,,,,,,,,,,,,,,,,,,,,,,,,,,,,,,,,,,,,,,,,,,,,,,9R0QRV,train_y,blue_star,bottom_right,2025-06-12_16h13.25.092,HideSeek_v1,2022.2.5,59.94449140397595,
,7,2,7,7,0,5,66,,train_dim1_1,10,30,,,,2,0,2,0,,,,,,,,,0,0,0,0,0,9,9,9,3,0,3,0,,,,,,,,,,,,,,,,,,,,,,,,,,,,,,,,,,,,,,,,,,,,,,,,,,,,,,,,,,,,,,,,30,,,,,,,,2089.4776864000014,2089.4776864000014,2089.4776864000014,2089.4776864000014,2089.4776864000014,up,0.9102934000547975,5,0,0,99,0.4,0.08000000000000003,up,0.8243711999966763,,,,,,,,,,,,,,,,,,,,,,,,,,,,,,,,,,,,,,,,,,,,,,,,,,,,,,,,,,,,9R0QRV,train_y,blue_star,bottom_right,2025-06-12_16h13.25.092,HideSeek_v1,2022.2.5,59.94449140397595,
,7,2,7,7,0,5,66,,train_dim1_1,10,30,,,,2,0,2,0,,,,,,,,,0,0,0,0,0,9,9,9,4,0,4,0,,,,,,,,,,,,,,,,,,,,,,,,,,,,,,,,,,,,,,,,,,,,,,,,,,,,,,,,,,,,,,,,30,,,,,,,,2090.392485199962,2090.392485199962,2090.392485199962,2090.392485199962,2090.392485199962,up,4.5302636999986134,5,0,0,99,0.4,0.16000000000000003,up,4.444051099999342,,,,,,,,,,,,,,,,,,,,,,,,,,,,,,,,,,,,,,,,,,,,,,,,,,,,,,,,,,,,9R0QRV,train_y,blue_star,bottom_right,2025-06-12_16h13.25.092,HideSeek_v1,2022.2.5,59.94449140397595,
,7,2,7,7,0,5,66,,train_dim1_1,10,30,,,,2,0,2,0,,,,,,,,,0,0,0,0,0,9,9,9,5,0,5,0,,,,,,,,,,,,,,,,,,,,,,,,,,,,,,,,,,,,,,,,,,,,,,,,,,,,,,,,,,,,,,,,30,,,,,,,,2094.931229299982,2094.931229299982,2094.931229299982,2094.931229299982,2094.931229299982,return,1.0265885000117123,6,0,0,1,0.4,0.16000000000000003,return,0.9521142999874428,32,0,0.4,0.16000000000000003,,,,,,,,,,,,,,,,,,,,,,,,,,,,,,,,,,,,,,,,,,,,,,,,,,,,,,,,9R0QRV,train_y,blue_star,bottom_right,2025-06-12_16h13.25.092,HideSeek_v1,2022.2.5,59.94449140397595,
,9,1,9,5,0,4,65,,train_dim1_1,11,30,,,,2,0,2,0,,,,,,,,,0,0,0,0,0,10,10,10,0,0,0,0,,,,,,,,,,,,,,,,,,,,,,,,,stimuli/alien_stimuli/65.png,,,,,,,,,,,,,,,,,,,,,,,,,,,,,stimuli/alien_stimuli/66.png,66,7,12,,,,,,,30,,,,,,,,2101.0229754999746,2101.0229754999746,2101.0229754999746,2101.0229754999746,2101.0229754999746,up,2.9572669999906793,6,0,0,99,0.56,-0.24,up,2.87837990000844,,,,,2099.469711599988,2101.0229754999746,0.4,0.16,0.4,0.0,-0.039999999999999994,0.4,0.4,0.4,0.16,2097.5258071999997,2097.5258071999997,2097.5258071999997,2097.5258071999997,2097.5258071999997,2097.5258071999997,2097.5258071999997,2097.5258071999997,2097.5175508600078,2.0537718000123277,return,1.91381719999481,,,,,,,,,,,,,,,,,,,,,,,,,,,,,,,,,9R0QRV,train_y,blue_star,bottom_right,2025-06-12_16h13.25.092,HideSeek_v1,2022.2.5,59.94449140397595,
,9,1,9,5,0,4,65,,train_dim1_1,11,30,,,,2,0,2,0,,,,,,,,,0,0,0,0,0,10,10,10,1,0,1,0,,,,,,,,,,,,,,,,,,,,,,,,,,,,,,,,,,,,,,,,,,,,,,,,,,,,,,,,,,,,,,,,30,,,,,,,,2103.9889846000005,2103.9889846000005,2103.9889846000005,2103.9889846000005,2103.9889846000005,up,0.7249439999577589,6,0,0,99,0.56,-0.15999999999999998,up,0.6361195999779738,,,,,,,,,,,,,,,,,,,,,,,,,,,,,,,,,,,,,,,,,,,,,,,,,,,,,,,,,,,,9R0QRV,train_y,blue_star,bottom_right,2025-06-12_16h13.25.092,HideSeek_v1,2022.2.5,59.94449140397595,
,9,1,9,5,0,4,65,,train_dim1_1,11,30,,,,2,0,2,0,,,,,,,,,0,0,0,0,0,10,10,10,2,0,2,0,,,,,,,,,,,,,,,,,,,,,,,,,,,,,,,,,,,,,,,,,,,,,,,,,,,,,,,,,,,,,,,,30,,,,,,,,2104.7196822999977,2104.7196822999977,2104.7196822999977,2104.7196822999977,2104.7196822999977,up,2.6118729999870993,6,0,0,99,0.56,-0.07999999999999997,up,2.531375600025058,,,,,,,,,,,,,,,,,,,,,,,,,,,,,,,,,,,,,,,,,,,,,,,,,,,,,,,,,,,,9R0QRV,train_y,blue_star,bottom_right,2025-06-12_16h13.25.092,HideSeek_v1,2022.2.5,59.94449140397595,
,9,1,9,5,0,4,65,,train_dim1_1,11,30,,,,2,0,2,0,,,,,,,,,0,0,0,0,0,10,10,10,3,0,3,0,,,,,,,,,,,,,,,,,,,,,,,,,,,,,,,,,,,,,,,,,,,,,,,,,,,,,,,,,,,,,,,,30,,,,,,,,2107.3406098000123,2107.3406098000123,2107.3406098000123,2107.3406098000123,2107.3406098000123,up,0.5766924999770708,6,0,0,99,0.56,2.7755575615628914e-17,up,0.5009818999678828,,,,,,,,,,,,,,,,,,,,,,,,,,,,,,,,,,,,,,,,,,,,,,,,,,,,,,,,,,,,9R0QRV,train_y,blue_star,bottom_right,2025-06-12_16h13.25.092,HideSeek_v1,2022.2.5,59.94449140397595,
,9,1,9,5,0,4,65,,train_dim1_1,11,30,,,,2,0,2,0,,,,,,,,,0,0,0,0,0,10,10,10,4,0,4,0,,,,,,,,,,,,,,,,,,,,,,,,,,,,,,,,,,,,,,,,,,,,,,,,,,,,,,,,,,,,,,,,30,,,,,,,,2107.925025500008,2107.925025500008,2107.925025500008,2107.925025500008,2107.925025500008,return,1.1941834000172094,7,0,0,1,0.56,2.7755575615628914e-17,return,1.1042328999610618,36,0,0.56,2.7755575615628914e-17,,,,,,,,,,,,,,,,,,,,,,,,,,,,,,,,,,,,,,,,,,,,,,,,,,,,,,,,9R0QRV,train_y,blue_star,bottom_right,2025-06-12_16h13.25.092,HideSeek_v1,2022.2.5,59.94449140397595,
,5,0,5,0,0,0,61,,train_dim1_1,12,30,,,,2,0,2,0,,,,,,,,,0,0,0,0,0,11,11,11,0,0,0,0,,,,,,,,,,,,,,,,,,,,,,,,,stimuli/alien_stimuli/61.png,,,,,,,,,,,,,,,,,,,,,,,,,,,,,stimuli/alien_stimuli/65.png,65,9,13,,,,,,,30,,,,,,,,2113.6350227000075,2113.6350227000075,2113.6350227000075,2113.6350227000075,2113.6350227000075,return,10.595786899968516,8,0,0,1,0.24,-0.4,return,10.51696409995202,36,0,0.24,-0.4,2112.079921700002,2113.6350227000075,0.56,0,0.32,0.0,-0.16,0.56,0.56,0.56,0,2110.685041199962,2110.685041199962,2110.685041199962,2110.685041199962,2110.685041199962,2110.685041199962,2110.685041199962,2110.685041199962,2110.678362859995,1.5033541999873705,return,1.3666210999945179,,,,,,,,,,,,,,,,,,,,,,,,,,,,,,,,,9R0QRV,train_y,blue_star,bottom_right,2025-06-12_16h13.25.092,HideSeek_v1,2022.2.5,59.94449140397595,
,9,3,9,4,0,1,62,,train_dim1_1,13,30,,,,2,0,2,0,,,,,,,,,0,0,0,0,0,12,12,12,0,0,0,0,,,,,,,,,,,,,,,,,,,,,,,,,stimuli/alien_stimuli/62.png,,,,,,,,,,,,,,,,,,,,,,,,,,,,,stimuli/alien_stimuli/61.png,61,5,14,,,,,,,30,,,,,,,,2129.0450245999964,2129.0450245999964,2129.0450245999964,2129.0450245999964,2129.0450245999964,up,2.0241383999818936,8,0,0,99,0.56,-0.08,up,1.940909199998714,,,,,2127.4931439000065,2129.0450245999964,0.24,-0.4,0.0,0.0,-0.4,0.24,0.24,0.24,-0.4,2125.8125168000115,2125.8125168000115,2125.8125168000115,2125.8125168000115,2125.8125168000115,2125.8125168000115,2125.8125168000115,2125.8125168000115,2125.8076481400058,1.8035935999942012,return,1.6626728000119328,,,,,,,,,,,,,,,,,,,,,,,,,,,,,,,,,9R0QRV,train_y,blue_star,bottom_right,2025-06-12_16h13.25.092,HideSeek_v1,2022.2.5,59.94449140397595,
,9,3,9,4,0,1,62,,train_dim1_1,13,30,,,,2,0,2,0,,,,,,,,,0,0,0,0,0,12,12,12,1,0,1,0,,,,,,,,,,,,,,,,,,,,,,,,,,,,,,,,,,,,,,,,,,,,,,,,,,,,,,,,,,,,,,,,30,,,,,,,,2131.0761550999596,2131.0761550999596,2131.0761550999596,2131.0761550999596,2131.0761550999596,return,1.0933401000220329,9,0,0,1,0.56,-0.08,return,1.0130316999857314,37,0,0.56,-0.08,,,,,,,,,,,,,,,,,,,,,,,,,,,,,,,,,,,,,,,,,,,,,,,,,,,,,,,,9R0QRV,train_y,blue_star,bottom_right,2025-06-12_16h13.25.092,HideSeek_v1,2022.2.5,59.94449140397595,
,7,2,7,7,0,5,66,,train_dim1_1,14,30,,,,2,0,2,0,,,,,,,,,0,0,0,0,0,13,13,13,0,0,0,0,,,,,,,,,,,,,,,,,,,,,,,,,stimuli/alien_stimuli/66.png,,,,,,,,,,,,,,,,,,,,,,,,,,,,,stimuli/alien_stimuli/62.png,62,9,15,,,,,,,30,,,,,,,,2136.821878799994,2136.821878799994,2136.821878799994,2136.821878799994,2136.821878799994,up,2.5205083999899216,9,0,0,99,0.4,-0.15999999999999998,up,2.4438355999882333,,,,,2135.2657145999838,2136.821878799994,0.56,-0.08,0.08,0.0,-0.12,0.56,0.56,0.56,-0.08,2133.7273792999913,2133.7273792999913,2133.7273792999913,2133.7273792999913,2133.7273792999913,2133.7273792999913,2133.7273792999913,2133.7273792999913,2133.714285079972,1.6363974999985658,return,1.511580699996557,,,,,,,,,,,,,,,,,,,,,,,,,,,,,,,,,9R0QRV,train_y,blue_star,bottom_right,2025-06-12_16h13.25.092,HideSeek_v1,2022.2.5,59.94449140397595,
,7,2,7,7,0,5,66,,train_dim1_1,14,30,,,,2,0,2,0,,,,,,,,,0,0,0,0,0,13,13,13,1,0,1,0,,,,,,,,,,,,,,,,,,,,,,,,,,,,,,,,,,,,,,,,,,,,,,,,,,,,,,,,,,,,,,,,30,,,,,,,,2139.3509702999727,2139.3509702999727,2139.3509702999727,2139.3509702999727,2139.3509702999727,up,0.7596612999914214,9,0,0,99,0.4,-0.07999999999999997,up,0.6823646000120789,,,,,,,,,,,,,,,,,,,,,,,,,,,,,,,,,,,,,,,,,,,,,,,,,,,,,,,,,,,,9R0QRV,train_y,blue_star,bottom_right,2025-06-12_16h13.25.092,HideSeek_v1,2022.2.5,59.94449140397595,
,7,2,7,7,0,5,66,,train_dim1_1,14,30,,,,2,0,2,0,,,,,,,,,0,0,0,0,0,13,13,13,2,0,2,0,,,,,,,,,,,,,,,,,,,,,,,,,,,,,,,,,,,,,,,,,,,,,,,,,,,,,,,,,,,,,,,,30,,,,,,,,2140.1167711999733,2140.1167711999733,2140.1167711999733,2140.1167711999733,2140.1167711999733,up,0.7935212999582291,9,0,0,99,0.4,2.7755575615628914e-17,up,0.7172764000133611,,,,,,,,,,,,,,,,,,,,,,,,,,,,,,,,,,,,,,,,,,,,,,,,,,,,,,,,,,,,9R0QRV,train_y,blue_star,bottom_right,2025-06-12_16h13.25.092,HideSeek_v1,2022.2.5,59.94449140397595,
,7,2,7,7,0,5,66,,train_dim1_1,14,30,,,,2,0,2,0,,,,,,,,,0,0,0,0,0,13,13,13,3,0,3,0,,,,,,,,,,,,,,,,,,,,,,,,,,,,,,,,,,,,,,,,,,,,,,,,,,,,,,,,,,,,,,,,30,,,,,,,,2140.9201530999853,2140.9201530999853,2140.9201530999853,2140.9201530999853,2140.9201530999853,up,0.8423768000211567,9,0,0,99,0.4,0.08000000000000003,up,0.7651950999861583,,,,,,,,,,,,,,,,,,,,,,,,,,,,,,,,,,,,,,,,,,,,,,,,,,,,,,,,,,,,9R0QRV,train_y,blue_star,bottom_right,2025-06-12_16h13.25.092,HideSeek_v1,2022.2.5,59.94449140397595,
,7,2,7,7,0,5,66,,train_dim1_1,14,30,,,,2,0,2,0,,,,,,,,,0,0,0,0,0,13,13,13,4,0,4,0,,,,,,,,,,,,,,,,,,,,,,,,,,,,,,,,,,,,,,,,,,,,,,,,,,,,,,,,,,,,,,,,30,,,,,,,,2141.7687241999665,2141.7687241999665,2141.7687241999665,2141.7687241999665,2141.7687241999665,up,0.643214599986095,9,0,0,99,0.4,0.16000000000000003,up,0.5637678999919444,,,,,,,,,,,,,,,,,,,,,,,,,,,,,,,,,,,,,,,,,,,,,,,,,,,,,,,,,,,,9R0QRV,train_y,blue_star,bottom_right,2025-06-12_16h13.25.092,HideSeek_v1,2022.2.5,59.94449140397595,
,7,2,7,7,0,5,66,,train_dim1_1,14,30,,,,2,0,2,0,,,,,,,,,0,0,0,0,0,13,13,13,5,0,5,0,,,,,,,,,,,,,,,,,,,,,,,,,,,,,,,,,,,,,,,,,,,,,,,,,,,,,,,,,,,,,,,,30,,,,,,,,2142.4186943999957,2142.4186943999957,2142.4186943999957,2142.4186943999957,2142.4186943999957,return,0.7265857000020333,10,0,0,1,0.4,0.16000000000000003,return,0.6407644000137225,42,0,0.4,0.16000000000000003,,,,,,,,,,,,,,,,,,,,,,,,,,,,,,,,,,,,,,,,,,,,,,,,,,,,,,,,9R0QRV,train_y,blue_star,bottom_right,2025-06-12_16h13.25.092,HideSeek_v1,2022.2.5,59.94449140397595,
,6,4,6,7,0,3,64,,train_dim1_1,15,30,,,,2,0,2,0,,,,,,,,,0,0,0,0,0,14,14,14,0,0,0,0,,,,,,,,,,,,,,,,,,,,,,,,,stimuli/alien_stimuli/64.png,,,,,,,,,,,,,,,,,,,,,,,,,,,,,stimuli/alien_stimuli/66.png,66,7,16,,,,,,,30,,,,,,,,2148.046309700003,2148.046309700003,2148.046309700003,2148.046309700003,2148.046309700003,up,2.622359500033781,10,0,0,99,0.32,0.0,up,2.5486516999662854,,,,,2146.492154799984,2148.046309700003,0.4,0.16,0.4,0.0,-0.039999999999999994,0.4,0.4,0.4,0.16,2144.711780399957,2144.711780399957,2144.711780399957,2144.711780399957,2144.711780399957,2144.711780399957,2144.711780399957,2144.711780399957,2144.707155459968,1.8864090000279248,return,1.760125600034371,,,,,,,,,,,,,,,,,,,,,,,,,,,,,,,,,9R0QRV,train_y,blue_star,bottom_right,2025-06-12_16h13.25.092,HideSeek_v1,2022.2.5,59.94449140397595,
,6,4,6,7,0,3,64,,train_dim1_1,15,30,,,,2,0,2,0,,,,,,,,,0,0,0,0,0,14,14,14,1,0,1,0,,,,,,,,,,,,,,,,,,,,,,,,,,,,,,,,,,,,,,,,,,,,,,,,,,,,,,,,,,,,,,,,30,,,,,,,,2150.6766867999686,2150.6766867999686,2150.6766867999686,2150.6766867999686,2150.6766867999686,up,1.4768247999600135,10,0,0,99,0.32,0.08,up,1.3989510999526829,,,,,,,,,,,,,,,,,,,,,,,,,,,,,,,,,,,,,,,,,,,,,,,,,,,,,,,,,,,,9R0QRV,train_y,blue_star,bottom_right,2025-06-12_16h13.25.092,HideSeek_v1,2022.2.5,59.94449140397595,
,6,4,6,7,0,3,64,,train_dim1_1,15,30,,,,2,0,2,0,,,,,,,,,0,0,0,0,0,14,14,14,2,0,2,0,,,,,,,,,,,,,,,,,,,,,,,,,,,,,,,,,,,,,,,,,,,,,,,,,,,,,,,,,,,,,,,,30,,,,,,,,2152.159633399977,2152.159633399977,2152.159633399977,2152.159633399977,2152.159633399977,up,2.3277098999824375,10,0,0,99,0.32,0.16,up,2.2403471000143327,,,,,,,,,,,,,,,,,,,,,,,,,,,,,,,,,,,,,,,,,,,,,,,,,,,,,,,,,,,,9R0QRV,train_y,blue_star,bottom_right,2025-06-12_16h13.25.092,HideSeek_v1,2022.2.5,59.94449140397595,
,6,4,6,7,0,3,64,,train_dim1_1,15,30,,,,2,0,2,0,,,,,,,,,0,0,0,0,0,14,14,14,3,0,3,0,,,,,,,,,,,,,,,,,,,,,,,,,,,,,,,,,,,,,,,,,,,,,,,,,,,,,,,,,,,,,,,,30,,,,,,,,2154.49501459999,2154.49501459999,2154.49501459999,2154.49501459999,2154.49501459999,return,0.8771037999540567,11,0,0,1,0.32,0.16,return,0.795828000002075,45,0,0.32,0.16,,,,,,,,,,,,,,,,,,,,,,,,,,,,,,,,,,,,,,,,,,,,,,,,,,,,,,,,9R0QRV,train_y,blue_star,bottom_right,2025-06-12_16h13.25.092,HideSeek_v1,2022.2.5,59.94449140397595,
,9,0,9,4,0,4,65,,train_dim1_1,16,30,,,,2,0,2,0,,,,,,,,,0,0,0,0,0,15,15,15,0,0,0,0,,,,,,,,,,,,,,,,,,,,,,,,,stimuli/alien_stimuli/65.png,,,,,,,,,,,,,,,,,,,,,,,,,,,,,stimuli/alien_stimuli/64.png,64,6,17,,,,,,,30,,,,,,,,2159.80448609998,2159.80448609998,2159.80448609998,2159.80448609998,2159.80448609998,up,1.7728000999777578,11,0,0,99,0.56,-0.32,up,1.6954592000111006,,,,,2158.2518991999677,2159.80448609998,0.32,0.16,0.24,0.0,0.04,0.32,0.32,0.32,0.16,2156.940062300011,2156.940062300011,2156.940062300011,2156.940062300011,2156.940062300011,2156.940062300011,2156.940062300011,2156.940062300011,2156.9334947600146,1.4198539000353776,return,1.283728800015524,,,,,,,,,,,,,,,,,,,,,,,,,,,,,,,,,9R0QRV,train_y,blue_star,bottom_right,2025-06-12_16h13.25.092,HideSeek_v1,2022.2.5,59.94449140397595,
,9,0,9,4,0,4,65,,train_dim1_1,16,30,,,,2,0,2,0,,,,,,,,,0,0,0,0,0,15,15,15,1,0,1,0,,,,,,,,,,,,,,,,,,,,,,,,,,,,,,,,,,,,,,,,,,,,,,,,,,,,,,,,,,,,,,,,30,,,,,,,,2161.5863093999797,2161.5863093999797,2161.5863093999797,2161.5863093999797,2161.5863093999797,up,0.7426315000047907,11,0,0,99,0.56,-0.24,up,0.6640560000087135,,,,,,,,,,,,,,,,,,,,,,,,,,,,,,,,,,,,,,,,,,,,,,,,,,,,,,,,,,,,9R0QRV,train_y,blue_star,bottom_right,2025-06-12_16h13.25.092,HideSeek_v1,2022.2.5,59.94449140397595,
,9,0,9,4,0,4,65,,train_dim1_1,16,30,,,,2,0,2,0,,,,,,,,,0,0,0,0,0,15,15,15,2,0,2,0,,,,,,,,,,,,,,,,,,,,,,,,,,,,,,,,,,,,,,,,,,,,,,,,,,,,,,,,,,,,,,,,30,,,,,,,,2162.3359504999826,2162.3359504999826,2162.3359504999826,2162.3359504999826,2162.3359504999826,up,0.8101699000108056,11,0,0,99,0.56,-0.15999999999999998,up,0.7317053999868222,,,,,,,,,,,,,,,,,,,,,,,,,,,,,,,,,,,,,,,,,,,,,,,,,,,,,,,,,,,,9R0QRV,train_y,blue_star,bottom_right,2025-06-12_16h13.25.092,HideSeek_v1,2022.2.5,59.94449140397595,
,9,0,9,4,0,4,65,,train_dim1_1,16,30,,,,2,0,2,0,,,,,,,,,0,0,0,0,0,15,15,15,3,0,3,0,,,,,,,,,,,,,,,,,,,,,,,,,,,,,,,,,,,,,,,,,,,,,,,,,,,,,,,,,,,,,,,,30,,,,,,,,2163.15186350001,2163.15186350001,2163.15186350001,2163.15186350001,2163.15186350001,up,0.6439480999833904,11,0,0,99,0.56,-0.07999999999999997,up,0.5653347999905236,,,,,,,,,,,,,,,,,,,,,,,,,,,,,,,,,,,,,,,,,,,,,,,,,,,,,,,,,,,,9R0QRV,train_y,blue_star,bottom_right,2025-06-12_16h13.25.092,HideSeek_v1,2022.2.5,59.94449140397595,
,9,0,9,4,0,4,65,,train_dim1_1,16,30,,,,2,0,2,0,,,,,,,,,0,0,0,0,0,15,15,15,4,0,4,0,,,,,,,,,,,,,,,,,,,,,,,,,,,,,,,,,,,,,,,,,,,,,,,,,,,,,,,,,,,,,,,,30,,,,,,,,2163.8025199999684,2163.8025199999684,2163.8025199999684,2163.8025199999684,2163.8025199999684,return,0.8772698999964632,12,0,0,1,0.56,-0.07999999999999997,return,0.8042637999751605,49,0,0.56,-0.07999999999999997,,,,,,,,,,,,,,,,,,,,,,,,,,,,,,,,,,,,,,,,,,,,,,,,,,,,,,,,9R0QRV,train_y,blue_star,bottom_right,2025-06-12_16h13.25.092,HideSeek_v1,2022.2.5,59.94449140397595,
,8,3,8,6,0,3,64,,train_dim1_1,17,30,,,,2,0,2,0,,,,,,,,,0,0,0,0,0,16,16,16,0,0,0,0,,,,,,,,,,,,,,,,,,,,,,,,,stimuli/alien_stimuli/64.png,,,,,,,,,,,,,,,,,,,,,,,,,,,,,stimuli/alien_stimuli/65.png,65,9,18,,,,,,,30,,,,,,,,2169.0319997000042,2169.0319997000042,2169.0319997000042,2169.0319997000042,2169.0319997000042,up,1.7049415999790654,12,0,0,99,0.48,-0.08,up,1.620607899967581,,,,,2167.476065900002,2169.0319997000042,0.56,-0.08,0.32,0.0,-0.24000000000000002,0.56,0.56,0.56,-0.08,2166.2510010999977,2166.2510010999977,2166.2510010999977,2166.2510010999977,2166.2510010999977,2166.2510010999977,2166.2510010999977,2166.2510010999977,2166.241101260006,1.3368439000332728,return,1.1954837000230327,,,,,,,,,,,,,,,,,,,,,,,,,,,,,,,,,9R0QRV,train_y,blue_star,bottom_right,2025-06-12_16h13.25.092,HideSeek_v1,2022.2.5,59.94449140397595,
,8,3,8,6,0,3,64,,train_dim1_1,17,30,,,,2,0,2,0,,,,,,,,,0,0,0,0,0,16,16,16,1,0,1,0,,,,,,,,,,,,,,,,,,,,,,,,,,,,,,,,,,,,,,,,,,,,,,,,,,,,,,,,,,,,,,,,30,,,,,,,,2170.745476000011,2170.745476000011,2170.745476000011,2170.745476000011,2170.745476000011,up,0.6907772999838926,12,0,0,99,0.48,0.0,up,0.6022710999823175,,,,,,,,,,,,,,,,,,,,,,,,,,,,,,,,,,,,,,,,,,,,,,,,,,,,,,,,,,,,9R0QRV,train_y,blue_star,bottom_right,2025-06-12_16h13.25.092,HideSeek_v1,2022.2.5,59.94449140397595,
,8,3,8,6,0,3,64,,train_dim1_1,17,30,,,,2,0,2,0,,,,,,,,,0,0,0,0,0,16,16,16,2,0,2,0,,,,,,,,,,,,,,,,,,,,,,,,,,,,,,,,,,,,,,,,,,,,,,,,,,,,,,,,,,,,,,,,30,,,,,,,,2171.44636110001,2171.44636110001,2171.44636110001,2171.44636110001,2171.44636110001,up,0.8103012999636121,12,0,0,99,0.48,0.08,up,0.7310785999870859,,,,,,,,,,,,,,,,,,,,,,,,,,,,,,,,,,,,,,,,,,,,,,,,,,,,,,,,,,,,9R0QRV,train_y,blue_star,bottom_right,2025-06-12_16h13.25.092,HideSeek_v1,2022.2.5,59.94449140397595,
,8,3,8,6,0,3,64,,train_dim1_1,17,30,,,,2,0,2,0,,,,,,,,,0,0,0,0,0,16,16,16,3,0,3,0,,,,,,,,,,,,,,,,,,,,,,,,,,,,,,,,,,,,,,,,,,,,,,,,,,,,,,,,,,,,,,,,30,,,,,,,,2172.2593124000123,2172.2593124000123,2172.2593124000123,2172.2593124000123,2172.2593124000123,return,0.7435185999493115,13,0,0,1,0.48,0.08,return,0.669826400000602,52,0,0.48,0.08,,,,,,,,,,,,,,,,,,,,,,,,,,,,,,,,,,,,,,,,,,,,,,,,,,,,,,,,9R0QRV,train_y,blue_star,bottom_right,2025-06-12_16h13.25.092,HideSeek_v1,2022.2.5,59.94449140397595,
,7,1,7,1,0,0,61,,train_dim1_1,18,30,,,,2,0,2,0,,,,,,,,,0,0,0,0,0,17,17,17,0,0,0,0,,,,,,,,,,,,,,,,,,,,,,,,,stimuli/alien_stimuli/61.png,,,,,,,,,,,,,,,,,,,,,,,,,,,,,stimuli/alien_stimuli/64.png,64,8,19,,,,,,,30,,,,,,,,2177.7057713000104,2177.7057713000104,2177.7057713000104,2177.7057713000104,2177.7057713000104,return,3.8224880999769084,14,0,0,1,0.4,-0.32,return,3.739921000029426,52,0,0.4,-0.32,2176.149646900012,2177.7057713000104,0.48,0.08,0.24,0.0,-0.04,0.48,0.48,0.48,0.08,2174.5587574999663,2174.5587574999663,2174.5587574999663,2174.5587574999663,2174.5587574999663,2174.5587574999663,2174.5587574999663,2174.5587574999663,2174.548133180011,1.6870234999805689,return,1.5753070000209846,,,,,,,,,,,,,,,,,,,,,,,,,,,,,,,,,9R0QRV,train_y,blue_star,bottom_right,2025-06-12_16h13.25.092,HideSeek_v1,2022.2.5,59.94449140397595,
,5,4,5,5,0,1,62,,train_dim1_1,19,30,,,,2,0,2,0,,,,,,,,,0,0,0,0,0,18,18,18,0,0,0,0,,,,,,,,,,,,,,,,,,,,,,,,,stimuli/alien_stimuli/62.png,,,,,,,,,,,,,,,,,,,,,,,,,,,,,stimuli/alien_stimuli/61.png,61,7,20,,,,,,,30,,,,,,,,2185.8943638000055,2185.8943638000055,2185.8943638000055,2185.8943638000055,2185.8943638000055,up,2.2224497999995947,14,0,0,99,0.24,0.0,up,2.1483025000197813,,,,,2184.3399763999623,2185.8943638000055,0.4,-0.32,0.0,0.0,-0.32,0.4,0.4,0.4,-0.32,2183.0818914999836,2183.0818914999836,2183.0818914999836,2183.0818914999836,2183.0818914999836,2183.0818914999836,2183.0818914999836,2183.0818914999836,2183.072104079998,1.3532732999883592,return,1.2368513999972492,,,,,,,,,,,,,,,,,,,,,,,,,,,,,,,,,9R0QRV,train_y,blue_star,bottom_right,2025-06-12_16h13.25.092,HideSeek_v1,2022.2.5,59.94449140397595,
,5,4,5,5,0,1,62,,train_dim1_1,19,30,,,,2,0,2,0,,,,,,,,,0,0,0,0,0,18,18,18,1,0,1,0,,,,,,,,,,,,,,,,,,,,,,,,,,,,,,,,,,,,,,,,,,,,,,,,,,,,,,,,,,,,,,,,30,,,,,,,,2188.124871900014,2188.124871900014,2188.124871900014,2188.124871900014,2188.124871900014,return,0.9763116000103764,15,0,0,1,0.24,0.0,return,0.8989727000007406,53,0,0.24,0.0,,,,,,,,,,,,,,,,,,,,,,,,,,,,,,,,,,,,,,,,,,,,,,,,,,,,,,,,9R0QRV,train_y,blue_star,bottom_right,2025-06-12_16h13.25.092,HideSeek_v1,2022.2.5,59.94449140397595,
,7,0,7,5,0,5,66,,train_dim1_1,20,30,,,,2,0,2,0,,,,,,,,,0,0,0,0,0,19,19,19,0,0,0,0,,,,,,,,,,,,,,,,,,,,,,,,,stimuli/alien_stimuli/66.png,,,,,,,,,,,,,,,,,,,,,,,,,,,,,stimuli/alien_stimuli/62.png,62,5,21,,,,,,,30,,,,,,,,2193.9841985999956,2193.9841985999956,2193.9841985999956,2193.9841985999956,2193.9841985999956,up,2.3888851999654435,15,0,0,99,0.4,-0.32,up,2.3165552000282332,,,,,2192.4301311000017,2193.9841985999956,0.24,0,0.08,0.0,-0.04,0.24,0.24,0.24,0,2190.6538031999953,2190.6538031999953,2190.6538031999953,2190.6538031999953,2190.6538031999953,2190.6538031999953,2190.6538031999953,2190.6538031999953,2190.644914179982,1.8706699999747798,return,1.75379620003514,,,,,,,,,,,,,,,,,,,,,,,,,,,,,,,,,9R0QRV,train_y,blue_star,bottom_right,2025-06-12_16h13.25.092,HideSeek_v1,2022.2.5,59.94449140397595,
,7,0,7,5,0,5,66,,train_dim1_1,20,30,,,,2,0,2,0,,,,,,,,,0,0,0,0,0,19,19,19,1,0,1,0,,,,,,,,,,,,,,,,,,,,,,,,,,,,,,,,,,,,,,,,,,,,,,,,,,,,,,,,,,,,,,,,30,,,,,,,,2196.380652699969,2196.380652699969,2196.380652699969,2196.380652699969,2196.380652699969,up,0.6931590000167489,15,0,0,99,0.4,-0.24,up,0.6090928000048734,,,,,,,,,,,,,,,,,,,,,,,,,,,,,,,,,,,,,,,,,,,,,,,,,,,,,,,,,,,,9R0QRV,train_y,blue_star,bottom_right,2025-06-12_16h13.25.092,HideSeek_v1,2022.2.5,59.94449140397595,
,7,0,7,5,0,5,66,,train_dim1_1,20,30,,,,2,0,2,0,,,,,,,,,0,0,0,0,0,19,19,19,2,0,2,0,,,,,,,,,,,,,,,,,,,,,,,,,,,,,,,,,,,,,,,,,,,,,,,,,,,,,,,,,,,,,,,,30,,,,,,,,2197.080958299979,2197.080958299979,2197.080958299979,2197.080958299979,2197.080958299979,up,0.6602107000071555,15,0,0,99,0.4,-0.15999999999999998,up,0.5729697999777272,,,,,,,,,,,,,,,,,,,,,,,,,,,,,,,,,,,,,,,,,,,,,,,,,,,,,,,,,,,,9R0QRV,train_y,blue_star,bottom_right,2025-06-12_16h13.25.092,HideSeek_v1,2022.2.5,59.94449140397595,
,7,0,7,5,0,5,66,,train_dim1_1,20,30,,,,2,0,2,0,,,,,,,,,0,0,0,0,0,19,19,19,3,0,3,0,,,,,,,,,,,,,,,,,,,,,,,,,,,,,,,,,,,,,,,,,,,,,,,,,,,,,,,,,,,,,,,,30,,,,,,,,2197.7490355999907,2197.7490355999907,2197.7490355999907,2197.7490355999907,2197.7490355999907,up,0.6768836000119336,15,0,0,99,0.4,-0.07999999999999997,up,0.5927914999774657,,,,,,,,,,,,,,,,,,,,,,,,,,,,,,,,,,,,,,,,,,,,,,,,,,,,,,,,,,,,9R0QRV,train_y,blue_star,bottom_right,2025-06-12_16h13.25.092,HideSeek_v1,2022.2.5,59.94449140397595,
,7,0,7,5,0,5,66,,train_dim1_1,20,30,,,,2,0,2,0,,,,,,,,,0,0,0,0,0,19,19,19,4,0,4,0,,,,,,,,,,,,,,,,,,,,,,,,,,,,,,,,,,,,,,,,,,,,,,,,,,,,,,,,,,,,,,,,30,,,,,,,,2198.4317641999805,2198.4317641999805,2198.4317641999805,2198.4317641999805,2198.4317641999805,up,0.8771237999899313,15,0,0,99,0.4,2.7755575615628914e-17,up,0.7939559000078589,,,,,,,,,,,,,,,,,,,,,,,,,,,,,,,,,,,,,,,,,,,,,,,,,,,,,,,,,,,,9R0QRV,train_y,blue_star,bottom_right,2025-06-12_16h13.25.092,HideSeek_v1,2022.2.5,59.94449140397595,
,7,0,7,5,0,5,66,,train_dim1_1,20,30,,,,2,0,2,0,,,,,,,,,0,0,0,0,0,19,19,19,5,0,5,0,,,,,,,,,,,,,,,,,,,,,,,,,,,,,,,,,,,,,,,,,,,,,,,,,,,,,,,,,,,,,,,,30,,,,,,,,2199.3168073999695,2199.3168073999695,2199.3168073999695,2199.3168073999695,2199.3168073999695,return,0.9771577999927104,16,0,0,1,0.4,2.7755575615628914e-17,return,0.8907095000031404,58,0,0.4,2.7755575615628914e-17,,,,,,,,,,,,,,,,,,,,,,,,,,,,,,,,,,,,,,,,,,,,,,,,,,,,,,,,9R0QRV,train_y,blue_star,bottom_right,2025-06-12_16h13.25.092,HideSeek_v1,2022.2.5,59.94449140397595,
,7,4,7,8,0,4,65,,train_dim1_1,21,30,,,,2,0,2,0,,,,,,,,,0,0,0,0,0,20,20,20,0,0,0,0,,,,,,,,,,,,,,,,,,,,,,,,,stimuli/alien_stimuli/65.png,,,,,,,,,,,,,,,,,,,,,,,,,,,,,stimuli/alien_stimuli/66.png,66,7,22,,,,,,,30,,,,,,,,2204.8772113999585,2204.8772113999585,2204.8772113999585,2204.8772113999585,2204.8772113999585,up,2.105538100004196,16,0,0,99,0.4,0.0,up,2.029945400019642,,,,,2203.3221770999953,2204.8772113999585,0.4,0,0.4,0.0,-0.2,0.4,0.4,0.4,0,2201.866473299975,2201.866473299975,2201.866473299975,2201.866473299975,2201.866473299975,2201.866473299975,2201.866473299975,2201.866473299975,2201.8539808599744,1.5698733999743126,return,1.4264864000142552,,,,,,,,,,,,,,,,,,,,,,,,,,,,,,,,,9R0QRV,train_y,blue_star,bottom_right,2025-06-12_16h13.25.092,HideSeek_v1,2022.2.5,59.94449140397595,
,7,4,7,8,0,4,65,,train_dim1_1,21,30,,,,2,0,2,0,,,,,,,,,0,0,0,0,0,20,20,20,1,0,1,0,,,,,,,,,,,,,,,,,,,,,,,,,,,,,,,,,,,,,,,,,,,,,,,,,,,,,,,,,,,,,,,,30,,,,,,,,2206.9895666000084,2206.9895666000084,2206.9895666000084,2206.9895666000084,2206.9895666000084,up,0.6429084000410512,16,0,0,99,0.4,0.08,up,0.5573077999870293,,,,,,,,,,,,,,,,,,,,,,,,,,,,,,,,,,,,,,,,,,,,,,,,,,,,,,,,,,,,9R0QRV,train_y,blue_star,bottom_right,2025-06-12_16h13.25.092,HideSeek_v1,2022.2.5,59.94449140397595,
,7,4,7,8,0,4,65,,train_dim1_1,21,30,,,,2,0,2,0,,,,,,,,,0,0,0,0,0,20,20,20,2,0,2,0,,,,,,,,,,,,,,,,,,,,,,,,,,,,,,,,,,,,,,,,,,,,,,,,,,,,,,,,,,,,,,,,30,,,,,,,,2207.6433427999727,2207.6433427999727,2207.6433427999727,2207.6433427999727,2207.6433427999727,up,0.6103095000144094,16,0,0,99,0.4,0.16,up,0.5232569000218064,,,,,,,,,,,,,,,,,,,,,,,,,,,,,,,,,,,,,,,,,,,,,,,,,,,,,,,,,,,,9R0QRV,train_y,blue_star,bottom_right,2025-06-12_16h13.25.092,HideSeek_v1,2022.2.5,59.94449140397595,
,7,4,7,8,0,4,65,,train_dim1_1,21,30,,,,2,0,2,0,,,,,,,,,0,0,0,0,0,20,20,20,3,0,3,0,,,,,,,,,,,,,,,,,,,,,,,,,,,,,,,,,,,,,,,,,,,,,,,,,,,,,,,,,,,,,,,,30,,,,,,,,2208.2572400000063,2208.2572400000063,2208.2572400000063,2208.2572400000063,2208.2572400000063,up,0.5601355999824591,16,0,0,99,0.4,0.24,up,0.48202880000462756,,,,,,,,,,,,,,,,,,,,,,,,,,,,,,,,,,,,,,,,,,,,,,,,,,,,,,,,,,,,9R0QRV,train_y,blue_star,bottom_right,2025-06-12_16h13.25.092,HideSeek_v1,2022.2.5,59.94449140397595,
,7,4,7,8,0,4,65,,train_dim1_1,21,30,,,,2,0,2,0,,,,,,,,,0,0,0,0,0,20,20,20,4,0,4,0,,,,,,,,,,,,,,,,,,,,,,,,,,,,,,,,,,,,,,,,,,,,,,,,,,,,,,,,,,,,,,,,30,,,,,,,,2208.8246518999804,2208.8246518999804,2208.8246518999804,2208.8246518999804,2208.8246518999804,return,0.8435193999903277,17,0,0,1,0.4,0.24,return,0.7683475000085309,62,0,0.4,0.24,,,,,,,,,,,,,,,,,,,,,,,,,,,,,,,,,,,,,,,,,,,,,,,,,,,,,,,,9R0QRV,train_y,blue_star,bottom_right,2025-06-12_16h13.25.092,HideSeek_v1,2022.2.5,59.94449140397595,
,5,2,5,5,0,3,64,,train_dim1_1,22,30,,,,2,0,2,0,,,,,,,,,0,0,0,0,0,21,21,21,0,0,0,0,,,,,,,,,,,,,,,,,,,,,,,,,stimuli/alien_stimuli/64.png,,,,,,,,,,,,,,,,,,,,,,,,,,,,,stimuli/alien_stimuli/65.png,65,7,23,,,,,,,30,,,,,,,,2214.0665575999883,2214.0665575999883,2214.0665575999883,2214.0665575999883,2214.0665575999883,up,1.7217447000439279,17,0,0,99,0.24,-0.15999999999999998,up,1.6409069999936037,,,,,2212.513532699959,2214.0665575999883,0.4,0.24,0.32,0.0,0.07999999999999999,0.4,0.4,0.4,0.24,2211.2246534999576,2211.2246534999576,2211.2246534999576,2211.2246534999576,2211.2246534999576,2211.2246534999576,2211.2246534999576,2211.2246534999576,2211.2118792799884,1.3867076999740675,return,1.270547299995087,,,,,,,,,,,,,,,,,,,,,,,,,,,,,,,,,9R0QRV,train_y,blue_star,bottom_right,2025-06-12_16h13.25.092,HideSeek_v1,2022.2.5,59.94449140397595,
,5,2,5,5,0,3,64,,train_dim1_1,22,30,,,,2,0,2,0,,,,,,,,,0,0,0,0,0,21,21,21,1,0,1,0,,,,,,,,,,,,,,,,,,,,,,,,,,,,,,,,,,,,,,,,,,,,,,,,,,,,,,,,,,,,,,,,30,,,,,,,,2215.7974575000117,2215.7974575000117,2215.7974575000117,2215.7974575000117,2215.7974575000117,up,0.6427091999794357,17,0,0,99,0.24,-0.07999999999999997,up,0.5564495999715291,,,,,,,,,,,,,,,,,,,,,,,,,,,,,,,,,,,,,,,,,,,,,,,,,,,,,,,,,,,,9R0QRV,train_y,blue_star,bottom_right,2025-06-12_16h13.25.092,HideSeek_v1,2022.2.5,59.94449140397595,
,5,2,5,5,0,3,64,,train_dim1_1,22,30,,,,2,0,2,0,,,,,,,,,0,0,0,0,0,21,21,21,2,0,2,0,,,,,,,,,,,,,,,,,,,,,,,,,,,,,,,,,,,,,,,,,,,,,,,,,,,,,,,,,,,,,,,,30,,,,,,,,2216.447083599982,2216.447083599982,2216.447083599982,2216.447083599982,2216.447083599982,up,0.5933986999443732,17,0,0,99,0.24,2.7755575615628914e-17,up,0.5137494000373408,,,,,,,,,,,,,,,,,,,,,,,,,,,,,,,,,,,,,,,,,,,,,,,,,,,,,,,,,,,,9R0QRV,train_y,blue_star,bottom_right,2025-06-12_16h13.25.092,HideSeek_v1,2022.2.5,59.94449140397595,
,5,2,5,5,0,3,64,,train_dim1_1,22,30,,,,2,0,2,0,,,,,,,,,0,0,0,0,0,21,21,21,3,0,3,0,,,,,,,,,,,,,,,,,,,,,,,,,,,,,,,,,,,,,,,,,,,,,,,,,,,,,,,,,,,,,,,,30,,,,,,,,2217.0490842,2217.0490842,2217.0490842,2217.0490842,2217.0490842,return,0.8245372999808751,18,0,0,1,0.24,2.7755575615628914e-17,return,0.7450680999900214,65,0,0.24,2.7755575615628914e-17,,,,,,,,,,,,,,,,,,,,,,,,,,,,,,,,,,,,,,,,,,,,,,,,,,,,,,,,9R0QRV,train_y,blue_star,bottom_right,2025-06-12_16h13.25.092,HideSeek_v1,2022.2.5,59.94449140397595,
,5,3,5,3,0,0,61,,train_dim1_1,23,30,,,,2,0,2,0,,,,,,,,,0,0,0,0,0,22,22,22,0,0,0,0,,,,,,,,,,,,,,,,,,,,,,,,,stimuli/alien_stimuli/61.png,,,,,,,,,,,,,,,,,,,,,,,,,,,,,stimuli/alien_stimuli/64.png,64,5,24,,,,,,,30,,,,,,,,2222.2565598000074,2222.2565598000074,2222.2565598000074,2222.2565598000074,2222.2565598000074,return,2.239827500015963,19,0,0,1,0.24,-0.16,return,2.16748489998281,65,0,0.24,-0.16,2220.703768999956,2222.2565598000074,0.24,0,0.24,0.0,-0.12,0.24,0.24,0.24,0,2219.434484999976,2219.434484999976,2219.434484999976,2219.434484999976,2219.434484999976,2219.434484999976,2219.434484999976,2219.434484999976,2219.4355170599883,1.3695546000381,return,1.2389676999882795,,,,,,,,,,,,,,,,,,,,,,,,,,,,,,,,,9R0QRV,train_y,blue_star,bottom_right,2025-06-12_16h13.25.092,HideSeek_v1,2022.2.5,59.94449140397595,
,8,2,8,7,0,5,66,,train_dim1_1,24,30,,,,2,0,2,0,,,,,,,,,0,0,0,0,0,23,23,23,0,0,0,0,,,,,,,,,,,,,,,,,,,,,,,,,stimuli/alien_stimuli/66.png,,,,,,,,,,,,,,,,,,,,,,,,,,,,,stimuli/alien_stimuli/61.png,61,5,25,,,,,,,30,,,,,,,,2229.028749399993,2229.028749399993,2229.028749399993,2229.028749399993,2229.028749399993,up,2.5563145999913104,19,0,0,99,0.48,-0.15999999999999998,up,2.4800473999930546,,,,,2227.475692500011,2229.028749399993,0.24,-0.16,0.0,0.0,-0.16,0.24,0.24,0.24,-0.16,2226.049109299958,2226.049109299958,2226.049109299958,2226.049109299958,2226.049109299958,2226.049109299958,2226.049109299958,2226.049109299958,2226.040704079962,1.5198612000094727,return,1.3943948000087403,,,,,,,,,,,,,,,,,,,,,,,,,,,,,,,,,9R0QRV,train_y,blue_star,bottom_right,2025-06-12_16h13.25.092,HideSeek_v1,2022.2.5,59.94449140397595,
,8,2,8,7,0,5,66,,train_dim1_1,24,30,,,,2,0,2,0,,,,,,,,,0,0,0,0,0,23,23,23,1,0,1,0,,,,,,,,,,,,,,,,,,,,,,,,,,,,,,,,,,,,,,,,,,,,,,,,,,,,,,,,,,,,,,,,30,,,,,,,,2231.5937547999783,2231.5937547999783,2231.5937547999783,2231.5937547999783,2231.5937547999783,up,0.508975200005807,19,0,0,99,0.48,-0.07999999999999997,up,0.4344787000445649,,,,,,,,,,,,,,,,,,,,,,,,,,,,,,,,,,,,,,,,,,,,,,,,,,,,,,,,,,,,9R0QRV,train_y,blue_star,bottom_right,2025-06-12_16h13.25.092,HideSeek_v1,2022.2.5,59.94449140397595,
,8,2,8,7,0,5,66,,train_dim1_1,24,30,,,,2,0,2,0,,,,,,,,,0,0,0,0,0,23,23,23,2,0,2,0,,,,,,,,,,,,,,,,,,,,,,,,,,,,,,,,,,,,,,,,,,,,,,,,,,,,,,,,,,,,,,,,30,,,,,,,,2232.1215007000137,2232.1215007000137,2232.1215007000137,2232.1215007000137,2232.1215007000137,up,0.5437942999997176,19,0,0,99,0.48,2.7755575615628914e-17,up,0.45937519997823983,,,,,,,,,,,,,,,,,,,,,,,,,,,,,,,,,,,,,,,,,,,,,,,,,,,,,,,,,,,,9R0QRV,train_y,blue_star,bottom_right,2025-06-12_16h13.25.092,HideSeek_v1,2022.2.5,59.94449140397595,
,8,2,8,7,0,5,66,,train_dim1_1,24,30,,,,2,0,2,0,,,,,,,,,0,0,0,0,0,23,23,23,3,0,3,0,,,,,,,,,,,,,,,,,,,,,,,,,,,,,,,,,,,,,,,,,,,,,,,,,,,,,,,,,,,,,,,,30,,,,,,,,2232.6598945999867,2232.6598945999867,2232.6598945999867,2232.6598945999867,2232.6598945999867,up,0.6101662999717519,19,0,0,99,0.48,0.08000000000000003,up,0.5246511999866925,,,,,,,,,,,,,,,,,,,,,,,,,,,,,,,,,,,,,,,,,,,,,,,,,,,,,,,,,,,,9R0QRV,train_y,blue_star,bottom_right,2025-06-12_16h13.25.092,HideSeek_v1,2022.2.5,59.94449140397595,
,8,2,8,7,0,5,66,,train_dim1_1,24,30,,,,2,0,2,0,,,,,,,,,0,0,0,0,0,23,23,23,4,0,4,0,,,,,,,,,,,,,,,,,,,,,,,,,,,,,,,,,,,,,,,,,,,,,,,,,,,,,,,,,,,,,,,,30,,,,,,,,2233.277979000006,2233.277979000006,2233.277979000006,2233.277979000006,2233.277979000006,up,0.5929053999716416,19,0,0,99,0.48,0.16000000000000003,up,0.5048156999982893,,,,,,,,,,,,,,,,,,,,,,,,,,,,,,,,,,,,,,,,,,,,,,,,,,,,,,,,,,,,9R0QRV,train_y,blue_star,bottom_right,2025-06-12_16h13.25.092,HideSeek_v1,2022.2.5,59.94449140397595,
,8,2,8,7,0,5,66,,train_dim1_1,24,30,,,,2,0,2,0,,,,,,,,,0,0,0,0,0,23,23,23,5,0,5,0,,,,,,,,,,,,,,,,,,,,,,,,,,,,,,,,,,,,,,,,,,,,,,,,,,,,,,,,,,,,,,,,30,,,,,,,,2233.8787408999633,2233.8787408999633,2233.8787408999633,2233.8787408999633,2233.8787408999633,return,0.8271671000402421,20,0,0,1,0.48,0.16000000000000003,return,0.737949899979867,70,0,0.48,0.16000000000000003,,,,,,,,,,,,,,,,,,,,,,,,,,,,,,,,,,,,,,,,,,,,,,,,,,,,,,,,9R0QRV,train_y,blue_star,bottom_right,2025-06-12_16h13.25.092,HideSeek_v1,2022.2.5,59.94449140397595,
,8,3,8,4,0,1,62,,train_dim1_1,25,30,,,,2,0,2,0,,,,,,,,,0,0,0,0,0,24,24,24,0,0,0,0,,,,,,,,,,,,,,,,,,,,,,,,,stimuli/alien_stimuli/62.png,,,,,,,,,,,,,,,,,,,,,,,,,,,,,stimuli/alien_stimuli/66.png,66,8,26,,,,,,,30,,,,,,,,2239.7061081999564,2239.7061081999564,2239.7061081999564,2239.7061081999564,2239.7061081999564,up,1.8888636999763548,20,0,0,99,0.48,-0.08,up,1.8115605000057258,,,,,2238.1512205000035,2239.7061081999564,0.48,0.16,0.4,0.0,-0.039999999999999994,0.48,0.48,0.48,0.16,2236.2752940999926,2236.2752940999926,2236.2752940999926,2236.2752940999926,2236.2752940999926,2236.2752940999926,2236.2752940999926,2236.2752940999926,2236.2658387600095,1.9871431999490596,return,1.845356100006029,,,,,,,,,,,,,,,,,,,,,,,,,,,,,,,,,9R0QRV,train_y,blue_star,bottom_right,2025-06-12_16h13.25.092,HideSeek_v1,2022.2.5,59.94449140397595,
,8,3,8,4,0,1,62,,train_dim1_1,25,30,,,,2,0,2,0,,,,,,,,,0,0,0,0,0,24,24,24,1,0,1,0,,,,,,,,,,,,,,,,,,,,,,,,,,,,,,,,,,,,,,,,,,,,,,,,,,,,,,,,,,,,,,,,30,,,,,,,,2241.601038499968,2241.601038499968,2241.601038499968,2241.601038499968,2241.601038499968,return,0.7264611999853514,21,0,0,1,0.48,-0.08,return,0.6462717999820597,71,0,0.48,-0.08,,,,,,,,,,,,,,,,,,,,,,,,,,,,,,,,,,,,,,,,,,,,,,,,,,,,,,,,9R0QRV,train_y,blue_star,bottom_right,2025-06-12_16h13.25.092,HideSeek_v1,2022.2.5,59.94449140397595,
,9,4,9,7,0,3,64,,train_dim1_1,26,30,,,,2,0,2,0,,,,,,,,,0,0,0,0,0,25,25,25,0,0,0,0,,,,,,,,,,,,,,,,,,,,,,,,,stimuli/alien_stimuli/64.png,,,,,,,,,,,,,,,,,,,,,,,,,,,,,stimuli/alien_stimuli/62.png,62,8,27,,,,,,,30,,,,,,,,2246.9439606000087,2246.9439606000087,2246.9439606000087,2246.9439606000087,2246.9439606000087,up,1.5056081999791786,21,0,0,99,0.56,0.0,up,1.41734790004557,,,,,2245.3906915999833,2246.9439606000087,0.48,-0.08,0.08,0.0,-0.12,0.48,0.48,0.48,-0.08,2243.886420900002,2243.886420900002,2243.886420900002,2243.886420900002,2243.886420900002,2243.886420900002,2243.886420900002,2243.886420900002,2243.872383579961,1.6033448000089265,return,1.4834519000141881,,,,,,,,,,,,,,,,,,,,,,,,,,,,,,,,,9R0QRV,train_y,blue_star,bottom_right,2025-06-12_16h13.25.092,HideSeek_v1,2022.2.5,59.94449140397595,
,9,4,9,7,0,3,64,,train_dim1_1,26,30,,,,2,0,2,0,,,,,,,,,0,0,0,0,0,25,25,25,1,0,1,0,,,,,,,,,,,,,,,,,,,,,,,,,,,,,,,,,,,,,,,,,,,,,,,,,,,,,,,,,,,,,,,,30,,,,,,,,2248.456967099977,2248.456967099977,2248.456967099977,2248.456967099977,2248.456967099977,up,0.5595401000464335,21,0,0,99,0.56,0.08,up,0.4743130999850109,,,,,,,,,,,,,,,,,,,,,,,,,,,,,,,,,,,,,,,,,,,,,,,,,,,,,,,,,,,,9R0QRV,train_y,blue_star,bottom_right,2025-06-12_16h13.25.092,HideSeek_v1,2022.2.5,59.94449140397595,
,9,4,9,7,0,3,64,,train_dim1_1,26,30,,,,2,0,2,0,,,,,,,,,0,0,0,0,0,25,25,25,2,0,2,0,,,,,,,,,,,,,,,,,,,,,,,,,,,,,,,,,,,,,,,,,,,,,,,,,,,,,,,,,,,,,,,,30,,,,,,,,2249.0245855000103,2249.0245855000103,2249.0245855000103,2249.0245855000103,2249.0245855000103,up,0.5269935000105761,21,0,0,99,0.56,0.16,up,0.45230060000903904,,,,,,,,,,,,,,,,,,,,,,,,,,,,,,,,,,,,,,,,,,,,,,,,,,,,,,,,,,,,9R0QRV,train_y,blue_star,bottom_right,2025-06-12_16h13.25.092,HideSeek_v1,2022.2.5,59.94449140397595,
,9,4,9,7,0,3,64,,train_dim1_1,26,30,,,,2,0,2,0,,,,,,,,,0,0,0,0,0,25,25,25,3,0,3,0,,,,,,,,,,,,,,,,,,,,,,,,,,,,,,,,,,,,,,,,,,,,,,,,,,,,,,,,,,,,,,,,30,,,,,,,,2249.55770439998,2249.55770439998,2249.55770439998,2249.55770439998,2249.55770439998,return,0.8436726999934763,22,0,0,1,0.56,0.16,return,0.7658016000059433,74,0,0.56,0.16,,,,,,,,,,,,,,,,,,,,,,,,,,,,,,,,,,,,,,,,,,,,,,,,,,,,,,,,9R0QRV,train_y,blue_star,bottom_right,2025-06-12_16h13.25.092,HideSeek_v1,2022.2.5,59.94449140397595,
,8,4,8,9,0,5,66,,train_dim1_1,27,30,,,,2,0,2,0,,,,,,,,,0,0,0,0,0,26,26,26,0,0,0,0,,,,,,,,,,,,,,,,,,,,,,,,,stimuli/alien_stimuli/66.png,,,,,,,,,,,,,,,,,,,,,,,,,,,,,stimuli/alien_stimuli/64.png,64,9,28,,,,,,,30,,,,,,,,2254.9517929999856,2254.9517929999856,2254.9517929999856,2254.9517929999856,2254.9517929999856,up,1.822043499967549,22,0,0,99,0.48,0.0,up,1.7335491999983788,,,,,2253.3975411999854,2254.9517929999856,0.56,0.16,0.24,0.0,0.04,0.56,0.56,0.56,0.16,2251.952516499965,2251.952516499965,2251.952516499965,2251.952516499965,2251.952516499965,2251.952516499965,2251.952516499965,2251.952516499965,2251.945597579994,1.5368956999736838,return,1.4170465000206605,,,,,,,,,,,,,,,,,,,,,,,,,,,,,,,,,9R0QRV,train_y,blue_star,bottom_right,2025-06-12_16h13.25.092,HideSeek_v1,2022.2.5,59.94449140397595,
,8,4,8,9,0,5,66,,train_dim1_1,27,30,,,,2,0,2,0,,,,,,,,,0,0,0,0,0,26,26,26,1,0,1,0,,,,,,,,,,,,,,,,,,,,,,,,,,,,,,,,,,,,,,,,,,,,,,,,,,,,,,,,,,,,,,,,30,,,,,,,,2256.780121399963,2256.780121399963,2256.780121399963,2256.780121399963,2256.780121399963,up,0.5262547000311315,22,0,0,99,0.48,0.08,up,0.4379785000346601,,,,,,,,,,,,,,,,,,,,,,,,,,,,,,,,,,,,,,,,,,,,,,,,,,,,,,,,,,,,9R0QRV,train_y,blue_star,bottom_right,2025-06-12_16h13.25.092,HideSeek_v1,2022.2.5,59.94449140397595,
,8,4,8,9,0,5,66,,train_dim1_1,27,30,,,,2,0,2,0,,,,,,,,,0,0,0,0,0,26,26,26,2,0,2,0,,,,,,,,,,,,,,,,,,,,,,,,,,,,,,,,,,,,,,,,,,,,,,,,,,,,,,,,,,,,,,,,30,,,,,,,,2257.314665599959,2257.314665599959,2257.314665599959,2257.314665599959,2257.314665599959,up,0.526744700036943,22,0,0,99,0.48,0.16,up,0.4486774999531917,,,,,,,,,,,,,,,,,,,,,,,,,,,,,,,,,,,,,,,,,,,,,,,,,,,,,,,,,,,,9R0QRV,train_y,blue_star,bottom_right,2025-06-12_16h13.25.092,HideSeek_v1,2022.2.5,59.94449140397595,
,8,4,8,9,0,5,66,,train_dim1_1,27,30,,,,2,0,2,0,,,,,,,,,0,0,0,0,0,26,26,26,3,0,3,0,,,,,,,,,,,,,,,,,,,,,,,,,,,,,,,,,,,,,,,,,,,,,,,,,,,,,,,,,,,,,,,,30,,,,,,,,2257.848193999962,2257.848193999962,2257.848193999962,2257.848193999962,2257.848193999962,up,2.3115920999553055,22,0,0,99,0.48,0.24,up,2.2247663000016473,,,,,,,,,,,,,,,,,,,,,,,,,,,,,,,,,,,,,,,,,,,,,,,,,,,,,,,,,,,,9R0QRV,train_y,blue_star,bottom_right,2025-06-12_16h13.25.092,HideSeek_v1,2022.2.5,59.94449140397595,
,8,4,8,9,0,5,66,,train_dim1_1,27,30,,,,2,0,2,0,,,,,,,,,0,0,0,0,0,26,26,26,4,0,4,0,,,,,,,,,,,,,,,,,,,,,,,,,,,,,,,,,,,,,,,,,,,,,,,,,,,,,,,,,,,,,,,,30,,,,,,,,2260.1663965999614,2260.1663965999614,2260.1663965999614,2260.1663965999614,2260.1663965999614,up,0.6101663999725133,22,0,0,99,0.48,0.32,up,0.5218232999905013,,,,,,,,,,,,,,,,,,,,,,,,,,,,,,,,,,,,,,,,,,,,,,,,,,,,,,,,,,,,9R0QRV,train_y,blue_star,bottom_right,2025-06-12_16h13.25.092,HideSeek_v1,2022.2.5,59.94449140397595,
,8,4,8,9,0,5,66,,train_dim1_1,27,30,,,,2,0,2,0,,,,,,,,,0,0,0,0,0,26,26,26,5,0,5,0,,,,,,,,,,,,,,,,,,,,,,,,,,,,,,,,,,,,,,,,,,,,,,,,,,,,,,,,,,,,,,,,30,,,,,,,,2260.783358899993,2260.783358899993,2260.783358899993,2260.783358899993,2260.783358899993,return,0.8103694000164978,23,0,0,1,0.48,0.32,return,0.7227870000060648,79,0,0.48,0.32,,,,,,,,,,,,,,,,,,,,,,,,,,,,,,,,,,,,,,,,,,,,,,,,,,,,,,,,9R0QRV,train_y,blue_star,bottom_right,2025-06-12_16h13.25.092,HideSeek_v1,2022.2.5,59.94449140397595,
,9,1,9,1,0,0,61,,train_dim1_1,28,30,,,,2,0,2,0,,,,,,,,,0,0,0,0,0,27,27,27,0,0,0,0,,,,,,,,,,,,,,,,,,,,,,,,,stimuli/alien_stimuli/61.png,,,,,,,,,,,,,,,,,,,,,,,,,,,,,stimuli/alien_stimuli/66.png,66,8,29,,,,,,,30,,,,,,,,2265.948004900012,2265.948004900012,2265.948004900012,2265.948004900012,2265.948004900012,return,2.10214759997325,24,0,0,1,0.56,-0.32,return,2.0247117000399157,79,0,0.56,-0.32,2264.3895200999686,2265.948004900012,0.48,0.32,0.4,0.0,0.12,0.48,0.48,0.48,0.32,2263.1787127999705,2263.1787127999705,2263.1787127999705,2263.1787127999705,2263.1787127999705,2263.1787127999705,2263.1787127999705,2263.1787127999705,2263.1720488399733,1.3355253000045195,return,1.1855803999933414,,,,,,,,,,,,,,,,,,,,,,,,,,,,,,,,,9R0QRV,train_y,blue_star,bottom_right,2025-06-12_16h13.25.092,HideSeek_v1,2022.2.5,59.94449140397595,
,7,2,7,3,0,1,62,,train_dim1_1,29,30,,,,2,0,2,0,,,,,,,,,0,0,0,0,0,28,28,28,0,0,0,0,,,,,,,,,,,,,,,,,,,,,,,,,stimuli/alien_stimuli/62.png,,,,,,,,,,,,,,,,,,,,,,,,,,,,,stimuli/alien_stimuli/61.png,61,9,30,,,,,,,30,,,,,,,,2272.4172978000133,2272.4172978000133,2272.4172978000133,2272.4172978000133,2272.4172978000133,up,1.6713277000235394,24,0,0,99,0.4,-0.15999999999999998,up,1.5961738000041805,,,,,2270.86194219999,2272.4172978000133,0.56,-0.32,0.0,0.0,-0.32,0.56,0.56,0.56,-0.32,2269.6052482000086,2269.6052482000086,2269.6052482000086,2269.6052482000086,2269.6052482000086,2269.6052482000086,2269.6052482000086,2269.6052482000086,2269.5936682799947,1.3530969999847002,return,1.2349889000179246,,,,,,,,,,,,,,,,,,,,,,,,,,,,,,,,,9R0QRV,train_y,blue_star,bottom_right,2025-06-12_16h13.25.092,HideSeek_v1,2022.2.5,59.94449140397595,
,7,2,7,3,0,1,62,,train_dim1_1,29,30,,,,2,0,2,0,,,,,,,,,0,0,0,0,0,28,28,28,1,0,1,0,,,,,,,,,,,,,,,,,,,,,,,,,,,,,,,,,,,,,,,,,,,,,,,,,,,,,,,,,,,,,,,,30,,,,,,,,2274.1033705999725,2274.1033705999725,2274.1033705999725,2274.1033705999725,2274.1033705999725,return,1.059887199953664,25,0,0,1,0.4,-0.15999999999999998,return,0.9723562999861315,80,0,0.4,-0.15999999999999998,,,,,,,,,,,,,,,,,,,,,,,,,,,,,,,,,,,,,,,,,,,,,,,,,,,,,,,,9R0QRV,train_y,blue_star,bottom_right,2025-06-12_16h13.25.092,HideSeek_v1,2022.2.5,59.94449140397595,
,5,1,5,5,0,4,65,,train_dim1_1,30,30,,,,2,0,2,0,,,,,,,,,0,0,0,0,0,29,29,29,0,0,0,0,,,,,,,,,,,,,,,,,,,,,,,,,stimuli/alien_stimuli/65.png,,,,,,,,,,,,,,,,,,,,,,,,,,,,,stimuli/alien_stimuli/62.png,62,7,31,,,,,,,30,,,,,,,,2279.38170540001,2279.38170540001,2279.38170540001,2279.38170540001,2279.38170540001,up,2.4239165000035428,25,0,0,99,0.24,-0.24,up,2.338915700034704,,,,,2277.817504299979,2279.38170540001,0.4,-0.16,0.08,0.0,-0.2,0.4,0.4,0.4,-0.16,2276.714426899969,2276.714426899969,2276.714426899969,2276.714426899969,2276.714426899969,2276.714426899969,2276.714426899969,2276.714426899969,2276.699786679994,1.2025811999919824,return,1.0748224999988452,,,,,,,,,,,,,,,,,,,,,,,,,,,,,,,,,9R0QRV,train_y,blue_star,bottom_right,2025-06-12_16h13.25.092,HideSeek_v1,2022.2.5,59.94449140397595,
,5,1,5,5,0,4,65,,train_dim1_1,30,30,,,,2,0,2,0,,,,,,,,,0,0,0,0,0,29,29,29,1,0,1,0,,,,,,,,,,,,,,,,,,,,,,,,,,,,,,,,,,,,,,,,,,,,,,,,,,,,,,,,,,,,,,,,30,,,,,,,,2281.802200099977,2281.802200099977,2281.802200099977,2281.802200099977,2281.802200099977,up,0.6756996999611147,25,0,0,99,0.24,-0.15999999999999998,up,0.6022466000285931,,,,,,,,,,,,,,,,,,,,,,,,,,,,,,,,,,,,,,,,,,,,,,,,,,,,,,,,,,,,9R0QRV,train_y,blue_star,bottom_right,2025-06-12_16h13.25.092,HideSeek_v1,2022.2.5,59.94449140397595,
,5,1,5,5,0,4,65,,train_dim1_1,30,30,,,,2,0,2,0,,,,,,,,,0,0,0,0,0,29,29,29,2,0,2,0,,,,,,,,,,,,,,,,,,,,,,,,,,,,,,,,,,,,,,,,,,,,,,,,,,,,,,,,,,,,,,,,30,,,,,,,,2282.485247500008,2282.485247500008,2282.485247500008,2282.485247500008,2282.485247500008,up,0.6600112000014633,25,0,0,99,0.24,-0.07999999999999997,up,0.575893500004895,,,,,,,,,,,,,,,,,,,,,,,,,,,,,,,,,,,,,,,,,,,,,,,,,,,,,,,,,,,,9R0QRV,train_y,blue_star,bottom_right,2025-06-12_16h13.25.092,HideSeek_v1,2022.2.5,59.94449140397595,
,5,1,5,5,0,4,65,,train_dim1_1,30,30,,,,2,0,2,0,,,,,,,,,0,0,0,0,0,29,29,29,3,0,3,0,,,,,,,,,,,,,,,,,,,,,,,,,,,,,,,,,,,,,,,,,,,,,,,,,,,,,,,,,,,,,,,,30,,,,,,,,2283.1509642999736,2283.1509642999736,2283.1509642999736,2283.1509642999736,2283.1509642999736,up,0.5599989999900572,25,0,0,99,0.24,2.7755575615628914e-17,up,0.48603369999909773,,,,,,,,,,,,,,,,,,,,,,,,,,,,,,,,,,,,,,,,,,,,,,,,,,,,,,,,,,,,9R0QRV,train_y,blue_star,bottom_right,2025-06-12_16h13.25.092,HideSeek_v1,2022.2.5,59.94449140397595,
,5,1,5,5,0,4,65,,train_dim1_1,30,30,,,,2,0,2,0,,,,,,,,,0,0,0,0,0,29,29,29,4,0,4,0,,,,,,,,,,,,,,,,,,,,,,,,,,,,,,,,,,,,,,,,,,,,,,,,,,,,,,,,,,,,,,,,30,,,,,,,,2283.7182892999845,2283.7182892999845,2283.7182892999845,2283.7182892999845,2283.7182892999845,return,0.7439678000519052,26,0,0,1,0.24,2.7755575615628914e-17,return,0.6698486999957822,84,0,0.24,2.7755575615628914e-17,,,,,,,,,,,,,,,,,,,,,,,,,,,,,,,,,,,,,,,,,,,,,,,,,,,,,,,,9R0QRV,train_y,blue_star,bottom_right,2025-06-12_16h13.25.092,HideSeek_v1,2022.2.5,59.94449140397595,
,,,,,,,,,,,30,,,,2,0,2,0,,,,,,,,,,,,,,,,,,,,,,,,,,,,,,,,,,,,,,,,,,,,,,,,,,,,,,,,,,,,,,,,,,,,,,,,,,stimuli/alien_stimuli/65.png,65,5,32,21,0.7,1.0833333333333335,1,1,1,30,0,conditions/schedules/train_y_first/blue_star_00/bottom_right/inputTrain_2.1.xlsx,99,1,2,1,0,,,,,,,,,,,1,,,,,,,,,2287.6422991,2289.201799499977,0.24,0,0.32,0.0,-0.16,0.24,0.24,0.24,0,2286.014607099991,2286.014607099991,2286.014607099991,2286.014607099991,2286.014607099991,2286.014607099991,2286.014607099991,2286.014607099991,2286.007214179961,1.7204378999886103,return,1.6087476000539027,0,0.9,0,1,26,,,,,,,,,,,,,,,,,,,,,,,,,,,,9R0QRV,train_y,blue_star,bottom_right,2025-06-12_16h13.25.092,HideSeek_v1,2022.2.5,59.94449140397595,
,,,,,,,,,,,,,,,3,0,3,0,0,0,0,0,,,,,,,,,,,,,,,,,,,,,,,,,,,,,,,conditions/schedules/train_y_first/blue_star_00/bottom_right/instructions/Slide17.png,conditions/schedules/train_y_first/blue_star_00/bottom_right/instructions/Audio17.wav,2289.201799499977,2289.19345952,17,"[4.92365669994615, 18.278057900024578, 16.579415799991693, 19.051545700000133, 4.569535700022243, 4.720070699986536, 5.418818900012411, 11.858607000031043, 6.117703899974003, 7.235452699998859, 10.321622700023, 14.009816300007515, 17.796012600010727, 16.38775860000169, 44.211105399997905, 21.643805400002748, 54.085233799996786]","[0.0002196000423282385, 0.032144299999345094, 0.052325099997688085, 19.05155219999142, 0.03285429999232292, 0.04780850000679493, 0.03209890000289306, 0.0465457999962382, 0.04664229997433722, 0.04705420002574101, 0.0660061999806203, 14.009823000000324, 0.06284530000993982, 16.3877652999945, 0.0002316000172868371, 21.64381159999175, 54.08524089999264]",0,,,,,,,,,,,,,,,,,,,,,,,,,,,,,,,,,,,,,,,,,,,,,,,,,,,,,,,,,,,,,,,,,,,,,,,,,,,,,,,,,,,,,,,,,,,,,,,,,,,,,,,,,,,,,,,,,,,,,,,,,,,,9R0QRV,train_y,blue_star,bottom_right,2025-06-12_16h13.25.092,HideSeek_v1,2022.2.5,59.94449140397595,
,,,,,,,,,,,,,,,3,0,3,0,1,0,1,0,,,,,,,,,,,,,,,,,,,,,,,,,,,,,,,conditions/schedules/train_y_first/blue_star_00/bottom_right/instructions/Slide18.png,conditions/schedules/train_y_first/blue_star_00/bottom_right/instructions/Audio18.wav,2343.3577411999577,2343.3557483999757,18,"[4.92365669994615, 18.278057900024578, 16.579415799991693, 19.051545700000133, 4.569535700022243, 4.720070699986536, 5.418818900012411, 11.858607000031043, 6.117703899974003, 7.235452699998859, 10.321622700023, 14.009816300007515, 17.796012600010727, 16.38775860000169, 44.211105399997905, 21.643805400002748, 54.085233799996786, 6.467742100008763]","[0.0002196000423282385, 0.032144299999345094, 0.052325099997688085, 19.05155219999142, 0.03285429999232292, 0.04780850000679493, 0.03209890000289306, 0.0465457999962382, 0.04664229997433722, 0.04705420002574101, 0.0660061999806203, 14.009823000000324, 0.06284530000993982, 16.3877652999945, 0.0002316000172868371, 21.64381159999175, 54.08524089999264, 6.467748900002334]",0,,,,,,,,,,,,,,,,,,,,,,,,,,,,,,,,,,,,,,,,,,,,,,,,,,,,,,,,,,,,,,,,,,,,,,,,,,,,,,,,,,,,,,,,,,,,,,,,,,,,,,,,,,,,,,,,,,,,,,,,,,,,9R0QRV,train_y,blue_star,bottom_right,2025-06-12_16h13.25.092,HideSeek_v1,2022.2.5,59.94449140397595,
,,,,,,,,,,,,,,,3,0,3,0,2,0,2,0,,,,,,,,,,,,,,,,,,,,,,,,,,,,,,,conditions/schedules/train_y_first/blue_star_00/bottom_right/instructions/Slide19.png,conditions/schedules/train_y_first/blue_star_00/bottom_right/instructions/Audio19.wav,2349.880995399959,2349.878098019981,19,"[4.92365669994615, 18.278057900024578, 16.579415799991693, 19.051545700000133, 4.569535700022243, 4.720070699986536, 5.418818900012411, 11.858607000031043, 6.117703899974003, 7.235452699998859, 10.321622700023, 14.009816300007515, 17.796012600010727, 16.38775860000169, 44.211105399997905, 21.643805400002748, 54.085233799996786, 6.467742100008763, 10.604011400020681]","[0.0002196000423282385, 0.032144299999345094, 0.052325099997688085, 19.05155219999142, 0.03285429999232292, 0.04780850000679493, 0.03209890000289306, 0.0465457999962382, 0.04664229997433722, 0.04705420002574101, 0.0660061999806203, 14.009823000000324, 0.06284530000993982, 16.3877652999945, 0.0002316000172868371, 21.64381159999175, 54.08524089999264, 0.01408870000159368, 10.604017500008922]",0,,,,,,,,,,,,,,,,,,,,,,,,,,,,,,,,,,,,,,,,,,,,,,,,,,,,,,,,,,,,,,,,,,,,,,,,,,,,,,,,,,,,,,,,,,,,,,,,,,,,,,,,,,,,,,,,,,,,,,,,,,,,9R0QRV,train_y,blue_star,bottom_right,2025-06-12_16h13.25.092,HideSeek_v1,2022.2.5,59.94449140397595,
,,,,,,,,,,,,,,,3,0,3,0,3,0,3,0,,,,,,,,,,,,,,,,,,,,,,,,,,,,,,,conditions/schedules/train_y_first/blue_star_00/bottom_right/instructions/Slide20.png,conditions/schedules/train_y_first/blue_star_00/bottom_right/instructions/Audio20.wav,2360.552710399963,2360.553963799961,20,"[4.92365669994615, 18.278057900024578, 16.579415799991693, 19.051545700000133, 4.569535700022243, 4.720070699986536, 5.418818900012411, 11.858607000031043, 6.117703899974003, 7.235452699998859, 10.321622700023, 14.009816300007515, 17.796012600010727, 16.38775860000169, 44.211105399997905, 21.643805400002748, 54.085233799996786, 6.467742100008763, 10.604011400020681, 12.625174200045876]","[0.0002196000423282385, 0.032144299999345094, 0.052325099997688085, 19.05155219999142, 0.03285429999232292, 0.04780850000679493, 0.03209890000289306, 0.0465457999962382, 0.04664229997433722, 0.04705420002574101, 0.0660061999806203, 14.009823000000324, 0.06284530000993982, 16.3877652999945, 0.0002316000172868371, 21.64381159999175, 54.08524089999264, 0.01408870000159368, 0.03130240004975349, 12.625180800037924]",0,,,,,,,,,,,,,,,,,,,,,,,,,,,,,,,,,,,,,,,,,,,,,,,,,,,,,,,,,,,,,,,,,,,,,,,,,,,,,,,,,,,,,,,,,,,,,,,,,,,,,,,,,,,,,,,,,,,,,,,,,,,,9R0QRV,train_y,blue_star,bottom_right,2025-06-12_16h13.25.092,HideSeek_v1,2022.2.5,59.94449140397595,
1,9,0,4,0,-5,0,11,2,instr_dim1_2,,,,,,3,0,3,0,,,,,0,0,0,0,,,,,,,,,,,,,,,,,,,,,,,,,,,,,,,,,,,,,stimuli/alien_stimuli/11.png,conditions/schedules/train_y_first/blue_star_00/bottom_right/inputInstr_2.xlsx,stimuli/alien_stimuli/11.png,2373.286719899974,2373.286719899974,2373.286719899974,2373.286719899974,2373.2799470599857,return,7.115002100006677,"[-0.16, -0.08, 0, 0.08, 0.16, 0.24, 0.32, 0.4, 0.48, 0.56]","[-0.4, -0.32, -0.24, -0.16, -0.08, 0, 0.08, 0.16, 0.24, 0.32]",0,0,4,9,0.0,0.4,2380.5640648999834,2380.5640648999834,2380.5640648999834,2380.5640648999834,2380.5640648999834,2380.5640648999834,2380.5640648999834,2380.5521061199834,8.157446000026539,return,7.985912699950859,stimuli/alien_stimuli/11.png,11,9,1,,,,,,,,,,,,,,,,,,,,,,,,,,,,,,,,,,,,,,,,,,,,,,,,,,,,,,,,,,,,,,,,,,,,,,,,,,,,,,,,,,,,,,,,,9R0QRV,train_y,blue_star,bottom_right,2025-06-12_16h13.25.092,HideSeek_v1,2022.2.5,59.94449140397595,
,,,,,,,,,,,30,,,,3,0,3,0,,,,,,,,,,,,,,,,,,,,,,,,,,,,,,,,,,,,,,,,,,,,,,,,,,,,,,,,,,,,,,,,,,,,,,,,,,,,,,21,0.7,1.0833333333333335,1,99,2,30,0,conditions/schedules/train_y_first/blue_star_00/bottom_right/inputTrain_2.1.xlsx,99,1,2,1,0,,,,,,,,,,,,,,,,,,,,,,,,,,,,,,,,,,,,,,,,,,,,,,,,,,,,,,,,,,,,,,,,,,,,,,,,,,,9R0QRV,train_y,blue_star,bottom_right,2025-06-12_16h13.25.092,HideSeek_v1,2022.2.5,59.94449140397595,
,,,,,,,,,,,,,,,4,0,4,0,0,0,0,0,,,,,,,,,,,,,,,,,,,,,,,,,,,,,,,conditions/schedules/train_y_first/blue_star_00/bottom_right/instructions/Slide21.png,conditions/schedules/train_y_first/blue_star_00/bottom_right/instructions/Audio21.wav,2388.716120500001,2388.708758319961,21,"[4.92365669994615, 18.278057900024578, 16.579415799991693, 19.051545700000133, 4.569535700022243, 4.720070699986536, 5.418818900012411, 11.858607000031043, 6.117703899974003, 7.235452699998859, 10.321622700023, 14.009816300007515, 17.796012600010727, 16.38775860000169, 44.211105399997905, 21.643805400002748, 54.085233799996786, 6.467742100008763, 10.604011400020681, 12.625174200045876, 12.734482800005935]","[0.0002196000423282385, 0.032144299999345094, 0.052325099997688085, 19.05155219999142, 0.03285429999232292, 0.04780850000679493, 0.03209890000289306, 0.0465457999962382, 0.04664229997433722, 0.04705420002574101, 0.0660061999806203, 14.009823000000324, 0.06284530000993982, 16.3877652999945, 0.0002316000172868371, 21.64381159999175, 54.08524089999264, 0.01408870000159368, 0.03130240004975349, 12.625180800037924, 12.734489800001029]",0,,,,,,,,,,,,,,,,,,,,,,,,,,,,,,,,,,,,,,,,,,,,,,,,,,,,,,,,,,,,,,,,,,,,,,,,,,,,,,,,,,,,,,,,,,,,,,,,,,,,,,,,,,,,,,,,,,,,,,,,,,,,9R0QRV,train_y,blue_star,bottom_right,2025-06-12_16h13.25.092,HideSeek_v1,2022.2.5,59.94449140397595,
2,8,2,8,2,0,0,61,2,instr_dim1_2,,,,,,4,0,4,0,,,,,0,0,0,0,,,,,,,,,,,,,,,,,,,,,,,,,,,,,,,,,,,,,stimuli/alien_stimuli/61.png,conditions/schedules/train_y_first/blue_star_00/bottom_right/inputInstr_2.xlsx,stimuli/alien_stimuli/61.png,2401.541760399996,2401.541760399996,2401.541760399996,2401.541760399996,2401.536647479981,return,6.007621800003108,"[-0.16, -0.08, 0, 0.08, 0.16, 0.24, 0.32, 0.4, 0.48, 0.56]","[-0.4, -0.32, -0.24, -0.16, -0.08, 0, 0.08, 0.16, 0.24, 0.32]",2,2,8,8,0.0,0.0,2407.717224999971,2407.717224999971,2407.717224999971,2407.717224999971,2407.717224999971,2407.717224999971,2407.717224999971,2407.7080419199774,8.758218000002671,return,8.5845246000099,stimuli/alien_stimuli/61.png,61,8,2,,,,,,,,,,,,,,,,,,,,,,,,,,,,,,,,,,,,,,,,,,,,,,,,,,,,,,,,,,,,,,,,,,,,,,,,,,,,,,,,,,,,,,,,,9R0QRV,train_y,blue_star,bottom_right,2025-06-12_16h13.25.092,HideSeek_v1,2022.2.5,59.94449140397595,
,,,,,,,,,,,30,,,,4,0,4,0,,,,,,,,,,,,,,,,,,,,,,,,,,,,,,,,,,,,,,,,,,,,,,,,,,,,,,,,,,,,,,,,,,,,,,,,,,,,,,21,0.7,1.0833333333333335,1,99,2,30,0,conditions/schedules/train_y_first/blue_star_00/bottom_right/inputTrain_2.1.xlsx,99,1,2,1,0,,,,,,,,,,,,,,,,,,,,,,,,,,,,,,,,,,,,,,,,,,,,,,,,,,,,,,,,,,,,,,,,,,,,,,,,,,,9R0QRV,train_y,blue_star,bottom_right,2025-06-12_16h13.25.092,HideSeek_v1,2022.2.5,59.94449140397595,
,,,,,,,,,,,,,,,5,0,5,0,0,0,0,0,,,,,,,,,,,,,,,,,,,,,,,,,,,,,,,conditions/schedules/train_y_first/blue_star_00/bottom_right/instructions/Slide22.png,conditions/schedules/train_y_first/blue_star_00/bottom_right/instructions/Audio22.wav,2416.4706802999717,2416.4652784200152,22,"[4.92365669994615, 18.278057900024578, 16.579415799991693, 19.051545700000133, 4.569535700022243, 4.720070699986536, 5.418818900012411, 11.858607000031043, 6.117703899974003, 7.235452699998859, 10.321622700023, 14.009816300007515, 17.796012600010727, 16.38775860000169, 44.211105399997905, 21.643805400002748, 54.085233799996786, 6.467742100008763, 10.604011400020681, 12.625174200045876, 12.734482800005935, 31.136183900001924]","[0.0002196000423282385, 0.032144299999345094, 0.052325099997688085, 19.05155219999142, 0.03285429999232292, 0.04780850000679493, 0.03209890000289306, 0.0465457999962382, 0.04664229997433722, 0.04705420002574101, 0.0660061999806203, 14.009823000000324, 0.06284530000993982, 16.3877652999945, 0.0002316000172868371, 21.64381159999175, 54.08524089999264, 0.01408870000159368, 0.03130240004975349, 12.625180800037924, 12.734489800001029, 31.136190799996257]",0,,,,,,,,,,,,,,,,,,,,,,,,,,,,,,,,,,,,,,,,,,,,,,,,,,,,,,,,,,,,,,,,,,,,,,,,,,,,,,,,,,,,,,,,,,,,,,,,,,,,,,,,,,,,,,,,,,,,,,,,,,,,9R0QRV,train_y,blue_star,bottom_right,2025-06-12_16h13.25.092,HideSeek_v1,2022.2.5,59.94449140397595,
,7,1,4,1,-3,0,31,,train_dim1_2,1,30,,,,5,0,5,0,,,,,,,,,0,0,0,0,0,0,0,0,0,0,0,0,,,,,,,,,,,,,,,,,,,,,,,,,stimuli/alien_stimuli/31.png,,,,,,,,,,,,,,,,,,,,,,,,,,,,,,,,,,,,,,,30,,,,,,,,2447.7038903000066,2447.7038903000066,2447.7038903000066,2447.7038903000066,2447.7038903000066,up,7.2162998000276275,0,0,0,99,0.4,-0.24,up,7.112166500010062,,,,,,,,,,,,,,,,,,,,,,,,,,,,,,,,,,,,,,,,,,,,,,,,,,,,,,,,,,,,9R0QRV,train_y,blue_star,bottom_right,2025-06-12_16h13.25.092,HideSeek_v1,2022.2.5,59.94449140397595,
,7,1,4,1,-3,0,31,,train_dim1_2,1,30,,,,5,0,5,0,,,,,,,,,0,0,0,0,0,0,0,0,1,0,1,0,,,,,,,,,,,,,,,,,,,,,,,,,,,,,,,,,,,,,,,,,,,,,,,,,,,,,,,,,,,,,,,,30,,,,,,,,2454.913012099976,2454.913012099976,2454.913012099976,2454.913012099976,2454.913012099976,up,0.9435593000380322,0,0,0,99,0.4,-0.15999999999999998,up,0.8613785000052303,,,,,,,,,,,,,,,,,,,,,,,,,,,,,,,,,,,,,,,,,,,,,,,,,,,,,,,,,,,,9R0QRV,train_y,blue_star,bottom_right,2025-06-12_16h13.25.092,HideSeek_v1,2022.2.5,59.94449140397595,
,7,1,4,1,-3,0,31,,train_dim1_2,1,30,,,,5,0,5,0,,,,,,,,,0,0,0,0,0,0,0,0,2,0,2,0,,,,,,,,,,,,,,,,,,,,,,,,,,,,,,,,,,,,,,,,,,,,,,,,,,,,,,,,,,,,,,,,30,,,,,,,,2455.8632111999905,2455.8632111999905,2455.8632111999905,2455.8632111999905,2455.8632111999905,up,1.4435561999562196,0,0,0,99,0.4,-0.07999999999999997,up,1.3567992000025697,,,,,,,,,,,,,,,,,,,,,,,,,,,,,,,,,,,,,,,,,,,,,,,,,,,,,,,,,,,,9R0QRV,train_y,blue_star,bottom_right,2025-06-12_16h13.25.092,HideSeek_v1,2022.2.5,59.94449140397595,
,7,1,4,1,-3,0,31,,train_dim1_2,1,30,,,,5,0,5,0,,,,,,,,,0,0,0,0,0,0,0,0,3,0,3,0,,,,,,,,,,,,,,,,,,,,,,,,,,,,,,,,,,,,,,,,,,,,,,,,,,,,,,,,,,,,,,,,30,,,,,,,,2457.3152546999627,2457.3152546999627,2457.3152546999627,2457.3152546999627,2457.3152546999627,return,0.9101398999919184,0,0,0,0,0.4,-0.07999999999999997,return,0.8311274999869056,87,0,0.4,-0.07999999999999997,,,,,,,,,,,,,,,,,,,,,,,,,,,,,,,,,,,,,,,,,,,,,,,,,,,,,,,,9R0QRV,train_y,blue_star,bottom_right,2025-06-12_16h13.25.092,HideSeek_v1,2022.2.5,59.94449140397595,
,7,4,2,4,-5,0,11,,train_dim1_2,2,30,,,,5,0,5,0,,,,,,,,,0,0,0,0,0,1,1,1,0,0,0,0,,,,,,,,,,,,,,,,,,,,,,,,,stimuli/alien_stimuli/11.png,,,,,,,,,,,,,,,,,,,,,,,,,,,,,stimuli/alien_stimuli/31.png,31,7,3,,,,,,,30,,,,,,,,2465.0739742000005,2465.0739742000005,2465.0739742000005,2465.0739742000005,2465.0739742000005,left,2.803404000005685,0,0,0,99,0.32,-0.08,left,2.717482999956701,,,,,2463.505109999969,2465.0739742000005,0.16,-0.32,0.0,0.24,-0.32,0.16,0.28,0.16,-0.32,2459.811808699975,2459.811808699975,2459.811808699975,2459.811808699975,2459.811808699975,2459.811808699975,2459.811808699975,2459.811808699975,2459.801388140011,3.8221368999802507,return,3.672032799979206,,,,,,,,,,,,,,,,,,,,,,,,,,,,,,,,,9R0QRV,train_y,blue_star,bottom_right,2025-06-12_16h13.25.092,HideSeek_v1,2022.2.5,59.94449140397595,
,7,4,2,4,-5,0,11,,train_dim1_2,2,30,,,,5,0,5,0,,,,,,,,,0,0,0,0,0,1,1,1,1,0,1,0,,,,,,,,,,,,,,,,,,,,,,,,,,,,,,,,,,,,,,,,,,,,,,,,,,,,,,,,,,,,,,,,30,,,,,,,,2467.8788113999763,2467.8788113999763,2467.8788113999763,2467.8788113999763,2467.8788113999763,left,0.7425603999872692,0,0,0,99,0.24,-0.08,left,0.6584052999969572,,,,,,,,,,,,,,,,,,,,,,,,,,,,,,,,,,,,,,,,,,,,,,,,,,,,,,,,,,,,9R0QRV,train_y,blue_star,bottom_right,2025-06-12_16h13.25.092,HideSeek_v1,2022.2.5,59.94449140397595,
,7,4,2,4,-5,0,11,,train_dim1_2,2,30,,,,5,0,5,0,,,,,,,,,0,0,0,0,0,1,1,1,2,0,2,0,,,,,,,,,,,,,,,,,,,,,,,,,,,,,,,,,,,,,,,,,,,,,,,,,,,,,,,,,,,,,,,,30,,,,,,,,2468.6316115999944,2468.6316115999944,2468.6316115999944,2468.6316115999944,2468.6316115999944,left,0.6600908000255004,0,0,0,99,0.15999999999999998,-0.08,left,0.5762568999780342,,,,,,,,,,,,,,,,,,,,,,,,,,,,,,,,,,,,,,,,,,,,,,,,,,,,,,,,,,,,9R0QRV,train_y,blue_star,bottom_right,2025-06-12_16h13.25.092,HideSeek_v1,2022.2.5,59.94449140397595,
,7,4,2,4,-5,0,11,,train_dim1_2,2,30,,,,5,0,5,0,,,,,,,,,0,0,0,0,0,1,1,1,3,0,3,0,,,,,,,,,,,,,,,,,,,,,,,,,,,,,,,,,,,,,,,,,,,,,,,,,,,,,,,,,,,,,,,,30,,,,,,,,2469.2969285,2469.2969285,2469.2969285,2469.2969285,2469.2969285,left,0.6090575999696739,0,0,0,99,0.07999999999999997,-0.08,left,0.5259089000173844,,,,,,,,,,,,,,,,,,,,,,,,,,,,,,,,,,,,,,,,,,,,,,,,,,,,,,,,,,,,9R0QRV,train_y,blue_star,bottom_right,2025-06-12_16h13.25.092,HideSeek_v1,2022.2.5,59.94449140397595,
,7,4,2,4,-5,0,11,,train_dim1_2,2,30,,,,5,0,5,0,,,,,,,,,0,0,0,0,0,1,1,1,4,0,4,0,,,,,,,,,,,,,,,,,,,,,,,,,,,,,,,,,,,,,,,,,,,,,,,,,,,,,,,,,,,,,,,,30,,,,,,,,2469.913231100014,2469.913231100014,2469.913231100014,2469.913231100014,2469.913231100014,left,0.5600423999712802,0,0,0,99,-2.7755575615628914e-17,-0.08,left,0.4764418000122532,,,,,,,,,,,,,,,,,,,,,,,,,,,,,,,,,,,,,,,,,,,,,,,,,,,,,,,,,,,,9R0QRV,train_y,blue_star,bottom_right,2025-06-12_16h13.25.092,HideSeek_v1,2022.2.5,59.94449140397595,
