trialInstr,x_fixStart,y_fixStart,x_corrSteps,y_corrSteps,x_nrSteps,y_nrSteps,alienID,trialLength,version,trialTrain,praclen,testlen,trial_label,break_on_off,beforeExpLoop.thisRepN,beforeExpLoop.thisTrialN,beforeExpLoop.thisN,beforeExpLoop.thisIndex,mini_instr_trials.thisRepN,mini_instr_trials.thisTrialN,mini_instr_trials.thisN,mini_instr_trials.thisIndex,instrLoop.thisRepN,instrLoop.thisTrialN,instrLoop.thisN,instrLoop.thisIndex,repeat_prac.thisRepN,repeat_prac.thisTrialN,repeat_prac.thisN,repeat_prac.thisIndex,trainLoop.thisRepN,trainLoop.thisTrialN,trainLoop.thisN,trainLoop.thisIndex,moveLoop_train.thisRepN,moveLoop_train.thisTrialN,moveLoop_train.thisN,moveLoop_train.thisIndex,experiment.thisRepN,experiment.thisTrialN,experiment.thisN,experiment.thisIndex,moveLoop_test.thisRepN,moveLoop_test.thisTrialN,moveLoop_test.thisN,moveLoop_test.thisIndex,mini_instr2_trials.thisRepN,mini_instr2_trials.thisTrialN,mini_instr2_trials.thisN,mini_instr2_trials.thisIndex,start_all_time,url,slideStim,audioStim,slides.started,sounds.started,nextButton.numClicks,nextButton.timesOn,nextButton.timesOff,prev_but.numClicks,prev_but.timesOn,prev_but.timesOff,alienStim,instrFile,alienStim_instr,gridImage_instr.started,startPos_3.started,key_instr.started,alienImage_3.started,sounds_1.started,key_instr.keys,key_instr.rt,all_x,all_y,FBy_corrSteps,FBy_fixStart,FBx_corrSteps,FBx_fixStart,FBy_pathSize_check,FBx_pathSize_check,gridImage_9.started,alienImageFB_3.started,startPosFB_3.started,keyFB_3.started,pathLine_ydir_2.started,pathLine_xdir_2.started,alienFace_3.started,sounds_2.started,RTFB_instr,keyFB_3.keys,keyFB_3.rt,draw_alienStim,draw_alienID,test_x,nrepcount,perfthres,percthres,earlierperf,earlystop,nextPrac,fileidx,praclen,saveACC_train,pracFile,nextPrac_train,addNrep,fileidx_endr,repExp,showearly,gridImage_4.started,startPos.started,movePos.started,key_resp.started,alienImage.started,buttonPress_train,RTchoice_train,cumAcctrain,aCorr,saveACC_choice,corrAns,x_movePos_end,y_movePos_end,key_resp.keys,key_resp.rt,wLy_dir,wLx_dir,x_movePos,y_movePos,text_2.started,text_2.stopped,aft_x_corrPos,aft_y_corrPos,y_pathSize_check,x_pathSize_check,y_pathdirY,x_pathdirY,x_pathdirX,x_corrPos,y_corrPos,gridImage_6.started,alienImageFB_2.started,startPosFB_2.started,movePosFB_2.started,keyFB_2.started,pathLine_xdir.started,pathLine_ydir.started,alienFace.started,sounds_4.started,RT_FBtrain,keyFB_2.keys,keyFB_2.rt,saveACC_pre,ACC,within_saveACC_train,earlystop_wloop,cumAcctrain_check,gridImage_3.started,alienImage_test.started,startPos_test.started,movePos_test.started,key_resp_test.started,wLy_dir_test,wLx_dir_test,buttonPress_test,RTchoice_test,cumAcctest,corrAns_test,key_resp_test.keys,key_resp_test.rt,text_3.started,text_3.stopped,total_time,end_all_time,key_resp_3.keys,slides_2.started,sounds_3.started,nextButton_2.numClicks,nextButton_2.timesOn,nextButton_2.timesOff,prev_but_2.numClicks,prev_but_2.timesOn,prev_but_2.timesOff,bye.started,participant,train_first,00_coordinate,starting corner,date,expName,psychopyVersion,frameRate,
,,,,,,,,,,,,,,,0,0,0,0,0,0,0,0,,,,,,,,,,,,,,,,,,,,,,,,,,,,,start_all_time,testround,conditions/schedules/train_y_first/red_square_00/bottom_left/instructions/Slide1.png,conditions/schedules/train_y_first/red_square_00/bottom_left/instructions/Audio1.wav,2018.6710690999998,2018.6030490100036,1,[4.445318799999768],[4.4453311999996],0,,,,,,,,,,,,,,,,,,,,,,,,,,,,,,,,,,,,,,,,,,,,,,,,,,,,,,,,,,,,,,,,,,,,,,,,,,,,,,,,,,,,,,,,,,,,,,,,,,,,,,,,,,,,,,,,,,,,,,,,,,,,9Y53G3,train_y,red_square,bottom_left,2025-03-07_15h20.37.351,HideSeek_v1,2022.2.5,60.05039429083263,
,,,,,,,,,,,,,,,0,0,0,0,1,0,1,0,,,,,,,,,,,,,,,,,,,,,,,,,,,,,,,conditions/schedules/train_y_first/red_square_00/bottom_left/instructions/Slide2.png,conditions/schedules/train_y_first/red_square_00/bottom_left/instructions/Audio2.wav,2023.1311605,2023.1285159500003,2,"[4.445318799999768, 18.093813299999965]","[4.4453311999996, 18.093823000000157]",0,,,,,,,,,,,,,,,,,,,,,,,,,,,,,,,,,,,,,,,,,,,,,,,,,,,,,,,,,,,,,,,,,,,,,,,,,,,,,,,,,,,,,,,,,,,,,,,,,,,,,,,,,,,,,,,,,,,,,,,,,,,,9Y53G3,train_y,red_square,bottom_left,2025-03-07_15h20.37.351,HideSeek_v1,2022.2.5,60.05039429083263,
,,,,,,,,,,,,,,,0,0,0,0,2,0,2,0,,,,,,,,,,,,,,,,,,,,,,,,,,,,,,,conditions/schedules/train_y_first/red_square_00/bottom_left/instructions/Slide3.png,conditions/schedules/train_y_first/red_square_00/bottom_left/instructions/Audio3.wav,2041.3028662000002,2041.2933359500003,3,"[4.445318799999768, 18.093813299999965, 17.034800699999778]","[4.4453311999996, 18.093823000000157, 17.03480750000017]",0,,,,,,,,,,,,,,,,,,,,,,,,,,,,,,,,,,,,,,,,,,,,,,,,,,,,,,,,,,,,,,,,,,,,,,,,,,,,,,,,,,,,,,,,,,,,,,,,,,,,,,,,,,,,,,,,,,,,,,,,,,,,9Y53G3,train_y,red_square,bottom_left,2025-03-07_15h20.37.351,HideSeek_v1,2022.2.5,60.05039429083263,
,,,,,,,,,,,,,,,0,0,0,0,3,0,3,0,,,,,,,,,,,,,,,,,,,,,,,,,,,,,,,conditions/schedules/train_y_first/red_square_00/bottom_left/instructions/Slide4.png,conditions/schedules/train_y_first/red_square_00/bottom_left/instructions/Audio4.wav,2058.4114696,2058.40850975,4,"[4.445318799999768, 18.093813299999965, 17.034800699999778, 19.46042699999998]","[4.4453311999996, 18.093823000000157, 0.031916800000090007, 19.46043580000014]",0,,,,,,,,,,,,,,,,,,,,,,,,,,,,,,,,,,,,,,,,,,,,,,,,,,,,,,,,,,,,,,,,,,,,,,,,,,,,,,,,,,,,,,,,,,,,,,,,,,,,,,,,,,,,,,,,,,,,,,,,,,,,9Y53G3,train_y,red_square,bottom_left,2025-03-07_15h20.37.351,HideSeek_v1,2022.2.5,60.05039429083263,
,,,,,,,,,,,,,,,0,0,0,0,4,0,4,0,,,,,,,,,,,,,,,,,,,,,,,,,,,,,,,conditions/schedules/train_y_first/red_square_00/bottom_left/instructions/Slide5.png,conditions/schedules/train_y_first/red_square_00/bottom_left/instructions/Audio5.wav,2077.9338369,2077.92396016,5,"[4.445318799999768, 18.093813299999965, 17.034800699999778, 19.46042699999998, 4.891237999999703]","[4.4453311999996, 18.093823000000157, 0.031916800000090007, 0.00022110000008979114, 4.891246199999841]",0,,,,,,,,,,,,,,,,,,,,,,,,,,,,,,,,,,,,,,,,,,,,,,,,,,,,,,,,,,,,,,,,,,,,,,,,,,,,,,,,,,,,,,,,,,,,,,,,,,,,,,,,,,,,,,,,,,,,,,,,,,,,9Y53G3,train_y,red_square,bottom_left,2025-03-07_15h20.37.351,HideSeek_v1,2022.2.5,60.05039429083263,
,,,,,,,,,,,,,,,0,0,0,0,5,0,5,0,,,,,,,,,,,,,,,,,,,,,,,,,,,,,,,conditions/schedules/train_y_first/red_square_00/bottom_left/instructions/Slide6.png,conditions/schedules/train_y_first/red_square_00/bottom_left/instructions/Audio6.wav,2082.8771718,2082.8781033600003,6,"[4.445318799999768, 18.093813299999965, 17.034800699999778, 19.46042699999998, 4.891237999999703, 5.285092300000088]","[4.4453311999996, 18.093823000000157, 0.031916800000090007, 0.00022110000008979114, 0.03170399999999063, 5.28510150000011]",0,,,,,,,,,,,,,,,,,,,,,,,,,,,,,,,,,,,,,,,,,,,,,,,,,,,,,,,,,,,,,,,,,,,,,,,,,,,,,,,,,,,,,,,,,,,,,,,,,,,,,,,,,,,,,,,,,,,,,,,,,,,,9Y53G3,train_y,red_square,bottom_left,2025-03-07_15h20.37.351,HideSeek_v1,2022.2.5,60.05039429083263,
,,,,,,,,,,,,,,,0,0,0,0,6,0,6,0,,,,,,,,,,,,,,,,,,,,,,,,,,,,,,,conditions/schedules/train_y_first/red_square_00/bottom_left/instructions/Slide7.png,conditions/schedules/train_y_first/red_square_00/bottom_left/instructions/Audio7.wav,2088.214212,2088.2155019600004,7,"[4.445318799999768, 18.093813299999965, 17.034800699999778, 19.46042699999998, 4.891237999999703, 5.285092300000088, 6.037890000000061]","[4.4453311999996, 18.093823000000157, 0.031916800000090007, 0.00022110000008979114, 0.03170399999999063, 0.04860559999997349, 6.037898000000041]",0,,,,,,,,,,,,,,,,,,,,,,,,,,,,,,,,,,,,,,,,,,,,,,,,,,,,,,,,,,,,,,,,,,,,,,,,,,,,,,,,,,,,,,,,,,,,,,,,,,,,,,,,,,,,,,,,,,,,,,,,,,,,9Y53G3,train_y,red_square,bottom_left,2025-03-07_15h20.37.351,HideSeek_v1,2022.2.5,60.05039429083263,
,,,,,,,,,,,,,,,0,0,0,0,7,0,7,0,,,,,,,,,,,,,,,,,,,,,,,,,,,,,,,conditions/schedules/train_y_first/red_square_00/bottom_left/instructions/Slide8.png,conditions/schedules/train_y_first/red_square_00/bottom_left/instructions/Audio8.wav,2094.308312,2094.3057404600004,8,"[4.445318799999768, 18.093813299999965, 17.034800699999778, 19.46042699999998, 4.891237999999703, 5.285092300000088, 6.037890000000061, 12.404657900000075]","[4.4453311999996, 18.093823000000157, 0.031916800000090007, 0.00022110000008979114, 0.03170399999999063, 0.04860559999997349, 0.014877199999773438, 12.404666200000065]",0,,,,,,,,,,,,,,,,,,,,,,,,,,,,,,,,,,,,,,,,,,,,,,,,,,,,,,,,,,,,,,,,,,,,,,,,,,,,,,,,,,,,,,,,,,,,,,,,,,,,,,,,,,,,,,,,,,,,,,,,,,,,9Y53G3,train_y,red_square,bottom_left,2025-03-07_15h20.37.351,HideSeek_v1,2022.2.5,60.05039429083263,
,,,,,,,,,,,,,,,0,0,0,0,8,0,8,0,,,,,,,,,,,,,,,,,,,,,,,,,,,,,,,conditions/schedules/train_y_first/red_square_00/bottom_left/instructions/Slide9.png,conditions/schedules/train_y_first/red_square_00/bottom_left/instructions/Audio9.wav,2106.7763234,2106.76502186,9,"[4.445318799999768, 18.093813299999965, 17.034800699999778, 19.46042699999998, 4.891237999999703, 5.285092300000088, 6.037890000000061, 12.404657900000075, 6.274124099999881]","[4.4453311999996, 18.093823000000157, 0.031916800000090007, 0.00022110000008979114, 0.03170399999999063, 0.04860559999997349, 0.014877199999773438, 0.034856199999921955, 6.274132300000019]",0,,,,,,,,,,,,,,,,,,,,,,,,,,,,,,,,,,,,,,,,,,,,,,,,,,,,,,,,,,,,,,,,,,,,,,,,,,,,,,,,,,,,,,,,,,,,,,,,,,,,,,,,,,,,,,,,,,,,,,,,,,,,9Y53G3,train_y,red_square,bottom_left,2025-03-07_15h20.37.351,HideSeek_v1,2022.2.5,60.05039429083263,
,,,,,,,,,,,,,,,0,0,0,0,9,0,9,0,,,,,,,,,,,,,,,,,,,,,,,,,,,,,,,conditions/schedules/train_y_first/red_square_00/bottom_left/instructions/Slide10.png,conditions/schedules/train_y_first/red_square_00/bottom_left/instructions/Audio10.wav,2113.0897565,2113.08676637,10,"[4.445318799999768, 18.093813299999965, 17.034800699999778, 19.46042699999998, 4.891237999999703, 5.285092300000088, 6.037890000000061, 12.404657900000075, 6.274124099999881, 7.884121999999934]","[4.4453311999996, 18.093823000000157, 0.031916800000090007, 0.00022110000008979114, 0.03170399999999063, 0.04860559999997349, 0.014877199999773438, 0.034856199999921955, 0.06155869999975039, 7.884129099999882]",0,,,,,,,,,,,,,,,,,,,,,,,,,,,,,,,,,,,,,,,,,,,,,,,,,,,,,,,,,,,,,,,,,,,,,,,,,,,,,,,,,,,,,,,,,,,,,,,,,,,,,,,,,,,,,,,,,,,,,,,,,,,,9Y53G3,train_y,red_square,bottom_left,2025-03-07_15h20.37.351,HideSeek_v1,2022.2.5,60.05039429083263,
,,,,,,,,,,,,,,,0,0,0,0,10,0,10,0,,,,,,,,,,,,,,,,,,,,,,,,,,,,,,,conditions/schedules/train_y_first/red_square_00/bottom_left/instructions/Slide11.png,conditions/schedules/train_y_first/red_square_00/bottom_left/instructions/Audio11.wav,2121.0135509,2121.00971947,11,"[4.445318799999768, 18.093813299999965, 17.034800699999778, 19.46042699999998, 4.891237999999703, 5.285092300000088, 6.037890000000061, 12.404657900000075, 6.274124099999881, 7.884121999999934, 10.403771600000255]","[4.4453311999996, 18.093823000000157, 0.031916800000090007, 0.00022110000008979114, 0.03170399999999063, 0.04860559999997349, 0.014877199999773438, 0.034856199999921955, 0.06155869999975039, 0.0944259000002603, 10.403781900000013]",0,,,,,,,,,,,,,,,,,,,,,,,,,,,,,,,,,,,,,,,,,,,,,,,,,,,,,,,,,,,,,,,,,,,,,,,,,,,,,,,,,,,,,,,,,,,,,,,,,,,,,,,,,,,,,,,,,,,,,,,,,,,,9Y53G3,train_y,red_square,bottom_left,2025-03-07_15h20.37.351,HideSeek_v1,2022.2.5,60.05039429083263,
,,,,,,,,,,,,,,,0,0,0,0,11,0,11,0,,,,,,,,,,,,,,,,,,,,,,,,,,,,,,,conditions/schedules/train_y_first/red_square_00/bottom_left/instructions/Slide12.png,conditions/schedules/train_y_first/red_square_00/bottom_left/instructions/Audio12.wav,2131.4908132,2131.48572015,12,"[4.445318799999768, 18.093813299999965, 17.034800699999778, 19.46042699999998, 4.891237999999703, 5.285092300000088, 6.037890000000061, 12.404657900000075, 6.274124099999881, 7.884121999999934, 10.403771600000255, 14.102914400000373]","[4.4453311999996, 18.093823000000157, 0.031916800000090007, 0.00022110000008979114, 0.03170399999999063, 0.04860559999997349, 0.014877199999773438, 0.034856199999921955, 0.06155869999975039, 0.0944259000002603, 0.013863900000160356, 14.102922100000342]",0,,,,,,,,,,,,,,,,,,,,,,,,,,,,,,,,,,,,,,,,,,,,,,,,,,,,,,,,,,,,,,,,,,,,,,,,,,,,,,,,,,,,,,,,,,,,,,,,,,,,,,,,,,,,,,,,,,,,,,,,,,,,9Y53G3,train_y,red_square,bottom_left,2025-03-07_15h20.37.351,HideSeek_v1,2022.2.5,60.05039429083263,
1,2,3,2,8,0,5,11,2,instr_dim1_1,,,,,,0,0,0,0,,,,,0,0,0,0,,,,,,,,,,,,,,,,,,,,,,,,,,,,,,,,,,,,,stimuli/alien_stimuli/11.png,conditions/schedules/train_y_first/red_square_00/bottom_left/inputInstr_1.xlsx,stimuli/alien_stimuli/11.png,2145.6937559,2145.6937559,2145.6937559,2145.6937559,2145.6968086300003,return,8.194282200000544,"[-0.16, -0.08, 0, 0.08, 0.16, 0.24, 0.32, 0.4, 0.48, 0.56]","[-0.4, -0.32, -0.24, -0.16, -0.08, 0, 0.08, 0.16, 0.24, 0.32]",8,3,2,2,0.4,0.0,2154.0676822,2154.0676822,2154.0676822,2154.0676822,2154.0676822,2154.0676822,2154.0676822,2154.0533451100005,7.890612600000168,return,7.722569899999598,stimuli/alien_stimuli/11.png,11,2,1,,,,,,,,,,,,,,,,,,,,,,,,,,,,,,,,,,,,,,,,,,,,,,,,,,,,,,,,,,,,,,,,,,,,,,,,,,,,,,,,,,,,,,,,,9Y53G3,train_y,red_square,bottom_left,2025-03-07_15h20.37.351,HideSeek_v1,2022.2.5,60.05039429083263,
,,,,,,,,,,,30,,,,0,0,0,0,,,,,,,,,,,,,,,,,,,,,,,,,,,,,,,,,,,,,,,,,,,,,,,,,,,,,,,,,,,,,,,,,,,,,,,,,,,,,,21,0.7,0,0,99,1,30,0,conditions/schedules/train_y_first/red_square_00/bottom_left/inputTrain_1.1.xlsx,99,1,1,1,0,,,,,,,,,,,,,,,,,,,,,,,,,,,,,,,,,,,,,,,,,,,,,,,,,,,,,,,,,,,,,,,,,,,,,,,,,,,9Y53G3,train_y,red_square,bottom_left,2025-03-07_15h20.37.351,HideSeek_v1,2022.2.5,60.05039429083263,
,,,,,,,,,,,,,,,1,0,1,0,0,0,0,0,,,,,,,,,,,,,,,,,,,,,,,,,,,,,,,conditions/schedules/train_y_first/red_square_00/bottom_left/instructions/Slide13.png,conditions/schedules/train_y_first/red_square_00/bottom_left/instructions/Audio13.wav,2161.955207,2161.9427166100004,13,"[4.445318799999768, 18.093813299999965, 17.034800699999778, 19.46042699999998, 4.891237999999703, 5.285092300000088, 6.037890000000061, 12.404657900000075, 6.274124099999881, 7.884121999999934, 10.403771600000255, 14.102914400000373, 19.8526281999998]","[4.4453311999996, 18.093823000000157, 0.031916800000090007, 0.00022110000008979114, 0.03170399999999063, 0.04860559999997349, 0.014877199999773438, 0.034856199999921955, 0.06155869999975039, 0.0944259000002603, 0.013863900000160356, 14.102922100000342, 19.85263999999961]",0,,,,,,,,,,,,,,,,,,,,,,,,,,,,,,,,,,,,,,,,,,,,,,,,,,,,,,,,,,,,,,,,,,,,,,,,,,,,,,,,,,,,,,,,,,,,,,,,,,,,,,,,,,,,,,,,,,,,,,,,,,,,9Y53G3,train_y,red_square,bottom_left,2025-03-07_15h20.37.351,HideSeek_v1,2022.2.5,60.05039429083263,
,,,,,,,,,,,,,,,1,0,1,0,1,0,1,0,,,,,,,,,,,,,,,,,,,,,,,,,,,,,,,conditions/schedules/train_y_first/red_square_00/bottom_left/instructions/Slide14.png,conditions/schedules/train_y_first/red_square_00/bottom_left/instructions/Audio14.wav,2181.8816672,2181.87785355,14,"[4.445318799999768, 18.093813299999965, 17.034800699999778, 19.46042699999998, 4.891237999999703, 5.285092300000088, 6.037890000000061, 12.404657900000075, 6.274124099999881, 7.884121999999934, 10.403771600000255, 14.102914400000373, 19.8526281999998, 17.058860900000127]","[4.4453311999996, 18.093823000000157, 0.031916800000090007, 0.00022110000008979114, 0.03170399999999063, 0.04860559999997349, 0.014877199999773438, 0.034856199999921955, 0.06155869999975039, 0.0944259000002603, 0.013863900000160356, 14.102922100000342, 0.060295700000096986, 17.05886939999982]",0,,,,,,,,,,,,,,,,,,,,,,,,,,,,,,,,,,,,,,,,,,,,,,,,,,,,,,,,,,,,,,,,,,,,,,,,,,,,,,,,,,,,,,,,,,,,,,,,,,,,,,,,,,,,,,,,,,,,,,,,,,,,9Y53G3,train_y,red_square,bottom_left,2025-03-07_15h20.37.351,HideSeek_v1,2022.2.5,60.05039429083263,
2,0,3,0,3,0,0,16,2,instr_dim1_1,,,,,,1,0,1,0,,,,,0,0,0,0,,,,,,,,,,,,,,,,,,,,,,,,,,,,,,,,,,,,,stimuli/alien_stimuli/16.png,conditions/schedules/train_y_first/red_square_00/bottom_left/inputInstr_1.xlsx,stimuli/alien_stimuli/16.png,2199.0352906,2199.0352906,2199.0352906,2199.0352906,2199.0255011400004,return,7.663280300000224,"[-0.16, -0.08, 0, 0.08, 0.16, 0.24, 0.32, 0.4, 0.48, 0.56]","[-0.4, -0.32, -0.24, -0.16, -0.08, 0, 0.08, 0.16, 0.24, 0.32]",3,3,0,0,0.0,0.0,2206.870722,2206.870722,2206.870722,2206.870722,2206.870722,2206.870722,2206.870722,2206.8641903100006,6.2225978000001305,return,6.062276199999815,stimuli/alien_stimuli/16.png,16,0,2,,,,,,,,,,,,,,,,,,,,,,,,,,,,,,,,,,,,,,,,,,,,,,,,,,,,,,,,,,,,,,,,,,,,,,,,,,,,,,,,,,,,,,,,,9Y53G3,train_y,red_square,bottom_left,2025-03-07_15h20.37.351,HideSeek_v1,2022.2.5,60.05039429083263,
,,,,,,,,,,,30,,,,1,0,1,0,,,,,,,,,,,,,,,,,,,,,,,,,,,,,,,,,,,,,,,,,,,,,,,,,,,,,,,,,,,,,,,,,,,,,,,,,,,,,,21,0.7,0,0,99,1,30,0,conditions/schedules/train_y_first/red_square_00/bottom_left/inputTrain_1.1.xlsx,99,1,1,1,0,,,,,,,,,,,,,,,,,,,,,,,,,,,,,,,,,,,,,,,,,,,,,,,,,,,,,,,,,,,,,,,,,,,,,,,,,,,9Y53G3,train_y,red_square,bottom_left,2025-03-07_15h20.37.351,HideSeek_v1,2022.2.5,60.05039429083263,
,,,,,,,,,,,,,,,2,0,2,0,0,0,0,0,,,,,,,,,,,,,,,,,,,,,,,,,,,,,,,conditions/schedules/train_y_first/red_square_00/bottom_left/instructions/Slide15.png,conditions/schedules/train_y_first/red_square_00/bottom_left/instructions/Audio15.wav,2213.1156388,2213.1186508900005,15,"[4.445318799999768, 18.093813299999965, 17.034800699999778, 19.46042699999998, 4.891237999999703, 5.285092300000088, 6.037890000000061, 12.404657900000075, 6.274124099999881, 7.884121999999934, 10.403771600000255, 14.102914400000373, 19.8526281999998, 17.058860900000127, 43.06850459999987]","[4.4453311999996, 18.093823000000157, 0.031916800000090007, 0.00022110000008979114, 0.03170399999999063, 0.04860559999997349, 0.014877199999773438, 0.034856199999921955, 0.06155869999975039, 0.0944259000002603, 0.013863900000160356, 14.102922100000342, 0.060295700000096986, 17.05886939999982, 43.06851430000006]",0,,,,,,,,,,,,,,,,,,,,,,,,,,,,,,,,,,,,,,,,,,,,,,,,,,,,,,,,,,,,,,,,,,,,,,,,,,,,,,,,,,,,,,,,,,,,,,,,,,,,,,,,,,,,,,,,,,,,,,,,,,,,9Y53G3,train_y,red_square,bottom_left,2025-03-07_15h20.37.351,HideSeek_v1,2022.2.5,60.05039429083263,
,,,,,,,,,,,,,,,2,0,2,0,1,0,1,0,,,,,,,,,,,,,,,,,,,,,,,,,,,,,,,conditions/schedules/train_y_first/red_square_00/bottom_left/instructions/Slide16.png,conditions/schedules/train_y_first/red_square_00/bottom_left/instructions/Audio16.wav,2256.260511,2256.2547188500002,16,"[4.445318799999768, 18.093813299999965, 17.034800699999778, 19.46042699999998, 4.891237999999703, 5.285092300000088, 6.037890000000061, 12.404657900000075, 6.274124099999881, 7.884121999999934, 10.403771600000255, 14.102914400000373, 19.8526281999998, 17.058860900000127, 43.06850459999987, 21.559599499999877]","[4.4453311999996, 18.093823000000157, 0.031916800000090007, 0.00022110000008979114, 0.03170399999999063, 0.04860559999997349, 0.014877199999773438, 0.034856199999921955, 0.06155869999975039, 0.0944259000002603, 0.013863900000160356, 14.102922100000342, 0.060295700000096986, 17.05886939999982, 0.038298800000120536, 21.559606799999983]",0,,,,,,,,,,,,,,,,,,,,,,,,,,,,,,,,,,,,,,,,,,,,,,,,,,,,,,,,,,,,,,,,,,,,,,,,,,,,,,,,,,,,,,,,,,,,,,,,,,,,,,,,,,,,,,,,,,,,,,,,,,,,9Y53G3,train_y,red_square,bottom_left,2025-03-07_15h20.37.351,HideSeek_v1,2022.2.5,60.05039429083263,
,0,0,0,1,0,1,15,,train_dim1_1,1,30,,,,2,0,2,0,,,,,,,,,0,0,0,0,0,0,0,0,0,0,0,0,,,,,,,,,,,,,,,,,,,,,,,,,stimuli/alien_stimuli/15.png,,,,,,,,,,,,,,,,,,,,,,,,,,,,,,,,,,,,,,,30,,,,,,,,2277.9201871,2277.9201871,2277.9201871,2277.9201871,2277.9201871,right,5.828867500000342,0,0,0,99,-0.08,-0.4,right,5.739618499999779,,,,,,,,,,,,,,,,,,,,,,,,,,,,,,,,,,,,,,,,,,,,,,,,,,,,,,,,,,,,9Y53G3,train_y,red_square,bottom_left,2025-03-07_15h20.37.351,HideSeek_v1,2022.2.5,60.05039429083263,
,0,0,0,1,0,1,15,,train_dim1_1,1,30,,,,2,0,2,0,,,,,,,,,0,0,0,0,0,0,0,0,1,0,1,0,,,,,,,,,,,,,,,,,,,,,,,,,,,,,,,,,,,,,,,,,,,,,,,,,,,,,,,,,,,,,,,,30,,,,,,,,2283.7482107,2283.7482107,2283.7482107,2283.7482107,2283.7482107,right,0.7941071000000193,0,0,0,99,0.0,-0.4,right,0.6999558999996225,,,,,,,,,,,,,,,,,,,,,,,,,,,,,,,,,,,,,,,,,,,,,,,,,,,,,,,,,,,,9Y53G3,train_y,red_square,bottom_left,2025-03-07_15h20.37.351,HideSeek_v1,2022.2.5,60.05039429083263,
,0,0,0,1,0,1,15,,train_dim1_1,1,30,,,,2,0,2,0,,,,,,,,,0,0,0,0,0,0,0,0,2,0,2,0,,,,,,,,,,,,,,,,,,,,,,,,,,,,,,,,,,,,,,,,,,,,,,,,,,,,,,,,,,,,,,,,30,,,,,,,,2284.5497379,2284.5497379,2284.5497379,2284.5497379,2284.5497379,up,2.810711900000115,0,0,0,99,0.0,-0.32,up,2.7265260000003764,,,,,,,,,,,,,,,,,,,,,,,,,,,,,,,,,,,,,,,,,,,,,,,,,,,,,,,,,,,,9Y53G3,train_y,red_square,bottom_left,2025-03-07_15h20.37.351,HideSeek_v1,2022.2.5,60.05039429083263,
,0,0,0,1,0,1,15,,train_dim1_1,1,30,,,,2,0,2,0,,,,,,,,,0,0,0,0,0,0,0,0,3,0,3,0,,,,,,,,,,,,,,,,,,,,,,,,,,,,,,,,,,,,,,,,,,,,,,,,,,,,,,,,,,,,,,,,30,,,,,,,,2287.3675512,2287.3675512,2287.3675512,2287.3675512,2287.3675512,up,0.5092130000002726,0,0,0,99,0.0,-0.24,up,0.4290923999997176,,,,,,,,,,,,,,,,,,,,,,,,,,,,,,,,,,,,,,,,,,,,,,,,,,,,,,,,,,,,9Y53G3,train_y,red_square,bottom_left,2025-03-07_15h20.37.351,HideSeek_v1,2022.2.5,60.05039429083263,
,0,0,0,1,0,1,15,,train_dim1_1,1,30,,,,2,0,2,0,,,,,,,,,0,0,0,0,0,0,0,0,4,0,4,0,,,,,,,,,,,,,,,,,,,,,,,,,,,,,,,,,,,,,,,,,,,,,,,,,,,,,,,,,,,,,,,,30,,,,,,,,2287.8861569,2287.8861569,2287.8861569,2287.8861569,2287.8861569,up,0.6266702000002624,0,0,0,99,0.0,-0.15999999999999998,up,0.5367095000001427,,,,,,,,,,,,,,,,,,,,,,,,,,,,,,,,,,,,,,,,,,,,,,,,,,,,,,,,,,,,9Y53G3,train_y,red_square,bottom_left,2025-03-07_15h20.37.351,HideSeek_v1,2022.2.5,60.05039429083263,
,0,0,0,1,0,1,15,,train_dim1_1,1,30,,,,2,0,2,0,,,,,,,,,0,0,0,0,0,0,0,0,5,0,5,0,,,,,,,,,,,,,,,,,,,,,,,,,,,,,,,,,,,,,,,,,,,,,,,,,,,,,,,,,,,,,,,,30,,,,,,,,2288.5215634,2288.5215634,2288.5215634,2288.5215634,2288.5215634,up,0.37607889999981126,0,0,0,99,0.0,-0.07999999999999997,up,0.2809473999996044,,,,,,,,,,,,,,,,,,,,,,,,,,,,,,,,,,,,,,,,,,,,,,,,,,,,,,,,,,,,9Y53G3,train_y,red_square,bottom_left,2025-03-07_15h20.37.351,HideSeek_v1,2022.2.5,60.05039429083263,
,0,0,0,1,0,1,15,,train_dim1_1,1,30,,,,2,0,2,0,,,,,,,,,0,0,0,0,0,0,0,0,6,0,6,0,,,,,,,,,,,,,,,,,,,,,,,,,,,,,,,,,,,,,,,,,,,,,,,,,,,,,,,,,,,,,,,,30,,,,,,,,2288.9042811,2288.9042811,2288.9042811,2288.9042811,2288.9042811,up,0.40953029999991486,0,0,0,99,0.0,2.7755575615628914e-17,up,0.31322680000039327,,,,,,,,,,,,,,,,,,,,,,,,,,,,,,,,,,,,,,,,,,,,,,,,,,,,,,,,,,,,9Y53G3,train_y,red_square,bottom_left,2025-03-07_15h20.37.351,HideSeek_v1,2022.2.5,60.05039429083263,
,0,0,0,1,0,1,15,,train_dim1_1,1,30,,,,2,0,2,0,,,,,,,,,0,0,0,0,0,0,0,0,7,0,7,0,,,,,,,,,,,,,,,,,,,,,,,,,,,,,,,,,,,,,,,,,,,,,,,,,,,,,,,,,,,,,,,,30,,,,,,,,2289.3189199,2289.3189199,2289.3189199,2289.3189199,2289.3189199,up,0.4267965999997614,0,0,0,99,0.0,0.08000000000000003,up,0.3354491999994025,,,,,,,,,,,,,,,,,,,,,,,,,,,,,,,,,,,,,,,,,,,,,,,,,,,,,,,,,,,,9Y53G3,train_y,red_square,bottom_left,2025-03-07_15h20.37.351,HideSeek_v1,2022.2.5,60.05039429083263,
,0,0,0,1,0,1,15,,train_dim1_1,1,30,,,,2,0,2,0,,,,,,,,,0,0,0,0,0,0,0,0,8,0,8,0,,,,,,,,,,,,,,,,,,,,,,,,,,,,,,,,,,,,,,,,,,,,,,,,,,,,,,,,,,,,,,,,30,,,,,,,,2289.7534345,2289.7534345,2289.7534345,2289.7534345,2289.7534345,up,0.20867980000002717,0,0,0,99,0.0,0.16000000000000003,up,0.12326219999977184,,,,,,,,,,,,,,,,,,,,,,,,,,,,,,,,,,,,,,,,,,,,,,,,,,,,,,,,,,,,9Y53G3,train_y,red_square,bottom_left,2025-03-07_15h20.37.351,HideSeek_v1,2022.2.5,60.05039429083263,
,0,0,0,1,0,1,15,,train_dim1_1,1,30,,,,2,0,2,0,,,,,,,,,0,0,0,0,0,0,0,0,9,0,9,0,,,,,,,,,,,,,,,,,,,,,,,,,,,,,,,,,,,,,,,,,,,,,,,,,,,,,,,,,,,,,,,,30,,,,,,,,2289.970856,2289.970856,2289.970856,2289.970856,2289.970856,return,1.3940825000004224,0,0,0,0,0.0,0.16000000000000003,return,1.297801199999867,7,2,0.0,0.16000000000000003,,,,,,,,,,,,,,,,,,,,,,,,,,,,,,,,,,,,,,,,,,,,,,,,,,,,,,,,9Y53G3,train_y,red_square,bottom_left,2025-03-07_15h20.37.351,HideSeek_v1,2022.2.5,60.05039429083263,
,3,2,3,2,0,0,16,,train_dim1_1,2,30,,,,2,0,2,0,,,,,,,,,0,0,0,0,0,1,1,1,0,0,0,0,,,,,,,,,,,,,,,,,,,,,,,,,stimuli/alien_stimuli/16.png,,,,,,,,,,,,,,,,,,,,,,,,,,,,,stimuli/alien_stimuli/15.png,15,0,3,,,,,,,30,,,,,,,,2323.2455764,2323.2455764,2323.2455764,2323.2455764,2323.2455764,down,20.90646919999972,0,0,0,99,0.08,-0.32,down,20.80015439999943,,,,,2321.6757978,2323.2455764,-0.16,-0.32,0.08,0.0,-0.36,-0.16,-0.16,-0.16,-0.32,2292.9491085,2292.9491085,2292.9491085,2292.9491085,2292.9491085,2292.9491085,2292.9491085,2292.9491085,2292.93502892,28.860145300000113,return,28.703891999999996,,,,,,,,,,,,,,,,,,,,,,,,,,,,,,,,,9Y53G3,train_y,red_square,bottom_left,2025-03-07_15h20.37.351,HideSeek_v1,2022.2.5,60.05039429083263,
,3,2,3,2,0,0,16,,train_dim1_1,2,30,,,,2,0,2,0,,,,,,,,,0,0,0,0,0,1,1,1,1,0,1,0,,,,,,,,,,,,,,,,,,,,,,,,,,,,,,,,,,,,,,,,,,,,,,,,,,,,,,,,,,,,,,,,30,,,,,,,,2344.1572257000003,2344.1572257000003,2344.1572257000003,2344.1572257000003,2344.1572257000003,down,0.4090205999996215,0,0,0,99,0.08,-0.4,down,0.31791219999968234,,,,,,,,,,,,,,,,,,,,,,,,,,,,,,,,,,,,,,,,,,,,,,,,,,,,,,,,,,,,9Y53G3,train_y,red_square,bottom_left,2025-03-07_15h20.37.351,HideSeek_v1,2022.2.5,60.05039429083263,
,3,2,3,2,0,0,16,,train_dim1_1,2,30,,,,2,0,2,0,,,,,,,,,0,0,0,0,0,1,1,1,2,0,2,0,,,,,,,,,,,,,,,,,,,,,,,,,,,,,,,,,,,,,,,,,,,,,,,,,,,,,,,,,,,,,,,,30,,,,,,,,2344.5681326,2344.5681326,2344.5681326,2344.5681326,2344.5681326,return,0.7930522999999994,0,0,0,0,0.08,-0.4,return,0.7054111999996167,5,2,0.08,-0.4,,,,,,,,,,,,,,,,,,,,,,,,,,,,,,,,,,,,,,,,,,,,,,,,,,,,,,,,9Y53G3,train_y,red_square,bottom_left,2025-03-07_15h20.37.351,HideSeek_v1,2022.2.5,60.05039429083263,
,2,3,2,6,0,3,13,,train_dim1_1,3,30,,,,2,0,2,0,,,,,,,,,0,0,0,0,0,2,2,2,0,0,0,0,,,,,,,,,,,,,,,,,,,,,,,,,stimuli/alien_stimuli/13.png,,,,,,,,,,,,,,,,,,,,,,,,,,,,,stimuli/alien_stimuli/16.png,16,3,4,,,,,,,30,,,,,,,,2360.4928492,2360.4928492,2360.4928492,2360.4928492,2360.4928492,right,4.175030299999889,0,0,0,99,0.08,-0.16,right,4.077224600000591,,,,,2358.9219114,2360.4928492,0.08,-0.24,0.0,0.0,-0.24,0.08,0.08,0.08,-0.24,2346.9316972,2346.9316972,2346.9316972,2346.9316972,2346.9316972,2346.9316972,2346.9316972,2346.9316972,2346.9299267200004,12.112216099999841,return,11.959792000000107,,,,,,,,,,,,,,,,,,,,,,,,,,,,,,,,,9Y53G3,train_y,red_square,bottom_left,2025-03-07_15h20.37.351,HideSeek_v1,2022.2.5,60.05039429083263,
,2,3,2,6,0,3,13,,train_dim1_1,3,30,,,,2,0,2,0,,,,,,,,,0,0,0,0,0,2,2,2,1,0,1,0,,,,,,,,,,,,,,,,,,,,,,,,,,,,,,,,,,,,,,,,,,,,,,,,,,,,,,,,,,,,,,,,30,,,,,,,,2364.6656774,2364.6656774,2364.6656774,2364.6656774,2364.6656774,right,0.7259521000000859,0,0,0,99,0.16,-0.16,right,0.633615600000212,,,,,,,,,,,,,,,,,,,,,,,,,,,,,,,,,,,,,,,,,,,,,,,,,,,,,,,,,,,,9Y53G3,train_y,red_square,bottom_left,2025-03-07_15h20.37.351,HideSeek_v1,2022.2.5,60.05039429083263,
,2,3,2,6,0,3,13,,train_dim1_1,3,30,,,,2,0,2,0,,,,,,,,,0,0,0,0,0,2,2,2,2,0,2,0,,,,,,,,,,,,,,,,,,,,,,,,,,,,,,,,,,,,,,,,,,,,,,,,,,,,,,,,,,,,,,,,30,,,,,,,,2365.4009949,2365.4009949,2365.4009949,2365.4009949,2365.4009949,right,0.5925388000000567,0,0,0,99,0.24,-0.16,right,0.49844039999970846,,,,,,,,,,,,,,,,,,,,,,,,,,,,,,,,,,,,,,,,,,,,,,,,,,,,,,,,,,,,9Y53G3,train_y,red_square,bottom_left,2025-03-07_15h20.37.351,HideSeek_v1,2022.2.5,60.05039429083263,
,2,3,2,6,0,3,13,,train_dim1_1,3,30,,,,2,0,2,0,,,,,,,,,0,0,0,0,0,2,2,2,3,0,3,0,,,,,,,,,,,,,,,,,,,,,,,,,,,,,,,,,,,,,,,,,,,,,,,,,,,,,,,,,,,,,,,,30,,,,,,,,2365.999273,2365.999273,2365.999273,2365.999273,2365.999273,up,1.6269437000000835,0,0,0,99,0.24,-0.08,up,1.53946440000027,,,,,,,,,,,,,,,,,,,,,,,,,,,,,,,,,,,,,,,,,,,,,,,,,,,,,,,,,,,,9Y53G3,train_y,red_square,bottom_left,2025-03-07_15h20.37.351,HideSeek_v1,2022.2.5,60.05039429083263,
,2,3,2,6,0,3,13,,train_dim1_1,3,30,,,,2,0,2,0,,,,,,,,,0,0,0,0,0,2,2,2,4,0,4,0,,,,,,,,,,,,,,,,,,,,,,,,,,,,,,,,,,,,,,,,,,,,,,,,,,,,,,,,,,,,,,,,30,,,,,,,,2367.6308777,2367.6308777,2367.6308777,2367.6308777,2367.6308777,up,0.7267118999998274,0,0,0,99,0.24,0.0,up,0.6445655000002262,,,,,,,,,,,,,,,,,,,,,,,,,,,,,,,,,,,,,,,,,,,,,,,,,,,,,,,,,,,,9Y53G3,train_y,red_square,bottom_left,2025-03-07_15h20.37.351,HideSeek_v1,2022.2.5,60.05039429083263,
,2,3,2,6,0,3,13,,train_dim1_1,3,30,,,,2,0,2,0,,,,,,,,,0,0,0,0,0,2,2,2,5,0,5,0,,,,,,,,,,,,,,,,,,,,,,,,,,,,,,,,,,,,,,,,,,,,,,,,,,,,,,,,,,,,,,,,30,,,,,,,,2368.3680271,2368.3680271,2368.3680271,2368.3680271,2368.3680271,return,0.9438200999998116,0,0,0,0,0.24,0.0,return,0.857477900000049,7,5,0.24,0.0,,,,,,,,,,,,,,,,,,,,,,,,,,,,,,,,,,,,,,,,,,,,,,,,,,,,,,,,9Y53G3,train_y,red_square,bottom_left,2025-03-07_15h20.37.351,HideSeek_v1,2022.2.5,60.05039429083263,
,0,1,0,5,0,4,12,,train_dim1_1,4,30,,,,2,0,2,0,,,,,,,,,0,0,0,0,0,3,3,3,0,0,0,0,,,,,,,,,,,,,,,,,,,,,,,,,stimuli/alien_stimuli/12.png,,,,,,,,,,,,,,,,,,,,,,,,,,,,,stimuli/alien_stimuli/13.png,13,2,5,,,,,,,30,,,,,,,,2379.9495241,2379.9495241,2379.9495241,2379.9495241,2379.9495241,down,6.092922299999827,0,0,0,99,-0.16,-0.4,down,6.0019813999997496,,,,,2378.3883615,2379.9495241,0,0.08,0.24,0.0,-0.04,0,0.0,0,0.08,2370.8823018,2370.8823018,2370.8823018,2370.8823018,2370.8823018,2370.8823018,2370.8823018,2370.8823018,2370.8832507200004,7.624634599999808,return,7.482217500000388,,,,,,,,,,,,,,,,,,,,,,,,,,,,,,,,,9Y53G3,train_y,red_square,bottom_left,2025-03-07_15h20.37.351,HideSeek_v1,2022.2.5,60.05039429083263,
,0,1,0,5,0,4,12,,train_dim1_1,4,30,,,,2,0,2,0,,,,,,,,,0,0,0,0,0,3,3,3,1,0,1,0,,,,,,,,,,,,,,,,,,,,,,,,,,,,,,,,,,,,,,,,,,,,,,,,,,,,,,,,,,,,,,,,30,,,,,,,,2386.0512721,2386.0512721,2386.0512721,2386.0512721,2386.0512721,right,1.4925130999999965,0,0,0,99,-0.08,-0.4,right,1.41112720000001,,,,,,,,,,,,,,,,,,,,,,,,,,,,,,,,,,,,,,,,,,,,,,,,,,,,,,,,,,,,9Y53G3,train_y,red_square,bottom_left,2025-03-07_15h20.37.351,HideSeek_v1,2022.2.5,60.05039429083263,
,0,1,0,5,0,4,12,,train_dim1_1,4,30,,,,2,0,2,0,,,,,,,,,0,0,0,0,0,3,3,3,2,0,2,0,,,,,,,,,,,,,,,,,,,,,,,,,,,,,,,,,,,,,,,,,,,,,,,,,,,,,,,,,,,,,,,,30,,,,,,,,2387.5491681,2387.5491681,2387.5491681,2387.5491681,2387.5491681,return,0.7605796000002556,0,0,0,0,-0.08,-0.4,return,0.6742585999995754,6,6,-0.08,-0.4,,,,,,,,,,,,,,,,,,,,,,,,,,,,,,,,,,,,,,,,,,,,,,,,,,,,,,,,9Y53G3,train_y,red_square,bottom_left,2025-03-07_15h20.37.351,HideSeek_v1,2022.2.5,60.05039429083263,
,3,3,3,8,0,5,11,,train_dim1_1,5,30,,,,2,0,2,0,,,,,,,,,0,0,0,0,0,4,4,4,0,0,0,0,,,,,,,,,,,,,,,,,,,,,,,,,stimuli/alien_stimuli/11.png,,,,,,,,,,,,,,,,,,,,,,,,,,,,,stimuli/alien_stimuli/12.png,12,0,6,,,,,,,30,,,,,,,,2395.2781093,2395.2781093,2395.2781093,2395.2781093,2395.2781093,down,10.630703600000288,0,0,0,99,0.08,-0.24,down,10.546159799999714,,,,,2393.7192972000003,2395.2781093,-0.16,0,0.32,0.0,-0.16,-0.16,-0.16,-0.16,0,2389.8818498,2389.8818498,2389.8818498,2389.8818498,2389.8818498,2389.8818498,2389.8818498,2389.8818498,2389.88136312,3.957582000000002,return,3.8083466000002772,,,,,,,,,,,,,,,,,,,,,,,,,,,,,,,,,9Y53G3,train_y,red_square,bottom_left,2025-03-07_15h20.37.351,HideSeek_v1,2022.2.5,60.05039429083263,
,3,3,3,8,0,5,11,,train_dim1_1,5,30,,,,2,0,2,0,,,,,,,,,0,0,0,0,0,4,4,4,1,0,1,0,,,,,,,,,,,,,,,,,,,,,,,,,,,,,,,,,,,,,,,,,,,,,,,,,,,,,,,,,,,,,,,,30,,,,,,,,2405.9239305,2405.9239305,2405.9239305,2405.9239305,2405.9239305,down,4.044896600000357,0,0,0,99,0.08,-0.32,down,3.9560431999993853,,,,,,,,,,,,,,,,,,,,,,,,,,,,,,,,,,,,,,,,,,,,,,,,,,,,,,,,,,,,9Y53G3,train_y,red_square,bottom_left,2025-03-07_15h20.37.351,HideSeek_v1,2022.2.5,60.05039429083263,
,3,3,3,8,0,5,11,,train_dim1_1,5,30,,,,2,0,2,0,,,,,,,,,0,0,0,0,0,4,4,4,2,0,2,0,,,,,,,,,,,,,,,,,,,,,,,,,,,,,,,,,,,,,,,,,,,,,,,,,,,,,,,,,,,,,,,,30,,,,,,,,2409.9710779,2409.9710779,2409.9710779,2409.9710779,2409.9710779,return,0.6599298999999519,0,0,0,0,0.08,-0.32,return,0.5650801999995565,4,6,0.08,-0.32,,,,,,,,,,,,,,,,,,,,,,,,,,,,,,,,,,,,,,,,,,,,,,,,,,,,,,,,9Y53G3,train_y,red_square,bottom_left,2025-03-07_15h20.37.351,HideSeek_v1,2022.2.5,60.05039429083263,
,1,4,1,8,0,4,12,,train_dim1_1,6,30,,,,2,0,2,0,,,,,,,,,0,0,0,0,0,5,5,5,0,0,0,0,,,,,,,,,,,,,,,,,,,,,,,,,stimuli/alien_stimuli/12.png,,,,,,,,,,,,,,,,,,,,,,,,,,,,,stimuli/alien_stimuli/11.png,11,3,7,,,,,,,30,,,,,,,,2421.3003282,2421.3003282,2421.3003282,2421.3003282,2421.3003282,right,4.875027399999908,0,0,0,99,0.0,-0.08,right,4.785520299999462,,,,,2419.7404206,2421.3003282,0.08,0.24,0.4,0.0,0.039999999999999994,0.08,0.08,0.08,0.24,2412.2029898,2412.2029898,2412.2029898,2412.2029898,2412.2029898,2412.2029898,2412.2029898,2412.2029898,2412.20094542,7.659705400000348,return,7.520814500000142,,,,,,,,,,,,,,,,,,,,,,,,,,,,,,,,,9Y53G3,train_y,red_square,bottom_left,2025-03-07_15h20.37.351,HideSeek_v1,2022.2.5,60.05039429083263,
,1,4,1,8,0,4,12,,train_dim1_1,6,30,,,,2,0,2,0,,,,,,,,,0,0,0,0,0,5,5,5,1,0,1,0,,,,,,,,,,,,,,,,,,,,,,,,,,,,,,,,,,,,,,,,,,,,,,,,,,,,,,,,,,,,,,,,30,,,,,,,,2426.1832279,2426.1832279,2426.1832279,2426.1832279,2426.1832279,right,0.40957750000006854,0,0,0,99,0.08,-0.08,right,0.3198802000001706,,,,,,,,,,,,,,,,,,,,,,,,,,,,,,,,,,,,,,,,,,,,,,,,,,,,,,,,,,,,9Y53G3,train_y,red_square,bottom_left,2025-03-07_15h20.37.351,HideSeek_v1,2022.2.5,60.05039429083263,
,1,4,1,8,0,4,12,,train_dim1_1,6,30,,,,2,0,2,0,,,,,,,,,0,0,0,0,0,5,5,5,2,0,2,0,,,,,,,,,,,,,,,,,,,,,,,,,,,,,,,,,,,,,,,,,,,,,,,,,,,,,,,,,,,,,,,,30,,,,,,,,2426.6030868000003,2426.6030868000003,2426.6030868000003,2426.6030868000003,2426.6030868000003,right,0.5598971999997957,0,0,0,99,0.16,-0.08,right,0.4764994000001934,,,,,,,,,,,,,,,,,,,,,,,,,,,,,,,,,,,,,,,,,,,,,,,,,,,,,,,,,,,,9Y53G3,train_y,red_square,bottom_left,2025-03-07_15h20.37.351,HideSeek_v1,2022.2.5,60.05039429083263,
,1,4,1,8,0,4,12,,train_dim1_1,6,30,,,,2,0,2,0,,,,,,,,,0,0,0,0,0,5,5,5,3,0,3,0,,,,,,,,,,,,,,,,,,,,,,,,,,,,,,,,,,,,,,,,,,,,,,,,,,,,,,,,,,,,,,,,30,,,,,,,,2427.1662078,2427.1662078,2427.1662078,2427.1662078,2427.1662078,right,0.3095382999999856,0,0,0,99,0.24,-0.08,right,0.2181420000001708,,,,,,,,,,,,,,,,,,,,,,,,,,,,,,,,,,,,,,,,,,,,,,,,,,,,,,,,,,,,9Y53G3,train_y,red_square,bottom_left,2025-03-07_15h20.37.351,HideSeek_v1,2022.2.5,60.05039429083263,
,1,4,1,8,0,4,12,,train_dim1_1,6,30,,,,2,0,2,0,,,,,,,,,0,0,0,0,0,5,5,5,4,0,4,0,,,,,,,,,,,,,,,,,,,,,,,,,,,,,,,,,,,,,,,,,,,,,,,,,,,,,,,,,,,,,,,,30,,,,,,,,2427.4858261,2427.4858261,2427.4858261,2427.4858261,2427.4858261,right,0.3430506999998215,0,0,0,99,0.32,-0.08,right,0.2517588999999134,,,,,,,,,,,,,,,,,,,,,,,,,,,,,,,,,,,,,,,,,,,,,,,,,,,,,,,,,,,,9Y53G3,train_y,red_square,bottom_left,2025-03-07_15h20.37.351,HideSeek_v1,2022.2.5,60.05039429083263,
,1,4,1,8,0,4,12,,train_dim1_1,6,30,,,,2,0,2,0,,,,,,,,,0,0,0,0,0,5,5,5,5,0,5,0,,,,,,,,,,,,,,,,,,,,,,,,,,,,,,,,,,,,,,,,,,,,,,,,,,,,,,,,,,,,,,,,30,,,,,,,,2427.8334162,2427.8334162,2427.8334162,2427.8334162,2427.8334162,right,0.593271299999742,0,0,0,99,0.4,-0.08,right,0.502607700000226,,,,,,,,,,,,,,,,,,,,,,,,,,,,,,,,,,,,,,,,,,,,,,,,,,,,,,,,,,,,9Y53G3,train_y,red_square,bottom_left,2025-03-07_15h20.37.351,HideSeek_v1,2022.2.5,60.05039429083263,
,1,4,1,8,0,4,12,,train_dim1_1,6,30,,,,2,0,2,0,,,,,,,,,0,0,0,0,0,5,5,5,6,0,6,0,,,,,,,,,,,,,,,,,,,,,,,,,,,,,,,,,,,,,,,,,,,,,,,,,,,,,,,,,,,,,,,,30,,,,,,,,2428.4353752,2428.4353752,2428.4353752,2428.4353752,2428.4353752,up,1.2938742000001184,0,0,0,99,0.4,0.0,up,1.208990900000117,,,,,,,,,,,,,,,,,,,,,,,,,,,,,,,,,,,,,,,,,,,,,,,,,,,,,,,,,,,,9Y53G3,train_y,red_square,bottom_left,2025-03-07_15h20.37.351,HideSeek_v1,2022.2.5,60.05039429083263,
,1,4,1,8,0,4,12,,train_dim1_1,6,30,,,,2,0,2,0,,,,,,,,,0,0,0,0,0,5,5,5,7,0,7,0,,,,,,,,,,,,,,,,,,,,,,,,,,,,,,,,,,,,,,,,,,,,,,,,,,,,,,,,,,,,,,,,30,,,,,,,,2429.7344223,2429.7344223,2429.7344223,2429.7344223,2429.7344223,up,0.40964420000000246,0,0,0,99,0.4,0.08,up,0.3304262999999992,,,,,,,,,,,,,,,,,,,,,,,,,,,,,,,,,,,,,,,,,,,,,,,,,,,,,,,,,,,,9Y53G3,train_y,red_square,bottom_left,2025-03-07_15h20.37.351,HideSeek_v1,2022.2.5,60.05039429083263,
,1,4,1,8,0,4,12,,train_dim1_1,6,30,,,,2,0,2,0,,,,,,,,,0,0,0,0,0,5,5,5,8,0,8,0,,,,,,,,,,,,,,,,,,,,,,,,,,,,,,,,,,,,,,,,,,,,,,,,,,,,,,,,,,,,,,,,30,,,,,,,,2430.1553091,2430.1553091,2430.1553091,2430.1553091,2430.1553091,up,0.36091709999982413,0,0,0,99,0.4,0.16,up,0.27271040000005087,,,,,,,,,,,,,,,,,,,,,,,,,,,,,,,,,,,,,,,,,,,,,,,,,,,,,,,,,,,,9Y53G3,train_y,red_square,bottom_left,2025-03-07_15h20.37.351,HideSeek_v1,2022.2.5,60.05039429083263,
,1,4,1,8,0,4,12,,train_dim1_1,6,30,,,,2,0,2,0,,,,,,,,,0,0,0,0,0,5,5,5,9,0,9,0,,,,,,,,,,,,,,,,,,,,,,,,,,,,,,,,,,,,,,,,,,,,,,,,,,,,,,,,,,,,,,,,30,,,,,,,,2430.5290337,2430.5290337,2430.5290337,2430.5290337,2430.5290337,up,0.2716454999999769,0,0,0,99,0.4,0.24,up,0.1741575000000921,,,,,,,,,,,,,,,,,,,,,,,,,,,,,,,,,,,,,,,,,,,,,,,,,,,,,,,,,,,,9Y53G3,train_y,red_square,bottom_left,2025-03-07_15h20.37.351,HideSeek_v1,2022.2.5,60.05039429083263,
,1,4,1,8,0,4,12,,train_dim1_1,6,30,,,,2,0,2,0,,,,,,,,,0,0,0,0,0,5,5,5,10,0,10,0,,,,,,,,,,,,,,,,,,,,,,,,,,,,,,,,,,,,,,,,,,,,,,,,,,,,,,,,,,,,,,,,30,,,,,,,,2430.8062323,2430.8062323,2430.8062323,2430.8062323,2430.8062323,return,0.9769784000000072,0,0,0,0,0.4,0.24,return,0.8897937000001548,8,12,0.4,0.24,,,,,,,,,,,,,,,,,,,,,,,,,,,,,,,,,,,,,,,,,,,,,,,,,,,,,,,,9Y53G3,train_y,red_square,bottom_left,2025-03-07_15h20.37.351,HideSeek_v1,2022.2.5,60.05039429083263,
,1,3,1,6,0,3,13,,train_dim1_1,7,30,,,,2,0,2,0,,,,,,,,,0,0,0,0,0,6,6,6,0,0,0,0,,,,,,,,,,,,,,,,,,,,,,,,,stimuli/alien_stimuli/13.png,,,,,,,,,,,,,,,,,,,,,,,,,,,,,stimuli/alien_stimuli/12.png,12,1,8,,,,,,,30,,,,,,,,2445.6560119,2445.6560119,2445.6560119,2445.6560119,2445.6560119,up,3.024082599999929,0,0,0,99,-0.08,-0.08,up,2.9236634000003505,,,,,2444.0782636,2445.6560119,-0.08,0.24,0.32,0.0,0.07999999999999999,-0.08,-0.08,-0.08,0.24,2433.3515261000002,2433.3515261000002,2433.3515261000002,2433.3515261000002,2433.3515261000002,2433.3515261000002,2433.3515261000002,2433.3515261000002,2433.3510937200003,10.846830599999976,return,10.709212199999456,,,,,,,,,,,,,,,,,,,,,,,,,,,,,,,,,9Y53G3,train_y,red_square,bottom_left,2025-03-07_15h20.37.351,HideSeek_v1,2022.2.5,60.05039429083263,
,1,3,1,6,0,3,13,,train_dim1_1,7,30,,,,2,0,2,0,,,,,,,,,0,0,0,0,0,6,6,6,1,0,1,0,,,,,,,,,,,,,,,,,,,,,,,,,,,,,,,,,,,,,,,,,,,,,,,,,,,,,,,,,,,,,,,,30,,,,,,,,2448.6686716,2448.6686716,2448.6686716,2448.6686716,2448.6686716,up,0.2746882999999798,0,0,0,99,-0.08,0.0,up,0.1901383999997961,,,,,,,,,,,,,,,,,,,,,,,,,,,,,,,,,,,,,,,,,,,,,,,,,,,,,,,,,,,,9Y53G3,train_y,red_square,bottom_left,2025-03-07_15h20.37.351,HideSeek_v1,2022.2.5,60.05039429083263,
,1,3,1,6,0,3,13,,train_dim1_1,7,30,,,,2,0,2,0,,,,,,,,,0,0,0,0,0,6,6,6,2,0,2,0,,,,,,,,,,,,,,,,,,,,,,,,,,,,,,,,,,,,,,,,,,,,,,,,,,,,,,,,,,,,,,,,30,,,,,,,,2448.9509065,2448.9509065,2448.9509065,2448.9509065,2448.9509065,up,0.25999430000001666,0,0,0,99,-0.08,0.08,up,0.1808072999997421,,,,,,,,,,,,,,,,,,,,,,,,,,,,,,,,,,,,,,,,,,,,,,,,,,,,,,,,,,,,9Y53G3,train_y,red_square,bottom_left,2025-03-07_15h20.37.351,HideSeek_v1,2022.2.5,60.05039429083263,
,1,3,1,6,0,3,13,,train_dim1_1,7,30,,,,2,0,2,0,,,,,,,,,0,0,0,0,0,6,6,6,3,0,3,0,,,,,,,,,,,,,,,,,,,,,,,,,,,,,,,,,,,,,,,,,,,,,,,,,,,,,,,,,,,,,,,,30,,,,,,,,2449.2172911000002,2449.2172911000002,2449.2172911000002,2449.2172911000002,2449.2172911000002,up,0.22520770000028278,0,0,0,99,-0.08,0.16,up,0.1450435999995534,,,,,,,,,,,,,,,,,,,,,,,,,,,,,,,,,,,,,,,,,,,,,,,,,,,,,,,,,,,,9Y53G3,train_y,red_square,bottom_left,2025-03-07_15h20.37.351,HideSeek_v1,2022.2.5,60.05039429083263,
,1,3,1,6,0,3,13,,train_dim1_1,7,30,,,,2,0,2,0,,,,,,,,,0,0,0,0,0,6,6,6,4,0,4,0,,,,,,,,,,,,,,,,,,,,,,,,,,,,,,,,,,,,,,,,,,,,,,,,,,,,,,,,,,,,,,,,30,,,,,,,,2449.4481833,2449.4481833,2449.4481833,2449.4481833,2449.4481833,up,0.3769108999999844,0,0,0,99,-0.08,0.24,up,0.2941131000002315,,,,,,,,,,,,,,,,,,,,,,,,,,,,,,,,,,,,,,,,,,,,,,,,,,,,,,,,,,,,9Y53G3,train_y,red_square,bottom_left,2025-03-07_15h20.37.351,HideSeek_v1,2022.2.5,60.05039429083263,
,1,3,1,6,0,3,13,,train_dim1_1,7,30,,,,2,0,2,0,,,,,,,,,0,0,0,0,0,6,6,6,5,0,5,0,,,,,,,,,,,,,,,,,,,,,,,,,,,,,,,,,,,,,,,,,,,,,,,,,,,,,,,,,,,,,,,,30,,,,,,,,2449.8321638,2449.8321638,2449.8321638,2449.8321638,2449.8321638,right,1.1940934999997808,0,0,0,99,0.0,0.24,right,1.1168440999999802,,,,,,,,,,,,,,,,,,,,,,,,,,,,,,,,,,,,,,,,,,,,,,,,,,,,,,,,,,,,9Y53G3,train_y,red_square,bottom_left,2025-03-07_15h20.37.351,HideSeek_v1,2022.2.5,60.05039429083263,
,1,3,1,6,0,3,13,,train_dim1_1,7,30,,,,2,0,2,0,,,,,,,,,0,0,0,0,0,6,6,6,6,0,6,0,,,,,,,,,,,,,,,,,,,,,,,,,,,,,,,,,,,,,,,,,,,,,,,,,,,,,,,,,,,,,,,,30,,,,,,,,2451.0353271,2451.0353271,2451.0353271,2451.0353271,2451.0353271,right,0.44244739999976446,0,0,0,99,0.08,0.24,right,0.35942990000012287,,,,,,,,,,,,,,,,,,,,,,,,,,,,,,,,,,,,,,,,,,,,,,,,,,,,,,,,,,,,9Y53G3,train_y,red_square,bottom_left,2025-03-07_15h20.37.351,HideSeek_v1,2022.2.5,60.05039429083263,
,1,3,1,6,0,3,13,,train_dim1_1,7,30,,,,2,0,2,0,,,,,,,,,0,0,0,0,0,6,6,6,7,0,7,0,,,,,,,,,,,,,,,,,,,,,,,,,,,,,,,,,,,,,,,,,,,,,,,,,,,,,,,,,,,,,,,,30,,,,,,,,2451.4859614,2451.4859614,2451.4859614,2451.4859614,2451.4859614,return,0.6934954000003017,0,0,0,0,0.08,0.24,return,0.6056226999999126,13,14,0.08,0.24,,,,,,,,,,,,,,,,,,,,,,,,,,,,,,,,,,,,,,,,,,,,,,,,,,,,,,,,9Y53G3,train_y,red_square,bottom_left,2025-03-07_15h20.37.351,HideSeek_v1,2022.2.5,60.05039429083263,
,4,2,4,7,0,5,11,,train_dim1_1,8,30,,,,2,0,2,0,,,,,,,,,0,0,0,0,0,7,7,7,0,0,0,0,,,,,,,,,,,,,,,,,,,,,,,,,stimuli/alien_stimuli/11.png,,,,,,,,,,,,,,,,,,,,,,,,,,,,,stimuli/alien_stimuli/13.png,13,1,9,,,,,,,30,,,,,,,,2458.0305026,2458.0305026,2458.0305026,2458.0305026,2458.0305026,return,10.262919799999963,0,0,0,0,0.16,-0.24,return,10.168105999999625,13,14,0.16,-0.24,2456.4706745,2458.0305026,-0.08,0.08,0.24,0.0,-0.04,-0.08,-0.08,-0.08,0.08,2453.7487959,2453.7487959,2453.7487959,2453.7487959,2453.7487959,2453.7487959,2453.7487959,2453.7487959,2453.75103622,2.8398785999997926,return,2.695725500000208,,,,,,,,,,,,,,,,,,,,,,,,,,,,,,,,,9Y53G3,train_y,red_square,bottom_left,2025-03-07_15h20.37.351,HideSeek_v1,2022.2.5,60.05039429083263,
,4,3,4,4,0,1,15,,train_dim1_1,9,30,,,,2,0,2,0,,,,,,,,,0,0,0,0,0,8,8,8,0,0,0,0,,,,,,,,,,,,,,,,,,,,,,,,,stimuli/alien_stimuli/15.png,,,,,,,,,,,,,,,,,,,,,,,,,,,,,stimuli/alien_stimuli/11.png,11,4,10,,,,,,,30,,,,,,,,2478.7965327,2478.7965327,2478.7965327,2478.7965327,2478.7965327,down,6.594344199999796,0,0,0,99,0.16,-0.24,down,6.502940499999568,,,,,2477.2368413,2478.7965327,0.16,0.16,0.4,0.0,-0.039999999999999994,0.16,0.16,0.16,0.16,2469.8798659,2469.8798659,2469.8798659,2469.8798659,2469.8798659,2469.8798659,2469.8798659,2469.8798659,2469.88205791,7.491235200000119,return,7.329621200000474,,,,,,,,,,,,,,,,,,,,,,,,,,,,,,,,,9Y53G3,train_y,red_square,bottom_left,2025-03-07_15h20.37.351,HideSeek_v1,2022.2.5,60.05039429083263,
,4,3,4,4,0,1,15,,train_dim1_1,9,30,,,,2,0,2,0,,,,,,,,,0,0,0,0,0,8,8,8,1,0,1,0,,,,,,,,,,,,,,,,,,,,,,,,,,,,,,,,,,,,,,,,,,,,,,,,,,,,,,,,,,,,,,,,30,,,,,,,,2485.398717,2485.398717,2485.398717,2485.398717,2485.398717,down,1.1431754000000183,0,0,0,99,0.16,-0.32,down,1.0628585000004023,,,,,,,,,,,,,,,,,,,,,,,,,,,,,,,,,,,,,,,,,,,,,,,,,,,,,,,,,,,,9Y53G3,train_y,red_square,bottom_left,2025-03-07_15h20.37.351,HideSeek_v1,2022.2.5,60.05039429083263,
,4,3,4,4,0,1,15,,train_dim1_1,9,30,,,,2,0,2,0,,,,,,,,,0,0,0,0,0,8,8,8,2,0,2,0,,,,,,,,,,,,,,,,,,,,,,,,,,,,,,,,,,,,,,,,,,,,,,,,,,,,,,,,,,,,,,,,30,,,,,,,,2486.5487786,2486.5487786,2486.5487786,2486.5487786,2486.5487786,up,3.4120210000000952,0,0,0,99,0.16,-0.24,up,3.323324099999809,,,,,,,,,,,,,,,,,,,,,,,,,,,,,,,,,,,,,,,,,,,,,,,,,,,,,,,,,,,,9Y53G3,train_y,red_square,bottom_left,2025-03-07_15h20.37.351,HideSeek_v1,2022.2.5,60.05039429083263,
,4,3,4,4,0,1,15,,train_dim1_1,9,30,,,,2,0,2,0,,,,,,,,,0,0,0,0,0,8,8,8,3,0,3,0,,,,,,,,,,,,,,,,,,,,,,,,,,,,,,,,,,,,,,,,,,,,,,,,,,,,,,,,,,,,,,,,30,,,,,,,,2489.9679889,2489.9679889,2489.9679889,2489.9679889,2489.9679889,up,0.2596424999996998,0,0,0,99,0.16,-0.15999999999999998,up,0.17857630000025893,,,,,,,,,,,,,,,,,,,,,,,,,,,,,,,,,,,,,,,,,,,,,,,,,,,,,,,,,,,,9Y53G3,train_y,red_square,bottom_left,2025-03-07_15h20.37.351,HideSeek_v1,2022.2.5,60.05039429083263,
,4,3,4,4,0,1,15,,train_dim1_1,9,30,,,,2,0,2,0,,,,,,,,,0,0,0,0,0,8,8,8,4,0,4,0,,,,,,,,,,,,,,,,,,,,,,,,,,,,,,,,,,,,,,,,,,,,,,,,,,,,,,,,,,,,,,,,30,,,,,,,,2490.2355629,2490.2355629,2490.2355629,2490.2355629,2490.2355629,up,0.2765431999996508,0,0,0,99,0.16,-0.07999999999999997,up,0.19596899999987727,,,,,,,,,,,,,,,,,,,,,,,,,,,,,,,,,,,,,,,,,,,,,,,,,,,,,,,,,,,,9Y53G3,train_y,red_square,bottom_left,2025-03-07_15h20.37.351,HideSeek_v1,2022.2.5,60.05039429083263,
,4,3,4,4,0,1,15,,train_dim1_1,9,30,,,,2,0,2,0,,,,,,,,,0,0,0,0,0,8,8,8,5,0,5,0,,,,,,,,,,,,,,,,,,,,,,,,,,,,,,,,,,,,,,,,,,,,,,,,,,,,,,,,,,,,,,,,30,,,,,,,,2490.5211712,2490.5211712,2490.5211712,2490.5211712,2490.5211712,up,0.37618769999971846,0,0,0,99,0.16,2.7755575615628914e-17,up,0.2942009999997026,,,,,,,,,,,,,,,,,,,,,,,,,,,,,,,,,,,,,,,,,,,,,,,,,,,,,,,,,,,,9Y53G3,train_y,red_square,bottom_left,2025-03-07_15h20.37.351,HideSeek_v1,2022.2.5,60.05039429083263,
,4,3,4,4,0,1,15,,train_dim1_1,9,30,,,,2,0,2,0,,,,,,,,,0,0,0,0,0,8,8,8,6,0,6,0,,,,,,,,,,,,,,,,,,,,,,,,,,,,,,,,,,,,,,,,,,,,,,,,,,,,,,,,,,,,,,,,30,,,,,,,,2490.9020805,2490.9020805,2490.9020805,2490.9020805,2490.9020805,up,0.4763449000001856,0,0,0,99,0.16,0.08000000000000003,up,0.38671160000012605,,,,,,,,,,,,,,,,,,,,,,,,,,,,,,,,,,,,,,,,,,,,,,,,,,,,,,,,,,,,9Y53G3,train_y,red_square,bottom_left,2025-03-07_15h20.37.351,HideSeek_v1,2022.2.5,60.05039429083263,
,4,3,4,4,0,1,15,,train_dim1_1,9,30,,,,2,0,2,0,,,,,,,,,0,0,0,0,0,8,8,8,7,0,7,0,,,,,,,,,,,,,,,,,,,,,,,,,,,,,,,,,,,,,,,,,,,,,,,,,,,,,,,,,,,,,,,,30,,,,,,,,2491.3872005,2491.3872005,2491.3872005,2491.3872005,2491.3872005,up,0.6935907000001862,0,0,0,99,0.16,0.16000000000000003,up,0.6028857000001153,,,,,,,,,,,,,,,,,,,,,,,,,,,,,,,,,,,,,,,,,,,,,,,,,,,,,,,,,,,,9Y53G3,train_y,red_square,bottom_left,2025-03-07_15h20.37.351,HideSeek_v1,2022.2.5,60.05039429083263,
,4,3,4,4,0,1,15,,train_dim1_1,9,30,,,,2,0,2,0,,,,,,,,,0,0,0,0,0,8,8,8,8,0,8,0,,,,,,,,,,,,,,,,,,,,,,,,,,,,,,,,,,,,,,,,,,,,,,,,,,,,,,,,,,,,,,,,30,,,,,,,,2492.0879027,2492.0879027,2492.0879027,2492.0879027,2492.0879027,right,1.0269623000003776,0,0,0,99,0.24,0.16000000000000003,right,0.9341300999994928,,,,,,,,,,,,,,,,,,,,,,,,,,,,,,,,,,,,,,,,,,,,,,,,,,,,,,,,,,,,9Y53G3,train_y,red_square,bottom_left,2025-03-07_15h20.37.351,HideSeek_v1,2022.2.5,60.05039429083263,
,4,3,4,4,0,1,15,,train_dim1_1,9,30,,,,2,0,2,0,,,,,,,,,0,0,0,0,0,8,8,8,9,0,9,0,,,,,,,,,,,,,,,,,,,,,,,,,,,,,,,,,,,,,,,,,,,,,,,,,,,,,,,,,,,,,,,,30,,,,,,,,2493.120325,2493.120325,2493.120325,2493.120325,2493.120325,left,2.510497700000087,0,0,0,99,0.15999999999999998,0.16000000000000003,left,2.417618500000117,,,,,,,,,,,,,,,,,,,,,,,,,,,,,,,,,,,,,,,,,,,,,,,,,,,,,,,,,,,,9Y53G3,train_y,red_square,bottom_left,2025-03-07_15h20.37.351,HideSeek_v1,2022.2.5,60.05039429083263,
,4,3,4,4,0,1,15,,train_dim1_1,9,30,,,,2,0,2,0,,,,,,,,,0,0,0,0,0,8,8,8,10,0,10,0,,,,,,,,,,,,,,,,,,,,,,,,,,,,,,,,,,,,,,,,,,,,,,,,,,,,,,,,,,,,,,,,30,,,,,,,,2495.6390608,2495.6390608,2495.6390608,2495.6390608,2495.6390608,return,0.6267731000002641,0,0,0,0,0.15999999999999998,0.16000000000000003,return,0.5393630999997185,17,14,0.15999999999999998,0.16000000000000003,,,,,,,,,,,,,,,,,,,,,,,,,,,,,,,,,,,,,,,,,,,,,,,,,,,,,,,,9Y53G3,train_y,red_square,bottom_left,2025-03-07_15h20.37.351,HideSeek_v1,2022.2.5,60.05039429083263,
,2,2,2,2,0,0,16,,train_dim1_1,10,30,,,,2,0,2,0,,,,,,,,,0,0,0,0,0,9,9,9,0,0,0,0,,,,,,,,,,,,,,,,,,,,,,,,,stimuli/alien_stimuli/16.png,,,,,,,,,,,,,,,,,,,,,,,,,,,,,stimuli/alien_stimuli/15.png,15,4,11,,,,,,,30,,,,,,,,2502.0845375,2502.0845375,2502.0845375,2502.0845375,2502.0845375,right,2.2911254999999073,0,0,0,99,0.08,-0.24,right,2.194294699999773,,,,,2500.5240658000002,2502.0845375,0.16,-0.08,0.08,0.0,-0.12,0.16,0.16,0.16,-0.08,2497.8441579,2497.8441579,2497.8441579,2497.8441579,2497.8441579,2497.8441579,2497.8441579,2497.8441579,2497.83821122,2.8058075999997527,return,2.6493343000001914,,,,,,,,,,,,,,,,,,,,,,,,,,,,,,,,,9Y53G3,train_y,red_square,bottom_left,2025-03-07_15h20.37.351,HideSeek_v1,2022.2.5,60.05039429083263,
,2,2,2,2,0,0,16,,train_dim1_1,10,30,,,,2,0,2,0,,,,,,,,,0,0,0,0,0,9,9,9,1,0,1,0,,,,,,,,,,,,,,,,,,,,,,,,,,,,,,,,,,,,,,,,,,,,,,,,,,,,,,,,,,,,,,,,30,,,,,,,,2504.3798054,2504.3798054,2504.3798054,2504.3798054,2504.3798054,right,1.9103651000000355,0,0,0,99,0.16,-0.24,right,1.8307340000001204,,,,,,,,,,,,,,,,,,,,,,,,,,,,,,,,,,,,,,,,,,,,,,,,,,,,,,,,,,,,9Y53G3,train_y,red_square,bottom_left,2025-03-07_15h20.37.351,HideSeek_v1,2022.2.5,60.05039429083263,
,2,2,2,2,0,0,16,,train_dim1_1,10,30,,,,2,0,2,0,,,,,,,,,0,0,0,0,0,9,9,9,2,0,2,0,,,,,,,,,,,,,,,,,,,,,,,,,,,,,,,,,,,,,,,,,,,,,,,,,,,,,,,,,,,,,,,,30,,,,,,,,2506.2977633,2506.2977633,2506.2977633,2506.2977633,2506.2977633,right,1.1600737999997364,0,0,0,99,0.24,-0.24,right,1.0745305999994343,,,,,,,,,,,,,,,,,,,,,,,,,,,,,,,,,,,,,,,,,,,,,,,,,,,,,,,,,,,,9Y53G3,train_y,red_square,bottom_left,2025-03-07_15h20.37.351,HideSeek_v1,2022.2.5,60.05039429083263,
,2,2,2,2,0,0,16,,train_dim1_1,10,30,,,,2,0,2,0,,,,,,,,,0,0,0,0,0,9,9,9,3,0,3,0,,,,,,,,,,,,,,,,,,,,,,,,,,,,,,,,,,,,,,,,,,,,,,,,,,,,,,,,,,,,,,,,30,,,,,,,,2507.4685634,2507.4685634,2507.4685634,2507.4685634,2507.4685634,right,1.1264992000001257,0,0,0,99,0.32,-0.24,right,1.032594099999642,,,,,,,,,,,,,,,,,,,,,,,,,,,,,,,,,,,,,,,,,,,,,,,,,,,,,,,,,,,,9Y53G3,train_y,red_square,bottom_left,2025-03-07_15h20.37.351,HideSeek_v1,2022.2.5,60.05039429083263,
,2,2,2,2,0,0,16,,train_dim1_1,10,30,,,,2,0,2,0,,,,,,,,,0,0,0,0,0,9,9,9,4,0,4,0,,,,,,,,,,,,,,,,,,,,,,,,,,,,,,,,,,,,,,,,,,,,,,,,,,,,,,,,,,,,,,,,30,,,,,,,,2508.599586,2508.599586,2508.599586,2508.599586,2508.599586,left,1.4601006000002599,0,0,0,99,0.24,-0.24,left,1.381514000000152,,,,,,,,,,,,,,,,,,,,,,,,,,,,,,,,,,,,,,,,,,,,,,,,,,,,,,,,,,,,9Y53G3,train_y,red_square,bottom_left,2025-03-07_15h20.37.351,HideSeek_v1,2022.2.5,60.05039429083263,
,2,2,2,2,0,0,16,,train_dim1_1,10,30,,,,2,0,2,0,,,,,,,,,0,0,0,0,0,9,9,9,5,0,5,0,,,,,,,,,,,,,,,,,,,,,,,,,,,,,,,,,,,,,,,,,,,,,,,,,,,,,,,,,,,,,,,,30,,,,,,,,2510.0659936,2510.0659936,2510.0659936,2510.0659936,2510.0659936,left,2.6286847000001217,0,0,0,99,0.15999999999999998,-0.24,left,2.5356979000002866,,,,,,,,,,,,,,,,,,,,,,,,,,,,,,,,,,,,,,,,,,,,,,,,,,,,,,,,,,,,9Y53G3,train_y,red_square,bottom_left,2025-03-07_15h20.37.351,HideSeek_v1,2022.2.5,60.05039429083263,
,2,2,2,2,0,0,16,,train_dim1_1,10,30,,,,2,0,2,0,,,,,,,,,0,0,0,0,0,9,9,9,6,0,6,0,,,,,,,,,,,,,,,,,,,,,,,,,,,,,,,,,,,,,,,,,,,,,,,,,,,,,,,,,,,,,,,,30,,,,,,,,2512.7043351,2512.7043351,2512.7043351,2512.7043351,2512.7043351,left,0.24258869999994204,0,0,0,99,0.07999999999999997,-0.24,left,0.15084729999989577,,,,,,,,,,,,,,,,,,,,,,,,,,,,,,,,,,,,,,,,,,,,,,,,,,,,,,,,,,,,9Y53G3,train_y,red_square,bottom_left,2025-03-07_15h20.37.351,HideSeek_v1,2022.2.5,60.05039429083263,
,2,2,2,2,0,0,16,,train_dim1_1,10,30,,,,2,0,2,0,,,,,,,,,0,0,0,0,0,9,9,9,7,0,7,0,,,,,,,,,,,,,,,,,,,,,,,,,,,,,,,,,,,,,,,,,,,,,,,,,,,,,,,,,,,,,,,,30,,,,,,,,2512.9552256,2512.9552256,2512.9552256,2512.9552256,2512.9552256,left,0.3096949000000677,0,0,0,99,-2.7755575615628914e-17,-0.24,left,0.21565190000001166,,,,,,,,,,,,,,,,,,,,,,,,,,,,,,,,,,,,,,,,,,,,,,,,,,,,,,,,,,,,9Y53G3,train_y,red_square,bottom_left,2025-03-07_15h20.37.351,HideSeek_v1,2022.2.5,60.05039429083263,
,2,2,2,2,0,0,16,,train_dim1_1,10,30,,,,2,0,2,0,,,,,,,,,0,0,0,0,0,9,9,9,8,0,8,0,,,,,,,,,,,,,,,,,,,,,,,,,,,,,,,,,,,,,,,,,,,,,,,,,,,,,,,,,,,,,,,,30,,,,,,,,2513.2737464,2513.2737464,2513.2737464,2513.2737464,2513.2737464,up,0.6931922999997369,0,0,0,99,-2.7755575615628914e-17,-0.15999999999999998,up,0.6020852000001469,,,,,,,,,,,,,,,,,,,,,,,,,,,,,,,,,,,,,,,,,,,,,,,,,,,,,,,,,,,,9Y53G3,train_y,red_square,bottom_left,2025-03-07_15h20.37.351,HideSeek_v1,2022.2.5,60.05039429083263,
,2,2,2,2,0,0,16,,train_dim1_1,10,30,,,,2,0,2,0,,,,,,,,,0,0,0,0,0,9,9,9,9,0,9,0,,,,,,,,,,,,,,,,,,,,,,,,,,,,,,,,,,,,,,,,,,,,,,,,,,,,,,,,,,,,,,,,30,,,,,,,,2513.971007,2513.971007,2513.971007,2513.971007,2513.971007,up,0.4927298000002338,0,0,0,99,-2.7755575615628914e-17,-0.07999999999999997,up,0.4066568000002917,,,,,,,,,,,,,,,,,,,,,,,,,,,,,,,,,,,,,,,,,,,,,,,,,,,,,,,,,,,,9Y53G3,train_y,red_square,bottom_left,2025-03-07_15h20.37.351,HideSeek_v1,2022.2.5,60.05039429083263,
,2,2,2,2,0,0,16,,train_dim1_1,10,30,,,,2,0,2,0,,,,,,,,,0,0,0,0,0,9,9,9,10,0,10,0,,,,,,,,,,,,,,,,,,,,,,,,,,,,,,,,,,,,,,,,,,,,,,,,,,,,,,,,,,,,,,,,30,,,,,,,,2514.4755291,2514.4755291,2514.4755291,2514.4755291,2514.4755291,up,3.1274975000001177,0,0,0,99,-2.7755575615628914e-17,2.7755575615628914e-17,up,3.0439332999994804,,,,,,,,,,,,,,,,,,,,,,,,,,,,,,,,,,,,,,,,,,,,,,,,,,,,,,,,,,,,9Y53G3,train_y,red_square,bottom_left,2025-03-07_15h20.37.351,HideSeek_v1,2022.2.5,60.05039429083263,
,2,2,2,2,0,0,16,,train_dim1_1,10,30,,,,2,0,2,0,,,,,,,,,0,0,0,0,0,9,9,9,11,0,11,0,,,,,,,,,,,,,,,,,,,,,,,,,,,,,,,,,,,,,,,,,,,,,,,,,,,,,,,,,,,,,,,,30,,,,,,,,2517.6077033,2517.6077033,2517.6077033,2517.6077033,2517.6077033,return,0.6763829000001351,0,0,0,0,-2.7755575615628914e-17,2.7755575615628914e-17,return,0.5818603999996412,20,14,-2.7755575615628914e-17,2.7755575615628914e-17,,,,,,,,,,,,,,,,,,,,,,,,,,,,,,,,,,,,,,,,,,,,,,,,,,,,,,,,9Y53G3,train_y,red_square,bottom_left,2025-03-07_15h20.37.351,HideSeek_v1,2022.2.5,60.05039429083263,
,4,1,4,2,0,1,15,,train_dim1_1,11,30,,,,2,0,2,0,,,,,,,,,0,0,0,0,0,10,10,10,0,0,0,0,,,,,,,,,,,,,,,,,,,,,,,,,stimuli/alien_stimuli/15.png,,,,,,,,,,,,,,,,,,,,,,,,,,,,,stimuli/alien_stimuli/16.png,16,2,12,,,,,,,30,,,,,,,,2525.0184358,2525.0184358,2525.0184358,2525.0184358,2525.0184358,up,6.944522799999959,0,0,0,99,0.16,-0.24,up,6.863659499999812,,,,,2523.4586503,2525.0184358,0,-0.24,0.0,0.0,-0.24,0,0.0,0,-0.24,2519.858401,2519.858401,2519.858401,2519.858401,2519.858401,2519.858401,2519.858401,2519.858401,2519.8565125200003,3.722034800000074,return,3.5832940000004783,,,,,,,,,,,,,,,,,,,,,,,,,,,,,,,,,9Y53G3,train_y,red_square,bottom_left,2025-03-07_15h20.37.351,HideSeek_v1,2022.2.5,60.05039429083263,
,4,1,4,2,0,1,15,,train_dim1_1,11,30,,,,2,0,2,0,,,,,,,,,0,0,0,0,0,10,10,10,1,0,1,0,,,,,,,,,,,,,,,,,,,,,,,,,,,,,,,,,,,,,,,,,,,,,,,,,,,,,,,,,,,,,,,,30,,,,,,,,2531.9711017,2531.9711017,2531.9711017,2531.9711017,2531.9711017,up,0.8094356000001426,0,0,0,99,0.16,-0.15999999999999998,up,0.7211161999994147,,,,,,,,,,,,,,,,,,,,,,,,,,,,,,,,,,,,,,,,,,,,,,,,,,,,,,,,,,,,9Y53G3,train_y,red_square,bottom_left,2025-03-07_15h20.37.351,HideSeek_v1,2022.2.5,60.05039429083263,
,4,1,4,2,0,1,15,,train_dim1_1,11,30,,,,2,0,2,0,,,,,,,,,0,0,0,0,0,10,10,10,2,0,2,0,,,,,,,,,,,,,,,,,,,,,,,,,,,,,,,,,,,,,,,,,,,,,,,,,,,,,,,,,,,,,,,,30,,,,,,,,2532.7886401,2532.7886401,2532.7886401,2532.7886401,2532.7886401,return,0.3260203999998339,0,1,0,0,0.16,-0.15999999999999998,return,0.24040699999977733,22,14,0.16,-0.15999999999999998,,,,,,,,,,,,,,,,,,,,,,,,,,,,,,,,,,,,,,,,,,,,,,,,,,,,,,,,9Y53G3,train_y,red_square,bottom_left,2025-03-07_15h20.37.351,HideSeek_v1,2022.2.5,60.05039429083263,
,0,0,0,5,0,5,11,,train_dim1_1,12,30,,,,2,0,2,0,,,,,,,,,0,0,0,0,0,11,11,11,0,0,0,0,,,,,,,,,,,,,,,,,,,,,,,,,stimuli/alien_stimuli/11.png,,,,,,,,,,,,,,,,,,,,,,,,,,,,,stimuli/alien_stimuli/15.png,15,4,13,,,,,,,30,,,,,,,,2552.5975549,2552.5975549,2552.5975549,2552.5975549,2552.5975549,right,2.572917800000141,0,1,0,99,-0.08,-0.4,right,2.4843589999995856,,,,,2551.0311348,2552.5975549,0.16,-0.24,0.08,0.0,-0.28,0.16,0.16,0.16,-0.24,2534.6927763,2534.6927763,2534.6927763,2534.6927763,2534.6927763,2534.6927763,2534.6927763,2534.6927763,2534.68557932,16.465952300000026,return,16.317674200000056,,,,,,,,,,,,,,,,,,,,,,,,,,,,,,,,,9Y53G3,train_y,red_square,bottom_left,2025-03-07_15h20.37.351,HideSeek_v1,2022.2.5,60.05039429083263,
,0,0,0,5,0,5,11,,train_dim1_1,12,30,,,,2,0,2,0,,,,,,,,,0,0,0,0,0,11,11,11,1,0,1,0,,,,,,,,,,,,,,,,,,,,,,,,,,,,,,,,,,,,,,,,,,,,,,,,,,,,,,,,,,,,,,,,30,,,,,,,,2555.1733256,2555.1733256,2555.1733256,2555.1733256,2555.1733256,up,0.3758500999997523,0,1,0,99,-0.08,-0.32,up,0.2859347999997226,,,,,,,,,,,,,,,,,,,,,,,,,,,,,,,,,,,,,,,,,,,,,,,,,,,,,,,,,,,,9Y53G3,train_y,red_square,bottom_left,2025-03-07_15h20.37.351,HideSeek_v1,2022.2.5,60.05039429083263,
,0,0,0,5,0,5,11,,train_dim1_1,12,30,,,,2,0,2,0,,,,,,,,,0,0,0,0,0,11,11,11,2,0,2,0,,,,,,,,,,,,,,,,,,,,,,,,,,,,,,,,,,,,,,,,,,,,,,,,,,,,,,,,,,,,,,,,30,,,,,,,,2555.5564058,2555.5564058,2555.5564058,2555.5564058,2555.5564058,right,0.6095603000003393,0,1,0,99,0.0,-0.32,right,0.5264425000000301,,,,,,,,,,,,,,,,,,,,,,,,,,,,,,,,,,,,,,,,,,,,,,,,,,,,,,,,,,,,9Y53G3,train_y,red_square,bottom_left,2025-03-07_15h20.37.351,HideSeek_v1,2022.2.5,60.05039429083263,
,0,0,0,5,0,5,11,,train_dim1_1,12,30,,,,2,0,2,0,,,,,,,,,0,0,0,0,0,11,11,11,3,0,3,0,,,,,,,,,,,,,,,,,,,,,,,,,,,,,,,,,,,,,,,,,,,,,,,,,,,,,,,,,,,,,,,,30,,,,,,,,2556.1724039,2556.1724039,2556.1724039,2556.1724039,2556.1724039,up,0.40993959999968865,0,1,0,99,0.0,-0.24,up,0.3255380000000514,,,,,,,,,,,,,,,,,,,,,,,,,,,,,,,,,,,,,,,,,,,,,,,,,,,,,,,,,,,,9Y53G3,train_y,red_square,bottom_left,2025-03-07_15h20.37.351,HideSeek_v1,2022.2.5,60.05039429083263,
,0,0,0,5,0,5,11,,train_dim1_1,12,30,,,,2,0,2,0,,,,,,,,,0,0,0,0,0,11,11,11,4,0,4,0,,,,,,,,,,,,,,,,,,,,,,,,,,,,,,,,,,,,,,,,,,,,,,,,,,,,,,,,,,,,,,,,30,,,,,,,,2556.5927063,2556.5927063,2556.5927063,2556.5927063,2556.5927063,right,0.6427005000000463,0,1,0,99,0.08,-0.24,right,0.5488219999997455,,,,,,,,,,,,,,,,,,,,,,,,,,,,,,,,,,,,,,,,,,,,,,,,,,,,,,,,,,,,9Y53G3,train_y,red_square,bottom_left,2025-03-07_15h20.37.351,HideSeek_v1,2022.2.5,60.05039429083263,
,0,0,0,5,0,5,11,,train_dim1_1,12,30,,,,2,0,2,0,,,,,,,,,0,0,0,0,0,11,11,11,5,0,5,0,,,,,,,,,,,,,,,,,,,,,,,,,,,,,,,,,,,,,,,,,,,,,,,,,,,,,,,,,,,,,,,,30,,,,,,,,2557.2403821,2557.2403821,2557.2403821,2557.2403821,2557.2403821,up,0.3266714999999749,0,1,0,99,0.08,-0.15999999999999998,up,0.23537610000039422,,,,,,,,,,,,,,,,,,,,,,,,,,,,,,,,,,,,,,,,,,,,,,,,,,,,,,,,,,,,9Y53G3,train_y,red_square,bottom_left,2025-03-07_15h20.37.351,HideSeek_v1,2022.2.5,60.05039429083263,
,0,0,0,5,0,5,11,,train_dim1_1,12,30,,,,2,0,2,0,,,,,,,,,0,0,0,0,0,11,11,11,6,0,6,0,,,,,,,,,,,,,,,,,,,,,,,,,,,,,,,,,,,,,,,,,,,,,,,,,,,,,,,,,,,,,,,,30,,,,,,,,2557.5770828,2557.5770828,2557.5770828,2557.5770828,2557.5770828,up,1.2926446999999825,0,1,0,99,0.08,-0.07999999999999997,up,1.1995032000004358,,,,,,,,,,,,,,,,,,,,,,,,,,,,,,,,,,,,,,,,,,,,,,,,,,,,,,,,,,,,9Y53G3,train_y,red_square,bottom_left,2025-03-07_15h20.37.351,HideSeek_v1,2022.2.5,60.05039429083263,
,0,0,0,5,0,5,11,,train_dim1_1,12,30,,,,2,0,2,0,,,,,,,,,0,0,0,0,0,11,11,11,7,0,7,0,,,,,,,,,,,,,,,,,,,,,,,,,,,,,,,,,,,,,,,,,,,,,,,,,,,,,,,,,,,,,,,,30,,,,,,,,2558.8736297,2558.8736297,2558.8736297,2558.8736297,2558.8736297,left,0.9436524000002464,0,1,0,99,0.0,-0.07999999999999997,left,0.8547066999999515,,,,,,,,,,,,,,,,,,,,,,,,,,,,,,,,,,,,,,,,,,,,,,,,,,,,,,,,,,,,9Y53G3,train_y,red_square,bottom_left,2025-03-07_15h20.37.351,HideSeek_v1,2022.2.5,60.05039429083263,
,0,0,0,5,0,5,11,,train_dim1_1,12,30,,,,2,0,2,0,,,,,,,,,0,0,0,0,0,11,11,11,8,0,8,0,,,,,,,,,,,,,,,,,,,,,,,,,,,,,,,,,,,,,,,,,,,,,,,,,,,,,,,,,,,,,,,,30,,,,,,,,2559.8252613,2559.8252613,2559.8252613,2559.8252613,2559.8252613,return,0.4930567000001247,0,0,0,0,0.0,-0.07999999999999997,return,0.4106189999997696,26,16,0.0,-0.07999999999999997,,,,,,,,,,,,,,,,,,,,,,,,,,,,,,,,,,,,,,,,,,,,,,,,,,,,,,,,9Y53G3,train_y,red_square,bottom_left,2025-03-07_15h20.37.351,HideSeek_v1,2022.2.5,60.05039429083263,
,4,3,4,7,0,4,12,,train_dim1_1,13,30,,,,2,0,2,0,,,,,,,,,0,0,0,0,0,12,12,12,0,0,0,0,,,,,,,,,,,,,,,,,,,,,,,,,stimuli/alien_stimuli/12.png,,,,,,,,,,,,,,,,,,,,,,,,,,,,,stimuli/alien_stimuli/11.png,11,0,14,,,,,,,30,,,,,,,,2571.8742601,2571.8742601,2571.8742601,2571.8742601,2571.8742601,right,2.8242953999997553,0,0,0,99,0.24,-0.16,right,2.7397431999993387,,,,,2570.3152204,2571.8742601,-0.16,0,0.4,0.0,-0.2,-0.16,-0.16,-0.16,0,2561.8954482,2561.8954482,2561.8954482,2561.8954482,2561.8954482,2561.8954482,2561.8954482,2561.8954482,2561.8911824200004,8.545421899999837,return,8.38870020000013,,,,,,,,,,,,,,,,,,,,,,,,,,,,,,,,,9Y53G3,train_y,red_square,bottom_left,2025-03-07_15h20.37.351,HideSeek_v1,2022.2.5,60.05039429083263,
,4,3,4,7,0,4,12,,train_dim1_1,13,30,,,,2,0,2,0,,,,,,,,,0,0,0,0,0,12,12,12,1,0,1,0,,,,,,,,,,,,,,,,,,,,,,,,,,,,,,,,,,,,,,,,,,,,,,,,,,,,,,,,,,,,,,,,30,,,,,,,,2574.7057479,2574.7057479,2574.7057479,2574.7057479,2574.7057479,right,0.5420310000004065,0,0,0,99,0.32,-0.16,right,0.4519031999998333,,,,,,,,,,,,,,,,,,,,,,,,,,,,,,,,,,,,,,,,,,,,,,,,,,,,,,,,,,,,9Y53G3,train_y,red_square,bottom_left,2025-03-07_15h20.37.351,HideSeek_v1,2022.2.5,60.05039429083263,
,4,3,4,7,0,4,12,,train_dim1_1,13,30,,,,2,0,2,0,,,,,,,,,0,0,0,0,0,12,12,12,2,0,2,0,,,,,,,,,,,,,,,,,,,,,,,,,,,,,,,,,,,,,,,,,,,,,,,,,,,,,,,,,,,,,,,,30,,,,,,,,2575.2581795,2575.2581795,2575.2581795,2575.2581795,2575.2581795,right,0.4594520000000557,0,0,0,99,0.4,-0.16,right,0.37724879999950645,,,,,,,,,,,,,,,,,,,,,,,,,,,,,,,,,,,,,,,,,,,,,,,,,,,,,,,,,,,,9Y53G3,train_y,red_square,bottom_left,2025-03-07_15h20.37.351,HideSeek_v1,2022.2.5,60.05039429083263,
,4,3,4,7,0,4,12,,train_dim1_1,13,30,,,,2,0,2,0,,,,,,,,,0,0,0,0,0,12,12,12,3,0,3,0,,,,,,,,,,,,,,,,,,,,,,,,,,,,,,,,,,,,,,,,,,,,,,,,,,,,,,,,,,,,,,,,30,,,,,,,,2575.7259819,2575.7259819,2575.7259819,2575.7259819,2575.7259819,right,0.47672030000012455,0,0,0,99,0.48000000000000004,-0.16,right,0.38172949999989214,,,,,,,,,,,,,,,,,,,,,,,,,,,,,,,,,,,,,,,,,,,,,,,,,,,,,,,,,,,,9Y53G3,train_y,red_square,bottom_left,2025-03-07_15h20.37.351,HideSeek_v1,2022.2.5,60.05039429083263,
,4,3,4,7,0,4,12,,train_dim1_1,13,30,,,,2,0,2,0,,,,,,,,,0,0,0,0,0,12,12,12,4,0,4,0,,,,,,,,,,,,,,,,,,,,,,,,,,,,,,,,,,,,,,,,,,,,,,,,,,,,,,,,,,,,,,,,30,,,,,,,,2576.2064804,2576.2064804,2576.2064804,2576.2064804,2576.2064804,right,0.8600618000000395,0,0,0,99,0.56,-0.16,right,0.7715407999999115,,,,,,,,,,,,,,,,,,,,,,,,,,,,,,,,,,,,,,,,,,,,,,,,,,,,,,,,,,,,9Y53G3,train_y,red_square,bottom_left,2025-03-07_15h20.37.351,HideSeek_v1,2022.2.5,60.05039429083263,
,4,3,4,7,0,4,12,,train_dim1_1,13,30,,,,2,0,2,0,,,,,,,,,0,0,0,0,0,12,12,12,5,0,5,0,,,,,,,,,,,,,,,,,,,,,,,,,,,,,,,,,,,,,,,,,,,,,,,,,,,,,,,,,,,,,,,,30,,,,,,,,2577.0740627,2577.0740627,2577.0740627,2577.0740627,2577.0740627,return,1.0098275000000285,0,0,0,0,0.56,-0.16,return,0.9184888999998293,26,21,0.56,-0.16,,,,,,,,,,,,,,,,,,,,,,,,,,,,,,,,,,,,,,,,,,,,,,,,,,,,,,,,9Y53G3,train_y,red_square,bottom_left,2025-03-07_15h20.37.351,HideSeek_v1,2022.2.5,60.05039429083263,
,2,2,2,2,0,0,16,,train_dim1_1,14,30,,,,2,0,2,0,,,,,,,,,0,0,0,0,0,13,13,13,0,0,0,0,,,,,,,,,,,,,,,,,,,,,,,,,stimuli/alien_stimuli/16.png,,,,,,,,,,,,,,,,,,,,,,,,,,,,,stimuli/alien_stimuli/12.png,12,4,15,,,,,,,30,,,,,,,,2586.918524,2586.918524,2586.918524,2586.918524,2586.918524,up,2.8408119000000625,0,0,0,99,0,-0.15999999999999998,up,2.7477217000000564,,,,,2585.3600549000003,2586.918524,0.16,0.16,0.32,0.0,0.0,0.16,0.16,0.16,0.16,2579.6552049,2579.6552049,2579.6552049,2579.6552049,2579.6552049,2579.6552049,2579.6552049,2579.6552049,2579.6562680200004,5.824213899999904,return,5.678429199999755,,,,,,,,,,,,,,,,,,,,,,,,,,,,,,,,,9Y53G3,train_y,red_square,bottom_left,2025-03-07_15h20.37.351,HideSeek_v1,2022.2.5,60.05039429083263,
,2,2,2,2,0,0,16,,train_dim1_1,14,30,,,,2,0,2,0,,,,,,,,,0,0,0,0,0,13,13,13,1,0,1,0,,,,,,,,,,,,,,,,,,,,,,,,,,,,,,,,,,,,,,,,,,,,,,,,,,,,,,,,,,,,,,,,30,,,,,,,,2589.7674242,2589.7674242,2589.7674242,2589.7674242,2589.7674242,up,0.47625179999977263,0,0,0,99,0,-0.07999999999999997,up,0.39477519999991273,,,,,,,,,,,,,,,,,,,,,,,,,,,,,,,,,,,,,,,,,,,,,,,,,,,,,,,,,,,,9Y53G3,train_y,red_square,bottom_left,2025-03-07_15h20.37.351,HideSeek_v1,2022.2.5,60.05039429083263,
,2,2,2,2,0,0,16,,train_dim1_1,14,30,,,,2,0,2,0,,,,,,,,,0,0,0,0,0,13,13,13,2,0,2,0,,,,,,,,,,,,,,,,,,,,,,,,,,,,,,,,,,,,,,,,,,,,,,,,,,,,,,,,,,,,,,,,30,,,,,,,,2590.2515738,2590.2515738,2590.2515738,2590.2515738,2590.2515738,up,0.4768487000001187,0,0,0,99,0,2.7755575615628914e-17,up,0.3954892000001564,,,,,,,,,,,,,,,,,,,,,,,,,,,,,,,,,,,,,,,,,,,,,,,,,,,,,,,,,,,,9Y53G3,train_y,red_square,bottom_left,2025-03-07_15h20.37.351,HideSeek_v1,2022.2.5,60.05039429083263,
,2,2,2,2,0,0,16,,train_dim1_1,14,30,,,,2,0,2,0,,,,,,,,,0,0,0,0,0,13,13,13,3,0,3,0,,,,,,,,,,,,,,,,,,,,,,,,,,,,,,,,,,,,,,,,,,,,,,,,,,,,,,,,,,,,,,,,30,,,,,,,,2590.7371857,2590.7371857,2590.7371857,2590.7371857,2590.7371857,return,0.40912689999959184,0,0,0,0,0,2.7755575615628914e-17,return,0.327931400000125,29,21,0,2.7755575615628914e-17,,,,,,,,,,,,,,,,,,,,,,,,,,,,,,,,,,,,,,,,,,,,,,,,,,,,,,,,9Y53G3,train_y,red_square,bottom_left,2025-03-07_15h20.37.351,HideSeek_v1,2022.2.5,60.05039429083263,
,1,4,1,7,0,3,13,,train_dim1_1,15,30,,,,2,0,2,0,,,,,,,,,0,0,0,0,0,14,14,14,0,0,0,0,,,,,,,,,,,,,,,,,,,,,,,,,stimuli/alien_stimuli/13.png,,,,,,,,,,,,,,,,,,,,,,,,,,,,,stimuli/alien_stimuli/16.png,16,2,16,,,,,,,30,,,,,,,,2617.0158571,2617.0158571,2617.0158571,2617.0158571,2617.0158571,up,9.079057399999783,0,0,0,99,-0.08,0.0,up,8.993608899999344,,,,,2615.4524321,2617.0158571,0,-0.24,0.0,0.0,-0.24,0,0.0,0,-0.24,2592.7173035,2592.7173035,2592.7173035,2592.7173035,2592.7173035,2592.7173035,2592.7173035,2592.7173035,2592.7166157200004,22.85563520000005,return,22.715925899999547,,,,,,,,,,,,,,,,,,,,,,,,,,,,,,,,,9Y53G3,train_y,red_square,bottom_left,2025-03-07_15h20.37.351,HideSeek_v1,2022.2.5,60.05039429083263,
,1,4,1,7,0,3,13,,train_dim1_1,15,30,,,,2,0,2,0,,,,,,,,,0,0,0,0,0,14,14,14,1,0,1,0,,,,,,,,,,,,,,,,,,,,,,,,,,,,,,,,,,,,,,,,,,,,,,,,,,,,,,,,,,,,,,,,30,,,,,,,,2626.0988084,2626.0988084,2626.0988084,2626.0988084,2626.0988084,up,0.8100036999999247,0,0,0,99,-0.08,0.08,up,0.7170909000001302,,,,,,,,,,,,,,,,,,,,,,,,,,,,,,,,,,,,,,,,,,,,,,,,,,,,,,,,,,,,9Y53G3,train_y,red_square,bottom_left,2025-03-07_15h20.37.351,HideSeek_v1,2022.2.5,60.05039429083263,
,1,4,1,7,0,3,13,,train_dim1_1,15,30,,,,2,0,2,0,,,,,,,,,0,0,0,0,0,14,14,14,2,0,2,0,,,,,,,,,,,,,,,,,,,,,,,,,,,,,,,,,,,,,,,,,,,,,,,,,,,,,,,,,,,,,,,,30,,,,,,,,2626.9148223,2626.9148223,2626.9148223,2626.9148223,2626.9148223,up,0.9599143999998887,0,0,0,99,-0.08,0.16,up,0.8807012999996005,,,,,,,,,,,,,,,,,,,,,,,,,,,,,,,,,,,,,,,,,,,,,,,,,,,,,,,,,,,,9Y53G3,train_y,red_square,bottom_left,2025-03-07_15h20.37.351,HideSeek_v1,2022.2.5,60.05039429083263,
,1,4,1,7,0,3,13,,train_dim1_1,15,30,,,,2,0,2,0,,,,,,,,,0,0,0,0,0,14,14,14,3,0,3,0,,,,,,,,,,,,,,,,,,,,,,,,,,,,,,,,,,,,,,,,,,,,,,,,,,,,,,,,,,,,,,,,30,,,,,,,,2627.8822919,2627.8822919,2627.8822919,2627.8822919,2627.8822919,return,2.361074099999769,1,0,0,1,-0.08,0.16,return,2.282009900000048,32,21,-0.08,0.16,,,,,,,,,,,,,,,,,,,,,,,,,,,,,,,,,,,,,,,,,,,,,,,,,,,,,,,,9Y53G3,train_y,red_square,bottom_left,2025-03-07_15h20.37.351,HideSeek_v1,2022.2.5,60.05039429083263,
,4,0,4,1,0,1,15,,train_dim1_1,16,30,,,,2,0,2,0,,,,,,,,,0,0,0,0,0,15,15,15,0,0,0,0,,,,,,,,,,,,,,,,,,,,,,,,,stimuli/alien_stimuli/15.png,,,,,,,,,,,,,,,,,,,,,,,,,,,,,stimuli/alien_stimuli/13.png,13,1,17,,,,,,,30,,,,,,,,2638.462246,2638.462246,2638.462246,2638.462246,2638.462246,up,10.014046199999939,1,0,0,99,0.16,-0.32,up,9.9239720999999,,,,,2636.9023962,2638.462246,-0.08,0.16,0.24,0.0,0.04,-0.08,-0.08,-0.08,0.16,2631.822056,2631.822056,2631.822056,2631.822056,2631.822056,2631.822056,2631.822056,2631.822056,2631.8157838200004,5.206975499999771,return,5.064174399999956,,,,,,,,,,,,,,,,,,,,,,,,,,,,,,,,,9Y53G3,train_y,red_square,bottom_left,2025-03-07_15h20.37.351,HideSeek_v1,2022.2.5,60.05039429083263,
,4,0,4,1,0,1,15,,train_dim1_1,16,30,,,,2,0,2,0,,,,,,,,,0,0,0,0,0,15,15,15,1,0,1,0,,,,,,,,,,,,,,,,,,,,,,,,,,,,,,,,,,,,,,,,,,,,,,,,,,,,,,,,,,,,,,,,30,,,,,,,,2648.4837197,2648.4837197,2648.4837197,2648.4837197,2648.4837197,up,0.5264299000000392,1,0,0,99,0.16,-0.24,up,0.43165819999967425,,,,,,,,,,,,,,,,,,,,,,,,,,,,,,,,,,,,,,,,,,,,,,,,,,,,,,,,,,,,9Y53G3,train_y,red_square,bottom_left,2025-03-07_15h20.37.351,HideSeek_v1,2022.2.5,60.05039429083263,
,4,0,4,1,0,1,15,,train_dim1_1,16,30,,,,2,0,2,0,,,,,,,,,0,0,0,0,0,15,15,15,2,0,2,0,,,,,,,,,,,,,,,,,,,,,,,,,,,,,,,,,,,,,,,,,,,,,,,,,,,,,,,,,,,,,,,,30,,,,,,,,2649.0156602,2649.0156602,2649.0156602,2649.0156602,2649.0156602,up,0.4429709000000912,1,0,0,99,0.16,-0.15999999999999998,up,0.3497188000001188,,,,,,,,,,,,,,,,,,,,,,,,,,,,,,,,,,,,,,,,,,,,,,,,,,,,,,,,,,,,9Y53G3,train_y,red_square,bottom_left,2025-03-07_15h20.37.351,HideSeek_v1,2022.2.5,60.05039429083263,
,4,0,4,1,0,1,15,,train_dim1_1,16,30,,,,2,0,2,0,,,,,,,,,0,0,0,0,0,15,15,15,3,0,3,0,,,,,,,,,,,,,,,,,,,,,,,,,,,,,,,,,,,,,,,,,,,,,,,,,,,,,,,,,,,,,,,,30,,,,,,,,2649.4676305,2649.4676305,2649.4676305,2649.4676305,2649.4676305,up,0.41005649999988236,1,0,0,99,0.16,-0.07999999999999997,up,0.3208372000003692,,,,,,,,,,,,,,,,,,,,,,,,,,,,,,,,,,,,,,,,,,,,,,,,,,,,,,,,,,,,9Y53G3,train_y,red_square,bottom_left,2025-03-07_15h20.37.351,HideSeek_v1,2022.2.5,60.05039429083263,
,4,0,4,1,0,1,15,,train_dim1_1,16,30,,,,2,0,2,0,,,,,,,,,0,0,0,0,0,15,15,15,4,0,4,0,,,,,,,,,,,,,,,,,,,,,,,,,,,,,,,,,,,,,,,,,,,,,,,,,,,,,,,,,,,,,,,,30,,,,,,,,2649.8829195,2649.8829195,2649.8829195,2649.8829195,2649.8829195,up,0.4093480000001364,1,0,0,99,0.16,2.7755575615628914e-17,up,0.3213864999997895,,,,,,,,,,,,,,,,,,,,,,,,,,,,,,,,,,,,,,,,,,,,,,,,,,,,,,,,,,,,9Y53G3,train_y,red_square,bottom_left,2025-03-07_15h20.37.351,HideSeek_v1,2022.2.5,60.05039429083263,
,4,0,4,1,0,1,15,,train_dim1_1,16,30,,,,2,0,2,0,,,,,,,,,0,0,0,0,0,15,15,15,5,0,5,0,,,,,,,,,,,,,,,,,,,,,,,,,,,,,,,,,,,,,,,,,,,,,,,,,,,,,,,,,,,,,,,,30,,,,,,,,2650.3014139,2650.3014139,2650.3014139,2650.3014139,2650.3014139,return,0.42619429999967906,1,0,0,0,0.16,2.7755575615628914e-17,return,0.3368068999998286,37,21,0.16,2.7755575615628914e-17,,,,,,,,,,,,,,,,,,,,,,,,,,,,,,,,,,,,,,,,,,,,,,,,,,,,,,,,9Y53G3,train_y,red_square,bottom_left,2025-03-07_15h20.37.351,HideSeek_v1,2022.2.5,60.05039429083263,
,3,3,3,6,0,3,13,,train_dim1_1,17,30,,,,2,0,2,0,,,,,,,,,0,0,0,0,0,16,16,16,0,0,0,0,,,,,,,,,,,,,,,,,,,,,,,,,stimuli/alien_stimuli/13.png,,,,,,,,,,,,,,,,,,,,,,,,,,,,,stimuli/alien_stimuli/15.png,15,4,18,,,,,,,30,,,,,,,,2658.561895,2658.561895,2658.561895,2658.561895,2658.561895,right,3.991704199999731,1,0,0,99,0.16,-0.16,right,3.900104000000283,,,,,2657.0035392,2658.561895,0.16,-0.32,0.08,0.0,-0.36,0.16,0.16,0.16,-0.32,2652.2970773,2652.2970773,2652.2970773,2652.2970773,2652.2970773,2652.2970773,2652.2970773,2652.2970773,2652.2994149200003,4.8240169999999125,return,4.680201099999977,,,,,,,,,,,,,,,,,,,,,,,,,,,,,,,,,9Y53G3,train_y,red_square,bottom_left,2025-03-07_15h20.37.351,HideSeek_v1,2022.2.5,60.05039429083263,
,3,3,3,6,0,3,13,,train_dim1_1,17,30,,,,2,0,2,0,,,,,,,,,0,0,0,0,0,16,16,16,1,0,1,0,,,,,,,,,,,,,,,,,,,,,,,,,,,,,,,,,,,,,,,,,,,,,,,,,,,,,,,,,,,,,,,,30,,,,,,,,2662.5605021,2662.5605021,2662.5605021,2662.5605021,2662.5605021,right,0.5093085000003157,1,0,0,99,0.24,-0.16,right,0.4156647999998313,,,,,,,,,,,,,,,,,,,,,,,,,,,,,,,,,,,,,,,,,,,,,,,,,,,,,,,,,,,,9Y53G3,train_y,red_square,bottom_left,2025-03-07_15h20.37.351,HideSeek_v1,2022.2.5,60.05039429083263,
,3,3,3,6,0,3,13,,train_dim1_1,17,30,,,,2,0,2,0,,,,,,,,,0,0,0,0,0,16,16,16,2,0,2,0,,,,,,,,,,,,,,,,,,,,,,,,,,,,,,,,,,,,,,,,,,,,,,,,,,,,,,,,,,,,,,,,30,,,,,,,,2663.0766529,2663.0766529,2663.0766529,2663.0766529,2663.0766529,right,0.4765090999999302,1,0,0,99,0.32,-0.16,right,0.38734059999978854,,,,,,,,,,,,,,,,,,,,,,,,,,,,,,,,,,,,,,,,,,,,,,,,,,,,,,,,,,,,9Y53G3,train_y,red_square,bottom_left,2025-03-07_15h20.37.351,HideSeek_v1,2022.2.5,60.05039429083263,
,3,3,3,6,0,3,13,,train_dim1_1,17,30,,,,2,0,2,0,,,,,,,,,0,0,0,0,0,16,16,16,3,0,3,0,,,,,,,,,,,,,,,,,,,,,,,,,,,,,,,,,,,,,,,,,,,,,,,,,,,,,,,,,,,,,,,,30,,,,,,,,2663.5650102,2663.5650102,2663.5650102,2663.5650102,2663.5650102,left,3.2954045999999835,1,0,0,99,0.24,-0.16,left,3.210601300000235,,,,,,,,,,,,,,,,,,,,,,,,,,,,,,,,,,,,,,,,,,,,,,,,,,,,,,,,,,,,9Y53G3,train_y,red_square,bottom_left,2025-03-07_15h20.37.351,HideSeek_v1,2022.2.5,60.05039429083263,
,3,3,3,6,0,3,13,,train_dim1_1,17,30,,,,2,0,2,0,,,,,,,,,0,0,0,0,0,16,16,16,4,0,4,0,,,,,,,,,,,,,,,,,,,,,,,,,,,,,,,,,,,,,,,,,,,,,,,,,,,,,,,,,,,,,,,,30,,,,,,,,2666.8645344,2666.8645344,2666.8645344,2666.8645344,2666.8645344,left,0.526523300000008,1,0,0,99,0.15999999999999998,-0.16,left,0.4408651000003374,,,,,,,,,,,,,,,,,,,,,,,,,,,,,,,,,,,,,,,,,,,,,,,,,,,,,,,,,,,,9Y53G3,train_y,red_square,bottom_left,2025-03-07_15h20.37.351,HideSeek_v1,2022.2.5,60.05039429083263,
,3,3,3,6,0,3,13,,train_dim1_1,17,30,,,,2,0,2,0,,,,,,,,,0,0,0,0,0,16,16,16,5,0,5,0,,,,,,,,,,,,,,,,,,,,,,,,,,,,,,,,,,,,,,,,,,,,,,,,,,,,,,,,,,,,,,,,30,,,,,,,,2667.3988715,2667.3988715,2667.3988715,2667.3988715,2667.3988715,return,1.5103048999999373,1,0,0,0,0.15999999999999998,-0.16,return,1.4228370999994695,37,22,0.15999999999999998,-0.16,,,,,,,,,,,,,,,,,,,,,,,,,,,,,,,,,,,,,,,,,,,,,,,,,,,,,,,,9Y53G3,train_y,red_square,bottom_left,2025-03-07_15h20.37.351,HideSeek_v1,2022.2.5,60.05039429083263,
,2,1,2,6,0,5,11,,train_dim1_1,18,30,,,,2,0,2,0,,,,,,,,,0,0,0,0,0,17,17,17,0,0,0,0,,,,,,,,,,,,,,,,,,,,,,,,,stimuli/alien_stimuli/11.png,,,,,,,,,,,,,,,,,,,,,,,,,,,,,stimuli/alien_stimuli/13.png,13,3,19,,,,,,,30,,,,,,,,2677.2106518,2677.2106518,2677.2106518,2677.2106518,2677.2106518,up,5.560362400000031,1,0,0,99,0,-0.24,up,5.479482599999756,,,,,2675.6510814,2677.2106518,0.08,0.08,0.24,0.0,-0.04,0.08,0.08,0.08,0.08,2670.4822178,2670.4822178,2670.4822178,2670.4822178,2670.4822178,2670.4822178,2670.4822178,2670.4822178,2670.4814722200003,5.2901739000003545,return,5.153775499999938,,,,,,,,,,,,,,,,,,,,,,,,,,,,,,,,,9Y53G3,train_y,red_square,bottom_left,2025-03-07_15h20.37.351,HideSeek_v1,2022.2.5,60.05039429083263,
,2,1,2,6,0,5,11,,train_dim1_1,18,30,,,,2,0,2,0,,,,,,,,,0,0,0,0,0,17,17,17,1,0,1,0,,,,,,,,,,,,,,,,,,,,,,,,,,,,,,,,,,,,,,,,,,,,,,,,,,,,,,,,,,,,,,,,30,,,,,,,,2682.7784114,2682.7784114,2682.7784114,2682.7784114,2682.7784114,return,0.5928342000001976,1,0,0,0,0,-0.24,return,0.5018731999998636,38,22,0,-0.24,,,,,,,,,,,,,,,,,,,,,,,,,,,,,,,,,,,,,,,,,,,,,,,,,,,,,,,,9Y53G3,train_y,red_square,bottom_left,2025-03-07_15h20.37.351,HideSeek_v1,2022.2.5,60.05039429083263,
,0,4,0,8,0,4,12,,train_dim1_1,19,30,,,,2,0,2,0,,,,,,,,,0,0,0,0,0,18,18,18,0,0,0,0,,,,,,,,,,,,,,,,,,,,,,,,,stimuli/alien_stimuli/12.png,,,,,,,,,,,,,,,,,,,,,,,,,,,,,stimuli/alien_stimuli/11.png,11,2,20,,,,,,,30,,,,,,,,2689.6208427,2689.6208427,2689.6208427,2689.6208427,2689.6208427,right,13.583227999999963,1,0,0,99,-0.08,-0.08,right,13.503074900000229,,,,,2688.0622151000002,2689.6208427,0,0.08,0.4,0.0,-0.12,0,0.0,0,0.08,2684.9443977,2684.9443977,2684.9443977,2684.9443977,2684.9443977,2684.9443977,2684.9443977,2684.9443977,2684.9432778200003,3.238241100000323,return,3.095771799999966,,,,,,,,,,,,,,,,,,,,,,,,,,,,,,,,,9Y53G3,train_y,red_square,bottom_left,2025-03-07_15h20.37.351,HideSeek_v1,2022.2.5,60.05039429083263,
,0,4,0,8,0,4,12,,train_dim1_1,19,30,,,,2,0,2,0,,,,,,,,,0,0,0,0,0,18,18,18,1,0,1,0,,,,,,,,,,,,,,,,,,,,,,,,,,,,,,,,,,,,,,,,,,,,,,,,,,,,,,,,,,,,,,,,30,,,,,,,,2703.2210229,2703.2210229,2703.2210229,2703.2210229,2703.2210229,right,0.2587527000000591,1,0,0,99,0.0,-0.08,right,0.16504230000009557,,,,,,,,,,,,,,,,,,,,,,,,,,,,,,,,,,,,,,,,,,,,,,,,,,,,,,,,,,,,9Y53G3,train_y,red_square,bottom_left,2025-03-07_15h20.37.351,HideSeek_v1,2022.2.5,60.05039429083263,
,0,4,0,8,0,4,12,,train_dim1_1,19,30,,,,2,0,2,0,,,,,,,,,0,0,0,0,0,18,18,18,2,0,2,0,,,,,,,,,,,,,,,,,,,,,,,,,,,,,,,,,,,,,,,,,,,,,,,,,,,,,,,,,,,,,,,,30,,,,,,,,2703.4812244,2703.4812244,2703.4812244,2703.4812244,2703.4812244,return,1.2934642000000167,1,0,0,0,0.0,-0.08,return,1.211910899999566,38,24,0.0,-0.08,,,,,,,,,,,,,,,,,,,,,,,,,,,,,,,,,,,,,,,,,,,,,,,,,,,,,,,,9Y53G3,train_y,red_square,bottom_left,2025-03-07_15h20.37.351,HideSeek_v1,2022.2.5,60.05039429083263,
,2,0,2,0,0,0,16,,train_dim1_1,20,30,,,,2,0,2,0,,,,,,,,,0,0,0,0,0,19,19,19,0,0,0,0,,,,,,,,,,,,,,,,,,,,,,,,,stimuli/alien_stimuli/16.png,,,,,,,,,,,,,,,,,,,,,,,,,,,,,stimuli/alien_stimuli/12.png,12,0,21,,,,,,,30,,,,,,,,2711.5889128,2711.5889128,2711.5889128,2711.5889128,2711.5889128,up,3.72528229999989,1,0,0,99,0,-0.32,up,3.646222399999715,,,,,2710.0298368,2711.5889128,-0.16,0.24,0.32,0.0,0.07999999999999999,-0.16,-0.16,-0.16,0.24,2706.3464516,2706.3464516,2706.3464516,2706.3464516,2706.3464516,2706.3464516,2706.3464516,2706.3464516,2706.34440032,3.804870899999969,return,3.6596372999997584,,,,,,,,,,,,,,,,,,,,,,,,,,,,,,,,,9Y53G3,train_y,red_square,bottom_left,2025-03-07_15h20.37.351,HideSeek_v1,2022.2.5,60.05039429083263,
,2,0,2,0,0,0,16,,train_dim1_1,20,30,,,,2,0,2,0,,,,,,,,,0,0,0,0,0,19,19,19,1,0,1,0,,,,,,,,,,,,,,,,,,,,,,,,,,,,,,,,,,,,,,,,,,,,,,,,,,,,,,,,,,,,,,,,30,,,,,,,,2715.3212515,2715.3212515,2715.3212515,2715.3212515,2715.3212515,up,0.542342500000359,1,0,0,99,0,-0.24,up,0.45834319999949,,,,,,,,,,,,,,,,,,,,,,,,,,,,,,,,,,,,,,,,,,,,,,,,,,,,,,,,,,,,9Y53G3,train_y,red_square,bottom_left,2025-03-07_15h20.37.351,HideSeek_v1,2022.2.5,60.05039429083263,
,2,0,2,0,0,0,16,,train_dim1_1,20,30,,,,2,0,2,0,,,,,,,,,0,0,0,0,0,19,19,19,2,0,2,0,,,,,,,,,,,,,,,,,,,,,,,,,,,,,,,,,,,,,,,,,,,,,,,,,,,,,,,,,,,,,,,,30,,,,,,,,2715.87453,2715.87453,2715.87453,2715.87453,2715.87453,up,2.8430045000000064,1,0,0,99,0,-0.15999999999999998,up,2.7536651000004895,,,,,,,,,,,,,,,,,,,,,,,,,,,,,,,,,,,,,,,,,,,,,,,,,,,,,,,,,,,,9Y53G3,train_y,red_square,bottom_left,2025-03-07_15h20.37.351,HideSeek_v1,2022.2.5,60.05039429083263,
,2,0,2,0,0,0,16,,train_dim1_1,20,30,,,,2,0,2,0,,,,,,,,,0,0,0,0,0,19,19,19,3,0,3,0,,,,,,,,,,,,,,,,,,,,,,,,,,,,,,,,,,,,,,,,,,,,,,,,,,,,,,,,,,,,,,,,30,,,,,,,,2718.723687,2718.723687,2718.723687,2718.723687,2718.723687,up,0.4762654000001021,1,0,0,99,0,-0.07999999999999997,up,0.39331829999991896,,,,,,,,,,,,,,,,,,,,,,,,,,,,,,,,,,,,,,,,,,,,,,,,,,,,,,,,,,,,9Y53G3,train_y,red_square,bottom_left,2025-03-07_15h20.37.351,HideSeek_v1,2022.2.5,60.05039429083263,
,2,0,2,0,0,0,16,,train_dim1_1,20,30,,,,2,0,2,0,,,,,,,,,0,0,0,0,0,19,19,19,4,0,4,0,,,,,,,,,,,,,,,,,,,,,,,,,,,,,,,,,,,,,,,,,,,,,,,,,,,,,,,,,,,,,,,,30,,,,,,,,2719.2074000000002,2719.2074000000002,2719.2074000000002,2719.2074000000002,2719.2074000000002,up,0.3925804999998945,1,0,0,99,0,2.7755575615628914e-17,up,0.29930100000001403,,,,,,,,,,,,,,,,,,,,,,,,,,,,,,,,,,,,,,,,,,,,,,,,,,,,,,,,,,,,9Y53G3,train_y,red_square,bottom_left,2025-03-07_15h20.37.351,HideSeek_v1,2022.2.5,60.05039429083263,
,2,0,2,0,0,0,16,,train_dim1_1,20,30,,,,2,0,2,0,,,,,,,,,0,0,0,0,0,19,19,19,5,0,5,0,,,,,,,,,,,,,,,,,,,,,,,,,,,,,,,,,,,,,,,,,,,,,,,,,,,,,,,,,,,,,,,,30,,,,,,,,2719.6103475,2719.6103475,2719.6103475,2719.6103475,2719.6103475,return,0.4936868999998296,1,0,0,0,0,2.7755575615628914e-17,return,0.4018303999996533,43,24,0,2.7755575615628914e-17,,,,,,,,,,,,,,,,,,,,,,,,,,,,,,,,,,,,,,,,,,,,,,,,,,,,,,,,9Y53G3,train_y,red_square,bottom_left,2025-03-07_15h20.37.351,HideSeek_v1,2022.2.5,60.05039429083263,
,2,4,2,5,0,1,15,,train_dim1_1,21,30,,,,2,0,2,0,,,,,,,,,0,0,0,0,0,20,20,20,0,0,0,0,,,,,,,,,,,,,,,,,,,,,,,,,stimuli/alien_stimuli/15.png,,,,,,,,,,,,,,,,,,,,,,,,,,,,,stimuli/alien_stimuli/16.png,16,2,22,,,,,,,30,,,,,,,,2725.6355454,2725.6355454,2725.6355454,2725.6355454,2725.6355454,right,2.156480399999964,1,0,0,99,0.08,-0.08,right,2.067688700000417,,,,,2724.0774752,2725.6355454,0,-0.4,0.0,0.0,-0.4,0,0.0,0,-0.4,2721.6774441000002,2721.6774441000002,2721.6774441000002,2721.6774441000002,2721.6774441000002,2721.6774441000002,2721.6774441000002,2721.6774441000002,2721.6737016200004,2.522772100000111,return,2.3714641000001393,,,,,,,,,,,,,,,,,,,,,,,,,,,,,,,,,9Y53G3,train_y,red_square,bottom_left,2025-03-07_15h20.37.351,HideSeek_v1,2022.2.5,60.05039429083263,
,2,4,2,5,0,1,15,,train_dim1_1,21,30,,,,2,0,2,0,,,,,,,,,0,0,0,0,0,20,20,20,1,0,1,0,,,,,,,,,,,,,,,,,,,,,,,,,,,,,,,,,,,,,,,,,,,,,,,,,,,,,,,,,,,,,,,,30,,,,,,,,2727.7989759,2727.7989759,2727.7989759,2727.7989759,2727.7989759,right,0.9097259000000122,1,0,0,99,0.16,-0.08,right,0.8167569999995976,,,,,,,,,,,,,,,,,,,,,,,,,,,,,,,,,,,,,,,,,,,,,,,,,,,,,,,,,,,,9Y53G3,train_y,red_square,bottom_left,2025-03-07_15h20.37.351,HideSeek_v1,2022.2.5,60.05039429083263,
,2,4,2,5,0,1,15,,train_dim1_1,21,30,,,,2,0,2,0,,,,,,,,,0,0,0,0,0,20,20,20,2,0,2,0,,,,,,,,,,,,,,,,,,,,,,,,,,,,,,,,,,,,,,,,,,,,,,,,,,,,,,,,,,,,,,,,30,,,,,,,,2728.7156559,2728.7156559,2728.7156559,2728.7156559,2728.7156559,right,0.8267528000001221,1,0,0,99,0.24,-0.08,right,0.7392534999999043,,,,,,,,,,,,,,,,,,,,,,,,,,,,,,,,,,,,,,,,,,,,,,,,,,,,,,,,,,,,9Y53G3,train_y,red_square,bottom_left,2025-03-07_15h20.37.351,HideSeek_v1,2022.2.5,60.05039429083263,
,2,4,2,5,0,1,15,,train_dim1_1,21,30,,,,2,0,2,0,,,,,,,,,0,0,0,0,0,20,20,20,3,0,3,0,,,,,,,,,,,,,,,,,,,,,,,,,,,,,,,,,,,,,,,,,,,,,,,,,,,,,,,,,,,,,,,,30,,,,,,,,2729.5515530000002,2729.5515530000002,2729.5515530000002,2729.5515530000002,2729.5515530000002,up,2.1445787999996355,1,0,0,99,0.24,0.0,up,2.0522071000000324,,,,,,,,,,,,,,,,,,,,,,,,,,,,,,,,,,,,,,,,,,,,,,,,,,,,,,,,,,,,9Y53G3,train_y,red_square,bottom_left,2025-03-07_15h20.37.351,HideSeek_v1,2022.2.5,60.05039429083263,
,2,4,2,5,0,1,15,,train_dim1_1,21,30,,,,2,0,2,0,,,,,,,,,0,0,0,0,0,20,20,20,4,0,4,0,,,,,,,,,,,,,,,,,,,,,,,,,,,,,,,,,,,,,,,,,,,,,,,,,,,,,,,,,,,,,,,,30,,,,,,,,2731.7045578,2731.7045578,2731.7045578,2731.7045578,2731.7045578,up,0.508690299999671,1,0,0,99,0.24,0.08,up,0.4176020000004428,,,,,,,,,,,,,,,,,,,,,,,,,,,,,,,,,,,,,,,,,,,,,,,,,,,,,,,,,,,,9Y53G3,train_y,red_square,bottom_left,2025-03-07_15h20.37.351,HideSeek_v1,2022.2.5,60.05039429083263,
,2,4,2,5,0,1,15,,train_dim1_1,21,30,,,,2,0,2,0,,,,,,,,,0,0,0,0,0,20,20,20,5,0,5,0,,,,,,,,,,,,,,,,,,,,,,,,,,,,,,,,,,,,,,,,,,,,,,,,,,,,,,,,,,,,,,,,30,,,,,,,,2732.2171709,2732.2171709,2732.2171709,2732.2171709,2732.2171709,up,1.7942485999997189,1,0,0,99,0.24,0.16,up,1.7070628999999826,,,,,,,,,,,,,,,,,,,,,,,,,,,,,,,,,,,,,,,,,,,,,,,,,,,,,,,,,,,,9Y53G3,train_y,red_square,bottom_left,2025-03-07_15h20.37.351,HideSeek_v1,2022.2.5,60.05039429083263,
,2,4,2,5,0,1,15,,train_dim1_1,21,30,,,,2,0,2,0,,,,,,,,,0,0,0,0,0,20,20,20,6,0,6,0,,,,,,,,,,,,,,,,,,,,,,,,,,,,,,,,,,,,,,,,,,,,,,,,,,,,,,,,,,,,,,,,30,,,,,,,,2734.0194679,2734.0194679,2734.0194679,2734.0194679,2734.0194679,left,1.4948357000002943,1,0,0,99,0.15999999999999998,0.16,left,1.4100988999998663,,,,,,,,,,,,,,,,,,,,,,,,,,,,,,,,,,,,,,,,,,,,,,,,,,,,,,,,,,,,9Y53G3,train_y,red_square,bottom_left,2025-03-07_15h20.37.351,HideSeek_v1,2022.2.5,60.05039429083263,
,2,4,2,5,0,1,15,,train_dim1_1,21,30,,,,2,0,2,0,,,,,,,,,0,0,0,0,0,20,20,20,7,0,7,0,,,,,,,,,,,,,,,,,,,,,,,,,,,,,,,,,,,,,,,,,,,,,,,,,,,,,,,,,,,,,,,,30,,,,,,,,2735.521345,2735.521345,2735.521345,2735.521345,2735.521345,left,0.9599192000000585,1,0,0,99,0.07999999999999997,0.16,left,0.8755658999998559,,,,,,,,,,,,,,,,,,,,,,,,,,,,,,,,,,,,,,,,,,,,,,,,,,,,,,,,,,,,9Y53G3,train_y,red_square,bottom_left,2025-03-07_15h20.37.351,HideSeek_v1,2022.2.5,60.05039429083263,
,2,4,2,5,0,1,15,,train_dim1_1,21,30,,,,2,0,2,0,,,,,,,,,0,0,0,0,0,20,20,20,8,0,8,0,,,,,,,,,,,,,,,,,,,,,,,,,,,,,,,,,,,,,,,,,,,,,,,,,,,,,,,,,,,,,,,,30,,,,,,,,2736.4888168,2736.4888168,2736.4888168,2736.4888168,2736.4888168,left,0.5097444999996696,1,0,0,99,-2.7755575615628914e-17,0.16,left,0.4278079999999136,,,,,,,,,,,,,,,,,,,,,,,,,,,,,,,,,,,,,,,,,,,,,,,,,,,,,,,,,,,,9Y53G3,train_y,red_square,bottom_left,2025-03-07_15h20.37.351,HideSeek_v1,2022.2.5,60.05039429083263,
,2,4,2,5,0,1,15,,train_dim1_1,21,30,,,,2,0,2,0,,,,,,,,,0,0,0,0,0,20,20,20,9,0,9,0,,,,,,,,,,,,,,,,,,,,,,,,,,,,,,,,,,,,,,,,,,,,,,,,,,,,,,,,,,,,,,,,30,,,,,,,,2737.0055339,2737.0055339,2737.0055339,2737.0055339,2737.0055339,return,9.951327400000082,1,0,0,0,-2.7755575615628914e-17,0.16,return,9.869085300000279,46,24,-2.7755575615628914e-17,0.16,,,,,,,,,,,,,,,,,,,,,,,,,,,,,,,,,,,,,,,,,,,,,,,,,,,,,,,,9Y53G3,train_y,red_square,bottom_left,2025-03-07_15h20.37.351,HideSeek_v1,2022.2.5,60.05039429083263,
,0,2,0,5,0,3,13,,train_dim1_1,22,30,,,,2,0,2,0,,,,,,,,,0,0,0,0,0,21,21,21,0,0,0,0,,,,,,,,,,,,,,,,,,,,,,,,,stimuli/alien_stimuli/13.png,,,,,,,,,,,,,,,,,,,,,,,,,,,,,stimuli/alien_stimuli/15.png,15,2,23,,,,,,,30,,,,,,,,2753.2240459,2753.2240459,2753.2240459,2753.2240459,2753.2240459,right,4.8588927000000695,1,0,0,99,-0.08,-0.24,right,4.777833000000101,,,,,2751.6669542,2753.2240459,0,0,0.08,0.0,-0.04,0,0.0,0,0,2748.5455116,2748.5455116,2748.5455116,2748.5455116,2748.5455116,2748.5455116,2748.5455116,2748.5455116,2748.5458175100002,3.2573374999997213,return,3.0899929999995948,,,,,,,,,,,,,,,,,,,,,,,,,,,,,,,,,9Y53G3,train_y,red_square,bottom_left,2025-03-07_15h20.37.351,HideSeek_v1,2022.2.5,60.05039429083263,
,0,2,0,5,0,3,13,,train_dim1_1,22,30,,,,2,0,2,0,,,,,,,,,0,0,0,0,0,21,21,21,1,0,1,0,,,,,,,,,,,,,,,,,,,,,,,,,,,,,,,,,,,,,,,,,,,,,,,,,,,,,,,,,,,,,,,,30,,,,,,,,2758.0899715,2758.0899715,2758.0899715,2758.0899715,2758.0899715,right,1.2097893999998632,1,0,0,99,0.0,-0.24,right,1.1298243000001094,,,,,,,,,,,,,,,,,,,,,,,,,,,,,,,,,,,,,,,,,,,,,,,,,,,,,,,,,,,,9Y53G3,train_y,red_square,bottom_left,2025-03-07_15h20.37.351,HideSeek_v1,2022.2.5,60.05039429083263,
,0,2,0,5,0,3,13,,train_dim1_1,22,30,,,,2,0,2,0,,,,,,,,,0,0,0,0,0,21,21,21,2,0,2,0,,,,,,,,,,,,,,,,,,,,,,,,,,,,,,,,,,,,,,,,,,,,,,,,,,,,,,,,,,,,,,,,30,,,,,,,,2759.3079864,2759.3079864,2759.3079864,2759.3079864,2759.3079864,left,3.8963463000000047,1,0,0,99,-0.08,-0.24,left,3.810335799999393,,,,,,,,,,,,,,,,,,,,,,,,,,,,,,,,,,,,,,,,,,,,,,,,,,,,,,,,,,,,9Y53G3,train_y,red_square,bottom_left,2025-03-07_15h20.37.351,HideSeek_v1,2022.2.5,60.05039429083263,
,0,2,0,5,0,3,13,,train_dim1_1,22,30,,,,2,0,2,0,,,,,,,,,0,0,0,0,0,21,21,21,3,0,3,0,,,,,,,,,,,,,,,,,,,,,,,,,,,,,,,,,,,,,,,,,,,,,,,,,,,,,,,,,,,,,,,,30,,,,,,,,2763.2139323,2763.2139323,2763.2139323,2763.2139323,2763.2139323,left,0.29256359999999404,1,0,0,99,-0.16,-0.24,left,0.20215409999991607,,,,,,,,,,,,,,,,,,,,,,,,,,,,,,,,,,,,,,,,,,,,,,,,,,,,,,,,,,,,9Y53G3,train_y,red_square,bottom_left,2025-03-07_15h20.37.351,HideSeek_v1,2022.2.5,60.05039429083263,
,0,2,0,5,0,3,13,,train_dim1_1,22,30,,,,2,0,2,0,,,,,,,,,0,0,0,0,0,21,21,21,4,0,4,0,,,,,,,,,,,,,,,,,,,,,,,,,,,,,,,,,,,,,,,,,,,,,,,,,,,,,,,,,,,,,,,,30,,,,,,,,2763.5118221000002,2763.5118221000002,2763.5118221000002,2763.5118221000002,2763.5118221000002,up,0.9268176999999014,1,0,0,99,-0.16,-0.15999999999999998,up,0.8481890999996722,,,,,,,,,,,,,,,,,,,,,,,,,,,,,,,,,,,,,,,,,,,,,,,,,,,,,,,,,,,,9Y53G3,train_y,red_square,bottom_left,2025-03-07_15h20.37.351,HideSeek_v1,2022.2.5,60.05039429083263,
,0,2,0,5,0,3,13,,train_dim1_1,22,30,,,,2,0,2,0,,,,,,,,,0,0,0,0,0,21,21,21,5,0,5,0,,,,,,,,,,,,,,,,,,,,,,,,,,,,,,,,,,,,,,,,,,,,,,,,,,,,,,,,,,,,,,,,30,,,,,,,,2764.4451942,2764.4451942,2764.4451942,2764.4451942,2764.4451942,up,0.47600020000027143,1,0,0,99,-0.16,-0.07999999999999997,up,0.38672889999998006,,,,,,,,,,,,,,,,,,,,,,,,,,,,,,,,,,,,,,,,,,,,,,,,,,,,,,,,,,,,9Y53G3,train_y,red_square,bottom_left,2025-03-07_15h20.37.351,HideSeek_v1,2022.2.5,60.05039429083263,
,0,2,0,5,0,3,13,,train_dim1_1,22,30,,,,2,0,2,0,,,,,,,,,0,0,0,0,0,21,21,21,6,0,6,0,,,,,,,,,,,,,,,,,,,,,,,,,,,,,,,,,,,,,,,,,,,,,,,,,,,,,,,,,,,,,,,,30,,,,,,,,2764.9267099,2764.9267099,2764.9267099,2764.9267099,2764.9267099,up,0.46036150000009,1,0,0,99,-0.16,2.7755575615628914e-17,up,0.3788555000000997,,,,,,,,,,,,,,,,,,,,,,,,,,,,,,,,,,,,,,,,,,,,,,,,,,,,,,,,,,,,9Y53G3,train_y,red_square,bottom_left,2025-03-07_15h20.37.351,HideSeek_v1,2022.2.5,60.05039429083263,
,0,2,0,5,0,3,13,,train_dim1_1,22,30,,,,2,0,2,0,,,,,,,,,0,0,0,0,0,21,21,21,7,0,7,0,,,,,,,,,,,,,,,,,,,,,,,,,,,,,,,,,,,,,,,,,,,,,,,,,,,,,,,,,,,,,,,,30,,,,,,,,2765.3971736,2765.3971736,2765.3971736,2765.3971736,2765.3971736,return,0.47605300000032,2,0,0,1,-0.16,2.7755575615628914e-17,return,0.3877569000001131,49,24,-0.16,2.7755575615628914e-17,,,,,,,,,,,,,,,,,,,,,,,,,,,,,,,,,,,,,,,,,,,,,,,,,,,,,,,,9Y53G3,train_y,red_square,bottom_left,2025-03-07_15h20.37.351,HideSeek_v1,2022.2.5,60.05039429083263,
,0,3,0,8,0,5,11,,train_dim1_1,23,30,,,,2,0,2,0,,,,,,,,,0,0,0,0,0,22,22,22,0,0,0,0,,,,,,,,,,,,,,,,,,,,,,,,,stimuli/alien_stimuli/11.png,,,,,,,,,,,,,,,,,,,,,,,,,,,,,stimuli/alien_stimuli/13.png,13,0,24,,,,,,,30,,,,,,,,2773.9080812,2773.9080812,2773.9080812,2773.9080812,2773.9080812,up,7.277574300000197,2,0,0,99,-0.16,-0.08,up,7.198748099999648,,,,,2772.3481666000002,2773.9080812,-0.16,0,0.24,0.0,-0.12,-0.16,-0.16,-0.16,0,2767.4613601,2767.4613601,2767.4613601,2767.4613601,2767.4613601,2767.4613601,2767.4613601,2767.4613601,2767.46179342,5.007041100000151,return,4.86293969999997,,,,,,,,,,,,,,,,,,,,,,,,,,,,,,,,,9Y53G3,train_y,red_square,bottom_left,2025-03-07_15h20.37.351,HideSeek_v1,2022.2.5,60.05039429083263,
,0,3,0,8,0,5,11,,train_dim1_1,23,30,,,,2,0,2,0,,,,,,,,,0,0,0,0,0,22,22,22,1,0,1,0,,,,,,,,,,,,,,,,,,,,,,,,,,,,,,,,,,,,,,,,,,,,,,,,,,,,,,,,,,,,,,,,30,,,,,,,,2781.1954108,2781.1954108,2781.1954108,2781.1954108,2781.1954108,up,0.3422248000001673,2,0,0,99,-0.16,0.0,up,0.24861040000041612,,,,,,,,,,,,,,,,,,,,,,,,,,,,,,,,,,,,,,,,,,,,,,,,,,,,,,,,,,,,9Y53G3,train_y,red_square,bottom_left,2025-03-07_15h20.37.351,HideSeek_v1,2022.2.5,60.05039429083263,
,0,3,0,8,0,5,11,,train_dim1_1,23,30,,,,2,0,2,0,,,,,,,,,0,0,0,0,0,22,22,22,2,0,2,0,,,,,,,,,,,,,,,,,,,,,,,,,,,,,,,,,,,,,,,,,,,,,,,,,,,,,,,,,,,,,,,,30,,,,,,,,2781.5465635,2781.5465635,2781.5465635,2781.5465635,2781.5465635,up,0.3080980999998246,2,0,0,99,-0.16,0.08,up,0.21457269999973505,,,,,,,,,,,,,,,,,,,,,,,,,,,,,,,,,,,,,,,,,,,,,,,,,,,,,,,,,,,,9Y53G3,train_y,red_square,bottom_left,2025-03-07_15h20.37.351,HideSeek_v1,2022.2.5,60.05039429083263,
,0,3,0,8,0,5,11,,train_dim1_1,23,30,,,,2,0,2,0,,,,,,,,,0,0,0,0,0,22,22,22,3,0,3,0,,,,,,,,,,,,,,,,,,,,,,,,,,,,,,,,,,,,,,,,,,,,,,,,,,,,,,,,,,,,,,,,30,,,,,,,,2781.8609721000003,2781.8609721000003,2781.8609721000003,2781.8609721000003,2781.8609721000003,up,0.3610252999997101,2,0,0,99,-0.16,0.16,up,0.27022880000049554,,,,,,,,,,,,,,,,,,,,,,,,,,,,,,,,,,,,,,,,,,,,,,,,,,,,,,,,,,,,9Y53G3,train_y,red_square,bottom_left,2025-03-07_15h20.37.351,HideSeek_v1,2022.2.5,60.05039429083263,
,0,3,0,8,0,5,11,,train_dim1_1,23,30,,,,2,0,2,0,,,,,,,,,0,0,0,0,0,22,22,22,4,0,4,0,,,,,,,,,,,,,,,,,,,,,,,,,,,,,,,,,,,,,,,,,,,,,,,,,,,,,,,,,,,,,,,,30,,,,,,,,2782.2280521000002,2782.2280521000002,2782.2280521000002,2782.2280521000002,2782.2280521000002,return,0.9096967999998924,2,1,0,0,-0.16,0.16,return,0.8279953999995087,53,24,-0.16,0.16,,,,,,,,,,,,,,,,,,,,,,,,,,,,,,,,,,,,,,,,,,,,,,,,,,,,,,,,9Y53G3,train_y,red_square,bottom_left,2025-03-07_15h20.37.351,HideSeek_v1,2022.2.5,60.05039429083263,
,3,2,3,2,0,0,16,,train_dim1_1,24,30,,,,2,0,2,0,,,,,,,,,0,0,0,0,0,23,23,23,0,0,0,0,,,,,,,,,,,,,,,,,,,,,,,,,stimuli/alien_stimuli/16.png,,,,,,,,,,,,,,,,,,,,,,,,,,,,,stimuli/alien_stimuli/11.png,11,0,25,,,,,,,30,,,,,,,,2789.6552656,2789.6552656,2789.6552656,2789.6552656,2789.6552656,up,3.374338600000101,2,1,0,99,0.08,-0.15999999999999998,up,3.279219999999441,,,,,2788.096711,2789.6552656,-0.16,0.24,0.4,0.0,0.039999999999999994,-0.16,-0.16,-0.16,0.24,2784.7089739,2784.7089739,2784.7089739,2784.7089739,2784.7089739,2784.7089739,2784.7089739,2784.7089739,2784.70907952,3.506747699999778,return,3.362837700000455,,,,,,,,,,,,,,,,,,,,,,,,,,,,,,,,,9Y53G3,train_y,red_square,bottom_left,2025-03-07_15h20.37.351,HideSeek_v1,2022.2.5,60.05039429083263,
,3,2,3,2,0,0,16,,train_dim1_1,24,30,,,,2,0,2,0,,,,,,,,,0,0,0,0,0,23,23,23,1,0,1,0,,,,,,,,,,,,,,,,,,,,,,,,,,,,,,,,,,,,,,,,,,,,,,,,,,,,,,,,,,,,,,,,30,,,,,,,,2793.0375548,2793.0375548,2793.0375548,2793.0375548,2793.0375548,up,0.4594108999999662,2,1,0,99,0.08,-0.07999999999999997,up,0.3717420000002676,,,,,,,,,,,,,,,,,,,,,,,,,,,,,,,,,,,,,,,,,,,,,,,,,,,,,,,,,,,,9Y53G3,train_y,red_square,bottom_left,2025-03-07_15h20.37.351,HideSeek_v1,2022.2.5,60.05039429083263,
,3,2,3,2,0,0,16,,train_dim1_1,24,30,,,,2,0,2,0,,,,,,,,,0,0,0,0,0,23,23,23,2,0,2,0,,,,,,,,,,,,,,,,,,,,,,,,,,,,,,,,,,,,,,,,,,,,,,,,,,,,,,,,,,,,,,,,30,,,,,,,,2793.5061366,2793.5061366,2793.5061366,2793.5061366,2793.5061366,up,0.4260189999999966,2,1,0,99,0.08,2.7755575615628914e-17,up,0.3315028000001803,,,,,,,,,,,,,,,,,,,,,,,,,,,,,,,,,,,,,,,,,,,,,,,,,,,,,,,,,,,,9Y53G3,train_y,red_square,bottom_left,2025-03-07_15h20.37.351,HideSeek_v1,2022.2.5,60.05039429083263,
,3,2,3,2,0,0,16,,train_dim1_1,24,30,,,,2,0,2,0,,,,,,,,,0,0,0,0,0,23,23,23,3,0,3,0,,,,,,,,,,,,,,,,,,,,,,,,,,,,,,,,,,,,,,,,,,,,,,,,,,,,,,,,,,,,,,,,30,,,,,,,,2793.9382872,2793.9382872,2793.9382872,2793.9382872,2793.9382872,up,0.37476680000008855,2,1,0,99,0.08,0.08000000000000003,up,0.2895344999997178,,,,,,,,,,,,,,,,,,,,,,,,,,,,,,,,,,,,,,,,,,,,,,,,,,,,,,,,,,,,9Y53G3,train_y,red_square,bottom_left,2025-03-07_15h20.37.351,HideSeek_v1,2022.2.5,60.05039429083263,
,3,2,3,2,0,0,16,,train_dim1_1,24,30,,,,2,0,2,0,,,,,,,,,0,0,0,0,0,23,23,23,4,0,4,0,,,,,,,,,,,,,,,,,,,,,,,,,,,,,,,,,,,,,,,,,,,,,,,,,,,,,,,,,,,,,,,,30,,,,,,,,2794.3219267,2794.3219267,2794.3219267,2794.3219267,2794.3219267,up,0.37647599999991144,2,1,0,99,0.08,0.16000000000000003,up,0.28625289999990855,,,,,,,,,,,,,,,,,,,,,,,,,,,,,,,,,,,,,,,,,,,,,,,,,,,,,,,,,,,,9Y53G3,train_y,red_square,bottom_left,2025-03-07_15h20.37.351,HideSeek_v1,2022.2.5,60.05039429083263,
,3,2,3,2,0,0,16,,train_dim1_1,24,30,,,,2,0,2,0,,,,,,,,,0,0,0,0,0,23,23,23,5,0,5,0,,,,,,,,,,,,,,,,,,,,,,,,,,,,,,,,,,,,,,,,,,,,,,,,,,,,,,,,,,,,,,,,30,,,,,,,,2794.7043007,2794.7043007,2794.7043007,2794.7043007,2794.7043007,return,1.0938969999997425,2,0,0,0,0.08,0.16000000000000003,return,1.0014614999995501,58,24,0.08,0.16000000000000003,,,,,,,,,,,,,,,,,,,,,,,,,,,,,,,,,,,,,,,,,,,,,,,,,,,,,,,,9Y53G3,train_y,red_square,bottom_left,2025-03-07_15h20.37.351,HideSeek_v1,2022.2.5,60.05039429083263,
,3,3,3,7,0,4,12,,train_dim1_1,25,30,,,,2,0,2,0,,,,,,,,,0,0,0,0,0,24,24,24,0,0,0,0,,,,,,,,,,,,,,,,,,,,,,,,,stimuli/alien_stimuli/12.png,,,,,,,,,,,,,,,,,,,,,,,,,,,,,stimuli/alien_stimuli/16.png,16,3,26,,,,,,,30,,,,,,,,2801.6648647,2801.6648647,2801.6648647,2801.6648647,2801.6648647,up,9.22893350000004,2,0,0,99,0.08,-0.08,up,9.14763690000018,,,,,2800.1048455,2801.6648647,0.08,-0.24,0.0,0.0,-0.24,0.08,0.08,0.08,-0.24,2797.3546315,2797.3546315,2797.3546315,2797.3546315,2797.3546315,2797.3546315,2797.3546315,2797.3546315,2797.3535825300005,2.8541156999999657,return,2.7308289999996305,,,,,,,,,,,,,,,,,,,,,,,,,,,,,,,,,9Y53G3,train_y,red_square,bottom_left,2025-03-07_15h20.37.351,HideSeek_v1,2022.2.5,60.05039429083263,
,3,3,3,7,0,4,12,,train_dim1_1,25,30,,,,2,0,2,0,,,,,,,,,0,0,0,0,0,24,24,24,1,0,1,0,,,,,,,,,,,,,,,,,,,,,,,,,,,,,,,,,,,,,,,,,,,,,,,,,,,,,,,,,,,,,,,,30,,,,,,,,2810.903555,2810.903555,2810.903555,2810.903555,2810.903555,up,0.5597760000000562,2,0,0,99,0.08,0.0,up,0.47413600000027145,,,,,,,,,,,,,,,,,,,,,,,,,,,,,,,,,,,,,,,,,,,,,,,,,,,,,,,,,,,,9Y53G3,train_y,red_square,bottom_left,2025-03-07_15h20.37.351,HideSeek_v1,2022.2.5,60.05039429083263,
,3,3,3,7,0,4,12,,train_dim1_1,25,30,,,,2,0,2,0,,,,,,,,,0,0,0,0,0,24,24,24,2,0,2,0,,,,,,,,,,,,,,,,,,,,,,,,,,,,,,,,,,,,,,,,,,,,,,,,,,,,,,,,,,,,,,,,30,,,,,,,,2811.4704239000002,2811.4704239000002,2811.4704239000002,2811.4704239000002,2811.4704239000002,up,1.0605129999999008,2,0,0,99,0.08,0.08,up,0.9635984999999891,,,,,,,,,,,,,,,,,,,,,,,,,,,,,,,,,,,,,,,,,,,,,,,,,,,,,,,,,,,,9Y53G3,train_y,red_square,bottom_left,2025-03-07_15h20.37.351,HideSeek_v1,2022.2.5,60.05039429083263,
,3,3,3,7,0,4,12,,train_dim1_1,25,30,,,,2,0,2,0,,,,,,,,,0,0,0,0,0,24,24,24,3,0,3,0,,,,,,,,,,,,,,,,,,,,,,,,,,,,,,,,,,,,,,,,,,,,,,,,,,,,,,,,,,,,,,,,30,,,,,,,,2812.535233,2812.535233,2812.535233,2812.535233,2812.535233,up,0.49243280000018785,2,0,0,99,0.08,0.16,up,0.41402270000025965,,,,,,,,,,,,,,,,,,,,,,,,,,,,,,,,,,,,,,,,,,,,,,,,,,,,,,,,,,,,9Y53G3,train_y,red_square,bottom_left,2025-03-07_15h20.37.351,HideSeek_v1,2022.2.5,60.05039429083263,
,3,3,3,7,0,4,12,,train_dim1_1,25,30,,,,2,0,2,0,,,,,,,,,0,0,0,0,0,24,24,24,4,0,4,0,,,,,,,,,,,,,,,,,,,,,,,,,,,,,,,,,,,,,,,,,,,,,,,,,,,,,,,,,,,,,,,,30,,,,,,,,2813.0354345,2813.0354345,2813.0354345,2813.0354345,2813.0354345,return,48.916843199999676,3,0,0,1,0.08,0.16,return,48.83061150000003,62,24,0.08,0.16,,,,,,,,,,,,,,,,,,,,,,,,,,,,,,,,,,,,,,,,,,,,,,,,,,,,,,,,9Y53G3,train_y,red_square,bottom_left,2025-03-07_15h20.37.351,HideSeek_v1,2022.2.5,60.05039429083263,
,4,4,4,7,0,3,13,,train_dim1_1,26,30,,,,2,0,2,0,,,,,,,,,0,0,0,0,0,25,25,25,0,0,0,0,,,,,,,,,,,,,,,,,,,,,,,,,stimuli/alien_stimuli/13.png,,,,,,,,,,,,,,,,,,,,,,,,,,,,,stimuli/alien_stimuli/12.png,12,3,27,,,,,,,30,,,,,,,,2869.2700054,2869.2700054,2869.2700054,2869.2700054,2869.2700054,up,3.190875100000085,3,0,0,99,0.16,0.0,up,3.1025524000001496,,,,,2867.7100614,2869.2700054,0.08,0.16,0.32,0.0,0.0,0.08,0.08,0.08,0.16,2863.5462499,2863.5462499,2863.5462499,2863.5462499,2863.5462499,2863.5462499,2863.5462499,2863.5462499,2863.5414819100006,4.305371700000251,return,4.147740599999906,,,,,,,,,,,,,,,,,,,,,,,,,,,,,,,,,9Y53G3,train_y,red_square,bottom_left,2025-03-07_15h20.37.351,HideSeek_v1,2022.2.5,60.05039429083263,
,4,4,4,7,0,3,13,,train_dim1_1,26,30,,,,2,0,2,0,,,,,,,,,0,0,0,0,0,25,25,25,1,0,1,0,,,,,,,,,,,,,,,,,,,,,,,,,,,,,,,,,,,,,,,,,,,,,,,,,,,,,,,,,,,,,,,,30,,,,,,,,2872.4714884,2872.4714884,2872.4714884,2872.4714884,2872.4714884,up,0.42595600000004197,3,0,0,99,0.16,0.08,up,0.33198240000001533,,,,,,,,,,,,,,,,,,,,,,,,,,,,,,,,,,,,,,,,,,,,,,,,,,,,,,,,,,,,9Y53G3,train_y,red_square,bottom_left,2025-03-07_15h20.37.351,HideSeek_v1,2022.2.5,60.05039429083263,
,4,4,4,7,0,3,13,,train_dim1_1,26,30,,,,2,0,2,0,,,,,,,,,0,0,0,0,0,25,25,25,2,0,2,0,,,,,,,,,,,,,,,,,,,,,,,,,,,,,,,,,,,,,,,,,,,,,,,,,,,,,,,,,,,,,,,,30,,,,,,,,2872.9050066,2872.9050066,2872.9050066,2872.9050066,2872.9050066,up,0.3757313000000977,3,0,0,99,0.16,0.16,up,0.2791185000000951,,,,,,,,,,,,,,,,,,,,,,,,,,,,,,,,,,,,,,,,,,,,,,,,,,,,,,,,,,,,9Y53G3,train_y,red_square,bottom_left,2025-03-07_15h20.37.351,HideSeek_v1,2022.2.5,60.05039429083263,
,4,4,4,7,0,3,13,,train_dim1_1,26,30,,,,2,0,2,0,,,,,,,,,0,0,0,0,0,25,25,25,3,0,3,0,,,,,,,,,,,,,,,,,,,,,,,,,,,,,,,,,,,,,,,,,,,,,,,,,,,,,,,,,,,,,,,,30,,,,,,,,2873.2859819,2873.2859819,2873.2859819,2873.2859819,2873.2859819,return,0.47656689999985247,4,0,0,1,0.16,0.16,return,0.3853022000002966,65,24,0.16,0.16,,,,,,,,,,,,,,,,,,,,,,,,,,,,,,,,,,,,,,,,,,,,,,,,,,,,,,,,9Y53G3,train_y,red_square,bottom_left,2025-03-07_15h20.37.351,HideSeek_v1,2022.2.5,60.05039429083263,
,3,4,3,4,0,0,16,,train_dim1_1,27,30,,,,2,0,2,0,,,,,,,,,0,0,0,0,0,26,26,26,0,0,0,0,,,,,,,,,,,,,,,,,,,,,,,,,stimuli/alien_stimuli/16.png,,,,,,,,,,,,,,,,,,,,,,,,,,,,,stimuli/alien_stimuli/13.png,13,4,28,,,,,,,30,,,,,,,,2879.46159,2879.46159,2879.46159,2879.46159,2879.46159,return,3.0579929999998967,5,0,0,1,0.08,-0.08,return,2.9768395999999484,65,24,0.08,-0.08,2877.9023255,2879.46159,0.16,0.16,0.24,0.0,0.04,0.16,0.16,0.16,0.16,2875.3358688,2875.3358688,2875.3358688,2875.3358688,2875.3358688,2875.3358688,2875.3358688,2875.3358688,2875.33461992,2.687354099999993,return,2.5393030999994153,,,,,,,,,,,,,,,,,,,,,,,,,,,,,,,,,9Y53G3,train_y,red_square,bottom_left,2025-03-07_15h20.37.351,HideSeek_v1,2022.2.5,60.05039429083263,
,4,1,4,6,0,5,11,,train_dim1_1,28,30,,,,2,0,2,0,,,,,,,,,0,0,0,0,0,27,27,27,0,0,0,0,,,,,,,,,,,,,,,,,,,,,,,,,stimuli/alien_stimuli/11.png,,,,,,,,,,,,,,,,,,,,,,,,,,,,,stimuli/alien_stimuli/16.png,16,3,29,,,,,,,30,,,,,,,,2888.0190517,2888.0190517,2888.0190517,2888.0190517,2888.0190517,up,3.0405157000000145,5,0,0,99,0.16,-0.24,up,2.9511205999992853,,,,,2886.460193,2888.0190517,0.08,-0.08,0.0,0.0,-0.08,0.08,0.08,0.08,-0.08,2884.0754562,2884.0754562,2884.0754562,2884.0754562,2884.0754562,2884.0754562,2884.0754562,2884.0754562,2884.0747715300004,2.489066300000104,return,2.368296499999815,,,,,,,,,,,,,,,,,,,,,,,,,,,,,,,,,9Y53G3,train_y,red_square,bottom_left,2025-03-07_15h20.37.351,HideSeek_v1,2022.2.5,60.05039429083263,
,4,1,4,6,0,5,11,,train_dim1_1,28,30,,,,2,0,2,0,,,,,,,,,0,0,0,0,0,27,27,27,1,0,1,0,,,,,,,,,,,,,,,,,,,,,,,,,,,,,,,,,,,,,,,,,,,,,,,,,,,,,,,,,,,,,,,,30,,,,,,,,2891.0676973,2891.0676973,2891.0676973,2891.0676973,2891.0676973,up,0.39259850000007646,5,0,0,99,0.16,-0.15999999999999998,up,0.31417719999944893,,,,,,,,,,,,,,,,,,,,,,,,,,,,,,,,,,,,,,,,,,,,,,,,,,,,,,,,,,,,9Y53G3,train_y,red_square,bottom_left,2025-03-07_15h20.37.351,HideSeek_v1,2022.2.5,60.05039429083263,
,4,1,4,6,0,5,11,,train_dim1_1,28,30,,,,2,0,2,0,,,,,,,,,0,0,0,0,0,27,27,27,2,0,2,0,,,,,,,,,,,,,,,,,,,,,,,,,,,,,,,,,,,,,,,,,,,,,,,,,,,,,,,,,,,,,,,,30,,,,,,,,2891.4678619,2891.4678619,2891.4678619,2891.4678619,2891.4678619,up,0.3764793999998801,5,0,0,99,0.16,-0.07999999999999997,up,0.2816985999997996,,,,,,,,,,,,,,,,,,,,,,,,,,,,,,,,,,,,,,,,,,,,,,,,,,,,,,,,,,,,9Y53G3,train_y,red_square,bottom_left,2025-03-07_15h20.37.351,HideSeek_v1,2022.2.5,60.05039429083263,
,4,1,4,6,0,5,11,,train_dim1_1,28,30,,,,2,0,2,0,,,,,,,,,0,0,0,0,0,27,27,27,3,0,3,0,,,,,,,,,,,,,,,,,,,,,,,,,,,,,,,,,,,,,,,,,,,,,,,,,,,,,,,,,,,,,,,,30,,,,,,,,2891.8538838,2891.8538838,2891.8538838,2891.8538838,2891.8538838,up,0.3420219000004181,5,0,0,99,0.16,2.7755575615628914e-17,up,0.2592899999999645,,,,,,,,,,,,,,,,,,,,,,,,,,,,,,,,,,,,,,,,,,,,,,,,,,,,,,,,,,,,9Y53G3,train_y,red_square,bottom_left,2025-03-07_15h20.37.351,HideSeek_v1,2022.2.5,60.05039429083263,
