trialInstr,x_fixStart,y_fixStart,x_corrSteps,y_corrSteps,x_nrSteps,y_nrSteps,alienID,trialLength,version,trialTrain,praclen,beforeExpLoop.thisRepN,beforeExpLoop.thisTrialN,beforeExpLoop.thisN,beforeExpLoop.thisIndex,mini_instr_trials.thisRepN,mini_instr_trials.thisTrialN,mini_instr_trials.thisN,mini_instr_trials.thisIndex,instrLoop.thisRepN,instrLoop.thisTrialN,instrLoop.thisN,instrLoop.thisIndex,repeat_prac.thisRepN,repeat_prac.thisTrialN,repeat_prac.thisN,repeat_prac.thisIndex,trainLoop.thisRepN,trainLoop.thisTrialN,trainLoop.thisN,trainLoop.thisIndex,moveLoop_train.thisRepN,moveLoop_train.thisTrialN,moveLoop_train.thisN,moveLoop_train.thisIndex,start_all_time,url,slideStim,audioStim,slides.started,sounds.started,nextButton.numClicks,nextButton.timesOn,nextButton.timesOff,prev_but.numClicks,prev_but.timesOn,prev_but.timesOff,alienStim,instrFile,alienStim_instr,gridImage_instr.started,startPos_3.started,key_instr.started,alienImage_3.started,sounds_1.started,key_instr.keys,key_instr.rt,key_instr.duration,all_x,all_y,FBy_corrSteps,FBy_fixStart,FBx_corrSteps,FBx_fixStart,FBy_pathSize_check,FBx_pathSize_check,gridImage_9.started,alienImageFB_3.started,startPosFB_3.started,keyFB_3.started,pathLine_ydir_2.started,pathLine_xdir_2.started,alienFace_3.started,sounds_2.started,RTFB_instr,keyFB_3.keys,keyFB_3.rt,keyFB_3.duration,draw_alienStim,draw_alienID,test_x,nrepcount,perfthres,percthres,earlierperf,earlystop,nextPrac,fileidx,praclen,saveACC_train,pracFile,nextPrac_train,addNrep,fileidx_endr,repExp,showearly,gridImage_4.started,startPos.started,movePos.started,key_resp.started,alienImage.started,buttonPress_train,RTchoice_train,cumAcctrain,aCorr,saveACC_choice,corrAns,x_movePos_end,y_movePos_end,key_resp.keys,key_resp.rt,key_resp.duration,wLy_dir,wLx_dir,x_movePos,y_movePos,text_2.started,text_2.stopped,aft_x_corrPos,aft_y_corrPos,y_pathSize_check,x_pathSize_check,y_pathdirY,x_pathdirY,x_pathdirX,x_corrPos,y_corrPos,gridImage_6.started,alienImageFB_2.started,startPosFB_2.started,movePosFB_2.started,keyFB_2.started,pathLine_xdir.started,pathLine_ydir.started,alienFace.started,sounds_4.started,RT_FBtrain,keyFB_2.keys,keyFB_2.rt,keyFB_2.duration,participant,study_id,session_id,date,expName,psychopyVersion,frameRate,
,,,,,,,,,,,,0,0,0,0,0,0,0,0,,,,,,,,,,,,,,,,,start_all_time,testround,stimuli/instructions/Slide1.png,stimuli/instructions/Audio1.wav,10.677317599998787,10.658962160511873,1,[1.981430099986028],[1.9814355999697],0,,,,,,,,,,,,,,,,,,,,,,,,,,,,,,,,,,,,,,,,,,,,,,,,,,,,,,,,,,,,,,,,,,,,,,,,,,,,,,,,,,,,,,,,,,,,,,,,,,,2024-07-08_14h59.13.510,HideSeek_v1,2023.1.3,60.0851406280639,
,,,,,,,,,,,,0,0,0,0,1,0,1,0,,,,,,,,,,,,,,,,,,,stimuli/instructions/Slide2.png,stimuli/instructions/Audio2.wav,12.742197200015653,12.725797560054342,1,[0.39309100003447384],[0.3930957000120543],0,,,,,,,,,,,,,,,,,,,,,,,,,,,,,,,,,,,,,,,,,,,,,,,,,,,,,,,,,,,,,,,,,,,,,,,,,,,,,,,,,,,,,,,,,,,,,,,,,,,2024-07-08_14h59.13.510,HideSeek_v1,2023.1.3,60.0851406280639,
,,,,,,,,,,,,0,0,0,0,2,0,2,0,,,,,,,,,,,,,,,,,,,stimuli/instructions/Slide3.png,stimuli/instructions/Audio3.wav,13.242506300040986,13.225583820056634,1,[0.29066879994934425],[0.29067389998817816],0,,,,,,,,,,,,,,,,,,,,,,,,,,,,,,,,,,,,,,,,,,,,,,,,,,,,,,,,,,,,,,,,,,,,,,,,,,,,,,,,,,,,,,,,,,,,,,,,,,,2024-07-08_14h59.13.510,HideSeek_v1,2023.1.3,60.0851406280639,
,,,,,,,,,,,,0,0,0,0,3,0,3,0,,,,,,,,,,,,,,,,,,,stimuli/instructions/Slide4.png,stimuli/instructions/Audio4.wav,13.625831499986816,13.608791160036343,1,[0.3207898999680765],[0.32079430000158027],0,,,,,,,,,,,,,,,,,,,,,,,,,,,,,,,,,,,,,,,,,,,,,,,,,,,,,,,,,,,,,,,,,,,,,,,,,,,,,,,,,,,,,,,,,,,,,,,,,,,2024-07-08_14h59.13.510,HideSeek_v1,2023.1.3,60.0851406280639,
,,,,,,,,,,,,0,0,0,0,4,0,4,0,,,,,,,,,,,,,,,,,,,stimuli/instructions/Slide5.png,stimuli/instructions/Audio5.wav,13.992263599997386,13.975496980035677,1,[0.3202828000066802],[0.320287799986545],0,,,,,,,,,,,,,,,,,,,,,,,,,,,,,,,,,,,,,,,,,,,,,,,,,,,,,,,,,,,,,,,,,,,,,,,,,,,,,,,,,,,,,,,,,,,,,,,,,,,2024-07-08_14h59.13.510,HideSeek_v1,2023.1.3,60.0851406280639,
,,,,,,,,,,,,0,0,0,0,5,0,5,0,,,,,,,,,,,,,,,,,,,stimuli/instructions/Slide6.png,stimuli/instructions/Audio6.wav,14.359219800040592,14.341982380044646,1,[0.2897775999736041],[0.28978240001015365],0,,,,,,,,,,,,,,,,,,,,,,,,,,,,,,,,,,,,,,,,,,,,,,,,,,,,,,,,,,,,,,,,,,,,,,,,,,,,,,,,,,,,,,,,,,,,,,,,,,,2024-07-08_14h59.13.510,HideSeek_v1,2023.1.3,60.0851406280639,
,,,,,,,,,,,,0,0,0,0,6,0,6,0,,,,,,,,,,,,,,,,,,,stimuli/instructions/Slide7.png,stimuli/instructions/Audio7.wav,14.691922300029546,14.6757091800333,1,[0.2873729999992065],[0.2873773999745026],0,,,,,,,,,,,,,,,,,,,,,,,,,,,,,,,,,,,,,,,,,,,,,,,,,,,,,,,,,,,,,,,,,,,,,,,,,,,,,,,,,,,,,,,,,,,,,,,,,,,2024-07-08_14h59.13.510,HideSeek_v1,2023.1.3,60.0851406280639,
,,,,,,,,,,,,0,0,0,0,7,0,7,0,,,,,,,,,,,,,,,,,,,stimuli/instructions/Slide8.png,stimuli/instructions/Audio8.wav,15.042486499994993,15.026092740020248,1,[0.3031338000437245],[0.30313910002587363],0,,,,,,,,,,,,,,,,,,,,,,,,,,,,,,,,,,,,,,,,,,,,,,,,,,,,,,,,,,,,,,,,,,,,,,,,,,,,,,,,,,,,,,,,,,,,,,,,,,,2024-07-08_14h59.13.510,HideSeek_v1,2023.1.3,60.0851406280639,
,,,,,,,,,,,,0,0,0,0,8,0,8,0,,,,,,,,,,,,,,,,,,,stimuli/instructions/Slide9.png,stimuli/instructions/Audio9.wav,15.395931000006385,15.39207434003474,1,[0.278961599979084],[0.27896500000497326],0,,,,,,,,,,,,,,,,,,,,,,,,,,,,,,,,,,,,,,,,,,,,,,,,,,,,,,,,,,,,,,,,,,,,,,,,,,,,,,,,,,,,,,,,,,,,,,,,,,,2024-07-08_14h59.13.510,HideSeek_v1,2023.1.3,60.0851406280639,
,,,,,,,,,,,,0,0,0,0,9,0,9,0,,,,,,,,,,,,,,,,,,,stimuli/instructions/Slide10.png,stimuli/instructions/Audio10.wav,15.72606449999148,15.7255007400061,1,[0.28357460000552237],[0.28357920004054904],0,,,,,,,,,,,,,,,,,,,,,,,,,,,,,,,,,,,,,,,,,,,,,,,,,,,,,,,,,,,,,,,,,,,,,,,,,,,,,,,,,,,,,,,,,,,,,,,,,,,2024-07-08_14h59.13.510,HideSeek_v1,2023.1.3,60.0851406280639,
,,,,,,,,,,,,0,0,0,0,10,0,10,0,,,,,,,,,,,,,,,,,,,stimuli/instructions/Slide11.png,stimuli/instructions/Audio11.wav,16.075590900029056,16.05902194000082,1,[0.2408274000044912],[0.24083210004027933],0,,,,,,,,,,,,,,,,,,,,,,,,,,,,,,,,,,,,,,,,,,,,,,,,,,,,,,,,,,,,,,,,,,,,,,,,,,,,,,,,,,,,,,,,,,,,,,,,,,,2024-07-08_14h59.13.510,HideSeek_v1,2023.1.3,60.0851406280639,
,,,,,,,,,,,,0,0,0,0,11,0,11,0,,,,,,,,,,,,,,,,,,,stimuli/instructions/Slide12.png,stimuli/instructions/Audio12.wav,16.37541770003736,16.358683840034065,1,[0.23636260000057518],[0.2363689000485465],0,,,,,,,,,,,,,,,,,,,,,,,,,,,,,,,,,,,,,,,,,,,,,,,,,,,,,,,,,,,,,,,,,,,,,,,,,,,,,,,,,,,,,,,,,,,,,,,,,,,2024-07-08_14h59.13.510,HideSeek_v1,2023.1.3,60.0851406280639,
1,0,3,0,8,0,5,66,2,instr_dim1_1,,,0,0,0,0,,,,,0,0,0,0,,,,,,,,,,,,,,,,,,,,,,,,,stimuli/alien_stimuli/66.png,conditions/inputInstr_1.xlsx,stimuli/alien_stimuli/66.png,16.70865159999812,16.70865159999812,16.70865159999812,16.70865159999812,16.691830860031768,return,0.7690847999765538,None,"[-0.16, -0.08, 0, 0.08, 0.16, 0.24, 0.32, 0.4, 0.48, 0.56]","[-0.4, -0.32, -0.24, -0.16, -0.08, 0, 0.08, 0.16, 0.24, 0.32]",8,3,0,0,0.4,0.0,17.730724600027315,17.730724600027315,17.730724600027315,17.730724600027315,17.730724600027315,17.730724600027315,17.730724600027315,17.659027000016067,0.4010701000224799,return,0.15568850003182888,None,stimuli/alien_stimuli/66.png,66,0,1,,,,,,,,,,,,,,,,,,,,,,,,,,,,,,,,,,,,,,,,,,,,,,,,,,,,,,,,,,,,,,2024-07-08_14h59.13.510,HideSeek_v1,2023.1.3,60.0851406280639,
,,,,,,,,,,,24,0,0,0,0,,,,,,,,,,,,,,,,,,,,,,,,,,,,,,,,,,,,,,,,,,,,,,,,,,,,,,,,,,,,,,,,,,,,17,0.7,0,0,99,1,24,0,conditions/inputTrain_1.1.xlsx,99,1,1,1,0,,,,,,,,,,,,,,,,,,,,,,,,,,,,,,,,,,,,,,,,,,,,,,,,2024-07-08_14h59.13.510,HideSeek_v1,2023.1.3,60.0851406280639,
,,,,,,,,,,,,1,0,1,0,0,0,0,0,,,,,,,,,,,,,,,,,,,stimuli/instructions/Slide13.png,stimuli/instructions/Audio13.wav,18.043911100015976,18.02556968005374,1,[0.7172485000337474],[0.7172535000136122],0,,,,,,,,,,,,,,,,,,,,,,,,,,,,,,,,,,,,,,,,,,,,,,,,,,,,,,,,,,,,,,,,,,,,,,,,,,,,,,,,,,,,,,,,,,,,,,,,,,,2024-07-08_14h59.13.510,HideSeek_v1,2023.1.3,60.0851406280639,
,,,,,,,,,,,,1,0,1,0,1,0,1,0,,,,,,,,,,,,,,,,,,,stimuli/instructions/Slide14.png,stimuli/instructions/Audio14.wav,18.82777100004023,18.825126000039745,1,[0.3976785999839194],[0.3976845000288449],0,,,,,,,,,,,,,,,,,,,,,,,,,,,,,,,,,,,,,,,,,,,,,,,,,,,,,,,,,,,,,,,,,,,,,,,,,,,,,,,,,,,,,,,,,,,,,,,,,,,2024-07-08_14h59.13.510,HideSeek_v1,2023.1.3,60.0851406280639,
2,2,3,2,3,0,0,61,2,instr_dim1_1,,,1,0,1,0,,,,,0,0,0,0,,,,,,,,,,,,,,,,,,,,,,,,,stimuli/alien_stimuli/61.png,conditions/inputInstr_1.xlsx,stimuli/alien_stimuli/61.png,19.308777900005225,19.308777900005225,19.308777900005225,19.308777900005225,19.292890300042927,return,0.6934126000269316,None,"[-0.16, -0.08, 0, 0.08, 0.16, 0.24, 0.32, 0.4, 0.48, 0.56]","[-0.4, -0.32, -0.24, -0.16, -0.08, 0, 0.08, 0.16, 0.24, 0.32]",3,3,2,2,0.0,0.0,20.162783100036904,20.162783100036904,20.162783100036904,20.162783100036904,20.162783100036904,20.162783100036904,20.162783100036904,20.14223948001163,0.38422669999999925,return,0.2232790000271052,None,stimuli/alien_stimuli/61.png,61,2,2,,,,,,,,,,,,,,,,,,,,,,,,,,,,,,,,,,,,,,,,,,,,,,,,,,,,,,,,,,,,,,2024-07-08_14h59.13.510,HideSeek_v1,2023.1.3,60.0851406280639,
,,,,,,,,,,,24,1,0,1,0,,,,,,,,,,,,,,,,,,,,,,,,,,,,,,,,,,,,,,,,,,,,,,,,,,,,,,,,,,,,,,,,,,,,17,0.7,0,0,99,1,24,0,conditions/inputTrain_1.1.xlsx,99,1,1,1,0,,,,,,,,,,,,,,,,,,,,,,,,,,,,,,,,,,,,,,,,,,,,,,,,2024-07-08_14h59.13.510,HideSeek_v1,2023.1.3,60.0851406280639,
,,,,,,,,,,,,2,0,2,0,0,0,0,0,,,,,,,,,,,,,,,,,,,stimuli/instructions/Slide15.png,stimuli/instructions/Audio15.wav,20.597668000031263,20.59278042006772,1,[1.2279283999814652],[1.2279330000164919],0,,,,,,,,,,,,,,,,,,,,,,,,,,,,,,,,,,,,,,,,,,,,,,,,,,,,,,,,,,,,,,,,,,,,,,,,,,,,,,,,,,,,,,,,,,,,,,,,,,,2024-07-08_14h59.13.510,HideSeek_v1,2023.1.3,60.0851406280639,
,,,,,,,,,,,,2,0,2,0,1,0,1,0,,,,,,,,,,,,,,,,,,,stimuli/instructions/Slide16.png,stimuli/instructions/Audio16.wav,21.925263200013433,21.908591260015964,1,[0.6210886999615468],[0.6210940999444574],0,,,,,,,,,,,,,,,,,,,,,,,,,,,,,,,,,,,,,,,,,,,,,,,,,,,,,,,,,,,,,,,,,,,,,,,,,,,,,,,,,,,,,,,,,,,,,,,,,,,2024-07-08_14h59.13.510,HideSeek_v1,2023.1.3,60.0851406280639,
,2,0,2,1,0,1,62,,train_dim1_1,1,24,2,0,2,0,,,,,,,,,0,0,0,0,0,0,0,0,0,0,0,0,,,,,,,,,,,,,stimuli/alien_stimuli/62.png,,,,,,,,,,,,,,,,,,,,,,,,,,,,,,,,,,,,,,,,,24,,,,,,,,22.692381700035185,22.692381700035185,22.692381700035185,22.692381700035185,22.692381700035185,up,1.12951240001712,0,0,0,99,0,-0.32,up,1.032360700017307,None,,,,,,,,,,,,,,,,,,,,,,,,,,,,,,,,2024-07-08_14h59.13.510,HideSeek_v1,2023.1.3,60.0851406280639,
,2,0,2,1,0,1,62,,train_dim1_1,1,24,2,0,2,0,,,,,,,,,0,0,0,0,0,0,0,0,1,0,1,0,,,,,,,,,,,,,,,,,,,,,,,,,,,,,,,,,,,,,,,,,,,,,,,,,,,,,,24,,,,,,,,23.841725900012534,23.841725900012534,23.841725900012534,23.841725900012534,23.841725900012534,return,0.6428523000213318,1,0,0,1,0,-0.32,return,0.5299160999711603,None,1,0,0,-0.32,,,,,,,,,,,,,,,,,,,,,,,,,,,,2024-07-08_14h59.13.510,HideSeek_v1,2023.1.3,60.0851406280639,
,2,2,2,5,0,3,64,,train_dim1_1,2,24,2,0,2,0,,,,,,,,,0,0,0,0,0,1,1,1,0,0,0,0,,,,,,,,,,,,,stimuli/alien_stimuli/64.png,,,,,,,,,,,,,,,,,,,,,,,,,,,,,,,stimuli/alien_stimuli/62.png,62,2,3,,,,,,,24,,,,,,,,29.125958400021773,29.125958400021773,29.125958400021773,29.125958400021773,29.125958400021773,up,1.0247804999817163,1,0,0,99,0,-0.15999999999999998,up,0.9332688000285998,None,,,,,27.558811000024434,29.125958400021773,0,-0.32,0.08,0.0,-0.36,0,0.0,0,-0.32,26.05899390002014,26.05899390002014,26.05899390002014,26.05899390002014,26.05899390002014,26.05899390002014,26.05899390002014,26.05899390002014,26.008368820045142,1.6514833999681287,return,1.4698431000579149,None,,,,2024-07-08_14h59.13.510,HideSeek_v1,2023.1.3,60.0851406280639,
,2,2,2,5,0,3,64,,train_dim1_1,2,24,2,0,2,0,,,,,,,,,0,0,0,0,0,1,1,1,1,0,1,0,,,,,,,,,,,,,,,,,,,,,,,,,,,,,,,,,,,,,,,,,,,,,,,,,,,,,,24,,,,,,,,30.191955999995116,30.191955999995116,30.191955999995116,30.191955999995116,30.191955999995116,up,0.4770637000328861,1,0,0,99,0,-0.07999999999999997,up,0.3364174999878742,None,,,,,,,,,,,,,,,,,,,,,,,,,,,,,,,,2024-07-08_14h59.13.510,HideSeek_v1,2023.1.3,60.0851406280639,
,2,2,2,5,0,3,64,,train_dim1_1,2,24,2,0,2,0,,,,,,,,,0,0,0,0,0,1,1,1,2,0,2,0,,,,,,,,,,,,,,,,,,,,,,,,,,,,,,,,,,,,,,,,,,,,,,,,,,,,,,24,,,,,,,,30.659679000033066,30.659679000033066,30.659679000033066,30.659679000033066,30.659679000033066,up,0.3941985000274144,1,0,0,99,0,2.7755575615628914e-17,up,0.27254330000141636,None,,,,,,,,,,,,,,,,,,,,,,,,,,,,,,,,2024-07-08_14h59.13.510,HideSeek_v1,2023.1.3,60.0851406280639,
,2,2,2,5,0,3,64,,train_dim1_1,2,24,2,0,2,0,,,,,,,,,0,0,0,0,0,1,1,1,3,0,3,0,,,,,,,,,,,,,,,,,,,,,,,,,,,,,,,,,,,,,,,,,,,,,,,,,,,,,,24,,,,,,,,31.041698000044562,31.041698000044562,31.041698000044562,31.041698000044562,31.041698000044562,up,0.5267801000154577,1,0,0,99,0,0.08000000000000003,up,0.4319118999992497,None,,,,,,,,,,,,,,,,,,,,,,,,,,,,,,,,2024-07-08_14h59.13.510,HideSeek_v1,2023.1.3,60.0851406280639,
,2,2,2,5,0,3,64,,train_dim1_1,2,24,2,0,2,0,,,,,,,,,0,0,0,0,0,1,1,1,4,0,4,0,,,,,,,,,,,,,,,,,,,,,,,,,,,,,,,,,,,,,,,,,,,,,,,,,,,,,,24,,,,,,,,31.576333500037435,31.576333500037435,31.576333500037435,31.576333500037435,31.576333500037435,return,0.3277859999798238,1,1,0,0,0,0.08000000000000003,return,0.22463460004655644,None,5,0,0,0.08000000000000003,,,,,,,,,,,,,,,,,,,,,,,,,,,,2024-07-08_14h59.13.510,HideSeek_v1,2023.1.3,60.0851406280639,
,3,3,3,8,0,5,66,,train_dim1_1,3,24,2,0,2,0,,,,,,,,,0,0,0,0,0,2,2,2,0,0,0,0,,,,,,,,,,,,,stimuli/alien_stimuli/66.png,,,,,,,,,,,,,,,,,,,,,,,,,,,,,,,stimuli/alien_stimuli/64.png,64,2,4,,,,,,,24,,,,,,,,36.925234400026966,36.925234400026966,36.925234400026966,36.925234400026966,36.925234400026966,down,1.6751482999534346,1,1,0,99,0.08,-0.24,down,1.580905300041195,None,,,,,35.35890500003006,36.925234400026966,0,0,0.24,0.0,-0.12,0,0.0,0,0,33.47538670001086,33.47538670001086,33.47538670001086,33.47538670001086,33.47538670001086,33.47538670001086,33.47538670001086,33.47538670001086,33.458660180063454,2.017746400029864,return,1.8514370000339113,None,,,,2024-07-08_14h59.13.510,HideSeek_v1,2023.1.3,60.0851406280639,
,3,3,3,8,0,5,66,,train_dim1_1,3,24,2,0,2,0,,,,,,,,,0,0,0,0,0,2,2,2,1,0,1,0,,,,,,,,,,,,,,,,,,,,,,,,,,,,,,,,,,,,,,,,,,,,,,,,,,,,,,24,,,,,,,,38.59373439999763,38.59373439999763,38.59373439999763,38.59373439999763,38.59373439999763,down,0.41029109997907653,1,1,0,99,0.08,-0.32,down,0.319005900004413,None,,,,,,,,,,,,,,,,,,,,,,,,,,,,,,,,2024-07-08_14h59.13.510,HideSeek_v1,2023.1.3,60.0851406280639,
,3,3,3,8,0,5,66,,train_dim1_1,3,24,2,0,2,0,,,,,,,,,0,0,0,0,0,2,2,2,2,0,2,0,,,,,,,,,,,,,,,,,,,,,,,,,,,,,,,,,,,,,,,,,,,,,,,,,,,,,,24,,,,,,,,39.01112490001833,39.01112490001833,39.01112490001833,39.01112490001833,39.01112490001833,right,0.6106325999717228,1,1,0,99,0.16,-0.32,right,0.5292428000248037,None,,,,,,,,,,,,,,,,,,,,,,,,,,,,,,,,2024-07-08_14h59.13.510,HideSeek_v1,2023.1.3,60.0851406280639,
,3,3,3,8,0,5,66,,train_dim1_1,3,24,2,0,2,0,,,,,,,,,0,0,0,0,0,2,2,2,3,0,3,0,,,,,,,,,,,,,,,,,,,,,,,,,,,,,,,,,,,,,,,,,,,,,,,,,,,,,,24,,,,,,,,39.64162509999005,39.64162509999005,39.64162509999005,39.64162509999005,39.64162509999005,right,0.29398529999889433,1,1,0,99,0.24,-0.32,right,0.19882739998865873,None,,,,,,,,,,,,,,,,,,,,,,,,,,,,,,,,2024-07-08_14h59.13.510,HideSeek_v1,2023.1.3,60.0851406280639,
,3,3,3,8,0,5,66,,train_dim1_1,3,24,2,0,2,0,,,,,,,,,0,0,0,0,0,2,2,2,4,0,4,0,,,,,,,,,,,,,,,,,,,,,,,,,,,,,,,,,,,,,,,,,,,,,,,,,,,,,,24,,,,,,,,39.92788060003659,39.92788060003659,39.92788060003659,39.92788060003659,39.92788060003659,right,0.17774400004418567,1,1,0,99,0.32,-0.32,right,0.09528289997251704,None,,,,,,,,,,,,,,,,,,,,,,,,,,,,,,,,2024-07-08_14h59.13.510,HideSeek_v1,2023.1.3,60.0851406280639,
,3,3,3,8,0,5,66,,train_dim1_1,3,24,2,0,2,0,,,,,,,,,0,0,0,0,0,2,2,2,5,0,5,0,,,,,,,,,,,,,,,,,,,,,,,,,,,,,,,,,,,,,,,,,,,,,,,,,,,,,,24,,,,,,,,40.14459740003804,40.14459740003804,40.14459740003804,40.14459740003804,40.14459740003804,right,0.3274869999731891,1,1,0,99,0.4,-0.32,right,0.21386250003706664,None,,,,,,,,,,,,,,,,,,,,,,,,,,,,,,,,2024-07-08_14h59.13.510,HideSeek_v1,2023.1.3,60.0851406280639,
,3,3,3,8,0,5,66,,train_dim1_1,3,24,2,0,2,0,,,,,,,,,0,0,0,0,0,2,2,2,6,0,6,0,,,,,,,,,,,,,,,,,,,,,,,,,,,,,,,,,,,,,,,,,,,,,,,,,,,,,,24,,,,,,,,40.44248460000381,40.44248460000381,40.44248460000381,40.44248460000381,40.44248460000381,right,0.24393789999885485,1,1,0,99,0.48000000000000004,-0.32,right,0.1629102000151761,None,,,,,,,,,,,,,,,,,,,,,,,,,,,,,,,,2024-07-08_14h59.13.510,HideSeek_v1,2023.1.3,60.0851406280639,
,3,3,3,8,0,5,66,,train_dim1_1,3,24,2,0,2,0,,,,,,,,,0,0,0,0,0,2,2,2,7,0,7,0,,,,,,,,,,,,,,,,,,,,,,,,,,,,,,,,,,,,,,,,,,,,,,,,,,,,,,24,,,,,,,,40.69231690000743,40.69231690000743,40.69231690000743,40.69231690000743,40.69231690000743,right,0.21073760004946962,1,1,0,99,0.56,-0.32,right,0.1285368000390008,None,,,,,,,,,,,,,,,,,,,,,,,,,,,,,,,,2024-07-08_14h59.13.510,HideSeek_v1,2023.1.3,60.0851406280639,
,3,3,3,8,0,5,66,,train_dim1_1,3,24,2,0,2,0,,,,,,,,,0,0,0,0,0,2,2,2,8,0,8,0,,,,,,,,,,,,,,,,,,,,,,,,,,,,,,,,,,,,,,,,,,,,,,,,,,,,,,24,,,,,,,,40.90924599999562,40.90924599999562,40.90924599999562,40.90924599999562,40.90924599999562,down,0.32719650003127754,1,1,0,99,0.56,-0.4,down,0.24119299999438226,None,,,,,,,,,,,,,,,,,,,,,,,,,,,,,,,,2024-07-08_14h59.13.510,HideSeek_v1,2023.1.3,60.0851406280639,
,3,3,3,8,0,5,66,,train_dim1_1,3,24,2,0,2,0,,,,,,,,,0,0,0,0,0,2,2,2,9,0,9,0,,,,,,,,,,,,,,,,,,,,,,,,,,,,,,,,,,,,,,,,,,,,,,,,,,,,,,24,,,,,,,,41.24361350003164,41.24361350003164,41.24361350003164,41.24361350003164,41.24361350003164,return,0.34421090001706034,1,1,0,0,0.56,-0.4,return,0.2638090999680571,None,2,6,0.56,-0.4,,,,,,,,,,,,,,,,,,,,,,,,,,,,2024-07-08_14h59.13.510,HideSeek_v1,2023.1.3,60.0851406280639,
,4,4,4,8,0,4,65,,train_dim1_1,4,24,2,0,2,0,,,,,,,,,0,0,0,0,0,3,3,3,0,0,0,0,,,,,,,,,,,,,stimuli/alien_stimuli/65.png,,,,,,,,,,,,,,,,,,,,,,,,,,,,,,,stimuli/alien_stimuli/66.png,66,3,5,,,,,,,24,,,,,,,,46.07485900004394,46.07485900004394,46.07485900004394,46.07485900004394,46.07485900004394,down,1.1244348000036553,1,1,0,99,0.16,-0.16,down,1.024805599998217,None,,,,,44.50862249999773,46.07485900004394,0.08,0.24,0.4,0.0,0.039999999999999994,0.08,0.08,0.08,0.24,43.2251333000022,43.2251333000022,43.2251333000022,43.2251333000022,43.2251333000022,43.2251333000022,43.2251333000022,43.2251333000022,43.20910176004982,1.4684120999881998,return,1.2672241000109352,None,,,,2024-07-08_14h59.13.510,HideSeek_v1,2023.1.3,60.0851406280639,
,4,4,4,8,0,4,65,,train_dim1_1,4,24,2,0,2,0,,,,,,,,,0,0,0,0,0,3,3,3,1,0,1,0,,,,,,,,,,,,,,,,,,,,,,,,,,,,,,,,,,,,,,,,,,,,,,,,,,,,,,24,,,,,,,,47.19481870002346,47.19481870002346,47.19481870002346,47.19481870002346,47.19481870002346,up,1.260027300042566,1,1,0,99,0.16,-0.08,up,1.175142899970524,None,,,,,,,,,,,,,,,,,,,,,,,,,,,,,,,,2024-07-08_14h59.13.510,HideSeek_v1,2023.1.3,60.0851406280639,
,4,4,4,8,0,4,65,,train_dim1_1,4,24,2,0,2,0,,,,,,,,,0,0,0,0,0,3,3,3,2,0,2,0,,,,,,,,,,,,,,,,,,,,,,,,,,,,,,,,,,,,,,,,,,,,,,,,,,,,,,24,,,,,,,,48.45939770003315,48.45939770003315,48.45939770003315,48.45939770003315,48.45939770003315,down,0.7777786999940872,1,1,0,99,0.16,-0.16,down,0.6865254000294954,None,,,,,,,,,,,,,,,,,,,,,,,,,,,,,,,,2024-07-08_14h59.13.510,HideSeek_v1,2023.1.3,60.0851406280639,
,4,4,4,8,0,4,65,,train_dim1_1,4,24,2,0,2,0,,,,,,,,,0,0,0,0,0,3,3,3,3,0,3,0,,,,,,,,,,,,,,,,,,,,,,,,,,,,,,,,,,,,,,,,,,,,,,,,,,,,,,24,,,,,,,,49.245564500044566,49.245564500044566,49.245564500044566,49.245564500044566,49.245564500044566,down,0.9607194000273012,1,1,0,99,0.16,-0.24,down,0.871735599997919,None,,,,,,,,,,,,,,,,,,,,,,,,,,,,,,,,2024-07-08_14h59.13.510,HideSeek_v1,2023.1.3,60.0851406280639,
,4,4,4,8,0,4,65,,train_dim1_1,4,24,2,0,2,0,,,,,,,,,0,0,0,0,0,3,3,3,4,0,4,0,,,,,,,,,,,,,,,,,,,,,,,,,,,,,,,,,,,,,,,,,,,,,,,,,,,,,,24,,,,,,,,50.2099383000168,50.2099383000168,50.2099383000168,50.2099383000168,50.2099383000168,down,0.1604249000083655,1,1,0,99,0.16,-0.32,down,0.06707119999919087,None,,,,,,,,,,,,,,,,,,,,,,,,,,,,,,,,2024-07-08_14h59.13.510,HideSeek_v1,2023.1.3,60.0851406280639,
,4,4,4,8,0,4,65,,train_dim1_1,4,24,2,0,2,0,,,,,,,,,0,0,0,0,0,3,3,3,5,0,5,0,,,,,,,,,,,,,,,,,,,,,,,,,,,,,,,,,,,,,,,,,,,,,,,,,,,,,,24,,,,,,,,50.37785879999865,50.37785879999865,50.37785879999865,50.37785879999865,50.37785879999865,down,0.16112210002029315,1,1,0,99,0.16,-0.4,down,0.07664330000989139,None,,,,,,,,,,,,,,,,,,,,,,,,,,,,,,,,2024-07-08_14h59.13.510,HideSeek_v1,2023.1.3,60.0851406280639,
,4,4,4,8,0,4,65,,train_dim1_1,4,24,2,0,2,0,,,,,,,,,0,0,0,0,0,3,3,3,6,0,6,0,,,,,,,,,,,,,,,,,,,,,,,,,,,,,,,,,,,,,,,,,,,,,,,,,,,,,,24,,,,,,,,50.544783500023186,50.544783500023186,50.544783500023186,50.544783500023186,50.544783500023186,down,0.16096379997907206,1,1,0,99,0.16,-0.48000000000000004,down,0.07884949998697266,None,,,,,,,,,,,,,,,,,,,,,,,,,,,,,,,,2024-07-08_14h59.13.510,HideSeek_v1,2023.1.3,60.0851406280639,
,4,4,4,8,0,4,65,,train_dim1_1,4,24,2,0,2,0,,,,,,,,,0,0,0,0,0,3,3,3,7,0,7,0,,,,,,,,,,,,,,,,,,,,,,,,,,,,,,,,,,,,,,,,,,,,,,,,,,,,,,24,,,,,,,,50.72512720001396,50.72512720001396,50.72512720001396,50.72512720001396,50.72512720001396,right,0.24314849998336285,1,1,0,99,0.24,-0.48000000000000004,right,0.1375277999904938,None,,,,,,,,,,,,,,,,,,,,,,,,,,,,,,,,2024-07-08_14h59.13.510,HideSeek_v1,2023.1.3,60.0851406280639,
,4,4,4,8,0,4,65,,train_dim1_1,4,24,2,0,2,0,,,,,,,,,0,0,0,0,0,3,3,3,8,0,8,0,,,,,,,,,,,,,,,,,,,,,,,,,,,,,,,,,,,,,,,,,,,,,,,,,,,,,,24,,,,,,,,50.97529100003885,50.97529100003885,50.97529100003885,50.97529100003885,50.97529100003885,right,0.46076270000776276,1,1,0,99,0.32,-0.48000000000000004,right,0.3601971000316553,None,,,,,,,,,,,,,,,,,,,,,,,,,,,,,,,,2024-07-08_14h59.13.510,HideSeek_v1,2023.1.3,60.0851406280639,
,4,4,4,8,0,4,65,,train_dim1_1,4,24,2,0,2,0,,,,,,,,,0,0,0,0,0,3,3,3,9,0,9,0,,,,,,,,,,,,,,,,,,,,,,,,,,,,,,,,,,,,,,,,,,,,,,,,,,,,,,24,,,,,,,,51.42604220000794,51.42604220000794,51.42604220000794,51.42604220000794,51.42604220000794,right,1.1283859999966808,1,1,0,99,0.4,-0.48000000000000004,right,1.0430931000155397,None,,,,,,,,,,,,,,,,,,,,,,,,,,,,,,,,2024-07-08_14h59.13.510,HideSeek_v1,2023.1.3,60.0851406280639,
,4,4,4,8,0,4,65,,train_dim1_1,4,24,2,0,2,0,,,,,,,,,0,0,0,0,0,3,3,3,10,0,10,0,,,,,,,,,,,,,,,,,,,,,,,,,,,,,,,,,,,,,,,,,,,,,,,,,,,,,,24,,,,,,,,52.561865800002124,52.561865800002124,52.561865800002124,52.561865800002124,52.561865800002124,right,0.19375299999956042,1,1,0,99,0.48000000000000004,-0.48000000000000004,right,0.11089660000288859,None,,,,,,,,,,,,,,,,,,,,,,,,,,,,,,,,2024-07-08_14h59.13.510,HideSeek_v1,2023.1.3,60.0851406280639,
,4,4,4,8,0,4,65,,train_dim1_1,4,24,2,0,2,0,,,,,,,,,0,0,0,0,0,3,3,3,11,0,11,0,,,,,,,,,,,,,,,,,,,,,,,,,,,,,,,,,,,,,,,,,,,,,,,,,,,,,,24,,,,,,,,52.77505840000231,52.77505840000231,52.77505840000231,52.77505840000231,52.77505840000231,right,0.19462730002123863,1,1,0,99,0.56,-0.48000000000000004,right,0.08464439999079332,None,,,,,,,,,,,,,,,,,,,,,,,,,,,,,,,,2024-07-08_14h59.13.510,HideSeek_v1,2023.1.3,60.0851406280639,
,4,4,4,8,0,4,65,,train_dim1_1,4,24,2,0,2,0,,,,,,,,,0,0,0,0,0,3,3,3,12,0,12,0,,,,,,,,,,,,,,,,,,,,,,,,,,,,,,,,,,,,,,,,,,,,,,,,,,,,,,24,,,,,,,,52.96059969998896,52.96059969998896,52.96059969998896,52.96059969998896,52.96059969998896,right,0.16070390003733337,1,1,0,99,0.64,-0.48000000000000004,right,0.07304190000286326,None,,,,,,,,,,,,,,,,,,,,,,,,,,,,,,,,2024-07-08_14h59.13.510,HideSeek_v1,2023.1.3,60.0851406280639,
,4,4,4,8,0,4,65,,train_dim1_1,4,24,2,0,2,0,,,,,,,,,0,0,0,0,0,3,3,3,13,0,13,0,,,,,,,,,,,,,,,,,,,,,,,,,,,,,,,,,,,,,,,,,,,,,,,,,,,,,,24,,,,,,,,53.143024799996056,53.143024799996056,53.143024799996056,53.143024799996056,53.143024799996056,right,0.14442899997811764,1,1,0,99,0.72,-0.48000000000000004,right,0.04487519996473566,None,,,,,,,,,,,,,,,,,,,,,,,,,,,,,,,,2024-07-08_14h59.13.510,HideSeek_v1,2023.1.3,60.0851406280639,
,4,4,4,8,0,4,65,,train_dim1_1,4,24,2,0,2,0,,,,,,,,,0,0,0,0,0,3,3,3,14,0,14,0,,,,,,,,,,,,,,,,,,,,,,,,,,,,,,,,,,,,,,,,,,,,,,,,,,,,,,24,,,,,,,,53.29183150001336,53.29183150001336,53.29183150001336,53.29183150001336,53.29183150001336,right,0.17775370000163093,1,1,0,99,0.7999999999999999,-0.48000000000000004,right,0.07466430001659319,None,,,,,,,,,,,,,,,,,,,,,,,,,,,,,,,,2024-07-08_14h59.13.510,HideSeek_v1,2023.1.3,60.0851406280639,
,4,4,4,8,0,4,65,,train_dim1_1,4,24,2,0,2,0,,,,,,,,,0,0,0,0,0,3,3,3,15,0,15,0,,,,,,,,,,,,,,,,,,,,,,,,,,,,,,,,,,,,,,,,,,,,,,,,,,,,,,24,,,,,,,,53.47502509999322,53.47502509999322,53.47502509999322,53.47502509999322,53.47502509999322,right,0.3603587999823503,1,1,0,99,0.8799999999999999,-0.48000000000000004,right,0.2643732000142336,None,,,,,,,,,,,,,,,,,,,,,,,,,,,,,,,,2024-07-08_14h59.13.510,HideSeek_v1,2023.1.3,60.0851406280639,
,4,4,4,8,0,4,65,,train_dim1_1,4,24,2,0,2,0,,,,,,,,,0,0,0,0,0,3,3,3,16,0,16,0,,,,,,,,,,,,,,,,,,,,,,,,,,,,,,,,,,,,,,,,,,,,,,,,,,,,,,24,,,,,,,,53.84416430001147,53.84416430001147,53.84416430001147,53.84416430001147,53.84416430001147,right,0.22753939998801798,1,1,0,99,0.9599999999999999,-0.48000000000000004,right,0.12222289998317137,None,,,,,,,,,,,,,,,,,,,,,,,,,,,,,,,,2024-07-08_14h59.13.510,HideSeek_v1,2023.1.3,60.0851406280639,
,4,4,4,8,0,4,65,,train_dim1_1,4,24,2,0,2,0,,,,,,,,,0,0,0,0,0,3,3,3,17,0,17,0,,,,,,,,,,,,,,,,,,,,,,,,,,,,,,,,,,,,,,,,,,,,,,,,,,,,,,24,,,,,,,,54.091449600004125,54.091449600004125,54.091449600004125,54.091449600004125,54.091449600004125,right,0.21066859998973086,1,1,0,99,1.0399999999999998,-0.48000000000000004,right,0.08843899995554239,None,,,,,,,,,,,,,,,,,,,,,,,,,,,,,,,,2024-07-08_14h59.13.510,HideSeek_v1,2023.1.3,60.0851406280639,
,4,4,4,8,0,4,65,,train_dim1_1,4,24,2,0,2,0,,,,,,,,,0,0,0,0,0,3,3,3,18,0,18,0,,,,,,,,,,,,,,,,,,,,,,,,,,,,,,,,,,,,,,,,,,,,,,,,,,,,,,24,,,,,,,,54.30874629999744,54.30874629999744,54.30874629999744,54.30874629999744,54.30874629999744,right,0.2776626999839209,1,1,0,99,1.1199999999999999,-0.48000000000000004,right,0.16193060000659898,None,,,,,,,,,,,,,,,,,,,,,,,,,,,,,,,,2024-07-08_14h59.13.510,HideSeek_v1,2023.1.3,60.0851406280639,
,4,4,4,8,0,4,65,,train_dim1_1,4,24,2,0,2,0,,,,,,,,,0,0,0,0,0,3,3,3,19,0,19,0,,,,,,,,,,,,,,,,,,,,,,,,,,,,,,,,,,,,,,,,,,,,,,,,,,,,,,24,,,,,,,,54.593078800011426,54.593078800011426,54.593078800011426,54.593078800011426,54.593078800011426,left,0.37641480000456795,1,1,0,99,1.0399999999999998,-0.48000000000000004,left,0.25575579999713227,None,,,,,,,,,,,,,,,,,,,,,,,,,,,,,,,,2024-07-08_14h59.13.510,HideSeek_v1,2023.1.3,60.0851406280639,
,4,4,4,8,0,4,65,,train_dim1_1,4,24,2,0,2,0,,,,,,,,,0,0,0,0,0,3,3,3,20,0,20,0,,,,,,,,,,,,,,,,,,,,,,,,,,,,,,,,,,,,,,,,,,,,,,,,,,,,,,24,,,,,,,,54.94320300000254,54.94320300000254,54.94320300000254,54.94320300000254,54.94320300000254,left,0.24482029996579513,1,1,0,99,0.9599999999999999,-0.48000000000000004,left,0.1599790999898687,None,,,,,,,,,,,,,,,,,,,,,,,,,,,,,,,,2024-07-08_14h59.13.510,HideSeek_v1,2023.1.3,60.0851406280639,
,4,4,4,8,0,4,65,,train_dim1_1,4,24,2,0,2,0,,,,,,,,,0,0,0,0,0,3,3,3,21,0,21,0,,,,,,,,,,,,,,,,,,,,,,,,,,,,,,,,,,,,,,,,,,,,,,,,,,,,,,24,,,,,,,,55.19447550002951,55.19447550002951,55.19447550002951,55.19447550002951,55.19447550002951,left,0.31085250002797693,1,1,0,99,0.8799999999999999,-0.48000000000000004,left,0.22191740002017468,None,,,,,,,,,,,,,,,,,,,,,,,,,,,,,,,,2024-07-08_14h59.13.510,HideSeek_v1,2023.1.3,60.0851406280639,
,4,4,4,8,0,4,65,,train_dim1_1,4,24,2,0,2,0,,,,,,,,,0,0,0,0,0,3,3,3,22,0,22,0,,,,,,,,,,,,,,,,,,,,,,,,,,,,,,,,,,,,,,,,,,,,,,,,,,,,,,24,,,,,,,,55.51160140003776,55.51160140003776,55.51160140003776,55.51160140003776,55.51160140003776,return,0.8606749000027776,1,1,0,0,0.8799999999999999,-0.48000000000000004,return,0.7732764999964274,None,-3,15,0.8799999999999999,-0.48000000000000004,,,,,,,,,,,,,,,,,,,,,,,,,,,,2024-07-08_14h59.13.510,HideSeek_v1,2023.1.3,60.0851406280639,
,,,,,,,,,,,,,,,,,,,,,,,,,,,,,,,,,,,,,,,,,,,,,,,,,,,,,,,,,,,,,,,,,,,,,,,,,,,,,,,,,,,,,,,,,,,,,,,,,,,,,,,,,,,0,,,,,,,,,,56.32477060001111,57.941868800029624,0.16,0.24,0.32,0.0,0.07999999999999999,0.16,0.16,0.16,0.24,57.941868800029624,57.941868800029624,57.941868800029624,57.941868800029624,57.941868800029624,57.941868800029624,57.941868800029624,57.941868800029624,57.92520032005851,,,,,,,,,,,,
