trialInstr,x_fixStart,y_fixStart,x_corrSteps,y_corrSteps,x_nrSteps,y_nrSteps,alienID,trialLength,version,beforeExpLoop.thisRepN,beforeExpLoop.thisTrialN,beforeExpLoop.thisN,beforeExpLoop.thisIndex,mini_instr_trials.thisRepN,mini_instr_trials.thisTrialN,mini_instr_trials.thisN,mini_instr_trials.thisIndex,instrLoop.thisRepN,instrLoop.thisTrialN,instrLoop.thisN,instrLoop.thisIndex,repeat_prac.thisRepN,repeat_prac.thisTrialN,repeat_prac.thisN,repeat_prac.thisIndex,trainLoop.thisRepN,trainLoop.thisTrialN,trainLoop.thisN,trainLoop.thisIndex,start_all_time,url,slideStim,audioStim,slides.started,sounds.started,nextButton.numClicks,nextButton.timesOn,nextButton.timesOff,prev_but.numClicks,prev_but.timesOn,prev_but.timesOff,alienStim,instrFile,alienStim_instr,gridImage_instr.started,startPos_3.started,key_instr.started,alienImage_3.started,sounds_1.started,key_instr.keys,key_instr.rt,key_instr.duration,all_x,all_y,FBy_corrSteps,FBy_fixStart,FBx_corrSteps,FBx_fixStart,FBy_pathSize_check,FBx_pathSize_check,gridImage_9.started,alienImageFB_3.started,startPosFB_3.started,keyFB_3.started,pathLine_ydir_2.started,pathLine_xdir_2.started,alienFace_3.started,sounds_2.started,RTFB_instr,keyFB_3.keys,keyFB_3.rt,keyFB_3.duration,draw_alienStim,draw_alienID,test_x,nrepcount,perfthres,percthres,earlierperf,earlystop,nextPrac,fileidx,praclen,saveACC_train,pracFile,nextPrac_train,addNrep,fileidx_endr,repExp,showearly,participant,study_id,session_id,date,expName,psychopyVersion,frameRate,
,,,,,,,,,,0,0,0,0,0,0,0,0,,,,,,,,,,,,,start_all_time,testround,stimuli/instructions/Slide1.png,stimuli/instructions/Audio1.wav,10.388240699889138,10.277288409881294,1,[2.226125600049272],[2.2261312999762595],0,,,,,,,,,,,,,,,,,,,,,,,,,,,,,,,,,,,,,,,,,,,,,,,,,,,,,,,2024-06-28_13h29.08.289,HideSeek_v1,2023.1.3,59.875757846232375,
,,,,,,,,,,0,0,0,0,1,0,1,0,,,,,,,,,,,,,,,stimuli/instructions/Slide2.png,stimuli/instructions/Audio2.wav,12.590443099848926,12.588050680002198,1,[0.6296052997931838],[0.6296084998175502],0,,,,,,,,,,,,,,,,,,,,,,,,,,,,,,,,,,,,,,,,,,,,,,,,,,,,,,,2024-06-28_13h29.08.289,HideSeek_v1,2023.1.3,59.875757846232375,
,,,,,,,,,,0,0,0,0,2,0,2,0,,,,,,,,,,,,,,,stimuli/instructions/Slide3.png,stimuli/instructions/Audio3.wav,13.324321399908513,13.321799209807068,0,,,1,[1.480979099869728],[1.480983299901709],,,,,,,,,,,,,,,,,,,,,,,,,,,,,,,,,,,,,,,,,,,,,,,,,,,,,2024-06-28_13h29.08.289,HideSeek_v1,2023.1.3,59.875757846232375,
,,,,,,,,,,0,0,0,0,3,0,3,0,,,,,,,,,,,,,,,stimuli/instructions/Slide2.png,stimuli/instructions/Audio2.wav,14.904599499888718,14.888201279798523,0,,,1,[4.460125700104982],[4.460130200022832],,,,,,,,,,,,,,,,,,,,,,,,,,,,,,,,,,,,,,,,,,,,,,,,,,,,,2024-06-28_13h29.08.289,HideSeek_v1,2023.1.3,59.875757846232375,
,,,,,,,,,,0,0,0,0,4,0,4,0,,,,,,,,,,,,,,,stimuli/instructions/Slide1.png,stimuli/instructions/Audio1.wav,19.438046399969608,19.421757149975747,1,[2.6073888998944312],[2.6073922999203205],0,,,,,,,,,,,,,,,,,,,,,,,,,,,,,,,,,,,,,,,,,,,,,,,,,,,,,,,2024-06-28_13h29.08.289,HideSeek_v1,2023.1.3,59.875757846232375,
,,,,,,,,,,0,0,0,0,5,0,5,0,,,,,,,,,,,,,,,stimuli/instructions/Slide2.png,stimuli/instructions/Audio2.wav,22.121347399894148,22.104752749903128,1,[1.7040633999276906],[1.7040671999566257],0,,,,,,,,,,,,,,,,,,,,,,,,,,,,,,,,,,,,,,,,,,,,,,,,,,,,,,,2024-06-28_13h29.08.289,HideSeek_v1,2023.1.3,59.875757846232375,
,,,,,,,,,,0,0,0,0,6,0,6,0,,,,,,,,,,,,,,,stimuli/instructions/Slide3.png,stimuli/instructions/Audio3.wav,23.920989299891517,23.904756679898128,1,[0.6700559998862445],[0.6700593000277877],0,,,,,,,,,,,,,,,,,,,,,,,,,,,,,,,,,,,,,,,,,,,,,,,,,,,,,,,2024-06-28_13h29.08.289,HideSeek_v1,2023.1.3,59.875757846232375,
,,,,,,,,,,0,0,0,0,7,0,7,0,,,,,,,,,,,,,,,stimuli/instructions/Slide4.png,stimuli/instructions/Audio4.wav,24.687304599909112,24.68805300979875,0,,,1,[1.517259200103581],[1.5172621000092477],,,,,,,,,,,,,,,,,,,,,,,,,,,,,,,,,,,,,,,,,,,,,,,,,,,,,2024-06-28_13h29.08.289,HideSeek_v1,2023.1.3,59.875757846232375,
,,,,,,,,,,0,0,0,0,8,0,8,0,,,,,,,,,,,,,,,stimuli/instructions/Slide3.png,stimuli/instructions/Audio3.wav,26.30448649986647,26.288364779902622,0,,,1,[0.5546220999676734],[0.5546256001107395],,,,,,,,,,,,,,,,,,,,,,,,,,,,,,,,,,,,,,,,,,,,,,,,,,,,,2024-06-28_13h29.08.289,HideSeek_v1,2023.1.3,59.875757846232375,
,,,,,,,,,,0,0,0,0,9,0,9,0,,,,,,,,,,,,,,,stimuli/instructions/Slide2.png,stimuli/instructions/Audio2.wav,26.93783780001104,26.921801649965346,1,[2.472524099983275],[2.472528000129387],0,,,,,,,,,,,,,,,,,,,,,,,,,,,,,,,,,,,,,,,,,,,,,,,,,,,,,,,2024-06-28_13h29.08.289,HideSeek_v1,2023.1.3,59.875757846232375,
,,,,,,,,,,0,0,0,0,10,0,10,0,,,,,,,,,,,,,,,stimuli/instructions/Slide3.png,stimuli/instructions/Audio3.wav,29.521616299869493,29.50673380983062,1,[0.2549439000431448],[0.2549479999579489],0,,,,,,,,,,,,,,,,,,,,,,,,,,,,,,,,,,,,,,,,,,,,,,,,,,,,,,,2024-06-28_13h29.08.289,HideSeek_v1,2023.1.3,59.875757846232375,
,,,,,,,,,,0,0,0,0,11,0,11,0,,,,,,,,,,,,,,,stimuli/instructions/Slide4.png,stimuli/instructions/Audio4.wav,29.906549899838865,29.905497869942337,1,[0.28107280004769564],[0.2810776000842452],0,,,,,,,,,,,,,,,,,,,,,,,,,,,,,,,,,,,,,,,,,,,,,,,,,,,,,,,2024-06-28_13h29.08.289,HideSeek_v1,2023.1.3,59.875757846232375,
,,,,,,,,,,0,0,0,0,12,0,12,0,,,,,,,,,,,,,,,stimuli/instructions/Slide5.png,stimuli/instructions/Audio5.wav,30.25429519987665,30.238635019864887,1,[0.3392121000215411],[0.3392153999302536],0,,,,,,,,,,,,,,,,,,,,,,,,,,,,,,,,,,,,,,,,,,,,,,,,,,,,,,,2024-06-28_13h29.08.289,HideSeek_v1,2023.1.3,59.875757846232375,
,,,,,,,,,,0,0,0,0,13,0,13,0,,,,,,,,,,,,,,,stimuli/instructions/Slide6.png,stimuli/instructions/Audio6.wav,30.637921900022775,30.620965390000492,1,[0.3542738000396639],[0.3542772999498993],0,,,,,,,,,,,,,,,,,,,,,,,,,,,,,,,,,,,,,,,,,,,,,,,,,,,,,,,2024-06-28_13h29.08.289,HideSeek_v1,2023.1.3,59.875757846232375,
,,,,,,,,,,0,0,0,0,14,0,14,0,,,,,,,,,,,,,,,stimuli/instructions/Slide7.png,stimuli/instructions/Audio7.wav,31.038525499869138,31.021444089943543,1,[0.3346320998389274],[0.33463619998656213],0,,,,,,,,,,,,,,,,,,,,,,,,,,,,,,,,,,,,,,,,,,,,,,,,,,,,,,,2024-06-28_13h29.08.289,HideSeek_v1,2023.1.3,59.875757846232375,
,,,,,,,,,,0,0,0,0,15,0,15,0,,,,,,,,,,,,,,,stimuli/instructions/Slide8.png,stimuli/instructions/Audio8.wav,31.438401099992916,31.42118241987191,1,[0.3514133000280708],[0.3514167000539601],0,,,,,,,,,,,,,,,,,,,,,,,,,,,,,,,,,,,,,,,,,,,,,,,,,,,,,,,2024-06-28_13h29.08.289,HideSeek_v1,2023.1.3,59.875757846232375,
,,,,,,,,,,0,0,0,0,16,0,16,0,,,,,,,,,,,,,,,stimuli/instructions/Slide9.png,stimuli/instructions/Audio9.wav,31.85451929992996,31.837900819955394,1,[0.3922367000486702],[0.39224119996652007],0,,,,,,,,,,,,,,,,,,,,,,,,,,,,,,,,,,,,,,,,,,,,,,,,,,,,,,,2024-06-28_13h29.08.289,HideSeek_v1,2023.1.3,59.875757846232375,
,,,,,,,,,,0,0,0,0,17,0,17,0,,,,,,,,,,,,,,,stimuli/instructions/Slide10.png,stimuli/instructions/Audio10.wav,32.290064099943265,32.28809891990386,1,[0.4791158000007272],[0.4791191001422703],0,,,,,,,,,,,,,,,,,,,,,,,,,,,,,,,,,,,,,,,,,,,,,,,,,,,,,,,2024-06-28_13h29.08.289,HideSeek_v1,2023.1.3,59.875757846232375,
,,,,,,,,,,0,0,0,0,18,0,18,0,,,,,,,,,,,,,,,stimuli/instructions/Slide11.png,stimuli/instructions/Audio11.wav,32.83800689992495,32.820919619873166,1,[0.5529243999626487],[0.55292829987593],0,,,,,,,,,,,,,,,,,,,,,,,,,,,,,,,,,,,,,,,,,,,,,,,,,,,,,,,2024-06-28_13h29.08.289,HideSeek_v1,2023.1.3,59.875757846232375,
,,,,,,,,,,0,0,0,0,19,0,19,0,,,,,,,,,,,,,,,stimuli/instructions/Slide12.png,stimuli/instructions/Audio12.wav,33.458454199833795,33.454685849836096,1,[0.5114458999596536],[0.5114491998683661],0,,,,,,,,,,,,,,,,,,,,,,,,,,,,,,,,,,,,,,,,,,,,,,,,,,,,,,,2024-06-28_13h29.08.289,HideSeek_v1,2023.1.3,59.875757846232375,
1,0,3,0,8,0,5,66,2,instr_dim1_1,0,0,0,0,,,,,0,0,0,0,,,,,,,,,,,,,,,,,,,,,stimuli/alien_stimuli/66.png,conditions/inputInstr_1.xlsx,stimuli/alien_stimuli/66.png,34.1045201998204,34.1045201998204,34.1045201998204,34.1045201998204,34.07128500984982,return,1.1116621000692248,None,"[-0.16, -0.08, 0, 0.08, 0.16, 0.24, 0.32, 0.4, 0.48, 0.56]","[-0.4, -0.32, -0.24, -0.16, -0.08, 0, 0.08, 0.16, 0.24, 0.32]",8,3,0,0,0.4,0.0,35.50670579983853,35.50670579983853,35.50670579983853,35.50670579983853,35.50670579983853,35.50670579983853,35.50670579983853,35.422360230004415,0.5498695999849588,return,0.2724526999518275,None,stimuli/alien_stimuli/66.png,66,0,1,,,,,,,,,,,,,,,,,,2024-06-28_13h29.08.289,HideSeek_v1,2023.1.3,59.875757846232375,
,,,,,,,,,,0,0,0,0,,,,,,,,,,,,,,,,,,,,,,,,,,,,,,,,,,,,,,,,,,,,,,,,,,,,,,,,,,,,,,,,17,0.7,0,0,99,1,24,0,conditions/inputTrain_1.1.xlsx,99,1,1,1,0,,,,2024-06-28_13h29.08.289,HideSeek_v1,2023.1.3,59.875757846232375,
,,,,,,,,,,1,0,1,0,0,0,0,0,,,,,,,,,,,,,,,stimuli/instructions/Slide13.png,stimuli/instructions/Audio13.wav,35.95740709989332,35.954995499923825,0,,,1,[1.9642415000125766],[1.9642457000445575],,,,,,,,,,,,,,,,,,,,,,,,,,,,,,,,,,,,,,,,,,,,,,,,,,,,,2024-06-28_13h29.08.289,HideSeek_v1,2023.1.3,59.875757846232375,
,,,,,,,,,,1,0,1,0,1,0,1,0,,,,,,,,,,,,,,,stimuli/instructions/Slide12.png,stimuli/instructions/Audio12.wav,37.98885089997202,37.97096481989138,0,,,1,[0.4516288999002427],[0.45163269992917776],,,,,,,,,,,,,,,,,,,,,,,,,,,,,,,,,,,,,,,,,,,,,,,,,,,,,2024-06-28_13h29.08.289,HideSeek_v1,2023.1.3,59.875757846232375,
,,,,,,,,,,1,0,1,0,2,0,2,0,,,,,,,,,,,,,,,stimuli/instructions/Slide11.png,stimuli/instructions/Audio11.wav,38.504319599829614,38.48784421989694,0,,,1,[0.38731470005586743],[0.38731879997067153],,,,,,,,,,,,,,,,,,,,,,,,,,,,,,,,,,,,,,,,,,,,,,,,,,,,,2024-06-28_13h29.08.289,HideSeek_v1,2023.1.3,59.875757846232375,
,,,,,,,,,,1,0,1,0,3,0,3,0,,,,,,,,,,,,,,,stimuli/instructions/Slide10.png,stimuli/instructions/Audio10.wav,38.938739300007,38.92102958983742,0,,,1,[0.4683020000811666],[0.46830489998683333],,,,,,,,,,,,,,,,,,,,,,,,,,,,,,,,,,,,,,,,,,,,,,,,,,,,,2024-06-28_13h29.08.289,HideSeek_v1,2023.1.3,59.875757846232375,
,,,,,,,,,,1,0,1,0,4,0,4,0,,,,,,,,,,,,,,,stimuli/instructions/Slide9.png,stimuli/instructions/Audio9.wav,39.45499280001968,39.454577720025554,1,[1.7143932001199573],[1.7143984001595527],0,,,,,,,,,,,,,,,,,,,,,,,,,,,,,,,,,,,,,,,,,,,,,,,,,,,,,,,2024-06-28_13h29.08.289,HideSeek_v1,2023.1.3,59.875757846232375,
,,,,,,,,,,1,0,1,0,5,0,5,0,,,,,,,,,,,,,,,stimuli/instructions/Slide10.png,stimuli/instructions/Audio10.wav,41.2202696998138,41.204626289894804,1,[0.36704979999922216],[0.36705389991402626],0,,,,,,,,,,,,,,,,,,,,,,,,,,,,,,,,,,,,,,,,,,,,,,,,,,,,,,,2024-06-28_13h29.08.289,HideSeek_v1,2023.1.3,59.875757846232375,
,,,,,,,,,,1,0,1,0,6,0,6,0,,,,,,,,,,,,,,,stimuli/instructions/Slide11.png,stimuli/instructions/Audio11.wav,41.6543767999392,41.638027619803324,1,[0.39088360010646284],[0.39088710001669824],0,,,,,,,,,,,,,,,,,,,,,,,,,,,,,,,,,,,,,,,,,,,,,,,,,,,,,,,2024-06-28_13h29.08.289,HideSeek_v1,2023.1.3,59.875757846232375,
,,,,,,,,,,1,0,1,0,7,0,7,0,,,,,,,,,,,,,,,stimuli/instructions/Slide12.png,stimuli/instructions/Audio12.wav,42.10509660001844,42.087850919924676,1,[0.40206120000220835],[0.40206649992614985],0,,,,,,,,,,,,,,,,,,,,,,,,,,,,,,,,,,,,,,,,,,,,,,,,,,,,,,,2024-06-28_13h29.08.289,HideSeek_v1,2023.1.3,59.875757846232375,
,,,,,,,,,,1,0,1,0,8,0,8,0,,,,,,,,,,,,,,,stimuli/instructions/Slide13.png,stimuli/instructions/Audio13.wav,42.588054299820215,42.571734049823135,1,[0.5734750998672098],[0.5734792998991907],0,,,,,,,,,,,,,,,,,,,,,,,,,,,,,,,,,,,,,,,,,,,,,,,,,,,,,,,2024-06-28_13h29.08.289,HideSeek_v1,2023.1.3,59.875757846232375,
,,,,,,,,,,1,0,1,0,9,0,9,0,,,,,,,,,,,,,,,stimuli/instructions/Slide14.png,stimuli/instructions/Audio14.wav,43.23763529979624,43.22171974997036,1,[0.5405685000587255],[0.5405715999659151],0,,,,,,,,,,,,,,,,,,,,,,,,,,,,,,,,,,,,,,,,,,,,,,,,,,,,,,,2024-06-28_13h29.08.289,HideSeek_v1,2023.1.3,59.875757846232375,
2,2,3,2,3,0,0,61,2,instr_dim1_1,1,0,1,0,,,,,0,0,0,0,,,,,,,,,,,,,,,,,,,,,stimuli/alien_stimuli/61.png,conditions/inputInstr_1.xlsx,stimuli/alien_stimuli/61.png,43.85456519993022,43.85456519993022,43.85456519993022,43.85456519993022,43.837984449928626,return,1.5346629999112338,None,"[-0.16, -0.08, 0, 0.08, 0.16, 0.24, 0.32, 0.4, 0.48, 0.56]","[-0.4, -0.32, -0.24, -0.16, -0.08, 0, 0.08, 0.16, 0.24, 0.32]",3,3,2,2,0.0,0.0,45.55479820002802,45.55479820002802,45.55479820002802,45.55479820002802,45.55479820002802,45.55479820002802,45.55479820002802,45.53820623992942,0.45020520011894405,return,0.28426850005052984,None,stimuli/alien_stimuli/61.png,61,2,2,,,,,,,,,,,,,,,,,,2024-06-28_13h29.08.289,HideSeek_v1,2023.1.3,59.875757846232375,
,,,,,,,,,,1,0,1,0,,,,,,,,,,,,,,,,,,,,,,,,,,,,,,,,,,,,,,,,,,,,,,,,,,,,,,,,,,,,,,,,17,0.7,0,0,99,1,24,0,conditions/inputTrain_1.1.xlsx,99,1,1,1,0,,,,2024-06-28_13h29.08.289,HideSeek_v1,2023.1.3,59.875757846232375,
,,,,,,,,,,2,0,2,0,0,0,0,0,,,,,,,,,,,,,,,stimuli/instructions/Slide15.png,stimuli/instructions/Audio15.wav,46.054552800022066,46.03816642984748,0,,,1,[1.7228296999819577],[1.7228339000139385],,,,,,,,,,,,,,,,,,,,,,,,,,,,,,,,,,,,,,,,,,,,,,,,,,,,,2024-06-28_13h29.08.289,HideSeek_v1,2023.1.3,59.875757846232375,
,,,,,,,,,,2,0,2,0,1,0,1,0,,,,,,,,,,,,,,,stimuli/instructions/Slide14.png,stimuli/instructions/Audio14.wav,47.838978399988264,47.837760149966925,0,,,1,[0.4467500001192093],[0.44675420015119016],,,,,,,,,,,,,,,,,,,,,,,,,,,,,,,,,,,,,,,,,,,,,,,,,,,,,2024-06-28_13h29.08.289,HideSeek_v1,2023.1.3,59.875757846232375,
,,,,,,,,,,2,0,2,0,2,0,2,0,,,,,,,,,,,,,,,stimuli/instructions/Slide13.png,stimuli/instructions/Audio13.wav,48.37112559983507,48.354597149882466,0,,,1,[0.5410054000094533],[0.5410102000460029],,,,,,,,,,,,,,,,,,,,,,,,,,,,,,,,,,,,,,,,,,,,,,,,,,,,,2024-06-28_13h29.08.289,HideSeek_v1,2023.1.3,59.875757846232375,
,,,,,,,,,,2,0,2,0,3,0,3,0,,,,,,,,,,,,,,,stimuli/instructions/Slide12.png,stimuli/instructions/Audio12.wav,48.971227099886164,48.95420211995952,0,,,1,[0.552406300092116],[0.5524098000023514],,,,,,,,,,,,,,,,,,,,,,,,,,,,,,,,,,,,,,,,,,,,,,,,,,,,,2024-06-28_13h29.08.289,HideSeek_v1,2023.1.3,59.875757846232375,
,,,,,,,,,,,,,,,,,,,,,,,,,,,,,,,,stimuli/instructions/Slide11.png,stimuli/instructions/Audio11.wav,49.587643599836156,49.571247319923714,,,,,,,,,,,,,,,,,,,,,,,,,,,,,,,,,,,,,,,,,,,,,,,,,,,,,,,,,,,,,,,
