trialInstr,x_fixStart,y_fixStart,x_corrSteps,y_corrSteps,x_nrSteps,y_nrSteps,alienID,trialLength,version,trialTrain,praclen,beforeExpLoop.thisRepN,beforeExpLoop.thisTrialN,beforeExpLoop.thisN,beforeExpLoop.thisIndex,mini_instr_trials.thisRepN,mini_instr_trials.thisTrialN,mini_instr_trials.thisN,mini_instr_trials.thisIndex,instrLoop.thisRepN,instrLoop.thisTrialN,instrLoop.thisN,instrLoop.thisIndex,repeat_prac.thisRepN,repeat_prac.thisTrialN,repeat_prac.thisN,repeat_prac.thisIndex,trainLoop.thisRepN,trainLoop.thisTrialN,trainLoop.thisN,trainLoop.thisIndex,moveLoop_train.thisRepN,moveLoop_train.thisTrialN,moveLoop_train.thisN,moveLoop_train.thisIndex,start_all_time,url,slideStim,audioStim,slides.started,sounds.started,nextButton.numClicks,nextButton.timesOn,nextButton.timesOff,prev_but.numClicks,prev_but.timesOn,prev_but.timesOff,alienStim,instrFile,alienStim_instr,gridImage_instr.started,startPos_3.started,key_instr.started,alienImage_3.started,sounds_1.started,key_instr.keys,key_instr.rt,key_instr.duration,all_x,all_y,FBy_corrSteps,FBy_fixStart,FBx_corrSteps,FBx_fixStart,FBy_pathSize_check,FBx_pathSize_check,gridImage_9.started,alienImageFB_3.started,startPosFB_3.started,keyFB_3.started,pathLine_ydir_2.started,pathLine_xdir_2.started,alienFace_3.started,sounds_2.started,RTFB_instr,keyFB_3.keys,keyFB_3.rt,keyFB_3.duration,draw_alienStim,draw_alienID,test_x,nrepcount,perfthres,percthres,earlierperf,earlystop,nextPrac,fileidx,praclen,saveACC_train,pracFile,nextPrac_train,addNrep,fileidx_endr,repExp,showearly,gridImage_4.started,startPos.started,movePos.started,key_resp.started,alienImage.started,buttonPress_train,RTchoice_train,cumAcctrain,saveACC_choice,corrAns,x_movePos_end,y_movePos_end,key_resp.keys,key_resp.rt,key_resp.duration,wLy_dir,wLx_dir,x_movePos,y_movePos,text_2.started,text_2.stopped,aft_x_corrPos,aft_y_corrPos,y_pathSize_check,x_pathSize_check,y_pathdirY,x_pathdirY,x_pathdirX,x_corrPos,y_corrPos,gridImage_6.started,alienImageFB_2.started,startPosFB_2.started,movePosFB_2.started,keyFB_2.started,pathLine_xdir.started,pathLine_ydir.started,alienFace.started,sounds_4.started,RT_FBtrain,keyFB_2.keys,keyFB_2.rt,keyFB_2.duration,saveACC_pre,within_saveACC_train,earlystop_wloop,cumAcctrain_check,participant,study_id,session_id,date,expName,psychopyVersion,frameRate,
,,,,,,,,,,,,0,0,0,0,0,0,0,0,,,,,,,,,,,,,,,,,start_all_time,testround,stimuli/instructions/Slide1.png,stimuli/instructions/Audio1.wav,20.576023400062695,20.539831601502375,1,[9.05068950005807],[9.050693100085482],0,,,,,,,,,,,,,,,,,,,,,,,,,,,,,,,,,,,,,,,,,,,,,,,,,,,,,,,,,,,,,,,,,,,,,,,,,,,,,,,,,,,,,,,,,,,,,,,,,,,,,,2024-06-25_16h01.43.362,HideSeek_v1,2023.1.3,60.3110481952949,
,,,,,,,,,,,,0,0,0,0,1,0,1,0,,,,,,,,,,,,,,,,,,,stimuli/instructions/Slide2.png,stimuli/instructions/Audio2.wav,29.67635970003903,29.659243800095282,1,[0.2869798999745399],[0.28698410000652075],0,,,,,,,,,,,,,,,,,,,,,,,,,,,,,,,,,,,,,,,,,,,,,,,,,,,,,,,,,,,,,,,,,,,,,,,,,,,,,,,,,,,,,,,,,,,,,,,,,,,,,,2024-06-25_16h01.43.362,HideSeek_v1,2023.1.3,60.3110481952949,
,,,,,,,,,,,,0,0,0,0,2,0,2,0,,,,,,,,,,,,,,,,,,,stimuli/instructions/Slide3.png,stimuli/instructions/Audio3.wav,30.076038599945605,30.059664999996315,1,[0.2236019999254495],[0.22360790008679032],0,,,,,,,,,,,,,,,,,,,,,,,,,,,,,,,,,,,,,,,,,,,,,,,,,,,,,,,,,,,,,,,,,,,,,,,,,,,,,,,,,,,,,,,,,,,,,,,,,,,,,,2024-06-25_16h01.43.362,HideSeek_v1,2023.1.3,60.3110481952949,
,,,,,,,,,,,,0,0,0,0,3,0,3,0,,,,,,,,,,,,,,,,,,,stimuli/instructions/Slide4.png,stimuli/instructions/Audio4.wav,30.392619400052354,30.392192999995316,1,[0.23339860001578927],[0.23340230016037822],0,,,,,,,,,,,,,,,,,,,,,,,,,,,,,,,,,,,,,,,,,,,,,,,,,,,,,,,,,,,,,,,,,,,,,,,,,,,,,,,,,,,,,,,,,,,,,,,,,,,,,,2024-06-25_16h01.43.362,HideSeek_v1,2023.1.3,60.3110481952949,
,,,,,,,,,,,,0,0,0,0,4,0,4,0,,,,,,,,,,,,,,,,,,,stimuli/instructions/Slide5.png,stimuli/instructions/Audio5.wav,30.676585000008345,30.659423699905165,1,[0.23446559999138117],[0.23446950013749301],0,,,,,,,,,,,,,,,,,,,,,,,,,,,,,,,,,,,,,,,,,,,,,,,,,,,,,,,,,,,,,,,,,,,,,,,,,,,,,,,,,,,,,,,,,,,,,,,,,,,,,,2024-06-25_16h01.43.362,HideSeek_v1,2023.1.3,60.3110481952949,
,,,,,,,,,,,,0,0,0,0,5,0,5,0,,,,,,,,,,,,,,,,,,,stimuli/instructions/Slide6.png,stimuli/instructions/Audio6.wav,30.959066099952906,30.94260809996631,1,[0.23703580000437796],[0.23704099981114268],0,,,,,,,,,,,,,,,,,,,,,,,,,,,,,,,,,,,,,,,,,,,,,,,,,,,,,,,,,,,,,,,,,,,,,,,,,,,,,,,,,,,,,,,,,,,,,,,,,,,,,,2024-06-25_16h01.43.362,HideSeek_v1,2023.1.3,60.3110481952949,
,,,,,,,,,,,,0,0,0,0,6,0,6,0,,,,,,,,,,,,,,,,,,,stimuli/instructions/Slide7.png,stimuli/instructions/Audio7.wav,31.242684500059113,31.225926500116476,1,[0.21906089992262423],[0.21906519983895123],0,,,,,,,,,,,,,,,,,,,,,,,,,,,,,,,,,,,,,,,,,,,,,,,,,,,,,,,,,,,,,,,,,,,,,,,,,,,,,,,,,,,,,,,,,,,,,,,,,,,,,,2024-06-25_16h01.43.362,HideSeek_v1,2023.1.3,60.3110481952949,
,,,,,,,,,,,,0,0,0,0,7,0,7,0,,,,,,,,,,,,,,,,,,,stimuli/instructions/Slide8.png,stimuli/instructions/Audio8.wav,31.52727090008557,31.525834000087343,1,[0.18398829991929233],[0.1839936999604106],0,,,,,,,,,,,,,,,,,,,,,,,,,,,,,,,,,,,,,,,,,,,,,,,,,,,,,,,,,,,,,,,,,,,,,,,,,,,,,,,,,,,,,,,,,,,,,,,,,,,,,,2024-06-25_16h01.43.362,HideSeek_v1,2023.1.3,60.3110481952949,
,,,,,,,,,,,,0,0,0,0,8,0,8,0,,,,,,,,,,,,,,,,,,,stimuli/instructions/Slide9.png,stimuli/instructions/Audio9.wav,31.775766799924895,31.759107200056317,1,[0.19097470003180206],[0.19098029984161258],0,,,,,,,,,,,,,,,,,,,,,,,,,,,,,,,,,,,,,,,,,,,,,,,,,,,,,,,,,,,,,,,,,,,,,,,,,,,,,,,,,,,,,,,,,,,,,,,,,,,,,,2024-06-25_16h01.43.362,HideSeek_v1,2023.1.3,60.3110481952949,
,,,,,,,,,,,,0,0,0,0,9,0,9,0,,,,,,,,,,,,,,,,,,,stimuli/instructions/Slide10.png,stimuli/instructions/Audio10.wav,32.01038459991105,32.00925019998103,1,[0.19749649986624718],[0.19750080001540482],0,,,,,,,,,,,,,,,,,,,,,,,,,,,,,,,,,,,,,,,,,,,,,,,,,,,,,,,,,,,,,,,,,,,,,,,,,,,,,,,,,,,,,,,,,,,,,,,,,,,,,,2024-06-25_16h01.43.362,HideSeek_v1,2023.1.3,60.3110481952949,
,,,,,,,,,,,,0,0,0,0,10,0,10,0,,,,,,,,,,,,,,,,,,,stimuli/instructions/Slide11.png,stimuli/instructions/Audio11.wav,32.275799999944866,32.25900259995833,1,[0.18929150002077222],[0.1892951000481844],0,,,,,,,,,,,,,,,,,,,,,,,,,,,,,,,,,,,,,,,,,,,,,,,,,,,,,,,,,,,,,,,,,,,,,,,,,,,,,,,,,,,,,,,,,,,,,,,,,,,,,,2024-06-25_16h01.43.362,HideSeek_v1,2023.1.3,60.3110481952949,
,,,,,,,,,,,,0,0,0,0,11,0,11,0,,,,,,,,,,,,,,,,,,,stimuli/instructions/Slide12.png,stimuli/instructions/Audio12.wav,32.52604950009845,32.50910640005022,1,[0.21804650011472404],[0.2180509001482278],0,,,,,,,,,,,,,,,,,,,,,,,,,,,,,,,,,,,,,,,,,,,,,,,,,,,,,,,,,,,,,,,,,,,,,,,,,,,,,,,,,,,,,,,,,,,,,,,,,,,,,,2024-06-25_16h01.43.362,HideSeek_v1,2023.1.3,60.3110481952949,
1,0,3,0,8,0,5,66,2,instr_dim1_1,,,0,0,0,0,,,,,0,0,0,0,,,,,,,,,,,,,,,,,,,,,,,,,stimuli/alien_stimuli/66.png,conditions/inputInstr_1.xlsx,stimuli/alien_stimuli/66.png,32.85932649997994,32.85932649997994,32.85932649997994,32.85932649997994,32.80933720001485,return,0.2936982000246644,None,"[-0.16, -0.08, 0, 0.08, 0.16, 0.24, 0.32, 0.4, 0.48, 0.56]","[-0.4, -0.32, -0.24, -0.16, -0.08, 0, 0.08, 0.16, 0.24, 0.32]",8,3,0,0,0.4,0.0,33.40943820006214,33.40943820006214,33.40943820006214,33.40943820006214,33.40943820006214,33.40943820006214,33.40943820006214,33.292246299982075,0.30029010004363954,return,0.0357297002337873,None,stimuli/alien_stimuli/66.png,66,0,1,,,,,,,,,,,,,,,,,,,,,,,,,,,,,,,,,,,,,,,,,,,,,,,,,,,,,,,,,,,,,,,,,2024-06-25_16h01.43.362,HideSeek_v1,2023.1.3,60.3110481952949,
,,,,,,,,,,,24,0,0,0,0,,,,,,,,,,,,,,,,,,,,,,,,,,,,,,,,,,,,,,,,,,,,,,,,,,,,,,,,,,,,,,,,,,,,17,70,0,0,99,1,24,0,conditions/inputTrain_1.1.xlsx,99,1,1,1,0,,,,,,,,,,,,,,,,,,,,,,,,,,,,,,,,,,,,,,,,,,,,,,,,,,,2024-06-25_16h01.43.362,HideSeek_v1,2023.1.3,60.3110481952949,
,,,,,,,,,,,,1,0,1,0,0,0,0,0,,,,,,,,,,,,,,,,,,,stimuli/instructions/Slide13.png,stimuli/instructions/Audio13.wav,33.60999569995329,33.592683599982415,1,[0.26808389998041093],[0.26808859989978373],0,,,,,,,,,,,,,,,,,,,,,,,,,,,,,,,,,,,,,,,,,,,,,,,,,,,,,,,,,,,,,,,,,,,,,,,,,,,,,,,,,,,,,,,,,,,,,,,,,,,,,,2024-06-25_16h01.43.362,HideSeek_v1,2023.1.3,60.3110481952949,
,,,,,,,,,,,,1,0,1,0,1,0,1,0,,,,,,,,,,,,,,,,,,,stimuli/instructions/Slide14.png,stimuli/instructions/Audio14.wav,33.95900840009563,33.94253320002463,1,[0.2405979000031948],[0.24060250003822148],0,,,,,,,,,,,,,,,,,,,,,,,,,,,,,,,,,,,,,,,,,,,,,,,,,,,,,,,,,,,,,,,,,,,,,,,,,,,,,,,,,,,,,,,,,,,,,,,,,,,,,,2024-06-25_16h01.43.362,HideSeek_v1,2023.1.3,60.3110481952949,
2,2,3,2,3,0,0,61,2,instr_dim1_1,,,1,0,1,0,,,,,0,0,0,0,,,,,,,,,,,,,,,,,,,,,,,,,stimuli/alien_stimuli/61.png,conditions/inputInstr_1.xlsx,stimuli/alien_stimuli/61.png,34.275734700029716,34.275734700029716,34.275734700029716,34.275734700029716,34.259165499941446,return,0.32330250018276274,None,"[-0.16, -0.08, 0, 0.08, 0.16, 0.24, 0.32, 0.4, 0.48, 0.56]","[-0.4, -0.32, -0.24, -0.16, -0.08, 0, 0.08, 0.16, 0.24, 0.32]",3,3,2,2,0.0,0.0,34.792409899877384,34.792409899877384,34.792409899877384,34.792409899877384,34.792409899877384,34.792409899877384,34.792409899877384,34.775515200104564,0.25186640000902116,return,0.0646287000272423,None,stimuli/alien_stimuli/61.png,61,2,2,,,,,,,,,,,,,,,,,,,,,,,,,,,,,,,,,,,,,,,,,,,,,,,,,,,,,,,,,,,,,,,,,2024-06-25_16h01.43.362,HideSeek_v1,2023.1.3,60.3110481952949,
,,,,,,,,,,,24,1,0,1,0,,,,,,,,,,,,,,,,,,,,,,,,,,,,,,,,,,,,,,,,,,,,,,,,,,,,,,,,,,,,,,,,,,,,17,70,0,0,99,1,24,0,conditions/inputTrain_1.1.xlsx,99,1,1,1,0,,,,,,,,,,,,,,,,,,,,,,,,,,,,,,,,,,,,,,,,,,,,,,,,,,,2024-06-25_16h01.43.362,HideSeek_v1,2023.1.3,60.3110481952949,
,,,,,,,,,,,,2,0,2,0,0,0,0,0,,,,,,,,,,,,,,,,,,,stimuli/instructions/Slide15.png,stimuli/instructions/Audio15.wav,35.077545000007376,35.075926100206566,1,[0.332403700100258],[0.3324084000196308],0,,,,,,,,,,,,,,,,,,,,,,,,,,,,,,,,,,,,,,,,,,,,,,,,,,,,,,,,,,,,,,,,,,,,,,,,,,,,,,,,,,,,,,,,,,,,,,,,,,,,,,2024-06-25_16h01.43.362,HideSeek_v1,2023.1.3,60.3110481952949,
,,,,,,,,,,,,2,0,2,0,1,0,1,0,,,,,,,,,,,,,,,,,,,stimuli/instructions/Slide16.png,stimuli/instructions/Audio16.wav,35.50917620002292,35.49233519998379,1,[0.22913570003584027],[0.22913890006020665],0,,,,,,,,,,,,,,,,,,,,,,,,,,,,,,,,,,,,,,,,,,,,,,,,,,,,,,,,,,,,,,,,,,,,,,,,,,,,,,,,,,,,,,,,,,,,,,,,,,,,,,2024-06-25_16h01.43.362,HideSeek_v1,2023.1.3,60.3110481952949,
,2,0,2,1,0,1,62,,train_dim1_1,1,24,2,0,2,0,,,,,,,,,0,0,0,0,0,0,0,0,0,0,0,0,,,,,,,,,,,,,stimuli/alien_stimuli/62.png,,,,,,,,,,,,,,,,,,,,,,,,,,,,,,,,,,,,,,,,,24,,,,,,,,35.809802799951285,35.809802799951285,35.809802799951285,35.809802799951285,35.809802799951285,up,2.023905999958515,0,0,99,0,-0.32,up,1.9224501000717282,None,,,,,,,,,,,,,,,,,,,,,,,,,,,,,,,,,,,,2024-06-25_16h01.43.362,HideSeek_v1,2023.1.3,60.3110481952949,
,2,0,2,1,0,1,62,,train_dim1_1,1,24,2,0,2,0,,,,,,,,,0,0,0,0,0,0,0,0,1,0,1,0,,,,,,,,,,,,,,,,,,,,,,,,,,,,,,,,,,,,,,,,,,,,,,,,,,,,,,24,,,,,,,,37.8422445000615,37.8422445000615,37.8422445000615,37.8422445000615,37.8422445000615,return,0.19375979993492365,1,0,1,0,-0.32,return,0.09169490006752312,None,1,0,0,-0.32,,,,,,,,,,,,,,,,,,,,,,,,,,,,,,,,2024-06-25_16h01.43.362,HideSeek_v1,2023.1.3,60.3110481952949,
,2,2,2,5,0,3,64,,train_dim1_1,2,24,2,0,2,0,,,,,,,,,0,0,0,0,0,1,1,1,0,0,0,0,,,,,,,,,,,,,stimuli/alien_stimuli/64.png,,,,,,,,,,,,,,,,,,,,,,,,,,,,,,,stimuli/alien_stimuli/62.png,62,2,3,,,,,,,24,,,,,,,,41.45956759992987,41.45956759992987,41.45956759992987,41.45956759992987,41.45956759992987,up,0.4729154999367893,1,0,99,0,-0.15999999999999998,up,0.37670639995485544,None,,,,,39.89269410003908,41.45956759992987,0,-0.32,0.08,0.0,-0.36,0,0.0,0,-0.32,39.64260519994423,39.64260519994423,39.64260519994423,39.64260519994423,39.64260519994423,39.64260519994423,39.64260519994423,39.64260519994423,39.59248369997368,0.418488800060004,return,0.22747060027904809,None,,,,,,,,2024-06-25_16h01.43.362,HideSeek_v1,2023.1.3,60.3110481952949,
,2,2,2,5,0,3,64,,train_dim1_1,2,24,2,0,2,0,,,,,,,,,0,0,0,0,0,1,1,1,1,0,1,0,,,,,,,,,,,,,,,,,,,,,,,,,,,,,,,,,,,,,,,,,,,,,,,,,,,,,,24,,,,,,,,41.942586600081995,41.942586600081995,41.942586600081995,41.942586600081995,41.942586600081995,up,0.3601877000182867,1,0,99,0,-0.07999999999999997,up,0.2507847002707422,None,,,,,,,,,,,,,,,,,,,,,,,,,,,,,,,,,,,,2024-06-25_16h01.43.362,HideSeek_v1,2023.1.3,60.3110481952949,
,2,2,2,5,0,3,64,,train_dim1_1,2,24,2,0,2,0,,,,,,,,,0,0,0,0,0,1,1,1,2,0,2,0,,,,,,,,,,,,,,,,,,,,,,,,,,,,,,,,,,,,,,,,,,,,,,,,,,,,,,24,,,,,,,,42.30899369996041,42.30899369996041,42.30899369996041,42.30899369996041,42.30899369996041,up,0.2768579002004117,1,0,99,0,2.7755575615628914e-17,up,0.17658820026554167,None,,,,,,,,,,,,,,,,,,,,,,,,,,,,,,,,,,,,2024-06-25_16h01.43.362,HideSeek_v1,2023.1.3,60.3110481952949,
,2,2,2,5,0,3,64,,train_dim1_1,2,24,2,0,2,0,,,,,,,,,0,0,0,0,0,1,1,1,3,0,3,0,,,,,,,,,,,,,,,,,,,,,,,,,,,,,,,,,,,,,,,,,,,,,,,,,,,,,,24,,,,,,,,42.59241949999705,42.59241949999705,42.59241949999705,42.59241949999705,42.59241949999705,return,0.2942325999028981,2,0,1,0,2.7755575615628914e-17,return,0.19448770000599325,None,4,0,0,2.7755575615628914e-17,,,,,,,,,,,,,,,,,,,,,,,,,,,,,,,,2024-06-25_16h01.43.362,HideSeek_v1,2023.1.3,60.3110481952949,
,3,3,3,8,0,5,66,,train_dim1_1,3,24,2,0,2,0,,,,,,,,,0,0,0,0,0,2,2,2,0,0,0,0,,,,,,,,,,,,,stimuli/alien_stimuli/66.png,,,,,,,,,,,,,,,,,,,,,,,,,,,,,,,stimuli/alien_stimuli/64.png,64,2,4,,,,,,,24,,,,,,,,46.89223390002735,46.89223390002735,46.89223390002735,46.89223390002735,46.89223390002735,up,0.5088523998856544,2,0,99,0.08,-0.08,up,0.4052330001723021,None,,,,,45.325664799893275,46.89223390002735,0,0,0.24,0.0,-0.12,0,0.0,0,0,44.45903249992989,44.45903249992989,44.45903249992989,44.45903249992989,44.45903249992989,44.45903249992989,44.45903249992989,44.45903249992989,44.44215119997971,1.0015348999295384,return,0.8369051001500338,None,,,,,,,,2024-06-25_16h01.43.362,HideSeek_v1,2023.1.3,60.3110481952949,
,3,3,3,8,0,5,66,,train_dim1_1,3,24,2,0,2,0,,,,,,,,,0,0,0,0,0,2,2,2,1,0,1,0,,,,,,,,,,,,,,,,,,,,,,,,,,,,,,,,,,,,,,,,,,,,,,,,,,,,,,24,,,,,,,,47.3936604000628,47.3936604000628,47.3936604000628,47.3936604000628,47.3936604000628,up,0.22687419992871583,2,0,99,0.08,0.0,up,0.13865750026889145,None,,,,,,,,,,,,,,,,,,,,,,,,,,,,,,,,,,,,2024-06-25_16h01.43.362,HideSeek_v1,2023.1.3,60.3110481952949,
,3,3,3,8,0,5,66,,train_dim1_1,3,24,2,0,2,0,,,,,,,,,0,0,0,0,0,2,2,2,2,0,2,0,,,,,,,,,,,,,,,,,,,,,,,,,,,,,,,,,,,,,,,,,,,,,,,,,,,,,,24,,,,,,,,47.62580560008064,47.62580560008064,47.62580560008064,47.62580560008064,47.62580560008064,up,0.21074940008111298,2,0,99,0.08,0.08,up,0.13252860005013645,None,,,,,,,,,,,,,,,,,,,,,,,,,,,,,,,,,,,,2024-06-25_16h01.43.362,HideSeek_v1,2023.1.3,60.3110481952949,
,3,3,3,8,0,5,66,,train_dim1_1,3,24,2,0,2,0,,,,,,,,,0,0,0,0,0,2,2,2,3,0,3,0,,,,,,,,,,,,,,,,,,,,,,,,,,,,,,,,,,,,,,,,,,,,,,,,,,,,,,24,,,,,,,,47.842856500064954,47.842856500064954,47.842856500064954,47.842856500064954,47.842856500064954,up,0.21142669999971986,2,0,99,0.08,0.16,up,0.1307390001602471,None,,,,,,,,,,,,,,,,,,,,,,,,,,,,,,,,,,,,2024-06-25_16h01.43.362,HideSeek_v1,2023.1.3,60.3110481952949,
,3,3,3,8,0,5,66,,train_dim1_1,3,24,2,0,2,0,,,,,,,,,0,0,0,0,0,2,2,2,4,0,4,0,,,,,,,,,,,,,,,,,,,,,,,,,,,,,,,,,,,,,,,,,,,,,,,,,,,,,,24,,,,,,,,48.06088020000607,48.06088020000607,48.06088020000607,48.06088020000607,48.06088020000607,up,0.21047309995628893,2,0,99,0.08,0.24,up,0.1222169001121074,None,,,,,,,,,,,,,,,,,,,,,,,,,,,,,,,,,,,,2024-06-25_16h01.43.362,HideSeek_v1,2023.1.3,60.3110481952949,
,3,3,3,8,0,5,66,,train_dim1_1,3,24,2,0,2,0,,,,,,,,,0,0,0,0,0,2,2,2,5,0,5,0,,,,,,,,,,,,,,,,,,,,,,,,,,,,,,,,,,,,,,,,,,,,,,,,,,,,,,24,,,,,,,,48.27917960006744,48.27917960006744,48.27917960006744,48.27917960006744,48.27917960006744,return,0.4109461000189185,3,0,1,0.08,0.24,return,0.32154850009828806,None,9,0,0.08,0.24,,,,,,,,,,,,,,,,,,,,,,,,,,,,,,,,2024-06-25_16h01.43.362,HideSeek_v1,2023.1.3,60.3110481952949,
,4,4,4,8,0,4,65,,train_dim1_1,4,24,2,0,2,0,,,,,,,,,0,0,0,0,0,3,3,3,0,0,0,0,,,,,,,,,,,,,stimuli/alien_stimuli/65.png,,,,,,,,,,,,,,,,,,,,,,,,,,,,,,,stimuli/alien_stimuli/66.png,66,3,5,,,,,,,24,,,,,,,,52.76065930002369,52.76065930002369,52.76065930002369,52.76065930002369,52.76065930002369,up,0.3422016999684274,3,0,99,0.16,0.0,up,0.2653105000499636,None,,,,,51.20900289993733,52.76065930002369,0.08,0.24,0.4,0.0,0.039999999999999994,0.08,0.08,0.08,0.24,50.309124999912456,50.309124999912456,50.309124999912456,50.309124999912456,50.309124999912456,50.309124999912456,50.309124999912456,50.309124999912456,50.29237799998373,1.0676741001661867,return,0.8693113001063466,None,,,,,,,,2024-06-25_16h01.43.362,HideSeek_v1,2023.1.3,60.3110481952949,
,4,4,4,8,0,4,65,,train_dim1_1,4,24,2,0,2,0,,,,,,,,,0,0,0,0,0,3,3,3,1,0,1,0,,,,,,,,,,,,,,,,,,,,,,,,,,,,,,,,,,,,,,,,,,,,,,,,,,,,,,24,,,,,,,,53.125777000095695,53.125777000095695,53.125777000095695,53.125777000095695,53.125777000095695,up,0.26031899987719953,3,0,99,0.16,0.08,up,0.15980800008401275,None,,,,,,,,,,,,,,,,,,,,,,,,,,,,,,,,,,,,2024-06-25_16h01.43.362,HideSeek_v1,2023.1.3,60.3110481952949,
,4,4,4,8,0,4,65,,train_dim1_1,4,24,2,0,2,0,,,,,,,,,0,0,0,0,0,3,3,3,2,0,2,0,,,,,,,,,,,,,,,,,,,,,,,,,,,,,,,,,,,,,,,,,,,,,,,,,,,,,,24,,,,,,,,53.376820999896154,53.376820999896154,53.376820999896154,53.376820999896154,53.376820999896154,up,0.2274664998985827,3,0,99,0.16,0.16,up,0.14664600021205842,None,,,,,,,,,,,,,,,,,,,,,,,,,,,,,,,,,,,,2024-06-25_16h01.43.362,HideSeek_v1,2023.1.3,60.3110481952949,
,4,4,4,8,0,4,65,,train_dim1_1,4,24,2,0,2,0,,,,,,,,,0,0,0,0,0,3,3,3,3,0,3,0,,,,,,,,,,,,,,,,,,,,,,,,,,,,,,,,,,,,,,,,,,,,,,,,,,,,,,24,,,,,,,,53.61046290001832,53.61046290001832,53.61046290001832,53.61046290001832,53.61046290001832,up,0.21062440006062388,3,0,99,0.16,0.24,up,0.12898390018381178,None,,,,,,,,,,,,,,,,,,,,,,,,,,,,,,,,,,,,2024-06-25_16h01.43.362,HideSeek_v1,2023.1.3,60.3110481952949,
,4,4,4,8,0,4,65,,train_dim1_1,4,24,2,0,2,0,,,,,,,,,0,0,0,0,0,3,3,3,4,0,4,0,,,,,,,,,,,,,,,,,,,,,,,,,,,,,,,,,,,,,,,,,,,,,,,,,,,,,,24,,,,,,,,53.84241380007006,53.84241380007006,53.84241380007006,53.84241380007006,53.84241380007006,return,0.31060840003192425,4,0,1,0.16,0.24,return,0.2064449000172317,None,13,0,0.16,0.24,,,,,,,,,,,,,,,,,,,,,,,,,,,,,,,,2024-06-25_16h01.43.362,HideSeek_v1,2023.1.3,60.3110481952949,
,3,4,3,5,0,1,62,,train_dim1_1,5,24,2,0,2,0,,,,,,,,,0,0,0,0,0,4,4,4,0,0,0,0,,,,,,,,,,,,,stimuli/alien_stimuli/62.png,,,,,,,,,,,,,,,,,,,,,,,,,,,,,,,stimuli/alien_stimuli/65.png,65,4,6,,,,,,,24,,,,,,,,57.89229859993793,57.89229859993793,57.89229859993793,57.89229859993793,57.89229859993793,up,0.47488519991748035,4,0,99,0.08,0.0,up,0.371017400175333,None,,,,,56.32544600008987,57.89229859993793,0.16,0.24,0.32,0.0,0.07999999999999999,0.16,0.16,0.16,0.24,55.72565250005573,55.72565250005573,55.72565250005573,55.72565250005573,55.72565250005573,55.72565250005573,55.72565250005573,55.72565250005573,55.70893710008823,0.7347591000143439,return,0.5749280001036823,None,,,,,,,,2024-06-25_16h01.43.362,HideSeek_v1,2023.1.3,60.3110481952949,
,3,4,3,5,0,1,62,,train_dim1_1,5,24,2,0,2,0,,,,,,,,,0,0,0,0,0,4,4,4,1,0,1,0,,,,,,,,,,,,,,,,,,,,,,,,,,,,,,,,,,,,,,,,,,,,,,,,,,,,,,24,,,,,,,,58.375498600071296,58.375498600071296,58.375498600071296,58.375498600071296,58.375498600071296,return,0.5069715999998152,5,0,1,0.08,0.0,return,0.4162432001903653,None,14,0,0.08,0.0,,,,,,,,,,,,,,,,,,,,,,,,,,,,,,,,2024-06-25_16h01.43.362,HideSeek_v1,2023.1.3,60.3110481952949,
,4,0,4,4,0,4,65,,train_dim1_1,6,24,2,0,2,0,,,,,,,,,0,0,0,0,0,5,5,5,0,0,0,0,,,,,,,,,,,,,stimuli/alien_stimuli/65.png,,,,,,,,,,,,,,,,,,,,,,,,,,,,,,,stimuli/alien_stimuli/62.png,62,3,7,,,,,,,24,,,,,,,,64.16115699987859,64.16115699987859,64.16115699987859,64.16115699987859,64.16115699987859,up,0.4926456001121551,5,0,99,0.16,-0.32,up,0.40362680004909635,None,,,,,62.60905459988862,64.16115699987859,0.08,0,0.08,0.0,-0.04,0.08,0.08,0.08,0,60.442412100033835,60.442412100033835,60.442412100033835,60.442412100033835,60.442412100033835,60.442412100033835,60.442412100033835,60.442412100033835,60.42550840012264,2.2849503001198173,return,2.138652400113642,None,,,,,,,,2024-06-25_16h01.43.362,HideSeek_v1,2023.1.3,60.3110481952949,
,4,0,4,4,0,4,65,,train_dim1_1,6,24,2,0,2,0,,,,,,,,,0,0,0,0,0,5,5,5,1,0,1,0,,,,,,,,,,,,,,,,,,,,,,,,,,,,,,,,,,,,,,,,,,,,,,,,,,,,,,24,,,,,,,,64.66136260004714,64.66136260004714,64.66136260004714,64.66136260004714,64.66136260004714,up,0.20944310002960265,5,0,99,0.16,-0.24,up,0.12063730019144714,None,,,,,,,,,,,,,,,,,,,,,,,,,,,,,,,,,,,,2024-06-25_16h01.43.362,HideSeek_v1,2023.1.3,60.3110481952949,
,4,0,4,4,0,4,65,,train_dim1_1,6,24,2,0,2,0,,,,,,,,,0,0,0,0,0,5,5,5,2,0,2,0,,,,,,,,,,,,,,,,,,,,,,,,,,,,,,,,,,,,,,,,,,,,,,,,,,,,,,24,,,,,,,,64.89206960005686,64.89206960005686,64.89206960005686,64.89206960005686,64.89206960005686,up,0.21074080001562834,5,0,99,0.16,-0.15999999999999998,up,0.10172190004959702,None,,,,,,,,,,,,,,,,,,,,,,,,,,,,,,,,,,,,2024-06-25_16h01.43.362,HideSeek_v1,2023.1.3,60.3110481952949,
,4,0,4,4,0,4,65,,train_dim1_1,6,24,2,0,2,0,,,,,,,,,0,0,0,0,0,5,5,5,3,0,3,0,,,,,,,,,,,,,,,,,,,,,,,,,,,,,,,,,,,,,,,,,,,,,,,,,,,,,,24,,,,,,,,65.09545899997465,65.09545899997465,65.09545899997465,65.09545899997465,65.09545899997465,up,0.2118353999685496,5,0,99,0.16,-0.07999999999999997,up,0.12464490020647645,None,,,,,,,,,,,,,,,,,,,,,,,,,,,,,,,,,,,,2024-06-25_16h01.43.362,HideSeek_v1,2023.1.3,60.3110481952949,
,4,0,4,4,0,4,65,,train_dim1_1,6,24,2,0,2,0,,,,,,,,,0,0,0,0,0,5,5,5,4,0,4,0,,,,,,,,,,,,,,,,,,,,,,,,,,,,,,,,,,,,,,,,,,,,,,,,,,,,,,24,,,,,,,,65.32556269993074,65.32556269993074,65.32556269993074,65.32556269993074,65.32556269993074,return,0.4268428001087159,6,0,1,0.16,-0.07999999999999997,return,0.331627800129354,None,18,0,0.16,-0.07999999999999997,,,,,,,,,,,,,,,,,,,,,,,,,,,,,,,,2024-06-25_16h01.43.362,HideSeek_v1,2023.1.3,60.3110481952949,
,0,3,0,6,0,3,64,,train_dim1_1,7,24,2,0,2,0,,,,,,,,,0,0,0,0,0,6,6,6,0,0,0,0,,,,,,,,,,,,,stimuli/alien_stimuli/64.png,,,,,,,,,,,,,,,,,,,,,,,,,,,,,,,stimuli/alien_stimuli/65.png,65,4,8,,,,,,,24,,,,,,,,69.21264000004157,69.21264000004157,69.21264000004157,69.21264000004157,69.21264000004157,up,0.3754638999234885,6,0,99,-0.16,-0.08,up,0.29571250011213124,None,,,,,67.65900580002926,69.21264000004157,0.16,-0.08,0.32,0.0,-0.24000000000000002,0.16,0.16,0.16,-0.08,67.30890500009991,67.30890500009991,67.30890500009991,67.30890500009991,67.30890500009991,67.30890500009991,67.30890500009991,67.30890500009991,67.2921141001163,0.468335899990052,return,0.3240854002069682,None,,,,,,,,2024-06-25_16h01.43.362,HideSeek_v1,2023.1.3,60.3110481952949,
,0,3,0,6,0,3,64,,train_dim1_1,7,24,2,0,2,0,,,,,,,,,0,0,0,0,0,6,6,6,1,0,1,0,,,,,,,,,,,,,,,,,,,,,,,,,,,,,,,,,,,,,,,,,,,,,,,,,,,,,,24,,,,,,,,69.59355510002933,69.59355510002933,69.59355510002933,69.59355510002933,69.59355510002933,up,0.2106453999876976,6,0,99,-0.16,0.0,up,0.12720370013266802,None,,,,,,,,,,,,,,,,,,,,,,,,,,,,,,,,,,,,2024-06-25_16h01.43.362,HideSeek_v1,2023.1.3,60.3110481952949,
,0,3,0,6,0,3,64,,train_dim1_1,7,24,2,0,2,0,,,,,,,,,0,0,0,0,0,6,6,6,2,0,2,0,,,,,,,,,,,,,,,,,,,,,,,,,,,,,,,,,,,,,,,,,,,,,,,,,,,,,,24,,,,,,,,69.81195629993454,69.81195629993454,69.81195629993454,69.81195629993454,69.81195629993454,up,0.21019260003231466,6,0,99,-0.16,0.08,up,0.11955060018226504,None,,,,,,,,,,,,,,,,,,,,,,,,,,,,,,,,,,,,2024-06-25_16h01.43.362,HideSeek_v1,2023.1.3,60.3110481952949,
,0,3,0,6,0,3,64,,train_dim1_1,7,24,2,0,2,0,,,,,,,,,0,0,0,0,0,6,6,6,3,0,3,0,,,,,,,,,,,,,,,,,,,,,,,,,,,,,,,,,,,,,,,,,,,,,,,,,,,,,,24,,,,,,,,70.02861539996229,70.02861539996229,70.02861539996229,70.02861539996229,70.02861539996229,return,0.31100840005092323,7,0,1,-0.16,0.08,return,0.21520840004086494,None,21,0,-0.16,0.08,,,,,,,,,,,,,,,,,,,,,,,,,,,,,,,,2024-06-25_16h01.43.362,HideSeek_v1,2023.1.3,60.3110481952949,
,4,1,4,6,0,5,66,,train_dim1_1,8,24,2,0,2,0,,,,,,,,,0,0,0,0,0,7,7,7,0,0,0,0,,,,,,,,,,,,,stimuli/alien_stimuli/66.png,,,,,,,,,,,,,,,,,,,,,,,,,,,,,,,stimuli/alien_stimuli/64.png,64,0,9,,,,,,,24,,,,,,,,74.07534829992801,74.07534829992801,74.07534829992801,74.07534829992801,74.07534829992801,up,0.5251500001177192,7,0,99,0.16,-0.24,up,0.42396720009855926,None,,,,,72.50918289995752,74.07534829992801,-0.16,0.08,0.24,0.0,-0.04,-0.16,-0.16,-0.16,0.08,71.90882909996435,71.90882909996435,71.90882909996435,71.90882909996435,71.90882909996435,71.90882909996435,71.90882909996435,71.90882909996435,71.89182760000693,0.7186239999718964,return,0.5754287000745535,None,,,,,,,,2024-06-25_16h01.43.362,HideSeek_v1,2023.1.3,60.3110481952949,
,4,1,4,6,0,5,66,,train_dim1_1,8,24,2,0,2,0,,,,,,,,,0,0,0,0,0,7,7,7,1,0,1,0,,,,,,,,,,,,,,,,,,,,,,,,,,,,,,,,,,,,,,,,,,,,,,,,,,,,,,24,,,,,,,,74.59725930006243,74.59725930006243,74.59725930006243,74.59725930006243,74.59725930006243,up,0.21078439988195896,7,0,99,0.16,-0.15999999999999998,up,0.1270998001564294,None,,,,,,,,,,,,,,,,,,,,,,,,,,,,,,,,,,,,2024-06-25_16h01.43.362,HideSeek_v1,2023.1.3,60.3110481952949,
,4,1,4,6,0,5,66,,train_dim1_1,8,24,2,0,2,0,,,,,,,,,0,0,0,0,0,7,7,7,2,0,2,0,,,,,,,,,,,,,,,,,,,,,,,,,,,,,,,,,,,,,,,,,,,,,,,,,,,,,,24,,,,,,,,74.81116999988444,74.81116999988444,74.81116999988444,74.81116999988444,74.81116999988444,up,0.19390069996006787,7,0,99,0.16,-0.07999999999999997,up,0.10516069992445409,None,,,,,,,,,,,,,,,,,,,,,,,,,,,,,,,,,,,,2024-06-25_16h01.43.362,HideSeek_v1,2023.1.3,60.3110481952949,
,4,1,4,6,0,5,66,,train_dim1_1,8,24,2,0,2,0,,,,,,,,,0,0,0,0,0,7,7,7,3,0,3,0,,,,,,,,,,,,,,,,,,,,,,,,,,,,,,,,,,,,,,,,,,,,,,,,,,,,,,24,,,,,,,,75.01124930009246,75.01124930009246,75.01124930009246,75.01124930009246,75.01124930009246,up,0.19401930016465485,7,0,99,0.16,2.7755575615628914e-17,up,0.10082280007191002,None,,,,,,,,,,,,,,,,,,,,,,,,,,,,,,,,,,,,2024-06-25_16h01.43.362,HideSeek_v1,2023.1.3,60.3110481952949,
,4,1,4,6,0,5,66,,train_dim1_1,8,24,2,0,2,0,,,,,,,,,0,0,0,0,0,7,7,7,4,0,4,0,,,,,,,,,,,,,,,,,,,,,,,,,,,,,,,,,,,,,,,,,,,,,,,,,,,,,,24,,,,,,,,75.21105109993368,75.21105109993368,75.21105109993368,75.21105109993368,75.21105109993368,up,0.1613784001674503,7,0,99,0.16,0.08000000000000003,up,0.07199260010384023,None,,,,,,,,,,,,,,,,,,,,,,,,,,,,,,,,,,,,2024-06-25_16h01.43.362,HideSeek_v1,2023.1.3,60.3110481952949,
,4,1,4,6,0,5,66,,train_dim1_1,8,24,2,0,2,0,,,,,,,,,0,0,0,0,0,7,7,7,5,0,5,0,,,,,,,,,,,,,,,,,,,,,,,,,,,,,,,,,,,,,,,,,,,,,,,,,,,,,,24,,,,,,,,75.3919369999785,75.3919369999785,75.3919369999785,75.3919369999785,75.3919369999785,return,0.26055700005963445,8,0,1,0.16,0.08000000000000003,return,0.16469440003857017,None,26,0,0.16,0.08000000000000003,,,,,,,,,,,,,,,,,,,,,,,,,,,,,,,,2024-06-25_16h01.43.362,HideSeek_v1,2023.1.3,60.3110481952949,
,1,3,1,6,0,3,64,,train_dim1_1,9,24,2,0,2,0,,,,,,,,,0,0,0,0,0,8,8,8,0,0,0,0,,,,,,,,,,,,,stimuli/alien_stimuli/64.png,,,,,,,,,,,,,,,,,,,,,,,,,,,,,,,stimuli/alien_stimuli/66.png,66,4,10,,,,,,,24,,,,,,,,79.39204469998367,79.39204469998367,79.39204469998367,79.39204469998367,79.39204469998367,up,0.3585192000027746,8,0,99,-0.08,-0.08,up,0.2515096999704838,None,,,,,77.82559329993092,79.39204469998367,0.16,0.08,0.4,0.0,-0.12,0.16,0.16,0.16,0.08,77.22552759991959,77.22552759991959,77.22552759991959,77.22552759991959,77.22552759991959,77.22552759991959,77.22552759991959,77.22552759991959,77.20864609996788,0.7348244001623243,return,0.5762537000700831,None,,,,,,,,2024-06-25_16h01.43.362,HideSeek_v1,2023.1.3,60.3110481952949,
,1,3,1,6,0,3,64,,train_dim1_1,9,24,2,0,2,0,,,,,,,,,0,0,0,0,0,8,8,8,1,0,1,0,,,,,,,,,,,,,,,,,,,,,,,,,,,,,,,,,,,,,,,,,,,,,,,,,,,,,,24,,,,,,,,79.75880509987473,79.75880509987473,79.75880509987473,79.75880509987473,79.75880509987473,up,0.19253220013342798,8,0,99,-0.08,0.0,up,0.09329010033980012,None,,,,,,,,,,,,,,,,,,,,,,,,,,,,,,,,,,,,2024-06-25_16h01.43.362,HideSeek_v1,2023.1.3,60.3110481952949,
,1,3,1,6,0,3,64,,train_dim1_1,9,24,2,0,2,0,,,,,,,,,0,0,0,0,0,8,8,8,2,0,2,0,,,,,,,,,,,,,,,,,,,,,,,,,,,,,,,,,,,,,,,,,,,,,,,,,,,,,,24,,,,,,,,79.9587777000852,79.9587777000852,79.9587777000852,79.9587777000852,79.9587777000852,up,0.15944949979893863,8,0,99,-0.08,0.08,up,0.050999300088733435,None,,,,,,,,,,,,,,,,,,,,,,,,,,,,,,,,,,,,2024-06-25_16h01.43.362,HideSeek_v1,2023.1.3,60.3110481952949,
,1,3,1,6,0,3,64,,train_dim1_1,9,24,2,0,2,0,,,,,,,,,0,0,0,0,0,8,8,8,3,0,3,0,,,,,,,,,,,,,,,,,,,,,,,,,,,,,,,,,,,,,,,,,,,,,,,,,,,,,,24,,,,,,,,80.10987680009566,80.10987680009566,80.10987680009566,80.10987680009566,80.10987680009566,return,0.2776135001331568,9,0,1,-0.08,0.08,return,0.18548110011033714,None,29,0,-0.08,0.08,,,,,,,,,,,,,,,,,,,,,,,,,,,,,,,,2024-06-25_16h01.43.362,HideSeek_v1,2023.1.3,60.3110481952949,
,0,0,0,4,0,4,65,,train_dim1_1,10,24,2,0,2,0,,,,,,,,,0,0,0,0,0,9,9,9,0,0,0,0,,,,,,,,,,,,,stimuli/alien_stimuli/65.png,,,,,,,,,,,,,,,,,,,,,,,,,,,,,,,stimuli/alien_stimuli/64.png,64,1,11,,,,,,,24,,,,,,,,84.07694679987617,84.07694679987617,84.07694679987617,84.07694679987617,84.07694679987617,up,0.4413870999123901,9,0,99,-0.16,-0.32,up,0.35123690008185804,None,,,,,82.5253196998965,84.07694679987617,-0.08,0.08,0.24,0.0,-0.04,-0.08,-0.08,-0.08,0.08,81.9424854000099,81.9424854000099,81.9424854000099,81.9424854000099,81.9424854000099,81.9424854000099,81.9424854000099,81.9424854000099,81.92533730007708,0.6845058999024332,return,0.5595699001569301,None,,,,,,,,2024-06-25_16h01.43.362,HideSeek_v1,2023.1.3,60.3110481952949,
,0,0,0,4,0,4,65,,train_dim1_1,10,24,2,0,2,0,,,,,,,,,0,0,0,0,0,9,9,9,1,0,1,0,,,,,,,,,,,,,,,,,,,,,,,,,,,,,,,,,,,,,,,,,,,,,,,,,,,,,,24,,,,,,,,84.52601530007087,84.52601530007087,84.52601530007087,84.52601530007087,84.52601530007087,up,0.17705279984511435,9,0,99,-0.16,-0.24,up,0.09067069995217025,None,,,,,,,,,,,,,,,,,,,,,,,,,,,,,,,,,,,,2024-06-25_16h01.43.362,HideSeek_v1,2023.1.3,60.3110481952949,
,0,0,0,4,0,4,65,,train_dim1_1,10,24,2,0,2,0,,,,,,,,,0,0,0,0,0,9,9,9,2,0,2,0,,,,,,,,,,,,,,,,,,,,,,,,,,,,,,,,,,,,,,,,,,,,,,,,,,,,,,24,,,,,,,,84.71055319998413,84.71055319998413,84.71055319998413,84.71055319998413,84.71055319998413,up,0.177938099950552,9,0,99,-0.16,-0.15999999999999998,up,0.08521170006133616,None,,,,,,,,,,,,,,,,,,,,,,,,,,,,,,,,,,,,2024-06-25_16h01.43.362,HideSeek_v1,2023.1.3,60.3110481952949,
,0,0,0,4,0,4,65,,train_dim1_1,10,24,2,0,2,0,,,,,,,,,0,0,0,0,0,9,9,9,3,0,3,0,,,,,,,,,,,,,,,,,,,,,,,,,,,,,,,,,,,,,,,,,,,,,,,,,,,,,,24,,,,,,,,84.89476540009491,84.89476540009491,84.89476540009491,84.89476540009491,84.89476540009491,up,0.17726599983870983,9,0,99,-0.16,-0.07999999999999997,up,0.08470210013911128,None,,,,,,,,,,,,,,,,,,,,,,,,,,,,,,,,,,,,2024-06-25_16h01.43.362,HideSeek_v1,2023.1.3,60.3110481952949,
,0,0,0,4,0,4,65,,train_dim1_1,10,24,2,0,2,0,,,,,,,,,0,0,0,0,0,9,9,9,4,0,4,0,,,,,,,,,,,,,,,,,,,,,,,,,,,,,,,,,,,,,,,,,,,,,,,,,,,,,,24,,,,,,,,85.07597679994069,85.07597679994069,85.07597679994069,85.07597679994069,85.07597679994069,return,0.41102360002696514,10,0,1,-0.16,-0.07999999999999997,return,0.3227038001641631,None,33,0,-0.16,-0.07999999999999997,,,,,,,,,,,,,,,,,,,,,,,,,,,,,,,,2024-06-25_16h01.43.362,HideSeek_v1,2023.1.3,60.3110481952949,
,4,2,4,3,0,1,62,,train_dim1_1,11,24,2,0,2,0,,,,,,,,,0,0,0,0,0,10,10,10,0,0,0,0,,,,,,,,,,,,,stimuli/alien_stimuli/62.png,,,,,,,,,,,,,,,,,,,,,,,,,,,,,,,stimuli/alien_stimuli/65.png,65,0,12,,,,,,,24,,,,,,,,88.92812910000794,88.92812910000794,88.92812910000794,88.92812910000794,88.92812910000794,up,0.5249533001333475,10,0,99,0.16,-0.15999999999999998,up,0.4361268002539873,None,,,,,87.37537860008888,88.92812910000794,-0.16,-0.08,0.32,0.0,-0.24000000000000002,-0.16,-0.16,-0.16,-0.08,87.0586486000102,87.0586486000102,87.0586486000102,87.0586486000102,87.0586486000102,87.0586486000102,87.0586486000102,87.0586486000102,87.0418997999979,0.43437670008279383,return,0.2956740001682192,None,,,,,,,,2024-06-25_16h01.43.362,HideSeek_v1,2023.1.3,60.3110481952949,
,4,2,4,3,0,1,62,,train_dim1_1,11,24,2,0,2,0,,,,,,,,,0,0,0,0,0,10,10,10,1,0,1,0,,,,,,,,,,,,,,,,,,,,,,,,,,,,,,,,,,,,,,,,,,,,,,,,,,,,,,24,,,,,,,,89.46012270008214,89.46012270008214,89.46012270008214,89.46012270008214,89.46012270008214,return,0.42686899984255433,11,0,1,0.16,-0.15999999999999998,return,0.3413814001251012,None,34,0,0.16,-0.15999999999999998,,,,,,,,,,,,,,,,,,,,,,,,,,,,,,,,2024-06-25_16h01.43.362,HideSeek_v1,2023.1.3,60.3110481952949,
,3,0,3,5,0,5,66,,train_dim1_1,12,24,2,0,2,0,,,,,,,,,0,0,0,0,0,11,11,11,0,0,0,0,,,,,,,,,,,,,stimuli/alien_stimuli/66.png,,,,,,,,,,,,,,,,,,,,,,,,,,,,,,,stimuli/alien_stimuli/62.png,62,4,13,,,,,,,24,,,,,,,,93.37503900006413,93.37503900006413,93.37503900006413,93.37503900006413,93.37503900006413,up,0.43976280000060797,11,0,99,0.08,-0.32,up,0.3397246999666095,None,,,,,91.80892320000567,93.37503900006413,0.16,-0.16,0.08,0.0,-0.2,0.16,0.16,0.16,-0.16,91.44214569986798,91.44214569986798,91.44214569986798,91.44214569986798,91.44214569986798,91.44214569986798,91.44214569986798,91.44214569986798,91.42511269999667,0.46832420001737773,return,0.34586400003172457,None,,,,,,,,2024-06-25_16h01.43.362,HideSeek_v1,2023.1.3,60.3110481952949,
,3,0,3,5,0,5,66,,train_dim1_1,12,24,2,0,2,0,,,,,,,,,0,0,0,0,0,11,11,11,1,0,1,0,,,,,,,,,,,,,,,,,,,,,,,,,,,,,,,,,,,,,,,,,,,,,,,,,,,,,,24,,,,,,,,93.8103338999208,93.8103338999208,93.8103338999208,93.8103338999208,93.8103338999208,up,0.3780696999747306,11,0,99,0.08,-0.24,up,0.28355260007083416,None,,,,,,,,,,,,,,,,,,,,,,,,,,,,,,,,,,,,2024-06-25_16h01.43.362,HideSeek_v1,2023.1.3,60.3110481952949,
,3,0,3,5,0,5,66,,train_dim1_1,12,24,2,0,2,0,,,,,,,,,0,0,0,0,0,11,11,11,2,0,2,0,,,,,,,,,,,,,,,,,,,,,,,,,,,,,,,,,,,,,,,,,,,,,,,,,,,,,,24,,,,,,,,94.19364769989625,94.19364769989625,94.19364769989625,94.19364769989625,94.19364769989625,up,0.3766713000368327,11,0,99,0.08,-0.15999999999999998,up,0.2955774001311511,None,,,,,,,,,,,,,,,,,,,,,,,,,,,,,,,,,,,,2024-06-25_16h01.43.362,HideSeek_v1,2023.1.3,60.3110481952949,
,3,0,3,5,0,5,66,,train_dim1_1,12,24,2,0,2,0,,,,,,,,,0,0,0,0,0,11,11,11,3,0,3,0,,,,,,,,,,,,,,,,,,,,,,,,,,,,,,,,,,,,,,,,,,,,,,,,,,,,,,24,,,,,,,,94.57566470000893,94.57566470000893,94.57566470000893,94.57566470000893,94.57566470000893,up,0.34407140011899173,11,0,99,0.08,-0.07999999999999997,up,0.26062610000371933,None,,,,,,,,,,,,,,,,,,,,,,,,,,,,,,,,,,,,2024-06-25_16h01.43.362,HideSeek_v1,2023.1.3,60.3110481952949,
,3,0,3,5,0,5,66,,train_dim1_1,12,24,2,0,2,0,,,,,,,,,0,0,0,0,0,11,11,11,4,0,4,0,,,,,,,,,,,,,,,,,,,,,,,,,,,,,,,,,,,,,,,,,,,,,,,,,,,,,,24,,,,,,,,94.92636989988387,94.92636989988387,94.92636989988387,94.92636989988387,94.92636989988387,up,0.3278135000728071,11,0,99,0.08,2.7755575615628914e-17,up,0.24762550019659102,None,,,,,,,,,,,,,,,,,,,,,,,,,,,,,,,,,,,,2024-06-25_16h01.43.362,HideSeek_v1,2023.1.3,60.3110481952949,
,3,0,3,5,0,5,66,,train_dim1_1,12,24,2,0,2,0,,,,,,,,,0,0,0,0,0,11,11,11,5,0,5,0,,,,,,,,,,,,,,,,,,,,,,,,,,,,,,,,,,,,,,,,,,,,,,,,,,,,,,24,,,,,,,,95.2604330999311,95.2604330999311,95.2604330999311,95.2604330999311,95.2604330999311,return,0.3769103998783976,12,0,1,0.08,2.7755575615628914e-17,return,0.2907112999819219,None,39,0,0.08,2.7755575615628914e-17,,,,,,,,,,,,,,,,,,,,,,,,,,,,,,,,2024-06-25_16h01.43.362,HideSeek_v1,2023.1.3,60.3110481952949,
,2,1,2,4,0,3,64,,train_dim1_1,13,24,2,0,2,0,,,,,,,,,0,0,0,0,0,12,12,12,0,0,0,0,,,,,,,,,,,,,stimuli/alien_stimuli/64.png,,,,,,,,,,,,,,,,,,,,,,,,,,,,,,,stimuli/alien_stimuli/66.png,66,3,14,,,,,,,24,,,,,,,,99.20844609988853,99.20844609988853,99.20844609988853,99.20844609988853,99.20844609988853,up,0.4233359000645578,12,0,99,0,-0.24,up,0.33227750030346215,None,,,,,97.64255700004287,99.20844609988853,0.08,0,0.4,0.0,-0.2,0.08,0.08,0.08,0,97.25865980004892,97.25865980004892,97.25865980004892,97.25865980004892,97.25865980004892,97.25865980004892,97.25865980004892,97.25865980004892,97.24203780014068,0.5511323001701385,return,0.3566022999584675,None,,,,,,,,2024-06-25_16h01.43.362,HideSeek_v1,2023.1.3,60.3110481952949,
,2,1,2,4,0,3,64,,train_dim1_1,13,24,2,0,2,0,,,,,,,,,0,0,0,0,0,12,12,12,1,0,1,0,,,,,,,,,,,,,,,,,,,,,,,,,,,,,,,,,,,,,,,,,,,,,,,,,,,,,,24,,,,,,,,99.64178840001114,99.64178840001114,99.64178840001114,99.64178840001114,99.64178840001114,up,0.24316029995679855,12,0,99,0,-0.15999999999999998,up,0.13583670021034777,None,,,,,,,,,,,,,,,,,,,,,,,,,,,,,,,,,,,,2024-06-25_16h01.43.362,HideSeek_v1,2023.1.3,60.3110481952949,
,2,1,2,4,0,3,64,,train_dim1_1,13,24,2,0,2,0,,,,,,,,,0,0,0,0,0,12,12,12,2,0,2,0,,,,,,,,,,,,,,,,,,,,,,,,,,,,,,,,,,,,,,,,,,,,,,,,,,,,,,24,,,,,,,,99.89208099991083,99.89208099991083,99.89208099991083,99.89208099991083,99.89208099991083,up,0.22739339992403984,12,0,99,0,-0.07999999999999997,up,0.12056860025040805,None,,,,,,,,,,,,,,,,,,,,,,,,,,,,,,,,,,,,2024-06-25_16h01.43.362,HideSeek_v1,2023.1.3,60.3110481952949,
,2,1,2,4,0,3,64,,train_dim1_1,13,24,2,0,2,0,,,,,,,,,0,0,0,0,0,12,12,12,3,0,3,0,,,,,,,,,,,,,,,,,,,,,,,,,,,,,,,,,,,,,,,,,,,,,,,,,,,,,,24,,,,,,,,100.1251119999215,100.1251119999215,100.1251119999215,100.1251119999215,100.1251119999215,return,0.31069889990612864,13,0,1,0,-0.07999999999999997,return,0.20556460018269718,None,42,0,0,-0.07999999999999997,,,,,,,,,,,,,,,,,,,,,,,,,,,,,,,,2024-06-25_16h01.43.362,HideSeek_v1,2023.1.3,60.3110481952949,
,4,3,4,7,0,4,65,,train_dim1_1,14,24,2,0,2,0,,,,,,,,,0,0,0,0,0,13,13,13,0,0,0,0,,,,,,,,,,,,,stimuli/alien_stimuli/65.png,,,,,,,,,,,,,,,,,,,,,,,,,,,,,,,stimuli/alien_stimuli/64.png,64,2,15,,,,,,,24,,,,,,,,103.87538659991696,103.87538659991696,103.87538659991696,103.87538659991696,103.87538659991696,up,0.3245256000664085,13,0,99,0.16,-0.08,up,0.22356449998915195,None,,,,,102.30839910008945,103.87538659991696,0,-0.08,0.24,0.0,-0.2,0,0.0,0,-0.08,101.99138769996352,101.99138769996352,101.99138769996352,101.99138769996352,101.99138769996352,101.99138769996352,101.99138769996352,101.99138769996352,101.97543180005158,0.4343705999199301,return,0.292133100097999,None,,,,,,,,2024-06-25_16h01.43.362,HideSeek_v1,2023.1.3,60.3110481952949,
,4,3,4,7,0,4,65,,train_dim1_1,14,24,2,0,2,0,,,,,,,,,0,0,0,0,0,13,13,13,1,0,1,0,,,,,,,,,,,,,,,,,,,,,,,,,,,,,,,,,,,,,,,,,,,,,,,,,,,,,,24,,,,,,,,104.20881740003824,104.20881740003824,104.20881740003824,104.20881740003824,104.20881740003824,up,0.2759016000200063,13,0,99,0.16,0.0,up,0.1678395001217723,None,,,,,,,,,,,,,,,,,,,,,,,,,,,,,,,,,,,,2024-06-25_16h01.43.362,HideSeek_v1,2023.1.3,60.3110481952949,
,4,3,4,7,0,4,65,,train_dim1_1,14,24,2,0,2,0,,,,,,,,,0,0,0,0,0,13,13,13,2,0,2,0,,,,,,,,,,,,,,,,,,,,,,,,,,,,,,,,,,,,,,,,,,,,,,,,,,,,,,24,,,,,,,,104.47620459995233,104.47620459995233,104.47620459995233,104.47620459995233,104.47620459995233,up,0.2605870000552386,13,0,99,0.16,0.08,up,0.17753830016590655,None,,,,,,,,,,,,,,,,,,,,,,,,,,,,,,,,,,,,2024-06-25_16h01.43.362,HideSeek_v1,2023.1.3,60.3110481952949,
,4,3,4,7,0,4,65,,train_dim1_1,14,24,2,0,2,0,,,,,,,,,0,0,0,0,0,13,13,13,3,0,3,0,,,,,,,,,,,,,,,,,,,,,,,,,,,,,,,,,,,,,,,,,,,,,,,,,,,,,,24,,,,,,,,104.74190329993144,104.74190329993144,104.74190329993144,104.74190329993144,104.74190329993144,up,0.22823369991965592,13,0,99,0.16,0.16,up,0.13994670030660927,None,,,,,,,,,,,,,,,,,,,,,,,,,,,,,,,,,,,,2024-06-25_16h01.43.362,HideSeek_v1,2023.1.3,60.3110481952949,
,4,3,4,7,0,4,65,,train_dim1_1,14,24,2,0,2,0,,,,,,,,,0,0,0,0,0,13,13,13,4,0,4,0,,,,,,,,,,,,,,,,,,,,,,,,,,,,,,,,,,,,,,,,,,,,,,,,,,,,,,24,,,,,,,,104.97582160006277,104.97582160006277,104.97582160006277,104.97582160006277,104.97582160006277,return,0.2770318000111729,14,0,1,0.16,0.16,return,0.1949986000545323,None,46,0,0.16,0.16,,,,,,,,,,,,,,,,,,,,,,,,,,,,,,,,2024-06-25_16h01.43.362,HideSeek_v1,2023.1.3,60.3110481952949,
,1,0,1,5,0,5,66,,train_dim1_1,15,24,2,0,2,0,,,,,,,,,0,0,0,0,0,14,14,14,0,0,0,0,,,,,,,,,,,,,stimuli/alien_stimuli/66.png,,,,,,,,,,,,,,,,,,,,,,,,,,,,,,,stimuli/alien_stimuli/65.png,65,4,16,,,,,,,24,,,,,,,,108.87869039992802,108.87869039992802,108.87869039992802,108.87869039992802,108.87869039992802,up,0.3413080000318587,14,0,99,-0.08,-0.32,up,0.26194009999744594,None,,,,,107.32502089999616,108.87869039992802,0.16,0.16,0.32,0.0,0.0,0.16,0.16,0.16,0.16,106.84189040004276,106.84189040004276,106.84189040004276,106.84189040004276,106.84189040004276,106.84189040004276,106.84189040004276,106.84189040004276,106.82549759997055,0.6171305999159813,return,0.45925010018981993,None,,,,,,,,2024-06-25_16h01.43.362,HideSeek_v1,2023.1.3,60.3110481952949,
,1,0,1,5,0,5,66,,train_dim1_1,15,24,2,0,2,0,,,,,,,,,0,0,0,0,0,14,14,14,1,0,1,0,,,,,,,,,,,,,,,,,,,,,,,,,,,,,,,,,,,,,,,,,,,,,,,,,,,,,,24,,,,,,,,109.22555410000496,109.22555410000496,109.22555410000496,109.22555410000496,109.22555410000496,up,0.24424250004813075,14,0,99,-0.08,-0.24,up,0.16082700015977025,None,,,,,,,,,,,,,,,,,,,,,,,,,,,,,,,,,,,,2024-06-25_16h01.43.362,HideSeek_v1,2023.1.3,60.3110481952949,
,1,0,1,5,0,5,66,,train_dim1_1,15,24,2,0,2,0,,,,,,,,,0,0,0,0,0,14,14,14,2,0,2,0,,,,,,,,,,,,,,,,,,,,,,,,,,,,,,,,,,,,,,,,,,,,,,,,,,,,,,24,,,,,,,,109.4914816999808,109.4914816999808,109.4914816999808,109.4914816999808,109.4914816999808,up,0.1938265000935644,14,0,99,-0.08,-0.15999999999999998,up,0.09307820023968816,None,,,,,,,,,,,,,,,,,,,,,,,,,,,,,,,,,,,,2024-06-25_16h01.43.362,HideSeek_v1,2023.1.3,60.3110481952949,
,1,0,1,5,0,5,66,,train_dim1_1,15,24,2,0,2,0,,,,,,,,,0,0,0,0,0,14,14,14,3,0,3,0,,,,,,,,,,,,,,,,,,,,,,,,,,,,,,,,,,,,,,,,,,,,,,,,,,,,,,24,,,,,,,,109.67702850000933,109.67702850000933,109.67702850000933,109.67702850000933,109.67702850000933,up,0.24407060001976788,14,0,99,-0.08,-0.07999999999999997,up,0.15978820016607642,None,,,,,,,,,,,,,,,,,,,,,,,,,,,,,,,,,,,,2024-06-25_16h01.43.362,HideSeek_v1,2023.1.3,60.3110481952949,
,1,0,1,5,0,5,66,,train_dim1_1,15,24,2,0,2,0,,,,,,,,,0,0,0,0,0,14,14,14,4,0,4,0,,,,,,,,,,,,,,,,,,,,,,,,,,,,,,,,,,,,,,,,,,,,,,,,,,,,,,24,,,,,,,,109.92569840000942,109.92569840000942,109.92569840000942,109.92569840000942,109.92569840000942,up,0.22678010002709925,14,0,99,-0.08,2.7755575615628914e-17,up,0.13605940015986562,None,,,,,,,,,,,,,,,,,,,,,,,,,,,,,,,,,,,,2024-06-25_16h01.43.362,HideSeek_v1,2023.1.3,60.3110481952949,
,1,0,1,5,0,5,66,,train_dim1_1,15,24,2,0,2,0,,,,,,,,,0,0,0,0,0,14,14,14,5,0,5,0,,,,,,,,,,,,,,,,,,,,,,,,,,,,,,,,,,,,,,,,,,,,,,,,,,,,,,24,,,,,,,,110.16063579986803,110.16063579986803,110.16063579986803,110.16063579986803,110.16063579986803,return,0.3112948997877538,15,0,1,-0.08,2.7755575615628914e-17,return,0.228206500178203,None,51,0,-0.08,2.7755575615628914e-17,,,,,,,,,,,,,,,,,,,,,,,,,,,,,,,,2024-06-25_16h01.43.362,HideSeek_v1,2023.1.3,60.3110481952949,
,3,1,3,2,0,1,62,,train_dim1_1,16,24,2,0,2,0,,,,,,,,,0,0,0,0,0,15,15,15,0,0,0,0,,,,,,,,,,,,,stimuli/alien_stimuli/62.png,,,,,,,,,,,,,,,,,,,,,,,,,,,,,,,stimuli/alien_stimuli/66.png,66,1,17,,,,,,,24,,,,,,,,114.0450867000036,114.0450867000036,114.0450867000036,114.0450867000036,114.0450867000036,return,0.6422371999360621,15,0,0,0.08,-0.32,return,0.558376100147143,None,51,0,0.08,-0.32,112.49191990005784,114.0450867000036,-0.08,0,0.4,0.0,-0.2,-0.08,-0.08,-0.08,0,112.04188099992462,112.04188099992462,112.04188099992462,112.04188099992462,112.04188099992462,112.04188099992462,112.04188099992462,112.04188099992462,112.02481649995315,0.5681441999040544,return,0.4266904001124203,None,,,,,,,,2024-06-25_16h01.43.362,HideSeek_v1,2023.1.3,60.3110481952949,
,0,2,0,7,0,5,66,,train_dim1_1,17,24,2,0,2,0,,,,,,,,,0,0,0,0,0,16,16,16,0,0,0,0,,,,,,,,,,,,,stimuli/alien_stimuli/66.png,,,,,,,,,,,,,,,,,,,,,,,,,,,,,,,stimuli/alien_stimuli/62.png,62,3,18,,,,,,,24,,,,,,,,118.1782847000286,118.1782847000286,118.1782847000286,118.1782847000286,118.1782847000286,return,0.4905534000135958,15,0,0,-0.16,-0.24,return,0.3992163999937475,None,51,0,-0.16,-0.24,116.62510109995492,118.1782847000286,0.08,-0.24,0.08,0.0,-0.28,0.08,0.08,0.08,-0.24,116.24239669996314,116.24239669996314,116.24239669996314,116.24239669996314,116.24239669996314,116.24239669996314,116.24239669996314,116.24239669996314,116.22509680003859,0.48437850014306605,return,0.3543845000676811,None,,,,,,,,2024-06-25_16h01.43.362,HideSeek_v1,2023.1.3,60.3110481952949,
,1,2,1,6,0,4,65,,train_dim1_1,18,24,2,0,2,0,,,,,,,,,0,0,0,0,0,17,17,17,0,0,0,0,,,,,,,,,,,,,stimuli/alien_stimuli/65.png,,,,,,,,,,,,,,,,,,,,,,,,,,,,,,,stimuli/alien_stimuli/66.png,66,0,19,,,,,,,24,,,,,,,,122.29395979992114,122.29395979992114,122.29395979992114,122.29395979992114,122.29395979992114,return,0.32394940010271966,15,0,0,-0.08,-0.24,return,0.22341280011460185,None,51,0,-0.08,-0.24,120.72500850004144,122.29395979992114,-0.16,0.16,0.4,0.0,-0.039999999999999994,-0.16,-0.16,-0.16,0.16,120.24369010003284,120.24369010003284,120.24369010003284,120.24369010003284,120.24369010003284,120.24369010003284,120.24369010003284,120.24369010003284,120.22586440008598,0.6002766001038253,return,0.45469390018843114,None,,,,,,,,2024-06-25_16h01.43.362,HideSeek_v1,2023.1.3,60.3110481952949,
,1,4,1,5,0,1,62,,train_dim1_1,19,24,2,0,2,0,,,,,,,,,0,0,0,0,0,18,18,18,0,0,0,0,,,,,,,,,,,,,stimuli/alien_stimuli/62.png,,,,,,,,,,,,,,,,,,,,,,,,,,,,,,,stimuli/alien_stimuli/65.png,65,1,20,,,,,,,24,,,,,,,,126.07534609991126,126.07534609991126,126.07534609991126,126.07534609991126,126.07534609991126,return,0.47332159988582134,15,0,0,-0.08,-0.08,return,0.3833143000956625,None,51,0,-0.08,-0.08,124.50819900003262,126.07534609991126,-0.08,0.08,0.32,0.0,-0.07999999999999999,-0.08,-0.08,-0.08,0.08,124.16083499998786,124.16083499998786,124.16083499998786,124.16083499998786,124.16083499998786,124.16083499998786,124.16083499998786,124.16083499998786,124.1584685001755,0.451005200156942,return,0.32391170016489923,None,,,,,,,,2024-06-25_16h01.43.362,HideSeek_v1,2023.1.3,60.3110481952949,
,3,2,3,5,0,3,64,,train_dim1_1,20,24,2,0,2,0,,,,,,,,,0,0,0,0,0,19,19,19,0,0,0,0,,,,,,,,,,,,,stimuli/alien_stimuli/64.png,,,,,,,,,,,,,,,,,,,,,,,,,,,,,,,stimuli/alien_stimuli/62.png,62,1,21,,,,,,,24,,,,,,,,130.41178909991868,130.41178909991868,130.41178909991868,130.41178909991868,130.41178909991868,return,0.3585395000409335,15,0,0,0.08,-0.24,return,0.26422340027056634,None,51,0,0.08,-0.24,128.85819169995375,130.41178909991868,-0.08,0,0.08,0.0,-0.04,-0.08,-0.08,-0.08,0,128.1097768000327,128.1097768000327,128.1097768000327,128.1097768000327,128.1097768000327,128.1097768000327,128.1097768000327,128.1097768000327,128.091462199972,0.8698235999327153,return,0.7246866000350565,None,,,,,,,,2024-06-25_16h01.43.362,HideSeek_v1,2023.1.3,60.3110481952949,
,2,4,2,5,0,1,62,,train_dim1_1,21,24,2,0,2,0,,,,,,,,,0,0,0,0,0,20,20,20,0,0,0,0,,,,,,,,,,,,,stimuli/alien_stimuli/62.png,,,,,,,,,,,,,,,,,,,,,,,,,,,,,,,stimuli/alien_stimuli/64.png,64,3,22,,,,,,,24,,,,,,,,134.40831779991277,134.40831779991277,134.40831779991277,134.40831779991277,134.40831779991277,return,0.657296100165695,15,0,0,0,-0.08,return,0.5606889000628144,None,51,0,0,-0.08,132.8414759999141,134.40831779991277,0.08,0,0.24,0.0,-0.12,0.08,0.08,0.08,0,132.34163450007327,132.34163450007327,132.34163450007327,132.34163450007327,132.34163450007327,132.34163450007327,132.34163450007327,132.34163450007327,132.32480200000572,0.6179016001988202,return,0.4785621000919491,None,,,,,,,,2024-06-25_16h01.43.362,HideSeek_v1,2023.1.3,60.3110481952949,
,0,1,0,5,0,4,65,,train_dim1_1,22,24,2,0,2,0,,,,,,,,,0,0,0,0,0,21,21,21,0,0,0,0,,,,,,,,,,,,,stimuli/alien_stimuli/65.png,,,,,,,,,,,,,,,,,,,,,,,,,,,,,,,stimuli/alien_stimuli/62.png,62,2,23,,,,,,,24,,,,,,,,139.9928893998731,139.9928893998731,139.9928893998731,139.9928893998731,139.9928893998731,return,0.42493740003556013,15,0,0,-0.16,-0.32,return,0.3368293000385165,None,51,0,-0.16,-0.32,138.4413439000491,139.9928893998731,0,0,0.08,0.0,-0.04,0,0.0,0,0,136.60895329993218,136.60895329993218,136.60895329993218,136.60895329993218,136.60895329993218,136.60895329993218,136.60895329993218,136.60895329993218,136.59133620015345,1.9358524000272155,return,1.8172162999399006,None,,,,,,,,2024-06-25_16h01.43.362,HideSeek_v1,2023.1.3,60.3110481952949,
,2,3,2,6,0,3,64,,train_dim1_1,23,24,2,0,2,0,,,,,,,,,0,0,0,0,0,22,22,22,0,0,0,0,,,,,,,,,,,,,stimuli/alien_stimuli/64.png,,,,,,,,,,,,,,,,,,,,,,,,,,,,,,,stimuli/alien_stimuli/65.png,65,0,24,,,,,,,24,,,,,,,,144.42473770002834,144.42473770002834,144.42473770002834,144.42473770002834,144.42473770002834,return,0.4249201000202447,15,0,0,0,-0.16,return,0.32404960016719997,None,51,0,0,-0.16,142.85808070003986,144.42473770002834,-0.16,0,0.32,0.0,-0.16,-0.16,-0.16,-0.16,0,141.97446230007336,141.97446230007336,141.97446230007336,141.97446230007336,141.97446230007336,141.97446230007336,141.97446230007336,141.97446230007336,141.95789450001902,0.9851474999450147,return,0.8537335000000894,None,,,,,,,,2024-06-25_16h01.43.362,HideSeek_v1,2023.1.3,60.3110481952949,
,1,1,1,6,0,5,66,,train_dim1_1,24,24,2,0,2,0,,,,,,,,,0,0,0,0,0,23,23,23,0,0,0,0,,,,,,,,,,,,,stimuli/alien_stimuli/66.png,,,,,,,,,,,,,,,,,,,,,,,,,,,,,,,stimuli/alien_stimuli/64.png,64,2,25,,,,,,,24,,,,,,,,148.35825939988717,148.35825939988717,148.35825939988717,148.35825939988717,148.35825939988717,return,0.3736490998417139,15,0,0,-0.08,-0.32,return,0.26973140030167997,None,51,0,-0.08,-0.32,146.79136519995518,148.35825939988717,0,0.08,0.24,0.0,-0.04,0,0.0,0,0.08,146.39468239992857,146.39468239992857,146.39468239992857,146.39468239992857,146.39468239992857,146.39468239992857,146.39468239992857,146.39468239992857,146.3911928000627,0.5023260000161827,return,0.37837870023213327,None,,,,,,,,2024-06-25_16h01.43.362,HideSeek_v1,2023.1.3,60.3110481952949,
,2,0,2,1,0,1,62,,train_dim1_1,1,4,2,0,2,0,,,,,,,,,1,0,1,0,0,0,0,0,0,0,0,0,,,,,,,,,,,,,stimuli/alien_stimuli/62.png,,,,,,,,,,,,,,,,,,,,,,,,,,,,,,,stimuli/alien_stimuli/66.png,66,1,26,17,70,62.50000000000001,1,0,1,4,0,conditions/inputTrain_1.2.xlsx,99,1,1,1,0,152.87448389991187,152.87448389991187,152.87448389991187,152.87448389991187,152.87448389991187,up,0.4707156999502331,0,0,99,0,-0.32,up,0.3747353001963347,None,,,,,151.30812010006048,152.87448389991187,-0.08,0.08,0.4,0.0,-0.12,-0.08,-0.08,-0.08,0.08,150.27595090004615,150.27595090004615,150.27595090004615,150.27595090004615,150.27595090004615,150.27595090004615,150.27595090004615,150.27595090004615,150.25782349999062,1.1348815998062491,return,1.0047584001440555,None,0,0,1,15,,,,2024-06-25_16h01.43.362,HideSeek_v1,2023.1.3,60.3110481952949,
,2,0,2,1,0,1,62,,train_dim1_1,1,4,2,0,2,0,,,,,,,,,1,0,1,0,0,0,0,0,1,0,1,0,,,,,,,,,,,,,,,,,,,,,,,,,,,,,,,,,,,,,,,,,,,,,,,,,,,,,,4,,,,,,,,153.3428273999598,153.3428273999598,153.3428273999598,153.3428273999598,153.3428273999598,up,0.4102402999997139,0,0,99,0,-0.24,up,0.3160807001404464,None,,,,,,,,,,,,,,,,,,,,,,,,,,,,,,,,,,,,2024-06-25_16h01.43.362,HideSeek_v1,2023.1.3,60.3110481952949,
,2,0,2,1,0,1,62,,train_dim1_1,1,4,2,0,2,0,,,,,,,,,1,0,1,0,0,0,0,0,2,0,2,0,,,,,,,,,,,,,,,,,,,,,,,,,,,,,,,,,,,,,,,,,,,,,,,,,,,,,,4,,,,,,,,153.75845659989864,153.75845659989864,153.75845659989864,153.75845659989864,153.75845659989864,up,0.7774739998858422,0,0,99,0,-0.15999999999999998,up,0.6839213001076132,None,,,,,,,,,,,,,,,,,,,,,,,,,,,,,,,,,,,,2024-06-25_16h01.43.362,HideSeek_v1,2023.1.3,60.3110481952949,
,2,0,2,1,0,1,62,,train_dim1_1,1,4,2,0,2,0,,,,,,,,,1,0,1,0,0,0,0,0,3,0,3,0,,,,,,,,,,,,,,,,,,,,,,,,,,,,,,,,,,,,,,,,,,,,,,,,,,,,,,4,,,,,,,,154.55863159988075,154.55863159988075,154.55863159988075,154.55863159988075,154.55863159988075,down,0.577962800161913,0,0,99,0,-0.24,down,0.4758319000247866,None,,,,,,,,,,,,,,,,,,,,,,,,,,,,,,,,,,,,2024-06-25_16h01.43.362,HideSeek_v1,2023.1.3,60.3110481952949,
,2,0,2,1,0,1,62,,train_dim1_1,1,4,2,0,2,0,,,,,,,,,1,0,1,0,0,0,0,0,4,0,4,0,,,,,,,,,,,,,,,,,,,,,,,,,,,,,,,,,,,,,,,,,,,,,,,,,,,,,,4,,,,,,,,155.1251250000205,155.1251250000205,155.1251250000205,155.1251250000205,155.1251250000205,down,0.29425979987718165,0,0,99,0,-0.32,down,0.21052080020308495,None,,,,,,,,,,,,,,,,,,,,,,,,,,,,,,,,,,,,2024-06-25_16h01.43.362,HideSeek_v1,2023.1.3,60.3110481952949,
,2,0,2,1,0,1,62,,train_dim1_1,1,4,2,0,2,0,,,,,,,,,1,0,1,0,0,0,0,0,5,0,5,0,,,,,,,,,,,,,,,,,,,,,,,,,,,,,,,,,,,,,,,,,,,,,,,,,,,,,,4,,,,,,,,155.42503129993565,155.42503129993565,155.42503129993565,155.42503129993565,155.42503129993565,return,0.8604880999773741,1,0,1,0,-0.32,return,0.7751023001037538,None,52,0,0,-0.32,,,,,,,,,,,,,,,,,,,,,,,,,,,,,,,,2024-06-25_16h01.43.362,HideSeek_v1,2023.1.3,60.3110481952949,
,2,2,2,5,0,3,64,,train_dim1_1,2,4,2,0,2,0,,,,,,,,,1,0,1,0,0,1,1,1,0,0,0,0,,,,,,,,,,,,,stimuli/alien_stimuli/64.png,,,,,,,,,,,,,,,,,,,,,,,,,,,,,,,stimuli/alien_stimuli/62.png,62,2,1,,,,,,,4,,,,,,,,159.87483679992147,159.87483679992147,159.87483679992147,159.87483679992147,159.87483679992147,up,0.5910658000502735,1,0,99,0,-0.15999999999999998,up,0.49309740005992353,None,,,,,158.30793510004878,159.87483679992147,0,-0.32,0.08,0.0,-0.36,0,0.0,0,-0.32,157.84283940005116,157.84283940005116,157.84283940005116,157.84283940005116,157.84283940005116,157.84283940005116,157.84283940005116,157.84283940005116,157.82451220010407,0.5682636999990791,return,0.4482533000409603,None,,,,,,,,2024-06-25_16h01.43.362,HideSeek_v1,2023.1.3,60.3110481952949,
,2,2,2,5,0,3,64,,train_dim1_1,2,4,2,0,2,0,,,,,,,,,1,0,1,0,0,1,1,1,1,0,1,0,,,,,,,,,,,,,,,,,,,,,,,,,,,,,,,,,,,,,,,,,,,,,,,,,,,,,,4,,,,,,,,160.47494299989194,160.47494299989194,160.47494299989194,160.47494299989194,160.47494299989194,up,0.326799200149253,1,0,99,0,-0.07999999999999997,up,0.22975059994496405,None,,,,,,,,,,,,,,,,,,,,,,,,,,,,,,,,,,,,2024-06-25_16h01.43.362,HideSeek_v1,2023.1.3,60.3110481952949,
,2,2,2,5,0,3,64,,train_dim1_1,2,4,2,0,2,0,,,,,,,,,1,0,1,0,0,1,1,1,2,0,2,0,,,,,,,,,,,,,,,,,,,,,,,,,,,,,,,,,,,,,,,,,,,,,,,,,,,,,,4,,,,,,,,160.79295519995503,160.79295519995503,160.79295519995503,160.79295519995503,160.79295519995503,up,0.2778337998315692,1,0,99,0,2.7755575615628914e-17,up,0.1974021999631077,None,,,,,,,,,,,,,,,,,,,,,,,,,,,,,,,,,,,,2024-06-25_16h01.43.362,HideSeek_v1,2023.1.3,60.3110481952949,
,2,2,2,5,0,3,64,,train_dim1_1,2,4,2,0,2,0,,,,,,,,,1,0,1,0,0,1,1,1,3,0,3,0,,,,,,,,,,,,,,,,,,,,,,,,,,,,,,,,,,,,,,,,,,,,,,,,,,,,,,4,,,,,,,,161.07480930001475,161.07480930001475,161.07480930001475,161.07480930001475,161.07480930001475,return,0.7941172998398542,2,0,1,0,2.7755575615628914e-17,return,0.7082077001687139,None,55,0,0,2.7755575615628914e-17,,,,,,,,,,,,,,,,,,,,,,,,,,,,,,,,2024-06-25_16h01.43.362,HideSeek_v1,2023.1.3,60.3110481952949,
,3,3,3,8,0,5,66,,train_dim1_1,3,4,2,0,2,0,,,,,,,,,1,0,1,0,0,2,2,2,0,0,0,0,,,,,,,,,,,,,stimuli/alien_stimuli/66.png,,,,,,,,,,,,,,,,,,,,,,,,,,,,,,,stimuli/alien_stimuli/64.png,64,2,2,,,,,,,4,,,,,,,,165.87507830001414,165.87507830001414,165.87507830001414,165.87507830001414,165.87507830001414,up,0.3921068999916315,2,0,99,0.08,-0.08,up,0.2879361002705991,None,,,,,164.30784730007872,165.87507830001414,0,0,0.24,0.0,-0.12,0,0.0,0,0,163.42509829998016,163.42509829998016,163.42509829998016,163.42509829998016,163.42509829998016,163.42509829998016,163.42509829998016,163.42509829998016,163.4077402000781,0.9848501000087708,return,0.8513932002242655,None,,,,,,,,2024-06-25_16h01.43.362,HideSeek_v1,2023.1.3,60.3110481952949,
,3,3,3,8,0,5,66,,train_dim1_1,3,4,2,0,2,0,,,,,,,,,1,0,1,0,0,2,2,2,1,0,1,0,,,,,,,,,,,,,,,,,,,,,,,,,,,,,,,,,,,,,,,,,,,,,,,,,,,,,,4,,,,,,,,166.25880849990062,166.25880849990062,166.25880849990062,166.25880849990062,166.25880849990062,up,0.460082900011912,2,0,99,0.08,0.0,up,0.37681430019438267,None,,,,,,,,,,,,,,,,,,,,,,,,,,,,,,,,,,,,2024-06-25_16h01.43.362,HideSeek_v1,2023.1.3,60.3110481952949,
,3,3,3,8,0,5,66,,train_dim1_1,3,4,2,0,2,0,,,,,,,,,1,0,1,0,0,2,2,2,2,0,2,0,,,,,,,,,,,,,,,,,,,,,,,,,,,,,,,,,,,,,,,,,,,,,,,,,,,,,,4,,,,,,,,166.7412481000647,166.7412481000647,166.7412481000647,166.7412481000647,166.7412481000647,up,1.5606888001784682,2,0,99,0.08,0.08,up,1.4585201002191752,None,,,,,,,,,,,,,,,,,,,,,,,,,,,,,,,,,,,,2024-06-25_16h01.43.362,HideSeek_v1,2023.1.3,60.3110481952949,
,3,3,3,8,0,5,66,,train_dim1_1,3,4,2,0,2,0,,,,,,,,,1,0,1,0,0,2,2,2,3,0,3,0,,,,,,,,,,,,,,,,,,,,,,,,,,,,,,,,,,,,,,,,,,,,,,,,,,,,,,4,,,,,,,,168.29172189999372,168.29172189999372,168.29172189999372,168.29172189999372,168.29172189999372,up,0.4115142999216914,2,0,99,0.08,0.16,up,0.3316526999697089,None,,,,,,,,,,,,,,,,,,,,,,,,,,,,,,,,,,,,2024-06-25_16h01.43.362,HideSeek_v1,2023.1.3,60.3110481952949,
,3,3,3,8,0,5,66,,train_dim1_1,3,4,2,0,2,0,,,,,,,,,1,0,1,0,0,2,2,2,4,0,4,0,,,,,,,,,,,,,,,,,,,,,,,,,,,,,,,,,,,,,,,,,,,,,,,,,,,,,,4,,,,,,,,168.70854149991646,168.70854149991646,168.70854149991646,168.70854149991646,168.70854149991646,up,0.410258200019598,2,0,99,0.08,0.24,up,0.3307757000438869,None,,,,,,,,,,,,,,,,,,,,,,,,,,,,,,,,,,,,2024-06-25_16h01.43.362,HideSeek_v1,2023.1.3,60.3110481952949,
,3,3,3,8,0,5,66,,train_dim1_1,3,4,2,0,2,0,,,,,,,,,1,0,1,0,0,2,2,2,5,0,5,0,,,,,,,,,,,,,,,,,,,,,,,,,,,,,,,,,,,,,,,,,,,,,,,,,,,,,,4,,,,,,,,169.1247219000943,169.1247219000943,169.1247219000943,169.1247219000943,169.1247219000943,return,0.6446138001047075,3,0,1,0.08,0.24,return,0.5670763000380248,None,60,0,0.08,0.24,,,,,,,,,,,,,,,,,,,,,,,,,,,,,,,,2024-06-25_16h01.43.362,HideSeek_v1,2023.1.3,60.3110481952949,
,4,4,4,8,0,4,65,,train_dim1_1,4,4,2,0,2,0,,,,,,,,,1,0,1,0,0,3,3,3,0,0,0,0,,,,,,,,,,,,,stimuli/alien_stimuli/65.png,,,,,,,,,,,,,,,,,,,,,,,,,,,,,,,stimuli/alien_stimuli/66.png,66,3,3,,,,,,,4,,,,,,,,173.37803320004605,173.37803320004605,173.37803320004605,173.37803320004605,173.37803320004605,up,0.590646900003776,3,0,99,0.16,0.0,up,0.5008710001129657,None,,,,,171.82450109999627,173.37803320004605,0.08,0.24,0.4,0.0,0.039999999999999994,0.08,0.08,0.08,0.24,171.32557839993387,171.32557839993387,171.32557839993387,171.32557839993387,171.32557839993387,171.32557839993387,171.32557839993387,171.32557839993387,171.32434119998942,0.6014766998123378,return,0.46981710009276867,None,,,,,,,,2024-06-25_16h01.43.362,HideSeek_v1,2023.1.3,60.3110481952949,
,4,4,4,8,0,4,65,,train_dim1_1,4,4,2,0,2,0,,,,,,,,,1,0,1,0,0,3,3,3,1,0,1,0,,,,,,,,,,,,,,,,,,,,,,,,,,,,,,,,,,,,,,,,,,,,,,,,,,,,,,4,,,,,,,,173.9762385999784,173.9762385999784,173.9762385999784,173.9762385999784,173.9762385999784,up,0.42697309982031584,3,0,99,0.16,0.08,up,0.3404892000835389,None,,,,,,,,,,,,,,,,,,,,,,,,,,,,,,,,,,,,2024-06-25_16h01.43.362,HideSeek_v1,2023.1.3,60.3110481952949,
,4,4,4,8,0,4,65,,train_dim1_1,4,4,2,0,2,0,,,,,,,,,1,0,1,0,0,3,3,3,2,0,2,0,,,,,,,,,,,,,,,,,,,,,,,,,,,,,,,,,,,,,,,,,,,,,,,,,,,,,,4,,,,,,,,174.4093170000706,174.4093170000706,174.4093170000706,174.4093170000706,174.4093170000706,up,0.4109324000310153,3,0,99,0.16,0.16,up,0.3270946000702679,None,,,,,,,,,,,,,,,,,,,,,,,,,,,,,,,,,,,,2024-06-25_16h01.43.362,HideSeek_v1,2023.1.3,60.3110481952949,
,4,4,4,8,0,4,65,,train_dim1_1,4,4,2,0,2,0,,,,,,,,,1,0,1,0,0,3,3,3,3,0,3,0,,,,,,,,,,,,,,,,,,,,,,,,,,,,,,,,,,,,,,,,,,,,,,,,,,,,,,4,,,,,,,,174.82514799991623,174.82514799991623,174.82514799991623,174.82514799991623,174.82514799991623,up,0.4941907001193613,3,0,99,0.16,0.24,up,0.4077461000997573,None,,,,,,,,,,,,,,,,,,,,,,,,,,,,,,,,,,,,2024-06-25_16h01.43.362,HideSeek_v1,2023.1.3,60.3110481952949,
,4,4,4,8,0,4,65,,train_dim1_1,4,4,2,0,2,0,,,,,,,,,1,0,1,0,0,3,3,3,4,0,4,0,,,,,,,,,,,,,,,,,,,,,,,,,,,,,,,,,,,,,,,,,,,,,,,,,,,,,,4,,,,,,,,175.32489420007914,175.32489420007914,175.32489420007914,175.32489420007914,175.32489420007914,return,0.394239499932155,4,0,1,0.16,0.24,return,0.3084620002191514,None,64,0,0.16,0.24,,,,,,,,,,,,,,,,,,,,,,,,,,,,,,,,2024-06-25_16h01.43.362,HideSeek_v1,2023.1.3,60.3110481952949,
,3,4,3,5,0,1,62,,train_dim1_1,1,4,2,0,2,0,,,,,,,,,2,0,2,0,0,0,0,0,0,0,0,0,,,,,,,,,,,,,stimuli/alien_stimuli/62.png,,,,,,,,,,,,,,,,,,,,,,,,,,,,,,,stimuli/alien_stimuli/65.png,65,4,4,17,70,79.16666666666667,2,0,1,4,0,conditions/inputTrain_1.3.xlsx,99,1,1,1,0,179.90768900001422,179.90768900001422,179.90768900001422,179.90768900001422,179.90768900001422,up,1.237491900101304,0,0,99,0.08,0.0,up,1.1505212001502514,None,,,,,178.3411334999837,179.90768900001422,0.16,0.24,0.32,0.0,0.07999999999999999,0.16,0.16,0.16,0.24,177.27451110002585,177.27451110002585,177.27451110002585,177.27451110002585,177.27451110002585,177.27451110002585,177.27451110002585,177.27451110002585,177.25757020004093,1.1682268001604825,return,1.0449776002205908,None,0,0,2,4,,,,2024-06-25_16h01.43.362,HideSeek_v1,2023.1.3,60.3110481952949,
,3,4,3,5,0,1,62,,train_dim1_1,1,4,2,0,2,0,,,,,,,,,2,0,2,0,0,0,0,0,1,0,1,0,,,,,,,,,,,,,,,,,,,,,,,,,,,,,,,,,,,,,,,,,,,,,,,,,,,,,,4,,,,,,,,181.14300590008497,181.14300590008497,181.14300590008497,181.14300590008497,181.14300590008497,return,1.3271317998878658,1,0,1,0.08,0.0,return,1.2375797000713646,None,65,0,0.08,0.0,,,,,,,,,,,,,,,,,,,,,,,,,,,,,,,,2024-06-25_16h01.43.362,HideSeek_v1,2023.1.3,60.3110481952949,
,4,0,4,4,0,4,65,,train_dim1_1,2,4,2,0,2,0,,,,,,,,,2,0,2,0,0,1,1,1,0,0,0,0,,,,,,,,,,,,,stimuli/alien_stimuli/65.png,,,,,,,,,,,,,,,,,,,,,,,,,,,,,,,stimuli/alien_stimuli/62.png,62,3,1,,,,,,,4,,,,,,,,186.6108434998896,186.6108434998896,186.6108434998896,186.6108434998896,186.6108434998896,up,0.5585446001496166,1,0,99,0.16,-0.32,up,0.46803810028359294,None,,,,,185.05765470000915,186.6108434998896,0.08,0,0.08,0.0,-0.04,0.08,0.08,0.08,0,184.02535240002908,184.02535240002908,184.02535240002908,184.02535240002908,184.02535240002908,184.02535240002908,184.02535240002908,184.02535240002908,184.00761260013095,1.1348981000483036,return,1.013277699938044,None,,,,,,,,2024-06-25_16h01.43.362,HideSeek_v1,2023.1.3,60.3110481952949,
,4,0,4,4,0,4,65,,train_dim1_1,2,4,2,0,2,0,,,,,,,,,2,0,2,0,0,1,1,1,1,0,1,0,,,,,,,,,,,,,,,,,,,,,,,,,,,,,,,,,,,,,,,,,,,,,,,,,,,,,,4,,,,,,,,187.17541250004433,187.17541250004433,187.17541250004433,187.17541250004433,187.17541250004433,up,3.0607598000206053,1,0,99,0.16,-0.24,up,2.9822176001034677,None,,,,,,,,,,,,,,,,,,,,,,,,,,,,,,,,,,,,2024-06-25_16h01.43.362,HideSeek_v1,2023.1.3,60.3110481952949,
,4,0,4,4,0,4,65,,train_dim1_1,2,4,2,0,2,0,,,,,,,,,2,0,2,0,0,1,1,1,2,0,2,0,,,,,,,,,,,,,,,,,,,,,,,,,,,,,,,,,,,,,,,,,,,,,,,,,,,,,,4,,,,,,,,190.2580323999282,190.2580323999282,190.2580323999282,190.2580323999282,190.2580323999282,up,5.8101368001662195,1,0,99,0.16,-0.15999999999999998,up,5.708770600147545,None,,,,,,,,,,,,,,,,,,,,,,,,,,,,,,,,,,,,2024-06-25_16h01.43.362,HideSeek_v1,2023.1.3,60.3110481952949,
,4,0,4,4,0,4,65,,train_dim1_1,2,4,2,0,2,0,,,,,,,,,2,0,2,0,0,1,1,1,3,0,3,0,,,,,,,,,,,,,,,,,,,,,,,,,,,,,,,,,,,,,,,,,,,,,,,,,,,,,,4,,,,,,,,196.09112349990755,196.09112349990755,196.09112349990755,196.09112349990755,196.09112349990755,up,0.3441526999231428,1,0,99,0.16,-0.07999999999999997,up,0.22675440018065274,None,,,,,,,,,,,,,,,,,,,,,,,,,,,,,,,,,,,,2024-06-25_16h01.43.362,HideSeek_v1,2023.1.3,60.3110481952949,
,4,0,4,4,0,4,65,,train_dim1_1,2,4,2,0,2,0,,,,,,,,,2,0,2,0,0,1,1,1,4,0,4,0,,,,,,,,,,,,,,,,,,,,,,,,,,,,,,,,,,,,,,,,,,,,,,,,,,,,,,4,,,,,,,,196.4245964998845,196.4245964998845,196.4245964998845,196.4245964998845,196.4245964998845,return,0.39453100017271936,2,0,1,0.16,-0.07999999999999997,return,0.2872194000519812,None,69,0,0.16,-0.07999999999999997,,,,,,,,,,,,,,,,,,,,,,,,,,,,,,,,2024-06-25_16h01.43.362,HideSeek_v1,2023.1.3,60.3110481952949,
,0,3,0,6,0,3,64,,train_dim1_1,3,4,2,0,2,0,,,,,,,,,2,0,2,0,0,2,2,2,0,0,0,0,,,,,,,,,,,,,stimuli/alien_stimuli/64.png,,,,,,,,,,,,,,,,,,,,,,,,,,,,,,,stimuli/alien_stimuli/65.png,65,4,2,,,,,,,4,,,,,,,,200.2743983999826,200.2743983999826,200.2743983999826,200.2743983999826,200.2743983999826,up,0.623466300079599,2,0,99,-0.16,-0.08,up,0.5275162002071738,None,,,,,198.70787540008314,200.2743983999826,0.16,-0.08,0.32,0.0,-0.24000000000000002,0.16,0.16,0.16,-0.08,198.37442489992827,198.37442489992827,198.37442489992827,198.37442489992827,198.37442489992827,198.37442489992827,198.37442489992827,198.37442489992827,198.35773079998324,0.45121699990704656,return,0.30857870006002486,None,,,,,,,,2024-06-25_16h01.43.362,HideSeek_v1,2023.1.3,60.3110481952949,
,0,3,0,6,0,3,64,,train_dim1_1,3,4,2,0,2,0,,,,,,,,,2,0,2,0,0,2,2,2,1,0,1,0,,,,,,,,,,,,,,,,,,,,,,,,,,,,,,,,,,,,,,,,,,,,,,,,,,,,,,4,,,,,,,,200.90804259991273,200.90804259991273,200.90804259991273,200.90804259991273,200.90804259991273,up,1.2770591999869794,2,0,99,-0.16,0.0,up,1.1698290000203997,None,,,,,,,,,,,,,,,,,,,,,,,,,,,,,,,,,,,,2024-06-25_16h01.43.362,HideSeek_v1,2023.1.3,60.3110481952949,
,0,3,0,6,0,3,64,,train_dim1_1,3,4,2,0,2,0,,,,,,,,,2,0,2,0,0,2,2,2,2,0,2,0,,,,,,,,,,,,,,,,,,,,,,,,,,,,,,,,,,,,,,,,,,,,,,,,,,,,,,4,,,,,,,,202.17621780000627,202.17621780000627,202.17621780000627,202.17621780000627,202.17621780000627,up,0.39419429982081056,2,0,99,-0.16,0.08,up,0.3068009000271559,None,,,,,,,,,,,,,,,,,,,,,,,,,,,,,,,,,,,,2024-06-25_16h01.43.362,HideSeek_v1,2023.1.3,60.3110481952949,
,0,3,0,6,0,3,64,,train_dim1_1,3,4,2,0,2,0,,,,,,,,,2,0,2,0,0,2,2,2,3,0,3,0,,,,,,,,,,,,,,,,,,,,,,,,,,,,,,,,,,,,,,,,,,,,,,,,,,,,,,4,,,,,,,,202.5775003999006,202.5775003999006,202.5775003999006,202.5775003999006,202.5775003999006,return,0.8607753999531269,3,0,1,-0.16,0.08,return,0.768907300196588,None,72,0,-0.16,0.08,,,,,,,,,,,,,,,,,,,,,,,,,,,,,,,,2024-06-25_16h01.43.362,HideSeek_v1,2023.1.3,60.3110481952949,
,4,1,4,6,0,5,66,,train_dim1_1,4,4,2,0,2,0,,,,,,,,,2,0,2,0,0,3,3,3,0,0,0,0,,,,,,,,,,,,,stimuli/alien_stimuli/66.png,,,,,,,,,,,,,,,,,,,,,,,,,,,,,,,stimuli/alien_stimuli/64.png,64,0,3,,,,,,,4,,,,,,,,207.12404519994743,207.12404519994743,207.12404519994743,207.12404519994743,207.12404519994743,up,0.39186799991875887,3,0,99,0.16,-0.24,up,0.29217120027169585,None,,,,,205.55747379991226,207.12404519994743,-0.16,0.08,0.24,0.0,-0.04,-0.16,-0.16,-0.16,0.08,205.0080442999024,205.0080442999024,205.0080442999024,205.0080442999024,205.0080442999024,205.0080442999024,205.0080442999024,205.0080442999024,204.9911737001268,0.6684550000354648,return,0.5320981000550091,None,,,,,,,,2024-06-25_16h01.43.362,HideSeek_v1,2023.1.3,60.3110481952949,
,4,1,4,6,0,5,66,,train_dim1_1,4,4,2,0,2,0,,,,,,,,,2,0,2,0,0,3,3,3,1,0,1,0,,,,,,,,,,,,,,,,,,,,,,,,,,,,,,,,,,,,,,,,,,,,,,,,,,,,,,4,,,,,,,,207.5101691999007,207.5101691999007,207.5101691999007,207.5101691999007,207.5101691999007,up,0.3932920000515878,3,0,99,0.16,-0.15999999999999998,up,0.3042824000585824,None,,,,,,,,,,,,,,,,,,,,,,,,,,,,,,,,,,,,2024-06-25_16h01.43.362,HideSeek_v1,2023.1.3,60.3110481952949,
,4,1,4,6,0,5,66,,train_dim1_1,4,4,2,0,2,0,,,,,,,,,2,0,2,0,0,3,3,3,2,0,2,0,,,,,,,,,,,,,,,,,,,,,,,,,,,,,,,,,,,,,,,,,,,,,,,,,,,,,,4,,,,,,,,207.91096389992163,207.91096389992163,207.91096389992163,207.91096389992163,207.91096389992163,up,0.4110508000012487,3,0,99,0.16,-0.07999999999999997,up,0.315729700261727,None,,,,,,,,,,,,,,,,,,,,,,,,,,,,,,,,,,,,2024-06-25_16h01.43.362,HideSeek_v1,2023.1.3,60.3110481952949,
,4,1,4,6,0,5,66,,train_dim1_1,4,4,2,0,2,0,,,,,,,,,2,0,2,0,0,3,3,3,3,0,3,0,,,,,,,,,,,,,,,,,,,,,,,,,,,,,,,,,,,,,,,,,,,,,,,,,,,,,,4,,,,,,,,208.32732459995896,208.32732459995896,208.32732459995896,208.32732459995896,208.32732459995896,up,0.4444732000119984,3,0,99,0.16,2.7755575615628914e-17,up,0.35207420005463064,None,,,,,,,,,,,,,,,,,,,,,,,,,,,,,,,,,,,,2024-06-25_16h01.43.362,HideSeek_v1,2023.1.3,60.3110481952949,
,4,1,4,6,0,5,66,,train_dim1_1,4,4,2,0,2,0,,,,,,,,,2,0,2,0,0,3,3,3,4,0,4,0,,,,,,,,,,,,,,,,,,,,,,,,,,,,,,,,,,,,,,,,,,,,,,,,,,,,,,4,,,,,,,,208.79063339997083,208.79063339997083,208.79063339997083,208.79063339997083,208.79063339997083,up,0.5767175001092255,3,0,99,0.16,0.08000000000000003,up,0.4745913001243025,None,,,,,,,,,,,,,,,,,,,,,,,,,,,,,,,,,,,,2024-06-25_16h01.43.362,HideSeek_v1,2023.1.3,60.3110481952949,
,4,1,4,6,0,5,66,,train_dim1_1,4,4,2,0,2,0,,,,,,,,,2,0,2,0,0,3,3,3,5,0,5,0,,,,,,,,,,,,,,,,,,,,,,,,,,,,,,,,,,,,,,,,,,,,,,,,,,,,,,4,,,,,,,,209.35835350002162,209.35835350002162,209.35835350002162,209.35835350002162,209.35835350002162,return,0.4278874001465738,4,0,1,0.16,0.08000000000000003,return,0.33656530012376606,None,77,0,0.16,0.08000000000000003,,,,,,,,,,,,,,,,,,,,,,,,,,,,,,,,2024-06-25_16h01.43.362,HideSeek_v1,2023.1.3,60.3110481952949,
,1,3,1,6,0,3,64,,train_dim1_1,1,4,2,0,2,0,,,,,,,,,3,0,3,0,0,0,0,0,0,0,0,0,,,,,,,,,,,,,stimuli/alien_stimuli/64.png,,,,,,,,,,,,,,,,,,,,,,,,,,,,,,,stimuli/alien_stimuli/66.png,66,4,4,17,70,95.83333333333334,3,0,1,4,0,conditions/inputTrain_1.4.xlsx,99,1,1,1,0,213.5238731999416,213.5238731999416,213.5238731999416,213.5238731999416,213.5238731999416,up,1.252565200207755,0,0,99,-0.08,-0.08,up,1.152502299984917,None,,,,,211.9579153000377,213.5238731999416,0.16,0.08,0.4,0.0,-0.12,0.16,0.16,0.16,0.08,211.35749289998785,211.35749289998785,211.35749289998785,211.35749289998785,211.35749289998785,211.35749289998785,211.35749289998785,211.35749289998785,211.3408100001281,0.7181090000085533,return,0.5714810001663864,None,0,0,3,4,,,,2024-06-25_16h01.43.362,HideSeek_v1,2023.1.3,60.3110481952949,
,1,3,1,6,0,3,64,,train_dim1_1,1,4,2,0,2,0,,,,,,,,,3,0,3,0,0,0,0,0,1,0,1,0,,,,,,,,,,,,,,,,,,,,,,,,,,,,,,,,,,,,,,,,,,,,,,,,,,,,,,4,,,,,,,,214.77657960006036,214.77657960006036,214.77657960006036,214.77657960006036,214.77657960006036,up,0.27781829982995987,0,0,99,-0.08,0.0,up,0.1848553002346307,None,,,,,,,,,,,,,,,,,,,,,,,,,,,,,,,,,,,,2024-06-25_16h01.43.362,HideSeek_v1,2023.1.3,60.3110481952949,
,1,3,1,6,0,3,64,,train_dim1_1,1,4,2,0,2,0,,,,,,,,,3,0,3,0,0,0,0,0,2,0,2,0,,,,,,,,,,,,,,,,,,,,,,,,,,,,,,,,,,,,,,,,,,,,,,,,,,,,,,4,,,,,,,,215.07407419988886,215.07407419988886,215.07407419988886,215.07407419988886,215.07407419988886,up,0.2607005999889225,0,0,99,-0.08,0.08,up,0.1640911002177745,None,,,,,,,,,,,,,,,,,,,,,,,,,,,,,,,,,,,,2024-06-25_16h01.43.362,HideSeek_v1,2023.1.3,60.3110481952949,
,1,3,1,6,0,3,64,,train_dim1_1,1,4,2,0,2,0,,,,,,,,,3,0,3,0,0,0,0,0,3,0,3,0,,,,,,,,,,,,,,,,,,,,,,,,,,,,,,,,,,,,,,,,,,,,,,,,,,,,,,4,,,,,,,,215.32588639995083,215.32588639995083,215.32588639995083,215.32588639995083,215.32588639995083,return,0.3775714999064803,1,0,1,-0.08,0.08,return,0.2826651001814753,None,80,0,-0.08,0.08,,,,,,,,,,,,,,,,,,,,,,,,,,,,,,,,2024-06-25_16h01.43.362,HideSeek_v1,2023.1.3,60.3110481952949,
,0,0,0,4,0,4,65,,train_dim1_1,2,4,2,0,2,0,,,,,,,,,3,0,3,0,0,1,1,1,0,0,0,0,,,,,,,,,,,,,stimuli/alien_stimuli/65.png,,,,,,,,,,,,,,,,,,,,,,,,,,,,,,,stimuli/alien_stimuli/64.png,64,1,1,,,,,,,4,,,,,,,,219.09140120004304,219.09140120004304,219.09140120004304,219.09140120004304,219.09140120004304,up,0.4067917000502348,1,0,99,-0.16,-0.32,up,0.30513050011359155,None,,,,,217.5241072999779,219.09140120004304,-0.08,0.08,0.24,0.0,-0.04,-0.08,-0.08,-0.08,0.08,217.2740446999669,217.2740446999669,217.2740446999669,217.2740446999669,217.2740446999669,217.2740446999669,217.2740446999669,217.2740446999669,217.2573366001481,0.3682579000014812,return,0.2317917002364993,None,,,,,,,,2024-06-25_16h01.43.362,HideSeek_v1,2023.1.3,60.3110481952949,
,0,0,0,4,0,4,65,,train_dim1_1,2,4,2,0,2,0,,,,,,,,,3,0,3,0,0,1,1,1,1,0,1,0,,,,,,,,,,,,,,,,,,,,,,,,,,,,,,,,,,,,,,,,,,,,,,,,,,,,,,4,,,,,,,,219.50744260009378,219.50744260009378,219.50744260009378,219.50744260009378,219.50744260009378,up,0.32677599997259676,1,0,99,-0.16,-0.24,up,0.22724800021387637,None,,,,,,,,,,,,,,,,,,,,,,,,,,,,,,,,,,,,2024-06-25_16h01.43.362,HideSeek_v1,2023.1.3,60.3110481952949,
,0,0,0,4,0,4,65,,train_dim1_1,2,4,2,0,2,0,,,,,,,,,3,0,3,0,0,1,1,1,2,0,2,0,,,,,,,,,,,,,,,,,,,,,,,,,,,,,,,,,,,,,,,,,,,,,,,,,,,,,,4,,,,,,,,219.8573064999655,219.8573064999655,219.8573064999655,219.8573064999655,219.8573064999655,up,0.3415610999800265,1,0,99,-0.16,-0.15999999999999998,up,0.22418650006875396,None,,,,,,,,,,,,,,,,,,,,,,,,,,,,,,,,,,,,2024-06-25_16h01.43.362,HideSeek_v1,2023.1.3,60.3110481952949,
,0,0,0,4,0,4,65,,train_dim1_1,2,4,2,0,2,0,,,,,,,,,3,0,3,0,0,1,1,1,3,0,3,0,,,,,,,,,,,,,,,,,,,,,,,,,,,,,,,,,,,,,,,,,,,,,,,,,,,,,,4,,,,,,,,220.19070519995876,220.19070519995876,220.19070519995876,220.19070519995876,220.19070519995876,up,0.27738009998574853,1,0,99,-0.16,-0.07999999999999997,up,0.18063850002363324,None,,,,,,,,,,,,,,,,,,,,,,,,,,,,,,,,,,,,2024-06-25_16h01.43.362,HideSeek_v1,2023.1.3,60.3110481952949,
,0,0,0,4,0,4,65,,train_dim1_1,2,4,2,0,2,0,,,,,,,,,3,0,3,0,0,1,1,1,4,0,4,0,,,,,,,,,,,,,,,,,,,,,,,,,,,,,,,,,,,,,,,,,,,,,,,,,,,,,,4,,,,,,,,220.45873790001497,220.45873790001497,220.45873790001497,220.45873790001497,220.45873790001497,return,0.29425589996390045,2,0,1,-0.16,-0.07999999999999997,return,0.2031601001508534,None,84,0,-0.16,-0.07999999999999997,,,,,,,,,,,,,,,,,,,,,,,,,,,,,,,,2024-06-25_16h01.43.362,HideSeek_v1,2023.1.3,60.3110481952949,
,4,2,4,3,0,1,62,,train_dim1_1,3,4,2,0,2,0,,,,,,,,,3,0,3,0,0,2,2,2,0,0,0,0,,,,,,,,,,,,,stimuli/alien_stimuli/62.png,,,,,,,,,,,,,,,,,,,,,,,,,,,,,,,stimuli/alien_stimuli/65.png,65,0,2,,,,,,,4,,,,,,,,224.15736060007475,224.15736060007475,224.15736060007475,224.15736060007475,224.15736060007475,up,0.4415535998996347,2,0,99,0.16,-0.15999999999999998,up,0.33454060018993914,None,,,,,222.5905766999349,224.15736060007475,-0.16,-0.08,0.32,0.0,-0.24000000000000002,-0.16,-0.16,-0.16,-0.08,222.3414582000114,222.3414582000114,222.3414582000114,222.3414582000114,222.3414582000114,222.3414582000114,222.3414582000114,222.3414582000114,222.32391620003617,0.38438599999062717,return,0.23133060010150075,None,,,,,,,,2024-06-25_16h01.43.362,HideSeek_v1,2023.1.3,60.3110481952949,
,4,2,4,3,0,1,62,,train_dim1_1,3,4,2,0,2,0,,,,,,,,,3,0,3,0,0,2,2,2,1,0,1,0,,,,,,,,,,,,,,,,,,,,,,,,,,,,,,,,,,,,,,,,,,,,,,,,,,,,,,4,,,,,,,,224.59177189995535,224.59177189995535,224.59177189995535,224.59177189995535,224.59177189995535,return,0.3771730998996645,3,0,1,0.16,-0.15999999999999998,return,0.28755930019542575,None,85,0,0.16,-0.15999999999999998,,,,,,,,,,,,,,,,,,,,,,,,,,,,,,,,2024-06-25_16h01.43.362,HideSeek_v1,2023.1.3,60.3110481952949,
,3,0,3,5,0,5,66,,train_dim1_1,4,4,2,0,2,0,,,,,,,,,3,0,3,0,0,3,3,3,0,0,0,0,,,,,,,,,,,,,stimuli/alien_stimuli/66.png,,,,,,,,,,,,,,,,,,,,,,,,,,,,,,,stimuli/alien_stimuli/62.png,62,4,3,,,,,,,4,,,,,,,,228.3103686000686,228.3103686000686,228.3103686000686,228.3103686000686,228.3103686000686,up,0.3907091999426484,3,0,99,0.08,-0.32,up,0.30092920013703406,None,,,,,226.75796029996127,228.3103686000686,0.16,-0.16,0.08,0.0,-0.2,0.16,0.16,0.16,-0.16,226.52377679990605,226.52377679990605,226.52377679990605,226.52377679990605,226.52377679990605,226.52377679990605,226.52377679990605,226.52377679990605,226.50702990000136,0.3350311000831425,return,0.21467270026914775,None,,,,,,,,2024-06-25_16h01.43.362,HideSeek_v1,2023.1.3,60.3110481952949,
,3,0,3,5,0,5,66,,train_dim1_1,4,4,2,0,2,0,,,,,,,,,3,0,3,0,0,3,3,3,1,0,1,0,,,,,,,,,,,,,,,,,,,,,,,,,,,,,,,,,,,,,,,,,,,,,,,,,,,,,,4,,,,,,,,228.70721059991047,228.70721059991047,228.70721059991047,228.70721059991047,228.70721059991047,up,1.1606147000566125,3,0,99,0.08,-0.24,up,1.069340500049293,None,,,,,,,,,,,,,,,,,,,,,,,,,,,,,,,,,,,,2024-06-25_16h01.43.362,HideSeek_v1,2023.1.3,60.3110481952949,
,3,0,3,5,0,5,66,,train_dim1_1,4,4,2,0,2,0,,,,,,,,,3,0,3,0,0,3,3,3,2,0,2,0,,,,,,,,,,,,,,,,,,,,,,,,,,,,,,,,,,,,,,,,,,,,,,,,,,,,,,4,,,,,,,,229.8744576999452,229.8744576999452,229.8744576999452,229.8744576999452,229.8744576999452,up,0.6937315000686795,3,0,99,0.08,-0.15999999999999998,up,0.6074199001304805,None,,,,,,,,,,,,,,,,,,,,,,,,,,,,,,,,,,,,2024-06-25_16h01.43.362,HideSeek_v1,2023.1.3,60.3110481952949,
,3,0,3,5,0,5,66,,train_dim1_1,4,4,2,0,2,0,,,,,,,,,3,0,3,0,0,3,3,3,3,0,3,0,,,,,,,,,,,,,,,,,,,,,,,,,,,,,,,,,,,,,,,,,,,,,,,,,,,,,,4,,,,,,,,230.57360909995623,230.57360909995623,230.57360909995623,230.57360909995623,230.57360909995623,up,0.3778863998595625,3,0,99,0.08,-0.07999999999999997,up,0.2999105001799762,None,,,,,,,,,,,,,,,,,,,,,,,,,,,,,,,,,,,,2024-06-25_16h01.43.362,HideSeek_v1,2023.1.3,60.3110481952949,
,3,0,3,5,0,5,66,,train_dim1_1,4,4,2,0,2,0,,,,,,,,,3,0,3,0,0,3,3,3,4,0,4,0,,,,,,,,,,,,,,,,,,,,,,,,,,,,,,,,,,,,,,,,,,,,,,,,,,,,,,4,,,,,,,,230.95745670003816,230.95745670003816,230.95745670003816,230.95745670003816,230.95745670003816,return,0.32774459989741445,3,0,0,0.08,-0.07999999999999997,return,0.2417185001540929,None,89,0,0.08,-0.07999999999999997,,,,,,,,,,,,,,,,,,,,,,,,,,,,,,,,2024-06-25_16h01.43.362,HideSeek_v1,2023.1.3,60.3110481952949,
,2,1,2,4,0,3,64,,train_dim1_1,1,4,2,0,2,0,,,,,,,,,4,0,4,0,0,0,0,0,0,0,0,0,,,,,,,,,,,,,stimuli/alien_stimuli/64.png,,,,,,,,,,,,,,,,,,,,,,,,,,,,,,,stimuli/alien_stimuli/66.png,66,3,4,17,70,108.33333333333334,4,0,1,4,0,conditions/inputTrain_1.5.xlsx,99,1,1,1,0,234.72406310006045,234.72406310006045,234.72406310006045,234.72406310006045,234.72406310006045,up,0.6035549999214709,0,0,99,0,-0.24,up,0.5122433002106845,None,,,,,233.15736759989522,234.72406310006045,0.08,0,0.4,0.0,-0.2,0.08,0.08,0.08,0,232.85709349997342,232.85709349997342,232.85709349997342,232.85709349997342,232.85709349997342,232.85709349997342,232.85709349997342,232.85709349997342,232.8404938000487,0.41826410009525716,return,0.27532150014303625,None,0,0,4,3,,,,2024-06-25_16h01.43.362,HideSeek_v1,2023.1.3,60.3110481952949,
,2,1,2,4,0,3,64,,train_dim1_1,1,4,2,0,2,0,,,,,,,,,4,0,4,0,0,0,0,0,1,0,1,0,,,,,,,,,,,,,,,,,,,,,,,,,,,,,,,,,,,,,,,,,,,,,,,,,,,,,,4,,,,,,,,235.32425639987923,235.32425639987923,235.32425639987923,235.32425639987923,235.32425639987923,up,0.44360999995842576,0,0,99,0,-0.15999999999999998,up,0.3561923000961542,None,,,,,,,,,,,,,,,,,,,,,,,,,,,,,,,,,,,,2024-06-25_16h01.43.362,HideSeek_v1,2023.1.3,60.3110481952949,
,2,1,2,4,0,3,64,,train_dim1_1,1,4,2,0,2,0,,,,,,,,,4,0,4,0,0,0,0,0,2,0,2,0,,,,,,,,,,,,,,,,,,,,,,,,,,,,,,,,,,,,,,,,,,,,,,,,,,,,,,4,,,,,,,,235.77614949992858,235.77614949992858,235.77614949992858,235.77614949992858,235.77614949992858,up,0.494563200045377,0,0,99,0,-0.07999999999999997,up,0.4134017003234476,None,,,,,,,,,,,,,,,,,,,,,,,,,,,,,,,,,,,,2024-06-25_16h01.43.362,HideSeek_v1,2023.1.3,60.3110481952949,
,2,1,2,4,0,3,64,,train_dim1_1,1,4,2,0,2,0,,,,,,,,,4,0,4,0,0,0,0,0,3,0,3,0,,,,,,,,,,,,,,,,,,,,,,,,,,,,,,,,,,,,,,,,,,,,,,,,,,,,,,4,,,,,,,,236.27556720003486,236.27556720003486,236.27556720003486,236.27556720003486,236.27556720003486,return,0.3942577000707388,1,0,1,0,-0.07999999999999997,return,0.30187100009061396,None,92,0,0,-0.07999999999999997,,,,,,,,,,,,,,,,,,,,,,,,,,,,,,,,2024-06-25_16h01.43.362,HideSeek_v1,2023.1.3,60.3110481952949,
,4,3,4,7,0,4,65,,train_dim1_1,2,4,2,0,2,0,,,,,,,,,4,0,4,0,0,1,1,1,0,0,0,0,,,,,,,,,,,,,stimuli/alien_stimuli/65.png,,,,,,,,,,,,,,,,,,,,,,,,,,,,,,,stimuli/alien_stimuli/64.png,64,2,1,,,,,,,4,,,,,,,,240.3109474000521,240.3109474000521,240.3109474000521,240.3109474000521,240.3109474000521,up,0.4076719000004232,1,0,99,0.16,-0.08,up,0.3289957002270967,None,,,,,238.75707859988324,240.3109474000521,0,-0.08,0.24,0.0,-0.2,0,0.0,0,-0.08,238.22364829992875,238.22364829992875,238.22364829992875,238.22364829992875,238.22364829992875,238.22364829992875,238.22364829992875,238.22364829992875,238.20731069999746,0.6344069999177009,return,0.5043478000443429,None,,,,,,,,2024-06-25_16h01.43.362,HideSeek_v1,2023.1.3,60.3110481952949,
,4,3,4,7,0,4,65,,train_dim1_1,2,4,2,0,2,0,,,,,,,,,4,0,4,0,0,1,1,1,1,0,1,0,,,,,,,,,,,,,,,,,,,,,,,,,,,,,,,,,,,,,,,,,,,,,,,,,,,,,,4,,,,,,,,240.72570449998602,240.72570449998602,240.72570449998602,240.72570449998602,240.72570449998602,up,0.3436015001498163,1,0,99,0.16,0.0,up,0.25414400012232363,None,,,,,,,,,,,,,,,,,,,,,,,,,,,,,,,,,,,,2024-06-25_16h01.43.362,HideSeek_v1,2023.1.3,60.3110481952949,
,4,3,4,7,0,4,65,,train_dim1_1,2,4,2,0,2,0,,,,,,,,,4,0,4,0,0,1,1,1,2,0,2,0,,,,,,,,,,,,,,,,,,,,,,,,,,,,,,,,,,,,,,,,,,,,,,,,,,,,,,4,,,,,,,,241.0742395000998,241.0742395000998,241.0742395000998,241.0742395000998,241.0742395000998,up,0.32784210005775094,1,0,99,0.16,0.08,up,0.25023999996483326,None,,,,,,,,,,,,,,,,,,,,,,,,,,,,,,,,,,,,2024-06-25_16h01.43.362,HideSeek_v1,2023.1.3,60.3110481952949,
,4,3,4,7,0,4,65,,train_dim1_1,2,4,2,0,2,0,,,,,,,,,4,0,4,0,0,1,1,1,3,0,3,0,,,,,,,,,,,,,,,,,,,,,,,,,,,,,,,,,,,,,,,,,,,,,,,,,,,,,,4,,,,,,,,241.40916909999214,241.40916909999214,241.40916909999214,241.40916909999214,241.40916909999214,up,0.2946832999587059,1,0,99,0.16,0.16,up,0.20989780011586845,None,,,,,,,,,,,,,,,,,,,,,,,,,,,,,,,,,,,,2024-06-25_16h01.43.362,HideSeek_v1,2023.1.3,60.3110481952949,
,4,3,4,7,0,4,65,,train_dim1_1,2,4,2,0,2,0,,,,,,,,,4,0,4,0,0,1,1,1,4,0,4,0,,,,,,,,,,,,,,,,,,,,,,,,,,,,,,,,,,,,,,,,,,,,,,,,,,,,,,4,,,,,,,,241.71075779991224,241.71075779991224,241.71075779991224,241.71075779991224,241.71075779991224,return,0.2766412999480963,2,0,1,0.16,0.16,return,0.19416470010764897,None,96,0,0.16,0.16,,,,,,,,,,,,,,,,,,,,,,,,,,,,,,,,2024-06-25_16h01.43.362,HideSeek_v1,2023.1.3,60.3110481952949,
,1,0,1,5,0,5,66,,train_dim1_1,3,4,2,0,2,0,,,,,,,,,4,0,4,0,0,2,2,2,0,0,0,0,,,,,,,,,,,,,stimuli/alien_stimuli/66.png,,,,,,,,,,,,,,,,,,,,,,,,,,,,,,,stimuli/alien_stimuli/65.png,65,4,2,,,,,,,4,,,,,,,,245.49285609996878,245.49285609996878,245.49285609996878,245.49285609996878,245.49285609996878,up,1.1081838000100106,2,0,99,-0.08,-0.32,up,1.015743700088933,None,,,,,243.94069579988718,245.49285609996878,0.16,0.16,0.32,0.0,0.0,0.16,0.16,0.16,0.16,243.57390429987572,243.57390429987572,243.57390429987572,243.57390429987572,243.57390429987572,243.57390429987572,243.57390429987572,243.57390429987572,243.55731580005957,0.5007545999251306,return,0.33756980020552874,None,,,,,,,,2024-06-25_16h01.43.362,HideSeek_v1,2023.1.3,60.3110481952949,
,1,0,1,5,0,5,66,,train_dim1_1,3,4,2,0,2,0,,,,,,,,,4,0,4,0,0,2,2,2,1,0,1,0,,,,,,,,,,,,,,,,,,,,,,,,,,,,,,,,,,,,,,,,,,,,,,,,,,,,,,4,,,,,,,,246.60783110000193,246.60783110000193,246.60783110000193,246.60783110000193,246.60783110000193,up,0.34429329982958734,2,0,99,-0.08,-0.24,up,0.26444010017439723,None,,,,,,,,,,,,,,,,,,,,,,,,,,,,,,,,,,,,2024-06-25_16h01.43.362,HideSeek_v1,2023.1.3,60.3110481952949,
,1,0,1,5,0,5,66,,train_dim1_1,3,4,2,0,2,0,,,,,,,,,4,0,4,0,0,2,2,2,2,0,2,0,,,,,,,,,,,,,,,,,,,,,,,,,,,,,,,,,,,,,,,,,,,,,,,,,,,,,,4,,,,,,,,246.95791750005446,246.95791750005446,246.95791750005446,246.95791750005446,246.95791750005446,up,0.34372569993138313,2,0,99,-0.08,-0.15999999999999998,up,0.26305790012702346,None,,,,,,,,,,,,,,,,,,,,,,,,,,,,,,,,,,,,2024-06-25_16h01.43.362,HideSeek_v1,2023.1.3,60.3110481952949,
,1,0,1,5,0,5,66,,train_dim1_1,3,4,2,0,2,0,,,,,,,,,4,0,4,0,0,2,2,2,3,0,3,0,,,,,,,,,,,,,,,,,,,,,,,,,,,,,,,,,,,,,,,,,,,,,,,,,,,,,,4,,,,,,,,247.30745329987258,247.30745329987258,247.30745329987258,247.30745329987258,247.30745329987258,up,0.32771350000984967,2,0,99,-0.08,-0.07999999999999997,up,0.24250660021789372,None,,,,,,,,,,,,,,,,,,,,,,,,,,,,,,,,,,,,2024-06-25_16h01.43.362,HideSeek_v1,2023.1.3,60.3110481952949,
,1,0,1,5,0,5,66,,train_dim1_1,3,4,2,0,2,0,,,,,,,,,4,0,4,0,0,2,2,2,4,0,4,0,,,,,,,,,,,,,,,,,,,,,,,,,,,,,,,,,,,,,,,,,,,,,,,,,,,,,,4,,,,,,,,247.64036269998178,247.64036269998178,247.64036269998178,247.64036269998178,247.64036269998178,up,0.2773938002064824,2,0,99,-0.08,2.7755575615628914e-17,up,0.18492860021069646,None,,,,,,,,,,,,,,,,,,,,,,,,,,,,,,,,,,,,2024-06-25_16h01.43.362,HideSeek_v1,2023.1.3,60.3110481952949,
,1,0,1,5,0,5,66,,train_dim1_1,3,4,2,0,2,0,,,,,,,,,4,0,4,0,0,2,2,2,5,0,5,0,,,,,,,,,,,,,,,,,,,,,,,,,,,,,,,,,,,,,,,,,,,,,,,,,,,,,,4,,,,,,,,247.92424069996923,247.92424069996923,247.92424069996923,247.92424069996923,247.92424069996923,return,0.4607612998224795,3,0,1,-0.08,2.7755575615628914e-17,return,0.36924350005574524,None,101,0,-0.08,2.7755575615628914e-17,,,,,,,,,,,,,,,,,,,,,,,,,,,,,,,,2024-06-25_16h01.43.362,HideSeek_v1,2023.1.3,60.3110481952949,
,3,1,3,2,0,1,62,,train_dim1_1,4,4,2,0,2,0,,,,,,,,,4,0,4,0,0,3,3,3,0,0,0,0,,,,,,,,,,,,,stimuli/alien_stimuli/62.png,,,,,,,,,,,,,,,,,,,,,,,,,,,,,,,stimuli/alien_stimuli/66.png,66,1,3,,,,,,,4,,,,,,,,251.79015040001832,251.79015040001832,251.79015040001832,251.79015040001832,251.79015040001832,up,0.4232480002101511,3,0,99,0.08,-0.24,up,0.3231766002718359,None,,,,,250.22398249991238,251.79015040001832,-0.08,0,0.4,0.0,-0.2,-0.08,-0.08,-0.08,0,249.95686249993742,249.95686249993742,249.95686249993742,249.95686249993742,249.95686249993742,249.95686249993742,249.95686249993742,249.95686249993742,249.94015289999078,0.3854239999782294,return,0.24370680004358292,None,,,,,,,,2024-06-25_16h01.43.362,HideSeek_v1,2023.1.3,60.3110481952949,
,3,1,3,2,0,1,62,,train_dim1_1,4,4,2,0,2,0,,,,,,,,,4,0,4,0,0,3,3,3,1,0,1,0,,,,,,,,,,,,,,,,,,,,,,,,,,,,,,,,,,,,,,,,,,,,,,,,,,,,,,4,,,,,,,,252.20785379991867,252.20785379991867,252.20785379991867,252.20785379991867,252.20785379991867,return,0.34317680005915463,4,0,1,0.08,-0.24,return,0.25923460023477674,None,102,0,0.08,-0.24,,,,,,,,,,,,,,,,,,,,,,,,,,,,,,,,2024-06-25_16h01.43.362,HideSeek_v1,2023.1.3,60.3110481952949,
,0,2,0,7,0,5,66,,train_dim1_1,1,4,2,0,2,0,,,,,,,,,5,0,5,0,0,0,0,0,0,0,0,0,,,,,,,,,,,,,stimuli/alien_stimuli/66.png,,,,,,,,,,,,,,,,,,,,,,,,,,,,,,,stimuli/alien_stimuli/62.png,62,3,4,17,70,125.00000000000001,5,0,1,4,0,conditions/inputTrain_1.6.xlsx,99,1,1,1,0,256.02369789988734,256.02369789988734,256.02369789988734,256.02369789988734,256.02369789988734,up,0.3855528999119997,0,0,99,-0.16,-0.15999999999999998,up,0.2885497002862394,None,,,,,254.4572866000235,256.02369789988734,0.08,-0.24,0.08,0.0,-0.28,0.08,0.08,0.08,-0.24,254.12423210009,254.12423210009,254.12423210009,254.12423210009,254.12423210009,254.12423210009,254.12423210009,254.12423210009,254.1068127000937,0.4519261000677943,return,0.31325110024772584,None,0,0,5,4,,,,2024-06-25_16h01.43.362,HideSeek_v1,2023.1.3,60.3110481952949,
,0,2,0,7,0,5,66,,train_dim1_1,1,4,2,0,2,0,,,,,,,,,5,0,5,0,0,0,0,0,1,0,1,0,,,,,,,,,,,,,,,,,,,,,,,,,,,,,,,,,,,,,,,,,,,,,,,,,,,,,,4,,,,,,,,256.40752639994025,256.40752639994025,256.40752639994025,256.40752639994025,256.40752639994025,up,0.3271574000827968,0,0,99,-0.16,-0.07999999999999997,up,0.24984299996867776,None,,,,,,,,,,,,,,,,,,,,,,,,,,,,,,,,,,,,2024-06-25_16h01.43.362,HideSeek_v1,2023.1.3,60.3110481952949,
,0,2,0,7,0,5,66,,train_dim1_1,1,4,2,0,2,0,,,,,,,,,5,0,5,0,0,0,0,0,2,0,2,0,,,,,,,,,,,,,,,,,,,,,,,,,,,,,,,,,,,,,,,,,,,,,,,,,,,,,,4,,,,,,,,256.74132109992206,256.74132109992206,256.74132109992206,256.74132109992206,256.74132109992206,up,0.2776744000148028,0,0,99,-0.16,2.7755575615628914e-17,up,0.1945953001268208,None,,,,,,,,,,,,,,,,,,,,,,,,,,,,,,,,,,,,2024-06-25_16h01.43.362,HideSeek_v1,2023.1.3,60.3110481952949,
,0,2,0,7,0,5,66,,train_dim1_1,1,4,2,0,2,0,,,,,,,,,5,0,5,0,0,0,0,0,3,0,3,0,,,,,,,,,,,,,,,,,,,,,,,,,,,,,,,,,,,,,,,,,,,,,,,,,,,,,,4,,,,,,,,257.0262332998682,257.0262332998682,257.0262332998682,257.0262332998682,257.0262332998682,up,0.2779920999892056,0,0,99,-0.16,0.08000000000000003,up,0.18576089991256595,None,,,,,,,,,,,,,,,,,,,,,,,,,,,,,,,,,,,,2024-06-25_16h01.43.362,HideSeek_v1,2023.1.3,60.3110481952949,
,0,2,0,7,0,5,66,,train_dim1_1,1,4,2,0,2,0,,,,,,,,,5,0,5,0,0,0,0,0,4,0,4,0,,,,,,,,,,,,,,,,,,,,,,,,,,,,,,,,,,,,,,,,,,,,,,,,,,,,,,4,,,,,,,,257.3236400000751,257.3236400000751,257.3236400000751,257.3236400000751,257.3236400000751,up,0.27664260007441044,0,0,99,-0.16,0.16000000000000003,up,0.17316670017316937,None,,,,,,,,,,,,,,,,,,,,,,,,,,,,,,,,,,,,2024-06-25_16h01.43.362,HideSeek_v1,2023.1.3,60.3110481952949,
,0,2,0,7,0,5,66,,train_dim1_1,1,4,2,0,2,0,,,,,,,,,5,0,5,0,0,0,0,0,5,0,5,0,,,,,,,,,,,,,,,,,,,,,,,,,,,,,,,,,,,,,,,,,,,,,,,,,,,,,,4,,,,,,,,257.59259069990367,257.59259069990367,257.59259069990367,257.59259069990367,257.59259069990367,return,0.2950758000370115,1,0,1,-0.16,0.16000000000000003,return,0.20341409998945892,None,107,0,-0.16,0.16000000000000003,,,,,,,,,,,,,,,,,,,,,,,,,,,,,,,,2024-06-25_16h01.43.362,HideSeek_v1,2023.1.3,60.3110481952949,
,1,2,1,6,0,4,65,,train_dim1_1,2,4,2,0,2,0,,,,,,,,,5,0,5,0,0,1,1,1,0,0,0,0,,,,,,,,,,,,,stimuli/alien_stimuli/65.png,,,,,,,,,,,,,,,,,,,,,,,,,,,,,,,stimuli/alien_stimuli/66.png,66,0,1,,,,,,,4,,,,,,,,261.34333950001746,261.34333950001746,261.34333950001746,261.34333950001746,261.34333950001746,up,0.5915685000363737,1,0,99,-0.08,-0.15999999999999998,up,0.4991073999553919,None,,,,,259.79053870006464,261.34333950001746,-0.16,0.16,0.4,0.0,-0.039999999999999994,-0.16,-0.16,-0.16,0.16,259.4424739999231,259.4424739999231,259.4424739999231,259.4424739999231,259.4424739999231,259.4424739999231,259.4424739999231,259.4424739999231,259.440288100089,0.45138809992931783,return,0.3247211000416428,None,,,,,,,,2024-06-25_16h01.43.362,HideSeek_v1,2023.1.3,60.3110481952949,
,1,2,1,6,0,4,65,,train_dim1_1,2,4,2,0,2,0,,,,,,,,,5,0,5,0,0,1,1,1,1,0,1,0,,,,,,,,,,,,,,,,,,,,,,,,,,,,,,,,,,,,,,,,,,,,,,,,,,,,,,4,,,,,,,,261.94356489996426,261.94356489996426,261.94356489996426,261.94356489996426,261.94356489996426,up,0.6933614001609385,1,0,99,-0.08,-0.07999999999999997,up,0.5980847000610083,None,,,,,,,,,,,,,,,,,,,,,,,,,,,,,,,,,,,,2024-06-25_16h01.43.362,HideSeek_v1,2023.1.3,60.3110481952949,
,1,2,1,6,0,4,65,,train_dim1_1,2,4,2,0,2,0,,,,,,,,,5,0,5,0,0,1,1,1,2,0,2,0,,,,,,,,,,,,,,,,,,,,,,,,,,,,,,,,,,,,,,,,,,,,,,,,,,,,,,4,,,,,,,,262.6424108000938,262.6424108000938,262.6424108000938,262.6424108000938,262.6424108000938,up,0.46104980004020035,1,0,99,-0.08,2.7755575615628914e-17,up,0.36663449998013675,None,,,,,,,,,,,,,,,,,,,,,,,,,,,,,,,,,,,,2024-06-25_16h01.43.362,HideSeek_v1,2023.1.3,60.3110481952949,
,1,2,1,6,0,4,65,,train_dim1_1,2,4,2,0,2,0,,,,,,,,,5,0,5,0,0,1,1,1,3,0,3,0,,,,,,,,,,,,,,,,,,,,,,,,,,,,,,,,,,,,,,,,,,,,,,,,,,,,,,4,,,,,,,,263.1084845000878,263.1084845000878,263.1084845000878,263.1084845000878,263.1084845000878,up,0.3772549999412149,1,0,99,-0.08,0.08000000000000003,up,0.29522450012154877,None,,,,,,,,,,,,,,,,,,,,,,,,,,,,,,,,,,,,2024-06-25_16h01.43.362,HideSeek_v1,2023.1.3,60.3110481952949,
,1,2,1,6,0,4,65,,train_dim1_1,2,4,2,0,2,0,,,,,,,,,5,0,5,0,0,1,1,1,4,0,4,0,,,,,,,,,,,,,,,,,,,,,,,,,,,,,,,,,,,,,,,,,,,,,,,,,,,,,,4,,,,,,,,263.4913761999924,263.4913761999924,263.4913761999924,263.4913761999924,263.4913761999924,return,0.3441429000813514,2,0,1,-0.08,0.08000000000000003,return,0.2607494001276791,None,111,0,-0.08,0.08000000000000003,,,,,,,,,,,,,,,,,,,,,,,,,,,,,,,,2024-06-25_16h01.43.362,HideSeek_v1,2023.1.3,60.3110481952949,
,1,4,1,5,0,1,62,,train_dim1_1,3,4,2,0,2,0,,,,,,,,,5,0,5,0,0,2,2,2,0,0,0,0,,,,,,,,,,,,,stimuli/alien_stimuli/62.png,,,,,,,,,,,,,,,,,,,,,,,,,,,,,,,stimuli/alien_stimuli/65.png,65,1,2,,,,,,,4,,,,,,,,267.52574419998564,267.52574419998564,267.52574419998564,267.52574419998564,267.52574419998564,up,0.6254199000541121,2,0,99,-0.08,0.0,up,0.5442991000600159,None,,,,,265.9742896000389,267.52574419998564,-0.08,0.08,0.32,0.0,-0.07999999999999999,-0.08,-0.08,-0.08,0.08,265.3936224998906,265.3936224998906,265.3936224998906,265.3936224998906,265.3936224998906,265.3936224998906,265.3936224998906,265.3936224998906,265.39017059996263,0.6847586999647319,return,0.5627630001399666,None,,,,,,,,2024-06-25_16h01.43.362,HideSeek_v1,2023.1.3,60.3110481952949,
,1,4,1,5,0,1,62,,train_dim1_1,3,4,2,0,2,0,,,,,,,,,5,0,5,0,0,2,2,2,1,0,1,0,,,,,,,,,,,,,,,,,,,,,,,,,,,,,,,,,,,,,,,,,,,,,,,,,,,,,,4,,,,,,,,268.15853699995205,268.15853699995205,268.15853699995205,268.15853699995205,268.15853699995205,return,0.3598786999937147,3,0,1,-0.08,0.0,return,0.2784012001939118,None,112,0,-0.08,0.0,,,,,,,,,,,,,,,,,,,,,,,,,,,,,,,,2024-06-25_16h01.43.362,HideSeek_v1,2023.1.3,60.3110481952949,
,3,2,3,5,0,3,64,,train_dim1_1,4,4,2,0,2,0,,,,,,,,,5,0,5,0,0,3,3,3,0,0,0,0,,,,,,,,,,,,,stimuli/alien_stimuli/64.png,,,,,,,,,,,,,,,,,,,,,,,,,,,,,,,stimuli/alien_stimuli/62.png,62,1,3,,,,,,,4,,,,,,,,271.9102956999559,271.9102956999559,271.9102956999559,271.9102956999559,271.9102956999559,up,0.4738643001765013,3,0,99,0.08,-0.15999999999999998,up,0.3905897999648005,None,,,,,270.3570815999992,271.9102956999559,-0.08,0,0.08,0.0,-0.04,-0.08,-0.08,-0.08,0,270.09037770004943,270.09037770004943,270.09037770004943,270.09037770004943,270.09037770004943,270.09037770004943,270.09037770004943,270.09037770004943,270.0738418001449,0.38478110008873045,return,0.24603060027584434,None,,,,,,,,2024-06-25_16h01.43.362,HideSeek_v1,2023.1.3,60.3110481952949,
,3,2,3,5,0,3,64,,train_dim1_1,4,4,2,0,2,0,,,,,,,,,5,0,5,0,0,3,3,3,1,0,1,0,,,,,,,,,,,,,,,,,,,,,,,,,,,,,,,,,,,,,,,,,,,,,,,,,,,,,,4,,,,,,,,272.3919436999131,272.3919436999131,272.3919436999131,272.3919436999131,272.3919436999131,up,0.37772809993475676,3,0,99,0.08,-0.07999999999999997,up,0.28471840010024607,None,,,,,,,,,,,,,,,,,,,,,,,,,,,,,,,,,,,,2024-06-25_16h01.43.362,HideSeek_v1,2023.1.3,60.3110481952949,
,3,2,3,5,0,3,64,,train_dim1_1,4,4,2,0,2,0,,,,,,,,,5,0,5,0,0,3,3,3,2,0,2,0,,,,,,,,,,,,,,,,,,,,,,,,,,,,,,,,,,,,,,,,,,,,,,,,,,,,,,4,,,,,,,,272.77596789994277,272.77596789994277,272.77596789994277,272.77596789994277,272.77596789994277,up,0.359980900073424,3,0,99,0.08,2.7755575615628914e-17,up,0.2762923000846058,None,,,,,,,,,,,,,,,,,,,,,,,,,,,,,,,,,,,,2024-06-25_16h01.43.362,HideSeek_v1,2023.1.3,60.3110481952949,
,3,2,3,5,0,3,64,,train_dim1_1,4,4,2,0,2,0,,,,,,,,,5,0,5,0,0,3,3,3,3,0,3,0,,,,,,,,,,,,,,,,,,,,,,,,,,,,,,,,,,,,,,,,,,,,,,,,,,,,,,4,,,,,,,,273.1426033999305,273.1426033999305,273.1426033999305,273.1426033999305,273.1426033999305,return,0.2608175000641495,4,0,1,0.08,2.7755575615628914e-17,return,0.17717000003904104,None,115,0,0.08,2.7755575615628914e-17,,,,,,,,,,,,,,,,,,,,,,,,,,,,,,,,2024-06-25_16h01.43.362,HideSeek_v1,2023.1.3,60.3110481952949,
,2,4,2,5,0,1,62,,train_dim1_1,1,4,2,0,2,0,,,,,,,,,6,0,6,0,0,0,0,0,0,0,0,0,,,,,,,,,,,,,stimuli/alien_stimuli/62.png,,,,,,,,,,,,,,,,,,,,,,,,,,,,,,,stimuli/alien_stimuli/64.png,64,3,4,17,70,141.66666666666669,6,0,1,4,0,conditions/inputTrain_1.7.xlsx,99,1,1,1,0,277.0068979000207,277.0068979000207,277.0068979000207,277.0068979000207,277.0068979000207,up,0.4374559000134468,0,0,99,0,0.0,up,0.33475110004656017,None,,,,,275.4403498999309,277.0068979000207,0.08,0,0.24,0.0,-0.12,0.08,0.08,0.08,0,274.9733619999606,274.9733619999606,274.9733619999606,274.9733619999606,274.9733619999606,274.9733619999606,274.9733619999606,274.9733619999606,274.9566359000048,0.5854154999833554,return,0.4488987000659108,None,0,0,6,4,,,,2024-06-25_16h01.43.362,HideSeek_v1,2023.1.3,60.3110481952949,
,2,4,2,5,0,1,62,,train_dim1_1,1,4,2,0,2,0,,,,,,,,,6,0,6,0,0,0,0,0,1,0,1,0,,,,,,,,,,,,,,,,,,,,,,,,,,,,,,,,,,,,,,,,,,,,,,,,,,,,,,4,,,,,,,,277.4411736999173,277.4411736999173,277.4411736999173,277.4411736999173,277.4411736999173,return,0.29377049999311566,1,0,1,0,0.0,return,0.20465339999645948,None,116,0,0,0.0,,,,,,,,,,,,,,,,,,,,,,,,,,,,,,,,2024-06-25_16h01.43.362,HideSeek_v1,2023.1.3,60.3110481952949,
,0,1,0,5,0,4,65,,train_dim1_1,2,4,2,0,2,0,,,,,,,,,6,0,6,0,0,1,1,1,0,0,0,0,,,,,,,,,,,,,stimuli/alien_stimuli/65.png,,,,,,,,,,,,,,,,,,,,,,,,,,,,,,,stimuli/alien_stimuli/62.png,62,2,1,,,,,,,4,,,,,,,,281.15698700002395,281.15698700002395,281.15698700002395,281.15698700002395,281.15698700002395,up,0.40665569994598627,1,0,99,-0.16,-0.24,up,0.31074890005402267,None,,,,,279.5901015000418,281.15698700002395,0,0,0.08,0.0,-0.04,0,0.0,0,0,279.3066731998697,279.3066731998697,279.3066731998697,279.3066731998697,279.3066731998697,279.3066731998697,279.3066731998697,279.3066731998697,279.2899095999776,0.4016074000392109,return,0.2669633002951741,None,,,,,,,,2024-06-25_16h01.43.362,HideSeek_v1,2023.1.3,60.3110481952949,
,0,1,0,5,0,4,65,,train_dim1_1,2,4,2,0,2,0,,,,,,,,,6,0,6,0,0,1,1,1,1,0,1,0,,,,,,,,,,,,,,,,,,,,,,,,,,,,,,,,,,,,,,,,,,,,,,,,,,,,,,4,,,,,,,,281.56013930006884,281.56013930006884,281.56013930006884,281.56013930006884,281.56013930006884,up,0.37674150010570884,1,0,99,-0.16,-0.15999999999999998,up,0.28952740016393363,None,,,,,,,,,,,,,,,,,,,,,,,,,,,,,,,,,,,,2024-06-25_16h01.43.362,HideSeek_v1,2023.1.3,60.3110481952949,
,0,1,0,5,0,4,65,,train_dim1_1,2,4,2,0,2,0,,,,,,,,,6,0,6,0,0,1,1,1,2,0,2,0,,,,,,,,,,,,,,,,,,,,,,,,,,,,,,,,,,,,,,,,,,,,,,,,,,,,,,4,,,,,,,,281.9414599998854,281.9414599998854,281.9414599998854,281.9414599998854,281.9414599998854,up,0.3606203000526875,1,0,99,-0.16,-0.07999999999999997,up,0.275982900056988,None,,,,,,,,,,,,,,,,,,,,,,,,,,,,,,,,,,,,2024-06-25_16h01.43.362,HideSeek_v1,2023.1.3,60.3110481952949,
,0,1,0,5,0,4,65,,train_dim1_1,2,4,2,0,2,0,,,,,,,,,6,0,6,0,0,1,1,1,3,0,3,0,,,,,,,,,,,,,,,,,,,,,,,,,,,,,,,,,,,,,,,,,,,,,,,,,,,,,,4,,,,,,,,282.30940239992924,282.30940239992924,282.30940239992924,282.30940239992924,282.30940239992924,up,0.32769399997778237,1,0,99,-0.16,2.7755575615628914e-17,up,0.24039500020444393,None,,,,,,,,,,,,,,,,,,,,,,,,,,,,,,,,,,,,2024-06-25_16h01.43.362,HideSeek_v1,2023.1.3,60.3110481952949,
,0,1,0,5,0,4,65,,train_dim1_1,2,4,2,0,2,0,,,,,,,,,6,0,6,0,0,1,1,1,4,0,4,0,,,,,,,,,,,,,,,,,,,,,,,,,,,,,,,,,,,,,,,,,,,,,,,,,,,,,,4,,,,,,,,282.64335959986784,282.64335959986784,282.64335959986784,282.64335959986784,282.64335959986784,return,0.2608856000006199,2,0,1,-0.16,2.7755575615628914e-17,return,0.16655250010080636,None,120,0,-0.16,2.7755575615628914e-17,,,,,,,,,,,,,,,,,,,,,,,,,,,,,,,,2024-06-25_16h01.43.362,HideSeek_v1,2023.1.3,60.3110481952949,
,2,3,2,6,0,3,64,,train_dim1_1,3,4,2,0,2,0,,,,,,,,,6,0,6,0,0,2,2,2,0,0,0,0,,,,,,,,,,,,,stimuli/alien_stimuli/64.png,,,,,,,,,,,,,,,,,,,,,,,,,,,,,,,stimuli/alien_stimuli/65.png,65,0,2,,,,,,,4,,,,,,,,286.42574000009336,286.42574000009336,286.42574000009336,286.42574000009336,286.42574000009336,up,0.3915864999871701,2,0,99,0,-0.08,up,0.3122934002894908,None,,,,,284.87399940006435,286.42574000009336,-0.16,0,0.32,0.0,-0.16,-0.16,-0.16,-0.16,0,284.4746008000802,284.4746008000802,284.4746008000802,284.4746008000802,284.4746008000802,284.4746008000802,284.4746008000802,284.4746008000802,284.4572201000294,0.5177636998705566,return,0.36781630013138056,None,,,,,,,,2024-06-25_16h01.43.362,HideSeek_v1,2023.1.3,60.3110481952949,
,2,3,2,6,0,3,64,,train_dim1_1,3,4,2,0,2,0,,,,,,,,,6,0,6,0,0,2,2,2,1,0,1,0,,,,,,,,,,,,,,,,,,,,,,,,,,,,,,,,,,,,,,,,,,,,,,,,,,,,,,4,,,,,,,,286.8246186999604,286.8246186999604,286.8246186999604,286.8246186999604,286.8246186999604,up,0.34414239996112883,2,0,99,0,0.0,up,0.25934890005737543,None,,,,,,,,,,,,,,,,,,,,,,,,,,,,,,,,,,,,2024-06-25_16h01.43.362,HideSeek_v1,2023.1.3,60.3110481952949,
,2,3,2,6,0,3,64,,train_dim1_1,3,4,2,0,2,0,,,,,,,,,6,0,6,0,0,2,2,2,2,0,2,0,,,,,,,,,,,,,,,,,,,,,,,,,,,,,,,,,,,,,,,,,,,,,,,,,,,,,,4,,,,,,,,287.1767162999604,287.1767162999604,287.1767162999604,287.1767162999604,287.1767162999604,up,0.2772877998650074,2,0,99,0,0.08,up,0.1898340000770986,None,,,,,,,,,,,,,,,,,,,,,,,,,,,,,,,,,,,,2024-06-25_16h01.43.362,HideSeek_v1,2023.1.3,60.3110481952949,
,2,3,2,6,0,3,64,,train_dim1_1,3,4,2,0,2,0,,,,,,,,,6,0,6,0,0,2,2,2,3,0,3,0,,,,,,,,,,,,,,,,,,,,,,,,,,,,,,,,,,,,,,,,,,,,,,,,,,,,,,4,,,,,,,,287.4590034999419,287.4590034999419,287.4590034999419,287.4590034999419,287.4590034999419,return,0.31088950019329786,3,0,1,0,0.08,return,0.2207479001954198,None,123,0,0,0.08,,,,,,,,,,,,,,,,,,,,,,,,,,,,,,,,2024-06-25_16h01.43.362,HideSeek_v1,2023.1.3,60.3110481952949,
,,,,,,,,,,,,,,,,,,,,,,,,,,,,,,,,,,,,,,,,,,,,,,,,stimuli/alien_stimuli/66.png,,,,,,,,,,,,,,,,,,,,,,,,,,,,,,,stimuli/alien_stimuli/64.png,64,2,3,,,,,,,,,,,,,,,291.47570730000734,291.47570730000734,291.47570730000734,291.47570730000734,291.47570730000734,,,,,1,,,,,,,,,,289.923549399944,291.47570730000734,0,0.08,0.24,0.0,-0.04,0,0.0,0,0.08,289.3402164999861,289.3402164999861,289.3402164999861,289.3402164999861,289.3402164999861,289.3402164999861,289.3402164999861,289.3402164999861,289.32310100009204,0.702878599986434,return,0.5648847001139075,None,,,,,,,,,,,,
