trialInstr,x_fixStart,y_fixStart,x_corrSteps,y_corrSteps,x_nrSteps,y_nrSteps,alienID,trialLength,version,trialTrain,praclen,beforeExpLoop.thisRepN,beforeExpLoop.thisTrialN,beforeExpLoop.thisN,beforeExpLoop.thisIndex,mini_instr_trials.thisRepN,mini_instr_trials.thisTrialN,mini_instr_trials.thisN,mini_instr_trials.thisIndex,instrLoop.thisRepN,instrLoop.thisTrialN,instrLoop.thisN,instrLoop.thisIndex,repeat_prac.thisRepN,repeat_prac.thisTrialN,repeat_prac.thisN,repeat_prac.thisIndex,trainLoop.thisRepN,trainLoop.thisTrialN,trainLoop.thisN,trainLoop.thisIndex,moveLoop_train.thisRepN,moveLoop_train.thisTrialN,moveLoop_train.thisN,moveLoop_train.thisIndex,start_all_time,url,slideStim,audioStim,slides.started,sounds.started,nextButton.numClicks,nextButton.timesOn,nextButton.timesOff,prev_but.numClicks,prev_but.timesOn,prev_but.timesOff,alienStim,instrFile,alienStim_instr,gridImage_instr.started,startPos_3.started,key_instr.started,alienImage_3.started,sounds_1.started,key_instr.keys,key_instr.rt,key_instr.duration,all_x,all_y,FBy_corrSteps,FBy_fixStart,FBx_corrSteps,FBx_fixStart,FBy_pathSize_check,FBx_pathSize_check,gridImage_9.started,alienImageFB_3.started,startPosFB_3.started,keyFB_3.started,pathLine_ydir_2.started,pathLine_xdir_2.started,alienFace_3.started,sounds_2.started,RTFB_instr,keyFB_3.keys,keyFB_3.rt,keyFB_3.duration,draw_alienStim,draw_alienID,test_x,nrepcount,perfthres,percthres,earlierperf,earlystop,nextPrac,fileidx,praclen,saveACC_train,pracFile,nextPrac_train,addNrep,fileidx_endr,repExp,showearly,gridImage_4.started,startPos.started,movePos.started,key_resp.started,alienImage.started,buttonPress_train,RTchoice_train,cumAcctrain,saveACC_choice,corrAns,x_movePos_end,y_movePos_end,key_resp.keys,key_resp.rt,key_resp.duration,wLy_dir,wLx_dir,x_movePos,y_movePos,text_2.started,text_2.stopped,aft_x_corrPos,aft_y_corrPos,y_pathSize_check,x_pathSize_check,y_pathdirY,x_pathdirY,x_pathdirX,x_corrPos,y_corrPos,gridImage_6.started,alienImageFB_2.started,startPosFB_2.started,movePosFB_2.started,keyFB_2.started,pathLine_xdir.started,pathLine_ydir.started,alienFace.started,sounds_4.started,RT_FBtrain,keyFB_2.keys,keyFB_2.rt,keyFB_2.duration,saveACC_pre,ACC,within_saveACC_train,earlystop_wloop,cumAcctrain_check,participant,study_id,session_id,date,expName,psychopyVersion,frameRate,
,,,,,,,,,,,,0,0,0,0,0,0,0,0,,,,,,,,,,,,,,,,,start_all_time,testround,stimuli/instructions/Slide1.png,stimuli/instructions/Audio1.wav,13.437720000045374,13.325159411760978,1,[4.145830199820921],[4.1458344999700785],0,,,,,,,,,,,,,,,,,,,,,,,,,,,,,,,,,,,,,,,,,,,,,,,,,,,,,,,,,,,,,,,,,,,,,,,,,,,,,,,,,,,,,,,,,,,,,,,,,,,,,,,2024-07-01_13h50.23.308,HideSeek_v1,2023.1.3,59.88529565393414,
,,,,,,,,,,,,0,0,0,0,1,0,1,0,,,,,,,,,,,,,,,,,,,stimuli/instructions/Slide2.png,stimuli/instructions/Audio2.wav,17.60451230010949,17.57613613002468,1,[0.8074809999670833],[0.8074841999914497],0,,,,,,,,,,,,,,,,,,,,,,,,,,,,,,,,,,,,,,,,,,,,,,,,,,,,,,,,,,,,,,,,,,,,,,,,,,,,,,,,,,,,,,,,,,,,,,,,,,,,,,,2024-07-01_13h50.23.308,HideSeek_v1,2023.1.3,59.88529565393414,
,,,,,,,,,,,,0,0,0,0,2,0,2,0,,,,,,,,,,,,,,,,,,,stimuli/instructions/Slide3.png,stimuli/instructions/Audio3.wav,18.559688300127164,18.540861600078642,1,[0.5725187000352889],[0.572524500079453],0,,,,,,,,,,,,,,,,,,,,,,,,,,,,,,,,,,,,,,,,,,,,,,,,,,,,,,,,,,,,,,,,,,,,,,,,,,,,,,,,,,,,,,,,,,,,,,,,,,,,,,,2024-07-01_13h50.23.308,HideSeek_v1,2023.1.3,59.88529565393414,
,,,,,,,,,,,,0,0,0,0,3,0,3,0,,,,,,,,,,,,,,,,,,,stimuli/instructions/Slide4.png,stimuli/instructions/Audio4.wav,19.26466550002806,19.258954710210674,1,[0.4517028999980539],[0.45170669979415834],0,,,,,,,,,,,,,,,,,,,,,,,,,,,,,,,,,,,,,,,,,,,,,,,,,,,,,,,,,,,,,,,,,,,,,,,,,,,,,,,,,,,,,,,,,,,,,,,,,,,,,,,2024-07-01_13h50.23.308,HideSeek_v1,2023.1.3,59.88529565393414,
,,,,,,,,,,,,0,0,0,0,4,0,4,0,,,,,,,,,,,,,,,,,,,stimuli/instructions/Slide5.png,stimuli/instructions/Audio5.wav,19.827234500087798,19.80991013010498,1,[0.3908426999114454],[0.3908478000666946],0,,,,,,,,,,,,,,,,,,,,,,,,,,,,,,,,,,,,,,,,,,,,,,,,,,,,,,,,,,,,,,,,,,,,,,,,,,,,,,,,,,,,,,,,,,,,,,,,,,,,,,,2024-07-01_13h50.23.308,HideSeek_v1,2023.1.3,59.88529565393414,
,,,,,,,,,,,,0,0,0,0,5,0,5,0,,,,,,,,,,,,,,,,,,,stimuli/instructions/Slide6.png,stimuli/instructions/Audio6.wav,20.27891490003094,20.259009059984237,1,[0.32445600000210106],[0.3244601998012513],0,,,,,,,,,,,,,,,,,,,,,,,,,,,,,,,,,,,,,,,,,,,,,,,,,,,,,,,,,,,,,,,,,,,,,,,,,,,,,,,,,,,,,,,,,,,,,,,,,,,,,,,2024-07-01_13h50.23.308,HideSeek_v1,2023.1.3,59.88529565393414,
,,,,,,,,,,,,0,0,0,0,6,0,6,0,,,,,,,,,,,,,,,,,,,stimuli/instructions/Slide7.png,stimuli/instructions/Audio7.wav,20.659509800141677,20.643695860169828,1,[0.3383406999055296],[0.3383448999375105],0,,,,,,,,,,,,,,,,,,,,,,,,,,,,,,,,,,,,,,,,,,,,,,,,,,,,,,,,,,,,,,,,,,,,,,,,,,,,,,,,,,,,,,,,,,,,,,,,,,,,,,,2024-07-01_13h50.23.308,HideSeek_v1,2023.1.3,59.88529565393414,
,,,,,,,,,,,,0,0,0,0,7,0,7,0,,,,,,,,,,,,,,,,,,,stimuli/instructions/Slide8.png,stimuli/instructions/Audio8.wav,21.093414600007236,21.07824524003081,1,[0.3248260000254959],[0.32483040005899966],0,,,,,,,,,,,,,,,,,,,,,,,,,,,,,,,,,,,,,,,,,,,,,,,,,,,,,,,,,,,,,,,,,,,,,,,,,,,,,,,,,,,,,,,,,,,,,,,,,,,,,,,2024-07-01_13h50.23.308,HideSeek_v1,2023.1.3,59.88529565393414,
,,,,,,,,,,,,0,0,0,0,8,0,8,0,,,,,,,,,,,,,,,,,,,stimuli/instructions/Slide9.png,stimuli/instructions/Audio9.wav,21.494444400072098,21.475844850181602,1,[0.3571367000695318],[0.3571405000984669],0,,,,,,,,,,,,,,,,,,,,,,,,,,,,,,,,,,,,,,,,,,,,,,,,,,,,,,,,,,,,,,,,,,,,,,,,,,,,,,,,,,,,,,,,,,,,,,,,,,,,,,,2024-07-01_13h50.23.308,HideSeek_v1,2023.1.3,59.88529565393414,
,,,,,,,,,,,,0,0,0,0,9,0,9,0,,,,,,,,,,,,,,,,,,,stimuli/instructions/Slide10.png,stimuli/instructions/Audio10.wav,21.910751899937168,21.909775150124915,1,[0.6510871001519263],[0.6510916000697762],0,,,,,,,,,,,,,,,,,,,,,,,,,,,,,,,,,,,,,,,,,,,,,,,,,,,,,,,,,,,,,,,,,,,,,,,,,,,,,,,,,,,,,,,,,,,,,,,,,,,,,,,2024-07-01_13h50.23.308,HideSeek_v1,2023.1.3,59.88529565393414,
,,,,,,,,,,,,0,0,0,0,10,0,10,0,,,,,,,,,,,,,,,,,,,stimuli/instructions/Slide11.png,stimuli/instructions/Audio11.wav,22.66034570010379,22.642406339989975,1,[0.5253473001066595],[0.5253505001310259],0,,,,,,,,,,,,,,,,,,,,,,,,,,,,,,,,,,,,,,,,,,,,,,,,,,,,,,,,,,,,,,,,,,,,,,,,,,,,,,,,,,,,,,,,,,,,,,,,,,,,,,,2024-07-01_13h50.23.308,HideSeek_v1,2023.1.3,59.88529565393414,
,,,,,,,,,,,,0,0,0,0,11,0,11,0,,,,,,,,,,,,,,,,,,,stimuli/instructions/Slide12.png,stimuli/instructions/Audio12.wav,23.27936360007152,23.25860013999045,1,[0.5027717999182642],[0.5027769999578595],0,,,,,,,,,,,,,,,,,,,,,,,,,,,,,,,,,,,,,,,,,,,,,,,,,,,,,,,,,,,,,,,,,,,,,,,,,,,,,,,,,,,,,,,,,,,,,,,,,,,,,,,2024-07-01_13h50.23.308,HideSeek_v1,2023.1.3,59.88529565393414,
1,0,3,0,8,0,5,66,2,instr_dim1_1,,,0,0,0,0,,,,,0,0,0,0,,,,,,,,,,,,,,,,,,,,,,,,,stimuli/alien_stimuli/66.png,conditions/inputInstr_1.xlsx,stimuli/alien_stimuli/66.png,23.911330600036308,23.911330600036308,23.911330600036308,23.911330600036308,23.89158832002431,return,1.692962700035423,None,"[-0.16, -0.08, 0, 0.08, 0.16, 0.24, 0.32, 0.4, 0.48, 0.56]","[-0.4, -0.32, -0.24, -0.16, -0.08, 0, 0.08, 0.16, 0.24, 0.32]",8,3,0,0,0.4,0.0,25.794181500095874,25.794181500095874,25.794181500095874,25.794181500095874,25.794181500095874,25.794181500095874,25.794181500095874,25.741467820014805,0.417401900049299,return,0.23100759997032583,None,stimuli/alien_stimuli/66.png,66,0,1,,,,,,,,,,,,,,,,,,,,,,,,,,,,,,,,,,,,,,,,,,,,,,,,,,,,,,,,,,,,,,,,,,2024-07-01_13h50.23.308,HideSeek_v1,2023.1.3,59.88529565393414,
,,,,,,,,,,,24,0,0,0,0,,,,,,,,,,,,,,,,,,,,,,,,,,,,,,,,,,,,,,,,,,,,,,,,,,,,,,,,,,,,,,,,,,,,17,0.7,0,0,99,1,24,0,conditions/inputTrain_1.1.xlsx,99,1,1,1,0,,,,,,,,,,,,,,,,,,,,,,,,,,,,,,,,,,,,,,,,,,,,,,,,,,,,2024-07-01_13h50.23.308,HideSeek_v1,2023.1.3,59.88529565393414,
,,,,,,,,,,,,1,0,1,0,0,0,0,0,,,,,,,,,,,,,,,,,,,stimuli/instructions/Slide13.png,stimuli/instructions/Audio13.wav,26.27671830006875,26.25664966017939,1,[0.923555500106886],[0.9235613001510501],0,,,,,,,,,,,,,,,,,,,,,,,,,,,,,,,,,,,,,,,,,,,,,,,,,,,,,,,,,,,,,,,,,,,,,,,,,,,,,,,,,,,,,,,,,,,,,,,,,,,,,,,2024-07-01_13h50.23.308,HideSeek_v1,2023.1.3,59.88529565393414,
,,,,,,,,,,,,1,0,1,0,1,0,1,0,,,,,,,,,,,,,,,,,,,stimuli/instructions/Slide14.png,stimuli/instructions/Audio14.wav,27.293527700006962,27.274805939989164,1,[0.5596195000689477],[0.5596245001070201],0,,,,,,,,,,,,,,,,,,,,,,,,,,,,,,,,,,,,,,,,,,,,,,,,,,,,,,,,,,,,,,,,,,,,,,,,,,,,,,,,,,,,,,,,,,,,,,,,,,,,,,,2024-07-01_13h50.23.308,HideSeek_v1,2023.1.3,59.88529565393414,
2,2,3,2,3,0,0,61,2,instr_dim1_1,,,1,0,1,0,,,,,0,0,0,0,,,,,,,,,,,,,,,,,,,,,,,,,stimuli/alien_stimuli/61.png,conditions/inputInstr_1.xlsx,stimuli/alien_stimuli/61.png,27.927114699967206,27.927114699967206,27.927114699967206,27.927114699967206,27.92566984007135,return,0.7676390998531133,None,"[-0.16, -0.08, 0, 0.08, 0.16, 0.24, 0.32, 0.4, 0.48, 0.56]","[-0.4, -0.32, -0.24, -0.16, -0.08, 0, 0.08, 0.16, 0.24, 0.32]",3,3,2,2,0.0,0.0,28.8754867000971,28.8754867000971,28.8754867000971,28.8754867000971,28.8754867000971,28.8754867000971,28.8754867000971,28.841285420116037,0.401076199952513,return,0.22471739980392158,None,stimuli/alien_stimuli/61.png,61,2,2,,,,,,,,,,,,,,,,,,,,,,,,,,,,,,,,,,,,,,,,,,,,,,,,,,,,,,,,,,,,,,,,,,2024-07-01_13h50.23.308,HideSeek_v1,2023.1.3,59.88529565393414,
,,,,,,,,,,,24,1,0,1,0,,,,,,,,,,,,,,,,,,,,,,,,,,,,,,,,,,,,,,,,,,,,,,,,,,,,,,,,,,,,,,,,,,,,17,0.7,0,0,99,1,24,0,conditions/inputTrain_1.1.xlsx,99,1,1,1,0,,,,,,,,,,,,,,,,,,,,,,,,,,,,,,,,,,,,,,,,,,,,,,,,,,,,2024-07-01_13h50.23.308,HideSeek_v1,2023.1.3,59.88529565393414,
,,,,,,,,,,,,2,0,2,0,0,0,0,0,,,,,,,,,,,,,,,,,,,stimuli/instructions/Slide15.png,stimuli/instructions/Audio15.wav,29.356692400062457,29.323847370105796,1,[0.6402867999859154],[0.6402918000239879],0,,,,,,,,,,,,,,,,,,,,,,,,,,,,,,,,,,,,,,,,,,,,,,,,,,,,,,,,,,,,,,,,,,,,,,,,,,,,,,,,,,,,,,,,,,,,,,,,,,,,,,,2024-07-01_13h50.23.308,HideSeek_v1,2023.1.3,59.88529565393414,
,,,,,,,,,,,,2,0,2,0,1,0,1,0,,,,,,,,,,,,,,,,,,,stimuli/instructions/Slide16.png,stimuli/instructions/Audio16.wav,30.093551200116053,30.07620702998247,1,[0.4765244999434799],[0.47652860009111464],0,,,,,,,,,,,,,,,,,,,,,,,,,,,,,,,,,,,,,,,,,,,,,,,,,,,,,,,,,,,,,,,,,,,,,,,,,,,,,,,,,,,,,,,,,,,,,,,,,,,,,,,2024-07-01_13h50.23.308,HideSeek_v1,2023.1.3,59.88529565393414,
,2,0,2,1,0,1,62,,train_dim1_1,1,24,2,0,2,0,,,,,,,,,0,0,0,0,0,0,0,0,0,0,0,0,,,,,,,,,,,,,stimuli/alien_stimuli/62.png,,,,,,,,,,,,,,,,,,,,,,,,,,,,,,,,,,,,,,,,,24,,,,,,,,30.670981999952346,30.670981999952346,30.670981999952346,30.670981999952346,30.670981999952346,up,1.371898700017482,0,0,99,0,-0.32,up,1.2426648999098688,None,,,,,,,,,,,,,,,,,,,,,,,,,,,,,,,,,,,,,2024-07-01_13h50.23.308,HideSeek_v1,2023.1.3,59.88529565393414,
,2,0,2,1,0,1,62,,train_dim1_1,1,24,2,0,2,0,,,,,,,,,0,0,0,0,0,0,0,0,1,0,1,0,,,,,,,,,,,,,,,,,,,,,,,,,,,,,,,,,,,,,,,,,,,,,,,,,,,,,,24,,,,,,,,32.04378299997188,32.04378299997188,32.04378299997188,32.04378299997188,32.04378299997188,return,0.34394660010002553,1,0,1,0,-0.32,return,0.23216290003620088,None,1,0,0,-0.32,,,,,,,,,,,,,,,,,,,,,,,,,,,,,,,,,2024-07-01_13h50.23.308,HideSeek_v1,2023.1.3,59.88529565393414,
,2,2,2,5,0,3,64,,train_dim1_1,2,24,2,0,2,0,,,,,,,,,0,0,0,0,0,1,1,1,0,0,0,0,,,,,,,,,,,,,stimuli/alien_stimuli/64.png,,,,,,,,,,,,,,,,,,,,,,,,,,,,,,,stimuli/alien_stimuli/62.png,62,2,3,,,,,,,24,,,,,,,,35.993477100040764,35.993477100040764,35.993477100040764,35.993477100040764,35.993477100040764,up,0.9234666000120342,1,0,99,0,-0.15999999999999998,up,0.8015320000704378,None,,,,,34.410276900045574,35.993477100040764,0,-0.32,0.08,0.0,-0.36,0,0.0,0,-0.32,34.02892990014516,34.02892990014516,34.02892990014516,34.02892990014516,34.02892990014516,34.02892990014516,34.02892990014516,34.02892990014516,33.924318220000714,0.60281280009076,return,0.3508292001206428,None,,,,,,,,,2024-07-01_13h50.23.308,HideSeek_v1,2023.1.3,59.88529565393414,
,2,2,2,5,0,3,64,,train_dim1_1,2,24,2,0,2,0,,,,,,,,,0,0,0,0,0,1,1,1,1,0,1,0,,,,,,,,,,,,,,,,,,,,,,,,,,,,,,,,,,,,,,,,,,,,,,,,,,,,,,24,,,,,,,,36.943148700054735,36.943148700054735,36.943148700054735,36.943148700054735,36.943148700054735,up,0.7768041000235826,1,0,99,0,-0.07999999999999997,up,0.646055799908936,None,,,,,,,,,,,,,,,,,,,,,,,,,,,,,,,,,,,,,2024-07-01_13h50.23.308,HideSeek_v1,2023.1.3,59.88529565393414,
,2,2,2,5,0,3,64,,train_dim1_1,2,24,2,0,2,0,,,,,,,,,0,0,0,0,0,1,1,1,2,0,2,0,,,,,,,,,,,,,,,,,,,,,,,,,,,,,,,,,,,,,,,,,,,,,,,,,,,,,,24,,,,,,,,37.69631660007872,37.69631660007872,37.69631660007872,37.69631660007872,37.69631660007872,up,0.393707700073719,1,0,99,0,2.7755575615628914e-17,up,0.28861439996398985,None,,,,,,,,,,,,,,,,,,,,,,,,,,,,,,,,,,,,,2024-07-01_13h50.23.308,HideSeek_v1,2023.1.3,59.88529565393414,
,2,2,2,5,0,3,64,,train_dim1_1,2,24,2,0,2,0,,,,,,,,,0,0,0,0,0,1,1,1,3,0,3,0,,,,,,,,,,,,,,,,,,,,,,,,,,,,,,,,,,,,,,,,,,,,,,,,,,,,,,24,,,,,,,,38.09226580010727,38.09226580010727,38.09226580010727,38.09226580010727,38.09226580010727,return,0.4611106999218464,2,0,1,0,2.7755575615628914e-17,return,0.36188800004310906,None,4,0,0,2.7755575615628914e-17,,,,,,,,,,,,,,,,,,,,,,,,,,,,,,,,,2024-07-01_13h50.23.308,HideSeek_v1,2023.1.3,59.88529565393414,
,3,3,3,8,0,5,66,,train_dim1_1,3,24,2,0,2,0,,,,,,,,,0,0,0,0,0,2,2,2,0,0,0,0,,,,,,,,,,,,,stimuli/alien_stimuli/66.png,,,,,,,,,,,,,,,,,,,,,,,,,,,,,,,stimuli/alien_stimuli/64.png,64,2,4,,,,,,,24,,,,,,,,42.28480720007792,42.28480720007792,42.28480720007792,42.28480720007792,42.28480720007792,up,1.9069817999843508,2,0,99,0.08,-0.08,up,1.7948234998621047,None,,,,,40.71030539995991,42.28480720007792,0,0,0.24,0.0,-0.12,0,0.0,0,0,40.126574099995196,40.126574099995196,40.126574099995196,40.126574099995196,40.126574099995196,40.126574099995196,40.126574099995196,40.126574099995196,40.107876220019534,0.7190920999273658,return,0.5638387999497354,None,,,,,,,,,2024-07-01_13h50.23.308,HideSeek_v1,2023.1.3,59.88529565393414,
,3,3,3,8,0,5,66,,train_dim1_1,3,24,2,0,2,0,,,,,,,,,0,0,0,0,0,2,2,2,1,0,1,0,,,,,,,,,,,,,,,,,,,,,,,,,,,,,,,,,,,,,,,,,,,,,,,,,,,,,,24,,,,,,,,44.19434739998542,44.19434739998542,44.19434739998542,44.19434739998542,44.19434739998542,up,0.32707030000165105,2,0,99,0.08,0.0,up,0.22970260004512966,None,,,,,,,,,,,,,,,,,,,,,,,,,,,,,,,,,,,,,2024-07-01_13h50.23.308,HideSeek_v1,2023.1.3,59.88529565393414,
,3,3,3,8,0,5,66,,train_dim1_1,3,24,2,0,2,0,,,,,,,,,0,0,0,0,0,2,2,2,2,0,2,0,,,,,,,,,,,,,,,,,,,,,,,,,,,,,,,,,,,,,,,,,,,,,,,,,,,,,,24,,,,,,,,44.525827599922195,44.525827599922195,44.525827599922195,44.525827599922195,44.525827599922195,up,0.32660600007511675,2,0,99,0.08,0.08,up,0.22474770015105605,None,,,,,,,,,,,,,,,,,,,,,,,,,,,,,,,,,,,,,2024-07-01_13h50.23.308,HideSeek_v1,2023.1.3,59.88529565393414,
,3,3,3,8,0,5,66,,train_dim1_1,3,24,2,0,2,0,,,,,,,,,0,0,0,0,0,2,2,2,3,0,3,0,,,,,,,,,,,,,,,,,,,,,,,,,,,,,,,,,,,,,,,,,,,,,,,,,,,,,,24,,,,,,,,44.86100749997422,44.86100749997422,44.86100749997422,44.86100749997422,44.86100749997422,up,0.27704189997166395,2,0,99,0.08,0.16,up,0.17488539987243712,None,,,,,,,,,,,,,,,,,,,,,,,,,,,,,,,,,,,,,2024-07-01_13h50.23.308,HideSeek_v1,2023.1.3,59.88529565393414,
,3,3,3,8,0,5,66,,train_dim1_1,3,24,2,0,2,0,,,,,,,,,0,0,0,0,0,2,2,2,4,0,4,0,,,,,,,,,,,,,,,,,,,,,,,,,,,,,,,,,,,,,,,,,,,,,,,,,,,,,,24,,,,,,,,45.14703550003469,45.14703550003469,45.14703550003469,45.14703550003469,45.14703550003469,up,0.24411630001850426,2,0,99,0.08,0.24,up,0.1400462999008596,None,,,,,,,,,,,,,,,,,,,,,,,,,,,,,,,,,,,,,2024-07-01_13h50.23.308,HideSeek_v1,2023.1.3,59.88529565393414,
,3,3,3,8,0,5,66,,train_dim1_1,3,24,2,0,2,0,,,,,,,,,0,0,0,0,0,2,2,2,5,0,5,0,,,,,,,,,,,,,,,,,,,,,,,,,,,,,,,,,,,,,,,,,,,,,,,,,,,,,,24,,,,,,,,45.39335940009914,45.39335940009914,45.39335940009914,45.39335940009914,45.39335940009914,return,0.3273238001856953,3,0,1,0.08,0.24,return,0.21292690001428127,None,9,0,0.08,0.24,,,,,,,,,,,,,,,,,,,,,,,,,,,,,,,,,2024-07-01_13h50.23.308,HideSeek_v1,2023.1.3,59.88529565393414,
,4,4,4,8,0,4,65,,train_dim1_1,4,24,2,0,2,0,,,,,,,,,0,0,0,0,0,3,3,3,0,0,0,0,,,,,,,,,,,,,stimuli/alien_stimuli/65.png,,,,,,,,,,,,,,,,,,,,,,,,,,,,,,,stimuli/alien_stimuli/66.png,66,3,5,,,,,,,24,,,,,,,,49.509722700109705,49.509722700109705,49.509722700109705,49.509722700109705,49.509722700109705,up,1.0584948998875916,3,0,99,0.16,0.0,up,0.9627392999827862,None,,,,,47.94331740005873,49.509722700109705,0.08,0.24,0.4,0.0,0.039999999999999994,0.08,0.08,0.08,0.24,47.31022100010887,47.31022100010887,47.31022100010887,47.31022100010887,47.31022100010887,47.31022100010887,47.31022100010887,47.31022100010887,47.274696330190636,0.7689476998057216,return,0.6046074000187218,None,,,,,,,,,2024-07-01_13h50.23.308,HideSeek_v1,2023.1.3,59.88529565393414,
,4,4,4,8,0,4,65,,train_dim1_1,4,24,2,0,2,0,,,,,,,,,0,0,0,0,0,3,3,3,1,0,1,0,,,,,,,,,,,,,,,,,,,,,,,,,,,,,,,,,,,,,,,,,,,,,,,,,,,,,,24,,,,,,,,50.57753270003013,50.57753270003013,50.57753270003013,50.57753270003013,50.57753270003013,up,0.259525999892503,3,0,99,0.16,0.08,up,0.15021609980612993,None,,,,,,,,,,,,,,,,,,,,,,,,,,,,,,,,,,,,,2024-07-01_13h50.23.308,HideSeek_v1,2023.1.3,59.88529565393414,
,4,4,4,8,0,4,65,,train_dim1_1,4,24,2,0,2,0,,,,,,,,,0,0,0,0,0,3,3,3,2,0,2,0,,,,,,,,,,,,,,,,,,,,,,,,,,,,,,,,,,,,,,,,,,,,,,,,,,,,,,24,,,,,,,,50.843207200057805,50.843207200057805,50.843207200057805,50.843207200057805,50.843207200057805,up,0.2446371999103576,3,0,99,0.16,0.16,up,0.1400415999814868,None,,,,,,,,,,,,,,,,,,,,,,,,,,,,,,,,,,,,,2024-07-01_13h50.23.308,HideSeek_v1,2023.1.3,59.88529565393414,
,4,4,4,8,0,4,65,,train_dim1_1,4,24,2,0,2,0,,,,,,,,,0,0,0,0,0,3,3,3,3,0,3,0,,,,,,,,,,,,,,,,,,,,,,,,,,,,,,,,,,,,,,,,,,,,,,,,,,,,,,24,,,,,,,,51.09330300008878,51.09330300008878,51.09330300008878,51.09330300008878,51.09330300008878,up,0.2427463000640273,3,0,99,0.16,0.24,up,0.13814850011840463,None,,,,,,,,,,,,,,,,,,,,,,,,,,,,,,,,,,,,,2024-07-01_13h50.23.308,HideSeek_v1,2023.1.3,59.88529565393414,
,4,4,4,8,0,4,65,,train_dim1_1,4,24,2,0,2,0,,,,,,,,,0,0,0,0,0,3,3,3,4,0,4,0,,,,,,,,,,,,,,,,,,,,,,,,,,,,,,,,,,,,,,,,,,,,,,,,,,,,,,24,,,,,,,,51.34310319996439,51.34310319996439,51.34310319996439,51.34310319996439,51.34310319996439,return,0.39370120014064014,4,0,1,0.16,0.24,return,0.29866799991577864,None,13,0,0.16,0.24,,,,,,,,,,,,,,,,,,,,,,,,,,,,,,,,,2024-07-01_13h50.23.308,HideSeek_v1,2023.1.3,59.88529565393414,
,3,4,3,5,0,1,62,,train_dim1_1,5,24,2,0,2,0,,,,,,,,,0,0,0,0,0,4,4,4,0,0,0,0,,,,,,,,,,,,,stimuli/alien_stimuli/62.png,,,,,,,,,,,,,,,,,,,,,,,,,,,,,,,stimuli/alien_stimuli/65.png,65,4,6,,,,,,,24,,,,,,,,55.6103640999645,55.6103640999645,55.6103640999645,55.6103640999645,55.6103640999645,up,0.7246521001216024,4,0,99,0.08,0.0,up,0.6300864000804722,None,,,,,54.04328240011819,55.6103640999645,0.16,0.24,0.32,0.0,0.07999999999999999,0.16,0.16,0.16,0.24,53.297936599934474,53.297936599934474,53.297936599934474,53.297936599934474,53.297936599934474,53.297936599934474,53.297936599934474,53.297936599934474,53.29127903014887,0.8537777999881655,return,0.7267507999204099,None,,,,,,,,,2024-07-01_13h50.23.308,HideSeek_v1,2023.1.3,59.88529565393414,
,3,4,3,5,0,1,62,,train_dim1_1,5,24,2,0,2,0,,,,,,,,,0,0,0,0,0,4,4,4,1,0,1,0,,,,,,,,,,,,,,,,,,,,,,,,,,,,,,,,,,,,,,,,,,,,,,,,,,,,,,24,,,,,,,,56.342950799968094,56.342950799968094,56.342950799968094,56.342950799968094,56.342950799968094,up,0.34380299993790686,4,0,99,0.08,0.08,up,0.2474856001790613,None,,,,,,,,,,,,,,,,,,,,,,,,,,,,,,,,,,,,,2024-07-01_13h50.23.308,HideSeek_v1,2023.1.3,59.88529565393414,
,3,4,3,5,0,1,62,,train_dim1_1,5,24,2,0,2,0,,,,,,,,,0,0,0,0,0,4,4,4,2,0,2,0,,,,,,,,,,,,,,,,,,,,,,,,,,,,,,,,,,,,,,,,,,,,,,,,,,,,,,24,,,,,,,,56.70419490011409,56.70419490011409,56.70419490011409,56.70419490011409,56.70419490011409,up,0.3104401999153197,4,0,99,0.08,0.16,up,0.20578820002265275,None,,,,,,,,,,,,,,,,,,,,,,,,,,,,,,,,,,,,,2024-07-01_13h50.23.308,HideSeek_v1,2023.1.3,59.88529565393414,
,3,4,3,5,0,1,62,,train_dim1_1,5,24,2,0,2,0,,,,,,,,,0,0,0,0,0,4,4,4,3,0,3,0,,,,,,,,,,,,,,,,,,,,,,,,,,,,,,,,,,,,,,,,,,,,,,,,,,,,,,24,,,,,,,,57.00999099994078,57.00999099994078,57.00999099994078,57.00999099994078,57.00999099994078,down,0.5931120000313967,4,0,99,0.08,0.08,down,0.4838988999836147,None,,,,,,,,,,,,,,,,,,,,,,,,,,,,,,,,,,,,,2024-07-01_13h50.23.308,HideSeek_v1,2023.1.3,59.88529565393414,
,3,4,3,5,0,1,62,,train_dim1_1,5,24,2,0,2,0,,,,,,,,,0,0,0,0,0,4,4,4,4,0,4,0,,,,,,,,,,,,,,,,,,,,,,,,,,,,,,,,,,,,,,,,,,,,,,,,,,,,,,24,,,,,,,,57.59816480008885,57.59816480008885,57.59816480008885,57.59816480008885,57.59816480008885,down,0.243947499897331,4,0,99,0.08,0.0,down,0.14596630004234612,None,,,,,,,,,,,,,,,,,,,,,,,,,,,,,,,,,,,,,2024-07-01_13h50.23.308,HideSeek_v1,2023.1.3,59.88529565393414,
,3,4,3,5,0,1,62,,train_dim1_1,5,24,2,0,2,0,,,,,,,,,0,0,0,0,0,4,4,4,5,0,5,0,,,,,,,,,,,,,,,,,,,,,,,,,,,,,,,,,,,,,,,,,,,,,,,,,,,,,,24,,,,,,,,57.84617589996196,57.84617589996196,57.84617589996196,57.84617589996196,57.84617589996196,return,0.44434589985758066,5,0,1,0.08,0.0,return,0.3479283000342548,None,14,0,0.08,0.0,,,,,,,,,,,,,,,,,,,,,,,,,,,,,,,,,2024-07-01_13h50.23.308,HideSeek_v1,2023.1.3,59.88529565393414,
,4,0,4,4,0,4,65,,train_dim1_1,6,24,2,0,2,0,,,,,,,,,0,0,0,0,0,5,5,5,0,0,0,0,,,,,,,,,,,,,stimuli/alien_stimuli/65.png,,,,,,,,,,,,,,,,,,,,,,,,,,,,,,,stimuli/alien_stimuli/62.png,62,3,7,,,,,,,24,,,,,,,,62.50989290000871,62.50989290000871,62.50989290000871,62.50989290000871,62.50989290000871,up,1.057677699951455,5,0,99,0.16,-0.32,up,0.9580821997951716,None,,,,,60.94350209995173,,0.08,0,0.08,0.0,-0.04,0.08,0.08,0.08,0,59.862556600011885,59.862556600011885,59.862556600011885,59.862556600011885,59.862556600011885,59.862556600011885,59.862556600011885,59.862556600011885,59.84143404010683,1.1700816000811756,return,1.0187762998975813,None,,,,,,,,,2024-07-01_13h50.23.308,HideSeek_v1,2023.1.3,59.88529565393414,
,4,0,4,4,0,4,65,,train_dim1_1,6,24,2,0,2,0,,,,,,,,,0,0,0,0,0,5,5,5,1,0,1,0,,,,,,,,,,,,,,,,,,,,,,,,,,,,,,,,,,,,,,,,,,,,,,,,,,,,,,24,,,,,,,,63.57658370002173,63.57658370002173,63.57658370002173,63.57658370002173,63.57658370002173,up,0.34349399991333485,5,0,99,0.16,-0.24,up,0.25028529996052384,None,,,,,,,,,,,,,,,,,,,,,,,,,,,,,,,,,,,,,2024-07-01_13h50.23.308,HideSeek_v1,2023.1.3,59.88529565393414,
,4,0,4,4,0,4,65,,train_dim1_1,6,24,2,0,2,0,,,,,,,,,0,0,0,0,0,5,5,5,2,0,2,0,,,,,,,,,,,,,,,,,,,,,,,,,,,,,,,,,,,,,,,,,,,,,,,,,,,,,,24,,,,,,,,63.92638189997524,63.92638189997524,63.92638189997524,63.92638189997524,63.92638189997524,up,0.29349300009198487,5,0,99,0.16,-0.15999999999999998,up,0.19173610000871122,None,,,,,,,,,,,,,,,,,,,,,,,,,,,,,,,,,,,,,2024-07-01_13h50.23.308,HideSeek_v1,2023.1.3,59.88529565393414,
,4,0,4,4,0,4,65,,train_dim1_1,6,24,2,0,2,0,,,,,,,,,0,0,0,0,0,5,5,5,3,0,3,0,,,,,,,,,,,,,,,,,,,,,,,,,,,,,,,,,,,,,,,,,,,,,,,,,,,,,,24,,,,,,,,64.22635390004143,64.22635390004143,64.22635390004143,64.22635390004143,64.22635390004143,up,0.2748169999103993,5,0,99,0.16,-0.07999999999999997,up,0.17227160022594035,None,,,,,,,,,,,,,,,,,,,,,,,,,,,,,,,,,,,,,2024-07-01_13h50.23.308,HideSeek_v1,2023.1.3,59.88529565393414,
,4,0,4,4,0,4,65,,train_dim1_1,6,24,2,0,2,0,,,,,,,,,0,0,0,0,0,5,5,5,4,0,4,0,,,,,,,,,,,,,,,,,,,,,,,,,,,,,,,,,,,,,,,,,,,,,,,,,,,,,,24,,,,,,,,64.5098395999521,64.5098395999521,64.5098395999521,64.5098395999521,64.5098395999521,return,0.3948157001286745,6,0,1,0.16,-0.07999999999999997,return,0.2907514001708478,None,18,0,0.16,-0.07999999999999997,,,,,,,,,,,,,,,,,,,,,,,,,,,,,,,,,2024-07-01_13h50.23.308,HideSeek_v1,2023.1.3,59.88529565393414,
,0,3,0,6,0,3,64,,train_dim1_1,7,24,2,0,2,0,,,,,,,,,0,0,0,0,0,6,6,6,0,0,0,0,,,,,,,,,,,,,stimuli/alien_stimuli/64.png,,,,,,,,,,,,,,,,,,,,,,,,,,,,,,,stimuli/alien_stimuli/65.png,65,4,8,,,,,,,24,,,,,,,,68.57641490013339,68.57641490013339,68.57641490013339,68.57641490013339,68.57641490013339,up,0.473685699980706,6,0,99,-0.16,-0.08,up,0.3734530000947416,None,,,,,67.01304460014217,66.45949709997512,0.16,-0.08,0.32,0.0,-0.24000000000000002,0.16,0.16,0.16,-0.08,66.45949709997512,66.45949709997512,66.45949709997512,66.45949709997512,66.45949709997512,66.45949709997512,66.45949709997512,66.45949709997512,66.44163833011407,0.656257800059393,return,0.503262700047344,None,,,,,,,,,2024-07-01_13h50.23.308,HideSeek_v1,2023.1.3,59.88529565393414,
,0,3,0,6,0,3,64,,train_dim1_1,7,24,2,0,2,0,,,,,,,,,0,0,0,0,0,6,6,6,1,0,1,0,,,,,,,,,,,,,,,,,,,,,,,,,,,,,,,,,,,,,,,,,,,,,,,,,,,,,,24,,,,,,,,69.08253700006753,69.08253700006753,69.08253700006753,69.08253700006753,69.08253700006753,up,0.24317470006644726,6,0,99,-0.16,0.0,up,0.12536519998684525,None,,,,,,,,,,,,,,,,,,,,,,,,,,,,,,,,,,,,,2024-07-01_13h50.23.308,HideSeek_v1,2023.1.3,59.88529565393414,
,0,3,0,6,0,3,64,,train_dim1_1,7,24,2,0,2,0,,,,,,,,,0,0,0,0,0,6,6,6,2,0,2,0,,,,,,,,,,,,,,,,,,,,,,,,,,,,,,,,,,,,,,,,,,,,,,,,,,,,,,24,,,,,,,,69.31052980013192,69.31052980013192,69.31052980013192,69.31052980013192,69.31052980013192,up,0.19331280002370477,6,0,99,-0.16,0.08,up,0.09696689993143082,None,,,,,,,,,,,,,,,,,,,,,,,,,,,,,,,,,,,,,2024-07-01_13h50.23.308,HideSeek_v1,2023.1.3,59.88529565393414,
,0,3,0,6,0,3,64,,train_dim1_1,7,24,2,0,2,0,,,,,,,,,0,0,0,0,0,6,6,6,3,0,3,0,,,,,,,,,,,,,,,,,,,,,,,,,,,,,,,,,,,,,,,,,,,,,,,,,,,,,,24,,,,,,,,69.52728540007956,69.52728540007956,69.52728540007956,69.52728540007956,69.52728540007956,return,0.31023090006783605,7,0,1,-0.16,0.08,return,0.19960739999078214,None,21,0,-0.16,0.08,,,,,,,,,,,,,,,,,,,,,,,,,,,,,,,,,2024-07-01_13h50.23.308,HideSeek_v1,2023.1.3,59.88529565393414,
,4,1,4,6,0,5,66,,train_dim1_1,8,24,2,0,2,0,,,,,,,,,0,0,0,0,0,7,7,7,0,0,0,0,,,,,,,,,,,,,stimuli/alien_stimuli/66.png,,,,,,,,,,,,,,,,,,,,,,,,,,,,,,,stimuli/alien_stimuli/64.png,64,0,9,,,,,,,24,,,,,,,,73.82668830011971,73.82668830011971,73.82668830011971,73.82668830011971,73.82668830011971,up,0.8414321001619101,7,0,99,0.16,-0.24,up,0.7369453001301736,None,,,,,72.25963620003313,73.82668830011971,-0.16,0.08,0.24,0.0,-0.04,-0.16,-0.16,-0.16,0.08,71.44253930007108,71.44253930007108,71.44253930007108,71.44253930007108,71.44253930007108,71.44253930007108,71.44253930007108,71.44253930007108,71.42376589018386,1.0023215000983328,return,0.8013469001743942,None,,,,,,,,,2024-07-01_13h50.23.308,HideSeek_v1,2023.1.3,59.88529565393414,
,4,1,4,6,0,5,66,,train_dim1_1,8,24,2,0,2,0,,,,,,,,,0,0,0,0,0,7,7,7,1,0,1,0,,,,,,,,,,,,,,,,,,,,,,,,,,,,,,,,,,,,,,,,,,,,,,,,,,,,,,24,,,,,,,,74.67830380005762,74.67830380005762,74.67830380005762,74.67830380005762,74.67830380005762,up,0.22673050011508167,7,0,99,0.16,-0.15999999999999998,up,0.12895569996908307,None,,,,,,,,,,,,,,,,,,,,,,,,,,,,,,,,,,,,,2024-07-01_13h50.23.308,HideSeek_v1,2023.1.3,59.88529565393414,
,4,1,4,6,0,5,66,,train_dim1_1,8,24,2,0,2,0,,,,,,,,,0,0,0,0,0,7,7,7,2,0,2,0,,,,,,,,,,,,,,,,,,,,,,,,,,,,,,,,,,,,,,,,,,,,,,,,,,,,,,24,,,,,,,,74.90944069996476,74.90944069996476,74.90944069996476,74.90944069996476,74.90944069996476,up,0.22710469993762672,7,0,99,0.16,-0.07999999999999997,up,0.11967550008557737,None,,,,,,,,,,,,,,,,,,,,,,,,,,,,,,,,,,,,,2024-07-01_13h50.23.308,HideSeek_v1,2023.1.3,59.88529565393414,
,4,1,4,6,0,5,66,,train_dim1_1,8,24,2,0,2,0,,,,,,,,,0,0,0,0,0,7,7,7,3,0,3,0,,,,,,,,,,,,,,,,,,,,,,,,,,,,,,,,,,,,,,,,,,,,,,,,,,,,,,24,,,,,,,,75.14382080012001,75.14382080012001,75.14382080012001,75.14382080012001,75.14382080012001,up,0.22726549999788404,7,0,99,0.16,2.7755575615628914e-17,up,0.1109197000041604,None,,,,,,,,,,,,,,,,,,,,,,,,,,,,,,,,,,,,,2024-07-01_13h50.23.308,HideSeek_v1,2023.1.3,59.88529565393414,
,4,1,4,6,0,5,66,,train_dim1_1,8,24,2,0,2,0,,,,,,,,,0,0,0,0,0,7,7,7,4,0,4,0,,,,,,,,,,,,,,,,,,,,,,,,,,,,,,,,,,,,,,,,,,,,,,,,,,,,,,24,,,,,,,,75.39610500005074,75.39610500005074,75.39610500005074,75.39610500005074,75.39610500005074,up,0.22650990006513894,7,0,99,0.16,0.08000000000000003,up,0.10940169985406101,None,,,,,,,,,,,,,,,,,,,,,,,,,,,,,,,,,,,,,2024-07-01_13h50.23.308,HideSeek_v1,2023.1.3,59.88529565393414,
,4,1,4,6,0,5,66,,train_dim1_1,8,24,2,0,2,0,,,,,,,,,0,0,0,0,0,7,7,7,5,0,5,0,,,,,,,,,,,,,,,,,,,,,,,,,,,,,,,,,,,,,,,,,,,,,,,,,,,,,,24,,,,,,,,75.60923790000379,75.60923790000379,75.60923790000379,75.60923790000379,75.60923790000379,return,0.2934473999775946,8,0,1,0.16,0.08000000000000003,return,0.18904970004223287,None,26,0,0.16,0.08000000000000003,,,,,,,,,,,,,,,,,,,,,,,,,,,,,,,,,2024-07-01_13h50.23.308,HideSeek_v1,2023.1.3,59.88529565393414,
,1,3,1,6,0,3,64,,train_dim1_1,9,24,2,0,2,0,,,,,,,,,0,0,0,0,0,8,8,8,0,0,0,0,,,,,,,,,,,,,stimuli/alien_stimuli/64.png,,,,,,,,,,,,,,,,,,,,,,,,,,,,,,,stimuli/alien_stimuli/66.png,66,4,10,,,,,,,24,,,,,,,,79.63495899992995,79.63495899992995,79.63495899992995,79.63495899992995,79.63495899992995,up,0.4729273999109864,8,0,99,-0.08,-0.08,up,0.36821860005147755,None,,,,,78.05969920009375,79.63495899992995,0.16,0.08,0.4,0.0,-0.12,0.16,0.16,0.16,0.08,77.47728860005736,77.47728860005736,77.47728860005736,77.47728860005736,77.47728860005736,77.47728860005736,77.47728860005736,77.47728860005736,77.45757762016729,0.7183783000800759,return,0.5663393000140786,None,,,,,,,,,2024-07-01_13h50.23.308,HideSeek_v1,2023.1.3,59.88529565393414,
,1,3,1,6,0,3,64,,train_dim1_1,9,24,2,0,2,0,,,,,,,,,0,0,0,0,0,8,8,8,1,0,1,0,,,,,,,,,,,,,,,,,,,,,,,,,,,,,,,,,,,,,,,,,,,,,,,,,,,,,,24,,,,,,,,80.10911780013703,80.10911780013703,80.10911780013703,80.10911780013703,80.10911780013703,up,0.2782712001353502,8,0,99,-0.08,0.0,up,0.17362579982727766,None,,,,,,,,,,,,,,,,,,,,,,,,,,,,,,,,,,,,,2024-07-01_13h50.23.308,HideSeek_v1,2023.1.3,59.88529565393414,
,1,3,1,6,0,3,64,,train_dim1_1,9,24,2,0,2,0,,,,,,,,,0,0,0,0,0,8,8,8,2,0,2,0,,,,,,,,,,,,,,,,,,,,,,,,,,,,,,,,,,,,,,,,,,,,,,,,,,,,,,24,,,,,,,,80.39315790007822,80.39315790007822,80.39315790007822,80.39315790007822,80.39315790007822,up,0.20925000007264316,8,0,99,-0.08,0.08,up,0.11230640020221472,None,,,,,,,,,,,,,,,,,,,,,,,,,,,,,,,,,,,,,2024-07-01_13h50.23.308,HideSeek_v1,2023.1.3,59.88529565393414,
,1,3,1,6,0,3,64,,train_dim1_1,9,24,2,0,2,0,,,,,,,,,0,0,0,0,0,8,8,8,3,0,3,0,,,,,,,,,,,,,,,,,,,,,,,,,,,,,,,,,,,,,,,,,,,,,,,,,,,,,,24,,,,,,,,80.61150160012767,80.61150160012767,80.61150160012767,80.61150160012767,80.61150160012767,return,0.31071069999597967,9,0,1,-0.08,0.08,return,0.20398610015399754,None,29,0,-0.08,0.08,,,,,,,,,,,,,,,,,,,,,,,,,,,,,,,,,2024-07-01_13h50.23.308,HideSeek_v1,2023.1.3,59.88529565393414,
,0,0,0,4,0,4,65,,train_dim1_1,10,24,2,0,2,0,,,,,,,,,0,0,0,0,0,9,9,9,0,0,0,0,,,,,,,,,,,,,stimuli/alien_stimuli/65.png,,,,,,,,,,,,,,,,,,,,,,,,,,,,,,,stimuli/alien_stimuli/64.png,64,1,11,,,,,,,24,,,,,,,,84.91084169992246,84.91084169992246,84.91084169992246,84.91084169992246,84.91084169992246,up,0.5088208999950439,9,0,99,-0.16,-0.32,up,0.39964219997636974,None,,,,,83.32796750008129,82.48031929996796,-0.08,0.08,0.24,0.0,-0.04,-0.08,-0.08,-0.08,0.08,82.48031929996796,82.48031929996796,82.48031929996796,82.48031929996796,82.48031929996796,82.48031929996796,82.48031929996796,82.48031929996796,82.4741389201954,0.9687487999908626,return,0.8077487000264227,None,,,,,,,,,2024-07-01_13h50.23.308,HideSeek_v1,2023.1.3,59.88529565393414,
,0,0,0,4,0,4,65,,train_dim1_1,10,24,2,0,2,0,,,,,,,,,0,0,0,0,0,9,9,9,1,0,1,0,,,,,,,,,,,,,,,,,,,,,,,,,,,,,,,,,,,,,,,,,,,,,,,,,,,,,,24,,,,,,,,85.42715410003439,85.42715410003439,85.42715410003439,85.42715410003439,85.42715410003439,up,0.24322779988870025,9,0,99,-0.16,-0.24,up,0.14578649983741343,None,,,,,,,,,,,,,,,,,,,,,,,,,,,,,,,,,,,,,2024-07-01_13h50.23.308,HideSeek_v1,2023.1.3,59.88529565393414,
,0,0,0,4,0,4,65,,train_dim1_1,10,24,2,0,2,0,,,,,,,,,0,0,0,0,0,9,9,9,2,0,2,0,,,,,,,,,,,,,,,,,,,,,,,,,,,,,,,,,,,,,,,,,,,,,,,,,,,,,,24,,,,,,,,85.68615480000153,85.68615480000153,85.68615480000153,85.68615480000153,85.68615480000153,up,0.27705890010111034,9,0,99,-0.16,-0.15999999999999998,up,0.15757959987968206,None,,,,,,,,,,,,,,,,,,,,,,,,,,,,,,,,,,,,,2024-07-01_13h50.23.308,HideSeek_v1,2023.1.3,59.88529565393414,
,0,0,0,4,0,4,65,,train_dim1_1,10,24,2,0,2,0,,,,,,,,,0,0,0,0,0,9,9,9,3,0,3,0,,,,,,,,,,,,,,,,,,,,,,,,,,,,,,,,,,,,,,,,,,,,,,,,,,,,,,24,,,,,,,,85.98082860000432,85.98082860000432,85.98082860000432,85.98082860000432,85.98082860000432,up,0.22830149997025728,9,0,99,-0.16,-0.07999999999999997,up,0.11093809991143644,None,,,,,,,,,,,,,,,,,,,,,,,,,,,,,,,,,,,,,2024-07-01_13h50.23.308,HideSeek_v1,2023.1.3,59.88529565393414,
,0,0,0,4,0,4,65,,train_dim1_1,10,24,2,0,2,0,,,,,,,,,0,0,0,0,0,9,9,9,4,0,4,0,,,,,,,,,,,,,,,,,,,,,,,,,,,,,,,,,,,,,,,,,,,,,,,,,,,,,,24,,,,,,,,86.20981910009868,86.20981910009868,86.20981910009868,86.20981910009868,86.20981910009868,return,0.30910259997472167,10,0,1,-0.16,-0.07999999999999997,return,0.19158899993635714,None,33,0,-0.16,-0.07999999999999997,,,,,,,,,,,,,,,,,,,,,,,,,,,,,,,,,2024-07-01_13h50.23.308,HideSeek_v1,2023.1.3,59.88529565393414,
,4,2,4,3,0,1,62,,train_dim1_1,11,24,2,0,2,0,,,,,,,,,0,0,0,0,0,10,10,10,0,0,0,0,,,,,,,,,,,,,stimuli/alien_stimuli/62.png,,,,,,,,,,,,,,,,,,,,,,,,,,,,,,,stimuli/alien_stimuli/65.png,65,0,12,,,,,,,24,,,,,,,,90.45963679999113,90.45963679999113,90.45963679999113,90.45963679999113,90.45963679999113,up,0.6920443000271916,10,0,99,0.16,-0.15999999999999998,up,0.5936622000299394,None,,,,,88.87700189999305,,-0.16,-0.08,0.32,0.0,-0.24000000000000002,-0.16,-0.16,-0.16,-0.08,88.1101168000605,88.1101168000605,88.1101168000605,88.1101168000605,88.1101168000605,88.1101168000605,88.1101168000605,88.1101168000605,88.09032381011639,0.9199284999631345,return,0.7480474999174476,None,,,,,,,,,2024-07-01_13h50.23.308,HideSeek_v1,2023.1.3,59.88529565393414,
,4,2,4,3,0,1,62,,train_dim1_1,11,24,2,0,2,0,,,,,,,,,0,0,0,0,0,10,10,10,1,0,1,0,,,,,,,,,,,,,,,,,,,,,,,,,,,,,,,,,,,,,,,,,,,,,,,,,,,,,,24,,,,,,,,91.15960650006309,91.15960650006309,91.15960650006309,91.15960650006309,91.15960650006309,return,1.109382800059393,11,0,1,0.16,-0.15999999999999998,return,1.0123912999406457,None,34,0,0.16,-0.15999999999999998,,,,,,,,,,,,,,,,,,,,,,,,,,,,,,,,,2024-07-01_13h50.23.308,HideSeek_v1,2023.1.3,59.88529565393414,
,3,0,3,5,0,5,66,,train_dim1_1,12,24,2,0,2,0,,,,,,,,,0,0,0,0,0,11,11,11,0,0,0,0,,,,,,,,,,,,,stimuli/alien_stimuli/66.png,,,,,,,,,,,,,,,,,,,,,,,,,,,,,,,stimuli/alien_stimuli/62.png,62,4,13,,,,,,,24,,,,,,,,95.92623360012658,95.92623360012658,95.92623360012658,95.92623360012658,95.92623360012658,up,0.3574246000498533,11,0,99,0.08,-0.32,up,0.2626083998475224,None,,,,,94.35969109996222,95.92623360012658,0.16,-0.16,0.08,0.0,-0.2,0.16,0.16,0.16,-0.16,93.88566819997504,93.88566819997504,93.88566819997504,93.88566819997504,93.88566819997504,93.88566819997504,93.88566819997504,93.88566819997504,93.84113842016086,0.6342561000492424,return,0.44872740004211664,None,,,,,,,,,2024-07-01_13h50.23.308,HideSeek_v1,2023.1.3,59.88529565393414,
,3,0,3,5,0,5,66,,train_dim1_1,12,24,2,0,2,0,,,,,,,,,0,0,0,0,0,11,11,11,1,0,1,0,,,,,,,,,,,,,,,,,,,,,,,,,,,,,,,,,,,,,,,,,,,,,,,,,,,,,,24,,,,,,,,96.29301739996299,96.29301739996299,96.29301739996299,96.29301739996299,96.29301739996299,up,0.25967050017789006,11,0,99,0.08,-0.24,up,0.16449180012568831,None,,,,,,,,,,,,,,,,,,,,,,,,,,,,,,,,,,,,,2024-07-01_13h50.23.308,HideSeek_v1,2023.1.3,59.88529565393414,
,3,0,3,5,0,5,66,,train_dim1_1,12,24,2,0,2,0,,,,,,,,,0,0,0,0,0,11,11,11,2,0,2,0,,,,,,,,,,,,,,,,,,,,,,,,,,,,,,,,,,,,,,,,,,,,,,,,,,,,,,24,,,,,,,,96.55952490004711,96.55952490004711,96.55952490004711,96.55952490004711,96.55952490004711,up,0.29366909991949797,11,0,99,0.08,-0.15999999999999998,up,0.1874770000576973,None,,,,,,,,,,,,,,,,,,,,,,,,,,,,,,,,,,,,,2024-07-01_13h50.23.308,HideSeek_v1,2023.1.3,59.88529565393414,
,3,0,3,5,0,5,66,,train_dim1_1,12,24,2,0,2,0,,,,,,,,,0,0,0,0,0,11,11,11,3,0,3,0,,,,,,,,,,,,,,,,,,,,,,,,,,,,,,,,,,,,,,,,,,,,,,,,,,,,,,24,,,,,,,,96.85933639993891,96.85933639993891,96.85933639993891,96.85933639993891,96.85933639993891,up,0.2613161001354456,11,0,99,0.08,-0.07999999999999997,up,0.16748389997519553,None,,,,,,,,,,,,,,,,,,,,,,,,,,,,,,,,,,,,,2024-07-01_13h50.23.308,HideSeek_v1,2023.1.3,59.88529565393414,
,3,0,3,5,0,5,66,,train_dim1_1,12,24,2,0,2,0,,,,,,,,,0,0,0,0,0,11,11,11,4,0,4,0,,,,,,,,,,,,,,,,,,,,,,,,,,,,,,,,,,,,,,,,,,,,,,,,,,,,,,24,,,,,,,,97.14283940009773,97.14283940009773,97.14283940009773,97.14283940009773,97.14283940009773,up,0.3265361001249403,11,0,99,0.08,2.7755575615628914e-17,up,0.21644979994744062,None,,,,,,,,,,,,,,,,,,,,,,,,,,,,,,,,,,,,,2024-07-01_13h50.23.308,HideSeek_v1,2023.1.3,59.88529565393414,
,3,0,3,5,0,5,66,,train_dim1_1,12,24,2,0,2,0,,,,,,,,,0,0,0,0,0,11,11,11,5,0,5,0,,,,,,,,,,,,,,,,,,,,,,,,,,,,,,,,,,,,,,,,,,,,,,,,,,,,,,24,,,,,,,,97.45969270006754,97.45969270006754,97.45969270006754,97.45969270006754,97.45969270006754,return,0.41048259986564517,12,0,1,0.08,2.7755575615628914e-17,return,0.3141389999072999,None,39,0,0.08,2.7755575615628914e-17,,,,,,,,,,,,,,,,,,,,,,,,,,,,,,,,,2024-07-01_13h50.23.308,HideSeek_v1,2023.1.3,59.88529565393414,
,2,1,2,4,0,3,64,,train_dim1_1,13,24,2,0,2,0,,,,,,,,,0,0,0,0,0,12,12,12,0,0,0,0,,,,,,,,,,,,,stimuli/alien_stimuli/64.png,,,,,,,,,,,,,,,,,,,,,,,,,,,,,,,stimuli/alien_stimuli/66.png,66,3,14,,,,,,,24,,,,,,,,101.39340920001268,101.39340920001268,101.39340920001268,101.39340920001268,101.39340920001268,up,0.37418860010802746,12,0,99,0,-0.24,up,0.27798289991915226,None,,,,,99.82600590004586,101.39340920001268,0.08,0,0.4,0.0,-0.2,0.08,0.08,0.08,0,99.4262602000963,99.4262602000963,99.4262602000963,99.4262602000963,99.4262602000963,99.4262602000963,99.4262602000963,99.4262602000963,99.40772373008076,0.5192466999869794,return,0.3774276999756694,None,,,,,,,,,2024-07-01_13h50.23.308,HideSeek_v1,2023.1.3,59.88529565393414,
,2,1,2,4,0,3,64,,train_dim1_1,13,24,2,0,2,0,,,,,,,,,0,0,0,0,0,12,12,12,1,0,1,0,,,,,,,,,,,,,,,,,,,,,,,,,,,,,,,,,,,,,,,,,,,,,,,,,,,,,,24,,,,,,,,101.7935126000084,101.7935126000084,101.7935126000084,101.7935126000084,101.7935126000084,up,0.2750635000411421,12,0,99,0,-0.15999999999999998,up,0.15893130004405975,None,,,,,,,,,,,,,,,,,,,,,,,,,,,,,,,,,,,,,2024-07-01_13h50.23.308,HideSeek_v1,2023.1.3,59.88529565393414,
,2,1,2,4,0,3,64,,train_dim1_1,13,24,2,0,2,0,,,,,,,,,0,0,0,0,0,12,12,12,2,0,2,0,,,,,,,,,,,,,,,,,,,,,,,,,,,,,,,,,,,,,,,,,,,,,,,,,,,,,,24,,,,,,,,102.05947300000116,102.05947300000116,102.05947300000116,102.05947300000116,102.05947300000116,up,0.22696659993380308,12,0,99,0,-0.07999999999999997,up,0.1355663000140339,None,,,,,,,,,,,,,,,,,,,,,,,,,,,,,,,,,,,,,2024-07-01_13h50.23.308,HideSeek_v1,2023.1.3,59.88529565393414,
,2,1,2,4,0,3,64,,train_dim1_1,13,24,2,0,2,0,,,,,,,,,0,0,0,0,0,12,12,12,3,0,3,0,,,,,,,,,,,,,,,,,,,,,,,,,,,,,,,,,,,,,,,,,,,,,,,,,,,,,,24,,,,,,,,102.30298799998127,102.30298799998127,102.30298799998127,102.30298799998127,102.30298799998127,return,0.3261145001742989,13,0,1,0,-0.07999999999999997,return,0.21685029985383153,None,42,0,0,-0.07999999999999997,,,,,,,,,,,,,,,,,,,,,,,,,,,,,,,,,2024-07-01_13h50.23.308,HideSeek_v1,2023.1.3,59.88529565393414,
,4,3,4,7,0,4,65,,train_dim1_1,14,24,2,0,2,0,,,,,,,,,0,0,0,0,0,13,13,13,0,0,0,0,,,,,,,,,,,,,stimuli/alien_stimuli/65.png,,,,,,,,,,,,,,,,,,,,,,,,,,,,,,,stimuli/alien_stimuli/64.png,64,2,15,,,,,,,24,,,,,,,,106.3726011000108,106.3726011000108,106.3726011000108,106.3726011000108,106.3726011000108,up,0.8586516999639571,13,0,99,0.16,-0.08,up,0.7506845002062619,None,,,,,104.79319040011615,106.3726011000108,0,-0.08,0.24,0.0,-0.2,0,0.0,0,-0.08,104.2249706001021,104.2249706001021,104.2249706001021,104.2249706001021,104.2249706001021,104.2249706001021,104.2249706001021,104.2249706001021,104.17423532018438,0.7348667001351714,return,0.5410041001159698,None,,,,,,,,,2024-07-01_13h50.23.308,HideSeek_v1,2023.1.3,59.88529565393414,
,4,3,4,7,0,4,65,,train_dim1_1,14,24,2,0,2,0,,,,,,,,,0,0,0,0,0,13,13,13,1,0,1,0,,,,,,,,,,,,,,,,,,,,,,,,,,,,,,,,,,,,,,,,,,,,,,,,,,,,,,24,,,,,,,,107.22814489994198,107.22814489994198,107.22814489994198,107.22814489994198,107.22814489994198,up,0.3911575998645276,13,0,99,0.16,0.0,up,0.28510609990917146,None,,,,,,,,,,,,,,,,,,,,,,,,,,,,,,,,,,,,,2024-07-01_13h50.23.308,HideSeek_v1,2023.1.3,59.88529565393414,
,4,3,4,7,0,4,65,,train_dim1_1,14,24,2,0,2,0,,,,,,,,,0,0,0,0,0,13,13,13,2,0,2,0,,,,,,,,,,,,,,,,,,,,,,,,,,,,,,,,,,,,,,,,,,,,,,,,,,,,,,24,,,,,,,,107.64118900010362,107.64118900010362,107.64118900010362,107.64118900010362,107.64118900010362,up,0.3439293000847101,13,0,99,0.16,0.08,up,0.22383120004087687,None,,,,,,,,,,,,,,,,,,,,,,,,,,,,,,,,,,,,,2024-07-01_13h50.23.308,HideSeek_v1,2023.1.3,59.88529565393414,
,4,3,4,7,0,4,65,,train_dim1_1,14,24,2,0,2,0,,,,,,,,,0,0,0,0,0,13,13,13,3,0,3,0,,,,,,,,,,,,,,,,,,,,,,,,,,,,,,,,,,,,,,,,,,,,,,,,,,,,,,24,,,,,,,,107.96255960012786,107.96255960012786,107.96255960012786,107.96255960012786,107.96255960012786,up,0.31143129989504814,13,0,99,0.16,0.16,up,0.22398280003108084,None,,,,,,,,,,,,,,,,,,,,,,,,,,,,,,,,,,,,,2024-07-01_13h50.23.308,HideSeek_v1,2023.1.3,59.88529565393414,
,4,3,4,7,0,4,65,,train_dim1_1,14,24,2,0,2,0,,,,,,,,,0,0,0,0,0,13,13,13,4,0,4,0,,,,,,,,,,,,,,,,,,,,,,,,,,,,,,,,,,,,,,,,,,,,,,,,,,,,,,24,,,,,,,,108.29495360003784,108.29495360003784,108.29495360003784,108.29495360003784,108.29495360003784,return,0.4261562000028789,14,0,1,0.16,0.16,return,0.31676609977148473,None,46,0,0.16,0.16,,,,,,,,,,,,,,,,,,,,,,,,,,,,,,,,,2024-07-01_13h50.23.308,HideSeek_v1,2023.1.3,59.88529565393414,
,1,0,1,5,0,5,66,,train_dim1_1,15,24,2,0,2,0,,,,,,,,,0,0,0,0,0,14,14,14,0,0,0,0,,,,,,,,,,,,,stimuli/alien_stimuli/66.png,,,,,,,,,,,,,,,,,,,,,,,,,,,,,,,stimuli/alien_stimuli/65.png,65,4,16,,,,,,,24,,,,,,,,112.60394369997084,112.60394369997084,112.60394369997084,112.60394369997084,112.60394369997084,up,0.6556869000196457,14,0,99,-0.08,-0.32,up,0.5237745000049472,None,,,,,111.02588029997423,112.60394369997084,0.16,0.16,0.32,0.0,0.0,0.16,0.16,0.16,0.16,110.29249810008332,110.29249810008332,110.29249810008332,110.29249810008332,110.29249810008332,110.29249810008332,110.29249810008332,110.29249810008332,110.2739841301227,0.8532765998970717,return,0.7135366001166403,None,,,,,,,,,2024-07-01_13h50.23.308,HideSeek_v1,2023.1.3,59.88529565393414,
,1,0,1,5,0,5,66,,train_dim1_1,15,24,2,0,2,0,,,,,,,,,0,0,0,0,0,14,14,14,1,0,1,0,,,,,,,,,,,,,,,,,,,,,,,,,,,,,,,,,,,,,,,,,,,,,,,,,,,,,,24,,,,,,,,113.24677149998024,113.24677149998024,113.24677149998024,113.24677149998024,113.24677149998024,up,0.2613454998936504,14,0,99,-0.08,-0.24,up,0.17255700007081032,None,,,,,,,,,,,,,,,,,,,,,,,,,,,,,,,,,,,,,2024-07-01_13h50.23.308,HideSeek_v1,2023.1.3,59.88529565393414,
,1,0,1,5,0,5,66,,train_dim1_1,15,24,2,0,2,0,,,,,,,,,0,0,0,0,0,14,14,14,2,0,2,0,,,,,,,,,,,,,,,,,,,,,,,,,,,,,,,,,,,,,,,,,,,,,,,,,,,,,,24,,,,,,,,113.52596769994125,113.52596769994125,113.52596769994125,113.52596769994125,113.52596769994125,up,0.29234879999421537,14,0,99,-0.08,-0.15999999999999998,up,0.18597449990920722,None,,,,,,,,,,,,,,,,,,,,,,,,,,,,,,,,,,,,,2024-07-01_13h50.23.308,HideSeek_v1,2023.1.3,59.88529565393414,
,1,0,1,5,0,5,66,,train_dim1_1,15,24,2,0,2,0,,,,,,,,,0,0,0,0,0,14,14,14,3,0,3,0,,,,,,,,,,,,,,,,,,,,,,,,,,,,,,,,,,,,,,,,,,,,,,,,,,,,,,24,,,,,,,,113.82599189993925,113.82599189993925,113.82599189993925,113.82599189993925,113.82599189993925,up,0.29359169979579747,14,0,99,-0.08,-0.07999999999999997,up,0.18977760011330247,None,,,,,,,,,,,,,,,,,,,,,,,,,,,,,,,,,,,,,2024-07-01_13h50.23.308,HideSeek_v1,2023.1.3,59.88529565393414,
,1,0,1,5,0,5,66,,train_dim1_1,15,24,2,0,2,0,,,,,,,,,0,0,0,0,0,14,14,14,4,0,4,0,,,,,,,,,,,,,,,,,,,,,,,,,,,,,,,,,,,,,,,,,,,,,,,,,,,,,,24,,,,,,,,114.1260613000486,114.1260613000486,114.1260613000486,114.1260613000486,114.1260613000486,up,0.27839979995042086,14,0,99,-0.08,2.7755575615628914e-17,up,0.17029940010979772,None,,,,,,,,,,,,,,,,,,,,,,,,,,,,,,,,,,,,,2024-07-01_13h50.23.308,HideSeek_v1,2023.1.3,59.88529565393414,
,1,0,1,5,0,5,66,,train_dim1_1,15,24,2,0,2,0,,,,,,,,,0,0,0,0,0,14,14,14,5,0,5,0,,,,,,,,,,,,,,,,,,,,,,,,,,,,,,,,,,,,,,,,,,,,,,,,,,,,,,24,,,,,,,,114.41360149998218,114.41360149998218,114.41360149998218,114.41360149998218,114.41360149998218,return,0.3434670001734048,15,0,1,-0.08,2.7755575615628914e-17,return,0.19729620008729398,None,51,0,-0.08,2.7755575615628914e-17,,,,,,,,,,,,,,,,,,,,,,,,,,,,,,,,,2024-07-01_13h50.23.308,HideSeek_v1,2023.1.3,59.88529565393414,
,3,1,3,2,0,1,62,,train_dim1_1,16,24,2,0,2,0,,,,,,,,,0,0,0,0,0,15,15,15,0,0,0,0,,,,,,,,,,,,,stimuli/alien_stimuli/62.png,,,,,,,,,,,,,,,,,,,,,,,,,,,,,,,stimuli/alien_stimuli/66.png,66,1,17,,,,,,,24,,,,,,,,118.95916910003871,118.95916910003871,118.95916910003871,118.95916910003871,118.95916910003871,up,0.7247299000155181,15,0,99,0.08,-0.24,up,0.618074000114575,None,,,,,117.39310159999877,,-0.08,0,0.4,0.0,-0.2,-0.08,-0.08,-0.08,0,116.32604790013283,116.32604790013283,116.32604790013283,116.32604790013283,116.32604790013283,116.32604790013283,116.32604790013283,116.32604790013283,116.30736883019563,1.1686003999784589,return,1.0275044001173228,None,,,,,,,,,2024-07-01_13h50.23.308,HideSeek_v1,2023.1.3,59.88529565393414,
,3,1,3,2,0,1,62,,train_dim1_1,16,24,2,0,2,0,,,,,,,,,0,0,0,0,0,15,15,15,1,0,1,0,,,,,,,,,,,,,,,,,,,,,,,,,,,,,,,,,,,,,,,,,,,,,,,,,,,,,,24,,,,,,,,119.69358870014548,119.69358870014548,119.69358870014548,119.69358870014548,119.69358870014548,return,0.34147039987146854,16,0,1,0.08,-0.24,return,0.24829190014861524,None,52,0,0.08,-0.24,,,,,,,,,,,,,,,,,,,,,,,,,,,,,,,,,2024-07-01_13h50.23.308,HideSeek_v1,2023.1.3,59.88529565393414,
,0,2,0,7,0,5,66,,train_dim1_1,17,24,2,0,2,0,,,,,,,,,0,0,0,0,0,16,16,16,0,0,0,0,,,,,,,,,,,,,stimuli/alien_stimuli/66.png,,,,,,,,,,,,,,,,,,,,,,,,,,,,,,,stimuli/alien_stimuli/62.png,62,3,18,,,,,,,24,,,,,,,,123.67846959992312,123.67846959992312,123.67846959992312,123.67846959992312,123.67846959992312,up,0.6758681000210345,16,0,99,-0.16,-0.15999999999999998,up,0.5632756999693811,None,,,,,122.09242320014164,123.67846959992312,0.08,-0.24,0.08,0.0,-0.28,0.08,0.08,0.08,-0.24,121.59261990012601,121.59261990012601,121.59261990012601,121.59261990012601,121.59261990012601,121.59261990012601,121.59261990012601,121.59261990012601,121.57380652998108,0.6188879001419991,return,0.4682977001648396,None,,,,,,,,,2024-07-01_13h50.23.308,HideSeek_v1,2023.1.3,59.88529565393414,
,0,2,0,7,0,5,66,,train_dim1_1,17,24,2,0,2,0,,,,,,,,,0,0,0,0,0,16,16,16,1,0,1,0,,,,,,,,,,,,,,,,,,,,,,,,,,,,,,,,,,,,,,,,,,,,,,,,,,,,,,24,,,,,,,,124.34276930009946,124.34276930009946,124.34276930009946,124.34276930009946,124.34276930009946,up,0.4093722999095917,16,0,99,-0.16,-0.07999999999999997,up,0.30684600002132356,None,,,,,,,,,,,,,,,,,,,,,,,,,,,,,,,,,,,,,2024-07-01_13h50.23.308,HideSeek_v1,2023.1.3,59.88529565393414,
,0,2,0,7,0,5,66,,train_dim1_1,17,24,2,0,2,0,,,,,,,,,0,0,0,0,0,16,16,16,2,0,2,0,,,,,,,,,,,,,,,,,,,,,,,,,,,,,,,,,,,,,,,,,,,,,,,,,,,,,,24,,,,,,,,124.75921309995465,124.75921309995465,124.75921309995465,124.75921309995465,124.75921309995465,up,0.37650559982284904,16,0,99,-0.16,2.7755575615628914e-17,up,0.28290490014478564,None,,,,,,,,,,,,,,,,,,,,,,,,,,,,,,,,,,,,,2024-07-01_13h50.23.308,HideSeek_v1,2023.1.3,59.88529565393414,
,0,2,0,7,0,5,66,,train_dim1_1,17,24,2,0,2,0,,,,,,,,,0,0,0,0,0,16,16,16,3,0,3,0,,,,,,,,,,,,,,,,,,,,,,,,,,,,,,,,,,,,,,,,,,,,,,,,,,,,,,24,,,,,,,,125.14234229992144,125.14234229992144,125.14234229992144,125.14234229992144,125.14234229992144,up,0.4271130000706762,16,0,99,-0.16,0.08000000000000003,up,0.3256149999797344,None,,,,,,,,,,,,,,,,,,,,,,,,,,,,,,,,,,,,,2024-07-01_13h50.23.308,HideSeek_v1,2023.1.3,59.88529565393414,
,0,2,0,7,0,5,66,,train_dim1_1,17,24,2,0,2,0,,,,,,,,,0,0,0,0,0,16,16,16,4,0,4,0,,,,,,,,,,,,,,,,,,,,,,,,,,,,,,,,,,,,,,,,,,,,,,,,,,,,,,24,,,,,,,,125.57696420000866,125.57696420000866,125.57696420000866,125.57696420000866,125.57696420000866,up,0.3439009999856353,16,0,99,-0.16,0.16000000000000003,up,0.2450679000467062,None,,,,,,,,,,,,,,,,,,,,,,,,,,,,,,,,,,,,,2024-07-01_13h50.23.308,HideSeek_v1,2023.1.3,59.88529565393414,
,0,2,0,7,0,5,66,,train_dim1_1,17,24,2,0,2,0,,,,,,,,,0,0,0,0,0,16,16,16,5,0,5,0,,,,,,,,,,,,,,,,,,,,,,,,,,,,,,,,,,,,,,,,,,,,,,,,,,,,,,24,,,,,,,,125.91330199991353,125.91330199991353,125.91330199991353,125.91330199991353,125.91330199991353,return,0.37745180004276335,17,0,1,-0.16,0.16000000000000003,return,0.2912782998755574,None,57,0,-0.16,0.16000000000000003,,,,,,,,,,,,,,,,,,,,,,,,,,,,,,,,,2024-07-01_13h50.23.308,HideSeek_v1,2023.1.3,59.88529565393414,
,1,2,1,6,0,4,65,,train_dim1_1,18,24,2,0,2,0,,,,,,,,,0,0,0,0,0,17,17,17,0,0,0,0,,,,,,,,,,,,,stimuli/alien_stimuli/65.png,,,,,,,,,,,,,,,,,,,,,,,,,,,,,,,stimuli/alien_stimuli/66.png,66,0,19,,,,,,,24,,,,,,,,129.95878909993917,129.95878909993917,129.95878909993917,129.95878909993917,129.95878909993917,up,0.47379219997674227,17,0,99,-0.08,-0.15999999999999998,up,0.3603236998897046,None,,,,,128.37566459993832,129.95878909993917,-0.16,0.16,0.4,0.0,-0.039999999999999994,-0.16,-0.16,-0.16,0.16,127.8612697001081,127.8612697001081,127.8612697001081,127.8612697001081,127.8612697001081,127.8612697001081,127.8612697001081,127.8612697001081,127.84065683011431,0.6357259999495,return,0.4854097000788897,None,,,,,,,,,2024-07-01_13h50.23.308,HideSeek_v1,2023.1.3,59.88529565393414,
,1,2,1,6,0,4,65,,train_dim1_1,18,24,2,0,2,0,,,,,,,,,0,0,0,0,0,17,17,17,1,0,1,0,,,,,,,,,,,,,,,,,,,,,,,,,,,,,,,,,,,,,,,,,,,,,,,,,,,,,,24,,,,,,,,130.42559310002252,130.42559310002252,130.42559310002252,130.42559310002252,130.42559310002252,up,0.2930645998567343,17,0,99,-0.08,-0.07999999999999997,up,0.20072770002298057,None,,,,,,,,,,,,,,,,,,,,,,,,,,,,,,,,,,,,,2024-07-01_13h50.23.308,HideSeek_v1,2023.1.3,59.88529565393414,
,1,2,1,6,0,4,65,,train_dim1_1,18,24,2,0,2,0,,,,,,,,,0,0,0,0,0,17,17,17,2,0,2,0,,,,,,,,,,,,,,,,,,,,,,,,,,,,,,,,,,,,,,,,,,,,,,,,,,,,,,24,,,,,,,,130.72598230000585,130.72598230000585,130.72598230000585,130.72598230000585,130.72598230000585,up,0.32720099994912744,17,0,99,-0.08,2.7755575615628914e-17,up,0.2212045001797378,None,,,,,,,,,,,,,,,,,,,,,,,,,,,,,,,,,,,,,2024-07-01_13h50.23.308,HideSeek_v1,2023.1.3,59.88529565393414,
,1,2,1,6,0,4,65,,train_dim1_1,18,24,2,0,2,0,,,,,,,,,0,0,0,0,0,17,17,17,3,0,3,0,,,,,,,,,,,,,,,,,,,,,,,,,,,,,,,,,,,,,,,,,,,,,,,,,,,,,,24,,,,,,,,131.05878460011445,131.05878460011445,131.05878460011445,131.05878460011445,131.05878460011445,up,0.29408060014247894,17,0,99,-0.08,0.08000000000000003,up,0.1902356999926269,None,,,,,,,,,,,,,,,,,,,,,,,,,,,,,,,,,,,,,2024-07-01_13h50.23.308,HideSeek_v1,2023.1.3,59.88529565393414,
,1,2,1,6,0,4,65,,train_dim1_1,18,24,2,0,2,0,,,,,,,,,0,0,0,0,0,17,17,17,4,0,4,0,,,,,,,,,,,,,,,,,,,,,,,,,,,,,,,,,,,,,,,,,,,,,,,,,,,,,,24,,,,,,,,131.3593089999631,131.3593089999631,131.3593089999631,131.3593089999631,131.3593089999631,return,0.29439710010774434,18,0,1,-0.08,0.08000000000000003,return,0.1960497999098152,None,61,0,-0.08,0.08000000000000003,,,,,,,,,,,,,,,,,,,,,,,,,,,,,,,,,2024-07-01_13h50.23.308,HideSeek_v1,2023.1.3,59.88529565393414,
,1,4,1,5,0,1,62,,train_dim1_1,19,24,2,0,2,0,,,,,,,,,0,0,0,0,0,18,18,18,0,0,0,0,,,,,,,,,,,,,stimuli/alien_stimuli/62.png,,,,,,,,,,,,,,,,,,,,,,,,,,,,,,,stimuli/alien_stimuli/65.png,65,1,20,,,,,,,24,,,,,,,,135.24260549992323,135.24260549992323,135.24260549992323,135.24260549992323,135.24260549992323,up,0.524574700044468,18,0,99,-0.08,0.0,up,0.4264391001779586,None,,,,,133.67587150004692,135.24260549992323,-0.08,0.08,0.32,0.0,-0.07999999999999999,-0.08,-0.08,-0.08,0.08,133.24565840000287,133.24565840000287,133.24565840000287,133.24565840000287,133.24565840000287,133.24565840000287,133.24565840000287,133.24565840000287,133.22371551999822,0.5695193000137806,return,0.41260249982587993,None,,,,,,,,,2024-07-01_13h50.23.308,HideSeek_v1,2023.1.3,59.88529565393414,
,1,4,1,5,0,1,62,,train_dim1_1,19,24,2,0,2,0,,,,,,,,,0,0,0,0,0,18,18,18,1,0,1,0,,,,,,,,,,,,,,,,,,,,,,,,,,,,,,,,,,,,,,,,,,,,,,,,,,,,,,24,,,,,,,,135.77823389996774,135.77823389996774,135.77823389996774,135.77823389996774,135.77823389996774,return,0.2753578000701964,19,0,1,-0.08,0.0,return,0.181315700057894,None,62,0,-0.08,0.0,,,,,,,,,,,,,,,,,,,,,,,,,,,,,,,,,2024-07-01_13h50.23.308,HideSeek_v1,2023.1.3,59.88529565393414,
,3,2,3,5,0,3,64,,train_dim1_1,20,24,2,0,2,0,,,,,,,,,0,0,0,0,0,19,19,19,0,0,0,0,,,,,,,,,,,,,stimuli/alien_stimuli/64.png,,,,,,,,,,,,,,,,,,,,,,,,,,,,,,,stimuli/alien_stimuli/62.png,62,1,21,,,,,,,24,,,,,,,,139.42580879991874,139.42580879991874,139.42580879991874,139.42580879991874,139.42580879991874,up,0.4068102999590337,19,0,99,0.08,-0.15999999999999998,up,0.308928299928084,None,,,,,137.84310550009832,137.60907480004244,-0.08,0,0.08,0.0,-0.04,-0.08,-0.08,-0.08,0,137.60907480004244,137.60907480004244,137.60907480004244,137.60907480004244,137.60907480004244,137.60907480004244,137.60907480004244,137.60907480004244,137.59066193003673,0.35151349985972047,return,0.20546189998276532,None,,,,,,,,,2024-07-01_13h50.23.308,HideSeek_v1,2023.1.3,59.88529565393414,
,3,2,3,5,0,3,64,,train_dim1_1,20,24,2,0,2,0,,,,,,,,,0,0,0,0,0,19,19,19,1,0,1,0,,,,,,,,,,,,,,,,,,,,,,,,,,,,,,,,,,,,,,,,,,,,,,,,,,,,,,24,,,,,,,,139.8418586999178,139.8418586999178,139.8418586999178,139.8418586999178,139.8418586999178,up,0.30980730010196567,19,0,99,0.08,-0.07999999999999997,up,0.20447109988890588,None,,,,,,,,,,,,,,,,,,,,,,,,,,,,,,,,,,,,,2024-07-01_13h50.23.308,HideSeek_v1,2023.1.3,59.88529565393414,
,3,2,3,5,0,3,64,,train_dim1_1,20,24,2,0,2,0,,,,,,,,,0,0,0,0,0,19,19,19,2,0,2,0,,,,,,,,,,,,,,,,,,,,,,,,,,,,,,,,,,,,,,,,,,,,,,,,,,,,,,24,,,,,,,,140.14562859991565,140.14562859991565,140.14562859991565,140.14562859991565,140.14562859991565,up,0.27714350004680455,19,0,99,0.08,2.7755575615628914e-17,up,0.18506899988278747,None,,,,,,,,,,,,,,,,,,,,,,,,,,,,,,,,,,,,,2024-07-01_13h50.23.308,HideSeek_v1,2023.1.3,59.88529565393414,
,3,2,3,5,0,3,64,,train_dim1_1,20,24,2,0,2,0,,,,,,,,,0,0,0,0,0,19,19,19,3,0,3,0,,,,,,,,,,,,,,,,,,,,,,,,,,,,,,,,,,,,,,,,,,,,,,,,,,,,,,24,,,,,,,,140.442033899948,140.442033899948,140.442033899948,140.442033899948,140.442033899948,return,0.27792640007101,20,0,1,0.08,2.7755575615628914e-17,return,0.1743193999864161,None,65,0,0.08,2.7755575615628914e-17,,,,,,,,,,,,,,,,,,,,,,,,,,,,,,,,,2024-07-01_13h50.23.308,HideSeek_v1,2023.1.3,59.88529565393414,
,2,4,2,5,0,1,62,,train_dim1_1,21,24,2,0,2,0,,,,,,,,,0,0,0,0,0,20,20,20,0,0,0,0,,,,,,,,,,,,,stimuli/alien_stimuli/62.png,,,,,,,,,,,,,,,,,,,,,,,,,,,,,,,stimuli/alien_stimuli/64.png,64,3,22,,,,,,,24,,,,,,,,144.12514270003885,144.12514270003885,144.12514270003885,144.12514270003885,144.12514270003885,up,0.3724759998731315,20,0,99,0,0.0,up,0.2791615000460297,None,,,,,142.55895760003477,144.12514270003885,0.08,0,0.24,0.0,-0.12,0.08,0.08,0.08,0,142.31095770001411,142.31095770001411,142.31095770001411,142.31095770001411,142.31095770001411,142.31095770001411,142.31095770001411,142.31095770001411,142.289631510037,0.4025662001222372,return,0.2201696999836713,None,,,,,,,,,2024-07-01_13h50.23.308,HideSeek_v1,2023.1.3,59.88529565393414,
,2,4,2,5,0,1,62,,train_dim1_1,21,24,2,0,2,0,,,,,,,,,0,0,0,0,0,20,20,20,1,0,1,0,,,,,,,,,,,,,,,,,,,,,,,,,,,,,,,,,,,,,,,,,,,,,,,,,,,,,,24,,,,,,,,144.5089102999773,144.5089102999773,144.5089102999773,144.5089102999773,144.5089102999773,return,0.49338020011782646,21,0,1,0,0.0,return,0.3856447001453489,None,66,0,0,0.0,,,,,,,,,,,,,,,,,,,,,,,,,,,,,,,,,2024-07-01_13h50.23.308,HideSeek_v1,2023.1.3,59.88529565393414,
,0,1,0,5,0,4,65,,train_dim1_1,22,24,2,0,2,0,,,,,,,,,0,0,0,0,0,21,21,21,0,0,0,0,,,,,,,,,,,,,stimuli/alien_stimuli/65.png,,,,,,,,,,,,,,,,,,,,,,,,,,,,,,,stimuli/alien_stimuli/62.png,62,2,23,,,,,,,24,,,,,,,,149.19121910003014,149.19121910003014,149.19121910003014,149.19121910003014,149.19121910003014,up,0.44105560006573796,21,0,99,-0.16,-0.24,up,0.34205199987627566,None,,,,,147.62560399994254,149.19121910003014,0,0,0.08,0.0,-0.04,0,0.0,0,0,146.55912919994444,146.55912919994444,146.55912919994444,146.55912919994444,146.55912919994444,146.55912919994444,146.55912919994444,146.55912919994444,146.54034323000815,1.185684199910611,return,1.0432915000710636,None,,,,,,,,,2024-07-01_13h50.23.308,HideSeek_v1,2023.1.3,59.88529565393414,
,0,1,0,5,0,4,65,,train_dim1_1,22,24,2,0,2,0,,,,,,,,,0,0,0,0,0,21,21,21,1,0,1,0,,,,,,,,,,,,,,,,,,,,,,,,,,,,,,,,,,,,,,,,,,,,,,,,,,,,,,24,,,,,,,,149.64241830003448,149.64241830003448,149.64241830003448,149.64241830003448,149.64241830003448,up,0.25998930004425347,21,0,99,-0.16,-0.15999999999999998,up,0.1510256000328809,None,,,,,,,,,,,,,,,,,,,,,,,,,,,,,,,,,,,,,2024-07-01_13h50.23.308,HideSeek_v1,2023.1.3,59.88529565393414,
,0,1,0,5,0,4,65,,train_dim1_1,22,24,2,0,2,0,,,,,,,,,0,0,0,0,0,21,21,21,2,0,2,0,,,,,,,,,,,,,,,,,,,,,,,,,,,,,,,,,,,,,,,,,,,,,,,,,,,,,,24,,,,,,,,149.9089876001235,149.9089876001235,149.9089876001235,149.9089876001235,149.9089876001235,up,0.260570399928838,21,0,99,-0.16,-0.07999999999999997,up,0.16054409998469055,None,,,,,,,,,,,,,,,,,,,,,,,,,,,,,,,,,,,,,2024-07-01_13h50.23.308,HideSeek_v1,2023.1.3,59.88529565393414,
,0,1,0,5,0,4,65,,train_dim1_1,22,24,2,0,2,0,,,,,,,,,0,0,0,0,0,21,21,21,3,0,3,0,,,,,,,,,,,,,,,,,,,,,,,,,,,,,,,,,,,,,,,,,,,,,,,,,,,,,,24,,,,,,,,150.17588260001503,150.17588260001503,150.17588260001503,150.17588260001503,150.17588260001503,up,0.2607007999904454,21,0,99,-0.16,2.7755575615628914e-17,up,0.16198939993046224,None,,,,,,,,,,,,,,,,,,,,,,,,,,,,,,,,,,,,,2024-07-01_13h50.23.308,HideSeek_v1,2023.1.3,59.88529565393414,
,0,1,0,5,0,4,65,,train_dim1_1,22,24,2,0,2,0,,,,,,,,,0,0,0,0,0,21,21,21,4,0,4,0,,,,,,,,,,,,,,,,,,,,,,,,,,,,,,,,,,,,,,,,,,,,,,,,,,,,,,24,,,,,,,,150.45945259998553,150.45945259998553,150.45945259998553,150.45945259998553,150.45945259998553,return,0.26049050013534725,22,0,1,-0.16,2.7755575615628914e-17,return,0.13581839995458722,None,70,0,-0.16,2.7755575615628914e-17,,,,,,,,,,,,,,,,,,,,,,,,,,,,,,,,,2024-07-01_13h50.23.308,HideSeek_v1,2023.1.3,59.88529565393414,
,2,3,2,6,0,3,64,,train_dim1_1,23,24,2,0,2,0,,,,,,,,,0,0,0,0,0,22,22,22,0,0,0,0,,,,,,,,,,,,,stimuli/alien_stimuli/64.png,,,,,,,,,,,,,,,,,,,,,,,,,,,,,,,stimuli/alien_stimuli/65.png,65,0,24,,,,,,,24,,,,,,,,154.35938909999095,154.35938909999095,154.35938909999095,154.35938909999095,154.35938909999095,up,0.42448269994929433,22,0,99,0,-0.08,up,0.2939529998693615,None,,,,,152.7927864000667,154.35938909999095,-0.16,0,0.32,0.0,-0.16,-0.16,-0.16,-0.16,0,152.30976129998453,152.30976129998453,152.30976129998453,152.30976129998453,152.30976129998453,152.30976129998453,152.30976129998453,152.30976129998453,152.2894216000568,0.6536449000705034,return,0.4643830999266356,None,,,,,,,,,2024-07-01_13h50.23.308,HideSeek_v1,2023.1.3,59.88529565393414,
,2,3,2,6,0,3,64,,train_dim1_1,23,24,2,0,2,0,,,,,,,,,0,0,0,0,0,22,22,22,1,0,1,0,,,,,,,,,,,,,,,,,,,,,,,,,,,,,,,,,,,,,,,,,,,,,,,,,,,,,,24,,,,,,,,154.81247529992834,154.81247529992834,154.81247529992834,154.81247529992834,154.81247529992834,up,0.27522599999792874,22,0,99,0,0.0,up,0.13637150009162724,None,,,,,,,,,,,,,,,,,,,,,,,,,,,,,,,,,,,,,2024-07-01_13h50.23.308,HideSeek_v1,2023.1.3,59.88529565393414,
,2,3,2,6,0,3,64,,train_dim1_1,23,24,2,0,2,0,,,,,,,,,0,0,0,0,0,22,22,22,2,0,2,0,,,,,,,,,,,,,,,,,,,,,,,,,,,,,,,,,,,,,,,,,,,,,,,,,,,,,,24,,,,,,,,155.09334799996577,155.09334799996577,155.09334799996577,155.09334799996577,155.09334799996577,up,0.24436999997124076,22,0,99,0,0.08,up,0.12140800012275577,None,,,,,,,,,,,,,,,,,,,,,,,,,,,,,,,,,,,,,2024-07-01_13h50.23.308,HideSeek_v1,2023.1.3,59.88529565393414,
,2,3,2,6,0,3,64,,train_dim1_1,23,24,2,0,2,0,,,,,,,,,0,0,0,0,0,22,22,22,3,0,3,0,,,,,,,,,,,,,,,,,,,,,,,,,,,,,,,,,,,,,,,,,,,,,,,,,,,,,,24,,,,,,,,155.32627400010824,155.32627400010824,155.32627400010824,155.32627400010824,155.32627400010824,return,0.30940829985775054,23,0,1,0,0.08,return,0.2011420999187976,None,73,0,0,0.08,,,,,,,,,,,,,,,,,,,,,,,,,,,,,,,,,2024-07-01_13h50.23.308,HideSeek_v1,2023.1.3,59.88529565393414,
,1,1,1,6,0,5,66,,train_dim1_1,24,24,2,0,2,0,,,,,,,,,0,0,0,0,0,23,23,23,0,0,0,0,,,,,,,,,,,,,stimuli/alien_stimuli/66.png,,,,,,,,,,,,,,,,,,,,,,,,,,,,,,,stimuli/alien_stimuli/64.png,64,2,25,,,,,,,24,,,,,,,,159.14758579991758,159.14758579991758,159.14758579991758,159.14758579991758,159.14758579991758,up,0.5697263998445123,23,0,99,-0.08,-0.24,up,0.41351290000602603,None,,,,,157.5257693999447,159.14758579991758,0,0.08,0.24,0.0,-0.04,0,0.0,0,0.08,157.22551580006257,157.22551580006257,157.22551580006257,157.22551580006257,157.22551580006257,157.22551580006257,157.22551580006257,157.22551580006257,157.20641442015767,0.43692460004240274,return,0.2770954000297934,None,,,,,,,,,2024-07-01_13h50.23.308,HideSeek_v1,2023.1.3,59.88529565393414,
,1,1,1,6,0,5,66,,train_dim1_1,24,24,2,0,2,0,,,,,,,,,0,0,0,0,0,23,23,23,1,0,1,0,,,,,,,,,,,,,,,,,,,,,,,,,,,,,,,,,,,,,,,,,,,,,,,,,,,,,,24,,,,,,,,159.6754105000291,159.6754105000291,159.6754105000291,159.6754105000291,159.6754105000291,up,0.2767486001830548,23,0,99,-0.08,-0.15999999999999998,up,0.1804368000011891,None,,,,,,,,,,,,,,,,,,,,,,,,,,,,,,,,,,,,,2024-07-01_13h50.23.308,HideSeek_v1,2023.1.3,59.88529565393414,
,1,1,1,6,0,5,66,,train_dim1_1,24,24,2,0,2,0,,,,,,,,,0,0,0,0,0,23,23,23,2,0,2,0,,,,,,,,,,,,,,,,,,,,,,,,,,,,,,,,,,,,,,,,,,,,,,,,,,,,,,24,,,,,,,,159.9586871000938,159.9586871000938,159.9586871000938,159.9586871000938,159.9586871000938,up,0.22656279988586903,23,0,99,-0.08,-0.07999999999999997,up,0.13272339990362525,None,,,,,,,,,,,,,,,,,,,,,,,,,,,,,,,,,,,,,2024-07-01_13h50.23.308,HideSeek_v1,2023.1.3,59.88529565393414,
,1,1,1,6,0,5,66,,train_dim1_1,24,24,2,0,2,0,,,,,,,,,0,0,0,0,0,23,23,23,3,0,3,0,,,,,,,,,,,,,,,,,,,,,,,,,,,,,,,,,,,,,,,,,,,,,,,,,,,,,,24,,,,,,,,160.19211639999412,160.19211639999412,160.19211639999412,160.19211639999412,160.19211639999412,up,0.2772432998754084,23,0,99,-0.08,2.7755575615628914e-17,up,0.1737313000485301,None,,,,,,,,,,,,,,,,,,,,,,,,,,,,,,,,,,,,,2024-07-01_13h50.23.308,HideSeek_v1,2023.1.3,59.88529565393414,
,1,1,1,6,0,5,66,,train_dim1_1,24,24,2,0,2,0,,,,,,,,,0,0,0,0,0,23,23,23,4,0,4,0,,,,,,,,,,,,,,,,,,,,,,,,,,,,,,,,,,,,,,,,,,,,,,,,,,,,,,24,,,,,,,,160.47593370010145,160.47593370010145,160.47593370010145,160.47593370010145,160.47593370010145,up,0.24494800018146634,23,0,99,-0.08,0.08000000000000003,up,0.13896199990995228,None,,,,,,,,,,,,,,,,,,,,,,,,,,,,,,,,,,,,,2024-07-01_13h50.23.308,HideSeek_v1,2023.1.3,59.88529565393414,
,1,1,1,6,0,5,66,,train_dim1_1,24,24,2,0,2,0,,,,,,,,,0,0,0,0,0,23,23,23,5,0,5,0,,,,,,,,,,,,,,,,,,,,,,,,,,,,,,,,,,,,,,,,,,,,,,,,,,,,,,24,,,,,,,,160.73124770005234,160.73124770005234,160.73124770005234,160.73124770005234,160.73124770005234,return,0.22622100007720292,24,0,1,-0.08,0.08000000000000003,return,0.1170352001208812,None,78,0,-0.08,0.08000000000000003,,,,,,,,,,,,,,,,,,,,,,,,,,,,,,,,,2024-07-01_13h50.23.308,HideSeek_v1,2023.1.3,59.88529565393414,
,,,,,,,,,,,24,2,0,2,0,,,,,,,,,,,,,,,,,,,,,,,,,,,,,,,,,,,,,,,,,,,,,,,,,,,,,,,,,,,,,,,,stimuli/alien_stimuli/66.png,66,1,26,17,0.7,1.0,1,1,1,24,0,conditions/inputTrain_2.1.xlsx,99,1,2,1,0,,,,,,,,,,1,,,,,,,,,,163.89362989994697,,-0.08,0.08,0.4,0.0,-0.12,-0.08,-0.08,-0.08,0.08,162.54270890005864,162.54270890005864,162.54270890005864,162.54270890005864,162.54270890005864,162.54270890005864,162.54270890005864,162.54270890005864,162.5070109301014,1.4871855000965297,return,1.3267227001488209,None,0,1.0,0,1,24,,,,2024-07-01_13h50.23.308,HideSeek_v1,2023.1.3,59.88529565393414,
,,,,,,,,,,,,,,,,,,,,,,,,,,,,,,,,,,,,,,stimuli/instructions/Slide17.png,stimuli/instructions/Audio17.wav,165.4989913001191,165.4742707501864,,,,,,,,,,,,,,,,,,,,,,,,,,,,,,,,,,,,,,,,,,,,,,,,,,,,,,,,,,,,,,,,,,,,,,,,,,,,,,,,,,,,,,,,,,,,,,,,,,,,,,,,,,,,,,,
