trialInstr,x_fixStart,y_fixStart,x_corrSteps,y_corrSteps,x_nrSteps,y_nrSteps,alienID,trialLength,version,trialTrain,praclen,beforeExpLoop.thisRepN,beforeExpLoop.thisTrialN,beforeExpLoop.thisN,beforeExpLoop.thisIndex,mini_instr_trials.thisRepN,mini_instr_trials.thisTrialN,mini_instr_trials.thisN,mini_instr_trials.thisIndex,instrLoop.thisRepN,instrLoop.thisTrialN,instrLoop.thisN,instrLoop.thisIndex,repeat_prac.thisRepN,repeat_prac.thisTrialN,repeat_prac.thisN,repeat_prac.thisIndex,trainLoop.thisRepN,trainLoop.thisTrialN,trainLoop.thisN,trainLoop.thisIndex,moveLoop_train.thisRepN,moveLoop_train.thisTrialN,moveLoop_train.thisN,moveLoop_train.thisIndex,start_all_time,url,slideStim,audioStim,slides.started,sounds.started,nextButton.numClicks,nextButton.timesOn,nextButton.timesOff,prev_but.numClicks,prev_but.timesOn,prev_but.timesOff,alienStim,instrFile,alienStim_instr,gridImage_instr.started,startPos_3.started,key_instr.started,alienImage_3.started,sounds_1.started,key_instr.keys,key_instr.rt,key_instr.duration,all_x,all_y,FBy_corrSteps,FBy_fixStart,FBx_corrSteps,FBx_fixStart,FBy_pathSize_check,FBx_pathSize_check,gridImage_9.started,alienImageFB_3.started,startPosFB_3.started,keyFB_3.started,pathLine_ydir_2.started,pathLine_xdir_2.started,alienFace_3.started,sounds_2.started,RTFB_instr,keyFB_3.keys,keyFB_3.rt,keyFB_3.duration,draw_alienStim,draw_alienID,test_x,nrepcount,perfthres,percthres,earlierperf,earlystop,nextPrac,fileidx,praclen,saveACC_train,pracFile,nextPrac_train,addNrep,fileidx_endr,repExp,showearly,gridImage_4.started,startPos.started,movePos.started,key_resp.started,alienImage.started,buttonPress_train,RTchoice_train,cumAcctrain,saveACC_choice,corrAns,x_movePos_end,y_movePos_end,key_resp.keys,key_resp.rt,key_resp.duration,wLy_dir,wLx_dir,x_movePos,y_movePos,text_2.started,text_2.stopped,aft_x_corrPos,aft_y_corrPos,y_pathSize_check,x_pathSize_check,y_pathdirY,x_pathdirY,x_pathdirX,x_corrPos,y_corrPos,gridImage_6.started,alienImageFB_2.started,startPosFB_2.started,movePosFB_2.started,keyFB_2.started,pathLine_xdir.started,pathLine_ydir.started,alienFace.started,sounds_4.started,RT_FBtrain,keyFB_2.keys,keyFB_2.rt,keyFB_2.duration,saveACC_pre,ACC,within_saveACC_train,earlystop_wloop,cumAcctrain_check,participant,study_id,session_id,date,expName,psychopyVersion,frameRate,
,,,,,,,,,,,,0,0,0,0,0,0,0,0,,,,,,,,,,,,,,,,,start_all_time,testround,stimuli/instructions/Slide1.png,stimuli/instructions/Audio1.wav,9.819579999893904,9.696490590507164,1,[2.025099700083956],[2.025104400003329],0,,,,,,,,,,,,,,,,,,,,,,,,,,,,,,,,,,,,,,,,,,,,,,,,,,,,,,,,,,,,,,,,,,,,,,,,,,,,,,,,,,,,,,,,,,,,,,,,,,,,,,,2024-06-25_20h13.33.785,HideSeek_v1,2023.1.3,60.06871866188813,
,,,,,,,,,,,,0,0,0,0,1,0,1,0,,,,,,,,,,,,,,,,,,,stimuli/instructions/Slide2.png,stimuli/instructions/Audio2.wav,11.850183499976993,11.833672470087187,1,[0.3191100999247283],[0.31911449995823205],0,,,,,,,,,,,,,,,,,,,,,,,,,,,,,,,,,,,,,,,,,,,,,,,,,,,,,,,,,,,,,,,,,,,,,,,,,,,,,,,,,,,,,,,,,,,,,,,,,,,,,,,2024-06-25_20h13.33.785,HideSeek_v1,2023.1.3,60.06871866188813,
,,,,,,,,,,,,0,0,0,0,2,0,2,0,,,,,,,,,,,,,,,,,,,stimuli/instructions/Slide3.png,stimuli/instructions/Audio3.wav,12.2682789999526,12.251541360002012,1,[0.2510025000665337],[0.25100630009546876],0,,,,,,,,,,,,,,,,,,,,,,,,,,,,,,,,,,,,,,,,,,,,,,,,,,,,,,,,,,,,,,,,,,,,,,,,,,,,,,,,,,,,,,,,,,,,,,,,,,,,,,,2024-06-25_20h13.33.785,HideSeek_v1,2023.1.3,60.06871866188813,
,,,,,,,,,,,,0,0,0,0,3,0,3,0,,,,,,,,,,,,,,,,,,,stimuli/instructions/Slide4.png,stimuli/instructions/Audio4.wav,12.651908699888736,12.634034080058337,1,[0.1685636001639068],[0.16856879997067153],0,,,,,,,,,,,,,,,,,,,,,,,,,,,,,,,,,,,,,,,,,,,,,,,,,,,,,,,,,,,,,,,,,,,,,,,,,,,,,,,,,,,,,,,,,,,,,,,,,,,,,,,2024-06-25_20h13.33.785,HideSeek_v1,2023.1.3,60.06871866188813,
,,,,,,,,,,,,0,0,0,0,4,0,4,0,,,,,,,,,,,,,,,,,,,stimuli/instructions/Slide5.png,stimuli/instructions/Audio5.wav,12.86880709999241,12.866336539899931,1,[1.134234600001946],[1.1342386999167502],0,,,,,,,,,,,,,,,,,,,,,,,,,,,,,,,,,,,,,,,,,,,,,,,,,,,,,,,,,,,,,,,,,,,,,,,,,,,,,,,,,,,,,,,,,,,,,,,,,,,,,,,2024-06-25_20h13.33.785,HideSeek_v1,2023.1.3,60.06871866188813,
,,,,,,,,,,,,0,0,0,0,5,0,5,0,,,,,,,,,,,,,,,,,,,stimuli/instructions/Slide6.png,stimuli/instructions/Audio6.wav,14.049375799950212,14.033558329893276,1,[0.7519078000914305],[0.7519125000108033],0,,,,,,,,,,,,,,,,,,,,,,,,,,,,,,,,,,,,,,,,,,,,,,,,,,,,,,,,,,,,,,,,,,,,,,,,,,,,,,,,,,,,,,,,,,,,,,,,,,,,,,,2024-06-25_20h13.33.785,HideSeek_v1,2023.1.3,60.06871866188813,
,,,,,,,,,,,,0,0,0,0,6,0,6,0,,,,,,,,,,,,,,,,,,,stimuli/instructions/Slide7.png,stimuli/instructions/Audio7.wav,14.853799999924377,14.850694940006361,1,[1.3660834999755025],[1.366088500013575],0,,,,,,,,,,,,,,,,,,,,,,,,,,,,,,,,,,,,,,,,,,,,,,,,,,,,,,,,,,,,,,,,,,,,,,,,,,,,,,,,,,,,,,,,,,,,,,,,,,,,,,,2024-06-25_20h13.33.785,HideSeek_v1,2023.1.3,60.06871866188813,
,,,,,,,,,,,,0,0,0,0,7,0,7,0,,,,,,,,,,,,,,,,,,,stimuli/instructions/Slide8.png,stimuli/instructions/Audio8.wav,16.285752499941736,16.28485145000741,1,[0.3821878000162542],[0.38219120004214346],0,,,,,,,,,,,,,,,,,,,,,,,,,,,,,,,,,,,,,,,,,,,,,,,,,,,,,,,,,,,,,,,,,,,,,,,,,,,,,,,,,,,,,,,,,,,,,,,,,,,,,,,2024-06-25_20h13.33.785,HideSeek_v1,2023.1.3,60.06871866188813,
,,,,,,,,,,,,0,0,0,0,8,0,8,0,,,,,,,,,,,,,,,,,,,stimuli/instructions/Slide9.png,stimuli/instructions/Audio9.wav,16.728439699858427,16.71716634002514,1,[0.30632360000163317],[0.30632789991796017],0,,,,,,,,,,,,,,,,,,,,,,,,,,,,,,,,,,,,,,,,,,,,,,,,,,,,,,,,,,,,,,,,,,,,,,,,,,,,,,,,,,,,,,,,,,,,,,,,,,,,,,,2024-06-25_20h13.33.785,HideSeek_v1,2023.1.3,60.06871866188813,
,,,,,,,,,,,,0,0,0,0,9,0,9,0,,,,,,,,,,,,,,,,,,,stimuli/instructions/Slide10.png,stimuli/instructions/Audio10.wav,17.08955659996718,17.084002740029245,1,[0.3113478000741452],[0.31135180010460317],0,,,,,,,,,,,,,,,,,,,,,,,,,,,,,,,,,,,,,,,,,,,,,,,,,,,,,,,,,,,,,,,,,,,,,,,,,,,,,,,,,,,,,,,,,,,,,,,,,,,,,,,2024-06-25_20h13.33.785,HideSeek_v1,2023.1.3,60.06871866188813,
,,,,,,,,,,,,0,0,0,0,10,0,10,0,,,,,,,,,,,,,,,,,,,stimuli/instructions/Slide11.png,stimuli/instructions/Audio11.wav,17.460272599942982,17.450355140073224,1,[0.29054249986074865],[0.2905460998881608],0,,,,,,,,,,,,,,,,,,,,,,,,,,,,,,,,,,,,,,,,,,,,,,,,,,,,,,,,,,,,,,,,,,,,,,,,,,,,,,,,,,,,,,,,,,,,,,,,,,,,,,,2024-06-25_20h13.33.785,HideSeek_v1,2023.1.3,60.06871866188813,
,,,,,,,,,,,,0,0,0,0,11,0,11,0,,,,,,,,,,,,,,,,,,,stimuli/instructions/Slide12.png,stimuli/instructions/Audio12.wav,17.816115099936724,17.800280839949846,1,[0.2515501999296248],[0.25155350007116795],0,,,,,,,,,,,,,,,,,,,,,,,,,,,,,,,,,,,,,,,,,,,,,,,,,,,,,,,,,,,,,,,,,,,,,,,,,,,,,,,,,,,,,,,,,,,,,,,,,,,,,,,2024-06-25_20h13.33.785,HideSeek_v1,2023.1.3,60.06871866188813,
1,0,3,0,8,0,5,66,2,instr_dim1_1,,,0,0,0,0,,,,,0,0,0,0,,,,,,,,,,,,,,,,,,,,,,,,,stimuli/alien_stimuli/66.png,conditions/inputInstr_1.xlsx,stimuli/alien_stimuli/66.png,18.15225929999724,18.15225929999724,18.15225929999724,18.15225929999724,18.13351844996214,return,1.4082176003139466,None,"[-0.16, -0.08, 0, 0.08, 0.16, 0.24, 0.32, 0.4, 0.48, 0.56]","[-0.4, -0.32, -0.24, -0.16, -0.08, 0, 0.08, 0.16, 0.24, 0.32]",8,3,0,0,0.4,0.0,19.766850699903443,19.766850699903443,19.766850699903443,19.766850699903443,19.766850699903443,19.766850699903443,19.766850699903443,19.7168344900012,0.4510009998921305,return,0.23713410017080605,None,stimuli/alien_stimuli/66.png,66,0,1,,,,,,,,,,,,,,,,,,,,,,,,,,,,,,,,,,,,,,,,,,,,,,,,,,,,,,,,,,,,,,,,,,2024-06-25_20h13.33.785,HideSeek_v1,2023.1.3,60.06871866188813,
,,,,,,,,,,,24,0,0,0,0,,,,,,,,,,,,,,,,,,,,,,,,,,,,,,,,,,,,,,,,,,,,,,,,,,,,,,,,,,,,,,,,,,,,17,0.7,0,0,99,1,24,0,conditions/inputTrain_1.1.xlsx,99,1,1,1,0,,,,,,,,,,,,,,,,,,,,,,,,,,,,,,,,,,,,,,,,,,,,,,,,,,,,2024-06-25_20h13.33.785,HideSeek_v1,2023.1.3,60.06871866188813,
,,,,,,,,,,,,1,0,1,0,0,0,0,0,,,,,,,,,,,,,,,,,,,stimuli/instructions/Slide13.png,stimuli/instructions/Audio13.wav,20.220310899894685,20.217728919954972,1,[0.8970394998323172],[0.8970429999753833],0,,,,,,,,,,,,,,,,,,,,,,,,,,,,,,,,,,,,,,,,,,,,,,,,,,,,,,,,,,,,,,,,,,,,,,,,,,,,,,,,,,,,,,,,,,,,,,,,,,,,,,,2024-06-25_20h13.33.785,HideSeek_v1,2023.1.3,60.06871866188813,
,,,,,,,,,,,,1,0,1,0,1,0,1,0,,,,,,,,,,,,,,,,,,,stimuli/instructions/Slide14.png,stimuli/instructions/Audio14.wav,21.19004979985766,21.183463650057092,1,[0.462688900064677],[0.462693199981004],0,,,,,,,,,,,,,,,,,,,,,,,,,,,,,,,,,,,,,,,,,,,,,,,,,,,,,,,,,,,,,,,,,,,,,,,,,,,,,,,,,,,,,,,,,,,,,,,,,,,,,,,2024-06-25_20h13.33.785,HideSeek_v1,2023.1.3,60.06871866188813,
2,2,3,2,3,0,0,61,2,instr_dim1_1,,,1,0,1,0,,,,,0,0,0,0,,,,,,,,,,,,,,,,,,,,,,,,,stimuli/alien_stimuli/61.png,conditions/inputInstr_1.xlsx,stimuli/alien_stimuli/61.png,21.727113399887457,21.727113399887457,21.727113399887457,21.727113399887457,21.718624650035053,return,1.3417317001149058,None,"[-0.16, -0.08, 0, 0.08, 0.16, 0.24, 0.32, 0.4, 0.48, 0.56]","[-0.4, -0.32, -0.24, -0.16, -0.08, 0, 0.08, 0.16, 0.24, 0.32]",3,3,2,2,0.0,0.0,23.2335609998554,23.2335609998554,23.2335609998554,23.2335609998554,23.2335609998554,23.2335609998554,23.2335609998554,23.216951979883017,0.4006101000122726,return,0.24418310029432178,None,stimuli/alien_stimuli/61.png,61,2,2,,,,,,,,,,,,,,,,,,,,,,,,,,,,,,,,,,,,,,,,,,,,,,,,,,,,,,,,,,,,,,,,,,2024-06-25_20h13.33.785,HideSeek_v1,2023.1.3,60.06871866188813,
,,,,,,,,,,,24,1,0,1,0,,,,,,,,,,,,,,,,,,,,,,,,,,,,,,,,,,,,,,,,,,,,,,,,,,,,,,,,,,,,,,,,,,,,17,0.7,0,0,99,1,24,0,conditions/inputTrain_1.1.xlsx,99,1,1,1,0,,,,,,,,,,,,,,,,,,,,,,,,,,,,,,,,,,,,,,,,,,,,,,,,,,,,2024-06-25_20h13.33.785,HideSeek_v1,2023.1.3,60.06871866188813,
,,,,,,,,,,,,2,0,2,0,0,0,0,0,,,,,,,,,,,,,,,,,,,stimuli/instructions/Slide15.png,stimuli/instructions/Audio15.wav,23.699770299950615,23.68355001988821,1,[0.9679798001889139],[0.9679838002193719],0,,,,,,,,,,,,,,,,,,,,,,,,,,,,,,,,,,,,,,,,,,,,,,,,,,,,,,,,,,,,,,,,,,,,,,,,,,,,,,,,,,,,,,,,,,,,,,,,,,,,,,,2024-06-25_20h13.33.785,HideSeek_v1,2023.1.3,60.06871866188813,
,,,,,,,,,,,,2,0,2,0,1,0,1,0,,,,,,,,,,,,,,,,,,,stimuli/instructions/Slide16.png,stimuli/instructions/Audio16.wav,24.784145399928093,24.766711269877852,1,[0.6123118000105023],[0.6123158000409603],0,,,,,,,,,,,,,,,,,,,,,,,,,,,,,,,,,,,,,,,,,,,,,,,,,,,,,,,,,,,,,,,,,,,,,,,,,,,,,,,,,,,,,,,,,,,,,,,,,,,,,,,2024-06-25_20h13.33.785,HideSeek_v1,2023.1.3,60.06871866188813,
,2,0,2,1,0,1,62,,train_dim1_1,1,24,2,0,2,0,,,,,,,,,0,0,0,0,0,0,0,0,0,0,0,0,,,,,,,,,,,,,stimuli/alien_stimuli/62.png,,,,,,,,,,,,,,,,,,,,,,,,,,,,,,,,,,,,,,,,,24,,,,,,,,25.481322600040585,25.481322600040585,25.481322600040585,25.481322600040585,25.481322600040585,up,2.224447200074792,0,0,99,0,-0.32,up,2.111504000145942,None,,,,,,,,,,,,,,,,,,,,,,,,,,,,,,,,,,,,,2024-06-25_20h13.33.785,HideSeek_v1,2023.1.3,60.06871866188813,
,2,0,2,1,0,1,62,,train_dim1_1,1,24,2,0,2,0,,,,,,,,,0,0,0,0,0,0,0,0,1,0,1,0,,,,,,,,,,,,,,,,,,,,,,,,,,,,,,,,,,,,,,,,,,,,,,,,,,,,,,24,,,,,,,,27.733904599910602,27.733904599910602,27.733904599910602,27.733904599910602,27.733904599910602,return,0.34175939997658134,1,0,1,0,-0.32,return,0.20636830013245344,None,1,0,0,-0.32,,,,,,,,,,,,,,,,,,,,,,,,,,,,,,,,,2024-06-25_20h13.33.785,HideSeek_v1,2023.1.3,60.06871866188813,
,2,2,2,5,0,3,64,,train_dim1_1,2,24,2,0,2,0,,,,,,,,,0,0,0,0,0,1,1,1,0,0,0,0,,,,,,,,,,,,,stimuli/alien_stimuli/64.png,,,,,,,,,,,,,,,,,,,,,,,,,,,,,,,stimuli/alien_stimuli/62.png,62,2,3,,,,,,,24,,,,,,,,37.183518199948594,37.183518199948594,37.183518199948594,37.183518199948594,37.183518199948594,up,0.575571299996227,1,0,99,0,-0.15999999999999998,up,0.47300749993883073,None,,,,,35.60124249989167,29.683719399850816,0,-0.32,0.08,0.0,-0.36,0,0.0,0,-0.32,29.683719399850816,29.683719399850816,29.683719399850816,29.683719399850816,29.683719399850816,29.683719399850816,29.683719399850816,29.683719399850816,29.61698819003068,6.119662899989635,return,5.889404600020498,None,,,,,,,,,2024-06-25_20h13.33.785,HideSeek_v1,2023.1.3,60.06871866188813,
,2,2,2,5,0,3,64,,train_dim1_1,2,24,2,0,2,0,,,,,,,,,0,0,0,0,0,1,1,1,1,0,1,0,,,,,,,,,,,,,,,,,,,,,,,,,,,,,,,,,,,,,,,,,,,,,,,,,,,,,,24,,,,,,,,37.80171629996039,37.80171629996039,37.80171629996039,37.80171629996039,37.80171629996039,up,0.22617639997042716,1,0,99,0,-0.07999999999999997,up,0.09432810009457171,None,,,,,,,,,,,,,,,,,,,,,,,,,,,,,,,,,,,,,2024-06-25_20h13.33.785,HideSeek_v1,2023.1.3,60.06871866188813,
,2,2,2,5,0,3,64,,train_dim1_1,2,24,2,0,2,0,,,,,,,,,0,0,0,0,0,1,1,1,2,0,2,0,,,,,,,,,,,,,,,,,,,,,,,,,,,,,,,,,,,,,,,,,,,,,,,,,,,,,,24,,,,,,,,38.00170879997313,38.00170879997313,38.00170879997313,38.00170879997313,38.00170879997313,up,0.2274567000567913,1,0,99,0,2.7755575615628914e-17,up,0.12081630015745759,None,,,,,,,,,,,,,,,,,,,,,,,,,,,,,,,,,,,,,2024-06-25_20h13.33.785,HideSeek_v1,2023.1.3,60.06871866188813,
,2,2,2,5,0,3,64,,train_dim1_1,2,24,2,0,2,0,,,,,,,,,0,0,0,0,0,1,1,1,3,0,3,0,,,,,,,,,,,,,,,,,,,,,,,,,,,,,,,,,,,,,,,,,,,,,,,,,,,,,,24,,,,,,,,38.227377800038084,38.227377800038084,38.227377800038084,38.227377800038084,38.227377800038084,return,0.3271510999184102,2,0,1,0,2.7755575615628914e-17,return,0.2360624000430107,None,4,0,0,2.7755575615628914e-17,,,,,,,,,,,,,,,,,,,,,,,,,,,,,,,,,2024-06-25_20h13.33.785,HideSeek_v1,2023.1.3,60.06871866188813,
,3,3,3,8,0,5,66,,train_dim1_1,3,24,2,0,2,0,,,,,,,,,0,0,0,0,0,2,2,2,0,0,0,0,,,,,,,,,,,,,stimuli/alien_stimuli/66.png,,,,,,,,,,,,,,,,,,,,,,,,,,,,,,,stimuli/alien_stimuli/64.png,64,2,4,,,,,,,24,,,,,,,,43.60004909988493,43.60004909988493,43.60004909988493,43.60004909988493,43.60004909988493,up,0.8251928000245243,2,0,99,0.08,-0.08,up,0.7317927002441138,None,,,,,42.03365859994665,43.60004909988493,0,0,0.24,0.0,-0.12,0,0.0,0,0,40.118059099884704,40.118059099884704,40.118059099884704,40.118059099884704,40.118059099884704,40.118059099884704,40.118059099884704,40.118059099884704,40.10033496995456,2.0351353001315147,return,1.8867001999169588,None,,,,,,,,,2024-06-25_20h13.33.785,HideSeek_v1,2023.1.3,60.06871866188813,
,3,3,3,8,0,5,66,,train_dim1_1,3,24,2,0,2,0,,,,,,,,,0,0,0,0,0,2,2,2,1,0,1,0,,,,,,,,,,,,,,,,,,,,,,,,,,,,,,,,,,,,,,,,,,,,,,,,,,,,,,24,,,,,,,,44.41982589988038,44.41982589988038,44.41982589988038,44.41982589988038,44.41982589988038,up,0.2932607000693679,2,0,99,0.08,0.0,up,0.21031070011667907,None,,,,,,,,,,,,,,,,,,,,,,,,,,,,,,,,,,,,,2024-06-25_20h13.33.785,HideSeek_v1,2023.1.3,60.06871866188813,
,3,3,3,8,0,5,66,,train_dim1_1,3,24,2,0,2,0,,,,,,,,,0,0,0,0,0,2,2,2,2,0,2,0,,,,,,,,,,,,,,,,,,,,,,,,,,,,,,,,,,,,,,,,,,,,,,,,,,,,,,24,,,,,,,,44.733839799882844,44.733839799882844,44.733839799882844,44.733839799882844,44.733839799882844,up,0.26043589995242655,2,0,99,0.08,0.08,up,0.1576428001280874,None,,,,,,,,,,,,,,,,,,,,,,,,,,,,,,,,,,,,,2024-06-25_20h13.33.785,HideSeek_v1,2023.1.3,60.06871866188813,
,3,3,3,8,0,5,66,,train_dim1_1,3,24,2,0,2,0,,,,,,,,,0,0,0,0,0,2,2,2,3,0,3,0,,,,,,,,,,,,,,,,,,,,,,,,,,,,,,,,,,,,,,,,,,,,,,,,,,,,,,24,,,,,,,,44.98635039990768,44.98635039990768,44.98635039990768,44.98635039990768,44.98635039990768,up,0.2942250999622047,2,0,99,0.08,0.16,up,0.21227330015972257,None,,,,,,,,,,,,,,,,,,,,,,,,,,,,,,,,,,,,,2024-06-25_20h13.33.785,HideSeek_v1,2023.1.3,60.06871866188813,
,3,3,3,8,0,5,66,,train_dim1_1,3,24,2,0,2,0,,,,,,,,,0,0,0,0,0,2,2,2,4,0,4,0,,,,,,,,,,,,,,,,,,,,,,,,,,,,,,,,,,,,,,,,,,,,,,,,,,,,,,24,,,,,,,,45.299634400056675,45.299634400056675,45.299634400056675,45.299634400056675,45.299634400056675,up,0.2935476000420749,2,0,99,0.08,0.24,up,0.19066440011374652,None,,,,,,,,,,,,,,,,,,,,,,,,,,,,,,,,,,,,,2024-06-25_20h13.33.785,HideSeek_v1,2023.1.3,60.06871866188813,
,3,3,3,8,0,5,66,,train_dim1_1,3,24,2,0,2,0,,,,,,,,,0,0,0,0,0,2,2,2,5,0,5,0,,,,,,,,,,,,,,,,,,,,,,,,,,,,,,,,,,,,,,,,,,,,,,,,,,,,,,24,,,,,,,,45.587101500015706,45.587101500015706,45.587101500015706,45.587101500015706,45.587101500015706,return,0.6270625998731703,3,0,1,0.08,0.24,return,0.5393975002225488,None,9,0,0.08,0.24,,,,,,,,,,,,,,,,,,,,,,,,,,,,,,,,,2024-06-25_20h13.33.785,HideSeek_v1,2023.1.3,60.06871866188813,
,4,4,4,8,0,4,65,,train_dim1_1,4,24,2,0,2,0,,,,,,,,,0,0,0,0,0,3,3,3,0,0,0,0,,,,,,,,,,,,,stimuli/alien_stimuli/65.png,,,,,,,,,,,,,,,,,,,,,,,,,,,,,,,stimuli/alien_stimuli/66.png,66,3,5,,,,,,,24,,,,,,,,50.2500889999792,50.2500889999792,50.2500889999792,50.2500889999792,50.2500889999792,up,0.8082202998921275,3,0,99,0.16,0.0,up,0.7110885002184659,None,,,,,48.683812599861994,50.2500889999792,0.08,0.24,0.4,0.0,0.039999999999999994,0.08,0.08,0.08,0.24,47.769804100040346,47.769804100040346,47.769804100040346,47.769804100040346,47.769804100040346,47.769804100040346,47.769804100040346,47.769804100040346,47.74984345999546,1.019012700067833,return,0.8855171999894083,None,,,,,,,,,2024-06-25_20h13.33.785,HideSeek_v1,2023.1.3,60.06871866188813,
,4,4,4,8,0,4,65,,train_dim1_1,4,24,2,0,2,0,,,,,,,,,0,0,0,0,0,3,3,3,1,0,1,0,,,,,,,,,,,,,,,,,,,,,,,,,,,,,,,,,,,,,,,,,,,,,,,,,,,,,,24,,,,,,,,51.05575209995732,51.05575209995732,51.05575209995732,51.05575209995732,51.05575209995732,up,0.2764065999072045,3,0,99,0.16,0.08,up,0.19150059996172786,None,,,,,,,,,,,,,,,,,,,,,,,,,,,,,,,,,,,,,2024-06-25_20h13.33.785,HideSeek_v1,2023.1.3,60.06871866188813,
,4,4,4,8,0,4,65,,train_dim1_1,4,24,2,0,2,0,,,,,,,,,0,0,0,0,0,3,3,3,2,0,2,0,,,,,,,,,,,,,,,,,,,,,,,,,,,,,,,,,,,,,,,,,,,,,,,,,,,,,,24,,,,,,,,51.35078540001996,51.35078540001996,51.35078540001996,51.35078540001996,51.35078540001996,up,0.261335700051859,3,0,99,0.16,0.16,up,0.16319150011986494,None,,,,,,,,,,,,,,,,,,,,,,,,,,,,,,,,,,,,,2024-06-25_20h13.33.785,HideSeek_v1,2023.1.3,60.06871866188813,
,4,4,4,8,0,4,65,,train_dim1_1,4,24,2,0,2,0,,,,,,,,,0,0,0,0,0,3,3,3,3,0,3,0,,,,,,,,,,,,,,,,,,,,,,,,,,,,,,,,,,,,,,,,,,,,,,,,,,,,,,24,,,,,,,,51.60962799983099,51.60962799983099,51.60962799983099,51.60962799983099,51.60962799983099,up,0.2102451000828296,3,0,99,0.16,0.24,up,0.11554479994811118,None,,,,,,,,,,,,,,,,,,,,,,,,,,,,,,,,,,,,,2024-06-25_20h13.33.785,HideSeek_v1,2023.1.3,60.06871866188813,
,4,4,4,8,0,4,65,,train_dim1_1,4,24,2,0,2,0,,,,,,,,,0,0,0,0,0,3,3,3,4,0,4,0,,,,,,,,,,,,,,,,,,,,,,,,,,,,,,,,,,,,,,,,,,,,,,,,,,,,,,24,,,,,,,,51.8336928000208,51.8336928000208,51.8336928000208,51.8336928000208,51.8336928000208,return,0.29390249983407557,4,0,1,0.16,0.24,return,0.18518829997628927,None,13,0,0.16,0.24,,,,,,,,,,,,,,,,,,,,,,,,,,,,,,,,,2024-06-25_20h13.33.785,HideSeek_v1,2023.1.3,60.06871866188813,
,3,4,3,5,0,1,62,,train_dim1_1,5,24,2,0,2,0,,,,,,,,,0,0,0,0,0,4,4,4,0,0,0,0,,,,,,,,,,,,,stimuli/alien_stimuli/62.png,,,,,,,,,,,,,,,,,,,,,,,,,,,,,,,stimuli/alien_stimuli/65.png,65,4,6,,,,,,,24,,,,,,,,56.58488940005191,56.58488940005191,56.58488940005191,56.58488940005191,56.58488940005191,up,0.6915420000441372,4,0,99,0.08,0.0,up,0.5958260002080351,None,,,,,55.0168450998608,56.58488940005191,0.16,0.24,0.32,0.0,0.07999999999999999,0.16,0.16,0.16,0.24,53.66890259995125,53.66890259995125,53.66890259995125,53.66890259995125,53.66890259995125,53.66890259995125,53.66890259995125,53.66890259995125,53.64995886008255,1.4520962999667972,return,1.3305480999406427,None,,,,,,,,,2024-06-25_20h13.33.785,HideSeek_v1,2023.1.3,60.06871866188813,
,3,4,3,5,0,1,62,,train_dim1_1,5,24,2,0,2,0,,,,,,,,,0,0,0,0,0,4,4,4,1,0,1,0,,,,,,,,,,,,,,,,,,,,,,,,,,,,,,,,,,,,,,,,,,,,,,,,,,,,,,24,,,,,,,,57.2837096999865,57.2837096999865,57.2837096999865,57.2837096999865,57.2837096999865,return,0.44360690005123615,5,0,1,0.08,0.0,return,0.3346086002420634,None,14,0,0.08,0.0,,,,,,,,,,,,,,,,,,,,,,,,,,,,,,,,,2024-06-25_20h13.33.785,HideSeek_v1,2023.1.3,60.06871866188813,
,4,0,4,4,0,4,65,,train_dim1_1,6,24,2,0,2,0,,,,,,,,,0,0,0,0,0,5,5,5,0,0,0,0,,,,,,,,,,,,,stimuli/alien_stimuli/65.png,,,,,,,,,,,,,,,,,,,,,,,,,,,,,,,stimuli/alien_stimuli/62.png,62,3,7,,,,,,,24,,,,,,,,62.06666580005549,62.06666580005549,62.06666580005549,62.06666580005549,62.06666580005549,up,0.6894175999332219,5,0,99,0.16,-0.32,up,0.5890319999307394,None,,,,,60.50041619990952,62.06666580005549,0.08,0,0.08,0.0,-0.04,0.08,0.08,0.08,0,59.301888999994844,59.301888999994844,59.301888999994844,59.301888999994844,59.301888999994844,59.301888999994844,59.301888999994844,59.301888999994844,59.28343806988559,1.3195708999410272,return,1.1748486999422312,None,,,,,,,,,2024-06-25_20h13.33.785,HideSeek_v1,2023.1.3,60.06871866188813,
,4,0,4,4,0,4,65,,train_dim1_1,6,24,2,0,2,0,,,,,,,,,0,0,0,0,0,5,5,5,1,0,1,0,,,,,,,,,,,,,,,,,,,,,,,,,,,,,,,,,,,,,,,,,,,,,,,,,,,,,,24,,,,,,,,62.76691449992359,62.76691449992359,62.76691449992359,62.76691449992359,62.76691449992359,up,0.628192099975422,5,0,99,0.16,-0.24,up,0.5291242999956012,None,,,,,,,,,,,,,,,,,,,,,,,,,,,,,,,,,,,,,2024-06-25_20h13.33.785,HideSeek_v1,2023.1.3,60.06871866188813,
,4,0,4,4,0,4,65,,train_dim1_1,6,24,2,0,2,0,,,,,,,,,0,0,0,0,0,5,5,5,2,0,2,0,,,,,,,,,,,,,,,,,,,,,,,,,,,,,,,,,,,,,,,,,,,,,,,,,,,,,,24,,,,,,,,63.400197099894285,63.400197099894285,63.400197099894285,63.400197099894285,63.400197099894285,up,0.3773602000437677,5,0,99,0.16,-0.15999999999999998,up,0.2759414000902325,None,,,,,,,,,,,,,,,,,,,,,,,,,,,,,,,,,,,,,2024-06-25_20h13.33.785,HideSeek_v1,2023.1.3,60.06871866188813,
,4,0,4,4,0,4,65,,train_dim1_1,6,24,2,0,2,0,,,,,,,,,0,0,0,0,0,5,5,5,3,0,3,0,,,,,,,,,,,,,,,,,,,,,,,,,,,,,,,,,,,,,,,,,,,,,,,,,,,,,,24,,,,,,,,63.77543929987587,63.77543929987587,63.77543929987587,63.77543929987587,63.77543929987587,up,0.8772002998739481,5,0,99,0.16,-0.07999999999999997,up,0.7820886003319174,None,,,,,,,,,,,,,,,,,,,,,,,,,,,,,,,,,,,,,2024-06-25_20h13.33.785,HideSeek_v1,2023.1.3,60.06871866188813,
,4,0,4,4,0,4,65,,train_dim1_1,6,24,2,0,2,0,,,,,,,,,0,0,0,0,0,5,5,5,4,0,4,0,,,,,,,,,,,,,,,,,,,,,,,,,,,,,,,,,,,,,,,,,,,,,,,,,,,,,,24,,,,,,,,64.66670529986732,64.66670529986732,64.66670529986732,64.66670529986732,64.66670529986732,return,0.4437786000780761,6,0,1,0.16,-0.07999999999999997,return,0.3364326001610607,None,18,0,0.16,-0.07999999999999997,,,,,,,,,,,,,,,,,,,,,,,,,,,,,,,,,2024-06-25_20h13.33.785,HideSeek_v1,2023.1.3,60.06871866188813,
,0,3,0,6,0,3,64,,train_dim1_1,7,24,2,0,2,0,,,,,,,,,0,0,0,0,0,6,6,6,0,0,0,0,,,,,,,,,,,,,stimuli/alien_stimuli/64.png,,,,,,,,,,,,,,,,,,,,,,,,,,,,,,,stimuli/alien_stimuli/65.png,65,4,8,,,,,,,24,,,,,,,,68.91678570001386,68.91678570001386,68.91678570001386,68.91678570001386,68.91678570001386,up,8.057392899878323,6,0,99,-0.16,-0.08,up,7.955452100140974,None,,,,,67.3498857000377,68.91678570001386,0.16,-0.08,0.32,0.0,-0.24000000000000002,0.16,0.16,0.16,-0.08,66.66713029984385,66.66713029984385,66.66713029984385,66.66713029984385,66.66713029984385,66.66713029984385,66.66713029984385,66.66713029984385,66.64972286988049,0.8019817001186311,return,0.6567139001563191,None,,,,,,,,,2024-06-25_20h13.33.785,HideSeek_v1,2023.1.3,60.06871866188813,
,0,3,0,6,0,3,64,,train_dim1_1,7,24,2,0,2,0,,,,,,,,,0,0,0,0,0,6,6,6,1,0,1,0,,,,,,,,,,,,,,,,,,,,,,,,,,,,,,,,,,,,,,,,,,,,,,,,,,,,,,24,,,,,,,,76.96870119986124,76.96870119986124,76.96870119986124,76.96870119986124,76.96870119986124,up,0.22686519986018538,6,0,99,-0.16,0.0,up,0.1331576001830399,None,,,,,,,,,,,,,,,,,,,,,,,,,,,,,,,,,,,,,2024-06-25_20h13.33.785,HideSeek_v1,2023.1.3,60.06871866188813,
,0,3,0,6,0,3,64,,train_dim1_1,7,24,2,0,2,0,,,,,,,,,0,0,0,0,0,6,6,6,2,0,2,0,,,,,,,,,,,,,,,,,,,,,,,,,,,,,,,,,,,,,,,,,,,,,,,,,,,,,,24,,,,,,,,77.2027902000118,77.2027902000118,77.2027902000118,77.2027902000118,77.2027902000118,up,0.17742089997045696,6,0,99,-0.16,0.08,up,0.0882107000797987,None,,,,,,,,,,,,,,,,,,,,,,,,,,,,,,,,,,,,,2024-06-25_20h13.33.785,HideSeek_v1,2023.1.3,60.06871866188813,
,0,3,0,6,0,3,64,,train_dim1_1,7,24,2,0,2,0,,,,,,,,,0,0,0,0,0,6,6,6,3,0,3,0,,,,,,,,,,,,,,,,,,,,,,,,,,,,,,,,,,,,,,,,,,,,,,,,,,,,,,24,,,,,,,,77.38844889984466,77.38844889984466,77.38844889984466,77.38844889984466,77.38844889984466,return,0.24439150001853704,7,0,1,-0.16,0.08,return,0.15850610006600618,None,21,0,-0.16,0.08,,,,,,,,,,,,,,,,,,,,,,,,,,,,,,,,,2024-06-25_20h13.33.785,HideSeek_v1,2023.1.3,60.06871866188813,
,4,1,4,6,0,5,66,,train_dim1_1,8,24,2,0,2,0,,,,,,,,,0,0,0,0,0,7,7,7,0,0,0,0,,,,,,,,,,,,,stimuli/alien_stimuli/66.png,,,,,,,,,,,,,,,,,,,,,,,,,,,,,,,stimuli/alien_stimuli/64.png,64,0,9,,,,,,,24,,,,,,,,81.5496747000143,81.5496747000143,81.5496747000143,81.5496747000143,81.5496747000143,up,9.774784500012174,7,0,99,0.16,-0.24,up,9.668487899936736,None,,,,,79.98319990001619,81.5496747000143,-0.16,0.08,0.24,0.0,-0.04,-0.16,-0.16,-0.16,0.08,79.21669489983469,79.21669489983469,79.21669489983469,79.21669489983469,79.21669489983469,79.21669489983469,79.21669489983469,79.21669489983469,79.19995787008665,0.8847795999608934,return,0.7380037000402808,None,,,,,,,,,2024-06-25_20h13.33.785,HideSeek_v1,2023.1.3,60.06871866188813,
,4,1,4,6,0,5,66,,train_dim1_1,8,24,2,0,2,0,,,,,,,,,0,0,0,0,0,7,7,7,1,0,1,0,,,,,,,,,,,,,,,,,,,,,,,,,,,,,,,,,,,,,,,,,,,,,,,,,,,,,,24,,,,,,,,91.31953239999712,91.31953239999712,91.31953239999712,91.31953239999712,91.31953239999712,up,0.21054899995215237,7,0,99,0.16,-0.15999999999999998,up,0.11988300015218556,None,,,,,,,,,,,,,,,,,,,,,,,,,,,,,,,,,,,,,2024-06-25_20h13.33.785,HideSeek_v1,2023.1.3,60.06871866188813,
,4,1,4,6,0,5,66,,train_dim1_1,8,24,2,0,2,0,,,,,,,,,0,0,0,0,0,7,7,7,2,0,2,0,,,,,,,,,,,,,,,,,,,,,,,,,,,,,,,,,,,,,,,,,,,,,,,,,,,,,,24,,,,,,,,91.54981829994358,91.54981829994358,91.54981829994358,91.54981829994358,91.54981829994358,up,0.17736020009033382,7,0,99,0.16,-0.07999999999999997,up,0.0783154999371618,None,,,,,,,,,,,,,,,,,,,,,,,,,,,,,,,,,,,,,2024-06-25_20h13.33.785,HideSeek_v1,2023.1.3,60.06871866188813,
,4,1,4,6,0,5,66,,train_dim1_1,8,24,2,0,2,0,,,,,,,,,0,0,0,0,0,7,7,7,3,0,3,0,,,,,,,,,,,,,,,,,,,,,,,,,,,,,,,,,,,,,,,,,,,,,,,,,,,,,,24,,,,,,,,91.72467579995282,91.72467579995282,91.72467579995282,91.72467579995282,91.72467579995282,up,0.17779129999689758,7,0,99,0.16,2.7755575615628914e-17,up,0.08381860004737973,None,,,,,,,,,,,,,,,,,,,,,,,,,,,,,,,,,,,,,2024-06-25_20h13.33.785,HideSeek_v1,2023.1.3,60.06871866188813,
,4,1,4,6,0,5,66,,train_dim1_1,8,24,2,0,2,0,,,,,,,,,0,0,0,0,0,7,7,7,4,0,4,0,,,,,,,,,,,,,,,,,,,,,,,,,,,,,,,,,,,,,,,,,,,,,,,,,,,,,,24,,,,,,,,91.9078911000397,91.9078911000397,91.9078911000397,91.9078911000397,91.9078911000397,up,0.15947549999691546,7,0,99,0.16,0.08000000000000003,up,0.06100960006006062,None,,,,,,,,,,,,,,,,,,,,,,,,,,,,,,,,,,,,,2024-06-25_20h13.33.785,HideSeek_v1,2023.1.3,60.06871866188813,
,4,1,4,6,0,5,66,,train_dim1_1,8,24,2,0,2,0,,,,,,,,,0,0,0,0,0,7,7,7,5,0,5,0,,,,,,,,,,,,,,,,,,,,,,,,,,,,,,,,,,,,,,,,,,,,,,,,,,,,,,24,,,,,,,,92.08293220004998,92.08293220004998,92.08293220004998,92.08293220004998,92.08293220004998,return,0.24430979997850955,8,0,1,0.16,0.08000000000000003,return,0.13860290008597076,None,26,0,0.16,0.08000000000000003,,,,,,,,,,,,,,,,,,,,,,,,,,,,,,,,,2024-06-25_20h13.33.785,HideSeek_v1,2023.1.3,60.06871866188813,
,1,3,1,6,0,3,64,,train_dim1_1,9,24,2,0,2,0,,,,,,,,,0,0,0,0,0,8,8,8,0,0,0,0,,,,,,,,,,,,,stimuli/alien_stimuli/64.png,,,,,,,,,,,,,,,,,,,,,,,,,,,,,,,stimuli/alien_stimuli/66.png,66,4,10,,,,,,,24,,,,,,,,100.0495330998674,100.0495330998674,100.0495330998674,100.0495330998674,100.0495330998674,up,1.407744600204751,8,0,99,-0.08,-0.08,up,1.3018590002320707,None,,,,,98.48318780004047,100.0495330998674,0.16,0.08,0.4,0.0,-0.12,0.16,0.16,0.16,0.08,93.89972579991445,93.89972579991445,93.89972579991445,93.89972579991445,93.89972579991445,93.89972579991445,93.89972579991445,93.89972579991445,93.86643026992678,4.719040900003165,return,4.557475900044665,None,,,,,,,,,2024-06-25_20h13.33.785,HideSeek_v1,2023.1.3,60.06871866188813,
,1,3,1,6,0,3,64,,train_dim1_1,9,24,2,0,2,0,,,,,,,,,0,0,0,0,0,8,8,8,1,0,1,0,,,,,,,,,,,,,,,,,,,,,,,,,,,,,,,,,,,,,,,,,,,,,,,,,,,,,,24,,,,,,,,101.45235939999111,101.45235939999111,101.45235939999111,101.45235939999111,101.45235939999111,up,0.20994020020589232,8,0,99,-0.08,0.0,up,0.12083650007843971,None,,,,,,,,,,,,,,,,,,,,,,,,,,,,,,,,,,,,,2024-06-25_20h13.33.785,HideSeek_v1,2023.1.3,60.06871866188813,
,1,3,1,6,0,3,64,,train_dim1_1,9,24,2,0,2,0,,,,,,,,,0,0,0,0,0,8,8,8,2,0,2,0,,,,,,,,,,,,,,,,,,,,,,,,,,,,,,,,,,,,,,,,,,,,,,,,,,,,,,24,,,,,,,,101.67155189998448,101.67155189998448,101.67155189998448,101.67155189998448,101.67155189998448,up,0.14431539992801845,8,0,99,-0.08,0.08,up,0.05924320011399686,None,,,,,,,,,,,,,,,,,,,,,,,,,,,,,,,,,,,,,2024-06-25_20h13.33.785,HideSeek_v1,2023.1.3,60.06871866188813,
,1,3,1,6,0,3,64,,train_dim1_1,9,24,2,0,2,0,,,,,,,,,0,0,0,0,0,8,8,8,3,0,3,0,,,,,,,,,,,,,,,,,,,,,,,,,,,,,,,,,,,,,,,,,,,,,,,,,,,,,,24,,,,,,,,101.81892620003782,101.81892620003782,101.81892620003782,101.81892620003782,101.81892620003782,return,0.22754730004817247,9,0,1,-0.08,0.08,return,0.13891460001468658,None,29,0,-0.08,0.08,,,,,,,,,,,,,,,,,,,,,,,,,,,,,,,,,2024-06-25_20h13.33.785,HideSeek_v1,2023.1.3,60.06871866188813,
,0,0,0,4,0,4,65,,train_dim1_1,10,24,2,0,2,0,,,,,,,,,0,0,0,0,0,9,9,9,0,0,0,0,,,,,,,,,,,,,stimuli/alien_stimuli/65.png,,,,,,,,,,,,,,,,,,,,,,,,,,,,,,,stimuli/alien_stimuli/64.png,64,1,11,,,,,,,24,,,,,,,,106.73311489983462,106.73311489983462,106.73311489983462,106.73311489983462,106.73311489983462,up,1.1921741999685764,9,0,99,-0.16,-0.32,up,1.0982334001455456,None,,,,,105.16629139985889,106.73311489983462,-0.08,0.08,0.24,0.0,-0.04,-0.08,-0.08,-0.08,0.08,103.6011413000524,103.6011413000524,103.6011413000524,103.6011413000524,103.6011413000524,103.6011413000524,103.6011413000524,103.6011413000524,103.5828104600776,1.6684882999397814,return,1.53734749997966,None,,,,,,,,,2024-06-25_20h13.33.785,HideSeek_v1,2023.1.3,60.06871866188813,
,0,0,0,4,0,4,65,,train_dim1_1,10,24,2,0,2,0,,,,,,,,,0,0,0,0,0,9,9,9,1,0,1,0,,,,,,,,,,,,,,,,,,,,,,,,,,,,,,,,,,,,,,,,,,,,,,,,,,,,,,24,,,,,,,,107.91919009992853,107.91919009992853,107.91919009992853,107.91919009992853,107.91919009992853,up,0.17710980004630983,9,0,99,-0.16,-0.24,up,0.09658860019408166,None,,,,,,,,,,,,,,,,,,,,,,,,,,,,,,,,,,,,,2024-06-25_20h13.33.785,HideSeek_v1,2023.1.3,60.06871866188813,
,0,0,0,4,0,4,65,,train_dim1_1,10,24,2,0,2,0,,,,,,,,,0,0,0,0,0,9,9,9,2,0,2,0,,,,,,,,,,,,,,,,,,,,,,,,,,,,,,,,,,,,,,,,,,,,,,,,,,,,,,24,,,,,,,,108.1162310000509,108.1162310000509,108.1162310000509,108.1162310000509,108.1162310000509,up,0.1778860001359135,9,0,99,-0.16,-0.15999999999999998,up,0.08466850011609495,None,,,,,,,,,,,,,,,,,,,,,,,,,,,,,,,,,,,,,2024-06-25_20h13.33.785,HideSeek_v1,2023.1.3,60.06871866188813,
,0,0,0,4,0,4,65,,train_dim1_1,10,24,2,0,2,0,,,,,,,,,0,0,0,0,0,9,9,9,3,0,3,0,,,,,,,,,,,,,,,,,,,,,,,,,,,,,,,,,,,,,,,,,,,,,,,,,,,,,,24,,,,,,,,108.29082360002212,108.29082360002212,108.29082360002212,108.29082360002212,108.29082360002212,up,0.1591342999599874,9,0,99,-0.16,-0.07999999999999997,up,0.06116450019180775,None,,,,,,,,,,,,,,,,,,,,,,,,,,,,,,,,,,,,,2024-06-25_20h13.33.785,HideSeek_v1,2023.1.3,60.06871866188813,
,0,0,0,4,0,4,65,,train_dim1_1,10,24,2,0,2,0,,,,,,,,,0,0,0,0,0,9,9,9,4,0,4,0,,,,,,,,,,,,,,,,,,,,,,,,,,,,,,,,,,,,,,,,,,,,,,,,,,,,,,24,,,,,,,,108.45339589985088,108.45339589985088,108.45339589985088,108.45339589985088,108.45339589985088,return,1.3942684000357985,10,0,1,-0.16,-0.07999999999999997,return,1.3065595000516623,None,33,0,-0.16,-0.07999999999999997,,,,,,,,,,,,,,,,,,,,,,,,,,,,,,,,,2024-06-25_20h13.33.785,HideSeek_v1,2023.1.3,60.06871866188813,
,4,2,4,3,0,1,62,,train_dim1_1,11,24,2,0,2,0,,,,,,,,,0,0,0,0,0,10,10,10,0,0,0,0,,,,,,,,,,,,,stimuli/alien_stimuli/62.png,,,,,,,,,,,,,,,,,,,,,,,,,,,,,,,stimuli/alien_stimuli/65.png,65,0,12,,,,,,,24,,,,,,,,114.26599800004624,114.26599800004624,114.26599800004624,114.26599800004624,114.26599800004624,up,2.3750883999746293,10,0,99,0.16,-0.15999999999999998,up,2.2678395002149045,None,,,,,112.69909520004876,114.26599800004624,-0.16,-0.08,0.32,0.0,-0.24000000000000002,-0.16,-0.16,-0.16,-0.08,111.40019049984403,111.40019049984403,111.40019049984403,111.40019049984403,111.40019049984403,111.40019049984403,111.40019049984403,111.40019049984403,111.38287225989625,1.401853600051254,return,1.2766336998902261,None,,,,,,,,,2024-06-25_20h13.33.785,HideSeek_v1,2023.1.3,60.06871866188813,
,4,2,4,3,0,1,62,,train_dim1_1,11,24,2,0,2,0,,,,,,,,,0,0,0,0,0,10,10,10,1,0,1,0,,,,,,,,,,,,,,,,,,,,,,,,,,,,,,,,,,,,,,,,,,,,,,,,,,,,,,24,,,,,,,,116.63657570001669,116.63657570001669,116.63657570001669,116.63657570001669,116.63657570001669,return,0.25992560014128685,11,0,1,0.16,-0.15999999999999998,return,0.1775943001266569,None,34,0,0.16,-0.15999999999999998,,,,,,,,,,,,,,,,,,,,,,,,,,,,,,,,,2024-06-25_20h13.33.785,HideSeek_v1,2023.1.3,60.06871866188813,
,3,0,3,5,0,5,66,,train_dim1_1,12,24,2,0,2,0,,,,,,,,,0,0,0,0,0,11,11,11,0,0,0,0,,,,,,,,,,,,,stimuli/alien_stimuli/66.png,,,,,,,,,,,,,,,,,,,,,,,,,,,,,,,stimuli/alien_stimuli/62.png,62,4,13,,,,,,,24,,,,,,,,120.86591169983149,120.86591169983149,120.86591169983149,120.86591169983149,120.86591169983149,up,0.9088880999479443,11,0,99,0.08,-0.32,up,0.8113851000089198,None,,,,,119.29957169992849,120.86591169983149,0.16,-0.16,0.08,0.0,-0.2,0.16,0.16,0.16,-0.16,118.44958500005305,118.44958500005305,118.44958500005305,118.44958500005305,118.44958500005305,118.44958500005305,118.44958500005305,118.44958500005305,118.43250865996815,0.9512569000944495,return,0.810873000184074,0.011504299938678741,,,,,,,,,2024-06-25_20h13.33.785,HideSeek_v1,2023.1.3,60.06871866188813,
,3,0,3,5,0,5,66,,train_dim1_1,12,24,2,0,2,0,,,,,,,,,0,0,0,0,0,11,11,11,1,0,1,0,,,,,,,,,,,,,,,,,,,,,,,,,,,,,,,,,,,,,,,,,,,,,,,,,,,,,,24,,,,,,,,121.78316210000776,121.78316210000776,121.78316210000776,121.78316210000776,121.78316210000776,up,0.2607283000834286,11,0,99,0.08,-0.24,up,0.16262449999339879,None,,,,,,,,,,,,,,,,,,,,,,,,,,,,,,,,,,,,,2024-06-25_20h13.33.785,HideSeek_v1,2023.1.3,60.06871866188813,
,3,0,3,5,0,5,66,,train_dim1_1,12,24,2,0,2,0,,,,,,,,,0,0,0,0,0,11,11,11,2,0,2,0,,,,,,,,,,,,,,,,,,,,,,,,,,,,,,,,,,,,,,,,,,,,,,,,,,,,,,24,,,,,,,,122.03623940004036,122.03623940004036,122.03623940004036,122.03623940004036,122.03623940004036,up,0.20949409995228052,11,0,99,0.08,-0.15999999999999998,up,0.12410290027037263,None,,,,,,,,,,,,,,,,,,,,,,,,,,,,,,,,,,,,,2024-06-25_20h13.33.785,HideSeek_v1,2023.1.3,60.06871866188813,
,3,0,3,5,0,5,66,,train_dim1_1,12,24,2,0,2,0,,,,,,,,,0,0,0,0,0,11,11,11,3,0,3,0,,,,,,,,,,,,,,,,,,,,,,,,,,,,,,,,,,,,,,,,,,,,,,,,,,,,,,24,,,,,,,,122.25312939984724,122.25312939984724,122.25312939984724,122.25312939984724,122.25312939984724,up,0.21097289980389178,11,0,99,0.08,-0.07999999999999997,up,0.12534749996848404,None,,,,,,,,,,,,,,,,,,,,,,,,,,,,,,,,,,,,,2024-06-25_20h13.33.785,HideSeek_v1,2023.1.3,60.06871866188813,
,3,0,3,5,0,5,66,,train_dim1_1,12,24,2,0,2,0,,,,,,,,,0,0,0,0,0,11,11,11,4,0,4,0,,,,,,,,,,,,,,,,,,,,,,,,,,,,,,,,,,,,,,,,,,,,,,,,,,,,,,24,,,,,,,,122.4693157998845,122.4693157998845,122.4693157998845,122.4693157998845,122.4693157998845,up,0.21084870002232492,11,0,99,0.08,2.7755575615628914e-17,up,0.12042110017500818,None,,,,,,,,,,,,,,,,,,,,,,,,,,,,,,,,,,,,,2024-06-25_20h13.33.785,HideSeek_v1,2023.1.3,60.06871866188813,
,3,0,3,5,0,5,66,,train_dim1_1,12,24,2,0,2,0,,,,,,,,,0,0,0,0,0,11,11,11,5,0,5,0,,,,,,,,,,,,,,,,,,,,,,,,,,,,,,,,,,,,,,,,,,,,,,,,,,,,,,24,,,,,,,,122.6856008998584,122.6856008998584,122.6856008998584,122.6856008998584,122.6856008998584,return,0.3101785001344979,12,0,1,0.08,2.7755575615628914e-17,return,0.2153109998907894,None,39,0,0.08,2.7755575615628914e-17,,,,,,,,,,,,,,,,,,,,,,,,,,,,,,,,,2024-06-25_20h13.33.785,HideSeek_v1,2023.1.3,60.06871866188813,
,2,1,2,4,0,3,64,,train_dim1_1,13,24,2,0,2,0,,,,,,,,,0,0,0,0,0,12,12,12,0,0,0,0,,,,,,,,,,,,,stimuli/alien_stimuli/64.png,,,,,,,,,,,,,,,,,,,,,,,,,,,,,,,stimuli/alien_stimuli/66.png,66,3,14,,,,,,,24,,,,,,,,127.61591519997455,127.61591519997455,127.61591519997455,127.61591519997455,127.61591519997455,up,1.0074349001515657,12,0,99,0,-0.24,up,0.9017007001675665,None,,,,,126.04971449985169,127.61591519997455,0.08,0,0.4,0.0,-0.2,0.08,0.08,0.08,0,124.5489395998884,124.5489395998884,124.5489395998884,124.5489395998884,124.5489395998884,124.5489395998884,124.5489395998884,124.5489395998884,124.53246505996212,1.602292099967599,return,1.4801411002408713,None,,,,,,,,,2024-06-25_20h13.33.785,HideSeek_v1,2023.1.3,60.06871866188813,
,2,1,2,4,0,3,64,,train_dim1_1,13,24,2,0,2,0,,,,,,,,,0,0,0,0,0,12,12,12,1,0,1,0,,,,,,,,,,,,,,,,,,,,,,,,,,,,,,,,,,,,,,,,,,,,,,,,,,,,,,24,,,,,,,,128.61954659991898,128.61954659991898,128.61954659991898,128.61954659991898,128.61954659991898,up,0.26031650020740926,12,0,99,0,-0.15999999999999998,up,0.1726429001428187,None,,,,,,,,,,,,,,,,,,,,,,,,,,,,,,,,,,,,,2024-06-25_20h13.33.785,HideSeek_v1,2023.1.3,60.06871866188813,
,2,1,2,4,0,3,64,,train_dim1_1,13,24,2,0,2,0,,,,,,,,,0,0,0,0,0,12,12,12,2,0,2,0,,,,,,,,,,,,,,,,,,,,,,,,,,,,,,,,,,,,,,,,,,,,,,,,,,,,,,24,,,,,,,,128.8865512998309,128.8865512998309,128.8865512998309,128.8865512998309,128.8865512998309,up,0.19425170007161796,12,0,99,0,-0.07999999999999997,up,0.10979000013321638,None,,,,,,,,,,,,,,,,,,,,,,,,,,,,,,,,,,,,,2024-06-25_20h13.33.785,HideSeek_v1,2023.1.3,60.06871866188813,
,2,1,2,4,0,3,64,,train_dim1_1,13,24,2,0,2,0,,,,,,,,,0,0,0,0,0,12,12,12,3,0,3,0,,,,,,,,,,,,,,,,,,,,,,,,,,,,,,,,,,,,,,,,,,,,,,,,,,,,,,24,,,,,,,,129.08795959991403,129.08795959991403,129.08795959991403,129.08795959991403,129.08795959991403,return,0.2954380998853594,13,0,1,0,-0.07999999999999997,return,0.20350130018778145,None,42,0,0,-0.07999999999999997,,,,,,,,,,,,,,,,,,,,,,,,,,,,,,,,,2024-06-25_20h13.33.785,HideSeek_v1,2023.1.3,60.06871866188813,
,4,3,4,7,0,4,65,,train_dim1_1,14,24,2,0,2,0,,,,,,,,,0,0,0,0,0,13,13,13,0,0,0,0,,,,,,,,,,,,,stimuli/alien_stimuli/65.png,,,,,,,,,,,,,,,,,,,,,,,,,,,,,,,stimuli/alien_stimuli/64.png,64,2,15,,,,,,,24,,,,,,,,134.48298939992674,134.48298939992674,134.48298939992674,134.48298939992674,134.48298939992674,up,0.5745491001289338,13,0,99,0.16,-0.08,up,0.46724259993061423,None,,,,,132.91614259989,134.48298939992674,0,-0.08,0.24,0.0,-0.2,0,0.0,0,-0.08,130.93317289999686,130.93317289999686,130.93317289999686,130.93317289999686,130.93317289999686,130.93317289999686,130.93317289999686,130.93317289999686,130.91578105995433,2.085277699865401,return,1.9583087002392858,None,,,,,,,,,2024-06-25_20h13.33.785,HideSeek_v1,2023.1.3,60.06871866188813,
,4,3,4,7,0,4,65,,train_dim1_1,14,24,2,0,2,0,,,,,,,,,0,0,0,0,0,13,13,13,1,0,1,0,,,,,,,,,,,,,,,,,,,,,,,,,,,,,,,,,,,,,,,,,,,,,,,,,,,,,,24,,,,,,,,135.0538975999225,135.0538975999225,135.0538975999225,135.0538975999225,135.0538975999225,up,0.24404210015200078,13,0,99,0.16,0.0,up,0.15481110010296106,None,,,,,,,,,,,,,,,,,,,,,,,,,,,,,,,,,,,,,2024-06-25_20h13.33.785,HideSeek_v1,2023.1.3,60.06871866188813,
,4,3,4,7,0,4,65,,train_dim1_1,14,24,2,0,2,0,,,,,,,,,0,0,0,0,0,13,13,13,2,0,2,0,,,,,,,,,,,,,,,,,,,,,,,,,,,,,,,,,,,,,,,,,,,,,,,,,,,,,,24,,,,,,,,135.31582330004312,135.31582330004312,135.31582330004312,135.31582330004312,135.31582330004312,up,0.2600392000749707,13,0,99,0.16,0.08,up,0.15561709995381534,None,,,,,,,,,,,,,,,,,,,,,,,,,,,,,,,,,,,,,2024-06-25_20h13.33.785,HideSeek_v1,2023.1.3,60.06871866188813,
,4,3,4,7,0,4,65,,train_dim1_1,14,24,2,0,2,0,,,,,,,,,0,0,0,0,0,13,13,13,3,0,3,0,,,,,,,,,,,,,,,,,,,,,,,,,,,,,,,,,,,,,,,,,,,,,,,,,,,,,,24,,,,,,,,135.5684066999238,135.5684066999238,135.5684066999238,135.5684066999238,135.5684066999238,up,0.2606301000341773,13,0,99,0.16,0.16,up,0.16634050011634827,None,,,,,,,,,,,,,,,,,,,,,,,,,,,,,,,,,,,,,2024-06-25_20h13.33.785,HideSeek_v1,2023.1.3,60.06871866188813,
,4,3,4,7,0,4,65,,train_dim1_1,14,24,2,0,2,0,,,,,,,,,0,0,0,0,0,13,13,13,4,0,4,0,,,,,,,,,,,,,,,,,,,,,,,,,,,,,,,,,,,,,,,,,,,,,,,,,,,,,,24,,,,,,,,135.83428719989024,135.83428719989024,135.83428719989024,135.83428719989024,135.83428719989024,return,0.9620327998418361,14,0,1,0.16,0.16,return,0.8823248001281172,None,46,0,0.16,0.16,,,,,,,,,,,,,,,,,,,,,,,,,,,,,,,,,2024-06-25_20h13.33.785,HideSeek_v1,2023.1.3,60.06871866188813,
,1,0,1,5,0,5,66,,train_dim1_1,15,24,2,0,2,0,,,,,,,,,0,0,0,0,0,14,14,14,0,0,0,0,,,,,,,,,,,,,stimuli/alien_stimuli/66.png,,,,,,,,,,,,,,,,,,,,,,,,,,,,,,,stimuli/alien_stimuli/65.png,65,4,16,,,,,,,24,,,,,,,,147.5988276998978,147.5988276998978,147.5988276998978,147.5988276998978,147.5988276998978,up,0.5917947997804731,14,0,99,-0.08,-0.32,up,0.4878361001610756,None,,,,,146.03258430003189,147.5988276998978,0.16,0.16,0.32,0.0,0.0,0.16,0.16,0.16,0.16,138.3495218998287,138.3495218998287,138.3495218998287,138.3495218998287,138.3495218998287,138.3495218998287,138.3495218998287,138.3495218998287,138.3323294599075,7.785871899919584,return,7.666572300018743,None,,,,,,,,,2024-06-25_20h13.33.785,HideSeek_v1,2023.1.3,60.06871866188813,
,1,0,1,5,0,5,66,,train_dim1_1,15,24,2,0,2,0,,,,,,,,,0,0,0,0,0,14,14,14,1,0,1,0,,,,,,,,,,,,,,,,,,,,,,,,,,,,,,,,,,,,,,,,,,,,,,,,,,,,,,24,,,,,,,,148.18583579990081,148.18583579990081,148.18583579990081,148.18583579990081,148.18583579990081,up,0.2105006999336183,14,0,99,-0.08,-0.24,up,0.12854400021024048,None,,,,,,,,,,,,,,,,,,,,,,,,,,,,,,,,,,,,,2024-06-25_20h13.33.785,HideSeek_v1,2023.1.3,60.06871866188813,
,1,0,1,5,0,5,66,,train_dim1_1,15,24,2,0,2,0,,,,,,,,,0,0,0,0,0,14,14,14,2,0,2,0,,,,,,,,,,,,,,,,,,,,,,,,,,,,,,,,,,,,,,,,,,,,,,,,,,,,,,24,,,,,,,,148.4031660000328,148.4031660000328,148.4031660000328,148.4031660000328,148.4031660000328,up,0.21059709996916354,14,0,99,-0.08,-0.15999999999999998,up,0.11670680018141866,None,,,,,,,,,,,,,,,,,,,,,,,,,,,,,,,,,,,,,2024-06-25_20h13.33.785,HideSeek_v1,2023.1.3,60.06871866188813,
,1,0,1,5,0,5,66,,train_dim1_1,15,24,2,0,2,0,,,,,,,,,0,0,0,0,0,14,14,14,3,0,3,0,,,,,,,,,,,,,,,,,,,,,,,,,,,,,,,,,,,,,,,,,,,,,,,,,,,,,,24,,,,,,,,148.61948459991254,148.61948459991254,148.61948459991254,148.61948459991254,148.61948459991254,up,0.21058820001780987,14,0,99,-0.08,-0.07999999999999997,up,0.11629340006038547,None,,,,,,,,,,,,,,,,,,,,,,,,,,,,,,,,,,,,,2024-06-25_20h13.33.785,HideSeek_v1,2023.1.3,60.06871866188813,
,1,0,1,5,0,5,66,,train_dim1_1,15,24,2,0,2,0,,,,,,,,,0,0,0,0,0,14,14,14,4,0,4,0,,,,,,,,,,,,,,,,,,,,,,,,,,,,,,,,,,,,,,,,,,,,,,,,,,,,,,24,,,,,,,,148.8374491999857,148.8374491999857,148.8374491999857,148.8374491999857,148.8374491999857,up,0.21041219984181225,14,0,99,-0.08,2.7755575615628914e-17,up,0.12792259990237653,None,,,,,,,,,,,,,,,,,,,,,,,,,,,,,,,,,,,,,2024-06-25_20h13.33.785,HideSeek_v1,2023.1.3,60.06871866188813,
,1,0,1,5,0,5,66,,train_dim1_1,15,24,2,0,2,0,,,,,,,,,0,0,0,0,0,14,14,14,5,0,5,0,,,,,,,,,,,,,,,,,,,,,,,,,,,,,,,,,,,,,,,,,,,,,,,,,,,,,,24,,,,,,,,149.05334450001828,149.05334450001828,149.05334450001828,149.05334450001828,149.05334450001828,return,0.2942934001330286,15,0,1,-0.08,2.7755575615628914e-17,return,0.20189799997024238,None,51,0,-0.08,2.7755575615628914e-17,,,,,,,,,,,,,,,,,,,,,,,,,,,,,,,,,2024-06-25_20h13.33.785,HideSeek_v1,2023.1.3,60.06871866188813,
,3,1,3,2,0,1,62,,train_dim1_1,16,24,2,0,2,0,,,,,,,,,0,0,0,0,0,15,15,15,0,0,0,0,,,,,,,,,,,,,stimuli/alien_stimuli/62.png,,,,,,,,,,,,,,,,,,,,,,,,,,,,,,,stimuli/alien_stimuli/66.png,66,1,17,,,,,,,24,,,,,,,,153.21564999991097,153.21564999991097,153.21564999991097,153.21564999991097,153.21564999991097,up,0.5426735999062657,15,0,99,0.08,-0.24,up,0.44334200001321733,None,,,,,151.6494674999267,153.21564999991097,-0.08,0,0.4,0.0,-0.2,-0.08,-0.08,-0.08,0,150.98234559991397,150.98234559991397,150.98234559991397,150.98234559991397,150.98234559991397,150.98234559991397,150.98234559991397,150.98234559991397,150.96572640999221,0.8520377997774631,return,0.64767189999111,None,,,,,,,,,2024-06-25_20h13.33.785,HideSeek_v1,2023.1.3,60.06871866188813,
,3,1,3,2,0,1,62,,train_dim1_1,16,24,2,0,2,0,,,,,,,,,0,0,0,0,0,15,15,15,1,0,1,0,,,,,,,,,,,,,,,,,,,,,,,,,,,,,,,,,,,,,,,,,,,,,,,,,,,,,,24,,,,,,,,153.76566519984044,153.76566519984044,153.76566519984044,153.76566519984044,153.76566519984044,return,0.7926849001087248,16,0,1,0.08,-0.24,return,0.6988601002376527,None,52,0,0.08,-0.24,,,,,,,,,,,,,,,,,,,,,,,,,,,,,,,,,2024-06-25_20h13.33.785,HideSeek_v1,2023.1.3,60.06871866188813,
,0,2,0,7,0,5,66,,train_dim1_1,17,24,2,0,2,0,,,,,,,,,0,0,0,0,0,16,16,16,0,0,0,0,,,,,,,,,,,,,stimuli/alien_stimuli/66.png,,,,,,,,,,,,,,,,,,,,,,,,,,,,,,,stimuli/alien_stimuli/62.png,62,3,18,,,,,,,24,,,,,,,,159.53349459986202,159.53349459986202,159.53349459986202,159.53349459986202,159.53349459986202,return,2.358132699970156,16,0,0,-0.16,-0.24,return,2.2625977001152933,None,52,0,-0.16,-0.24,157.96575169987045,159.53349459986202,0.08,-0.24,0.08,0.0,-0.28,0.08,0.08,0.08,-0.24,156.10044720000587,156.10044720000587,156.10044720000587,156.10044720000587,156.10044720000587,156.10044720000587,156.10044720000587,156.10044720000587,156.08245995985345,1.9692456999327987,return,1.8490665000863373,None,,,,,,,,,2024-06-25_20h13.33.785,HideSeek_v1,2023.1.3,60.06871866188813,
,1,2,1,6,0,4,65,,train_dim1_1,18,24,2,0,2,0,,,,,,,,,0,0,0,0,0,17,17,17,0,0,0,0,,,,,,,,,,,,,stimuli/alien_stimuli/65.png,,,,,,,,,,,,,,,,,,,,,,,,,,,,,,,stimuli/alien_stimuli/66.png,66,0,19,,,,,,,24,,,,,,,,166.11564289988019,166.11564289988019,166.11564289988019,166.11564289988019,166.11564289988019,return,0.6096181999891996,16,0,0,-0.08,-0.24,return,0.5125347001012415,None,52,0,-0.08,-0.24,164.54935709992424,166.11564289988019,-0.16,0.16,0.4,0.0,-0.039999999999999994,-0.16,-0.16,-0.16,0.16,163.49980989983305,163.49980989983305,163.49980989983305,163.49980989983305,163.49980989983305,163.49980989983305,163.49980989983305,163.49980989983305,163.4652400800027,1.202799999853596,return,1.0244207000359893,None,,,,,,,,,2024-06-25_20h13.33.785,HideSeek_v1,2023.1.3,60.06871866188813,
,1,4,1,5,0,1,62,,train_dim1_1,19,24,2,0,2,0,,,,,,,,,0,0,0,0,0,18,18,18,0,0,0,0,,,,,,,,,,,,,stimuli/alien_stimuli/62.png,,,,,,,,,,,,,,,,,,,,,,,,,,,,,,,stimuli/alien_stimuli/65.png,65,1,20,,,,,,,24,,,,,,,,170.63223379990086,170.63223379990086,170.63223379990086,170.63223379990086,170.63223379990086,return,0.35837960010394454,16,0,0,-0.08,-0.08,return,0.26518350024707615,None,52,0,-0.08,-0.08,169.06617480004206,170.63223379990086,-0.08,0.08,0.32,0.0,-0.07999999999999999,-0.08,-0.08,-0.08,0.08,168.2824438000098,168.2824438000098,168.2824438000098,168.2824438000098,168.2824438000098,168.2824438000098,168.2824438000098,168.2824438000098,168.2658079698682,0.902324200142175,return,0.7598874000832438,None,,,,,,,,,2024-06-25_20h13.33.785,HideSeek_v1,2023.1.3,60.06871866188813,
,3,2,3,5,0,3,64,,train_dim1_1,20,24,2,0,2,0,,,,,,,,,0,0,0,0,0,19,19,19,0,0,0,0,,,,,,,,,,,,,stimuli/alien_stimuli/64.png,,,,,,,,,,,,,,,,,,,,,,,,,,,,,,,stimuli/alien_stimuli/62.png,62,1,21,,,,,,,24,,,,,,,,174.6157799998764,174.6157799998764,174.6157799998764,174.6157799998764,174.6157799998764,return,0.3562868000008166,16,0,0,0.08,-0.24,return,0.24488400015980005,None,52,0,0.08,-0.24,173.0320439999923,174.6157799998764,-0.08,0,0.08,0.0,-0.04,-0.08,-0.08,-0.08,0,172.56401499989443,172.56401499989443,172.56401499989443,172.56401499989443,172.56401499989443,172.56401499989443,172.56401499989443,172.56401499989443,172.5484455699567,0.5867850000504404,return,0.4524753000587225,None,,,,,,,,,2024-06-25_20h13.33.785,HideSeek_v1,2023.1.3,60.06871866188813,
,2,4,2,5,0,1,62,,train_dim1_1,21,24,2,0,2,0,,,,,,,,,0,0,0,0,0,20,20,20,0,0,0,0,,,,,,,,,,,,,stimuli/alien_stimuli/62.png,,,,,,,,,,,,,,,,,,,,,,,,,,,,,,,stimuli/alien_stimuli/64.png,64,3,22,,,,,,,24,,,,,,,,178.38226739992388,178.38226739992388,178.38226739992388,178.38226739992388,178.38226739992388,return,0.30653490009717643,16,0,0,0,-0.08,return,0.20689110015518963,None,52,0,0,-0.08,176.81611240003258,178.38226739992388,0.08,0,0.24,0.0,-0.12,0.08,0.08,0.08,0,176.51571149984375,176.51571149984375,176.51571149984375,176.51571149984375,176.51571149984375,176.51571149984375,176.51571149984375,176.51571149984375,176.49870837004858,0.4193618001881987,return,0.28221320011653006,None,,,,,,,,,2024-06-25_20h13.33.785,HideSeek_v1,2023.1.3,60.06871866188813,
,0,1,0,5,0,4,65,,train_dim1_1,22,24,2,0,2,0,,,,,,,,,0,0,0,0,0,21,21,21,0,0,0,0,,,,,,,,,,,,,stimuli/alien_stimuli/65.png,,,,,,,,,,,,,,,,,,,,,,,,,,,,,,,stimuli/alien_stimuli/62.png,62,2,23,,,,,,,24,,,,,,,,182.26338070002384,182.26338070002384,182.26338070002384,182.26338070002384,182.26338070002384,return,0.4732927998993546,16,0,0,-0.16,-0.32,return,0.3670515001285821,None,52,0,-0.16,-0.32,180.66563649987802,180.24901559995487,0,0,0.08,0.0,-0.04,0,0.0,0,0,180.24901559995487,180.24901559995487,180.24901559995487,180.24901559995487,180.24901559995487,180.24901559995487,180.24901559995487,180.24901559995487,180.23218786986547,0.5354186999611557,return,0.39671060000546277,None,,,,,,,,,2024-06-25_20h13.33.785,HideSeek_v1,2023.1.3,60.06871866188813,
,2,3,2,6,0,3,64,,train_dim1_1,23,24,2,0,2,0,,,,,,,,,0,0,0,0,0,22,22,22,0,0,0,0,,,,,,,,,,,,,stimuli/alien_stimuli/64.png,,,,,,,,,,,,,,,,,,,,,,,,,,,,,,,stimuli/alien_stimuli/65.png,65,0,24,,,,,,,24,,,,,,,,186.6494606998749,186.6494606998749,186.6494606998749,186.6494606998749,186.6494606998749,return,0.422570199938491,16,0,0,0,-0.16,return,0.28578610019758344,None,52,0,0,-0.16,185.04910169984214,186.6494606998749,-0.16,0,0.32,0.0,-0.16,-0.16,-0.16,-0.16,0,184.3301168999169,184.3301168999169,184.3301168999169,184.3301168999169,184.3301168999169,184.3301168999169,184.3301168999169,184.3301168999169,184.31516319005752,0.86943140020594,return,0.6917377000208944,None,,,,,,,,,2024-06-25_20h13.33.785,HideSeek_v1,2023.1.3,60.06871866188813,
,1,1,1,6,0,5,66,,train_dim1_1,24,24,2,0,2,0,,,,,,,,,0,0,0,0,0,23,23,23,0,0,0,0,,,,,,,,,,,,,stimuli/alien_stimuli/66.png,,,,,,,,,,,,,,,,,,,,,,,,,,,,,,,stimuli/alien_stimuli/64.png,64,2,25,,,,,,,24,,,,,,,,190.70000539999455,190.70000539999455,190.70000539999455,190.70000539999455,190.70000539999455,return,0.4563245000317693,16,0,0,-0.08,-0.32,return,0.36133770016022027,None,52,0,-0.08,-0.32,189.1321745000314,190.70000539999455,0,0.08,0.24,0.0,-0.04,0,0.0,0,0.08,188.63223699992523,188.63223699992523,188.63223699992523,188.63223699992523,188.63223699992523,188.63223699992523,188.63223699992523,188.63223699992523,188.59881348009222,0.6518456998746842,return,0.4813886000774801,None,,,,,,,,,2024-06-25_20h13.33.785,HideSeek_v1,2023.1.3,60.06871866188813,
,2,0,2,1,0,1,62,,train_dim1_1,1,4,2,0,2,0,,,,,,,,,1,0,1,0,0,0,0,0,0,0,0,0,,,,,,,,,,,,,stimuli/alien_stimuli/62.png,,,,,,,,,,,,,,,,,,,,,,,,,,,,,,,stimuli/alien_stimuli/66.png,66,1,26,17,0.7,0.6666666666666667,1,0,1,4,0,conditions/inputTrain_1.2.xlsx,99,1,1,1,0,195.19896549987607,195.19896549987607,195.19896549987607,195.19896549987607,195.19896549987607,up,1.120961399981752,0,0,99,0,-0.32,up,1.011074700159952,None,,,,,193.61567019997165,195.19896549987607,-0.08,0.08,0.4,0.0,-0.12,-0.08,-0.08,-0.08,0.08,192.71612040000036,192.71612040000036,192.71612040000036,192.71612040000036,192.71612040000036,192.71612040000036,192.71612040000036,192.71612040000036,192.69839016990738,1.0190320999827236,return,0.872522700112313,None,0,0.6666666666666667,0,1,16,,,,2024-06-25_20h13.33.785,HideSeek_v1,2023.1.3,60.06871866188813,
,2,0,2,1,0,1,62,,train_dim1_1,1,4,2,0,2,0,,,,,,,,,1,0,1,0,0,0,0,0,1,0,1,0,,,,,,,,,,,,,,,,,,,,,,,,,,,,,,,,,,,,,,,,,,,,,,,,,,,,,,4,,,,,,,,196.31590519985184,196.31590519985184,196.31590519985184,196.31590519985184,196.31590519985184,return,0.9113829999696463,1,0,1,0,-0.32,return,0.8112540000583977,None,53,0,0,-0.32,,,,,,,,,,,,,,,,,,,,,,,,,,,,,,,,,2024-06-25_20h13.33.785,HideSeek_v1,2023.1.3,60.06871866188813,
,2,2,2,5,0,3,64,,train_dim1_1,2,4,2,0,2,0,,,,,,,,,1,0,1,0,0,1,1,1,0,0,0,0,,,,,,,,,,,,,stimuli/alien_stimuli/64.png,,,,,,,,,,,,,,,,,,,,,,,,,,,,,,,stimuli/alien_stimuli/62.png,62,2,1,,,,,,,4,,,,,,,,200.99682939983904,200.99682939983904,200.99682939983904,200.99682939983904,200.99682939983904,up,0.3903218999039382,1,0,99,0,-0.15999999999999998,up,0.30239160009659827,None,,,,,199.43203100003302,200.99682939983904,0,-0.32,0.08,0.0,-0.36,0,0.0,0,-0.32,198.78183520003222,198.78183520003222,198.78183520003222,198.78183520003222,198.78183520003222,198.78183520003222,198.78183520003222,198.78183520003222,198.76506797005425,0.7689110001083463,return,0.6263771001249552,None,,,,,,,,,2024-06-25_20h13.33.785,HideSeek_v1,2023.1.3,60.06871866188813,
,2,2,2,5,0,3,64,,train_dim1_1,2,4,2,0,2,0,,,,,,,,,1,0,1,0,0,1,1,1,1,0,1,0,,,,,,,,,,,,,,,,,,,,,,,,,,,,,,,,,,,,,,,,,,,,,,,,,,,,,,4,,,,,,,,201.3911589998752,201.3911589998752,201.3911589998752,201.3911589998752,201.3911589998752,up,0.41050739982165396,1,0,99,0,-0.07999999999999997,up,0.3190824000630528,None,,,,,,,,,,,,,,,,,,,,,,,,,,,,,,,,,,,,,2024-06-25_20h13.33.785,HideSeek_v1,2023.1.3,60.06871866188813,
,2,2,2,5,0,3,64,,train_dim1_1,2,4,2,0,2,0,,,,,,,,,1,0,1,0,0,1,1,1,2,0,2,0,,,,,,,,,,,,,,,,,,,,,,,,,,,,,,,,,,,,,,,,,,,,,,,,,,,,,,4,,,,,,,,201.8155024999287,201.8155024999287,201.8155024999287,201.8155024999287,201.8155024999287,up,0.3102808000985533,1,0,99,0,2.7755575615628914e-17,up,0.21066560014151037,None,,,,,,,,,,,,,,,,,,,,,,,,,,,,,,,,,,,,,2024-06-25_20h13.33.785,HideSeek_v1,2023.1.3,60.06871866188813,
,2,2,2,5,0,3,64,,train_dim1_1,2,4,2,0,2,0,,,,,,,,,1,0,1,0,0,1,1,1,3,0,3,0,,,,,,,,,,,,,,,,,,,,,,,,,,,,,,,,,,,,,,,,,,,,,,,,,,,,,,4,,,,,,,,202.1467762000393,202.1467762000393,202.1467762000393,202.1467762000393,202.1467762000393,return,0.29406620003283024,2,0,1,0,2.7755575615628914e-17,return,0.18297040020115674,None,56,0,0,2.7755575615628914e-17,,,,,,,,,,,,,,,,,,,,,,,,,,,,,,,,,2024-06-25_20h13.33.785,HideSeek_v1,2023.1.3,60.06871866188813,
,3,3,3,8,0,5,66,,train_dim1_1,3,4,2,0,2,0,,,,,,,,,1,0,1,0,0,2,2,2,0,0,0,0,,,,,,,,,,,,,stimuli/alien_stimuli/66.png,,,,,,,,,,,,,,,,,,,,,,,,,,,,,,,stimuli/alien_stimuli/64.png,64,2,2,,,,,,,4,,,,,,,,206.13249280001037,206.13249280001037,206.13249280001037,206.13249280001037,206.13249280001037,up,1.0081191000062972,2,0,99,0.08,-0.08,up,0.9136821001302451,None,,,,,204.5658141998574,206.13249280001037,0,0,0.24,0.0,-0.12,0,0.0,0,0,204.03286329982802,204.03286329982802,204.03286329982802,204.03286329982802,204.03286329982802,204.03286329982802,204.03286329982802,204.03286329982802,204.01495760004036,0.7019439998548478,return,0.5049993002321571,None,,,,,,,,,2024-06-25_20h13.33.785,HideSeek_v1,2023.1.3,60.06871866188813,
,3,3,3,8,0,5,66,,train_dim1_1,3,4,2,0,2,0,,,,,,,,,1,0,1,0,0,2,2,2,1,0,1,0,,,,,,,,,,,,,,,,,,,,,,,,,,,,,,,,,,,,,,,,,,,,,,,,,,,,,,4,,,,,,,,207.13523579994217,207.13523579994217,207.13523579994217,207.13523579994217,207.13523579994217,up,0.3773046999704093,2,0,99,0.08,0.0,up,0.29210800025612116,None,,,,,,,,,,,,,,,,,,,,,,,,,,,,,,,,,,,,,2024-06-25_20h13.33.785,HideSeek_v1,2023.1.3,60.06871866188813,
,3,3,3,8,0,5,66,,train_dim1_1,3,4,2,0,2,0,,,,,,,,,1,0,1,0,0,2,2,2,2,0,2,0,,,,,,,,,,,,,,,,,,,,,,,,,,,,,,,,,,,,,,,,,,,,,,,,,,,,,,4,,,,,,,,207.51766550005414,207.51766550005414,207.51766550005414,207.51766550005414,207.51766550005414,up,0.39376910007558763,2,0,99,0.08,0.08,up,0.30043349997140467,None,,,,,,,,,,,,,,,,,,,,,,,,,,,,,,,,,,,,,2024-06-25_20h13.33.785,HideSeek_v1,2023.1.3,60.06871866188813,
,3,3,3,8,0,5,66,,train_dim1_1,3,4,2,0,2,0,,,,,,,,,1,0,1,0,0,2,2,2,3,0,3,0,,,,,,,,,,,,,,,,,,,,,,,,,,,,,,,,,,,,,,,,,,,,,,,,,,,,,,4,,,,,,,,207.91731499996968,207.91731499996968,207.91731499996968,207.91731499996968,207.91731499996968,up,0.39377429988235235,2,0,99,0.08,0.16,up,0.3017561000306159,None,,,,,,,,,,,,,,,,,,,,,,,,,,,,,,,,,,,,,2024-06-25_20h13.33.785,HideSeek_v1,2023.1.3,60.06871866188813,
,3,3,3,8,0,5,66,,train_dim1_1,3,4,2,0,2,0,,,,,,,,,1,0,1,0,0,2,2,2,4,0,4,0,,,,,,,,,,,,,,,,,,,,,,,,,,,,,,,,,,,,,,,,,,,,,,,,,,,,,,4,,,,,,,,208.31734759989195,208.31734759989195,208.31734759989195,208.31734759989195,208.31734759989195,return,0.42745990003459156,2,0,0,0.08,0.16,return,0.33178140013478696,None,60,0,0.08,0.16,,,,,,,,,,,,,,,,,,,,,,,,,,,,,,,,,2024-06-25_20h13.33.785,HideSeek_v1,2023.1.3,60.06871866188813,
,4,4,4,8,0,4,65,,train_dim1_1,4,4,2,0,2,0,,,,,,,,,1,0,1,0,0,3,3,3,0,0,0,0,,,,,,,,,,,,,stimuli/alien_stimuli/65.png,,,,,,,,,,,,,,,,,,,,,,,,,,,,,,,stimuli/alien_stimuli/66.png,66,3,3,,,,,,,4,,,,,,,,213.2987682998646,213.2987682998646,213.2987682998646,213.2987682998646,213.2987682998646,up,0.44094930007122457,2,0,99,0.16,0.0,up,0.34774210001342,None,,,,,211.73216629982926,213.2987682998646,0.08,0.24,0.4,0.0,0.039999999999999994,0.08,0.08,0.08,0.24,210.30180909996852,210.30180909996852,210.30180909996852,210.30180909996852,210.30180909996852,210.30180909996852,210.30180909996852,210.30180909996852,210.29839446991684,1.5363052000757307,return,1.4025115000549704,None,,,,,,,,,2024-06-25_20h13.33.785,HideSeek_v1,2023.1.3,60.06871866188813,
,4,4,4,8,0,4,65,,train_dim1_1,4,4,2,0,2,0,,,,,,,,,1,0,1,0,0,3,3,3,1,0,1,0,,,,,,,,,,,,,,,,,,,,,,,,,,,,,,,,,,,,,,,,,,,,,,,,,,,,,,4,,,,,,,,213.7491762000136,213.7491762000136,213.7491762000136,213.7491762000136,213.7491762000136,up,0.24365790002048016,2,0,99,0.16,0.08,up,0.14338600006885827,None,,,,,,,,,,,,,,,,,,,,,,,,,,,,,,,,,,,,,2024-06-25_20h13.33.785,HideSeek_v1,2023.1.3,60.06871866188813,
,4,4,4,8,0,4,65,,train_dim1_1,4,4,2,0,2,0,,,,,,,,,1,0,1,0,0,3,3,3,2,0,2,0,,,,,,,,,,,,,,,,,,,,,,,,,,,,,,,,,,,,,,,,,,,,,,,,,,,,,,4,,,,,,,,213.98390959994867,213.98390959994867,213.98390959994867,213.98390959994867,213.98390959994867,up,0.22747609997168183,2,0,99,0.16,0.16,up,0.14047100022435188,None,,,,,,,,,,,,,,,,,,,,,,,,,,,,,,,,,,,,,2024-06-25_20h13.33.785,HideSeek_v1,2023.1.3,60.06871866188813,
,4,4,4,8,0,4,65,,train_dim1_1,4,4,2,0,2,0,,,,,,,,,1,0,1,0,0,3,3,3,3,0,3,0,,,,,,,,,,,,,,,,,,,,,,,,,,,,,,,,,,,,,,,,,,,,,,,,,,,,,,4,,,,,,,,214.2194637998473,214.2194637998473,214.2194637998473,214.2194637998473,214.2194637998473,up,0.22733959998004138,2,0,99,0.16,0.24,up,0.14465630007907748,None,,,,,,,,,,,,,,,,,,,,,,,,,,,,,,,,,,,,,2024-06-25_20h13.33.785,HideSeek_v1,2023.1.3,60.06871866188813,
,4,4,4,8,0,4,65,,train_dim1_1,4,4,2,0,2,0,,,,,,,,,1,0,1,0,0,3,3,3,4,0,4,0,,,,,,,,,,,,,,,,,,,,,,,,,,,,,,,,,,,,,,,,,,,,,,,,,,,,,,4,,,,,,,,214.46525659994222,214.46525659994222,214.46525659994222,214.46525659994222,214.46525659994222,return,0.260572100058198,3,0,1,0.16,0.24,return,0.1561622000299394,None,64,0,0.16,0.24,,,,,,,,,,,,,,,,,,,,,,,,,,,,,,,,,2024-06-25_20h13.33.785,HideSeek_v1,2023.1.3,60.06871866188813,
,,,,,,,,,,,4,2,0,2,0,,,,,,,,,,,,,,,,,,,,,,,,,,,,,,,,,,,,,,,,,,,,,,,,,,,,,,,,,,,,,,,,stimuli/alien_stimuli/65.png,65,4,4,17,0.7,0.7916666666666667,2,1,1,4,0,conditions/inputTrain_2.1.xlsx,99,1,2,1,0,,,,,,,,,,1,,,,,,,,,,217.13228300004266,218.6822710998822,0.16,0.24,0.32,0.0,0.07999999999999999,0.16,0.16,0.16,0.24,216.3150183998514,216.3150183998514,216.3150183998514,216.3150183998514,216.3150183998514,216.3150183998514,216.3150183998514,216.3150183998514,216.29819888998756,0.9692098000086844,return,0.7989690001122653,None,0,0.9027777777777779,0,2,3,,,,2024-06-25_20h13.33.785,HideSeek_v1,2023.1.3,60.06871866188813,
,,,,,,,,,,,,,,,,,,,,,,,,,,,,,,,,,,,,,,stimuli/instructions/Slide17.png,stimuli/instructions/Audio17.wav,218.6822710998822,218.66529272994958,,,,,,,,,,,,,,,,,,,,,,,,,,,,,,,,,,,,,,,,,,,,,,,,,,,,,,,,,,,,,,,,,,,,,,,,,,,,,,,,,,,,,,,,,,,,,,,,,,,,,,,,,,,,,,,
