trialInstr,x_fixStart,y_fixStart,x_corrSteps,y_corrSteps,x_nrSteps,y_nrSteps,alienID,trialLength,version,trialTrain,praclen,beforeExpLoop.thisRepN,beforeExpLoop.thisTrialN,beforeExpLoop.thisN,beforeExpLoop.thisIndex,mini_instr_trials.thisRepN,mini_instr_trials.thisTrialN,mini_instr_trials.thisN,mini_instr_trials.thisIndex,instrLoop.thisRepN,instrLoop.thisTrialN,instrLoop.thisN,instrLoop.thisIndex,repeat_prac.thisRepN,repeat_prac.thisTrialN,repeat_prac.thisN,repeat_prac.thisIndex,trainLoop.thisRepN,trainLoop.thisTrialN,trainLoop.thisN,trainLoop.thisIndex,moveLoop_train.thisRepN,moveLoop_train.thisTrialN,moveLoop_train.thisN,moveLoop_train.thisIndex,start_all_time,url,slideStim,audioStim,slides.started,sounds.started,nextButton.numClicks,nextButton.timesOn,nextButton.timesOff,prev_but.numClicks,prev_but.timesOn,prev_but.timesOff,alienStim,instrFile,alienStim_instr,gridImage_instr.started,startPos_3.started,key_instr.started,alienImage_3.started,sounds_1.started,key_instr.keys,key_instr.rt,key_instr.duration,all_x,all_y,FBy_corrSteps,FBy_fixStart,FBx_corrSteps,FBx_fixStart,FBy_pathSize_check,FBx_pathSize_check,gridImage_9.started,alienImageFB_3.started,startPosFB_3.started,keyFB_3.started,pathLine_ydir_2.started,pathLine_xdir_2.started,alienFace_3.started,sounds_2.started,RTFB_instr,keyFB_3.keys,keyFB_3.rt,keyFB_3.duration,draw_alienStim,draw_alienID,test_x,nrepcount,cumAcctrain_check,perfthres,percthres,earlierperf,earlystop,nextPrac,fileidx,praclen,saveACC_train,pracFile,nextPrac_train,addNrep,fileidx_endr,repExp,showearly,gridImage_4.started,startPos.started,movePos.started,key_resp.started,alienImage.started,buttonPress_train,RTchoice_train,cumAcctrain,saveACC_choice,corrAns,x_movePos_end,y_movePos_end,key_resp.keys,key_resp.rt,key_resp.duration,wLy_dir,wLx_dir,x_movePos,y_movePos,text_2.started,text_2.stopped,aft_x_corrPos,aft_y_corrPos,y_pathSize_check,x_pathSize_check,y_pathdirY,x_pathdirY,x_pathdirX,x_corrPos,y_corrPos,gridImage_6.started,alienImageFB_2.started,startPosFB_2.started,movePosFB_2.started,keyFB_2.started,pathLine_xdir.started,pathLine_ydir.started,alienFace.started,sounds_4.started,RT_FBtrain,keyFB_2.keys,keyFB_2.rt,keyFB_2.duration,saveACC_pre,within_saveACC_train,earlystop_wloop,participant,study_id,session_id,date,expName,psychopyVersion,frameRate,
,,,,,,,,,,,,0,0,0,0,0,0,0,0,,,,,,,,,,,,,,,,,start_all_time,testround,stimuli/instructions/Slide1.png,stimuli/instructions/Audio1.wav,19.719291099812835,19.58810990785714,1,[2.2882782998494804],[2.288283299887553],0,,,,,,,,,,,,,,,,,,,,,,,,,,,,,,,,,,,,,,,,,,,,,,,,,,,,,,,,,,,,,,,,,,,,,,,,,,,,,,,,,,,,,,,,,,,,,,,,,,,,,,2024-06-25_15h40.09.388,HideSeek_v1,2023.1.3,59.97760434561678,
,,,,,,,,,,,,0,0,0,0,1,0,1,0,,,,,,,,,,,,,,,,,,,stimuli/instructions/Slide2.png,stimuli/instructions/Audio2.wav,21.991410499904305,21.98596162979957,1,[0.47941350005567074],[0.47941719996742904],0,,,,,,,,,,,,,,,,,,,,,,,,,,,,,,,,,,,,,,,,,,,,,,,,,,,,,,,,,,,,,,,,,,,,,,,,,,,,,,,,,,,,,,,,,,,,,,,,,,,,,,2024-06-25_15h40.09.388,HideSeek_v1,2023.1.3,59.97760434561678,
,,,,,,,,,,,,0,0,0,0,2,0,2,0,,,,,,,,,,,,,,,,,,,stimuli/instructions/Slide3.png,stimuli/instructions/Audio3.wav,22.60314379981719,22.58645901978016,1,[0.2501441000495106],[0.2501483999658376],0,,,,,,,,,,,,,,,,,,,,,,,,,,,,,,,,,,,,,,,,,,,,,,,,,,,,,,,,,,,,,,,,,,,,,,,,,,,,,,,,,,,,,,,,,,,,,,,,,,,,,,2024-06-25_15h40.09.388,HideSeek_v1,2023.1.3,59.97760434561678,
,,,,,,,,,,,,0,0,0,0,3,0,3,0,,,,,,,,,,,,,,,,,,,stimuli/instructions/Slide4.png,stimuli/instructions/Audio4.wav,22.968741899821907,22.951902029826307,1,[0.335523399990052],[0.3355288999155164],0,,,,,,,,,,,,,,,,,,,,,,,,,,,,,,,,,,,,,,,,,,,,,,,,,,,,,,,,,,,,,,,,,,,,,,,,,,,,,,,,,,,,,,,,,,,,,,,,,,,,,,2024-06-25_15h40.09.388,HideSeek_v1,2023.1.3,59.97760434561678,
,,,,,,,,,,,,0,0,0,0,4,0,4,0,,,,,,,,,,,,,,,,,,,stimuli/instructions/Slide5.png,stimuli/instructions/Audio5.wav,23.369312800001353,23.35267015993595,1,[0.23573950002901256],[0.23574359994381666],0,,,,,,,,,,,,,,,,,,,,,,,,,,,,,,,,,,,,,,,,,,,,,,,,,,,,,,,,,,,,,,,,,,,,,,,,,,,,,,,,,,,,,,,,,,,,,,,,,,,,,,2024-06-25_15h40.09.388,HideSeek_v1,2023.1.3,59.97760434561678,
,,,,,,,,,,,,0,0,0,0,5,0,5,0,,,,,,,,,,,,,,,,,,,stimuli/instructions/Slide6.png,stimuli/instructions/Audio6.wav,23.6682664998807,23.651425259932875,1,[0.9213914000429213],[0.9213962000794709],0,,,,,,,,,,,,,,,,,,,,,,,,,,,,,,,,,,,,,,,,,,,,,,,,,,,,,,,,,,,,,,,,,,,,,,,,,,,,,,,,,,,,,,,,,,,,,,,,,,,,,,2024-06-25_15h40.09.388,HideSeek_v1,2023.1.3,59.97760434561678,
,,,,,,,,,,,,0,0,0,0,6,0,6,0,,,,,,,,,,,,,,,,,,,stimuli/instructions/Slide7.png,stimuli/instructions/Audio7.wav,24.651590299792588,24.63582655978389,1,[0.35450090002268553],[0.35450479993596673],0,,,,,,,,,,,,,,,,,,,,,,,,,,,,,,,,,,,,,,,,,,,,,,,,,,,,,,,,,,,,,,,,,,,,,,,,,,,,,,,,,,,,,,,,,,,,,,,,,,,,,,2024-06-25_15h40.09.388,HideSeek_v1,2023.1.3,59.97760434561678,
,,,,,,,,,,,,0,0,0,0,7,0,7,0,,,,,,,,,,,,,,,,,,,stimuli/instructions/Slide8.png,stimuli/instructions/Audio8.wav,25.090219999896362,25.08533333982341,1,[0.27815990010276437],[0.2781634998973459],0,,,,,,,,,,,,,,,,,,,,,,,,,,,,,,,,,,,,,,,,,,,,,,,,,,,,,,,,,,,,,,,,,,,,,,,,,,,,,,,,,,,,,,,,,,,,,,,,,,,,,,2024-06-25_15h40.09.388,HideSeek_v1,2023.1.3,59.97760434561678,
,,,,,,,,,,,,0,0,0,0,8,0,8,0,,,,,,,,,,,,,,,,,,,stimuli/instructions/Slide9.png,stimuli/instructions/Audio9.wav,25.45167089998722,25.434726749896072,1,[0.2749315002001822],[0.2749358001165092],0,,,,,,,,,,,,,,,,,,,,,,,,,,,,,,,,,,,,,,,,,,,,,,,,,,,,,,,,,,,,,,,,,,,,,,,,,,,,,,,,,,,,,,,,,,,,,,,,,,,,,,2024-06-25_15h40.09.388,HideSeek_v1,2023.1.3,59.97760434561678,
,,,,,,,,,,,,0,0,0,0,9,0,9,0,,,,,,,,,,,,,,,,,,,stimuli/instructions/Slide10.png,stimuli/instructions/Audio10.wav,25.788662399863824,25.78571674984414,1,[0.29762149997986853],[0.29762559989467263],0,,,,,,,,,,,,,,,,,,,,,,,,,,,,,,,,,,,,,,,,,,,,,,,,,,,,,,,,,,,,,,,,,,,,,,,,,,,,,,,,,,,,,,,,,,,,,,,,,,,,,,2024-06-25_15h40.09.388,HideSeek_v1,2023.1.3,59.97760434561678,
,,,,,,,,,,,,0,0,0,0,10,0,10,0,,,,,,,,,,,,,,,,,,,stimuli/instructions/Slide11.png,stimuli/instructions/Audio11.wav,26.171435999916866,26.16937483982183,1,[0.2652056000661105],[0.2652104999870062],0,,,,,,,,,,,,,,,,,,,,,,,,,,,,,,,,,,,,,,,,,,,,,,,,,,,,,,,,,,,,,,,,,,,,,,,,,,,,,,,,,,,,,,,,,,,,,,,,,,,,,,2024-06-25_15h40.09.388,HideSeek_v1,2023.1.3,59.97760434561678,
,,,,,,,,,,,,0,0,0,0,11,0,11,0,,,,,,,,,,,,,,,,,,,stimuli/instructions/Slide12.png,stimuli/instructions/Audio12.wav,26.51788519998081,26.502133749774657,1,[0.3522296000737697],[0.35223440011031926],0,,,,,,,,,,,,,,,,,,,,,,,,,,,,,,,,,,,,,,,,,,,,,,,,,,,,,,,,,,,,,,,,,,,,,,,,,,,,,,,,,,,,,,,,,,,,,,,,,,,,,,2024-06-25_15h40.09.388,HideSeek_v1,2023.1.3,59.97760434561678,
1,0,3,0,8,0,5,66,2,instr_dim1_1,,,0,0,0,0,,,,,0,0,0,0,,,,,,,,,,,,,,,,,,,,,,,,,stimuli/alien_stimuli/66.png,conditions/inputInstr_1.xlsx,stimuli/alien_stimuli/66.png,27.001256399787962,27.001256399787962,27.001256399787962,27.001256399787962,26.952354139834643,return,1.4258050001226366,None,"[-0.16, -0.08, 0, 0.08, 0.16, 0.24, 0.32, 0.4, 0.48, 0.56]","[-0.4, -0.32, -0.24, -0.16, -0.08, 0, 0.08, 0.16, 0.24, 0.32]",8,3,0,0,0.4,0.0,28.604954099981114,28.604954099981114,28.604954099981114,28.604954099981114,28.604954099981114,28.604954099981114,28.604954099981114,28.568597419746222,0.3669189000502229,return,0.1920281001366675,None,stimuli/alien_stimuli/66.png,66,0,1,,,,,,,,,,,,,,,,,,,,,,,,,,,,,,,,,,,,,,,,,,,,,,,,,,,,,,,,,,,,,,,,,2024-06-25_15h40.09.388,HideSeek_v1,2023.1.3,59.97760434561678,
,,,,,,,,,,,24,0,0,0,0,,,,,,,,,,,,,,,,,,,,,,,,,,,,,,,,,,,,,,,,,,,,,,,,,,,,,,,,,,,,,,,,,,,,0,17,0.7,0,0,99,1,24,0,conditions/inputTrain_1.1.xlsx,99,1,1,1,0,,,,,,,,,,,,,,,,,,,,,,,,,,,,,,,,,,,,,,,,,,,,,,,,,,2024-06-25_15h40.09.388,HideSeek_v1,2023.1.3,59.97760434561678,
,,,,,,,,,,,,1,0,1,0,0,0,0,0,,,,,,,,,,,,,,,,,,,stimuli/instructions/Slide13.png,stimuli/instructions/Audio13.wav,29.038483999902382,29.034985259687527,1,[0.6487273001112044],[0.6487317001447082],0,,,,,,,,,,,,,,,,,,,,,,,,,,,,,,,,,,,,,,,,,,,,,,,,,,,,,,,,,,,,,,,,,,,,,,,,,,,,,,,,,,,,,,,,,,,,,,,,,,,,,,2024-06-25_15h40.09.388,HideSeek_v1,2023.1.3,59.97760434561678,
,,,,,,,,,,,,1,0,1,0,1,0,1,0,,,,,,,,,,,,,,,,,,,stimuli/instructions/Slide14.png,stimuli/instructions/Audio14.wav,29.785561499884352,29.769441539840773,1,[0.40491259982809424],[0.4049167998600751],0,,,,,,,,,,,,,,,,,,,,,,,,,,,,,,,,,,,,,,,,,,,,,,,,,,,,,,,,,,,,,,,,,,,,,,,,,,,,,,,,,,,,,,,,,,,,,,,,,,,,,,2024-06-25_15h40.09.388,HideSeek_v1,2023.1.3,59.97760434561678,
2,2,3,2,3,0,0,61,2,instr_dim1_1,,,1,0,1,0,,,,,0,0,0,0,,,,,,,,,,,,,,,,,,,,,,,,,stimuli/alien_stimuli/61.png,conditions/inputInstr_1.xlsx,stimuli/alien_stimuli/61.png,30.285275999922305,30.285275999922305,30.285275999922305,30.285275999922305,30.268234039843083,return,1.2692705001682043,None,"[-0.16, -0.08, 0, 0.08, 0.16, 0.24, 0.32, 0.4, 0.48, 0.56]","[-0.4, -0.32, -0.24, -0.16, -0.08, 0, 0.08, 0.16, 0.24, 0.32]",3,3,2,2,0.0,0.0,31.752209099940956,31.752209099940956,31.752209099940956,31.752209099940956,31.752209099940956,31.752209099940956,31.752209099940956,31.71841190981213,0.4010034999810159,return,0.20418780017644167,None,stimuli/alien_stimuli/61.png,61,2,2,,,,,,,,,,,,,,,,,,,,,,,,,,,,,,,,,,,,,,,,,,,,,,,,,,,,,,,,,,,,,,,,,2024-06-25_15h40.09.388,HideSeek_v1,2023.1.3,59.97760434561678,
,,,,,,,,,,,24,1,0,1,0,,,,,,,,,,,,,,,,,,,,,,,,,,,,,,,,,,,,,,,,,,,,,,,,,,,,,,,,,,,,,,,,,,,,0,17,0.7,0,0,99,1,24,0,conditions/inputTrain_1.1.xlsx,99,1,1,1,0,,,,,,,,,,,,,,,,,,,,,,,,,,,,,,,,,,,,,,,,,,,,,,,,,,2024-06-25_15h40.09.388,HideSeek_v1,2023.1.3,59.97760434561678,
,,,,,,,,,,,,2,0,2,0,0,0,0,0,,,,,,,,,,,,,,,,,,,stimuli/instructions/Slide15.png,stimuli/instructions/Audio15.wav,32.188927199924365,32.18536586964037,1,[0.6304462999105453],[0.6304503998253495],0,,,,,,,,,,,,,,,,,,,,,,,,,,,,,,,,,,,,,,,,,,,,,,,,,,,,,,,,,,,,,,,,,,,,,,,,,,,,,,,,,,,,,,,,,,,,,,,,,,,,,,2024-06-25_15h40.09.388,HideSeek_v1,2023.1.3,59.97760434561678,
,,,,,,,,,,,,2,0,2,0,1,0,1,0,,,,,,,,,,,,,,,,,,,stimuli/instructions/Slide16.png,stimuli/instructions/Audio16.wav,32.9348968998529,32.91864262989256,1,[0.5723690998274833],[0.572373199975118],0,,,,,,,,,,,,,,,,,,,,,,,,,,,,,,,,,,,,,,,,,,,,,,,,,,,,,,,,,,,,,,,,,,,,,,,,,,,,,,,,,,,,,,,,,,,,,,,,,,,,,,2024-06-25_15h40.09.388,HideSeek_v1,2023.1.3,59.97760434561678,
,2,0,2,1,0,1,62,,train_dim1_1,1,24,2,0,2,0,,,,,,,,,0,0,0,0,0,0,0,0,0,0,0,0,,,,,,,,,,,,,stimuli/alien_stimuli/62.png,,,,,,,,,,,,,,,,,,,,,,,,,,,,,,,,,,,,,,,,,,24,,,,,,,,33.618221499957144,33.618221499957144,33.618221499957144,33.618221499957144,33.618221499957144,up,1.2193772001191974,0,0,99,0,-0.32,up,1.0946720000356436,None,,,,,,,,,,,,,,,,,,,,,,,,,,,,,,,,,,,2024-06-25_15h40.09.388,HideSeek_v1,2023.1.3,59.97760434561678,
,2,0,2,1,0,1,62,,train_dim1_1,1,24,2,0,2,0,,,,,,,,,0,0,0,0,0,0,0,0,1,0,1,0,,,,,,,,,,,,,,,,,,,,,,,,,,,,,,,,,,,,,,,,,,,,,,,,,,,,,,,24,,,,,,,,34.81764619983733,34.81764619983733,34.81764619983733,34.81764619983733,34.81764619983733,return,0.4433863000012934,1,0,1,0,-0.32,return,0.3480490001384169,None,1,0,0,-0.32,,,,,,,,,,,,,,,,,,,,,,,,,,,,,,,2024-06-25_15h40.09.388,HideSeek_v1,2023.1.3,59.97760434561678,
,2,2,2,5,0,3,64,,train_dim1_1,2,24,2,0,2,0,,,,,,,,,0,0,0,0,0,1,1,1,0,0,0,0,,,,,,,,,,,,,stimuli/alien_stimuli/64.png,,,,,,,,,,,,,,,,,,,,,,,,,,,,,,,stimuli/alien_stimuli/62.png,62,2,3,,,,,,,,24,,,,,,,,38.90260159992613,38.90260159992613,38.90260159992613,38.90260159992613,38.90260159992613,up,1.840062899980694,1,0,99,0,-0.15999999999999998,up,1.7340226999949664,None,,,,,37.334429799811915,38.90260159992613,0,-0.32,0.08,0.0,-0.36,0,0.0,0,-0.32,36.869299199897796,36.869299199897796,36.869299199897796,36.869299199897796,36.869299199897796,36.869299199897796,36.869299199897796,36.869299199897796,36.81816361970268,0.6346674999222159,return,0.4441440000664443,None,,,,,,,2024-06-25_15h40.09.388,HideSeek_v1,2023.1.3,59.97760434561678,
,2,2,2,5,0,3,64,,train_dim1_1,2,24,2,0,2,0,,,,,,,,,0,0,0,0,0,1,1,1,1,0,1,0,,,,,,,,,,,,,,,,,,,,,,,,,,,,,,,,,,,,,,,,,,,,,,,,,,,,,,,24,,,,,,,,40.75221289996989,40.75221289996989,40.75221289996989,40.75221289996989,40.75221289996989,up,0.3604277998674661,1,0,99,0,-0.07999999999999997,up,0.26386000006459653,None,,,,,,,,,,,,,,,,,,,,,,,,,,,,,,,,,,,2024-06-25_15h40.09.388,HideSeek_v1,2023.1.3,59.97760434561678,
,2,2,2,5,0,3,64,,train_dim1_1,2,24,2,0,2,0,,,,,,,,,0,0,0,0,0,1,1,1,2,0,2,0,,,,,,,,,,,,,,,,,,,,,,,,,,,,,,,,,,,,,,,,,,,,,,,,,,,,,,,24,,,,,,,,41.15544379991479,41.15544379991479,41.15544379991479,41.15544379991479,41.15544379991479,up,0.3120172000490129,1,0,99,0,2.7755575615628914e-17,up,0.1798306000418961,None,,,,,,,,,,,,,,,,,,,,,,,,,,,,,,,,,,,2024-06-25_15h40.09.388,HideSeek_v1,2023.1.3,59.97760434561678,
,2,2,2,5,0,3,64,,train_dim1_1,2,24,2,0,2,0,,,,,,,,,0,0,0,0,0,1,1,1,3,0,3,0,,,,,,,,,,,,,,,,,,,,,,,,,,,,,,,,,,,,,,,,,,,,,,,,,,,,,,,24,,,,,,,,41.43460839986801,41.43460839986801,41.43460839986801,41.43460839986801,41.43460839986801,return,0.3752793001476675,2,0,1,0,2.7755575615628914e-17,return,0.27238400001078844,None,4,0,0,2.7755575615628914e-17,,,,,,,,,,,,,,,,,,,,,,,,,,,,,,,2024-06-25_15h40.09.388,HideSeek_v1,2023.1.3,59.97760434561678,
,3,3,3,8,0,5,66,,train_dim1_1,3,24,2,0,2,0,,,,,,,,,0,0,0,0,0,2,2,2,0,0,0,0,,,,,,,,,,,,,stimuli/alien_stimuli/66.png,,,,,,,,,,,,,,,,,,,,,,,,,,,,,,,stimuli/alien_stimuli/64.png,64,2,4,,,,,,,,24,,,,,,,,45.43435989995487,45.43435989995487,45.43435989995487,45.43435989995487,45.43435989995487,up,0.44141259999014437,2,0,99,0.08,-0.08,up,0.3436863000970334,None,,,,,43.8685250999406,45.43435989995487,0,0,0.24,0.0,-0.12,0,0.0,0,0,43.36880850000307,43.36880850000307,43.36880850000307,43.36880850000307,43.36880850000307,43.36880850000307,43.36880850000307,43.36880850000307,43.352233729814174,0.6199787000659853,return,0.4705630000680685,None,,,,,,,2024-06-25_15h40.09.388,HideSeek_v1,2023.1.3,59.97760434561678,
,3,3,3,8,0,5,66,,train_dim1_1,3,24,2,0,2,0,,,,,,,,,0,0,0,0,0,2,2,2,1,0,1,0,,,,,,,,,,,,,,,,,,,,,,,,,,,,,,,,,,,,,,,,,,,,,,,,,,,,,,,24,,,,,,,,45.87305089994334,45.87305089994334,45.87305089994334,45.87305089994334,45.87305089994334,up,0.26006100000813603,2,0,99,0.08,0.0,up,0.17546060006134212,None,,,,,,,,,,,,,,,,,,,,,,,,,,,,,,,,,,,2024-06-25_15h40.09.388,HideSeek_v1,2023.1.3,59.97760434561678,
,3,3,3,8,0,5,66,,train_dim1_1,3,24,2,0,2,0,,,,,,,,,0,0,0,0,0,2,2,2,2,0,2,0,,,,,,,,,,,,,,,,,,,,,,,,,,,,,,,,,,,,,,,,,,,,,,,,,,,,,,,24,,,,,,,,46.13926219986752,46.13926219986752,46.13926219986752,46.13926219986752,46.13926219986752,up,0.2769939999561757,2,0,99,0.08,0.08,up,0.194111900171265,None,,,,,,,,,,,,,,,,,,,,,,,,,,,,,,,,,,,2024-06-25_15h40.09.388,HideSeek_v1,2023.1.3,59.97760434561678,
,3,3,3,8,0,5,66,,train_dim1_1,3,24,2,0,2,0,,,,,,,,,0,0,0,0,0,2,2,2,3,0,3,0,,,,,,,,,,,,,,,,,,,,,,,,,,,,,,,,,,,,,,,,,,,,,,,,,,,,,,,24,,,,,,,,46.41931139980443,46.41931139980443,46.41931139980443,46.41931139980443,46.41931139980443,up,0.2774048999417573,2,0,99,0.08,0.16,up,0.1842175000347197,None,,,,,,,,,,,,,,,,,,,,,,,,,,,,,,,,,,,2024-06-25_15h40.09.388,HideSeek_v1,2023.1.3,59.97760434561678,
,3,3,3,8,0,5,66,,train_dim1_1,3,24,2,0,2,0,,,,,,,,,0,0,0,0,0,2,2,2,4,0,4,0,,,,,,,,,,,,,,,,,,,,,,,,,,,,,,,,,,,,,,,,,,,,,,,,,,,,,,,24,,,,,,,,46.70625459984876,46.70625459984876,46.70625459984876,46.70625459984876,46.70625459984876,up,0.2611157998908311,2,0,99,0.08,0.24,up,0.16660959995351732,None,,,,,,,,,,,,,,,,,,,,,,,,,,,,,,,,,,,2024-06-25_15h40.09.388,HideSeek_v1,2023.1.3,59.97760434561678,
,3,3,3,8,0,5,66,,train_dim1_1,3,24,2,0,2,0,,,,,,,,,0,0,0,0,0,2,2,2,5,0,5,0,,,,,,,,,,,,,,,,,,,,,,,,,,,,,,,,,,,,,,,,,,,,,,,,,,,,,,,24,,,,,,,,46.984256099909544,46.984256099909544,46.984256099909544,46.984256099909544,46.984256099909544,return,0.44313959986902773,3,0,1,0.08,0.24,return,0.35070840013213456,None,9,0,0.08,0.24,,,,,,,,,,,,,,,,,,,,,,,,,,,,,,,2024-06-25_15h40.09.388,HideSeek_v1,2023.1.3,59.97760434561678,
,4,4,4,8,0,4,65,,train_dim1_1,4,24,2,0,2,0,,,,,,,,,0,0,0,0,0,3,3,3,0,0,0,0,,,,,,,,,,,,,stimuli/alien_stimuli/65.png,,,,,,,,,,,,,,,,,,,,,,,,,,,,,,,stimuli/alien_stimuli/66.png,66,3,5,,,,,,,,24,,,,,,,,51.11757699982263,51.11757699982263,51.11757699982263,51.11757699982263,51.11757699982263,up,0.356952500063926,3,0,99,0.16,0.0,up,0.2606276001315564,None,,,,,49.55103899980895,51.11757699982263,0.08,0.24,0.4,0.0,0.039999999999999994,0.08,0.08,0.08,0.24,48.97019639983773,48.97019639983773,48.97019639983773,48.97019639983773,48.97019639983773,48.97019639983773,48.97019639983773,48.97019639983773,48.95203293971717,0.6837988002225757,return,0.5522215000819415,None,,,,,,,2024-06-25_15h40.09.388,HideSeek_v1,2023.1.3,59.97760434561678,
,4,4,4,8,0,4,65,,train_dim1_1,4,24,2,0,2,0,,,,,,,,,0,0,0,0,0,3,3,3,1,0,1,0,,,,,,,,,,,,,,,,,,,,,,,,,,,,,,,,,,,,,,,,,,,,,,,,,,,,,,,24,,,,,,,,51.48424419993535,51.48424419993535,51.48424419993535,51.48424419993535,51.48424419993535,up,0.31014470010995865,3,0,99,0.16,0.08,up,0.21268240013159811,None,,,,,,,,,,,,,,,,,,,,,,,,,,,,,,,,,,,2024-06-25_15h40.09.388,HideSeek_v1,2023.1.3,59.97760434561678,
,4,4,4,8,0,4,65,,train_dim1_1,4,24,2,0,2,0,,,,,,,,,0,0,0,0,0,3,3,3,2,0,2,0,,,,,,,,,,,,,,,,,,,,,,,,,,,,,,,,,,,,,,,,,,,,,,,,,,,,,,,24,,,,,,,,51.78981149988249,51.78981149988249,51.78981149988249,51.78981149988249,51.78981149988249,up,0.31175530003383756,3,0,99,0.16,0.16,up,0.21455610007978976,None,,,,,,,,,,,,,,,,,,,,,,,,,,,,,,,,,,,2024-06-25_15h40.09.388,HideSeek_v1,2023.1.3,59.97760434561678,
,4,4,4,8,0,4,65,,train_dim1_1,4,24,2,0,2,0,,,,,,,,,0,0,0,0,0,3,3,3,3,0,3,0,,,,,,,,,,,,,,,,,,,,,,,,,,,,,,,,,,,,,,,,,,,,,,,,,,,,,,,24,,,,,,,,52.11751289991662,52.11751289991662,52.11751289991662,52.11751289991662,52.11751289991662,up,0.27635419997386634,3,0,99,0.16,0.24,up,0.18300090031698346,None,,,,,,,,,,,,,,,,,,,,,,,,,,,,,,,,,,,2024-06-25_15h40.09.388,HideSeek_v1,2023.1.3,59.97760434561678,
,4,4,4,8,0,4,65,,train_dim1_1,4,24,2,0,2,0,,,,,,,,,0,0,0,0,0,3,3,3,4,0,4,0,,,,,,,,,,,,,,,,,,,,,,,,,,,,,,,,,,,,,,,,,,,,,,,,,,,,,,,24,,,,,,,,52.38956979988143,52.38956979988143,52.38956979988143,52.38956979988143,52.38956979988143,return,0.2938673000317067,4,0,1,0.16,0.24,return,0.20207530003972352,None,13,0,0.16,0.24,,,,,,,,,,,,,,,,,,,,,,,,,,,,,,,2024-06-25_15h40.09.388,HideSeek_v1,2023.1.3,59.97760434561678,
,3,4,3,5,0,1,62,,train_dim1_1,5,24,2,0,2,0,,,,,,,,,0,0,0,0,0,4,4,4,0,0,0,0,,,,,,,,,,,,,stimuli/alien_stimuli/62.png,,,,,,,,,,,,,,,,,,,,,,,,,,,,,,,stimuli/alien_stimuli/65.png,65,4,6,,,,,,,,24,,,,,,,,56.789407699834555,56.789407699834555,56.789407699834555,56.789407699834555,56.789407699834555,up,0.8749931000638753,4,0,99,0.08,0.0,up,0.791003700112924,None,,,,,55.2342300999444,56.789407699834555,0.16,0.24,0.32,0.0,0.07999999999999999,0.16,0.16,0.16,0.24,54.25114439986646,54.25114439986646,54.25114439986646,54.25114439986646,54.25114439986646,54.25114439986646,54.25114439986646,54.25114439986646,54.23451832986902,1.1013152000959963,return,0.9633099001366645,None,,,,,,,2024-06-25_15h40.09.388,HideSeek_v1,2023.1.3,59.97760434561678,
,3,4,3,5,0,1,62,,train_dim1_1,5,24,2,0,2,0,,,,,,,,,0,0,0,0,0,4,4,4,1,0,1,0,,,,,,,,,,,,,,,,,,,,,,,,,,,,,,,,,,,,,,,,,,,,,,,,,,,,,,,24,,,,,,,,57.67210470000282,57.67210470000282,57.67210470000282,57.67210470000282,57.67210470000282,return,0.30941809993237257,5,0,1,0.08,0.0,return,0.21662780013866723,None,14,0,0.08,0.0,,,,,,,,,,,,,,,,,,,,,,,,,,,,,,,2024-06-25_15h40.09.388,HideSeek_v1,2023.1.3,59.97760434561678,
,4,0,4,4,0,4,65,,train_dim1_1,6,24,2,0,2,0,,,,,,,,,0,0,0,0,0,5,5,5,0,0,0,0,,,,,,,,,,,,,stimuli/alien_stimuli/65.png,,,,,,,,,,,,,,,,,,,,,,,,,,,,,,,stimuli/alien_stimuli/62.png,62,3,7,,,,,,,,24,,,,,,,,61.71765539981425,61.71765539981425,61.71765539981425,61.71765539981425,61.71765539981425,up,0.4409574999008328,5,0,99,0.16,-0.32,up,0.3385079000145197,None,,,,,60.15080489986576,61.71765539981425,0.08,0,0.08,0.0,-0.04,0.08,0.08,0.08,0,59.55089179985225,59.55089179985225,59.55089179985225,59.55089179985225,59.55089179985225,59.55089179985225,59.55089179985225,59.55089179985225,59.53455272971186,0.718814899912104,return,0.5752332999836653,None,,,,,,,2024-06-25_15h40.09.388,HideSeek_v1,2023.1.3,59.97760434561678,
,4,0,4,4,0,4,65,,train_dim1_1,6,24,2,0,2,0,,,,,,,,,0,0,0,0,0,5,5,5,1,0,1,0,,,,,,,,,,,,,,,,,,,,,,,,,,,,,,,,,,,,,,,,,,,,,,,,,,,,,,,24,,,,,,,,62.156434800010175,62.156434800010175,62.156434800010175,62.156434800010175,62.156434800010175,up,0.24407409993000329,5,0,99,0.16,-0.24,up,0.14857740001752973,None,,,,,,,,,,,,,,,,,,,,,,,,,,,,,,,,,,,2024-06-25_15h40.09.388,HideSeek_v1,2023.1.3,59.97760434561678,
,4,0,4,4,0,4,65,,train_dim1_1,6,24,2,0,2,0,,,,,,,,,0,0,0,0,0,5,5,5,2,0,2,0,,,,,,,,,,,,,,,,,,,,,,,,,,,,,,,,,,,,,,,,,,,,,,,,,,,,,,,24,,,,,,,,62.40466849994846,62.40466849994846,62.40466849994846,62.40466849994846,62.40466849994846,up,0.24298810004256666,5,0,99,0.16,-0.15999999999999998,up,0.15956140006892383,None,,,,,,,,,,,,,,,,,,,,,,,,,,,,,,,,,,,2024-06-25_15h40.09.388,HideSeek_v1,2023.1.3,59.97760434561678,
,4,0,4,4,0,4,65,,train_dim1_1,6,24,2,0,2,0,,,,,,,,,0,0,0,0,0,5,5,5,3,0,3,0,,,,,,,,,,,,,,,,,,,,,,,,,,,,,,,,,,,,,,,,,,,,,,,,,,,,,,,24,,,,,,,,62.6555319998879,62.6555319998879,62.6555319998879,62.6555319998879,62.6555319998879,up,0.293937899870798,5,0,99,0.16,-0.07999999999999997,up,0.1992887002415955,None,,,,,,,,,,,,,,,,,,,,,,,,,,,,,,,,,,,2024-06-25_15h40.09.388,HideSeek_v1,2023.1.3,59.97760434561678,
,4,0,4,4,0,4,65,,train_dim1_1,6,24,2,0,2,0,,,,,,,,,0,0,0,0,0,5,5,5,4,0,4,0,,,,,,,,,,,,,,,,,,,,,,,,,,,,,,,,,,,,,,,,,,,,,,,,,,,,,,,24,,,,,,,,62.96741349995136,62.96741349995136,62.96741349995136,62.96741349995136,62.96741349995136,return,0.32730060000903904,6,0,1,0.16,-0.07999999999999997,return,0.22490830020979047,None,18,0,0.16,-0.07999999999999997,,,,,,,,,,,,,,,,,,,,,,,,,,,,,,,2024-06-25_15h40.09.388,HideSeek_v1,2023.1.3,59.97760434561678,
,0,3,0,6,0,3,64,,train_dim1_1,7,24,2,0,2,0,,,,,,,,,0,0,0,0,0,6,6,6,0,0,0,0,,,,,,,,,,,,,stimuli/alien_stimuli/64.png,,,,,,,,,,,,,,,,,,,,,,,,,,,,,,,stimuli/alien_stimuli/65.png,65,4,8,,,,,,,,24,,,,,,,,67.11745639983565,67.11745639983565,67.11745639983565,67.11745639983565,67.11745639983565,up,0.6921601998619735,6,0,99,-0.16,-0.08,up,0.5920866001397371,None,,,,,65.55104479985312,67.11745639983565,0.16,-0.08,0.32,0.0,-0.24000000000000002,0.16,0.16,0.16,-0.08,64.86762639996596,64.86762639996596,64.86762639996596,64.86762639996596,64.86762639996596,64.86762639996596,64.86762639996596,64.86762639996596,64.85109111978672,0.8181815000716597,return,0.661926300264895,None,,,,,,,2024-06-25_15h40.09.388,HideSeek_v1,2023.1.3,59.97760434561678,
,0,3,0,6,0,3,64,,train_dim1_1,7,24,2,0,2,0,,,,,,,,,0,0,0,0,0,6,6,6,1,0,1,0,,,,,,,,,,,,,,,,,,,,,,,,,,,,,,,,,,,,,,,,,,,,,,,,,,,,,,,24,,,,,,,,67.80668779998086,67.80668779998086,67.80668779998086,67.80668779998086,67.80668779998086,up,0.3594363001175225,6,0,99,-0.16,0.0,up,0.26293190009891987,None,,,,,,,,,,,,,,,,,,,,,,,,,,,,,,,,,,,2024-06-25_15h40.09.388,HideSeek_v1,2023.1.3,59.97760434561678,
,0,3,0,6,0,3,64,,train_dim1_1,7,24,2,0,2,0,,,,,,,,,0,0,0,0,0,6,6,6,2,0,2,0,,,,,,,,,,,,,,,,,,,,,,,,,,,,,,,,,,,,,,,,,,,,,,,,,,,,,,,24,,,,,,,,68.17241899995133,68.17241899995133,68.17241899995133,68.17241899995133,68.17241899995133,up,0.3107648000586778,6,0,99,-0.16,0.08,up,0.21995020029135048,None,,,,,,,,,,,,,,,,,,,,,,,,,,,,,,,,,,,2024-06-25_15h40.09.388,HideSeek_v1,2023.1.3,59.97760434561678,
,0,3,0,6,0,3,64,,train_dim1_1,7,24,2,0,2,0,,,,,,,,,0,0,0,0,0,6,6,6,3,0,3,0,,,,,,,,,,,,,,,,,,,,,,,,,,,,,,,,,,,,,,,,,,,,,,,,,,,,,,,24,,,,,,,,68.49063399992883,68.49063399992883,68.49063399992883,68.49063399992883,68.49063399992883,return,0.3605623000767082,7,0,1,-0.16,0.08,return,0.2639762000180781,None,21,0,-0.16,0.08,,,,,,,,,,,,,,,,,,,,,,,,,,,,,,,2024-06-25_15h40.09.388,HideSeek_v1,2023.1.3,59.97760434561678,
,4,1,4,6,0,5,66,,train_dim1_1,8,24,2,0,2,0,,,,,,,,,0,0,0,0,0,7,7,7,0,0,0,0,,,,,,,,,,,,,stimuli/alien_stimuli/66.png,,,,,,,,,,,,,,,,,,,,,,,,,,,,,,,stimuli/alien_stimuli/64.png,64,0,9,,,,,,,,24,,,,,,,,72.33438119990751,72.33438119990751,72.33438119990751,72.33438119990751,72.33438119990751,up,0.7072733000386506,7,0,99,0.16,-0.24,up,0.610303400317207,None,,,,,70.76788689987734,72.33438119990751,-0.16,0.08,0.24,0.0,-0.04,-0.16,-0.16,-0.16,0.08,70.41771829989739,70.41771829989739,70.41771829989739,70.41771829989739,70.41771829989739,70.41771829989739,70.41771829989739,70.41771829989739,70.4012294297805,0.46778229996562004,return,0.32411640021018684,None,,,,,,,2024-06-25_15h40.09.388,HideSeek_v1,2023.1.3,59.97760434561678,
,4,1,4,6,0,5,66,,train_dim1_1,8,24,2,0,2,0,,,,,,,,,0,0,0,0,0,7,7,7,1,0,1,0,,,,,,,,,,,,,,,,,,,,,,,,,,,,,,,,,,,,,,,,,,,,,,,,,,,,,,,24,,,,,,,,73.05073199979961,73.05073199979961,73.05073199979961,73.05073199979961,73.05073199979961,up,0.32652430003508925,7,0,99,0.16,-0.15999999999999998,up,0.22940370021387935,None,,,,,,,,,,,,,,,,,,,,,,,,,,,,,,,,,,,2024-06-25_15h40.09.388,HideSeek_v1,2023.1.3,59.97760434561678,
,4,1,4,6,0,5,66,,train_dim1_1,8,24,2,0,2,0,,,,,,,,,0,0,0,0,0,7,7,7,2,0,2,0,,,,,,,,,,,,,,,,,,,,,,,,,,,,,,,,,,,,,,,,,,,,,,,,,,,,,,,24,,,,,,,,73.37198890000582,73.37198890000582,73.37198890000582,73.37198890000582,73.37198890000582,up,0.3603005001787096,7,0,99,0.16,-0.07999999999999997,up,0.26638599997386336,None,,,,,,,,,,,,,,,,,,,,,,,,,,,,,,,,,,,2024-06-25_15h40.09.388,HideSeek_v1,2023.1.3,59.97760434561678,
,4,1,4,6,0,5,66,,train_dim1_1,8,24,2,0,2,0,,,,,,,,,0,0,0,0,0,7,7,7,3,0,3,0,,,,,,,,,,,,,,,,,,,,,,,,,,,,,,,,,,,,,,,,,,,,,,,,,,,,,,,24,,,,,,,,73.75088749988936,73.75088749988936,73.75088749988936,73.75088749988936,73.75088749988936,up,0.3108524000272155,7,0,99,0.16,2.7755575615628914e-17,up,0.2023275000974536,None,,,,,,,,,,,,,,,,,,,,,,,,,,,,,,,,,,,2024-06-25_15h40.09.388,HideSeek_v1,2023.1.3,59.97760434561678,
,4,1,4,6,0,5,66,,train_dim1_1,8,24,2,0,2,0,,,,,,,,,0,0,0,0,0,7,7,7,4,0,4,0,,,,,,,,,,,,,,,,,,,,,,,,,,,,,,,,,,,,,,,,,,,,,,,,,,,,,,,24,,,,,,,,74.0680762999691,74.0680762999691,74.0680762999691,74.0680762999691,74.0680762999691,up,0.31041919998824596,7,0,99,0.16,0.08000000000000003,up,0.21671590022742748,None,,,,,,,,,,,,,,,,,,,,,,,,,,,,,,,,,,,2024-06-25_15h40.09.388,HideSeek_v1,2023.1.3,59.97760434561678,
,4,1,4,6,0,5,66,,train_dim1_1,8,24,2,0,2,0,,,,,,,,,0,0,0,0,0,7,7,7,5,0,5,0,,,,,,,,,,,,,,,,,,,,,,,,,,,,,,,,,,,,,,,,,,,,,,,,,,,,,,,24,,,,,,,,74.38420349988155,74.38420349988155,74.38420349988155,74.38420349988155,74.38420349988155,return,0.3441299998667091,8,0,1,0.16,0.08000000000000003,return,0.23469150019809604,None,26,0,0.16,0.08000000000000003,,,,,,,,,,,,,,,,,,,,,,,,,,,,,,,2024-06-25_15h40.09.388,HideSeek_v1,2023.1.3,59.97760434561678,
,1,3,1,6,0,3,64,,train_dim1_1,9,24,2,0,2,0,,,,,,,,,0,0,0,0,0,8,8,8,0,0,0,0,,,,,,,,,,,,,stimuli/alien_stimuli/64.png,,,,,,,,,,,,,,,,,,,,,,,,,,,,,,,stimuli/alien_stimuli/66.png,66,4,10,,,,,,,,24,,,,,,,,78.98413339979015,78.98413339979015,78.98413339979015,78.98413339979015,78.98413339979015,up,0.6248558999504894,8,0,99,-0.08,-0.08,up,0.5190235001500696,None,,,,,77.41759189986624,78.98413339979015,0.16,0.08,0.4,0.0,-0.12,0.16,0.16,0.16,0.08,76.28400220000185,76.28400220000185,76.28400220000185,76.28400220000185,76.28400220000185,76.28400220000185,76.28400220000185,76.28400220000185,76.2674764297204,1.2530360999517143,return,1.106425300007686,None,,,,,,,2024-06-25_15h40.09.388,HideSeek_v1,2023.1.3,59.97760434561678,
,1,3,1,6,0,3,64,,train_dim1_1,9,24,2,0,2,0,,,,,,,,,0,0,0,0,0,8,8,8,1,0,1,0,,,,,,,,,,,,,,,,,,,,,,,,,,,,,,,,,,,,,,,,,,,,,,,,,,,,,,,24,,,,,,,,79.61766699980944,79.61766699980944,79.61766699980944,79.61766699980944,79.61766699980944,up,0.30979340011253953,8,0,99,-0.08,0.0,up,0.21049050008878112,None,,,,,,,,,,,,,,,,,,,,,,,,,,,,,,,,,,,2024-06-25_15h40.09.388,HideSeek_v1,2023.1.3,59.97760434561678,
,1,3,1,6,0,3,64,,train_dim1_1,9,24,2,0,2,0,,,,,,,,,0,0,0,0,0,8,8,8,2,0,2,0,,,,,,,,,,,,,,,,,,,,,,,,,,,,,,,,,,,,,,,,,,,,,,,,,,,,,,,24,,,,,,,,79.92317419988103,79.92317419988103,79.92317419988103,79.92317419988103,79.92317419988103,up,0.22719600005075336,8,0,99,-0.08,0.08,up,0.13547590002417564,None,,,,,,,,,,,,,,,,,,,,,,,,,,,,,,,,,,,2024-06-25_15h40.09.388,HideSeek_v1,2023.1.3,59.97760434561678,
,1,3,1,6,0,3,64,,train_dim1_1,9,24,2,0,2,0,,,,,,,,,0,0,0,0,0,8,8,8,3,0,3,0,,,,,,,,,,,,,,,,,,,,,,,,,,,,,,,,,,,,,,,,,,,,,,,,,,,,,,,24,,,,,,,,80.16740269982256,80.16740269982256,80.16740269982256,80.16740269982256,80.16740269982256,return,0.36099460022524,9,0,1,-0.08,0.08,return,0.26005080016329885,None,29,0,-0.08,0.08,,,,,,,,,,,,,,,,,,,,,,,,,,,,,,,2024-06-25_15h40.09.388,HideSeek_v1,2023.1.3,59.97760434561678,
,0,0,0,4,0,4,65,,train_dim1_1,10,24,2,0,2,0,,,,,,,,,0,0,0,0,0,9,9,9,0,0,0,0,,,,,,,,,,,,,stimuli/alien_stimuli/65.png,,,,,,,,,,,,,,,,,,,,,,,,,,,,,,,stimuli/alien_stimuli/64.png,64,1,11,,,,,,,,24,,,,,,,,84.81739699980244,84.81739699980244,84.81739699980244,84.81739699980244,84.81739699980244,up,0.7917470000684261,9,0,99,-0.16,-0.32,up,0.6953190001659095,None,,,,,83.25078059989028,84.81739699980244,-0.08,0.08,0.24,0.0,-0.04,-0.08,-0.08,-0.08,0.08,82.10106109990738,82.10106109990738,82.10106109990738,82.10106109990738,82.10106109990738,82.10106109990738,82.10106109990738,82.10106109990738,82.08403771985321,1.2855942999012768,return,1.128490500152111,None,,,,,,,2024-06-25_15h40.09.388,HideSeek_v1,2023.1.3,59.97760434561678,
,0,0,0,4,0,4,65,,train_dim1_1,10,24,2,0,2,0,,,,,,,,,0,0,0,0,0,9,9,9,1,0,1,0,,,,,,,,,,,,,,,,,,,,,,,,,,,,,,,,,,,,,,,,,,,,,,,,,,,,,,,24,,,,,,,,85.61748919985257,85.61748919985257,85.61748919985257,85.61748919985257,85.61748919985257,up,0.26002409984357655,9,0,99,-0.16,-0.24,up,0.16724270023405552,None,,,,,,,,,,,,,,,,,,,,,,,,,,,,,,,,,,,2024-06-25_15h40.09.388,HideSeek_v1,2023.1.3,59.97760434561678,
,0,0,0,4,0,4,65,,train_dim1_1,10,24,2,0,2,0,,,,,,,,,0,0,0,0,0,9,9,9,2,0,2,0,,,,,,,,,,,,,,,,,,,,,,,,,,,,,,,,,,,,,,,,,,,,,,,,,,,,,,,24,,,,,,,,85.8841311999131,85.8841311999131,85.8841311999131,85.8841311999131,85.8841311999131,up,0.2926932000555098,9,0,99,-0.16,-0.15999999999999998,up,0.19749030005186796,None,,,,,,,,,,,,,,,,,,,,,,,,,,,,,,,,,,,2024-06-25_15h40.09.388,HideSeek_v1,2023.1.3,59.97760434561678,
,0,0,0,4,0,4,65,,train_dim1_1,10,24,2,0,2,0,,,,,,,,,0,0,0,0,0,9,9,9,3,0,3,0,,,,,,,,,,,,,,,,,,,,,,,,,,,,,,,,,,,,,,,,,,,,,,,,,,,,,,,24,,,,,,,,86.18409210001118,86.18409210001118,86.18409210001118,86.18409210001118,86.18409210001118,up,0.2607130000833422,9,0,99,-0.16,-0.07999999999999997,up,0.1543904000427574,None,,,,,,,,,,,,,,,,,,,,,,,,,,,,,,,,,,,2024-06-25_15h40.09.388,HideSeek_v1,2023.1.3,59.97760434561678,
,0,0,0,4,0,4,65,,train_dim1_1,10,24,2,0,2,0,,,,,,,,,0,0,0,0,0,9,9,9,4,0,4,0,,,,,,,,,,,,,,,,,,,,,,,,,,,,,,,,,,,,,,,,,,,,,,,,,,,,,,,24,,,,,,,,86.45069399988279,86.45069399988279,86.45069399988279,86.45069399988279,86.45069399988279,return,0.3270000999327749,10,0,1,-0.16,-0.07999999999999997,return,0.23051170003600419,None,33,0,-0.16,-0.07999999999999997,,,,,,,,,,,,,,,,,,,,,,,,,,,,,,,2024-06-25_15h40.09.388,HideSeek_v1,2023.1.3,59.97760434561678,
,4,2,4,3,0,1,62,,train_dim1_1,11,24,2,0,2,0,,,,,,,,,0,0,0,0,0,10,10,10,0,0,0,0,,,,,,,,,,,,,stimuli/alien_stimuli/62.png,,,,,,,,,,,,,,,,,,,,,,,,,,,,,,,stimuli/alien_stimuli/65.png,65,0,12,,,,,,,,24,,,,,,,,90.86726629990153,90.86726629990153,90.86726629990153,90.86726629990153,90.86726629990153,up,0.5084498999640346,10,0,99,0.16,-0.15999999999999998,up,0.414302300196141,None,,,,,89.30060819978826,90.86726629990153,-0.16,-0.08,0.32,0.0,-0.24000000000000002,-0.16,-0.16,-0.16,-0.08,88.32008369988762,88.32008369988762,88.32008369988762,88.32008369988762,88.32008369988762,88.32008369988762,88.32008369988762,88.32008369988762,88.30078273983672,1.0850927999708802,return,0.948205100139603,None,,,,,,,2024-06-25_15h40.09.388,HideSeek_v1,2023.1.3,59.97760434561678,
,4,2,4,3,0,1,62,,train_dim1_1,11,24,2,0,2,0,,,,,,,,,0,0,0,0,0,10,10,10,1,0,1,0,,,,,,,,,,,,,,,,,,,,,,,,,,,,,,,,,,,,,,,,,,,,,,,,,,,,,,,24,,,,,,,,91.3709609999787,91.3709609999787,91.3709609999787,91.3709609999787,91.3709609999787,return,1.0101044999901205,11,0,1,0.16,-0.15999999999999998,return,0.9306159000843763,None,34,0,0.16,-0.15999999999999998,,,,,,,,,,,,,,,,,,,,,,,,,,,,,,,2024-06-25_15h40.09.388,HideSeek_v1,2023.1.3,59.97760434561678,
,3,0,3,5,0,5,66,,train_dim1_1,12,24,2,0,2,0,,,,,,,,,0,0,0,0,0,11,11,11,0,0,0,0,,,,,,,,,,,,,stimuli/alien_stimuli/66.png,,,,,,,,,,,,,,,,,,,,,,,,,,,,,,,stimuli/alien_stimuli/62.png,62,4,13,,,,,,,,24,,,,,,,,96.01769579993561,96.01769579993561,96.01769579993561,96.01769579993561,96.01769579993561,up,0.42488239984959364,11,0,99,0.08,-0.32,up,0.325587100116536,None,,,,,94.43535319995135,93.95159909990616,0.16,-0.16,0.08,0.0,-0.2,0.16,0.16,0.16,-0.16,93.95159909990616,93.95159909990616,93.95159909990616,93.95159909990616,93.95159909990616,93.95159909990616,93.95159909990616,93.95159909990616,93.93411672979127,0.6027595999184996,return,0.45689560007303953,None,,,,,,,2024-06-25_15h40.09.388,HideSeek_v1,2023.1.3,59.97760434561678,
,3,0,3,5,0,5,66,,train_dim1_1,12,24,2,0,2,0,,,,,,,,,0,0,0,0,0,11,11,11,1,0,1,0,,,,,,,,,,,,,,,,,,,,,,,,,,,,,,,,,,,,,,,,,,,,,,,,,,,,,,,24,,,,,,,,96.45161239989102,96.45161239989102,96.45161239989102,96.45161239989102,96.45161239989102,up,0.2605059000197798,11,0,99,0.08,-0.24,up,0.16248820000328124,None,,,,,,,,,,,,,,,,,,,,,,,,,,,,,,,,,,,2024-06-25_15h40.09.388,HideSeek_v1,2023.1.3,59.97760434561678,
,3,0,3,5,0,5,66,,train_dim1_1,12,24,2,0,2,0,,,,,,,,,0,0,0,0,0,11,11,11,2,0,2,0,,,,,,,,,,,,,,,,,,,,,,,,,,,,,,,,,,,,,,,,,,,,,,,,,,,,,,,24,,,,,,,,96.71776599995792,96.71776599995792,96.71776599995792,96.71776599995792,96.71776599995792,up,0.27620500000193715,11,0,99,0.08,-0.15999999999999998,up,0.17236860026605427,None,,,,,,,,,,,,,,,,,,,,,,,,,,,,,,,,,,,2024-06-25_15h40.09.388,HideSeek_v1,2023.1.3,59.97760434561678,
,3,0,3,5,0,5,66,,train_dim1_1,12,24,2,0,2,0,,,,,,,,,0,0,0,0,0,11,11,11,3,0,3,0,,,,,,,,,,,,,,,,,,,,,,,,,,,,,,,,,,,,,,,,,,,,,,,,,,,,,,,24,,,,,,,,97.01744919992052,97.01744919992052,97.01744919992052,97.01744919992052,97.01744919992052,up,0.24480700003914535,11,0,99,0.08,-0.07999999999999997,up,0.12209300021640956,None,,,,,,,,,,,,,,,,,,,,,,,,,,,,,,,,,,,2024-06-25_15h40.09.388,HideSeek_v1,2023.1.3,59.97760434561678,
,3,0,3,5,0,5,66,,train_dim1_1,12,24,2,0,2,0,,,,,,,,,0,0,0,0,0,11,11,11,4,0,4,0,,,,,,,,,,,,,,,,,,,,,,,,,,,,,,,,,,,,,,,,,,,,,,,,,,,,,,,24,,,,,,,,97.26716409996152,97.26716409996152,97.26716409996152,97.26716409996152,97.26716409996152,up,0.2435910999774933,11,0,99,0.08,2.7755575615628914e-17,up,0.12558880005963147,None,,,,,,,,,,,,,,,,,,,,,,,,,,,,,,,,,,,2024-06-25_15h40.09.388,HideSeek_v1,2023.1.3,59.97760434561678,
,3,0,3,5,0,5,66,,train_dim1_1,12,24,2,0,2,0,,,,,,,,,0,0,0,0,0,11,11,11,5,0,5,0,,,,,,,,,,,,,,,,,,,,,,,,,,,,,,,,,,,,,,,,,,,,,,,,,,,,,,,24,,,,,,,,97.50052469992079,97.50052469992079,97.50052469992079,97.50052469992079,97.50052469992079,return,0.2940555999521166,12,0,1,0.08,2.7755575615628914e-17,return,0.19629650004208088,None,39,0,0.08,2.7755575615628914e-17,,,,,,,,,,,,,,,,,,,,,,,,,,,,,,,2024-06-25_15h40.09.388,HideSeek_v1,2023.1.3,59.97760434561678,
,2,1,2,4,0,3,64,,train_dim1_1,13,24,2,0,2,0,,,,,,,,,0,0,0,0,0,12,12,12,0,0,0,0,,,,,,,,,,,,,stimuli/alien_stimuli/64.png,,,,,,,,,,,,,,,,,,,,,,,,,,,,,,,stimuli/alien_stimuli/66.png,66,3,14,,,,,,,,24,,,,,,,,100.9671569999773,100.9671569999773,100.9671569999773,100.9671569999773,100.9671569999773,up,0.45839300006628036,12,0,99,0,-0.24,up,0.36581460013985634,None,,,,,99.4008078998886,100.9671569999773,0.08,0,0.4,0.0,-0.2,0.08,0.08,0.08,0,99.35480179986916,99.35480179986916,99.35480179986916,99.35480179986916,99.35480179986916,99.35480179986916,99.35480179986916,99.35480179986916,99.33440902971196,0.1675688000395894,return,0.024939400143921375,None,,,,,,,2024-06-25_15h40.09.388,HideSeek_v1,2023.1.3,59.97760434561678,
,2,1,2,4,0,3,64,,train_dim1_1,13,24,2,0,2,0,,,,,,,,,0,0,0,0,0,12,12,12,1,0,1,0,,,,,,,,,,,,,,,,,,,,,,,,,,,,,,,,,,,,,,,,,,,,,,,,,,,,,,,24,,,,,,,,101.43388839997351,101.43388839997351,101.43388839997351,101.43388839997351,101.43388839997351,up,0.29347289982251823,12,0,99,0,-0.15999999999999998,up,0.19628060003742576,None,,,,,,,,,,,,,,,,,,,,,,,,,,,,,,,,,,,2024-06-25_15h40.09.388,HideSeek_v1,2023.1.3,59.97760434561678,
,2,1,2,4,0,3,64,,train_dim1_1,13,24,2,0,2,0,,,,,,,,,0,0,0,0,0,12,12,12,2,0,2,0,,,,,,,,,,,,,,,,,,,,,,,,,,,,,,,,,,,,,,,,,,,,,,,,,,,,,,,24,,,,,,,,101.72250749985687,101.72250749985687,101.72250749985687,101.72250749985687,101.72250749985687,up,0.22715279995463789,12,0,99,0,-0.07999999999999997,up,0.13316420023329556,None,,,,,,,,,,,,,,,,,,,,,,,,,,,,,,,,,,,2024-06-25_15h40.09.388,HideSeek_v1,2023.1.3,59.97760434561678,
,2,1,2,4,0,3,64,,train_dim1_1,13,24,2,0,2,0,,,,,,,,,0,0,0,0,0,12,12,12,3,0,3,0,,,,,,,,,,,,,,,,,,,,,,,,,,,,,,,,,,,,,,,,,,,,,,,,,,,,,,,24,,,,,,,,101.96756569994614,101.96756569994614,101.96756569994614,101.96756569994614,101.96756569994614,return,0.5274847000837326,13,0,1,0,-0.07999999999999997,return,0.4306721002794802,None,42,0,0,-0.07999999999999997,,,,,,,,,,,,,,,,,,,,,,,,,,,,,,,2024-06-25_15h40.09.388,HideSeek_v1,2023.1.3,59.97760434561678,
,4,3,4,7,0,4,65,,train_dim1_1,14,24,2,0,2,0,,,,,,,,,0,0,0,0,0,13,13,13,0,0,0,0,,,,,,,,,,,,,stimuli/alien_stimuli/65.png,,,,,,,,,,,,,,,,,,,,,,,,,,,,,,,stimuli/alien_stimuli/64.png,64,2,15,,,,,,,,24,,,,,,,,106.01778139988892,106.01778139988892,106.01778139988892,106.01778139988892,106.01778139988892,up,0.7074874001555145,13,0,99,0.16,-0.08,up,0.6124219999182969,None,,,,,104.45057499990799,106.01778139988892,0,-0.08,0.24,0.0,-0.2,0,0.0,0,-0.08,104.05161369987763,104.05161369987763,104.05161369987763,104.05161369987763,104.05161369987763,104.05161369987763,104.05161369987763,104.05161369987763,104.03407232977915,0.5180673999711871,return,0.3794676000252366,None,,,,,,,2024-06-25_15h40.09.388,HideSeek_v1,2023.1.3,59.97760434561678,
,4,3,4,7,0,4,65,,train_dim1_1,14,24,2,0,2,0,,,,,,,,,0,0,0,0,0,13,13,13,1,0,1,0,,,,,,,,,,,,,,,,,,,,,,,,,,,,,,,,,,,,,,,,,,,,,,,,,,,,,,,24,,,,,,,,106.72195419995114,106.72195419995114,106.72195419995114,106.72195419995114,106.72195419995114,up,0.36073560011573136,13,0,99,0.16,0.0,up,0.26863890001550317,None,,,,,,,,,,,,,,,,,,,,,,,,,,,,,,,,,,,2024-06-25_15h40.09.388,HideSeek_v1,2023.1.3,59.97760434561678,
,4,3,4,7,0,4,65,,train_dim1_1,14,24,2,0,2,0,,,,,,,,,0,0,0,0,0,13,13,13,2,0,2,0,,,,,,,,,,,,,,,,,,,,,,,,,,,,,,,,,,,,,,,,,,,,,,,,,,,,,,,24,,,,,,,,107.1008630997967,107.1008630997967,107.1008630997967,107.1008630997967,107.1008630997967,up,0.34419990004971623,13,0,99,0.16,0.08,up,0.23974270024336874,None,,,,,,,,,,,,,,,,,,,,,,,,,,,,,,,,,,,2024-06-25_15h40.09.388,HideSeek_v1,2023.1.3,59.97760434561678,
,4,3,4,7,0,4,65,,train_dim1_1,14,24,2,0,2,0,,,,,,,,,0,0,0,0,0,13,13,13,3,0,3,0,,,,,,,,,,,,,,,,,,,,,,,,,,,,,,,,,,,,,,,,,,,,,,,,,,,,,,,24,,,,,,,,107.45039909984916,107.45039909984916,107.45039909984916,107.45039909984916,107.45039909984916,up,0.29331839992664754,13,0,99,0.16,0.16,up,0.18998580030165613,None,,,,,,,,,,,,,,,,,,,,,,,,,,,,,,,,,,,2024-06-25_15h40.09.388,HideSeek_v1,2023.1.3,59.97760434561678,
,4,3,4,7,0,4,65,,train_dim1_1,14,24,2,0,2,0,,,,,,,,,0,0,0,0,0,13,13,13,4,0,4,0,,,,,,,,,,,,,,,,,,,,,,,,,,,,,,,,,,,,,,,,,,,,,,,,,,,,,,,24,,,,,,,,107.7512956999708,107.7512956999708,107.7512956999708,107.7512956999708,107.7512956999708,return,0.2939764999318868,14,0,1,0.16,0.16,return,0.19266719999723136,None,46,0,0.16,0.16,,,,,,,,,,,,,,,,,,,,,,,,,,,,,,,2024-06-25_15h40.09.388,HideSeek_v1,2023.1.3,59.97760434561678,
,1,0,1,5,0,5,66,,train_dim1_1,15,24,2,0,2,0,,,,,,,,,0,0,0,0,0,14,14,14,0,0,0,0,,,,,,,,,,,,,stimuli/alien_stimuli/66.png,,,,,,,,,,,,,,,,,,,,,,,,,,,,,,,stimuli/alien_stimuli/65.png,65,4,16,,,,,,,,24,,,,,,,,112.01732589979656,112.01732589979656,112.01732589979656,112.01732589979656,112.01732589979656,up,0.4063191001769155,14,0,99,-0.08,-0.32,up,0.30920490017160773,None,,,,,110.45050789997913,112.01732589979656,0.16,0.16,0.32,0.0,0.0,0.16,0.16,0.16,0.16,109.58848119992763,109.58848119992763,109.58848119992763,109.58848119992763,109.58848119992763,109.58848119992763,109.58848119992763,109.58848119992763,109.56731763989664,0.9676391000393778,return,0.8392776001710445,None,,,,,,,2024-06-25_15h40.09.388,HideSeek_v1,2023.1.3,59.97760434561678,
,1,0,1,5,0,5,66,,train_dim1_1,15,24,2,0,2,0,,,,,,,,,0,0,0,0,0,14,14,14,1,0,1,0,,,,,,,,,,,,,,,,,,,,,,,,,,,,,,,,,,,,,,,,,,,,,,,,,,,,,,,24,,,,,,,,112.42175969993696,112.42175969993696,112.42175969993696,112.42175969993696,112.42175969993696,up,0.260313400067389,14,0,99,-0.08,-0.24,up,0.1730229000095278,None,,,,,,,,,,,,,,,,,,,,,,,,,,,,,,,,,,,2024-06-25_15h40.09.388,HideSeek_v1,2023.1.3,59.97760434561678,
,1,0,1,5,0,5,66,,train_dim1_1,15,24,2,0,2,0,,,,,,,,,0,0,0,0,0,14,14,14,2,0,2,0,,,,,,,,,,,,,,,,,,,,,,,,,,,,,,,,,,,,,,,,,,,,,,,,,,,,,,,24,,,,,,,,112.68883379991166,112.68883379991166,112.68883379991166,112.68883379991166,112.68883379991166,up,0.21073659998364747,14,0,99,-0.08,-0.15999999999999998,up,0.12433240003883839,None,,,,,,,,,,,,,,,,,,,,,,,,,,,,,,,,,,,2024-06-25_15h40.09.388,HideSeek_v1,2023.1.3,59.97760434561678,
,1,0,1,5,0,5,66,,train_dim1_1,15,24,2,0,2,0,,,,,,,,,0,0,0,0,0,14,14,14,3,0,3,0,,,,,,,,,,,,,,,,,,,,,,,,,,,,,,,,,,,,,,,,,,,,,,,,,,,,,,,24,,,,,,,,112.91703619994223,112.91703619994223,112.91703619994223,112.91703619994223,112.91703619994223,up,0.2437929001171142,14,0,99,-0.08,-0.07999999999999997,up,0.15094110020436347,None,,,,,,,,,,,,,,,,,,,,,,,,,,,,,,,,,,,2024-06-25_15h40.09.388,HideSeek_v1,2023.1.3,59.97760434561678,
,1,0,1,5,0,5,66,,train_dim1_1,15,24,2,0,2,0,,,,,,,,,0,0,0,0,0,14,14,14,4,0,4,0,,,,,,,,,,,,,,,,,,,,,,,,,,,,,,,,,,,,,,,,,,,,,,,,,,,,,,,24,,,,,,,,113.15537559986115,113.15537559986115,113.15537559986115,113.15537559986115,113.15537559986115,up,0.31091310014016926,14,0,99,-0.08,2.7755575615628914e-17,up,0.21921610017307103,None,,,,,,,,,,,,,,,,,,,,,,,,,,,,,,,,,,,2024-06-25_15h40.09.388,HideSeek_v1,2023.1.3,59.97760434561678,
,1,0,1,5,0,5,66,,train_dim1_1,15,24,2,0,2,0,,,,,,,,,0,0,0,0,0,14,14,14,5,0,5,0,,,,,,,,,,,,,,,,,,,,,,,,,,,,,,,,,,,,,,,,,,,,,,,,,,,,,,,24,,,,,,,,113.48395419982262,113.48395419982262,113.48395419982262,113.48395419982262,113.48395419982262,return,0.36080250004306436,15,0,1,-0.08,2.7755575615628914e-17,return,0.2668296000920236,None,51,0,-0.08,2.7755575615628914e-17,,,,,,,,,,,,,,,,,,,,,,,,,,,,,,,2024-06-25_15h40.09.388,HideSeek_v1,2023.1.3,59.97760434561678,
,3,1,3,2,0,1,62,,train_dim1_1,16,24,2,0,2,0,,,,,,,,,0,0,0,0,0,15,15,15,0,0,0,0,,,,,,,,,,,,,stimuli/alien_stimuli/62.png,,,,,,,,,,,,,,,,,,,,,,,,,,,,,,,stimuli/alien_stimuli/66.png,66,1,17,,,,,,,,24,,,,,,,,118.11724950000644,118.11724950000644,118.11724950000644,118.11724950000644,118.11724950000644,return,0.44331540004350245,15,0,0,0.08,-0.32,return,0.34802050003781915,None,51,0,0.08,-0.32,116.55044259992428,118.11724950000644,-0.08,0,0.4,0.0,-0.2,-0.08,-0.08,-0.08,0,115.41706589981914,115.41706589981914,115.41706589981914,115.41706589981914,115.41706589981914,115.41706589981914,115.41706589981914,115.41706589981914,115.40053622985724,1.252129799919203,return,1.1119185001589358,None,,,,,,,2024-06-25_15h40.09.388,HideSeek_v1,2023.1.3,59.97760434561678,
,0,2,0,7,0,5,66,,train_dim1_1,17,24,2,0,2,0,,,,,,,,,0,0,0,0,0,16,16,16,0,0,0,0,,,,,,,,,,,,,stimuli/alien_stimuli/66.png,,,,,,,,,,,,,,,,,,,,,,,,,,,,,,,stimuli/alien_stimuli/62.png,62,3,18,,,,,,,,24,,,,,,,,122.00087959994562,122.00087959994562,122.00087959994562,122.00087959994562,122.00087959994562,return,0.47384239989332855,15,0,0,-0.16,-0.24,return,0.37288410030305386,None,51,0,-0.16,-0.24,120.43356029991992,122.00087959994562,0.08,-0.24,0.08,0.0,-0.28,0.08,0.08,0.08,-0.24,120.117811499862,120.117811499862,120.117811499862,120.117811499862,120.117811499862,120.117811499862,120.117811499862,120.117811499862,120.10106382986996,0.4344057000707835,return,0.284166700206697,None,,,,,,,2024-06-25_15h40.09.388,HideSeek_v1,2023.1.3,59.97760434561678,
,1,2,1,6,0,4,65,,train_dim1_1,18,24,2,0,2,0,,,,,,,,,0,0,0,0,0,17,17,17,0,0,0,0,,,,,,,,,,,,,stimuli/alien_stimuli/65.png,,,,,,,,,,,,,,,,,,,,,,,,,,,,,,,stimuli/alien_stimuli/66.png,66,0,19,,,,,,,,24,,,,,,,,126.01928539993241,126.01928539993241,126.01928539993241,126.01928539993241,126.01928539993241,return,0.7562758999411017,15,0,0,-0.08,-0.24,return,0.6604080002289265,None,51,0,-0.08,-0.24,124.45033659995534,126.01928539993241,-0.16,0.16,0.4,0.0,-0.039999999999999994,-0.16,-0.16,-0.16,0.16,124.03436019993387,124.03436019993387,124.03436019993387,124.03436019993387,124.03436019993387,124.03436019993387,124.03436019993387,124.03436019993387,124.01780282987747,0.5344204001594335,return,0.39596940018236637,None,,,,,,,2024-06-25_15h40.09.388,HideSeek_v1,2023.1.3,59.97760434561678,
,1,4,1,5,0,1,62,,train_dim1_1,19,24,2,0,2,0,,,,,,,,,0,0,0,0,0,18,18,18,0,0,0,0,,,,,,,,,,,,,stimuli/alien_stimuli/62.png,,,,,,,,,,,,,,,,,,,,,,,,,,,,,,,stimuli/alien_stimuli/65.png,65,1,20,,,,,,,,24,,,,,,,,130.2004535999149,130.2004535999149,130.2004535999149,130.2004535999149,130.2004535999149,return,0.6231492999941111,15,0,0,-0.08,-0.08,return,0.5282723000273108,None,51,0,-0.08,-0.08,128.63391559990123,130.2004535999149,-0.08,0.08,0.32,0.0,-0.07999999999999999,-0.08,-0.08,-0.08,0.08,128.3334999999497,128.3334999999497,128.3334999999497,128.3334999999497,128.3334999999497,128.3334999999497,128.3334999999497,128.3334999999497,128.31705252991526,0.41842220001854,return,0.2700726999901235,None,,,,,,,2024-06-25_15h40.09.388,HideSeek_v1,2023.1.3,59.97760434561678,
,3,2,3,5,0,3,64,,train_dim1_1,20,24,2,0,2,0,,,,,,,,,0,0,0,0,0,19,19,19,0,0,0,0,,,,,,,,,,,,,stimuli/alien_stimuli/64.png,,,,,,,,,,,,,,,,,,,,,,,,,,,,,,,stimuli/alien_stimuli/62.png,62,1,21,,,,,,,,24,,,,,,,,134.38364619994536,134.38364619994536,134.38364619994536,134.38364619994536,134.38364619994536,return,0.4071311999578029,15,0,0,0.08,-0.24,return,0.3080417001619935,None,51,0,0.08,-0.24,132.8172759998124,134.38364619994536,-0.08,0,0.08,0.0,-0.04,-0.08,-0.08,-0.08,0,132.3838374998886,132.3838374998886,132.3838374998886,132.3838374998886,132.3838374998886,132.3838374998886,132.3838374998886,132.3838374998886,132.3672230297467,0.5513432000298053,return,0.41323260008357465,None,,,,,,,2024-06-25_15h40.09.388,HideSeek_v1,2023.1.3,59.97760434561678,
,2,4,2,5,0,1,62,,train_dim1_1,21,24,2,0,2,0,,,,,,,,,0,0,0,0,0,20,20,20,0,0,0,0,,,,,,,,,,,,,stimuli/alien_stimuli/62.png,,,,,,,,,,,,,,,,,,,,,,,,,,,,,,,stimuli/alien_stimuli/64.png,64,3,22,,,,,,,,24,,,,,,,,143.50019799987786,143.50019799987786,143.50019799987786,143.50019799987786,143.50019799987786,return,0.4751766000408679,15,0,0,0,-0.08,return,0.3824366999324411,None,51,0,0,-0.08,141.93393850000575,143.50019799987786,0.08,0,0.24,0.0,-0.12,0.08,0.08,0.08,0,136.35032259998843,136.35032259998843,136.35032259998843,136.35032259998843,136.35032259998843,136.35032259998843,136.35032259998843,136.35032259998843,136.33438682977578,5.701190499821678,return,5.5569653999991715,None,,,,,,,2024-06-25_15h40.09.388,HideSeek_v1,2023.1.3,59.97760434561678,
,0,1,0,5,0,4,65,,train_dim1_1,22,24,2,0,2,0,,,,,,,,,0,0,0,0,0,21,21,21,0,0,0,0,,,,,,,,,,,,,stimuli/alien_stimuli/65.png,,,,,,,,,,,,,,,,,,,,,,,,,,,,,,,stimuli/alien_stimuli/62.png,62,2,23,,,,,,,,24,,,,,,,,147.60026499978267,147.60026499978267,147.60026499978267,147.60026499978267,147.60026499978267,return,0.6071801001671702,15,0,0,-0.16,-0.32,return,0.5074138001073152,None,51,0,-0.16,-0.32,146.0333044999279,147.60026499978267,0,0,0.08,0.0,-0.04,0,0.0,0,0,145.55431269994006,145.55431269994006,145.55431269994006,145.55431269994006,145.55431269994006,145.55431269994006,145.55431269994006,145.55431269994006,145.5507497197017,0.6013172999955714,return,0.46234610001556575,None,,,,,,,2024-06-25_15h40.09.388,HideSeek_v1,2023.1.3,59.97760434561678,
,2,3,2,6,0,3,64,,train_dim1_1,23,24,2,0,2,0,,,,,,,,,0,0,0,0,0,22,22,22,0,0,0,0,,,,,,,,,,,,,stimuli/alien_stimuli/64.png,,,,,,,,,,,,,,,,,,,,,,,,,,,,,,,stimuli/alien_stimuli/65.png,65,0,24,,,,,,,,24,,,,,,,,151.7167885999661,151.7167885999661,151.7167885999661,151.7167885999661,151.7167885999661,return,0.6572745000012219,15,0,0,0,-0.16,return,0.5627554000820965,None,51,0,0,-0.16,150.1501724999398,151.7167885999661,-0.16,0,0.32,0.0,-0.16,-0.16,-0.16,-0.16,0,149.76674459991045,149.76674459991045,149.76674459991045,149.76674459991045,149.76674459991045,149.76674459991045,149.76674459991045,149.76674459991045,149.75009382984138,0.5013484999071807,return,0.3578431000933051,None,,,,,,,2024-06-25_15h40.09.388,HideSeek_v1,2023.1.3,59.97760434561678,
,1,1,1,6,0,5,66,,train_dim1_1,24,24,2,0,2,0,,,,,,,,,0,0,0,0,0,23,23,23,0,0,0,0,,,,,,,,,,,,,stimuli/alien_stimuli/66.png,,,,,,,,,,,,,,,,,,,,,,,,,,,,,,,stimuli/alien_stimuli/64.png,64,2,25,,,,,,,,24,,,,,,,,156.55005789990537,156.55005789990537,156.55005789990537,156.55005789990537,156.55005789990537,return,0.40873690019361675,15,0,0,-0.08,-0.32,return,0.3047023001126945,None,51,0,-0.08,-0.32,154.98336449987255,156.55005789990537,0,0.08,0.24,0.0,-0.04,0,0.0,0,0.08,153.93344769999385,153.93344769999385,153.93344769999385,153.93344769999385,153.93344769999385,153.93344769999385,153.93344769999385,153.93344769999385,153.91682052987164,1.1690096999518573,return,1.0321118000429124,None,,,,,,,2024-06-25_15h40.09.388,HideSeek_v1,2023.1.3,59.97760434561678,
,,,,,,,,,,,24,2,0,2,0,,,,,,,,,,,,,,,,,,,,,,,,,,,,,,,,,,,,,,,,,,,,,,,,,,,,,,,,,,,,,,,,stimuli/alien_stimuli/66.png,66,1,26,0,17,0.7,62.50000000000001,1,1,1,24,0,conditions/inputTrain_2.1.xlsx,99,1,2,1,0,,,,,,,,,,0,,,,,,,,,,159.4165811999701,160.98323569982313,-0.08,0.08,0.4,0.0,-0.12,-0.08,-0.08,-0.08,0.08,158.5000793999061,158.5000793999061,158.5000793999061,158.5000793999061,158.5000793999061,158.5000793999061,158.5000793999061,158.5000793999061,158.48333993991838,1.018413000041619,return,0.9003564002923667,None,0,0,1,,,,2024-06-25_15h40.09.388,HideSeek_v1,2023.1.3,59.97760434561678,
,,,,,,,,,,,,,,,,,,,,,,,,,,,,,,,,,,,,,,stimuli/instructions/Slide17.png,stimuli/instructions/Audio17.wav,160.98323569982313,160.96675355993213,,,,,,,,,,,,,,,,,,,,,,,,,,,,,,,,,,,,,,,,,,,,,,,,,,,,,,,,,,,,,,,,,,,,,,,,,,,,,,,,,,,,,,,,,,,,,,,,,,,,,,,,,,,,,,
