trialInstr,x_fixStart,y_fixStart,x_corrSteps,y_corrSteps,x_nrSteps,y_nrSteps,alienID,trialLength,version,trialTrain,praclen,beforeExpLoop.thisRepN,beforeExpLoop.thisTrialN,beforeExpLoop.thisN,beforeExpLoop.thisIndex,mini_instr_trials.thisRepN,mini_instr_trials.thisTrialN,mini_instr_trials.thisN,mini_instr_trials.thisIndex,instrLoop.thisRepN,instrLoop.thisTrialN,instrLoop.thisN,instrLoop.thisIndex,repeat_prac.thisRepN,repeat_prac.thisTrialN,repeat_prac.thisN,repeat_prac.thisIndex,trainLoop.thisRepN,trainLoop.thisTrialN,trainLoop.thisN,trainLoop.thisIndex,moveLoop_train.thisRepN,moveLoop_train.thisTrialN,moveLoop_train.thisN,moveLoop_train.thisIndex,experiment.thisRepN,experiment.thisTrialN,experiment.thisN,experiment.thisIndex,start_all_time,url,slideStim,audioStim,slides.started,sounds.started,nextButton.numClicks,nextButton.timesOn,nextButton.timesOff,prev_but.numClicks,prev_but.timesOn,prev_but.timesOff,alienStim,instrFile,alienStim_instr,gridImage_instr.started,startPos_3.started,key_instr.started,alienImage_3.started,sounds_1.started,key_instr.keys,key_instr.rt,key_instr.duration,all_x,all_y,FBy_corrSteps,FBy_fixStart,FBx_corrSteps,FBx_fixStart,FBy_pathSize_check,FBx_pathSize_check,gridImage_9.started,alienImageFB_3.started,startPosFB_3.started,keyFB_3.started,pathLine_ydir_2.started,pathLine_xdir_2.started,alienFace_3.started,sounds_2.started,RTFB_instr,keyFB_3.keys,keyFB_3.rt,keyFB_3.duration,draw_alienStim,draw_alienID,test_x,nrepcount,perfthres,percthres,earlierperf,earlystop,nextPrac,fileidx,praclen,saveACC_train,pracFile,nextPrac_train,addNrep,fileidx_endr,repExp,showearly,gridImage_4.started,startPos.started,movePos.started,key_resp.started,alienImage.started,buttonPress_train,RTchoice_train,cumAcctrain,saveACC_choice,corrAns,x_movePos_end,y_movePos_end,key_resp.keys,key_resp.rt,key_resp.duration,wLy_dir,wLx_dir,x_movePos,y_movePos,text_2.started,text_2.stopped,aft_x_corrPos,aft_y_corrPos,y_pathSize_check,x_pathSize_check,y_pathdirY,x_pathdirY,x_pathdirX,x_corrPos,y_corrPos,gridImage_6.started,alienImageFB_2.started,startPosFB_2.started,movePosFB_2.started,keyFB_2.started,pathLine_xdir.started,pathLine_ydir.started,alienFace.started,sounds_4.started,RT_FBtrain,keyFB_2.keys,keyFB_2.rt,keyFB_2.duration,saveACC_pre,ACC,within_saveACC_train,earlystop_wloop,cumAcctrain_check,endstatus,url_stopearly,slide_stop.started,key_resp_3.started,participant,study_id,session_id,date,expName,psychopyVersion,frameRate,
,,,,,,,,,,,,0,0,0,0,0,0,0,0,,,,,,,,,,,,,,,,,,,,,start_all_time,testround,stimuli/instructions/Slide1.png,stimuli/instructions/Audio1.wav,11.282527499832213,11.240346922259777,1,[1.6970186999533325],[1.6970246999990195],0,,,,,,,,,,,,,,,,,,,,,,,,,,,,,,,,,,,,,,,,,,,,,,,,,,,,,,,,,,,,,,,,,,,,,,,,,,,,,,,,,,,,,,,,,,,,,,,,,,,,,,,,,,,2024-06-25_16h21.48.545,HideSeek_v1,2023.1.3,60.113566518857226,
,,,,,,,,,,,,0,0,0,0,1,0,1,0,,,,,,,,,,,,,,,,,,,,,,,stimuli/instructions/Slide2.png,stimuli/instructions/Audio2.wav,13.034184099873528,13.033949640020728,1,[0.4155647000297904],[0.41556960018351674],0,,,,,,,,,,,,,,,,,,,,,,,,,,,,,,,,,,,,,,,,,,,,,,,,,,,,,,,,,,,,,,,,,,,,,,,,,,,,,,,,,,,,,,,,,,,,,,,,,,,,,,,,,,,2024-06-25_16h21.48.545,HideSeek_v1,2023.1.3,60.113566518857226,
,,,,,,,,,,,,0,0,0,0,2,0,2,0,,,,,,,,,,,,,,,,,,,,,,,stimuli/instructions/Slide3.png,stimuli/instructions/Audio3.wav,13.550788599997759,13.549630080163478,1,[0.29810299980454147],[0.29810859984718263],0,,,,,,,,,,,,,,,,,,,,,,,,,,,,,,,,,,,,,,,,,,,,,,,,,,,,,,,,,,,,,,,,,,,,,,,,,,,,,,,,,,,,,,,,,,,,,,,,,,,,,,,,,,,2024-06-25_16h21.48.545,HideSeek_v1,2023.1.3,60.113566518857226,
,,,,,,,,,,,,0,0,0,0,3,0,3,0,,,,,,,,,,,,,,,,,,,,,,,stimuli/instructions/Slide4.png,stimuli/instructions/Audio4.wav,13.952476299833506,13.949701780034228,1,[0.28053519991226494],[0.2805399999488145],0,,,,,,,,,,,,,,,,,,,,,,,,,,,,,,,,,,,,,,,,,,,,,,,,,,,,,,,,,,,,,,,,,,,,,,,,,,,,,,,,,,,,,,,,,,,,,,,,,,,,,,,,,,,2024-06-25_16h21.48.545,HideSeek_v1,2023.1.3,60.113566518857226,
,,,,,,,,,,,,0,0,0,0,4,0,4,0,,,,,,,,,,,,,,,,,,,,,,,stimuli/instructions/Slide5.png,stimuli/instructions/Audio5.wav,14.285838899901137,14.28385336007923,1,[0.2955211999360472],[0.2955272998660803],0,,,,,,,,,,,,,,,,,,,,,,,,,,,,,,,,,,,,,,,,,,,,,,,,,,,,,,,,,,,,,,,,,,,,,,,,,,,,,,,,,,,,,,,,,,,,,,,,,,,,,,,,,,,2024-06-25_16h21.48.545,HideSeek_v1,2023.1.3,60.113566518857226,
,,,,,,,,,,,,0,0,0,0,5,0,5,0,,,,,,,,,,,,,,,,,,,,,,,stimuli/instructions/Slide6.png,stimuli/instructions/Audio6.wav,14.629749199841172,14.616166319884359,1,[0.25272280001081526],[0.25272760004736483],0,,,,,,,,,,,,,,,,,,,,,,,,,,,,,,,,,,,,,,,,,,,,,,,,,,,,,,,,,,,,,,,,,,,,,,,,,,,,,,,,,,,,,,,,,,,,,,,,,,,,,,,,,,,2024-06-25_16h21.48.545,HideSeek_v1,2023.1.3,60.113566518857226,
,,,,,,,,,,,,0,0,0,0,6,0,6,0,,,,,,,,,,,,,,,,,,,,,,,stimuli/instructions/Slide7.png,stimuli/instructions/Audio7.wav,14.931484000058845,14.933107559895143,1,[0.2666649997700006],[0.2666686999145895],0,,,,,,,,,,,,,,,,,,,,,,,,,,,,,,,,,,,,,,,,,,,,,,,,,,,,,,,,,,,,,,,,,,,,,,,,,,,,,,,,,,,,,,,,,,,,,,,,,,,,,,,,,,,2024-06-25_16h21.48.545,HideSeek_v1,2023.1.3,60.113566518857226,
,,,,,,,,,,,,0,0,0,0,7,0,7,0,,,,,,,,,,,,,,,,,,,,,,,stimuli/instructions/Slide8.png,stimuli/instructions/Audio8.wav,15.266108699841425,15.26636469992809,1,[0.24903400009498],[0.2490393000189215],0,,,,,,,,,,,,,,,,,,,,,,,,,,,,,,,,,,,,,,,,,,,,,,,,,,,,,,,,,,,,,,,,,,,,,,,,,,,,,,,,,,,,,,,,,,,,,,,,,,,,,,,,,,,2024-06-25_16h21.48.545,HideSeek_v1,2023.1.3,60.113566518857226,
,,,,,,,,,,,,0,0,0,0,8,0,8,0,,,,,,,,,,,,,,,,,,,,,,,stimuli/instructions/Slide9.png,stimuli/instructions/Audio9.wav,15.582800099859014,15.565875559905544,1,[0.2611582998652011],[0.2611622998956591],0,,,,,,,,,,,,,,,,,,,,,,,,,,,,,,,,,,,,,,,,,,,,,,,,,,,,,,,,,,,,,,,,,,,,,,,,,,,,,,,,,,,,,,,,,,,,,,,,,,,,,,,,,,,2024-06-25_16h21.48.545,HideSeek_v1,2023.1.3,60.113566518857226,
,,,,,,,,,,,,0,0,0,0,9,0,9,0,,,,,,,,,,,,,,,,,,,,,,,stimuli/instructions/Slide10.png,stimuli/instructions/Audio10.wav,15.899332699831575,15.883899960061536,1,[0.22445300011895597],[0.22445990005508065],0,,,,,,,,,,,,,,,,,,,,,,,,,,,,,,,,,,,,,,,,,,,,,,,,,,,,,,,,,,,,,,,,,,,,,,,,,,,,,,,,,,,,,,,,,,,,,,,,,,,,,,,,,,,2024-06-25_16h21.48.545,HideSeek_v1,2023.1.3,60.113566518857226,
,,,,,,,,,,,,0,0,0,0,10,0,10,0,,,,,,,,,,,,,,,,,,,,,,,stimuli/instructions/Slide11.png,stimuli/instructions/Audio11.wav,16.182970999972895,16.166390759963544,1,[0.23750100005418062],[0.23750479985028505],0,,,,,,,,,,,,,,,,,,,,,,,,,,,,,,,,,,,,,,,,,,,,,,,,,,,,,,,,,,,,,,,,,,,,,,,,,,,,,,,,,,,,,,,,,,,,,,,,,,,,,,,,,,,2024-06-25_16h21.48.545,HideSeek_v1,2023.1.3,60.113566518857226,
,,,,,,,,,,,,0,0,0,0,11,0,11,0,,,,,,,,,,,,,,,,,,,,,,,stimuli/instructions/Slide12.png,stimuli/instructions/Audio12.wav,16.483410299988464,16.482984900008887,1,[0.26438209996558726],[0.26438589999452233],0,,,,,,,,,,,,,,,,,,,,,,,,,,,,,,,,,,,,,,,,,,,,,,,,,,,,,,,,,,,,,,,,,,,,,,,,,,,,,,,,,,,,,,,,,,,,,,,,,,,,,,,,,,,2024-06-25_16h21.48.545,HideSeek_v1,2023.1.3,60.113566518857226,
1,0,3,0,8,0,5,66,2,instr_dim1_1,,,0,0,0,0,,,,,0,0,0,0,,,,,,,,,,,,,,,,,,,,,,,,,,,,,stimuli/alien_stimuli/66.png,conditions/inputInstr_1.xlsx,stimuli/alien_stimuli/66.png,16.897940499940887,16.897940499940887,16.897940499940887,16.897940499940887,16.81654189992696,return,0.9370566001161933,None,"[-0.16, -0.08, 0, 0.08, 0.16, 0.24, 0.32, 0.4, 0.48, 0.56]","[-0.4, -0.32, -0.24, -0.16, -0.08, 0, 0.08, 0.16, 0.24, 0.32]",8,3,0,0,0.4,0.0,18.03074870002456,18.03074870002456,18.03074870002456,18.03074870002456,18.03074870002456,18.03074870002456,18.03074870002456,17.999627560004594,0.21711319987662137,return,0.014376100152730942,None,stimuli/alien_stimuli/66.png,66,0,1,,,,,,,,,,,,,,,,,,,,,,,,,,,,,,,,,,,,,,,,,,,,,,,,,,,,,,,,,,,,,,,,,,,,,,2024-06-25_16h21.48.545,HideSeek_v1,2023.1.3,60.113566518857226,
,,,,,,,,,,,24,0,0,0,0,,,,,,,,,,,,,,,,,,,,,,,,,,,,,,,,,,,,,,,,,,,,,,,,,,,,,,,,,,,,,,,,,,,,,,,,17,70,0,0,99,1,24,0,conditions/inputTrain_1.1.xlsx,99,1,1,1,0,,,,,,,,,,,,,,,,,,,,,,,,,,,,,,,,,,,,,,,,,,,,,,,,,,,,,,,,2024-06-25_16h21.48.545,HideSeek_v1,2023.1.3,60.113566518857226,
,,,,,,,,,,,,1,0,1,0,0,0,0,0,,,,,,,,,,,,,,,,,,,,,,,stimuli/instructions/Slide13.png,stimuli/instructions/Audio13.wav,18.282245500013232,18.26625588005409,1,[0.8418709000106901],[0.8418741000350565],0,,,,,,,,,,,,,,,,,,,,,,,,,,,,,,,,,,,,,,,,,,,,,,,,,,,,,,,,,,,,,,,,,,,,,,,,,,,,,,,,,,,,,,,,,,,,,,,,,,,,,,,,,,,2024-06-25_16h21.48.545,HideSeek_v1,2023.1.3,60.113566518857226,
,,,,,,,,,,,,1,0,1,0,1,0,1,0,,,,,,,,,,,,,,,,,,,,,,,stimuli/instructions/Slide14.png,stimuli/instructions/Audio14.wav,19.199718300020322,19.18297139997594,1,[0.3576512997969985],[0.3576552998274565],0,,,,,,,,,,,,,,,,,,,,,,,,,,,,,,,,,,,,,,,,,,,,,,,,,,,,,,,,,,,,,,,,,,,,,,,,,,,,,,,,,,,,,,,,,,,,,,,,,,,,,,,,,,,2024-06-25_16h21.48.545,HideSeek_v1,2023.1.3,60.113566518857226,
2,2,3,2,3,0,0,61,2,instr_dim1_1,,,1,0,1,0,,,,,0,0,0,0,,,,,,,,,,,,,,,,,,,,,,,,,,,,,stimuli/alien_stimuli/61.png,conditions/inputInstr_1.xlsx,stimuli/alien_stimuli/61.png,19.63128239987418,19.63128239987418,19.63128239987418,19.63128239987418,19.616157999960706,return,0.6223158000502735,None,"[-0.16, -0.08, 0, 0.08, 0.16, 0.24, 0.32, 0.4, 0.48, 0.56]","[-0.4, -0.32, -0.24, -0.16, -0.08, 0, 0.08, 0.16, 0.24, 0.32]",3,3,2,2,0.0,0.0,20.449932399904355,20.449932399904355,20.449932399904355,20.449932399904355,20.449932399904355,20.449932399904355,20.449932399904355,20.43315330008045,0.25011010002344847,return,0.06360690016299486,None,stimuli/alien_stimuli/61.png,61,2,2,,,,,,,,,,,,,,,,,,,,,,,,,,,,,,,,,,,,,,,,,,,,,,,,,,,,,,,,,,,,,,,,,,,,,,2024-06-25_16h21.48.545,HideSeek_v1,2023.1.3,60.113566518857226,
,,,,,,,,,,,24,1,0,1,0,,,,,,,,,,,,,,,,,,,,,,,,,,,,,,,,,,,,,,,,,,,,,,,,,,,,,,,,,,,,,,,,,,,,,,,,17,70,0,0,99,1,24,0,conditions/inputTrain_1.1.xlsx,99,1,1,1,0,,,,,,,,,,,,,,,,,,,,,,,,,,,,,,,,,,,,,,,,,,,,,,,,,,,,,,,,2024-06-25_16h21.48.545,HideSeek_v1,2023.1.3,60.113566518857226,
,,,,,,,,,,,,2,0,2,0,0,0,0,0,,,,,,,,,,,,,,,,,,,,,,,stimuli/instructions/Slide15.png,stimuli/instructions/Audio15.wav,20.74893180001527,20.73289902014658,1,[0.5419433999340981],[0.5419483999721706],0,,,,,,,,,,,,,,,,,,,,,,,,,,,,,,,,,,,,,,,,,,,,,,,,,,,,,,,,,,,,,,,,,,,,,,,,,,,,,,,,,,,,,,,,,,,,,,,,,,,,,,,,,,,2024-06-25_16h21.48.545,HideSeek_v1,2023.1.3,60.113566518857226,
,,,,,,,,,,,,2,0,2,0,1,0,1,0,,,,,,,,,,,,,,,,,,,,,,,stimuli/instructions/Slide16.png,stimuli/instructions/Audio16.wav,21.382732899859548,21.36615514000878,1,[0.4124576000031084],[0.41246200003661215],0,,,,,,,,,,,,,,,,,,,,,,,,,,,,,,,,,,,,,,,,,,,,,,,,,,,,,,,,,,,,,,,,,,,,,,,,,,,,,,,,,,,,,,,,,,,,,,,,,,,,,,,,,,,2024-06-25_16h21.48.545,HideSeek_v1,2023.1.3,60.113566518857226,
,2,0,2,1,0,1,62,,train_dim1_1,1,24,2,0,2,0,,,,,,,,,0,0,0,0,0,0,0,0,0,0,0,0,,,,,,,,,,,,,,,,,stimuli/alien_stimuli/62.png,,,,,,,,,,,,,,,,,,,,,,,,,,,,,,,,,,,,,,,,,24,,,,,,,,21.91762789990753,21.91762789990753,21.91762789990753,21.91762789990753,21.91762789990753,up,1.339133100118488,0,0,99,0,-0.32,up,1.1914124002214521,None,,,,,,,,,,,,,,,,,,,,,,,,,,,,,,,,,,,,,,,,,2024-06-25_16h21.48.545,HideSeek_v1,2023.1.3,60.113566518857226,
,2,0,2,1,0,1,62,,train_dim1_1,1,24,2,0,2,0,,,,,,,,,0,0,0,0,0,0,0,0,1,0,1,0,,,,,,,,,,,,,,,,,,,,,,,,,,,,,,,,,,,,,,,,,,,,,,,,,,,,,,,,,,24,,,,,,,,23.232486800057814,23.232486800057814,23.232486800057814,23.232486800057814,23.232486800057814,return,0.3272027000784874,1,0,1,0,-0.32,return,0.20693280012346804,None,1,0,0,-0.32,,,,,,,,,,,,,,,,,,,,,,,,,,,,,,,,,,,,,2024-06-25_16h21.48.545,HideSeek_v1,2023.1.3,60.113566518857226,
,2,2,2,5,0,3,64,,train_dim1_1,2,24,2,0,2,0,,,,,,,,,0,0,0,0,0,1,1,1,0,0,0,0,,,,,,,,,,,,,,,,,stimuli/alien_stimuli/64.png,,,,,,,,,,,,,,,,,,,,,,,,,,,,,,,stimuli/alien_stimuli/62.png,62,2,3,,,,,,,24,,,,,,,,28.4989264998585,28.4989264998585,28.4989264998585,28.4989264998585,28.4989264998585,up,0.4750180998817086,1,0,99,0,-0.15999999999999998,up,0.3685085002798587,None,,,,,26.932521400041878,28.4989264998585,0,-0.32,0.08,0.0,-0.36,0,0.0,0,-0.32,25.23243119986728,25.23243119986728,25.23243119986728,25.23243119986728,25.23243119986728,25.23243119986728,25.23243119986728,25.23243119986728,25.116359560145067,1.9510317000094801,return,1.6718997003044933,None,,,,,,,,,,,,,2024-06-25_16h21.48.545,HideSeek_v1,2023.1.3,60.113566518857226,
,2,2,2,5,0,3,64,,train_dim1_1,2,24,2,0,2,0,,,,,,,,,0,0,0,0,0,1,1,1,1,0,1,0,,,,,,,,,,,,,,,,,,,,,,,,,,,,,,,,,,,,,,,,,,,,,,,,,,,,,,,,,,24,,,,,,,,29.032588499831036,29.032588499831036,29.032588499831036,29.032588499831036,29.032588499831036,up,0.22640800010412931,1,0,99,0,-0.07999999999999997,up,0.08302340004593134,None,,,,,,,,,,,,,,,,,,,,,,,,,,,,,,,,,,,,,,,,,2024-06-25_16h21.48.545,HideSeek_v1,2023.1.3,60.113566518857226,
,2,2,2,5,0,3,64,,train_dim1_1,2,24,2,0,2,0,,,,,,,,,0,0,0,0,0,1,1,1,2,0,2,0,,,,,,,,,,,,,,,,,,,,,,,,,,,,,,,,,,,,,,,,,,,,,,,,,,,,,,,,,,24,,,,,,,,29.249119200045243,29.249119200045243,29.249119200045243,29.249119200045243,29.249119200045243,up,0.21052060020156205,1,0,99,0,2.7755575615628914e-17,up,0.08266140008345246,None,,,,,,,,,,,,,,,,,,,,,,,,,,,,,,,,,,,,,,,,,2024-06-25_16h21.48.545,HideSeek_v1,2023.1.3,60.113566518857226,
,2,2,2,5,0,3,64,,train_dim1_1,2,24,2,0,2,0,,,,,,,,,0,0,0,0,0,1,1,1,3,0,3,0,,,,,,,,,,,,,,,,,,,,,,,,,,,,,,,,,,,,,,,,,,,,,,,,,,,,,,,,,,24,,,,,,,,29.44881880003959,29.44881880003959,29.44881880003959,29.44881880003959,29.44881880003959,return,0.4109493000432849,2,0,1,0,2.7755575615628914e-17,return,0.28778450028039515,None,4,0,0,2.7755575615628914e-17,,,,,,,,,,,,,,,,,,,,,,,,,,,,,,,,,,,,,2024-06-25_16h21.48.545,HideSeek_v1,2023.1.3,60.113566518857226,
,3,3,3,8,0,5,66,,train_dim1_1,3,24,2,0,2,0,,,,,,,,,0,0,0,0,0,2,2,2,0,0,0,0,,,,,,,,,,,,,,,,,stimuli/alien_stimuli/66.png,,,,,,,,,,,,,,,,,,,,,,,,,,,,,,,stimuli/alien_stimuli/64.png,64,2,4,,,,,,,24,,,,,,,,33.298540599877015,33.298540599877015,33.298540599877015,33.298540599877015,33.298540599877015,up,0.7586373998783529,2,0,99,0.08,-0.08,up,0.6671370000112802,None,,,,,31.733113100053743,33.298540599877015,0,0,0.24,0.0,-0.12,0,0.0,0,0,31.399947699857876,31.399947699857876,31.399947699857876,31.399947699857876,31.399947699857876,31.399947699857876,31.399947699857876,31.399947699857876,31.38241798016243,0.4563649999909103,return,0.31444280012510717,None,,,,,,,,,,,,,2024-06-25_16h21.48.545,HideSeek_v1,2023.1.3,60.113566518857226,
,3,3,3,8,0,5,66,,train_dim1_1,3,24,2,0,2,0,,,,,,,,,0,0,0,0,0,2,2,2,1,0,1,0,,,,,,,,,,,,,,,,,,,,,,,,,,,,,,,,,,,,,,,,,,,,,,,,,,,,,,,,,,24,,,,,,,,34.05036469991319,34.05036469991319,34.05036469991319,34.05036469991319,34.05036469991319,up,0.21019929996691644,2,0,99,0.08,0.0,up,0.12861720006912947,None,,,,,,,,,,,,,,,,,,,,,,,,,,,,,,,,,,,,,,,,,2024-06-25_16h21.48.545,HideSeek_v1,2023.1.3,60.113566518857226,
,3,3,3,8,0,5,66,,train_dim1_1,3,24,2,0,2,0,,,,,,,,,0,0,0,0,0,2,2,2,2,0,2,0,,,,,,,,,,,,,,,,,,,,,,,,,,,,,,,,,,,,,,,,,,,,,,,,,,,,,,,,,,24,,,,,,,,34.266325999982655,34.266325999982655,34.266325999982655,34.266325999982655,34.266325999982655,up,0.19389630015939474,2,0,99,0.08,0.08,up,0.10929380008019507,None,,,,,,,,,,,,,,,,,,,,,,,,,,,,,,,,,,,,,,,,,2024-06-25_16h21.48.545,HideSeek_v1,2023.1.3,60.113566518857226,
,3,3,3,8,0,5,66,,train_dim1_1,3,24,2,0,2,0,,,,,,,,,0,0,0,0,0,2,2,2,3,0,3,0,,,,,,,,,,,,,,,,,,,,,,,,,,,,,,,,,,,,,,,,,,,,,,,,,,,,,,,,,,24,,,,,,,,34.46820779982954,34.46820779982954,34.46820779982954,34.46820779982954,34.46820779982954,up,0.17739760014228523,2,0,99,0.08,0.16,up,0.08323390013538301,None,,,,,,,,,,,,,,,,,,,,,,,,,,,,,,,,,,,,,,,,,2024-06-25_16h21.48.545,HideSeek_v1,2023.1.3,60.113566518857226,
,3,3,3,8,0,5,66,,train_dim1_1,3,24,2,0,2,0,,,,,,,,,0,0,0,0,0,2,2,2,4,0,4,0,,,,,,,,,,,,,,,,,,,,,,,,,,,,,,,,,,,,,,,,,,,,,,,,,,,,,,,,,,24,,,,,,,,34.651626699836925,34.651626699836925,34.651626699836925,34.651626699836925,34.651626699836925,up,0.14363189996220171,2,0,99,0.08,0.24,up,0.04847210017032921,None,,,,,,,,,,,,,,,,,,,,,,,,,,,,,,,,,,,,,,,,,2024-06-25_16h21.48.545,HideSeek_v1,2023.1.3,60.113566518857226,
,3,3,3,8,0,5,66,,train_dim1_1,3,24,2,0,2,0,,,,,,,,,0,0,0,0,0,2,2,2,5,0,5,0,,,,,,,,,,,,,,,,,,,,,,,,,,,,,,,,,,,,,,,,,,,,,,,,,,,,,,,,,,24,,,,,,,,34.80360660003498,34.80360660003498,34.80360660003498,34.80360660003498,34.80360660003498,return,0.5441515001002699,3,0,1,0.08,0.24,return,0.45717980014160275,None,9,0,0.08,0.24,,,,,,,,,,,,,,,,,,,,,,,,,,,,,,,,,,,,,2024-06-25_16h21.48.545,HideSeek_v1,2023.1.3,60.113566518857226,
,4,4,4,8,0,4,65,,train_dim1_1,4,24,2,0,2,0,,,,,,,,,0,0,0,0,0,3,3,3,0,0,0,0,,,,,,,,,,,,,,,,,stimuli/alien_stimuli/65.png,,,,,,,,,,,,,,,,,,,,,,,,,,,,,,,stimuli/alien_stimuli/66.png,66,3,5,,,,,,,24,,,,,,,,38.84894010005519,38.84894010005519,38.84894010005519,38.84894010005519,38.84894010005519,up,0.3407350000925362,3,0,99,0.16,0.0,up,0.24151040008291602,None,,,,,37.28207580000162,38.84894010005519,0.08,0.24,0.4,0.0,0.039999999999999994,0.08,0.08,0.08,0.24,36.90129349986091,36.90129349986091,36.90129349986091,36.90129349986091,36.90129349986091,36.90129349986091,36.90129349986091,36.90129349986091,36.88235793998465,0.4851506999693811,return,0.3511248000431806,None,,,,,,,,,,,,,2024-06-25_16h21.48.545,HideSeek_v1,2023.1.3,60.113566518857226,
,4,4,4,8,0,4,65,,train_dim1_1,4,24,2,0,2,0,,,,,,,,,0,0,0,0,0,3,3,3,1,0,1,0,,,,,,,,,,,,,,,,,,,,,,,,,,,,,,,,,,,,,,,,,,,,,,,,,,,,,,,,,,24,,,,,,,,39.183609100058675,39.183609100058675,39.183609100058675,39.183609100058675,39.183609100058675,up,0.19384759990498424,3,0,99,0.16,0.08,up,0.11130700004287064,None,,,,,,,,,,,,,,,,,,,,,,,,,,,,,,,,,,,,,,,,,2024-06-25_16h21.48.545,HideSeek_v1,2023.1.3,60.113566518857226,
,4,4,4,8,0,4,65,,train_dim1_1,4,24,2,0,2,0,,,,,,,,,0,0,0,0,0,3,3,3,2,0,2,0,,,,,,,,,,,,,,,,,,,,,,,,,,,,,,,,,,,,,,,,,,,,,,,,,,,,,,,,,,24,,,,,,,,39.38515829993412,39.38515829993412,39.38515829993412,39.38515829993412,39.38515829993412,up,0.19407030008733273,3,0,99,0.16,0.16,up,0.10063110012561083,None,,,,,,,,,,,,,,,,,,,,,,,,,,,,,,,,,,,,,,,,,2024-06-25_16h21.48.545,HideSeek_v1,2023.1.3,60.113566518857226,
,4,4,4,8,0,4,65,,train_dim1_1,4,24,2,0,2,0,,,,,,,,,0,0,0,0,0,3,3,3,3,0,3,0,,,,,,,,,,,,,,,,,,,,,,,,,,,,,,,,,,,,,,,,,,,,,,,,,,,,,,,,,,24,,,,,,,,39.58641549991444,39.58641549991444,39.58641549991444,39.58641549991444,39.58641549991444,up,0.21037290012463927,3,0,99,0.16,0.24,up,0.1292559001594782,None,,,,,,,,,,,,,,,,,,,,,,,,,,,,,,,,,,,,,,,,,2024-06-25_16h21.48.545,HideSeek_v1,2023.1.3,60.113566518857226,
,4,4,4,8,0,4,65,,train_dim1_1,4,24,2,0,2,0,,,,,,,,,0,0,0,0,0,3,3,3,4,0,4,0,,,,,,,,,,,,,,,,,,,,,,,,,,,,,,,,,,,,,,,,,,,,,,,,,,,,,,,,,,24,,,,,,,,39.80324049992487,39.80324049992487,39.80324049992487,39.80324049992487,39.80324049992487,return,0.5440591000951827,4,0,1,0.16,0.24,return,0.4465802002232522,None,13,0,0.16,0.24,,,,,,,,,,,,,,,,,,,,,,,,,,,,,,,,,,,,,2024-06-25_16h21.48.545,HideSeek_v1,2023.1.3,60.113566518857226,
,3,4,3,5,0,1,62,,train_dim1_1,5,24,2,0,2,0,,,,,,,,,0,0,0,0,0,4,4,4,0,0,0,0,,,,,,,,,,,,,,,,,stimuli/alien_stimuli/62.png,,,,,,,,,,,,,,,,,,,,,,,,,,,,,,,stimuli/alien_stimuli/65.png,65,4,6,,,,,,,24,,,,,,,,43.865502999862656,43.865502999862656,43.865502999862656,43.865502999862656,43.865502999862656,up,0.3249035000335425,4,0,99,0.08,0.0,up,0.23226670012809336,None,,,,,42.298693999880925,43.865502999862656,0.16,0.24,0.32,0.0,0.07999999999999999,0.16,0.16,0.16,0.24,41.948899699840695,41.948899699840695,41.948899699840695,41.948899699840695,41.948899699840695,41.948899699840695,41.948899699840695,41.948899699840695,41.93292496013455,0.5011861000675708,return,0.3180252001620829,None,,,,,,,,,,,,,2024-06-25_16h21.48.545,HideSeek_v1,2023.1.3,60.113566518857226,
,3,4,3,5,0,1,62,,train_dim1_1,5,24,2,0,2,0,,,,,,,,,0,0,0,0,0,4,4,4,1,0,1,0,,,,,,,,,,,,,,,,,,,,,,,,,,,,,,,,,,,,,,,,,,,,,,,,,,,,,,,,,,24,,,,,,,,44.18415270000696,44.18415270000696,44.18415270000696,44.18415270000696,44.18415270000696,return,0.5093288000207394,5,0,1,0.08,0.0,return,0.42549280007369816,None,14,0,0.08,0.0,,,,,,,,,,,,,,,,,,,,,,,,,,,,,,,,,,,,,2024-06-25_16h21.48.545,HideSeek_v1,2023.1.3,60.113566518857226,
,4,0,4,4,0,4,65,,train_dim1_1,6,24,2,0,2,0,,,,,,,,,0,0,0,0,0,5,5,5,0,0,0,0,,,,,,,,,,,,,,,,,stimuli/alien_stimuli/65.png,,,,,,,,,,,,,,,,,,,,,,,,,,,,,,,stimuli/alien_stimuli/62.png,62,3,7,,,,,,,24,,,,,,,,48.467483799904585,48.467483799904585,48.467483799904585,48.467483799904585,48.467483799904585,up,0.5253794000018388,5,0,99,0.16,-0.32,up,0.44613080006092787,None,,,,,46.91570489993319,48.467483799904585,0.08,0,0.08,0.0,-0.04,0.08,0.08,0.08,0,46.25072559993714,46.25072559993714,46.25072559993714,46.25072559993714,46.25072559993714,46.25072559993714,46.25072559993714,46.25072559993714,46.23245154009201,0.7688398999162018,return,0.6455705999396741,None,,,,,,,,,,,,,2024-06-25_16h21.48.545,HideSeek_v1,2023.1.3,60.113566518857226,
,4,0,4,4,0,4,65,,train_dim1_1,6,24,2,0,2,0,,,,,,,,,0,0,0,0,0,5,5,5,1,0,1,0,,,,,,,,,,,,,,,,,,,,,,,,,,,,,,,,,,,,,,,,,,,,,,,,,,,,,,,,,,24,,,,,,,,49.00079089985229,49.00079089985229,49.00079089985229,49.00079089985229,49.00079089985229,up,0.3601533998735249,5,0,99,0.16,-0.24,up,0.2789666000753641,None,,,,,,,,,,,,,,,,,,,,,,,,,,,,,,,,,,,,,,,,,2024-06-25_16h21.48.545,HideSeek_v1,2023.1.3,60.113566518857226,
,4,0,4,4,0,4,65,,train_dim1_1,6,24,2,0,2,0,,,,,,,,,0,0,0,0,0,5,5,5,2,0,2,0,,,,,,,,,,,,,,,,,,,,,,,,,,,,,,,,,,,,,,,,,,,,,,,,,,,,,,,,,,24,,,,,,,,49.367949899984524,49.367949899984524,49.367949899984524,49.367949899984524,49.367949899984524,up,0.41068620001897216,5,0,99,0.16,-0.15999999999999998,up,0.3196078999899328,None,,,,,,,,,,,,,,,,,,,,,,,,,,,,,,,,,,,,,,,,,2024-06-25_16h21.48.545,HideSeek_v1,2023.1.3,60.113566518857226,
,4,0,4,4,0,4,65,,train_dim1_1,6,24,2,0,2,0,,,,,,,,,0,0,0,0,0,5,5,5,3,0,3,0,,,,,,,,,,,,,,,,,,,,,,,,,,,,,,,,,,,,,,,,,,,,,,,,,,,,,,,,,,24,,,,,,,,49.79912959993817,49.79912959993817,49.79912959993817,49.79912959993817,49.79912959993817,up,0.3770882000681013,5,0,99,0.16,-0.07999999999999997,up,0.2833628002554178,None,,,,,,,,,,,,,,,,,,,,,,,,,,,,,,,,,,,,,,,,,2024-06-25_16h21.48.545,HideSeek_v1,2023.1.3,60.113566518857226,
,4,0,4,4,0,4,65,,train_dim1_1,6,24,2,0,2,0,,,,,,,,,0,0,0,0,0,5,5,5,4,0,4,0,,,,,,,,,,,,,,,,,,,,,,,,,,,,,,,,,,,,,,,,,,,,,,,,,,,,,,,,,,24,,,,,,,,50.193613999988884,50.193613999988884,50.193613999988884,50.193613999988884,50.193613999988884,return,0.3938601999543607,6,0,1,0.16,-0.07999999999999997,return,0.274411000078544,None,18,0,0.16,-0.07999999999999997,,,,,,,,,,,,,,,,,,,,,,,,,,,,,,,,,,,,,2024-06-25_16h21.48.545,HideSeek_v1,2023.1.3,60.113566518857226,
,0,3,0,6,0,3,64,,train_dim1_1,7,24,2,0,2,0,,,,,,,,,0,0,0,0,0,6,6,6,0,0,0,0,,,,,,,,,,,,,,,,,stimuli/alien_stimuli/64.png,,,,,,,,,,,,,,,,,,,,,,,,,,,,,,,stimuli/alien_stimuli/65.png,65,4,8,,,,,,,24,,,,,,,,54.115473199868575,54.115473199868575,54.115473199868575,54.115473199868575,54.115473199868575,up,0.573710999917239,6,0,99,-0.16,-0.08,up,0.48084520013071597,None,,,,,52.54861569986679,54.115473199868575,0.16,-0.08,0.32,0.0,-0.24000000000000002,0.16,0.16,0.16,-0.08,52.11534160003066,52.11534160003066,52.11534160003066,52.11534160003066,52.11534160003066,52.11534160003066,52.11534160003066,52.11534160003066,52.09884124007076,0.5351178999990225,return,0.4051870999392122,None,,,,,,,,,,,,,2024-06-25_16h21.48.545,HideSeek_v1,2023.1.3,60.113566518857226,
,0,3,0,6,0,3,64,,train_dim1_1,7,24,2,0,2,0,,,,,,,,,0,0,0,0,0,6,6,6,1,0,1,0,,,,,,,,,,,,,,,,,,,,,,,,,,,,,,,,,,,,,,,,,,,,,,,,,,,,,,,,,,24,,,,,,,,54.68503089994192,54.68503089994192,54.68503089994192,54.68503089994192,54.68503089994192,up,0.36009599990211427,6,0,99,-0.16,0.0,up,0.27837680000811815,None,,,,,,,,,,,,,,,,,,,,,,,,,,,,,,,,,,,,,,,,,2024-06-25_16h21.48.545,HideSeek_v1,2023.1.3,60.113566518857226,
,0,3,0,6,0,3,64,,train_dim1_1,7,24,2,0,2,0,,,,,,,,,0,0,0,0,0,6,6,6,2,0,2,0,,,,,,,,,,,,,,,,,,,,,,,,,,,,,,,,,,,,,,,,,,,,,,,,,,,,,,,,,,24,,,,,,,,55.050093999831006,55.050093999831006,55.050093999831006,55.050093999831006,55.050093999831006,up,0.29365669982507825,6,0,99,-0.16,0.08,up,0.2092838000971824,None,,,,,,,,,,,,,,,,,,,,,,,,,,,,,,,,,,,,,,,,,2024-06-25_16h21.48.545,HideSeek_v1,2023.1.3,60.113566518857226,
,0,3,0,6,0,3,64,,train_dim1_1,7,24,2,0,2,0,,,,,,,,,0,0,0,0,0,6,6,6,3,0,3,0,,,,,,,,,,,,,,,,,,,,,,,,,,,,,,,,,,,,,,,,,,,,,,,,,,,,,,,,,,24,,,,,,,,55.35149260004982,55.35149260004982,55.35149260004982,55.35149260004982,55.35149260004982,return,0.2773011000826955,7,0,1,-0.16,0.08,return,0.1912276002112776,None,21,0,-0.16,0.08,,,,,,,,,,,,,,,,,,,,,,,,,,,,,,,,,,,,,2024-06-25_16h21.48.545,HideSeek_v1,2023.1.3,60.113566518857226,
,4,1,4,6,0,5,66,,train_dim1_1,8,24,2,0,2,0,,,,,,,,,0,0,0,0,0,7,7,7,0,0,0,0,,,,,,,,,,,,,,,,,stimuli/alien_stimuli/66.png,,,,,,,,,,,,,,,,,,,,,,,,,,,,,,,stimuli/alien_stimuli/64.png,64,0,9,,,,,,,24,,,,,,,,59.21835189987905,59.21835189987905,59.21835189987905,59.21835189987905,59.21835189987905,up,0.641259100055322,7,0,99,0.16,-0.24,up,0.5633853001054376,None,,,,,57.66541270003654,59.21835189987905,-0.16,0.08,0.24,0.0,-0.04,-0.16,-0.16,-0.16,0.08,57.215716999955475,57.215716999955475,57.215716999955475,57.215716999955475,57.215716999955475,57.215716999955475,57.215716999955475,57.215716999955475,57.19975452004001,0.584270799998194,return,0.42779260012321174,None,,,,,,,,,,,,,2024-06-25_16h21.48.545,HideSeek_v1,2023.1.3,60.113566518857226,
,4,1,4,6,0,5,66,,train_dim1_1,8,24,2,0,2,0,,,,,,,,,0,0,0,0,0,7,7,7,1,0,1,0,,,,,,,,,,,,,,,,,,,,,,,,,,,,,,,,,,,,,,,,,,,,,,,,,,,,,,,,,,24,,,,,,,,59.86651899991557,59.86651899991557,59.86651899991557,59.86651899991557,59.86651899991557,up,0.3432420000899583,7,0,99,0.16,-0.15999999999999998,up,0.2532367000821978,None,,,,,,,,,,,,,,,,,,,,,,,,,,,,,,,,,,,,,,,,,2024-06-25_16h21.48.545,HideSeek_v1,2023.1.3,60.113566518857226,
,4,1,4,6,0,5,66,,train_dim1_1,8,24,2,0,2,0,,,,,,,,,0,0,0,0,0,7,7,7,2,0,2,0,,,,,,,,,,,,,,,,,,,,,,,,,,,,,,,,,,,,,,,,,,,,,,,,,,,,,,,,,,24,,,,,,,,60.21595250000246,60.21595250000246,60.21595250000246,60.21595250000246,60.21595250000246,up,0.3114445998799056,7,0,99,0.16,-0.07999999999999997,up,0.22819950012490153,None,,,,,,,,,,,,,,,,,,,,,,,,,,,,,,,,,,,,,,,,,2024-06-25_16h21.48.545,HideSeek_v1,2023.1.3,60.113566518857226,
,4,1,4,6,0,5,66,,train_dim1_1,8,24,2,0,2,0,,,,,,,,,0,0,0,0,0,7,7,7,3,0,3,0,,,,,,,,,,,,,,,,,,,,,,,,,,,,,,,,,,,,,,,,,,,,,,,,,,,,,,,,,,24,,,,,,,,60.53426259988919,60.53426259988919,60.53426259988919,60.53426259988919,60.53426259988919,up,0.29423010000027716,7,0,99,0.16,2.7755575615628914e-17,up,0.20408409996889532,None,,,,,,,,,,,,,,,,,,,,,,,,,,,,,,,,,,,,,,,,,2024-06-25_16h21.48.545,HideSeek_v1,2023.1.3,60.113566518857226,
,4,1,4,6,0,5,66,,train_dim1_1,8,24,2,0,2,0,,,,,,,,,0,0,0,0,0,7,7,7,4,0,4,0,,,,,,,,,,,,,,,,,,,,,,,,,,,,,,,,,,,,,,,,,,,,,,,,,,,,,,,,,,24,,,,,,,,60.83707539993338,60.83707539993338,60.83707539993338,60.83707539993338,60.83707539993338,up,0.2603873999323696,7,0,99,0.16,0.08000000000000003,up,0.16790660028345883,None,,,,,,,,,,,,,,,,,,,,,,,,,,,,,,,,,,,,,,,,,2024-06-25_16h21.48.545,HideSeek_v1,2023.1.3,60.113566518857226,
,4,1,4,6,0,5,66,,train_dim1_1,8,24,2,0,2,0,,,,,,,,,0,0,0,0,0,7,7,7,5,0,5,0,,,,,,,,,,,,,,,,,,,,,,,,,,,,,,,,,,,,,,,,,,,,,,,,,,,,,,,,,,24,,,,,,,,61.099255400011316,61.099255400011316,61.099255400011316,61.099255400011316,61.099255400011316,return,0.710468600038439,8,0,1,0.16,0.08000000000000003,return,0.6172072002664208,None,26,0,0.16,0.08000000000000003,,,,,,,,,,,,,,,,,,,,,,,,,,,,,,,,,,,,,2024-06-25_16h21.48.545,HideSeek_v1,2023.1.3,60.113566518857226,
,1,3,1,6,0,3,64,,train_dim1_1,9,24,2,0,2,0,,,,,,,,,0,0,0,0,0,8,8,8,0,0,0,0,,,,,,,,,,,,,,,,,stimuli/alien_stimuli/64.png,,,,,,,,,,,,,,,,,,,,,,,,,,,,,,,stimuli/alien_stimuli/66.png,66,4,10,,,,,,,24,,,,,,,,65.33225269988179,65.33225269988179,65.33225269988179,65.33225269988179,65.33225269988179,up,0.4733669999986887,8,0,99,-0.08,-0.08,up,0.3804518000688404,None,,,,,63.765359999844804,65.33225269988179,0.16,0.08,0.4,0.0,-0.12,0.16,0.16,0.16,0.08,63.366316800005734,63.366316800005734,63.366316800005734,63.366316800005734,63.366316800005734,63.366316800005734,63.366316800005734,63.366316800005734,63.34876643996686,0.5021973999682814,return,0.3790462000761181,None,,,,,,,,,,,,,2024-06-25_16h21.48.545,HideSeek_v1,2023.1.3,60.113566518857226,
,1,3,1,6,0,3,64,,train_dim1_1,9,24,2,0,2,0,,,,,,,,,0,0,0,0,0,8,8,8,1,0,1,0,,,,,,,,,,,,,,,,,,,,,,,,,,,,,,,,,,,,,,,,,,,,,,,,,,,,,,,,,,24,,,,,,,,65.80145410005935,65.80145410005935,65.80145410005935,65.80145410005935,65.80145410005935,up,0.2771302000619471,8,0,99,-0.08,0.0,up,0.18117960006929934,None,,,,,,,,,,,,,,,,,,,,,,,,,,,,,,,,,,,,,,,,,2024-06-25_16h21.48.545,HideSeek_v1,2023.1.3,60.113566518857226,
,1,3,1,6,0,3,64,,train_dim1_1,9,24,2,0,2,0,,,,,,,,,0,0,0,0,0,8,8,8,2,0,2,0,,,,,,,,,,,,,,,,,,,,,,,,,,,,,,,,,,,,,,,,,,,,,,,,,,,,,,,,,,24,,,,,,,,66.08510360005312,66.08510360005312,66.08510360005312,66.08510360005312,66.08510360005312,up,0.22689209994859993,8,0,99,-0.08,0.08,up,0.13391450000926852,None,,,,,,,,,,,,,,,,,,,,,,,,,,,,,,,,,,,,,,,,,2024-06-25_16h21.48.545,HideSeek_v1,2023.1.3,60.113566518857226,
,1,3,1,6,0,3,64,,train_dim1_1,9,24,2,0,2,0,,,,,,,,,0,0,0,0,0,8,8,8,3,0,3,0,,,,,,,,,,,,,,,,,,,,,,,,,,,,,,,,,,,,,,,,,,,,,,,,,,,,,,,,,,24,,,,,,,,66.31830259994604,66.31830259994604,66.31830259994604,66.31830259994604,66.31830259994604,return,0.5271759999450296,9,0,1,-0.08,0.08,return,0.44663080014288425,None,29,0,-0.08,0.08,,,,,,,,,,,,,,,,,,,,,,,,,,,,,,,,,,,,,2024-06-25_16h21.48.545,HideSeek_v1,2023.1.3,60.113566518857226,
,0,0,0,4,0,4,65,,train_dim1_1,10,24,2,0,2,0,,,,,,,,,0,0,0,0,0,9,9,9,0,0,0,0,,,,,,,,,,,,,,,,,stimuli/alien_stimuli/65.png,,,,,,,,,,,,,,,,,,,,,,,,,,,,,,,stimuli/alien_stimuli/64.png,64,1,11,,,,,,,24,,,,,,,,70.74873710004613,70.74873710004613,70.74873710004613,70.74873710004613,70.74873710004613,up,0.3913856998551637,9,0,99,-0.16,-0.32,up,0.2880991001147777,None,,,,,69.18190509988926,70.74873710004613,-0.08,0.08,0.24,0.0,-0.04,-0.08,-0.08,-0.08,0.08,68.41593909985386,68.41593909985386,68.41593909985386,68.41593909985386,68.41593909985386,68.41593909985386,68.41593909985386,68.41593909985386,68.39922138005494,0.8846603999845684,return,0.748995200265199,None,,,,,,,,,,,,,2024-06-25_16h21.48.545,HideSeek_v1,2023.1.3,60.113566518857226,
,0,0,0,4,0,4,65,,train_dim1_1,10,24,2,0,2,0,,,,,,,,,0,0,0,0,0,9,9,9,1,0,1,0,,,,,,,,,,,,,,,,,,,,,,,,,,,,,,,,,,,,,,,,,,,,,,,,,,,,,,,,,,24,,,,,,,,71.13487860001624,71.13487860001624,71.13487860001624,71.13487860001624,71.13487860001624,up,0.21024079993367195,9,0,99,-0.16,-0.24,up,0.12228989996947348,None,,,,,,,,,,,,,,,,,,,,,,,,,,,,,,,,,,,,,,,,,2024-06-25_16h21.48.545,HideSeek_v1,2023.1.3,60.113566518857226,
,0,0,0,4,0,4,65,,train_dim1_1,10,24,2,0,2,0,,,,,,,,,0,0,0,0,0,9,9,9,2,0,2,0,,,,,,,,,,,,,,,,,,,,,,,,,,,,,,,,,,,,,,,,,,,,,,,,,,,,,,,,,,24,,,,,,,,71.35009690001607,71.35009690001607,71.35009690001607,71.35009690001607,71.35009690001607,up,0.20971890003420413,9,0,99,-0.16,-0.15999999999999998,up,0.13181880000047386,None,,,,,,,,,,,,,,,,,,,,,,,,,,,,,,,,,,,,,,,,,2024-06-25_16h21.48.545,HideSeek_v1,2023.1.3,60.113566518857226,
,0,0,0,4,0,4,65,,train_dim1_1,10,24,2,0,2,0,,,,,,,,,0,0,0,0,0,9,9,9,3,0,3,0,,,,,,,,,,,,,,,,,,,,,,,,,,,,,,,,,,,,,,,,,,,,,,,,,,,,,,,,,,24,,,,,,,,71.56746100005694,71.56746100005694,71.56746100005694,71.56746100005694,71.56746100005694,up,0.21209509996697307,9,0,99,-0.16,-0.07999999999999997,up,0.12945710006169975,None,,,,,,,,,,,,,,,,,,,,,,,,,,,,,,,,,,,,,,,,,2024-06-25_16h21.48.545,HideSeek_v1,2023.1.3,60.113566518857226,
,0,0,0,4,0,4,65,,train_dim1_1,10,24,2,0,2,0,,,,,,,,,0,0,0,0,0,9,9,9,4,0,4,0,,,,,,,,,,,,,,,,,,,,,,,,,,,,,,,,,,,,,,,,,,,,,,,,,,,,,,,,,,24,,,,,,,,71.78638399997726,71.78638399997726,71.78638399997726,71.78638399997726,71.78638399997726,return,0.27723889984190464,10,0,1,-0.16,-0.07999999999999997,return,0.1841134000569582,None,33,0,-0.16,-0.07999999999999997,,,,,,,,,,,,,,,,,,,,,,,,,,,,,,,,,,,,,2024-06-25_16h21.48.545,HideSeek_v1,2023.1.3,60.113566518857226,
,4,2,4,3,0,1,62,,train_dim1_1,11,24,2,0,2,0,,,,,,,,,0,0,0,0,0,10,10,10,0,0,0,0,,,,,,,,,,,,,,,,,stimuli/alien_stimuli/62.png,,,,,,,,,,,,,,,,,,,,,,,,,,,,,,,stimuli/alien_stimuli/65.png,65,0,12,,,,,,,24,,,,,,,,75.63223410001956,75.63223410001956,75.63223410001956,75.63223410001956,75.63223410001956,up,0.5914129999000579,10,0,99,0.16,-0.15999999999999998,up,0.4995141001418233,None,,,,,74.06528219999745,75.63223410001956,-0.16,-0.08,0.32,0.0,-0.24000000000000002,-0.16,-0.16,-0.16,-0.08,73.63217849982902,73.63217849982902,73.63217849982902,73.63217849982902,73.63217849982902,73.63217849982902,73.63217849982902,73.63217849982902,73.61593138012103,0.551441099960357,return,0.4035690000746399,None,,,,,,,,,,,,,2024-06-25_16h21.48.545,HideSeek_v1,2023.1.3,60.113566518857226,
,4,2,4,3,0,1,62,,train_dim1_1,11,24,2,0,2,0,,,,,,,,,0,0,0,0,0,10,10,10,1,0,1,0,,,,,,,,,,,,,,,,,,,,,,,,,,,,,,,,,,,,,,,,,,,,,,,,,,,,,,,,,,24,,,,,,,,76.23232709988952,76.23232709988952,76.23232709988952,76.23232709988952,76.23232709988952,return,0.29272769996896386,11,0,1,0.16,-0.15999999999999998,return,0.18912440002895892,None,34,0,0.16,-0.15999999999999998,,,,,,,,,,,,,,,,,,,,,,,,,,,,,,,,,,,,,2024-06-25_16h21.48.545,HideSeek_v1,2023.1.3,60.113566518857226,
,3,0,3,5,0,5,66,,train_dim1_1,12,24,2,0,2,0,,,,,,,,,0,0,0,0,0,11,11,11,0,0,0,0,,,,,,,,,,,,,,,,,stimuli/alien_stimuli/66.png,,,,,,,,,,,,,,,,,,,,,,,,,,,,,,,stimuli/alien_stimuli/62.png,62,4,13,,,,,,,24,,,,,,,,80.48580739996396,80.48580739996396,80.48580739996396,80.48580739996396,80.48580739996396,up,1.075092100072652,11,0,99,0.08,-0.32,up,0.9857799001038074,None,,,,,78.93180030002259,80.48580739996396,0.16,-0.16,0.08,0.0,-0.2,0.16,0.16,0.16,-0.16,78.06445309985429,78.06445309985429,78.06445309985429,78.06445309985429,78.06445309985429,78.06445309985429,78.06445309985429,78.06445309985429,78.0492492401041,0.9676423000637442,return,0.8354618002194911,None,,,,,,,,,,,,,2024-06-25_16h21.48.545,HideSeek_v1,2023.1.3,60.113566518857226,
,3,0,3,5,0,5,66,,train_dim1_1,12,24,2,0,2,0,,,,,,,,,0,0,0,0,0,11,11,11,1,0,1,0,,,,,,,,,,,,,,,,,,,,,,,,,,,,,,,,,,,,,,,,,,,,,,,,,,,,,,,,,,24,,,,,,,,81.56758169992827,81.56758169992827,81.56758169992827,81.56758169992827,81.56758169992827,up,0.3763954001478851,11,0,99,0.08,-0.24,up,0.29682729998603463,None,,,,,,,,,,,,,,,,,,,,,,,,,,,,,,,,,,,,,,,,,2024-06-25_16h21.48.545,HideSeek_v1,2023.1.3,60.113566518857226,
,3,0,3,5,0,5,66,,train_dim1_1,12,24,2,0,2,0,,,,,,,,,0,0,0,0,0,11,11,11,2,0,2,0,,,,,,,,,,,,,,,,,,,,,,,,,,,,,,,,,,,,,,,,,,,,,,,,,,,,,,,,,,24,,,,,,,,81.94875700003468,81.94875700003468,81.94875700003468,81.94875700003468,81.94875700003468,up,0.4108466999605298,11,0,99,0.08,-0.15999999999999998,up,0.324052199954167,None,,,,,,,,,,,,,,,,,,,,,,,,,,,,,,,,,,,,,,,,,2024-06-25_16h21.48.545,HideSeek_v1,2023.1.3,60.113566518857226,
,3,0,3,5,0,5,66,,train_dim1_1,12,24,2,0,2,0,,,,,,,,,0,0,0,0,0,11,11,11,3,0,3,0,,,,,,,,,,,,,,,,,,,,,,,,,,,,,,,,,,,,,,,,,,,,,,,,,,,,,,,,,,24,,,,,,,,82.36609230004251,82.36609230004251,82.36609230004251,82.36609230004251,82.36609230004251,up,0.34409809997305274,11,0,99,0.08,-0.07999999999999997,up,0.25113150011748075,None,,,,,,,,,,,,,,,,,,,,,,,,,,,,,,,,,,,,,,,,,2024-06-25_16h21.48.545,HideSeek_v1,2023.1.3,60.113566518857226,
,3,0,3,5,0,5,66,,train_dim1_1,12,24,2,0,2,0,,,,,,,,,0,0,0,0,0,11,11,11,4,0,4,0,,,,,,,,,,,,,,,,,,,,,,,,,,,,,,,,,,,,,,,,,,,,,,,,,,,,,,,,,,24,,,,,,,,82.71684999996796,82.71684999996796,82.71684999996796,82.71684999996796,82.71684999996796,return,0.3768531000241637,11,0,0,0.08,-0.07999999999999997,return,0.29453390021808445,None,38,0,0.08,-0.07999999999999997,,,,,,,,,,,,,,,,,,,,,,,,,,,,,,,,,,,,,2024-06-25_16h21.48.545,HideSeek_v1,2023.1.3,60.113566518857226,
,2,1,2,4,0,3,64,,train_dim1_1,13,24,2,0,2,0,,,,,,,,,0,0,0,0,0,12,12,12,0,0,0,0,,,,,,,,,,,,,,,,,stimuli/alien_stimuli/64.png,,,,,,,,,,,,,,,,,,,,,,,,,,,,,,,stimuli/alien_stimuli/66.png,66,3,14,,,,,,,24,,,,,,,,86.56540059996769,86.56540059996769,86.56540059996769,86.56540059996769,86.56540059996769,up,0.3566803999710828,11,0,99,0,-0.24,up,0.25811289995908737,None,,,,,84.99863000004552,86.56540059996769,0.08,0,0.4,0.0,-0.2,0.08,0.08,0.08,0,84.66559599991888,84.66559599991888,84.66559599991888,84.66559599991888,84.66559599991888,84.66559599991888,84.66559599991888,84.66559599991888,84.64936748011968,0.4514240000862628,return,0.3117808001115918,None,,,,,,,,,,,,,2024-06-25_16h21.48.545,HideSeek_v1,2023.1.3,60.113566518857226,
,2,1,2,4,0,3,64,,train_dim1_1,13,24,2,0,2,0,,,,,,,,,0,0,0,0,0,12,12,12,1,0,1,0,,,,,,,,,,,,,,,,,,,,,,,,,,,,,,,,,,,,,,,,,,,,,,,,,,,,,,,,,,24,,,,,,,,86.91498989984393,86.91498989984393,86.91498989984393,86.91498989984393,86.91498989984393,up,0.29383719991892576,11,0,99,0,-0.15999999999999998,up,0.20240320009179413,None,,,,,,,,,,,,,,,,,,,,,,,,,,,,,,,,,,,,,,,,,2024-06-25_16h21.48.545,HideSeek_v1,2023.1.3,60.113566518857226,
,2,1,2,4,0,3,64,,train_dim1_1,13,24,2,0,2,0,,,,,,,,,0,0,0,0,0,12,12,12,2,0,2,0,,,,,,,,,,,,,,,,,,,,,,,,,,,,,,,,,,,,,,,,,,,,,,,,,,,,,,,,,,24,,,,,,,,87.21549299987964,87.21549299987964,87.21549299987964,87.21549299987964,87.21549299987964,up,0.21082939999178052,11,0,99,0,-0.07999999999999997,up,0.12723489990457892,None,,,,,,,,,,,,,,,,,,,,,,,,,,,,,,,,,,,,,,,,,2024-06-25_16h21.48.545,HideSeek_v1,2023.1.3,60.113566518857226,
,2,1,2,4,0,3,64,,train_dim1_1,13,24,2,0,2,0,,,,,,,,,0,0,0,0,0,12,12,12,3,0,3,0,,,,,,,,,,,,,,,,,,,,,,,,,,,,,,,,,,,,,,,,,,,,,,,,,,,,,,,,,,24,,,,,,,,87.43439509999007,87.43439509999007,87.43439509999007,87.43439509999007,87.43439509999007,return,0.27749130013398826,12,0,1,0,-0.07999999999999997,return,0.182353800162673,None,41,0,0,-0.07999999999999997,,,,,,,,,,,,,,,,,,,,,,,,,,,,,,,,,,,,,2024-06-25_16h21.48.545,HideSeek_v1,2023.1.3,60.113566518857226,
,4,3,4,7,0,4,65,,train_dim1_1,14,24,2,0,2,0,,,,,,,,,0,0,0,0,0,13,13,13,0,0,0,0,,,,,,,,,,,,,,,,,stimuli/alien_stimuli/65.png,,,,,,,,,,,,,,,,,,,,,,,,,,,,,,,stimuli/alien_stimuli/64.png,64,2,15,,,,,,,24,,,,,,,,91.38197800004855,91.38197800004855,91.38197800004855,91.38197800004855,91.38197800004855,up,0.37461649999022484,12,0,99,0.16,-0.08,up,0.283330200240016,None,,,,,89.81557879992761,91.38197800004855,0,-0.08,0.24,0.0,-0.2,0,0.0,0,-0.08,89.28218619991094,89.28218619991094,89.28218619991094,89.28218619991094,89.28218619991094,89.28218619991094,89.28218619991094,89.28218619991094,89.26551928003317,0.6517047001980245,return,0.5145204002037644,None,,,,,,,,,,,,,2024-06-25_16h21.48.545,HideSeek_v1,2023.1.3,60.113566518857226,
,4,3,4,7,0,4,65,,train_dim1_1,14,24,2,0,2,0,,,,,,,,,0,0,0,0,0,13,13,13,1,0,1,0,,,,,,,,,,,,,,,,,,,,,,,,,,,,,,,,,,,,,,,,,,,,,,,,,,,,,,,,,,24,,,,,,,,91.7484748000279,91.7484748000279,91.7484748000279,91.7484748000279,91.7484748000279,up,0.2771119000390172,12,0,99,0.16,0.0,up,0.1850344999693334,None,,,,,,,,,,,,,,,,,,,,,,,,,,,,,,,,,,,,,,,,,2024-06-25_16h21.48.545,HideSeek_v1,2023.1.3,60.113566518857226,
,4,3,4,7,0,4,65,,train_dim1_1,14,24,2,0,2,0,,,,,,,,,0,0,0,0,0,13,13,13,2,0,2,0,,,,,,,,,,,,,,,,,,,,,,,,,,,,,,,,,,,,,,,,,,,,,,,,,,,,,,,,,,24,,,,,,,,92.03262809989974,92.03262809989974,92.03262809989974,92.03262809989974,92.03262809989974,up,0.24419170012697577,12,0,99,0.16,0.08,up,0.1567033000756055,None,,,,,,,,,,,,,,,,,,,,,,,,,,,,,,,,,,,,,,,,,2024-06-25_16h21.48.545,HideSeek_v1,2023.1.3,60.113566518857226,
,4,3,4,7,0,4,65,,train_dim1_1,14,24,2,0,2,0,,,,,,,,,0,0,0,0,0,13,13,13,3,0,3,0,,,,,,,,,,,,,,,,,,,,,,,,,,,,,,,,,,,,,,,,,,,,,,,,,,,,,,,,,,24,,,,,,,,92.29923969996162,92.29923969996162,92.29923969996162,92.29923969996162,92.29923969996162,up,0.22731610015034676,12,0,99,0.16,0.16,up,0.12421970022842288,None,,,,,,,,,,,,,,,,,,,,,,,,,,,,,,,,,,,,,,,,,2024-06-25_16h21.48.545,HideSeek_v1,2023.1.3,60.113566518857226,
,4,3,4,7,0,4,65,,train_dim1_1,14,24,2,0,2,0,,,,,,,,,0,0,0,0,0,13,13,13,4,0,4,0,,,,,,,,,,,,,,,,,,,,,,,,,,,,,,,,,,,,,,,,,,,,,,,,,,,,,,,,,,24,,,,,,,,92.51849419996142,92.51849419996142,92.51849419996142,92.51849419996142,92.51849419996142,return,0.2939927999395877,13,0,1,0.16,0.16,return,0.19896090007387102,None,45,0,0.16,0.16,,,,,,,,,,,,,,,,,,,,,,,,,,,,,,,,,,,,,2024-06-25_16h21.48.545,HideSeek_v1,2023.1.3,60.113566518857226,
,1,0,1,5,0,5,66,,train_dim1_1,15,24,2,0,2,0,,,,,,,,,0,0,0,0,0,14,14,14,0,0,0,0,,,,,,,,,,,,,,,,,stimuli/alien_stimuli/66.png,,,,,,,,,,,,,,,,,,,,,,,,,,,,,,,stimuli/alien_stimuli/65.png,65,4,16,,,,,,,24,,,,,,,,96.36648770002648,96.36648770002648,96.36648770002648,96.36648770002648,96.36648770002648,up,0.5754588998388499,13,0,99,-0.08,-0.32,up,0.4889088999480009,None,,,,,94.81526379985735,96.36648770002648,0.16,0.16,0.32,0.0,0.0,0.16,0.16,0.16,0.16,94.3985253998544,94.3985253998544,94.3985253998544,94.3985253998544,94.3985253998544,94.3985253998544,94.3985253998544,94.3985253998544,94.38216842007823,0.5515618999488652,return,0.3946252001915127,None,,,,,,,,,,,,,2024-06-25_16h21.48.545,HideSeek_v1,2023.1.3,60.113566518857226,
,1,0,1,5,0,5,66,,train_dim1_1,15,24,2,0,2,0,,,,,,,,,0,0,0,0,0,14,14,14,1,0,1,0,,,,,,,,,,,,,,,,,,,,,,,,,,,,,,,,,,,,,,,,,,,,,,,,,,,,,,,,,,24,,,,,,,,96.94855990004726,96.94855990004726,96.94855990004726,96.94855990004726,96.94855990004726,up,0.2931886001024395,13,0,99,-0.08,-0.24,up,0.20419160020537674,None,,,,,,,,,,,,,,,,,,,,,,,,,,,,,,,,,,,,,,,,,2024-06-25_16h21.48.545,HideSeek_v1,2023.1.3,60.113566518857226,
,1,0,1,5,0,5,66,,train_dim1_1,15,24,2,0,2,0,,,,,,,,,0,0,0,0,0,14,14,14,2,0,2,0,,,,,,,,,,,,,,,,,,,,,,,,,,,,,,,,,,,,,,,,,,,,,,,,,,,,,,,,,,24,,,,,,,,97.24801860004663,97.24801860004663,97.24801860004663,97.24801860004663,97.24801860004663,up,0.27677179989404976,13,0,99,-0.08,-0.15999999999999998,up,0.1912609999999404,None,,,,,,,,,,,,,,,,,,,,,,,,,,,,,,,,,,,,,,,,,2024-06-25_16h21.48.545,HideSeek_v1,2023.1.3,60.113566518857226,
,1,0,1,5,0,5,66,,train_dim1_1,15,24,2,0,2,0,,,,,,,,,0,0,0,0,0,14,14,14,3,0,3,0,,,,,,,,,,,,,,,,,,,,,,,,,,,,,,,,,,,,,,,,,,,,,,,,,,,,,,,,,,24,,,,,,,,97.53459559986368,97.53459559986368,97.53459559986368,97.53459559986368,97.53459559986368,up,0.3779814001172781,13,0,99,-0.08,-0.07999999999999997,up,0.2954534001182765,None,,,,,,,,,,,,,,,,,,,,,,,,,,,,,,,,,,,,,,,,,2024-06-25_16h21.48.545,HideSeek_v1,2023.1.3,60.113566518857226,
,1,0,1,5,0,5,66,,train_dim1_1,15,24,2,0,2,0,,,,,,,,,0,0,0,0,0,14,14,14,4,0,4,0,,,,,,,,,,,,,,,,,,,,,,,,,,,,,,,,,,,,,,,,,,,,,,,,,,,,,,,,,,24,,,,,,,,97.9189126000274,97.9189126000274,97.9189126000274,97.9189126000274,97.9189126000274,up,0.7436327000614256,13,0,99,-0.08,2.7755575615628914e-17,up,0.6530805001966655,None,,,,,,,,,,,,,,,,,,,,,,,,,,,,,,,,,,,,,,,,,2024-06-25_16h21.48.545,HideSeek_v1,2023.1.3,60.113566518857226,
,1,0,1,5,0,5,66,,train_dim1_1,15,24,2,0,2,0,,,,,,,,,0,0,0,0,0,14,14,14,5,0,5,0,,,,,,,,,,,,,,,,,,,,,,,,,,,,,,,,,,,,,,,,,,,,,,,,,,,,,,,,,,24,,,,,,,,98.6665040999651,98.6665040999651,98.6665040999651,98.6665040999651,98.6665040999651,return,0.44383400003425777,14,0,1,-0.08,2.7755575615628914e-17,return,0.36418680008500814,None,50,0,-0.08,2.7755575615628914e-17,,,,,,,,,,,,,,,,,,,,,,,,,,,,,,,,,,,,,2024-06-25_16h21.48.545,HideSeek_v1,2023.1.3,60.113566518857226,
,3,1,3,2,0,1,62,,train_dim1_1,16,24,2,0,2,0,,,,,,,,,0,0,0,0,0,15,15,15,0,0,0,0,,,,,,,,,,,,,,,,,stimuli/alien_stimuli/62.png,,,,,,,,,,,,,,,,,,,,,,,,,,,,,,,stimuli/alien_stimuli/66.png,66,1,17,,,,,,,24,,,,,,,,102.73174829990603,102.73174829990603,102.73174829990603,102.73174829990603,102.73174829990603,return,0.4577986001968384,14,0,0,0.08,-0.32,return,0.3598329001106322,None,50,0,0.08,-0.32,101.16492239991203,102.73174829990603,-0.08,0,0.4,0.0,-0.2,-0.08,-0.08,-0.08,0,100.66480119992048,100.66480119992048,100.66480119992048,100.66480119992048,100.66480119992048,100.66480119992048,100.66480119992048,100.66480119992048,100.64881523991934,0.6014306999277323,return,0.47663759998977184,None,,,,,,,,,,,,,2024-06-25_16h21.48.545,HideSeek_v1,2023.1.3,60.113566518857226,
,0,2,0,7,0,5,66,,train_dim1_1,17,24,2,0,2,0,,,,,,,,,0,0,0,0,0,16,16,16,0,0,0,0,,,,,,,,,,,,,,,,,stimuli/alien_stimuli/66.png,,,,,,,,,,,,,,,,,,,,,,,,,,,,,,,stimuli/alien_stimuli/62.png,62,3,18,,,,,,,24,,,,,,,,106.48190460004844,106.48190460004844,106.48190460004844,106.48190460004844,106.48190460004844,return,0.22374950000084937,14,0,0,-0.16,-0.24,return,0.127690700115636,None,50,0,-0.16,-0.24,104.91504099988379,106.48190460004844,0.08,-0.24,0.08,0.0,-0.28,0.08,0.08,0.08,-0.24,104.73178160004318,104.73178160004318,104.73178160004318,104.73178160004318,104.73178160004318,104.73178160004318,104.73178160004318,104.73178160004318,104.71496143997646,0.2854043000843376,return,0.16694379993714392,None,,,,,,,,,,,,,2024-06-25_16h21.48.545,HideSeek_v1,2023.1.3,60.113566518857226,
,1,2,1,6,0,4,65,,train_dim1_1,18,24,2,0,2,0,,,,,,,,,0,0,0,0,0,17,17,17,0,0,0,0,,,,,,,,,,,,,,,,,stimuli/alien_stimuli/65.png,,,,,,,,,,,,,,,,,,,,,,,,,,,,,,,stimuli/alien_stimuli/66.png,66,0,19,,,,,,,24,,,,,,,,110.0820671999827,110.0820671999827,110.0820671999827,110.0820671999827,110.0820671999827,return,0.39074469986371696,14,0,0,-0.08,-0.24,return,0.2962637001182884,None,50,0,-0.08,-0.24,108.5149636999704,110.0820671999827,-0.16,0.16,0.4,0.0,-0.039999999999999994,-0.16,-0.16,-0.16,0.16,108.26545179984532,108.26545179984532,108.26545179984532,108.26545179984532,108.26545179984532,108.26545179984532,108.26545179984532,108.26545179984532,108.23172023999504,0.3692204998806119,return,0.23247940023429692,None,,,,,,,,,,,,,2024-06-25_16h21.48.545,HideSeek_v1,2023.1.3,60.113566518857226,
,1,4,1,5,0,1,62,,train_dim1_1,19,24,2,0,2,0,,,,,,,,,0,0,0,0,0,18,18,18,0,0,0,0,,,,,,,,,,,,,,,,,stimuli/alien_stimuli/62.png,,,,,,,,,,,,,,,,,,,,,,,,,,,,,,,stimuli/alien_stimuli/65.png,65,1,20,,,,,,,24,,,,,,,,113.88157379999757,113.88157379999757,113.88157379999757,113.88157379999757,113.88157379999757,return,0.22377849998883903,14,0,0,-0.08,-0.08,return,0.1309557999484241,None,50,0,-0.08,-0.08,112.31455540005118,113.88157379999757,-0.08,0.08,0.32,0.0,-0.07999999999999999,-0.08,-0.08,-0.08,0.08,112.0155615999829,112.0155615999829,112.0155615999829,112.0155615999829,112.0155615999829,112.0155615999829,112.0155615999829,112.0155615999829,111.99865614008158,0.40118669997900724,return,0.2769442000426352,None,,,,,,,,,,,,,2024-06-25_16h21.48.545,HideSeek_v1,2023.1.3,60.113566518857226,
,3,2,3,5,0,3,64,,train_dim1_1,20,24,2,0,2,0,,,,,,,,,0,0,0,0,0,19,19,19,0,0,0,0,,,,,,,,,,,,,,,,,stimuli/alien_stimuli/64.png,,,,,,,,,,,,,,,,,,,,,,,,,,,,,,,stimuli/alien_stimuli/62.png,62,1,21,,,,,,,24,,,,,,,,117.53155700000934,117.53155700000934,117.53155700000934,117.53155700000934,117.53155700000934,return,0.6905525999609381,14,0,0,0.08,-0.24,return,0.5859884002711624,None,50,0,0.08,-0.24,115.96461609983817,117.53155700000934,-0.08,0,0.08,0.0,-0.04,-0.08,-0.08,-0.08,0,115.6488167999778,115.6488167999778,115.6488167999778,115.6488167999778,115.6488167999778,115.6488167999778,115.6488167999778,115.6488167999778,115.63193754004314,0.41830720007419586,return,0.29539840016514063,None,,,,,,,,,,,,,2024-06-25_16h21.48.545,HideSeek_v1,2023.1.3,60.113566518857226,
,2,4,2,5,0,1,62,,train_dim1_1,21,24,2,0,2,0,,,,,,,,,0,0,0,0,0,20,20,20,0,0,0,0,,,,,,,,,,,,,,,,,stimuli/alien_stimuli/62.png,,,,,,,,,,,,,,,,,,,,,,,,,,,,,,,stimuli/alien_stimuli/64.png,64,3,22,,,,,,,24,,,,,,,,121.74788319994695,121.74788319994695,121.74788319994695,121.74788319994695,121.74788319994695,return,0.49083889997564256,14,0,0,0,-0.08,return,0.38822410022839904,None,50,0,0,-0.08,120.18170469999313,121.74788319994695,0.08,0,0.24,0.0,-0.12,0.08,0.08,0.08,0,119.76549479993992,119.76549479993992,119.76549479993992,119.76549479993992,119.76549479993992,119.76549479993992,119.76549479993992,119.76549479993992,119.74870504010468,0.5184849000070244,return,0.39654290000908077,None,,,,,,,,,,,,,2024-06-25_16h21.48.545,HideSeek_v1,2023.1.3,60.113566518857226,
,0,1,0,5,0,4,65,,train_dim1_1,22,24,2,0,2,0,,,,,,,,,0,0,0,0,0,21,21,21,0,0,0,0,,,,,,,,,,,,,,,,,stimuli/alien_stimuli/65.png,,,,,,,,,,,,,,,,,,,,,,,,,,,,,,,stimuli/alien_stimuli/62.png,62,2,23,,,,,,,24,,,,,,,,125.7487269998528,125.7487269998528,125.7487269998528,125.7487269998528,125.7487269998528,return,0.12337869987823069,14,0,0,-0.16,-0.32,return,0.03145290003158152,None,50,0,-0.16,-0.32,124.18154909997247,125.7487269998528,0,0,0.08,0.0,-0.04,0,0.0,0,0,123.78240430005826,123.78240430005826,123.78240430005826,123.78240430005826,123.78240430005826,123.78240430005826,123.78240430005826,123.78240430005826,123.7648634399753,0.5014674998819828,return,0.3745361000765115,None,,,,,,,,,,,,,2024-06-25_16h21.48.545,HideSeek_v1,2023.1.3,60.113566518857226,
,2,3,2,6,0,3,64,,train_dim1_1,23,24,2,0,2,0,,,,,,,,,0,0,0,0,0,22,22,22,0,0,0,0,,,,,,,,,,,,,,,,,stimuli/alien_stimuli/64.png,,,,,,,,,,,,,,,,,,,,,,,,,,,,,,,stimuli/alien_stimuli/65.png,65,0,24,,,,,,,24,,,,,,,,129.51489649992436,129.51489649992436,129.51489649992436,129.51489649992436,129.51489649992436,return,0.49026589980348945,14,0,0,0,-0.16,return,0.39471499994397163,None,50,0,0,-0.16,127.9478590998333,129.51489649992436,-0.16,0,0.32,0.0,-0.16,-0.16,-0.16,-0.16,0,127.41480859997682,127.41480859997682,127.41480859997682,127.41480859997682,127.41480859997682,127.41480859997682,127.41480859997682,127.41480859997682,127.39792923992499,0.6351408998016268,return,0.5044938002247363,None,,,,,,,,,,,,,2024-06-25_16h21.48.545,HideSeek_v1,2023.1.3,60.113566518857226,
,1,1,1,6,0,5,66,,train_dim1_1,24,24,2,0,2,0,,,,,,,,,0,0,0,0,0,23,23,23,0,0,0,0,,,,,,,,,,,,,,,,,stimuli/alien_stimuli/66.png,,,,,,,,,,,,,,,,,,,,,,,,,,,,,,,stimuli/alien_stimuli/64.png,64,2,25,,,,,,,24,,,,,,,,133.63147399993613,133.63147399993613,133.63147399993613,133.63147399993613,133.63147399993613,return,0.7404182001482695,14,0,0,-0.08,-0.32,return,0.6484195999801159,None,50,0,-0.08,-0.32,132.06477349996567,133.63147399993613,0,0.08,0.24,0.0,-0.04,0,0.0,0,0.08,131.56473909993656,131.56473909993656,131.56473909993656,131.56473909993656,131.56473909993656,131.56473909993656,131.56473909993656,131.56473909993656,131.54837827994487,0.6176756999921054,return,0.47487660008482635,None,,,,,,,,,,,,,2024-06-25_16h21.48.545,HideSeek_v1,2023.1.3,60.113566518857226,
,2,0,2,1,0,1,62,,train_dim1_1,1,4,2,0,2,0,,,,,,,,,1,0,1,0,0,0,0,0,0,0,0,0,,,,,,,,,,,,,,,,,stimuli/alien_stimuli/62.png,,,,,,,,,,,,,,,,,,,,,,,,,,,,,,,stimuli/alien_stimuli/66.png,66,1,26,17,70,58.333333333333336,1,0,1,4,0,conditions/inputTrain_1.2.xlsx,99,1,1,1,0,137.7815711000003,137.7815711000003,137.7815711000003,137.7815711000003,137.7815711000003,up,0.43508370011113584,0,0,99,0,-0.32,up,0.3207906000316143,None,,,,,136.19775609998032,137.7815711000003,-0.08,0.08,0.4,0.0,-0.12,-0.08,-0.08,-0.08,0.08,135.9312541000545,135.9312541000545,135.9312541000545,135.9312541000545,135.9312541000545,135.9312541000545,135.9312541000545,135.9312541000545,135.91496248012407,0.38501870003528893,return,0.2444964002352208,None,0,2.8,0,1,14,,,,,,,,2024-06-25_16h21.48.545,HideSeek_v1,2023.1.3,60.113566518857226,
,2,0,2,1,0,1,62,,train_dim1_1,1,4,2,0,2,0,,,,,,,,,1,0,1,0,0,0,0,0,1,0,1,0,,,,,,,,,,,,,,,,,,,,,,,,,,,,,,,,,,,,,,,,,,,,,,,,,,,,,,,,,,4,,,,,,,,138.20324199995957,138.20324199995957,138.20324199995957,138.20324199995957,138.20324199995957,return,0.36020240001380444,1,0,1,0,-0.32,return,0.27540879999287426,None,51,0,0,-0.32,,,,,,,,,,,,,,,,,,,,,,,,,,,,,,,,,,,,,2024-06-25_16h21.48.545,HideSeek_v1,2023.1.3,60.113566518857226,
,2,2,2,5,0,3,64,,train_dim1_1,2,4,2,0,2,0,,,,,,,,,1,0,1,0,0,1,1,1,0,0,0,0,,,,,,,,,,,,,,,,,stimuli/alien_stimuli/64.png,,,,,,,,,,,,,,,,,,,,,,,,,,,,,,,stimuli/alien_stimuli/62.png,62,2,1,,,,,,,4,,,,,,,,142.0982309000101,142.0982309000101,142.0982309000101,142.0982309000101,142.0982309000101,up,0.6718955000396818,1,0,99,0,-0.15999999999999998,up,0.576217700028792,None,,,,,140.5312447999604,142.0982309000101,0,-0.32,0.08,0.0,-0.36,0,0.0,0,-0.32,140.131259100046,140.131259100046,140.131259100046,140.131259100046,140.131259100046,140.131259100046,140.131259100046,140.131259100046,140.1149803800974,0.5183738998603076,return,0.3735020002350211,None,,,,,,,,,,,,,2024-06-25_16h21.48.545,HideSeek_v1,2023.1.3,60.113566518857226,
,2,2,2,5,0,3,64,,train_dim1_1,2,4,2,0,2,0,,,,,,,,,1,0,1,0,0,1,1,1,1,0,1,0,,,,,,,,,,,,,,,,,,,,,,,,,,,,,,,,,,,,,,,,,,,,,,,,,,,,,,,,,,4,,,,,,,,142.7673893000465,142.7673893000465,142.7673893000465,142.7673893000465,142.7673893000465,up,0.36069330014288425,1,0,99,0,-0.07999999999999997,up,0.26562920003198087,None,,,,,,,,,,,,,,,,,,,,,,,,,,,,,,,,,,,,,,,,,2024-06-25_16h21.48.545,HideSeek_v1,2023.1.3,60.113566518857226,
,2,2,2,5,0,3,64,,train_dim1_1,2,4,2,0,2,0,,,,,,,,,1,0,1,0,0,1,1,1,2,0,2,0,,,,,,,,,,,,,,,,,,,,,,,,,,,,,,,,,,,,,,,,,,,,,,,,,,,,,,,,,,4,,,,,,,,143.1347735999152,143.1347735999152,143.1347735999152,143.1347735999152,143.1347735999152,up,0.327078599948436,1,0,99,0,2.7755575615628914e-17,up,0.2459995001554489,None,,,,,,,,,,,,,,,,,,,,,,,,,,,,,,,,,,,,,,,,,2024-06-25_16h21.48.545,HideSeek_v1,2023.1.3,60.113566518857226,
,2,2,2,5,0,3,64,,train_dim1_1,2,4,2,0,2,0,,,,,,,,,1,0,1,0,0,1,1,1,3,0,3,0,,,,,,,,,,,,,,,,,,,,,,,,,,,,,,,,,,,,,,,,,,,,,,,,,,,,,,,,,,4,,,,,,,,143.46735269995406,143.46735269995406,143.46735269995406,143.46735269995406,143.46735269995406,return,0.27759980014525354,2,0,1,0,2.7755575615628914e-17,return,0.18746770010329783,None,54,0,0,2.7755575615628914e-17,,,,,,,,,,,,,,,,,,,,,,,,,,,,,,,,,,,,,2024-06-25_16h21.48.545,HideSeek_v1,2023.1.3,60.113566518857226,
,3,3,3,8,0,5,66,,train_dim1_1,3,4,2,0,2,0,,,,,,,,,1,0,1,0,0,2,2,2,0,0,0,0,,,,,,,,,,,,,,,,,stimuli/alien_stimuli/66.png,,,,,,,,,,,,,,,,,,,,,,,,,,,,,,,stimuli/alien_stimuli/64.png,64,2,2,,,,,,,4,,,,,,,,147.2981380999554,147.2981380999554,147.2981380999554,147.2981380999554,147.2981380999554,up,0.37432190007530153,2,0,99,0.08,-0.08,up,0.27438870002515614,None,,,,,145.7311219999101,147.2981380999554,0,0,0.24,0.0,-0.12,0,0.0,0,0,145.3143335999921,145.3143335999921,145.3143335999921,145.3143335999921,145.3143335999921,145.3143335999921,145.3143335999921,145.3143335999921,145.2982196801342,0.5342407000716776,return,0.3852074001915753,None,,,,,,,,,,,,,2024-06-25_16h21.48.545,HideSeek_v1,2023.1.3,60.113566518857226,
,3,3,3,8,0,5,66,,train_dim1_1,3,4,2,0,2,0,,,,,,,,,1,0,1,0,0,2,2,2,1,0,1,0,,,,,,,,,,,,,,,,,,,,,,,,,,,,,,,,,,,,,,,,,,,,,,,,,,,,,,,,,,4,,,,,,,,147.68193259998225,147.68193259998225,147.68193259998225,147.68193259998225,147.68193259998225,up,0.29368610004894435,2,0,99,0.08,0.0,up,0.18719379999674857,None,,,,,,,,,,,,,,,,,,,,,,,,,,,,,,,,,,,,,,,,,2024-06-25_16h21.48.545,HideSeek_v1,2023.1.3,60.113566518857226,
,3,3,3,8,0,5,66,,train_dim1_1,3,4,2,0,2,0,,,,,,,,,1,0,1,0,0,2,2,2,2,0,2,0,,,,,,,,,,,,,,,,,,,,,,,,,,,,,,,,,,,,,,,,,,,,,,,,,,,,,,,,,,4,,,,,,,,147.97104349988513,147.97104349988513,147.97104349988513,147.97104349988513,147.97104349988513,up,0.31033540004864335,2,0,99,0.08,0.08,up,0.22247770009562373,None,,,,,,,,,,,,,,,,,,,,,,,,,,,,,,,,,,,,,,,,,2024-06-25_16h21.48.545,HideSeek_v1,2023.1.3,60.113566518857226,
,3,3,3,8,0,5,66,,train_dim1_1,3,4,2,0,2,0,,,,,,,,,1,0,1,0,0,2,2,2,3,0,3,0,,,,,,,,,,,,,,,,,,,,,,,,,,,,,,,,,,,,,,,,,,,,,,,,,,,,,,,,,,4,,,,,,,,148.29816509992816,148.29816509992816,148.29816509992816,148.29816509992816,148.29816509992816,up,0.32588210003450513,2,0,99,0.08,0.16,up,0.22559339995495975,None,,,,,,,,,,,,,,,,,,,,,,,,,,,,,,,,,,,,,,,,,2024-06-25_16h21.48.545,HideSeek_v1,2023.1.3,60.113566518857226,
,3,3,3,8,0,5,66,,train_dim1_1,3,4,2,0,2,0,,,,,,,,,1,0,1,0,0,2,2,2,4,0,4,0,,,,,,,,,,,,,,,,,,,,,,,,,,,,,,,,,,,,,,,,,,,,,,,,,,,,,,,,,,4,,,,,,,,148.61386199994013,148.61386199994013,148.61386199994013,148.61386199994013,148.61386199994013,up,0.34320779982954264,2,0,99,0.08,0.24,up,0.2544072000309825,None,,,,,,,,,,,,,,,,,,,,,,,,,,,,,,,,,,,,,,,,,2024-06-25_16h21.48.545,HideSeek_v1,2023.1.3,60.113566518857226,
,3,3,3,8,0,5,66,,train_dim1_1,3,4,2,0,2,0,,,,,,,,,1,0,1,0,0,2,2,2,5,0,5,0,,,,,,,,,,,,,,,,,,,,,,,,,,,,,,,,,,,,,,,,,,,,,,,,,,,,,,,,,,4,,,,,,,,148.96596989990212,148.96596989990212,148.96596989990212,148.96596989990212,148.96596989990212,return,0.32753210002556443,3,0,1,0.08,0.24,return,0.2330545000731945,None,59,0,0.08,0.24,,,,,,,,,,,,,,,,,,,,,,,,,,,,,,,,,,,,,2024-06-25_16h21.48.545,HideSeek_v1,2023.1.3,60.113566518857226,
,4,4,4,8,0,4,65,,train_dim1_1,4,4,2,0,2,0,,,,,,,,,1,0,1,0,0,3,3,3,0,0,0,0,,,,,,,,,,,,,,,,,stimuli/alien_stimuli/65.png,,,,,,,,,,,,,,,,,,,,,,,,,,,,,,,stimuli/alien_stimuli/66.png,66,3,3,,,,,,,4,,,,,,,,152.83174080005847,152.83174080005847,152.83174080005847,152.83174080005847,152.83174080005847,up,0.723817199934274,3,0,99,0.16,0.0,up,0.6251553001347929,None,,,,,151.26498039998114,152.83174080005847,0.08,0.24,0.4,0.0,0.039999999999999994,0.08,0.08,0.08,0.24,150.85044909990393,150.85044909990393,150.85044909990393,150.85044909990393,150.85044909990393,150.85044909990393,150.85044909990393,150.85044909990393,150.83202273994684,0.5173253000248224,return,0.3820152000989765,None,,,,,,,,,,,,,2024-06-25_16h21.48.545,HideSeek_v1,2023.1.3,60.113566518857226,
,4,4,4,8,0,4,65,,train_dim1_1,4,4,2,0,2,0,,,,,,,,,1,0,1,0,0,3,3,3,1,0,1,0,,,,,,,,,,,,,,,,,,,,,,,,,,,,,,,,,,,,,,,,,,,,,,,,,,,,,,,,,,4,,,,,,,,153.54963389993645,153.54963389993645,153.54963389993645,153.54963389993645,153.54963389993645,up,1.02731420006603,3,0,99,0.16,0.08,up,0.9451325002592057,None,,,,,,,,,,,,,,,,,,,,,,,,,,,,,,,,,,,,,,,,,2024-06-25_16h21.48.545,HideSeek_v1,2023.1.3,60.113566518857226,
,4,4,4,8,0,4,65,,train_dim1_1,4,4,2,0,2,0,,,,,,,,,1,0,1,0,0,3,3,3,2,0,2,0,,,,,,,,,,,,,,,,,,,,,,,,,,,,,,,,,,,,,,,,,,,,,,,,,,,,,,,,,,4,,,,,,,,154.5822399999015,154.5822399999015,154.5822399999015,154.5822399999015,154.5822399999015,up,0.5101133000571281,3,0,99,0.16,0.16,up,0.4214434002060443,None,,,,,,,,,,,,,,,,,,,,,,,,,,,,,,,,,,,,,,,,,2024-06-25_16h21.48.545,HideSeek_v1,2023.1.3,60.113566518857226,
,4,4,4,8,0,4,65,,train_dim1_1,4,4,2,0,2,0,,,,,,,,,1,0,1,0,0,3,3,3,3,0,3,0,,,,,,,,,,,,,,,,,,,,,,,,,,,,,,,,,,,,,,,,,,,,,,,,,,,,,,,,,,4,,,,,,,,155.0972621999681,155.0972621999681,155.0972621999681,155.0972621999681,155.0972621999681,up,0.3103194001596421,3,0,99,0.16,0.24,up,0.23129580006934702,None,,,,,,,,,,,,,,,,,,,,,,,,,,,,,,,,,,,,,,,,,2024-06-25_16h21.48.545,HideSeek_v1,2023.1.3,60.113566518857226,
,4,4,4,8,0,4,65,,train_dim1_1,4,4,2,0,2,0,,,,,,,,,1,0,1,0,0,3,3,3,4,0,4,0,,,,,,,,,,,,,,,,,,,,,,,,,,,,,,,,,,,,,,,,,,,,,,,,,,,,,,,,,,4,,,,,,,,155.4149006998632,155.4149006998632,155.4149006998632,155.4149006998632,155.4149006998632,return,0.2604249999858439,4,0,1,0.16,0.24,return,0.1783243000973016,None,63,0,0.16,0.24,,,,,,,,,,,,,,,,,,,,,,,,,,,,,,,,,,,,,2024-06-25_16h21.48.545,HideSeek_v1,2023.1.3,60.113566518857226,
,3,4,3,5,0,1,62,,train_dim1_1,1,4,2,0,2,0,,,,,,,,,2,0,2,0,0,0,0,0,0,0,0,0,,,,,,,,,,,,,,,,,stimuli/alien_stimuli/62.png,,,,,,,,,,,,,,,,,,,,,,,,,,,,,,,stimuli/alien_stimuli/65.png,65,4,4,17,70,75.0,2,0,1,4,0,conditions/inputTrain_1.3.xlsx,99,1,1,1,0,162.79748840001412,162.79748840001412,162.79748840001412,162.79748840001412,162.79748840001412,up,0.5709799998439848,0,0,99,0.08,0.0,up,0.47276090015657246,None,,,,,161.23114259983413,162.79748840001412,0.16,0.24,0.32,0.0,0.07999999999999999,0.16,0.16,0.16,0.24,157.22940630000085,157.22940630000085,157.22940630000085,157.22940630000085,157.22940630000085,157.22940630000085,157.22940630000085,157.22940630000085,157.21455863993614,4.101928600110114,return,3.9854886000975966,None,0,10.522222222222222,0,2,4,,,,,,,,2024-06-25_16h21.48.545,HideSeek_v1,2023.1.3,60.113566518857226,
,3,4,3,5,0,1,62,,train_dim1_1,1,4,2,0,2,0,,,,,,,,,2,0,2,0,0,0,0,0,1,0,1,0,,,,,,,,,,,,,,,,,,,,,,,,,,,,,,,,,,,,,,,,,,,,,,,,,,,,,,,,,,4,,,,,,,,163.36481189983897,163.36481189983897,163.36481189983897,163.36481189983897,163.36481189983897,return,0.3766955998726189,1,0,1,0.08,0.0,return,0.29780749999918044,None,64,0,0.08,0.0,,,,,,,,,,,,,,,,,,,,,,,,,,,,,,,,,,,,,2024-06-25_16h21.48.545,HideSeek_v1,2023.1.3,60.113566518857226,
,4,0,4,4,0,4,65,,train_dim1_1,2,4,2,0,2,0,,,,,,,,,2,0,2,0,0,1,1,1,0,0,0,0,,,,,,,,,,,,,,,,,stimuli/alien_stimuli/65.png,,,,,,,,,,,,,,,,,,,,,,,,,,,,,,,stimuli/alien_stimuli/62.png,62,3,1,,,,,,,4,,,,,,,,168.84972379985265,168.84972379985265,168.84972379985265,168.84972379985265,168.84972379985265,up,0.5082602000329643,1,0,99,0.16,-0.32,up,0.4265513999853283,None,,,,,167.29795040003955,168.84972379985265,0.08,0,0.08,0.0,-0.04,0.08,0.08,0.08,0,165.31315879989415,165.31315879989415,165.31315879989415,165.31315879989415,165.31315879989415,165.31315879989415,165.31315879989415,165.31315879989415,165.29868467994964,2.1009290001820773,return,1.9593137002084404,None,,,,,,,,,,,,,2024-06-25_16h21.48.545,HideSeek_v1,2023.1.3,60.113566518857226,
,4,0,4,4,0,4,65,,train_dim1_1,2,4,2,0,2,0,,,,,,,,,2,0,2,0,0,1,1,1,1,0,1,0,,,,,,,,,,,,,,,,,,,,,,,,,,,,,,,,,,,,,,,,,,,,,,,,,,,,,,,,,,4,,,,,,,,169.36623449996114,169.36623449996114,169.36623449996114,169.36623449996114,169.36623449996114,up,0.4266410998534411,1,0,99,0.16,-0.24,up,0.3338705999776721,None,,,,,,,,,,,,,,,,,,,,,,,,,,,,,,,,,,,,,,,,,2024-06-25_16h21.48.545,HideSeek_v1,2023.1.3,60.113566518857226,
,4,0,4,4,0,4,65,,train_dim1_1,2,4,2,0,2,0,,,,,,,,,2,0,2,0,0,1,1,1,2,0,2,0,,,,,,,,,,,,,,,,,,,,,,,,,,,,,,,,,,,,,,,,,,,,,,,,,,,,,,,,,,4,,,,,,,,169.80048740003258,169.80048740003258,169.80048740003258,169.80048740003258,169.80048740003258,up,0.5939266001805663,1,0,99,0.16,-0.15999999999999998,up,0.5053811001125723,None,,,,,,,,,,,,,,,,,,,,,,,,,,,,,,,,,,,,,,,,,2024-06-25_16h21.48.545,HideSeek_v1,2023.1.3,60.113566518857226,
,4,0,4,4,0,4,65,,train_dim1_1,2,4,2,0,2,0,,,,,,,,,2,0,2,0,0,1,1,1,3,0,3,0,,,,,,,,,,,,,,,,,,,,,,,,,,,,,,,,,,,,,,,,,,,,,,,,,,,,,,,,,,4,,,,,,,,170.40116919996217,170.40116919996217,170.40116919996217,170.40116919996217,170.40116919996217,up,2.527209100080654,1,0,99,0.16,-0.07999999999999997,up,2.435725999996066,None,,,,,,,,,,,,,,,,,,,,,,,,,,,,,,,,,,,,,,,,,2024-06-25_16h21.48.545,HideSeek_v1,2023.1.3,60.113566518857226,
,4,0,4,4,0,4,65,,train_dim1_1,2,4,2,0,2,0,,,,,,,,,2,0,2,0,0,1,1,1,4,0,4,0,,,,,,,,,,,,,,,,,,,,,,,,,,,,,,,,,,,,,,,,,,,,,,,,,,,,,,,,,,4,,,,,,,,172.93277259985916,172.93277259985916,172.93277259985916,172.93277259985916,172.93277259985916,return,0.36040249979123473,2,0,1,0.16,-0.07999999999999997,return,0.2697470001876354,None,68,0,0.16,-0.07999999999999997,,,,,,,,,,,,,,,,,,,,,,,,,,,,,,,,,,,,,2024-06-25_16h21.48.545,HideSeek_v1,2023.1.3,60.113566518857226,
,0,3,0,6,0,3,64,,train_dim1_1,3,4,2,0,2,0,,,,,,,,,2,0,2,0,0,2,2,2,0,0,0,0,,,,,,,,,,,,,,,,,stimuli/alien_stimuli/64.png,,,,,,,,,,,,,,,,,,,,,,,,,,,,,,,stimuli/alien_stimuli/65.png,65,4,2,,,,,,,4,,,,,,,,176.79746969998814,176.79746969998814,176.79746969998814,176.79746969998814,176.79746969998814,up,0.4581755001563579,2,0,99,-0.16,-0.08,up,0.35721080005168915,None,,,,,175.23127899994142,176.79746969998814,0.16,-0.08,0.32,0.0,-0.24000000000000002,0.16,0.16,0.16,-0.08,174.84641580004245,174.84641580004245,174.84641580004245,174.84641580004245,174.84641580004245,174.84641580004245,174.84641580004245,174.84641580004245,174.83096443992108,0.4874678000342101,return,0.3690564001444727,None,,,,,,,,,,,,,2024-06-25_16h21.48.545,HideSeek_v1,2023.1.3,60.113566518857226,
,0,3,0,6,0,3,64,,train_dim1_1,3,4,2,0,2,0,,,,,,,,,2,0,2,0,0,2,2,2,1,0,1,0,,,,,,,,,,,,,,,,,,,,,,,,,,,,,,,,,,,,,,,,,,,,,,,,,,,,,,,,,,4,,,,,,,,177.26430899999104,177.26430899999104,177.26430899999104,177.26430899999104,177.26430899999104,up,0.3433954000938684,2,0,99,-0.16,0.0,up,0.23456290015019476,None,,,,,,,,,,,,,,,,,,,,,,,,,,,,,,,,,,,,,,,,,2024-06-25_16h21.48.545,HideSeek_v1,2023.1.3,60.113566518857226,
,0,3,0,6,0,3,64,,train_dim1_1,3,4,2,0,2,0,,,,,,,,,2,0,2,0,0,2,2,2,2,0,2,0,,,,,,,,,,,,,,,,,,,,,,,,,,,,,,,,,,,,,,,,,,,,,,,,,,,,,,,,,,4,,,,,,,,177.5967395999469,177.5967395999469,177.5967395999469,177.5967395999469,177.5967395999469,up,0.34377850010059774,2,0,99,-0.16,0.08,up,0.25715950015001,None,,,,,,,,,,,,,,,,,,,,,,,,,,,,,,,,,,,,,,,,,2024-06-25_16h21.48.545,HideSeek_v1,2023.1.3,60.113566518857226,
,0,3,0,6,0,3,64,,train_dim1_1,3,4,2,0,2,0,,,,,,,,,2,0,2,0,0,2,2,2,3,0,3,0,,,,,,,,,,,,,,,,,,,,,,,,,,,,,,,,,,,,,,,,,,,,,,,,,,,,,,,,,,4,,,,,,,,177.94950850005262,177.94950850005262,177.94950850005262,177.94950850005262,177.94950850005262,return,0.3107494998257607,3,0,1,-0.16,0.08,return,0.22199920006096363,None,71,0,-0.16,0.08,,,,,,,,,,,,,,,,,,,,,,,,,,,,,,,,,,,,,2024-06-25_16h21.48.545,HideSeek_v1,2023.1.3,60.113566518857226,
,4,1,4,6,0,5,66,,train_dim1_1,4,4,2,0,2,0,,,,,,,,,2,0,2,0,0,3,3,3,0,0,0,0,,,,,,,,,,,,,,,,,stimuli/alien_stimuli/66.png,,,,,,,,,,,,,,,,,,,,,,,,,,,,,,,stimuli/alien_stimuli/64.png,64,0,3,,,,,,,4,,,,,,,,181.6977647000458,181.6977647000458,181.6977647000458,181.6977647000458,181.6977647000458,up,0.4083181000314653,3,0,99,0.16,-0.24,up,0.30139799998141825,None,,,,,180.1309262998402,181.6977647000458,-0.16,0.08,0.24,0.0,-0.04,-0.16,-0.16,-0.16,0.08,179.8182210000232,179.8182210000232,179.8182210000232,179.8182210000232,179.8182210000232,179.8182210000232,179.8182210000232,179.8182210000232,179.81485978006384,0.4176145999226719,return,0.2938971002586186,None,,,,,,,,,,,,,2024-06-25_16h21.48.545,HideSeek_v1,2023.1.3,60.113566518857226,
,4,1,4,6,0,5,66,,train_dim1_1,4,4,2,0,2,0,,,,,,,,,2,0,2,0,0,3,3,3,1,0,1,0,,,,,,,,,,,,,,,,,,,,,,,,,,,,,,,,,,,,,,,,,,,,,,,,,,,,,,,,,,4,,,,,,,,182.09730619983748,182.09730619983748,182.09730619983748,182.09730619983748,182.09730619983748,up,0.29390540020540357,3,0,99,0.16,-0.15999999999999998,up,0.21395520004443824,None,,,,,,,,,,,,,,,,,,,,,,,,,,,,,,,,,,,,,,,,,2024-06-25_16h21.48.545,HideSeek_v1,2023.1.3,60.113566518857226,
,4,1,4,6,0,5,66,,train_dim1_1,4,4,2,0,2,0,,,,,,,,,2,0,2,0,0,3,3,3,2,0,2,0,,,,,,,,,,,,,,,,,,,,,,,,,,,,,,,,,,,,,,,,,,,,,,,,,,,,,,,,,,4,,,,,,,,182.3977005998604,182.3977005998604,182.3977005998604,182.3977005998604,182.3977005998604,up,0.29377410002052784,3,0,99,0.16,-0.07999999999999997,up,0.21218900009989738,None,,,,,,,,,,,,,,,,,,,,,,,,,,,,,,,,,,,,,,,,,2024-06-25_16h21.48.545,HideSeek_v1,2023.1.3,60.113566518857226,
,4,1,4,6,0,5,66,,train_dim1_1,4,4,2,0,2,0,,,,,,,,,2,0,2,0,0,3,3,3,3,0,3,0,,,,,,,,,,,,,,,,,,,,,,,,,,,,,,,,,,,,,,,,,,,,,,,,,,,,,,,,,,4,,,,,,,,182.69961440004408,182.69961440004408,182.69961440004408,182.69961440004408,182.69961440004408,up,0.3275857998523861,3,0,99,0.16,2.7755575615628914e-17,up,0.24285580008290708,None,,,,,,,,,,,,,,,,,,,,,,,,,,,,,,,,,,,,,,,,,2024-06-25_16h21.48.545,HideSeek_v1,2023.1.3,60.113566518857226,
,4,1,4,6,0,5,66,,train_dim1_1,4,4,2,0,2,0,,,,,,,,,2,0,2,0,0,3,3,3,4,0,4,0,,,,,,,,,,,,,,,,,,,,,,,,,,,,,,,,,,,,,,,,,,,,,,,,,,,,,,,,,,4,,,,,,,,183.03163390001282,183.03163390001282,183.03163390001282,183.03163390001282,183.03163390001282,return,0.5600417999085039,3,0,0,0.16,2.7755575615628914e-17,return,0.4790113000199199,None,75,0,0.16,2.7755575615628914e-17,,,,,,,,,,,,,,,,,,,,,,,,,,,,,,,,,,,,,2024-06-25_16h21.48.545,HideSeek_v1,2023.1.3,60.113566518857226,
,1,3,1,6,0,3,64,,train_dim1_1,1,4,2,0,2,0,,,,,,,,,3,0,3,0,0,0,0,0,0,0,0,0,,,,,,,,,,,,,,,,,stimuli/alien_stimuli/64.png,,,,,,,,,,,,,,,,,,,,,,,,,,,,,,,stimuli/alien_stimuli/66.png,66,4,4,17,70,87.5,3,0,1,4,0,conditions/inputTrain_1.4.xlsx,99,1,1,1,0,187.14760499983095,187.14760499983095,187.14760499983095,187.14760499983095,187.14760499983095,up,0.38629779987968504,0,0,99,-0.08,-0.08,up,0.29252840019762516,None,,,,,185.5813080999069,187.14760499983095,0.16,0.08,0.4,0.0,-0.12,0.16,0.16,0.16,0.08,185.14641769998707,185.14641769998707,185.14641769998707,185.14641769998707,185.14641769998707,185.14641769998707,185.14641769998707,185.14641769998707,185.13090294008143,0.535025600111112,return,0.407015300123021,None,0,13.1,0,3,3,,,,,,,,2024-06-25_16h21.48.545,HideSeek_v1,2023.1.3,60.113566518857226,
,1,3,1,6,0,3,64,,train_dim1_1,1,4,2,0,2,0,,,,,,,,,3,0,3,0,0,0,0,0,1,0,1,0,,,,,,,,,,,,,,,,,,,,,,,,,,,,,,,,,,,,,,,,,,,,,,,,,,,,,,,,,,4,,,,,,,,187.53206819994375,187.53206819994375,187.53206819994375,187.53206819994375,187.53206819994375,up,0.3269340000115335,0,0,99,-0.08,0.0,up,0.24029650003649294,None,,,,,,,,,,,,,,,,,,,,,,,,,,,,,,,,,,,,,,,,,2024-06-25_16h21.48.545,HideSeek_v1,2023.1.3,60.113566518857226,
,1,3,1,6,0,3,64,,train_dim1_1,1,4,2,0,2,0,,,,,,,,,3,0,3,0,0,0,0,0,2,0,2,0,,,,,,,,,,,,,,,,,,,,,,,,,,,,,,,,,,,,,,,,,,,,,,,,,,,,,,,,,,4,,,,,,,,187.86610039998777,187.86610039998777,187.86610039998777,187.86610039998777,187.86610039998777,up,0.31086879991926253,0,0,99,-0.08,0.08,up,0.21943240007385612,None,,,,,,,,,,,,,,,,,,,,,,,,,,,,,,,,,,,,,,,,,2024-06-25_16h21.48.545,HideSeek_v1,2023.1.3,60.113566518857226,
,1,3,1,6,0,3,64,,train_dim1_1,1,4,2,0,2,0,,,,,,,,,3,0,3,0,0,0,0,0,3,0,3,0,,,,,,,,,,,,,,,,,,,,,,,,,,,,,,,,,,,,,,,,,,,,,,,,,,,,,,,,,,4,,,,,,,,188.1831473999191,188.1831473999191,188.1831473999191,188.1831473999191,188.1831473999191,return,0.22679799981415272,1,0,1,-0.08,0.08,return,0.14111510012298822,None,78,0,-0.08,0.08,,,,,,,,,,,,,,,,,,,,,,,,,,,,,,,,,,,,,2024-06-25_16h21.48.545,HideSeek_v1,2023.1.3,60.113566518857226,
,0,0,0,4,0,4,65,,train_dim1_1,2,4,2,0,2,0,,,,,,,,,3,0,3,0,0,1,1,1,0,0,0,0,,,,,,,,,,,,,,,,,stimuli/alien_stimuli/65.png,,,,,,,,,,,,,,,,,,,,,,,,,,,,,,,stimuli/alien_stimuli/64.png,64,1,1,,,,,,,4,,,,,,,,191.81666849995963,191.81666849995963,191.81666849995963,191.81666849995963,191.81666849995963,up,0.45822950010187924,1,0,99,-0.16,-0.32,up,0.36769050010479987,None,,,,,190.26439299993217,191.81666849995963,-0.08,0.08,0.24,0.0,-0.04,-0.08,-0.08,-0.08,0.08,189.98178859986365,189.98178859986365,189.98178859986365,189.98178859986365,189.98178859986365,189.98178859986365,189.98178859986365,189.98178859986365,189.96487467996775,0.40095430007204413,return,0.2631101000588387,None,,,,,,,,,,,,,2024-06-25_16h21.48.545,HideSeek_v1,2023.1.3,60.113566518857226,
,0,0,0,4,0,4,65,,train_dim1_1,2,4,2,0,2,0,,,,,,,,,3,0,3,0,0,1,1,1,1,0,1,0,,,,,,,,,,,,,,,,,,,,,,,,,,,,,,,,,,,,,,,,,,,,,,,,,,,,,,,,,,4,,,,,,,,192.28158099995926,192.28158099995926,192.28158099995926,192.28158099995926,192.28158099995926,up,0.32721270015463233,1,0,99,-0.16,-0.24,up,0.2372743000742048,None,,,,,,,,,,,,,,,,,,,,,,,,,,,,,,,,,,,,,,,,,2024-06-25_16h21.48.545,HideSeek_v1,2023.1.3,60.113566518857226,
,0,0,0,4,0,4,65,,train_dim1_1,2,4,2,0,2,0,,,,,,,,,3,0,3,0,0,1,1,1,2,0,2,0,,,,,,,,,,,,,,,,,,,,,,,,,,,,,,,,,,,,,,,,,,,,,,,,,,,,,,,,,,4,,,,,,,,192.6150860998314,192.6150860998314,192.6150860998314,192.6150860998314,192.6150860998314,up,0.30989859998226166,1,0,99,-0.16,-0.15999999999999998,up,0.23113789991475642,None,,,,,,,,,,,,,,,,,,,,,,,,,,,,,,,,,,,,,,,,,2024-06-25_16h21.48.545,HideSeek_v1,2023.1.3,60.113566518857226,
,0,0,0,4,0,4,65,,train_dim1_1,2,4,2,0,2,0,,,,,,,,,3,0,3,0,0,1,1,1,3,0,3,0,,,,,,,,,,,,,,,,,,,,,,,,,,,,,,,,,,,,,,,,,,,,,,,,,,,,,,,,,,4,,,,,,,,192.93215460004285,192.93215460004285,192.93215460004285,192.93215460004285,192.93215460004285,up,0.31117769982665777,1,0,99,-0.16,-0.07999999999999997,up,0.21825479995459318,None,,,,,,,,,,,,,,,,,,,,,,,,,,,,,,,,,,,,,,,,,2024-06-25_16h21.48.545,HideSeek_v1,2023.1.3,60.113566518857226,
,0,0,0,4,0,4,65,,train_dim1_1,2,4,2,0,2,0,,,,,,,,,3,0,3,0,0,1,1,1,4,0,4,0,,,,,,,,,,,,,,,,,,,,,,,,,,,,,,,,,,,,,,,,,,,,,,,,,,,,,,,,,,4,,,,,,,,193.24715189985,193.24715189985,193.24715189985,193.24715189985,193.24715189985,return,0.2936691001523286,2,0,1,-0.16,-0.07999999999999997,return,0.20580660016275942,None,82,0,-0.16,-0.07999999999999997,,,,,,,,,,,,,,,,,,,,,,,,,,,,,,,,,,,,,2024-06-25_16h21.48.545,HideSeek_v1,2023.1.3,60.113566518857226,
,4,2,4,3,0,1,62,,train_dim1_1,3,4,2,0,2,0,,,,,,,,,3,0,3,0,0,2,2,2,0,0,0,0,,,,,,,,,,,,,,,,,stimuli/alien_stimuli/62.png,,,,,,,,,,,,,,,,,,,,,,,,,,,,,,,stimuli/alien_stimuli/65.png,65,0,2,,,,,,,4,,,,,,,,196.96646320004947,196.96646320004947,196.96646320004947,196.96646320004947,196.96646320004947,up,0.29195649991743267,2,0,99,0.16,-0.15999999999999998,up,0.20382650010287762,None,,,,,195.4137738000136,196.96646320004947,-0.16,-0.08,0.32,0.0,-0.24000000000000002,-0.16,-0.16,-0.16,-0.08,195.1477642999962,195.1477642999962,195.1477642999962,195.1477642999962,195.1477642999962,195.1477642999962,195.1477642999962,195.1477642999962,195.1145016201306,0.4180776998400688,return,0.24864910007454455,None,,,,,,,,,,,,,2024-06-25_16h21.48.545,HideSeek_v1,2023.1.3,60.113566518857226,
,4,2,4,3,0,1,62,,train_dim1_1,3,4,2,0,2,0,,,,,,,,,3,0,3,0,0,2,2,2,1,0,1,0,,,,,,,,,,,,,,,,,,,,,,,,,,,,,,,,,,,,,,,,,,,,,,,,,,,,,,,,,,4,,,,,,,,197.2660039998591,197.2660039998591,197.2660039998591,197.2660039998591,197.2660039998591,return,0.4267046998720616,3,0,1,0.16,-0.15999999999999998,return,0.3354136000853032,None,83,0,0.16,-0.15999999999999998,,,,,,,,,,,,,,,,,,,,,,,,,,,,,,,,,,,,,2024-06-25_16h21.48.545,HideSeek_v1,2023.1.3,60.113566518857226,
,3,0,3,5,0,5,66,,train_dim1_1,4,4,2,0,2,0,,,,,,,,,3,0,3,0,0,3,3,3,0,0,0,0,,,,,,,,,,,,,,,,,stimuli/alien_stimuli/66.png,,,,,,,,,,,,,,,,,,,,,,,,,,,,,,,stimuli/alien_stimuli/62.png,62,4,3,,,,,,,4,,,,,,,,201.13067679991946,201.13067679991946,201.13067679991946,201.13067679991946,201.13067679991946,up,0.10624759993515909,3,0,99,0.08,-0.32,up,0.002128200139850378,None,,,,,199.56435599992983,201.13067679991946,0.16,-0.16,0.08,0.0,-0.2,0.16,0.16,0.16,-0.16,199.24802179983817,199.24802179983817,199.24802179983817,199.24802179983817,199.24802179983817,199.24802179983817,199.24802179983817,199.24802179983817,199.23102553994394,0.4187919001560658,return,0.28839320014230907,None,,,,,,,,,,,,,2024-06-25_16h21.48.545,HideSeek_v1,2023.1.3,60.113566518857226,
,3,0,3,5,0,5,66,,train_dim1_1,4,4,2,0,2,0,,,,,,,,,3,0,3,0,0,3,3,3,1,0,1,0,,,,,,,,,,,,,,,,,,,,,,,,,,,,,,,,,,,,,,,,,,,,,,,,,,,,,,,,,,4,,,,,,,,201.2299019000493,201.2299019000493,201.2299019000493,201.2299019000493,201.2299019000493,up,0.3773988999892026,3,0,99,0.08,-0.24,up,0.2989488001912832,None,,,,,,,,,,,,,,,,,,,,,,,,,,,,,,,,,,,,,,,,,2024-06-25_16h21.48.545,HideSeek_v1,2023.1.3,60.113566518857226,
,3,0,3,5,0,5,66,,train_dim1_1,4,4,2,0,2,0,,,,,,,,,3,0,3,0,0,3,3,3,2,0,2,0,,,,,,,,,,,,,,,,,,,,,,,,,,,,,,,,,,,,,,,,,,,,,,,,,,,,,,,,,,4,,,,,,,,201.61549280001782,201.61549280001782,201.61549280001782,201.61549280001782,201.61549280001782,up,0.3605891999322921,3,0,99,0.08,-0.15999999999999998,up,0.2789896000176668,None,,,,,,,,,,,,,,,,,,,,,,,,,,,,,,,,,,,,,,,,,2024-06-25_16h21.48.545,HideSeek_v1,2023.1.3,60.113566518857226,
,3,0,3,5,0,5,66,,train_dim1_1,4,4,2,0,2,0,,,,,,,,,3,0,3,0,0,3,3,3,3,0,3,0,,,,,,,,,,,,,,,,,,,,,,,,,,,,,,,,,,,,,,,,,,,,,,,,,,,,,,,,,,4,,,,,,,,201.981355200056,201.981355200056,201.981355200056,201.981355200056,201.981355200056,up,0.32720150006935,3,0,99,0.08,-0.07999999999999997,up,0.2362726000137627,None,,,,,,,,,,,,,,,,,,,,,,,,,,,,,,,,,,,,,,,,,2024-06-25_16h21.48.545,HideSeek_v1,2023.1.3,60.113566518857226,
,3,0,3,5,0,5,66,,train_dim1_1,4,4,2,0,2,0,,,,,,,,,3,0,3,0,0,3,3,3,4,0,4,0,,,,,,,,,,,,,,,,,,,,,,,,,,,,,,,,,,,,,,,,,,,,,,,,,,,,,,,,,,4,,,,,,,,202.31619409983978,202.31619409983978,202.31619409983978,202.31619409983978,202.31619409983978,return,0.32723080017603934,3,0,0,0.08,-0.07999999999999997,return,0.2388767001684755,None,87,0,0.08,-0.07999999999999997,,,,,,,,,,,,,,,,,,,,,,,,,,,,,,,,,,,,,2024-06-25_16h21.48.545,HideSeek_v1,2023.1.3,60.113566518857226,
,2,1,2,4,0,3,64,,train_dim1_1,1,4,2,0,2,0,,,,,,,,,4,0,4,0,0,0,0,0,0,0,0,0,,,,,,,,,,,,,,,,,stimuli/alien_stimuli/64.png,,,,,,,,,,,,,,,,,,,,,,,,,,,,,,,stimuli/alien_stimuli/66.png,66,3,4,17,70,100.0,4,0,1,4,0,conditions/inputTrain_1.5.xlsx,99,1,1,1,0,206.1141590999905,206.1141590999905,206.1141590999905,206.1141590999905,206.1141590999905,up,0.32011250010691583,0,0,99,0,-0.24,up,0.21947990031912923,None,,,,,204.5472958998289,206.1141590999905,0.08,0,0.4,0.0,-0.2,0.08,0.08,0.08,0,204.21436910005286,204.21436910005286,204.21436910005286,204.21436910005286,204.21436910005286,204.21436910005286,204.21436910005286,204.21436910005286,204.197564679943,0.45094859995879233,return,0.30519210011698306,None,0,15.183333333333332,0,4,3,,,,,,,,2024-06-25_16h21.48.545,HideSeek_v1,2023.1.3,60.113566518857226,
,2,1,2,4,0,3,64,,train_dim1_1,1,4,2,0,2,0,,,,,,,,,4,0,4,0,0,0,0,0,1,0,1,0,,,,,,,,,,,,,,,,,,,,,,,,,,,,,,,,,,,,,,,,,,,,,,,,,,,,,,,,,,4,,,,,,,,206.43235889985226,206.43235889985226,206.43235889985226,206.43235889985226,206.43235889985226,up,0.32669729995541275,0,0,99,0,-0.15999999999999998,up,0.23607450001873076,None,,,,,,,,,,,,,,,,,,,,,,,,,,,,,,,,,,,,,,,,,2024-06-25_16h21.48.545,HideSeek_v1,2023.1.3,60.113566518857226,
,2,1,2,4,0,3,64,,train_dim1_1,1,4,2,0,2,0,,,,,,,,,4,0,4,0,0,0,0,0,2,0,2,0,,,,,,,,,,,,,,,,,,,,,,,,,,,,,,,,,,,,,,,,,,,,,,,,,,,,,,,,,,4,,,,,,,,206.763653999893,206.763653999893,206.763653999893,206.763653999893,206.763653999893,up,0.2604658999480307,0,0,99,0,-0.07999999999999997,up,0.17637130012735724,None,,,,,,,,,,,,,,,,,,,,,,,,,,,,,,,,,,,,,,,,,2024-06-25_16h21.48.545,HideSeek_v1,2023.1.3,60.113566518857226,
,2,1,2,4,0,3,64,,train_dim1_1,1,4,2,0,2,0,,,,,,,,,4,0,4,0,0,0,0,0,3,0,3,0,,,,,,,,,,,,,,,,,,,,,,,,,,,,,,,,,,,,,,,,,,,,,,,,,,,,,,,,,,4,,,,,,,,207.03104489995167,207.03104489995167,207.03104489995167,207.03104489995167,207.03104489995167,return,0.2934254000429064,1,0,1,0,-0.07999999999999997,return,0.20063760015182197,None,90,0,0,-0.07999999999999997,,,,,,,,,,,,,,,,,,,,,,,,,,,,,,,,,,,,,2024-06-25_16h21.48.545,HideSeek_v1,2023.1.3,60.113566518857226,
,4,3,4,7,0,4,65,,train_dim1_1,2,4,2,0,2,0,,,,,,,,,4,0,4,0,0,1,1,1,0,0,0,0,,,,,,,,,,,,,,,,,stimuli/alien_stimuli/65.png,,,,,,,,,,,,,,,,,,,,,,,,,,,,,,,stimuli/alien_stimuli/64.png,64,2,1,,,,,,,4,,,,,,,,210.62007889989763,210.62007889989763,210.62007889989763,210.62007889989763,210.62007889989763,up,0.33815510012209415,1,0,99,0.16,-0.08,up,0.2597328000701964,None,,,,,209.06398499989882,210.62007889989763,0,-0.08,0.24,0.0,-0.2,0,0.0,0,-0.08,208.88228549994528,208.88228549994528,208.88228549994528,208.88228549994528,208.88228549994528,208.88228549994528,208.88228549994528,208.88228549994528,208.86449913997203,0.28472370002418756,return,0.16503000003285706,None,,,,,,,,,,,,,2024-06-25_16h21.48.545,HideSeek_v1,2023.1.3,60.113566518857226,
,4,3,4,7,0,4,65,,train_dim1_1,2,4,2,0,2,0,,,,,,,,,4,0,4,0,0,1,1,1,1,0,1,0,,,,,,,,,,,,,,,,,,,,,,,,,,,,,,,,,,,,,,,,,,,,,,,,,,,,,,,,,,4,,,,,,,,210.96471469989046,210.96471469989046,210.96471469989046,210.96471469989046,210.96471469989046,up,0.3102212999947369,1,0,99,0.16,0.0,up,0.22977780015207827,None,,,,,,,,,,,,,,,,,,,,,,,,,,,,,,,,,,,,,,,,,2024-06-25_16h21.48.545,HideSeek_v1,2023.1.3,60.113566518857226,
,4,3,4,7,0,4,65,,train_dim1_1,2,4,2,0,2,0,,,,,,,,,4,0,4,0,0,1,1,1,2,0,2,0,,,,,,,,,,,,,,,,,,,,,,,,,,,,,,,,,,,,,,,,,,,,,,,,,,,,,,,,,,4,,,,,,,,211.28034089994617,211.28034089994617,211.28034089994617,211.28034089994617,211.28034089994617,up,0.3104654001072049,1,0,99,0.16,0.08,up,0.2337871000636369,None,,,,,,,,,,,,,,,,,,,,,,,,,,,,,,,,,,,,,,,,,2024-06-25_16h21.48.545,HideSeek_v1,2023.1.3,60.113566518857226,
,4,3,4,7,0,4,65,,train_dim1_1,2,4,2,0,2,0,,,,,,,,,4,0,4,0,0,1,1,1,3,0,3,0,,,,,,,,,,,,,,,,,,,,,,,,,,,,,,,,,,,,,,,,,,,,,,,,,,,,,,,,,,4,,,,,,,,211.59957409999333,211.59957409999333,211.59957409999333,211.59957409999333,211.59957409999333,up,0.3606775999069214,1,0,99,0.16,0.16,up,0.2734086001291871,None,,,,,,,,,,,,,,,,,,,,,,,,,,,,,,,,,,,,,,,,,2024-06-25_16h21.48.545,HideSeek_v1,2023.1.3,60.113566518857226,
,4,3,4,7,0,4,65,,train_dim1_1,2,4,2,0,2,0,,,,,,,,,4,0,4,0,0,1,1,1,4,0,4,0,,,,,,,,,,,,,,,,,,,,,,,,,,,,,,,,,,,,,,,,,,,,,,,,,,,,,,,,,,4,,,,,,,,211.96538349986076,211.96538349986076,211.96538349986076,211.96538349986076,211.96538349986076,return,0.29385050013661385,2,0,1,0.16,0.16,return,0.20182080008089542,None,94,0,0.16,0.16,,,,,,,,,,,,,,,,,,,,,,,,,,,,,,,,,,,,,2024-06-25_16h21.48.545,HideSeek_v1,2023.1.3,60.113566518857226,
,1,0,1,5,0,5,66,,train_dim1_1,3,4,2,0,2,0,,,,,,,,,4,0,4,0,0,2,2,2,0,0,0,0,,,,,,,,,,,,,,,,,stimuli/alien_stimuli/66.png,,,,,,,,,,,,,,,,,,,,,,,,,,,,,,,stimuli/alien_stimuli/65.png,65,4,2,,,,,,,4,,,,,,,,215.69703779998235,215.69703779998235,215.69703779998235,215.69703779998235,215.69703779998235,up,0.4422214000951499,2,0,99,-0.08,-0.32,up,0.34590700012631714,None,,,,,214.1307228000369,215.69703779998235,0.16,0.16,0.32,0.0,0.0,0.16,0.16,0.16,0.16,213.83049759990536,213.83049759990536,213.83049759990536,213.83049759990536,213.83049759990536,213.83049759990536,213.83049759990536,213.83049759990536,213.8142202799674,0.41790089989081025,return,0.26977730030193925,None,,,,,,,,,,,,,2024-06-25_16h21.48.545,HideSeek_v1,2023.1.3,60.113566518857226,
,1,0,1,5,0,5,66,,train_dim1_1,3,4,2,0,2,0,,,,,,,,,4,0,4,0,0,2,2,2,1,0,1,0,,,,,,,,,,,,,,,,,,,,,,,,,,,,,,,,,,,,,,,,,,,,,,,,,,,,,,,,,,4,,,,,,,,216.13058699993417,216.13058699993417,216.13058699993417,216.13058699993417,216.13058699993417,up,0.37669830000959337,2,0,99,-0.08,-0.24,up,0.2865057000890374,None,,,,,,,,,,,,,,,,,,,,,,,,,,,,,,,,,,,,,,,,,2024-06-25_16h21.48.545,HideSeek_v1,2023.1.3,60.113566518857226,
,1,0,1,5,0,5,66,,train_dim1_1,3,4,2,0,2,0,,,,,,,,,4,0,4,0,0,2,2,2,2,0,2,0,,,,,,,,,,,,,,,,,,,,,,,,,,,,,,,,,,,,,,,,,,,,,,,,,,,,,,,,,,4,,,,,,,,216.5136197998654,216.5136197998654,216.5136197998654,216.5136197998654,216.5136197998654,up,0.47754259989596903,2,0,99,-0.08,-0.15999999999999998,up,0.3970782000105828,None,,,,,,,,,,,,,,,,,,,,,,,,,,,,,,,,,,,,,,,,,2024-06-25_16h21.48.545,HideSeek_v1,2023.1.3,60.113566518857226,
,1,0,1,5,0,5,66,,train_dim1_1,3,4,2,0,2,0,,,,,,,,,4,0,4,0,0,2,2,2,3,0,3,0,,,,,,,,,,,,,,,,,,,,,,,,,,,,,,,,,,,,,,,,,,,,,,,,,,,,,,,,,,4,,,,,,,,216.99869659985416,216.99869659985416,216.99869659985416,216.99869659985416,216.99869659985416,up,0.393197099911049,2,0,99,-0.08,-0.07999999999999997,up,0.3008354001212865,None,,,,,,,,,,,,,,,,,,,,,,,,,,,,,,,,,,,,,,,,,2024-06-25_16h21.48.545,HideSeek_v1,2023.1.3,60.113566518857226,
,1,0,1,5,0,5,66,,train_dim1_1,3,4,2,0,2,0,,,,,,,,,4,0,4,0,0,2,2,2,4,0,4,0,,,,,,,,,,,,,,,,,,,,,,,,,,,,,,,,,,,,,,,,,,,,,,,,,,,,,,,,,,4,,,,,,,,217.41399089992046,217.41399089992046,217.41399089992046,217.41399089992046,217.41399089992046,up,0.527534699998796,2,0,99,-0.08,2.7755575615628914e-17,up,0.4329496002756059,None,,,,,,,,,,,,,,,,,,,,,,,,,,,,,,,,,,,,,,,,,2024-06-25_16h21.48.545,HideSeek_v1,2023.1.3,60.113566518857226,
,1,0,1,5,0,5,66,,train_dim1_1,3,4,2,0,2,0,,,,,,,,,4,0,4,0,0,2,2,2,5,0,5,0,,,,,,,,,,,,,,,,,,,,,,,,,,,,,,,,,,,,,,,,,,,,,,,,,,,,,,,,,,4,,,,,,,,217.93311939993873,217.93311939993873,217.93311939993873,217.93311939993873,217.93311939993873,return,0.36091169994324446,3,0,1,-0.08,2.7755575615628914e-17,return,0.27296190010383725,None,99,0,-0.08,2.7755575615628914e-17,,,,,,,,,,,,,,,,,,,,,,,,,,,,,,,,,,,,,2024-06-25_16h21.48.545,HideSeek_v1,2023.1.3,60.113566518857226,
,3,1,3,2,0,1,62,,train_dim1_1,4,4,2,0,2,0,,,,,,,,,4,0,4,0,0,3,3,3,0,0,0,0,,,,,,,,,,,,,,,,,stimuli/alien_stimuli/62.png,,,,,,,,,,,,,,,,,,,,,,,,,,,,,,,stimuli/alien_stimuli/66.png,66,1,3,,,,,,,4,,,,,,,,221.780618699966,221.780618699966,221.780618699966,221.780618699966,221.780618699966,up,0.32331139990128577,3,0,99,0.08,-0.24,up,0.22027610009536147,None,,,,,220.21378949983045,221.780618699966,-0.08,0,0.4,0.0,-0.2,-0.08,-0.08,-0.08,0,219.8468199998606,219.8468199998606,219.8468199998606,219.8468199998606,219.8468199998606,219.8468199998606,219.8468199998606,219.8468199998606,219.83110074014402,0.4679246998857707,return,0.34916600002907217,None,,,,,,,,,,,,,2024-06-25_16h21.48.545,HideSeek_v1,2023.1.3,60.113566518857226,
,3,1,3,2,0,1,62,,train_dim1_1,4,4,2,0,2,0,,,,,,,,,4,0,4,0,0,3,3,3,1,0,1,0,,,,,,,,,,,,,,,,,,,,,,,,,,,,,,,,,,,,,,,,,,,,,,,,,,,,,,,,,,4,,,,,,,,222.09825020004064,222.09825020004064,222.09825020004064,222.09825020004064,222.09825020004064,return,0.3104400001466274,4,0,1,0.08,-0.24,return,0.22256020014174283,None,100,0,0.08,-0.24,,,,,,,,,,,,,,,,,,,,,,,,,,,,,,,,,,,,,2024-06-25_16h21.48.545,HideSeek_v1,2023.1.3,60.113566518857226,
,0,2,0,7,0,5,66,,train_dim1_1,1,4,2,0,2,0,,,,,,,,,5,0,5,0,0,0,0,0,0,0,0,0,,,,,,,,,,,,,,,,,stimuli/alien_stimuli/66.png,,,,,,,,,,,,,,,,,,,,,,,,,,,,,,,stimuli/alien_stimuli/62.png,62,3,4,17,70,116.66666666666667,5,0,1,4,0,conditions/inputTrain_1.6.xlsx,99,1,1,1,0,225.76413460006006,225.76413460006006,225.76413460006006,225.76413460006006,225.76413460006006,up,0.76885150000453,0,0,99,-0.16,-0.15999999999999998,up,0.6792290001176298,None,,,,,224.19723379984498,225.76413460006006,0.08,-0.24,0.08,0.0,-0.28,0.08,0.08,0.08,-0.24,223.96342139993794,223.96342139993794,223.96342139993794,223.96342139993794,223.96342139993794,223.96342139993794,223.96342139993794,223.96342139993794,223.9477094399277,0.3342883000150323,return,0.2069768002256751,None,0,17.466666666666665,0,5,4,,,,,,,,2024-06-25_16h21.48.545,HideSeek_v1,2023.1.3,60.113566518857226,
,0,2,0,7,0,5,66,,train_dim1_1,1,4,2,0,2,0,,,,,,,,,5,0,5,0,0,0,0,0,1,0,1,0,,,,,,,,,,,,,,,,,,,,,,,,,,,,,,,,,,,,,,,,,,,,,,,,,,,,,,,,,,4,,,,,,,,226.53196289995685,226.53196289995685,226.53196289995685,226.53196289995685,226.53196289995685,up,0.2766929999925196,0,0,99,-0.16,-0.07999999999999997,up,0.19250359991565347,None,,,,,,,,,,,,,,,,,,,,,,,,,,,,,,,,,,,,,,,,,2024-06-25_16h21.48.545,HideSeek_v1,2023.1.3,60.113566518857226,
,0,2,0,7,0,5,66,,train_dim1_1,1,4,2,0,2,0,,,,,,,,,5,0,5,0,0,0,0,0,2,0,2,0,,,,,,,,,,,,,,,,,,,,,,,,,,,,,,,,,,,,,,,,,,,,,,,,,,,,,,,,,,4,,,,,,,,226.8148848998826,226.8148848998826,226.8148848998826,226.8148848998826,226.8148848998826,up,0.2605365999042988,0,0,99,-0.16,2.7755575615628914e-17,up,0.17490620026364923,None,,,,,,,,,,,,,,,,,,,,,,,,,,,,,,,,,,,,,,,,,2024-06-25_16h21.48.545,HideSeek_v1,2023.1.3,60.113566518857226,
,0,2,0,7,0,5,66,,train_dim1_1,1,4,2,0,2,0,,,,,,,,,5,0,5,0,0,0,0,0,3,0,3,0,,,,,,,,,,,,,,,,,,,,,,,,,,,,,,,,,,,,,,,,,,,,,,,,,,,,,,,,,,4,,,,,,,,227.08077190001495,227.08077190001495,227.08077190001495,227.08077190001495,227.08077190001495,up,0.24408019986003637,0,0,99,-0.16,0.08000000000000003,up,0.16483570029959083,None,,,,,,,,,,,,,,,,,,,,,,,,,,,,,,,,,,,,,,,,,2024-06-25_16h21.48.545,HideSeek_v1,2023.1.3,60.113566518857226,
,0,2,0,7,0,5,66,,train_dim1_1,1,4,2,0,2,0,,,,,,,,,5,0,5,0,0,0,0,0,4,0,4,0,,,,,,,,,,,,,,,,,,,,,,,,,,,,,,,,,,,,,,,,,,,,,,,,,,,,,,,,,,4,,,,,,,,227.3333876999095,227.3333876999095,227.3333876999095,227.3333876999095,227.3333876999095,up,0.22688980004750192,0,0,99,-0.16,0.16000000000000003,up,0.13354090019129217,None,,,,,,,,,,,,,,,,,,,,,,,,,,,,,,,,,,,,,,,,,2024-06-25_16h21.48.545,HideSeek_v1,2023.1.3,60.113566518857226,
,0,2,0,7,0,5,66,,train_dim1_1,1,4,2,0,2,0,,,,,,,,,5,0,5,0,0,0,0,0,5,0,5,0,,,,,,,,,,,,,,,,,,,,,,,,,,,,,,,,,,,,,,,,,,,,,,,,,,,,,,,,,,4,,,,,,,,227.56657380005345,227.56657380005345,227.56657380005345,227.56657380005345,227.56657380005345,return,0.22515810001641512,1,0,1,-0.16,0.16000000000000003,return,0.13250349997542799,None,105,0,-0.16,0.16000000000000003,,,,,,,,,,,,,,,,,,,,,,,,,,,,,,,,,,,,,2024-06-25_16h21.48.545,HideSeek_v1,2023.1.3,60.113566518857226,
,1,2,1,6,0,4,65,,train_dim1_1,2,4,2,0,2,0,,,,,,,,,5,0,5,0,0,1,1,1,0,0,0,0,,,,,,,,,,,,,,,,,stimuli/alien_stimuli/65.png,,,,,,,,,,,,,,,,,,,,,,,,,,,,,,,stimuli/alien_stimuli/66.png,66,0,1,,,,,,,4,,,,,,,,231.18012099992484,231.18012099992484,231.18012099992484,231.18012099992484,231.18012099992484,up,0.3738919999450445,1,0,99,-0.08,-0.15999999999999998,up,0.2791115001309663,None,,,,,229.61382109997794,231.18012099992484,-0.16,0.16,0.4,0.0,-0.039999999999999994,-0.16,-0.16,-0.16,0.16,229.34887170000002,229.34887170000002,229.34887170000002,229.34887170000002,229.34887170000002,229.34887170000002,229.34887170000002,229.34887170000002,229.33062374000437,0.3683756999671459,return,0.24870810029096901,None,,,,,,,,,,,,,2024-06-25_16h21.48.545,HideSeek_v1,2023.1.3,60.113566518857226,
,1,2,1,6,0,4,65,,train_dim1_1,2,4,2,0,2,0,,,,,,,,,5,0,5,0,0,1,1,1,1,0,1,0,,,,,,,,,,,,,,,,,,,,,,,,,,,,,,,,,,,,,,,,,,,,,,,,,,,,,,,,,,4,,,,,,,,231.5492272998672,231.5492272998672,231.5492272998672,231.5492272998672,231.5492272998672,up,0.2769849000032991,1,0,99,-0.08,-0.07999999999999997,up,0.18771810014732182,None,,,,,,,,,,,,,,,,,,,,,,,,,,,,,,,,,,,,,,,,,2024-06-25_16h21.48.545,HideSeek_v1,2023.1.3,60.113566518857226,
,1,2,1,6,0,4,65,,train_dim1_1,2,4,2,0,2,0,,,,,,,,,5,0,5,0,0,1,1,1,2,0,2,0,,,,,,,,,,,,,,,,,,,,,,,,,,,,,,,,,,,,,,,,,,,,,,,,,,,,,,,,,,4,,,,,,,,231.83381240000017,231.83381240000017,231.83381240000017,231.83381240000017,231.83381240000017,up,0.24356289999559522,1,0,99,-0.08,2.7755575615628914e-17,up,0.1577737000770867,None,,,,,,,,,,,,,,,,,,,,,,,,,,,,,,,,,,,,,,,,,2024-06-25_16h21.48.545,HideSeek_v1,2023.1.3,60.113566518857226,
,1,2,1,6,0,4,65,,train_dim1_1,2,4,2,0,2,0,,,,,,,,,5,0,5,0,0,1,1,1,3,0,3,0,,,,,,,,,,,,,,,,,,,,,,,,,,,,,,,,,,,,,,,,,,,,,,,,,,,,,,,,,,4,,,,,,,,232.0809613999445,232.0809613999445,232.0809613999445,232.0809613999445,232.0809613999445,up,0.22750949999317527,1,0,99,-0.08,0.08000000000000003,up,0.14473129995167255,None,,,,,,,,,,,,,,,,,,,,,,,,,,,,,,,,,,,,,,,,,2024-06-25_16h21.48.545,HideSeek_v1,2023.1.3,60.113566518857226,
,1,2,1,6,0,4,65,,train_dim1_1,2,4,2,0,2,0,,,,,,,,,5,0,5,0,0,1,1,1,4,0,4,0,,,,,,,,,,,,,,,,,,,,,,,,,,,,,,,,,,,,,,,,,,,,,,,,,,,,,,,,,,4,,,,,,,,232.31440969998948,232.31440969998948,232.31440969998948,232.31440969998948,232.31440969998948,return,0.21054039988666773,2,0,1,-0.08,0.08000000000000003,return,0.11946640023961663,None,109,0,-0.08,0.08000000000000003,,,,,,,,,,,,,,,,,,,,,,,,,,,,,,,,,,,,,2024-06-25_16h21.48.545,HideSeek_v1,2023.1.3,60.113566518857226,
,1,4,1,5,0,1,62,,train_dim1_1,3,4,2,0,2,0,,,,,,,,,5,0,5,0,0,2,2,2,0,0,0,0,,,,,,,,,,,,,,,,,stimuli/alien_stimuli/62.png,,,,,,,,,,,,,,,,,,,,,,,,,,,,,,,stimuli/alien_stimuli/65.png,65,1,2,,,,,,,4,,,,,,,,235.9352771998383,235.9352771998383,235.9352771998383,235.9352771998383,235.9352771998383,up,0.374729200033471,2,0,99,-0.08,0.0,up,0.281659500207752,None,,,,,234.38027579989284,235.9352771998383,-0.08,0.08,0.32,0.0,-0.07999999999999999,-0.08,-0.08,-0.08,0.08,234.09745369991288,234.09745369991288,234.09745369991288,234.09745369991288,234.09745369991288,234.09745369991288,234.09745369991288,234.09745369991288,234.0805384801235,0.404789200052619,return,0.25920909992419183,None,,,,,,,,,,,,,2024-06-25_16h21.48.545,HideSeek_v1,2023.1.3,60.113566518857226,
,1,4,1,5,0,1,62,,train_dim1_1,3,4,2,0,2,0,,,,,,,,,5,0,5,0,0,2,2,2,1,0,1,0,,,,,,,,,,,,,,,,,,,,,,,,,,,,,,,,,,,,,,,,,,,,,,,,,,,,,,,,,,4,,,,,,,,236.31404910003766,236.31404910003766,236.31404910003766,236.31404910003766,236.31404910003766,return,0.34392810007557273,3,0,1,-0.08,0.0,return,0.25896700005978346,None,110,0,-0.08,0.0,,,,,,,,,,,,,,,,,,,,,,,,,,,,,,,,,,,,,2024-06-25_16h21.48.545,HideSeek_v1,2023.1.3,60.113566518857226,
,3,2,3,5,0,3,64,,train_dim1_1,4,4,2,0,2,0,,,,,,,,,5,0,5,0,0,3,3,3,0,0,0,0,,,,,,,,,,,,,,,,,stimuli/alien_stimuli/64.png,,,,,,,,,,,,,,,,,,,,,,,,,,,,,,,stimuli/alien_stimuli/62.png,62,1,3,,,,,,,4,,,,,,,,240.09711119998246,240.09711119998246,240.09711119998246,240.09711119998246,240.09711119998246,up,0.35703479987569153,3,0,99,0.08,-0.15999999999999998,up,0.2603080002591014,None,,,,,238.53026199992746,240.09711119998246,-0.08,0,0.08,0.0,-0.04,-0.08,-0.08,-0.08,0,238.21532709989697,238.21532709989697,238.21532709989697,238.21532709989697,238.21532709989697,238.21532709989697,238.21532709989697,238.21532709989697,238.19743224014528,0.41822630004025996,return,0.29819610016420484,None,,,,,,,,,,,,,2024-06-25_16h21.48.545,HideSeek_v1,2023.1.3,60.113566518857226,
,3,2,3,5,0,3,64,,train_dim1_1,4,4,2,0,2,0,,,,,,,,,5,0,5,0,0,3,3,3,1,0,1,0,,,,,,,,,,,,,,,,,,,,,,,,,,,,,,,,,,,,,,,,,,,,,,,,,,,,,,,,,,4,,,,,,,,240.4476758998353,240.4476758998353,240.4476758998353,240.4476758998353,240.4476758998353,up,0.27685400005429983,3,0,99,0.08,-0.07999999999999997,up,0.19417520007118583,None,,,,,,,,,,,,,,,,,,,,,,,,,,,,,,,,,,,,,,,,,2024-06-25_16h21.48.545,HideSeek_v1,2023.1.3,60.113566518857226,
,3,2,3,5,0,3,64,,train_dim1_1,4,4,2,0,2,0,,,,,,,,,5,0,5,0,0,3,3,3,2,0,2,0,,,,,,,,,,,,,,,,,,,,,,,,,,,,,,,,,,,,,,,,,,,,,,,,,,,,,,,,,,4,,,,,,,,240.73149659996852,240.73149659996852,240.73149659996852,240.73149659996852,240.73149659996852,up,0.2937762001529336,3,0,99,0.08,2.7755575615628914e-17,up,0.202854200033471,None,,,,,,,,,,,,,,,,,,,,,,,,,,,,,,,,,,,,,,,,,2024-06-25_16h21.48.545,HideSeek_v1,2023.1.3,60.113566518857226,
,3,2,3,5,0,3,64,,train_dim1_1,4,4,2,0,2,0,,,,,,,,,5,0,5,0,0,3,3,3,3,0,3,0,,,,,,,,,,,,,,,,,,,,,,,,,,,,,,,,,,,,,,,,,,,,,,,,,,,,,,,,,,4,,,,,,,,241.03193599986844,241.03193599986844,241.03193599986844,241.03193599986844,241.03193599986844,return,0.24356119986623526,4,0,1,0.08,2.7755575615628914e-17,return,0.15510840015485883,None,113,0,0.08,2.7755575615628914e-17,,,,,,,,,,,,,,,,,,,,,,,,,,,,,,,,,,,,,2024-06-25_16h21.48.545,HideSeek_v1,2023.1.3,60.113566518857226,
,2,4,2,5,0,1,62,,train_dim1_1,1,4,2,0,2,0,,,,,,,,,6,0,6,0,0,0,0,0,0,0,0,0,,,,,,,,,,,,,,,,,stimuli/alien_stimuli/62.png,,,,,,,,,,,,,,,,,,,,,,,,,,,,,,,stimuli/alien_stimuli/64.png,64,3,4,17,70,133.33333333333334,6,0,1,4,0,conditions/inputTrain_1.7.xlsx,99,1,1,1,0,244.6137287998572,244.6137287998572,244.6137287998572,244.6137287998572,244.6137287998572,up,0.33353409986011684,0,0,99,0,0.0,up,0.246589400107041,None,,,,,243.0469424999319,244.6137287998572,0.08,0,0.24,0.0,-0.12,0.08,0.08,0.08,0,242.84811809984967,242.84811809984967,242.84811809984967,242.84811809984967,242.84811809984967,242.84811809984967,242.84811809984967,242.84811809984967,242.83114217994734,0.3171186000108719,return,0.17314249998889863,None,0,20.244444444444444,0,6,4,,,,,,,,2024-06-25_16h21.48.545,HideSeek_v1,2023.1.3,60.113566518857226,
,2,4,2,5,0,1,62,,train_dim1_1,1,4,2,0,2,0,,,,,,,,,6,0,6,0,0,0,0,0,1,0,1,0,,,,,,,,,,,,,,,,,,,,,,,,,,,,,,,,,,,,,,,,,,,,,,,,,,,,,,,,,,4,,,,,,,,244.946836899966,244.946836899966,244.946836899966,244.946836899966,244.946836899966,return,0.3101306001190096,1,0,1,0,0.0,return,0.21775910002179444,None,114,0,0,0.0,,,,,,,,,,,,,,,,,,,,,,,,,,,,,,,,,,,,,2024-06-25_16h21.48.545,HideSeek_v1,2023.1.3,60.113566518857226,
,0,1,0,5,0,4,65,,train_dim1_1,2,4,2,0,2,0,,,,,,,,,6,0,6,0,0,1,1,1,0,0,0,0,,,,,,,,,,,,,,,,,stimuli/alien_stimuli/65.png,,,,,,,,,,,,,,,,,,,,,,,,,,,,,,,stimuli/alien_stimuli/62.png,62,2,1,,,,,,,4,,,,,,,,248.64691789983772,248.64691789983772,248.64691789983772,248.64691789983772,248.64691789983772,up,0.25663190009072423,1,0,99,-0.16,-0.24,up,0.15878690010868013,None,,,,,247.08056999999098,248.64691789983772,0,0,0.08,0.0,-0.04,0,0.0,0,0,246.8159984999802,246.8159984999802,246.8159984999802,246.8159984999802,246.8159984999802,246.8159984999802,246.8159984999802,246.8159984999802,246.79748843996785,0.36789099988527596,return,0.23534010024741292,None,,,,,,,,,,,,,2024-06-25_16h21.48.545,HideSeek_v1,2023.1.3,60.113566518857226,
,0,1,0,5,0,4,65,,train_dim1_1,2,4,2,0,2,0,,,,,,,,,6,0,6,0,0,1,1,1,1,0,1,0,,,,,,,,,,,,,,,,,,,,,,,,,,,,,,,,,,,,,,,,,,,,,,,,,,,,,,,,,,4,,,,,,,,248.89827089989558,248.89827089989558,248.89827089989558,248.89827089989558,248.89827089989558,up,0.31064640008844435,1,0,99,-0.16,-0.15999999999999998,up,0.220335700083524,None,,,,,,,,,,,,,,,,,,,,,,,,,,,,,,,,,,,,,,,,,2024-06-25_16h21.48.545,HideSeek_v1,2023.1.3,60.113566518857226,
,0,1,0,5,0,4,65,,train_dim1_1,2,4,2,0,2,0,,,,,,,,,6,0,6,0,0,1,1,1,2,0,2,0,,,,,,,,,,,,,,,,,,,,,,,,,,,,,,,,,,,,,,,,,,,,,,,,,,,,,,,,,,4,,,,,,,,249.21499520004727,249.21499520004727,249.21499520004727,249.21499520004727,249.21499520004727,up,0.24391689989715815,1,0,99,-0.16,-0.07999999999999997,up,0.15975470002740622,None,,,,,,,,,,,,,,,,,,,,,,,,,,,,,,,,,,,,,,,,,2024-06-25_16h21.48.545,HideSeek_v1,2023.1.3,60.113566518857226,
,0,1,0,5,0,4,65,,train_dim1_1,2,4,2,0,2,0,,,,,,,,,6,0,6,0,0,1,1,1,3,0,3,0,,,,,,,,,,,,,,,,,,,,,,,,,,,,,,,,,,,,,,,,,,,,,,,,,,,,,,,,,,4,,,,,,,,249.4647714998573,249.4647714998573,249.4647714998573,249.4647714998573,249.4647714998573,up,0.22695979988202453,1,0,99,-0.16,2.7755575615628914e-17,up,0.13864310015924275,None,,,,,,,,,,,,,,,,,,,,,,,,,,,,,,,,,,,,,,,,,2024-06-25_16h21.48.545,HideSeek_v1,2023.1.3,60.113566518857226,
,0,1,0,5,0,4,65,,train_dim1_1,2,4,2,0,2,0,,,,,,,,,6,0,6,0,0,1,1,1,4,0,4,0,,,,,,,,,,,,,,,,,,,,,,,,,,,,,,,,,,,,,,,,,,,,,,,,,,,,,,,,,,4,,,,,,,,249.7014309000224,249.7014309000224,249.7014309000224,249.7014309000224,249.7014309000224,return,0.21067069983109832,2,0,1,-0.16,2.7755575615628914e-17,return,0.11341710016131401,None,118,0,-0.16,2.7755575615628914e-17,,,,,,,,,,,,,,,,,,,,,,,,,,,,,,,,,,,,,2024-06-25_16h21.48.545,HideSeek_v1,2023.1.3,60.113566518857226,
,2,3,2,6,0,3,64,,train_dim1_1,3,4,2,0,2,0,,,,,,,,,6,0,6,0,0,2,2,2,0,0,0,0,,,,,,,,,,,,,,,,,stimuli/alien_stimuli/64.png,,,,,,,,,,,,,,,,,,,,,,,,,,,,,,,stimuli/alien_stimuli/65.png,65,0,2,,,,,,,4,,,,,,,,253.31376069993712,253.31376069993712,253.31376069993712,253.31376069993712,253.31376069993712,up,0.3552745000924915,2,0,99,0,-0.08,up,0.25822930014692247,None,,,,,251.7467918000184,253.31376069993712,-0.16,0,0.32,0.0,-0.16,-0.16,-0.16,-0.16,0,251.48029650002718,251.48029650002718,251.48029650002718,251.48029650002718,251.48029650002718,251.48029650002718,251.48029650002718,251.48029650002718,251.46394918002187,0.3846098000649363,return,0.24921580008231103,None,,,,,,,,,,,,,2024-06-25_16h21.48.545,HideSeek_v1,2023.1.3,60.113566518857226,
,2,3,2,6,0,3,64,,train_dim1_1,3,4,2,0,2,0,,,,,,,,,6,0,6,0,0,2,2,2,1,0,1,0,,,,,,,,,,,,,,,,,,,,,,,,,,,,,,,,,,,,,,,,,,,,,,,,,,,,,,,,,,4,,,,,,,,253.66458830004558,253.66458830004558,253.66458830004558,253.66458830004558,253.66458830004558,up,0.24351579998619854,2,0,99,0,0.0,up,0.1585405000951141,None,,,,,,,,,,,,,,,,,,,,,,,,,,,,,,,,,,,,,,,,,2024-06-25_16h21.48.545,HideSeek_v1,2023.1.3,60.113566518857226,
,2,3,2,6,0,3,64,,train_dim1_1,3,4,2,0,2,0,,,,,,,,,6,0,6,0,0,2,2,2,2,0,2,0,,,,,,,,,,,,,,,,,,,,,,,,,,,,,,,,,,,,,,,,,,,,,,,,,,,,,,,,,,4,,,,,,,,253.91476950002834,253.91476950002834,253.91476950002834,253.91476950002834,253.91476950002834,up,0.22721850010566413,2,0,99,0,0.08,up,0.14114570012316108,None,,,,,,,,,,,,,,,,,,,,,,,,,,,,,,,,,,,,,,,,,2024-06-25_16h21.48.545,HideSeek_v1,2023.1.3,60.113566518857226,
,2,3,2,6,0,3,64,,train_dim1_1,3,4,2,0,2,0,,,,,,,,,6,0,6,0,0,2,2,2,3,0,3,0,,,,,,,,,,,,,,,,,,,,,,,,,,,,,,,,,,,,,,,,,,,,,,,,,,,,,,,,,,4,,,,,,,,254.14876229991205,254.14876229991205,254.14876229991205,254.14876229991205,254.14876229991205,return,0.2437748999800533,3,0,1,0,0.08,return,0.15739750023931265,None,121,0,0,0.08,,,,,,,,,,,,,,,,,,,,,,,,,,,,,,,,,,,,,2024-06-25_16h21.48.545,HideSeek_v1,2023.1.3,60.113566518857226,
,1,1,1,6,0,5,66,,train_dim1_1,4,4,2,0,2,0,,,,,,,,,6,0,6,0,0,3,3,3,0,0,0,0,,,,,,,,,,,,,,,,,stimuli/alien_stimuli/66.png,,,,,,,,,,,,,,,,,,,,,,,,,,,,,,,stimuli/alien_stimuli/64.png,64,2,3,,,,,,,4,,,,,,,,257.8974115999881,257.8974115999881,257.8974115999881,257.8974115999881,257.8974115999881,up,0.43829890014603734,3,0,99,-0.08,-0.24,up,0.33405910013243556,None,,,,,256.3305381999817,257.8974115999881,0,0.08,0.24,0.0,-0.04,0,0.0,0,0.08,255.96371399983764,255.96371399983764,255.96371399983764,255.96371399983764,255.96371399983764,255.96371399983764,255.96371399983764,255.96371399983764,255.94697608011774,0.48507679998874664,return,0.3370524002239108,None,,,,,,,,,,,,,2024-06-25_16h21.48.545,HideSeek_v1,2023.1.3,60.113566518857226,
,1,1,1,6,0,5,66,,train_dim1_1,4,4,2,0,2,0,,,,,,,,,6,0,6,0,0,3,3,3,1,0,1,0,,,,,,,,,,,,,,,,,,,,,,,,,,,,,,,,,,,,,,,,,,,,,,,,,,,,,,,,,,4,,,,,,,,258.3308301998768,258.3308301998768,258.3308301998768,258.3308301998768,258.3308301998768,up,0.26018300000578165,3,0,99,-0.08,-0.15999999999999998,up,0.17721000011079013,None,,,,,,,,,,,,,,,,,,,,,,,,,,,,,,,,,,,,,,,,,2024-06-25_16h21.48.545,HideSeek_v1,2023.1.3,60.113566518857226,
,1,1,1,6,0,5,66,,train_dim1_1,4,4,2,0,2,0,,,,,,,,,6,0,6,0,0,3,3,3,2,0,2,0,,,,,,,,,,,,,,,,,,,,,,,,,,,,,,,,,,,,,,,,,,,,,,,,,,,,,,,,,,4,,,,,,,,258.60018329997547,258.60018329997547,258.60018329997547,258.60018329997547,258.60018329997547,up,0.2266472999472171,3,0,99,-0.08,-0.07999999999999997,up,0.14654420013539493,None,,,,,,,,,,,,,,,,,,,,,,,,,,,,,,,,,,,,,,,,,2024-06-25_16h21.48.545,HideSeek_v1,2023.1.3,60.113566518857226,
,1,1,1,6,0,5,66,,train_dim1_1,4,4,2,0,2,0,,,,,,,,,6,0,6,0,0,3,3,3,3,0,3,0,,,,,,,,,,,,,,,,,,,,,,,,,,,,,,,,,,,,,,,,,,,,,,,,,,,,,,,,,,4,,,,,,,,258.8304162998684,258.8304162998684,258.8304162998684,258.8304162998684,258.8304162998684,up,0.29433430009521544,3,0,99,-0.08,2.7755575615628914e-17,up,0.20205359999090433,None,,,,,,,,,,,,,,,,,,,,,,,,,,,,,,,,,,,,,,,,,2024-06-25_16h21.48.545,HideSeek_v1,2023.1.3,60.113566518857226,
,1,1,1,6,0,5,66,,train_dim1_1,4,4,2,0,2,0,,,,,,,,,6,0,6,0,0,3,3,3,4,0,4,0,,,,,,,,,,,,,,,,,,,,,,,,,,,,,,,,,,,,,,,,,,,,,,,,,,,,,,,,,,4,,,,,,,,259.13323949999176,259.13323949999176,259.13323949999176,259.13323949999176,259.13323949999176,up,0.2943412000313401,3,0,99,-0.08,0.08000000000000003,up,0.21053580031730235,None,,,,,,,,,,,,,,,,,,,,,,,,,,,,,,,,,,,,,,,,,2024-06-25_16h21.48.545,HideSeek_v1,2023.1.3,60.113566518857226,
,1,1,1,6,0,5,66,,train_dim1_1,4,4,2,0,2,0,,,,,,,,,6,0,6,0,0,3,3,3,5,0,5,0,,,,,,,,,,,,,,,,,,,,,,,,,,,,,,,,,,,,,,,,,,,,,,,,,,,,,,,,,,4,,,,,,,,259.44684219988994,259.44684219988994,259.44684219988994,259.44684219988994,259.44684219988994,return,0.29431100003421307,4,0,1,-0.08,0.08000000000000003,return,0.18554119998589158,None,126,0,-0.08,0.08000000000000003,,,,,,,,,,,,,,,,,,,,,,,,,,,,,,,,,,,,,2024-06-25_16h21.48.545,HideSeek_v1,2023.1.3,60.113566518857226,
