trialInstr,x_fixStart,y_fixStart,x_corrSteps,y_corrSteps,x_nrSteps,y_nrSteps,alienID,trialLength,version,trialTrain,praclen,beforeExpLoop.thisRepN,beforeExpLoop.thisTrialN,beforeExpLoop.thisN,beforeExpLoop.thisIndex,mini_instr_trials.thisRepN,mini_instr_trials.thisTrialN,mini_instr_trials.thisN,mini_instr_trials.thisIndex,instrLoop.thisRepN,instrLoop.thisTrialN,instrLoop.thisN,instrLoop.thisIndex,repeat_prac.thisRepN,repeat_prac.thisTrialN,repeat_prac.thisN,repeat_prac.thisIndex,trainLoop.thisRepN,trainLoop.thisTrialN,trainLoop.thisN,trainLoop.thisIndex,moveLoop_train.thisRepN,moveLoop_train.thisTrialN,moveLoop_train.thisN,moveLoop_train.thisIndex,start_all_time,url,slideStim,audioStim,slides.started,sounds.started,nextButton.numClicks,nextButton.timesOn,nextButton.timesOff,prev_but.numClicks,prev_but.timesOn,prev_but.timesOff,alienStim,instrFile,alienStim_instr,gridImage_instr.started,startPos_3.started,key_instr.started,alienImage_3.started,sounds_1.started,key_instr.keys,key_instr.rt,key_instr.duration,all_x,all_y,FBy_corrSteps,FBy_fixStart,FBx_corrSteps,FBx_fixStart,FBy_pathSize_check,FBx_pathSize_check,gridImage_9.started,alienImageFB_3.started,startPosFB_3.started,keyFB_3.started,pathLine_ydir_2.started,pathLine_xdir_2.started,alienFace_3.started,sounds_2.started,RTFB_instr,keyFB_3.keys,keyFB_3.rt,keyFB_3.duration,draw_alienStim,draw_alienID,test_x,nrepcount,perfthres,percthres,earlierperf,earlystop,nextPrac,fileidx,praclen,saveACC_train,pracFile,nextPrac_train,addNrep,fileidx_endr,repExp,showearly,gridImage_4.started,startPos.started,movePos.started,key_resp.started,alienImage.started,wLy_dir,wLx_dir,x_movePos,y_movePos,buttonPress_train,RTchoice_train,cumAcctrain,saveACC_choice,corrAns,x_movePos_end,y_movePos_end,key_resp.keys,key_resp.rt,key_resp.duration,text_2.started,text_2.stopped,aft_x_corrPos,aft_y_corrPos,y_pathSize_check,x_pathSize_check,y_pathdirY,x_pathdirY,x_pathdirX,x_corrPos,y_corrPos,gridImage_6.started,alienImageFB_2.started,startPosFB_2.started,movePosFB_2.started,keyFB_2.started,pathLine_xdir.started,pathLine_ydir.started,alienFace.started,sounds_4.started,RT_FBtrain,keyFB_2.keys,keyFB_2.rt,keyFB_2.duration,participant,study_id,session_id,date,expName,psychopyVersion,frameRate,
,,,,,,,,,,,,0,0,0,0,0,0,0,0,,,,,,,,,,,,,,,,,start_all_time,testround,stimuli/instructions/Slide1.png,stimuli/instructions/Audio1.wav,11.828599800006486,11.696576179470867,1,[1.519321999978274],[1.5193331000045873],0,,,,,,,,,,,,,,,,,,,,,,,,,,,,,,,,,,,,,,,,,,,,,,,,,,,,,,,,,,,,,,,,,,,,,,,,,,,,,,,,,,,,,,,,,,,,,,,,,,2024-07-08_14h41.19.580,HideSeek_v1,2023.1.3,60.47514110196932,
,,,,,,,,,,,,0,0,0,0,1,0,1,0,,,,,,,,,,,,,,,,,,,stimuli/instructions/Slide2.png,stimuli/instructions/Audio2.wav,13.323790800001007,13.315473619964905,1,[0.6145214999560267],[0.6145252999849617],0,,,,,,,,,,,,,,,,,,,,,,,,,,,,,,,,,,,,,,,,,,,,,,,,,,,,,,,,,,,,,,,,,,,,,,,,,,,,,,,,,,,,,,,,,,,,,,,,,,2024-07-08_14h41.19.580,HideSeek_v1,2023.1.3,60.47514110196932,
,,,,,,,,,,,,0,0,0,0,2,0,2,0,,,,,,,,,,,,,,,,,,,stimuli/instructions/Slide3.png,stimuli/instructions/Audio3.wav,14.055198599991854,14.049056179937907,1,[0.48284250003052875],[0.4828470000065863],0,,,,,,,,,,,,,,,,,,,,,,,,,,,,,,,,,,,,,,,,,,,,,,,,,,,,,,,,,,,,,,,,,,,,,,,,,,,,,,,,,,,,,,,,,,,,,,,,,,2024-07-08_14h41.19.580,HideSeek_v1,2023.1.3,60.47514110196932,
,,,,,,,,,,,,0,0,0,0,3,0,3,0,,,,,,,,,,,,,,,,,,,stimuli/instructions/Slide4.png,stimuli/instructions/Audio4.wav,14.656768999993801,14.649604279955383,1,[0.3466416000155732],[0.34664489998249337],0,,,,,,,,,,,,,,,,,,,,,,,,,,,,,,,,,,,,,,,,,,,,,,,,,,,,,,,,,,,,,,,,,,,,,,,,,,,,,,,,,,,,,,,,,,,,,,,,,,2024-07-08_14h41.19.580,HideSeek_v1,2023.1.3,60.47514110196932,
,,,,,,,,,,,,0,0,0,0,4,0,4,0,,,,,,,,,,,,,,,,,,,stimuli/instructions/Slide5.png,stimuli/instructions/Audio5.wav,15.07724379998399,15.065618499997072,1,[0.36539569997694343],[0.36539960000663996],0,,,,,,,,,,,,,,,,,,,,,,,,,,,,,,,,,,,,,,,,,,,,,,,,,,,,,,,,,,,,,,,,,,,,,,,,,,,,,,,,,,,,,,,,,,,,,,,,,,2024-07-08_14h41.19.580,HideSeek_v1,2023.1.3,60.47514110196932,
,,,,,,,,,,,,0,0,0,0,5,0,5,0,,,,,,,,,,,,,,,,,,,stimuli/instructions/Slide6.png,stimuli/instructions/Audio6.wav,15.501699599961285,15.483820239955094,1,[0.33629629999632016],[0.336302199983038],0,,,,,,,,,,,,,,,,,,,,,,,,,,,,,,,,,,,,,,,,,,,,,,,,,,,,,,,,,,,,,,,,,,,,,,,,,,,,,,,,,,,,,,,,,,,,,,,,,,2024-07-08_14h41.19.580,HideSeek_v1,2023.1.3,60.47514110196932,
,,,,,,,,,,,,0,0,0,0,6,0,6,0,,,,,,,,,,,,,,,,,,,stimuli/instructions/Slide7.png,stimuli/instructions/Audio7.wav,15.903342299978249,15.883374139957596,1,[0.36981960001867265],[0.3698240999947302],0,,,,,,,,,,,,,,,,,,,,,,,,,,,,,,,,,,,,,,,,,,,,,,,,,,,,,,,,,,,,,,,,,,,,,,,,,,,,,,,,,,,,,,,,,,,,,,,,,,2024-07-08_14h41.19.580,HideSeek_v1,2023.1.3,60.47514110196932,
,,,,,,,,,,,,0,0,0,0,7,0,7,0,,,,,,,,,,,,,,,,,,,stimuli/instructions/Slide8.png,stimuli/instructions/Audio8.wav,16.354820999957155,16.34856435994152,1,[0.2363234999938868],[0.23632670001825318],0,,,,,,,,,,,,,,,,,,,,,,,,,,,,,,,,,,,,,,,,,,,,,,,,,,,,,,,,,,,,,,,,,,,,,,,,,,,,,,,,,,,,,,,,,,,,,,,,,,2024-07-08_14h41.19.580,HideSeek_v1,2023.1.3,60.47514110196932,
,,,,,,,,,,,,0,0,0,0,8,0,8,0,,,,,,,,,,,,,,,,,,,stimuli/instructions/Slide9.png,stimuli/instructions/Audio9.wav,16.668160500004888,16.651115699962247,1,[0.33538170001702383],[0.3353872000006959],0,,,,,,,,,,,,,,,,,,,,,,,,,,,,,,,,,,,,,,,,,,,,,,,,,,,,,,,,,,,,,,,,,,,,,,,,,,,,,,,,,,,,,,,,,,,,,,,,,,2024-07-08_14h41.19.580,HideSeek_v1,2023.1.3,60.47514110196932,
,,,,,,,,,,,,0,0,0,0,9,0,9,0,,,,,,,,,,,,,,,,,,,stimuli/instructions/Slide10.png,stimuli/instructions/Audio10.wav,17.072277700004634,17.065640199987683,1,[0.3153720999835059],[0.31537959998240694],0,,,,,,,,,,,,,,,,,,,,,,,,,,,,,,,,,,,,,,,,,,,,,,,,,,,,,,,,,,,,,,,,,,,,,,,,,,,,,,,,,,,,,,,,,,,,,,,,,,2024-07-08_14h41.19.580,HideSeek_v1,2023.1.3,60.47514110196932,
,,,,,,,,,,,,0,0,0,0,10,0,10,0,,,,,,,,,,,,,,,,,,,stimuli/instructions/Slide11.png,stimuli/instructions/Audio11.wav,17.47056629997678,17.46602815994993,1,[0.3332733000279404],[0.3332811000291258],0,,,,,,,,,,,,,,,,,,,,,,,,,,,,,,,,,,,,,,,,,,,,,,,,,,,,,,,,,,,,,,,,,,,,,,,,,,,,,,,,,,,,,,,,,,,,,,,,,,2024-07-08_14h41.19.580,HideSeek_v1,2023.1.3,60.47514110196932,
,,,,,,,,,,,,0,0,0,0,11,0,11,0,,,,,,,,,,,,,,,,,,,stimuli/instructions/Slide12.png,stimuli/instructions/Audio12.wav,17.891288299986627,17.88209565996658,1,[0.2658700000029057],[0.26587479998124763],0,,,,,,,,,,,,,,,,,,,,,,,,,,,,,,,,,,,,,,,,,,,,,,,,,,,,,,,,,,,,,,,,,,,,,,,,,,,,,,,,,,,,,,,,,,,,,,,,,,2024-07-08_14h41.19.580,HideSeek_v1,2023.1.3,60.47514110196932,
1,0,3,0,8,0,5,66,2,instr_dim1_1,,,0,0,0,0,,,,,0,0,0,0,,,,,,,,,,,,,,,,,,,,,,,,,stimuli/alien_stimuli/66.png,conditions/inputInstr_1.xlsx,stimuli/alien_stimuli/66.png,18.249845699989237,18.249845699989237,18.249845699989237,18.249845699989237,18.232787459972315,return,1.1095275999978185,None,"[-0.16, -0.08, 0, 0.08, 0.16, 0.24, 0.32, 0.4, 0.48, 0.56]","[-0.4, -0.32, -0.24, -0.16, -0.08, 0, 0.08, 0.16, 0.24, 0.32]",8,3,0,0,0.4,0.0,19.549578699981794,19.549578699981794,19.549578699981794,19.549578699981794,19.549578699981794,19.549578699981794,19.549578699981794,19.498964279948268,0.45029609999619424,return,0.26430989999789745,None,stimuli/alien_stimuli/66.png,66,0,1,,,,,,,,,,,,,,,,,,,,,,,,,,,,,,,,,,,,,,,,,,,,,,,,,,,,,,,,,,,,,2024-07-08_14h41.19.580,HideSeek_v1,2023.1.3,60.47514110196932,
,,,,,,,,,,,24,0,0,0,0,,,,,,,,,,,,,,,,,,,,,,,,,,,,,,,,,,,,,,,,,,,,,,,,,,,,,,,,,,,,,,,,,,,,17,0.7,0,0,99,1,24,0,conditions/inputTrain_1.1.xlsx,99,1,1,1,0,,,,,,,,,,,,,,,,,,,,,,,,,,,,,,,,,,,,,,,,,,,,,,,2024-07-08_14h41.19.580,HideSeek_v1,2023.1.3,60.47514110196932,
,,,,,,,,,,,,1,0,1,0,0,0,0,0,,,,,,,,,,,,,,,,,,,stimuli/instructions/Slide13.png,stimuli/instructions/Audio13.wav,20.066453200008254,20.047831239935476,1,[0.7109248000197113],[0.7109296999988146],0,,,,,,,,,,,,,,,,,,,,,,,,,,,,,,,,,,,,,,,,,,,,,,,,,,,,,,,,,,,,,,,,,,,,,,,,,,,,,,,,,,,,,,,,,,,,,,,,,,2024-07-08_14h41.19.580,HideSeek_v1,2023.1.3,60.47514110196932,
,,,,,,,,,,,,1,0,1,0,1,0,1,0,,,,,,,,,,,,,,,,,,,stimuli/instructions/Slide14.png,stimuli/instructions/Audio14.wav,20.86637730000075,20.849764959944878,1,[0.37651689996710047],[0.3765220000059344],0,,,,,,,,,,,,,,,,,,,,,,,,,,,,,,,,,,,,,,,,,,,,,,,,,,,,,,,,,,,,,,,,,,,,,,,,,,,,,,,,,,,,,,,,,,,,,,,,,,2024-07-08_14h41.19.580,HideSeek_v1,2023.1.3,60.47514110196932,
2,2,3,2,3,0,0,61,2,instr_dim1_1,,,1,0,1,0,,,,,0,0,0,0,,,,,,,,,,,,,,,,,,,,,,,,,stimuli/alien_stimuli/61.png,conditions/inputInstr_1.xlsx,stimuli/alien_stimuli/61.png,21.317351099976804,21.317351099976804,21.317351099976804,21.317351099976804,21.29926479997812,return,0.7235997000243515,None,"[-0.16, -0.08, 0, 0.08, 0.16, 0.24, 0.32, 0.4, 0.48, 0.56]","[-0.4, -0.32, -0.24, -0.16, -0.08, 0, 0.08, 0.16, 0.24, 0.32]",3,3,2,2,0.0,0.0,22.20295249996707,22.20295249996707,22.20295249996707,22.20295249996707,22.20295249996707,22.20295249996707,22.20295249996707,22.182381979946513,0.4343519000103697,return,0.2782431000377983,None,stimuli/alien_stimuli/61.png,61,2,2,,,,,,,,,,,,,,,,,,,,,,,,,,,,,,,,,,,,,,,,,,,,,,,,,,,,,,,,,,,,,2024-07-08_14h41.19.580,HideSeek_v1,2023.1.3,60.47514110196932,
,,,,,,,,,,,24,1,0,1,0,,,,,,,,,,,,,,,,,,,,,,,,,,,,,,,,,,,,,,,,,,,,,,,,,,,,,,,,,,,,,,,,,,,,17,0.7,0,0,99,1,24,0,conditions/inputTrain_1.1.xlsx,99,1,1,1,0,,,,,,,,,,,,,,,,,,,,,,,,,,,,,,,,,,,,,,,,,,,,,,,2024-07-08_14h41.19.580,HideSeek_v1,2023.1.3,60.47514110196932,
,,,,,,,,,,,,2,0,2,0,0,0,0,0,,,,,,,,,,,,,,,,,,,stimuli/instructions/Slide15.png,stimuli/instructions/Audio15.wav,22.75228859996423,22.732046799967065,1,[1.181600600015372],[1.1816042000427842],0,,,,,,,,,,,,,,,,,,,,,,,,,,,,,,,,,,,,,,,,,,,,,,,,,,,,,,,,,,,,,,,,,,,,,,,,,,,,,,,,,,,,,,,,,,,,,,,,,,2024-07-08_14h41.19.580,HideSeek_v1,2023.1.3,60.47514110196932,
,,,,,,,,,,,,2,0,2,0,1,0,1,0,,,,,,,,,,,,,,,,,,,stimuli/instructions/Slide16.png,stimuli/instructions/Audio16.wav,24.05364409997128,24.049488239979837,1,[0.5660508999717422],[0.5660534999915399],0,,,,,,,,,,,,,,,,,,,,,,,,,,,,,,,,,,,,,,,,,,,,,,,,,,,,,,,,,,,,,,,,,,,,,,,,,,,,,,,,,,,,,,,,,,,,,,,,,,2024-07-08_14h41.19.580,HideSeek_v1,2023.1.3,60.47514110196932,
,2,0,2,1,0,1,62,,train_dim1_1,1,24,2,0,2,0,,,,,,,,,0,0,0,0,0,0,0,0,0,0,0,0,,,,,,,,,,,,,stimuli/alien_stimuli/62.png,,,,,,,,,,,,,,,,,,,,,,,,,,,,,,,,,,,,,,,,,24,,,,,,,,24.71646399999736,24.71646399999736,24.71646399999736,24.71646399999736,24.71646399999736,0,0,0,-0.4,return,1.9734367999481037,0,0,0,0,-0.4,return,1.8596667000092566,None,,,,,,,,,,,,,,,,,,,,,,,,,,,,2024-07-08_14h41.19.580,HideSeek_v1,2023.1.3,60.47514110196932,
,2,2,2,5,0,3,64,,train_dim1_1,2,24,2,0,2,0,,,,,,,,,0,0,0,0,0,1,1,1,0,0,0,0,,,,,,,,,,,,,stimuli/alien_stimuli/64.png,,,,,,,,,,,,,,,,,,,,,,,,,,,,,,,stimuli/alien_stimuli/62.png,62,2,3,,,,,,,24,,,,,,,,30.967616599984467,30.967616599984467,30.967616599984467,30.967616599984467,30.967616599984467,,,,,up,0.5912758000195026,0,0,99,0,-0.15999999999999998,up,0.4848617999814451,None,29.39944429998286,28.42325599998003,0,-0.32,0.08,0.0,-0.36,0,0.0,0,-0.32,28.42325599998003,28.42325599998003,28.42325599998003,28.42325599998003,28.42325599998003,28.42325599998003,28.42325599998003,28.42325599998003,28.248952039983124,1.2683155999984592,return,0.9403384999604896,None,,,,2024-07-08_14h41.19.580,HideSeek_v1,2023.1.3,60.47514110196932,
,2,2,2,5,0,3,64,,train_dim1_1,2,24,2,0,2,0,,,,,,,,,0,0,0,0,0,1,1,1,1,0,1,0,,,,,,,,,,,,,,,,,,,,,,,,,,,,,,,,,,,,,,,,,,,,,,,,,,,,,,24,,,,,,,,31.568763399962336,31.568763399962336,31.568763399962336,31.568763399962336,31.568763399962336,,,,,up,0.324331899988465,0,0,99,0,-0.07999999999999997,up,0.2003275000024587,None,,,,,,,,,,,,,,,,,,,,,,,,,,,,2024-07-08_14h41.19.580,HideSeek_v1,2023.1.3,60.47514110196932,
,2,2,2,5,0,3,64,,train_dim1_1,2,24,2,0,2,0,,,,,,,,,0,0,0,0,0,1,1,1,2,0,2,0,,,,,,,,,,,,,,,,,,,,,,,,,,,,,,,,,,,,,,,,,,,,,,,,,,,,,,24,,,,,,,,31.90169520000927,31.90169520000927,31.90169520000927,31.90169520000927,31.90169520000927,,,,,up,0.27774690004298463,0,0,99,0,2.7755575615628914e-17,up,0.18041020003147423,None,,,,,,,,,,,,,,,,,,,,,,,,,,,,2024-07-08_14h41.19.580,HideSeek_v1,2023.1.3,60.47514110196932,
,2,2,2,5,0,3,64,,train_dim1_1,2,24,2,0,2,0,,,,,,,,,0,0,0,0,0,1,1,1,3,0,3,0,,,,,,,,,,,,,,,,,,,,,,,,,,,,,,,,,,,,,,,,,,,,,,,,,,,,,,24,,,,,,,,32.183439399988856,32.183439399988856,32.183439399988856,32.183439399988856,32.183439399988856,3,0,0,2.7755575615628914e-17,return,0.6266566999838687,1,0,1,0,2.7755575615628914e-17,return,0.5205270000151359,None,,,,,,,,,,,,,,,,,,,,,,,,,,,,2024-07-08_14h41.19.580,HideSeek_v1,2023.1.3,60.47514110196932,
,,,,,,,,,,,,,,,,,,,,,,,,,,,,,,,,,,,,,,,,,,,,,,,,,,,,,,,,,,,,,,,,,,,,,,,,,,,,,,,,,,,,,,,,,,,,,,,,,,,,,,,,,,,,,,1,,,,,,32.765790199977346,,0,0,0.24,0.0,-0.12,0,0.0,0,0,34.38831489998847,34.38831489998847,34.38831489998847,34.38831489998847,34.38831489998847,34.38831489998847,34.38831489998847,34.38831489998847,34.365542719955556,,,,,,,,,,,,
