trialInstr,x_fixStart,y_fixStart,x_corrSteps,y_corrSteps,x_nrSteps,y_nrSteps,alienID,trialLength,version,trialTrain,praclen,beforeExpLoop.thisRepN,beforeExpLoop.thisTrialN,beforeExpLoop.thisN,beforeExpLoop.thisIndex,mini_instr_trials.thisRepN,mini_instr_trials.thisTrialN,mini_instr_trials.thisN,mini_instr_trials.thisIndex,instrLoop.thisRepN,instrLoop.thisTrialN,instrLoop.thisN,instrLoop.thisIndex,repeat_prac.thisRepN,repeat_prac.thisTrialN,repeat_prac.thisN,repeat_prac.thisIndex,trainLoop.thisRepN,trainLoop.thisTrialN,trainLoop.thisN,trainLoop.thisIndex,moveLoop_train.thisRepN,moveLoop_train.thisTrialN,moveLoop_train.thisN,moveLoop_train.thisIndex,start_all_time,url,slideStim,audioStim,slides.started,sounds.started,nextButton.numClicks,nextButton.timesOn,nextButton.timesOff,prev_but.numClicks,prev_but.timesOn,prev_but.timesOff,alienStim,instrFile,alienStim_instr,gridImage_instr.started,startPos_3.started,key_instr.started,alienImage_3.started,sounds_1.started,key_instr.keys,key_instr.rt,key_instr.duration,all_x,all_y,FBy_corrSteps,FBy_fixStart,FBx_corrSteps,FBx_fixStart,FBy_pathSize_check,FBx_pathSize_check,gridImage_9.started,alienImageFB_3.started,startPosFB_3.started,keyFB_3.started,pathLine_ydir_2.started,pathLine_xdir_2.started,alienFace_3.started,sounds_2.started,RTFB_instr,keyFB_3.keys,keyFB_3.rt,keyFB_3.duration,draw_alienStim,draw_alienID,test_x,nrepcount,perfthres,percthres,earlierperf,earlystop,nextPrac,fileidx,praclen,saveACC_train,pracFile,nextPrac_train,addNrep,fileidx_endr,repExp,showearly,gridImage_4.started,startPos.started,movePos.started,key_resp.started,alienImage.started,buttonPress_train,RTchoice_train,cumAcctrain,aCorr,saveACC_choice,corrAns,x_movePos_end,y_movePos_end,key_resp.keys,key_resp.rt,key_resp.duration,wLy_dir,wLx_dir,x_movePos,y_movePos,text_2.started,text_2.stopped,aft_x_corrPos,aft_y_corrPos,y_pathSize_check,x_pathSize_check,y_pathdirY,x_pathdirY,x_pathdirX,x_corrPos,y_corrPos,gridImage_6.started,alienImageFB_2.started,startPosFB_2.started,movePosFB_2.started,keyFB_2.started,pathLine_xdir.started,pathLine_ydir.started,alienFace.started,sounds_4.started,RT_FBtrain,keyFB_2.keys,keyFB_2.rt,keyFB_2.duration,participant,study_id,session_id,date,expName,psychopyVersion,frameRate,
,,,,,,,,,,,,0,0,0,0,0,0,0,0,,,,,,,,,,,,,,,,,start_all_time,testround,stimuli/instructions/Slide1.png,stimuli/instructions/Audio1.wav,9.118998099991586,9.096709120238666,1,[0.9476241999655031],[0.9476303000119515],0,,,,,,,,,,,,,,,,,,,,,,,,,,,,,,,,,,,,,,,,,,,,,,,,,,,,,,,,,,,,,,,,,,,,,,,,,,,,,,,,,,,,,,,,,,,,,,,,,,,2024-07-08_15h02.06.750,HideSeek_v1,2023.1.3,60.023289031800154,
,,,,,,,,,,,,0,0,0,0,1,0,1,0,,,,,,,,,,,,,,,,,,,stimuli/instructions/Slide2.png,stimuli/instructions/Audio2.wav,10.16949509998085,10.154045130003944,1,[0.3761825999827124],[0.3761872000177391],0,,,,,,,,,,,,,,,,,,,,,,,,,,,,,,,,,,,,,,,,,,,,,,,,,,,,,,,,,,,,,,,,,,,,,,,,,,,,,,,,,,,,,,,,,,,,,,,,,,,2024-07-08_15h02.06.750,HideSeek_v1,2023.1.3,60.023289031800154,
,,,,,,,,,,,,0,0,0,0,2,0,2,0,,,,,,,,,,,,,,,,,,,stimuli/instructions/Slide3.png,stimuli/instructions/Audio3.wav,10.63622350001242,10.619681840017439,1,[0.3206349000101909],[0.3206398999900557],0,,,,,,,,,,,,,,,,,,,,,,,,,,,,,,,,,,,,,,,,,,,,,,,,,,,,,,,,,,,,,,,,,,,,,,,,,,,,,,,,,,,,,,,,,,,,,,,,,,,2024-07-08_15h02.06.750,HideSeek_v1,2023.1.3,60.023289031800154,
,,,,,,,,,,,,0,0,0,0,3,0,3,0,,,,,,,,,,,,,,,,,,,stimuli/instructions/Slide4.png,stimuli/instructions/Audio4.wav,11.069056399981491,11.053298729989912,1,[0.2684618000057526],[0.26846559997648],0,,,,,,,,,,,,,,,,,,,,,,,,,,,,,,,,,,,,,,,,,,,,,,,,,,,,,,,,,,,,,,,,,,,,,,,,,,,,,,,,,,,,,,,,,,,,,,,,,,,2024-07-08_15h02.06.750,HideSeek_v1,2023.1.3,60.023289031800154,
,,,,,,,,,,,,0,0,0,0,4,0,4,0,,,,,,,,,,,,,,,,,,,stimuli/instructions/Slide5.png,stimuli/instructions/Audio5.wav,11.386223300010897,11.369778670027154,1,[0.3853336999891326],[0.38533759996062145],0,,,,,,,,,,,,,,,,,,,,,,,,,,,,,,,,,,,,,,,,,,,,,,,,,,,,,,,,,,,,,,,,,,,,,,,,,,,,,,,,,,,,,,,,,,,,,,,,,,,2024-07-08_15h02.06.750,HideSeek_v1,2023.1.3,60.023289031800154,
,,,,,,,,,,,,0,0,0,0,5,0,5,0,,,,,,,,,,,,,,,,,,,stimuli/instructions/Slide6.png,stimuli/instructions/Audio6.wav,11.819426300004125,11.802855969994562,1,[0.3557292000041343],[0.3557332999771461],0,,,,,,,,,,,,,,,,,,,,,,,,,,,,,,,,,,,,,,,,,,,,,,,,,,,,,,,,,,,,,,,,,,,,,,,,,,,,,,,,,,,,,,,,,,,,,,,,,,,2024-07-08_15h02.06.750,HideSeek_v1,2023.1.3,60.023289031800154,
,,,,,,,,,,,,0,0,0,0,6,0,6,0,,,,,,,,,,,,,,,,,,,stimuli/instructions/Slide7.png,stimuli/instructions/Audio7.wav,12.219415900006425,12.203303469991079,1,[0.3536631000461057],[0.35366640001302585],0,,,,,,,,,,,,,,,,,,,,,,,,,,,,,,,,,,,,,,,,,,,,,,,,,,,,,,,,,,,,,,,,,,,,,,,,,,,,,,,,,,,,,,,,,,,,,,,,,,,2024-07-08_15h02.06.750,HideSeek_v1,2023.1.3,60.023289031800154,
,,,,,,,,,,,,0,0,0,0,7,0,7,0,,,,,,,,,,,,,,,,,,,stimuli/instructions/Slide8.png,stimuli/instructions/Audio8.wav,12.636236699996516,12.619841560011265,1,[0.38645439996616915],[0.38645890000043437],0,,,,,,,,,,,,,,,,,,,,,,,,,,,,,,,,,,,,,,,,,,,,,,,,,,,,,,,,,,,,,,,,,,,,,,,,,,,,,,,,,,,,,,,,,,,,,,,,,,,2024-07-08_15h02.06.750,HideSeek_v1,2023.1.3,60.023289031800154,
,,,,,,,,,,,,0,0,0,0,8,0,8,0,,,,,,,,,,,,,,,,,,,stimuli/instructions/Slide9.png,stimuli/instructions/Audio9.wav,13.071234599978197,13.069556160003414,1,[0.38126370002282783],[0.38126950000878423],0,,,,,,,,,,,,,,,,,,,,,,,,,,,,,,,,,,,,,,,,,,,,,,,,,,,,,,,,,,,,,,,,,,,,,,,,,,,,,,,,,,,,,,,,,,,,,,,,,,,2024-07-08_15h02.06.750,HideSeek_v1,2023.1.3,60.023289031800154,
,,,,,,,,,,,,0,0,0,0,9,0,9,0,,,,,,,,,,,,,,,,,,,stimuli/instructions/Slide10.png,stimuli/instructions/Audio10.wav,13.50211770000169,13.502927759999876,1,[0.31580410001333803],[0.31580769998254254],0,,,,,,,,,,,,,,,,,,,,,,,,,,,,,,,,,,,,,,,,,,,,,,,,,,,,,,,,,,,,,,,,,,,,,,,,,,,,,,,,,,,,,,,,,,,,,,,,,,,2024-07-08_15h02.06.750,HideSeek_v1,2023.1.3,60.023289031800154,
,,,,,,,,,,,,0,0,0,0,10,0,10,0,,,,,,,,,,,,,,,,,,,stimuli/instructions/Slide11.png,stimuli/instructions/Audio11.wav,13.886395099980291,13.869514460023494,1,[0.34025349997682497],[0.340258400014136],0,,,,,,,,,,,,,,,,,,,,,,,,,,,,,,,,,,,,,,,,,,,,,,,,,,,,,,,,,,,,,,,,,,,,,,,,,,,,,,,,,,,,,,,,,,,,,,,,,,,2024-07-08_15h02.06.750,HideSeek_v1,2023.1.3,60.023289031800154,
,,,,,,,,,,,,0,0,0,0,11,0,11,0,,,,,,,,,,,,,,,,,,,stimuli/instructions/Slide12.png,stimuli/instructions/Audio12.wav,14.286340999999084,14.26922946003033,1,[0.36984790000133216],[0.36985230003483593],0,,,,,,,,,,,,,,,,,,,,,,,,,,,,,,,,,,,,,,,,,,,,,,,,,,,,,,,,,,,,,,,,,,,,,,,,,,,,,,,,,,,,,,,,,,,,,,,,,,,2024-07-08_15h02.06.750,HideSeek_v1,2023.1.3,60.023289031800154,
1,0,3,0,8,0,5,66,2,instr_dim1_1,,,0,0,0,0,,,,,0,0,0,0,,,,,,,,,,,,,,,,,,,,,,,,,stimuli/alien_stimuli/66.png,conditions/inputInstr_1.xlsx,stimuli/alien_stimuli/66.png,14.736205799970776,14.736205799970776,14.736205799970776,14.736205799970776,14.719856650015572,return,0.7943336000316776,None,"[-0.16, -0.08, 0, 0.08, 0.16, 0.24, 0.32, 0.4, 0.48, 0.56]","[-0.4, -0.32, -0.24, -0.16, -0.08, 0, 0.08, 0.16, 0.24, 0.32]",8,3,0,0,0.4,0.0,15.77208129997598,15.77208129997598,15.77208129997598,15.77208129997598,15.77208129997598,15.77208129997598,15.77208129997598,15.720027490035864,0.38465560000622645,return,0.14776480000000447,None,stimuli/alien_stimuli/66.png,66,0,1,,,,,,,,,,,,,,,,,,,,,,,,,,,,,,,,,,,,,,,,,,,,,,,,,,,,,,,,,,,,,,2024-07-08_15h02.06.750,HideSeek_v1,2023.1.3,60.023289031800154,
,,,,,,,,,,,24,0,0,0,0,,,,,,,,,,,,,,,,,,,,,,,,,,,,,,,,,,,,,,,,,,,,,,,,,,,,,,,,,,,,,,,,,,,,17,0.7,0,0,99,1,24,0,conditions/inputTrain_1.1.xlsx,99,1,1,1,0,,,,,,,,,,,,,,,,,,,,,,,,,,,,,,,,,,,,,,,,,,,,,,,,2024-07-08_15h02.06.750,HideSeek_v1,2023.1.3,60.023289031800154,
,,,,,,,,,,,,1,0,1,0,0,0,0,0,,,,,,,,,,,,,,,,,,,stimuli/instructions/Slide13.png,stimuli/instructions/Audio13.wav,16.13590110000223,16.120244279992768,1,[0.5908085000119172],[0.5908129999879748],0,,,,,,,,,,,,,,,,,,,,,,,,,,,,,,,,,,,,,,,,,,,,,,,,,,,,,,,,,,,,,,,,,,,,,,,,,,,,,,,,,,,,,,,,,,,,,,,,,,,2024-07-08_15h02.06.750,HideSeek_v1,2023.1.3,60.023289031800154,
,,,,,,,,,,,,1,0,1,0,1,0,1,0,,,,,,,,,,,,,,,,,,,stimuli/instructions/Slide14.png,stimuli/instructions/Audio14.wav,16.803089099994395,16.78656404998037,1,[0.8604255000245757],[0.8604302000021562],0,,,,,,,,,,,,,,,,,,,,,,,,,,,,,,,,,,,,,,,,,,,,,,,,,,,,,,,,,,,,,,,,,,,,,,,,,,,,,,,,,,,,,,,,,,,,,,,,,,,2024-07-08_15h02.06.750,HideSeek_v1,2023.1.3,60.023289031800154,
2,2,3,2,3,0,0,61,2,instr_dim1_1,,,1,0,1,0,,,,,0,0,0,0,,,,,,,,,,,,,,,,,,,,,,,,,stimuli/alien_stimuli/61.png,conditions/inputInstr_1.xlsx,stimuli/alien_stimuli/61.png,17.736121300025843,17.736121300025843,17.736121300025843,17.736121300025843,17.719749350013444,return,0.7250304999761283,None,"[-0.16, -0.08, 0, 0.08, 0.16, 0.24, 0.32, 0.4, 0.48, 0.56]","[-0.4, -0.32, -0.24, -0.16, -0.08, 0, 0.08, 0.16, 0.24, 0.32]",3,3,2,2,0.0,0.0,18.652658900013193,18.652658900013193,18.652658900013193,18.652658900013193,18.652658900013193,18.652658900013193,18.652658900013193,18.636714600026608,0.38356439996277913,return,0.18876250000903383,None,stimuli/alien_stimuli/61.png,61,2,2,,,,,,,,,,,,,,,,,,,,,,,,,,,,,,,,,,,,,,,,,,,,,,,,,,,,,,,,,,,,,,2024-07-08_15h02.06.750,HideSeek_v1,2023.1.3,60.023289031800154,
,,,,,,,,,,,24,1,0,1,0,,,,,,,,,,,,,,,,,,,,,,,,,,,,,,,,,,,,,,,,,,,,,,,,,,,,,,,,,,,,,,,,,,,,17,0.7,0,0,99,1,24,0,conditions/inputTrain_1.1.xlsx,99,1,1,1,0,,,,,,,,,,,,,,,,,,,,,,,,,,,,,,,,,,,,,,,,,,,,,,,,2024-07-08_15h02.06.750,HideSeek_v1,2023.1.3,60.023289031800154,
,,,,,,,,,,,,2,0,2,0,0,0,0,0,,,,,,,,,,,,,,,,,,,stimuli/instructions/Slide15.png,stimuli/instructions/Audio15.wav,19.052612099971157,19.03648009003955,1,[0.5200973000028171],[0.5201005000271834],0,,,,,,,,,,,,,,,,,,,,,,,,,,,,,,,,,,,,,,,,,,,,,,,,,,,,,,,,,,,,,,,,,,,,,,,,,,,,,,,,,,,,,,,,,,,,,,,,,,,2024-07-08_15h02.06.750,HideSeek_v1,2023.1.3,60.023289031800154,
,,,,,,,,,,,,2,0,2,0,1,0,1,0,,,,,,,,,,,,,,,,,,,stimuli/instructions/Slide16.png,stimuli/instructions/Audio16.wav,19.65462230000412,19.653008139994927,1,[0.48134890000801533],[0.48135209997417405],0,,,,,,,,,,,,,,,,,,,,,,,,,,,,,,,,,,,,,,,,,,,,,,,,,,,,,,,,,,,,,,,,,,,,,,,,,,,,,,,,,,,,,,,,,,,,,,,,,,,2024-07-08_15h02.06.750,HideSeek_v1,2023.1.3,60.023289031800154,
,2,0,2,1,0,1,62,,train_dim1_1,1,24,2,0,2,0,,,,,,,,,0,0,0,0,0,0,0,0,0,0,0,0,,,,,,,,,,,,,stimuli/alien_stimuli/62.png,,,,,,,,,,,,,,,,,,,,,,,,,,,,,,,,,,,,,,,,,24,,,,,,,,20.270039200026076,20.270039200026076,20.270039200026076,20.270039200026076,20.270039200026076,up,3.3911887999856845,0,0,0,99,0,-0.32,up,3.242374900029972,None,,,,,,,,,,,,,,,,,,,,,,,,,,,,,,,,2024-07-08_15h02.06.750,HideSeek_v1,2023.1.3,60.023289031800154,
,2,0,2,1,0,1,62,,train_dim1_1,1,24,2,0,2,0,,,,,,,,,0,0,0,0,0,0,0,0,1,0,1,0,,,,,,,,,,,,,,,,,,,,,,,,,,,,,,,,,,,,,,,,,,,,,,,,,,,,,,24,,,,,,,,23.619197299994994,23.619197299994994,23.619197299994994,23.619197299994994,23.619197299994994,up,1.1266654999926686,0,0,0,99,0,-0.24,up,1.0307734999805689,None,,,,,,,,,,,,,,,,,,,,,,,,,,,,,,,,2024-07-08_15h02.06.750,HideSeek_v1,2023.1.3,60.023289031800154,
,2,0,2,1,0,1,62,,train_dim1_1,1,24,2,0,2,0,,,,,,,,,0,0,0,0,0,0,0,0,2,0,2,0,,,,,,,,,,,,,,,,,,,,,,,,,,,,,,,,,,,,,,,,,,,,,,,,,,,,,,24,,,,,,,,24.768945900024846,24.768945900024846,24.768945900024846,24.768945900024846,24.768945900024846,up,0.41050120000727475,0,0,0,99,0,-0.15999999999999998,up,0.29895899997791275,None,,,,,,,,,,,,,,,,,,,,,,,,,,,,,,,,2024-07-08_15h02.06.750,HideSeek_v1,2023.1.3,60.023289031800154,
,2,0,2,1,0,1,62,,train_dim1_1,1,24,2,0,2,0,,,,,,,,,0,0,0,0,0,0,0,0,3,0,3,0,,,,,,,,,,,,,,,,,,,,,,,,,,,,,,,,,,,,,,,,,,,,,,,,,,,,,,24,,,,,,,,25.17027489998145,25.17027489998145,25.17027489998145,25.17027489998145,25.17027489998145,up,0.4767625000094995,0,0,0,99,0,-0.07999999999999997,up,0.37945399997988716,None,,,,,,,,,,,,,,,,,,,,,,,,,,,,,,,,2024-07-08_15h02.06.750,HideSeek_v1,2023.1.3,60.023289031800154,
,2,0,2,1,0,1,62,,train_dim1_1,1,24,2,0,2,0,,,,,,,,,0,0,0,0,0,0,0,0,4,0,4,0,,,,,,,,,,,,,,,,,,,,,,,,,,,,,,,,,,,,,,,,,,,,,,,,,,,,,,24,,,,,,,,25.652484600024763,25.652484600024763,25.652484600024763,25.652484600024763,25.652484600024763,up,0.310350899992045,0,0,0,99,0,2.7755575615628914e-17,up,0.21137999999336898,None,,,,,,,,,,,,,,,,,,,,,,,,,,,,,,,,2024-07-08_15h02.06.750,HideSeek_v1,2023.1.3,60.023289031800154,
,2,0,2,1,0,1,62,,train_dim1_1,1,24,2,0,2,0,,,,,,,,,0,0,0,0,0,0,0,0,5,0,5,0,,,,,,,,,,,,,,,,,,,,,,,,,,,,,,,,,,,,,,,,,,,,,,,,,,,,,,24,,,,,,,,25.96919590001926,25.96919590001926,25.96919590001926,25.96919590001926,25.96919590001926,return,0.3608383999671787,0,1,0,0,0,2.7755575615628914e-17,return,0.2640571999945678,None,5,0,0,2.7755575615628914e-17,,,,,,,,,,,,,,,,,,,,,,,,,,,,2024-07-08_15h02.06.750,HideSeek_v1,2023.1.3,60.023289031800154,
,2,2,2,5,0,3,64,,train_dim1_1,2,24,2,0,2,0,,,,,,,,,0,0,0,0,0,1,1,1,0,0,0,0,,,,,,,,,,,,,stimuli/alien_stimuli/64.png,,,,,,,,,,,,,,,,,,,,,,,,,,,,,,,stimuli/alien_stimuli/62.png,62,2,3,,,,,,,24,,,,,,,,30.63591329997871,30.63591329997871,30.63591329997871,30.63591329997871,30.63591329997871,up,1.2082372999866493,0,1,0,99,0,-0.15999999999999998,up,1.1144416000461206,None,,,,,29.06905160000315,30.63591329997871,0,-0.32,0.08,0.0,-0.36,0,0.0,0,-0.32,27.935986099997535,27.935986099997535,27.935986099997535,27.935986099997535,27.935986099997535,27.935986099997535,27.935986099997535,27.935986099997535,27.886204619985076,1.3020875999936834,return,1.112310399999842,None,,,,2024-07-08_15h02.06.750,HideSeek_v1,2023.1.3,60.023289031800154,
,2,2,2,5,0,3,64,,train_dim1_1,2,24,2,0,2,0,,,,,,,,,0,0,0,0,0,1,1,1,1,0,1,0,,,,,,,,,,,,,,,,,,,,,,,,,,,,,,,,,,,,,,,,,,,,,,,,,,,,,,24,,,,,,,,31.852290400012862,31.852290400012862,31.852290400012862,31.852290400012862,31.852290400012862,up,0.31035739998333156,0,1,0,99,0,-0.07999999999999997,up,0.20612949994392693,None,,,,,,,,,,,,,,,,,,,,,,,,,,,,,,,,2024-07-08_15h02.06.750,HideSeek_v1,2023.1.3,60.023289031800154,
,2,2,2,5,0,3,64,,train_dim1_1,2,24,2,0,2,0,,,,,,,,,0,0,0,0,0,1,1,1,2,0,2,0,,,,,,,,,,,,,,,,,,,,,,,,,,,,,,,,,,,,,,,,,,,,,,,,,,,,,,24,,,,,,,,32.219027400016785,32.219027400016785,32.219027400016785,32.219027400016785,32.219027400016785,up,0.22742310003377497,0,1,0,99,0,2.7755575615628914e-17,up,0.07441810000455007,None,,,,,,,,,,,,,,,,,,,,,,,,,,,,,,,,2024-07-08_15h02.06.750,HideSeek_v1,2023.1.3,60.023289031800154,
,2,2,2,5,0,3,64,,train_dim1_1,2,24,2,0,2,0,,,,,,,,,0,0,0,0,0,1,1,1,3,0,3,0,,,,,,,,,,,,,,,,,,,,,,,,,,,,,,,,,,,,,,,,,,,,,,,,,,,,,,24,,,,,,,,32.40274260001024,32.40274260001024,32.40274260001024,32.40274260001024,32.40274260001024,return,0.3110101000056602,1,0,0,1,0,2.7755575615628914e-17,return,0.20933009998407215,None,8,0,0,2.7755575615628914e-17,,,,,,,,,,,,,,,,,,,,,,,,,,,,2024-07-08_15h02.06.750,HideSeek_v1,2023.1.3,60.023289031800154,
,3,3,3,8,0,5,66,,train_dim1_1,3,24,2,0,2,0,,,,,,,,,0,0,0,0,0,2,2,2,0,0,0,0,,,,,,,,,,,,,stimuli/alien_stimuli/66.png,,,,,,,,,,,,,,,,,,,,,,,,,,,,,,,stimuli/alien_stimuli/64.png,64,2,4,,,,,,,24,,,,,,,,36.88610870001139,36.88610870001139,36.88610870001139,36.88610870001139,36.88610870001139,right,2.625839799991809,1,0,0,99,0.16,-0.16,right,2.5297622000216506,None,,,,,35.319267600018065,36.88610870001139,0,0,0.24,0.0,-0.12,0,0.0,0,0,34.26962169999024,34.26962169999024,34.26962169999024,34.26962169999024,34.26962169999024,34.26962169999024,34.26962169999024,34.26962169999024,34.25283022998482,1.1680538000073284,return,1.0257622000062838,None,,,,2024-07-08_15h02.06.750,HideSeek_v1,2023.1.3,60.023289031800154,
,3,3,3,8,0,5,66,,train_dim1_1,3,24,2,0,2,0,,,,,,,,,0,0,0,0,0,2,2,2,1,0,1,0,,,,,,,,,,,,,,,,,,,,,,,,,,,,,,,,,,,,,,,,,,,,,,,,,,,,,,24,,,,,,,,39.519308599992655,39.519308599992655,39.519308599992655,39.519308599992655,39.519308599992655,right,1.1938152000075206,1,0,0,99,0.24,-0.16,right,1.0886341000441462,None,,,,,,,,,,,,,,,,,,,,,,,,,,,,,,,,2024-07-08_15h02.06.750,HideSeek_v1,2023.1.3,60.023289031800154,
,3,3,3,8,0,5,66,,train_dim1_1,3,24,2,0,2,0,,,,,,,,,0,0,0,0,0,2,2,2,2,0,2,0,,,,,,,,,,,,,,,,,,,,,,,,,,,,,,,,,,,,,,,,,,,,,,,,,,,,,,24,,,,,,,,40.719623400014825,40.719623400014825,40.719623400014825,40.719623400014825,40.719623400014825,right,0.1605142999906093,1,0,0,99,0.32,-0.16,right,0.05883009999524802,None,,,,,,,,,,,,,,,,,,,,,,,,,,,,,,,,2024-07-08_15h02.06.750,HideSeek_v1,2023.1.3,60.023289031800154,
,3,3,3,8,0,5,66,,train_dim1_1,3,24,2,0,2,0,,,,,,,,,0,0,0,0,0,2,2,2,3,0,3,0,,,,,,,,,,,,,,,,,,,,,,,,,,,,,,,,,,,,,,,,,,,,,,,,,,,,,,24,,,,,,,,40.88592470000731,40.88592470000731,40.88592470000731,40.88592470000731,40.88592470000731,right,0.14382379996823147,1,0,0,99,0.4,-0.16,right,0.036184700031299144,None,,,,,,,,,,,,,,,,,,,,,,,,,,,,,,,,2024-07-08_15h02.06.750,HideSeek_v1,2023.1.3,60.023289031800154,
,3,3,3,8,0,5,66,,train_dim1_1,3,24,2,0,2,0,,,,,,,,,0,0,0,0,0,2,2,2,4,0,4,0,,,,,,,,,,,,,,,,,,,,,,,,,,,,,,,,,,,,,,,,,,,,,,,,,,,,,,24,,,,,,,,41.0359896000009,41.0359896000009,41.0359896000009,41.0359896000009,41.0359896000009,right,0.1442486000014469,1,0,0,99,0.48000000000000004,-0.16,right,0.042449899949133396,None,,,,,,,,,,,,,,,,,,,,,,,,,,,,,,,,2024-07-08_15h02.06.750,HideSeek_v1,2023.1.3,60.023289031800154,
,3,3,3,8,0,5,66,,train_dim1_1,3,24,2,0,2,0,,,,,,,,,0,0,0,0,0,2,2,2,5,0,5,0,,,,,,,,,,,,,,,,,,,,,,,,,,,,,,,,,,,,,,,,,,,,,,,,,,,,,,24,,,,,,,,41.186340800020844,41.186340800020844,41.186340800020844,41.186340800020844,41.186340800020844,right,0.14409580000210553,1,0,0,99,0.56,-0.16,right,0.04969750001328066,None,,,,,,,,,,,,,,,,,,,,,,,,,,,,,,,,2024-07-08_15h02.06.750,HideSeek_v1,2023.1.3,60.023289031800154,
,3,3,3,8,0,5,66,,train_dim1_1,3,24,2,0,2,0,,,,,,,,,0,0,0,0,0,2,2,2,6,0,6,0,,,,,,,,,,,,,,,,,,,,,,,,,,,,,,,,,,,,,,,,,,,,,,,,,,,,,,24,,,,,,,,41.33589480002411,41.33589480002411,41.33589480002411,41.33589480002411,41.33589480002411,right,0.1606488000252284,1,0,0,99,0.64,-0.16,right,0.058959799993317574,None,,,,,,,,,,,,,,,,,,,,,,,,,,,,,,,,2024-07-08_15h02.06.750,HideSeek_v1,2023.1.3,60.023289031800154,
,3,3,3,8,0,5,66,,train_dim1_1,3,24,2,0,2,0,,,,,,,,,0,0,0,0,0,2,2,2,7,0,7,0,,,,,,,,,,,,,,,,,,,,,,,,,,,,,,,,,,,,,,,,,,,,,,,,,,,,,,24,,,,,,,,41.50294039997971,41.50294039997971,41.50294039997971,41.50294039997971,41.50294039997971,right,0.14465089997975156,1,0,0,99,0.72,-0.16,right,0.04236750002019107,None,,,,,,,,,,,,,,,,,,,,,,,,,,,,,,,,2024-07-08_15h02.06.750,HideSeek_v1,2023.1.3,60.023289031800154,
,3,3,3,8,0,5,66,,train_dim1_1,3,24,2,0,2,0,,,,,,,,,0,0,0,0,0,2,2,2,8,0,8,0,,,,,,,,,,,,,,,,,,,,,,,,,,,,,,,,,,,,,,,,,,,,,,,,,,,,,,24,,,,,,,,41.65252760000294,41.65252760000294,41.65252760000294,41.65252760000294,41.65252760000294,right,0.14432149997446686,1,0,0,99,0.7999999999999999,-0.16,right,0.048689299961552024,None,,,,,,,,,,,,,,,,,,,,,,,,,,,,,,,,2024-07-08_15h02.06.750,HideSeek_v1,2023.1.3,60.023289031800154,
,3,3,3,8,0,5,66,,train_dim1_1,3,24,2,0,2,0,,,,,,,,,0,0,0,0,0,2,2,2,9,0,9,0,,,,,,,,,,,,,,,,,,,,,,,,,,,,,,,,,,,,,,,,,,,,,,,,,,,,,,24,,,,,,,,41.802688399970066,41.802688399970066,41.802688399970066,41.802688399970066,41.802688399970066,right,0.1769013000302948,1,0,0,99,0.8799999999999999,-0.16,right,0.07151270000031218,None,,,,,,,,,,,,,,,,,,,,,,,,,,,,,,,,2024-07-08_15h02.06.750,HideSeek_v1,2023.1.3,60.023289031800154,
,3,3,3,8,0,5,66,,train_dim1_1,3,24,2,0,2,0,,,,,,,,,0,0,0,0,0,2,2,2,10,0,10,0,,,,,,,,,,,,,,,,,,,,,,,,,,,,,,,,,,,,,,,,,,,,,,,,,,,,,,24,,,,,,,,41.98631950002164,41.98631950002164,41.98631950002164,41.98631950002164,41.98631950002164,right,0.14390329999150708,1,0,0,99,0.9599999999999999,-0.16,right,0.04360199999064207,None,,,,,,,,,,,,,,,,,,,,,,,,,,,,,,,,2024-07-08_15h02.06.750,HideSeek_v1,2023.1.3,60.023289031800154,
,3,3,3,8,0,5,66,,train_dim1_1,3,24,2,0,2,0,,,,,,,,,0,0,0,0,0,2,2,2,11,0,11,0,,,,,,,,,,,,,,,,,,,,,,,,,,,,,,,,,,,,,,,,,,,,,,,,,,,,,,24,,,,,,,,42.14225229999283,42.14225229999283,42.14225229999283,42.14225229999283,42.14225229999283,right,0.1615858000004664,1,0,0,99,1.0399999999999998,-0.16,right,0.05271499999798834,None,,,,,,,,,,,,,,,,,,,,,,,,,,,,,,,,2024-07-08_15h02.06.750,HideSeek_v1,2023.1.3,60.023289031800154,
,3,3,3,8,0,5,66,,train_dim1_1,3,24,2,0,2,0,,,,,,,,,0,0,0,0,0,2,2,2,12,0,12,0,,,,,,,,,,,,,,,,,,,,,,,,,,,,,,,,,,,,,,,,,,,,,,,,,,,,,,24,,,,,,,,42.302493099996354,42.302493099996354,42.302493099996354,42.302493099996354,42.302493099996354,right,0.14268859999720007,1,0,0,99,1.1199999999999999,-0.16,right,0.04977869999129325,None,,,,,,,,,,,,,,,,,,,,,,,,,,,,,,,,2024-07-08_15h02.06.750,HideSeek_v1,2023.1.3,60.023289031800154,
,3,3,3,8,0,5,66,,train_dim1_1,3,24,2,0,2,0,,,,,,,,,0,0,0,0,0,2,2,2,13,0,13,0,,,,,,,,,,,,,,,,,,,,,,,,,,,,,,,,,,,,,,,,,,,,,,,,,,,,,,24,,,,,,,,42.45290540001588,42.45290540001588,42.45290540001588,42.45290540001588,42.45290540001588,right,0.22716260002925992,1,0,0,99,1.2,-0.16,right,0.12517399998614565,None,,,,,,,,,,,,,,,,,,,,,,,,,,,,,,,,2024-07-08_15h02.06.750,HideSeek_v1,2023.1.3,60.023289031800154,
,3,3,3,8,0,5,66,,train_dim1_1,3,24,2,0,2,0,,,,,,,,,0,0,0,0,0,2,2,2,14,0,14,0,,,,,,,,,,,,,,,,,,,,,,,,,,,,,,,,,,,,,,,,,,,,,,,,,,,,,,24,,,,,,,,42.686034800019115,42.686034800019115,42.686034800019115,42.686034800019115,42.686034800019115,return,0.3769213000196032,1,0,0,0,1.2,-0.16,return,0.2759980999981053,None,8,14,1.2,-0.16,,,,,,,,,,,,,,,,,,,,,,,,,,,,2024-07-08_15h02.06.750,HideSeek_v1,2023.1.3,60.023289031800154,
,,,,,,,,,,,,,,,,,,,,,,,,,,,,,,,,,,,,,,,,,,,,,,,,,,,,,,,,,,,,,,,,,,,,,,,,,,,,,,,,,,,,,,,,,,,,,,,,,,,,,,,,,,,0,,,,,,,,,,43.00235460000113,44.61952700000256,0.08,0.24,0.4,0.0,0.039999999999999994,0.08,0.08,0.08,0.24,44.61952700000256,44.61952700000256,44.61952700000256,44.61952700000256,44.61952700000256,44.61952700000256,44.61952700000256,44.61952700000256,44.602790030004684,,,,,,,,,,,,
