trialInstr,x_fixStart,y_fixStart,x_corrSteps,y_corrSteps,x_nrSteps,y_nrSteps,alienID,trialLength,version,trialTrain,praclen,beforeExpLoop.thisRepN,beforeExpLoop.thisTrialN,beforeExpLoop.thisN,beforeExpLoop.thisIndex,mini_instr_trials.thisRepN,mini_instr_trials.thisTrialN,mini_instr_trials.thisN,mini_instr_trials.thisIndex,instrLoop.thisRepN,instrLoop.thisTrialN,instrLoop.thisN,instrLoop.thisIndex,repeat_prac.thisRepN,repeat_prac.thisTrialN,repeat_prac.thisN,repeat_prac.thisIndex,trainLoop.thisRepN,trainLoop.thisTrialN,trainLoop.thisN,trainLoop.thisIndex,moveLoop_train.thisRepN,moveLoop_train.thisTrialN,moveLoop_train.thisN,moveLoop_train.thisIndex,start_all_time,url,slideStim,audioStim,slides.started,sounds.started,nextButton.numClicks,nextButton.timesOn,nextButton.timesOff,prev_but.numClicks,prev_but.timesOn,prev_but.timesOff,alienStim,instrFile,alienStim_instr,gridImage_instr.started,startPos_3.started,key_instr.started,alienImage_3.started,sounds_1.started,key_instr.keys,key_instr.rt,key_instr.duration,all_x,all_y,FBy_corrSteps,FBy_fixStart,FBx_corrSteps,FBx_fixStart,FBy_pathSize_check,FBx_pathSize_check,gridImage_9.started,alienImageFB_3.started,startPosFB_3.started,keyFB_3.started,pathLine_ydir_2.started,pathLine_xdir_2.started,alienFace_3.started,sounds_2.started,RTFB_instr,keyFB_3.keys,keyFB_3.rt,keyFB_3.duration,draw_alienStim,draw_alienID,test_x,nrepcount,cumAcctrain_check,perfthres,percthres,earlierperf,earlystop,nextPrac,fileidx,praclen,saveACC_train,pracFile,nextPrac_train,addNrep,fileidx_endr,repExp,showearly,gridImage_4.started,startPos.started,movePos.started,key_resp.started,alienImage.started,buttonPress_train,RTchoice_train,cumAcctrain,saveACC_choice,corrAns,x_movePos_end,y_movePos_end,key_resp.keys,key_resp.rt,key_resp.duration,wLy_dir,wLx_dir,x_movePos,y_movePos,text_2.started,text_2.stopped,aft_x_corrPos,aft_y_corrPos,y_pathSize_check,x_pathSize_check,y_pathdirY,x_pathdirY,x_pathdirX,x_corrPos,y_corrPos,gridImage_6.started,alienImageFB_2.started,startPosFB_2.started,movePosFB_2.started,keyFB_2.started,pathLine_xdir.started,pathLine_ydir.started,alienFace.started,sounds_4.started,RT_FBtrain,keyFB_2.keys,keyFB_2.rt,keyFB_2.duration,saveACC_pre,within_saveACC_train,earlystop_wloop,participant,study_id,session_id,date,expName,psychopyVersion,frameRate,
,,,,,,,,,,,,0,0,0,0,0,0,0,0,,,,,,,,,,,,,,,,,start_all_time,testround,stimuli/instructions/Slide1.png,stimuli/instructions/Audio1.wav,9.84314849996008,9.758201580215246,1,[3.233425399987027],[3.233430199790746],0,,,,,,,,,,,,,,,,,,,,,,,,,,,,,,,,,,,,,,,,,,,,,,,,,,,,,,,,,,,,,,,,,,,,,,,,,,,,,,,,,,,,,,,,,,,,,,,,,,,,,,2024-06-25_15h53.26.994,HideSeek_v1,2023.1.3,60.053928446875894,
,,,,,,,,,,,,0,0,0,0,1,0,1,0,,,,,,,,,,,,,,,,,,,stimuli/instructions/Slide2.png,stimuli/instructions/Audio2.wav,13.0760345000308,13.05910490010865,1,[0.3018378000706434],[0.3018467000219971],0,,,,,,,,,,,,,,,,,,,,,,,,,,,,,,,,,,,,,,,,,,,,,,,,,,,,,,,,,,,,,,,,,,,,,,,,,,,,,,,,,,,,,,,,,,,,,,,,,,,,,,2024-06-25_15h53.26.994,HideSeek_v1,2023.1.3,60.053928446875894,
,,,,,,,,,,,,0,0,0,0,2,0,2,0,,,,,,,,,,,,,,,,,,,stimuli/instructions/Slide3.png,stimuli/instructions/Audio3.wav,13.475723800016567,13.45905808005482,1,[0.2358613999094814],[0.23586810007691383],0,,,,,,,,,,,,,,,,,,,,,,,,,,,,,,,,,,,,,,,,,,,,,,,,,,,,,,,,,,,,,,,,,,,,,,,,,,,,,,,,,,,,,,,,,,,,,,,,,,,,,,2024-06-25_15h53.26.994,HideSeek_v1,2023.1.3,60.053928446875894,
,,,,,,,,,,,,0,0,0,0,3,0,3,0,,,,,,,,,,,,,,,,,,,stimuli/instructions/Slide4.png,stimuli/instructions/Audio4.wav,13.826074700104073,13.809265660028906,1,[0.1708559999242425],[0.17086419998668134],0,,,,,,,,,,,,,,,,,,,,,,,,,,,,,,,,,,,,,,,,,,,,,,,,,,,,,,,,,,,,,,,,,,,,,,,,,,,,,,,,,,,,,,,,,,,,,,,,,,,,,,2024-06-25_15h53.26.994,HideSeek_v1,2023.1.3,60.053928446875894,
,,,,,,,,,,,,0,0,0,0,4,0,4,0,,,,,,,,,,,,,,,,,,,stimuli/instructions/Slide5.png,stimuli/instructions/Audio5.wav,14.042810499900952,14.042439919942991,1,[0.1986866001971066],[0.19869430013932288],0,,,,,,,,,,,,,,,,,,,,,,,,,,,,,,,,,,,,,,,,,,,,,,,,,,,,,,,,,,,,,,,,,,,,,,,,,,,,,,,,,,,,,,,,,,,,,,,,,,,,,,2024-06-25_15h53.26.994,HideSeek_v1,2023.1.3,60.053928446875894,
,,,,,,,,,,,,0,0,0,0,5,0,5,0,,,,,,,,,,,,,,,,,,,stimuli/instructions/Slide6.png,stimuli/instructions/Audio6.wav,14.294656600104645,14.292436919920148,1,[0.19930660002864897],[0.19931209995411336],0,,,,,,,,,,,,,,,,,,,,,,,,,,,,,,,,,,,,,,,,,,,,,,,,,,,,,,,,,,,,,,,,,,,,,,,,,,,,,,,,,,,,,,,,,,,,,,,,,,,,,,2024-06-25_15h53.26.994,HideSeek_v1,2023.1.3,60.053928446875894,
,,,,,,,,,,,,0,0,0,0,6,0,6,0,,,,,,,,,,,,,,,,,,,stimuli/instructions/Slide7.png,stimuli/instructions/Audio7.wav,14.544101499952376,14.54234591992572,1,[0.24833840015344322],[0.2483447000849992],0,,,,,,,,,,,,,,,,,,,,,,,,,,,,,,,,,,,,,,,,,,,,,,,,,,,,,,,,,,,,,,,,,,,,,,,,,,,,,,,,,,,,,,,,,,,,,,,,,,,,,,2024-06-25_15h53.26.994,HideSeek_v1,2023.1.3,60.053928446875894,
,,,,,,,,,,,,0,0,0,0,7,0,7,0,,,,,,,,,,,,,,,,,,,stimuli/instructions/Slide8.png,stimuli/instructions/Audio8.wav,14.861772600095719,14.859599299961701,1,[0.1299332999624312],[0.12994110002182424],0,,,,,,,,,,,,,,,,,,,,,,,,,,,,,,,,,,,,,,,,,,,,,,,,,,,,,,,,,,,,,,,,,,,,,,,,,,,,,,,,,,,,,,,,,,,,,,,,,,,,,,2024-06-25_15h53.26.994,HideSeek_v1,2023.1.3,60.053928446875894,
,,,,,,,,,,,,0,0,0,0,8,0,8,0,,,,,,,,,,,,,,,,,,,stimuli/instructions/Slide9.png,stimuli/instructions/Audio9.wav,15.059184199897572,15.042361819930376,1,[0.10735659999772906],[0.10736400005407631],0,,,,,,,,,,,,,,,,,,,,,,,,,,,,,,,,,,,,,,,,,,,,,,,,,,,,,,,,,,,,,,,,,,,,,,,,,,,,,,,,,,,,,,,,,,,,,,,,,,,,,,2024-06-25_15h53.26.994,HideSeek_v1,2023.1.3,60.053928446875894,
,,,,,,,,,,,,0,0,0,0,9,0,9,0,,,,,,,,,,,,,,,,,,,stimuli/instructions/Slide10.png,stimuli/instructions/Audio10.wav,15.225762099958956,15.209204719914124,1,[0.10932230018079281],[0.10932980012148619],0,,,,,,,,,,,,,,,,,,,,,,,,,,,,,,,,,,,,,,,,,,,,,,,,,,,,,,,,,,,,,,,,,,,,,,,,,,,,,,,,,,,,,,,,,,,,,,,,,,,,,,2024-06-25_15h53.26.994,HideSeek_v1,2023.1.3,60.053928446875894,
,,,,,,,,,,,,0,0,0,0,10,0,10,0,,,,,,,,,,,,,,,,,,,stimuli/instructions/Slide11.png,stimuli/instructions/Audio11.wav,15.393290600040928,15.376348420092837,1,[0.11889119981788099],[0.11889629997313023],0,,,,,,,,,,,,,,,,,,,,,,,,,,,,,,,,,,,,,,,,,,,,,,,,,,,,,,,,,,,,,,,,,,,,,,,,,,,,,,,,,,,,,,,,,,,,,,,,,,,,,,2024-06-25_15h53.26.994,HideSeek_v1,2023.1.3,60.053928446875894,
,,,,,,,,,,,,0,0,0,0,11,0,11,0,,,,,,,,,,,,,,,,,,,stimuli/instructions/Slide12.png,stimuli/instructions/Audio12.wav,15.578570999903604,15.57579950010404,1,[0.13002249994315207],[0.13002769998274744],0,,,,,,,,,,,,,,,,,,,,,,,,,,,,,,,,,,,,,,,,,,,,,,,,,,,,,,,,,,,,,,,,,,,,,,,,,,,,,,,,,,,,,,,,,,,,,,,,,,,,,,2024-06-25_15h53.26.994,HideSeek_v1,2023.1.3,60.053928446875894,
1,0,3,0,8,0,5,66,2,instr_dim1_1,,,0,0,0,0,,,,,0,0,0,0,,,,,,,,,,,,,,,,,,,,,,,,,stimuli/alien_stimuli/66.png,conditions/inputInstr_1.xlsx,stimuli/alien_stimuli/66.png,15.859010699903592,15.859010699903592,15.859010699903592,15.859010699903592,15.775852400111035,return,0.915133000118658,None,"[-0.16, -0.08, 0, 0.08, 0.16, 0.24, 0.32, 0.4, 0.48, 0.56]","[-0.4, -0.32, -0.24, -0.16, -0.08, 0, 0.08, 0.16, 0.24, 0.32]",8,3,0,0,0.4,0.0,16.95946849999018,16.95946849999018,16.95946849999018,16.95946849999018,16.95946849999018,16.95946849999018,16.95946849999018,16.908951239986347,0.2340375001076609,return,0.04150630021467805,None,stimuli/alien_stimuli/66.png,66,0,1,,,,,,,,,,,,,,,,,,,,,,,,,,,,,,,,,,,,,,,,,,,,,,,,,,,,,,,,,,,,,,,,,2024-06-25_15h53.26.994,HideSeek_v1,2023.1.3,60.053928446875894,
,,,,,,,,,,,24,0,0,0,0,,,,,,,,,,,,,,,,,,,,,,,,,,,,,,,,,,,,,,,,,,,,,,,,,,,,,,,,,,,,,,,,,,,,0,17,70,0,0,99,1,24,0,conditions/inputTrain_1.1.xlsx,99,1,1,1,0,,,,,,,,,,,,,,,,,,,,,,,,,,,,,,,,,,,,,,,,,,,,,,,,,,2024-06-25_15h53.26.994,HideSeek_v1,2023.1.3,60.053928446875894,
,,,,,,,,,,,,1,0,1,0,0,0,0,0,,,,,,,,,,,,,,,,,,,stimuli/instructions/Slide13.png,stimuli/instructions/Audio13.wav,17.226680099964142,17.20909066000022,1,[0.551143400138244],[0.551147700054571],0,,,,,,,,,,,,,,,,,,,,,,,,,,,,,,,,,,,,,,,,,,,,,,,,,,,,,,,,,,,,,,,,,,,,,,,,,,,,,,,,,,,,,,,,,,,,,,,,,,,,,,2024-06-25_15h53.26.994,HideSeek_v1,2023.1.3,60.053928446875894,
,,,,,,,,,,,,1,0,1,0,1,0,1,0,,,,,,,,,,,,,,,,,,,stimuli/instructions/Slide14.png,stimuli/instructions/Audio14.wav,17.858914900105447,17.8420080000069,1,[0.13884509983472526],[0.13885220000520349],0,,,,,,,,,,,,,,,,,,,,,,,,,,,,,,,,,,,,,,,,,,,,,,,,,,,,,,,,,,,,,,,,,,,,,,,,,,,,,,,,,,,,,,,,,,,,,,,,,,,,,,2024-06-25_15h53.26.994,HideSeek_v1,2023.1.3,60.053928446875894,
2,2,3,2,3,0,0,61,2,instr_dim1_1,,,1,0,1,0,,,,,0,0,0,0,,,,,,,,,,,,,,,,,,,,,,,,,stimuli/alien_stimuli/61.png,conditions/inputInstr_1.xlsx,stimuli/alien_stimuli/61.png,18.075489500071853,18.075489500071853,18.075489500071853,18.075489500071853,18.05930280010216,return,0.44738090015016496,None,"[-0.16, -0.08, 0, 0.08, 0.16, 0.24, 0.32, 0.4, 0.48, 0.56]","[-0.4, -0.32, -0.24, -0.16, -0.08, 0, 0.08, 0.16, 0.24, 0.32]",3,3,2,2,0.0,0.0,18.708943099947646,18.708943099947646,18.708943099947646,18.708943099947646,18.708943099947646,18.708943099947646,18.708943099947646,18.692662900080904,0.21713619981892407,return,0.015047900145873427,None,stimuli/alien_stimuli/61.png,61,2,2,,,,,,,,,,,,,,,,,,,,,,,,,,,,,,,,,,,,,,,,,,,,,,,,,,,,,,,,,,,,,,,,,2024-06-25_15h53.26.994,HideSeek_v1,2023.1.3,60.053928446875894,
,,,,,,,,,,,24,1,0,1,0,,,,,,,,,,,,,,,,,,,,,,,,,,,,,,,,,,,,,,,,,,,,,,,,,,,,,,,,,,,,,,,,,,,,0,17,70,0,0,99,1,24,0,conditions/inputTrain_1.1.xlsx,99,1,1,1,0,,,,,,,,,,,,,,,,,,,,,,,,,,,,,,,,,,,,,,,,,,,,,,,,,,2024-06-25_15h53.26.994,HideSeek_v1,2023.1.3,60.053928446875894,
,,,,,,,,,,,,2,0,2,0,0,0,0,0,,,,,,,,,,,,,,,,,,,stimuli/instructions/Slide15.png,stimuli/instructions/Audio15.wav,18.97586439992301,18.959430540073665,1,[0.5575375999324024],[0.5575423000846058],0,,,,,,,,,,,,,,,,,,,,,,,,,,,,,,,,,,,,,,,,,,,,,,,,,,,,,,,,,,,,,,,,,,,,,,,,,,,,,,,,,,,,,,,,,,,,,,,,,,,,,,2024-06-25_15h53.26.994,HideSeek_v1,2023.1.3,60.053928446875894,
,,,,,,,,,,,,2,0,2,0,1,0,1,0,,,,,,,,,,,,,,,,,,,stimuli/instructions/Slide16.png,stimuli/instructions/Audio16.wav,19.610751000000164,19.608911179890857,1,[0.43396409996785223],[0.43396980012767017],0,,,,,,,,,,,,,,,,,,,,,,,,,,,,,,,,,,,,,,,,,,,,,,,,,,,,,,,,,,,,,,,,,,,,,,,,,,,,,,,,,,,,,,,,,,,,,,,,,,,,,,2024-06-25_15h53.26.994,HideSeek_v1,2023.1.3,60.053928446875894,
,2,0,2,1,0,1,62,,train_dim1_1,1,24,2,0,2,0,,,,,,,,,0,0,0,0,0,0,0,0,0,0,0,0,,,,,,,,,,,,,stimuli/alien_stimuli/62.png,,,,,,,,,,,,,,,,,,,,,,,,,,,,,,,,,,,,,,,,,,24,,,,,,,,20.142212599981576,20.142212599981576,20.142212599981576,20.142212599981576,20.142212599981576,up,1.057738000061363,0,0,99,0,-0.32,up,0.932323900051415,None,,,,,,,,,,,,,,,,,,,,,,,,,,,,,,,,,,,2024-06-25_15h53.26.994,HideSeek_v1,2023.1.3,60.053928446875894,
,2,0,2,1,0,1,62,,train_dim1_1,1,24,2,0,2,0,,,,,,,,,0,0,0,0,0,0,0,0,1,0,1,0,,,,,,,,,,,,,,,,,,,,,,,,,,,,,,,,,,,,,,,,,,,,,,,,,,,,,,,24,,,,,,,,21.225721599999815,21.225721599999815,21.225721599999815,21.225721599999815,21.225721599999815,return,0.47760359989479184,1,0,1,0,-0.32,return,0.3429647001903504,None,1,0,0,-0.32,,,,,,,,,,,,,,,,,,,,,,,,,,,,,,,2024-06-25_15h53.26.994,HideSeek_v1,2023.1.3,60.053928446875894,
,2,2,2,5,0,3,64,,train_dim1_1,2,24,2,0,2,0,,,,,,,,,0,0,0,0,0,1,1,1,0,0,0,0,,,,,,,,,,,,,stimuli/alien_stimuli/64.png,,,,,,,,,,,,,,,,,,,,,,,,,,,,,,,stimuli/alien_stimuli/62.png,62,2,3,,,,,,,,24,,,,,,,,25.175827899947762,25.175827899947762,25.175827899947762,25.175827899947762,25.175827899947762,up,0.4082941999658942,1,0,99,0,-0.15999999999999998,up,0.30645060003735125,None,,,,,23.60897310008295,25.175827899947762,0,-0.32,0.08,0.0,-0.36,0,0.0,0,-0.32,23.326113099930808,23.326113099930808,23.326113099930808,23.326113099930808,23.326113099930808,23.326113099930808,23.326113099930808,23.326113099930808,23.208984960010277,0.5008926999289542,return,0.2624719000887126,None,,,,,,,2024-06-25_15h53.26.994,HideSeek_v1,2023.1.3,60.053928446875894,
,2,2,2,5,0,3,64,,train_dim1_1,2,24,2,0,2,0,,,,,,,,,0,0,0,0,0,1,1,1,1,0,1,0,,,,,,,,,,,,,,,,,,,,,,,,,,,,,,,,,,,,,,,,,,,,,,,,,,,,,,,24,,,,,,,,25.592209700029343,25.592209700029343,25.592209700029343,25.592209700029343,25.592209700029343,up,0.2770741998683661,1,0,99,0,-0.07999999999999997,up,0.17753700027242303,None,,,,,,,,,,,,,,,,,,,,,,,,,,,,,,,,,,,2024-06-25_15h53.26.994,HideSeek_v1,2023.1.3,60.053928446875894,
,2,2,2,5,0,3,64,,train_dim1_1,2,24,2,0,2,0,,,,,,,,,0,0,0,0,0,1,1,1,2,0,2,0,,,,,,,,,,,,,,,,,,,,,,,,,,,,,,,,,,,,,,,,,,,,,,,,,,,,,,,24,,,,,,,,25.876712800003588,25.876712800003588,25.876712800003588,25.876712800003588,25.876712800003588,up,0.2776546999812126,1,0,99,0,2.7755575615628914e-17,up,0.1826410002540797,None,,,,,,,,,,,,,,,,,,,,,,,,,,,,,,,,,,,2024-06-25_15h53.26.994,HideSeek_v1,2023.1.3,60.053928446875894,
,2,2,2,5,0,3,64,,train_dim1_1,2,24,2,0,2,0,,,,,,,,,0,0,0,0,0,1,1,1,3,0,3,0,,,,,,,,,,,,,,,,,,,,,,,,,,,,,,,,,,,,,,,,,,,,,,,,,,,,,,,24,,,,,,,,26.15905259991996,26.15905259991996,26.15905259991996,26.15905259991996,26.15905259991996,return,0.310459699947387,2,0,1,0,2.7755575615628914e-17,return,0.21541850012727082,None,4,0,0,2.7755575615628914e-17,,,,,,,,,,,,,,,,,,,,,,,,,,,,,,,2024-06-25_15h53.26.994,HideSeek_v1,2023.1.3,60.053928446875894,
,3,3,3,8,0,5,66,,train_dim1_1,3,24,2,0,2,0,,,,,,,,,0,0,0,0,0,2,2,2,0,0,0,0,,,,,,,,,,,,,stimuli/alien_stimuli/66.png,,,,,,,,,,,,,,,,,,,,,,,,,,,,,,,stimuli/alien_stimuli/64.png,64,2,4,,,,,,,,24,,,,,,,,29.892249000025913,29.892249000025913,29.892249000025913,29.892249000025913,29.892249000025913,up,0.32477169996127486,2,0,99,0.08,-0.08,up,0.22226050030440092,None,,,,,28.310635899892077,28.042529599973932,0,0,0.24,0.0,-0.12,0,0.0,0,0,28.042529599973932,28.042529599973932,28.042529599973932,28.042529599973932,28.042529599973932,28.042529599973932,28.042529599973932,28.042529599973932,28.0255166400224,0.4019474000670016,return,0.2501194002106786,None,,,,,,,2024-06-25_15h53.26.994,HideSeek_v1,2023.1.3,60.053928446875894,
,3,3,3,8,0,5,66,,train_dim1_1,3,24,2,0,2,0,,,,,,,,,0,0,0,0,0,2,2,2,1,0,1,0,,,,,,,,,,,,,,,,,,,,,,,,,,,,,,,,,,,,,,,,,,,,,,,,,,,,,,,24,,,,,,,,30.209694999968633,30.209694999968633,30.209694999968633,30.209694999968633,30.209694999968633,up,0.2604820001870394,2,0,99,0.08,0.0,up,0.17461040010675788,None,,,,,,,,,,,,,,,,,,,,,,,,,,,,,,,,,,,2024-06-25_15h53.26.994,HideSeek_v1,2023.1.3,60.053928446875894,
,3,3,3,8,0,5,66,,train_dim1_1,3,24,2,0,2,0,,,,,,,,,0,0,0,0,0,2,2,2,2,0,2,0,,,,,,,,,,,,,,,,,,,,,,,,,,,,,,,,,,,,,,,,,,,,,,,,,,,,,,,24,,,,,,,,30.47736019990407,30.47736019990407,30.47736019990407,30.47736019990407,30.47736019990407,up,0.2440253000240773,2,0,99,0.08,0.08,up,0.15360210021026433,None,,,,,,,,,,,,,,,,,,,,,,,,,,,,,,,,,,,2024-06-25_15h53.26.994,HideSeek_v1,2023.1.3,60.053928446875894,
,3,3,3,8,0,5,66,,train_dim1_1,3,24,2,0,2,0,,,,,,,,,0,0,0,0,0,2,2,2,3,0,3,0,,,,,,,,,,,,,,,,,,,,,,,,,,,,,,,,,,,,,,,,,,,,,,,,,,,,,,,24,,,,,,,,30.72668999992311,30.72668999992311,30.72668999992311,30.72668999992311,30.72668999992311,up,0.244817900005728,2,0,99,0.08,0.16,up,0.16453920025378466,None,,,,,,,,,,,,,,,,,,,,,,,,,,,,,,,,,,,2024-06-25_15h53.26.994,HideSeek_v1,2023.1.3,60.053928446875894,
,3,3,3,8,0,5,66,,train_dim1_1,3,24,2,0,2,0,,,,,,,,,0,0,0,0,0,2,2,2,4,0,4,0,,,,,,,,,,,,,,,,,,,,,,,,,,,,,,,,,,,,,,,,,,,,,,,,,,,,,,,24,,,,,,,,30.99226039997302,30.99226039997302,30.99226039997302,30.99226039997302,30.99226039997302,up,0.2769525998737663,2,0,99,0.08,0.24,up,0.17751870001666248,None,,,,,,,,,,,,,,,,,,,,,,,,,,,,,,,,,,,2024-06-25_15h53.26.994,HideSeek_v1,2023.1.3,60.053928446875894,
,3,3,3,8,0,5,66,,train_dim1_1,3,24,2,0,2,0,,,,,,,,,0,0,0,0,0,2,2,2,5,0,5,0,,,,,,,,,,,,,,,,,,,,,,,,,,,,,,,,,,,,,,,,,,,,,,,,,,,,,,,24,,,,,,,,31.292008799966425,31.292008799966425,31.292008799966425,31.292008799966425,31.292008799966425,return,0.27722560008987784,3,0,1,0.08,0.24,return,0.16377980005927384,None,9,0,0.08,0.24,,,,,,,,,,,,,,,,,,,,,,,,,,,,,,,2024-06-25_15h53.26.994,HideSeek_v1,2023.1.3,60.053928446875894,
,4,4,4,8,0,4,65,,train_dim1_1,4,24,2,0,2,0,,,,,,,,,0,0,0,0,0,3,3,3,0,0,0,0,,,,,,,,,,,,,stimuli/alien_stimuli/65.png,,,,,,,,,,,,,,,,,,,,,,,,,,,,,,,stimuli/alien_stimuli/66.png,66,3,5,,,,,,,,24,,,,,,,,34.97542809997685,34.97542809997685,34.97542809997685,34.97542809997685,34.97542809997685,up,0.358403799822554,3,0,99,0.16,0.0,up,0.2604058999568224,None,,,,,33.40900580002926,34.97542809997685,0.08,0.24,0.4,0.0,0.039999999999999994,0.08,0.08,0.08,0.24,33.12543380004354,33.12543380004354,33.12543380004354,33.12543380004354,33.12543380004354,33.12543380004354,33.12543380004354,33.12543380004354,33.108856439916416,0.41850519995205104,return,0.26750270021148026,None,,,,,,,2024-06-25_15h53.26.994,HideSeek_v1,2023.1.3,60.053928446875894,
,4,4,4,8,0,4,65,,train_dim1_1,4,24,2,0,2,0,,,,,,,,,0,0,0,0,0,3,3,3,1,0,1,0,,,,,,,,,,,,,,,,,,,,,,,,,,,,,,,,,,,,,,,,,,,,,,,,,,,,,,,24,,,,,,,,35.32768299989402,35.32768299989402,35.32768299989402,35.32768299989402,35.32768299989402,up,0.24393279990181327,3,0,99,0.16,0.08,up,0.148717500269413,None,,,,,,,,,,,,,,,,,,,,,,,,,,,,,,,,,,,2024-06-25_15h53.26.994,HideSeek_v1,2023.1.3,60.053928446875894,
,4,4,4,8,0,4,65,,train_dim1_1,4,24,2,0,2,0,,,,,,,,,0,0,0,0,0,3,3,3,2,0,2,0,,,,,,,,,,,,,,,,,,,,,,,,,,,,,,,,,,,,,,,,,,,,,,,,,,,,,,,24,,,,,,,,35.57839890010655,35.57839890010655,35.57839890010655,35.57839890010655,35.57839890010655,up,0.21038040006533265,3,0,99,0.16,0.16,up,0.12949040019884706,None,,,,,,,,,,,,,,,,,,,,,,,,,,,,,,,,,,,2024-06-25_15h53.26.994,HideSeek_v1,2023.1.3,60.053928446875894,
,4,4,4,8,0,4,65,,train_dim1_1,4,24,2,0,2,0,,,,,,,,,0,0,0,0,0,3,3,3,3,0,3,0,,,,,,,,,,,,,,,,,,,,,,,,,,,,,,,,,,,,,,,,,,,,,,,,,,,,,,,24,,,,,,,,35.7948360000737,35.7948360000737,35.7948360000737,35.7948360000737,35.7948360000737,up,0.22772340010851622,3,0,99,0.16,0.24,up,0.14576210011728108,None,,,,,,,,,,,,,,,,,,,,,,,,,,,,,,,,,,,2024-06-25_15h53.26.994,HideSeek_v1,2023.1.3,60.053928446875894,
,4,4,4,8,0,4,65,,train_dim1_1,4,24,2,0,2,0,,,,,,,,,0,0,0,0,0,3,3,3,4,0,4,0,,,,,,,,,,,,,,,,,,,,,,,,,,,,,,,,,,,,,,,,,,,,,,,,,,,,,,,24,,,,,,,,36.029491799883544,36.029491799883544,36.029491799883544,36.029491799883544,36.029491799883544,return,0.24389040004462004,4,0,1,0.16,0.24,return,0.15042080008424819,None,13,0,0.16,0.24,,,,,,,,,,,,,,,,,,,,,,,,,,,,,,,2024-06-25_15h53.26.994,HideSeek_v1,2023.1.3,60.053928446875894,
,3,4,3,5,0,1,62,,train_dim1_1,5,24,2,0,2,0,,,,,,,,,0,0,0,0,0,4,4,4,0,0,0,0,,,,,,,,,,,,,stimuli/alien_stimuli/62.png,,,,,,,,,,,,,,,,,,,,,,,,,,,,,,,stimuli/alien_stimuli/65.png,65,4,6,,,,,,,,24,,,,,,,,40.094992799917236,40.094992799917236,40.094992799917236,40.094992799917236,40.094992799917236,up,0.4747673000674695,4,0,99,0.08,0.0,up,0.39400699990801513,None,,,,,38.54198549990542,40.094992799917236,0.16,0.24,0.32,0.0,0.07999999999999999,0.16,0.16,0.16,0.24,37.84199299989268,37.84199299989268,37.84199299989268,37.84199299989268,37.84199299989268,37.84199299989268,37.84199299989268,37.84199299989268,37.82515885997563,0.8180730999447405,return,0.6754260000307113,None,,,,,,,2024-06-25_15h53.26.994,HideSeek_v1,2023.1.3,60.053928446875894,
,3,4,3,5,0,1,62,,train_dim1_1,5,24,2,0,2,0,,,,,,,,,0,0,0,0,0,4,4,4,1,0,1,0,,,,,,,,,,,,,,,,,,,,,,,,,,,,,,,,,,,,,,,,,,,,,,,,,,,,,,,24,,,,,,,,40.57741230004467,40.57741230004467,40.57741230004467,40.57741230004467,40.57741230004467,return,0.31031020008958876,5,0,1,0.08,0.0,return,0.22839400032535195,None,14,0,0.08,0.0,,,,,,,,,,,,,,,,,,,,,,,,,,,,,,,2024-06-25_15h53.26.994,HideSeek_v1,2023.1.3,60.053928446875894,
,4,0,4,4,0,4,65,,train_dim1_1,6,24,2,0,2,0,,,,,,,,,0,0,0,0,0,5,5,5,0,0,0,0,,,,,,,,,,,,,stimuli/alien_stimuli/65.png,,,,,,,,,,,,,,,,,,,,,,,,,,,,,,,stimuli/alien_stimuli/62.png,62,3,7,,,,,,,,24,,,,,,,,44.71132760006003,44.71132760006003,44.71132760006003,44.71132760006003,44.71132760006003,up,0.40823469986207783,5,0,99,0.16,-0.32,up,0.32395610003732145,None,,,,,43.15893319994211,44.71132760006003,0.08,0,0.08,0.0,-0.04,0.08,0.08,0.08,0,42.458719100104645,42.458719100104645,42.458719100104645,42.458719100104645,42.458719100104645,42.458719100104645,42.458719100104645,42.458719100104645,42.442016659909854,0.8179508000612259,return,0.6723808001261204,None,,,,,,,2024-06-25_15h53.26.994,HideSeek_v1,2023.1.3,60.053928446875894,
,4,0,4,4,0,4,65,,train_dim1_1,6,24,2,0,2,0,,,,,,,,,0,0,0,0,0,5,5,5,1,0,1,0,,,,,,,,,,,,,,,,,,,,,,,,,,,,,,,,,,,,,,,,,,,,,,,,,,,,,,,24,,,,,,,,45.126375699881464,45.126375699881464,45.126375699881464,45.126375699881464,45.126375699881464,up,0.26035159989260137,5,0,99,0.16,-0.24,up,0.1707577002234757,None,,,,,,,,,,,,,,,,,,,,,,,,,,,,,,,,,,,2024-06-25_15h53.26.994,HideSeek_v1,2023.1.3,60.053928446875894,
,4,0,4,4,0,4,65,,train_dim1_1,6,24,2,0,2,0,,,,,,,,,0,0,0,0,0,5,5,5,2,0,2,0,,,,,,,,,,,,,,,,,,,,,,,,,,,,,,,,,,,,,,,,,,,,,,,,,,,,,,,24,,,,,,,,45.39397530001588,45.39397530001588,45.39397530001588,45.39397530001588,45.39397530001588,up,0.26068939990364015,5,0,99,0.16,-0.15999999999999998,up,0.18211739999242127,None,,,,,,,,,,,,,,,,,,,,,,,,,,,,,,,,,,,2024-06-25_15h53.26.994,HideSeek_v1,2023.1.3,60.053928446875894,
,4,0,4,4,0,4,65,,train_dim1_1,6,24,2,0,2,0,,,,,,,,,0,0,0,0,0,5,5,5,3,0,3,0,,,,,,,,,,,,,,,,,,,,,,,,,,,,,,,,,,,,,,,,,,,,,,,,,,,,,,,24,,,,,,,,45.66322489990853,45.66322489990853,45.66322489990853,45.66322489990853,45.66322489990853,up,0.27767039998434484,5,0,99,0.16,-0.07999999999999997,up,0.19331320002675056,None,,,,,,,,,,,,,,,,,,,,,,,,,,,,,,,,,,,2024-06-25_15h53.26.994,HideSeek_v1,2023.1.3,60.053928446875894,
,4,0,4,4,0,4,65,,train_dim1_1,6,24,2,0,2,0,,,,,,,,,0,0,0,0,0,5,5,5,4,0,4,0,,,,,,,,,,,,,,,,,,,,,,,,,,,,,,,,,,,,,,,,,,,,,,,,,,,,,,,24,,,,,,,,45.94517099997029,45.94517099997029,45.94517099997029,45.94517099997029,45.94517099997029,return,0.6281131999567151,6,0,1,0.16,-0.07999999999999997,return,0.5462451002094895,None,18,0,0.16,-0.07999999999999997,,,,,,,,,,,,,,,,,,,,,,,,,,,,,,,2024-06-25_15h53.26.994,HideSeek_v1,2023.1.3,60.053928446875894,
,0,3,0,6,0,3,64,,train_dim1_1,7,24,2,0,2,0,,,,,,,,,0,0,0,0,0,6,6,6,0,0,0,0,,,,,,,,,,,,,stimuli/alien_stimuli/64.png,,,,,,,,,,,,,,,,,,,,,,,,,,,,,,,stimuli/alien_stimuli/65.png,65,4,8,,,,,,,,24,,,,,,,,50.64608999993652,50.64608999993652,50.64608999993652,50.64608999993652,50.64608999993652,up,0.3406538001727313,6,0,99,-0.16,-0.08,up,0.2600346002727747,None,,,,,49.092754000099376,50.64608999993652,0.16,-0.08,0.32,0.0,-0.24000000000000002,0.16,0.16,0.16,-0.08,48.12689490010962,48.12689490010962,48.12689490010962,48.12689490010962,48.12689490010962,48.12689490010962,48.12689490010962,48.12689490010962,48.108629679959265,1.068151299841702,return,0.9379726001061499,None,,,,,,,2024-06-25_15h53.26.994,HideSeek_v1,2023.1.3,60.053928446875894,
,0,3,0,6,0,3,64,,train_dim1_1,7,24,2,0,2,0,,,,,,,,,0,0,0,0,0,6,6,6,1,0,1,0,,,,,,,,,,,,,,,,,,,,,,,,,,,,,,,,,,,,,,,,,,,,,,,,,,,,,,,24,,,,,,,,50.99518930003978,50.99518930003978,50.99518930003978,50.99518930003978,50.99518930003978,up,0.24378160014748573,6,0,99,-0.16,0.0,up,0.14983510016463697,None,,,,,,,,,,,,,,,,,,,,,,,,,,,,,,,,,,,2024-06-25_15h53.26.994,HideSeek_v1,2023.1.3,60.053928446875894,
,0,3,0,6,0,3,64,,train_dim1_1,7,24,2,0,2,0,,,,,,,,,0,0,0,0,0,6,6,6,2,0,2,0,,,,,,,,,,,,,,,,,,,,,,,,,,,,,,,,,,,,,,,,,,,,,,,,,,,,,,,24,,,,,,,,51.24550190009177,51.24550190009177,51.24550190009177,51.24550190009177,51.24550190009177,up,0.16053249989636242,6,0,99,-0.16,0.08,up,0.07409870019182563,None,,,,,,,,,,,,,,,,,,,,,,,,,,,,,,,,,,,2024-06-25_15h53.26.994,HideSeek_v1,2023.1.3,60.053928446875894,
,0,3,0,6,0,3,64,,train_dim1_1,7,24,2,0,2,0,,,,,,,,,0,0,0,0,0,6,6,6,3,0,3,0,,,,,,,,,,,,,,,,,,,,,,,,,,,,,,,,,,,,,,,,,,,,,,,,,,,,,,,24,,,,,,,,51.412660599919036,51.412660599919036,51.412660599919036,51.412660599919036,51.412660599919036,return,0.32801309996284544,7,0,1,-0.16,0.08,return,0.24537410028278828,None,21,0,-0.16,0.08,,,,,,,,,,,,,,,,,,,,,,,,,,,,,,,2024-06-25_15h53.26.994,HideSeek_v1,2023.1.3,60.053928446875894,
,4,1,4,6,0,5,66,,train_dim1_1,8,24,2,0,2,0,,,,,,,,,0,0,0,0,0,7,7,7,0,0,0,0,,,,,,,,,,,,,stimuli/alien_stimuli/66.png,,,,,,,,,,,,,,,,,,,,,,,,,,,,,,,stimuli/alien_stimuli/64.png,64,0,9,,,,,,,,24,,,,,,,,55.91206969995983,55.91206969995983,55.91206969995983,55.91206969995983,55.91206969995983,up,0.4419631001073867,7,0,99,0.16,-0.24,up,0.3523353000637144,None,,,,,54.358642200008035,55.91206969995983,-0.16,0.08,0.24,0.0,-0.04,-0.16,-0.16,-0.16,0.08,53.31005760002881,53.31005760002881,53.31005760002881,53.31005760002881,53.31005760002881,53.31005760002881,53.31005760002881,53.31005760002881,53.29227206008508,1.167401700047776,return,1.029251400148496,None,,,,,,,2024-06-25_15h53.26.994,HideSeek_v1,2023.1.3,60.053928446875894,
,4,1,4,6,0,5,66,,train_dim1_1,8,24,2,0,2,0,,,,,,,,,0,0,0,0,0,7,7,7,1,0,1,0,,,,,,,,,,,,,,,,,,,,,,,,,,,,,,,,,,,,,,,,,,,,,,,,,,,,,,,24,,,,,,,,56.36301389988512,56.36301389988512,56.36301389988512,56.36301389988512,56.36301389988512,up,0.22642080020159483,7,0,99,0.16,-0.15999999999999998,up,0.1374380001798272,None,,,,,,,,,,,,,,,,,,,,,,,,,,,,,,,,,,,2024-06-25_15h53.26.994,HideSeek_v1,2023.1.3,60.053928446875894,
,4,1,4,6,0,5,66,,train_dim1_1,8,24,2,0,2,0,,,,,,,,,0,0,0,0,0,7,7,7,2,0,2,0,,,,,,,,,,,,,,,,,,,,,,,,,,,,,,,,,,,,,,,,,,,,,,,,,,,,,,,24,,,,,,,,56.594407099997625,56.594407099997625,56.594407099997625,56.594407099997625,56.594407099997625,up,0.22761390008963645,7,0,99,0.16,-0.07999999999999997,up,0.14457870018668473,None,,,,,,,,,,,,,,,,,,,,,,,,,,,,,,,,,,,2024-06-25_15h53.26.994,HideSeek_v1,2023.1.3,60.053928446875894,
,4,1,4,6,0,5,66,,train_dim1_1,8,24,2,0,2,0,,,,,,,,,0,0,0,0,0,7,7,7,3,0,3,0,,,,,,,,,,,,,,,,,,,,,,,,,,,,,,,,,,,,,,,,,,,,,,,,,,,,,,,24,,,,,,,,56.82891910010949,56.82891910010949,56.82891910010949,56.82891910010949,56.82891910010949,up,0.24415189982391894,7,0,99,0.16,2.7755575615628914e-17,up,0.14803549996577203,None,,,,,,,,,,,,,,,,,,,,,,,,,,,,,,,,,,,2024-06-25_15h53.26.994,HideSeek_v1,2023.1.3,60.053928446875894,
,4,1,4,6,0,5,66,,train_dim1_1,8,24,2,0,2,0,,,,,,,,,0,0,0,0,0,7,7,7,4,0,4,0,,,,,,,,,,,,,,,,,,,,,,,,,,,,,,,,,,,,,,,,,,,,,,,,,,,,,,,24,,,,,,,,57.0918741999194,57.0918741999194,57.0918741999194,57.0918741999194,57.0918741999194,up,0.19380859984084964,7,0,99,0.16,0.08000000000000003,up,0.09842800023034215,None,,,,,,,,,,,,,,,,,,,,,,,,,,,,,,,,,,,2024-06-25_15h53.26.994,HideSeek_v1,2023.1.3,60.053928446875894,
,4,1,4,6,0,5,66,,train_dim1_1,8,24,2,0,2,0,,,,,,,,,0,0,0,0,0,7,7,7,5,0,5,0,,,,,,,,,,,,,,,,,,,,,,,,,,,,,,,,,,,,,,,,,,,,,,,,,,,,,,,24,,,,,,,,57.2926473999396,57.2926473999396,57.2926473999396,57.2926473999396,57.2926473999396,return,0.32725859992206097,8,0,1,0.16,0.08000000000000003,return,0.22835180023685098,None,26,0,0.16,0.08000000000000003,,,,,,,,,,,,,,,,,,,,,,,,,,,,,,,2024-06-25_15h53.26.994,HideSeek_v1,2023.1.3,60.053928446875894,
,1,3,1,6,0,3,64,,train_dim1_1,9,24,2,0,2,0,,,,,,,,,0,0,0,0,0,8,8,8,0,0,0,0,,,,,,,,,,,,,stimuli/alien_stimuli/64.png,,,,,,,,,,,,,,,,,,,,,,,,,,,,,,,stimuli/alien_stimuli/66.png,66,4,10,,,,,,,,24,,,,,,,,61.961475800024346,61.961475800024346,61.961475800024346,61.961475800024346,61.961475800024346,up,0.37466970016248524,8,0,99,-0.08,-0.08,up,0.2890750002115965,None,,,,,60.40849649999291,61.961475800024346,0.16,0.08,0.4,0.0,-0.12,0.16,0.16,0.16,0.08,59.191990999970585,59.191990999970585,59.191990999970585,59.191990999970585,59.191990999970585,59.191990999970585,59.191990999970585,59.191990999970585,59.1751248399727,1.351724100066349,return,1.1854834002442658,None,,,,,,,2024-06-25_15h53.26.994,HideSeek_v1,2023.1.3,60.053928446875894,
,1,3,1,6,0,3,64,,train_dim1_1,9,24,2,0,2,0,,,,,,,,,0,0,0,0,0,8,8,8,1,0,1,0,,,,,,,,,,,,,,,,,,,,,,,,,,,,,,,,,,,,,,,,,,,,,,,,,,,,,,,24,,,,,,,,62.34435150003992,62.34435150003992,62.34435150003992,62.34435150003992,62.34435150003992,up,0.24367709993384778,8,0,99,-0.08,0.0,up,0.1549469002056867,None,,,,,,,,,,,,,,,,,,,,,,,,,,,,,,,,,,,2024-06-25_15h53.26.994,HideSeek_v1,2023.1.3,60.053928446875894,
,1,3,1,6,0,3,64,,train_dim1_1,9,24,2,0,2,0,,,,,,,,,0,0,0,0,0,8,8,8,2,0,2,0,,,,,,,,,,,,,,,,,,,,,,,,,,,,,,,,,,,,,,,,,,,,,,,,,,,,,,,24,,,,,,,,62.59496850008145,62.59496850008145,62.59496850008145,62.59496850008145,62.59496850008145,up,0.1940337000414729,8,0,99,-0.08,0.08,up,0.10844790027476847,None,,,,,,,,,,,,,,,,,,,,,,,,,,,,,,,,,,,2024-06-25_15h53.26.994,HideSeek_v1,2023.1.3,60.053928446875894,
,1,3,1,6,0,3,64,,train_dim1_1,9,24,2,0,2,0,,,,,,,,,0,0,0,0,0,8,8,8,3,0,3,0,,,,,,,,,,,,,,,,,,,,,,,,,,,,,,,,,,,,,,,,,,,,,,,,,,,,,,,24,,,,,,,,62.795857900055125,62.795857900055125,62.795857900055125,62.795857900055125,62.795857900055125,return,0.3776819999329746,9,0,1,-0.08,0.08,return,0.28525880025699735,None,29,0,-0.08,0.08,,,,,,,,,,,,,,,,,,,,,,,,,,,,,,,2024-06-25_15h53.26.994,HideSeek_v1,2023.1.3,60.053928446875894,
,0,0,0,4,0,4,65,,train_dim1_1,10,24,2,0,2,0,,,,,,,,,0,0,0,0,0,9,9,9,0,0,0,0,,,,,,,,,,,,,stimuli/alien_stimuli/65.png,,,,,,,,,,,,,,,,,,,,,,,,,,,,,,,stimuli/alien_stimuli/64.png,64,1,11,,,,,,,,24,,,,,,,,67.0786818000488,67.0786818000488,67.0786818000488,67.0786818000488,67.0786818000488,up,0.3079809001646936,9,0,99,-0.16,-0.32,up,0.22052620025351644,None,,,,,65.52532249991782,67.0786818000488,-0.08,0.08,0.24,0.0,-0.04,-0.08,-0.08,-0.08,0.08,64.74184329994023,64.74184329994023,64.74184329994023,64.74184329994023,64.74184329994023,64.74184329994023,64.74184329994023,64.74184329994023,64.7251521599479,0.9016478999983519,return,0.7654522000811994,None,,,,,,,2024-06-25_15h53.26.994,HideSeek_v1,2023.1.3,60.053928446875894,
,0,0,0,4,0,4,65,,train_dim1_1,10,24,2,0,2,0,,,,,,,,,0,0,0,0,0,9,9,9,1,0,1,0,,,,,,,,,,,,,,,,,,,,,,,,,,,,,,,,,,,,,,,,,,,,,,,,,,,,,,,24,,,,,,,,67.39434799994342,67.39434799994342,67.39434799994342,67.39434799994342,67.39434799994342,up,0.2272190998774022,9,0,99,-0.16,-0.24,up,0.13233650010079145,None,,,,,,,,,,,,,,,,,,,,,,,,,,,,,,,,,,,2024-06-25_15h53.26.994,HideSeek_v1,2023.1.3,60.053928446875894,
,0,0,0,4,0,4,65,,train_dim1_1,10,24,2,0,2,0,,,,,,,,,0,0,0,0,0,9,9,9,2,0,2,0,,,,,,,,,,,,,,,,,,,,,,,,,,,,,,,,,,,,,,,,,,,,,,,,,,,,,,,24,,,,,,,,67.6292936000973,67.6292936000973,67.6292936000973,67.6292936000973,67.6292936000973,up,0.17718360014259815,9,0,99,-0.16,-0.15999999999999998,up,0.08395790006034076,None,,,,,,,,,,,,,,,,,,,,,,,,,,,,,,,,,,,2024-06-25_15h53.26.994,HideSeek_v1,2023.1.3,60.053928446875894,
,0,0,0,4,0,4,65,,train_dim1_1,10,24,2,0,2,0,,,,,,,,,0,0,0,0,0,9,9,9,3,0,3,0,,,,,,,,,,,,,,,,,,,,,,,,,,,,,,,,,,,,,,,,,,,,,,,,,,,,,,,24,,,,,,,,67.81175350002013,67.81175350002013,67.81175350002013,67.81175350002013,67.81175350002013,up,0.14451109990477562,9,0,99,-0.16,-0.07999999999999997,up,0.051505499985069036,None,,,,,,,,,,,,,,,,,,,,,,,,,,,,,,,,,,,2024-06-25_15h53.26.994,HideSeek_v1,2023.1.3,60.053928446875894,
,0,0,0,4,0,4,65,,train_dim1_1,10,24,2,0,2,0,,,,,,,,,0,0,0,0,0,9,9,9,4,0,4,0,,,,,,,,,,,,,,,,,,,,,,,,,,,,,,,,,,,,,,,,,,,,,,,,,,,,,,,24,,,,,,,,67.96321010007523,67.96321010007523,67.96321010007523,67.96321010007523,67.96321010007523,return,0.29406330012716353,10,0,1,-0.16,-0.07999999999999997,return,0.20039560017175972,None,33,0,-0.16,-0.07999999999999997,,,,,,,,,,,,,,,,,,,,,,,,,,,,,,,2024-06-25_15h53.26.994,HideSeek_v1,2023.1.3,60.053928446875894,
,4,2,4,3,0,1,62,,train_dim1_1,11,24,2,0,2,0,,,,,,,,,0,0,0,0,0,10,10,10,0,0,0,0,,,,,,,,,,,,,stimuli/alien_stimuli/62.png,,,,,,,,,,,,,,,,,,,,,,,,,,,,,,,stimuli/alien_stimuli/65.png,65,0,12,,,,,,,,24,,,,,,,,72.35907389991917,72.35907389991917,72.35907389991917,72.35907389991917,72.35907389991917,up,0.5914432001300156,10,0,99,0.16,-0.15999999999999998,up,0.4959164001047611,None,,,,,70.79190939990804,72.35907389991917,-0.16,-0.08,0.32,0.0,-0.24000000000000002,-0.16,-0.16,-0.16,-0.08,69.82542050001211,69.82542050001211,69.82542050001211,69.82542050001211,69.82542050001211,69.82542050001211,69.82542050001211,69.82542050001211,69.8082550600171,1.0853067999705672,return,0.936625000089407,None,,,,,,,2024-06-25_15h53.26.994,HideSeek_v1,2023.1.3,60.053928446875894,
,4,2,4,3,0,1,62,,train_dim1_1,11,24,2,0,2,0,,,,,,,,,0,0,0,0,0,10,10,10,1,0,1,0,,,,,,,,,,,,,,,,,,,,,,,,,,,,,,,,,,,,,,,,,,,,,,,,,,,,,,,24,,,,,,,,72.9586320000235,72.9586320000235,72.9586320000235,72.9586320000235,72.9586320000235,return,0.29381010006181896,11,0,1,0.16,-0.15999999999999998,return,0.1998829001095146,None,34,0,0.16,-0.15999999999999998,,,,,,,,,,,,,,,,,,,,,,,,,,,,,,,2024-06-25_15h53.26.994,HideSeek_v1,2023.1.3,60.053928446875894,
,3,0,3,5,0,5,66,,train_dim1_1,12,24,2,0,2,0,,,,,,,,,0,0,0,0,0,11,11,11,0,0,0,0,,,,,,,,,,,,,stimuli/alien_stimuli/66.png,,,,,,,,,,,,,,,,,,,,,,,,,,,,,,,stimuli/alien_stimuli/62.png,62,4,13,,,,,,,,24,,,,,,,,76.79164419998415,76.79164419998415,76.79164419998415,76.79164419998415,76.79164419998415,up,0.5229021001141518,11,0,99,0.08,-0.32,up,0.4242543000727892,None,,,,,75.2256008000113,76.79164419998415,0.16,-0.16,0.08,0.0,-0.2,0.16,0.16,0.16,-0.16,74.80890340008773,74.80890340008773,74.80890340008773,74.80890340008773,74.80890340008773,74.80890340008773,74.80890340008773,74.80890340008773,74.7923516599927,0.5350124000106007,return,0.39765860023908317,None,,,,,,,2024-06-25_15h53.26.994,HideSeek_v1,2023.1.3,60.053928446875894,
,3,0,3,5,0,5,66,,train_dim1_1,12,24,2,0,2,0,,,,,,,,,0,0,0,0,0,11,11,11,1,0,1,0,,,,,,,,,,,,,,,,,,,,,,,,,,,,,,,,,,,,,,,,,,,,,,,,,,,,,,,24,,,,,,,,77.31065870006569,77.31065870006569,77.31065870006569,77.31065870006569,77.31065870006569,up,0.24339299998246133,11,0,99,0.08,-0.24,up,0.16077090008184314,None,,,,,,,,,,,,,,,,,,,,,,,,,,,,,,,,,,,2024-06-25_15h53.26.994,HideSeek_v1,2023.1.3,60.053928446875894,
,3,0,3,5,0,5,66,,train_dim1_1,12,24,2,0,2,0,,,,,,,,,0,0,0,0,0,11,11,11,2,0,2,0,,,,,,,,,,,,,,,,,,,,,,,,,,,,,,,,,,,,,,,,,,,,,,,,,,,,,,,24,,,,,,,,77.56196999992244,77.56196999992244,77.56196999992244,77.56196999992244,77.56196999992244,up,0.2606798999477178,11,0,99,0.08,-0.15999999999999998,up,0.1801009001210332,None,,,,,,,,,,,,,,,,,,,,,,,,,,,,,,,,,,,2024-06-25_15h53.26.994,HideSeek_v1,2023.1.3,60.053928446875894,
,3,0,3,5,0,5,66,,train_dim1_1,12,24,2,0,2,0,,,,,,,,,0,0,0,0,0,11,11,11,3,0,3,0,,,,,,,,,,,,,,,,,,,,,,,,,,,,,,,,,,,,,,,,,,,,,,,,,,,,,,,24,,,,,,,,77.82641320000403,77.82641320000403,77.82641320000403,77.82641320000403,77.82641320000403,up,0.2610752999316901,11,0,99,0.08,-0.07999999999999997,up,0.17703990009613335,None,,,,,,,,,,,,,,,,,,,,,,,,,,,,,,,,,,,2024-06-25_15h53.26.994,HideSeek_v1,2023.1.3,60.053928446875894,
,3,0,3,5,0,5,66,,train_dim1_1,12,24,2,0,2,0,,,,,,,,,0,0,0,0,0,11,11,11,4,0,4,0,,,,,,,,,,,,,,,,,,,,,,,,,,,,,,,,,,,,,,,,,,,,,,,,,,,,,,,24,,,,,,,,78.09556169994175,78.09556169994175,78.09556169994175,78.09556169994175,78.09556169994175,up,0.24438120005652308,11,0,99,0.08,2.7755575615628914e-17,up,0.14791980013251305,None,,,,,,,,,,,,,,,,,,,,,,,,,,,,,,,,,,,2024-06-25_15h53.26.994,HideSeek_v1,2023.1.3,60.053928446875894,
,3,0,3,5,0,5,66,,train_dim1_1,12,24,2,0,2,0,,,,,,,,,0,0,0,0,0,11,11,11,5,0,5,0,,,,,,,,,,,,,,,,,,,,,,,,,,,,,,,,,,,,,,,,,,,,,,,,,,,,,,,24,,,,,,,,78.34574280004017,78.34574280004017,78.34574280004017,78.34574280004017,78.34574280004017,return,0.2942548000719398,12,0,1,0.08,2.7755575615628914e-17,return,0.19778010016307235,None,39,0,0.08,2.7755575615628914e-17,,,,,,,,,,,,,,,,,,,,,,,,,,,,,,,2024-06-25_15h53.26.994,HideSeek_v1,2023.1.3,60.053928446875894,
,2,1,2,4,0,3,64,,train_dim1_1,13,24,2,0,2,0,,,,,,,,,0,0,0,0,0,12,12,12,0,0,0,0,,,,,,,,,,,,,stimuli/alien_stimuli/64.png,,,,,,,,,,,,,,,,,,,,,,,,,,,,,,,stimuli/alien_stimuli/66.png,66,3,14,,,,,,,,24,,,,,,,,82.29172229999676,82.29172229999676,82.29172229999676,82.29172229999676,82.29172229999676,up,0.44034439977258444,12,0,99,0,-0.24,up,0.34686990012414753,None,,,,,80.72500559990294,82.29172229999676,0.08,0,0.4,0.0,-0.2,0.08,0.08,0.08,0,80.22502289991826,80.22502289991826,80.22502289991826,80.22502289991826,80.22502289991826,80.22502289991826,80.22502289991826,80.22502289991826,80.2082599600777,0.6190303999464959,return,0.4828197001479566,None,,,,,,,2024-06-25_15h53.26.994,HideSeek_v1,2023.1.3,60.053928446875894,
,2,1,2,4,0,3,64,,train_dim1_1,13,24,2,0,2,0,,,,,,,,,0,0,0,0,0,12,12,12,1,0,1,0,,,,,,,,,,,,,,,,,,,,,,,,,,,,,,,,,,,,,,,,,,,,,,,,,,,,,,,24,,,,,,,,82.74246970005333,82.74246970005333,82.74246970005333,82.74246970005333,82.74246970005333,up,0.24261590000241995,12,0,99,0,-0.15999999999999998,up,0.14307649992406368,None,,,,,,,,,,,,,,,,,,,,,,,,,,,,,,,,,,,2024-06-25_15h53.26.994,HideSeek_v1,2023.1.3,60.053928446875894,
,2,1,2,4,0,3,64,,train_dim1_1,13,24,2,0,2,0,,,,,,,,,0,0,0,0,0,12,12,12,2,0,2,0,,,,,,,,,,,,,,,,,,,,,,,,,,,,,,,,,,,,,,,,,,,,,,,,,,,,,,,24,,,,,,,,82.99174609989859,82.99174609989859,82.99174609989859,82.99174609989859,82.99174609989859,up,0.2095806000288576,12,0,99,0,-0.07999999999999997,up,0.10367620014585555,None,,,,,,,,,,,,,,,,,,,,,,,,,,,,,,,,,,,2024-06-25_15h53.26.994,HideSeek_v1,2023.1.3,60.053928446875894,
,2,1,2,4,0,3,64,,train_dim1_1,13,24,2,0,2,0,,,,,,,,,0,0,0,0,0,12,12,12,3,0,3,0,,,,,,,,,,,,,,,,,,,,,,,,,,,,,,,,,,,,,,,,,,,,,,,,,,,,,,,24,,,,,,,,83.19316660007462,83.19316660007462,83.19316660007462,83.19316660007462,83.19316660007462,return,0.3279064998496324,13,0,1,0,-0.07999999999999997,return,0.24529340001754463,None,42,0,0,-0.07999999999999997,,,,,,,,,,,,,,,,,,,,,,,,,,,,,,,2024-06-25_15h53.26.994,HideSeek_v1,2023.1.3,60.053928446875894,
,4,3,4,7,0,4,65,,train_dim1_1,14,24,2,0,2,0,,,,,,,,,0,0,0,0,0,13,13,13,0,0,0,0,,,,,,,,,,,,,stimuli/alien_stimuli/65.png,,,,,,,,,,,,,,,,,,,,,,,,,,,,,,,stimuli/alien_stimuli/64.png,64,2,15,,,,,,,,24,,,,,,,,87.41130460007116,87.41130460007116,87.41130460007116,87.41130460007116,87.41130460007116,up,0.5246600999962538,13,0,99,0.16,-0.08,up,0.4414588001091033,None,,,,,85.85885439999402,87.41130460007116,0,-0.08,0.24,0.0,-0.2,0,0.0,0,-0.08,85.0758032000158,85.0758032000158,85.0758032000158,85.0758032000158,85.0758032000158,85.0758032000158,85.0758032000158,85.0758032000158,85.05821127998642,0.8845085001084954,return,0.7612064001150429,None,,,,,,,2024-06-25_15h53.26.994,HideSeek_v1,2023.1.3,60.053928446875894,
,4,3,4,7,0,4,65,,train_dim1_1,14,24,2,0,2,0,,,,,,,,,0,0,0,0,0,13,13,13,1,0,1,0,,,,,,,,,,,,,,,,,,,,,,,,,,,,,,,,,,,,,,,,,,,,,,,,,,,,,,,24,,,,,,,,87.94377600005828,87.94377600005828,87.94377600005828,87.94377600005828,87.94377600005828,up,0.34423020016402006,13,0,99,0.16,0.0,up,0.26401220029219985,None,,,,,,,,,,,,,,,,,,,,,,,,,,,,,,,,,,,2024-06-25_15h53.26.994,HideSeek_v1,2023.1.3,60.053928446875894,
,4,3,4,7,0,4,65,,train_dim1_1,14,24,2,0,2,0,,,,,,,,,0,0,0,0,0,13,13,13,2,0,2,0,,,,,,,,,,,,,,,,,,,,,,,,,,,,,,,,,,,,,,,,,,,,,,,,,,,,,,,24,,,,,,,,88.29536770004779,88.29536770004779,88.29536770004779,88.29536770004779,88.29536770004779,up,0.5768977999687195,13,0,99,0.16,0.08,up,0.48801960004493594,None,,,,,,,,,,,,,,,,,,,,,,,,,,,,,,,,,,,2024-06-25_15h53.26.994,HideSeek_v1,2023.1.3,60.053928446875894,
,4,3,4,7,0,4,65,,train_dim1_1,14,24,2,0,2,0,,,,,,,,,0,0,0,0,0,13,13,13,3,0,3,0,,,,,,,,,,,,,,,,,,,,,,,,,,,,,,,,,,,,,,,,,,,,,,,,,,,,,,,24,,,,,,,,88.87697350000963,88.87697350000963,88.87697350000963,88.87697350000963,88.87697350000963,up,0.7443740998860449,13,0,99,0.16,0.16,up,0.664926600176841,None,,,,,,,,,,,,,,,,,,,,,,,,,,,,,,,,,,,2024-06-25_15h53.26.994,HideSeek_v1,2023.1.3,60.053928446875894,
,4,3,4,7,0,4,65,,train_dim1_1,14,24,2,0,2,0,,,,,,,,,0,0,0,0,0,13,13,13,4,0,4,0,,,,,,,,,,,,,,,,,,,,,,,,,,,,,,,,,,,,,,,,,,,,,,,,,,,,,,,24,,,,,,,,89.62751060002483,89.62751060002483,89.62751060002483,89.62751060002483,89.62751060002483,return,0.6939336999785155,14,0,1,0.16,0.16,return,0.6036948000546545,None,46,0,0.16,0.16,,,,,,,,,,,,,,,,,,,,,,,,,,,,,,,2024-06-25_15h53.26.994,HideSeek_v1,2023.1.3,60.053928446875894,
,1,0,1,5,0,5,66,,train_dim1_1,15,24,2,0,2,0,,,,,,,,,0,0,0,0,0,14,14,14,0,0,0,0,,,,,,,,,,,,,stimuli/alien_stimuli/66.png,,,,,,,,,,,,,,,,,,,,,,,,,,,,,,,stimuli/alien_stimuli/65.png,65,4,16,,,,,,,,24,,,,,,,,94.37678629998118,94.37678629998118,94.37678629998118,94.37678629998118,94.37678629998118,return,1.6082685000728816,14,0,0,-0.08,-0.4,return,1.5180408002343029,None,46,0,-0.08,-0.4,92.82518159993924,94.37678629998118,0.16,0.16,0.32,0.0,0.0,0.16,0.16,0.16,0.16,91.87611919990741,91.87611919990741,91.87611919990741,91.87611919990741,91.87611919990741,91.87611919990741,91.87611919990741,91.87611919990741,91.85810807994567,1.0517856001388282,return,0.9299451000988483,None,,,,,,,2024-06-25_15h53.26.994,HideSeek_v1,2023.1.3,60.053928446875894,
,3,1,3,2,0,1,62,,train_dim1_1,16,24,2,0,2,0,,,,,,,,,0,0,0,0,0,15,15,15,0,0,0,0,,,,,,,,,,,,,stimuli/alien_stimuli/62.png,,,,,,,,,,,,,,,,,,,,,,,,,,,,,,,stimuli/alien_stimuli/66.png,66,1,17,,,,,,,,24,,,,,,,,100.19145100004971,100.19145100004971,100.19145100004971,100.19145100004971,100.19145100004971,return,0.9420278000179678,14,0,0,0.08,-0.32,return,0.8426111000590026,None,46,0,0.08,-0.32,98.62482960009947,100.19145100004971,-0.08,0,0.4,0.0,-0.2,-0.08,-0.08,-0.08,0,97.55834340001456,97.55834340001456,97.55834340001456,97.55834340001456,97.55834340001456,97.55834340001456,97.55834340001456,97.55834340001456,97.54162275991402,1.1851149001158774,return,1.0399683001451194,None,,,,,,,2024-06-25_15h53.26.994,HideSeek_v1,2023.1.3,60.053928446875894,
,0,2,0,7,0,5,66,,train_dim1_1,17,24,2,0,2,0,,,,,,,,,0,0,0,0,0,16,16,16,0,0,0,0,,,,,,,,,,,,,stimuli/alien_stimuli/66.png,,,,,,,,,,,,,,,,,,,,,,,,,,,,,,,stimuli/alien_stimuli/62.png,62,3,18,,,,,,,,24,,,,,,,,105.30830630008131,105.30830630008131,105.30830630008131,105.30830630008131,105.30830630008131,return,1.3084351001307368,14,0,0,-0.16,-0.24,return,1.2088369000703096,None,46,0,-0.16,-0.24,103.74140210007317,105.30830630008131,0.08,-0.24,0.08,0.0,-0.28,0.08,0.08,0.08,-0.24,102.69149590004236,102.69149590004236,102.69149590004236,102.69149590004236,102.69149590004236,102.69149590004236,102.69149590004236,102.69149590004236,102.67528756000101,1.167487199883908,return,1.0188428000546992,None,,,,,,,2024-06-25_15h53.26.994,HideSeek_v1,2023.1.3,60.053928446875894,
,1,2,1,6,0,4,65,,train_dim1_1,18,24,2,0,2,0,,,,,,,,,0,0,0,0,0,17,17,17,0,0,0,0,,,,,,,,,,,,,stimuli/alien_stimuli/65.png,,,,,,,,,,,,,,,,,,,,,,,,,,,,,,,stimuli/alien_stimuli/66.png,66,0,19,,,,,,,,24,,,,,,,,110.79135240009055,110.79135240009055,110.79135240009055,110.79135240009055,110.79135240009055,return,0.7918861999642104,14,0,0,-0.08,-0.24,return,0.6940373999532312,None,46,0,-0.08,-0.24,109.22496129991487,110.79135240009055,-0.16,0.16,0.4,0.0,-0.039999999999999994,-0.16,-0.16,-0.16,0.16,108.16015999997035,108.16015999997035,108.16015999997035,108.16015999997035,108.16015999997035,108.16015999997035,108.16015999997035,108.16015999997035,108.14165498008951,1.1676940000616014,return,1.0418919001240283,None,,,,,,,2024-06-25_15h53.26.994,HideSeek_v1,2023.1.3,60.053928446875894,
,1,4,1,5,0,1,62,,train_dim1_1,19,24,2,0,2,0,,,,,,,,,0,0,0,0,0,18,18,18,0,0,0,0,,,,,,,,,,,,,stimuli/alien_stimuli/62.png,,,,,,,,,,,,,,,,,,,,,,,,,,,,,,,stimuli/alien_stimuli/65.png,65,1,20,,,,,,,,24,,,,,,,,116.31121410010383,116.31121410010383,116.31121410010383,116.31121410010383,116.31121410010383,return,1.0917005999945104,14,0,0,-0.08,-0.08,return,1.0053002000786364,None,46,0,-0.08,-0.08,114.75828840001486,116.31121410010383,-0.08,0.08,0.32,0.0,-0.07999999999999999,-0.08,-0.08,-0.08,0.08,113.14149129996076,113.14149129996076,113.14149129996076,113.14149129996076,113.14149129996076,113.14149129996076,113.14149129996076,113.14149129996076,113.12497695991769,1.7356976000592113,return,1.5993842999450862,None,,,,,,,2024-06-25_15h53.26.994,HideSeek_v1,2023.1.3,60.053928446875894,
,3,2,3,5,0,3,64,,train_dim1_1,20,24,2,0,2,0,,,,,,,,,0,0,0,0,0,19,19,19,0,0,0,0,,,,,,,,,,,,,stimuli/alien_stimuli/64.png,,,,,,,,,,,,,,,,,,,,,,,,,,,,,,,stimuli/alien_stimuli/62.png,62,1,21,,,,,,,,24,,,,,,,,121.3418745000381,121.3418745000381,121.3418745000381,121.3418745000381,121.3418745000381,return,0.44135179999284446,14,0,0,0.08,-0.24,return,0.34739280003122985,None,46,0,0.08,-0.24,119.774585200008,121.3418745000381,-0.08,0,0.08,0.0,-0.04,-0.08,-0.08,-0.08,0,118.97553130006418,118.97553130006418,118.97553130006418,118.97553130006418,118.97553130006418,118.97553130006418,118.97553130006418,118.97553130006418,118.95856296005658,0.9176157999318093,return,0.7710019000805914,None,,,,,,,2024-06-25_15h53.26.994,HideSeek_v1,2023.1.3,60.053928446875894,
,2,4,2,5,0,1,62,,train_dim1_1,21,24,2,0,2,0,,,,,,,,,0,0,0,0,0,20,20,20,0,0,0,0,,,,,,,,,,,,,stimuli/alien_stimuli/62.png,,,,,,,,,,,,,,,,,,,,,,,,,,,,,,,stimuli/alien_stimuli/64.png,64,3,22,,,,,,,,24,,,,,,,,126.17468900000677,126.17468900000677,126.17468900000677,126.17468900000677,126.17468900000677,return,0.35836119996383786,14,0,0,0,-0.08,return,0.2607542001642287,None,46,0,0,-0.08,124.60784490010701,126.17468900000677,0.08,0,0.24,0.0,-0.12,0.08,0.08,0.08,0,123.39161979989149,123.39161979989149,123.39161979989149,123.39161979989149,123.39161979989149,123.39161979989149,123.39161979989149,123.39161979989149,123.37566590006463,1.3840236000251025,return,1.1854034999851137,None,,,,,,,2024-06-25_15h53.26.994,HideSeek_v1,2023.1.3,60.053928446875894,
,0,1,0,5,0,4,65,,train_dim1_1,22,24,2,0,2,0,,,,,,,,,0,0,0,0,0,21,21,21,0,0,0,0,,,,,,,,,,,,,stimuli/alien_stimuli/65.png,,,,,,,,,,,,,,,,,,,,,,,,,,,,,,,stimuli/alien_stimuli/62.png,62,2,23,,,,,,,,24,,,,,,,,135.07677879999392,135.07677879999392,135.07677879999392,135.07677879999392,135.07677879999392,return,0.49163289996795356,14,0,0,-0.16,-0.32,return,0.40327379992231727,None,46,0,-0.16,-0.32,133.5244326000102,135.07677879999392,0,0,0.08,0.0,-0.04,0,0.0,0,0,128.07508979993872,128.07508979993872,128.07508979993872,128.07508979993872,128.07508979993872,128.07508979993872,128.07508979993872,128.07508979993872,128.05822428008543,5.552200400037691,return,5.428799500223249,None,,,,,,,2024-06-25_15h53.26.994,HideSeek_v1,2023.1.3,60.053928446875894,
,2,3,2,6,0,3,64,,train_dim1_1,23,24,2,0,2,0,,,,,,,,,0,0,0,0,0,22,22,22,0,0,0,0,,,,,,,,,,,,,stimuli/alien_stimuli/64.png,,,,,,,,,,,,,,,,,,,,,,,,,,,,,,,stimuli/alien_stimuli/65.png,65,0,24,,,,,,,,24,,,,,,,,142.86040699994192,142.86040699994192,142.86040699994192,142.86040699994192,142.86040699994192,return,0.8252073999028653,14,0,0,0,-0.16,return,0.7454401000868529,None,46,0,0,-0.16,141.30775759997778,142.86040699994192,-0.16,0,0.32,0.0,-0.16,-0.16,-0.16,-0.16,0,137.15850810008124,137.15850810008124,137.15850810008124,137.15850810008124,137.15850810008124,137.15850810008124,137.15850810008124,137.15850810008124,137.14115194007755,4.284760700073093,return,4.121204799972475,None,,,,,,,2024-06-25_15h53.26.994,HideSeek_v1,2023.1.3,60.053928446875894,
,1,1,1,6,0,5,66,,train_dim1_1,24,24,2,0,2,0,,,,,,,,,0,0,0,0,0,23,23,23,0,0,0,0,,,,,,,,,,,,,stimuli/alien_stimuli/66.png,,,,,,,,,,,,,,,,,,,,,,,,,,,,,,,stimuli/alien_stimuli/64.png,64,2,25,,,,,,,,24,,,,,,,,147.39460449991748,147.39460449991748,147.39460449991748,147.39460449991748,147.39460449991748,return,0.6081936000846326,14,0,0,-0.08,-0.32,return,0.5197341002058238,None,46,0,-0.08,-0.32,145.841111500049,147.39460449991748,0,0.08,0.24,0.0,-0.04,0,0.0,0,0.08,145.2602351999376,145.2602351999376,145.2602351999376,145.2602351999376,145.2602351999376,145.2602351999376,145.2602351999376,145.2602351999376,145.24136446011255,0.7008734000846744,return,0.5556592000648379,None,,,,,,,2024-06-25_15h53.26.994,HideSeek_v1,2023.1.3,60.053928446875894,
,2,0,2,1,0,1,62,,train_dim1_1,1,4,2,0,2,0,,,,,,,,,1,0,1,0,0,0,0,0,0,0,0,0,,,,,,,,,,,,,stimuli/alien_stimuli/62.png,,,,,,,,,,,,,,,,,,,,,,,,,,,,,,,stimuli/alien_stimuli/66.png,66,1,26,0,17,70,58.333333333333336,1,0,1,4,0,conditions/inputTrain_1.2.xlsx,99,1,1,1,0,151.74120309995487,151.74120309995487,151.74120309995487,151.74120309995487,151.74120309995487,up,1.4867032000329345,0,0,99,0,-0.32,up,1.3905027001164854,None,,,,,150.17508330009878,151.74120309995487,-0.08,0.08,0.4,0.0,-0.12,-0.08,-0.08,-0.08,0.08,149.56109700002708,149.56109700002708,149.56109700002708,149.56109700002708,149.56109700002708,149.56109700002708,149.56109700002708,149.56109700002708,149.55760336006063,0.7178482001181692,return,0.5861580001655966,None,0,0,1,,,,2024-06-25_15h53.26.994,HideSeek_v1,2023.1.3,60.053928446875894,
,2,0,2,1,0,1,62,,train_dim1_1,1,4,2,0,2,0,,,,,,,,,1,0,1,0,0,0,0,0,1,0,1,0,,,,,,,,,,,,,,,,,,,,,,,,,,,,,,,,,,,,,,,,,,,,,,,,,,,,,,,4,,,,,,,,153.22498359996825,153.22498359996825,153.22498359996825,153.22498359996825,153.22498359996825,return,0.609833300113678,1,0,1,0,-0.32,return,0.5234454001765698,None,47,0,0,-0.32,,,,,,,,,,,,,,,,,,,,,,,,,,,,,,,2024-06-25_15h53.26.994,HideSeek_v1,2023.1.3,60.053928446875894,
,2,2,2,5,0,3,64,,train_dim1_1,2,4,2,0,2,0,,,,,,,,,1,0,1,0,0,1,1,1,0,0,0,0,,,,,,,,,,,,,stimuli/alien_stimuli/64.png,,,,,,,,,,,,,,,,,,,,,,,,,,,,,,,stimuli/alien_stimuli/62.png,62,2,1,,,,,,,,4,,,,,,,,157.69179240008816,157.69179240008816,157.69179240008816,157.69179240008816,157.69179240008816,up,0.5581932999193668,1,0,99,0,-0.15999999999999998,up,0.45647919992916286,None,,,,,156.12419730005786,157.69179240008816,0,-0.32,0.08,0.0,-0.36,0,0.0,0,-0.32,155.39301489992067,155.39301489992067,155.39301489992067,155.39301489992067,155.39301489992067,155.39301489992067,155.39301489992067,155.39301489992067,155.39097666009332,0.8362594000063837,return,0.7147751001175493,None,,,,,,,2024-06-25_15h53.26.994,HideSeek_v1,2023.1.3,60.053928446875894,
,2,2,2,5,0,3,64,,train_dim1_1,2,4,2,0,2,0,,,,,,,,,1,0,1,0,0,1,1,1,1,0,1,0,,,,,,,,,,,,,,,,,,,,,,,,,,,,,,,,,,,,,,,,,,,,,,,,,,,,,,,4,,,,,,,,158.24434609990567,158.24434609990567,158.24434609990567,158.24434609990567,158.24434609990567,up,0.34386699995957315,1,0,99,0,-0.07999999999999997,up,0.25816790014505386,None,,,,,,,,,,,,,,,,,,,,,,,,,,,,,,,,,,,2024-06-25_15h53.26.994,HideSeek_v1,2023.1.3,60.053928446875894,
,2,2,2,5,0,3,64,,train_dim1_1,2,4,2,0,2,0,,,,,,,,,1,0,1,0,0,1,1,1,2,0,2,0,,,,,,,,,,,,,,,,,,,,,,,,,,,,,,,,,,,,,,,,,,,,,,,,,,,,,,,4,,,,,,,,158.59469370008446,158.59469370008446,158.59469370008446,158.59469370008446,158.59469370008446,up,0.3606168997939676,1,0,99,0,2.7755575615628914e-17,up,0.2677657001186162,None,,,,,,,,,,,,,,,,,,,,,,,,,,,,,,,,,,,2024-06-25_15h53.26.994,HideSeek_v1,2023.1.3,60.053928446875894,
,2,2,2,5,0,3,64,,train_dim1_1,2,4,2,0,2,0,,,,,,,,,1,0,1,0,0,1,1,1,3,0,3,0,,,,,,,,,,,,,,,,,,,,,,,,,,,,,,,,,,,,,,,,,,,,,,,,,,,,,,,4,,,,,,,,158.95988360000774,158.95988360000774,158.95988360000774,158.95988360000774,158.95988360000774,return,0.4773375999648124,2,0,1,0,2.7755575615628914e-17,return,0.3963087999727577,None,50,0,0,2.7755575615628914e-17,,,,,,,,,,,,,,,,,,,,,,,,,,,,,,,2024-06-25_15h53.26.994,HideSeek_v1,2023.1.3,60.053928446875894,
,3,3,3,8,0,5,66,,train_dim1_1,3,4,2,0,2,0,,,,,,,,,1,0,1,0,0,2,2,2,0,0,0,0,,,,,,,,,,,,,stimuli/alien_stimuli/66.png,,,,,,,,,,,,,,,,,,,,,,,,,,,,,,,stimuli/alien_stimuli/64.png,64,2,2,,,,,,,,4,,,,,,,,163.0243486999534,163.0243486999534,163.0243486999534,163.0243486999534,163.0243486999534,return,0.923743800027296,2,0,0,0.08,-0.16,return,0.8332974000368267,None,50,0,0.08,-0.16,161.45750200003386,163.0243486999534,0,0,0.24,0.0,-0.12,0,0.0,0,0,160.99172420008108,160.99172420008108,160.99172420008108,160.99172420008108,160.99172420008108,160.99172420008108,160.99172420008108,160.99172420008108,160.97433907999658,0.5690601000096649,return,0.44909780006855726,None,,,,,,,2024-06-25_15h53.26.994,HideSeek_v1,2023.1.3,60.053928446875894,
,4,4,4,8,0,4,65,,train_dim1_1,4,4,2,0,2,0,,,,,,,,,1,0,1,0,0,3,3,3,0,0,0,0,,,,,,,,,,,,,stimuli/alien_stimuli/65.png,,,,,,,,,,,,,,,,,,,,,,,,,,,,,,,stimuli/alien_stimuli/66.png,66,3,3,,,,,,,,4,,,,,,,,167.51166429999284,167.51166429999284,167.51166429999284,167.51166429999284,167.51166429999284,return,0.5580393997952342,2,0,0,0.16,-0.08,return,0.4677295000292361,None,50,0,0.16,-0.08,165.95822619996034,167.51166429999284,0.08,0.24,0.4,0.0,0.039999999999999994,0.08,0.08,0.08,0.24,165.50798720004968,165.50798720004968,165.50798720004968,165.50798720004968,165.50798720004968,165.50798720004968,165.50798720004968,165.50798720004968,165.47409728001804,0.5692082000896335,return,0.4274663000833243,None,,,,,,,2024-06-25_15h53.26.994,HideSeek_v1,2023.1.3,60.053928446875894,
,3,4,3,5,0,1,62,,train_dim1_1,1,4,2,0,2,0,,,,,,,,,2,0,2,0,0,0,0,0,0,0,0,0,,,,,,,,,,,,,stimuli/alien_stimuli/62.png,,,,,,,,,,,,,,,,,,,,,,,,,,,,,,,stimuli/alien_stimuli/65.png,65,4,4,0,17,70,66.66666666666667,2,0,1,4,0,conditions/inputTrain_1.3.xlsx,99,1,1,1,0,171.9740697001107,171.9740697001107,171.9740697001107,171.9740697001107,171.9740697001107,up,1.0042276000604033,0,0,99,0.08,0.0,up,0.9147687999065965,None,,,,,170.40810539992526,171.9740697001107,0.16,0.24,0.32,0.0,0.07999999999999999,0.16,0.16,0.16,0.24,169.6242456000764,169.6242456000764,169.6242456000764,169.6242456000764,169.6242456000764,169.6242456000764,169.6242456000764,169.6242456000764,169.60774098006078,0.8846676999237388,return,0.762240800075233,None,0,0,2,,,,2024-06-25_15h53.26.994,HideSeek_v1,2023.1.3,60.053928446875894,
,3,4,3,5,0,1,62,,train_dim1_1,1,4,2,0,2,0,,,,,,,,,2,0,2,0,0,0,0,0,1,0,1,0,,,,,,,,,,,,,,,,,,,,,,,,,,,,,,,,,,,,,,,,,,,,,,,,,,,,,,,4,,,,,,,,172.97551580006257,172.97551580006257,172.97551580006257,172.97551580006257,172.97551580006257,return,0.4104619000572711,1,0,1,0.08,0.0,return,0.32823520014062524,None,51,0,0.08,0.0,,,,,,,,,,,,,,,,,,,,,,,,,,,,,,,2024-06-25_15h53.26.994,HideSeek_v1,2023.1.3,60.053928446875894,
,4,0,4,4,0,4,65,,train_dim1_1,2,4,2,0,2,0,,,,,,,,,2,0,2,0,0,1,1,1,0,0,0,0,,,,,,,,,,,,,stimuli/alien_stimuli/65.png,,,,,,,,,,,,,,,,,,,,,,,,,,,,,,,stimuli/alien_stimuli/62.png,62,3,1,,,,,,,,4,,,,,,,,177.59068870008923,177.59068870008923,177.59068870008923,177.59068870008923,177.59068870008923,up,0.8078662999905646,1,0,99,0.16,-0.32,up,0.7051495001651347,None,,,,,176.02501429989934,177.59068870008923,0.08,0,0.08,0.0,-0.04,0.08,0.08,0.08,0,174.941815600032,174.941815600032,174.941815600032,174.941815600032,174.941815600032,174.941815600032,174.941815600032,174.941815600032,174.92419568002225,1.1851211001630872,return,1.0644939001649618,None,,,,,,,2024-06-25_15h53.26.994,HideSeek_v1,2023.1.3,60.053928446875894,
,4,0,4,4,0,4,65,,train_dim1_1,2,4,2,0,2,0,,,,,,,,,2,0,2,0,0,1,1,1,1,0,1,0,,,,,,,,,,,,,,,,,,,,,,,,,,,,,,,,,,,,,,,,,,,,,,,,,,,,,,,4,,,,,,,,178.39204600010999,178.39204600010999,178.39204600010999,178.39204600010999,178.39204600010999,up,0.39342680014669895,1,0,99,0.16,-0.24,up,0.3111568000167608,None,,,,,,,,,,,,,,,,,,,,,,,,,,,,,,,,,,,2024-06-25_15h53.26.994,HideSeek_v1,2023.1.3,60.053928446875894,
,4,0,4,4,0,4,65,,train_dim1_1,2,4,2,0,2,0,,,,,,,,,2,0,2,0,0,1,1,1,2,0,2,0,,,,,,,,,,,,,,,,,,,,,,,,,,,,,,,,,,,,,,,,,,,,,,,,,,,,,,,4,,,,,,,,178.79265600000508,178.79265600000508,178.79265600000508,178.79265600000508,178.79265600000508,up,0.5610489998944104,1,0,99,0.16,-0.15999999999999998,up,0.4709817001130432,None,,,,,,,,,,,,,,,,,,,,,,,,,,,,,,,,,,,2024-06-25_15h53.26.994,HideSeek_v1,2023.1.3,60.053928446875894,
,4,0,4,4,0,4,65,,train_dim1_1,2,4,2,0,2,0,,,,,,,,,2,0,2,0,0,1,1,1,3,0,3,0,,,,,,,,,,,,,,,,,,,,,,,,,,,,,,,,,,,,,,,,,,,,,,,,,,,,,,,4,,,,,,,,179.35786159988493,179.35786159988493,179.35786159988493,179.35786159988493,179.35786159988493,up,1.4267137998249382,1,0,99,0.16,-0.07999999999999997,up,1.3374795001000166,None,,,,,,,,,,,,,,,,,,,,,,,,,,,,,,,,,,,2024-06-25_15h53.26.994,HideSeek_v1,2023.1.3,60.053928446875894,
,4,0,4,4,0,4,65,,train_dim1_1,2,4,2,0,2,0,,,,,,,,,2,0,2,0,0,1,1,1,4,0,4,0,,,,,,,,,,,,,,,,,,,,,,,,,,,,,,,,,,,,,,,,,,,,,,,,,,,,,,,4,,,,,,,,180.79253660002723,180.79253660002723,180.79253660002723,180.79253660002723,180.79253660002723,return,0.29427559999749064,2,0,1,0.16,-0.07999999999999997,return,0.20079830032773316,None,55,0,0.16,-0.07999999999999997,,,,,,,,,,,,,,,,,,,,,,,,,,,,,,,2024-06-25_15h53.26.994,HideSeek_v1,2023.1.3,60.053928446875894,
,0,3,0,6,0,3,64,,train_dim1_1,3,4,2,0,2,0,,,,,,,,,2,0,2,0,0,2,2,2,0,0,0,0,,,,,,,,,,,,,stimuli/alien_stimuli/64.png,,,,,,,,,,,,,,,,,,,,,,,,,,,,,,,stimuli/alien_stimuli/65.png,65,4,2,,,,,,,,4,,,,,,,,184.92416510009207,184.92416510009207,184.92416510009207,184.92416510009207,184.92416510009207,up,1.4408408999443054,2,0,99,-0.16,-0.08,up,1.3443081001751125,None,,,,,183.35768610006198,184.92416510009207,0.16,-0.08,0.32,0.0,-0.24000000000000002,0.16,0.16,0.16,-0.08,182.64176329993643,182.64176329993643,182.64176329993643,182.64176329993643,182.64176329993643,182.64176329993643,182.64176329993643,182.64176329993643,182.6242874799762,0.8180784001015127,return,0.6974806000944227,None,,,,,,,2024-06-25_15h53.26.994,HideSeek_v1,2023.1.3,60.053928446875894,
,0,3,0,6,0,3,64,,train_dim1_1,3,4,2,0,2,0,,,,,,,,,2,0,2,0,0,2,2,2,1,0,1,0,,,,,,,,,,,,,,,,,,,,,,,,,,,,,,,,,,,,,,,,,,,,,,,,,,,,,,,4,,,,,,,,186.35996460006572,186.35996460006572,186.35996460006572,186.35996460006572,186.35996460006572,up,0.36032330011948943,2,0,99,-0.16,0.0,up,0.2811867999844253,None,,,,,,,,,,,,,,,,,,,,,,,,,,,,,,,,,,,2024-06-25_15h53.26.994,HideSeek_v1,2023.1.3,60.053928446875894,
,0,3,0,6,0,3,64,,train_dim1_1,3,4,2,0,2,0,,,,,,,,,2,0,2,0,0,2,2,2,2,0,2,0,,,,,,,,,,,,,,,,,,,,,,,,,,,,,,,,,,,,,,,,,,,,,,,,,,,,,,,4,,,,,,,,186.74131290009245,186.74131290009245,186.74131290009245,186.74131290009245,186.74131290009245,up,0.3272520999889821,2,0,99,-0.16,0.08,up,0.23216240014880896,None,,,,,,,,,,,,,,,,,,,,,,,,,,,,,,,,,,,2024-06-25_15h53.26.994,HideSeek_v1,2023.1.3,60.053928446875894,
,0,3,0,6,0,3,64,,train_dim1_1,3,4,2,0,2,0,,,,,,,,,2,0,2,0,0,2,2,2,3,0,3,0,,,,,,,,,,,,,,,,,,,,,,,,,,,,,,,,,,,,,,,,,,,,,,,,,,,,,,,4,,,,,,,,187.07530550006777,187.07530550006777,187.07530550006777,187.07530550006777,187.07530550006777,return,0.42742579989135265,3,0,1,-0.16,0.08,return,0.31927480013109744,None,58,0,-0.16,0.08,,,,,,,,,,,,,,,,,,,,,,,,,,,,,,,2024-06-25_15h53.26.994,HideSeek_v1,2023.1.3,60.053928446875894,
,4,1,4,6,0,5,66,,train_dim1_1,4,4,2,0,2,0,,,,,,,,,2,0,2,0,0,3,3,3,0,0,0,0,,,,,,,,,,,,,stimuli/alien_stimuli/66.png,,,,,,,,,,,,,,,,,,,,,,,,,,,,,,,stimuli/alien_stimuli/64.png,64,0,3,,,,,,,,4,,,,,,,,191.55769399995916,191.55769399995916,191.55769399995916,191.55769399995916,191.55769399995916,up,0.47500269999727607,3,0,99,0.16,-0.24,up,0.37217510025948286,None,,,,,189.9908161999192,191.55769399995916,-0.16,0.08,0.24,0.0,-0.04,-0.16,-0.16,-0.16,0.08,189.0740485000424,189.0740485000424,189.0740485000424,189.0740485000424,189.0740485000424,189.0740485000424,189.0740485000424,189.0740485000424,189.05725844004192,1.0524816000834107,return,0.8942424000706524,None,,,,,,,2024-06-25_15h53.26.994,HideSeek_v1,2023.1.3,60.053928446875894,
,4,1,4,6,0,5,66,,train_dim1_1,4,4,2,0,2,0,,,,,,,,,2,0,2,0,0,3,3,3,1,0,1,0,,,,,,,,,,,,,,,,,,,,,,,,,,,,,,,,,,,,,,,,,,,,,,,,,,,,,,,4,,,,,,,,192.02666239999235,192.02666239999235,192.02666239999235,192.02666239999235,192.02666239999235,up,0.3271858000662178,3,0,99,0.16,-0.15999999999999998,up,0.23675220017321408,None,,,,,,,,,,,,,,,,,,,,,,,,,,,,,,,,,,,2024-06-25_15h53.26.994,HideSeek_v1,2023.1.3,60.053928446875894,
,4,1,4,6,0,5,66,,train_dim1_1,4,4,2,0,2,0,,,,,,,,,2,0,2,0,0,3,3,3,2,0,2,0,,,,,,,,,,,,,,,,,,,,,,,,,,,,,,,,,,,,,,,,,,,,,,,,,,,,,,,4,,,,,,,,192.35874129994772,192.35874129994772,192.35874129994772,192.35874129994772,192.35874129994772,up,0.5603914998937398,3,0,99,0.16,-0.07999999999999997,up,0.47824120009317994,None,,,,,,,,,,,,,,,,,,,,,,,,,,,,,,,,,,,2024-06-25_15h53.26.994,HideSeek_v1,2023.1.3,60.053928446875894,
,4,1,4,6,0,5,66,,train_dim1_1,4,4,2,0,2,0,,,,,,,,,2,0,2,0,0,3,3,3,3,0,3,0,,,,,,,,,,,,,,,,,,,,,,,,,,,,,,,,,,,,,,,,,,,,,,,,,,,,,,,4,,,,,,,,192.92689909995534,192.92689909995534,192.92689909995534,192.92689909995534,192.92689909995534,up,0.294278800021857,3,0,99,0.16,2.7755575615628914e-17,up,0.21027590008452535,None,,,,,,,,,,,,,,,,,,,,,,,,,,,,,,,,,,,2024-06-25_15h53.26.994,HideSeek_v1,2023.1.3,60.053928446875894,
,4,1,4,6,0,5,66,,train_dim1_1,4,4,2,0,2,0,,,,,,,,,2,0,2,0,0,3,3,3,4,0,4,0,,,,,,,,,,,,,,,,,,,,,,,,,,,,,,,,,,,,,,,,,,,,,,,,,,,,,,,4,,,,,,,,193.25728660007007,193.25728660007007,193.25728660007007,193.25728660007007,193.25728660007007,up,0.22749680001288652,3,0,99,0.16,0.08000000000000003,up,0.108766800025478,None,,,,,,,,,,,,,,,,,,,,,,,,,,,,,,,,,,,2024-06-25_15h53.26.994,HideSeek_v1,2023.1.3,60.053928446875894,
,4,1,4,6,0,5,66,,train_dim1_1,4,4,2,0,2,0,,,,,,,,,2,0,2,0,0,3,3,3,5,0,5,0,,,,,,,,,,,,,,,,,,,,,,,,,,,,,,,,,,,,,,,,,,,,,,,,,,,,,,,4,,,,,,,,193.45740270009264,193.45740270009264,193.45740270009264,193.45740270009264,193.45740270009264,return,0.2444491998758167,4,0,1,0.16,0.08000000000000003,return,0.1574285002425313,None,63,0,0.16,0.08000000000000003,,,,,,,,,,,,,,,,,,,,,,,,,,,,,,,2024-06-25_15h53.26.994,HideSeek_v1,2023.1.3,60.053928446875894,
,1,3,1,6,0,3,64,,train_dim1_1,1,4,2,0,2,0,,,,,,,,,3,0,3,0,0,0,0,0,0,0,0,0,,,,,,,,,,,,,stimuli/alien_stimuli/64.png,,,,,,,,,,,,,,,,,,,,,,,,,,,,,,,stimuli/alien_stimuli/66.png,66,4,4,0,17,70,83.33333333333334,3,0,1,4,0,conditions/inputTrain_1.4.xlsx,99,1,1,1,0,197.27508540009148,197.27508540009148,197.27508540009148,197.27508540009148,197.27508540009148,up,0.9857365000061691,0,0,99,-0.08,-0.08,up,0.8906895001418889,None,,,,,195.70723300008103,197.27508540009148,0.16,0.08,0.4,0.0,-0.12,0.16,0.16,0.16,0.08,195.25816010008566,195.25816010008566,195.25816010008566,195.25816010008566,195.25816010008566,195.25816010008566,195.25816010008566,195.25816010008566,195.24115187996068,0.5512552000582218,return,0.4284284000750631,None,0,0,3,,,,2024-06-25_15h53.26.994,HideSeek_v1,2023.1.3,60.053928446875894,
,1,3,1,6,0,3,64,,train_dim1_1,1,4,2,0,2,0,,,,,,,,,3,0,3,0,0,0,0,0,1,0,1,0,,,,,,,,,,,,,,,,,,,,,,,,,,,,,,,,,,,,,,,,,,,,,,,,,,,,,,,4,,,,,,,,198.25906719989143,198.25906719989143,198.25906719989143,198.25906719989143,198.25906719989143,up,0.2601719000376761,0,0,99,-0.08,0.0,up,0.17774790013208985,None,,,,,,,,,,,,,,,,,,,,,,,,,,,,,,,,,,,2024-06-25_15h53.26.994,HideSeek_v1,2023.1.3,60.053928446875894,
,1,3,1,6,0,3,64,,train_dim1_1,1,4,2,0,2,0,,,,,,,,,3,0,3,0,0,0,0,0,2,0,2,0,,,,,,,,,,,,,,,,,,,,,,,,,,,,,,,,,,,,,,,,,,,,,,,,,,,,,,,4,,,,,,,,198.5261792000383,198.5261792000383,198.5261792000383,198.5261792000383,198.5261792000383,up,0.2276294999755919,0,0,99,-0.08,0.08,up,0.1470259001944214,None,,,,,,,,,,,,,,,,,,,,,,,,,,,,,,,,,,,2024-06-25_15h53.26.994,HideSeek_v1,2023.1.3,60.053928446875894,
,1,3,1,6,0,3,64,,train_dim1_1,1,4,2,0,2,0,,,,,,,,,3,0,3,0,0,0,0,0,3,0,3,0,,,,,,,,,,,,,,,,,,,,,,,,,,,,,,,,,,,,,,,,,,,,,,,,,,,,,,,4,,,,,,,,198.7595818999689,198.7595818999689,198.7595818999689,198.7595818999689,198.7595818999689,return,0.26062639988958836,1,0,1,-0.08,0.08,return,0.17479509999975562,None,66,0,-0.08,0.08,,,,,,,,,,,,,,,,,,,,,,,,,,,,,,,2024-06-25_15h53.26.994,HideSeek_v1,2023.1.3,60.053928446875894,
,0,0,0,4,0,4,65,,train_dim1_1,2,4,2,0,2,0,,,,,,,,,3,0,3,0,0,1,1,1,0,0,0,0,,,,,,,,,,,,,stimuli/alien_stimuli/65.png,,,,,,,,,,,,,,,,,,,,,,,,,,,,,,,stimuli/alien_stimuli/64.png,64,1,1,,,,,,,,4,,,,,,,,203.09057020000182,203.09057020000182,203.09057020000182,203.09057020000182,203.09057020000182,return,1.0738482000306249,1,0,0,-0.16,-0.4,return,0.9821251002140343,None,66,0,-0.16,-0.4,201.52408050000668,203.09057020000182,-0.08,0.08,0.24,0.0,-0.04,-0.08,-0.08,-0.08,0.08,200.59188359999098,200.59188359999098,200.59188359999098,200.59188359999098,200.59188359999098,200.59188359999098,200.59188359999098,200.59188359999098,200.57398527995684,1.0349293001927435,return,0.9143532002344728,None,,,,,,,2024-06-25_15h53.26.994,HideSeek_v1,2023.1.3,60.053928446875894,
,4,2,4,3,0,1,62,,train_dim1_1,3,4,2,0,2,0,,,,,,,,,3,0,3,0,0,2,2,2,0,0,0,0,,,,,,,,,,,,,stimuli/alien_stimuli/62.png,,,,,,,,,,,,,,,,,,,,,,,,,,,,,,,stimuli/alien_stimuli/65.png,65,0,2,,,,,,,,4,,,,,,,,207.7932478999719,207.7932478999719,207.7932478999719,207.7932478999719,207.7932478999719,up,0.4749622999224812,1,0,99,0.16,-0.15999999999999998,up,0.38831340009346604,None,,,,,206.2410593999084,207.7932478999719,-0.16,-0.08,0.32,0.0,-0.24000000000000002,-0.16,-0.16,-0.16,-0.08,205.72379680001177,205.72379680001177,205.72379680001177,205.72379680001177,205.72379680001177,205.72379680001177,205.72379680001177,205.72379680001177,205.70750695993195,0.6344089000485837,return,0.4923291001468897,None,,,,,,,2024-06-25_15h53.26.994,HideSeek_v1,2023.1.3,60.053928446875894,
,4,2,4,3,0,1,62,,train_dim1_1,3,4,2,0,2,0,,,,,,,,,3,0,3,0,0,2,2,2,1,0,1,0,,,,,,,,,,,,,,,,,,,,,,,,,,,,,,,,,,,,,,,,,,,,,,,,,,,,,,,4,,,,,,,,208.27561070001684,208.27561070001684,208.27561070001684,208.27561070001684,208.27561070001684,return,0.32692490005865693,2,0,1,0.16,-0.15999999999999998,return,0.23938170028850436,None,67,0,0.16,-0.15999999999999998,,,,,,,,,,,,,,,,,,,,,,,,,,,,,,,2024-06-25_15h53.26.994,HideSeek_v1,2023.1.3,60.053928446875894,
,3,0,3,5,0,5,66,,train_dim1_1,4,4,2,0,2,0,,,,,,,,,3,0,3,0,0,3,3,3,0,0,0,0,,,,,,,,,,,,,stimuli/alien_stimuli/66.png,,,,,,,,,,,,,,,,,,,,,,,,,,,,,,,stimuli/alien_stimuli/62.png,62,4,3,,,,,,,,4,,,,,,,,212.14049950009212,212.14049950009212,212.14049950009212,212.14049950009212,212.14049950009212,up,0.7067607999779284,2,0,99,0.08,-0.32,up,0.6068744000513107,None,,,,,210.57386179990135,212.14049950009212,0.16,-0.16,0.08,0.0,-0.2,0.16,0.16,0.16,-0.16,210.1739417000208,210.1739417000208,210.1739417000208,210.1739417000208,210.1739417000208,210.1739417000208,210.1739417000208,210.1739417000208,210.15708586005496,0.5177784999832511,return,0.3688791003078222,None,,,,,,,2024-06-25_15h53.26.994,HideSeek_v1,2023.1.3,60.053928446875894,
,3,0,3,5,0,5,66,,train_dim1_1,4,4,2,0,2,0,,,,,,,,,3,0,3,0,0,3,3,3,1,0,1,0,,,,,,,,,,,,,,,,,,,,,,,,,,,,,,,,,,,,,,,,,,,,,,,,,,,,,,,4,,,,,,,,212.84283070010133,212.84283070010133,212.84283070010133,212.84283070010133,212.84283070010133,up,0.3269811999052763,2,0,99,0.08,-0.24,up,0.24395180004648864,None,,,,,,,,,,,,,,,,,,,,,,,,,,,,,,,,,,,2024-06-25_15h53.26.994,HideSeek_v1,2023.1.3,60.053928446875894,
,3,0,3,5,0,5,66,,train_dim1_1,4,4,2,0,2,0,,,,,,,,,3,0,3,0,0,3,3,3,2,0,2,0,,,,,,,,,,,,,,,,,,,,,,,,,,,,,,,,,,,,,,,,,,,,,,,,,,,,,,,4,,,,,,,,213.17612479999661,213.17612479999661,213.17612479999661,213.17612479999661,213.17612479999661,up,0.32711689989082515,2,0,99,0.08,-0.15999999999999998,up,0.245066300034523,None,,,,,,,,,,,,,,,,,,,,,,,,,,,,,,,,,,,2024-06-25_15h53.26.994,HideSeek_v1,2023.1.3,60.053928446875894,
,3,0,3,5,0,5,66,,train_dim1_1,4,4,2,0,2,0,,,,,,,,,3,0,3,0,0,3,3,3,3,0,3,0,,,,,,,,,,,,,,,,,,,,,,,,,,,,,,,,,,,,,,,,,,,,,,,,,,,,,,,4,,,,,,,,213.5097191000823,213.5097191000823,213.5097191000823,213.5097191000823,213.5097191000823,up,0.5950987001415342,2,0,99,0.08,-0.07999999999999997,up,0.509706900222227,None,,,,,,,,,,,,,,,,,,,,,,,,,,,,,,,,,,,2024-06-25_15h53.26.994,HideSeek_v1,2023.1.3,60.053928446875894,
,3,0,3,5,0,5,66,,train_dim1_1,4,4,2,0,2,0,,,,,,,,,3,0,3,0,0,3,3,3,4,0,4,0,,,,,,,,,,,,,,,,,,,,,,,,,,,,,,,,,,,,,,,,,,,,,,,,,,,,,,,4,,,,,,,,214.1086705001071,214.1086705001071,214.1086705001071,214.1086705001071,214.1086705001071,up,0.29354059998877347,2,0,99,0.08,2.7755575615628914e-17,up,0.19982450013048947,None,,,,,,,,,,,,,,,,,,,,,,,,,,,,,,,,,,,2024-06-25_15h53.26.994,HideSeek_v1,2023.1.3,60.053928446875894,
,3,0,3,5,0,5,66,,train_dim1_1,4,4,2,0,2,0,,,,,,,,,3,0,3,0,0,3,3,3,5,0,5,0,,,,,,,,,,,,,,,,,,,,,,,,,,,,,,,,,,,,,,,,,,,,,,,,,,,,,,,4,,,,,,,,214.40764439990744,214.40764439990744,214.40764439990744,214.40764439990744,214.40764439990744,return,0.2775146998465061,3,0,1,0.08,2.7755575615628914e-17,return,0.1863071999978274,None,72,0,0.08,2.7755575615628914e-17,,,,,,,,,,,,,,,,,,,,,,,,,,,,,,,2024-06-25_15h53.26.994,HideSeek_v1,2023.1.3,60.053928446875894,
,2,1,2,4,0,3,64,,train_dim1_1,1,4,2,0,2,0,,,,,,,,,4,0,4,0,0,0,0,0,0,0,0,0,,,,,,,,,,,,,stimuli/alien_stimuli/64.png,,,,,,,,,,,,,,,,,,,,,,,,,,,,,,,stimuli/alien_stimuli/66.png,66,3,4,0,17,70,95.83333333333334,4,0,1,4,0,conditions/inputTrain_1.5.xlsx,99,1,1,1,0,218.1736284000799,218.1736284000799,218.1736284000799,218.1736284000799,218.1736284000799,up,0.40116809983737767,0,0,99,0,-0.24,up,0.31407240009866655,None,,,,,216.60730900010094,218.1736284000799,0.08,0,0.4,0.0,-0.2,0.08,0.08,0.08,0,216.25710689998232,216.25710689998232,216.25710689998232,216.25710689998232,216.25710689998232,216.25710689998232,216.25710689998232,216.25710689998232,216.2412380600814,0.46723629999905825,return,0.33207400026731193,None,0,0,4,,,,2024-06-25_15h53.26.994,HideSeek_v1,2023.1.3,60.053928446875894,
,2,1,2,4,0,3,64,,train_dim1_1,1,4,2,0,2,0,,,,,,,,,4,0,4,0,0,0,0,0,1,0,1,0,,,,,,,,,,,,,,,,,,,,,,,,,,,,,,,,,,,,,,,,,,,,,,,,,,,,,,,4,,,,,,,,218.57563919993117,218.57563919993117,218.57563919993117,218.57563919993117,218.57563919993117,up,0.2937896999064833,0,0,99,0,-0.15999999999999998,up,0.2048302001785487,None,,,,,,,,,,,,,,,,,,,,,,,,,,,,,,,,,,,2024-06-25_15h53.26.994,HideSeek_v1,2023.1.3,60.053928446875894,
,2,1,2,4,0,3,64,,train_dim1_1,1,4,2,0,2,0,,,,,,,,,4,0,4,0,0,0,0,0,2,0,2,0,,,,,,,,,,,,,,,,,,,,,,,,,,,,,,,,,,,,,,,,,,,,,,,,,,,,,,,4,,,,,,,,218.87556249997579,218.87556249997579,218.87556249997579,218.87556249997579,218.87556249997579,up,0.26097900001332164,0,0,99,0,-0.07999999999999997,up,0.16887570009566844,None,,,,,,,,,,,,,,,,,,,,,,,,,,,,,,,,,,,2024-06-25_15h53.26.994,HideSeek_v1,2023.1.3,60.053928446875894,
,2,1,2,4,0,3,64,,train_dim1_1,1,4,2,0,2,0,,,,,,,,,4,0,4,0,0,0,0,0,3,0,3,0,,,,,,,,,,,,,,,,,,,,,,,,,,,,,,,,,,,,,,,,,,,,,,,,,,,,,,,4,,,,,,,,219.1572650000453,219.1572650000453,219.1572650000453,219.1572650000453,219.1572650000453,return,0.2270802001003176,1,0,1,0,-0.07999999999999997,return,0.1229721000418067,None,75,0,0,-0.07999999999999997,,,,,,,,,,,,,,,,,,,,,,,,,,,,,,,2024-06-25_15h53.26.994,HideSeek_v1,2023.1.3,60.053928446875894,
,4,3,4,7,0,4,65,,train_dim1_1,2,4,2,0,2,0,,,,,,,,,4,0,4,0,0,1,1,1,0,0,0,0,,,,,,,,,,,,,stimuli/alien_stimuli/65.png,,,,,,,,,,,,,,,,,,,,,,,,,,,,,,,stimuli/alien_stimuli/64.png,64,2,1,,,,,,,,4,,,,,,,,222.7571833000984,222.7571833000984,222.7571833000984,222.7571833000984,222.7571833000984,up,0.9390783000271767,1,0,99,0.16,-0.08,up,0.8445788000244647,None,,,,,221.1903816999402,222.7571833000984,0,-0.08,0.24,0.0,-0.2,0,0.0,0,-0.08,220.940570600098,220.940570600098,220.940570600098,220.940570600098,220.940570600098,220.940570600098,220.940570600098,220.940570600098,220.92407776010225,0.36836110008880496,return,0.2186810001730919,None,,,,,,,2024-06-25_15h53.26.994,HideSeek_v1,2023.1.3,60.053928446875894,
,4,3,4,7,0,4,65,,train_dim1_1,2,4,2,0,2,0,,,,,,,,,4,0,4,0,0,1,1,1,1,0,1,0,,,,,,,,,,,,,,,,,,,,,,,,,,,,,,,,,,,,,,,,,,,,,,,,,,,,,,,4,,,,,,,,223.69480159995146,223.69480159995146,223.69480159995146,223.69480159995146,223.69480159995146,up,0.30990729993209243,1,0,99,0.16,0.0,up,0.22796050016768277,None,,,,,,,,,,,,,,,,,,,,,,,,,,,,,,,,,,,2024-06-25_15h53.26.994,HideSeek_v1,2023.1.3,60.053928446875894,
,4,3,4,7,0,4,65,,train_dim1_1,2,4,2,0,2,0,,,,,,,,,4,0,4,0,0,1,1,1,2,0,2,0,,,,,,,,,,,,,,,,,,,,,,,,,,,,,,,,,,,,,,,,,,,,,,,,,,,,,,,4,,,,,,,,224.0108252998907,224.0108252998907,224.0108252998907,224.0108252998907,224.0108252998907,up,0.2940084000583738,1,0,99,0.16,0.08,up,0.19920910010114312,None,,,,,,,,,,,,,,,,,,,,,,,,,,,,,,,,,,,2024-06-25_15h53.26.994,HideSeek_v1,2023.1.3,60.053928446875894,
,4,3,4,7,0,4,65,,train_dim1_1,2,4,2,0,2,0,,,,,,,,,4,0,4,0,0,1,1,1,3,0,3,0,,,,,,,,,,,,,,,,,,,,,,,,,,,,,,,,,,,,,,,,,,,,,,,,,,,,,,,4,,,,,,,,224.32417830009945,224.32417830009945,224.32417830009945,224.32417830009945,224.32417830009945,up,0.27854269999079406,1,0,99,0.16,0.16,up,0.1675378002692014,None,,,,,,,,,,,,,,,,,,,,,,,,,,,,,,,,,,,2024-06-25_15h53.26.994,HideSeek_v1,2023.1.3,60.053928446875894,
,4,3,4,7,0,4,65,,train_dim1_1,2,4,2,0,2,0,,,,,,,,,4,0,4,0,0,1,1,1,4,0,4,0,,,,,,,,,,,,,,,,,,,,,,,,,,,,,,,,,,,,,,,,,,,,,,,,,,,,,,,4,,,,,,,,224.5914718999993,224.5914718999993,224.5914718999993,224.5914718999993,224.5914718999993,return,0.24348410009406507,2,0,1,0.16,0.16,return,0.1626395999919623,None,79,0,0.16,0.16,,,,,,,,,,,,,,,,,,,,,,,,,,,,,,,2024-06-25_15h53.26.994,HideSeek_v1,2023.1.3,60.053928446875894,
,1,0,1,5,0,5,66,,train_dim1_1,3,4,2,0,2,0,,,,,,,,,4,0,4,0,0,2,2,2,0,0,0,0,,,,,,,,,,,,,stimuli/alien_stimuli/66.png,,,,,,,,,,,,,,,,,,,,,,,,,,,,,,,stimuli/alien_stimuli/65.png,65,4,2,,,,,,,,4,,,,,,,,228.29405959998257,228.29405959998257,228.29405959998257,228.29405959998257,228.29405959998257,up,0.3571381999645382,2,0,99,-0.08,-0.32,up,0.2721845000050962,None,,,,,226.74071990000084,228.29405959998257,0.16,0.16,0.32,0.0,0.0,0.16,0.16,0.16,0.16,226.39376959996298,226.39376959996298,226.39376959996298,226.39376959996298,226.39376959996298,226.39376959996298,226.39376959996298,226.39376959996298,226.39013516008856,0.4518597999121994,return,0.32385220006108284,None,,,,,,,2024-06-25_15h53.26.994,HideSeek_v1,2023.1.3,60.053928446875894,
,1,0,1,5,0,5,66,,train_dim1_1,3,4,2,0,2,0,,,,,,,,,4,0,4,0,0,2,2,2,1,0,1,0,,,,,,,,,,,,,,,,,,,,,,,,,,,,,,,,,,,,,,,,,,,,,,,,,,,,,,,4,,,,,,,,228.65989349992014,228.65989349992014,228.65989349992014,228.65989349992014,228.65989349992014,up,0.29323030007071793,2,0,99,-0.08,-0.24,up,0.20408900012262166,None,,,,,,,,,,,,,,,,,,,,,,,,,,,,,,,,,,,2024-06-25_15h53.26.994,HideSeek_v1,2023.1.3,60.053928446875894,
,1,0,1,5,0,5,66,,train_dim1_1,3,4,2,0,2,0,,,,,,,,,4,0,4,0,0,2,2,2,2,0,2,0,,,,,,,,,,,,,,,,,,,,,,,,,,,,,,,,,,,,,,,,,,,,,,,,,,,,,,,4,,,,,,,,228.95955309993587,228.95955309993587,228.95955309993587,228.95955309993587,228.95955309993587,up,0.24457759992219508,2,0,99,-0.08,-0.15999999999999998,up,0.16226420016027987,None,,,,,,,,,,,,,,,,,,,,,,,,,,,,,,,,,,,2024-06-25_15h53.26.994,HideSeek_v1,2023.1.3,60.053928446875894,
,1,0,1,5,0,5,66,,train_dim1_1,3,4,2,0,2,0,,,,,,,,,4,0,4,0,0,2,2,2,3,0,3,0,,,,,,,,,,,,,,,,,,,,,,,,,,,,,,,,,,,,,,,,,,,,,,,,,,,,,,,4,,,,,,,,229.22412150003947,229.22412150003947,229.22412150003947,229.22412150003947,229.22412150003947,up,0.24364599981345236,2,0,99,-0.08,-0.07999999999999997,up,0.13813600013963878,None,,,,,,,,,,,,,,,,,,,,,,,,,,,,,,,,,,,2024-06-25_15h53.26.994,HideSeek_v1,2023.1.3,60.053928446875894,
,1,0,1,5,0,5,66,,train_dim1_1,3,4,2,0,2,0,,,,,,,,,4,0,4,0,0,2,2,2,4,0,4,0,,,,,,,,,,,,,,,,,,,,,,,,,,,,,,,,,,,,,,,,,,,,,,,,,,,,,,,4,,,,,,,,229.473774000071,229.473774000071,229.473774000071,229.473774000071,229.473774000071,up,0.2277240001130849,2,0,99,-0.08,2.7755575615628914e-17,up,0.13123179995454848,None,,,,,,,,,,,,,,,,,,,,,,,,,,,,,,,,,,,2024-06-25_15h53.26.994,HideSeek_v1,2023.1.3,60.053928446875894,
,1,0,1,5,0,5,66,,train_dim1_1,3,4,2,0,2,0,,,,,,,,,4,0,4,0,0,2,2,2,5,0,5,0,,,,,,,,,,,,,,,,,,,,,,,,,,,,,,,,,,,,,,,,,,,,,,,,,,,,,,,4,,,,,,,,229.72419190010987,229.72419190010987,229.72419190010987,229.72419190010987,229.72419190010987,return,0.24414739990606904,3,0,1,-0.08,2.7755575615628914e-17,return,0.13249890017323196,None,84,0,-0.08,2.7755575615628914e-17,,,,,,,,,,,,,,,,,,,,,,,,,,,,,,,2024-06-25_15h53.26.994,HideSeek_v1,2023.1.3,60.053928446875894,
,3,1,3,2,0,1,62,,train_dim1_1,4,4,2,0,2,0,,,,,,,,,4,0,4,0,0,3,3,3,0,0,0,0,,,,,,,,,,,,,stimuli/alien_stimuli/62.png,,,,,,,,,,,,,,,,,,,,,,,,,,,,,,,stimuli/alien_stimuli/66.png,66,1,3,,,,,,,,4,,,,,,,,233.3431490000803,233.3431490000803,233.3431490000803,233.3431490000803,233.3431490000803,up,0.35838130000047386,3,0,99,0.08,-0.24,up,0.28045670012943447,None,,,,,231.79052489995956,233.3431490000803,-0.08,0,0.4,0.0,-0.2,-0.08,-0.08,-0.08,0,231.50769510003738,231.50769510003738,231.50769510003738,231.50769510003738,231.50769510003738,231.50769510003738,231.50769510003738,231.50769510003738,231.49081435999835,0.40084070013836026,return,0.26038500014692545,None,,,,,,,2024-06-25_15h53.26.994,HideSeek_v1,2023.1.3,60.053928446875894,
,3,1,3,2,0,1,62,,train_dim1_1,4,4,2,0,2,0,,,,,,,,,4,0,4,0,0,3,3,3,1,0,1,0,,,,,,,,,,,,,,,,,,,,,,,,,,,,,,,,,,,,,,,,,,,,,,,,,,,,,,,4,,,,,,,,233.71055219997652,233.71055219997652,233.71055219997652,233.71055219997652,233.71055219997652,return,0.36101459991186857,4,0,1,0.08,-0.24,return,0.28104800009168684,None,85,0,0.08,-0.24,,,,,,,,,,,,,,,,,,,,,,,,,,,,,,,2024-06-25_15h53.26.994,HideSeek_v1,2023.1.3,60.053928446875894,
,0,2,0,7,0,5,66,,train_dim1_1,1,4,2,0,2,0,,,,,,,,,5,0,5,0,0,0,0,0,0,0,0,0,,,,,,,,,,,,,stimuli/alien_stimuli/66.png,,,,,,,,,,,,,,,,,,,,,,,,,,,,,,,stimuli/alien_stimuli/62.png,62,3,4,0,17,70,112.50000000000001,5,0,1,4,0,conditions/inputTrain_1.6.xlsx,99,1,1,1,0,237.49001129996032,237.49001129996032,237.49001129996032,237.49001129996032,237.49001129996032,up,0.4684160000178963,0,0,99,-0.16,-0.15999999999999998,up,0.3776470001321286,None,,,,,235.9242734001018,237.49001129996032,0.08,-0.24,0.08,0.0,-0.28,0.08,0.08,0.08,-0.24,235.65705729997717,235.65705729997717,235.65705729997717,235.65705729997717,235.65705729997717,235.65705729997717,235.65705729997717,235.65705729997717,235.6401787401177,0.401465900009498,return,0.24379219999536872,None,0,0,5,,,,2024-06-25_15h53.26.994,HideSeek_v1,2023.1.3,60.053928446875894,
,0,2,0,7,0,5,66,,train_dim1_1,1,4,2,0,2,0,,,,,,,,,5,0,5,0,0,0,0,0,1,0,1,0,,,,,,,,,,,,,,,,,,,,,,,,,,,,,,,,,,,,,,,,,,,,,,,,,,,,,,,4,,,,,,,,237.9579598000273,237.9579598000273,237.9579598000273,237.9579598000273,237.9579598000273,up,0.29403410013765097,0,0,99,-0.16,-0.07999999999999997,up,0.20821280032396317,None,,,,,,,,,,,,,,,,,,,,,,,,,,,,,,,,,,,2024-06-25_15h53.26.994,HideSeek_v1,2023.1.3,60.053928446875894,
,0,2,0,7,0,5,66,,train_dim1_1,1,4,2,0,2,0,,,,,,,,,5,0,5,0,0,0,0,0,2,0,2,0,,,,,,,,,,,,,,,,,,,,,,,,,,,,,,,,,,,,,,,,,,,,,,,,,,,,,,,4,,,,,,,,238.2591373999603,238.2591373999603,238.2591373999603,238.2591373999603,238.2591373999603,up,0.31122189993038774,0,0,99,-0.16,2.7755575615628914e-17,up,0.21553060016594827,None,,,,,,,,,,,,,,,,,,,,,,,,,,,,,,,,,,,2024-06-25_15h53.26.994,HideSeek_v1,2023.1.3,60.053928446875894,
,0,2,0,7,0,5,66,,train_dim1_1,1,4,2,0,2,0,,,,,,,,,5,0,5,0,0,0,0,0,3,0,3,0,,,,,,,,,,,,,,,,,,,,,,,,,,,,,,,,,,,,,,,,,,,,,,,,,,,,,,,4,,,,,,,,238.57438719994389,238.57438719994389,238.57438719994389,238.57438719994389,238.57438719994389,up,0.2771944000851363,0,0,99,-0.16,0.08000000000000003,up,0.1922542001120746,None,,,,,,,,,,,,,,,,,,,,,,,,,,,,,,,,,,,2024-06-25_15h53.26.994,HideSeek_v1,2023.1.3,60.053928446875894,
,0,2,0,7,0,5,66,,train_dim1_1,1,4,2,0,2,0,,,,,,,,,5,0,5,0,0,0,0,0,4,0,4,0,,,,,,,,,,,,,,,,,,,,,,,,,,,,,,,,,,,,,,,,,,,,,,,,,,,,,,,4,,,,,,,,238.87362729990855,238.87362729990855,238.87362729990855,238.87362729990855,238.87362729990855,up,0.27744949981570244,0,0,99,-0.16,0.16000000000000003,up,0.17207859992049634,None,,,,,,,,,,,,,,,,,,,,,,,,,,,,,,,,,,,2024-06-25_15h53.26.994,HideSeek_v1,2023.1.3,60.053928446875894,
,0,2,0,7,0,5,66,,train_dim1_1,1,4,2,0,2,0,,,,,,,,,5,0,5,0,0,0,0,0,5,0,5,0,,,,,,,,,,,,,,,,,,,,,,,,,,,,,,,,,,,,,,,,,,,,,,,,,,,,,,,4,,,,,,,,239.14061950007454,239.14061950007454,239.14061950007454,239.14061950007454,239.14061950007454,return,0.27736940002068877,1,0,1,-0.16,0.16000000000000003,return,0.1958333000075072,None,90,0,-0.16,0.16000000000000003,,,,,,,,,,,,,,,,,,,,,,,,,,,,,,,2024-06-25_15h53.26.994,HideSeek_v1,2023.1.3,60.053928446875894,
,1,2,1,6,0,4,65,,train_dim1_1,2,4,2,0,2,0,,,,,,,,,5,0,5,0,0,1,1,1,0,0,0,0,,,,,,,,,,,,,stimuli/alien_stimuli/65.png,,,,,,,,,,,,,,,,,,,,,,,,,,,,,,,stimuli/alien_stimuli/66.png,66,0,1,,,,,,,,4,,,,,,,,242.90685999998823,242.90685999998823,242.90685999998823,242.90685999998823,242.90685999998823,up,0.5745548000559211,1,0,99,-0.08,-0.15999999999999998,up,0.4713649002369493,None,,,,,241.34023319999687,242.90685999998823,-0.16,0.16,0.4,0.0,-0.039999999999999994,-0.16,-0.16,-0.16,0.16,240.97344550001435,240.97344550001435,240.97344550001435,240.97344550001435,240.97344550001435,240.97344550001435,240.97344550001435,240.97344550001435,240.95680507989601,0.46817440004087985,return,0.34158270014449954,None,,,,,,,2024-06-25_15h53.26.994,HideSeek_v1,2023.1.3,60.053928446875894,
,1,2,1,6,0,4,65,,train_dim1_1,2,4,2,0,2,0,,,,,,,,,5,0,5,0,0,1,1,1,1,0,1,0,,,,,,,,,,,,,,,,,,,,,,,,,,,,,,,,,,,,,,,,,,,,,,,,,,,,,,,4,,,,,,,,243.47633749991655,243.47633749991655,243.47633749991655,243.47633749991655,243.47633749991655,up,0.27624629996716976,1,0,99,-0.08,-0.07999999999999997,up,0.18252900009974837,None,,,,,,,,,,,,,,,,,,,,,,,,,,,,,,,,,,,2024-06-25_15h53.26.994,HideSeek_v1,2023.1.3,60.053928446875894,
,1,2,1,6,0,4,65,,train_dim1_1,2,4,2,0,2,0,,,,,,,,,5,0,5,0,0,1,1,1,2,0,2,0,,,,,,,,,,,,,,,,,,,,,,,,,,,,,,,,,,,,,,,,,,,,,,,,,,,,,,,4,,,,,,,,243.75741879991256,243.75741879991256,243.75741879991256,243.75741879991256,243.75741879991256,up,0.22752849990502,1,0,99,-0.08,2.7755575615628914e-17,up,0.13600280019454658,None,,,,,,,,,,,,,,,,,,,,,,,,,,,,,,,,,,,2024-06-25_15h53.26.994,HideSeek_v1,2023.1.3,60.053928446875894,
,1,2,1,6,0,4,65,,train_dim1_1,2,4,2,0,2,0,,,,,,,,,5,0,5,0,0,1,1,1,3,0,3,0,,,,,,,,,,,,,,,,,,,,,,,,,,,,,,,,,,,,,,,,,,,,,,,,,,,,,,,4,,,,,,,,244.00669519999065,244.00669519999065,244.00669519999065,244.00669519999065,244.00669519999065,up,0.19482959993183613,1,0,99,-0.08,0.08000000000000003,up,0.09453000011853874,None,,,,,,,,,,,,,,,,,,,,,,,,,,,,,,,,,,,2024-06-25_15h53.26.994,HideSeek_v1,2023.1.3,60.053928446875894,
,1,2,1,6,0,4,65,,train_dim1_1,2,4,2,0,2,0,,,,,,,,,5,0,5,0,0,1,1,1,4,0,4,0,,,,,,,,,,,,,,,,,,,,,,,,,,,,,,,,,,,,,,,,,,,,,,,,,,,,,,,4,,,,,,,,244.19353069993667,244.19353069993667,244.19353069993667,244.19353069993667,244.19353069993667,return,0.22712019993923604,2,0,1,-0.08,0.08000000000000003,return,0.14510910026729107,None,94,0,-0.08,0.08000000000000003,,,,,,,,,,,,,,,,,,,,,,,,,,,,,,,2024-06-25_15h53.26.994,HideSeek_v1,2023.1.3,60.053928446875894,
,1,4,1,5,0,1,62,,train_dim1_1,3,4,2,0,2,0,,,,,,,,,5,0,5,0,0,2,2,2,0,0,0,0,,,,,,,,,,,,,stimuli/alien_stimuli/62.png,,,,,,,,,,,,,,,,,,,,,,,,,,,,,,,stimuli/alien_stimuli/65.png,65,1,2,,,,,,,,4,,,,,,,,247.82664149999619,247.82664149999619,247.82664149999619,247.82664149999619,247.82664149999619,up,0.6419484000653028,2,0,99,-0.08,0.0,up,0.5568823001813143,None,,,,,246.27365310001187,247.82664149999619,-0.08,0.08,0.32,0.0,-0.07999999999999999,-0.08,-0.08,-0.08,0.08,246.00766299990937,246.00766299990937,246.00766299990937,246.00766299990937,246.00766299990937,246.00766299990937,246.00766299990937,246.00766299990937,245.99031683998183,0.401524499990046,return,0.24565219995565712,None,,,,,,,2024-06-25_15h53.26.994,HideSeek_v1,2023.1.3,60.053928446875894,
,1,4,1,5,0,1,62,,train_dim1_1,3,4,2,0,2,0,,,,,,,,,5,0,5,0,0,2,2,2,1,0,1,0,,,,,,,,,,,,,,,,,,,,,,,,,,,,,,,,,,,,,,,,,,,,,,,,,,,,,,,4,,,,,,,,248.47338459989987,248.47338459989987,248.47338459989987,248.47338459989987,248.47338459989987,return,0.31045089988037944,3,0,1,-0.08,0.0,return,0.21973760006949306,None,95,0,-0.08,0.0,,,,,,,,,,,,,,,,,,,,,,,,,,,,,,,2024-06-25_15h53.26.994,HideSeek_v1,2023.1.3,60.053928446875894,
,3,2,3,5,0,3,64,,train_dim1_1,4,4,2,0,2,0,,,,,,,,,5,0,5,0,0,3,3,3,0,0,0,0,,,,,,,,,,,,,stimuli/alien_stimuli/64.png,,,,,,,,,,,,,,,,,,,,,,,,,,,,,,,stimuli/alien_stimuli/62.png,62,1,3,,,,,,,,4,,,,,,,,252.2932963001076,252.2932963001076,252.2932963001076,252.2932963001076,252.2932963001076,up,0.33997650002129376,3,0,99,0.08,-0.15999999999999998,up,0.24981980002485216,None,,,,,250.7399613999296,252.2932963001076,-0.08,0,0.08,0.0,-0.04,-0.08,-0.08,-0.08,0,250.34164480003528,250.34164480003528,250.34164480003528,250.34164480003528,250.34164480003528,250.34164480003528,250.34164480003528,250.34164480003528,250.3233897799626,0.5025551998987794,return,0.3826880999840796,None,,,,,,,2024-06-25_15h53.26.994,HideSeek_v1,2023.1.3,60.053928446875894,
,3,2,3,5,0,3,64,,train_dim1_1,4,4,2,0,2,0,,,,,,,,,5,0,5,0,0,3,3,3,1,0,1,0,,,,,,,,,,,,,,,,,,,,,,,,,,,,,,,,,,,,,,,,,,,,,,,,,,,,,,,4,,,,,,,,252.6435328000225,252.6435328000225,252.6435328000225,252.6435328000225,252.6435328000225,up,0.24377169995568693,3,0,99,0.08,-0.07999999999999997,up,0.1547380001284182,None,,,,,,,,,,,,,,,,,,,,,,,,,,,,,,,,,,,2024-06-25_15h53.26.994,HideSeek_v1,2023.1.3,60.053928446875894,
,3,2,3,5,0,3,64,,train_dim1_1,4,4,2,0,2,0,,,,,,,,,5,0,5,0,0,3,3,3,2,0,2,0,,,,,,,,,,,,,,,,,,,,,,,,,,,,,,,,,,,,,,,,,,,,,,,,,,,,,,,4,,,,,,,,252.8912386999,252.8912386999,252.8912386999,252.8912386999,252.8912386999,up,0.24400920001789927,3,0,99,0.08,2.7755575615628914e-17,up,0.16299110022373497,None,,,,,,,,,,,,,,,,,,,,,,,,,,,,,,,,,,,2024-06-25_15h53.26.994,HideSeek_v1,2023.1.3,60.053928446875894,
,3,2,3,5,0,3,64,,train_dim1_1,4,4,2,0,2,0,,,,,,,,,5,0,5,0,0,3,3,3,3,0,3,0,,,,,,,,,,,,,,,,,,,,,,,,,,,,,,,,,,,,,,,,,,,,,,,,,,,,,,,4,,,,,,,,253.1409426999744,253.1409426999744,253.1409426999744,253.1409426999744,253.1409426999744,return,0.3278948001097888,4,0,1,0.08,2.7755575615628914e-17,return,0.23835640004836023,None,98,0,0.08,2.7755575615628914e-17,,,,,,,,,,,,,,,,,,,,,,,,,,,,,,,2024-06-25_15h53.26.994,HideSeek_v1,2023.1.3,60.053928446875894,
,2,4,2,5,0,1,62,,train_dim1_1,1,4,2,0,2,0,,,,,,,,,6,0,6,0,0,0,0,0,0,0,0,0,,,,,,,,,,,,,stimuli/alien_stimuli/62.png,,,,,,,,,,,,,,,,,,,,,,,,,,,,,,,stimuli/alien_stimuli/64.png,64,3,4,0,17,70,129.16666666666669,6,0,1,4,0,conditions/inputTrain_1.7.xlsx,99,1,1,1,0,256.99003680003807,256.99003680003807,256.99003680003807,256.99003680003807,256.99003680003807,up,0.4013063001912087,0,0,99,0,0.0,up,0.3111841999925673,None,,,,,255.42461999994703,256.99003680003807,0.08,0,0.24,0.0,-0.12,0.08,0.08,0.08,0,255.04162969999015,255.04162969999015,255.04162969999015,255.04162969999015,255.04162969999015,255.04162969999015,255.04162969999015,255.04162969999015,255.02328395997176,0.5028533998411149,return,0.3585409000515938,None,0,0,6,,,,2024-06-25_15h53.26.994,HideSeek_v1,2023.1.3,60.053928446875894,
,2,4,2,5,0,1,62,,train_dim1_1,1,4,2,0,2,0,,,,,,,,,6,0,6,0,0,0,0,0,1,0,1,0,,,,,,,,,,,,,,,,,,,,,,,,,,,,,,,,,,,,,,,,,,,,,,,,,,,,,,,4,,,,,,,,257.38967670011334,257.38967670011334,257.38967670011334,257.38967670011334,257.38967670011334,return,0.31186689995229244,1,0,1,0,0.0,return,0.23181350016966462,None,99,0,0,0.0,,,,,,,,,,,,,,,,,,,,,,,,,,,,,,,2024-06-25_15h53.26.994,HideSeek_v1,2023.1.3,60.053928446875894,
,0,1,0,5,0,4,65,,train_dim1_1,2,4,2,0,2,0,,,,,,,,,6,0,6,0,0,1,1,1,0,0,0,0,,,,,,,,,,,,,stimuli/alien_stimuli/65.png,,,,,,,,,,,,,,,,,,,,,,,,,,,,,,,stimuli/alien_stimuli/62.png,62,2,1,,,,,,,,4,,,,,,,,260.94420369993895,260.94420369993895,260.94420369993895,260.94420369993895,260.94420369993895,up,0.4407762000337243,1,0,99,-0.16,-0.24,up,0.34740800014697015,None,,,,,259.3901565000415,260.94420369993895,0,0,0.08,0.0,-0.04,0,0.0,0,0,259.2600285001099,259.2600285001099,259.2600285001099,259.2600285001099,259.2600285001099,259.2600285001099,259.2600285001099,259.2600285001099,259.2401331800036,0.23460710002109408,return,0.09761320007964969,None,,,,,,,2024-06-25_15h53.26.994,HideSeek_v1,2023.1.3,60.053928446875894,
,0,1,0,5,0,4,65,,train_dim1_1,2,4,2,0,2,0,,,,,,,,,6,0,6,0,0,1,1,1,1,0,1,0,,,,,,,,,,,,,,,,,,,,,,,,,,,,,,,,,,,,,,,,,,,,,,,,,,,,,,,4,,,,,,,,261.391497500008,261.391497500008,261.391497500008,261.391497500008,261.391497500008,up,0.24357889988459647,1,0,99,-0.16,-0.15999999999999998,up,0.15251260017976165,None,,,,,,,,,,,,,,,,,,,,,,,,,,,,,,,,,,,2024-06-25_15h53.26.994,HideSeek_v1,2023.1.3,60.053928446875894,
,0,1,0,5,0,4,65,,train_dim1_1,2,4,2,0,2,0,,,,,,,,,6,0,6,0,0,1,1,1,2,0,2,0,,,,,,,,,,,,,,,,,,,,,,,,,,,,,,,,,,,,,,,,,,,,,,,,,,,,,,,4,,,,,,,,261.6409863999579,261.6409863999579,261.6409863999579,261.6409863999579,261.6409863999579,up,0.32775250007398427,1,0,99,-0.16,-0.07999999999999997,up,0.24557050014846027,None,,,,,,,,,,,,,,,,,,,,,,,,,,,,,,,,,,,2024-06-25_15h53.26.994,HideSeek_v1,2023.1.3,60.053928446875894,
,0,1,0,5,0,4,65,,train_dim1_1,2,4,2,0,2,0,,,,,,,,,6,0,6,0,0,1,1,1,3,0,3,0,,,,,,,,,,,,,,,,,,,,,,,,,,,,,,,,,,,,,,,,,,,,,,,,,,,,,,,4,,,,,,,,261.974123199936,261.974123199936,261.974123199936,261.974123199936,261.974123199936,up,0.3274147999472916,1,0,99,-0.16,2.7755575615628914e-17,up,0.24195520021021366,None,,,,,,,,,,,,,,,,,,,,,,,,,,,,,,,,,,,2024-06-25_15h53.26.994,HideSeek_v1,2023.1.3,60.053928446875894,
,0,1,0,5,0,4,65,,train_dim1_1,2,4,2,0,2,0,,,,,,,,,6,0,6,0,0,1,1,1,4,0,4,0,,,,,,,,,,,,,,,,,,,,,,,,,,,,,,,,,,,,,,,,,,,,,,,,,,,,,,,4,,,,,,,,262.32403469993733,262.32403469993733,262.32403469993733,262.32403469993733,262.32403469993733,return,0.9269593998324126,2,0,1,-0.16,2.7755575615628914e-17,return,0.8201073003001511,None,103,0,-0.16,2.7755575615628914e-17,,,,,,,,,,,,,,,,,,,,,,,,,,,,,,,2024-06-25_15h53.26.994,HideSeek_v1,2023.1.3,60.053928446875894,
,,,,,,,,,,,,,,,,,,,,,,,,,,,,,,,,,,,,,,,,,,,,,,,,stimuli/alien_stimuli/64.png,,,,,,,,,,,,,,,,,,,,,,,,,,,,,,,stimuli/alien_stimuli/65.png,65,0,2,,,,,,,,,,,,,,,,267.6563661999535,267.6563661999535,267.6563661999535,267.6563661999535,267.6563661999535,,,,,1,,,,,,,,,,266.090075599961,267.6563661999535,-0.16,0,0.32,0.0,-0.16,-0.16,-0.16,-0.16,0,264.79101340007037,264.79101340007037,264.79101340007037,264.79101340007037,264.79101340007037,264.79101340007037,264.79101340007037,264.79101340007037,264.7732886799611,1.4016162999905646,return,1.2798305002506822,None,,,,,,,,,,,
