trialInstr,x_fixStart,y_fixStart,x_corrSteps,y_corrSteps,x_nrSteps,y_nrSteps,alienID,trialLength,version,trialTrain,praclen,beforeExpLoop.thisRepN,beforeExpLoop.thisTrialN,beforeExpLoop.thisN,beforeExpLoop.thisIndex,mini_instr_trials.thisRepN,mini_instr_trials.thisTrialN,mini_instr_trials.thisN,mini_instr_trials.thisIndex,instrLoop.thisRepN,instrLoop.thisTrialN,instrLoop.thisN,instrLoop.thisIndex,repeat_prac.thisRepN,repeat_prac.thisTrialN,repeat_prac.thisN,repeat_prac.thisIndex,trainLoop.thisRepN,trainLoop.thisTrialN,trainLoop.thisN,trainLoop.thisIndex,moveLoop_train.thisRepN,moveLoop_train.thisTrialN,moveLoop_train.thisN,moveLoop_train.thisIndex,experiment.thisRepN,experiment.thisTrialN,experiment.thisN,experiment.thisIndex,start_all_time,url,slideStim,audioStim,slides.started,sounds.started,nextButton.numClicks,nextButton.timesOn,nextButton.timesOff,prev_but.numClicks,prev_but.timesOn,prev_but.timesOff,alienStim,instrFile,alienStim_instr,gridImage_instr.started,startPos_3.started,key_instr.started,alienImage_3.started,sounds_1.started,key_instr.keys,key_instr.rt,key_instr.duration,all_x,all_y,FBy_corrSteps,FBy_fixStart,FBx_corrSteps,FBx_fixStart,FBy_pathSize_check,FBx_pathSize_check,gridImage_9.started,alienImageFB_3.started,startPosFB_3.started,keyFB_3.started,pathLine_ydir_2.started,pathLine_xdir_2.started,alienFace_3.started,sounds_2.started,RTFB_instr,keyFB_3.keys,keyFB_3.rt,keyFB_3.duration,draw_alienStim,draw_alienID,test_x,nrepcount,cumAcctrain_check,perfthres,percthres,earlierperf,earlystop,nextPrac,fileidx,praclen,saveACC_train,pracFile,nextPrac_train,addNrep,fileidx_endr,repExp,showearly,gridImage_4.started,startPos.started,movePos.started,key_resp.started,alienImage.started,wLy_dir,wLx_dir,x_movePos,y_movePos,buttonPress_train,RTchoice_train,cumAcctrain,saveACC_choice,corrAns,x_movePos_end,y_movePos_end,key_resp.keys,key_resp.rt,key_resp.duration,text_2.started,text_2.stopped,aft_x_corrPos,aft_y_corrPos,y_pathSize_check,x_pathSize_check,y_pathdirY,x_pathdirY,x_pathdirX,x_corrPos,y_corrPos,gridImage_6.started,alienImageFB_2.started,startPosFB_2.started,movePosFB_2.started,keyFB_2.started,pathLine_xdir.started,pathLine_ydir.started,alienFace.started,sounds_4.started,RT_FBtrain,keyFB_2.keys,keyFB_2.rt,keyFB_2.duration,saveACC_pre,within_saveACC_train,earlystop_wloop,endstatus,url_stopearly,slide_stop.started,key_resp_3.started,participant,study_id,session_id,date,expName,psychopyVersion,frameRate,
,,,,,,,,,,,,0,0,0,0,0,0,0,0,,,,,,,,,,,,,,,,,,,,,start_all_time,testround,stimuli/instructions/Slide1.png,stimuli/instructions/Audio1.wav,11.004898400045931,10.986544278869406,1,[2.5656951998826116],[2.56569889979437],0,,,,,,,,,,,,,,,,,,,,,,,,,,,,,,,,,,,,,,,,,,,,,,,,,,,,,,,,,,,,,,,,,,,,,,,,,,,,,,,,,,,,,,,,,,,,,,,,,,,,,,,,,,2024-06-25_15h43.20.002,HideSeek_v1,2023.1.3,59.686775757302264,
,,,,,,,,,,,,0,0,0,0,1,0,1,0,,,,,,,,,,,,,,,,,,,,,,,stimuli/instructions/Slide2.png,stimuli/instructions/Audio2.wav,13.639537800103426,13.621450750040822,1,[0.3588245001155883],[0.3588298000395298],0,,,,,,,,,,,,,,,,,,,,,,,,,,,,,,,,,,,,,,,,,,,,,,,,,,,,,,,,,,,,,,,,,,,,,,,,,,,,,,,,,,,,,,,,,,,,,,,,,,,,,,,,,,2024-06-25_15h43.20.002,HideSeek_v1,2023.1.3,59.686775757302264,
,,,,,,,,,,,,0,0,0,0,2,0,2,0,,,,,,,,,,,,,,,,,,,,,,,stimuli/instructions/Slide3.png,stimuli/instructions/Audio3.wav,14.12179970019497,14.107704720040784,1,[0.33054529991932213],[0.3305500999558717],0,,,,,,,,,,,,,,,,,,,,,,,,,,,,,,,,,,,,,,,,,,,,,,,,,,,,,,,,,,,,,,,,,,,,,,,,,,,,,,,,,,,,,,,,,,,,,,,,,,,,,,,,,,2024-06-25_15h43.20.002,HideSeek_v1,2023.1.3,59.686775757302264,
,,,,,,,,,,,,0,0,0,0,3,0,3,0,,,,,,,,,,,,,,,,,,,,,,,stimuli/instructions/Slide4.png,stimuli/instructions/Audio4.wav,14.593035400146618,14.588645100127906,1,[0.24875939986668527],[0.2487639000173658],0,,,,,,,,,,,,,,,,,,,,,,,,,,,,,,,,,,,,,,,,,,,,,,,,,,,,,,,,,,,,,,,,,,,,,,,,,,,,,,,,,,,,,,,,,,,,,,,,,,,,,,,,,,2024-06-25_15h43.20.002,HideSeek_v1,2023.1.3,59.686775757302264,
,,,,,,,,,,,,0,0,0,0,4,0,4,0,,,,,,,,,,,,,,,,,,,,,,,stimuli/instructions/Slide5.png,stimuli/instructions/Audio5.wav,14.921714400174096,14.906380950124003,1,[0.3591481000185013],[0.35915150004439056],0,,,,,,,,,,,,,,,,,,,,,,,,,,,,,,,,,,,,,,,,,,,,,,,,,,,,,,,,,,,,,,,,,,,,,,,,,,,,,,,,,,,,,,,,,,,,,,,,,,,,,,,,,,2024-06-25_15h43.20.002,HideSeek_v1,2023.1.3,59.686775757302264,
,,,,,,,,,,,,0,0,0,0,5,0,5,0,,,,,,,,,,,,,,,,,,,,,,,stimuli/instructions/Slide6.png,stimuli/instructions/Audio6.wav,15.338241500081494,15.32425575996749,1,[0.2705449000932276],[0.27054829988628626],0,,,,,,,,,,,,,,,,,,,,,,,,,,,,,,,,,,,,,,,,,,,,,,,,,,,,,,,,,,,,,,,,,,,,,,,,,,,,,,,,,,,,,,,,,,,,,,,,,,,,,,,,,,2024-06-25_15h43.20.002,HideSeek_v1,2023.1.3,59.686775757302264,
,,,,,,,,,,,,0,0,0,0,6,0,6,0,,,,,,,,,,,,,,,,,,,,,,,stimuli/instructions/Slide7.png,stimuli/instructions/Audio7.wav,15.65526150004007,15.654806960048154,1,[0.29970020009204745],[0.2997045998927206],0,,,,,,,,,,,,,,,,,,,,,,,,,,,,,,,,,,,,,,,,,,,,,,,,,,,,,,,,,,,,,,,,,,,,,,,,,,,,,,,,,,,,,,,,,,,,,,,,,,,,,,,,,,2024-06-25_15h43.20.002,HideSeek_v1,2023.1.3,59.686775757302264,
,,,,,,,,,,,,0,0,0,0,7,0,7,0,,,,,,,,,,,,,,,,,,,,,,,stimuli/instructions/Slide8.png,stimuli/instructions/Audio8.wav,16.022023800062016,16.005104760080577,1,[0.26875439984723926],[0.2687595000024885],0,,,,,,,,,,,,,,,,,,,,,,,,,,,,,,,,,,,,,,,,,,,,,,,,,,,,,,,,,,,,,,,,,,,,,,,,,,,,,,,,,,,,,,,,,,,,,,,,,,,,,,,,,,2024-06-25_15h43.20.002,HideSeek_v1,2023.1.3,59.686775757302264,
,,,,,,,,,,,,0,0,0,0,8,0,8,0,,,,,,,,,,,,,,,,,,,,,,,stimuli/instructions/Slide9.png,stimuli/instructions/Audio9.wav,16.354747000150383,16.33816006002016,1,[0.24349220003932714],[0.24349640007130802],0,,,,,,,,,,,,,,,,,,,,,,,,,,,,,,,,,,,,,,,,,,,,,,,,,,,,,,,,,,,,,,,,,,,,,,,,,,,,,,,,,,,,,,,,,,,,,,,,,,,,,,,,,,2024-06-25_15h43.20.002,HideSeek_v1,2023.1.3,59.686775757302264,
,,,,,,,,,,,,0,0,0,0,9,0,9,0,,,,,,,,,,,,,,,,,,,,,,,stimuli/instructions/Slide10.png,stimuli/instructions/Audio10.wav,16.637740400154144,16.638089760113505,1,[0.2996578000020236],[0.299662500154227],0,,,,,,,,,,,,,,,,,,,,,,,,,,,,,,,,,,,,,,,,,,,,,,,,,,,,,,,,,,,,,,,,,,,,,,,,,,,,,,,,,,,,,,,,,,,,,,,,,,,,,,,,,,2024-06-25_15h43.20.002,HideSeek_v1,2023.1.3,59.686775757302264,
,,,,,,,,,,,,0,0,0,0,10,0,10,0,,,,,,,,,,,,,,,,,,,,,,,stimuli/instructions/Slide11.png,stimuli/instructions/Audio11.wav,17.005352000007406,16.98834136002697,1,[0.2892086000647396],[0.2892130999825895],0,,,,,,,,,,,,,,,,,,,,,,,,,,,,,,,,,,,,,,,,,,,,,,,,,,,,,,,,,,,,,,,,,,,,,,,,,,,,,,,,,,,,,,,,,,,,,,,,,,,,,,,,,,2024-06-25_15h43.20.002,HideSeek_v1,2023.1.3,59.686775757302264,
,,,,,,,,,,,,0,0,0,0,11,0,11,0,,,,,,,,,,,,,,,,,,,,,,,stimuli/instructions/Slide12.png,stimuli/instructions/Audio12.wav,17.354896900011227,17.338085960038004,1,[0.2530871999915689],[0.2530901001300663],0,,,,,,,,,,,,,,,,,,,,,,,,,,,,,,,,,,,,,,,,,,,,,,,,,,,,,,,,,,,,,,,,,,,,,,,,,,,,,,,,,,,,,,,,,,,,,,,,,,,,,,,,,,2024-06-25_15h43.20.002,HideSeek_v1,2023.1.3,59.686775757302264,
1,0,3,0,8,0,5,66,2,instr_dim1_1,,,0,0,0,0,,,,,0,0,0,0,,,,,,,,,,,,,,,,,,,,,,,,,,,,,stimuli/alien_stimuli/66.png,conditions/inputInstr_1.xlsx,stimuli/alien_stimuli/66.png,17.688500200165436,17.688500200165436,17.688500200165436,17.688500200165436,17.671495650080033,return,0.8931979001499712,None,"[-0.16, -0.08, 0, 0.08, 0.16, 0.24, 0.32, 0.4, 0.48, 0.56]","[-0.4, -0.32, -0.24, -0.16, -0.08, 0, 0.08, 0.16, 0.24, 0.32]",8,3,0,0,0.4,0.0,18.74112240015529,18.74112240015529,18.74112240015529,18.74112240015529,18.74112240015529,18.74112240015529,18.74112240015529,18.704813930043017,0.2494608999695629,return,0.09654599986970425,None,stimuli/alien_stimuli/66.png,66,0,1,,,,,,,,,,,,,,,,,,,,,,,,,,,,,,,,,,,,,,,,,,,,,,,,,,,,,,,,,,,,,,,,,,,,,2024-06-25_15h43.20.002,HideSeek_v1,2023.1.3,59.686775757302264,
,,,,,,,,,,,24,0,0,0,0,,,,,,,,,,,,,,,,,,,,,,,,,,,,,,,,,,,,,,,,,,,,,,,,,,,,,,,,,,,,,,,,,,,,,,,,0,17,0.7,0,0,99,1,24,0,conditions/inputTrain_1.1.xlsx,99,1,1,1,0,,,,,,,,,,,,,,,,,,,,,,,,,,,,,,,,,,,,,,,,,,,,,,,,,,,,,,2024-06-25_15h43.20.002,HideSeek_v1,2023.1.3,59.686775757302264,
,,,,,,,,,,,,1,0,1,0,0,0,0,0,,,,,,,,,,,,,,,,,,,,,,,stimuli/instructions/Slide13.png,stimuli/instructions/Audio13.wav,18.98844620003365,18.971263420116156,1,[0.5897652998100966],[0.5897687999531627],0,,,,,,,,,,,,,,,,,,,,,,,,,,,,,,,,,,,,,,,,,,,,,,,,,,,,,,,,,,,,,,,,,,,,,,,,,,,,,,,,,,,,,,,,,,,,,,,,,,,,,,,,,,2024-06-25_15h43.20.002,HideSeek_v1,2023.1.3,59.686775757302264,
,,,,,,,,,,,,1,0,1,0,1,0,1,0,,,,,,,,,,,,,,,,,,,,,,,stimuli/instructions/Slide14.png,stimuli/instructions/Audio14.wav,19.69205650012009,19.672210729983632,1,[0.2881942999083549],[0.28819849994033575],0,,,,,,,,,,,,,,,,,,,,,,,,,,,,,,,,,,,,,,,,,,,,,,,,,,,,,,,,,,,,,,,,,,,,,,,,,,,,,,,,,,,,,,,,,,,,,,,,,,,,,,,,,,2024-06-25_15h43.20.002,HideSeek_v1,2023.1.3,59.686775757302264,
2,2,3,2,3,0,0,61,2,instr_dim1_1,,,1,0,1,0,,,,,0,0,0,0,,,,,,,,,,,,,,,,,,,,,,,,,,,,,stimuli/alien_stimuli/61.png,conditions/inputInstr_1.xlsx,stimuli/alien_stimuli/61.png,20.07163230003789,20.07163230003789,20.07163230003789,20.07163230003789,20.05466193994507,return,0.6072738999500871,None,"[-0.16, -0.08, 0, 0.08, 0.16, 0.24, 0.32, 0.4, 0.48, 0.56]","[-0.4, -0.32, -0.24, -0.16, -0.08, 0, 0.08, 0.16, 0.24, 0.32]",3,3,2,2,0.0,0.0,20.906739100115374,20.906739100115374,20.906739100115374,20.906739100115374,20.906739100115374,20.906739100115374,20.906739100115374,20.888117080042136,0.9878438001032919,return,0.7538240000139922,None,stimuli/alien_stimuli/61.png,61,2,2,,,,,,,,,,,,,,,,,,,,,,,,,,,,,,,,,,,,,,,,,,,,,,,,,,,,,,,,,,,,,,,,,,,,,2024-06-25_15h43.20.002,HideSeek_v1,2023.1.3,59.686775757302264,
,,,,,,,,,,,24,1,0,1,0,,,,,,,,,,,,,,,,,,,,,,,,,,,,,,,,,,,,,,,,,,,,,,,,,,,,,,,,,,,,,,,,,,,,,,,,0,17,0.7,0,0,99,1,24,0,conditions/inputTrain_1.1.xlsx,99,1,1,1,0,,,,,,,,,,,,,,,,,,,,,,,,,,,,,,,,,,,,,,,,,,,,,,,,,,,,,,2024-06-25_15h43.20.002,HideSeek_v1,2023.1.3,59.686775757302264,
,,,,,,,,,,,,2,0,2,0,0,0,0,0,,,,,,,,,,,,,,,,,,,,,,,stimuli/instructions/Slide15.png,stimuli/instructions/Audio15.wav,21.873802000191063,21.873773979907853,1,[0.5956896999850869],[0.5956944001372904],0,,,,,,,,,,,,,,,,,,,,,,,,,,,,,,,,,,,,,,,,,,,,,,,,,,,,,,,,,,,,,,,,,,,,,,,,,,,,,,,,,,,,,,,,,,,,,,,,,,,,,,,,,,2024-06-25_15h43.20.002,HideSeek_v1,2023.1.3,59.686775757302264,
,,,,,,,,,,,,2,0,2,0,1,0,1,0,,,,,,,,,,,,,,,,,,,,,,,stimuli/instructions/Slide16.png,stimuli/instructions/Audio16.wav,22.554814900038764,22.538174250046723,1,[0.3693442000076175],[0.36934740003198385],0,,,,,,,,,,,,,,,,,,,,,,,,,,,,,,,,,,,,,,,,,,,,,,,,,,,,,,,,,,,,,,,,,,,,,,,,,,,,,,,,,,,,,,,,,,,,,,,,,,,,,,,,,,2024-06-25_15h43.20.002,HideSeek_v1,2023.1.3,59.686775757302264,
,2,0,2,1,0,1,62,,train_dim1_1,1,24,2,0,2,0,,,,,,,,,0,0,0,0,0,0,0,0,0,0,0,0,,,,,,,,,,,,,,,,,stimuli/alien_stimuli/62.png,,,,,,,,,,,,,,,,,,,,,,,,,,,,,,,,,,,,,,,,,,24,,,,,,,,23.07381010008976,23.07381010008976,23.07381010008976,23.07381010008976,23.07381010008976,0,0,0,-0.4,return,2.12837400007993,0,0,0,0,-0.4,return,2.024225699948147,None,,,,,,,,,,,,,,,,,,,,,,,,,,,,,,,,,,,2024-06-25_15h43.20.002,HideSeek_v1,2023.1.3,59.686775757302264,
,2,2,2,5,0,3,64,,train_dim1_1,2,24,2,0,2,0,,,,,,,,,0,0,0,0,0,1,1,1,0,0,0,0,,,,,,,,,,,,,,,,,stimuli/alien_stimuli/64.png,,,,,,,,,,,,,,,,,,,,,,,,,,,,,,,stimuli/alien_stimuli/62.png,62,2,3,,,,,,,,24,,,,,,,,28.622883200179785,28.622883200179785,28.622883200179785,28.622883200179785,28.622883200179785,0,0,0,-0.24,return,0.34089939994737506,0,0,0,0,-0.24,return,0.23488959996029735,None,27.054777400102466,28.622883200179785,0,-0.32,0.08,0.0,-0.36,0,0.0,0,-0.32,26.75849450007081,26.75849450007081,26.75849450007081,26.75849450007081,26.75849450007081,26.75849450007081,26.75849450007081,26.75849450007081,26.721296039968728,0.41843770002014935,return,0.26525880000554025,None,,,,,,,,,,,2024-06-25_15h43.20.002,HideSeek_v1,2023.1.3,59.686775757302264,
,3,3,3,8,0,5,66,,train_dim1_1,3,24,2,0,2,0,,,,,,,,,0,0,0,0,0,2,2,2,0,0,0,0,,,,,,,,,,,,,,,,,stimuli/alien_stimuli/66.png,,,,,,,,,,,,,,,,,,,,,,,,,,,,,,,stimuli/alien_stimuli/64.png,64,2,4,,,,,,,,24,,,,,,,,32.38820570008829,32.38820570008829,32.38820570008829,32.38820570008829,32.38820570008829,0,0,0.08,-0.16,return,0.5731713999994099,0,0,0,0.08,-0.16,return,0.4821314997971058,None,30.821673500118777,32.38820570008829,0,0,0.24,0.0,-0.12,0,0.0,0,0,30.55567999999039,30.55567999999039,30.55567999999039,30.55567999999039,30.55567999999039,30.55567999999039,30.55567999999039,30.55567999999039,30.538039109925737,0.4176870998926461,return,0.2431679000146687,None,,,,,,,,,,,2024-06-25_15h43.20.002,HideSeek_v1,2023.1.3,59.686775757302264,
,4,4,4,8,0,4,65,,train_dim1_1,4,24,2,0,2,0,,,,,,,,,0,0,0,0,0,3,3,3,0,0,0,0,,,,,,,,,,,,,,,,,stimuli/alien_stimuli/65.png,,,,,,,,,,,,,,,,,,,,,,,,,,,,,,,stimuli/alien_stimuli/66.png,66,3,5,,,,,,,,24,,,,,,,,36.421545000048354,36.421545000048354,36.421545000048354,36.421545000048354,36.421545000048354,0,0,0.16,-0.08,return,0.38959779986180365,0,0,0,0.16,-0.08,return,0.2991382998879999,None,34.854746900033206,36.421545000048354,0.08,0.24,0.4,0.0,0.039999999999999994,0.08,0.08,0.08,0.24,34.53989460016601,34.53989460016601,34.53989460016601,34.53989460016601,34.53989460016601,34.53989460016601,34.53989460016601,34.53989460016601,34.53836972014978,0.4344404998701066,return,0.28275539982132614,None,,,,,,,,,,,2024-06-25_15h43.20.002,HideSeek_v1,2023.1.3,59.686775757302264,
,3,4,3,5,0,1,62,,train_dim1_1,5,24,2,0,2,0,,,,,,,,,0,0,0,0,0,4,4,4,0,0,0,0,,,,,,,,,,,,,,,,,stimuli/alien_stimuli/62.png,,,,,,,,,,,,,,,,,,,,,,,,,,,,,,,stimuli/alien_stimuli/65.png,65,4,6,,,,,,,,24,,,,,,,,40.25430880021304,40.25430880021304,40.25430880021304,40.25430880021304,40.25430880021304,0,0,0.08,-0.08,return,0.4062707000412047,0,0,0,0.08,-0.08,return,0.27756969979964197,None,38.654688799986616,40.25430880021304,0.16,0.24,0.32,0.0,0.07999999999999999,0.16,0.16,0.16,0.24,38.37134150019847,38.37134150019847,38.37134150019847,38.37134150019847,38.37134150019847,38.37134150019847,38.37134150019847,38.37134150019847,38.35458773009013,0.4014465000946075,return,0.260208300082013,None,,,,,,,,,,,2024-06-25_15h43.20.002,HideSeek_v1,2023.1.3,59.686775757302264,
,4,0,4,4,0,4,65,,train_dim1_1,6,24,2,0,2,0,,,,,,,,,0,0,0,0,0,5,5,5,0,0,0,0,,,,,,,,,,,,,,,,,stimuli/alien_stimuli/65.png,,,,,,,,,,,,,,,,,,,,,,,,,,,,,,,stimuli/alien_stimuli/62.png,62,3,7,,,,,,,,24,,,,,,,,44.02284330013208,44.02284330013208,44.02284330013208,44.02284330013208,44.02284330013208,0,0,0.16,-0.4,return,0.3726773001253605,0,0,0,0.16,-0.4,return,0.28280270006507635,None,42.45468370011076,44.02284330013208,0.08,0,0.08,0.0,-0.04,0.08,0.08,0.08,0,42.20737490011379,42.20737490011379,42.20737490011379,42.20737490011379,42.20737490011379,42.20737490011379,42.20737490011379,42.20737490011379,42.2044463099679,0.3849017999600619,return,0.22730909986421466,None,,,,,,,,,,,2024-06-25_15h43.20.002,HideSeek_v1,2023.1.3,59.686775757302264,
,0,3,0,6,0,3,64,,train_dim1_1,7,24,2,0,2,0,,,,,,,,,0,0,0,0,0,6,6,6,0,0,0,0,,,,,,,,,,,,,,,,,stimuli/alien_stimuli/64.png,,,,,,,,,,,,,,,,,,,,,,,,,,,,,,,stimuli/alien_stimuli/65.png,65,4,8,,,,,,,,24,,,,,,,,47.7051035000477,47.7051035000477,47.7051035000477,47.7051035000477,47.7051035000477,0,0,-0.16,-0.16,return,0.5390454998705536,0,0,0,-0.16,-0.16,return,0.39646560000255704,None,46.08847840013914,47.7051035000477,0.16,-0.08,0.32,0.0,-0.24000000000000002,0.16,0.16,0.16,-0.08,45.95527830021456,45.95527830021456,45.95527830021456,45.95527830021456,45.95527830021456,45.95527830021456,45.95527830021456,45.95527830021456,45.938178530032744,0.25143259996548295,return,0.1012077999766916,None,,,,,,,,,,,2024-06-25_15h43.20.002,HideSeek_v1,2023.1.3,59.686775757302264,
,4,1,4,6,0,5,66,,train_dim1_1,8,24,2,0,2,0,,,,,,,,,0,0,0,0,0,7,7,7,0,0,0,0,,,,,,,,,,,,,,,,,stimuli/alien_stimuli/66.png,,,,,,,,,,,,,,,,,,,,,,,,,,,,,,,stimuli/alien_stimuli/64.png,64,0,9,,,,,,,,24,,,,,,,,51.588814600137994,51.588814600137994,51.588814600137994,51.588814600137994,51.588814600137994,0,0,0.16,-0.32,return,0.4889022000133991,0,0,0,0.16,-0.32,return,0.39959120005369186,None,50.021223300136626,51.588814600137994,-0.16,0.08,0.24,0.0,-0.04,-0.16,-0.16,-0.16,0.08,49.755275200121105,49.755275200121105,49.755275200121105,49.755275200121105,49.755275200121105,49.755275200121105,49.755275200121105,49.755275200121105,49.737699030037035,0.3852341000456363,return,0.24052589992061257,None,,,,,,,,,,,2024-06-25_15h43.20.002,HideSeek_v1,2023.1.3,59.686775757302264,
,1,3,1,6,0,3,64,,train_dim1_1,9,24,2,0,2,0,,,,,,,,,0,0,0,0,0,8,8,8,0,0,0,0,,,,,,,,,,,,,,,,,stimuli/alien_stimuli/64.png,,,,,,,,,,,,,,,,,,,,,,,,,,,,,,,stimuli/alien_stimuli/66.png,66,4,10,,,,,,,,24,,,,,,,,55.68808290013112,55.68808290013112,55.68808290013112,55.68808290013112,55.68808290013112,0,0,-0.08,-0.16,return,0.3223711000755429,0,0,0,-0.08,-0.16,return,0.2237637999933213,None,54.121253200108185,55.68808290013112,0.16,0.08,0.4,0.0,-0.12,0.16,0.16,0.16,0.08,53.63771230005659,53.63771230005659,53.63771230005659,53.63771230005659,53.63771230005659,53.63771230005659,53.63771230005659,53.63771230005659,53.62188553002197,0.6004526000469923,return,0.4589583999477327,None,,,,,,,,,,,2024-06-25_15h43.20.002,HideSeek_v1,2023.1.3,59.686775757302264,
,0,0,0,4,0,4,65,,train_dim1_1,10,24,2,0,2,0,,,,,,,,,0,0,0,0,0,9,9,9,0,0,0,0,,,,,,,,,,,,,,,,,stimuli/alien_stimuli/65.png,,,,,,,,,,,,,,,,,,,,,,,,,,,,,,,stimuli/alien_stimuli/64.png,64,1,11,,,,,,,,24,,,,,,,,59.42162570008077,59.42162570008077,59.42162570008077,59.42162570008077,59.42162570008077,0,0,-0.16,-0.4,return,0.4222039000596851,0,0,0,-0.16,-0.4,return,0.3204366001300514,None,57.85451310011558,59.42162570008077,-0.08,0.08,0.24,0.0,-0.04,-0.08,-0.08,-0.08,0.08,57.5730787999928,57.5730787999928,57.5730787999928,57.5730787999928,57.5730787999928,57.5730787999928,57.5730787999928,57.5730787999928,57.55513962993864,0.4012144999578595,return,0.2635881002061069,None,,,,,,,,,,,2024-06-25_15h43.20.002,HideSeek_v1,2023.1.3,59.686775757302264,
,4,2,4,3,0,1,62,,train_dim1_1,11,24,2,0,2,0,,,,,,,,,0,0,0,0,0,10,10,10,0,0,0,0,,,,,,,,,,,,,,,,,stimuli/alien_stimuli/62.png,,,,,,,,,,,,,,,,,,,,,,,,,,,,,,,stimuli/alien_stimuli/65.png,65,0,12,,,,,,,,24,,,,,,,,63.22073599998839,63.22073599998839,63.22073599998839,63.22073599998839,63.22073599998839,0,0,0.16,-0.24,return,0.4388274000957608,0,0,0,0.16,-0.24,return,0.3453387999907136,None,61.65446100011468,63.22073599998839,-0.16,-0.08,0.32,0.0,-0.24000000000000002,-0.16,-0.16,-0.16,-0.08,61.40445400006138,61.40445400006138,61.40445400006138,61.40445400006138,61.40445400006138,61.40445400006138,61.40445400006138,61.40445400006138,61.38763063012156,0.36891589988954365,return,0.23158719995990396,None,,,,,,,,,,,2024-06-25_15h43.20.002,HideSeek_v1,2023.1.3,59.686775757302264,
,3,0,3,5,0,5,66,,train_dim1_1,12,24,2,0,2,0,,,,,,,,,0,0,0,0,0,11,11,11,0,0,0,0,,,,,,,,,,,,,,,,,stimuli/alien_stimuli/66.png,,,,,,,,,,,,,,,,,,,,,,,,,,,,,,,stimuli/alien_stimuli/62.png,62,4,13,,,,,,,,24,,,,,,,,67.0384085001424,67.0384085001424,67.0384085001424,67.0384085001424,67.0384085001424,0,0,0.08,-0.4,return,0.37419130001217127,0,0,0,0.08,-0.4,return,0.275589199969545,None,65.47101020021364,67.0384085001424,0.16,-0.16,0.08,0.0,-0.2,0.16,0.16,0.16,-0.16,65.2218395001255,65.2218395001255,65.2218395001255,65.2218395001255,65.2218395001255,65.2218395001255,65.2218395001255,65.2218395001255,65.20414222993423,0.3680829000659287,return,0.21812300011515617,None,,,,,,,,,,,2024-06-25_15h43.20.002,HideSeek_v1,2023.1.3,59.686775757302264,
,2,1,2,4,0,3,64,,train_dim1_1,13,24,2,0,2,0,,,,,,,,,0,0,0,0,0,12,12,12,0,0,0,0,,,,,,,,,,,,,,,,,stimuli/alien_stimuli/64.png,,,,,,,,,,,,,,,,,,,,,,,,,,,,,,,stimuli/alien_stimuli/66.png,66,3,14,,,,,,,,24,,,,,,,,70.88760640006512,70.88760640006512,70.88760640006512,70.88760640006512,70.88760640006512,0,0,0,-0.32,return,0.324106200132519,0,0,0,0,-0.32,return,0.22471729991957545,None,69.32102230004966,70.88760640006512,0.08,0,0.4,0.0,-0.2,0.08,0.08,0.08,0,68.97194010019302,68.97194010019302,68.97194010019302,68.97194010019302,68.97194010019302,68.97194010019302,68.97194010019302,68.97194010019302,68.95469163015952,0.4675049998331815,return,0.31705289985984564,None,,,,,,,,,,,2024-06-25_15h43.20.002,HideSeek_v1,2023.1.3,59.686775757302264,
,4,3,4,7,0,4,65,,train_dim1_1,14,24,2,0,2,0,,,,,,,,,0,0,0,0,0,13,13,13,0,0,0,0,,,,,,,,,,,,,,,,,stimuli/alien_stimuli/65.png,,,,,,,,,,,,,,,,,,,,,,,,,,,,,,,stimuli/alien_stimuli/64.png,64,2,15,,,,,,,,24,,,,,,,,74.67170780012384,74.67170780012384,74.67170780012384,74.67170780012384,74.67170780012384,0,0,0.16,-0.16,return,0.3572195000015199,0,0,0,0.16,-0.16,return,0.2504594998899847,None,73.10431820014492,74.67170780012384,0,-0.08,0.24,0.0,-0.2,0,0.0,0,-0.08,72.75633130013011,72.75633130013011,72.75633130013011,72.75633130013011,72.75633130013011,72.75633130013011,72.75633130013011,72.75633130013011,72.75466093008873,0.4511227000039071,return,0.3156979000195861,None,,,,,,,,,,,2024-06-25_15h43.20.002,HideSeek_v1,2023.1.3,59.686775757302264,
,1,0,1,5,0,5,66,,train_dim1_1,15,24,2,0,2,0,,,,,,,,,0,0,0,0,0,14,14,14,0,0,0,0,,,,,,,,,,,,,,,,,stimuli/alien_stimuli/66.png,,,,,,,,,,,,,,,,,,,,,,,,,,,,,,,stimuli/alien_stimuli/65.png,65,4,16,,,,,,,,24,,,,,,,,78.42087700008415,78.42087700008415,78.42087700008415,78.42087700008415,78.42087700008415,0,0,-0.08,-0.4,return,0.33994860015809536,0,0,0,-0.08,-0.4,return,0.2485002998728305,None,76.85439700004645,78.42087700008415,0.16,0.16,0.32,0.0,0.0,0.16,0.16,0.16,0.16,76.57094000000507,76.57094000000507,76.57094000000507,76.57094000000507,76.57094000000507,76.57094000000507,76.57094000000507,76.57094000000507,76.55422704000958,0.38540250016376376,return,0.26649200008250773,None,,,,,,,,,,,2024-06-25_15h43.20.002,HideSeek_v1,2023.1.3,59.686775757302264,
,3,1,3,2,0,1,62,,train_dim1_1,16,24,2,0,2,0,,,,,,,,,0,0,0,0,0,15,15,15,0,0,0,0,,,,,,,,,,,,,,,,,stimuli/alien_stimuli/62.png,,,,,,,,,,,,,,,,,,,,,,,,,,,,,,,stimuli/alien_stimuli/66.png,66,1,17,,,,,,,,24,,,,,,,,82.38771580019966,82.38771580019966,82.38771580019966,82.38771580019966,82.38771580019966,0,0,0.08,-0.32,return,0.3887835999485105,0,0,0,0.08,-0.32,return,0.2909143001306802,None,80.82086640014313,82.38771580019966,-0.08,0,0.4,0.0,-0.2,-0.08,-0.08,-0.08,0,80.32088230014779,80.32088230014779,80.32088230014779,80.32088230014779,80.32088230014779,80.32088230014779,80.32088230014779,80.32088230014779,80.30412933004555,0.6182053000666201,return,0.4768276000395417,None,,,,,,,,,,,2024-06-25_15h43.20.002,HideSeek_v1,2023.1.3,59.686775757302264,
,0,2,0,7,0,5,66,,train_dim1_1,17,24,2,0,2,0,,,,,,,,,0,0,0,0,0,16,16,16,0,0,0,0,,,,,,,,,,,,,,,,,stimuli/alien_stimuli/66.png,,,,,,,,,,,,,,,,,,,,,,,,,,,,,,,stimuli/alien_stimuli/62.png,62,3,18,,,,,,,,24,,,,,,,,86.3709743001964,86.3709743001964,86.3709743001964,86.3709743001964,86.3709743001964,0,0,-0.16,-0.24,return,0.35717449989169836,0,0,0,-0.16,-0.24,return,0.2547454999294132,None,84.80441320012324,86.3709743001964,0.08,-0.24,0.08,0.0,-0.28,0.08,0.08,0.08,-0.24,84.33764080004767,84.33764080004767,84.33764080004767,84.33764080004767,84.33764080004767,84.33764080004767,84.33764080004767,84.33764080004767,84.3208230301505,0.5848918000701815,return,0.4491133999545127,None,,,,,,,,,,,2024-06-25_15h43.20.002,HideSeek_v1,2023.1.3,59.686775757302264,
,1,2,1,6,0,4,65,,train_dim1_1,18,24,2,0,2,0,,,,,,,,,0,0,0,0,0,17,17,17,0,0,0,0,,,,,,,,,,,,,,,,,stimuli/alien_stimuli/65.png,,,,,,,,,,,,,,,,,,,,,,,,,,,,,,,stimuli/alien_stimuli/66.png,66,0,19,,,,,,,,24,,,,,,,,90.12112980009988,90.12112980009988,90.12112980009988,90.12112980009988,90.12112980009988,0,0,-0.08,-0.24,return,0.39012609981000423,0,0,0,-0.08,-0.24,return,0.28790859994478524,None,88.55418370012194,90.12112980009988,-0.16,0.16,0.4,0.0,-0.039999999999999994,-0.16,-0.16,-0.16,0.16,88.27220430015586,88.27220430015586,88.27220430015586,88.27220430015586,88.27220430015586,88.27220430015586,88.27220430015586,88.27220430015586,88.27078472992872,0.3844580000732094,return,0.25237330002710223,None,,,,,,,,,,,2024-06-25_15h43.20.002,HideSeek_v1,2023.1.3,59.686775757302264,
,1,4,1,5,0,1,62,,train_dim1_1,19,24,2,0,2,0,,,,,,,,,0,0,0,0,0,18,18,18,0,0,0,0,,,,,,,,,,,,,,,,,stimuli/alien_stimuli/62.png,,,,,,,,,,,,,,,,,,,,,,,,,,,,,,,stimuli/alien_stimuli/65.png,65,1,20,,,,,,,,24,,,,,,,,93.920736100059,93.920736100059,93.920736100059,93.920736100059,93.920736100059,0,0,-0.08,-0.08,return,0.35774700017645955,0,0,0,-0.08,-0.08,return,0.2555778999812901,None,92.35418820008636,93.920736100059,-0.08,0.08,0.32,0.0,-0.07999999999999999,-0.08,-0.08,-0.08,0.08,92.05755000002682,92.05755000002682,92.05755000002682,92.05755000002682,92.05755000002682,92.05755000002682,92.05755000002682,92.05755000002682,92.05381743011532,0.40129019995220006,return,0.27499120007269084,None,,,,,,,,,,,2024-06-25_15h43.20.002,HideSeek_v1,2023.1.3,59.686775757302264,
,3,2,3,5,0,3,64,,train_dim1_1,20,24,2,0,2,0,,,,,,,,,0,0,0,0,0,19,19,19,0,0,0,0,,,,,,,,,,,,,,,,,stimuli/alien_stimuli/64.png,,,,,,,,,,,,,,,,,,,,,,,,,,,,,,,stimuli/alien_stimuli/62.png,62,1,21,,,,,,,,24,,,,,,,,97.65405540005304,97.65405540005304,97.65405540005304,97.65405540005304,97.65405540005304,0,0,0.08,-0.24,return,0.4237573000136763,0,0,0,0.08,-0.24,return,0.3191082999110222,None,96.08743409998715,97.65405540005304,-0.08,0,0.08,0.0,-0.04,-0.08,-0.08,-0.08,0,95.82419690000825,95.82419690000825,95.82419690000825,95.82419690000825,95.82419690000825,95.82419690000825,95.82419690000825,95.82419690000825,95.82056203002577,0.36845070007257164,return,0.24350240011699498,None,,,,,,,,,,,2024-06-25_15h43.20.002,HideSeek_v1,2023.1.3,59.686775757302264,
,2,4,2,5,0,1,62,,train_dim1_1,21,24,2,0,2,0,,,,,,,,,0,0,0,0,0,20,20,20,0,0,0,0,,,,,,,,,,,,,,,,,stimuli/alien_stimuli/62.png,,,,,,,,,,,,,,,,,,,,,,,,,,,,,,,stimuli/alien_stimuli/64.png,64,3,22,,,,,,,,24,,,,,,,,101.55400310014375,101.55400310014375,101.55400310014375,101.55400310014375,101.55400310014375,0,0,0,-0.08,return,0.45727459993213415,0,0,0,0,-0.08,return,0.35196939995512366,None,99.98735260008834,101.55400310014375,0.08,0,0.24,0.0,-0.12,0.08,0.08,0.08,0,99.63730230019428,99.63730230019428,99.63730230019428,99.63730230019428,99.63730230019428,99.63730230019428,99.63730230019428,99.63730230019428,99.62060033001472,0.4680637998972088,return,0.32212929986417294,None,,,,,,,,,,,2024-06-25_15h43.20.002,HideSeek_v1,2023.1.3,59.686775757302264,
,0,1,0,5,0,4,65,,train_dim1_1,22,24,2,0,2,0,,,,,,,,,0,0,0,0,0,21,21,21,0,0,0,0,,,,,,,,,,,,,,,,,stimuli/alien_stimuli/65.png,,,,,,,,,,,,,,,,,,,,,,,,,,,,,,,stimuli/alien_stimuli/62.png,62,2,23,,,,,,,,24,,,,,,,,105.48754620016553,105.48754620016553,105.48754620016553,105.48754620016553,105.48754620016553,0,0,-0.16,-0.32,return,0.30648029991425574,0,0,0,-0.16,-0.32,return,0.21625549998134375,None,103.92067100014538,105.48754620016553,0,0,0.08,0.0,-0.04,0,0.0,0,0,103.55665600020438,103.55665600020438,103.55665600020438,103.55665600020438,103.55665600020438,103.55665600020438,103.55665600020438,103.55665600020438,103.55374033011032,0.46815759991295636,return,0.3465944998897612,None,,,,,,,,,,,2024-06-25_15h43.20.002,HideSeek_v1,2023.1.3,59.686775757302264,
,2,3,2,6,0,3,64,,train_dim1_1,23,24,2,0,2,0,,,,,,,,,0,0,0,0,0,22,22,22,0,0,0,0,,,,,,,,,,,,,,,,,stimuli/alien_stimuli/64.png,,,,,,,,,,,,,,,,,,,,,,,,,,,,,,,stimuli/alien_stimuli/65.png,65,0,24,,,,,,,,24,,,,,,,,109.20423280005343,109.20423280005343,109.20423280005343,109.20423280005343,109.20423280005343,0,0,0,-0.16,return,0.44087799987755716,0,0,0,0,-0.16,return,0.34858589991927147,None,107.63718960015103,109.20423280005343,-0.16,0,0.32,0.0,-0.16,-0.16,-0.16,-0.16,0,107.35412720008753,107.35412720008753,107.35412720008753,107.35412720008753,107.35412720008753,107.35412720008753,107.35412720008753,107.35412720008753,107.33777833015193,0.4007338001392782,return,0.2534191000740975,None,,,,,,,,,,,2024-06-25_15h43.20.002,HideSeek_v1,2023.1.3,59.686775757302264,
,1,1,1,6,0,5,66,,train_dim1_1,24,24,2,0,2,0,,,,,,,,,0,0,0,0,0,23,23,23,0,0,0,0,,,,,,,,,,,,,,,,,stimuli/alien_stimuli/66.png,,,,,,,,,,,,,,,,,,,,,,,,,,,,,,,stimuli/alien_stimuli/64.png,64,2,25,,,,,,,,24,,,,,,,,113.1374753001146,113.1374753001146,113.1374753001146,113.1374753001146,113.1374753001146,0,0,-0.08,-0.32,return,0.4740965999662876,0,0,0,-0.08,-0.32,return,0.3715319999027997,None,111.57077400013804,113.1374753001146,0,0.08,0.24,0.0,-0.04,0,0.0,0,0.08,111.2041165002156,111.2041165002156,111.2041165002156,111.2041165002156,111.2041165002156,111.2041165002156,111.2041165002156,111.2041165002156,111.1870687299641,0.48499200004152954,return,0.3484298998955637,None,,,,,,,,,,,2024-06-25_15h43.20.002,HideSeek_v1,2023.1.3,59.686775757302264,
,2,0,2,1,0,1,62,,train_dim1_1,1,4,2,0,2,0,,,,,,,,,1,0,1,0,0,0,0,0,0,0,0,0,,,,,,,,,,,,,,,,,stimuli/alien_stimuli/62.png,,,,,,,,,,,,,,,,,,,,,,,,,,,,,,,stimuli/alien_stimuli/66.png,66,1,26,0,17,0.7,0.0,1,0,1,4,0,conditions/inputTrain_1.2.xlsx,99,1,1,1,0,117.0205711000599,117.0205711000599,117.0205711000599,117.0205711000599,117.0205711000599,0,0,0,-0.4,return,0.4435518002137542,0,0,0,0,-0.4,return,0.33795389998704195,None,115.43721400015056,117.0205711000599,-0.08,0.08,0.4,0.0,-0.12,-0.08,-0.08,-0.08,0.08,115.17074600001797,115.17074600001797,115.17074600001797,115.17074600001797,115.17074600001797,115.17074600001797,115.17074600001797,115.17074600001797,115.15363933013288,0.38477239990606904,return,0.2402663000393659,None,0,0,1,,,,,,,,2024-06-25_15h43.20.002,HideSeek_v1,2023.1.3,59.686775757302264,
,2,2,2,5,0,3,64,,train_dim1_1,2,4,2,0,2,0,,,,,,,,,1,0,1,0,0,1,1,1,0,0,0,0,,,,,,,,,,,,,,,,,stimuli/alien_stimuli/64.png,,,,,,,,,,,,,,,,,,,,,,,,,,,,,,,stimuli/alien_stimuli/62.png,62,2,1,,,,,,,,4,,,,,,,,122.28994670021348,122.28994670021348,122.28994670021348,122.28994670021348,122.28994670021348,0,0,0,-0.24,return,1.3753482999745756,0,0,0,0,-0.24,return,1.2865724998991936,None,120.73725490015931,122.28994670021348,0,-0.32,0.08,0.0,-0.36,0,0.0,0,-0.32,119.02063360018656,119.02063360018656,119.02063360018656,119.02063360018656,119.02063360018656,119.02063360018656,119.02063360018656,119.02063360018656,119.00370853005444,1.8348552000243217,return,1.6875614998862147,None,,,,,,,,,,,2024-06-25_15h43.20.002,HideSeek_v1,2023.1.3,59.686775757302264,
,3,3,3,8,0,5,66,,train_dim1_1,3,4,2,0,2,0,,,,,,,,,1,0,1,0,0,2,2,2,0,0,0,0,,,,,,,,,,,,,,,,,stimuli/alien_stimuli/66.png,,,,,,,,,,,,,,,,,,,,,,,,,,,,,,,stimuli/alien_stimuli/64.png,64,2,2,,,,,,,,4,,,,,,,,127.7872196000535,127.7872196000535,127.7872196000535,127.7872196000535,127.7872196000535,0,0,0.08,-0.16,return,0.425164699787274,0,0,0,0.08,-0.16,return,0.33408049982972443,None,126.22039360017516,127.7872196000535,0,0,0.24,0.0,-0.12,0,0.0,0,0,125.23817920009606,125.23817920009606,125.23817920009606,125.23817920009606,125.23817920009606,125.23817920009606,125.23817920009606,125.23817920009606,125.22093662999106,1.1011206998955458,return,0.9502188002225012,None,,,,,,,,,,,2024-06-25_15h43.20.002,HideSeek_v1,2023.1.3,59.686775757302264,
,4,4,4,8,0,4,65,,train_dim1_1,4,4,2,0,2,0,,,,,,,,,1,0,1,0,0,3,3,3,0,0,0,0,,,,,,,,,,,,,,,,,stimuli/alien_stimuli/65.png,,,,,,,,,,,,,,,,,,,,,,,,,,,,,,,stimuli/alien_stimuli/66.png,66,3,3,,,,,,,,4,,,,,,,,132.0377539000474,132.0377539000474,132.0377539000474,132.0377539000474,132.0377539000474,0,0,0.16,-0.08,return,0.7232554000802338,0,0,0,0.16,-0.08,return,0.6265094000846148,None,130.47054830007255,132.0377539000474,0.08,0.24,0.4,0.0,0.039999999999999994,0.08,0.08,0.08,0.24,129.77063260017894,129.77063260017894,129.77063260017894,129.77063260017894,129.77063260017894,129.77063260017894,129.77063260017894,129.77063260017894,129.75356963004452,0.8189640000928193,return,0.6771337001118809,None,,,,,,,,,,,2024-06-25_15h43.20.002,HideSeek_v1,2023.1.3,59.686775757302264,
,3,4,3,5,0,1,62,,train_dim1_1,1,4,2,0,2,0,,,,,,,,,2,0,2,0,0,0,0,0,0,0,0,0,,,,,,,,,,,,,,,,,stimuli/alien_stimuli/62.png,,,,,,,,,,,,,,,,,,,,,,,,,,,,,,,stimuli/alien_stimuli/65.png,65,4,4,0,17,0.7,0.0,2,0,1,4,0,conditions/inputTrain_1.3.xlsx,99,1,1,1,0,136.95511700003408,136.95511700003408,136.95511700003408,136.95511700003408,136.95511700003408,0,0,0.08,-0.08,return,0.662678699940443,0,0,0,0.08,-0.08,return,0.5692787000443786,None,135.38697510003112,136.95511700003408,0.16,0.24,0.32,0.0,0.07999999999999999,0.16,0.16,0.16,0.24,134.3204204000067,134.3204204000067,134.3204204000067,134.3204204000067,134.3204204000067,134.3204204000067,134.3204204000067,134.3204204000067,134.30403052999173,1.1840221001766622,return,1.046148099936545,None,0,0,2,,,,,,,,2024-06-25_15h43.20.002,HideSeek_v1,2023.1.3,59.686775757302264,
,4,0,4,4,0,4,65,,train_dim1_1,2,4,2,0,2,0,,,,,,,,,2,0,2,0,0,1,1,1,0,0,0,0,,,,,,,,,,,,,,,,,stimuli/alien_stimuli/65.png,,,,,,,,,,,,,,,,,,,,,,,,,,,,,,,stimuli/alien_stimuli/62.png,62,3,1,,,,,,,,4,,,,,,,,143.13952170009725,143.13952170009725,143.13952170009725,143.13952170009725,143.13952170009725,0,0,0.16,-0.4,return,0.525033500045538,0,0,0,0.16,-0.4,return,0.39006260014139116,None,141.5369612001814,143.13952170009725,0.08,0,0.08,0.0,-0.04,0.08,0.08,0.08,0,139.18728539999574,139.18728539999574,139.18728539999574,139.18728539999574,139.18728539999574,139.18728539999574,139.18728539999574,139.18728539999574,139.17015213014093,2.4681611999403685,return,2.3261072000022978,None,,,,,,,,,,,2024-06-25_15h43.20.002,HideSeek_v1,2023.1.3,59.686775757302264,
,0,3,0,6,0,3,64,,train_dim1_1,3,4,2,0,2,0,,,,,,,,,2,0,2,0,0,2,2,2,0,0,0,0,,,,,,,,,,,,,,,,,stimuli/alien_stimuli/64.png,,,,,,,,,,,,,,,,,,,,,,,,,,,,,,,stimuli/alien_stimuli/65.png,65,4,2,,,,,,,,4,,,,,,,,148.4203517001588,148.4203517001588,148.4203517001588,148.4203517001588,148.4203517001588,0,0,-0.16,-0.16,return,1.3913773000240326,0,0,0,-0.16,-0.16,return,1.2994947999250144,None,146.8536429000087,148.4203517001588,0.16,-0.08,0.32,0.0,-0.24000000000000002,0.16,0.16,0.16,-0.08,145.20366880018264,145.20366880018264,145.20366880018264,145.20366880018264,145.20366880018264,145.20366880018264,145.20366880018264,145.20366880018264,145.18677582014354,1.7843929000664502,return,1.6263834999408573,None,,,,,,,,,,,2024-06-25_15h43.20.002,HideSeek_v1,2023.1.3,59.686775757302264,
,4,1,4,6,0,5,66,,train_dim1_1,4,4,2,0,2,0,,,,,,,,,2,0,2,0,0,3,3,3,0,0,0,0,,,,,,,,,,,,,,,,,stimuli/alien_stimuli/66.png,,,,,,,,,,,,,,,,,,,,,,,,,,,,,,,stimuli/alien_stimuli/64.png,64,0,3,,,,,,,,4,,,,,,,,153.5869551000651,153.5869551000651,153.5869551000651,153.5869551000651,153.5869551000651,0,0,0.16,-0.32,return,0.3914208000060171,0,0,0,0.16,-0.32,return,0.28702699998393655,None,152.02054160018452,153.5869551000651,-0.16,0.08,0.24,0.0,-0.04,-0.16,-0.16,-0.16,0.08,151.37131000007503,151.37131000007503,151.37131000007503,151.37131000007503,151.37131000007503,151.37131000007503,151.37131000007503,151.37131000007503,151.35321963003372,0.7686257001478225,return,0.6224185999017209,None,,,,,,,,,,,2024-06-25_15h43.20.002,HideSeek_v1,2023.1.3,59.686775757302264,
,1,3,1,6,0,3,64,,train_dim1_1,1,4,2,0,2,0,,,,,,,,,3,0,3,0,0,0,0,0,0,0,0,0,,,,,,,,,,,,,,,,,stimuli/alien_stimuli/64.png,,,,,,,,,,,,,,,,,,,,,,,,,,,,,,,stimuli/alien_stimuli/66.png,66,4,4,0,17,0.7,0.0,3,0,1,4,0,conditions/inputTrain_1.4.xlsx,99,1,1,1,0,157.45384880015627,157.45384880015627,157.45384880015627,157.45384880015627,157.45384880015627,0,0,-0.08,-0.16,return,0.3110124000813812,0,0,0,-0.08,-0.16,return,0.18060499988496304,None,155.83679150021635,157.45384880015627,0.16,0.08,0.4,0.0,-0.12,0.16,0.16,0.16,0.08,155.53921640012413,155.53921640012413,155.53921640012413,155.53921640012413,155.53921640012413,155.53921640012413,155.53921640012413,155.53921640012413,155.51988933009562,0.4181308001279831,return,0.2719826998654753,None,0,0,3,,,,,,,,2024-06-25_15h43.20.002,HideSeek_v1,2023.1.3,59.686775757302264,
,0,0,0,4,0,4,65,,train_dim1_1,2,4,2,0,2,0,,,,,,,,,3,0,3,0,0,1,1,1,0,0,0,0,,,,,,,,,,,,,,,,,stimuli/alien_stimuli/65.png,,,,,,,,,,,,,,,,,,,,,,,,,,,,,,,stimuli/alien_stimuli/64.png,64,1,1,,,,,,,,4,,,,,,,,161.12028640019707,161.12028640019707,161.12028640019707,161.12028640019707,161.12028640019707,0,0,-0.16,-0.4,return,0.3556158998981118,0,0,0,-0.16,-0.4,return,0.26576410001143813,None,159.55370350019075,161.12028640019707,-0.08,0.08,0.24,0.0,-0.04,-0.08,-0.08,-0.08,0.08,159.28698820015416,159.28698820015416,159.28698820015416,159.28698820015416,159.28698820015416,159.28698820015416,159.28698820015416,159.28698820015416,159.27007033007686,0.38541379990056157,return,0.24628530000336468,None,,,,,,,,,,,2024-06-25_15h43.20.002,HideSeek_v1,2023.1.3,59.686775757302264,
,4,2,4,3,0,1,62,,train_dim1_1,3,4,2,0,2,0,,,,,,,,,3,0,3,0,0,2,2,2,0,0,0,0,,,,,,,,,,,,,,,,,stimuli/alien_stimuli/62.png,,,,,,,,,,,,,,,,,,,,,,,,,,,,,,,stimuli/alien_stimuli/65.png,65,0,2,,,,,,,,4,,,,,,,,164.9199959000107,164.9199959000107,164.9199959000107,164.9199959000107,164.9199959000107,0,0,0.16,-0.24,return,0.4063665000721812,0,0,0,0.16,-0.24,return,0.30555859999731183,None,163.35342680010945,164.9199959000107,-0.16,-0.08,0.32,0.0,-0.24000000000000002,-0.16,-0.16,-0.16,-0.08,163.03865310014226,163.03865310014226,163.03865310014226,163.03865310014226,163.03865310014226,163.03865310014226,163.03865310014226,163.03865310014226,163.01974493016024,0.43560640001669526,return,0.28689890005625784,None,,,,,,,,,,,2024-06-25_15h43.20.002,HideSeek_v1,2023.1.3,59.686775757302264,
,3,0,3,5,0,5,66,,train_dim1_1,4,4,2,0,2,0,,,,,,,,,3,0,3,0,0,3,3,3,0,0,0,0,,,,,,,,,,,,,,,,,stimuli/alien_stimuli/66.png,,,,,,,,,,,,,,,,,,,,,,,,,,,,,,,stimuli/alien_stimuli/62.png,62,4,3,,,,,,,,4,,,,,,,,169.10326870018616,169.10326870018616,169.10326870018616,169.10326870018616,169.10326870018616,0,0,0.08,-0.4,return,0.4232257001567632,0,0,0,0.08,-0.4,return,0.3339931999798864,None,167.53735360014252,169.10326870018616,0.16,-0.16,0.08,0.0,-0.2,0.16,0.16,0.16,-0.16,166.88696860009804,166.88696860009804,166.88696860009804,166.88696860009804,166.88696860009804,166.88696860009804,166.88696860009804,166.88696860009804,166.87090283010622,0.7674482997972518,return,0.6256094998680055,None,,,,,,,,,,,2024-06-25_15h43.20.002,HideSeek_v1,2023.1.3,59.686775757302264,
,2,1,2,4,0,3,64,,train_dim1_1,1,4,2,0,2,0,,,,,,,,,4,0,4,0,0,0,0,0,0,0,0,0,,,,,,,,,,,,,,,,,stimuli/alien_stimuli/64.png,,,,,,,,,,,,,,,,,,,,,,,,,,,,,,,stimuli/alien_stimuli/66.png,66,3,4,0,17,0.7,0.0,4,0,1,4,0,conditions/inputTrain_1.5.xlsx,99,1,1,1,0,173.00346180005,173.00346180005,173.00346180005,173.00346180005,173.00346180005,0,0,0,-0.32,return,0.4278994998894632,0,0,0,0,-0.32,return,0.3148490998428315,None,171.40337519999593,173.00346180005,0.08,0,0.4,0.0,-0.2,0.08,0.08,0.08,0,171.0872045001015,171.0872045001015,171.0872045001015,171.0872045001015,171.0872045001015,171.0872045001015,171.0872045001015,171.0872045001015,171.06998053013814,0.4343736998271197,return,0.2844145998824388,None,0,0,4,,,,,,,,2024-06-25_15h43.20.002,HideSeek_v1,2023.1.3,59.686775757302264,
,4,3,4,7,0,4,65,,train_dim1_1,2,4,2,0,2,0,,,,,,,,,4,0,4,0,0,1,1,1,0,0,0,0,,,,,,,,,,,,,,,,,stimuli/alien_stimuli/65.png,,,,,,,,,,,,,,,,,,,,,,,,,,,,,,,stimuli/alien_stimuli/64.png,64,2,1,,,,,,,,4,,,,,,,,176.8701569000259,176.8701569000259,176.8701569000259,176.8701569000259,176.8701569000259,0,0,0.16,-0.16,return,0.3733671000227332,0,0,0,0.16,-0.16,return,0.283862299984321,None,175.30803600000218,175.01122420001775,0,-0.08,0.24,0.0,-0.2,0,0.0,0,-0.08,175.01122420001775,175.01122420001775,175.01122420001775,175.01122420001775,175.01122420001775,175.01122420001775,175.01122420001775,175.01122420001775,174.98664750999305,0.4381482999306172,return,0.2562086000107229,None,,,,,,,,,,,2024-06-25_15h43.20.002,HideSeek_v1,2023.1.3,59.686775757302264,
,1,0,1,5,0,5,66,,train_dim1_1,3,4,2,0,2,0,,,,,,,,,4,0,4,0,0,2,2,2,0,0,0,0,,,,,,,,,,,,,,,,,stimuli/alien_stimuli/66.png,,,,,,,,,,,,,,,,,,,,,,,,,,,,,,,stimuli/alien_stimuli/65.png,65,4,2,,,,,,,,4,,,,,,,,180.67063770000823,180.67063770000823,180.67063770000823,180.67063770000823,180.67063770000823,0,0,-0.08,-0.4,return,0.571045899996534,0,0,0,-0.08,-0.4,return,0.4784115001093596,None,179.10327620012686,180.67063770000823,0.16,0.16,0.32,0.0,0.0,0.16,0.16,0.16,0.16,178.80707000009716,178.80707000009716,178.80707000009716,178.80707000009716,178.80707000009716,178.80707000009716,178.80707000009716,178.80707000009716,178.78691493005027,0.41739309998229146,return,0.2661286999937147,None,,,,,,,,,,,2024-06-25_15h43.20.002,HideSeek_v1,2023.1.3,59.686775757302264,
,3,1,3,2,0,1,62,,train_dim1_1,4,4,2,0,2,0,,,,,,,,,4,0,4,0,0,3,3,3,0,0,0,0,,,,,,,,,,,,,,,,,stimuli/alien_stimuli/62.png,,,,,,,,,,,,,,,,,,,,,,,,,,,,,,,stimuli/alien_stimuli/66.png,66,1,3,,,,,,,,4,,,,,,,,184.9205734001007,184.9205734001007,184.9205734001007,184.9205734001007,184.9205734001007,0,0,0.08,-0.32,return,0.6729369999375194,0,0,0,0.08,-0.32,return,0.5770048000849783,None,183.35317640006542,184.9205734001007,-0.08,0,0.4,0.0,-0.2,-0.08,-0.08,-0.08,0,182.80444910004735,182.80444910004735,182.80444910004735,182.80444910004735,182.80444910004735,182.80444910004735,182.80444910004735,182.80444910004735,182.7866152299801,0.6679630998987705,return,0.5266651001293212,None,,,,,,,,,,,2024-06-25_15h43.20.002,HideSeek_v1,2023.1.3,59.686775757302264,
,0,2,0,7,0,5,66,,train_dim1_1,1,4,2,0,2,0,,,,,,,,,5,0,5,0,0,0,0,0,0,0,0,0,,,,,,,,,,,,,,,,,stimuli/alien_stimuli/66.png,,,,,,,,,,,,,,,,,,,,,,,,,,,,,,,stimuli/alien_stimuli/62.png,62,3,4,0,17,0.7,0.0,5,0,1,4,0,conditions/inputTrain_1.6.xlsx,99,1,1,1,0,189.22011880017817,189.22011880017817,189.22011880017817,189.22011880017817,189.22011880017817,0,0,-0.16,-0.24,return,0.4754979000426829,0,0,0,-0.16,-0.24,return,0.3754555000923574,None,187.63691820017993,189.22011880017817,0.08,-0.24,0.08,0.0,-0.28,0.08,0.08,0.08,-0.24,187.1700761001557,187.1700761001557,187.1700761001557,187.1700761001557,187.1700761001557,187.1700761001557,187.1700761001557,187.1700761001557,187.1534791200422,0.6010084000881761,return,0.44427850004285574,None,0,0,5,,,,,,,,2024-06-25_15h43.20.002,HideSeek_v1,2023.1.3,59.686775757302264,
,1,2,1,6,0,4,65,,train_dim1_1,2,4,2,0,2,0,,,,,,,,,5,0,5,0,0,1,1,1,0,0,0,0,,,,,,,,,,,,,,,,,stimuli/alien_stimuli/65.png,,,,,,,,,,,,,,,,,,,,,,,,,,,,,,,stimuli/alien_stimuli/66.png,66,0,1,,,,,,,,4,,,,,,,,193.3364943000488,193.3364943000488,193.3364943000488,193.3364943000488,193.3364943000488,0,0,-0.08,-0.24,return,3.323151299962774,0,0,0,-0.08,-0.24,return,3.2218440000433475,None,191.76986080012284,193.3364943000488,-0.16,0.16,0.4,0.0,-0.039999999999999994,-0.16,-0.16,-0.16,0.16,191.26999030006118,191.26999030006118,191.26999030006118,191.26999030006118,191.26999030006118,191.26999030006118,191.26999030006118,191.26999030006118,191.25353823003826,0.6177167999558151,return,0.47022380004636943,None,,,,,,,,,,,2024-06-25_15h43.20.002,HideSeek_v1,2023.1.3,59.686775757302264,
,1,4,1,5,0,1,62,,train_dim1_1,3,4,2,0,2,0,,,,,,,,,5,0,5,0,0,2,2,2,0,0,0,0,,,,,,,,,,,,,,,,,stimuli/alien_stimuli/62.png,,,,,,,,,,,,,,,,,,,,,,,,,,,,,,,stimuli/alien_stimuli/65.png,65,1,2,,,,,,,,4,,,,,,,,200.45290300017223,200.45290300017223,200.45290300017223,200.45290300017223,200.45290300017223,0,0,-0.08,-0.08,return,0.506764099933207,0,0,0,-0.08,-0.08,return,0.4088818000163883,None,198.8863191001583,200.45290300017223,-0.08,0.08,0.32,0.0,-0.07999999999999999,-0.08,-0.08,-0.08,0.08,198.21957600000314,198.21957600000314,198.21957600000314,198.21957600000314,198.21957600000314,198.21957600000314,198.21957600000314,198.21957600000314,198.2043441299582,0.7845180998556316,return,0.6513219000771642,None,,,,,,,,,,,2024-06-25_15h43.20.002,HideSeek_v1,2023.1.3,59.686775757302264,
,3,2,3,5,0,3,64,,train_dim1_1,4,4,2,0,2,0,,,,,,,,,5,0,5,0,0,3,3,3,0,0,0,0,,,,,,,,,,,,,,,,,stimuli/alien_stimuli/64.png,,,,,,,,,,,,,,,,,,,,,,,,,,,,,,,stimuli/alien_stimuli/62.png,62,1,3,,,,,,,,4,,,,,,,,204.7530828001909,204.7530828001909,204.7530828001909,204.7530828001909,204.7530828001909,0,0,0.08,-0.24,return,0.373510800069198,0,0,0,0.08,-0.24,return,0.2792905999813229,None,203.18636150006205,204.7530828001909,-0.08,0,0.08,0.0,-0.04,-0.08,-0.08,-0.08,0,202.5031415000558,202.5031415000558,202.5031415000558,202.5031415000558,202.5031415000558,202.5031415000558,202.5031415000558,202.5031415000558,202.4861820401624,0.7848565999884158,return,0.6537484000436962,None,,,,,,,,,,,2024-06-25_15h43.20.002,HideSeek_v1,2023.1.3,59.686775757302264,
,2,4,2,5,0,1,62,,train_dim1_1,1,4,2,0,2,0,,,,,,,,,6,0,6,0,0,0,0,0,0,0,0,0,,,,,,,,,,,,,,,,,stimuli/alien_stimuli/62.png,,,,,,,,,,,,,,,,,,,,,,,,,,,,,,,stimuli/alien_stimuli/64.png,64,3,4,0,17,0.7,0.0,6,0,1,4,0,conditions/inputTrain_1.7.xlsx,99,1,1,1,0,208.87034060014412,208.87034060014412,208.87034060014412,208.87034060014412,208.87034060014412,0,0,0,-0.08,return,0.3950182998087257,0,0,0,0,-0.08,return,0.30698259989731014,None,207.30304400017485,208.87034060014412,0.08,0,0.24,0.0,-0.12,0.08,0.08,0.08,0,206.6705366000533,206.6705366000533,206.6705366000533,206.6705366000533,206.6705366000533,206.6705366000533,206.6705366000533,206.6705366000533,206.6528729401529,0.734392800135538,return,0.6011324999853969,None,0,0,6,,,,,,,,2024-06-25_15h43.20.002,HideSeek_v1,2023.1.3,59.686775757302264,
,0,1,0,5,0,4,65,,train_dim1_1,2,4,2,0,2,0,,,,,,,,,6,0,6,0,0,1,1,1,0,0,0,0,,,,,,,,,,,,,,,,,stimuli/alien_stimuli/65.png,,,,,,,,,,,,,,,,,,,,,,,,,,,,,,,stimuli/alien_stimuli/62.png,62,2,1,,,,,,,,4,,,,,,,,212.8205338001717,212.8205338001717,212.8205338001717,212.8205338001717,212.8205338001717,0,0,-0.16,-0.32,return,1.1393093999940902,0,0,0,-0.16,-0.32,return,1.043978399829939,None,211.25303990021348,212.8205338001717,0,0,0.08,0.0,-0.04,0,0.0,0,0,210.82040650001727,210.82040650001727,210.82040650001727,210.82040650001727,210.82040650001727,210.82040650001727,210.82040650001727,210.82040650001727,210.81960842998234,0.5344293999951333,return,0.4040512000210583,None,,,,,,,,,,,2024-06-25_15h43.20.002,HideSeek_v1,2023.1.3,59.686775757302264,
,2,3,2,6,0,3,64,,train_dim1_1,3,4,2,0,2,0,,,,,,,,,6,0,6,0,0,2,2,2,0,0,0,0,,,,,,,,,,,,,,,,,stimuli/alien_stimuli/64.png,,,,,,,,,,,,,,,,,,,,,,,,,,,,,,,stimuli/alien_stimuli/65.png,65,0,2,,,,,,,,4,,,,,,,,217.636369000189,217.636369000189,217.636369000189,217.636369000189,217.636369000189,0,0,0,-0.16,return,0.42528240010142326,0,0,0,0,-0.16,return,0.3262761998921633,None,216.0697987000458,217.636369000189,-0.16,0,0.32,0.0,-0.16,-0.16,-0.16,-0.16,0,215.51980460016057,215.51980460016057,215.51980460016057,215.51980460016057,215.51980460016057,215.51980460016057,215.51980460016057,215.51980460016057,215.5025674300967,0.6684477000962943,return,0.5273170999716967,None,,,,,,,,,,,2024-06-25_15h43.20.002,HideSeek_v1,2023.1.3,59.686775757302264,
,1,1,1,6,0,5,66,,train_dim1_1,4,4,2,0,2,0,,,,,,,,,6,0,6,0,0,3,3,3,0,0,0,0,,,,,,,,,,,,,,,,,stimuli/alien_stimuli/66.png,,,,,,,,,,,,,,,,,,,,,,,,,,,,,,,stimuli/alien_stimuli/64.png,64,2,3,,,,,,,,4,,,,,,,,221.7529521000106,221.7529521000106,221.7529521000106,221.7529521000106,221.7529521000106,0,0,-0.08,-0.32,return,0.5071407000068575,0,0,0,-0.08,-0.32,return,0.40189710003323853,None,220.18611650005914,221.7529521000106,0,0.08,0.24,0.0,-0.04,0,0.0,0,0.08,219.61941500008106,219.61941500008106,219.61941500008106,219.61941500008106,219.61941500008106,219.61941500008106,219.61941500008106,219.61941500008106,219.60275542999153,0.6853251000866294,return,0.5512490998953581,None,,,,,,,,,,,2024-06-25_15h43.20.002,HideSeek_v1,2023.1.3,59.686775757302264,
,,,,,,,,,,,4,2,0,2,0,,,,,,,,,,,,,,,,,,,,,,,,,,,,,,,,,,,,,,,,,,,,,,,,,,,,,,,,,,,,,,,,,,,,stimuli/alien_stimuli/66.png,66,1,4,0,17,0.7,0.0,7,0,1,4,0,conditions/inputTrain_1.8.xlsx,99,1,1,1,1,,,,,,,,,,,,,,0,,,,,,224.43673750013113,226.0564857001882,-0.08,0.08,0.4,0.0,-0.12,-0.08,-0.08,-0.08,0.08,223.82208010018803,223.82208010018803,223.82208010018803,223.82208010018803,223.82208010018803,223.82208010018803,223.82208010018803,223.82208010018803,223.81930341995323,0.7351377001032233,return,0.5845598999876529,None,0,0,7,,,,,,,,2024-06-25_15h43.20.002,HideSeek_v1,2023.1.3,59.686775757302264,
,,,,,,,,,,,,,,,,,,,,,,,,,,,,,,,,,,,,,,,,,,,,,,,,,,,,,,,,,,,,,,,,,,,,,,,,,,,,,,,,,,,,,,,,,,,,,,,,,,,,,,,,,,,,,,,,,,,,,,,,,,,,,,,,,,,,,,,,,,,,,,,,,,,,experiment_finished_early,0,226.0564857001882,226.0564857001882,,,,,,,,
