trialInstr,x_fixStart,y_fixStart,x_corrSteps,y_corrSteps,x_nrSteps,y_nrSteps,alienID,trialLength,version,trialTrain,praclen,beforeExpLoop.thisRepN,beforeExpLoop.thisTrialN,beforeExpLoop.thisN,beforeExpLoop.thisIndex,mini_instr_trials.thisRepN,mini_instr_trials.thisTrialN,mini_instr_trials.thisN,mini_instr_trials.thisIndex,instrLoop.thisRepN,instrLoop.thisTrialN,instrLoop.thisN,instrLoop.thisIndex,repeat_prac.thisRepN,repeat_prac.thisTrialN,repeat_prac.thisN,repeat_prac.thisIndex,trainLoop.thisRepN,trainLoop.thisTrialN,trainLoop.thisN,trainLoop.thisIndex,moveLoop_train.thisRepN,moveLoop_train.thisTrialN,moveLoop_train.thisN,moveLoop_train.thisIndex,start_all_time,url,slideStim,audioStim,slides.started,sounds.started,nextButton.numClicks,nextButton.timesOn,nextButton.timesOff,prev_but.numClicks,prev_but.timesOn,prev_but.timesOff,alienStim,instrFile,alienStim_instr,gridImage_instr.started,startPos_3.started,key_instr.started,alienImage_3.started,sounds_1.started,key_instr.keys,key_instr.rt,key_instr.duration,all_x,all_y,FBy_corrSteps,FBy_fixStart,FBx_corrSteps,FBx_fixStart,FBy_pathSize_check,FBx_pathSize_check,gridImage_9.started,alienImageFB_3.started,startPosFB_3.started,keyFB_3.started,pathLine_ydir_2.started,pathLine_xdir_2.started,alienFace_3.started,sounds_2.started,RTFB_instr,keyFB_3.keys,keyFB_3.rt,keyFB_3.duration,draw_alienStim,draw_alienID,test_x,nrepcount,perfthres,percthres,earlierperf,earlystop,nextPrac,fileidx,praclen,saveACC_train,pracFile,nextPrac_train,addNrep,fileidx_endr,repExp,showearly,gridImage_4.started,startPos.started,movePos.started,key_resp.started,alienImage.started,buttonPress_train,RTchoice_train,cumAcctrain,saveACC_choice,corrAns,x_movePos_end,y_movePos_end,key_resp.keys,key_resp.rt,key_resp.duration,wLy_dir,wLx_dir,x_movePos,y_movePos,text_2.started,text_2.stopped,aft_x_corrPos,aft_y_corrPos,y_pathSize_check,x_pathSize_check,y_pathdirY,x_pathdirY,x_pathdirX,x_corrPos,y_corrPos,gridImage_6.started,alienImageFB_2.started,startPosFB_2.started,movePosFB_2.started,keyFB_2.started,pathLine_xdir.started,pathLine_ydir.started,alienFace.started,sounds_4.started,RT_FBtrain,keyFB_2.keys,keyFB_2.rt,keyFB_2.duration,saveACC_pre,ACC,within_saveACC_train,earlystop_wloop,cumAcctrain_check,participant,study_id,session_id,date,expName,psychopyVersion,frameRate,
,,,,,,,,,,,,0,0,0,0,0,0,0,0,,,,,,,,,,,,,,,,,start_all_time,testround,stimuli/instructions/Slide1.png,stimuli/instructions/Audio1.wav,12.71869430015795,12.668363600270823,1,[3.47070789989084],[3.470712599810213],0,,,,,,,,,,,,,,,,,,,,,,,,,,,,,,,,,,,,,,,,,,,,,,,,,,,,,,,,,,,,,,,,,,,,,,,,,,,,,,,,,,,,,,,,,,,,,,,,,,,,,,,2024-06-25_16h51.15.201,HideSeek_v1,2023.1.3,59.997072148523316,
,,,,,,,,,,,,0,0,0,0,1,0,1,0,,,,,,,,,,,,,,,,,,,stimuli/instructions/Slide2.png,stimuli/instructions/Audio2.wav,16.232935900101438,16.218928650021553,1,[0.26953460020013154],[0.26954020000994205],0,,,,,,,,,,,,,,,,,,,,,,,,,,,,,,,,,,,,,,,,,,,,,,,,,,,,,,,,,,,,,,,,,,,,,,,,,,,,,,,,,,,,,,,,,,,,,,,,,,,,,,,2024-06-25_16h51.15.201,HideSeek_v1,2023.1.3,59.997072148523316,
,,,,,,,,,,,,0,0,0,0,2,0,2,0,,,,,,,,,,,,,,,,,,,stimuli/instructions/Slide3.png,stimuli/instructions/Audio3.wav,16.634712600149214,16.61795864012092,1,[0.12582820001989603],[0.12583189993165433],0,,,,,,,,,,,,,,,,,,,,,,,,,,,,,,,,,,,,,,,,,,,,,,,,,,,,,,,,,,,,,,,,,,,,,,,,,,,,,,,,,,,,,,,,,,,,,,,,,,,,,,,2024-06-25_16h51.15.201,HideSeek_v1,2023.1.3,59.997072148523316,
,,,,,,,,,,,,0,0,0,0,3,0,3,0,,,,,,,,,,,,,,,,,,,stimuli/instructions/Slide4.png,stimuli/instructions/Audio4.wav,16.856666000094265,16.850751709984614,1,[0.17922309995628893],[0.179226899985224],0,,,,,,,,,,,,,,,,,,,,,,,,,,,,,,,,,,,,,,,,,,,,,,,,,,,,,,,,,,,,,,,,,,,,,,,,,,,,,,,,,,,,,,,,,,,,,,,,,,,,,,,2024-06-25_16h51.15.201,HideSeek_v1,2023.1.3,59.997072148523316,
,,,,,,,,,,,,0,0,0,0,4,0,4,0,,,,,,,,,,,,,,,,,,,stimuli/instructions/Slide5.png,stimuli/instructions/Audio5.wav,17.086267300182953,17.085294820088894,1,[0.2320129000581801],[0.2320167999714613],0,,,,,,,,,,,,,,,,,,,,,,,,,,,,,,,,,,,,,,,,,,,,,,,,,,,,,,,,,,,,,,,,,,,,,,,,,,,,,,,,,,,,,,,,,,,,,,,,,,,,,,,2024-06-25_16h51.15.201,HideSeek_v1,2023.1.3,59.997072148523316,
,,,,,,,,,,,,0,0,0,0,5,0,5,0,,,,,,,,,,,,,,,,,,,stimuli/instructions/Slide6.png,stimuli/instructions/Audio6.wav,17.368937500054017,17.36879892013967,1,[0.19873639987781644],[0.19874170003458858],0,,,,,,,,,,,,,,,,,,,,,,,,,,,,,,,,,,,,,,,,,,,,,,,,,,,,,,,,,,,,,,,,,,,,,,,,,,,,,,,,,,,,,,,,,,,,,,,,,,,,,,,2024-06-25_16h51.15.201,HideSeek_v1,2023.1.3,59.997072148523316,
,,,,,,,,,,,,0,0,0,0,6,0,6,0,,,,,,,,,,,,,,,,,,,stimuli/instructions/Slide7.png,stimuli/instructions/Audio7.wav,17.620283900061622,17.618073919974268,1,[0.26417350000701845],[0.2641775000374764],0,,,,,,,,,,,,,,,,,,,,,,,,,,,,,,,,,,,,,,,,,,,,,,,,,,,,,,,,,,,,,,,,,,,,,,,,,,,,,,,,,,,,,,,,,,,,,,,,,,,,,,,2024-06-25_16h51.15.201,HideSeek_v1,2023.1.3,59.997072148523316,
,,,,,,,,,,,,0,0,0,0,7,0,7,0,,,,,,,,,,,,,,,,,,,stimuli/instructions/Slide8.png,stimuli/instructions/Audio8.wav,17.952677099965513,17.950723950052634,1,[0.19820920005440712],[0.19821369997225702],0,,,,,,,,,,,,,,,,,,,,,,,,,,,,,,,,,,,,,,,,,,,,,,,,,,,,,,,,,,,,,,,,,,,,,,,,,,,,,,,,,,,,,,,,,,,,,,,,,,,,,,,2024-06-25_16h51.15.201,HideSeek_v1,2023.1.3,59.997072148523316,
,,,,,,,,,,,,0,0,0,0,8,0,8,0,,,,,,,,,,,,,,,,,,,stimuli/instructions/Slide9.png,stimuli/instructions/Audio9.wav,18.20952960010618,18.20031732013449,1,[0.22521549998782575],[0.22522240015678108],0,,,,,,,,,,,,,,,,,,,,,,,,,,,,,,,,,,,,,,,,,,,,,,,,,,,,,,,,,,,,,,,,,,,,,,,,,,,,,,,,,,,,,,,,,,,,,,,,,,,,,,,2024-06-25_16h51.15.201,HideSeek_v1,2023.1.3,59.997072148523316,
,,,,,,,,,,,,0,0,0,0,9,0,9,0,,,,,,,,,,,,,,,,,,,stimuli/instructions/Slide10.png,stimuli/instructions/Audio10.wav,18.49137910013087,18.485366020072252,1,[0.22682260000146925],[0.2268271001521498],0,,,,,,,,,,,,,,,,,,,,,,,,,,,,,,,,,,,,,,,,,,,,,,,,,,,,,,,,,,,,,,,,,,,,,,,,,,,,,,,,,,,,,,,,,,,,,,,,,,,,,,,2024-06-25_16h51.15.201,HideSeek_v1,2023.1.3,59.997072148523316,
,,,,,,,,,,,,0,0,0,0,10,0,10,0,,,,,,,,,,,,,,,,,,,stimuli/instructions/Slide11.png,stimuli/instructions/Audio11.wav,18.785320200026035,18.785159850027412,1,[0.21636159997433424],[0.21636500000022352],0,,,,,,,,,,,,,,,,,,,,,,,,,,,,,,,,,,,,,,,,,,,,,,,,,,,,,,,,,,,,,,,,,,,,,,,,,,,,,,,,,,,,,,,,,,,,,,,,,,,,,,,2024-06-25_16h51.15.201,HideSeek_v1,2023.1.3,59.997072148523316,
,,,,,,,,,,,,0,0,0,0,11,0,11,0,,,,,,,,,,,,,,,,,,,stimuli/instructions/Slide12.png,stimuli/instructions/Audio12.wav,19.07202329998836,19.06863775011152,1,[0.21388860000297427],[0.21389429992996156],0,,,,,,,,,,,,,,,,,,,,,,,,,,,,,,,,,,,,,,,,,,,,,,,,,,,,,,,,,,,,,,,,,,,,,,,,,,,,,,,,,,,,,,,,,,,,,,,,,,,,,,,2024-06-25_16h51.15.201,HideSeek_v1,2023.1.3,59.997072148523316,
1,0,3,0,8,0,5,66,2,instr_dim1_1,,,0,0,0,0,,,,,0,0,0,0,,,,,,,,,,,,,,,,,,,,,,,,,stimuli/alien_stimuli/66.png,conditions/inputInstr_1.xlsx,stimuli/alien_stimuli/66.png,19.435111500089988,19.435111500089988,19.435111500089988,19.435111500089988,19.352183650014922,return,0.9221467000897974,None,"[-0.16, -0.08, 0, 0.08, 0.16, 0.24, 0.32, 0.4, 0.48, 0.56]","[-0.4, -0.32, -0.24, -0.16, -0.08, 0, 0.08, 0.16, 0.24, 0.32]",8,3,0,0,0.4,0.0,20.617663300130516,20.617663300130516,20.617663300130516,20.617663300130516,20.617663300130516,20.617663300130516,20.617663300130516,20.501306340005247,0.26849430007860065,return,0.01351049984805286,None,stimuli/alien_stimuli/66.png,66,0,1,,,,,,,,,,,,,,,,,,,,,,,,,,,,,,,,,,,,,,,,,,,,,,,,,,,,,,,,,,,,,,,,,,2024-06-25_16h51.15.201,HideSeek_v1,2023.1.3,59.997072148523316,
,,,,,,,,,,,24,0,0,0,0,,,,,,,,,,,,,,,,,,,,,,,,,,,,,,,,,,,,,,,,,,,,,,,,,,,,,,,,,,,,,,,,,,,,17,0.7,100,0,99,1,24,0,conditions/inputTrain_1.1.xlsx,99,1,1,1,0,,,,,,,,,,,,,,,,,,,,,,,,,,,,,,,,,,,,,,,,,,,,,,,,,,,,2024-06-25_16h51.15.201,HideSeek_v1,2023.1.3,59.997072148523316,
,,,,,,,,,,,,1,0,1,0,0,0,0,0,,,,,,,,,,,,,,,,,,,stimuli/instructions/Slide13.png,stimuli/instructions/Audio13.wav,20.85345509997569,20.852074390184132,1,[0.7488543998915702],[0.7488585999235511],0,,,,,,,,,,,,,,,,,,,,,,,,,,,,,,,,,,,,,,,,,,,,,,,,,,,,,,,,,,,,,,,,,,,,,,,,,,,,,,,,,,,,,,,,,,,,,,,,,,,,,,,2024-06-25_16h51.15.201,HideSeek_v1,2023.1.3,59.997072148523316,
,,,,,,,,,,,,1,0,1,0,1,0,1,0,,,,,,,,,,,,,,,,,,,stimuli/instructions/Slide14.png,stimuli/instructions/Audio14.wav,21.680946700042114,21.6677936501801,1,[0.38876980007626116],[0.38877730001695454],0,,,,,,,,,,,,,,,,,,,,,,,,,,,,,,,,,,,,,,,,,,,,,,,,,,,,,,,,,,,,,,,,,,,,,,,,,,,,,,,,,,,,,,,,,,,,,,,,,,,,,,,2024-06-25_16h51.15.201,HideSeek_v1,2023.1.3,59.997072148523316,
2,2,3,2,3,0,0,61,2,instr_dim1_1,,,1,0,1,0,,,,,0,0,0,0,,,,,,,,,,,,,,,,,,,,,,,,,stimuli/alien_stimuli/61.png,conditions/inputInstr_1.xlsx,stimuli/alien_stimuli/61.png,22.147542900172994,22.147542900172994,22.147542900172994,22.147542900172994,22.13574005011469,return,0.4686841999646276,None,"[-0.16, -0.08, 0, 0.08, 0.16, 0.24, 0.32, 0.4, 0.48, 0.56]","[-0.4, -0.32, -0.24, -0.16, -0.08, 0, 0.08, 0.16, 0.24, 0.32]",3,3,2,2,0.0,0.0,22.817755399970338,22.817755399970338,22.817755399970338,22.817755399970338,22.817755399970338,22.817755399970338,22.817755399970338,22.800931130116805,0.26776299998164177,return,0.06033450015820563,None,stimuli/alien_stimuli/61.png,61,2,2,,,,,,,,,,,,,,,,,,,,,,,,,,,,,,,,,,,,,,,,,,,,,,,,,,,,,,,,,,,,,,,,,,2024-06-25_16h51.15.201,HideSeek_v1,2023.1.3,59.997072148523316,
,,,,,,,,,,,24,1,0,1,0,,,,,,,,,,,,,,,,,,,,,,,,,,,,,,,,,,,,,,,,,,,,,,,,,,,,,,,,,,,,,,,,,,,,17,0.7,100,0,99,1,24,0,conditions/inputTrain_1.1.xlsx,99,1,1,1,0,,,,,,,,,,,,,,,,,,,,,,,,,,,,,,,,,,,,,,,,,,,,,,,,,,,,2024-06-25_16h51.15.201,HideSeek_v1,2023.1.3,59.997072148523316,
,,,,,,,,,,,,2,0,2,0,0,0,0,0,,,,,,,,,,,,,,,,,,,stimuli/instructions/Slide15.png,stimuli/instructions/Audio15.wav,23.08608669997193,23.068240430019795,1,[0.5529741998761892],[0.5529782997909933],0,,,,,,,,,,,,,,,,,,,,,,,,,,,,,,,,,,,,,,,,,,,,,,,,,,,,,,,,,,,,,,,,,,,,,,,,,,,,,,,,,,,,,,,,,,,,,,,,,,,,,,,2024-06-25_16h51.15.201,HideSeek_v1,2023.1.3,59.997072148523316,
,,,,,,,,,,,,2,0,2,0,1,0,1,0,,,,,,,,,,,,,,,,,,,stimuli/instructions/Slide16.png,stimuli/instructions/Audio16.wav,23.73439780017361,23.718294980050995,1,[0.3568918998353183],[0.3568958998657763],0,,,,,,,,,,,,,,,,,,,,,,,,,,,,,,,,,,,,,,,,,,,,,,,,,,,,,,,,,,,,,,,,,,,,,,,,,,,,,,,,,,,,,,,,,,,,,,,,,,,,,,,2024-06-25_16h51.15.201,HideSeek_v1,2023.1.3,59.997072148523316,
,2,0,2,1,0,1,62,,train_dim1_1,1,24,2,0,2,0,,,,,,,,,0,0,0,0,0,0,0,0,0,0,0,0,,,,,,,,,,,,,stimuli/alien_stimuli/62.png,,,,,,,,,,,,,,,,,,,,,,,,,,,,,,,,,,,,,,,,,24,,,,,,,,24.184315100079402,24.184315100079402,24.184315100079402,24.184315100079402,24.184315100079402,up,1.0218525999225676,0,0,99,0,-0.32,up,0.9054745999164879,None,,,,,,,,,,,,,,,,,,,,,,,,,,,,,,,,,,,,,2024-06-25_16h51.15.201,HideSeek_v1,2023.1.3,59.997072148523316,
,2,0,2,1,0,1,62,,train_dim1_1,1,24,2,0,2,0,,,,,,,,,0,0,0,0,0,0,0,0,1,0,1,0,,,,,,,,,,,,,,,,,,,,,,,,,,,,,,,,,,,,,,,,,,,,,,,,,,,,,,24,,,,,,,,25.200957500142977,25.200957500142977,25.200957500142977,25.200957500142977,25.200957500142977,return,0.3100944999605417,1,0,1,0,-0.32,return,0.20888149994425476,None,1,0,0,-0.32,,,,,,,,,,,,,,,,,,,,,,,,,,,,,,,,,2024-06-25_16h51.15.201,HideSeek_v1,2023.1.3,59.997072148523316,
,2,2,2,5,0,3,64,,train_dim1_1,2,24,2,0,2,0,,,,,,,,,0,0,0,0,0,1,1,1,0,0,0,0,,,,,,,,,,,,,stimuli/alien_stimuli/64.png,,,,,,,,,,,,,,,,,,,,,,,,,,,,,,,stimuli/alien_stimuli/62.png,62,2,3,,,,,,,24,,,,,,,,30.251061500050128,30.251061500050128,30.251061500050128,30.251061500050128,30.251061500050128,up,0.5747673998121172,1,0,99,0,-0.15999999999999998,up,0.47577360016293824,None,,,,,28.684114600066096,30.251061500050128,0,-0.32,0.08,0.0,-0.36,0,0.0,0,-0.32,27.084914700128138,27.084914700128138,27.084914700128138,27.084914700128138,27.084914700128138,27.084914700128138,27.084914700128138,27.084914700128138,27.051299010030924,1.7346576999407262,return,1.5832697998266667,None,,,,,,,,,2024-06-25_16h51.15.201,HideSeek_v1,2023.1.3,59.997072148523316,
,2,2,2,5,0,3,64,,train_dim1_1,2,24,2,0,2,0,,,,,,,,,0,0,0,0,0,1,1,1,1,0,1,0,,,,,,,,,,,,,,,,,,,,,,,,,,,,,,,,,,,,,,,,,,,,,,,,,,,,,,24,,,,,,,,30.83419630001299,30.83419630001299,30.83419630001299,30.83419630001299,30.83419630001299,up,0.24320190004073083,1,0,99,0,-0.07999999999999997,up,0.14650799985975027,None,,,,,,,,,,,,,,,,,,,,,,,,,,,,,,,,,,,,,2024-06-25_16h51.15.201,HideSeek_v1,2023.1.3,59.997072148523316,
,2,2,2,5,0,3,64,,train_dim1_1,2,24,2,0,2,0,,,,,,,,,0,0,0,0,0,1,1,1,2,0,2,0,,,,,,,,,,,,,,,,,,,,,,,,,,,,,,,,,,,,,,,,,,,,,,,,,,,,,,24,,,,,,,,31.100862900028005,31.100862900028005,31.100862900028005,31.100862900028005,31.100862900028005,up,0.2440291999373585,1,0,99,0,2.7755575615628914e-17,up,0.11857619998045266,None,,,,,,,,,,,,,,,,,,,,,,,,,,,,,,,,,,,,,2024-06-25_16h51.15.201,HideSeek_v1,2023.1.3,59.997072148523316,
,2,2,2,5,0,3,64,,train_dim1_1,2,24,2,0,2,0,,,,,,,,,0,0,0,0,0,1,1,1,3,0,3,0,,,,,,,,,,,,,,,,,,,,,,,,,,,,,,,,,,,,,,,,,,,,,,,,,,,,,,24,,,,,,,,31.33431120007299,31.33431120007299,31.33431120007299,31.33431120007299,31.33431120007299,return,0.37683730013668537,2,0,1,0,2.7755575615628914e-17,return,0.26811179984360933,None,4,0,0,2.7755575615628914e-17,,,,,,,,,,,,,,,,,,,,,,,,,,,,,,,,,2024-06-25_16h51.15.201,HideSeek_v1,2023.1.3,59.997072148523316,
,3,3,3,8,0,5,66,,train_dim1_1,3,24,2,0,2,0,,,,,,,,,0,0,0,0,0,2,2,2,0,0,0,0,,,,,,,,,,,,,stimuli/alien_stimuli/66.png,,,,,,,,,,,,,,,,,,,,,,,,,,,,,,,stimuli/alien_stimuli/64.png,64,2,4,,,,,,,24,,,,,,,,36.250830200035125,36.250830200035125,36.250830200035125,36.250830200035125,36.250830200035125,up,0.45835740002803504,2,0,99,0.08,-0.08,up,0.3601726999040693,None,,,,,34.68389640003443,36.250830200035125,0,0,0.24,0.0,-0.12,0,0.0,0,0,33.26887610019185,33.26887610019185,33.26887610019185,33.26887610019185,33.26887610019185,33.26887610019185,33.26887610019185,33.26887610019185,33.250670210085815,1.5352374999783933,return,1.3929534000344574,None,,,,,,,,,2024-06-25_16h51.15.201,HideSeek_v1,2023.1.3,59.997072148523316,
,3,3,3,8,0,5,66,,train_dim1_1,3,24,2,0,2,0,,,,,,,,,0,0,0,0,0,2,2,2,1,0,1,0,,,,,,,,,,,,,,,,,,,,,,,,,,,,,,,,,,,,,,,,,,,,,,,,,,,,,,24,,,,,,,,36.70301440008916,36.70301440008916,36.70301440008916,36.70301440008916,36.70301440008916,up,0.2770511999260634,2,0,99,0.08,0.0,up,0.18420880008488894,None,,,,,,,,,,,,,,,,,,,,,,,,,,,,,,,,,,,,,2024-06-25_16h51.15.201,HideSeek_v1,2023.1.3,59.997072148523316,
,3,3,3,8,0,5,66,,train_dim1_1,3,24,2,0,2,0,,,,,,,,,0,0,0,0,0,2,2,2,2,0,2,0,,,,,,,,,,,,,,,,,,,,,,,,,,,,,,,,,,,,,,,,,,,,,,,,,,,,,,24,,,,,,,,36.98619209998287,36.98619209998287,36.98619209998287,36.98619209998287,36.98619209998287,up,0.22762960009276867,2,0,99,0.08,0.08,up,0.1480301001574844,None,,,,,,,,,,,,,,,,,,,,,,,,,,,,,,,,,,,,,2024-06-25_16h51.15.201,HideSeek_v1,2023.1.3,59.997072148523316,
,3,3,3,8,0,5,66,,train_dim1_1,3,24,2,0,2,0,,,,,,,,,0,0,0,0,0,2,2,2,3,0,3,0,,,,,,,,,,,,,,,,,,,,,,,,,,,,,,,,,,,,,,,,,,,,,,,,,,,,,,24,,,,,,,,37.21982120000757,37.21982120000757,37.21982120000757,37.21982120000757,37.21982120000757,up,0.29379300004802644,2,0,99,0.08,0.16,up,0.21172360004857183,None,,,,,,,,,,,,,,,,,,,,,,,,,,,,,,,,,,,,,2024-06-25_16h51.15.201,HideSeek_v1,2023.1.3,59.997072148523316,
,3,3,3,8,0,5,66,,train_dim1_1,3,24,2,0,2,0,,,,,,,,,0,0,0,0,0,2,2,2,4,0,4,0,,,,,,,,,,,,,,,,,,,,,,,,,,,,,,,,,,,,,,,,,,,,,,,,,,,,,,24,,,,,,,,37.51929079997353,37.51929079997353,37.51929079997353,37.51929079997353,37.51929079997353,up,0.26079329987987876,2,0,99,0.08,0.24,up,0.17858540010638535,None,,,,,,,,,,,,,,,,,,,,,,,,,,,,,,,,,,,,,2024-06-25_16h51.15.201,HideSeek_v1,2023.1.3,59.997072148523316,
,3,3,3,8,0,5,66,,train_dim1_1,3,24,2,0,2,0,,,,,,,,,0,0,0,0,0,2,2,2,5,0,5,0,,,,,,,,,,,,,,,,,,,,,,,,,,,,,,,,,,,,,,,,,,,,,,,,,,,,,,24,,,,,,,,37.78663590014912,37.78663590014912,37.78663590014912,37.78663590014912,37.78663590014912,return,1.094021099852398,3,0,1,0.08,0.24,return,1.0029062000103295,None,9,0,0.08,0.24,,,,,,,,,,,,,,,,,,,,,,,,,,,,,,,,,2024-06-25_16h51.15.201,HideSeek_v1,2023.1.3,59.997072148523316,
,4,4,4,8,0,4,65,,train_dim1_1,4,24,2,0,2,0,,,,,,,,,0,0,0,0,0,3,3,3,0,0,0,0,,,,,,,,,,,,,stimuli/alien_stimuli/65.png,,,,,,,,,,,,,,,,,,,,,,,,,,,,,,,stimuli/alien_stimuli/66.png,66,3,5,,,,,,,24,,,,,,,,43.28424399998039,43.28424399998039,43.28424399998039,43.28424399998039,43.28424399998039,up,0.5577197000384331,3,0,99,0.16,0.0,up,0.45644560013897717,None,,,,,41.71748080011457,43.28424399998039,0.08,0.24,0.4,0.0,0.039999999999999994,0.08,0.08,0.08,0.24,40.43287930008955,40.43287930008955,40.43287930008955,40.43287930008955,40.43287930008955,40.43287930008955,40.43287930008955,40.43287930008955,40.41750298002735,1.3846209000330418,return,1.2681142000947148,None,,,,,,,,,2024-06-25_16h51.15.201,HideSeek_v1,2023.1.3,59.997072148523316,
,4,4,4,8,0,4,65,,train_dim1_1,4,24,2,0,2,0,,,,,,,,,0,0,0,0,0,3,3,3,1,0,1,0,,,,,,,,,,,,,,,,,,,,,,,,,,,,,,,,,,,,,,,,,,,,,,,,,,,,,,24,,,,,,,,43.835580200189725,43.835580200189725,43.835580200189725,43.835580200189725,43.835580200189725,up,0.2267237000633031,3,0,99,0.16,0.08,up,0.14067690004594624,None,,,,,,,,,,,,,,,,,,,,,,,,,,,,,,,,,,,,,2024-06-25_16h51.15.201,HideSeek_v1,2023.1.3,59.997072148523316,
,4,4,4,8,0,4,65,,train_dim1_1,4,24,2,0,2,0,,,,,,,,,0,0,0,0,0,3,3,3,2,0,2,0,,,,,,,,,,,,,,,,,,,,,,,,,,,,,,,,,,,,,,,,,,,,,,,,,,,,,,24,,,,,,,,44.06917669996619,44.06917669996619,44.06917669996619,44.06917669996619,44.06917669996619,up,0.2605455999728292,3,0,99,0.16,0.16,up,0.17618339997716248,None,,,,,,,,,,,,,,,,,,,,,,,,,,,,,,,,,,,,,2024-06-25_16h51.15.201,HideSeek_v1,2023.1.3,59.997072148523316,
,4,4,4,8,0,4,65,,train_dim1_1,4,24,2,0,2,0,,,,,,,,,0,0,0,0,0,3,3,3,3,0,3,0,,,,,,,,,,,,,,,,,,,,,,,,,,,,,,,,,,,,,,,,,,,,,,,,,,,,,,24,,,,,,,,44.336011700099334,44.336011700099334,44.336011700099334,44.336011700099334,44.336011700099334,up,0.24351780000142753,3,0,99,0.16,0.24,up,0.15530349989421666,None,,,,,,,,,,,,,,,,,,,,,,,,,,,,,,,,,,,,,2024-06-25_16h51.15.201,HideSeek_v1,2023.1.3,59.997072148523316,
,4,4,4,8,0,4,65,,train_dim1_1,4,24,2,0,2,0,,,,,,,,,0,0,0,0,0,3,3,3,4,0,4,0,,,,,,,,,,,,,,,,,,,,,,,,,,,,,,,,,,,,,,,,,,,,,,,,,,,,,,24,,,,,,,,44.58608340006322,44.58608340006322,44.58608340006322,44.58608340006322,44.58608340006322,return,0.39466460002586246,4,0,1,0.16,0.24,return,0.3043636998627335,None,13,0,0.16,0.24,,,,,,,,,,,,,,,,,,,,,,,,,,,,,,,,,2024-06-25_16h51.15.201,HideSeek_v1,2023.1.3,59.997072148523316,
,3,4,3,5,0,1,62,,train_dim1_1,5,24,2,0,2,0,,,,,,,,,0,0,0,0,0,4,4,4,0,0,0,0,,,,,,,,,,,,,stimuli/alien_stimuli/62.png,,,,,,,,,,,,,,,,,,,,,,,,,,,,,,,stimuli/alien_stimuli/65.png,65,4,6,,,,,,,24,,,,,,,,49.20091919996776,49.20091919996776,49.20091919996776,49.20091919996776,49.20091919996776,up,0.6587026999332011,4,0,99,0.08,0.0,up,0.5573838001582772,None,,,,,47.633964700158685,49.20091919996776,0.16,0.24,0.32,0.0,0.07999999999999999,0.16,0.16,0.16,0.24,46.55165769997984,46.55165769997984,46.55165769997984,46.55165769997984,46.55165769997984,46.55165769997984,46.55165769997984,46.55165769997984,46.534171110112226,1.2022791998460889,return,1.0669259999413043,None,,,,,,,,,2024-06-25_16h51.15.201,HideSeek_v1,2023.1.3,59.997072148523316,
,3,4,3,5,0,1,62,,train_dim1_1,5,24,2,0,2,0,,,,,,,,,0,0,0,0,0,4,4,4,1,0,1,0,,,,,,,,,,,,,,,,,,,,,,,,,,,,,,,,,,,,,,,,,,,,,,,,,,,,,,24,,,,,,,,49.853262700140476,49.853262700140476,49.853262700140476,49.853262700140476,49.853262700140476,return,0.343105599982664,5,0,1,0.08,0.0,return,0.26258790004067123,None,14,0,0.08,0.0,,,,,,,,,,,,,,,,,,,,,,,,,,,,,,,,,2024-06-25_16h51.15.201,HideSeek_v1,2023.1.3,59.997072148523316,
,4,0,4,4,0,4,65,,train_dim1_1,6,24,2,0,2,0,,,,,,,,,0,0,0,0,0,5,5,5,0,0,0,0,,,,,,,,,,,,,stimuli/alien_stimuli/65.png,,,,,,,,,,,,,,,,,,,,,,,,,,,,,,,stimuli/alien_stimuli/62.png,62,3,7,,,,,,,24,,,,,,,,54.850965100107715,54.850965100107715,54.850965100107715,54.850965100107715,54.850965100107715,up,1.5080204999540001,5,0,99,0.16,-0.32,up,1.410429900046438,None,,,,,53.283888400066644,54.850965100107715,0.08,0,0.08,0.0,-0.04,0.08,0.08,0.08,0,51.7530121000018,51.7530121000018,51.7530121000018,51.7530121000018,51.7530121000018,51.7530121000018,51.7530121000018,51.7530121000018,51.73379688016139,1.6354197000619024,return,1.511554399970919,None,,,,,,,,,2024-06-25_16h51.15.201,HideSeek_v1,2023.1.3,59.997072148523316,
,4,0,4,4,0,4,65,,train_dim1_1,6,24,2,0,2,0,,,,,,,,,0,0,0,0,0,5,5,5,1,0,1,0,,,,,,,,,,,,,,,,,,,,,,,,,,,,,,,,,,,,,,,,,,,,,,,,,,,,,,24,,,,,,,,56.35324260010384,56.35324260010384,56.35324260010384,56.35324260010384,56.35324260010384,up,0.3103511999361217,5,0,99,0.16,-0.24,up,0.22733359993435442,None,,,,,,,,,,,,,,,,,,,,,,,,,,,,,,,,,,,,,2024-06-25_16h51.15.201,HideSeek_v1,2023.1.3,59.997072148523316,
,4,0,4,4,0,4,65,,train_dim1_1,6,24,2,0,2,0,,,,,,,,,0,0,0,0,0,5,5,5,2,0,2,0,,,,,,,,,,,,,,,,,,,,,,,,,,,,,,,,,,,,,,,,,,,,,,,,,,,,,,24,,,,,,,,56.68429570016451,56.68429570016451,56.68429570016451,56.68429570016451,56.68429570016451,up,0.27725569996982813,5,0,99,0.16,-0.15999999999999998,up,0.17636689986102283,None,,,,,,,,,,,,,,,,,,,,,,,,,,,,,,,,,,,,,2024-06-25_16h51.15.201,HideSeek_v1,2023.1.3,59.997072148523316,
,4,0,4,4,0,4,65,,train_dim1_1,6,24,2,0,2,0,,,,,,,,,0,0,0,0,0,5,5,5,3,0,3,0,,,,,,,,,,,,,,,,,,,,,,,,,,,,,,,,,,,,,,,,,,,,,,,,,,,,,,24,,,,,,,,56.95218490017578,56.95218490017578,56.95218490017578,56.95218490017578,56.95218490017578,up,0.31092020007781684,5,0,99,0.16,-0.07999999999999997,up,0.22363010002300143,None,,,,,,,,,,,,,,,,,,,,,,,,,,,,,,,,,,,,,2024-06-25_16h51.15.201,HideSeek_v1,2023.1.3,59.997072148523316,
,4,0,4,4,0,4,65,,train_dim1_1,6,24,2,0,2,0,,,,,,,,,0,0,0,0,0,5,5,5,4,0,4,0,,,,,,,,,,,,,,,,,,,,,,,,,,,,,,,,,,,,,,,,,,,,,,,,,,,,,,24,,,,,,,,57.28371280012652,57.28371280012652,57.28371280012652,57.28371280012652,57.28371280012652,return,0.7442098001483828,6,0,1,0.16,-0.07999999999999997,return,0.6494817999191582,None,18,0,0.16,-0.07999999999999997,,,,,,,,,,,,,,,,,,,,,,,,,,,,,,,,,2024-06-25_16h51.15.201,HideSeek_v1,2023.1.3,59.997072148523316,
,0,3,0,6,0,3,64,,train_dim1_1,7,24,2,0,2,0,,,,,,,,,0,0,0,0,0,6,6,6,0,0,0,0,,,,,,,,,,,,,stimuli/alien_stimuli/64.png,,,,,,,,,,,,,,,,,,,,,,,,,,,,,,,stimuli/alien_stimuli/65.png,65,4,8,,,,,,,24,,,,,,,,64.0174100000877,64.0174100000877,64.0174100000877,64.0174100000877,64.0174100000877,up,0.24129220005124807,6,0,99,-0.16,-0.08,up,0.13674670015461743,0.011494499864056706,,,,,62.450583999976516,64.0174100000877,0.16,-0.08,0.32,0.0,-0.24000000000000002,0.16,0.16,0.16,-0.08,59.61908410000615,59.61908410000615,59.61908410000615,59.61908410000615,59.61908410000615,59.61908410000615,59.61908410000615,59.61908410000615,59.60078837019392,2.9841716000810266,return,2.809079499915242,None,,,,,,,,,2024-06-25_16h51.15.201,HideSeek_v1,2023.1.3,59.997072148523316,
,0,3,0,6,0,3,64,,train_dim1_1,7,24,2,0,2,0,,,,,,,,,0,0,0,0,0,6,6,6,1,0,1,0,,,,,,,,,,,,,,,,,,,,,,,,,,,,,,,,,,,,,,,,,,,,,,,,,,,,,,24,,,,,,,,64.25334369996563,64.25334369996563,64.25334369996563,64.25334369996563,64.25334369996563,up,0.31040529999881983,6,0,99,-0.16,0.0,up,0.22080119978636503,None,,,,,,,,,,,,,,,,,,,,,,,,,,,,,,,,,,,,,2024-06-25_16h51.15.201,HideSeek_v1,2023.1.3,59.997072148523316,
,0,3,0,6,0,3,64,,train_dim1_1,7,24,2,0,2,0,,,,,,,,,0,0,0,0,0,6,6,6,2,0,2,0,,,,,,,,,,,,,,,,,,,,,,,,,,,,,,,,,,,,,,,,,,,,,,,,,,,,,,24,,,,,,,,64.57297490001656,64.57297490001656,64.57297490001656,64.57297490001656,64.57297490001656,up,0.24340749997645617,6,0,99,-0.16,0.08,up,0.15858319983817637,None,,,,,,,,,,,,,,,,,,,,,,,,,,,,,,,,,,,,,2024-06-25_16h51.15.201,HideSeek_v1,2023.1.3,59.997072148523316,
,0,3,0,6,0,3,64,,train_dim1_1,7,24,2,0,2,0,,,,,,,,,0,0,0,0,0,6,6,6,3,0,3,0,,,,,,,,,,,,,,,,,,,,,,,,,,,,,,,,,,,,,,,,,,,,,,,,,,,,,,24,,,,,,,,64.82173299998976,64.82173299998976,64.82173299998976,64.82173299998976,64.82173299998976,return,0.5441370001062751,7,0,1,-0.16,0.08,return,0.45039100013673306,None,21,0,-0.16,0.08,,,,,,,,,,,,,,,,,,,,,,,,,,,,,,,,,2024-06-25_16h51.15.201,HideSeek_v1,2023.1.3,59.997072148523316,
,4,1,4,6,0,5,66,,train_dim1_1,8,24,2,0,2,0,,,,,,,,,0,0,0,0,0,7,7,7,0,0,0,0,,,,,,,,,,,,,stimuli/alien_stimuli/66.png,,,,,,,,,,,,,,,,,,,,,,,,,,,,,,,stimuli/alien_stimuli/64.png,64,0,9,,,,,,,24,,,,,,,,69.40021740016527,69.40021740016527,69.40021740016527,69.40021740016527,69.40021740016527,up,0.3413706999272108,7,0,99,0.16,-0.24,up,0.2481184999924153,None,,,,,67.83428620011546,69.40021740016527,-0.16,0.08,0.24,0.0,-0.04,-0.16,-0.16,-0.16,0.08,66.93414350016974,66.93414350016974,66.93414350016974,66.93414350016974,66.93414350016974,66.93414350016974,66.93414350016974,66.93414350016974,66.91689581014217,1.0183862999547273,return,0.8740147999487817,None,,,,,,,,,2024-06-25_16h51.15.201,HideSeek_v1,2023.1.3,59.997072148523316,
,4,1,4,6,0,5,66,,train_dim1_1,8,24,2,0,2,0,,,,,,,,,0,0,0,0,0,7,7,7,1,0,1,0,,,,,,,,,,,,,,,,,,,,,,,,,,,,,,,,,,,,,,,,,,,,,,,,,,,,,,24,,,,,,,,69.73766980017535,69.73766980017535,69.73766980017535,69.73766980017535,69.73766980017535,up,0.2438976000994444,7,0,99,0.16,-0.15999999999999998,up,0.15304320002906024,None,,,,,,,,,,,,,,,,,,,,,,,,,,,,,,,,,,,,,2024-06-25_16h51.15.201,HideSeek_v1,2023.1.3,59.997072148523316,
,4,1,4,6,0,5,66,,train_dim1_1,8,24,2,0,2,0,,,,,,,,,0,0,0,0,0,7,7,7,2,0,2,0,,,,,,,,,,,,,,,,,,,,,,,,,,,,,,,,,,,,,,,,,,,,,,,,,,,,,,24,,,,,,,,70.00041980016977,70.00041980016977,70.00041980016977,70.00041980016977,70.00041980016977,up,0.21126440004445612,7,0,99,0.16,-0.07999999999999997,up,0.10703750001266599,None,,,,,,,,,,,,,,,,,,,,,,,,,,,,,,,,,,,,,2024-06-25_16h51.15.201,HideSeek_v1,2023.1.3,59.997072148523316,
,4,1,4,6,0,5,66,,train_dim1_1,8,24,2,0,2,0,,,,,,,,,0,0,0,0,0,7,7,7,3,0,3,0,,,,,,,,,,,,,,,,,,,,,,,,,,,,,,,,,,,,,,,,,,,,,,,,,,,,,,24,,,,,,,,70.20558960014023,70.20558960014023,70.20558960014023,70.20558960014023,70.20558960014023,up,0.2096771001815796,7,0,99,0.16,2.7755575615628914e-17,up,0.12859670002944767,None,,,,,,,,,,,,,,,,,,,,,,,,,,,,,,,,,,,,,2024-06-25_16h51.15.201,HideSeek_v1,2023.1.3,59.997072148523316,
,4,1,4,6,0,5,66,,train_dim1_1,8,24,2,0,2,0,,,,,,,,,0,0,0,0,0,7,7,7,4,0,4,0,,,,,,,,,,,,,,,,,,,,,,,,,,,,,,,,,,,,,,,,,,,,,,,,,,,,,,24,,,,,,,,70.42087280005217,70.42087280005217,70.42087280005217,70.42087280005217,70.42087280005217,up,0.4107198999263346,7,0,99,0.16,0.08000000000000003,up,0.31921999994665384,None,,,,,,,,,,,,,,,,,,,,,,,,,,,,,,,,,,,,,2024-06-25_16h51.15.201,HideSeek_v1,2023.1.3,59.997072148523316,
,4,1,4,6,0,5,66,,train_dim1_1,8,24,2,0,2,0,,,,,,,,,0,0,0,0,0,7,7,7,5,0,5,0,,,,,,,,,,,,,,,,,,,,,,,,,,,,,,,,,,,,,,,,,,,,,,,,,,,,,,24,,,,,,,,70.85069120000117,70.85069120000117,70.85069120000117,70.85069120000117,70.85069120000117,return,0.2774080999661237,8,0,1,0.16,0.08000000000000003,return,0.17739440011791885,None,26,0,0.16,0.08000000000000003,,,,,,,,,,,,,,,,,,,,,,,,,,,,,,,,,2024-06-25_16h51.15.201,HideSeek_v1,2023.1.3,59.997072148523316,
,1,3,1,6,0,3,64,,train_dim1_1,9,24,2,0,2,0,,,,,,,,,0,0,0,0,0,8,8,8,0,0,0,0,,,,,,,,,,,,,stimuli/alien_stimuli/64.png,,,,,,,,,,,,,,,,,,,,,,,,,,,,,,,stimuli/alien_stimuli/66.png,66,4,10,,,,,,,24,,,,,,,,75.03491470008157,75.03491470008157,75.03491470008157,75.03491470008157,75.03491470008157,up,1.1245893000159413,8,0,99,-0.08,-0.08,up,1.01896069990471,None,,,,,73.4670461001806,75.03491470008157,0.16,0.08,0.4,0.0,-0.12,0.16,0.16,0.16,0.08,72.71740490011871,72.71740490011871,72.71740490011871,72.71740490011871,72.71740490011871,72.71740490011871,72.71740490011871,72.71740490011871,72.68370274002665,0.9017758001573384,return,0.7171994999516755,None,,,,,,,,,2024-06-25_16h51.15.201,HideSeek_v1,2023.1.3,59.997072148523316,
,1,3,1,6,0,3,64,,train_dim1_1,9,24,2,0,2,0,,,,,,,,,0,0,0,0,0,8,8,8,1,0,1,0,,,,,,,,,,,,,,,,,,,,,,,,,,,,,,,,,,,,,,,,,,,,,,,,,,,,,,24,,,,,,,,76.16725390008651,76.16725390008651,76.16725390008651,76.16725390008651,76.16725390008651,up,0.2432168999221176,8,0,99,-0.08,0.0,up,0.1424418999813497,None,,,,,,,,,,,,,,,,,,,,,,,,,,,,,,,,,,,,,2024-06-25_16h51.15.201,HideSeek_v1,2023.1.3,59.997072148523316,
,1,3,1,6,0,3,64,,train_dim1_1,9,24,2,0,2,0,,,,,,,,,0,0,0,0,0,8,8,8,2,0,2,0,,,,,,,,,,,,,,,,,,,,,,,,,,,,,,,,,,,,,,,,,,,,,,,,,,,,,,24,,,,,,,,76.40397160011344,76.40397160011344,76.40397160011344,76.40397160011344,76.40397160011344,up,0.27756249997764826,8,0,99,-0.08,0.08,up,0.18901870003901422,None,,,,,,,,,,,,,,,,,,,,,,,,,,,,,,,,,,,,,2024-06-25_16h51.15.201,HideSeek_v1,2023.1.3,59.997072148523316,
,1,3,1,6,0,3,64,,train_dim1_1,9,24,2,0,2,0,,,,,,,,,0,0,0,0,0,8,8,8,3,0,3,0,,,,,,,,,,,,,,,,,,,,,,,,,,,,,,,,,,,,,,,,,,,,,,,,,,,,,,24,,,,,,,,76.70086420001462,76.70086420001462,76.70086420001462,76.70086420001462,76.70086420001462,return,0.3776934000197798,9,0,1,-0.08,0.08,return,0.27721540001221,None,29,0,-0.08,0.08,,,,,,,,,,,,,,,,,,,,,,,,,,,,,,,,,2024-06-25_16h51.15.201,HideSeek_v1,2023.1.3,59.997072148523316,
,0,0,0,4,0,4,65,,train_dim1_1,10,24,2,0,2,0,,,,,,,,,0,0,0,0,0,9,9,9,0,0,0,0,,,,,,,,,,,,,stimuli/alien_stimuli/65.png,,,,,,,,,,,,,,,,,,,,,,,,,,,,,,,stimuli/alien_stimuli/64.png,64,1,11,,,,,,,24,,,,,,,,80.71701390016824,80.71701390016824,80.71701390016824,80.71701390016824,80.71701390016824,up,0.50732950004749,9,0,99,-0.16,-0.32,up,0.4125373000279069,None,,,,,79.15018740016967,80.71701390016824,-0.08,0.08,0.24,0.0,-0.04,-0.08,-0.08,-0.08,0.08,78.61982460017316,78.61982460017316,78.61982460017316,78.61982460017316,78.61982460017316,78.61982460017316,78.61982460017316,78.61982460017316,78.6006091800984,0.6348707000724971,return,0.5144911999814212,None,,,,,,,,,2024-06-25_16h51.15.201,HideSeek_v1,2023.1.3,59.997072148523316,
,0,0,0,4,0,4,65,,train_dim1_1,10,24,2,0,2,0,,,,,,,,,0,0,0,0,0,9,9,9,1,0,1,0,,,,,,,,,,,,,,,,,,,,,,,,,,,,,,,,,,,,,,,,,,,,,,,,,,,,,,24,,,,,,,,81.23397780000232,81.23397780000232,81.23397780000232,81.23397780000232,81.23397780000232,up,0.24322420009411871,9,0,99,-0.16,-0.24,up,0.1380362999625504,None,,,,,,,,,,,,,,,,,,,,,,,,,,,,,,,,,,,,,2024-06-25_16h51.15.201,HideSeek_v1,2023.1.3,59.997072148523316,
,0,0,0,4,0,4,65,,train_dim1_1,10,24,2,0,2,0,,,,,,,,,0,0,0,0,0,9,9,9,2,0,2,0,,,,,,,,,,,,,,,,,,,,,,,,,,,,,,,,,,,,,,,,,,,,,,,,,,,,,,24,,,,,,,,81.47236690018326,81.47236690018326,81.47236690018326,81.47236690018326,81.47236690018326,up,0.24364220001734793,9,0,99,-0.16,-0.15999999999999998,up,0.15235519991256297,None,,,,,,,,,,,,,,,,,,,,,,,,,,,,,,,,,,,,,2024-06-25_16h51.15.201,HideSeek_v1,2023.1.3,59.997072148523316,
,0,0,0,4,0,4,65,,train_dim1_1,10,24,2,0,2,0,,,,,,,,,0,0,0,0,0,9,9,9,3,0,3,0,,,,,,,,,,,,,,,,,,,,,,,,,,,,,,,,,,,,,,,,,,,,,,,,,,,,,,24,,,,,,,,81.7191552000586,81.7191552000586,81.7191552000586,81.7191552000586,81.7191552000586,up,0.3277585001196712,9,0,99,-0.16,-0.07999999999999997,up,0.23971779993735254,None,,,,,,,,,,,,,,,,,,,,,,,,,,,,,,,,,,,,,2024-06-25_16h51.15.201,HideSeek_v1,2023.1.3,59.997072148523316,
,0,0,0,4,0,4,65,,train_dim1_1,10,24,2,0,2,0,,,,,,,,,0,0,0,0,0,9,9,9,4,0,4,0,,,,,,,,,,,,,,,,,,,,,,,,,,,,,,,,,,,,,,,,,,,,,,,,,,,,,,24,,,,,,,,82.05321780010127,82.05321780010127,82.05321780010127,82.05321780010127,82.05321780010127,return,0.5267515999730676,10,0,1,-0.16,-0.07999999999999997,return,0.434427100000903,None,33,0,-0.16,-0.07999999999999997,,,,,,,,,,,,,,,,,,,,,,,,,,,,,,,,,2024-06-25_16h51.15.201,HideSeek_v1,2023.1.3,59.997072148523316,
,4,2,4,3,0,1,62,,train_dim1_1,11,24,2,0,2,0,,,,,,,,,0,0,0,0,0,10,10,10,0,0,0,0,,,,,,,,,,,,,stimuli/alien_stimuli/62.png,,,,,,,,,,,,,,,,,,,,,,,,,,,,,,,stimuli/alien_stimuli/65.png,65,0,12,,,,,,,24,,,,,,,,86.20048740017228,86.20048740017228,86.20048740017228,86.20048740017228,86.20048740017228,up,0.4083561000879854,10,0,99,0.16,-0.15999999999999998,up,0.30185659998096526,None,,,,,84.63377060019411,86.20048740017228,-0.16,-0.08,0.32,0.0,-0.24000000000000002,-0.16,-0.16,-0.16,-0.08,84.15053410013206,84.15053410013206,84.15053410013206,84.15053410013206,84.15053410013206,84.15053410013206,84.15053410013206,84.15053410013206,84.13388040997089,0.6017416000831872,return,0.46445750002749264,None,,,,,,,,,2024-06-25_16h51.15.201,HideSeek_v1,2023.1.3,59.997072148523316,
,4,2,4,3,0,1,62,,train_dim1_1,11,24,2,0,2,0,,,,,,,,,0,0,0,0,0,10,10,10,1,0,1,0,,,,,,,,,,,,,,,,,,,,,,,,,,,,,,,,,,,,,,,,,,,,,,,,,,,,,,24,,,,,,,,86.60015420010313,86.60015420010313,86.60015420010313,86.60015420010313,86.60015420010313,return,0.39327539992518723,11,0,1,0.16,-0.15999999999999998,return,0.3150535000022501,None,34,0,0.16,-0.15999999999999998,,,,,,,,,,,,,,,,,,,,,,,,,,,,,,,,,2024-06-25_16h51.15.201,HideSeek_v1,2023.1.3,59.997072148523316,
,3,0,3,5,0,5,66,,train_dim1_1,12,24,2,0,2,0,,,,,,,,,0,0,0,0,0,11,11,11,0,0,0,0,,,,,,,,,,,,,stimuli/alien_stimuli/66.png,,,,,,,,,,,,,,,,,,,,,,,,,,,,,,,stimuli/alien_stimuli/62.png,62,4,13,,,,,,,24,,,,,,,,90.5501940001268,90.5501940001268,90.5501940001268,90.5501940001268,90.5501940001268,up,0.30650449986569583,11,0,99,0.08,-0.32,up,0.21592799993231893,None,,,,,88.98387890006416,90.5501940001268,0.16,-0.16,0.08,0.0,-0.2,0.16,0.16,0.16,-0.16,88.56850160006434,88.56850160006434,88.56850160006434,88.56850160006434,88.56850160006434,88.56850160006434,88.56850160006434,88.56850160006434,88.55056161000394,0.5351096000522375,return,0.3833558999467641,None,,,,,,,,,2024-06-25_16h51.15.201,HideSeek_v1,2023.1.3,59.997072148523316,
,3,0,3,5,0,5,66,,train_dim1_1,12,24,2,0,2,0,,,,,,,,,0,0,0,0,0,11,11,11,1,0,1,0,,,,,,,,,,,,,,,,,,,,,,,,,,,,,,,,,,,,,,,,,,,,,,,,,,,,,,24,,,,,,,,90.85325890011154,90.85325890011154,90.85325890011154,90.85325890011154,90.85325890011154,up,0.2937411000020802,11,0,99,0.08,-0.24,up,0.21236760006286204,None,,,,,,,,,,,,,,,,,,,,,,,,,,,,,,,,,,,,,2024-06-25_16h51.15.201,HideSeek_v1,2023.1.3,59.997072148523316,
,3,0,3,5,0,5,66,,train_dim1_1,12,24,2,0,2,0,,,,,,,,,0,0,0,0,0,11,11,11,2,0,2,0,,,,,,,,,,,,,,,,,,,,,,,,,,,,,,,,,,,,,,,,,,,,,,,,,,,,,,24,,,,,,,,91.16714060003869,91.16714060003869,91.16714060003869,91.16714060003869,91.16714060003869,up,0.21022740006446838,11,0,99,0.08,-0.15999999999999998,up,0.11652319994755089,None,,,,,,,,,,,,,,,,,,,,,,,,,,,,,,,,,,,,,2024-06-25_16h51.15.201,HideSeek_v1,2023.1.3,59.997072148523316,
,3,0,3,5,0,5,66,,train_dim1_1,12,24,2,0,2,0,,,,,,,,,0,0,0,0,0,11,11,11,3,0,3,0,,,,,,,,,,,,,,,,,,,,,,,,,,,,,,,,,,,,,,,,,,,,,,,,,,,,,,24,,,,,,,,91.36901080003008,91.36901080003008,91.36901080003008,91.36901080003008,91.36901080003008,up,0.2773901999462396,11,0,99,0.08,-0.07999999999999997,up,0.19346059998497367,None,,,,,,,,,,,,,,,,,,,,,,,,,,,,,,,,,,,,,2024-06-25_16h51.15.201,HideSeek_v1,2023.1.3,59.997072148523316,
,3,0,3,5,0,5,66,,train_dim1_1,12,24,2,0,2,0,,,,,,,,,0,0,0,0,0,11,11,11,4,0,4,0,,,,,,,,,,,,,,,,,,,,,,,,,,,,,,,,,,,,,,,,,,,,,,,,,,,,,,24,,,,,,,,91.6670485001523,91.6670485001523,91.6670485001523,91.6670485001523,91.6670485001523,up,0.2439344001468271,11,0,99,0.08,2.7755575615628914e-17,up,0.14314069994725287,None,,,,,,,,,,,,,,,,,,,,,,,,,,,,,,,,,,,,,2024-06-25_16h51.15.201,HideSeek_v1,2023.1.3,59.997072148523316,
,3,0,3,5,0,5,66,,train_dim1_1,12,24,2,0,2,0,,,,,,,,,0,0,0,0,0,11,11,11,5,0,5,0,,,,,,,,,,,,,,,,,,,,,,,,,,,,,,,,,,,,,,,,,,,,,,,,,,,,,,24,,,,,,,,91.90470710000955,91.90470710000955,91.90470710000955,91.90470710000955,91.90470710000955,return,0.2605187001172453,12,0,1,0.08,2.7755575615628914e-17,return,0.17756769992411137,None,39,0,0.08,2.7755575615628914e-17,,,,,,,,,,,,,,,,,,,,,,,,,,,,,,,,,2024-06-25_16h51.15.201,HideSeek_v1,2023.1.3,59.997072148523316,
,2,1,2,4,0,3,64,,train_dim1_1,13,24,2,0,2,0,,,,,,,,,0,0,0,0,0,12,12,12,0,0,0,0,,,,,,,,,,,,,stimuli/alien_stimuli/64.png,,,,,,,,,,,,,,,,,,,,,,,,,,,,,,,stimuli/alien_stimuli/66.png,66,3,14,,,,,,,24,,,,,,,,96.2856974999886,96.2856974999886,96.2856974999886,96.2856974999886,96.2856974999886,up,0.3743745998945087,12,0,99,0,-0.24,up,0.29225059994496405,None,,,,,94.73294350015931,96.2856974999886,0.08,0,0.4,0.0,-0.2,0.08,0.08,0.08,0,93.75258470000699,93.75258470000699,93.75258470000699,93.75258470000699,93.75258470000699,93.75258470000699,93.75258470000699,93.75258470000699,93.73354224013165,1.118294500047341,return,0.9506475999951363,None,,,,,,,,,2024-06-25_16h51.15.201,HideSeek_v1,2023.1.3,59.997072148523316,
,2,1,2,4,0,3,64,,train_dim1_1,13,24,2,0,2,0,,,,,,,,,0,0,0,0,0,12,12,12,1,0,1,0,,,,,,,,,,,,,,,,,,,,,,,,,,,,,,,,,,,,,,,,,,,,,,,,,,,,,,24,,,,,,,,96.66814650013112,96.66814650013112,96.66814650013112,96.66814650013112,96.66814650013112,up,0.22697709989733994,12,0,99,0,-0.15999999999999998,up,0.14633340016007423,None,,,,,,,,,,,,,,,,,,,,,,,,,,,,,,,,,,,,,2024-06-25_16h51.15.201,HideSeek_v1,2023.1.3,59.997072148523316,
,2,1,2,4,0,3,64,,train_dim1_1,13,24,2,0,2,0,,,,,,,,,0,0,0,0,0,12,12,12,2,0,2,0,,,,,,,,,,,,,,,,,,,,,,,,,,,,,,,,,,,,,,,,,,,,,,,,,,,,,,24,,,,,,,,96.90174860018305,96.90174860018305,96.90174860018305,96.90174860018305,96.90174860018305,up,0.26059970003552735,12,0,99,0,-0.07999999999999997,up,0.1753028999082744,None,,,,,,,,,,,,,,,,,,,,,,,,,,,,,,,,,,,,,2024-06-25_16h51.15.201,HideSeek_v1,2023.1.3,59.997072148523316,
,2,1,2,4,0,3,64,,train_dim1_1,13,24,2,0,2,0,,,,,,,,,0,0,0,0,0,12,12,12,3,0,3,0,,,,,,,,,,,,,,,,,,,,,,,,,,,,,,,,,,,,,,,,,,,,,,,,,,,,,,24,,,,,,,,97.17026669997722,97.17026669997722,97.17026669997722,97.17026669997722,97.17026669997722,return,0.2776436998974532,13,0,1,0,-0.07999999999999997,return,0.18605459993705153,None,42,0,0,-0.07999999999999997,,,,,,,,,,,,,,,,,,,,,,,,,,,,,,,,,2024-06-25_16h51.15.201,HideSeek_v1,2023.1.3,59.997072148523316,
,4,3,4,7,0,4,65,,train_dim1_1,14,24,2,0,2,0,,,,,,,,,0,0,0,0,0,13,13,13,0,0,0,0,,,,,,,,,,,,,stimuli/alien_stimuli/65.png,,,,,,,,,,,,,,,,,,,,,,,,,,,,,,,stimuli/alien_stimuli/64.png,64,2,15,,,,,,,24,,,,,,,,100.9502767000813,100.9502767000813,100.9502767000813,100.9502767000813,100.9502767000813,up,0.35857519996352494,13,0,99,0.16,-0.08,up,0.2629686000291258,None,,,,,99.38422120013274,100.9502767000813,0,-0.08,0.24,0.0,-0.2,0,0.0,0,-0.08,99.00237020011991,99.00237020011991,99.00237020011991,99.00237020011991,99.00237020011991,99.00237020011991,99.00237020011991,99.00237020011991,98.9834038801957,0.4853249001316726,return,0.36513000004924834,None,,,,,,,,,2024-06-25_16h51.15.201,HideSeek_v1,2023.1.3,59.997072148523316,
,4,3,4,7,0,4,65,,train_dim1_1,14,24,2,0,2,0,,,,,,,,,0,0,0,0,0,13,13,13,1,0,1,0,,,,,,,,,,,,,,,,,,,,,,,,,,,,,,,,,,,,,,,,,,,,,,,,,,,,,,24,,,,,,,,101.30072100018151,101.30072100018151,101.30072100018151,101.30072100018151,101.30072100018151,up,0.24305250006727874,13,0,99,0.16,0.0,up,0.1506544000003487,None,,,,,,,,,,,,,,,,,,,,,,,,,,,,,,,,,,,,,2024-06-25_16h51.15.201,HideSeek_v1,2023.1.3,59.997072148523316,
,4,3,4,7,0,4,65,,train_dim1_1,14,24,2,0,2,0,,,,,,,,,0,0,0,0,0,13,13,13,2,0,2,0,,,,,,,,,,,,,,,,,,,,,,,,,,,,,,,,,,,,,,,,,,,,,,,,,,,,,,24,,,,,,,,101.5525880001951,101.5525880001951,101.5525880001951,101.5525880001951,101.5525880001951,up,0.2110110002104193,13,0,99,0.16,0.08,up,0.11820749985054135,None,,,,,,,,,,,,,,,,,,,,,,,,,,,,,,,,,,,,,2024-06-25_16h51.15.201,HideSeek_v1,2023.1.3,59.997072148523316,
,4,3,4,7,0,4,65,,train_dim1_1,14,24,2,0,2,0,,,,,,,,,0,0,0,0,0,13,13,13,3,0,3,0,,,,,,,,,,,,,,,,,,,,,,,,,,,,,,,,,,,,,,,,,,,,,,,,,,,,,,24,,,,,,,,101.77241390012205,101.77241390012205,101.77241390012205,101.77241390012205,101.77241390012205,up,0.21063260012306273,13,0,99,0.16,0.16,up,0.11921570007689297,None,,,,,,,,,,,,,,,,,,,,,,,,,,,,,,,,,,,,,2024-06-25_16h51.15.201,HideSeek_v1,2023.1.3,59.997072148523316,
,4,3,4,7,0,4,65,,train_dim1_1,14,24,2,0,2,0,,,,,,,,,0,0,0,0,0,13,13,13,4,0,4,0,,,,,,,,,,,,,,,,,,,,,,,,,,,,,,,,,,,,,,,,,,,,,,,,,,,,,,24,,,,,,,,101.98874190007336,101.98874190007336,101.98874190007336,101.98874190007336,101.98874190007336,return,0.2773470999673009,14,0,1,0.16,0.16,return,0.18314069998450577,None,46,0,0.16,0.16,,,,,,,,,,,,,,,,,,,,,,,,,,,,,,,,,2024-06-25_16h51.15.201,HideSeek_v1,2023.1.3,59.997072148523316,
,1,0,1,5,0,5,66,,train_dim1_1,15,24,2,0,2,0,,,,,,,,,0,0,0,0,0,14,14,14,0,0,0,0,,,,,,,,,,,,,stimuli/alien_stimuli/66.png,,,,,,,,,,,,,,,,,,,,,,,,,,,,,,,stimuli/alien_stimuli/65.png,65,4,16,,,,,,,24,,,,,,,,105.78575250017457,105.78575250017457,105.78575250017457,105.78575250017457,105.78575250017457,up,0.49151559988968074,14,0,99,-0.08,-0.32,up,0.4049600998405367,None,,,,,104.23355940007605,105.78575250017457,0.16,0.16,0.32,0.0,0.0,0.16,0.16,0.16,0.16,103.85007690009661,103.85007690009661,103.85007690009661,103.85007690009661,103.85007690009661,103.85007690009661,103.85007690009661,103.85007690009661,103.83317224020139,0.5180257000029087,return,0.35665409988723695,None,,,,,,,,,2024-06-25_16h51.15.201,HideSeek_v1,2023.1.3,59.997072148523316,
,1,0,1,5,0,5,66,,train_dim1_1,15,24,2,0,2,0,,,,,,,,,0,0,0,0,0,14,14,14,1,0,1,0,,,,,,,,,,,,,,,,,,,,,,,,,,,,,,,,,,,,,,,,,,,,,,,,,,,,,,24,,,,,,,,106.30041460017674,106.30041460017674,106.30041460017674,106.30041460017674,106.30041460017674,up,0.27650369983166456,14,0,99,-0.08,-0.24,up,0.1779816998168826,None,,,,,,,,,,,,,,,,,,,,,,,,,,,,,,,,,,,,,2024-06-25_16h51.15.201,HideSeek_v1,2023.1.3,59.997072148523316,
,1,0,1,5,0,5,66,,train_dim1_1,15,24,2,0,2,0,,,,,,,,,0,0,0,0,0,14,14,14,2,0,2,0,,,,,,,,,,,,,,,,,,,,,,,,,,,,,,,,,,,,,,,,,,,,,,,,,,,,,,24,,,,,,,,106.56986950011924,106.56986950011924,106.56986950011924,106.56986950011924,106.56986950011924,up,0.22738320007920265,14,0,99,-0.08,-0.15999999999999998,up,0.13873820006847382,None,,,,,,,,,,,,,,,,,,,,,,,,,,,,,,,,,,,,,2024-06-25_16h51.15.201,HideSeek_v1,2023.1.3,59.997072148523316,
,1,0,1,5,0,5,66,,train_dim1_1,15,24,2,0,2,0,,,,,,,,,0,0,0,0,0,14,14,14,3,0,3,0,,,,,,,,,,,,,,,,,,,,,,,,,,,,,,,,,,,,,,,,,,,,,,,,,,,,,,24,,,,,,,,106.8167306999676,106.8167306999676,106.8167306999676,106.8167306999676,106.8167306999676,up,0.2436482000630349,14,0,99,-0.08,-0.07999999999999997,up,0.1449352998752147,None,,,,,,,,,,,,,,,,,,,,,,,,,,,,,,,,,,,,,2024-06-25_16h51.15.201,HideSeek_v1,2023.1.3,59.997072148523316,
,1,0,1,5,0,5,66,,train_dim1_1,15,24,2,0,2,0,,,,,,,,,0,0,0,0,0,14,14,14,4,0,4,0,,,,,,,,,,,,,,,,,,,,,,,,,,,,,,,,,,,,,,,,,,,,,,,,,,,,,,24,,,,,,,,107.05161620001309,107.05161620001309,107.05161620001309,107.05161620001309,107.05161620001309,up,0.27771020005457103,14,0,99,-0.08,2.7755575615628914e-17,up,0.18731760000810027,None,,,,,,,,,,,,,,,,,,,,,,,,,,,,,,,,,,,,,2024-06-25_16h51.15.201,HideSeek_v1,2023.1.3,59.997072148523316,
,1,0,1,5,0,5,66,,train_dim1_1,15,24,2,0,2,0,,,,,,,,,0,0,0,0,0,14,14,14,5,0,5,0,,,,,,,,,,,,,,,,,,,,,,,,,,,,,,,,,,,,,,,,,,,,,,,,,,,,,,24,,,,,,,,107.33644039998762,107.33644039998762,107.33644039998762,107.33644039998762,107.33644039998762,return,0.27764849993400276,15,0,1,-0.08,2.7755575615628914e-17,return,0.19543780013918877,None,51,0,-0.08,2.7755575615628914e-17,,,,,,,,,,,,,,,,,,,,,,,,,,,,,,,,,2024-06-25_16h51.15.201,HideSeek_v1,2023.1.3,59.997072148523316,
,3,1,3,2,0,1,62,,train_dim1_1,16,24,2,0,2,0,,,,,,,,,0,0,0,0,0,15,15,15,0,0,0,0,,,,,,,,,,,,,stimuli/alien_stimuli/62.png,,,,,,,,,,,,,,,,,,,,,,,,,,,,,,,stimuli/alien_stimuli/66.png,66,1,17,,,,,,,24,,,,,,,,111.43351910007186,111.43351910007186,111.43351910007186,111.43351910007186,111.43351910007186,return,1.8398658002261072,15,0,0,0.08,-0.32,return,1.7466627999674529,None,51,0,0.08,-0.32,109.86670220014639,111.43351910007186,-0.08,0,0.4,0.0,-0.2,-0.08,-0.08,-0.08,0,109.16739820013754,109.16739820013754,109.16739820013754,109.16739820013754,109.16739820013754,109.16739820013754,109.16739820013754,109.16739820013754,109.15000018016435,0.8015668001025915,return,0.6739656999707222,None,,,,,,,,,2024-06-25_16h51.15.201,HideSeek_v1,2023.1.3,59.997072148523316,
,0,2,0,7,0,5,66,,train_dim1_1,17,24,2,0,2,0,,,,,,,,,0,0,0,0,0,16,16,16,0,0,0,0,,,,,,,,,,,,,stimuli/alien_stimuli/66.png,,,,,,,,,,,,,,,,,,,,,,,,,,,,,,,stimuli/alien_stimuli/62.png,62,3,18,,,,,,,24,,,,,,,,116.7360798001755,116.7360798001755,116.7360798001755,116.7360798001755,116.7360798001755,return,0.6578180999495089,15,0,0,-0.16,-0.24,return,0.5585852998774499,None,51,0,-0.16,-0.24,115.16694160015322,116.7360798001755,0.08,-0.24,0.08,0.0,-0.28,0.08,0.08,0.08,-0.24,114.81857500015758,114.81857500015758,114.81857500015758,114.81857500015758,114.81857500015758,114.81857500015758,114.81857500015758,114.81857500015758,114.80001458018087,0.45245429989881814,return,0.33230650005862117,None,,,,,,,,,2024-06-25_16h51.15.201,HideSeek_v1,2023.1.3,59.997072148523316,
,1,2,1,6,0,4,65,,train_dim1_1,18,24,2,0,2,0,,,,,,,,,0,0,0,0,0,17,17,17,0,0,0,0,,,,,,,,,,,,,stimuli/alien_stimuli/65.png,,,,,,,,,,,,,,,,,,,,,,,,,,,,,,,stimuli/alien_stimuli/66.png,66,0,19,,,,,,,24,,,,,,,,120.91682010004297,120.91682010004297,120.91682010004297,120.91682010004297,120.91682010004297,return,0.6898368999827653,15,0,0,-0.08,-0.24,return,0.5902980000246316,None,51,0,-0.08,-0.24,119.34991580015048,120.91682010004297,-0.16,0.16,0.4,0.0,-0.039999999999999994,-0.16,-0.16,-0.16,0.16,118.95016300003044,118.95016300003044,118.95016300003044,118.95016300003044,118.95016300003044,118.95016300003044,118.95016300003044,118.95016300003044,118.93349161008373,0.5181727001909167,return,0.3784914000425488,None,,,,,,,,,2024-06-25_16h51.15.201,HideSeek_v1,2023.1.3,59.997072148523316,
,1,4,1,5,0,1,62,,train_dim1_1,19,24,2,0,2,0,,,,,,,,,0,0,0,0,0,18,18,18,0,0,0,0,,,,,,,,,,,,,stimuli/alien_stimuli/62.png,,,,,,,,,,,,,,,,,,,,,,,,,,,,,,,stimuli/alien_stimuli/65.png,65,1,20,,,,,,,24,,,,,,,,125.10005400003865,125.10005400003865,125.10005400003865,125.10005400003865,125.10005400003865,return,0.3402418999467045,15,0,0,-0.08,-0.08,return,0.2342796998564154,None,51,0,-0.08,-0.08,123.53317970014177,125.10005400003865,-0.08,0.08,0.32,0.0,-0.07999999999999999,-0.08,-0.08,-0.08,0.08,123.14829870010726,123.14829870010726,123.14829870010726,123.14829870010726,123.14829870010726,123.14829870010726,123.14829870010726,123.14829870010726,123.13323078006506,0.4846512000076473,return,0.35721260006539524,None,,,,,,,,,2024-06-25_16h51.15.201,HideSeek_v1,2023.1.3,59.997072148523316,
,3,2,3,5,0,3,64,,train_dim1_1,20,24,2,0,2,0,,,,,,,,,0,0,0,0,0,19,19,19,0,0,0,0,,,,,,,,,,,,,stimuli/alien_stimuli/64.png,,,,,,,,,,,,,,,,,,,,,,,,,,,,,,,stimuli/alien_stimuli/62.png,62,1,21,,,,,,,24,,,,,,,,128.60002450016327,128.60002450016327,128.60002450016327,128.60002450016327,128.60002450016327,return,0.3401792999356985,15,0,0,0.08,-0.24,return,0.24718419997952878,None,51,0,0.08,-0.24,127.03306460008025,128.60002450016327,-0.08,0,0.08,0.0,-0.04,-0.08,-0.08,-0.08,0,126.98380729998462,126.98380729998462,126.98380729998462,126.98380729998462,126.98380729998462,126.98380729998462,126.98380729998462,126.98380729998462,126.96666508009658,0.15231669996865094,return,0.027494299924001098,None,,,,,,,,,2024-06-25_16h51.15.201,HideSeek_v1,2023.1.3,59.997072148523316,
,2,4,2,5,0,1,62,,train_dim1_1,21,24,2,0,2,0,,,,,,,,,0,0,0,0,0,20,20,20,0,0,0,0,,,,,,,,,,,,,stimuli/alien_stimuli/62.png,,,,,,,,,,,,,,,,,,,,,,,,,,,,,,,stimuli/alien_stimuli/64.png,64,3,22,,,,,,,24,,,,,,,,132.60038730013184,132.60038730013184,132.60038730013184,132.60038730013184,132.60038730013184,return,0.4394020000472665,15,0,0,0,-0.08,return,0.32878169999457896,None,51,0,0,-0.08,131.0173321000766,132.60038730013184,0.08,0,0.24,0.0,-0.12,0.08,0.08,0.08,0,130.48384870006703,130.48384870006703,130.48384870006703,130.48384870006703,130.48384870006703,130.48384870006703,130.48384870006703,130.48384870006703,130.46647478016092,0.6353833000175655,return,0.5130887001287192,None,,,,,,,,,2024-06-25_16h51.15.201,HideSeek_v1,2023.1.3,59.997072148523316,
,0,1,0,5,0,4,65,,train_dim1_1,22,24,2,0,2,0,,,,,,,,,0,0,0,0,0,21,21,21,0,0,0,0,,,,,,,,,,,,,stimuli/alien_stimuli/65.png,,,,,,,,,,,,,,,,,,,,,,,,,,,,,,,stimuli/alien_stimuli/62.png,62,2,23,,,,,,,24,,,,,,,,136.56648070015945,136.56648070015945,136.56648070015945,136.56648070015945,136.56648070015945,return,0.49011379992589355,15,0,0,-0.16,-0.32,return,0.38936619996093214,None,51,0,-0.16,-0.32,135.0001089000143,136.56648070015945,0,0,0.08,0.0,-0.04,0,0.0,0,0,134.66670679999515,134.66670679999515,134.66670679999515,134.66670679999515,134.66670679999515,134.66670679999515,134.66670679999515,134.66670679999515,134.6501712599769,0.5348515999503434,return,0.31004630005918443,None,,,,,,,,,2024-06-25_16h51.15.201,HideSeek_v1,2023.1.3,59.997072148523316,
,2,3,2,6,0,3,64,,train_dim1_1,23,24,2,0,2,0,,,,,,,,,0,0,0,0,0,22,22,22,0,0,0,0,,,,,,,,,,,,,stimuli/alien_stimuli/64.png,,,,,,,,,,,,,,,,,,,,,,,,,,,,,,,stimuli/alien_stimuli/65.png,65,0,24,,,,,,,24,,,,,,,,140.68320980016142,140.68320980016142,140.68320980016142,140.68320980016142,140.68320980016142,return,0.49017599993385375,15,0,0,0,-0.16,return,0.39200109988451004,None,51,0,0,-0.16,139.11662910017185,140.68320980016142,-0.16,0,0.32,0.0,-0.16,-0.16,-0.16,-0.16,0,138.60110760014504,138.60110760014504,138.60110760014504,138.60110760014504,138.60110760014504,138.60110760014504,138.60110760014504,138.60110760014504,138.5832379800733,0.6184193999506533,return,0.4881059001199901,None,,,,,,,,,2024-06-25_16h51.15.201,HideSeek_v1,2023.1.3,59.997072148523316,
,1,1,1,6,0,5,66,,train_dim1_1,24,24,2,0,2,0,,,,,,,,,0,0,0,0,0,23,23,23,0,0,0,0,,,,,,,,,,,,,stimuli/alien_stimuli/66.png,,,,,,,,,,,,,,,,,,,,,,,,,,,,,,,stimuli/alien_stimuli/64.png,64,2,25,,,,,,,24,,,,,,,,144.9496791001875,144.9496791001875,144.9496791001875,144.9496791001875,144.9496791001875,return,0.40692600002512336,15,0,0,-0.08,-0.32,return,0.3171403999440372,None,51,0,-0.08,-0.32,143.38338360004127,144.9496791001875,0,0.08,0.24,0.0,-0.04,0,0.0,0,0.08,142.73321250011213,142.73321250011213,142.73321250011213,142.73321250011213,142.73321250011213,142.73321250011213,142.73321250011213,142.73321250011213,142.7002200801391,0.7679266000632197,return,0.6308732000179589,None,,,,,,,,,2024-06-25_16h51.15.201,HideSeek_v1,2023.1.3,59.997072148523316,
,,,,,,,,,,,24,2,0,2,0,,,,,,,,,,,,,,,,,,,,,,,,,,,,,,,,,,,,,,,,,,,,,,,,,,,,,,,,,,,,,,,,stimuli/alien_stimuli/66.png,66,1,26,17,0.7,100.625,1,1,1,24,0,conditions/inputTrain_2.1.xlsx,99,1,2,1,0,,,,,,,,,,0,,,,,,,,,,147.48330970015377,149.03486300003715,-0.08,0.08,0.4,0.0,-0.12,-0.08,-0.08,-0.08,0.08,146.91654490004294,146.91654490004294,146.91654490004294,146.91654490004294,146.91654490004294,146.91654490004294,146.91654490004294,146.91654490004294,146.88317978014237,0.6847699999343604,return,0.5356527999974787,None,0,117.29166666666666,0,1,15,,,,2024-06-25_16h51.15.201,HideSeek_v1,2023.1.3,59.997072148523316,
,,,,,,,,,,,,,,,,,,,,,,,,,,,,,,,,,,,,,,stimuli/instructions/Slide17.png,stimuli/instructions/Audio17.wav,149.03486300003715,149.03311812011523,,,,,,,,,,,,,,,,,,,,,,,,,,,,,,,,,,,,,,,,,,,,,,,,,,,,,,,,,,,,,,,,,,,,,,,,,,,,,,,,,,,,,,,,,,,,,,,,,,,,,,,,,,,,,,,
