trialInstr,x_fixStart,y_fixStart,x_corrSteps,y_corrSteps,x_nrSteps,y_nrSteps,alienID,trialLength,version,trialTrain,praclen,beforeExpLoop.thisRepN,beforeExpLoop.thisTrialN,beforeExpLoop.thisN,beforeExpLoop.thisIndex,mini_instr_trials.thisRepN,mini_instr_trials.thisTrialN,mini_instr_trials.thisN,mini_instr_trials.thisIndex,instrLoop.thisRepN,instrLoop.thisTrialN,instrLoop.thisN,instrLoop.thisIndex,repeat_prac.thisRepN,repeat_prac.thisTrialN,repeat_prac.thisN,repeat_prac.thisIndex,trainLoop.thisRepN,trainLoop.thisTrialN,trainLoop.thisN,trainLoop.thisIndex,moveLoop_train.thisRepN,moveLoop_train.thisTrialN,moveLoop_train.thisN,moveLoop_train.thisIndex,start_all_time,url,slideStim,audioStim,slides.started,sounds.started,nextButton.numClicks,nextButton.timesOn,nextButton.timesOff,prev_but.numClicks,prev_but.timesOn,prev_but.timesOff,alienStim,instrFile,alienStim_instr,gridImage_instr.started,startPos_3.started,key_instr.started,alienImage_3.started,sounds_1.started,key_instr.keys,key_instr.rt,key_instr.duration,all_x,all_y,FBy_corrSteps,FBy_fixStart,FBx_corrSteps,FBx_fixStart,FBy_pathSize_check,FBx_pathSize_check,gridImage_9.started,alienImageFB_3.started,startPosFB_3.started,keyFB_3.started,pathLine_ydir_2.started,pathLine_xdir_2.started,alienFace_3.started,sounds_2.started,RTFB_instr,keyFB_3.keys,keyFB_3.rt,keyFB_3.duration,draw_alienStim,draw_alienID,test_x,nrepcount,perfthres,percthres,earlierperf,earlystop,nextPrac,fileidx,praclen,saveACC_train,pracFile,nextPrac_train,addNrep,fileidx_endr,repExp,showearly,gridImage_4.started,startPos.started,movePos.started,key_resp.started,alienImage.started,buttonPress_train,RTchoice_train,cumAcctrain,saveACC_choice,corrAns,x_movePos_end,y_movePos_end,key_resp.keys,key_resp.rt,key_resp.duration,wLy_dir,wLx_dir,x_movePos,y_movePos,text_2.started,text_2.stopped,aft_x_corrPos,aft_y_corrPos,y_pathSize_check,x_pathSize_check,y_pathdirY,x_pathdirY,x_pathdirX,x_corrPos,y_corrPos,gridImage_6.started,alienImageFB_2.started,startPosFB_2.started,movePosFB_2.started,keyFB_2.started,pathLine_xdir.started,pathLine_ydir.started,alienFace.started,sounds_4.started,RT_FBtrain,keyFB_2.keys,keyFB_2.rt,keyFB_2.duration,saveACC_pre,ACC,within_saveACC_train,earlystop_wloop,cumAcctrain_check,participant,study_id,session_id,date,expName,psychopyVersion,frameRate,
,,,,,,,,,,,,0,0,0,0,0,0,0,0,,,,,,,,,,,,,,,,,start_all_time,testround,stimuli/instructions/Slide1.png,stimuli/instructions/Audio1.wav,9.717423800146207,9.693817100394519,1,[1.96957019995898],[1.9695751001127064],0,,,,,,,,,,,,,,,,,,,,,,,,,,,,,,,,,,,,,,,,,,,,,,,,,,,,,,,,,,,,,,,,,,,,,,,,,,,,,,,,,,,,,,,,,,,,,,,,,,,,,,,2024-06-25_16h35.32.749,HideSeek_v1,2023.1.3,60.12025250687124,
,,,,,,,,,,,,0,0,0,0,1,0,1,0,,,,,,,,,,,,,,,,,,,stimuli/instructions/Slide2.png,stimuli/instructions/Audio2.wav,11.767706700135022,11.752286600042135,1,[0.2294368001166731],[0.22944079991430044],0,,,,,,,,,,,,,,,,,,,,,,,,,,,,,,,,,,,,,,,,,,,,,,,,,,,,,,,,,,,,,,,,,,,,,,,,,,,,,,,,,,,,,,,,,,,,,,,,,,,,,,,2024-06-25_16h35.32.749,HideSeek_v1,2023.1.3,60.12025250687124,
,,,,,,,,,,,,0,0,0,0,2,0,2,0,,,,,,,,,,,,,,,,,,,stimuli/instructions/Slide3.png,stimuli/instructions/Audio3.wav,12.102365500060841,12.08579915012233,1,[0.18306090007536113],[0.183065100107342],0,,,,,,,,,,,,,,,,,,,,,,,,,,,,,,,,,,,,,,,,,,,,,,,,,,,,,,,,,,,,,,,,,,,,,,,,,,,,,,,,,,,,,,,,,,,,,,,,,,,,,,,2024-06-25_16h35.32.749,HideSeek_v1,2023.1.3,60.12025250687124,
,,,,,,,,,,,,0,0,0,0,3,0,3,0,,,,,,,,,,,,,,,,,,,stimuli/instructions/Slide4.png,stimuli/instructions/Audio4.wav,12.400493700057268,12.38432275010273,1,[1.1227468999568373],[1.1227520999964327],0,,,,,,,,,,,,,,,,,,,,,,,,,,,,,,,,,,,,,,,,,,,,,,,,,,,,,,,,,,,,,,,,,,,,,,,,,,,,,,,,,,,,,,,,,,,,,,,,,,,,,,,2024-06-25_16h35.32.749,HideSeek_v1,2023.1.3,60.12025250687124,
,,,,,,,,,,,,0,0,0,0,4,0,4,0,,,,,,,,,,,,,,,,,,,stimuli/instructions/Slide5.png,stimuli/instructions/Audio5.wav,13.568435000022873,13.551832350017504,1,[0.31682960013858974],[0.31683290004730225],0,,,,,,,,,,,,,,,,,,,,,,,,,,,,,,,,,,,,,,,,,,,,,,,,,,,,,,,,,,,,,,,,,,,,,,,,,,,,,,,,,,,,,,,,,,,,,,,,,,,,,,,2024-06-25_16h35.32.749,HideSeek_v1,2023.1.3,60.12025250687124,
,,,,,,,,,,,,0,0,0,0,5,0,5,0,,,,,,,,,,,,,,,,,,,stimuli/instructions/Slide6.png,stimuli/instructions/Audio6.wav,13.932996599934995,13.918297850107775,1,[0.30179410008713603],[0.30179800000041723],0,,,,,,,,,,,,,,,,,,,,,,,,,,,,,,,,,,,,,,,,,,,,,,,,,,,,,,,,,,,,,,,,,,,,,,,,,,,,,,,,,,,,,,,,,,,,,,,,,,,,,,,2024-06-25_16h35.32.749,HideSeek_v1,2023.1.3,60.12025250687124,
,,,,,,,,,,,,0,0,0,0,6,0,6,0,,,,,,,,,,,,,,,,,,,stimuli/instructions/Slide7.png,stimuli/instructions/Audio7.wav,14.282166799996048,14.268276450037957,1,[0.33475290006026626],[0.3347576998639852],0,,,,,,,,,,,,,,,,,,,,,,,,,,,,,,,,,,,,,,,,,,,,,,,,,,,,,,,,,,,,,,,,,,,,,,,,,,,,,,,,,,,,,,,,,,,,,,,,,,,,,,,2024-06-25_16h35.32.749,HideSeek_v1,2023.1.3,60.12025250687124,
,,,,,,,,,,,,0,0,0,0,7,0,7,0,,,,,,,,,,,,,,,,,,,stimuli/instructions/Slide8.png,stimuli/instructions/Audio8.wav,14.685661100083962,14.6845738501288,1,[0.2659195999149233],[0.2659229999408126],0,,,,,,,,,,,,,,,,,,,,,,,,,,,,,,,,,,,,,,,,,,,,,,,,,,,,,,,,,,,,,,,,,,,,,,,,,,,,,,,,,,,,,,,,,,,,,,,,,,,,,,,2024-06-25_16h35.32.749,HideSeek_v1,2023.1.3,60.12025250687124,
,,,,,,,,,,,,0,0,0,0,8,0,8,0,,,,,,,,,,,,,,,,,,,stimuli/instructions/Slide9.png,stimuli/instructions/Audio9.wav,15.017492200015113,15.001872799964621,1,[0.7921700000297278],[0.7921767998486757],0,,,,,,,,,,,,,,,,,,,,,,,,,,,,,,,,,,,,,,,,,,,,,,,,,,,,,,,,,,,,,,,,,,,,,,,,,,,,,,,,,,,,,,,,,,,,,,,,,,,,,,,2024-06-25_16h35.32.749,HideSeek_v1,2023.1.3,60.12025250687124,
,,,,,,,,,,,,0,0,0,0,9,0,9,0,,,,,,,,,,,,,,,,,,,stimuli/instructions/Slide10.png,stimuli/instructions/Audio10.wav,15.86780839995481,15.851251500099897,1,[0.3973974999971688],[0.3974017999134958],0,,,,,,,,,,,,,,,,,,,,,,,,,,,,,,,,,,,,,,,,,,,,,,,,,,,,,,,,,,,,,,,,,,,,,,,,,,,,,,,,,,,,,,,,,,,,,,,,,,,,,,,2024-06-25_16h35.32.749,HideSeek_v1,2023.1.3,60.12025250687124,
,,,,,,,,,,,,0,0,0,0,10,0,10,0,,,,,,,,,,,,,,,,,,,stimuli/instructions/Slide11.png,stimuli/instructions/Audio11.wav,16.31789920013398,16.301775500085203,1,[0.32001010002568364],[0.3200135000515729],0,,,,,,,,,,,,,,,,,,,,,,,,,,,,,,,,,,,,,,,,,,,,,,,,,,,,,,,,,,,,,,,,,,,,,,,,,,,,,,,,,,,,,,,,,,,,,,,,,,,,,,,2024-06-25_16h35.32.749,HideSeek_v1,2023.1.3,60.12025250687124,
,,,,,,,,,,,,0,0,0,0,11,0,11,0,,,,,,,,,,,,,,,,,,,stimuli/instructions/Slide12.png,stimuli/instructions/Audio12.wav,16.70196110010147,16.70124335004948,1,[0.3663361999206245],[0.36634159996174276],0,,,,,,,,,,,,,,,,,,,,,,,,,,,,,,,,,,,,,,,,,,,,,,,,,,,,,,,,,,,,,,,,,,,,,,,,,,,,,,,,,,,,,,,,,,,,,,,,,,,,,,,2024-06-25_16h35.32.749,HideSeek_v1,2023.1.3,60.12025250687124,
1,0,3,0,8,0,5,66,2,instr_dim1_1,,,0,0,0,0,,,,,0,0,0,0,,,,,,,,,,,,,,,,,,,,,,,,,stimuli/alien_stimuli/66.png,conditions/inputInstr_1.xlsx,stimuli/alien_stimuli/66.png,17.20066410000436,17.20066410000436,17.20066410000436,17.20066410000436,17.135822350159287,return,0.7803816997911781,None,"[-0.16, -0.08, 0, 0.08, 0.16, 0.24, 0.32, 0.4, 0.48, 0.56]","[-0.4, -0.32, -0.24, -0.16, -0.08, 0, 0.08, 0.16, 0.24, 0.32]",8,3,0,0,0.4,0.0,18.18350229994394,18.18350229994394,18.18350229994394,18.18350229994394,18.18350229994394,18.18350229994394,18.18350229994394,18.118014399940147,0.33287280006334186,return,0.12032709992490709,None,stimuli/alien_stimuli/66.png,66,0,1,,,,,,,,,,,,,,,,,,,,,,,,,,,,,,,,,,,,,,,,,,,,,,,,,,,,,,,,,,,,,,,,,,2024-06-25_16h35.32.749,HideSeek_v1,2023.1.3,60.12025250687124,
,,,,,,,,,,,24,0,0,0,0,,,,,,,,,,,,,,,,,,,,,,,,,,,,,,,,,,,,,,,,,,,,,,,,,,,,,,,,,,,,,,,,,,,,17,0.7,0,0,99,1,24,0,conditions/inputTrain_1.1.xlsx,99,1,1,1,0,,,,,,,,,,,,,,,,,,,,,,,,,,,,,,,,,,,,,,,,,,,,,,,,,,,,2024-06-25_16h35.32.749,HideSeek_v1,2023.1.3,60.12025250687124,
,,,,,,,,,,,,1,0,1,0,0,0,0,0,,,,,,,,,,,,,,,,,,,stimuli/instructions/Slide13.png,stimuli/instructions/Audio13.wav,18.53362730005756,18.517859500087795,1,[0.9385490999557078],[0.9385532999876887],0,,,,,,,,,,,,,,,,,,,,,,,,,,,,,,,,,,,,,,,,,,,,,,,,,,,,,,,,,,,,,,,,,,,,,,,,,,,,,,,,,,,,,,,,,,,,,,,,,,,,,,,2024-06-25_16h35.32.749,HideSeek_v1,2023.1.3,60.12025250687124,
,,,,,,,,,,,,1,0,1,0,1,0,1,0,,,,,,,,,,,,,,,,,,,stimuli/instructions/Slide14.png,stimuli/instructions/Audio14.wav,19.550439700018615,19.533969150157645,1,[0.39280929998494685],[0.3928160001523793],0,,,,,,,,,,,,,,,,,,,,,,,,,,,,,,,,,,,,,,,,,,,,,,,,,,,,,,,,,,,,,,,,,,,,,,,,,,,,,,,,,,,,,,,,,,,,,,,,,,,,,,,2024-06-25_16h35.32.749,HideSeek_v1,2023.1.3,60.12025250687124,
2,2,3,2,3,0,0,61,2,instr_dim1_1,,,1,0,1,0,,,,,0,0,0,0,,,,,,,,,,,,,,,,,,,,,,,,,stimuli/alien_stimuli/61.png,conditions/inputInstr_1.xlsx,stimuli/alien_stimuli/61.png,20.029615700012073,20.029615700012073,20.029615700012073,20.029615700012073,20.018532400112598,return,0.3957441998645663,None,"[-0.16, -0.08, 0, 0.08, 0.16, 0.24, 0.32, 0.4, 0.48, 0.56]","[-0.4, -0.32, -0.24, -0.16, -0.08, 0, 0.08, 0.16, 0.24, 0.32]",3,3,2,2,0.0,0.0,20.63363349996507,20.63363349996507,20.63363349996507,20.63363349996507,20.63363349996507,20.63363349996507,20.63363349996507,20.617965950025244,0.35191369988024235,return,0.13619699981063604,None,stimuli/alien_stimuli/61.png,61,2,2,,,,,,,,,,,,,,,,,,,,,,,,,,,,,,,,,,,,,,,,,,,,,,,,,,,,,,,,,,,,,,,,,,2024-06-25_16h35.32.749,HideSeek_v1,2023.1.3,60.12025250687124,
,,,,,,,,,,,24,1,0,1,0,,,,,,,,,,,,,,,,,,,,,,,,,,,,,,,,,,,,,,,,,,,,,,,,,,,,,,,,,,,,,,,,,,,,17,0.7,0,0,99,1,24,0,conditions/inputTrain_1.1.xlsx,99,1,1,1,0,,,,,,,,,,,,,,,,,,,,,,,,,,,,,,,,,,,,,,,,,,,,,,,,,,,,2024-06-25_16h35.32.749,HideSeek_v1,2023.1.3,60.12025250687124,
,,,,,,,,,,,,2,0,2,0,0,0,0,0,,,,,,,,,,,,,,,,,,,stimuli/instructions/Slide15.png,stimuli/instructions/Audio15.wav,20.982736400095746,20.9696636501234,1,[0.9343671000096947],[0.9343728001695126],0,,,,,,,,,,,,,,,,,,,,,,,,,,,,,,,,,,,,,,,,,,,,,,,,,,,,,,,,,,,,,,,,,,,,,,,,,,,,,,,,,,,,,,,,,,,,,,,,,,,,,,,2024-06-25_16h35.32.749,HideSeek_v1,2023.1.3,60.12025250687124,
,,,,,,,,,,,,2,0,2,0,1,0,1,0,,,,,,,,,,,,,,,,,,,stimuli/instructions/Slide16.png,stimuli/instructions/Audio16.wav,22.017247000010684,22.001548900129272,1,[0.34119140007533133],[0.3411948001012206],0,,,,,,,,,,,,,,,,,,,,,,,,,,,,,,,,,,,,,,,,,,,,,,,,,,,,,,,,,,,,,,,,,,,,,,,,,,,,,,,,,,,,,,,,,,,,,,,,,,,,,,,2024-06-25_16h35.32.749,HideSeek_v1,2023.1.3,60.12025250687124,
,2,0,2,1,0,1,62,,train_dim1_1,1,24,2,0,2,0,,,,,,,,,0,0,0,0,0,0,0,0,0,0,0,0,,,,,,,,,,,,,stimuli/alien_stimuli/62.png,,,,,,,,,,,,,,,,,,,,,,,,,,,,,,,,,,,,,,,,,24,,,,,,,,22.45164779992774,22.45164779992774,22.45164779992774,22.45164779992774,22.45164779992774,up,1.4566816000733525,0,0,99,0,-0.32,up,1.3352928997483104,None,,,,,,,,,,,,,,,,,,,,,,,,,,,,,,,,,,,,,2024-06-25_16h35.32.749,HideSeek_v1,2023.1.3,60.12025250687124,
,2,0,2,1,0,1,62,,train_dim1_1,1,24,2,0,2,0,,,,,,,,,0,0,0,0,0,0,0,0,1,0,1,0,,,,,,,,,,,,,,,,,,,,,,,,,,,,,,,,,,,,,,,,,,,,,,,,,,,,,,24,,,,,,,,23.900587799958885,23.900587799958885,23.900587799958885,23.900587799958885,23.900587799958885,return,0.32678599981591105,1,0,1,0,-0.32,return,0.23059439985081553,None,1,0,0,-0.32,,,,,,,,,,,,,,,,,,,,,,,,,,,,,,,,,2024-06-25_16h35.32.749,HideSeek_v1,2023.1.3,60.12025250687124,
,2,2,2,5,0,3,64,,train_dim1_1,2,24,2,0,2,0,,,,,,,,,0,0,0,0,0,1,1,1,0,0,0,0,,,,,,,,,,,,,stimuli/alien_stimuli/64.png,,,,,,,,,,,,,,,,,,,,,,,,,,,,,,,stimuli/alien_stimuli/62.png,62,2,3,,,,,,,24,,,,,,,,27.667371700052172,27.667371700052172,27.667371700052172,27.667371700052172,27.667371700052172,up,0.40639850008301437,1,0,99,0,-0.15999999999999998,up,0.3095173998735845,None,,,,,26.10011880006641,27.667371700052172,0,-0.32,0.08,0.0,-0.36,0,0.0,0,-0.32,25.851172199938446,25.851172199938446,25.851172199938446,25.851172199938446,25.851172199938446,25.851172199938446,25.851172199938446,25.851172199938446,25.767340550152582,0.4350544000044465,return,0.21724399994127452,None,,,,,,,,,2024-06-25_16h35.32.749,HideSeek_v1,2023.1.3,60.12025250687124,
,2,2,2,5,0,3,64,,train_dim1_1,2,24,2,0,2,0,,,,,,,,,0,0,0,0,0,1,1,1,1,0,1,0,,,,,,,,,,,,,,,,,,,,,,,,,,,,,,,,,,,,,,,,,,,,,,,,,,,,,,24,,,,,,,,28.10016110003926,28.10016110003926,28.10016110003926,28.10016110003926,28.10016110003926,up,0.3604113000910729,1,0,99,0,-0.07999999999999997,up,0.24617649987339973,None,,,,,,,,,,,,,,,,,,,,,,,,,,,,,,,,,,,,,2024-06-25_16h35.32.749,HideSeek_v1,2023.1.3,60.12025250687124,
,2,2,2,5,0,3,64,,train_dim1_1,2,24,2,0,2,0,,,,,,,,,0,0,0,0,0,1,1,1,2,0,2,0,,,,,,,,,,,,,,,,,,,,,,,,,,,,,,,,,,,,,,,,,,,,,,,,,,,,,,24,,,,,,,,28.483658800134435,28.483658800134435,28.483658800134435,28.483658800134435,28.483658800134435,up,0.39440520014613867,1,0,99,0,2.7755575615628914e-17,up,0.2524176000151783,None,,,,,,,,,,,,,,,,,,,,,,,,,,,,,,,,,,,,,2024-06-25_16h35.32.749,HideSeek_v1,2023.1.3,60.12025250687124,
,2,2,2,5,0,3,64,,train_dim1_1,2,24,2,0,2,0,,,,,,,,,0,0,0,0,0,1,1,1,3,0,3,0,,,,,,,,,,,,,,,,,,,,,,,,,,,,,,,,,,,,,,,,,,,,,,,,,,,,,,24,,,,,,,,28.84493579994887,28.84493579994887,28.84493579994887,28.84493579994887,28.84493579994887,return,0.29395750002004206,2,0,1,0,2.7755575615628914e-17,return,0.1910579998511821,None,4,0,0,2.7755575615628914e-17,,,,,,,,,,,,,,,,,,,,,,,,,,,,,,,,,2024-06-25_16h35.32.749,HideSeek_v1,2023.1.3,60.12025250687124,
,3,3,3,8,0,5,66,,train_dim1_1,3,24,2,0,2,0,,,,,,,,,0,0,0,0,0,2,2,2,0,0,0,0,,,,,,,,,,,,,stimuli/alien_stimuli/66.png,,,,,,,,,,,,,,,,,,,,,,,,,,,,,,,stimuli/alien_stimuli/64.png,64,2,4,,,,,,,24,,,,,,,,32.952364899916574,32.952364899916574,32.952364899916574,32.952364899916574,32.952364899916574,up,0.34178429981693625,2,0,99,0.08,-0.08,up,0.20170929981395602,None,,,,,31.350231300108135,32.952364899916574,0,0,0.24,0.0,-0.12,0,0.0,0,0,30.70091490005143,30.70091490005143,30.70091490005143,30.70091490005143,30.70091490005143,30.70091490005143,30.70091490005143,30.70091490005143,30.683933650096876,0.7688138000667095,return,0.6193466999102384,None,,,,,,,,,2024-06-25_16h35.32.749,HideSeek_v1,2023.1.3,60.12025250687124,
,3,3,3,8,0,5,66,,train_dim1_1,3,24,2,0,2,0,,,,,,,,,0,0,0,0,0,2,2,2,1,0,1,0,,,,,,,,,,,,,,,,,,,,,,,,,,,,,,,,,,,,,,,,,,,,,,,,,,,,,,24,,,,,,,,33.2541368000675,33.2541368000675,33.2541368000675,33.2541368000675,33.2541368000675,up,0.29380440013483167,2,0,99,0.08,0.0,up,0.20984309981577098,None,,,,,,,,,,,,,,,,,,,,,,,,,,,,,,,,,,,,,2024-06-25_16h35.32.749,HideSeek_v1,2023.1.3,60.12025250687124,
,3,3,3,8,0,5,66,,train_dim1_1,3,24,2,0,2,0,,,,,,,,,0,0,0,0,0,2,2,2,2,0,2,0,,,,,,,,,,,,,,,,,,,,,,,,,,,,,,,,,,,,,,,,,,,,,,,,,,,,,,24,,,,,,,,33.55112070008181,33.55112070008181,33.55112070008181,33.55112070008181,33.55112070008181,up,0.27734479983337224,2,0,99,0.08,0.08,up,0.1969029998872429,None,,,,,,,,,,,,,,,,,,,,,,,,,,,,,,,,,,,,,2024-06-25_16h35.32.749,HideSeek_v1,2023.1.3,60.12025250687124,
,3,3,3,8,0,5,66,,train_dim1_1,3,24,2,0,2,0,,,,,,,,,0,0,0,0,0,2,2,2,3,0,3,0,,,,,,,,,,,,,,,,,,,,,,,,,,,,,,,,,,,,,,,,,,,,,,,,,,,,,,24,,,,,,,,33.83572380011901,33.83572380011901,33.83572380011901,33.83572380011901,33.83572380011901,up,0.2458385000936687,2,0,99,0.08,0.16,up,0.16013840003870428,None,,,,,,,,,,,,,,,,,,,,,,,,,,,,,,,,,,,,,2024-06-25_16h35.32.749,HideSeek_v1,2023.1.3,60.12025250687124,
,3,3,3,8,0,5,66,,train_dim1_1,3,24,2,0,2,0,,,,,,,,,0,0,0,0,0,2,2,2,4,0,4,0,,,,,,,,,,,,,,,,,,,,,,,,,,,,,,,,,,,,,,,,,,,,,,,,,,,,,,24,,,,,,,,34.10054969997145,34.10054969997145,34.10054969997145,34.10054969997145,34.10054969997145,up,0.2749282999429852,2,0,99,0.08,0.24,up,0.18031629989854991,None,,,,,,,,,,,,,,,,,,,,,,,,,,,,,,,,,,,,,2024-06-25_16h35.32.749,HideSeek_v1,2023.1.3,60.12025250687124,
,3,3,3,8,0,5,66,,train_dim1_1,3,24,2,0,2,0,,,,,,,,,0,0,0,0,0,2,2,2,5,0,5,0,,,,,,,,,,,,,,,,,,,,,,,,,,,,,,,,,,,,,,,,,,,,,,,,,,,,,,24,,,,,,,,34.370181099977344,34.370181099977344,34.370181099977344,34.370181099977344,34.370181099977344,return,0.2944584998767823,3,0,1,0.08,0.24,return,0.20470259967260063,None,9,0,0.08,0.24,,,,,,,,,,,,,,,,,,,,,,,,,,,,,,,,,2024-06-25_16h35.32.749,HideSeek_v1,2023.1.3,60.12025250687124,
,4,4,4,8,0,4,65,,train_dim1_1,4,24,2,0,2,0,,,,,,,,,0,0,0,0,0,3,3,3,0,0,0,0,,,,,,,,,,,,,stimuli/alien_stimuli/65.png,,,,,,,,,,,,,,,,,,,,,,,,,,,,,,,stimuli/alien_stimuli/66.png,66,3,5,,,,,,,24,,,,,,,,38.3838927000761,38.3838927000761,38.3838927000761,38.3838927000761,38.3838927000761,up,0.4750688001513481,3,0,99,0.16,0.0,up,0.37267989991232753,None,,,,,36.8171884000767,38.3838927000761,0.08,0.24,0.4,0.0,0.039999999999999994,0.08,0.08,0.08,0.24,36.23383229994215,36.23383229994215,36.23383229994215,36.23383229994215,36.23383229994215,36.23383229994215,36.23383229994215,36.23383229994215,36.21671945014968,0.7018679999746382,return,0.5580788000952452,None,,,,,,,,,2024-06-25_16h35.32.749,HideSeek_v1,2023.1.3,60.12025250687124,
,4,4,4,8,0,4,65,,train_dim1_1,4,24,2,0,2,0,,,,,,,,,0,0,0,0,0,3,3,3,1,0,1,0,,,,,,,,,,,,,,,,,,,,,,,,,,,,,,,,,,,,,,,,,,,,,,,,,,,,,,24,,,,,,,,38.86106070014648,38.86106070014648,38.86106070014648,38.86106070014648,38.86106070014648,up,0.32622640021145344,3,0,99,0.16,0.08,up,0.2308750997763127,None,,,,,,,,,,,,,,,,,,,,,,,,,,,,,,,,,,,,,2024-06-25_16h35.32.749,HideSeek_v1,2023.1.3,60.12025250687124,
,4,4,4,8,0,4,65,,train_dim1_1,4,24,2,0,2,0,,,,,,,,,0,0,0,0,0,3,3,3,2,0,2,0,,,,,,,,,,,,,,,,,,,,,,,,,,,,,,,,,,,,,,,,,,,,,,,,,,,,,,24,,,,,,,,39.185030800057575,39.185030800057575,39.185030800057575,39.185030800057575,39.185030800057575,up,0.36003510002046824,3,0,99,0.16,0.16,up,0.27821299992501736,None,,,,,,,,,,,,,,,,,,,,,,,,,,,,,,,,,,,,,2024-06-25_16h35.32.749,HideSeek_v1,2023.1.3,60.12025250687124,
,4,4,4,8,0,4,65,,train_dim1_1,4,24,2,0,2,0,,,,,,,,,0,0,0,0,0,3,3,3,3,0,3,0,,,,,,,,,,,,,,,,,,,,,,,,,,,,,,,,,,,,,,,,,,,,,,,,,,,,,,24,,,,,,,,39.55113740009256,39.55113740009256,39.55113740009256,39.55113740009256,39.55113740009256,up,0.3276255999226123,3,0,99,0.16,0.24,up,0.24949229997582734,None,,,,,,,,,,,,,,,,,,,,,,,,,,,,,,,,,,,,,2024-06-25_16h35.32.749,HideSeek_v1,2023.1.3,60.12025250687124,
,4,4,4,8,0,4,65,,train_dim1_1,4,24,2,0,2,0,,,,,,,,,0,0,0,0,0,3,3,3,4,0,4,0,,,,,,,,,,,,,,,,,,,,,,,,,,,,,,,,,,,,,,,,,,,,,,,,,,,,,,24,,,,,,,,39.88410110003315,39.88410110003315,39.88410110003315,39.88410110003315,39.88410110003315,return,0.26051779999397695,4,0,1,0.16,0.24,return,0.17979119974188507,None,13,0,0.16,0.24,,,,,,,,,,,,,,,,,,,,,,,,,,,,,,,,,2024-06-25_16h35.32.749,HideSeek_v1,2023.1.3,60.12025250687124,
,3,4,3,5,0,1,62,,train_dim1_1,5,24,2,0,2,0,,,,,,,,,0,0,0,0,0,4,4,4,0,0,0,0,,,,,,,,,,,,,stimuli/alien_stimuli/62.png,,,,,,,,,,,,,,,,,,,,,,,,,,,,,,,stimuli/alien_stimuli/65.png,65,4,6,,,,,,,24,,,,,,,,44.16702280007303,44.16702280007303,44.16702280007303,44.16702280007303,44.16702280007303,up,0.7076147000771016,4,0,99,0.08,0.0,up,0.6094031997490674,None,,,,,42.60011400002986,44.16702280007303,0.16,0.24,0.32,0.0,0.07999999999999999,0.16,0.16,0.16,0.24,41.70036060013808,41.70036060013808,41.70036060013808,41.70036060013808,41.70036060013808,41.70036060013808,41.70036060013808,41.70036060013808,41.68429510002024,1.0013868999667466,return,0.8775957999750972,None,,,,,,,,,2024-06-25_16h35.32.749,HideSeek_v1,2023.1.3,60.12025250687124,
,3,4,3,5,0,1,62,,train_dim1_1,5,24,2,0,2,0,,,,,,,,,0,0,0,0,0,4,4,4,1,0,1,0,,,,,,,,,,,,,,,,,,,,,,,,,,,,,,,,,,,,,,,,,,,,,,,,,,,,,,24,,,,,,,,44.86858860007487,44.86858860007487,44.86858860007487,44.86858860007487,44.86858860007487,return,0.3766685000155121,5,0,1,0.08,0.0,return,0.2830878000240773,None,14,0,0.08,0.0,,,,,,,,,,,,,,,,,,,,,,,,,,,,,,,,,2024-06-25_16h35.32.749,HideSeek_v1,2023.1.3,60.12025250687124,
,4,0,4,4,0,4,65,,train_dim1_1,6,24,2,0,2,0,,,,,,,,,0,0,0,0,0,5,5,5,0,0,0,0,,,,,,,,,,,,,stimuli/alien_stimuli/65.png,,,,,,,,,,,,,,,,,,,,,,,,,,,,,,,stimuli/alien_stimuli/62.png,62,3,7,,,,,,,24,,,,,,,,48.98382610012777,48.98382610012777,48.98382610012777,48.98382610012777,48.98382610012777,up,0.8415194000117481,5,0,99,0.16,-0.32,up,0.7419710999820381,None,,,,,47.41656780010089,48.98382610012777,0.08,0,0.08,0.0,-0.04,0.08,0.08,0.08,0,46.79908649995923,46.79908649995923,46.79908649995923,46.79908649995923,46.79908649995923,46.79908649995923,46.79908649995923,46.79908649995923,46.78375460007228,0.7182204001583159,return,0.5972268998157233,None,,,,,,,,,2024-06-25_16h35.32.749,HideSeek_v1,2023.1.3,60.12025250687124,
,4,0,4,4,0,4,65,,train_dim1_1,6,24,2,0,2,0,,,,,,,,,0,0,0,0,0,5,5,5,1,0,1,0,,,,,,,,,,,,,,,,,,,,,,,,,,,,,,,,,,,,,,,,,,,,,,,,,,,,,,24,,,,,,,,49.81746229995042,49.81746229995042,49.81746229995042,49.81746229995042,49.81746229995042,up,0.3602960000280291,5,0,99,0.16,-0.24,up,0.2759514998178929,None,,,,,,,,,,,,,,,,,,,,,,,,,,,,,,,,,,,,,2024-06-25_16h35.32.749,HideSeek_v1,2023.1.3,60.12025250687124,
,4,0,4,4,0,4,65,,train_dim1_1,6,24,2,0,2,0,,,,,,,,,0,0,0,0,0,5,5,5,2,0,2,0,,,,,,,,,,,,,,,,,,,,,,,,,,,,,,,,,,,,,,,,,,,,,,,,,,,,,,24,,,,,,,,50.182827899931,50.182827899931,50.182827899931,50.182827899931,50.182827899931,up,0.3276194001082331,5,0,99,0.16,-0.15999999999999998,up,0.24516099994070828,None,,,,,,,,,,,,,,,,,,,,,,,,,,,,,,,,,,,,,2024-06-25_16h35.32.749,HideSeek_v1,2023.1.3,60.12025250687124,
,4,0,4,4,0,4,65,,train_dim1_1,6,24,2,0,2,0,,,,,,,,,0,0,0,0,0,5,5,5,3,0,3,0,,,,,,,,,,,,,,,,,,,,,,,,,,,,,,,,,,,,,,,,,,,,,,,,,,,,,,24,,,,,,,,50.51766310003586,50.51766310003586,50.51766310003586,50.51766310003586,50.51766310003586,up,0.31104540009982884,5,0,99,0.16,-0.07999999999999997,up,0.2177311999257654,None,,,,,,,,,,,,,,,,,,,,,,,,,,,,,,,,,,,,,2024-06-25_16h35.32.749,HideSeek_v1,2023.1.3,60.12025250687124,
,4,0,4,4,0,4,65,,train_dim1_1,6,24,2,0,2,0,,,,,,,,,0,0,0,0,0,5,5,5,4,0,4,0,,,,,,,,,,,,,,,,,,,,,,,,,,,,,,,,,,,,,,,,,,,,,,,,,,,,,,24,,,,,,,,50.834509999956936,50.834509999956936,50.834509999956936,50.834509999956936,50.834509999956936,return,0.4604742000810802,6,0,1,0.16,-0.07999999999999997,return,0.3779111998155713,None,18,0,0.16,-0.07999999999999997,,,,,,,,,,,,,,,,,,,,,,,,,,,,,,,,,2024-06-25_16h35.32.749,HideSeek_v1,2023.1.3,60.12025250687124,
,0,3,0,6,0,3,64,,train_dim1_1,7,24,2,0,2,0,,,,,,,,,0,0,0,0,0,6,6,6,0,0,0,0,,,,,,,,,,,,,stimuli/alien_stimuli/64.png,,,,,,,,,,,,,,,,,,,,,,,,,,,,,,,stimuli/alien_stimuli/65.png,65,4,8,,,,,,,24,,,,,,,,55.284061999991536,55.284061999991536,55.284061999991536,55.284061999991536,55.284061999991536,up,1.058576599927619,6,0,99,-0.16,-0.08,up,0.9524760998319834,None,,,,,53.71676869993098,55.284061999991536,0.16,-0.08,0.32,0.0,-0.24000000000000002,0.16,0.16,0.16,-0.08,52.84901240002364,52.84901240002364,52.84901240002364,52.84901240002364,52.84901240002364,52.84901240002364,52.84901240002364,52.84901240002364,52.83399109994061,0.9675012000370771,return,0.8433249997906387,None,,,,,,,,,2024-06-25_16h35.32.749,HideSeek_v1,2023.1.3,60.12025250687124,
,0,3,0,6,0,3,64,,train_dim1_1,7,24,2,0,2,0,,,,,,,,,0,0,0,0,0,6,6,6,1,0,1,0,,,,,,,,,,,,,,,,,,,,,,,,,,,,,,,,,,,,,,,,,,,,,,,,,,,,,,24,,,,,,,,56.335263000102714,56.335263000102714,56.335263000102714,56.335263000102714,56.335263000102714,up,0.343709500040859,6,0,99,-0.16,0.0,up,0.25053459987975657,None,,,,,,,,,,,,,,,,,,,,,,,,,,,,,,,,,,,,,2024-06-25_16h35.32.749,HideSeek_v1,2023.1.3,60.12025250687124,
,0,3,0,6,0,3,64,,train_dim1_1,7,24,2,0,2,0,,,,,,,,,0,0,0,0,0,6,6,6,2,0,2,0,,,,,,,,,,,,,,,,,,,,,,,,,,,,,,,,,,,,,,,,,,,,,,,,,,,,,,24,,,,,,,,56.68382619996555,56.68382619996555,56.68382619996555,56.68382619996555,56.68382619996555,up,0.2943675999995321,6,0,99,-0.16,0.08,up,0.2086287997663021,None,,,,,,,,,,,,,,,,,,,,,,,,,,,,,,,,,,,,,2024-06-25_16h35.32.749,HideSeek_v1,2023.1.3,60.12025250687124,
,0,3,0,6,0,3,64,,train_dim1_1,7,24,2,0,2,0,,,,,,,,,0,0,0,0,0,6,6,6,3,0,3,0,,,,,,,,,,,,,,,,,,,,,,,,,,,,,,,,,,,,,,,,,,,,,,,,,,,,,,24,,,,,,,,56.98590279999189,56.98590279999189,56.98590279999189,56.98590279999189,56.98590279999189,return,0.26036350009962916,7,0,1,-0.16,0.08,return,0.17001169989816844,None,21,0,-0.16,0.08,,,,,,,,,,,,,,,,,,,,,,,,,,,,,,,,,2024-06-25_16h35.32.749,HideSeek_v1,2023.1.3,60.12025250687124,
,4,1,4,6,0,5,66,,train_dim1_1,8,24,2,0,2,0,,,,,,,,,0,0,0,0,0,7,7,7,0,0,0,0,,,,,,,,,,,,,stimuli/alien_stimuli/66.png,,,,,,,,,,,,,,,,,,,,,,,,,,,,,,,stimuli/alien_stimuli/64.png,64,0,9,,,,,,,24,,,,,,,,61.26698160008527,61.26698160008527,61.26698160008527,61.26698160008527,61.26698160008527,up,0.6086853998713195,7,0,99,0.16,-0.24,up,0.5120218999218196,None,,,,,59.70018390007317,61.26698160008527,-0.16,0.08,0.24,0.0,-0.04,-0.16,-0.16,-0.16,0.08,58.799089800100774,58.799089800100774,58.799089800100774,58.799089800100774,58.799089800100774,58.799089800100774,58.799089800100774,58.799089800100774,58.78388300011866,1.0011461998801678,return,0.872277099872008,None,,,,,,,,,2024-06-25_16h35.32.749,HideSeek_v1,2023.1.3,60.12025250687124,
,4,1,4,6,0,5,66,,train_dim1_1,8,24,2,0,2,0,,,,,,,,,0,0,0,0,0,7,7,7,1,0,1,0,,,,,,,,,,,,,,,,,,,,,,,,,,,,,,,,,,,,,,,,,,,,,,,,,,,,,,24,,,,,,,,61.86817059991881,61.86817059991881,61.86817059991881,61.86817059991881,61.86817059991881,up,0.31052739988081157,7,0,99,0.16,-0.15999999999999998,up,0.23130829981528223,None,,,,,,,,,,,,,,,,,,,,,,,,,,,,,,,,,,,,,2024-06-25_16h35.32.749,HideSeek_v1,2023.1.3,60.12025250687124,
,4,1,4,6,0,5,66,,train_dim1_1,8,24,2,0,2,0,,,,,,,,,0,0,0,0,0,7,7,7,2,0,2,0,,,,,,,,,,,,,,,,,,,,,,,,,,,,,,,,,,,,,,,,,,,,,,,,,,,,,,24,,,,,,,,62.18559730006382,62.18559730006382,62.18559730006382,62.18559730006382,62.18559730006382,up,0.36075800005346537,7,0,99,0.16,-0.07999999999999997,up,0.26952009997330606,None,,,,,,,,,,,,,,,,,,,,,,,,,,,,,,,,,,,,,2024-06-25_16h35.32.749,HideSeek_v1,2023.1.3,60.12025250687124,
,4,1,4,6,0,5,66,,train_dim1_1,8,24,2,0,2,0,,,,,,,,,0,0,0,0,0,7,7,7,3,0,3,0,,,,,,,,,,,,,,,,,,,,,,,,,,,,,,,,,,,,,,,,,,,,,,,,,,,,,,24,,,,,,,,62.558105800068006,62.558105800068006,62.558105800068006,62.558105800068006,62.558105800068006,up,0.3259515000972897,7,0,99,0.16,2.7755575615628914e-17,up,0.23585669975727797,None,,,,,,,,,,,,,,,,,,,,,,,,,,,,,,,,,,,,,2024-06-25_16h35.32.749,HideSeek_v1,2023.1.3,60.12025250687124,
,4,1,4,6,0,5,66,,train_dim1_1,8,24,2,0,2,0,,,,,,,,,0,0,0,0,0,7,7,7,4,0,4,0,,,,,,,,,,,,,,,,,,,,,,,,,,,,,,,,,,,,,,,,,,,,,,,,,,,,,,24,,,,,,,,62.91664439998567,62.91664439998567,62.91664439998567,62.91664439998567,62.91664439998567,up,0.31029739999212325,7,0,99,0.16,0.08000000000000003,up,0.19118489976972342,None,,,,,,,,,,,,,,,,,,,,,,,,,,,,,,,,,,,,,2024-06-25_16h35.32.749,HideSeek_v1,2023.1.3,60.12025250687124,
,4,1,4,6,0,5,66,,train_dim1_1,8,24,2,0,2,0,,,,,,,,,0,0,0,0,0,7,7,7,5,0,5,0,,,,,,,,,,,,,,,,,,,,,,,,,,,,,,,,,,,,,,,,,,,,,,,,,,,,,,24,,,,,,,,63.20472440007143,63.20472440007143,63.20472440007143,63.20472440007143,63.20472440007143,return,0.17765279999002814,8,0,1,0.16,0.08000000000000003,return,0.09341579978354275,None,26,0,0.16,0.08000000000000003,,,,,,,,,,,,,,,,,,,,,,,,,,,,,,,,,2024-06-25_16h35.32.749,HideSeek_v1,2023.1.3,60.12025250687124,
,1,3,1,6,0,3,64,,train_dim1_1,9,24,2,0,2,0,,,,,,,,,0,0,0,0,0,8,8,8,0,0,0,0,,,,,,,,,,,,,stimuli/alien_stimuli/64.png,,,,,,,,,,,,,,,,,,,,,,,,,,,,,,,stimuli/alien_stimuli/66.png,66,4,10,,,,,,,24,,,,,,,,67.00024210009724,67.00024210009724,67.00024210009724,67.00024210009724,67.00024210009724,up,0.44082490005530417,8,0,99,-0.08,-0.08,up,0.33965009986422956,None,,,,,65.43330350005999,67.00024210009724,0.16,0.08,0.4,0.0,-0.12,0.16,0.16,0.16,0.08,64.93530030013062,64.93530030013062,64.93530030013062,64.93530030013062,64.93530030013062,64.93530030013062,64.93530030013062,64.93530030013062,64.91742559997365,0.601402800064534,return,0.4699391999747604,None,,,,,,,,,2024-06-25_16h35.32.749,HideSeek_v1,2023.1.3,60.12025250687124,
,1,3,1,6,0,3,64,,train_dim1_1,9,24,2,0,2,0,,,,,,,,,0,0,0,0,0,8,8,8,1,0,1,0,,,,,,,,,,,,,,,,,,,,,,,,,,,,,,,,,,,,,,,,,,,,,,,,,,,,,,24,,,,,,,,67.43589240009896,67.43589240009896,67.43589240009896,67.43589240009896,67.43589240009896,up,0.29331009997986257,8,0,99,-0.08,0.0,up,0.21405139984562993,None,,,,,,,,,,,,,,,,,,,,,,,,,,,,,,,,,,,,,2024-06-25_16h35.32.749,HideSeek_v1,2023.1.3,60.12025250687124,
,1,3,1,6,0,3,64,,train_dim1_1,9,24,2,0,2,0,,,,,,,,,0,0,0,0,0,8,8,8,2,0,2,0,,,,,,,,,,,,,,,,,,,,,,,,,,,,,,,,,,,,,,,,,,,,,,,,,,,,,,24,,,,,,,,67.73547910014167,67.73547910014167,67.73547910014167,67.73547910014167,67.73547910014167,up,0.3273036000318825,8,0,99,-0.08,0.08,up,0.23950339993461967,None,,,,,,,,,,,,,,,,,,,,,,,,,,,,,,,,,,,,,2024-06-25_16h35.32.749,HideSeek_v1,2023.1.3,60.12025250687124,
,1,3,1,6,0,3,64,,train_dim1_1,9,24,2,0,2,0,,,,,,,,,0,0,0,0,0,8,8,8,3,0,3,0,,,,,,,,,,,,,,,,,,,,,,,,,,,,,,,,,,,,,,,,,,,,,,,,,,,,,,24,,,,,,,,68.06735959998332,68.06735959998332,68.06735959998332,68.06735959998332,68.06735959998332,return,0.26118999999016523,9,0,1,-0.08,0.08,return,0.17778509971685708,None,29,0,-0.08,0.08,,,,,,,,,,,,,,,,,,,,,,,,,,,,,,,,,2024-06-25_16h35.32.749,HideSeek_v1,2023.1.3,60.12025250687124,
,0,0,0,4,0,4,65,,train_dim1_1,10,24,2,0,2,0,,,,,,,,,0,0,0,0,0,9,9,9,0,0,0,0,,,,,,,,,,,,,stimuli/alien_stimuli/65.png,,,,,,,,,,,,,,,,,,,,,,,,,,,,,,,stimuli/alien_stimuli/64.png,64,1,11,,,,,,,24,,,,,,,,72.03314039995894,72.03314039995894,72.03314039995894,72.03314039995894,72.03314039995894,up,0.45872670016251504,9,0,99,-0.16,-0.32,up,0.3665986000560224,None,,,,,70.46638350002468,69.90057349996641,-0.08,0.08,0.24,0.0,-0.04,-0.08,-0.08,-0.08,0.08,69.90057349996641,69.90057349996641,69.90057349996641,69.90057349996641,69.90057349996641,69.90057349996641,69.90057349996641,69.90057349996641,69.8837877499871,0.6665163000579923,return,0.5189838998485357,None,,,,,,,,,2024-06-25_16h35.32.749,HideSeek_v1,2023.1.3,60.12025250687124,
,0,0,0,4,0,4,65,,train_dim1_1,10,24,2,0,2,0,,,,,,,,,0,0,0,0,0,9,9,9,1,0,1,0,,,,,,,,,,,,,,,,,,,,,,,,,,,,,,,,,,,,,,,,,,,,,,,,,,,,,,24,,,,,,,,72.49041910003871,72.49041910003871,72.49041910003871,72.49041910003871,72.49041910003871,up,0.3263002000749111,9,0,99,-0.16,-0.24,up,0.23548179981298745,None,,,,,,,,,,,,,,,,,,,,,,,,,,,,,,,,,,,,,2024-06-25_16h35.32.749,HideSeek_v1,2023.1.3,60.12025250687124,
,0,0,0,4,0,4,65,,train_dim1_1,10,24,2,0,2,0,,,,,,,,,0,0,0,0,0,9,9,9,2,0,2,0,,,,,,,,,,,,,,,,,,,,,,,,,,,,,,,,,,,,,,,,,,,,,,,,,,,,,,24,,,,,,,,72.81914109992795,72.81914109992795,72.81914109992795,72.81914109992795,72.81914109992795,up,0.31055189995095134,9,0,99,-0.16,-0.15999999999999998,up,0.2196694000158459,None,,,,,,,,,,,,,,,,,,,,,,,,,,,,,,,,,,,,,2024-06-25_16h35.32.749,HideSeek_v1,2023.1.3,60.12025250687124,
,0,0,0,4,0,4,65,,train_dim1_1,10,24,2,0,2,0,,,,,,,,,0,0,0,0,0,9,9,9,3,0,3,0,,,,,,,,,,,,,,,,,,,,,,,,,,,,,,,,,,,,,,,,,,,,,,,,,,,,,,24,,,,,,,,73.1349893999286,73.1349893999286,73.1349893999286,73.1349893999286,73.1349893999286,up,0.3443940000142902,9,0,99,-0.16,-0.07999999999999997,up,0.25078519992530346,None,,,,,,,,,,,,,,,,,,,,,,,,,,,,,,,,,,,,,2024-06-25_16h35.32.749,HideSeek_v1,2023.1.3,60.12025250687124,
,0,0,0,4,0,4,65,,train_dim1_1,10,24,2,0,2,0,,,,,,,,,0,0,0,0,0,9,9,9,4,0,4,0,,,,,,,,,,,,,,,,,,,,,,,,,,,,,,,,,,,,,,,,,,,,,,,,,,,,,,24,,,,,,,,73.50037050014362,73.50037050014362,73.50037050014362,73.50037050014362,73.50037050014362,return,0.3771405001170933,10,0,1,-0.16,-0.07999999999999997,return,0.2816826996859163,None,33,0,-0.16,-0.07999999999999997,,,,,,,,,,,,,,,,,,,,,,,,,,,,,,,,,2024-06-25_16h35.32.749,HideSeek_v1,2023.1.3,60.12025250687124,
,4,2,4,3,0,1,62,,train_dim1_1,11,24,2,0,2,0,,,,,,,,,0,0,0,0,0,10,10,10,0,0,0,0,,,,,,,,,,,,,stimuli/alien_stimuli/62.png,,,,,,,,,,,,,,,,,,,,,,,,,,,,,,,stimuli/alien_stimuli/65.png,65,0,12,,,,,,,24,,,,,,,,77.86748440004885,77.86748440004885,77.86748440004885,77.86748440004885,77.86748440004885,up,0.923614300088957,10,0,99,0.16,-0.15999999999999998,up,0.8288939998019487,None,,,,,76.29961470002308,77.86748440004885,-0.16,-0.08,0.32,0.0,-0.24000000000000002,-0.16,-0.16,-0.16,-0.08,75.43356489995494,75.43356489995494,75.43356489995494,75.43356489995494,75.43356489995494,75.43356489995494,75.43356489995494,75.43356489995494,75.40067300000229,0.9848961001262069,return,0.84367710002698,None,,,,,,,,,2024-06-25_16h35.32.749,HideSeek_v1,2023.1.3,60.12025250687124,
,4,2,4,3,0,1,62,,train_dim1_1,11,24,2,0,2,0,,,,,,,,,0,0,0,0,0,10,10,10,1,0,1,0,,,,,,,,,,,,,,,,,,,,,,,,,,,,,,,,,,,,,,,,,,,,,,,,,,,,,,24,,,,,,,,78.7994548000861,78.7994548000861,78.7994548000861,78.7994548000861,78.7994548000861,return,0.3267502000089735,11,0,1,0.16,-0.15999999999999998,return,0.22827669978141785,None,34,0,0.16,-0.15999999999999998,,,,,,,,,,,,,,,,,,,,,,,,,,,,,,,,,2024-06-25_16h35.32.749,HideSeek_v1,2023.1.3,60.12025250687124,
,3,0,3,5,0,5,66,,train_dim1_1,12,24,2,0,2,0,,,,,,,,,0,0,0,0,0,11,11,11,0,0,0,0,,,,,,,,,,,,,stimuli/alien_stimuli/66.png,,,,,,,,,,,,,,,,,,,,,,,,,,,,,,,stimuli/alien_stimuli/62.png,62,4,13,,,,,,,24,,,,,,,,82.81684030010365,82.81684030010365,82.81684030010365,82.81684030010365,82.81684030010365,up,0.3080986998975277,11,0,99,0.08,-0.32,up,0.20438689994625747,None,,,,,81.24984890013002,82.81684030010365,0.16,-0.16,0.08,0.0,-0.2,0.16,0.16,0.16,-0.16,80.6684373000171,80.6684373000171,80.6684373000171,80.6684373000171,80.6684373000171,80.6684373000171,80.6684373000171,80.6684373000171,80.65021130009555,0.6850348000880331,return,0.5548492998350412,None,,,,,,,,,2024-06-25_16h35.32.749,HideSeek_v1,2023.1.3,60.12025250687124,
,3,0,3,5,0,5,66,,train_dim1_1,12,24,2,0,2,0,,,,,,,,,0,0,0,0,0,11,11,11,1,0,1,0,,,,,,,,,,,,,,,,,,,,,,,,,,,,,,,,,,,,,,,,,,,,,,,,,,,,,,24,,,,,,,,83.12009229999967,83.12009229999967,83.12009229999967,83.12009229999967,83.12009229999967,up,0.3437848000321537,11,0,99,0.08,-0.24,up,0.25070929992944,None,,,,,,,,,,,,,,,,,,,,,,,,,,,,,,,,,,,,,2024-06-25_16h35.32.749,HideSeek_v1,2023.1.3,60.12025250687124,
,3,0,3,5,0,5,66,,train_dim1_1,12,24,2,0,2,0,,,,,,,,,0,0,0,0,0,11,11,11,2,0,2,0,,,,,,,,,,,,,,,,,,,,,,,,,,,,,,,,,,,,,,,,,,,,,,,,,,,,,,24,,,,,,,,83.46810150006786,83.46810150006786,83.46810150006786,83.46810150006786,83.46810150006786,up,0.32687069987878203,11,0,99,0.08,-0.15999999999999998,up,0.24444209993816912,None,,,,,,,,,,,,,,,,,,,,,,,,,,,,,,,,,,,,,2024-06-25_16h35.32.749,HideSeek_v1,2023.1.3,60.12025250687124,
,3,0,3,5,0,5,66,,train_dim1_1,12,24,2,0,2,0,,,,,,,,,0,0,0,0,0,11,11,11,3,0,3,0,,,,,,,,,,,,,,,,,,,,,,,,,,,,,,,,,,,,,,,,,,,,,,,,,,,,,,24,,,,,,,,83.80139059992507,83.80139059992507,83.80139059992507,83.80139059992507,83.80139059992507,up,0.36136960005387664,11,0,99,0.08,-0.07999999999999997,up,0.27022109972313046,None,,,,,,,,,,,,,,,,,,,,,,,,,,,,,,,,,,,,,2024-06-25_16h35.32.749,HideSeek_v1,2023.1.3,60.12025250687124,
,3,0,3,5,0,5,66,,train_dim1_1,12,24,2,0,2,0,,,,,,,,,0,0,0,0,0,11,11,11,4,0,4,0,,,,,,,,,,,,,,,,,,,,,,,,,,,,,,,,,,,,,,,,,,,,,,,,,,,,,,24,,,,,,,,84.16565739992075,84.16565739992075,84.16565739992075,84.16565739992075,84.16565739992075,up,0.3106705998070538,11,0,99,0.08,2.7755575615628914e-17,up,0.22778049972839653,None,,,,,,,,,,,,,,,,,,,,,,,,,,,,,,,,,,,,,2024-06-25_16h35.32.749,HideSeek_v1,2023.1.3,60.12025250687124,
,3,0,3,5,0,5,66,,train_dim1_1,12,24,2,0,2,0,,,,,,,,,0,0,0,0,0,11,11,11,5,0,5,0,,,,,,,,,,,,,,,,,,,,,,,,,,,,,,,,,,,,,,,,,,,,,,,,,,,,,,24,,,,,,,,84.48415279993787,84.48415279993787,84.48415279993787,84.48415279993787,84.48415279993787,return,0.22751339990645647,12,0,1,0.08,2.7755575615628914e-17,return,0.13780479971319437,None,39,0,0.08,2.7755575615628914e-17,,,,,,,,,,,,,,,,,,,,,,,,,,,,,,,,,2024-06-25_16h35.32.749,HideSeek_v1,2023.1.3,60.12025250687124,
,2,1,2,4,0,3,64,,train_dim1_1,13,24,2,0,2,0,,,,,,,,,0,0,0,0,0,12,12,12,0,0,0,0,,,,,,,,,,,,,stimuli/alien_stimuli/64.png,,,,,,,,,,,,,,,,,,,,,,,,,,,,,,,stimuli/alien_stimuli/66.png,66,3,14,,,,,,,24,,,,,,,,88.78285249997862,88.78285249997862,88.78285249997862,88.78285249997862,88.78285249997862,up,0.5573488001246005,12,0,99,0,-0.24,up,0.4516982997301966,None,,,,,87.21670290012844,88.78285249997862,0.08,0,0.4,0.0,-0.2,0.08,0.08,0.08,0,86.26479510008357,86.26479510008357,86.26479510008357,86.26479510008357,86.26479510008357,86.26479510008357,86.26479510008357,86.26479510008357,86.25011540004053,1.0516779001336545,return,0.9339560999069363,None,,,,,,,,,2024-06-25_16h35.32.749,HideSeek_v1,2023.1.3,60.12025250687124,
,2,1,2,4,0,3,64,,train_dim1_1,13,24,2,0,2,0,,,,,,,,,0,0,0,0,0,12,12,12,1,0,1,0,,,,,,,,,,,,,,,,,,,,,,,,,,,,,,,,,,,,,,,,,,,,,,,,,,,,,,24,,,,,,,,89.33378480002284,89.33378480002284,89.33378480002284,89.33378480002284,89.33378480002284,up,0.3265112000517547,12,0,99,0,-0.15999999999999998,up,0.233294399920851,None,,,,,,,,,,,,,,,,,,,,,,,,,,,,,,,,,,,,,2024-06-25_16h35.32.749,HideSeek_v1,2023.1.3,60.12025250687124,
,2,1,2,4,0,3,64,,train_dim1_1,13,24,2,0,2,0,,,,,,,,,0,0,0,0,0,12,12,12,2,0,2,0,,,,,,,,,,,,,,,,,,,,,,,,,,,,,,,,,,,,,,,,,,,,,,,,,,,,,,24,,,,,,,,89.66595040005632,89.66595040005632,89.66595040005632,89.66595040005632,89.66595040005632,up,0.3113553000148386,12,0,99,0,-0.07999999999999997,up,0.22466219984926283,None,,,,,,,,,,,,,,,,,,,,,,,,,,,,,,,,,,,,,2024-06-25_16h35.32.749,HideSeek_v1,2023.1.3,60.12025250687124,
,2,1,2,4,0,3,64,,train_dim1_1,13,24,2,0,2,0,,,,,,,,,0,0,0,0,0,12,12,12,3,0,3,0,,,,,,,,,,,,,,,,,,,,,,,,,,,,,,,,,,,,,,,,,,,,,,,,,,,,,,24,,,,,,,,89.98687939997762,89.98687939997762,89.98687939997762,89.98687939997762,89.98687939997762,return,0.2939549000002444,13,0,1,0,-0.07999999999999997,return,0.20526580000296235,None,42,0,0,-0.07999999999999997,,,,,,,,,,,,,,,,,,,,,,,,,,,,,,,,,2024-06-25_16h35.32.749,HideSeek_v1,2023.1.3,60.12025250687124,
,4,3,4,7,0,4,65,,train_dim1_1,14,24,2,0,2,0,,,,,,,,,0,0,0,0,0,13,13,13,0,0,0,0,,,,,,,,,,,,,stimuli/alien_stimuli/65.png,,,,,,,,,,,,,,,,,,,,,,,,,,,,,,,stimuli/alien_stimuli/64.png,64,2,15,,,,,,,24,,,,,,,,93.8495825000573,93.8495825000573,93.8495825000573,93.8495825000573,93.8495825000573,up,0.3077897001057863,13,0,99,0.16,-0.08,up,0.2032559998333454,None,,,,,92.28261919994839,93.8495825000573,0,-0.08,0.24,0.0,-0.2,0,0.0,0,-0.08,91.86621110001579,91.86621110001579,91.86621110001579,91.86621110001579,91.86621110001579,91.86621110001579,91.86621110001579,91.86621110001579,91.85022860001773,0.5517829000018537,return,0.38867369992658496,None,,,,,,,,,2024-06-25_16h35.32.749,HideSeek_v1,2023.1.3,60.12025250687124,
,4,3,4,7,0,4,65,,train_dim1_1,14,24,2,0,2,0,,,,,,,,,0,0,0,0,0,13,13,13,1,0,1,0,,,,,,,,,,,,,,,,,,,,,,,,,,,,,,,,,,,,,,,,,,,,,,,,,,,,,,24,,,,,,,,94.1496460000053,94.1496460000053,94.1496460000053,94.1496460000053,94.1496460000053,up,0.3270049998536706,13,0,99,0.16,0.0,up,0.24659609980881214,None,,,,,,,,,,,,,,,,,,,,,,,,,,,,,,,,,,,,,2024-06-25_16h35.32.749,HideSeek_v1,2023.1.3,60.12025250687124,
,4,3,4,7,0,4,65,,train_dim1_1,14,24,2,0,2,0,,,,,,,,,0,0,0,0,0,13,13,13,2,0,2,0,,,,,,,,,,,,,,,,,,,,,,,,,,,,,,,,,,,,,,,,,,,,,,,,,,,,,,24,,,,,,,,94.4830289001111,94.4830289001111,94.4830289001111,94.4830289001111,94.4830289001111,up,0.3269686000421643,13,0,99,0.16,0.08,up,0.24061059998348355,None,,,,,,,,,,,,,,,,,,,,,,,,,,,,,,,,,,,,,2024-06-25_16h35.32.749,HideSeek_v1,2023.1.3,60.12025250687124,
,4,3,4,7,0,4,65,,train_dim1_1,14,24,2,0,2,0,,,,,,,,,0,0,0,0,0,13,13,13,3,0,3,0,,,,,,,,,,,,,,,,,,,,,,,,,,,,,,,,,,,,,,,,,,,,,,,,,,,,,,24,,,,,,,,94.81894190004095,94.81894190004095,94.81894190004095,94.81894190004095,94.81894190004095,up,0.5441442001610994,13,0,99,0.16,0.16,up,0.45341069996356964,None,,,,,,,,,,,,,,,,,,,,,,,,,,,,,,,,,,,,,2024-06-25_16h35.32.749,HideSeek_v1,2023.1.3,60.12025250687124,
,4,3,4,7,0,4,65,,train_dim1_1,14,24,2,0,2,0,,,,,,,,,0,0,0,0,0,13,13,13,4,0,4,0,,,,,,,,,,,,,,,,,,,,,,,,,,,,,,,,,,,,,,,,,,,,,,,,,,,,,,24,,,,,,,,95.36808670009486,95.36808670009486,95.36808670009486,95.36808670009486,95.36808670009486,return,0.2773698999080807,14,0,1,0.16,0.16,return,0.18336039991118014,None,46,0,0.16,0.16,,,,,,,,,,,,,,,,,,,,,,,,,,,,,,,,,2024-06-25_16h35.32.749,HideSeek_v1,2023.1.3,60.12025250687124,
,1,0,1,5,0,5,66,,train_dim1_1,15,24,2,0,2,0,,,,,,,,,0,0,0,0,0,14,14,14,0,0,0,0,,,,,,,,,,,,,stimuli/alien_stimuli/66.png,,,,,,,,,,,,,,,,,,,,,,,,,,,,,,,stimuli/alien_stimuli/65.png,65,4,16,,,,,,,24,,,,,,,,99.35004150005989,99.35004150005989,99.35004150005989,99.35004150005989,99.35004150005989,up,0.8739440999925137,14,0,99,-0.08,-0.32,up,0.780728500103578,None,,,,,97.78305230010301,99.35004150005989,0.16,0.16,0.32,0.0,0.0,0.16,0.16,0.16,0.16,97.21504199993797,97.21504199993797,97.21504199993797,97.21504199993797,97.21504199993797,97.21504199993797,97.21504199993797,97.21504199993797,97.2000398001168,0.6684832000173628,return,0.5380500999744982,None,,,,,,,,,2024-06-25_16h35.32.749,HideSeek_v1,2023.1.3,60.12025250687124,
,1,0,1,5,0,5,66,,train_dim1_1,15,24,2,0,2,0,,,,,,,,,0,0,0,0,0,14,14,14,1,0,1,0,,,,,,,,,,,,,,,,,,,,,,,,,,,,,,,,,,,,,,,,,,,,,,,,,,,,,,24,,,,,,,,100.21898870007135,100.21898870007135,100.21898870007135,100.21898870007135,100.21898870007135,up,0.3270620000548661,14,0,99,-0.08,-0.24,up,0.23838409991003573,None,,,,,,,,,,,,,,,,,,,,,,,,,,,,,,,,,,,,,2024-06-25_16h35.32.749,HideSeek_v1,2023.1.3,60.12025250687124,
,1,0,1,5,0,5,66,,train_dim1_1,15,24,2,0,2,0,,,,,,,,,0,0,0,0,0,14,14,14,2,0,2,0,,,,,,,,,,,,,,,,,,,,,,,,,,,,,,,,,,,,,,,,,,,,,,,,,,,,,,24,,,,,,,,100.55152030009776,100.55152030009776,100.55152030009776,100.55152030009776,100.55152030009776,up,0.3271902999840677,14,0,99,-0.08,-0.15999999999999998,up,0.2383718998171389,None,,,,,,,,,,,,,,,,,,,,,,,,,,,,,,,,,,,,,2024-06-25_16h35.32.749,HideSeek_v1,2023.1.3,60.12025250687124,
,1,0,1,5,0,5,66,,train_dim1_1,15,24,2,0,2,0,,,,,,,,,0,0,0,0,0,14,14,14,3,0,3,0,,,,,,,,,,,,,,,,,,,,,,,,,,,,,,,,,,,,,,,,,,,,,,,,,,,,,,24,,,,,,,,100.88485049991868,100.88485049991868,100.88485049991868,100.88485049991868,100.88485049991868,up,0.34379400010220706,14,0,99,-0.08,-0.07999999999999997,up,0.2529492999892682,None,,,,,,,,,,,,,,,,,,,,,,,,,,,,,,,,,,,,,2024-06-25_16h35.32.749,HideSeek_v1,2023.1.3,60.12025250687124,
,1,0,1,5,0,5,66,,train_dim1_1,15,24,2,0,2,0,,,,,,,,,0,0,0,0,0,14,14,14,4,0,4,0,,,,,,,,,,,,,,,,,,,,,,,,,,,,,,,,,,,,,,,,,,,,,,,,,,,,,,24,,,,,,,,101.23383420007303,101.23383420007303,101.23383420007303,101.23383420007303,101.23383420007303,up,0.3284952000249177,14,0,99,-0.08,2.7755575615628914e-17,up,0.23683079984039068,None,,,,,,,,,,,,,,,,,,,,,,,,,,,,,,,,,,,,,2024-06-25_16h35.32.749,HideSeek_v1,2023.1.3,60.12025250687124,
,1,0,1,5,0,5,66,,train_dim1_1,15,24,2,0,2,0,,,,,,,,,0,0,0,0,0,14,14,14,5,0,5,0,,,,,,,,,,,,,,,,,,,,,,,,,,,,,,,,,,,,,,,,,,,,,,,,,,,,,,24,,,,,,,,101.56729519995861,101.56729519995861,101.56729519995861,101.56729519995861,101.56729519995861,return,0.4448089001234621,15,0,1,-0.08,2.7755575615628914e-17,return,0.35559049993753433,None,51,0,-0.08,2.7755575615628914e-17,,,,,,,,,,,,,,,,,,,,,,,,,,,,,,,,,2024-06-25_16h35.32.749,HideSeek_v1,2023.1.3,60.12025250687124,
,3,1,3,2,0,1,62,,train_dim1_1,16,24,2,0,2,0,,,,,,,,,0,0,0,0,0,15,15,15,0,0,0,0,,,,,,,,,,,,,stimuli/alien_stimuli/62.png,,,,,,,,,,,,,,,,,,,,,,,,,,,,,,,stimuli/alien_stimuli/66.png,66,1,17,,,,,,,24,,,,,,,,105.63249130011536,105.63249130011536,105.63249130011536,105.63249130011536,105.63249130011536,up,3.34136820002459,15,0,99,0.08,-0.24,up,3.242838499834761,None,,,,,104.0651468001306,105.63249130011536,-0.08,0,0.4,0.0,-0.2,-0.08,-0.08,-0.08,0,103.58448370010592,103.58448370010592,103.58448370010592,103.58448370010592,103.58448370010592,103.58448370010592,103.58448370010592,103.58448370010592,103.5673908500001,0.6056345999240875,return,0.4574126999359578,None,,,,,,,,,2024-06-25_16h35.32.749,HideSeek_v1,2023.1.3,60.12025250687124,
,3,1,3,2,0,1,62,,train_dim1_1,16,24,2,0,2,0,,,,,,,,,0,0,0,0,0,15,15,15,1,0,1,0,,,,,,,,,,,,,,,,,,,,,,,,,,,,,,,,,,,,,,,,,,,,,,,,,,,,,,24,,,,,,,,108.98288249992765,108.98288249992765,108.98288249992765,108.98288249992765,108.98288249992765,return,2.526269700145349,16,0,1,0.08,-0.24,return,2.42935029999353,None,52,0,0.08,-0.24,,,,,,,,,,,,,,,,,,,,,,,,,,,,,,,,,2024-06-25_16h35.32.749,HideSeek_v1,2023.1.3,60.12025250687124,
,0,2,0,7,0,5,66,,train_dim1_1,17,24,2,0,2,0,,,,,,,,,0,0,0,0,0,16,16,16,0,0,0,0,,,,,,,,,,,,,stimuli/alien_stimuli/66.png,,,,,,,,,,,,,,,,,,,,,,,,,,,,,,,stimuli/alien_stimuli/62.png,62,3,18,,,,,,,24,,,,,,,,115.16031599999405,115.16031599999405,115.16031599999405,115.16031599999405,115.16031599999405,return,0.40821750019676983,16,0,0,-0.16,-0.24,return,0.31893439986743033,None,52,0,-0.16,-0.24,113.59972329996526,115.16031599999405,0.08,-0.24,0.08,0.0,-0.28,0.08,0.08,0.08,-0.24,113.06656710011885,113.06656710011885,113.06656710011885,113.06656710011885,113.06656710011885,113.06656710011885,113.06656710011885,113.06656710011885,113.04980344995857,0.6518562000710517,return,0.5101512998808175,None,,,,,,,,,2024-06-25_16h35.32.749,HideSeek_v1,2023.1.3,60.12025250687124,
,1,2,1,6,0,4,65,,train_dim1_1,18,24,2,0,2,0,,,,,,,,,0,0,0,0,0,17,17,17,0,0,0,0,,,,,,,,,,,,,stimuli/alien_stimuli/65.png,,,,,,,,,,,,,,,,,,,,,,,,,,,,,,,stimuli/alien_stimuli/66.png,66,0,19,,,,,,,24,,,,,,,,119.06616019993089,119.06616019993089,119.06616019993089,119.06616019993089,119.06616019993089,return,0.33893650001846254,16,0,0,-0.08,-0.24,return,0.2361969999037683,None,52,0,-0.08,-0.24,117.4994902999606,119.06616019993089,-0.16,0.16,0.4,0.0,-0.039999999999999994,-0.16,-0.16,-0.16,0.16,117.18230869993567,117.18230869993567,117.18230869993567,117.18230869993567,117.18230869993567,117.18230869993567,117.18230869993567,117.18230869993567,117.16684590000659,0.4850626001134515,return,0.28585859993472695,None,,,,,,,,,2024-06-25_16h35.32.749,HideSeek_v1,2023.1.3,60.12025250687124,
,1,4,1,5,0,1,62,,train_dim1_1,19,24,2,0,2,0,,,,,,,,,0,0,0,0,0,18,18,18,0,0,0,0,,,,,,,,,,,,,stimuli/alien_stimuli/62.png,,,,,,,,,,,,,,,,,,,,,,,,,,,,,,,stimuli/alien_stimuli/65.png,65,1,20,,,,,,,24,,,,,,,,122.79939240007661,122.79939240007661,122.79939240007661,122.79939240007661,122.79939240007661,return,0.4901386999990791,16,0,0,-0.08,-0.08,return,0.3950402997434139,None,52,0,-0.08,-0.08,121.23264589998871,122.79939240007661,-0.08,0.08,0.32,0.0,-0.07999999999999999,-0.08,-0.08,-0.08,0.08,120.9520143000409,120.9520143000409,120.9520143000409,120.9520143000409,120.9520143000409,120.9520143000409,120.9520143000409,120.9520143000409,120.93327310015448,0.38512369990348816,return,0.2618072999175638,None,,,,,,,,,2024-06-25_16h35.32.749,HideSeek_v1,2023.1.3,60.12025250687124,
,3,2,3,5,0,3,64,,train_dim1_1,20,24,2,0,2,0,,,,,,,,,0,0,0,0,0,19,19,19,0,0,0,0,,,,,,,,,,,,,stimuli/alien_stimuli/64.png,,,,,,,,,,,,,,,,,,,,,,,,,,,,,,,stimuli/alien_stimuli/62.png,62,1,21,,,,,,,24,,,,,,,,126.96583699993789,126.96583699993789,126.96583699993789,126.96583699993789,126.96583699993789,return,0.35629970021545887,16,0,0,0.08,-0.24,return,0.26690919999964535,None,52,0,0.08,-0.24,125.39955980004743,126.96583699993789,-0.08,0,0.08,0.0,-0.04,-0.08,-0.08,-0.08,0,124.84943039994687,124.84943039994687,124.84943039994687,124.84943039994687,124.84943039994687,124.84943039994687,124.84943039994687,124.84943039994687,124.83339754999616,0.6680486002005637,return,0.5298377999570221,None,,,,,,,,,2024-06-25_16h35.32.749,HideSeek_v1,2023.1.3,60.12025250687124,
,2,4,2,5,0,1,62,,train_dim1_1,21,24,2,0,2,0,,,,,,,,,0,0,0,0,0,20,20,20,0,0,0,0,,,,,,,,,,,,,stimuli/alien_stimuli/62.png,,,,,,,,,,,,,,,,,,,,,,,,,,,,,,,stimuli/alien_stimuli/64.png,64,3,22,,,,,,,24,,,,,,,,130.78287800005637,130.78287800005637,130.78287800005637,130.78287800005637,130.78287800005637,return,0.47244509984739125,16,0,0,0,-0.08,return,0.3739051998127252,None,52,0,0,-0.08,129.216126000043,130.78287800005637,0.08,0,0.24,0.0,-0.12,0.08,0.08,0.08,0,128.88251040014438,128.88251040014438,128.88251040014438,128.88251040014438,128.88251040014438,128.88251040014438,128.88251040014438,128.88251040014438,128.8664036499802,0.45232050004415214,return,0.3018765999004245,None,,,,,,,,,2024-06-25_16h35.32.749,HideSeek_v1,2023.1.3,60.12025250687124,
,0,1,0,5,0,4,65,,train_dim1_1,22,24,2,0,2,0,,,,,,,,,0,0,0,0,0,21,21,21,0,0,0,0,,,,,,,,,,,,,stimuli/alien_stimuli/65.png,,,,,,,,,,,,,,,,,,,,,,,,,,,,,,,stimuli/alien_stimuli/62.png,62,2,23,,,,,,,24,,,,,,,,135.16688119992614,135.16688119992614,135.16688119992614,135.16688119992614,135.16688119992614,return,0.39143920014612377,16,0,0,-0.16,-0.32,return,0.2936425998341292,None,52,0,-0.16,-0.32,133.59941469994374,135.16688119992614,0,0,0.08,0.0,-0.04,0,0.0,0,0,132.81692319991998,132.81692319991998,132.81692319991998,132.81692319991998,132.81692319991998,132.81692319991998,132.81692319991998,132.81692319991998,132.7997961500194,0.9020827000495046,return,0.7628734998870641,None,,,,,,,,,2024-06-25_16h35.32.749,HideSeek_v1,2023.1.3,60.12025250687124,
,2,3,2,6,0,3,64,,train_dim1_1,23,24,2,0,2,0,,,,,,,,,0,0,0,0,0,22,22,22,0,0,0,0,,,,,,,,,,,,,stimuli/alien_stimuli/64.png,,,,,,,,,,,,,,,,,,,,,,,,,,,,,,,stimuli/alien_stimuli/65.png,65,0,24,,,,,,,24,,,,,,,,139.1329841001425,139.1329841001425,139.1329841001425,139.1329841001425,139.1329841001425,return,0.4370340001769364,16,0,0,0,-0.16,return,0.34119829977862537,None,52,0,0,-0.16,137.56605840008706,139.1329841001425,-0.16,0,0.32,0.0,-0.16,-0.16,-0.16,-0.16,0,137.10170840006322,137.10170840006322,137.10170840006322,137.10170840006322,137.10170840006322,137.10170840006322,137.10170840006322,137.10170840006322,137.08334079999477,0.567972999997437,return,0.4433712000027299,None,,,,,,,,,2024-06-25_16h35.32.749,HideSeek_v1,2023.1.3,60.12025250687124,
,1,1,1,6,0,5,66,,train_dim1_1,24,24,2,0,2,0,,,,,,,,,0,0,0,0,0,23,23,23,0,0,0,0,,,,,,,,,,,,,stimuli/alien_stimuli/66.png,,,,,,,,,,,,,,,,,,,,,,,,,,,,,,,stimuli/alien_stimuli/64.png,64,2,25,,,,,,,24,,,,,,,,143.1838458001148,143.1838458001148,143.1838458001148,143.1838458001148,143.1838458001148,return,0.33621550002135336,16,0,0,-0.08,-0.32,return,0.20676379976794124,None,52,0,-0.08,-0.32,141.5822377000004,143.1838458001148,0,0.08,0.24,0.0,-0.04,0,0.0,0,0.08,141.19955860008486,141.19955860008486,141.19955860008486,141.19955860008486,141.19955860008486,141.19955860008486,141.19955860008486,141.19955860008486,141.18316655009986,0.568318699952215,return,0.3593196999281645,None,,,,,,,,,2024-06-25_16h35.32.749,HideSeek_v1,2023.1.3,60.12025250687124,
,2,0,2,1,0,1,62,,train_dim1_1,1,4,2,0,2,0,,,,,,,,,1,0,1,0,0,0,0,0,0,0,0,0,,,,,,,,,,,,,stimuli/alien_stimuli/62.png,,,,,,,,,,,,,,,,,,,,,,,,,,,,,,,stimuli/alien_stimuli/66.png,66,1,26,17,0.7,0.6666666666666667,1,0,1,4,0,conditions/inputTrain_1.2.xlsx,99,1,1,1,0,147.33134629996493,147.33134629996493,147.33134629996493,147.33134629996493,147.33134629996493,up,0.9014195001218468,0,0,99,0,-0.32,up,0.8092200998216867,None,,,,,145.7660713000223,147.33134629996493,-0.08,0.08,0.4,0.0,-0.12,-0.08,-0.08,-0.08,0.08,145.06589780002832,145.06589780002832,145.06589780002832,145.06589780002832,145.06589780002832,145.06589780002832,145.06589780002832,145.06589780002832,145.04970034998843,0.8186663000378758,return,0.6733234997373074,None,0,0.5555555555555557,0,1,16,,,,2024-06-25_16h35.32.749,HideSeek_v1,2023.1.3,60.12025250687124,
,2,0,2,1,0,1,62,,train_dim1_1,1,4,2,0,2,0,,,,,,,,,1,0,1,0,0,0,0,0,1,0,1,0,,,,,,,,,,,,,,,,,,,,,,,,,,,,,,,,,,,,,,,,,,,,,,,,,,,,,,4,,,,,,,,148.2491020001471,148.2491020001471,148.2491020001471,148.2491020001471,148.2491020001471,return,0.5427127999719232,1,0,1,0,-0.32,return,0.4491562999319285,None,53,0,0,-0.32,,,,,,,,,,,,,,,,,,,,,,,,,,,,,,,,,2024-06-25_16h35.32.749,HideSeek_v1,2023.1.3,60.12025250687124,
,2,2,2,5,0,3,64,,train_dim1_1,2,4,2,0,2,0,,,,,,,,,1,0,1,0,0,1,1,1,0,0,0,0,,,,,,,,,,,,,stimuli/alien_stimuli/64.png,,,,,,,,,,,,,,,,,,,,,,,,,,,,,,,stimuli/alien_stimuli/62.png,62,2,1,,,,,,,4,,,,,,,,152.4158749000635,152.4158749000635,152.4158749000635,152.4158749000635,152.4158749000635,up,0.3750775000080466,1,0,99,0,-0.15999999999999998,up,0.24823819985613227,None,,,,,150.80103550013155,150.36624759994447,0,-0.32,0.08,0.0,-0.36,0,0.0,0,-0.32,150.36624759994447,150.36624759994447,150.36624759994447,150.36624759994447,150.36624759994447,150.36624759994447,150.36624759994447,150.36624759994447,150.34960480015727,0.5709930001758039,return,0.40577999991364777,None,,,,,,,,,2024-06-25_16h35.32.749,HideSeek_v1,2023.1.3,60.12025250687124,
,2,2,2,5,0,3,64,,train_dim1_1,2,4,2,0,2,0,,,,,,,,,1,0,1,0,0,1,1,1,1,0,1,0,,,,,,,,,,,,,,,,,,,,,,,,,,,,,,,,,,,,,,,,,,,,,,,,,,,,,,4,,,,,,,,152.78017510008067,152.78017510008067,152.78017510008067,152.78017510008067,152.78017510008067,up,0.3432481000199914,1,0,99,0,-0.07999999999999997,up,0.22417569975368679,None,,,,,,,,,,,,,,,,,,,,,,,,,,,,,,,,,,,,,2024-06-25_16h35.32.749,HideSeek_v1,2023.1.3,60.12025250687124,
,2,2,2,5,0,3,64,,train_dim1_1,2,4,2,0,2,0,,,,,,,,,1,0,1,0,0,1,1,1,2,0,2,0,,,,,,,,,,,,,,,,,,,,,,,,,,,,,,,,,,,,,,,,,,,,,,,,,,,,,,4,,,,,,,,153.10063350014389,153.10063350014389,153.10063350014389,153.10063350014389,153.10063350014389,up,0.377363899955526,1,0,99,0,2.7755575615628914e-17,up,0.283743399893865,None,,,,,,,,,,,,,,,,,,,,,,,,,,,,,,,,,,,,,2024-06-25_16h35.32.749,HideSeek_v1,2023.1.3,60.12025250687124,
,2,2,2,5,0,3,64,,train_dim1_1,2,4,2,0,2,0,,,,,,,,,1,0,1,0,0,1,1,1,3,0,3,0,,,,,,,,,,,,,,,,,,,,,,,,,,,,,,,,,,,,,,,,,,,,,,,,,,,,,,4,,,,,,,,153.484143699985,153.484143699985,153.484143699985,153.484143699985,153.484143699985,return,0.36107730004005134,2,0,1,0,2.7755575615628914e-17,return,0.2670555997174233,None,56,0,0,2.7755575615628914e-17,,,,,,,,,,,,,,,,,,,,,,,,,,,,,,,,,2024-06-25_16h35.32.749,HideSeek_v1,2023.1.3,60.12025250687124,
,3,3,3,8,0,5,66,,train_dim1_1,3,4,2,0,2,0,,,,,,,,,1,0,1,0,0,2,2,2,0,0,0,0,,,,,,,,,,,,,stimuli/alien_stimuli/66.png,,,,,,,,,,,,,,,,,,,,,,,,,,,,,,,stimuli/alien_stimuli/64.png,64,2,2,,,,,,,4,,,,,,,,157.81638720002957,157.81638720002957,157.81638720002957,157.81638720002957,157.81638720002957,up,0.4085250999778509,2,0,99,0.08,-0.08,up,0.31441669980995357,None,,,,,156.2494984001387,157.81638720002957,0,0,0.24,0.0,-0.12,0,0.0,0,0,155.74904830008745,155.74904830008745,155.74904830008745,155.74904830008745,155.74904830008745,155.74904830008745,155.74904830008745,155.74904830008745,155.7343366501853,0.9514170999173075,return,0.4802440998610109,None,,,,,,,,,2024-06-25_16h35.32.749,HideSeek_v1,2023.1.3,60.12025250687124,
,3,3,3,8,0,5,66,,train_dim1_1,3,4,2,0,2,0,,,,,,,,,1,0,1,0,0,2,2,2,1,0,1,0,,,,,,,,,,,,,,,,,,,,,,,,,,,,,,,,,,,,,,,,,,,,,,,,,,,,,,4,,,,,,,,158.21684280014597,158.21684280014597,158.21684280014597,158.21684280014597,158.21684280014597,up,0.31000810000114143,2,0,99,0.08,0.0,up,0.2283125000540167,None,,,,,,,,,,,,,,,,,,,,,,,,,,,,,,,,,,,,,2024-06-25_16h35.32.749,HideSeek_v1,2023.1.3,60.12025250687124,
,3,3,3,8,0,5,66,,train_dim1_1,3,4,2,0,2,0,,,,,,,,,1,0,1,0,0,2,2,2,2,0,2,0,,,,,,,,,,,,,,,,,,,,,,,,,,,,,,,,,,,,,,,,,,,,,,,,,,,,,,4,,,,,,,,158.5311994999647,158.5311994999647,158.5311994999647,158.5311994999647,158.5311994999647,up,0.293705299962312,2,0,99,0.08,0.08,up,0.20665289997123182,None,,,,,,,,,,,,,,,,,,,,,,,,,,,,,,,,,,,,,2024-06-25_16h35.32.749,HideSeek_v1,2023.1.3,60.12025250687124,
,3,3,3,8,0,5,66,,train_dim1_1,3,4,2,0,2,0,,,,,,,,,1,0,1,0,0,2,2,2,3,0,3,0,,,,,,,,,,,,,,,,,,,,,,,,,,,,,,,,,,,,,,,,,,,,,,,,,,,,,,4,,,,,,,,158.83084210008383,158.83084210008383,158.83084210008383,158.83084210008383,158.83084210008383,up,0.29437989997677505,2,0,99,0.08,0.16,up,0.20556179992854595,None,,,,,,,,,,,,,,,,,,,,,,,,,,,,,,,,,,,,,2024-06-25_16h35.32.749,HideSeek_v1,2023.1.3,60.12025250687124,
,3,3,3,8,0,5,66,,train_dim1_1,3,4,2,0,2,0,,,,,,,,,1,0,1,0,0,2,2,2,4,0,4,0,,,,,,,,,,,,,,,,,,,,,,,,,,,,,,,,,,,,,,,,,,,,,,,,,,,,,,4,,,,,,,,159.13277260004543,159.13277260004543,159.13277260004543,159.13277260004543,159.13277260004543,up,0.27713039983063936,2,0,99,0.08,0.24,up,0.18603739980608225,None,,,,,,,,,,,,,,,,,,,,,,,,,,,,,,,,,,,,,2024-06-25_16h35.32.749,HideSeek_v1,2023.1.3,60.12025250687124,
,3,3,3,8,0,5,66,,train_dim1_1,3,4,2,0,2,0,,,,,,,,,1,0,1,0,0,2,2,2,5,0,5,0,,,,,,,,,,,,,,,,,,,,,,,,,,,,,,,,,,,,,,,,,,,,,,,,,,,,,,4,,,,,,,,159.41873289993964,159.41873289993964,159.41873289993964,159.41873289993964,159.41873289993964,return,0.22821890003979206,3,0,1,0.08,0.24,return,0.1392795997671783,None,61,0,0.08,0.24,,,,,,,,,,,,,,,,,,,,,,,,,,,,,,,,,2024-06-25_16h35.32.749,HideSeek_v1,2023.1.3,60.12025250687124,
,4,4,4,8,0,4,65,,train_dim1_1,4,4,2,0,2,0,,,,,,,,,1,0,1,0,0,3,3,3,0,0,0,0,,,,,,,,,,,,,stimuli/alien_stimuli/65.png,,,,,,,,,,,,,,,,,,,,,,,,,,,,,,,stimuli/alien_stimuli/66.png,66,3,3,,,,,,,4,,,,,,,,163.21619229996577,163.21619229996577,163.21619229996577,163.21619229996577,163.21619229996577,up,0.3912353999912739,3,0,99,0.16,0.0,up,0.2889022999443114,None,,,,,161.64896110002883,163.21619229996577,0.08,0.24,0.4,0.0,0.039999999999999994,0.08,0.08,0.08,0.24,161.1983004999347,161.1983004999347,161.1983004999347,161.1983004999347,161.1983004999347,161.1983004999347,161.1983004999347,161.1983004999347,161.18250520001166,0.5518495000433177,return,0.43270560004748404,None,,,,,,,,,2024-06-25_16h35.32.749,HideSeek_v1,2023.1.3,60.12025250687124,
,4,4,4,8,0,4,65,,train_dim1_1,4,4,2,0,2,0,,,,,,,,,1,0,1,0,0,3,3,3,1,0,1,0,,,,,,,,,,,,,,,,,,,,,,,,,,,,,,,,,,,,,,,,,,,,,,,,,,,,,,4,,,,,,,,163.63253709999844,163.63253709999844,163.63253709999844,163.63253709999844,163.63253709999844,up,0.37662160000763834,3,0,99,0.16,0.08,up,0.2670251000672579,None,,,,,,,,,,,,,,,,,,,,,,,,,,,,,,,,,,,,,2024-06-25_16h35.32.749,HideSeek_v1,2023.1.3,60.12025250687124,
,4,4,4,8,0,4,65,,train_dim1_1,4,4,2,0,2,0,,,,,,,,,1,0,1,0,0,3,3,3,2,0,2,0,,,,,,,,,,,,,,,,,,,,,,,,,,,,,,,,,,,,,,,,,,,,,,,,,,,,,,4,,,,,,,,163.9835105999373,163.9835105999373,163.9835105999373,163.9835105999373,163.9835105999373,up,0.3276174000930041,3,0,99,0.16,0.16,up,0.2486860000062734,None,,,,,,,,,,,,,,,,,,,,,,,,,,,,,,,,,,,,,2024-06-25_16h35.32.749,HideSeek_v1,2023.1.3,60.12025250687124,
,4,4,4,8,0,4,65,,train_dim1_1,4,4,2,0,2,0,,,,,,,,,1,0,1,0,0,3,3,3,3,0,3,0,,,,,,,,,,,,,,,,,,,,,,,,,,,,,,,,,,,,,,,,,,,,,,,,,,,,,,4,,,,,,,,164.31629980006255,164.31629980006255,164.31629980006255,164.31629980006255,164.31629980006255,up,0.32794780004769564,3,0,99,0.16,0.24,up,0.24422500003129244,None,,,,,,,,,,,,,,,,,,,,,,,,,,,,,,,,,,,,,2024-06-25_16h35.32.749,HideSeek_v1,2023.1.3,60.12025250687124,
,4,4,4,8,0,4,65,,train_dim1_1,4,4,2,0,2,0,,,,,,,,,1,0,1,0,0,3,3,3,4,0,4,0,,,,,,,,,,,,,,,,,,,,,,,,,,,,,,,,,,,,,,,,,,,,,,,,,,,,,,4,,,,,,,,164.66572750010528,164.66572750010528,164.66572750010528,164.66572750010528,164.66572750010528,return,0.20998080004937947,4,0,1,0.16,0.24,return,0.1128083998337388,None,65,0,0.16,0.24,,,,,,,,,,,,,,,,,,,,,,,,,,,,,,,,,2024-06-25_16h35.32.749,HideSeek_v1,2023.1.3,60.12025250687124,
,3,4,3,5,0,1,62,,train_dim1_1,1,4,2,0,2,0,,,,,,,,,2,0,2,0,0,0,0,0,0,0,0,0,,,,,,,,,,,,,stimuli/alien_stimuli/62.png,,,,,,,,,,,,,,,,,,,,,,,,,,,,,,,stimuli/alien_stimuli/65.png,65,4,4,17,0.7,0.8333333333333335,2,0,1,4,0,conditions/inputTrain_1.3.xlsx,99,1,1,1,0,169.3822590999771,169.3822590999771,169.3822590999771,169.3822590999771,169.3822590999771,up,2.7537017001304775,0,0,99,0.08,0.0,up,2.6514027998782694,None,,,,,167.815787400119,169.3822590999771,0.16,0.24,0.32,0.0,0.07999999999999999,0.16,0.16,0.16,0.24,166.41545929992571,166.41545929992571,166.41545929992571,166.41545929992571,166.41545929992571,166.41545929992571,166.41545929992571,166.41545929992571,166.39942729994655,1.5012359998654574,return,1.3718938997481018,None,0,0.25000000000000006,0,2,4,,,,2024-06-25_16h35.32.749,HideSeek_v1,2023.1.3,60.12025250687124,
,3,4,3,5,0,1,62,,train_dim1_1,1,4,2,0,2,0,,,,,,,,,2,0,2,0,0,0,0,0,1,0,1,0,,,,,,,,,,,,,,,,,,,,,,,,,,,,,,,,,,,,,,,,,,,,,,,,,,,,,,4,,,,,,,,172.1313921001274,172.1313921001274,172.1313921001274,172.1313921001274,172.1313921001274,return,0.4102564000058919,1,0,1,0.08,0.0,return,0.33039729995653033,None,66,0,0.08,0.0,,,,,,,,,,,,,,,,,,,,,,,,,,,,,,,,,2024-06-25_16h35.32.749,HideSeek_v1,2023.1.3,60.12025250687124,
,4,0,4,4,0,4,65,,train_dim1_1,2,4,2,0,2,0,,,,,,,,,2,0,2,0,0,1,1,1,0,0,0,0,,,,,,,,,,,,,stimuli/alien_stimuli/65.png,,,,,,,,,,,,,,,,,,,,,,,,,,,,,,,stimuli/alien_stimuli/62.png,62,3,1,,,,,,,4,,,,,,,,175.95101600000635,175.95101600000635,175.95101600000635,175.95101600000635,175.95101600000635,up,0.4248204999603331,1,0,99,0.16,-0.32,up,0.3367109999526292,None,,,,,174.3987304000184,175.95101600000635,0.08,0,0.08,0.0,-0.04,0.08,0.08,0.08,0,174.0980837000534,174.0980837000534,174.0980837000534,174.0980837000534,174.0980837000534,174.0980837000534,174.0980837000534,174.0980837000534,174.08247580016032,0.40198119985871017,return,0.28108059987425804,None,,,,,,,,,2024-06-25_16h35.32.749,HideSeek_v1,2023.1.3,60.12025250687124,
,4,0,4,4,0,4,65,,train_dim1_1,2,4,2,0,2,0,,,,,,,,,2,0,2,0,0,1,1,1,1,0,1,0,,,,,,,,,,,,,,,,,,,,,,,,,,,,,,,,,,,,,,,,,,,,,,,,,,,,,,4,,,,,,,,176.3987173999194,176.3987173999194,176.3987173999194,176.3987173999194,176.3987173999194,up,0.29320230009034276,1,0,99,0.16,-0.24,up,0.1960896998643875,None,,,,,,,,,,,,,,,,,,,,,,,,,,,,,,,,,,,,,2024-06-25_16h35.32.749,HideSeek_v1,2023.1.3,60.12025250687124,
,4,0,4,4,0,4,65,,train_dim1_1,2,4,2,0,2,0,,,,,,,,,2,0,2,0,0,1,1,1,2,0,2,0,,,,,,,,,,,,,,,,,,,,,,,,,,,,,,,,,,,,,,,,,,,,,,,,,,,,,,4,,,,,,,,176.68379030004144,176.68379030004144,176.68379030004144,176.68379030004144,176.68379030004144,up,0.3445570000912994,1,0,99,0.16,-0.15999999999999998,up,0.25105099985376,None,,,,,,,,,,,,,,,,,,,,,,,,,,,,,,,,,,,,,2024-06-25_16h35.32.749,HideSeek_v1,2023.1.3,60.12025250687124,
,4,0,4,4,0,4,65,,train_dim1_1,2,4,2,0,2,0,,,,,,,,,2,0,2,0,0,1,1,1,3,0,3,0,,,,,,,,,,,,,,,,,,,,,,,,,,,,,,,,,,,,,,,,,,,,,,,,,,,,,,4,,,,,,,,177.0329307001084,177.0329307001084,177.0329307001084,177.0329307001084,177.0329307001084,up,0.34405519999563694,1,0,99,0.16,-0.07999999999999997,up,0.265346999745816,None,,,,,,,,,,,,,,,,,,,,,,,,,,,,,,,,,,,,,2024-06-25_16h35.32.749,HideSeek_v1,2023.1.3,60.12025250687124,
,4,0,4,4,0,4,65,,train_dim1_1,2,4,2,0,2,0,,,,,,,,,2,0,2,0,0,1,1,1,4,0,4,0,,,,,,,,,,,,,,,,,,,,,,,,,,,,,,,,,,,,,,,,,,,,,,,,,,,,,,4,,,,,,,,177.38461400009692,177.38461400009692,177.38461400009692,177.38461400009692,177.38461400009692,return,0.3445222000591457,2,0,1,0.16,-0.07999999999999997,return,0.26155719975940883,None,70,0,0.16,-0.07999999999999997,,,,,,,,,,,,,,,,,,,,,,,,,,,,,,,,,2024-06-25_16h35.32.749,HideSeek_v1,2023.1.3,60.12025250687124,
,0,3,0,6,0,3,64,,train_dim1_1,3,4,2,0,2,0,,,,,,,,,2,0,2,0,0,2,2,2,0,0,0,0,,,,,,,,,,,,,stimuli/alien_stimuli/64.png,,,,,,,,,,,,,,,,,,,,,,,,,,,,,,,stimuli/alien_stimuli/65.png,65,4,2,,,,,,,4,,,,,,,,181.14970800001174,181.14970800001174,181.14970800001174,181.14970800001174,181.14970800001174,up,0.37425810005515814,2,0,99,-0.16,-0.08,up,0.2824229998514056,None,,,,,179.58191519998945,181.14970800001174,0.16,-0.08,0.32,0.0,-0.24000000000000002,0.16,0.16,0.16,-0.08,179.2822791999206,179.2822791999206,179.2822791999206,179.2822791999206,179.2822791999206,179.2822791999206,179.2822791999206,179.2822791999206,179.26613810015843,0.4013252998702228,return,0.27959949988871813,None,,,,,,,,,2024-06-25_16h35.32.749,HideSeek_v1,2023.1.3,60.12025250687124,
,0,3,0,6,0,3,64,,train_dim1_1,3,4,2,0,2,0,,,,,,,,,2,0,2,0,0,2,2,2,1,0,1,0,,,,,,,,,,,,,,,,,,,,,,,,,,,,,,,,,,,,,,,,,,,,,,,,,,,,,,4,,,,,,,,181.51787400012836,181.51787400012836,181.51787400012836,181.51787400012836,181.51787400012836,up,0.3430164000019431,2,0,99,-0.16,0.0,up,0.2509188998956233,None,,,,,,,,,,,,,,,,,,,,,,,,,,,,,,,,,,,,,2024-06-25_16h35.32.749,HideSeek_v1,2023.1.3,60.12025250687124,
,0,3,0,6,0,3,64,,train_dim1_1,3,4,2,0,2,0,,,,,,,,,2,0,2,0,0,2,2,2,2,0,2,0,,,,,,,,,,,,,,,,,,,,,,,,,,,,,,,,,,,,,,,,,,,,,,,,,,,,,,4,,,,,,,,181.8661180001218,181.8661180001218,181.8661180001218,181.8661180001218,181.8661180001218,up,0.5272497001569718,2,0,99,-0.16,0.08,up,0.43579669995233417,None,,,,,,,,,,,,,,,,,,,,,,,,,,,,,,,,,,,,,2024-06-25_16h35.32.749,HideSeek_v1,2023.1.3,60.12025250687124,
,0,3,0,6,0,3,64,,train_dim1_1,3,4,2,0,2,0,,,,,,,,,2,0,2,0,0,2,2,2,3,0,3,0,,,,,,,,,,,,,,,,,,,,,,,,,,,,,,,,,,,,,,,,,,,,,,,,,,,,,,4,,,,,,,,182.41588820004836,182.41588820004836,182.41588820004836,182.41588820004836,182.41588820004836,return,0.24455040018074214,3,0,1,-0.16,0.08,return,0.14643329987302423,None,73,0,-0.16,0.08,,,,,,,,,,,,,,,,,,,,,,,,,,,,,,,,,2024-06-25_16h35.32.749,HideSeek_v1,2023.1.3,60.12025250687124,
,4,1,4,6,0,5,66,,train_dim1_1,4,4,2,0,2,0,,,,,,,,,2,0,2,0,0,3,3,3,0,0,0,0,,,,,,,,,,,,,stimuli/alien_stimuli/66.png,,,,,,,,,,,,,,,,,,,,,,,,,,,,,,,stimuli/alien_stimuli/64.png,64,0,3,,,,,,,4,,,,,,,,186.0653856000863,186.0653856000863,186.0653856000863,186.0653856000863,186.0653856000863,up,0.35819400008767843,3,0,99,0.16,-0.24,up,0.26115529984235764,None,,,,,184.49904810008593,186.0653856000863,-0.16,0.08,0.24,0.0,-0.04,-0.16,-0.16,-0.16,0.08,184.21567540010437,184.21567540010437,184.21567540010437,184.21567540010437,184.21567540010437,184.21567540010437,184.21567540010437,184.21567540010437,184.19951885002666,0.4010727000422776,return,0.2529833000153303,None,,,,,,,,,2024-06-25_16h35.32.749,HideSeek_v1,2023.1.3,60.12025250687124,
,4,1,4,6,0,5,66,,train_dim1_1,4,4,2,0,2,0,,,,,,,,,2,0,2,0,0,3,3,3,1,0,1,0,,,,,,,,,,,,,,,,,,,,,,,,,,,,,,,,,,,,,,,,,,,,,,,,,,,,,,4,,,,,,,,186.41615079995245,186.41615079995245,186.41615079995245,186.41615079995245,186.41615079995245,up,0.3102844001259655,3,0,99,0.16,-0.15999999999999998,up,0.22875409992411733,None,,,,,,,,,,,,,,,,,,,,,,,,,,,,,,,,,,,,,2024-06-25_16h35.32.749,HideSeek_v1,2023.1.3,60.12025250687124,
,4,1,4,6,0,5,66,,train_dim1_1,4,4,2,0,2,0,,,,,,,,,2,0,2,0,0,3,3,3,2,0,2,0,,,,,,,,,,,,,,,,,,,,,,,,,,,,,,,,,,,,,,,,,,,,,,,,,,,,,,4,,,,,,,,186.73404010012746,186.73404010012746,186.73404010012746,186.73404010012746,186.73404010012746,up,0.29362539993599057,3,0,99,0.16,-0.07999999999999997,up,0.21401789970695972,None,,,,,,,,,,,,,,,,,,,,,,,,,,,,,,,,,,,,,2024-06-25_16h35.32.749,HideSeek_v1,2023.1.3,60.12025250687124,
,4,1,4,6,0,5,66,,train_dim1_1,4,4,2,0,2,0,,,,,,,,,2,0,2,0,0,3,3,3,3,0,3,0,,,,,,,,,,,,,,,,,,,,,,,,,,,,,,,,,,,,,,,,,,,,,,,,,,,,,,4,,,,,,,,187.0322461000178,187.0322461000178,187.0322461000178,187.0322461000178,187.0322461000178,up,0.2776603000238538,3,0,99,0.16,2.7755575615628914e-17,up,0.18547590007074177,None,,,,,,,,,,,,,,,,,,,,,,,,,,,,,,,,,,,,,2024-06-25_16h35.32.749,HideSeek_v1,2023.1.3,60.12025250687124,
,4,1,4,6,0,5,66,,train_dim1_1,4,4,2,0,2,0,,,,,,,,,2,0,2,0,0,3,3,3,4,0,4,0,,,,,,,,,,,,,,,,,,,,,,,,,,,,,,,,,,,,,,,,,,,,,,,,,,,,,,4,,,,,,,,187.316535100108,187.316535100108,187.316535100108,187.316535100108,187.316535100108,up,0.2774694999679923,3,0,99,0.16,0.08000000000000003,up,0.18869199976325035,None,,,,,,,,,,,,,,,,,,,,,,,,,,,,,,,,,,,,,2024-06-25_16h35.32.749,HideSeek_v1,2023.1.3,60.12025250687124,
,4,1,4,6,0,5,66,,train_dim1_1,4,4,2,0,2,0,,,,,,,,,2,0,2,0,0,3,3,3,5,0,5,0,,,,,,,,,,,,,,,,,,,,,,,,,,,,,,,,,,,,,,,,,,,,,,,,,,,,,,4,,,,,,,,187.59896269999444,187.59896269999444,187.59896269999444,187.59896269999444,187.59896269999444,return,0.19436020008288324,4,0,1,0.16,0.08000000000000003,return,0.11549649992957711,None,78,0,0.16,0.08000000000000003,,,,,,,,,,,,,,,,,,,,,,,,,,,,,,,,,2024-06-25_16h35.32.749,HideSeek_v1,2023.1.3,60.12025250687124,
,1,3,1,6,0,3,64,,train_dim1_1,1,4,2,0,2,0,,,,,,,,,3,0,3,0,0,0,0,0,0,0,0,0,,,,,,,,,,,,,stimuli/alien_stimuli/64.png,,,,,,,,,,,,,,,,,,,,,,,,,,,,,,,stimuli/alien_stimuli/66.png,66,4,4,17,0.7,1.0000000000000002,3,0,1,4,0,conditions/inputTrain_1.4.xlsx,99,1,1,1,0,191.26547649991699,191.26547649991699,191.26547649991699,191.26547649991699,191.26547649991699,up,0.40311020007357,0,0,99,-0.08,-0.08,up,0.3013251998927444,None,,,,,189.68313090014271,189.36671170010231,0.16,0.08,0.4,0.0,-0.12,0.16,0.16,0.16,0.08,189.36671170010231,189.36671170010231,189.36671170010231,189.36671170010231,189.36671170010231,189.36671170010231,189.36671170010231,189.36671170010231,189.34962335014717,0.4352552001364529,return,0.2944127998780459,None,0,0.2777777777777778,0,3,4,,,,2024-06-25_16h35.32.749,HideSeek_v1,2023.1.3,60.12025250687124,
,1,3,1,6,0,3,64,,train_dim1_1,1,4,2,0,2,0,,,,,,,,,3,0,3,0,0,0,0,0,1,0,1,0,,,,,,,,,,,,,,,,,,,,,,,,,,,,,,,,,,,,,,,,,,,,,,,,,,,,,,4,,,,,,,,191.6989836001303,191.6989836001303,191.6989836001303,191.6989836001303,191.6989836001303,up,0.29330960009247065,0,0,99,-0.08,0.0,up,0.17295779986307025,None,,,,,,,,,,,,,,,,,,,,,,,,,,,,,,,,,,,,,2024-06-25_16h35.32.749,HideSeek_v1,2023.1.3,60.12025250687124,
,1,3,1,6,0,3,64,,train_dim1_1,1,4,2,0,2,0,,,,,,,,,3,0,3,0,0,0,0,0,2,0,2,0,,,,,,,,,,,,,,,,,,,,,,,,,,,,,,,,,,,,,,,,,,,,,,,,,,,,,,4,,,,,,,,191.96577670006081,191.96577670006081,191.96577670006081,191.96577670006081,191.96577670006081,up,0.2943834001198411,0,0,99,-0.08,0.08,up,0.206654499983415,None,,,,,,,,,,,,,,,,,,,,,,,,,,,,,,,,,,,,,2024-06-25_16h35.32.749,HideSeek_v1,2023.1.3,60.12025250687124,
,1,3,1,6,0,3,64,,train_dim1_1,1,4,2,0,2,0,,,,,,,,,3,0,3,0,0,0,0,0,3,0,3,0,,,,,,,,,,,,,,,,,,,,,,,,,,,,,,,,,,,,,,,,,,,,,,,,,,,,,,4,,,,,,,,192.26524590002373,192.26524590002373,192.26524590002373,192.26524590002373,192.26524590002373,return,0.2939594001509249,1,0,1,-0.08,0.08,return,0.21469060005620122,None,81,0,-0.08,0.08,,,,,,,,,,,,,,,,,,,,,,,,,,,,,,,,,2024-06-25_16h35.32.749,HideSeek_v1,2023.1.3,60.12025250687124,
,0,0,0,4,0,4,65,,train_dim1_1,2,4,2,0,2,0,,,,,,,,,3,0,3,0,0,1,1,1,0,0,0,0,,,,,,,,,,,,,stimuli/alien_stimuli/65.png,,,,,,,,,,,,,,,,,,,,,,,,,,,,,,,stimuli/alien_stimuli/64.png,64,1,1,,,,,,,4,,,,,,,,196.01491730008274,196.01491730008274,196.01491730008274,196.01491730008274,196.01491730008274,up,0.3247642999049276,1,0,99,-0.16,-0.32,up,0.2194082997739315,None,,,,,194.4486664000433,196.01491730008274,-0.08,0.08,0.24,0.0,-0.04,-0.08,-0.08,-0.08,0.08,194.13202090002596,194.13202090002596,194.13202090002596,194.13202090002596,194.13202090002596,194.13202090002596,194.13202090002596,194.13202090002596,194.11592805008405,0.43432779982686043,return,0.295375999994576,None,,,,,,,,,2024-06-25_16h35.32.749,HideSeek_v1,2023.1.3,60.12025250687124,
,0,0,0,4,0,4,65,,train_dim1_1,2,4,2,0,2,0,,,,,,,,,3,0,3,0,0,1,1,1,1,0,1,0,,,,,,,,,,,,,,,,,,,,,,,,,,,,,,,,,,,,,,,,,,,,,,,,,,,,,,4,,,,,,,,196.3337034001015,196.3337034001015,196.3337034001015,196.3337034001015,196.3337034001015,up,0.27683909982442856,1,0,99,-0.16,-0.24,up,0.19425679999403656,None,,,,,,,,,,,,,,,,,,,,,,,,,,,,,,,,,,,,,2024-06-25_16h35.32.749,HideSeek_v1,2023.1.3,60.12025250687124,
,0,0,0,4,0,4,65,,train_dim1_1,2,4,2,0,2,0,,,,,,,,,3,0,3,0,0,1,1,1,2,0,2,0,,,,,,,,,,,,,,,,,,,,,,,,,,,,,,,,,,,,,,,,,,,,,,,,,,,,,,4,,,,,,,,196.63186029996723,196.63186029996723,196.63186029996723,196.63186029996723,196.63186029996723,up,0.2606534000951797,1,0,99,-0.16,-0.15999999999999998,up,0.16240699985064566,None,,,,,,,,,,,,,,,,,,,,,,,,,,,,,,,,,,,,,2024-06-25_16h35.32.749,HideSeek_v1,2023.1.3,60.12025250687124,
,0,0,0,4,0,4,65,,train_dim1_1,2,4,2,0,2,0,,,,,,,,,3,0,3,0,0,1,1,1,3,0,3,0,,,,,,,,,,,,,,,,,,,,,,,,,,,,,,,,,,,,,,,,,,,,,,,,,,,,,,4,,,,,,,,196.882063300116,196.882063300116,196.882063300116,196.882063300116,196.882063300116,up,0.2607382000423968,1,0,99,-0.16,-0.07999999999999997,up,0.1795340997632593,None,,,,,,,,,,,,,,,,,,,,,,,,,,,,,,,,,,,,,2024-06-25_16h35.32.749,HideSeek_v1,2023.1.3,60.12025250687124,
,0,0,0,4,0,4,65,,train_dim1_1,2,4,2,0,2,0,,,,,,,,,3,0,3,0,0,1,1,1,4,0,4,0,,,,,,,,,,,,,,,,,,,,,,,,,,,,,,,,,,,,,,,,,,,,,,,,,,,,,,4,,,,,,,,197.15060500008985,197.15060500008985,197.15060500008985,197.15060500008985,197.15060500008985,return,0.29443640005774796,2,0,1,-0.16,-0.07999999999999997,return,0.21376539999619126,None,85,0,-0.16,-0.07999999999999997,,,,,,,,,,,,,,,,,,,,,,,,,,,,,,,,,2024-06-25_16h35.32.749,HideSeek_v1,2023.1.3,60.12025250687124,
,4,2,4,3,0,1,62,,train_dim1_1,3,4,2,0,2,0,,,,,,,,,3,0,3,0,0,2,2,2,0,0,0,0,,,,,,,,,,,,,stimuli/alien_stimuli/62.png,,,,,,,,,,,,,,,,,,,,,,,,,,,,,,,stimuli/alien_stimuli/65.png,65,0,2,,,,,,,4,,,,,,,,200.83254750003107,200.83254750003107,200.83254750003107,200.83254750003107,200.83254750003107,up,0.3582823001779616,2,0,99,0.16,-0.15999999999999998,up,0.25764049985446036,None,,,,,199.26511369994842,200.83254750003107,-0.16,-0.08,0.32,0.0,-0.24000000000000002,-0.16,-0.16,-0.16,-0.08,198.99815000011586,198.99815000011586,198.99815000011586,198.99815000011586,198.99815000011586,198.99815000011586,198.99815000011586,198.99815000011586,198.9824971999973,0.3688350999727845,return,0.24084510002285242,None,,,,,,,,,2024-06-25_16h35.32.749,HideSeek_v1,2023.1.3,60.12025250687124,
,4,2,4,3,0,1,62,,train_dim1_1,3,4,2,0,2,0,,,,,,,,,3,0,3,0,0,2,2,2,1,0,1,0,,,,,,,,,,,,,,,,,,,,,,,,,,,,,,,,,,,,,,,,,,,,,,,,,,,,,,4,,,,,,,,201.1824686001055,201.1824686001055,201.1824686001055,201.1824686001055,201.1824686001055,return,0.3271043000277132,3,0,1,0.16,-0.15999999999999998,return,0.24480889993719757,None,86,0,0.16,-0.15999999999999998,,,,,,,,,,,,,,,,,,,,,,,,,,,,,,,,,2024-06-25_16h35.32.749,HideSeek_v1,2023.1.3,60.12025250687124,
,3,0,3,5,0,5,66,,train_dim1_1,4,4,2,0,2,0,,,,,,,,,3,0,3,0,0,3,3,3,0,0,0,0,,,,,,,,,,,,,stimuli/alien_stimuli/66.png,,,,,,,,,,,,,,,,,,,,,,,,,,,,,,,stimuli/alien_stimuli/62.png,62,4,3,,,,,,,4,,,,,,,,204.9319351001177,204.9319351001177,204.9319351001177,204.9319351001177,204.9319351001177,up,0.3735406999476254,3,0,99,0.08,-0.32,up,0.2734350997488946,None,,,,,203.35080450004898,203.06576739996672,0.16,-0.16,0.08,0.0,-0.2,0.16,0.16,0.16,-0.16,203.06576739996672,203.06576739996672,203.06576739996672,203.06576739996672,203.06576739996672,203.06576739996672,203.06576739996672,203.06576739996672,203.0493625000585,0.3847676001023501,return,0.2578960000537336,None,,,,,,,,,2024-06-25_16h35.32.749,HideSeek_v1,2023.1.3,60.12025250687124,
,3,0,3,5,0,5,66,,train_dim1_1,4,4,2,0,2,0,,,,,,,,,3,0,3,0,0,3,3,3,1,0,1,0,,,,,,,,,,,,,,,,,,,,,,,,,,,,,,,,,,,,,,,,,,,,,,,,,,,,,,4,,,,,,,,205.30091589991935,205.30091589991935,205.30091589991935,205.30091589991935,205.30091589991935,up,0.2766487000044435,3,0,99,0.08,-0.24,up,0.19469199981540442,None,,,,,,,,,,,,,,,,,,,,,,,,,,,,,,,,,,,,,2024-06-25_16h35.32.749,HideSeek_v1,2023.1.3,60.12025250687124,
,3,0,3,5,0,5,66,,train_dim1_1,4,4,2,0,2,0,,,,,,,,,3,0,3,0,0,3,3,3,2,0,2,0,,,,,,,,,,,,,,,,,,,,,,,,,,,,,,,,,,,,,,,,,,,,,,,,,,,,,,4,,,,,,,,205.58260320010595,205.58260320010595,205.58260320010595,205.58260320010595,205.58260320010595,up,0.2611954999156296,3,0,99,0.08,-0.15999999999999998,up,0.1806807997636497,None,,,,,,,,,,,,,,,,,,,,,,,,,,,,,,,,,,,,,2024-06-25_16h35.32.749,HideSeek_v1,2023.1.3,60.12025250687124,
,3,0,3,5,0,5,66,,train_dim1_1,4,4,2,0,2,0,,,,,,,,,3,0,3,0,0,3,3,3,3,0,3,0,,,,,,,,,,,,,,,,,,,,,,,,,,,,,,,,,,,,,,,,,,,,,,,,,,,,,,4,,,,,,,,205.85798340011388,205.85798340011388,205.85798340011388,205.85798340011388,205.85798340011388,up,0.2604947998188436,3,0,99,0.08,-0.07999999999999997,up,0.1592792000155896,None,,,,,,,,,,,,,,,,,,,,,,,,,,,,,,,,,,,,,2024-06-25_16h35.32.749,HideSeek_v1,2023.1.3,60.12025250687124,
,3,0,3,5,0,5,66,,train_dim1_1,4,4,2,0,2,0,,,,,,,,,3,0,3,0,0,3,3,3,4,0,4,0,,,,,,,,,,,,,,,,,,,,,,,,,,,,,,,,,,,,,,,,,,,,,,,,,,,,,,4,,,,,,,,206.1165253999643,206.1165253999643,206.1165253999643,206.1165253999643,206.1165253999643,up,0.26055070012807846,3,0,99,0.08,2.7755575615628914e-17,up,0.16607039980590343,None,,,,,,,,,,,,,,,,,,,,,,,,,,,,,,,,,,,,,2024-06-25_16h35.32.749,HideSeek_v1,2023.1.3,60.12025250687124,
,3,0,3,5,0,5,66,,train_dim1_1,4,4,2,0,2,0,,,,,,,,,3,0,3,0,0,3,3,3,5,0,5,0,,,,,,,,,,,,,,,,,,,,,,,,,,,,,,,,,,,,,,,,,,,,,,,,,,,,,,4,,,,,,,,206.38389659998938,206.38389659998938,206.38389659998938,206.38389659998938,206.38389659998938,return,0.2769180000759661,4,0,1,0.08,2.7755575615628914e-17,return,0.19369410001672804,None,91,0,0.08,2.7755575615628914e-17,,,,,,,,,,,,,,,,,,,,,,,,,,,,,,,,,2024-06-25_16h35.32.749,HideSeek_v1,2023.1.3,60.12025250687124,
,,,,,,,,,,,4,,,,,,,,,,,,,,,,,,,,,,,,,,,,,,,,,,,,,stimuli/alien_stimuli/64.png,,,,,,,,,,,,,,,,,,,,,,,,,,,,,,,stimuli/alien_stimuli/66.png,66,3,4,17,0.7,1.166666666666667,4,0,1,4,0,conditions/inputTrain_1.5.xlsx,99,1,1,1,0,210.31525789992884,210.31525789992884,210.31525789992884,210.31525789992884,210.31525789992884,,,,,1,,,,,,,,,,208.74848560011014,210.31525789992884,0.08,0,0.4,0.0,-0.2,0.08,0.08,0.08,0,208.24954549991526,208.24954549991526,208.24954549991526,208.24954549991526,208.24954549991526,208.24954549991526,208.24954549991526,208.24954549991526,208.2327308000997,0.6347083000000566,return,0.47677710000425577,None,0,0.3055555555555556,0,4,4,,,,,,,,
