trialInstr,x_fixStart,y_fixStart,x_corrSteps,y_corrSteps,x_nrSteps,y_nrSteps,alienID,trialLength,version,trialTrain,praclen,beforeExpLoop.thisRepN,beforeExpLoop.thisTrialN,beforeExpLoop.thisN,beforeExpLoop.thisIndex,mini_instr_trials.thisRepN,mini_instr_trials.thisTrialN,mini_instr_trials.thisN,mini_instr_trials.thisIndex,instrLoop.thisRepN,instrLoop.thisTrialN,instrLoop.thisN,instrLoop.thisIndex,repeat_prac.thisRepN,repeat_prac.thisTrialN,repeat_prac.thisN,repeat_prac.thisIndex,trainLoop.thisRepN,trainLoop.thisTrialN,trainLoop.thisN,trainLoop.thisIndex,moveLoop_train.thisRepN,moveLoop_train.thisTrialN,moveLoop_train.thisN,moveLoop_train.thisIndex,experiment.thisRepN,experiment.thisTrialN,experiment.thisN,experiment.thisIndex,start_all_time,url,slideStim,audioStim,slides.started,sounds.started,nextButton.numClicks,nextButton.timesOn,nextButton.timesOff,prev_but.numClicks,prev_but.timesOn,prev_but.timesOff,alienStim,instrFile,alienStim_instr,gridImage_instr.started,startPos_3.started,key_instr.started,alienImage_3.started,sounds_1.started,key_instr.keys,key_instr.rt,key_instr.duration,all_x,all_y,FBy_corrSteps,FBy_fixStart,FBx_corrSteps,FBx_fixStart,FBy_pathSize_check,FBx_pathSize_check,gridImage_9.started,alienImageFB_3.started,startPosFB_3.started,keyFB_3.started,pathLine_ydir_2.started,pathLine_xdir_2.started,alienFace_3.started,sounds_2.started,RTFB_instr,keyFB_3.keys,keyFB_3.rt,keyFB_3.duration,draw_alienStim,draw_alienID,test_x,nrepcount,perfthres,percthres,earlierperf,earlystop,nextPrac,fileidx,praclen,saveACC_train,pracFile,nextPrac_train,addNrep,fileidx_endr,repExp,showearly,gridImage_4.started,startPos.started,movePos.started,key_resp.started,alienImage.started,wLy_dir,wLx_dir,x_movePos,y_movePos,buttonPress_train,RTchoice_train,cumAcctrain,saveACC_choice,corrAns,x_movePos_end,y_movePos_end,key_resp.keys,key_resp.rt,key_resp.duration,text_2.started,text_2.stopped,aft_x_corrPos,aft_y_corrPos,y_pathSize_check,x_pathSize_check,y_pathdirY,x_pathdirY,x_pathdirX,x_corrPos,y_corrPos,gridImage_6.started,alienImageFB_2.started,startPosFB_2.started,movePosFB_2.started,keyFB_2.started,pathLine_xdir.started,pathLine_ydir.started,alienFace.started,sounds_4.started,RT_FBtrain,keyFB_2.keys,keyFB_2.rt,keyFB_2.duration,saveACC_pre,ACC,within_saveACC_train,earlystop_wloop,cumAcctrain_check,endstatus,url_stopearly,slide_stop.started,key_resp_3.started,sound_stop.started,sound_stop.stopped,participant,study_id,session_id,date,expName,psychopyVersion,frameRate,
,,,,,,,,,,,,0,0,0,0,0,0,0,0,,,,,,,,,,,,,,,,,,,,,start_all_time,testround,stimuli/instructions/Slide1.png,stimuli/instructions/Audio1.wav,15.78368049999699,15.662938500056043,1,[5.513750300044194],[5.513754599960521],0,,,,,,,,,,,,,,,,,,,,,,,,,,,,,,,,,,,,,,,,,,,,,,,,,,,,,,,,,,,,,,,,,,,,,,,,,,,,,,,,,,,,,,,,,,,,,,,,,,,,,,,,,,,,,2024-07-01_13h53.21.248,HideSeek_v1,2023.1.3,59.93457544953925,
,,,,,,,,,,,,0,0,0,0,1,0,1,0,,,,,,,,,,,,,,,,,,,,,,,stimuli/instructions/Slide2.png,stimuli/instructions/Audio2.wav,21.28273839992471,21.267158300057055,1,[0.6268434999510646],[0.6268482999876142],0,,,,,,,,,,,,,,,,,,,,,,,,,,,,,,,,,,,,,,,,,,,,,,,,,,,,,,,,,,,,,,,,,,,,,,,,,,,,,,,,,,,,,,,,,,,,,,,,,,,,,,,,,,,,,2024-07-01_13h53.21.248,HideSeek_v1,2023.1.3,59.93457544953925,
,,,,,,,,,,,,0,0,0,0,2,0,2,0,,,,,,,,,,,,,,,,,,,,,,,stimuli/instructions/Slide3.png,stimuli/instructions/Audio3.wav,22.017533400096,21.999316700082275,1,[0.42505290010012686],[0.42505790013819933],0,,,,,,,,,,,,,,,,,,,,,,,,,,,,,,,,,,,,,,,,,,,,,,,,,,,,,,,,,,,,,,,,,,,,,,,,,,,,,,,,,,,,,,,,,,,,,,,,,,,,,,,,,,,,,2024-07-01_13h53.21.248,HideSeek_v1,2023.1.3,59.93457544953925,
,,,,,,,,,,,,0,0,0,0,3,0,3,0,,,,,,,,,,,,,,,,,,,,,,,stimuli/instructions/Slide4.png,stimuli/instructions/Audio4.wav,22.549322499893606,22.533040300058204,1,[0.3973475999664515],[0.3973511999938637],0,,,,,,,,,,,,,,,,,,,,,,,,,,,,,,,,,,,,,,,,,,,,,,,,,,,,,,,,,,,,,,,,,,,,,,,,,,,,,,,,,,,,,,,,,,,,,,,,,,,,,,,,,,,,,2024-07-01_13h53.21.248,HideSeek_v1,2023.1.3,59.93457544953925,
,,,,,,,,,,,,0,0,0,0,4,0,4,0,,,,,,,,,,,,,,,,,,,,,,,stimuli/instructions/Slide5.png,stimuli/instructions/Audio5.wav,22.999188099987805,22.983456299966203,1,[0.3766920000780374],[0.37669540010392666],0,,,,,,,,,,,,,,,,,,,,,,,,,,,,,,,,,,,,,,,,,,,,,,,,,,,,,,,,,,,,,,,,,,,,,,,,,,,,,,,,,,,,,,,,,,,,,,,,,,,,,,,,,,,,,2024-07-01_13h53.21.248,HideSeek_v1,2023.1.3,59.93457544953925,
,,,,,,,,,,,,0,0,0,0,5,0,5,0,,,,,,,,,,,,,,,,,,,,,,,stimuli/instructions/Slide6.png,stimuli/instructions/Audio6.wav,23.416140099987388,23.41461010007188,1,[0.33476650016382337],[0.33477180008776486],0,,,,,,,,,,,,,,,,,,,,,,,,,,,,,,,,,,,,,,,,,,,,,,,,,,,,,,,,,,,,,,,,,,,,,,,,,,,,,,,,,,,,,,,,,,,,,,,,,,,,,,,,,,,,,2024-07-01_13h53.21.248,HideSeek_v1,2023.1.3,59.93457544953925,
,,,,,,,,,,,,0,0,0,0,6,0,6,0,,,,,,,,,,,,,,,,,,,,,,,stimuli/instructions/Slide7.png,stimuli/instructions/Audio7.wav,23.81588239991106,23.800506600039082,1,[0.29593189992010593],[0.2959372999612242],0,,,,,,,,,,,,,,,,,,,,,,,,,,,,,,,,,,,,,,,,,,,,,,,,,,,,,,,,,,,,,,,,,,,,,,,,,,,,,,,,,,,,,,,,,,,,,,,,,,,,,,,,,,,,,2024-07-01_13h53.21.248,HideSeek_v1,2023.1.3,59.93457544953925,
,,,,,,,,,,,,0,0,0,0,7,0,7,0,,,,,,,,,,,,,,,,,,,,,,,stimuli/instructions/Slide8.png,stimuli/instructions/Audio8.wav,24.182575500104576,24.167644100030884,1,[0.2763412999920547],[0.2763467999175191],0,,,,,,,,,,,,,,,,,,,,,,,,,,,,,,,,,,,,,,,,,,,,,,,,,,,,,,,,,,,,,,,,,,,,,,,,,,,,,,,,,,,,,,,,,,,,,,,,,,,,,,,,,,,,,2024-07-01_13h53.21.248,HideSeek_v1,2023.1.3,59.93457544953925,
,,,,,,,,,,,,0,0,0,0,8,0,8,0,,,,,,,,,,,,,,,,,,,,,,,stimuli/instructions/Slide9.png,stimuli/instructions/Audio9.wav,24.515857300022617,24.50013919998892,1,[0.24040669994428754],[0.2404108999762684],0,,,,,,,,,,,,,,,,,,,,,,,,,,,,,,,,,,,,,,,,,,,,,,,,,,,,,,,,,,,,,,,,,,,,,,,,,,,,,,,,,,,,,,,,,,,,,,,,,,,,,,,,,,,,,2024-07-01_13h53.21.248,HideSeek_v1,2023.1.3,59.93457544953925,
,,,,,,,,,,,,0,0,0,0,9,0,9,0,,,,,,,,,,,,,,,,,,,,,,,stimuli/instructions/Slide10.png,stimuli/instructions/Audio10.wav,24.815774200018495,24.800074200006204,1,[0.25867530005052686],[0.25867910007946193],0,,,,,,,,,,,,,,,,,,,,,,,,,,,,,,,,,,,,,,,,,,,,,,,,,,,,,,,,,,,,,,,,,,,,,,,,,,,,,,,,,,,,,,,,,,,,,,,,,,,,,,,,,,,,,2024-07-01_13h53.21.248,HideSeek_v1,2023.1.3,59.93457544953925,
,,,,,,,,,,,,0,0,0,0,10,0,10,0,,,,,,,,,,,,,,,,,,,,,,,stimuli/instructions/Slide11.png,stimuli/instructions/Audio11.wav,25.132359700044617,25.115087499935182,1,[2.3686783998273313],[2.3686814999673516],0,,,,,,,,,,,,,,,,,,,,,,,,,,,,,,,,,,,,,,,,,,,,,,,,,,,,,,,,,,,,,,,,,,,,,,,,,,,,,,,,,,,,,,,,,,,,,,,,,,,,,,,,,,,,,2024-07-01_13h53.21.248,HideSeek_v1,2023.1.3,59.93457544953925,
,,,,,,,,,,,,0,0,0,0,11,0,11,0,,,,,,,,,,,,,,,,,,,,,,,stimuli/instructions/Slide12.png,stimuli/instructions/Audio12.wav,27.58312109997496,27.56620889995247,1,[0.40772779984399676],[0.4077345998957753],0,,,,,,,,,,,,,,,,,,,,,,,,,,,,,,,,,,,,,,,,,,,,,,,,,,,,,,,,,,,,,,,,,,,,,,,,,,,,,,,,,,,,,,,,,,,,,,,,,,,,,,,,,,,,,2024-07-01_13h53.21.248,HideSeek_v1,2023.1.3,59.93457544953925,
1,0,3,0,8,0,5,66,2,instr_dim1_1,,,0,0,0,0,,,,,0,0,0,0,,,,,,,,,,,,,,,,,,,,,,,,,,,,,stimuli/alien_stimuli/66.png,conditions/inputInstr_1.xlsx,stimuli/alien_stimuli/66.png,28.168326900107786,28.168326900107786,28.168326900107786,28.168326900107786,28.066372800059618,return,6.315267599886283,None,"[-0.16, -0.08, 0, 0.08, 0.16, 0.24, 0.32, 0.4, 0.48, 0.56]","[-0.4, -0.32, -0.24, -0.16, -0.08, 0, 0.08, 0.16, 0.24, 0.32]",8,3,0,0,0.4,0.0,34.73275430011563,34.73275430011563,34.73275430011563,34.73275430011563,34.73275430011563,34.73275430011563,34.73275430011563,34.682280500093476,0.7340710998978466,return,0.4851273000240326,None,stimuli/alien_stimuli/66.png,66,0,1,,,,,,,,,,,,,,,,,,,,,,,,,,,,,,,,,,,,,,,,,,,,,,,,,,,,,,,,,,,,,,,,,,,,,,,,2024-07-01_13h53.21.248,HideSeek_v1,2023.1.3,59.93457544953925,
,,,,,,,,,,,24,0,0,0,0,,,,,,,,,,,,,,,,,,,,,,,,,,,,,,,,,,,,,,,,,,,,,,,,,,,,,,,,,,,,,,,,,,,,,,,,17,0.7,0,0,99,1,24,0,conditions/inputTrain_1.1.xlsx,99,1,1,1,0,,,,,,,,,,,,,,,,,,,,,,,,,,,,,,,,,,,,,,,,,,,,,,,,,,,,,,,,,,2024-07-01_13h53.21.248,HideSeek_v1,2023.1.3,59.93457544953925,
,,,,,,,,,,,,1,0,1,0,0,0,0,0,,,,,,,,,,,,,,,,,,,,,,,stimuli/instructions/Slide13.png,stimuli/instructions/Audio13.wav,35.38626409997232,35.38250550008379,1,[3.597231199964881],[3.597236900124699],0,,,,,,,,,,,,,,,,,,,,,,,,,,,,,,,,,,,,,,,,,,,,,,,,,,,,,,,,,,,,,,,,,,,,,,,,,,,,,,,,,,,,,,,,,,,,,,,,,,,,,,,,,,,,,2024-07-01_13h53.21.248,HideSeek_v1,2023.1.3,59.93457544953925,
,,,,,,,,,,,,1,0,1,0,1,0,1,0,,,,,,,,,,,,,,,,,,,,,,,stimuli/instructions/Slide14.png,stimuli/instructions/Audio14.wav,39.06593169993721,39.04986619995907,1,[0.7677442000713199],[0.7677490001078695],0,,,,,,,,,,,,,,,,,,,,,,,,,,,,,,,,,,,,,,,,,,,,,,,,,,,,,,,,,,,,,,,,,,,,,,,,,,,,,,,,,,,,,,,,,,,,,,,,,,,,,,,,,,,,,2024-07-01_13h53.21.248,HideSeek_v1,2023.1.3,59.93457544953925,
2,2,3,2,3,0,0,61,2,instr_dim1_1,,,1,0,1,0,,,,,0,0,0,0,,,,,,,,,,,,,,,,,,,,,,,,,,,,,stimuli/alien_stimuli/61.png,conditions/inputInstr_1.xlsx,stimuli/alien_stimuli/61.png,39.914846800034866,39.914846800034866,39.914846800034866,39.914846800034866,39.89948539994657,return,1.3180420000571758,None,"[-0.16, -0.08, 0, 0.08, 0.16, 0.24, 0.32, 0.4, 0.48, 0.56]","[-0.4, -0.32, -0.24, -0.16, -0.08, 0, 0.08, 0.16, 0.24, 0.32]",3,3,2,2,0.0,0.0,41.43333599995822,41.43333599995822,41.43333599995822,41.43333599995822,41.43333599995822,41.43333599995822,41.43333599995822,41.41578290006146,0.5002158998977393,return,0.30886839982122183,None,stimuli/alien_stimuli/61.png,61,2,2,,,,,,,,,,,,,,,,,,,,,,,,,,,,,,,,,,,,,,,,,,,,,,,,,,,,,,,,,,,,,,,,,,,,,,,,2024-07-01_13h53.21.248,HideSeek_v1,2023.1.3,59.93457544953925,
,,,,,,,,,,,24,1,0,1,0,,,,,,,,,,,,,,,,,,,,,,,,,,,,,,,,,,,,,,,,,,,,,,,,,,,,,,,,,,,,,,,,,,,,,,,,17,0.7,0,0,99,1,24,0,conditions/inputTrain_1.1.xlsx,99,1,1,1,0,,,,,,,,,,,,,,,,,,,,,,,,,,,,,,,,,,,,,,,,,,,,,,,,,,,,,,,,,,2024-07-01_13h53.21.248,HideSeek_v1,2023.1.3,59.93457544953925,
,,,,,,,,,,,,2,0,2,0,0,0,0,0,,,,,,,,,,,,,,,,,,,,,,,stimuli/instructions/Slide15.png,stimuli/instructions/Audio15.wav,41.96570429997519,41.94841389991343,1,[47.626334300031886],[47.626339100068435],0,,,,,,,,,,,,,,,,,,,,,,,,,,,,,,,,,,,,,,,,,,,,,,,,,,,,,,,,,,,,,,,,,,,,,,,,,,,,,,,,,,,,,,,,,,,,,,,,,,,,,,,,,,,,,2024-07-01_13h53.21.248,HideSeek_v1,2023.1.3,59.93457544953925,
,,,,,,,,,,,,2,0,2,0,1,0,1,0,,,,,,,,,,,,,,,,,,,,,,,stimuli/instructions/Slide16.png,stimuli/instructions/Audio16.wav,89.66689269989729,89.66506479997187,1,[2.2151703000999987],[2.2151750000193715],0,,,,,,,,,,,,,,,,,,,,,,,,,,,,,,,,,,,,,,,,,,,,,,,,,,,,,,,,,,,,,,,,,,,,,,,,,,,,,,,,,,,,,,,,,,,,,,,,,,,,,,,,,,,,,2024-07-01_13h53.21.248,HideSeek_v1,2023.1.3,59.93457544953925,
,2,0,2,1,0,1,62,,train_dim1_1,1,24,2,0,2,0,,,,,,,,,0,0,0,0,0,0,0,0,0,0,0,0,,,,,,,,,,,,,,,,,stimuli/alien_stimuli/62.png,,,,,,,,,,,,,,,,,,,,,,,,,,,,,,,,,,,,,,,,,24,,,,,,,,91.98131390009075,91.98131390009075,91.98131390009075,91.98131390009075,91.98131390009075,0,0,0,-0.4,return,2.4177713999524713,0,0,0,0,-0.4,return,2.309910099953413,None,,,,,,,,,,,,,,,,,,,,,,,,,,,,,,,,,,,,,,,2024-07-01_13h53.21.248,HideSeek_v1,2023.1.3,59.93457544953925,
,2,2,2,5,0,3,64,,train_dim1_1,2,24,2,0,2,0,,,,,,,,,0,0,0,0,0,1,1,1,0,0,0,0,,,,,,,,,,,,,,,,,stimuli/alien_stimuli/64.png,,,,,,,,,,,,,,,,,,,,,,,,,,,,,,,stimuli/alien_stimuli/62.png,62,2,3,,,,,,,24,,,,,,,,100.2373563000001,100.2373563000001,100.2373563000001,100.2373563000001,100.2373563000001,,,,,up,1.7584456999320537,0,0,99,0,-0.15999999999999998,up,1.6436625001952052,None,98.64856070000678,100.2373563000001,0,-0.32,0.08,0.0,-0.36,0,0.0,0,-0.32,95.98540390003473,95.98540390003473,95.98540390003473,95.98540390003473,95.98540390003473,95.98540390003473,95.98540390003473,95.98540390003473,95.94854809991084,2.818118599941954,return,2.643576799891889,None,,,,,,,,,,,,,,,2024-07-01_13h53.21.248,HideSeek_v1,2023.1.3,59.93457544953925,
,2,2,2,5,0,3,64,,train_dim1_1,2,24,2,0,2,0,,,,,,,,,0,0,0,0,0,1,1,1,1,0,1,0,,,,,,,,,,,,,,,,,,,,,,,,,,,,,,,,,,,,,,,,,,,,,,,,,,,,,,,,,,24,,,,,,,,101.98207750008442,101.98207750008442,101.98207750008442,101.98207750008442,101.98207750008442,,,,,up,0.4101607999764383,0,0,99,0,-0.07999999999999997,up,0.30822360003367066,None,,,,,,,,,,,,,,,,,,,,,,,,,,,,,,,,,,,,,,,2024-07-01_13h53.21.248,HideSeek_v1,2023.1.3,59.93457544953925,
,2,2,2,5,0,3,64,,train_dim1_1,2,24,2,0,2,0,,,,,,,,,0,0,0,0,0,1,1,1,2,0,2,0,,,,,,,,,,,,,,,,,,,,,,,,,,,,,,,,,,,,,,,,,,,,,,,,,,,,,,,,,,24,,,,,,,,102.3988908000756,102.3988908000756,102.3988908000756,102.3988908000756,102.3988908000756,,,,,up,0.36000710004009306,0,0,99,0,2.7755575615628914e-17,up,0.2639981999527663,None,,,,,,,,,,,,,,,,,,,,,,,,,,,,,,,,,,,,,,,2024-07-01_13h53.21.248,HideSeek_v1,2023.1.3,59.93457544953925,
,2,2,2,5,0,3,64,,train_dim1_1,2,24,2,0,2,0,,,,,,,,,0,0,0,0,0,1,1,1,3,0,3,0,,,,,,,,,,,,,,,,,,,,,,,,,,,,,,,,,,,,,,,,,,,,,,,,,,,,,,,,,,24,,,,,,,,102.7648297001142,102.7648297001142,102.7648297001142,102.7648297001142,102.7648297001142,3,0,0,2.7755575615628914e-17,return,0.41075120004825294,1,0,1,0,2.7755575615628914e-17,return,0.31161150010302663,None,,,,,,,,,,,,,,,,,,,,,,,,,,,,,,,,,,,,,,,2024-07-01_13h53.21.248,HideSeek_v1,2023.1.3,59.93457544953925,
,3,3,3,8,0,5,66,,train_dim1_1,3,24,2,0,2,0,,,,,,,,,0,0,0,0,0,2,2,2,0,0,0,0,,,,,,,,,,,,,,,,,stimuli/alien_stimuli/66.png,,,,,,,,,,,,,,,,,,,,,,,,,,,,,,,stimuli/alien_stimuli/64.png,64,2,4,,,,,,,24,,,,,,,,108.2985606000293,108.2985606000293,108.2985606000293,108.2985606000293,108.2985606000293,,,,,up,0.5914308000355959,1,0,99,0.08,-0.08,up,0.489100799895823,None,106.73158930009231,108.2985606000293,0,0,0.24,0.0,-0.12,0,0.0,0,0,104.7327519999817,104.7327519999817,104.7327519999817,104.7327519999817,104.7327519999817,104.7327519999817,104.7327519999817,104.7327519999817,104.71489280001259,2.1175147998146713,return,1.9807674998883158,None,,,,,,,,,,,,,,,2024-07-01_13h53.21.248,HideSeek_v1,2023.1.3,59.93457544953925,
,3,3,3,8,0,5,66,,train_dim1_1,3,24,2,0,2,0,,,,,,,,,0,0,0,0,0,2,2,2,1,0,1,0,,,,,,,,,,,,,,,,,,,,,,,,,,,,,,,,,,,,,,,,,,,,,,,,,,,,,,,,,,24,,,,,,,,108.8988485999871,108.8988485999871,108.8988485999871,108.8988485999871,108.8988485999871,,,,,up,0.3099374999292195,1,0,99,0.08,0.0,up,0.2028753999620676,None,,,,,,,,,,,,,,,,,,,,,,,,,,,,,,,,,,,,,,,2024-07-01_13h53.21.248,HideSeek_v1,2023.1.3,59.93457544953925,
,3,3,3,8,0,5,66,,train_dim1_1,3,24,2,0,2,0,,,,,,,,,0,0,0,0,0,2,2,2,2,0,2,0,,,,,,,,,,,,,,,,,,,,,,,,,,,,,,,,,,,,,,,,,,,,,,,,,,,,,,,,,,24,,,,,,,,109.24623510008678,109.24623510008678,109.24623510008678,109.24623510008678,109.24623510008678,,,,,up,0.26051519997417927,1,0,99,0.08,0.08,up,0.12265200004912913,None,,,,,,,,,,,,,,,,,,,,,,,,,,,,,,,,,,,,,,,2024-07-01_13h53.21.248,HideSeek_v1,2023.1.3,59.93457544953925,
,3,3,3,8,0,5,66,,train_dim1_1,3,24,2,0,2,0,,,,,,,,,0,0,0,0,0,2,2,2,3,0,3,0,,,,,,,,,,,,,,,,,,,,,,,,,,,,,,,,,,,,,,,,,,,,,,,,,,,,,,,,,,24,,,,,,,,109.48185229999945,109.48185229999945,109.48185229999945,109.48185229999945,109.48185229999945,,,,,up,0.2935552999842912,1,0,99,0.08,0.16,up,0.19866160000674427,None,,,,,,,,,,,,,,,,,,,,,,,,,,,,,,,,,,,,,,,2024-07-01_13h53.21.248,HideSeek_v1,2023.1.3,59.93457544953925,
,3,3,3,8,0,5,66,,train_dim1_1,3,24,2,0,2,0,,,,,,,,,0,0,0,0,0,2,2,2,4,0,4,0,,,,,,,,,,,,,,,,,,,,,,,,,,,,,,,,,,,,,,,,,,,,,,,,,,,,,,,,,,24,,,,,,,,109.78152390010655,109.78152390010655,109.78152390010655,109.78152390010655,109.78152390010655,,,,,up,0.260424799984321,1,0,99,0.08,0.24,up,0.16222069994546473,None,,,,,,,,,,,,,,,,,,,,,,,,,,,,,,,,,,,,,,,2024-07-01_13h53.21.248,HideSeek_v1,2023.1.3,59.93457544953925,
,3,3,3,8,0,5,66,,train_dim1_1,3,24,2,0,2,0,,,,,,,,,0,0,0,0,0,2,2,2,5,0,5,0,,,,,,,,,,,,,,,,,,,,,,,,,,,,,,,,,,,,,,,,,,,,,,,,,,,,,,,,,,24,,,,,,,,110.0480164999608,110.0480164999608,110.0480164999608,110.0480164999608,110.0480164999608,8,0,0.08,0.24,return,0.3287070000078529,2,0,1,0.08,0.24,return,0.2288152000401169,None,,,,,,,,,,,,,,,,,,,,,,,,,,,,,,,,,,,,,,,2024-07-01_13h53.21.248,HideSeek_v1,2023.1.3,59.93457544953925,
,4,4,4,8,0,4,65,,train_dim1_1,4,24,2,0,2,0,,,,,,,,,0,0,0,0,0,3,3,3,0,0,0,0,,,,,,,,,,,,,,,,,stimuli/alien_stimuli/65.png,,,,,,,,,,,,,,,,,,,,,,,,,,,,,,,stimuli/alien_stimuli/66.png,66,3,5,,,,,,,24,,,,,,,,115.91575970011763,115.91575970011763,115.91575970011763,115.91575970011763,115.91575970011763,,,,,up,4.575011099921539,2,0,99,0.16,0.0,up,4.47844920004718,None,114.34831600007601,115.91575970011763,0.08,0.24,0.4,0.0,0.039999999999999994,0.08,0.08,0.08,0.24,111.94866929994896,111.94866929994896,111.94866929994896,111.94866929994896,111.94866929994896,111.94866929994896,111.94866929994896,111.94866929994896,111.9316171999555,2.5181448999792337,return,2.3689284999854863,None,,,,,,,,,,,,,,,2024-07-01_13h53.21.248,HideSeek_v1,2023.1.3,59.93457544953925,
,4,4,4,8,0,4,65,,train_dim1_1,4,24,2,0,2,0,,,,,,,,,0,0,0,0,0,3,3,3,1,0,1,0,,,,,,,,,,,,,,,,,,,,,,,,,,,,,,,,,,,,,,,,,,,,,,,,,,,,,,,,,,24,,,,,,,,120.49878340004943,120.49878340004943,120.49878340004943,120.49878340004943,120.49878340004943,,,,,up,0.31036089989356697,2,0,99,0.16,0.08,up,0.21392329991795123,None,,,,,,,,,,,,,,,,,,,,,,,,,,,,,,,,,,,,,,,2024-07-01_13h53.21.248,HideSeek_v1,2023.1.3,59.93457544953925,
,4,4,4,8,0,4,65,,train_dim1_1,4,24,2,0,2,0,,,,,,,,,0,0,0,0,0,3,3,3,2,0,2,0,,,,,,,,,,,,,,,,,,,,,,,,,,,,,,,,,,,,,,,,,,,,,,,,,,,,,,,,,,24,,,,,,,,120.81496690004133,120.81496690004133,120.81496690004133,120.81496690004133,120.81496690004133,,,,,up,0.277132699964568,2,0,99,0.16,0.16,up,0.1738795000128448,None,,,,,,,,,,,,,,,,,,,,,,,,,,,,,,,,,,,,,,,2024-07-01_13h53.21.248,HideSeek_v1,2023.1.3,59.93457544953925,
,4,4,4,8,0,4,65,,train_dim1_1,4,24,2,0,2,0,,,,,,,,,0,0,0,0,0,3,3,3,3,0,3,0,,,,,,,,,,,,,,,,,,,,,,,,,,,,,,,,,,,,,,,,,,,,,,,,,,,,,,,,,,24,,,,,,,,121.09870210010558,121.09870210010558,121.09870210010558,121.09870210010558,121.09870210010558,,,,,up,0.2602694998495281,2,0,99,0.16,0.24,up,0.1580660999752581,None,,,,,,,,,,,,,,,,,,,,,,,,,,,,,,,,,,,,,,,2024-07-01_13h53.21.248,HideSeek_v1,2023.1.3,59.93457544953925,
,4,4,4,8,0,4,65,,train_dim1_1,4,24,2,0,2,0,,,,,,,,,0,0,0,0,0,3,3,3,4,0,4,0,,,,,,,,,,,,,,,,,,,,,,,,,,,,,,,,,,,,,,,,,,,,,,,,,,,,,,,,,,24,,,,,,,,121.36482589994557,121.36482589994557,121.36482589994557,121.36482589994557,121.36482589994557,12,0,0.16,0.24,return,0.3938442999497056,3,0,1,0.16,0.24,return,0.295771999983117,None,,,,,,,,,,,,,,,,,,,,,,,,,,,,,,,,,,,,,,,2024-07-01_13h53.21.248,HideSeek_v1,2023.1.3,59.93457544953925,
,3,4,3,5,0,1,62,,train_dim1_1,5,24,2,0,2,0,,,,,,,,,0,0,0,0,0,4,4,4,0,0,0,0,,,,,,,,,,,,,,,,,stimuli/alien_stimuli/62.png,,,,,,,,,,,,,,,,,,,,,,,,,,,,,,,stimuli/alien_stimuli/65.png,65,4,6,,,,,,,24,,,,,,,,152.1846153999213,152.1846153999213,152.1846153999213,152.1846153999213,152.1846153999213,,,,,up,0.5416236999444664,3,0,99,0.08,0.0,up,0.4258785001002252,None,150.5977141999174,152.1846153999213,0.16,0.24,0.32,0.0,0.07999999999999999,0.16,0.16,0.16,0.24,123.34875290002674,123.34875290002674,123.34875290002674,123.34875290002674,123.34875290002674,123.34875290002674,123.34875290002674,123.34875290002674,123.3314153001178,27.400601800065488,return,27.219038600102067,0.0012264000251889229,,,,,,,,,,,,,,,2024-07-01_13h53.21.248,HideSeek_v1,2023.1.3,59.93457544953925,
,3,4,3,5,0,1,62,,train_dim1_1,5,24,2,0,2,0,,,,,,,,,0,0,0,0,0,4,4,4,1,0,1,0,,,,,,,,,,,,,,,,,,,,,,,,,,,,,,,,,,,,,,,,,,,,,,,,,,,,,,,,,,24,,,,,,,,152.7145960999187,152.7145960999187,152.7145960999187,152.7145960999187,152.7145960999187,13,0,0.08,0.0,return,0.3431504999753088,4,0,1,0.08,0.0,return,0.23729889979586005,None,,,,,,,,,,,,,,,,,,,,,,,,,,,,,,,,,,,,,,,2024-07-01_13h53.21.248,HideSeek_v1,2023.1.3,59.93457544953925,
,4,0,4,4,0,4,65,,train_dim1_1,6,24,2,0,2,0,,,,,,,,,0,0,0,0,0,5,5,5,0,0,0,0,,,,,,,,,,,,,,,,,stimuli/alien_stimuli/65.png,,,,,,,,,,,,,,,,,,,,,,,,,,,,,,,stimuli/alien_stimuli/62.png,62,3,7,,,,,,,24,,,,,,,,157.731288400013,157.731288400013,157.731288400013,157.731288400013,157.731288400013,,,,,up,0.5078838998451829,4,0,99,0.16,-0.32,up,0.4144098998513073,None,156.16448900010437,157.731288400013,0.08,0,0.08,0.0,-0.04,0.08,0.08,0.08,0,154.62959920009598,154.62959920009598,154.62959920009598,154.62959920009598,154.62959920009598,154.62959920009598,154.62959920009598,154.62959920009598,154.61446890006772,1.6520445998758078,return,1.5132750000339001,None,,,,,,,,,,,,,,,2024-07-01_13h53.21.248,HideSeek_v1,2023.1.3,59.93457544953925,
,4,0,4,4,0,4,65,,train_dim1_1,6,24,2,0,2,0,,,,,,,,,0,0,0,0,0,5,5,5,1,0,1,0,,,,,,,,,,,,,,,,,,,,,,,,,,,,,,,,,,,,,,,,,,,,,,,,,,,,,,,,,,24,,,,,,,,158.24850760004483,158.24850760004483,158.24850760004483,158.24850760004483,158.24850760004483,,,,,up,0.3265176999848336,4,0,99,0.16,-0.24,up,0.2237450999673456,None,,,,,,,,,,,,,,,,,,,,,,,,,,,,,,,,,,,,,,,2024-07-01_13h53.21.248,HideSeek_v1,2023.1.3,59.93457544953925,
,4,0,4,4,0,4,65,,train_dim1_1,6,24,2,0,2,0,,,,,,,,,0,0,0,0,0,5,5,5,2,0,2,0,,,,,,,,,,,,,,,,,,,,,,,,,,,,,,,,,,,,,,,,,,,,,,,,,,,,,,,,,,24,,,,,,,,158.58113959990442,158.58113959990442,158.58113959990442,158.58113959990442,158.58113959990442,,,,,up,0.3436526998411864,4,0,99,0.16,-0.15999999999999998,up,0.23733309982344508,None,,,,,,,,,,,,,,,,,,,,,,,,,,,,,,,,,,,,,,,2024-07-01_13h53.21.248,HideSeek_v1,2023.1.3,59.93457544953925,
,4,0,4,4,0,4,65,,train_dim1_1,6,24,2,0,2,0,,,,,,,,,0,0,0,0,0,5,5,5,3,0,3,0,,,,,,,,,,,,,,,,,,,,,,,,,,,,,,,,,,,,,,,,,,,,,,,,,,,,,,,,,,24,,,,,,,,158.93151900009252,158.93151900009252,158.93151900009252,158.93151900009252,158.93151900009252,,,,,up,0.4273326999973506,4,0,99,0.16,-0.07999999999999997,up,0.3301357999444008,None,,,,,,,,,,,,,,,,,,,,,,,,,,,,,,,,,,,,,,,2024-07-01_13h53.21.248,HideSeek_v1,2023.1.3,59.93457544953925,
,4,0,4,4,0,4,65,,train_dim1_1,6,24,2,0,2,0,,,,,,,,,0,0,0,0,0,5,5,5,4,0,4,0,,,,,,,,,,,,,,,,,,,,,,,,,,,,,,,,,,,,,,,,,,,,,,,,,,,,,,,,,,24,,,,,,,,159.36460709990934,159.36460709990934,159.36460709990934,159.36460709990934,159.36460709990934,17,0,0.16,-0.07999999999999997,return,0.627251299796626,5,0,1,0.16,-0.07999999999999997,return,0.5312143000774086,None,,,,,,,,,,,,,,,,,,,,,,,,,,,,,,,,,,,,,,,2024-07-01_13h53.21.248,HideSeek_v1,2023.1.3,59.93457544953925,
,0,3,0,6,0,3,64,,train_dim1_1,7,24,2,0,2,0,,,,,,,,,0,0,0,0,0,6,6,6,0,0,0,0,,,,,,,,,,,,,,,,,stimuli/alien_stimuli/64.png,,,,,,,,,,,,,,,,,,,,,,,,,,,,,,,stimuli/alien_stimuli/65.png,65,4,8,,,,,,,24,,,,,,,,163.6480545999948,163.6480545999948,163.6480545999948,163.6480545999948,163.6480545999948,,,,,up,0.4399840000551194,5,0,99,-0.16,-0.08,up,0.3452777999918908,None,162.08094780007377,163.6480545999948,0.16,-0.08,0.32,0.0,-0.24000000000000002,0.16,0.16,0.16,-0.08,161.54853189992718,161.54853189992718,161.54853189992718,161.54853189992718,161.54853189992718,161.54853189992718,161.54853189992718,161.54853189992718,161.53101620012893,0.6510928999632597,return,0.5020252000540495,None,,,,,,,,,,,,,,,2024-07-01_13h53.21.248,HideSeek_v1,2023.1.3,59.93457544953925,
,0,3,0,6,0,3,64,,train_dim1_1,7,24,2,0,2,0,,,,,,,,,0,0,0,0,0,6,6,6,1,0,1,0,,,,,,,,,,,,,,,,,,,,,,,,,,,,,,,,,,,,,,,,,,,,,,,,,,,,,,,,,,24,,,,,,,,164.13466960005462,164.13466960005462,164.13466960005462,164.13466960005462,164.13466960005462,,,,,up,0.3264047000557184,5,0,99,-0.16,0.0,up,0.18874909984879196,None,,,,,,,,,,,,,,,,,,,,,,,,,,,,,,,,,,,,,,,2024-07-01_13h53.21.248,HideSeek_v1,2023.1.3,59.93457544953925,
,0,3,0,6,0,3,64,,train_dim1_1,7,24,2,0,2,0,,,,,,,,,0,0,0,0,0,6,6,6,2,0,2,0,,,,,,,,,,,,,,,,,,,,,,,,,,,,,,,,,,,,,,,,,,,,,,,,,,,,,,,,,,24,,,,,,,,164.4312203999143,164.4312203999143,164.4312203999143,164.4312203999143,164.4312203999143,,,,,up,0.3107227000873536,5,0,99,-0.16,0.08,up,0.20667379978112876,None,,,,,,,,,,,,,,,,,,,,,,,,,,,,,,,,,,,,,,,2024-07-01_13h53.21.248,HideSeek_v1,2023.1.3,59.93457544953925,
,0,3,0,6,0,3,64,,train_dim1_1,7,24,2,0,2,0,,,,,,,,,0,0,0,0,0,6,6,6,3,0,3,0,,,,,,,,,,,,,,,,,,,,,,,,,,,,,,,,,,,,,,,,,,,,,,,,,,,,,,,,,,24,,,,,,,,164.7478664999362,164.7478664999362,164.7478664999362,164.7478664999362,164.7478664999362,20,0,-0.16,0.08,return,0.32755069993436337,6,0,1,-0.16,0.08,return,0.21847220021300018,None,,,,,,,,,,,,,,,,,,,,,,,,,,,,,,,,,,,,,,,2024-07-01_13h53.21.248,HideSeek_v1,2023.1.3,59.93457544953925,
,4,1,4,6,0,5,66,,train_dim1_1,8,24,2,0,2,0,,,,,,,,,0,0,0,0,0,7,7,7,0,0,0,0,,,,,,,,,,,,,,,,,stimuli/alien_stimuli/66.png,,,,,,,,,,,,,,,,,,,,,,,,,,,,,,,stimuli/alien_stimuli/64.png,64,0,9,,,,,,,24,,,,,,,,168.71631649998017,168.71631649998017,168.71631649998017,168.71631649998017,168.71631649998017,,,,,up,0.5083916001021862,6,0,99,0.16,-0.24,up,0.42115569999441504,None,167.1649285000749,168.71631649998017,-0.16,0.08,0.24,0.0,-0.04,-0.16,-0.16,-0.16,0.08,166.6483265000861,166.6483265000861,166.6483265000861,166.6483265000861,166.6483265000861,166.6483265000861,166.6483265000861,166.6483265000861,166.6309396999888,0.6366449999623001,return,0.49065020005218685,None,,,,,,,,,,,,,,,2024-07-01_13h53.21.248,HideSeek_v1,2023.1.3,59.93457544953925,
,4,1,4,6,0,5,66,,train_dim1_1,8,24,2,0,2,0,,,,,,,,,0,0,0,0,0,7,7,7,1,0,1,0,,,,,,,,,,,,,,,,,,,,,,,,,,,,,,,,,,,,,,,,,,,,,,,,,,,,,,,,,,24,,,,,,,,169.2477579000406,169.2477579000406,169.2477579000406,169.2477579000406,169.2477579000406,,,,,up,0.31113120005466044,6,0,99,0.16,-0.15999999999999998,up,0.21142020006664097,None,,,,,,,,,,,,,,,,,,,,,,,,,,,,,,,,,,,,,,,2024-07-01_13h53.21.248,HideSeek_v1,2023.1.3,59.93457544953925,
,4,1,4,6,0,5,66,,train_dim1_1,8,24,2,0,2,0,,,,,,,,,0,0,0,0,0,7,7,7,2,0,2,0,,,,,,,,,,,,,,,,,,,,,,,,,,,,,,,,,,,,,,,,,,,,,,,,,,,,,,,,,,24,,,,,,,,169.5643213998992,169.5643213998992,169.5643213998992,169.5643213998992,169.5643213998992,,,,,up,0.32556849997490644,6,0,99,0.16,-0.07999999999999997,up,0.21758029982447624,None,,,,,,,,,,,,,,,,,,,,,,,,,,,,,,,,,,,,,,,2024-07-01_13h53.21.248,HideSeek_v1,2023.1.3,59.93457544953925,
,4,1,4,6,0,5,66,,train_dim1_1,8,24,2,0,2,0,,,,,,,,,0,0,0,0,0,7,7,7,3,0,3,0,,,,,,,,,,,,,,,,,,,,,,,,,,,,,,,,,,,,,,,,,,,,,,,,,,,,,,,,,,24,,,,,,,,169.88477270002477,169.88477270002477,169.88477270002477,169.88477270002477,169.88477270002477,,,,,up,0.36098260013386607,6,0,99,0.16,2.7755575615628914e-17,up,0.27843710011802614,None,,,,,,,,,,,,,,,,,,,,,,,,,,,,,,,,,,,,,,,2024-07-01_13h53.21.248,HideSeek_v1,2023.1.3,59.93457544953925,
,4,1,4,6,0,5,66,,train_dim1_1,8,24,2,0,2,0,,,,,,,,,0,0,0,0,0,7,7,7,4,0,4,0,,,,,,,,,,,,,,,,,,,,,,,,,,,,,,,,,,,,,,,,,,,,,,,,,,,,,,,,,,24,,,,,,,,170.28842839994468,170.28842839994468,170.28842839994468,170.28842839994468,170.28842839994468,,,,,up,0.3444345002062619,6,0,99,0.16,0.08000000000000003,up,0.21982110012322664,None,,,,,,,,,,,,,,,,,,,,,,,,,,,,,,,,,,,,,,,2024-07-01_13h53.21.248,HideSeek_v1,2023.1.3,59.93457544953925,
,4,1,4,6,0,5,66,,train_dim1_1,8,24,2,0,2,0,,,,,,,,,0,0,0,0,0,7,7,7,5,0,5,0,,,,,,,,,,,,,,,,,,,,,,,,,,,,,,,,,,,,,,,,,,,,,,,,,,,,,,,,,,24,,,,,,,,170.6144234999083,170.6144234999083,170.6144234999083,170.6144234999083,170.6144234999083,25,0,0.16,0.08000000000000003,return,0.31096150004304945,7,0,1,0.16,0.08000000000000003,return,0.21806180011481047,None,,,,,,,,,,,,,,,,,,,,,,,,,,,,,,,,,,,,,,,2024-07-01_13h53.21.248,HideSeek_v1,2023.1.3,59.93457544953925,
,1,3,1,6,0,3,64,,train_dim1_1,9,24,2,0,2,0,,,,,,,,,0,0,0,0,0,8,8,8,0,0,0,0,,,,,,,,,,,,,,,,,stimuli/alien_stimuli/64.png,,,,,,,,,,,,,,,,,,,,,,,,,,,,,,,stimuli/alien_stimuli/66.png,66,4,10,,,,,,,24,,,,,,,,174.58111750008538,174.58111750008538,174.58111750008538,174.58111750008538,174.58111750008538,,,,,up,0.723730199970305,7,0,99,-0.08,-0.08,up,0.6237409999594092,None,173.01481020008214,174.58111750008538,0.16,0.08,0.4,0.0,-0.12,0.16,0.16,0.16,0.08,172.48168259998783,172.48168259998783,172.48168259998783,172.48168259998783,172.48168259998783,172.48168259998783,172.48168259998783,172.48168259998783,172.46418370008467,0.6525598000735044,return,0.511491300072521,None,,,,,,,,,,,,,,,2024-07-01_13h53.21.248,HideSeek_v1,2023.1.3,59.93457544953925,
,1,3,1,6,0,3,64,,train_dim1_1,9,24,2,0,2,0,,,,,,,,,0,0,0,0,0,8,8,8,1,0,1,0,,,,,,,,,,,,,,,,,,,,,,,,,,,,,,,,,,,,,,,,,,,,,,,,,,,,,,,,,,24,,,,,,,,175.31416680011898,175.31416680011898,175.31416680011898,175.31416680011898,175.31416680011898,,,,,up,0.37712409999221563,7,0,99,-0.08,0.0,up,0.27086049993522465,None,,,,,,,,,,,,,,,,,,,,,,,,,,,,,,,,,,,,,,,2024-07-01_13h53.21.248,HideSeek_v1,2023.1.3,59.93457544953925,
,1,3,1,6,0,3,64,,train_dim1_1,9,24,2,0,2,0,,,,,,,,,0,0,0,0,0,8,8,8,2,0,2,0,,,,,,,,,,,,,,,,,,,,,,,,,,,,,,,,,,,,,,,,,,,,,,,,,,,,,,,,,,24,,,,,,,,175.7144464000594,175.7144464000594,175.7144464000594,175.7144464000594,175.7144464000594,,,,,up,0.3090578999835998,7,0,99,-0.08,0.08,up,0.18521269992925227,None,,,,,,,,,,,,,,,,,,,,,,,,,,,,,,,,,,,,,,,2024-07-01_13h53.21.248,HideSeek_v1,2023.1.3,59.93457544953925,
,1,3,1,6,0,3,64,,train_dim1_1,9,24,2,0,2,0,,,,,,,,,0,0,0,0,0,8,8,8,3,0,3,0,,,,,,,,,,,,,,,,,,,,,,,,,,,,,,,,,,,,,,,,,,,,,,,,,,,,,,,,,,24,,,,,,,,176.01483149989508,176.01483149989508,176.01483149989508,176.01483149989508,176.01483149989508,28,0,-0.08,0.08,return,0.9110695000272244,8,0,1,-0.08,0.08,return,0.8129521000664681,None,,,,,,,,,,,,,,,,,,,,,,,,,,,,,,,,,,,,,,,2024-07-01_13h53.21.248,HideSeek_v1,2023.1.3,59.93457544953925,
,0,0,0,4,0,4,65,,train_dim1_1,10,24,2,0,2,0,,,,,,,,,0,0,0,0,0,9,9,9,0,0,0,0,,,,,,,,,,,,,,,,,stimuli/alien_stimuli/65.png,,,,,,,,,,,,,,,,,,,,,,,,,,,,,,,stimuli/alien_stimuli/64.png,64,1,11,,,,,,,24,,,,,,,,180.51431460003369,180.51431460003369,180.51431460003369,180.51431460003369,180.51431460003369,,,,,up,0.4744684000033885,8,0,99,-0.16,-0.32,up,0.3709397001657635,None,178.94755299994722,180.51431460003369,-0.08,0.08,0.24,0.0,-0.04,-0.08,-0.08,-0.08,0.08,178.49768120003864,178.49768120003864,178.49768120003864,178.49768120003864,178.49768120003864,178.49768120003864,178.49768120003864,178.49768120003864,178.48088640002533,0.5688366999384016,return,0.4300623000599444,None,,,,,,,,,,,,,,,2024-07-01_13h53.21.248,HideSeek_v1,2023.1.3,59.93457544953925,
,0,0,0,4,0,4,65,,train_dim1_1,10,24,2,0,2,0,,,,,,,,,0,0,0,0,0,9,9,9,1,0,1,0,,,,,,,,,,,,,,,,,,,,,,,,,,,,,,,,,,,,,,,,,,,,,,,,,,,,,,,,,,24,,,,,,,,180.99793089996092,180.99793089996092,180.99793089996092,180.99793089996092,180.99793089996092,,,,,up,0.32720280019566417,8,0,99,-0.16,-0.24,up,0.22465719981119037,None,,,,,,,,,,,,,,,,,,,,,,,,,,,,,,,,,,,,,,,2024-07-01_13h53.21.248,HideSeek_v1,2023.1.3,59.93457544953925,
,0,0,0,4,0,4,65,,train_dim1_1,10,24,2,0,2,0,,,,,,,,,0,0,0,0,0,9,9,9,2,0,2,0,,,,,,,,,,,,,,,,,,,,,,,,,,,,,,,,,,,,,,,,,,,,,,,,,,,,,,,,,,24,,,,,,,,181.3309907000512,181.3309907000512,181.3309907000512,181.3309907000512,181.3309907000512,,,,,up,0.32638910016976297,8,0,99,-0.16,-0.15999999999999998,up,0.2227742001414299,None,,,,,,,,,,,,,,,,,,,,,,,,,,,,,,,,,,,,,,,2024-07-01_13h53.21.248,HideSeek_v1,2023.1.3,59.93457544953925,
,0,0,0,4,0,4,65,,train_dim1_1,10,24,2,0,2,0,,,,,,,,,0,0,0,0,0,9,9,9,3,0,3,0,,,,,,,,,,,,,,,,,,,,,,,,,,,,,,,,,,,,,,,,,,,,,,,,,,,,,,,,,,24,,,,,,,,181.66404989990406,181.66404989990406,181.66404989990406,181.66404989990406,181.66404989990406,,,,,up,0.2601544000208378,8,0,99,-0.16,-0.07999999999999997,up,0.15927149984054267,None,,,,,,,,,,,,,,,,,,,,,,,,,,,,,,,,,,,,,,,2024-07-01_13h53.21.248,HideSeek_v1,2023.1.3,59.93457544953925,
,0,0,0,4,0,4,65,,train_dim1_1,10,24,2,0,2,0,,,,,,,,,0,0,0,0,0,9,9,9,4,0,4,0,,,,,,,,,,,,,,,,,,,,,,,,,,,,,,,,,,,,,,,,,,,,,,,,,,,,,,,,,,24,,,,,,,,181.93109009996988,181.93109009996988,181.93109009996988,181.93109009996988,181.93109009996988,32,0,-0.16,-0.07999999999999997,return,0.3103564998600632,9,0,1,-0.16,-0.07999999999999997,return,0.20603889995254576,None,,,,,,,,,,,,,,,,,,,,,,,,,,,,,,,,,,,,,,,2024-07-01_13h53.21.248,HideSeek_v1,2023.1.3,59.93457544953925,
,4,2,4,3,0,1,62,,train_dim1_1,11,24,2,0,2,0,,,,,,,,,0,0,0,0,0,10,10,10,0,0,0,0,,,,,,,,,,,,,,,,,stimuli/alien_stimuli/62.png,,,,,,,,,,,,,,,,,,,,,,,,,,,,,,,stimuli/alien_stimuli/65.png,65,0,12,,,,,,,24,,,,,,,,186.731656299904,186.731656299904,186.731656299904,186.731656299904,186.731656299904,,,,,up,0.458786099916324,9,0,99,0.16,-0.15999999999999998,up,0.35561920003965497,None,185.16451829997823,186.731656299904,-0.16,-0.08,0.32,0.0,-0.24000000000000002,-0.16,-0.16,-0.16,-0.08,183.79777680011466,183.79777680011466,183.79777680011466,183.79777680011466,183.79777680011466,183.79777680011466,183.79777680011466,183.79777680011466,183.7811006000731,1.484728300012648,return,1.346592100104317,None,,,,,,,,,,,,,,,2024-07-01_13h53.21.248,HideSeek_v1,2023.1.3,59.93457544953925,
,4,2,4,3,0,1,62,,train_dim1_1,11,24,2,0,2,0,,,,,,,,,0,0,0,0,0,10,10,10,1,0,1,0,,,,,,,,,,,,,,,,,,,,,,,,,,,,,,,,,,,,,,,,,,,,,,,,,,,,,,,,,,24,,,,,,,,187.1976805999875,187.1976805999875,187.1976805999875,187.1976805999875,187.1976805999875,33,0,0.16,-0.15999999999999998,return,0.6269402001053095,10,0,1,0.16,-0.15999999999999998,return,0.5222650999203324,None,,,,,,,,,,,,,,,,,,,,,,,,,,,,,,,,,,,,,,,2024-07-01_13h53.21.248,HideSeek_v1,2023.1.3,59.93457544953925,
,3,0,3,5,0,5,66,,train_dim1_1,12,24,2,0,2,0,,,,,,,,,0,0,0,0,0,11,11,11,0,0,0,0,,,,,,,,,,,,,,,,,stimuli/alien_stimuli/66.png,,,,,,,,,,,,,,,,,,,,,,,,,,,,,,,stimuli/alien_stimuli/62.png,62,4,13,,,,,,,24,,,,,,,,191.46400070004165,191.46400070004165,191.46400070004165,191.46400070004165,191.46400070004165,,,,,up,0.357266099890694,10,0,99,0.08,-0.32,up,0.2588678998872638,None,189.89763269992545,191.46400070004165,0.16,-0.16,0.08,0.0,-0.2,0.16,0.16,0.16,-0.16,189.38140549999662,189.38140549999662,189.38140549999662,189.38140549999662,189.38140549999662,189.38140549999662,189.38140549999662,189.38140549999662,189.36465940000488,0.6344181001186371,return,0.4884695000946522,None,,,,,,,,,,,,,,,2024-07-01_13h53.21.248,HideSeek_v1,2023.1.3,59.93457544953925,
,3,0,3,5,0,5,66,,train_dim1_1,12,24,2,0,2,0,,,,,,,,,0,0,0,0,0,11,11,11,1,0,1,0,,,,,,,,,,,,,,,,,,,,,,,,,,,,,,,,,,,,,,,,,,,,,,,,,,,,,,,,,,24,,,,,,,,191.8332954000216,191.8332954000216,191.8332954000216,191.8332954000216,191.8332954000216,,,,,up,0.27577919978648424,10,0,99,0.08,-0.24,up,0.16879609995521605,None,,,,,,,,,,,,,,,,,,,,,,,,,,,,,,,,,,,,,,,2024-07-01_13h53.21.248,HideSeek_v1,2023.1.3,59.93457544953925,
,3,0,3,5,0,5,66,,train_dim1_1,12,24,2,0,2,0,,,,,,,,,0,0,0,0,0,11,11,11,2,0,2,0,,,,,,,,,,,,,,,,,,,,,,,,,,,,,,,,,,,,,,,,,,,,,,,,,,,,,,,,,,24,,,,,,,,192.11420640000142,192.11420640000142,192.11420640000142,192.11420640000142,192.11420640000142,,,,,up,0.24391159997321665,10,0,99,0.08,-0.15999999999999998,up,0.14099189988337457,None,,,,,,,,,,,,,,,,,,,,,,,,,,,,,,,,,,,,,,,2024-07-01_13h53.21.248,HideSeek_v1,2023.1.3,59.93457544953925,
,3,0,3,5,0,5,66,,train_dim1_1,12,24,2,0,2,0,,,,,,,,,0,0,0,0,0,11,11,11,3,0,3,0,,,,,,,,,,,,,,,,,,,,,,,,,,,,,,,,,,,,,,,,,,,,,,,,,,,,,,,,,,24,,,,,,,,192.36429739999585,192.36429739999585,192.36429739999585,192.36429739999585,192.36429739999585,,,,,up,0.24307249998673797,10,0,99,0.08,-0.07999999999999997,up,0.1401911999564618,None,,,,,,,,,,,,,,,,,,,,,,,,,,,,,,,,,,,,,,,2024-07-01_13h53.21.248,HideSeek_v1,2023.1.3,59.93457544953925,
,3,0,3,5,0,5,66,,train_dim1_1,12,24,2,0,2,0,,,,,,,,,0,0,0,0,0,11,11,11,4,0,4,0,,,,,,,,,,,,,,,,,,,,,,,,,,,,,,,,,,,,,,,,,,,,,,,,,,,,,,,,,,24,,,,,,,,192.5987358998973,192.5987358998973,192.5987358998973,192.5987358998973,192.5987358998973,,,,,up,0.22781440010294318,10,0,99,0.08,2.7755575615628914e-17,up,0.1438979001250118,None,,,,,,,,,,,,,,,,,,,,,,,,,,,,,,,,,,,,,,,2024-07-01_13h53.21.248,HideSeek_v1,2023.1.3,59.93457544953925,
,3,0,3,5,0,5,66,,train_dim1_1,12,24,2,0,2,0,,,,,,,,,0,0,0,0,0,11,11,11,5,0,5,0,,,,,,,,,,,,,,,,,,,,,,,,,,,,,,,,,,,,,,,,,,,,,,,,,,,,,,,,,,24,,,,,,,,192.84756670007482,192.84756670007482,192.84756670007482,192.84756670007482,192.84756670007482,38,0,0.08,2.7755575615628914e-17,return,0.29309600009582937,11,0,1,0.08,2.7755575615628914e-17,return,0.20037949993275106,None,,,,,,,,,,,,,,,,,,,,,,,,,,,,,,,,,,,,,,,2024-07-01_13h53.21.248,HideSeek_v1,2023.1.3,59.93457544953925,
,2,1,2,4,0,3,64,,train_dim1_1,13,24,2,0,2,0,,,,,,,,,0,0,0,0,0,12,12,12,0,0,0,0,,,,,,,,,,,,,,,,,stimuli/alien_stimuli/64.png,,,,,,,,,,,,,,,,,,,,,,,,,,,,,,,stimuli/alien_stimuli/66.png,66,3,14,,,,,,,24,,,,,,,,196.7308614999056,196.7308614999056,196.7308614999056,196.7308614999056,196.7308614999056,,,,,up,0.341432600049302,11,0,99,0,-0.24,up,0.2508602999150753,None,195.16403109999374,196.7308614999056,0.08,0,0.4,0.0,-0.2,0.08,0.08,0.08,0,194.69744140002877,194.69744140002877,194.69744140002877,194.69744140002877,194.69744140002877,194.69744140002877,194.69744140002877,194.69744140002877,194.6638156000059,0.5849647000432014,return,0.4422480999492109,None,,,,,,,,,,,,,,,2024-07-01_13h53.21.248,HideSeek_v1,2023.1.3,59.93457544953925,
,2,1,2,4,0,3,64,,train_dim1_1,13,24,2,0,2,0,,,,,,,,,0,0,0,0,0,12,12,12,1,0,1,0,,,,,,,,,,,,,,,,,,,,,,,,,,,,,,,,,,,,,,,,,,,,,,,,,,,,,,,,,,24,,,,,,,,197.06756239989772,197.06756239989772,197.06756239989772,197.06756239989772,197.06756239989772,,,,,up,0.24315130012109876,11,0,99,0,-0.15999999999999998,up,0.1553200997877866,None,,,,,,,,,,,,,,,,,,,,,,,,,,,,,,,,,,,,,,,2024-07-01_13h53.21.248,HideSeek_v1,2023.1.3,59.93457544953925,
,2,1,2,4,0,3,64,,train_dim1_1,13,24,2,0,2,0,,,,,,,,,0,0,0,0,0,12,12,12,2,0,2,0,,,,,,,,,,,,,,,,,,,,,,,,,,,,,,,,,,,,,,,,,,,,,,,,,,,,,,,,,,24,,,,,,,,197.33099910011515,197.33099910011515,197.33099910011515,197.33099910011515,197.33099910011515,,,,,up,0.17689640005119145,11,0,99,0,-0.07999999999999997,up,0.08022430003620684,None,,,,,,,,,,,,,,,,,,,,,,,,,,,,,,,,,,,,,,,2024-07-01_13h53.21.248,HideSeek_v1,2023.1.3,59.93457544953925,
,2,1,2,4,0,3,64,,train_dim1_1,13,24,2,0,2,0,,,,,,,,,0,0,0,0,0,12,12,12,3,0,3,0,,,,,,,,,,,,,,,,,,,,,,,,,,,,,,,,,,,,,,,,,,,,,,,,,,,,,,,,,,24,,,,,,,,197.51435710000806,197.51435710000806,197.51435710000806,197.51435710000806,197.51435710000806,41,0,0,-0.07999999999999997,return,0.2613911998923868,12,0,1,0,-0.07999999999999997,return,0.16137670003809035,None,,,,,,,,,,,,,,,,,,,,,,,,,,,,,,,,,,,,,,,2024-07-01_13h53.21.248,HideSeek_v1,2023.1.3,59.93457544953925,
,4,3,4,7,0,4,65,,train_dim1_1,14,24,2,0,2,0,,,,,,,,,0,0,0,0,0,13,13,13,0,0,0,0,,,,,,,,,,,,,,,,,stimuli/alien_stimuli/65.png,,,,,,,,,,,,,,,,,,,,,,,,,,,,,,,stimuli/alien_stimuli/64.png,64,2,15,,,,,,,24,,,,,,,,201.2685235000681,201.2685235000681,201.2685235000681,201.2685235000681,201.2685235000681,,,,,up,0.13898169994354248,12,0,99,0.16,-0.08,up,0.03420110000297427,None,199.69872260000557,199.331067699939,0,-0.08,0.24,0.0,-0.2,0,0.0,0,-0.08,199.331067699939,199.331067699939,199.331067699939,199.331067699939,199.331067699939,199.331067699939,199.331067699939,199.331067699939,199.31416650004684,0.4777609999291599,return,0.32618219987489283,None,,,,,,,,,,,,,,,2024-07-01_13h53.21.248,HideSeek_v1,2023.1.3,59.93457544953925,
,4,3,4,7,0,4,65,,train_dim1_1,14,24,2,0,2,0,,,,,,,,,0,0,0,0,0,13,13,13,1,0,1,0,,,,,,,,,,,,,,,,,,,,,,,,,,,,,,,,,,,,,,,,,,,,,,,,,,,,,,,,,,24,,,,,,,,201.42104799998924,201.42104799998924,201.42104799998924,201.42104799998924,201.42104799998924,,,,,up,0.2768066998105496,12,0,99,0.16,0.0,up,0.16870880010537803,None,,,,,,,,,,,,,,,,,,,,,,,,,,,,,,,,,,,,,,,2024-07-01_13h53.21.248,HideSeek_v1,2023.1.3,59.93457544953925,
,4,3,4,7,0,4,65,,train_dim1_1,14,24,2,0,2,0,,,,,,,,,0,0,0,0,0,13,13,13,2,0,2,0,,,,,,,,,,,,,,,,,,,,,,,,,,,,,,,,,,,,,,,,,,,,,,,,,,,,,,,,,,24,,,,,,,,201.69754280010238,201.69754280010238,201.69754280010238,201.69754280010238,201.69754280010238,,,,,up,0.2769696000032127,12,0,99,0.16,0.08,up,0.17980709997937083,None,,,,,,,,,,,,,,,,,,,,,,,,,,,,,,,,,,,,,,,2024-07-01_13h53.21.248,HideSeek_v1,2023.1.3,59.93457544953925,
,4,3,4,7,0,4,65,,train_dim1_1,14,24,2,0,2,0,,,,,,,,,0,0,0,0,0,13,13,13,3,0,3,0,,,,,,,,,,,,,,,,,,,,,,,,,,,,,,,,,,,,,,,,,,,,,,,,,,,,,,,,,,24,,,,,,,,201.98054530005902,201.98054530005902,201.98054530005902,201.98054530005902,201.98054530005902,,,,,up,0.29453299986198545,12,0,99,0.16,0.16,up,0.19243589998222888,None,,,,,,,,,,,,,,,,,,,,,,,,,,,,,,,,,,,,,,,2024-07-01_13h53.21.248,HideSeek_v1,2023.1.3,59.93457544953925,
,4,3,4,7,0,4,65,,train_dim1_1,14,24,2,0,2,0,,,,,,,,,0,0,0,0,0,13,13,13,4,0,4,0,,,,,,,,,,,,,,,,,,,,,,,,,,,,,,,,,,,,,,,,,,,,,,,,,,,,,,,,,,24,,,,,,,,202.2812222999055,202.2812222999055,202.2812222999055,202.2812222999055,202.2812222999055,45,0,0.16,0.16,return,0.29335210006684065,13,0,1,0.16,0.16,return,0.18821009993553162,None,,,,,,,,,,,,,,,,,,,,,,,,,,,,,,,,,,,,,,,2024-07-01_13h53.21.248,HideSeek_v1,2023.1.3,59.93457544953925,
,1,0,1,5,0,5,66,,train_dim1_1,15,24,2,0,2,0,,,,,,,,,0,0,0,0,0,14,14,14,0,0,0,0,,,,,,,,,,,,,,,,,stimuli/alien_stimuli/66.png,,,,,,,,,,,,,,,,,,,,,,,,,,,,,,,stimuli/alien_stimuli/65.png,65,4,16,,,,,,,24,,,,,,,,206.4812306999229,206.4812306999229,206.4812306999229,206.4812306999229,206.4812306999229,,,,,up,0.40863720001652837,13,0,99,-0.08,-0.32,up,0.3139103001449257,None,204.91401259996928,206.4812306999229,0.16,0.16,0.32,0.0,0.0,0.16,0.16,0.16,0.16,204.14826319995336,204.14826319995336,204.14826319995336,204.14826319995336,204.14826319995336,204.14826319995336,204.14826319995336,204.14826319995336,204.13045880007556,0.9018816000316292,return,0.7461365000344813,None,,,,,,,,,,,,,,,2024-07-01_13h53.21.248,HideSeek_v1,2023.1.3,59.93457544953925,
,1,0,1,5,0,5,66,,train_dim1_1,15,24,2,0,2,0,,,,,,,,,0,0,0,0,0,14,14,14,1,0,1,0,,,,,,,,,,,,,,,,,,,,,,,,,,,,,,,,,,,,,,,,,,,,,,,,,,,,,,,,,,24,,,,,,,,206.8974872000981,206.8974872000981,206.8974872000981,206.8974872000981,206.8974872000981,,,,,up,0.32620129990391433,13,0,99,-0.08,-0.24,up,0.22901779995299876,None,,,,,,,,,,,,,,,,,,,,,,,,,,,,,,,,,,,,,,,2024-07-01_13h53.21.248,HideSeek_v1,2023.1.3,59.93457544953925,
,1,0,1,5,0,5,66,,train_dim1_1,15,24,2,0,2,0,,,,,,,,,0,0,0,0,0,14,14,14,2,0,2,0,,,,,,,,,,,,,,,,,,,,,,,,,,,,,,,,,,,,,,,,,,,,,,,,,,,,,,,,,,24,,,,,,,,207.2314708000049,207.2314708000049,207.2314708000049,207.2314708000049,207.2314708000049,,,,,up,0.27746429992839694,13,0,99,-0.08,-0.15999999999999998,up,0.1709694000892341,None,,,,,,,,,,,,,,,,,,,,,,,,,,,,,,,,,,,,,,,2024-07-01_13h53.21.248,HideSeek_v1,2023.1.3,59.93457544953925,
,1,0,1,5,0,5,66,,train_dim1_1,15,24,2,0,2,0,,,,,,,,,0,0,0,0,0,14,14,14,3,0,3,0,,,,,,,,,,,,,,,,,,,,,,,,,,,,,,,,,,,,,,,,,,,,,,,,,,,,,,,,,,24,,,,,,,,207.5156191000715,207.5156191000715,207.5156191000715,207.5156191000715,207.5156191000715,,,,,up,0.27699639997445047,13,0,99,-0.08,-0.07999999999999997,up,0.17623510002158582,None,,,,,,,,,,,,,,,,,,,,,,,,,,,,,,,,,,,,,,,2024-07-01_13h53.21.248,HideSeek_v1,2023.1.3,59.93457544953925,
,1,0,1,5,0,5,66,,train_dim1_1,15,24,2,0,2,0,,,,,,,,,0,0,0,0,0,14,14,14,4,0,4,0,,,,,,,,,,,,,,,,,,,,,,,,,,,,,,,,,,,,,,,,,,,,,,,,,,,,,,,,,,24,,,,,,,,207.79620420001447,207.79620420001447,207.79620420001447,207.79620420001447,207.79620420001447,,,,,up,0.31098529999144375,13,0,99,-0.08,2.7755575615628914e-17,up,0.21942050009965897,None,,,,,,,,,,,,,,,,,,,,,,,,,,,,,,,,,,,,,,,2024-07-01_13h53.21.248,HideSeek_v1,2023.1.3,59.93457544953925,
,1,0,1,5,0,5,66,,train_dim1_1,15,24,2,0,2,0,,,,,,,,,0,0,0,0,0,14,14,14,5,0,5,0,,,,,,,,,,,,,,,,,,,,,,,,,,,,,,,,,,,,,,,,,,,,,,,,,,,,,,,,,,24,,,,,,,,208.11402239999734,208.11402239999734,208.11402239999734,208.11402239999734,208.11402239999734,50,0,-0.08,2.7755575615628914e-17,return,0.3263940999750048,14,0,1,-0.08,2.7755575615628914e-17,return,0.22098410013131797,None,,,,,,,,,,,,,,,,,,,,,,,,,,,,,,,,,,,,,,,2024-07-01_13h53.21.248,HideSeek_v1,2023.1.3,59.93457544953925,
,3,1,3,2,0,1,62,,train_dim1_1,16,24,2,0,2,0,,,,,,,,,0,0,0,0,0,15,15,15,0,0,0,0,,,,,,,,,,,,,,,,,stimuli/alien_stimuli/62.png,,,,,,,,,,,,,,,,,,,,,,,,,,,,,,,stimuli/alien_stimuli/66.png,66,1,17,,,,,,,24,,,,,,,,211.83054409991018,211.83054409991018,211.83054409991018,211.83054409991018,211.83054409991018,,,,,up,2.907187700038776,14,0,99,0.08,-0.24,up,2.809832999948412,None,210.2641028999351,211.83054409991018,-0.08,0,0.4,0.0,-0.2,-0.08,-0.08,-0.08,0,209.99768809997477,209.99768809997477,209.99768809997477,209.99768809997477,209.99768809997477,209.99768809997477,209.99768809997477,209.99768809997477,209.98081979998386,0.384792200056836,return,0.2500187000259757,None,,,,,,,,,,,,,,,2024-07-01_13h53.21.248,HideSeek_v1,2023.1.3,59.93457544953925,
,3,1,3,2,0,1,62,,train_dim1_1,16,24,2,0,2,0,,,,,,,,,0,0,0,0,0,15,15,15,1,0,1,0,,,,,,,,,,,,,,,,,,,,,,,,,,,,,,,,,,,,,,,,,,,,,,,,,,,,,,,,,,24,,,,,,,,214.75260400003754,214.75260400003754,214.75260400003754,214.75260400003754,214.75260400003754,51,0,0.08,-0.24,return,0.4091187999583781,15,0,1,0.08,-0.24,return,0.29846900003030896,None,,,,,,,,,,,,,,,,,,,,,,,,,,,,,,,,,,,,,,,2024-07-01_13h53.21.248,HideSeek_v1,2023.1.3,59.93457544953925,
,0,2,0,7,0,5,66,,train_dim1_1,17,24,2,0,2,0,,,,,,,,,0,0,0,0,0,16,16,16,0,0,0,0,,,,,,,,,,,,,,,,,stimuli/alien_stimuli/66.png,,,,,,,,,,,,,,,,,,,,,,,,,,,,,,,stimuli/alien_stimuli/62.png,62,3,18,,,,,,,24,,,,,,,,219.68083530012518,219.68083530012518,219.68083530012518,219.68083530012518,219.68083530012518,51,0,-0.16,-0.24,return,1.124769499991089,15,0,0,-0.16,-0.24,return,1.0319300000555813,None,218.1148290000856,216.73076949990354,0.08,-0.24,0.08,0.0,-0.28,0.08,0.08,0.08,-0.24,216.73076949990354,216.73076949990354,216.73076949990354,216.73076949990354,216.73076949990354,216.73076949990354,216.73076949990354,216.73076949990354,216.7147574000526,1.5033956998959184,return,1.3512464999221265,None,,,,,,,,,,,,,,,2024-07-01_13h53.21.248,HideSeek_v1,2023.1.3,59.93457544953925,
,1,2,1,6,0,4,65,,train_dim1_1,18,24,2,0,2,0,,,,,,,,,0,0,0,0,0,17,17,17,0,0,0,0,,,,,,,,,,,,,,,,,stimuli/alien_stimuli/65.png,,,,,,,,,,,,,,,,,,,,,,,,,,,,,,,stimuli/alien_stimuli/66.png,66,0,19,,,,,,,24,,,,,,,,224.83094049990177,224.83094049990177,224.83094049990177,224.83094049990177,224.83094049990177,51,0,-0.08,-0.24,return,1.0080033999402076,15,0,0,-0.08,-0.24,return,0.9005899000912905,None,223.2645372999832,224.83094049990177,-0.16,0.16,0.4,0.0,-0.039999999999999994,-0.16,-0.16,-0.16,0.16,222.36387010011822,222.36387010011822,222.36387010011822,222.36387010011822,222.36387010011822,222.36387010011822,222.36387010011822,222.36387010011822,222.3472871999722,1.0205596000887454,return,0.8796786000020802,None,,,,,,,,,,,,,,,2024-07-01_13h53.21.248,HideSeek_v1,2023.1.3,59.93457544953925,
,1,4,1,5,0,1,62,,train_dim1_1,19,24,2,0,2,0,,,,,,,,,0,0,0,0,0,18,18,18,0,0,0,0,,,,,,,,,,,,,,,,,stimuli/alien_stimuli/62.png,,,,,,,,,,,,,,,,,,,,,,,,,,,,,,,stimuli/alien_stimuli/65.png,65,1,20,,,,,,,24,,,,,,,,229.6306853001006,229.6306853001006,229.6306853001006,229.6306853001006,229.6306853001006,51,0,-0.08,-0.08,return,0.4082122999243438,15,0,0,-0.08,-0.08,return,0.3136404000688344,None,228.06400000001304,229.6306853001006,-0.08,0.08,0.32,0.0,-0.07999999999999999,-0.08,-0.08,-0.08,0.08,227.3974550999701,227.3974550999701,227.3974550999701,227.3974550999701,227.3974550999701,227.3974550999701,227.3974550999701,227.3974550999701,227.38060710001736,0.7856404997874051,return,0.6501736999489367,None,,,,,,,,,,,,,,,2024-07-01_13h53.21.248,HideSeek_v1,2023.1.3,59.93457544953925,
,3,2,3,5,0,3,64,,train_dim1_1,20,24,2,0,2,0,,,,,,,,,0,0,0,0,0,19,19,19,0,0,0,0,,,,,,,,,,,,,,,,,stimuli/alien_stimuli/64.png,,,,,,,,,,,,,,,,,,,,,,,,,,,,,,,stimuli/alien_stimuli/62.png,62,1,21,,,,,,,24,,,,,,,,233.61442229989916,233.61442229989916,233.61442229989916,233.61442229989916,233.61442229989916,51,0,0.08,-0.24,return,0.7736188999842852,15,0,0,0.08,-0.24,return,0.6800156999379396,None,232.04749640007503,233.61442229989916,-0.08,0,0.08,0.0,-0.04,-0.08,-0.08,-0.08,0,231.611168500036,231.611168500036,231.611168500036,231.611168500036,231.611168500036,231.611168500036,231.611168500036,231.611168500036,231.58077019993215,0.5685801999643445,return,0.4139460001606494,None,,,,,,,,,,,,,,,2024-07-01_13h53.21.248,HideSeek_v1,2023.1.3,59.93457544953925,
,2,4,2,5,0,1,62,,train_dim1_1,21,24,2,0,2,0,,,,,,,,,0,0,0,0,0,20,20,20,0,0,0,0,,,,,,,,,,,,,,,,,stimuli/alien_stimuli/62.png,,,,,,,,,,,,,,,,,,,,,,,,,,,,,,,stimuli/alien_stimuli/64.png,64,3,22,,,,,,,24,,,,,,,,237.76375419995748,237.76375419995748,237.76375419995748,237.76375419995748,237.76375419995748,51,0,0,-0.08,return,0.35736999986693263,15,0,0,0,-0.08,return,0.25873790006153286,None,236.1812885000836,235.96396160009317,0.08,0,0.24,0.0,-0.12,0.08,0.08,0.08,0,235.96396160009317,235.96396160009317,235.96396160009317,235.96396160009317,235.96396160009317,235.96396160009317,235.96396160009317,235.96396160009317,235.94696000004186,0.3521499000489712,return,0.18816050002351403,None,,,,,,,,,,,,,,,2024-07-01_13h53.21.248,HideSeek_v1,2023.1.3,59.93457544953925,
,0,1,0,5,0,4,65,,train_dim1_1,22,24,2,0,2,0,,,,,,,,,0,0,0,0,0,21,21,21,0,0,0,0,,,,,,,,,,,,,,,,,stimuli/alien_stimuli/65.png,,,,,,,,,,,,,,,,,,,,,,,,,,,,,,,stimuli/alien_stimuli/62.png,62,2,23,,,,,,,24,,,,,,,,241.44684200012125,241.44684200012125,241.44684200012125,241.44684200012125,241.44684200012125,51,0,-0.16,-0.32,return,0.43925600009970367,15,0,0,-0.16,-0.32,return,0.3400239998009056,None,239.88044110010378,241.44684200012125,0,0,0.08,0.0,-0.04,0,0.0,0,0,239.6815722999163,239.6815722999163,239.6815722999163,239.6815722999163,239.6815722999163,239.6815722999163,239.6815722999163,239.6815722999163,239.66367319999262,0.31850300007499754,return,0.18111140001565218,None,,,,,,,,,,,,,,,2024-07-01_13h53.21.248,HideSeek_v1,2023.1.3,59.93457544953925,
,2,3,2,6,0,3,64,,train_dim1_1,23,24,2,0,2,0,,,,,,,,,0,0,0,0,0,22,22,22,0,0,0,0,,,,,,,,,,,,,,,,,stimuli/alien_stimuli/64.png,,,,,,,,,,,,,,,,,,,,,,,,,,,,,,,stimuli/alien_stimuli/65.png,65,0,24,,,,,,,24,,,,,,,,245.41358350007795,245.41358350007795,245.41358350007795,245.41358350007795,245.41358350007795,51,0,0,-0.16,return,0.3047980999108404,15,0,0,0,-0.16,return,0.2158433001022786,None,243.84715469996445,245.41358350007795,-0.16,0,0.32,0.0,-0.16,-0.16,-0.16,-0.16,0,243.44680909998715,243.44680909998715,243.44680909998715,243.44680909998715,243.44680909998715,243.44680909998715,243.44680909998715,243.44680909998715,243.42998469998128,0.5185710000805557,return,0.3713461000006646,None,,,,,,,,,,,,,,,2024-07-01_13h53.21.248,HideSeek_v1,2023.1.3,59.93457544953925,
,1,1,1,6,0,5,66,,train_dim1_1,24,24,2,0,2,0,,,,,,,,,0,0,0,0,0,23,23,23,0,0,0,0,,,,,,,,,,,,,,,,,stimuli/alien_stimuli/66.png,,,,,,,,,,,,,,,,,,,,,,,,,,,,,,,stimuli/alien_stimuli/64.png,64,2,25,,,,,,,24,,,,,,,,249.11453470005654,249.11453470005654,249.11453470005654,249.11453470005654,249.11453470005654,51,0,-0.08,-0.32,return,0.35688990005292,15,0,0,-0.08,-0.32,return,0.2612848000135273,None,247.546719300095,249.11453470005654,0,0.08,0.24,0.0,-0.04,0,0.0,0,0.08,247.2817655999679,247.2817655999679,247.2817655999679,247.2817655999679,247.2817655999679,247.2817655999679,247.2817655999679,247.2817655999679,247.26340180011465,0.3849017999600619,return,0.23472260008566082,None,,,,,,,,,,,,,,,2024-07-01_13h53.21.248,HideSeek_v1,2023.1.3,59.93457544953925,
,2,0,2,1,0,1,62,,train_dim1_1,1,4,2,0,2,0,,,,,,,,,1,0,1,0,0,0,0,0,0,0,0,0,,,,,,,,,,,,,,,,,stimuli/alien_stimuli/62.png,,,,,,,,,,,,,,,,,,,,,,,,,,,,,,,stimuli/alien_stimuli/66.png,66,1,26,17,0.7,0.625,1,0,1,4,0,conditions/inputTrain_1.2.xlsx,99,1,1,1,0,252.8821310000494,252.8821310000494,252.8821310000494,252.8821310000494,252.8821310000494,51,0,0,-0.4,return,0.36092550004832447,0,0,0,0,-0.4,return,0.27605840004980564,None,251.3136851999443,252.8821310000494,-0.08,0.08,0.4,0.0,-0.12,-0.08,-0.08,-0.08,0.08,251.03065679990686,251.03065679990686,251.03065679990686,251.03065679990686,251.03065679990686,251.03065679990686,251.03065679990686,251.03065679990686,251.01345089990645,0.4019757001660764,return,0.2587669000495225,None,0,0.625,0,1,15,,,,,,,,,,2024-07-01_13h53.21.248,HideSeek_v1,2023.1.3,59.93457544953925,
,2,2,2,5,0,3,64,,train_dim1_1,2,4,2,0,2,0,,,,,,,,,1,0,1,0,0,1,1,1,0,0,0,0,,,,,,,,,,,,,,,,,stimuli/alien_stimuli/64.png,,,,,,,,,,,,,,,,,,,,,,,,,,,,,,,stimuli/alien_stimuli/62.png,62,2,1,,,,,,,4,,,,,,,,257.2802931999322,257.2802931999322,257.2802931999322,257.2802931999322,257.2802931999322,,,,,up,0.3914244999177754,0,0,99,0,-0.15999999999999998,up,0.30002589989453554,None,255.71342499996535,257.2802931999322,0,-0.32,0.08,0.0,-0.36,0,0.0,0,-0.32,254.7980327999685,254.7980327999685,254.7980327999685,254.7980327999685,254.7980327999685,254.7980327999685,254.7980327999685,254.7980327999685,254.79673779993317,1.017633100040257,return,0.8834255000110716,None,,,,,,,,,,,,,,,2024-07-01_13h53.21.248,HideSeek_v1,2023.1.3,59.93457544953925,
,2,2,2,5,0,3,64,,train_dim1_1,2,4,2,0,2,0,,,,,,,,,1,0,1,0,0,1,1,1,1,0,1,0,,,,,,,,,,,,,,,,,,,,,,,,,,,,,,,,,,,,,,,,,,,,,,,,,,,,,,,,,,4,,,,,,,,257.68016309989616,257.68016309989616,257.68016309989616,257.68016309989616,257.68016309989616,,,,,up,0.34328259993344545,0,0,99,0,-0.07999999999999997,up,0.244202199857682,None,,,,,,,,,,,,,,,,,,,,,,,,,,,,,,,,,,,,,,,2024-07-01_13h53.21.248,HideSeek_v1,2023.1.3,59.93457544953925,
,2,2,2,5,0,3,64,,train_dim1_1,2,4,2,0,2,0,,,,,,,,,1,0,1,0,0,1,1,1,2,0,2,0,,,,,,,,,,,,,,,,,,,,,,,,,,,,,,,,,,,,,,,,,,,,,,,,,,,,,,,,,,4,,,,,,,,258.03010350000113,258.03010350000113,258.03010350000113,258.03010350000113,258.03010350000113,,,,,up,0.31029799999669194,0,0,99,0,2.7755575615628914e-17,up,0.2010139999911189,None,,,,,,,,,,,,,,,,,,,,,,,,,,,,,,,,,,,,,,,2024-07-01_13h53.21.248,HideSeek_v1,2023.1.3,59.93457544953925,
,2,2,2,5,0,3,64,,train_dim1_1,2,4,2,0,2,0,,,,,,,,,1,0,1,0,0,1,1,1,3,0,3,0,,,,,,,,,,,,,,,,,,,,,,,,,,,,,,,,,,,,,,,,,,,,,,,,,,,,,,,,,,4,,,,,,,,258.34759610006586,258.34759610006586,258.34759610006586,258.34759610006586,258.34759610006586,54,0,0,2.7755575615628914e-17,return,0.5265275998972356,1,0,1,0,2.7755575615628914e-17,return,0.42733450001105666,None,,,,,,,,,,,,,,,,,,,,,,,,,,,,,,,,,,,,,,,2024-07-01_13h53.21.248,HideSeek_v1,2023.1.3,59.93457544953925,
,3,3,3,8,0,5,66,,train_dim1_1,3,4,2,0,2,0,,,,,,,,,1,0,1,0,0,2,2,2,0,0,0,0,,,,,,,,,,,,,,,,,stimuli/alien_stimuli/66.png,,,,,,,,,,,,,,,,,,,,,,,,,,,,,,,stimuli/alien_stimuli/64.png,64,2,2,,,,,,,4,,,,,,,,262.78009649994783,262.78009649994783,262.78009649994783,262.78009649994783,262.78009649994783,,,,,up,0.45783869992010295,1,0,99,0.08,-0.08,up,0.36646699998527765,None,261.213257299969,262.78009649994783,0,0,0.24,0.0,-0.12,0,0.0,0,0,260.4334738000762,260.4334738000762,260.4334738000762,260.4334738000762,260.4334738000762,260.4334738000762,260.4334738000762,260.4334738000762,260.4130066000391,0.9018914999905974,return,0.7515132001135498,None,,,,,,,,,,,,,,,2024-07-01_13h53.21.248,HideSeek_v1,2023.1.3,59.93457544953925,
,3,3,3,8,0,5,66,,train_dim1_1,3,4,2,0,2,0,,,,,,,,,1,0,1,0,0,2,2,2,1,0,1,0,,,,,,,,,,,,,,,,,,,,,,,,,,,,,,,,,,,,,,,,,,,,,,,,,,,,,,,,,,4,,,,,,,,263.2468926999718,263.2468926999718,263.2468926999718,263.2468926999718,263.2468926999718,,,,,up,0.29295530007220805,1,0,99,0.08,0.0,up,0.19264120003208518,None,,,,,,,,,,,,,,,,,,,,,,,,,,,,,,,,,,,,,,,2024-07-01_13h53.21.248,HideSeek_v1,2023.1.3,59.93457544953925,
,3,3,3,8,0,5,66,,train_dim1_1,3,4,2,0,2,0,,,,,,,,,1,0,1,0,0,2,2,2,2,0,2,0,,,,,,,,,,,,,,,,,,,,,,,,,,,,,,,,,,,,,,,,,,,,,,,,,,,,,,,,,,4,,,,,,,,263.5474376999773,263.5474376999773,263.5474376999773,263.5474376999773,263.5474376999773,,,,,up,0.3108292000833899,1,0,99,0.08,0.08,up,0.21122949989512563,None,,,,,,,,,,,,,,,,,,,,,,,,,,,,,,,,,,,,,,,2024-07-01_13h53.21.248,HideSeek_v1,2023.1.3,59.93457544953925,
,3,3,3,8,0,5,66,,train_dim1_1,3,4,2,0,2,0,,,,,,,,,1,0,1,0,0,2,2,2,3,0,3,0,,,,,,,,,,,,,,,,,,,,,,,,,,,,,,,,,,,,,,,,,,,,,,,,,,,,,,,,,,4,,,,,,,,263.86348369996995,263.86348369996995,263.86348369996995,263.86348369996995,263.86348369996995,,,,,up,0.29312569997273386,1,0,99,0.08,0.16,up,0.18990199989639223,None,,,,,,,,,,,,,,,,,,,,,,,,,,,,,,,,,,,,,,,2024-07-01_13h53.21.248,HideSeek_v1,2023.1.3,59.93457544953925,
,3,3,3,8,0,5,66,,train_dim1_1,3,4,2,0,2,0,,,,,,,,,1,0,1,0,0,2,2,2,4,0,4,0,,,,,,,,,,,,,,,,,,,,,,,,,,,,,,,,,,,,,,,,,,,,,,,,,,,,,,,,,,4,,,,,,,,264.16364450007677,264.16364450007677,264.16364450007677,264.16364450007677,264.16364450007677,,,,,up,0.27700260002166033,1,0,99,0.08,0.24,up,0.17457769997417927,None,,,,,,,,,,,,,,,,,,,,,,,,,,,,,,,,,,,,,,,2024-07-01_13h53.21.248,HideSeek_v1,2023.1.3,59.93457544953925,
,3,3,3,8,0,5,66,,train_dim1_1,3,4,2,0,2,0,,,,,,,,,1,0,1,0,0,2,2,2,5,0,5,0,,,,,,,,,,,,,,,,,,,,,,,,,,,,,,,,,,,,,,,,,,,,,,,,,,,,,,,,,,4,,,,,,,,264.4471956999041,264.4471956999041,264.4471956999041,264.4471956999041,264.4471956999041,59,0,0.08,0.24,return,0.276673800079152,2,0,1,0.08,0.24,return,0.1807333999313414,None,,,,,,,,,,,,,,,,,,,,,,,,,,,,,,,,,,,,,,,2024-07-01_13h53.21.248,HideSeek_v1,2023.1.3,59.93457544953925,
,4,4,4,8,0,4,65,,train_dim1_1,4,4,2,0,2,0,,,,,,,,,1,0,1,0,0,3,3,3,0,0,0,0,,,,,,,,,,,,,,,,,stimuli/alien_stimuli/65.png,,,,,,,,,,,,,,,,,,,,,,,,,,,,,,,stimuli/alien_stimuli/66.png,66,3,3,,,,,,,4,,,,,,,,268.17608310002834,268.17608310002834,268.17608310002834,268.17608310002834,268.17608310002834,,,,,up,0.42252250015735626,2,0,99,0.16,0.0,up,0.30950689991004765,None,266.5966455999296,268.17608310002834,0.08,0.24,0.4,0.0,0.039999999999999994,0.08,0.08,0.08,0.24,266.2792899000924,266.2792899000924,266.2792899000924,266.2792899000924,266.2792899000924,266.2792899000924,266.2792899000924,266.2792899000924,266.2633795000613,0.4364120999816805,return,0.2944887999910861,None,,,,,,,,,,,,,,,2024-07-01_13h53.21.248,HideSeek_v1,2023.1.3,59.93457544953925,
,4,4,4,8,0,4,65,,train_dim1_1,4,4,2,0,2,0,,,,,,,,,1,0,1,0,0,3,3,3,1,0,1,0,,,,,,,,,,,,,,,,,,,,,,,,,,,,,,,,,,,,,,,,,,,,,,,,,,,,,,,,,,4,,,,,,,,268.5967043999117,268.5967043999117,268.5967043999117,268.5967043999117,268.5967043999117,,,,,up,0.2596271000802517,2,0,99,0.16,0.08,up,0.16326049994677305,None,,,,,,,,,,,,,,,,,,,,,,,,,,,,,,,,,,,,,,,2024-07-01_13h53.21.248,HideSeek_v1,2023.1.3,59.93457544953925,
,4,4,4,8,0,4,65,,train_dim1_1,4,4,2,0,2,0,,,,,,,,,1,0,1,0,0,3,3,3,2,0,2,0,,,,,,,,,,,,,,,,,,,,,,,,,,,,,,,,,,,,,,,,,,,,,,,,,,,,,,,,,,4,,,,,,,,268.8491499000229,268.8491499000229,268.8491499000229,268.8491499000229,268.8491499000229,,,,,up,0.310602999990806,2,0,99,0.16,0.16,up,0.21777709992602468,None,,,,,,,,,,,,,,,,,,,,,,,,,,,,,,,,,,,,,,,2024-07-01_13h53.21.248,HideSeek_v1,2023.1.3,59.93457544953925,
,4,4,4,8,0,4,65,,train_dim1_1,4,4,2,0,2,0,,,,,,,,,1,0,1,0,0,3,3,3,3,0,3,0,,,,,,,,,,,,,,,,,,,,,,,,,,,,,,,,,,,,,,,,,,,,,,,,,,,,,,,,,,4,,,,,,,,269.1670961000491,269.1670961000491,269.1670961000491,269.1670961000491,269.1670961000491,,,,,up,0.2441962999291718,2,0,99,0.16,0.24,up,0.16140519990585744,None,,,,,,,,,,,,,,,,,,,,,,,,,,,,,,,,,,,,,,,2024-07-01_13h53.21.248,HideSeek_v1,2023.1.3,59.93457544953925,
,4,4,4,8,0,4,65,,train_dim1_1,4,4,2,0,2,0,,,,,,,,,1,0,1,0,0,3,3,3,4,0,4,0,,,,,,,,,,,,,,,,,,,,,,,,,,,,,,,,,,,,,,,,,,,,,,,,,,,,,,,,,,4,,,,,,,,269.4299914999865,269.4299914999865,269.4299914999865,269.4299914999865,269.4299914999865,63,0,0.16,0.24,return,0.26025249995291233,3,0,1,0.16,0.24,return,0.1594231000635773,None,,,,,,,,,,,,,,,,,,,,,,,,,,,,,,,,,,,,,,,2024-07-01_13h53.21.248,HideSeek_v1,2023.1.3,59.93457544953925,
,3,4,3,5,0,1,62,,train_dim1_1,1,4,2,0,2,0,,,,,,,,,2,0,2,0,0,0,0,0,0,0,0,0,,,,,,,,,,,,,,,,,stimuli/alien_stimuli/62.png,,,,,,,,,,,,,,,,,,,,,,,,,,,,,,,stimuli/alien_stimuli/65.png,65,4,4,17,0.7,0.75,2,0,1,4,0,conditions/inputTrain_1.3.xlsx,99,1,1,1,0,273.7159716000315,273.7159716000315,273.7159716000315,273.7159716000315,273.7159716000315,,,,,up,0.3955492000095546,0,0,99,0.08,0.0,up,0.30668159993365407,None,272.14651160012,273.7159716000315,0.16,0.24,0.32,0.0,0.07999999999999999,0.16,0.16,0.16,0.24,271.24715949990787,271.24715949990787,271.24715949990787,271.24715949990787,271.24715949990787,271.24715949990787,271.24715949990787,271.24715949990787,271.2299144000747,1.0185327001381665,return,0.8781907001975924,None,0,0.22916666666666666,0,2,3,,,,,,,,,,2024-07-01_13h53.21.248,HideSeek_v1,2023.1.3,59.93457544953925,
,3,4,3,5,0,1,62,,train_dim1_1,1,4,2,0,2,0,,,,,,,,,2,0,2,0,0,0,0,0,1,0,1,0,,,,,,,,,,,,,,,,,,,,,,,,,,,,,,,,,,,,,,,,,,,,,,,,,,,,,,,,,,4,,,,,,,,274.1337792999111,274.1337792999111,274.1337792999111,274.1337792999111,274.1337792999111,64,0,0.08,0.0,return,0.34296669997274876,1,0,1,0.08,0.0,return,0.23841569991782308,None,,,,,,,,,,,,,,,,,,,,,,,,,,,,,,,,,,,,,,,2024-07-01_13h53.21.248,HideSeek_v1,2023.1.3,59.93457544953925,
,4,0,4,4,0,4,65,,train_dim1_1,2,4,2,0,2,0,,,,,,,,,2,0,2,0,0,1,1,1,0,0,0,0,,,,,,,,,,,,,,,,,stimuli/alien_stimuli/65.png,,,,,,,,,,,,,,,,,,,,,,,,,,,,,,,stimuli/alien_stimuli/62.png,62,3,1,,,,,,,4,,,,,,,,278.03805850003846,278.03805850003846,278.03805850003846,278.03805850003846,278.03805850003846,,,,,up,0.4209290000144392,1,0,99,0.16,-0.32,up,0.2850029000546783,None,276.4469367999118,278.03805850003846,0.08,0,0.08,0.0,-0.04,0.08,0.08,0.08,0,276.0810783999041,276.0810783999041,276.0810783999041,276.0810783999041,276.0810783999041,276.0810783999041,276.0810783999041,276.0810783999041,276.047227199981,0.5353196000214666,return,0.3372485002037138,None,,,,,,,,,,,,,,,2024-07-01_13h53.21.248,HideSeek_v1,2023.1.3,59.93457544953925,
,4,0,4,4,0,4,65,,train_dim1_1,2,4,2,0,2,0,,,,,,,,,2,0,2,0,0,1,1,1,1,0,1,0,,,,,,,,,,,,,,,,,,,,,,,,,,,,,,,,,,,,,,,,,,,,,,,,,,,,,,,,,,4,,,,,,,,278.4839814999141,278.4839814999141,278.4839814999141,278.4839814999141,278.4839814999141,,,,,up,0.31012989999726415,1,0,99,0.16,-0.24,up,0.17174779996275902,None,,,,,,,,,,,,,,,,,,,,,,,,,,,,,,,,,,,,,,,2024-07-01_13h53.21.248,HideSeek_v1,2023.1.3,59.93457544953925,
,4,0,4,4,0,4,65,,train_dim1_1,2,4,2,0,2,0,,,,,,,,,2,0,2,0,0,1,1,1,2,0,2,0,,,,,,,,,,,,,,,,,,,,,,,,,,,,,,,,,,,,,,,,,,,,,,,,,,,,,,,,,,4,,,,,,,,278.7773335999809,278.7773335999809,278.7773335999809,278.7773335999809,278.7773335999809,,,,,up,0.4251097000669688,1,0,99,0.16,-0.15999999999999998,up,0.31153900013305247,None,,,,,,,,,,,,,,,,,,,,,,,,,,,,,,,,,,,,,,,2024-07-01_13h53.21.248,HideSeek_v1,2023.1.3,59.93457544953925,
,4,0,4,4,0,4,65,,train_dim1_1,2,4,2,0,2,0,,,,,,,,,2,0,2,0,0,1,1,1,3,0,3,0,,,,,,,,,,,,,,,,,,,,,,,,,,,,,,,,,,,,,,,,,,,,,,,,,,,,,,,,,,4,,,,,,,,279.1967678000219,279.1967678000219,279.1967678000219,279.1967678000219,279.1967678000219,,,,,up,0.3105428998824209,1,0,99,0.16,-0.07999999999999997,up,0.21119840000756085,None,,,,,,,,,,,,,,,,,,,,,,,,,,,,,,,,,,,,,,,2024-07-01_13h53.21.248,HideSeek_v1,2023.1.3,59.93457544953925,
,4,0,4,4,0,4,65,,train_dim1_1,2,4,2,0,2,0,,,,,,,,,2,0,2,0,0,1,1,1,4,0,4,0,,,,,,,,,,,,,,,,,,,,,,,,,,,,,,,,,,,,,,,,,,,,,,,,,,,,,,,,,,4,,,,,,,,279.5135971000418,279.5135971000418,279.5135971000418,279.5135971000418,279.5135971000418,68,0,0.16,-0.07999999999999997,return,0.29380380013026297,2,0,1,0.16,-0.07999999999999997,return,0.18816989986225963,None,,,,,,,,,,,,,,,,,,,,,,,,,,,,,,,,,,,,,,,2024-07-01_13h53.21.248,HideSeek_v1,2023.1.3,59.93457544953925,
,0,3,0,6,0,3,64,,train_dim1_1,3,4,2,0,2,0,,,,,,,,,2,0,2,0,0,2,2,2,0,0,0,0,,,,,,,,,,,,,,,,,stimuli/alien_stimuli/64.png,,,,,,,,,,,,,,,,,,,,,,,,,,,,,,,stimuli/alien_stimuli/65.png,65,4,2,,,,,,,4,,,,,,,,283.19659309997223,283.19659309997223,283.19659309997223,283.19659309997223,283.19659309997223,,,,,up,0.4083843999542296,2,0,99,-0.16,-0.08,up,0.30582170002162457,None,281.629893100122,283.19659309997223,0.16,-0.08,0.32,0.0,-0.24000000000000002,0.16,0.16,0.16,-0.08,281.3636694001034,281.3636694001034,281.3636694001034,281.3636694001034,281.3636694001034,281.3636694001034,281.3636694001034,281.3636694001034,281.34651310001504,0.38509270013310015,return,0.24626169982366264,None,,,,,,,,,,,,,,,2024-07-01_13h53.21.248,HideSeek_v1,2023.1.3,59.93457544953925,
,0,3,0,6,0,3,64,,train_dim1_1,3,4,2,0,2,0,,,,,,,,,2,0,2,0,0,2,2,2,1,0,1,0,,,,,,,,,,,,,,,,,,,,,,,,,,,,,,,,,,,,,,,,,,,,,,,,,,,,,,,,,,4,,,,,,,,283.61340319993906,283.61340319993906,283.61340319993906,283.61340319993906,283.61340319993906,,,,,up,0.308922799769789,2,0,99,-0.16,0.0,up,0.21658800006844103,None,,,,,,,,,,,,,,,,,,,,,,,,,,,,,,,,,,,,,,,2024-07-01_13h53.21.248,HideSeek_v1,2023.1.3,59.93457544953925,
,0,3,0,6,0,3,64,,train_dim1_1,3,4,2,0,2,0,,,,,,,,,2,0,2,0,0,2,2,2,2,0,2,0,,,,,,,,,,,,,,,,,,,,,,,,,,,,,,,,,,,,,,,,,,,,,,,,,,,,,,,,,,4,,,,,,,,283.91648399992846,283.91648399992846,283.91648399992846,283.91648399992846,283.91648399992846,,,,,up,0.2938681999221444,2,0,99,-0.16,0.08,up,0.21052340022288263,None,,,,,,,,,,,,,,,,,,,,,,,,,,,,,,,,,,,,,,,2024-07-01_13h53.21.248,HideSeek_v1,2023.1.3,59.93457544953925,
,0,3,0,6,0,3,64,,train_dim1_1,3,4,2,0,2,0,,,,,,,,,2,0,2,0,0,2,2,2,3,0,3,0,,,,,,,,,,,,,,,,,,,,,,,,,,,,,,,,,,,,,,,,,,,,,,,,,,,,,,,,,,4,,,,,,,,284.21545240003616,284.21545240003616,284.21545240003616,284.21545240003616,284.21545240003616,71,0,-0.16,0.08,return,0.2604656000621617,3,0,1,-0.16,0.08,return,0.17529059993103147,None,,,,,,,,,,,,,,,,,,,,,,,,,,,,,,,,,,,,,,,2024-07-01_13h53.21.248,HideSeek_v1,2023.1.3,59.93457544953925,
,4,1,4,6,0,5,66,,train_dim1_1,4,4,2,0,2,0,,,,,,,,,2,0,2,0,0,3,3,3,0,0,0,0,,,,,,,,,,,,,,,,,stimuli/alien_stimuli/66.png,,,,,,,,,,,,,,,,,,,,,,,,,,,,,,,stimuli/alien_stimuli/64.png,64,0,3,,,,,,,4,,,,,,,,287.95014819991775,287.95014819991775,287.95014819991775,287.95014819991775,287.95014819991775,,,,,up,0.38952330010943115,3,0,99,0.16,-0.24,up,0.2803825999144465,None,286.36472039995715,,-0.16,0.08,0.24,0.0,-0.04,-0.16,-0.16,-0.16,0.08,286.06866690004244,286.06866690004244,286.06866690004244,286.06866690004244,286.06866690004244,286.06866690004244,286.06866690004244,286.06866690004244,286.0466215000954,0.41954610007815063,return,0.25636509992182255,None,,,,,,,,,,,,,,,2024-07-01_13h53.21.248,HideSeek_v1,2023.1.3,59.93457544953925,
,4,1,4,6,0,5,66,,train_dim1_1,4,4,2,0,2,0,,,,,,,,,2,0,2,0,0,3,3,3,1,0,1,0,,,,,,,,,,,,,,,,,,,,,,,,,,,,,,,,,,,,,,,,,,,,,,,,,,,,,,,,,,4,,,,,,,,288.34699740004726,288.34699740004726,288.34699740004726,288.34699740004726,288.34699740004726,,,,,up,0.3097874999511987,3,0,99,0.16,-0.15999999999999998,up,0.20416609989479184,None,,,,,,,,,,,,,,,,,,,,,,,,,,,,,,,,,,,,,,,2024-07-01_13h53.21.248,HideSeek_v1,2023.1.3,59.93457544953925,
,4,1,4,6,0,5,66,,train_dim1_1,4,4,2,0,2,0,,,,,,,,,2,0,2,0,0,3,3,3,2,0,2,0,,,,,,,,,,,,,,,,,,,,,,,,,,,,,,,,,,,,,,,,,,,,,,,,,,,,,,,,,,4,,,,,,,,288.663228899939,288.663228899939,288.663228899939,288.663228899939,288.663228899939,,,,,up,0.24400239996612072,3,0,99,0.16,-0.07999999999999997,up,0.14825940015725791,None,,,,,,,,,,,,,,,,,,,,,,,,,,,,,,,,,,,,,,,2024-07-01_13h53.21.248,HideSeek_v1,2023.1.3,59.93457544953925,
,4,1,4,6,0,5,66,,train_dim1_1,4,4,2,0,2,0,,,,,,,,,2,0,2,0,0,3,3,3,3,0,3,0,,,,,,,,,,,,,,,,,,,,,,,,,,,,,,,,,,,,,,,,,,,,,,,,,,,,,,,,,,4,,,,,,,,288.89820510009304,288.89820510009304,288.89820510009304,288.89820510009304,288.89820510009304,,,,,up,0.2772574999835342,3,0,99,0.16,2.7755575615628914e-17,up,0.18613609997555614,None,,,,,,,,,,,,,,,,,,,,,,,,,,,,,,,,,,,,,,,2024-07-01_13h53.21.248,HideSeek_v1,2023.1.3,59.93457544953925,
,4,1,4,6,0,5,66,,train_dim1_1,4,4,2,0,2,0,,,,,,,,,2,0,2,0,0,3,3,3,4,0,4,0,,,,,,,,,,,,,,,,,,,,,,,,,,,,,,,,,,,,,,,,,,,,,,,,,,,,,,,,,,4,,,,,,,,289.1972860000096,289.1972860000096,289.1972860000096,289.1972860000096,289.1972860000096,,,,,up,0.22704869997687638,3,0,99,0.16,0.08000000000000003,up,0.118904999922961,None,,,,,,,,,,,,,,,,,,,,,,,,,,,,,,,,,,,,,,,2024-07-01_13h53.21.248,HideSeek_v1,2023.1.3,59.93457544953925,
,4,1,4,6,0,5,66,,train_dim1_1,4,4,2,0,2,0,,,,,,,,,2,0,2,0,0,3,3,3,5,0,5,0,,,,,,,,,,,,,,,,,,,,,,,,,,,,,,,,,,,,,,,,,,,,,,,,,,,,,,,,,,4,,,,,,,,289.42989329993725,289.42989329993725,289.42989329993725,289.42989329993725,289.42989329993725,76,0,0.16,0.08000000000000003,return,0.2604714999906719,4,0,1,0.16,0.08000000000000003,return,0.16263600019738078,None,,,,,,,,,,,,,,,,,,,,,,,,,,,,,,,,,,,,,,,2024-07-01_13h53.21.248,HideSeek_v1,2023.1.3,59.93457544953925,
,1,3,1,6,0,3,64,,train_dim1_1,1,4,2,0,2,0,,,,,,,,,3,0,3,0,0,0,0,0,0,0,0,0,,,,,,,,,,,,,,,,,stimuli/alien_stimuli/64.png,,,,,,,,,,,,,,,,,,,,,,,,,,,,,,,stimuli/alien_stimuli/66.png,66,4,4,17,0.7,0.9166666666666667,3,0,1,4,0,conditions/inputTrain_1.4.xlsx,99,1,1,1,0,293.12997930007987,293.12997930007987,293.12997930007987,293.12997930007987,293.12997930007987,,,,,up,0.396337800193578,0,0,99,-0.08,-0.08,up,0.30444919993169606,None,291.56388609996065,293.12997930007987,0.16,0.08,0.4,0.0,-0.12,0.16,0.16,0.16,0.08,291.25242620008066,291.25242620008066,291.25242620008066,291.25242620008066,291.25242620008066,291.25242620008066,291.25242620008066,291.25242620008066,291.22962279994977,0.4352076000068337,return,0.28824249980971217,None,0,0.2916666666666667,0,3,4,,,,,,,,,,2024-07-01_13h53.21.248,HideSeek_v1,2023.1.3,59.93457544953925,
,1,3,1,6,0,3,64,,train_dim1_1,1,4,2,0,2,0,,,,,,,,,3,0,3,0,0,0,0,0,1,0,1,0,,,,,,,,,,,,,,,,,,,,,,,,,,,,,,,,,,,,,,,,,,,,,,,,,,,,,,,,,,4,,,,,,,,293.5465718000196,293.5465718000196,293.5465718000196,293.5465718000196,293.5465718000196,,,,,up,0.29261740017682314,0,0,99,-0.08,0.0,up,0.1913319998420775,None,,,,,,,,,,,,,,,,,,,,,,,,,,,,,,,,,,,,,,,2024-07-01_13h53.21.248,HideSeek_v1,2023.1.3,59.93457544953925,
,1,3,1,6,0,3,64,,train_dim1_1,1,4,2,0,2,0,,,,,,,,,3,0,3,0,0,0,0,0,2,0,2,0,,,,,,,,,,,,,,,,,,,,,,,,,,,,,,,,,,,,,,,,,,,,,,,,,,,,,,,,,,4,,,,,,,,293.8465257999487,293.8465257999487,293.8465257999487,293.8465257999487,293.8465257999487,,,,,up,0.2603468999732286,0,0,99,-0.08,0.08,up,0.1598638000432402,None,,,,,,,,,,,,,,,,,,,,,,,,,,,,,,,,,,,,,,,2024-07-01_13h53.21.248,HideSeek_v1,2023.1.3,59.93457544953925,
,1,3,1,6,0,3,64,,train_dim1_1,1,4,2,0,2,0,,,,,,,,,3,0,3,0,0,0,0,0,3,0,3,0,,,,,,,,,,,,,,,,,,,,,,,,,,,,,,,,,,,,,,,,,,,,,,,,,,,,,,,,,,4,,,,,,,,294.1129791000858,294.1129791000858,294.1129791000858,294.1129791000858,294.1129791000858,79,0,-0.08,0.08,return,0.243858200032264,1,0,1,-0.08,0.08,return,0.15120059996843338,None,,,,,,,,,,,,,,,,,,,,,,,,,,,,,,,,,,,,,,,2024-07-01_13h53.21.248,HideSeek_v1,2023.1.3,59.93457544953925,
,0,0,0,4,0,4,65,,train_dim1_1,2,4,2,0,2,0,,,,,,,,,3,0,3,0,0,1,1,1,0,0,0,0,,,,,,,,,,,,,,,,,stimuli/alien_stimuli/65.png,,,,,,,,,,,,,,,,,,,,,,,,,,,,,,,stimuli/alien_stimuli/64.png,64,1,1,,,,,,,4,,,,,,,,297.76447349996306,297.76447349996306,297.76447349996306,297.76447349996306,297.76447349996306,,,,,up,0.37269270000979304,1,0,99,-0.16,-0.32,up,0.2661732998676598,None,296.19664380000904,297.76447349996306,-0.08,0.08,0.24,0.0,-0.04,-0.08,-0.08,-0.08,0.08,295.8982645000797,295.8982645000797,295.8982645000797,295.8982645000797,295.8982645000797,295.8982645000797,295.8982645000797,295.8982645000797,295.87994780009615,0.4011915000155568,return,0.2732285999227315,None,,,,,,,,,,,,,,,2024-07-01_13h53.21.248,HideSeek_v1,2023.1.3,59.93457544953925,
,0,0,0,4,0,4,65,,train_dim1_1,2,4,2,0,2,0,,,,,,,,,3,0,3,0,0,1,1,1,1,0,1,0,,,,,,,,,,,,,,,,,,,,,,,,,,,,,,,,,,,,,,,,,,,,,,,,,,,,,,,,,,4,,,,,,,,298.1470717000775,298.1470717000775,298.1470717000775,298.1470717000775,298.1470717000775,,,,,up,0.27632940001785755,1,0,99,-0.16,-0.24,up,0.17905930010601878,None,,,,,,,,,,,,,,,,,,,,,,,,,,,,,,,,,,,,,,,2024-07-01_13h53.21.248,HideSeek_v1,2023.1.3,59.93457544953925,
,0,0,0,4,0,4,65,,train_dim1_1,2,4,2,0,2,0,,,,,,,,,3,0,3,0,0,1,1,1,2,0,2,0,,,,,,,,,,,,,,,,,,,,,,,,,,,,,,,,,,,,,,,,,,,,,,,,,,,,,,,,,,4,,,,,,,,298.4155701000709,298.4155701000709,298.4155701000709,298.4155701000709,298.4155701000709,,,,,up,0.2771529001183808,1,0,99,-0.16,-0.15999999999999998,up,0.18905050004832447,None,,,,,,,,,,,,,,,,,,,,,,,,,,,,,,,,,,,,,,,2024-07-01_13h53.21.248,HideSeek_v1,2023.1.3,59.93457544953925,
,0,0,0,4,0,4,65,,train_dim1_1,2,4,2,0,2,0,,,,,,,,,3,0,3,0,0,1,1,1,3,0,3,0,,,,,,,,,,,,,,,,,,,,,,,,,,,,,,,,,,,,,,,,,,,,,,,,,,,,,,,,,,4,,,,,,,,298.6962518999353,298.6962518999353,298.6962518999353,298.6962518999353,298.6962518999353,,,,,up,0.2439842999447137,1,0,99,-0.16,-0.07999999999999997,up,0.1552238001022488,None,,,,,,,,,,,,,,,,,,,,,,,,,,,,,,,,,,,,,,,2024-07-01_13h53.21.248,HideSeek_v1,2023.1.3,59.93457544953925,
,0,0,0,4,0,4,65,,train_dim1_1,2,4,2,0,2,0,,,,,,,,,3,0,3,0,0,1,1,1,4,0,4,0,,,,,,,,,,,,,,,,,,,,,,,,,,,,,,,,,,,,,,,,,,,,,,,,,,,,,,,,,,4,,,,,,,,298.94746860000305,298.94746860000305,298.94746860000305,298.94746860000305,298.94746860000305,83,0,-0.16,-0.07999999999999997,return,0.26068589999340475,2,0,1,-0.16,-0.07999999999999997,return,0.17466109991073608,None,,,,,,,,,,,,,,,,,,,,,,,,,,,,,,,,,,,,,,,2024-07-01_13h53.21.248,HideSeek_v1,2023.1.3,59.93457544953925,
,4,2,4,3,0,1,62,,train_dim1_1,3,4,2,0,2,0,,,,,,,,,3,0,3,0,0,2,2,2,0,0,0,0,,,,,,,,,,,,,,,,,stimuli/alien_stimuli/62.png,,,,,,,,,,,,,,,,,,,,,,,,,,,,,,,stimuli/alien_stimuli/65.png,65,0,2,,,,,,,4,,,,,,,,303.38115289993584,303.38115289993584,303.38115289993584,303.38115289993584,303.38115289993584,,,,,up,0.4078465001657605,2,0,99,0.16,-0.15999999999999998,up,0.30606800015084445,None,301.81304059992544,303.38115289993584,-0.16,-0.08,0.32,0.0,-0.24000000000000002,-0.16,-0.16,-0.16,-0.08,300.76372759998776,300.76372759998776,300.76372759998776,300.76372759998776,300.76372759998776,300.76372759998776,300.76372759998776,300.76372759998776,300.7464372999035,1.1518648001365364,return,1.0325722000561655,None,,,,,,,,,,,,,,,2024-07-01_13h53.21.248,HideSeek_v1,2023.1.3,59.93457544953925,
,4,2,4,3,0,1,62,,train_dim1_1,3,4,2,0,2,0,,,,,,,,,3,0,3,0,0,2,2,2,1,0,1,0,,,,,,,,,,,,,,,,,,,,,,,,,,,,,,,,,,,,,,,,,,,,,,,,,,,,,,,,,,4,,,,,,,,303.7823677000124,303.7823677000124,303.7823677000124,303.7823677000124,303.7823677000124,84,0,0.16,-0.15999999999999998,return,0.7932553000282496,3,0,1,0.16,-0.15999999999999998,return,0.7029328001663089,None,,,,,,,,,,,,,,,,,,,,,,,,,,,,,,,,,,,,,,,2024-07-01_13h53.21.248,HideSeek_v1,2023.1.3,59.93457544953925,
,3,0,3,5,0,5,66,,train_dim1_1,4,4,2,0,2,0,,,,,,,,,3,0,3,0,0,3,3,3,0,0,0,0,,,,,,,,,,,,,,,,,stimuli/alien_stimuli/66.png,,,,,,,,,,,,,,,,,,,,,,,,,,,,,,,stimuli/alien_stimuli/62.png,62,4,3,,,,,,,4,,,,,,,,308.012968899915,308.012968899915,308.012968899915,308.012968899915,308.012968899915,,,,,up,0.39121989998966455,3,0,99,0.08,-0.32,up,0.2869994000066072,None,306.4470383001026,308.012968899915,0.16,-0.16,0.08,0.0,-0.2,0.16,0.16,0.16,-0.16,306.1463492999319,306.1463492999319,306.1463492999319,306.1463492999319,306.1463492999319,306.1463492999319,306.1463492999319,306.1463492999319,306.1297128999606,0.41865130001679063,return,0.27616110001690686,None,,,,,,,,,,,,,,,2024-07-01_13h53.21.248,HideSeek_v1,2023.1.3,59.93457544953925,
,3,0,3,5,0,5,66,,train_dim1_1,4,4,2,0,2,0,,,,,,,,,3,0,3,0,0,3,3,3,1,0,1,0,,,,,,,,,,,,,,,,,,,,,,,,,,,,,,,,,,,,,,,,,,,,,,,,,,,,,,,,,,4,,,,,,,,308.3983861000743,308.3983861000743,308.3983861000743,308.3983861000743,308.3983861000743,,,,,up,0.2764204000122845,3,0,99,0.08,-0.24,up,0.1953308000229299,None,,,,,,,,,,,,,,,,,,,,,,,,,,,,,,,,,,,,,,,2024-07-01_13h53.21.248,HideSeek_v1,2023.1.3,59.93457544953925,
,3,0,3,5,0,5,66,,train_dim1_1,4,4,2,0,2,0,,,,,,,,,3,0,3,0,0,3,3,3,2,0,2,0,,,,,,,,,,,,,,,,,,,,,,,,,,,,,,,,,,,,,,,,,,,,,,,,,,,,,,,,,,4,,,,,,,,308.6815899000503,308.6815899000503,308.6815899000503,308.6815899000503,308.6815899000503,,,,,up,0.26036169985309243,3,0,99,0.08,-0.15999999999999998,up,0.16798199992626905,None,,,,,,,,,,,,,,,,,,,,,,,,,,,,,,,,,,,,,,,2024-07-01_13h53.21.248,HideSeek_v1,2023.1.3,59.93457544953925,
,3,0,3,5,0,5,66,,train_dim1_1,4,4,2,0,2,0,,,,,,,,,3,0,3,0,0,3,3,3,3,0,3,0,,,,,,,,,,,,,,,,,,,,,,,,,,,,,,,,,,,,,,,,,,,,,,,,,,,,,,,,,,4,,,,,,,,308.94713800004683,308.94713800004683,308.94713800004683,308.94713800004683,308.94713800004683,,,,,up,0.24427520018070936,3,0,99,0.08,-0.07999999999999997,up,0.16114849993027747,None,,,,,,,,,,,,,,,,,,,,,,,,,,,,,,,,,,,,,,,2024-07-01_13h53.21.248,HideSeek_v1,2023.1.3,59.93457544953925,
,3,0,3,5,0,5,66,,train_dim1_1,4,4,2,0,2,0,,,,,,,,,3,0,3,0,0,3,3,3,4,0,4,0,,,,,,,,,,,,,,,,,,,,,,,,,,,,,,,,,,,,,,,,,,,,,,,,,,,,,,,,,,4,,,,,,,,309.21314379991964,309.21314379991964,309.21314379991964,309.21314379991964,309.21314379991964,,,,,up,0.21032559988088906,3,0,99,0.08,2.7755575615628914e-17,up,0.11366119980812073,None,,,,,,,,,,,,,,,,,,,,,,,,,,,,,,,,,,,,,,,2024-07-01_13h53.21.248,HideSeek_v1,2023.1.3,59.93457544953925,
,3,0,3,5,0,5,66,,train_dim1_1,4,4,2,0,2,0,,,,,,,,,3,0,3,0,0,3,3,3,5,0,5,0,,,,,,,,,,,,,,,,,,,,,,,,,,,,,,,,,,,,,,,,,,,,,,,,,,,,,,,,,,4,,,,,,,,309.414877000032,309.414877000032,309.414877000032,309.414877000032,309.414877000032,89,0,0.08,2.7755575615628914e-17,return,0.26124839996919036,4,0,1,0.08,2.7755575615628914e-17,return,0.17817330011166632,None,,,,,,,,,,,,,,,,,,,,,,,,,,,,,,,,,,,,,,,2024-07-01_13h53.21.248,HideSeek_v1,2023.1.3,59.93457544953925,
,2,1,2,4,0,3,64,,train_dim1_1,1,4,2,0,2,0,,,,,,,,,4,0,4,0,0,0,0,0,0,0,0,0,,,,,,,,,,,,,,,,,stimuli/alien_stimuli/64.png,,,,,,,,,,,,,,,,,,,,,,,,,,,,,,,stimuli/alien_stimuli/66.png,66,3,4,17,0.7,1.0833333333333335,4,0,1,4,0,conditions/inputTrain_1.5.xlsx,99,1,1,1,0,313.27974459994584,313.27974459994584,313.27974459994584,313.27974459994584,313.27974459994584,,,,,up,0.37990699987858534,0,0,99,0,-0.24,up,0.268206600099802,None,311.69630590011366,313.27974459994584,0.08,0,0.4,0.0,-0.2,0.08,0.08,0.08,0,311.2463607999962,311.2463607999962,311.2463607999962,311.2463607999962,311.2463607999962,311.2463607999962,311.2463607999962,311.2463607999962,311.22959960000594,0.5681410001125187,return,0.41665270016528666,None,0,0.3194444444444445,0,4,4,,,,,,,,,,2024-07-01_13h53.21.248,HideSeek_v1,2023.1.3,59.93457544953925,
,2,1,2,4,0,3,64,,train_dim1_1,1,4,2,0,2,0,,,,,,,,,4,0,4,0,0,0,0,0,1,0,1,0,,,,,,,,,,,,,,,,,,,,,,,,,,,,,,,,,,,,,,,,,,,,,,,,,,,,,,,,,,4,,,,,,,,313.6713938000612,313.6713938000612,313.6713938000612,313.6713938000612,313.6713938000612,,,,,up,0.2767378001008183,0,0,99,0,-0.15999999999999998,up,0.1661462001502514,None,,,,,,,,,,,,,,,,,,,,,,,,,,,,,,,,,,,,,,,2024-07-01_13h53.21.248,HideSeek_v1,2023.1.3,59.93457544953925,
,2,1,2,4,0,3,64,,train_dim1_1,1,4,2,0,2,0,,,,,,,,,4,0,4,0,0,0,0,0,2,0,2,0,,,,,,,,,,,,,,,,,,,,,,,,,,,,,,,,,,,,,,,,,,,,,,,,,,,,,,,,,,4,,,,,,,,313.956412400119,313.956412400119,313.956412400119,313.956412400119,313.956412400119,,,,,up,0.2597992999944836,0,0,99,0,-0.07999999999999997,up,0.12937800004146993,None,,,,,,,,,,,,,,,,,,,,,,,,,,,,,,,,,,,,,,,2024-07-01_13h53.21.248,HideSeek_v1,2023.1.3,59.93457544953925,
,2,1,2,4,0,3,64,,train_dim1_1,1,4,2,0,2,0,,,,,,,,,4,0,4,0,0,0,0,0,3,0,3,0,,,,,,,,,,,,,,,,,,,,,,,,,,,,,,,,,,,,,,,,,,,,,,,,,,,,,,,,,,4,,,,,,,,314.23774089990184,314.23774089990184,314.23774089990184,314.23774089990184,314.23774089990184,92,0,0,-0.07999999999999997,return,0.3122729000169784,1,0,1,0,-0.07999999999999997,return,0.14700770005583763,None,,,,,,,,,,,,,,,,,,,,,,,,,,,,,,,,,,,,,,,2024-07-01_13h53.21.248,HideSeek_v1,2023.1.3,59.93457544953925,
,4,3,4,7,0,4,65,,train_dim1_1,2,4,2,0,2,0,,,,,,,,,4,0,4,0,0,1,1,1,0,0,0,0,,,,,,,,,,,,,,,,,stimuli/alien_stimuli/65.png,,,,,,,,,,,,,,,,,,,,,,,,,,,,,,,stimuli/alien_stimuli/64.png,64,2,1,,,,,,,4,,,,,,,,317.93004749994725,317.93004749994725,317.93004749994725,317.93004749994725,317.93004749994725,,,,,up,0.5063918000087142,1,0,99,0.16,-0.08,up,0.4048955000471324,None,316.3629042999819,317.93004749994725,0,-0.08,0.24,0.0,-0.2,0,0.0,0,-0.08,316.09655959997326,316.09655959997326,316.09655959997326,316.09655959997326,316.09655959997326,316.09655959997326,316.09655959997326,316.09655959997326,316.07963270000187,0.38481919979676604,return,0.2417339999228716,None,,,,,,,,,,,,,,,2024-07-01_13h53.21.248,HideSeek_v1,2023.1.3,59.93457544953925,
,4,3,4,7,0,4,65,,train_dim1_1,2,4,2,0,2,0,,,,,,,,,4,0,4,0,0,1,1,1,1,0,1,0,,,,,,,,,,,,,,,,,,,,,,,,,,,,,,,,,,,,,,,,,,,,,,,,,,,,,,,,,,4,,,,,,,,318.4623831999488,318.4623831999488,318.4623831999488,318.4623831999488,318.4623831999488,,,,,up,0.3261828999966383,1,0,99,0.16,0.0,up,0.2016557001043111,None,,,,,,,,,,,,,,,,,,,,,,,,,,,,,,,,,,,,,,,2024-07-01_13h53.21.248,HideSeek_v1,2023.1.3,59.93457544953925,
,4,3,4,7,0,4,65,,train_dim1_1,2,4,2,0,2,0,,,,,,,,,4,0,4,0,0,1,1,1,2,0,2,0,,,,,,,,,,,,,,,,,,,,,,,,,,,,,,,,,,,,,,,,,,,,,,,,,,,,,,,,,,4,,,,,,,,318.7645201999694,318.7645201999694,318.7645201999694,318.7645201999694,318.7645201999694,,,,,up,0.3266823999583721,1,0,99,0.16,0.08,up,0.23609330016188323,None,,,,,,,,,,,,,,,,,,,,,,,,,,,,,,,,,,,,,,,2024-07-01_13h53.21.248,HideSeek_v1,2023.1.3,59.93457544953925,
,4,3,4,7,0,4,65,,train_dim1_1,2,4,2,0,2,0,,,,,,,,,4,0,4,0,0,1,1,1,3,0,3,0,,,,,,,,,,,,,,,,,,,,,,,,,,,,,,,,,,,,,,,,,,,,,,,,,,,,,,,,,,4,,,,,,,,319.10042989999056,319.10042989999056,319.10042989999056,319.10042989999056,319.10042989999056,,,,,up,0.2774489999283105,1,0,99,0.16,0.16,up,0.19540000008419156,None,,,,,,,,,,,,,,,,,,,,,,,,,,,,,,,,,,,,,,,2024-07-01_13h53.21.248,HideSeek_v1,2023.1.3,59.93457544953925,
,4,3,4,7,0,4,65,,train_dim1_1,2,4,2,0,2,0,,,,,,,,,4,0,4,0,0,1,1,1,4,0,4,0,,,,,,,,,,,,,,,,,,,,,,,,,,,,,,,,,,,,,,,,,,,,,,,,,,,,,,,,,,4,,,,,,,,319.3960321000777,319.3960321000777,319.3960321000777,319.3960321000777,319.3960321000777,96,0,0.16,0.16,return,0.3772144000977278,2,0,1,0.16,0.16,return,0.2737001001369208,None,,,,,,,,,,,,,,,,,,,,,,,,,,,,,,,,,,,,,,,2024-07-01_13h53.21.248,HideSeek_v1,2023.1.3,59.93457544953925,
,1,0,1,5,0,5,66,,train_dim1_1,3,4,2,0,2,0,,,,,,,,,4,0,4,0,0,2,2,2,0,0,0,0,,,,,,,,,,,,,,,,,stimuli/alien_stimuli/66.png,,,,,,,,,,,,,,,,,,,,,,,,,,,,,,,stimuli/alien_stimuli/65.png,65,4,2,,,,,,,4,,,,,,,,323.32945830002427,323.32945830002427,323.32945830002427,323.32945830002427,323.32945830002427,,,,,up,0.43993080011568964,2,0,99,-0.08,-0.32,up,0.3382701000664383,None,321.76339130010456,323.32945830002427,0.16,0.16,0.32,0.0,0.0,0.16,0.16,0.16,0.16,321.3799946999643,321.3799946999643,321.3799946999643,321.3799946999643,321.3799946999643,321.3799946999643,321.3799946999643,321.3799946999643,321.3624280999415,0.5363860998768359,return,0.3584830998443067,None,,,,,,,,,,,,,,,2024-07-01_13h53.21.248,HideSeek_v1,2023.1.3,59.93457544953925,
,1,0,1,5,0,5,66,,train_dim1_1,3,4,2,0,2,0,,,,,,,,,4,0,4,0,0,2,2,2,1,0,1,0,,,,,,,,,,,,,,,,,,,,,,,,,,,,,,,,,,,,,,,,,,,,,,,,,,,,,,,,,,4,,,,,,,,323.77961420011707,323.77961420011707,323.77961420011707,323.77961420011707,323.77961420011707,,,,,up,0.3100980999879539,2,0,99,-0.08,-0.24,up,0.20739870006218553,None,,,,,,,,,,,,,,,,,,,,,,,,,,,,,,,,,,,,,,,2024-07-01_13h53.21.248,HideSeek_v1,2023.1.3,59.93457544953925,
,1,0,1,5,0,5,66,,train_dim1_1,3,4,2,0,2,0,,,,,,,,,4,0,4,0,0,2,2,2,2,0,2,0,,,,,,,,,,,,,,,,,,,,,,,,,,,,,,,,,,,,,,,,,,,,,,,,,,,,,,,,,,4,,,,,,,,324.09609619993716,324.09609619993716,324.09609619993716,324.09609619993716,324.09609619993716,,,,,up,0.29353530006483197,2,0,99,-0.08,-0.15999999999999998,up,0.19521140004508197,None,,,,,,,,,,,,,,,,,,,,,,,,,,,,,,,,,,,,,,,2024-07-01_13h53.21.248,HideSeek_v1,2023.1.3,59.93457544953925,
,1,0,1,5,0,5,66,,train_dim1_1,3,4,2,0,2,0,,,,,,,,,4,0,4,0,0,2,2,2,3,0,3,0,,,,,,,,,,,,,,,,,,,,,,,,,,,,,,,,,,,,,,,,,,,,,,,,,,,,,,,,,,4,,,,,,,,324.3964818001259,324.3964818001259,324.3964818001259,324.3964818001259,324.3964818001259,,,,,up,0.29439799999818206,2,0,99,-0.08,-0.07999999999999997,up,0.1899744998663664,None,,,,,,,,,,,,,,,,,,,,,,,,,,,,,,,,,,,,,,,2024-07-01_13h53.21.248,HideSeek_v1,2023.1.3,59.93457544953925,
,1,0,1,5,0,5,66,,train_dim1_1,3,4,2,0,2,0,,,,,,,,,4,0,4,0,0,2,2,2,4,0,4,0,,,,,,,,,,,,,,,,,,,,,,,,,,,,,,,,,,,,,,,,,,,,,,,,,,,,,,,,,,4,,,,,,,,324.6814852999523,324.6814852999523,324.6814852999523,324.6814852999523,324.6814852999523,,,,,up,0.24356740014627576,2,0,99,-0.08,2.7755575615628914e-17,up,0.15626630000770092,None,,,,,,,,,,,,,,,,,,,,,,,,,,,,,,,,,,,,,,,2024-07-01_13h53.21.248,HideSeek_v1,2023.1.3,59.93457544953925,
,1,0,1,5,0,5,66,,train_dim1_1,3,4,2,0,2,0,,,,,,,,,4,0,4,0,0,2,2,2,5,0,5,0,,,,,,,,,,,,,,,,,,,,,,,,,,,,,,,,,,,,,,,,,,,,,,,,,,,,,,,,,,4,,,,,,,,324.9304361001123,324.9304361001123,324.9304361001123,324.9304361001123,324.9304361001123,101,0,-0.08,2.7755575615628914e-17,return,0.27747790003195405,3,0,1,-0.08,2.7755575615628914e-17,return,0.1933259000070393,None,,,,,,,,,,,,,,,,,,,,,,,,,,,,,,,,,,,,,,,2024-07-01_13h53.21.248,HideSeek_v1,2023.1.3,59.93457544953925,
,3,1,3,2,0,1,62,,train_dim1_1,4,4,2,0,2,0,,,,,,,,,4,0,4,0,0,3,3,3,0,0,0,0,,,,,,,,,,,,,,,,,stimuli/alien_stimuli/62.png,,,,,,,,,,,,,,,,,,,,,,,,,,,,,,,stimuli/alien_stimuli/66.png,66,1,3,,,,,,,4,,,,,,,,328.712971100118,328.712971100118,328.712971100118,328.712971100118,328.712971100118,,,,,up,0.3744818998966366,3,0,99,0.08,-0.24,up,0.2652724999934435,None,327.1296339998953,328.712971100118,-0.08,0,0.4,0.0,-0.2,-0.08,-0.08,-0.08,0,326.76214469992556,326.76214469992556,326.76214469992556,326.76214469992556,326.76214469992556,326.76214469992556,326.76214469992556,326.76214469992556,326.7461054000538,0.46773619996383786,return,0.3407431999221444,None,,,,,,,,,,,,,,,2024-07-01_13h53.21.248,HideSeek_v1,2023.1.3,59.93457544953925,
,3,1,3,2,0,1,62,,train_dim1_1,4,4,2,0,2,0,,,,,,,,,4,0,4,0,0,3,3,3,1,0,1,0,,,,,,,,,,,,,,,,,,,,,,,,,,,,,,,,,,,,,,,,,,,,,,,,,,,,,,,,,,4,,,,,,,,329.087918800069,329.087918800069,329.087918800069,329.087918800069,329.087918800069,,,,,up,0.3758557999972254,3,0,99,0.08,-0.15999999999999998,up,0.2668485001195222,None,,,,,,,,,,,,,,,,,,,,,,,,,,,,,,,,,,,,,,,2024-07-01_13h53.21.248,HideSeek_v1,2023.1.3,59.93457544953925,
,3,1,3,2,0,1,62,,train_dim1_1,4,4,2,0,2,0,,,,,,,,,4,0,4,0,0,3,3,3,2,0,2,0,,,,,,,,,,,,,,,,,,,,,,,,,,,,,,,,,,,,,,,,,,,,,,,,,,,,,,,,,,4,,,,,,,,329.4625226999633,329.4625226999633,329.4625226999633,329.4625226999633,329.4625226999633,,,,,down,0.6445857998915017,3,0,99,0.08,-0.24,down,0.535862699849531,None,,,,,,,,,,,,,,,,,,,,,,,,,,,,,,,,,,,,,,,2024-07-01_13h53.21.248,HideSeek_v1,2023.1.3,59.93457544953925,
,3,1,3,2,0,1,62,,train_dim1_1,4,4,2,0,2,0,,,,,,,,,4,0,4,0,0,3,3,3,3,0,3,0,,,,,,,,,,,,,,,,,,,,,,,,,,,,,,,,,,,,,,,,,,,,,,,,,,,,,,,,,,4,,,,,,,,330.1355083999224,330.1355083999224,330.1355083999224,330.1355083999224,330.1355083999224,102,0,0.08,-0.24,return,0.33962589991278946,4,0,1,0.08,-0.24,return,0.21704520005732775,None,,,,,,,,,,,,,,,,,,,,,,,,,,,,,,,,,,,,,,,2024-07-01_13h53.21.248,HideSeek_v1,2023.1.3,59.93457544953925,
,0,2,0,7,0,5,66,,train_dim1_1,1,4,2,0,2,0,,,,,,,,,5,0,5,0,0,0,0,0,0,0,0,0,,,,,,,,,,,,,,,,,stimuli/alien_stimuli/66.png,,,,,,,,,,,,,,,,,,,,,,,,,,,,,,,stimuli/alien_stimuli/62.png,62,3,4,17,0.7,1.2500000000000002,5,0,1,4,0,conditions/inputTrain_1.6.xlsx,99,1,1,1,0,333.8801887000445,333.8801887000445,333.8801887000445,333.8801887000445,333.8801887000445,,,,,up,0.37989540002308786,0,0,99,-0.16,-0.15999999999999998,up,0.2974450998008251,None,332.29674730007537,332.02959379996173,0.08,-0.24,0.08,0.0,-0.28,0.08,0.08,0.08,-0.24,332.02959379996173,332.02959379996173,332.02959379996173,332.02959379996173,332.02959379996173,332.02959379996173,332.02959379996173,332.02959379996173,332.0123636000324,0.40183859993703663,return,0.23488770006224513,None,0,0.34722222222222227,0,5,4,,,,,,,,,,2024-07-01_13h53.21.248,HideSeek_v1,2023.1.3,59.93457544953925,
,0,2,0,7,0,5,66,,train_dim1_1,1,4,2,0,2,0,,,,,,,,,5,0,5,0,0,0,0,0,1,0,1,0,,,,,,,,,,,,,,,,,,,,,,,,,,,,,,,,,,,,,,,,,,,,,,,,,,,,,,,,,,4,,,,,,,,334.2797376001254,334.2797376001254,334.2797376001254,334.2797376001254,334.2797376001254,,,,,up,0.27571470011025667,0,0,99,-0.16,-0.07999999999999997,up,0.1727208998054266,None,,,,,,,,,,,,,,,,,,,,,,,,,,,,,,,,,,,,,,,2024-07-01_13h53.21.248,HideSeek_v1,2023.1.3,59.93457544953925,
,0,2,0,7,0,5,66,,train_dim1_1,1,4,2,0,2,0,,,,,,,,,5,0,5,0,0,0,0,0,2,0,2,0,,,,,,,,,,,,,,,,,,,,,,,,,,,,,,,,,,,,,,,,,,,,,,,,,,,,,,,,,,4,,,,,,,,334.5635075001046,334.5635075001046,334.5635075001046,334.5635075001046,334.5635075001046,,,,,up,0.2783729999791831,0,0,99,-0.16,2.7755575615628914e-17,up,0.18254199996590614,None,,,,,,,,,,,,,,,,,,,,,,,,,,,,,,,,,,,,,,,2024-07-01_13h53.21.248,HideSeek_v1,2023.1.3,59.93457544953925,
,0,2,0,7,0,5,66,,train_dim1_1,1,4,2,0,2,0,,,,,,,,,5,0,5,0,0,0,0,0,3,0,3,0,,,,,,,,,,,,,,,,,,,,,,,,,,,,,,,,,,,,,,,,,,,,,,,,,,,,,,,,,,4,,,,,,,,334.8459715999197,334.8459715999197,334.8459715999197,334.8459715999197,334.8459715999197,,,,,up,0.24243430001661181,0,0,99,-0.16,0.08000000000000003,up,0.14628589991480112,None,,,,,,,,,,,,,,,,,,,,,,,,,,,,,,,,,,,,,,,2024-07-01_13h53.21.248,HideSeek_v1,2023.1.3,59.93457544953925,
,0,2,0,7,0,5,66,,train_dim1_1,1,4,2,0,2,0,,,,,,,,,5,0,5,0,0,0,0,0,4,0,4,0,,,,,,,,,,,,,,,,,,,,,,,,,,,,,,,,,,,,,,,,,,,,,,,,,,,,,,,,,,4,,,,,,,,335.09625850012526,335.09625850012526,335.09625850012526,335.09625850012526,335.09625850012526,,,,,up,0.2280598001088947,0,0,99,-0.16,0.16000000000000003,up,0.12226700014434755,None,,,,,,,,,,,,,,,,,,,,,,,,,,,,,,,,,,,,,,,2024-07-01_13h53.21.248,HideSeek_v1,2023.1.3,59.93457544953925,
,0,2,0,7,0,5,66,,train_dim1_1,1,4,2,0,2,0,,,,,,,,,5,0,5,0,0,0,0,0,5,0,5,0,,,,,,,,,,,,,,,,,,,,,,,,,,,,,,,,,,,,,,,,,,,,,,,,,,,,,,,,,,4,,,,,,,,335.3298053999897,335.3298053999897,335.3298053999897,335.3298053999897,335.3298053999897,107,0,-0.16,0.16000000000000003,return,0.2776931000407785,1,0,1,-0.16,0.16000000000000003,return,0.17040450009517372,None,,,,,,,,,,,,,,,,,,,,,,,,,,,,,,,,,,,,,,,2024-07-01_13h53.21.248,HideSeek_v1,2023.1.3,59.93457544953925,
,1,2,1,6,0,4,65,,train_dim1_1,2,4,2,0,2,0,,,,,,,,,5,0,5,0,0,1,1,1,0,0,0,0,,,,,,,,,,,,,,,,,stimuli/alien_stimuli/65.png,,,,,,,,,,,,,,,,,,,,,,,,,,,,,,,stimuli/alien_stimuli/66.png,66,0,1,,,,,,,4,,,,,,,,338.9988842001185,338.9988842001185,338.9988842001185,338.9988842001185,338.9988842001185,,,,,up,0.9422165001742542,1,0,99,-0.08,-0.15999999999999998,up,0.8484107002150267,None,337.44596299994737,338.9988842001185,-0.16,0.16,0.4,0.0,-0.039999999999999994,-0.16,-0.16,-0.16,0.16,337.17957250005566,337.17957250005566,337.17957250005566,337.17957250005566,337.17957250005566,337.17957250005566,337.17957250005566,337.17957250005566,337.1626249999274,0.38479319983161986,return,0.24376139999367297,None,,,,,,,,,,,,,,,2024-07-01_13h53.21.248,HideSeek_v1,2023.1.3,59.93457544953925,
,1,2,1,6,0,4,65,,train_dim1_1,2,4,2,0,2,0,,,,,,,,,5,0,5,0,0,1,1,1,1,0,1,0,,,,,,,,,,,,,,,,,,,,,,,,,,,,,,,,,,,,,,,,,,,,,,,,,,,,,,,,,,4,,,,,,,,339.9479875001125,339.9479875001125,339.9479875001125,339.9479875001125,339.9479875001125,,,,,up,0.2768123000860214,1,0,99,-0.08,-0.07999999999999997,up,0.19691139995120466,None,,,,,,,,,,,,,,,,,,,,,,,,,,,,,,,,,,,,,,,2024-07-01_13h53.21.248,HideSeek_v1,2023.1.3,59.93457544953925,
,1,2,1,6,0,4,65,,train_dim1_1,2,4,2,0,2,0,,,,,,,,,5,0,5,0,0,1,1,1,2,0,2,0,,,,,,,,,,,,,,,,,,,,,,,,,,,,,,,,,,,,,,,,,,,,,,,,,,,,,,,,,,4,,,,,,,,340.2308437000029,340.2308437000029,340.2308437000029,340.2308437000029,340.2308437000029,,,,,up,0.3263996001332998,1,0,99,-0.08,2.7755575615628914e-17,up,0.2402655000332743,None,,,,,,,,,,,,,,,,,,,,,,,,,,,,,,,,,,,,,,,2024-07-01_13h53.21.248,HideSeek_v1,2023.1.3,59.93457544953925,
,1,2,1,6,0,4,65,,train_dim1_1,2,4,2,0,2,0,,,,,,,,,5,0,5,0,0,1,1,1,3,0,3,0,,,,,,,,,,,,,,,,,,,,,,,,,,,,,,,,,,,,,,,,,,,,,,,,,,,,,,,,,,4,,,,,,,,340.56211950001307,340.56211950001307,340.56211950001307,340.56211950001307,340.56211950001307,,,,,up,0.36053219996392727,1,0,99,-0.08,0.08000000000000003,up,0.27495289989747107,None,,,,,,,,,,,,,,,,,,,,,,,,,,,,,,,,,,,,,,,2024-07-01_13h53.21.248,HideSeek_v1,2023.1.3,59.93457544953925,
,1,2,1,6,0,4,65,,train_dim1_1,2,4,2,0,2,0,,,,,,,,,5,0,5,0,0,1,1,1,4,0,4,0,,,,,,,,,,,,,,,,,,,,,,,,,,,,,,,,,,,,,,,,,,,,,,,,,,,,,,,,,,4,,,,,,,,340.9296846999787,340.9296846999787,340.9296846999787,340.9296846999787,340.9296846999787,111,0,-0.08,0.08000000000000003,return,0.5611334000714123,2,0,1,-0.08,0.08000000000000003,return,0.4759097001515329,None,,,,,,,,,,,,,,,,,,,,,,,,,,,,,,,,,,,,,,,2024-07-01_13h53.21.248,HideSeek_v1,2023.1.3,59.93457544953925,
,1,4,1,5,0,1,62,,train_dim1_1,3,4,2,0,2,0,,,,,,,,,5,0,5,0,0,2,2,2,0,0,0,0,,,,,,,,,,,,,,,,,stimuli/alien_stimuli/62.png,,,,,,,,,,,,,,,,,,,,,,,,,,,,,,,stimuli/alien_stimuli/65.png,65,1,2,,,,,,,4,,,,,,,,346.0462257999461,346.0462257999461,346.0462257999461,346.0462257999461,346.0462257999461,,,,,up,114.82410239987075,2,0,99,-0.08,0.0,up,114.72480949992314,None,344.47938870009966,346.0462257999461,-0.08,0.08,0.32,0.0,-0.07999999999999999,-0.08,-0.08,-0.08,0.08,343.0451110000722,343.0451110000722,343.0451110000722,343.0451110000722,343.0451110000722,343.0451110000722,343.0451110000722,343.0451110000722,343.02935210000726,1.534036599798128,return,1.4025242000352591,None,,,,,,,,,,,,,,,2024-07-01_13h53.21.248,HideSeek_v1,2023.1.3,59.93457544953925,
,1,4,1,5,0,1,62,,train_dim1_1,3,4,2,0,2,0,,,,,,,,,5,0,5,0,0,2,2,2,1,0,1,0,,,,,,,,,,,,,,,,,,,,,,,,,,,,,,,,,,,,,,,,,,,,,,,,,,,,,,,,,,4,,,,,,,,460.8784451999236,460.8784451999236,460.8784451999236,460.8784451999236,460.8784451999236,112,0,-0.08,0.0,return,0.36026200000196695,3,0,1,-0.08,0.0,return,0.2614942002110183,None,,,,,,,,,,,,,,,,,,,,,,,,,,,,,,,,,,,,,,,2024-07-01_13h53.21.248,HideSeek_v1,2023.1.3,59.93457544953925,
,3,2,3,5,0,3,64,,train_dim1_1,4,4,2,0,2,0,,,,,,,,,5,0,5,0,0,3,3,3,0,0,0,0,,,,,,,,,,,,,,,,,stimuli/alien_stimuli/64.png,,,,,,,,,,,,,,,,,,,,,,,,,,,,,,,stimuli/alien_stimuli/62.png,62,1,3,,,,,,,4,,,,,,,,466.02781659993343,466.02781659993343,466.02781659993343,466.02781659993343,466.02781659993343,,,,,down,0.5405468998942524,3,0,99,0.08,-0.32,down,0.43542529991827905,None,464.4614619000349,466.02781659993343,-0.08,0,0.08,0.0,-0.04,-0.08,-0.08,-0.08,0,462.8126042999793,462.8126042999793,462.8126042999793,462.8126042999793,462.8126042999793,462.8126042999793,462.8126042999793,462.8126042999793,462.79454590012324,1.7688651999924332,return,1.6218937998637557,None,,,,,,,,,,,,,,,2024-07-01_13h53.21.248,HideSeek_v1,2023.1.3,59.93457544953925,
,3,2,3,5,0,3,64,,train_dim1_1,4,4,2,0,2,0,,,,,,,,,5,0,5,0,0,3,3,3,1,0,1,0,,,,,,,,,,,,,,,,,,,,,,,,,,,,,,,,,,,,,,,,,,,,,,,,,,,,,,,,,,4,,,,,,,,466.5792324000504,466.5792324000504,466.5792324000504,466.5792324000504,466.5792324000504,,,,,down,0.22681899997405708,3,0,99,0.08,-0.4,down,0.11959240003488958,None,,,,,,,,,,,,,,,,,,,,,,,,,,,,,,,,,,,,,,,2024-07-01_13h53.21.248,HideSeek_v1,2023.1.3,59.93457544953925,
,3,2,3,5,0,3,64,,train_dim1_1,4,4,2,0,2,0,,,,,,,,,5,0,5,0,0,3,3,3,2,0,2,0,,,,,,,,,,,,,,,,,,,,,,,,,,,,,,,,,,,,,,,,,,,,,,,,,,,,,,,,,,4,,,,,,,,466.8106746999547,466.8106746999547,466.8106746999547,466.8106746999547,466.8106746999547,,,,,up,0.8099855999462306,3,0,99,0.08,-0.32,up,0.7128355000168085,None,,,,,,,,,,,,,,,,,,,,,,,,,,,,,,,,,,,,,,,2024-07-01_13h53.21.248,HideSeek_v1,2023.1.3,59.93457544953925,
,3,2,3,5,0,3,64,,train_dim1_1,4,4,2,0,2,0,,,,,,,,,5,0,5,0,0,3,3,3,3,0,3,0,,,,,,,,,,,,,,,,,,,,,,,,,,,,,,,,,,,,,,,,,,,,,,,,,,,,,,,,,,4,,,,,,,,467.6286740999203,467.6286740999203,467.6286740999203,467.6286740999203,467.6286740999203,,,,,up,0.22780340001918375,3,0,99,0.08,-0.24,up,0.1272136999759823,None,,,,,,,,,,,,,,,,,,,,,,,,,,,,,,,,,,,,,,,2024-07-01_13h53.21.248,HideSeek_v1,2023.1.3,59.93457544953925,
,3,2,3,5,0,3,64,,train_dim1_1,4,4,2,0,2,0,,,,,,,,,5,0,5,0,0,3,3,3,4,0,4,0,,,,,,,,,,,,,,,,,,,,,,,,,,,,,,,,,,,,,,,,,,,,,,,,,,,,,,,,,,4,,,,,,,,467.8647014000453,467.8647014000453,467.8647014000453,467.8647014000453,467.8647014000453,,,,,up,0.42722630011849105,3,0,99,0.08,-0.15999999999999998,up,0.3160045000258833,None,,,,,,,,,,,,,,,,,,,,,,,,,,,,,,,,,,,,,,,2024-07-01_13h53.21.248,HideSeek_v1,2023.1.3,59.93457544953925,
,3,2,3,5,0,3,64,,train_dim1_1,4,4,2,0,2,0,,,,,,,,,5,0,5,0,0,3,3,3,5,0,5,0,,,,,,,,,,,,,,,,,,,,,,,,,,,,,,,,,,,,,,,,,,,,,,,,,,,,,,,,,,4,,,,,,,,468.29536459990777,468.29536459990777,468.29536459990777,468.29536459990777,468.29536459990777,,,,,up,0.34326120000332594,3,0,99,0.08,-0.07999999999999997,up,0.2360241999849677,None,,,,,,,,,,,,,,,,,,,,,,,,,,,,,,,,,,,,,,,2024-07-01_13h53.21.248,HideSeek_v1,2023.1.3,59.93457544953925,
,3,2,3,5,0,3,64,,train_dim1_1,4,4,2,0,2,0,,,,,,,,,5,0,5,0,0,3,3,3,6,0,6,0,,,,,,,,,,,,,,,,,,,,,,,,,,,,,,,,,,,,,,,,,,,,,,,,,,,,,,,,,,4,,,,,,,,468.6451590999495,468.6451590999495,468.6451590999495,468.6451590999495,468.6451590999495,,,,,up,0.2937852998729795,3,0,99,0.08,2.7755575615628914e-17,up,0.19499229989014566,None,,,,,,,,,,,,,,,,,,,,,,,,,,,,,,,,,,,,,,,2024-07-01_13h53.21.248,HideSeek_v1,2023.1.3,59.93457544953925,
,3,2,3,5,0,3,64,,train_dim1_1,4,4,2,0,2,0,,,,,,,,,5,0,5,0,0,3,3,3,7,0,7,0,,,,,,,,,,,,,,,,,,,,,,,,,,,,,,,,,,,,,,,,,,,,,,,,,,,,,,,,,,4,,,,,,,,468.94504899997264,468.94504899997264,468.94504899997264,468.94504899997264,468.94504899997264,115,0,0.08,2.7755575615628914e-17,return,0.3767983999568969,4,0,1,0.08,2.7755575615628914e-17,return,0.27261410001665354,None,,,,,,,,,,,,,,,,,,,,,,,,,,,,,,,,,,,,,,,2024-07-01_13h53.21.248,HideSeek_v1,2023.1.3,59.93457544953925,
,2,4,2,5,0,1,62,,train_dim1_1,1,4,2,0,2,0,,,,,,,,,6,0,6,0,0,0,0,0,0,0,0,0,,,,,,,,,,,,,,,,,stimuli/alien_stimuli/62.png,,,,,,,,,,,,,,,,,,,,,,,,,,,,,,,stimuli/alien_stimuli/64.png,64,3,4,17,0.7,1.416666666666667,6,0,1,4,0,conditions/inputTrain_1.7.xlsx,99,1,1,1,0,585.4276143999305,585.4276143999305,585.4276143999305,585.4276143999305,585.4276143999305,,,,,down,13.929430700140074,0,0,99,0,-0.16,down,13.838793200207874,0.004994099959731102,583.8605879000388,585.4276143999305,0.08,0,0.24,0.0,-0.12,0.08,0.08,0.08,0,470.894946699962,470.894946699962,470.894946699962,470.894946699962,470.894946699962,470.894946699962,470.894946699962,470.894946699962,470.8778226000257,113.10074360016733,return,112.94357399991713,None,0,0.37500000000000006,0,6,4,,,,,,,,,,2024-07-01_13h53.21.248,HideSeek_v1,2023.1.3,59.93457544953925,
,2,4,2,5,0,1,62,,train_dim1_1,1,4,2,0,2,0,,,,,,,,,6,0,6,0,0,0,0,0,1,0,1,0,,,,,,,,,,,,,,,,,,,,,,,,,,,,,,,,,,,,,,,,,,,,,,,,,,,,,,,,,,4,,,,,,,,599.3618056999985,599.3618056999985,599.3618056999985,599.3618056999985,599.3618056999985,,,,,up,0.5267738997936249,0,0,99,0,-0.08,up,0.4347952001262456,None,,,,,,,,,,,,,,,,,,,,,,,,,,,,,,,,,,,,,,,2024-07-01_13h53.21.248,HideSeek_v1,2023.1.3,59.93457544953925,
,2,4,2,5,0,1,62,,train_dim1_1,1,4,2,0,2,0,,,,,,,,,6,0,6,0,0,0,0,0,2,0,2,0,,,,,,,,,,,,,,,,,,,,,,,,,,,,,,,,,,,,,,,,,,,,,,,,,,,,,,,,,,4,,,,,,,,599.8952343999408,599.8952343999408,599.8952343999408,599.8952343999408,599.8952343999408,,,,,up,0.1601179998833686,0,0,99,0,0.0,up,0.06890830001793802,None,,,,,,,,,,,,,,,,,,,,,,,,,,,,,,,,,,,,,,,2024-07-01_13h53.21.248,HideSeek_v1,2023.1.3,59.93457544953925,
,2,4,2,5,0,1,62,,train_dim1_1,1,4,2,0,2,0,,,,,,,,,6,0,6,0,0,0,0,0,3,0,3,0,,,,,,,,,,,,,,,,,,,,,,,,,,,,,,,,,,,,,,,,,,,,,,,,,,,,,,,,,,4,,,,,,,,600.0608880000655,600.0608880000655,600.0608880000655,600.0608880000655,600.0608880000655,116,0,0,0.0,return,0.2774926999118179,1,0,1,0,0.0,return,0.1936454998794943,None,,,,,,,,,,,,,,,,,,,,,,,,,,,,,,,,,,,,,,,2024-07-01_13h53.21.248,HideSeek_v1,2023.1.3,59.93457544953925,
,0,1,0,5,0,4,65,,train_dim1_1,2,4,2,0,2,0,,,,,,,,,6,0,6,0,0,1,1,1,0,0,0,0,,,,,,,,,,,,,,,,,stimuli/alien_stimuli/65.png,,,,,,,,,,,,,,,,,,,,,,,,,,,,,,,stimuli/alien_stimuli/62.png,62,2,1,,,,,,,4,,,,,,,,626.8793806000613,626.8793806000613,626.8793806000613,626.8793806000613,626.8793806000613,,,,,up,0.5246584999840707,1,0,99,-0.16,-0.24,up,0.43496159999631345,None,625.3263469999656,626.8793806000613,0,0,0.08,0.0,-0.04,0,0.0,0,0,601.894405100029,601.894405100029,601.894405100029,601.894405100029,601.894405100029,601.894405100029,601.894405100029,601.894405100029,601.8765732000116,23.534971099812537,return,23.412471800111234,None,,,,,,,,,,,,,,,2024-07-01_13h53.21.248,HideSeek_v1,2023.1.3,59.93457544953925,
,0,1,0,5,0,4,65,,train_dim1_1,2,4,2,0,2,0,,,,,,,,,6,0,6,0,0,1,1,1,1,0,1,0,,,,,,,,,,,,,,,,,,,,,,,,,,,,,,,,,,,,,,,,,,,,,,,,,,,,,,,,,,4,,,,,,,,627.40929770004,627.40929770004,627.40929770004,627.40929770004,627.40929770004,,,,,up,0.24358820007182658,1,0,99,-0.16,-0.15999999999999998,up,0.16350529994815588,None,,,,,,,,,,,,,,,,,,,,,,,,,,,,,,,,,,,,,,,2024-07-01_13h53.21.248,HideSeek_v1,2023.1.3,59.93457544953925,
,0,1,0,5,0,4,65,,train_dim1_1,2,4,2,0,2,0,,,,,,,,,6,0,6,0,0,1,1,1,2,0,2,0,,,,,,,,,,,,,,,,,,,,,,,,,,,,,,,,,,,,,,,,,,,,,,,,,,,,,,,,,,4,,,,,,,,627.6766715999693,627.6766715999693,627.6766715999693,627.6766715999693,627.6766715999693,,,,,up,0.27693599998019636,1,0,99,-0.16,-0.07999999999999997,up,0.17642649984918535,None,,,,,,,,,,,,,,,,,,,,,,,,,,,,,,,,,,,,,,,2024-07-01_13h53.21.248,HideSeek_v1,2023.1.3,59.93457544953925,
,0,1,0,5,0,4,65,,train_dim1_1,2,4,2,0,2,0,,,,,,,,,6,0,6,0,0,1,1,1,3,0,3,0,,,,,,,,,,,,,,,,,,,,,,,,,,,,,,,,,,,,,,,,,,,,,,,,,,,,,,,,,,4,,,,,,,,627.9446845999919,627.9446845999919,627.9446845999919,627.9446845999919,627.9446845999919,,,,,up,0.21110990014858544,1,0,99,-0.16,2.7755575615628914e-17,up,0.1263674001675099,None,,,,,,,,,,,,,,,,,,,,,,,,,,,,,,,,,,,,,,,2024-07-01_13h53.21.248,HideSeek_v1,2023.1.3,59.93457544953925,
,0,1,0,5,0,4,65,,train_dim1_1,2,4,2,0,2,0,,,,,,,,,6,0,6,0,0,1,1,1,4,0,4,0,,,,,,,,,,,,,,,,,,,,,,,,,,,,,,,,,,,,,,,,,,,,,,,,,,,,,,,,,,4,,,,,,,,628.161904900102,628.161904900102,628.161904900102,628.161904900102,628.161904900102,120,0,-0.16,2.7755575615628914e-17,return,0.29339320003055036,2,0,1,-0.16,2.7755575615628914e-17,return,0.2084492000285536,None,,,,,,,,,,,,,,,,,,,,,,,,,,,,,,,,,,,,,,,2024-07-01_13h53.21.248,HideSeek_v1,2023.1.3,59.93457544953925,
