trialInstr,x_fixStart,y_fixStart,x_corrSteps,y_corrSteps,x_nrSteps,y_nrSteps,alienID,trialLength,version,trialTrain,praclen,testlen,trial_label,break_on_off,beforeExpLoop.thisRepN,beforeExpLoop.thisTrialN,beforeExpLoop.thisN,beforeExpLoop.thisIndex,mini_instr_trials.thisRepN,mini_instr_trials.thisTrialN,mini_instr_trials.thisN,mini_instr_trials.thisIndex,instrLoop.thisRepN,instrLoop.thisTrialN,instrLoop.thisN,instrLoop.thisIndex,repeat_prac.thisRepN,repeat_prac.thisTrialN,repeat_prac.thisN,repeat_prac.thisIndex,trainLoop.thisRepN,trainLoop.thisTrialN,trainLoop.thisN,trainLoop.thisIndex,moveLoop_train.thisRepN,moveLoop_train.thisTrialN,moveLoop_train.thisN,moveLoop_train.thisIndex,experiment.thisRepN,experiment.thisTrialN,experiment.thisN,experiment.thisIndex,moveLoop_test.thisRepN,moveLoop_test.thisTrialN,moveLoop_test.thisN,moveLoop_test.thisIndex,mini_instr2_trials.thisRepN,mini_instr2_trials.thisTrialN,mini_instr2_trials.thisN,mini_instr2_trials.thisIndex,start_all_time,url,slideStim,audioStim,slides.started,sounds.started,nextButton.numClicks,nextButton.timesOn,nextButton.timesOff,prev_but.numClicks,prev_but.timesOn,prev_but.timesOff,alienStim,instrFile,alienStim_instr,gridImage_instr.started,startPos_3.started,key_instr.started,alienImage_3.started,sounds_1.started,key_instr.keys,key_instr.rt,all_x,all_y,FBy_corrSteps,FBy_fixStart,FBx_corrSteps,FBx_fixStart,FBy_pathSize_check,FBx_pathSize_check,gridImage_9.started,alienImageFB_3.started,startPosFB_3.started,keyFB_3.started,pathLine_ydir_2.started,pathLine_xdir_2.started,alienFace_3.started,sounds_2.started,RTFB_instr,keyFB_3.keys,keyFB_3.rt,draw_alienStim,draw_alienID,test_x,nrepcount,perfthres,percthres,earlierperf,earlystop,nextPrac,fileidx,praclen,saveACC_train,pracFile,nextPrac_train,addNrep,fileidx_endr,repExp,showearly,gridImage_4.started,startPos.started,movePos.started,key_resp.started,alienImage.started,buttonPress_train,RTchoice_train,cumAcctrain,aCorr,saveACC_choice,corrAns,x_movePos_end,y_movePos_end,key_resp.keys,key_resp.rt,wLy_dir,wLx_dir,x_movePos,y_movePos,text_2.started,text_2.stopped,aft_x_corrPos,aft_y_corrPos,y_pathSize_check,x_pathSize_check,y_pathdirY,x_pathdirY,x_pathdirX,x_corrPos,y_corrPos,gridImage_6.started,alienImageFB_2.started,startPosFB_2.started,movePosFB_2.started,keyFB_2.started,pathLine_xdir.started,pathLine_ydir.started,alienFace.started,sounds_4.started,RT_FBtrain,keyFB_2.keys,keyFB_2.rt,saveACC_pre,ACC,within_saveACC_train,earlystop_wloop,cumAcctrain_check,gridImage_3.started,alienImage_test.started,startPos_test.started,movePos_test.started,key_resp_test.started,wLy_dir_test,wLx_dir_test,buttonPress_test,RTchoice_test,cumAcctest,corrAns_test,key_resp_test.keys,key_resp_test.rt,text_3.started,text_3.stopped,total_time,end_all_time,key_resp_3.keys,slides_2.started,sounds_3.started,nextButton_2.numClicks,nextButton_2.timesOn,nextButton_2.timesOff,prev_but_2.numClicks,prev_but_2.timesOn,prev_but_2.timesOff,bye.started,participant,train_first,00_coordinate,starting corner,date,expName,psychopyVersion,frameRate,
,,,,,,,,,,,,,,,0,0,0,0,0,0,0,0,,,,,,,,,,,,,,,,,,,,,,,,,,,,,start_all_time,testround,conditions/schedules/train_x_first/blue_star_00/top_left/instructions/Slide1.png,conditions/schedules/train_x_first/blue_star_00/top_left/instructions/Audio1.wav,1342.2880845000036,1342.2383599584923,1,[8.514610700076446],[8.514618299901485],0,,,,,,,,,,,,,,,,,,,,,,,,,,,,,,,,,,,,,,,,,,,,,,,,,,,,,,,,,,,,,,,,,,,,,,,,,,,,,,,,,,,,,,,,,,,,,,,,,,,,,,,,,,,,,,,,,,,,,,,,,,,,A0D2RV,train_x,blue_star,top_left,2025-02-05_15h43.27.230,HideSeek_v1,2022.2.5,59.94100610105,
,,,,,,,,,,,,,,,0,0,0,0,1,0,1,0,,,,,,,,,,,,,,,,,,,,,,,,,,,,,,,conditions/schedules/train_x_first/blue_star_00/top_left/instructions/Slide2.png,conditions/schedules/train_x_first/blue_star_00/top_left/instructions/Audio2.wav,1350.8226246000268,1350.8119790199678,2,"[8.514610700076446, 18.669747800100595]","[0.000215600011870265, 18.669754900038242]",0,,,,,,,,,,,,,,,,,,,,,,,,,,,,,,,,,,,,,,,,,,,,,,,,,,,,,,,,,,,,,,,,,,,,,,,,,,,,,,,,,,,,,,,,,,,,,,,,,,,,,,,,,,,,,,,,,,,,,,,,,,,,A0D2RV,train_x,blue_star,top_left,2025-02-05_15h43.27.230,HideSeek_v1,2022.2.5,59.94100610105,
,,,,,,,,,,,,,,,0,0,0,0,2,0,2,0,,,,,,,,,,,,,,,,,,,,,,,,,,,,,,,conditions/schedules/train_x_first/blue_star_00/top_left/instructions/Slide3.png,conditions/schedules/train_x_first/blue_star_00/top_left/instructions/Audio3.wav,1369.5561733001377,1369.544546120055,3,"[8.514610700076446, 18.669747800100595, 17.433705400209874]","[0.000215600011870265, 0.01445010001771152, 17.43371250014752]",0,,,,,,,,,,,,,,,,,,,,,,,,,,,,,,,,,,,,,,,,,,,,,,,,,,,,,,,,,,,,,,,,,,,,,,,,,,,,,,,,,,,,,,,,,,,,,,,,,,,,,,,,,,,,,,,,,,,,,,,,,,,,A0D2RV,train_x,blue_star,top_left,2025-02-05_15h43.27.230,HideSeek_v1,2022.2.5,59.94100610105,
,,,,,,,,,,,,,,,0,0,0,0,3,0,3,0,,,,,,,,,,,,,,,,,,,,,,,,,,,,,,,conditions/schedules/train_x_first/blue_star_00/top_left/instructions/Slide4.png,conditions/schedules/train_x_first/blue_star_00/top_left/instructions/Audio4.wav,1387.0675039999187,1387.0587592999218,4,"[8.514610700076446, 18.669747800100595, 17.433705400209874, 19.388229799922556]","[0.000215600011870265, 0.01445010001771152, 0.03550029988400638, 19.38823619997129]",0,,,,,,,,,,,,,,,,,,,,,,,,,,,,,,,,,,,,,,,,,,,,,,,,,,,,,,,,,,,,,,,,,,,,,,,,,,,,,,,,,,,,,,,,,,,,,,,,,,,,,,,,,,,,,,,,,,,,,,,,,,,,A0D2RV,train_x,blue_star,top_left,2025-02-05_15h43.27.230,HideSeek_v1,2022.2.5,59.94100610105,
,,,,,,,,,,,,,,,0,0,0,0,4,0,4,0,,,,,,,,,,,,,,,,,,,,,,,,,,,,,,,conditions/schedules/train_x_first/blue_star_00/top_left/instructions/Slide5.png,conditions/schedules/train_x_first/blue_star_00/top_left/instructions/Audio5.wav,1406.5207531000488,1406.508208719967,5,"[8.514610700076446, 18.669747800100595, 17.433705400209874, 19.388229799922556, 4.505756800062954]","[0.000215600011870265, 0.01445010001771152, 0.03550029988400638, 0.014390799915418029, 4.505763999884948]",0,,,,,,,,,,,,,,,,,,,,,,,,,,,,,,,,,,,,,,,,,,,,,,,,,,,,,,,,,,,,,,,,,,,,,,,,,,,,,,,,,,,,,,,,,,,,,,,,,,,,,,,,,,,,,,,,,,,,,,,,,,,,A0D2RV,train_x,blue_star,top_left,2025-02-05_15h43.27.230,HideSeek_v1,2022.2.5,59.94100610105,
,,,,,,,,,,,,,,,0,0,0,0,5,0,5,0,,,,,,,,,,,,,,,,,,,,,,,,,,,,,,,conditions/schedules/train_x_first/blue_star_00/top_left/instructions/Slide6.png,conditions/schedules/train_x_first/blue_star_00/top_left/instructions/Audio6.wav,1411.0749564999714,1411.0620432400844,6,"[8.514610700076446, 18.669747800100595, 17.433705400209874, 19.388229799922556, 4.505756800062954, 4.488769300049171]","[0.000215600011870265, 0.01445010001771152, 0.03550029988400638, 0.014390799915418029, 0.1014388999901712, 4.488777100108564]",0,,,,,,,,,,,,,,,,,,,,,,,,,,,,,,,,,,,,,,,,,,,,,,,,,,,,,,,,,,,,,,,,,,,,,,,,,,,,,,,,,,,,,,,,,,,,,,,,,,,,,,,,,,,,,,,,,,,,,,,,,,,,A0D2RV,train_x,blue_star,top_left,2025-02-05_15h43.27.230,HideSeek_v1,2022.2.5,59.94100610105,
,,,,,,,,,,,,,,,0,0,0,0,6,0,6,0,,,,,,,,,,,,,,,,,,,,,,,,,,,,,,,conditions/schedules/train_x_first/blue_star_00/top_left/instructions/Slide7.png,conditions/schedules/train_x_first/blue_star_00/top_left/instructions/Audio7.wav,1415.628342299955,1415.6160289200022,7,"[8.514610700076446, 18.669747800100595, 17.433705400209874, 19.388229799922556, 4.505756800062954, 4.488769300049171, 5.439589299960062]","[0.000215600011870265, 0.01445010001771152, 0.03550029988400638, 0.014390799915418029, 0.1014388999901712, 0.0683271000161767, 5.439596500014886]",0,,,,,,,,,,,,,,,,,,,,,,,,,,,,,,,,,,,,,,,,,,,,,,,,,,,,,,,,,,,,,,,,,,,,,,,,,,,,,,,,,,,,,,,,,,,,,,,,,,,,,,,,,,,,,,,,,,,,,,,,,,,,A0D2RV,train_x,blue_star,top_left,2025-02-05_15h43.27.230,HideSeek_v1,2022.2.5,59.94100610105,
,,,,,,,,,,,,,,,0,0,0,0,7,0,7,0,,,,,,,,,,,,,,,,,,,,,,,,,,,,,,,conditions/schedules/train_x_first/blue_star_00/top_left/instructions/Slide8.png,conditions/schedules/train_x_first/blue_star_00/top_left/instructions/Audio8.wav,1421.118352000136,1421.120488719968,8,"[8.514610700076446, 18.669747800100595, 17.433705400209874, 19.388229799922556, 4.505756800062954, 4.488769300049171, 5.439589299960062, 11.625806099968031]","[0.000215600011870265, 0.01445010001771152, 0.03550029988400638, 0.014390799915418029, 0.1014388999901712, 0.0683271000161767, 0.08308249991387129, 11.62581259990111]",0,,,,,,,,,,,,,,,,,,,,,,,,,,,,,,,,,,,,,,,,,,,,,,,,,,,,,,,,,,,,,,,,,,,,,,,,,,,,,,,,,,,,,,,,,,,,,,,,,,,,,,,,,,,,,,,,,,,,,,,,,,,,A0D2RV,train_x,blue_star,top_left,2025-02-05_15h43.27.230,HideSeek_v1,2022.2.5,59.94100610105,
,,,,,,,,,,,,,,,0,0,0,0,8,0,8,0,,,,,,,,,,,,,,,,,,,,,,,,,,,,,,,conditions/schedules/train_x_first/blue_star_00/top_left/instructions/Slide9.png,conditions/schedules/train_x_first/blue_star_00/top_left/instructions/Audio9.wav,1432.8079705999698,1432.7969221199862,9,"[8.514610700076446, 18.669747800100595, 17.433705400209874, 19.388229799922556, 4.505756800062954, 4.488769300049171, 5.439589299960062, 11.625806099968031, 6.407959500094876]","[0.000215600011870265, 0.01445010001771152, 0.03550029988400638, 0.014390799915418029, 0.1014388999901712, 0.0683271000161767, 0.08308249991387129, 0.0694528000894934, 6.407966099912301]",0,,,,,,,,,,,,,,,,,,,,,,,,,,,,,,,,,,,,,,,,,,,,,,,,,,,,,,,,,,,,,,,,,,,,,,,,,,,,,,,,,,,,,,,,,,,,,,,,,,,,,,,,,,,,,,,,,,,,,,,,,,,,A0D2RV,train_x,blue_star,top_left,2025-02-05_15h43.27.230,HideSeek_v1,2022.2.5,59.94100610105,
,,,,,,,,,,,,,,,0,0,0,0,9,0,9,0,,,,,,,,,,,,,,,,,,,,,,,,,,,,,,,conditions/schedules/train_x_first/blue_star_00/top_left/instructions/Slide10.png,conditions/schedules/train_x_first/blue_star_00/top_left/instructions/Audio10.wav,1439.25408470002,1439.2519256400644,10,"[8.514610700076446, 18.669747800100595, 17.433705400209874, 19.388229799922556, 4.505756800062954, 4.488769300049171, 5.439589299960062, 11.625806099968031, 6.407959500094876, 7.318219000007957]","[0.000215600011870265, 0.01445010001771152, 0.03550029988400638, 0.014390799915418029, 0.1014388999901712, 0.0683271000161767, 0.08308249991387129, 0.0694528000894934, 0.0657044998370111, 7.318225999828428]",0,,,,,,,,,,,,,,,,,,,,,,,,,,,,,,,,,,,,,,,,,,,,,,,,,,,,,,,,,,,,,,,,,,,,,,,,,,,,,,,,,,,,,,,,,,,,,,,,,,,,,,,,,,,,,,,,,,,,,,,,,,,,A0D2RV,train_x,blue_star,top_left,2025-02-05_15h43.27.230,HideSeek_v1,2022.2.5,59.94100610105,
,,,,,,,,,,,,,,,0,0,0,0,10,0,10,0,,,,,,,,,,,,,,,,,,,,,,,,,,,,,,,conditions/schedules/train_x_first/blue_star_00/top_left/instructions/Slide11.png,conditions/schedules/train_x_first/blue_star_00/top_left/instructions/Audio11.wav,1446.6234188000672,1446.6248626200947,11,"[8.514610700076446, 18.669747800100595, 17.433705400209874, 19.388229799922556, 4.505756800062954, 4.488769300049171, 5.439589299960062, 11.625806099968031, 6.407959500094876, 7.318219000007957, 12.509170199977234]","[0.000215600011870265, 0.01445010001771152, 0.03550029988400638, 0.014390799915418029, 0.1014388999901712, 0.0683271000161767, 0.08308249991387129, 0.0694528000894934, 0.0657044998370111, 0.09901070012710989, 12.509176900144666]",0,,,,,,,,,,,,,,,,,,,,,,,,,,,,,,,,,,,,,,,,,,,,,,,,,,,,,,,,,,,,,,,,,,,,,,,,,,,,,,,,,,,,,,,,,,,,,,,,,,,,,,,,,,,,,,,,,,,,,,,,,,,,A0D2RV,train_x,blue_star,top_left,2025-02-05_15h43.27.230,HideSeek_v1,2022.2.5,59.94100610105,
,,,,,,,,,,,,,,,0,0,0,0,11,0,11,0,,,,,,,,,,,,,,,,,,,,,,,,,,,,,,,conditions/schedules/train_x_first/blue_star_00/top_left/instructions/Slide12.png,conditions/schedules/train_x_first/blue_star_00/top_left/instructions/Audio12.wav,1459.2045247999486,1459.2018773000455,12,"[8.514610700076446, 18.669747800100595, 17.433705400209874, 19.388229799922556, 4.505756800062954, 4.488769300049171, 5.439589299960062, 11.625806099968031, 6.407959500094876, 7.318219000007957, 12.509170199977234, 12.588662000140175]","[0.000215600011870265, 0.01445010001771152, 0.03550029988400638, 0.014390799915418029, 0.1014388999901712, 0.0683271000161767, 0.08308249991387129, 0.0694528000894934, 0.0657044998370111, 0.09901070012710989, 0.029777900082990527, 12.588669300079346]",0,,,,,,,,,,,,,,,,,,,,,,,,,,,,,,,,,,,,,,,,,,,,,,,,,,,,,,,,,,,,,,,,,,,,,,,,,,,,,,,,,,,,,,,,,,,,,,,,,,,,,,,,,,,,,,,,,,,,,,,,,,,,A0D2RV,train_x,blue_star,top_left,2025-02-05_15h43.27.230,HideSeek_v1,2022.2.5,59.94100610105,
1,4,5,9,5,5,0,11,2,instr_dim1_1,,,,,,0,0,0,0,,,,,0,0,0,0,,,,,,,,,,,,,,,,,,,,,,,,,,,,,,,,,,,,,stimuli/alien_stimuli/11.png,conditions/schedules/train_x_first/blue_star_00/top_left/inputInstr_1.xlsx,stimuli/alien_stimuli/11.png,1471.8948848000728,1471.8948848000728,1471.8948848000728,1471.8948848000728,1471.8958247599426,return,11.325222699902952,"[-0.16, -0.08, 0, 0.08, 0.16, 0.24, 0.32, 0.4, 0.48, 0.56]","[-0.4, -0.32, -0.24, -0.16, -0.08, 0, 0.08, 0.16, 0.24, 0.32]",5,5,9,4,0.0,0.4,1483.3917473000474,1483.3917473000474,1483.3917473000474,1483.3917473000474,1483.3917473000474,1483.3917473000474,1483.3917473000474,1483.3886935999617,9.641545300139114,return,9.459202900063246,stimuli/alien_stimuli/11.png,11,4,1,,,,,,,,,,,,,,,,,,,,,,,,,,,,,,,,,,,,,,,,,,,,,,,,,,,,,,,,,,,,,,,,,,,,,,,,,,,,,,,,,,,,,,,,,A0D2RV,train_x,blue_star,top_left,2025-02-05_15h43.27.230,HideSeek_v1,2022.2.5,59.94100610105,
,,,,,,,,,,,30,,,,0,0,0,0,,,,,,,,,,,,,,,,,,,,,,,,,,,,,,,,,,,,,,,,,,,,,,,,,,,,,,,,,,,,,,,,,,,,,,,,,,,,,,21,0.7,0,0,99,1,30,0,conditions/schedules/train_x_first/blue_star_00/top_left/inputTrain_1.1.xlsx,99,1,1,1,0,,,,,,,,,,,,,,,,,,,,,,,,,,,,,,,,,,,,,,,,,,,,,,,,,,,,,,,,,,,,,,,,,,,,,,,,,,,A0D2RV,train_x,blue_star,top_left,2025-02-05_15h43.27.230,HideSeek_v1,2022.2.5,59.94100610105,
,,,,,,,,,,,,,,,1,0,1,0,0,0,0,0,,,,,,,,,,,,,,,,,,,,,,,,,,,,,,,conditions/schedules/train_x_first/blue_star_00/top_left/instructions/Slide13.png,conditions/schedules/train_x_first/blue_star_00/top_left/instructions/Audio13.wav,1493.0072958001401,1492.9964021399153,13,"[8.514610700076446, 18.669747800100595, 17.433705400209874, 19.388229799922556, 4.505756800062954, 4.488769300049171, 5.439589299960062, 11.625806099968031, 6.407959500094876, 7.318219000007957, 12.509170199977234, 12.588662000140175, 17.801368900109082]","[0.000215600011870265, 0.01445010001771152, 0.03550029988400638, 0.014390799915418029, 0.1014388999901712, 0.0683271000161767, 0.08308249991387129, 0.0694528000894934, 0.0657044998370111, 0.09901070012710989, 0.029777900082990527, 12.588669300079346, 17.8013762999326]",0,,,,,,,,,,,,,,,,,,,,,,,,,,,,,,,,,,,,,,,,,,,,,,,,,,,,,,,,,,,,,,,,,,,,,,,,,,,,,,,,,,,,,,,,,,,,,,,,,,,,,,,,,,,,,,,,,,,,,,,,,,,,A0D2RV,train_x,blue_star,top_left,2025-02-05_15h43.27.230,HideSeek_v1,2022.2.5,59.94100610105,
,,,,,,,,,,,,,,,1,0,1,0,1,0,1,0,,,,,,,,,,,,,,,,,,,,,,,,,,,,,,,conditions/schedules/train_x_first/blue_star_00/top_left/instructions/Slide14.png,conditions/schedules/train_x_first/blue_star_00/top_left/instructions/Audio14.wav,1510.8804317999166,1510.8779588000616,14,"[8.514610700076446, 18.669747800100595, 17.433705400209874, 19.388229799922556, 4.505756800062954, 4.488769300049171, 5.439589299960062, 11.625806099968031, 6.407959500094876, 7.318219000007957, 12.509170199977234, 12.588662000140175, 17.801368900109082, 12.789129700046033]","[0.000215600011870265, 0.01445010001771152, 0.03550029988400638, 0.014390799915418029, 0.1014388999901712, 0.0683271000161767, 0.08308249991387129, 0.0694528000894934, 0.0657044998370111, 0.09901070012710989, 0.029777900082990527, 12.588669300079346, 0.08427469991147518, 12.789136199979112]",0,,,,,,,,,,,,,,,,,,,,,,,,,,,,,,,,,,,,,,,,,,,,,,,,,,,,,,,,,,,,,,,,,,,,,,,,,,,,,,,,,,,,,,,,,,,,,,,,,,,,,,,,,,,,,,,,,,,,,,,,,,,,A0D2RV,train_x,blue_star,top_left,2025-02-05_15h43.27.230,HideSeek_v1,2022.2.5,59.94100610105,
2,3,7,3,7,0,0,61,2,instr_dim1_1,,,,,,1,0,1,0,,,,,0,0,0,0,,,,,,,,,,,,,,,,,,,,,,,,,,,,,,,,,,,,,stimuli/alien_stimuli/61.png,conditions/schedules/train_x_first/blue_star_00/top_left/inputInstr_1.xlsx,stimuli/alien_stimuli/61.png,1523.7721140999347,1523.7721140999347,1523.7721140999347,1523.7721140999347,1523.7720361600864,return,6.681000999873504,"[-0.16, -0.08, 0, 0.08, 0.16, 0.24, 0.32, 0.4, 0.48, 0.56]","[-0.4, -0.32, -0.24, -0.16, -0.08, 0, 0.08, 0.16, 0.24, 0.32]",7,7,3,3,0.0,0.0,1530.6134633999318,1530.6134633999318,1530.6134633999318,1530.6134633999318,1530.6134633999318,1530.6134633999318,1530.6134633999318,1530.594368040003,9.558587700128555,return,9.395974999992177,stimuli/alien_stimuli/61.png,61,3,2,,,,,,,,,,,,,,,,,,,,,,,,,,,,,,,,,,,,,,,,,,,,,,,,,,,,,,,,,,,,,,,,,,,,,,,,,,,,,,,,,,,,,,,,,A0D2RV,train_x,blue_star,top_left,2025-02-05_15h43.27.230,HideSeek_v1,2022.2.5,59.94100610105,
,,,,,,,,,,,30,,,,1,0,1,0,,,,,,,,,,,,,,,,,,,,,,,,,,,,,,,,,,,,,,,,,,,,,,,,,,,,,,,,,,,,,,,,,,,,,,,,,,,,,,21,0.7,0,0,99,1,30,0,conditions/schedules/train_x_first/blue_star_00/top_left/inputTrain_1.1.xlsx,99,1,1,1,0,,,,,,,,,,,,,,,,,,,,,,,,,,,,,,,,,,,,,,,,,,,,,,,,,,,,,,,,,,,,,,,,,,,,,,,,,,,A0D2RV,train_x,blue_star,top_left,2025-02-05_15h43.27.230,HideSeek_v1,2022.2.5,59.94100610105,
,,,,,,,,,,,,,,,2,0,2,0,0,0,0,0,,,,,,,,,,,,,,,,,,,,,,,,,,,,,,,conditions/schedules/train_x_first/blue_star_00/top_left/instructions/Slide15.png,conditions/schedules/train_x_first/blue_star_00/top_left/instructions/Audio15.wav,1540.1725813001394,1540.1688981198938,15,"[8.514610700076446, 18.669747800100595, 17.433705400209874, 19.388229799922556, 4.505756800062954, 4.488769300049171, 5.439589299960062, 11.625806099968031, 6.407959500094876, 7.318219000007957, 12.509170199977234, 12.588662000140175, 17.801368900109082, 12.789129700046033, 31.904002099996433]","[0.000215600011870265, 0.01445010001771152, 0.03550029988400638, 0.014390799915418029, 0.1014388999901712, 0.0683271000161767, 0.08308249991387129, 0.0694528000894934, 0.0657044998370111, 0.09901070012710989, 0.029777900082990527, 12.588669300079346, 0.08427469991147518, 12.789136199979112, 31.90401029982604]",0,,,,,,,,,,,,,,,,,,,,,,,,,,,,,,,,,,,,,,,,,,,,,,,,,,,,,,,,,,,,,,,,,,,,,,,,,,,,,,,,,,,,,,,,,,,,,,,,,,,,,,,,,,,,,,,,,,,,,,,,,,,,A0D2RV,train_x,blue_star,top_left,2025-02-05_15h43.27.230,HideSeek_v1,2022.2.5,59.94100610105,
,,,,,,,,,,,,,,,2,0,2,0,1,0,1,0,,,,,,,,,,,,,,,,,,,,,,,,,,,,,,,conditions/schedules/train_x_first/blue_star_00/top_left/instructions/Slide16.png,conditions/schedules/train_x_first/blue_star_00/top_left/instructions/Audio16.wav,1572.13477470004,1572.1289628201164,16,"[8.514610700076446, 18.669747800100595, 17.433705400209874, 19.388229799922556, 4.505756800062954, 4.488769300049171, 5.439589299960062, 11.625806099968031, 6.407959500094876, 7.318219000007957, 12.509170199977234, 12.588662000140175, 17.801368900109082, 12.789129700046033, 31.904002099996433, 21.62614609999582]","[0.000215600011870265, 0.01445010001771152, 0.03550029988400638, 0.014390799915418029, 0.1014388999901712, 0.0683271000161767, 0.08308249991387129, 0.0694528000894934, 0.0657044998370111, 0.09901070012710989, 0.029777900082990527, 12.588669300079346, 0.08427469991147518, 12.789136199979112, 0.0807722001336515, 21.626152700046077]",0,,,,,,,,,,,,,,,,,,,,,,,,,,,,,,,,,,,,,,,,,,,,,,,,,,,,,,,,,,,,,,,,,,,,,,,,,,,,,,,,,,,,,,,,,,,,,,,,,,,,,,,,,,,,,,,,,,,,,,,,,,,,A0D2RV,train_x,blue_star,top_left,2025-02-05_15h43.27.230,HideSeek_v1,2022.2.5,59.94100610105,
,2,6,5,6,3,0,31,,train_dim1_1,1,30,,,,2,0,2,0,,,,,,,,,0,0,0,0,0,0,0,0,0,0,0,0,,,,,,,,,,,,,,,,,,,,,,,,,stimuli/alien_stimuli/31.png,,,,,,,,,,,,,,,,,,,,,,,,,,,,,,,,,,,,,,,30,,,,,,,,1593.8587372999173,1593.8587372999173,1593.8587372999173,1593.8587372999173,1593.8587372999173,down,14.007396000204608,0,0,0,99,0,0.0,down,13.911315999925137,,,,,,,,,,,,,,,,,,,,,,,,,,,,,,,,,,,,,,,,,,,,,,,,,,,,,,,,,,,,A0D2RV,train_x,blue_star,top_left,2025-02-05_15h43.27.230,HideSeek_v1,2022.2.5,59.94100610105,
,2,6,5,6,3,0,31,,train_dim1_1,1,30,,,,2,0,2,0,,,,,,,,,0,0,0,0,0,0,0,0,1,0,1,0,,,,,,,,,,,,,,,,,,,,,,,,,,,,,,,,,,,,,,,,,,,,,,,,,,,,,,,,,,,,,,,,30,,,,,,,,1607.8688890999183,1607.8688890999183,1607.8688890999183,1607.8688890999183,1607.8688890999183,down,4.195942299906164,0,0,0,99,0,-0.08,down,4.105201500002295,,,,,,,,,,,,,,,,,,,,,,,,,,,,,,,,,,,,,,,,,,,,,,,,,,,,,,,,,,,,A0D2RV,train_x,blue_star,top_left,2025-02-05_15h43.27.230,HideSeek_v1,2022.2.5,59.94100610105,
,2,6,5,6,3,0,31,,train_dim1_1,1,30,,,,2,0,2,0,,,,,,,,,0,0,0,0,0,0,0,0,2,0,2,0,,,,,,,,,,,,,,,,,,,,,,,,,,,,,,,,,,,,,,,,,,,,,,,,,,,,,,,,,,,,,,,,30,,,,,,,,1612.0590305000078,1612.0590305000078,1612.0590305000078,1612.0590305000078,1612.0590305000078,up,2.1116021999623626,0,0,0,99,0,0.0,up,2.0303449002094567,,,,,,,,,,,,,,,,,,,,,,,,,,,,,,,,,,,,,,,,,,,,,,,,,,,,,,,,,,,,A0D2RV,train_x,blue_star,top_left,2025-02-05_15h43.27.230,HideSeek_v1,2022.2.5,59.94100610105,
,2,6,5,6,3,0,31,,train_dim1_1,1,30,,,,2,0,2,0,,,,,,,,,0,0,0,0,0,0,0,0,3,0,3,0,,,,,,,,,,,,,,,,,,,,,,,,,,,,,,,,,,,,,,,,,,,,,,,,,,,,,,,,,,,,,,,,30,,,,,,,,1614.1773981000297,1614.1773981000297,1614.1773981000297,1614.1773981000297,1614.1773981000297,up,0.7103297000285238,0,0,0,99,0,0.08,up,0.621872799936682,,,,,,,,,,,,,,,,,,,,,,,,,,,,,,,,,,,,,,,,,,,,,,,,,,,,,,,,,,,,A0D2RV,train_x,blue_star,top_left,2025-02-05_15h43.27.230,HideSeek_v1,2022.2.5,59.94100610105,
,2,6,5,6,3,0,31,,train_dim1_1,1,30,,,,2,0,2,0,,,,,,,,,0,0,0,0,0,0,0,0,4,0,4,0,,,,,,,,,,,,,,,,,,,,,,,,,,,,,,,,,,,,,,,,,,,,,,,,,,,,,,,,,,,,,,,,30,,,,,,,,1614.894649400143,1614.894649400143,1614.894649400143,1614.894649400143,1614.894649400143,right,13.82143669994548,0,0,0,99,0.08,0.08,right,13.738420099951327,,,,,,,,,,,,,,,,,,,,,,,,,,,,,,,,,,,,,,,,,,,,,,,,,,,,,,,,,,,,A0D2RV,train_x,blue_star,top_left,2025-02-05_15h43.27.230,HideSeek_v1,2022.2.5,59.94100610105,
,2,6,5,6,3,0,31,,train_dim1_1,1,30,,,,2,0,2,0,,,,,,,,,0,0,0,0,0,0,0,0,5,0,5,0,,,,,,,,,,,,,,,,,,,,,,,,,,,,,,,,,,,,,,,,,,,,,,,,,,,,,,,,,,,,,,,,30,,,,,,,,1628.7362601999193,1628.7362601999193,1628.7362601999193,1628.7362601999193,1628.7362601999193,right,1.9283227000851184,0,0,0,99,0.16,0.08,right,1.8264574999921024,,,,,,,,,,,,,,,,,,,,,,,,,,,,,,,,,,,,,,,,,,,,,,,,,,,,,,,,,,,,A0D2RV,train_x,blue_star,top_left,2025-02-05_15h43.27.230,HideSeek_v1,2022.2.5,59.94100610105,
,2,6,5,6,3,0,31,,train_dim1_1,1,30,,,,2,0,2,0,,,,,,,,,0,0,0,0,0,0,0,0,6,0,6,0,,,,,,,,,,,,,,,,,,,,,,,,,,,,,,,,,,,,,,,,,,,,,,,,,,,,,,,,,,,,,,,,30,,,,,,,,1630.6577834000345,1630.6577834000345,1630.6577834000345,1630.6577834000345,1630.6577834000345,right,3.2453399000223726,0,0,0,99,0.24,0.08,right,3.168491299962625,,,,,,,,,,,,,,,,,,,,,,,,,,,,,,,,,,,,,,,,,,,,,,,,,,,,,,,,,,,,A0D2RV,train_x,blue_star,top_left,2025-02-05_15h43.27.230,HideSeek_v1,2022.2.5,59.94100610105,
,2,6,5,6,3,0,31,,train_dim1_1,1,30,,,,2,0,2,0,,,,,,,,,0,0,0,0,0,0,0,0,7,0,7,0,,,,,,,,,,,,,,,,,,,,,,,,,,,,,,,,,,,,,,,,,,,,,,,,,,,,,,,,,,,,,,,,30,,,,,,,,1633.9100734000094,1633.9100734000094,1633.9100734000094,1633.9100734000094,1633.9100734000094,right,2.6954874999355525,0,0,0,99,0.32,0.08,right,2.6105980998836458,,,,,,,,,,,,,,,,,,,,,,,,,,,,,,,,,,,,,,,,,,,,,,,,,,,,,,,,,,,,A0D2RV,train_x,blue_star,top_left,2025-02-05_15h43.27.230,HideSeek_v1,2022.2.5,59.94100610105,
,2,6,5,6,3,0,31,,train_dim1_1,1,30,,,,2,0,2,0,,,,,,,,,0,0,0,0,0,0,0,0,8,0,8,0,,,,,,,,,,,,,,,,,,,,,,,,,,,,,,,,,,,,,,,,,,,,,,,,,,,,,,,,,,,,,,,,30,,,,,,,,1636.6128845999483,1636.6128845999483,1636.6128845999483,1636.6128845999483,1636.6128845999483,left,8.1328480001539,0,0,0,99,0.24,0.08,left,8.057078500045463,,,,,,,,,,,,,,,,,,,,,,,,,,,,,,,,,,,,,,,,,,,,,,,,,,,,,,,,,,,,A0D2RV,train_x,blue_star,top_left,2025-02-05_15h43.27.230,HideSeek_v1,2022.2.5,59.94100610105,
,2,6,5,6,3,0,31,,train_dim1_1,1,30,,,,2,0,2,0,,,,,,,,,0,0,0,0,0,0,0,0,9,0,9,0,,,,,,,,,,,,,,,,,,,,,,,,,,,,,,,,,,,,,,,,,,,,,,,,,,,,,,,,,,,,,,,,30,,,,,,,,1644.7530803999398,1644.7530803999398,1644.7530803999398,1644.7530803999398,1644.7530803999398,return,5.731071199988946,1,0,0,1,0.24,0.08,return,5.646940700011328,0,3,0.24,0.08,,,,,,,,,,,,,,,,,,,,,,,,,,,,,,,,,,,,,,,,,,,,,,,,,,,,,,,,A0D2RV,train_x,blue_star,top_left,2025-02-05_15h43.27.230,HideSeek_v1,2022.2.5,59.94100610105,
,2,9,7,9,5,0,11,,train_dim1_1,2,30,,,,2,0,2,0,,,,,,,,,0,0,0,0,0,1,1,1,0,0,0,0,,,,,,,,,,,,,,,,,,,,,,,,,stimuli/alien_stimuli/11.png,,,,,,,,,,,,,,,,,,,,,,,,,,,,,stimuli/alien_stimuli/31.png,31,2,3,,,,,,,30,,,,,,,,1669.1220903999638,1669.1220903999638,1669.1220903999638,1669.1220903999638,1669.1220903999638,down,4.426429399987683,1,0,0,99,0,0.24,down,4.310816300101578,,,,,1667.5412195001263,1669.1220903999638,0.24,0.08,0.0,0.24,0.08,0.24,0.12,0.24,0.08,1652.078905600123,1652.078905600123,1652.078905600123,1652.078905600123,1652.078905600123,1652.078905600123,1652.078905600123,1652.078905600123,1652.0617949400564,15.598346800077707,return,15.44073890009895,,,,,,,,,,,,,,,,,,,,,,,,,,,,,,,,,A0D2RV,train_x,blue_star,top_left,2025-02-05_15h43.27.230,HideSeek_v1,2022.2.5,59.94100610105,
,2,9,7,9,5,0,11,,train_dim1_1,2,30,,,,2,0,2,0,,,,,,,,,0,0,0,0,0,1,1,1,1,0,1,0,,,,,,,,,,,,,,,,,,,,,,,,,,,,,,,,,,,,,,,,,,,,,,,,,,,,,,,,,,,,,,,,30,,,,,,,,1673.531415299978,1673.531415299978,1673.531415299978,1673.531415299978,1673.531415299978,down,1.4269830000121146,1,0,0,99,0,0.15999999999999998,down,1.3418953998479992,,,,,,,,,,,,,,,,,,,,,,,,,,,,,,,,,,,,,,,,,,,,,,,,,,,,,,,,,,,,A0D2RV,train_x,blue_star,top_left,2025-02-05_15h43.27.230,HideSeek_v1,2022.2.5,59.94100610105,
,2,9,7,9,5,0,11,,train_dim1_1,2,30,,,,2,0,2,0,,,,,,,,,0,0,0,0,0,1,1,1,2,0,2,0,,,,,,,,,,,,,,,,,,,,,,,,,,,,,,,,,,,,,,,,,,,,,,,,,,,,,,,,,,,,,,,,30,,,,,,,,1674.966666500084,1674.966666500084,1674.966666500084,1674.966666500084,1674.966666500084,down,2.292800300056115,1,0,0,99,0,0.07999999999999997,down,2.214408499887213,,,,,,,,,,,,,,,,,,,,,,,,,,,,,,,,,,,,,,,,,,,,,,,,,,,,,,,,,,,,A0D2RV,train_x,blue_star,top_left,2025-02-05_15h43.27.230,HideSeek_v1,2022.2.5,59.94100610105,
,2,9,7,9,5,0,11,,train_dim1_1,2,30,,,,2,0,2,0,,,,,,,,,0,0,0,0,0,1,1,1,3,0,3,0,,,,,,,,,,,,,,,,,,,,,,,,,,,,,,,,,,,,,,,,,,,,,,,,,,,,,,,,,,,,,,,,30,,,,,,,,1677.2660687000025,1677.2660687000025,1677.2660687000025,1677.2660687000025,1677.2660687000025,down,8.09992690011859,1,0,0,99,0,-2.7755575615628914e-17,down,8.018620999995619,,,,,,,,,,,,,,,,,,,,,,,,,,,,,,,,,,,,,,,,,,,,,,,,,,,,,,,,,,,,A0D2RV,train_x,blue_star,top_left,2025-02-05_15h43.27.230,HideSeek_v1,2022.2.5,59.94100610105,
,2,9,7,9,5,0,11,,train_dim1_1,2,30,,,,2,0,2,0,,,,,,,,,0,0,0,0,0,1,1,1,4,0,4,0,,,,,,,,,,,,,,,,,,,,,,,,,,,,,,,,,,,,,,,,,,,,,,,,,,,,,,,,,,,,,,,,30,,,,,,,,1685.3751219999976,1685.3751219999976,1685.3751219999976,1685.3751219999976,1685.3751219999976,right,1.3942720999475569,1,0,0,99,0.08,-2.7755575615628914e-17,right,1.3088114999700338,,,,,,,,,,,,,,,,,,,,,,,,,,,,,,,,,,,,,,,,,,,,,,,,,,,,,,,,,,,,A0D2RV,train_x,blue_star,top_left,2025-02-05_15h43.27.230,HideSeek_v1,2022.2.5,59.94100610105,
,2,9,7,9,5,0,11,,train_dim1_1,2,30,,,,2,0,2,0,,,,,,,,,0,0,0,0,0,1,1,1,5,0,5,0,,,,,,,,,,,,,,,,,,,,,,,,,,,,,,,,,,,,,,,,,,,,,,,,,,,,,,,,,,,,,,,,30,,,,,,,,1686.7746983000543,1686.7746983000543,1686.7746983000543,1686.7746983000543,1686.7746983000543,return,1.6778309000656009,1,0,0,0,0.08,-2.7755575615628914e-17,return,1.5854046999011189,-4,4,0.08,-2.7755575615628914e-17,,,,,,,,,,,,,,,,,,,,,,,,,,,,,,,,,,,,,,,,,,,,,,,,,,,,,,,,A0D2RV,train_x,blue_star,top_left,2025-02-05_15h43.27.230,HideSeek_v1,2022.2.5,59.94100610105,
,4,9,8,9,4,0,21,,train_dim1_1,3,30,,,,2,0,2,0,,,,,,,,,0,0,0,0,0,2,2,2,0,0,0,0,,,,,,,,,,,,,,,,,,,,,,,,,stimuli/alien_stimuli/21.png,,,,,,,,,,,,,,,,,,,,,,,,,,,,,stimuli/alien_stimuli/11.png,11,2,4,,,,,,,30,,,,,,,,1702.9039851000998,1702.9039851000998,1702.9039851000998,1702.9039851000998,1702.9039851000998,right,4.693062299862504,1,0,0,99,0.24,0.32,right,4.594394699903205,,,,,1701.3360304001253,1702.9039851000998,0.4,0.32,0.0,0.4,0.32,0.4,0.2,0.4,0.32,1690.0366803000215,1690.0366803000215,1690.0366803000215,1690.0366803000215,1690.0366803000215,1690.0366803000215,1690.0366803000215,1690.0366803000215,1690.0266679401045,11.428577300161123,return,11.278455100022256,,,,,,,,,,,,,,,,,,,,,,,,,,,,,,,,,A0D2RV,train_x,blue_star,top_left,2025-02-05_15h43.27.230,HideSeek_v1,2022.2.5,59.94100610105,
,4,9,8,9,4,0,21,,train_dim1_1,3,30,,,,2,0,2,0,,,,,,,,,0,0,0,0,0,2,2,2,1,0,1,0,,,,,,,,,,,,,,,,,,,,,,,,,,,,,,,,,,,,,,,,,,,,,,,,,,,,,,,,,,,,,,,,30,,,,,,,,1707.592837400036,1707.592837400036,1707.592837400036,1707.592837400036,1707.592837400036,right,1.5940827000886202,1,0,0,99,0.32,0.32,right,1.5138853997923434,,,,,,,,,,,,,,,,,,,,,,,,,,,,,,,,,,,,,,,,,,,,,,,,,,,,,,,,,,,,A0D2RV,train_x,blue_star,top_left,2025-02-05_15h43.27.230,HideSeek_v1,2022.2.5,59.94100610105,
,4,9,8,9,4,0,21,,train_dim1_1,3,30,,,,2,0,2,0,,,,,,,,,0,0,0,0,0,2,2,2,2,0,2,0,,,,,,,,,,,,,,,,,,,,,,,,,,,,,,,,,,,,,,,,,,,,,,,,,,,,,,,,,,,,,,,,30,,,,,,,,1709.1935094001237,1709.1935094001237,1709.1935094001237,1709.1935094001237,1709.1935094001237,right,2.078131499933079,1,0,0,99,0.4,0.32,right,1.9965139999985695,,,,,,,,,,,,,,,,,,,,,,,,,,,,,,,,,,,,,,,,,,,,,,,,,,,,,,,,,,,,A0D2RV,train_x,blue_star,top_left,2025-02-05_15h43.27.230,HideSeek_v1,2022.2.5,59.94100610105,
,4,9,8,9,4,0,21,,train_dim1_1,3,30,,,,2,0,2,0,,,,,,,,,0,0,0,0,0,2,2,2,3,0,3,0,,,,,,,,,,,,,,,,,,,,,,,,,,,,,,,,,,,,,,,,,,,,,,,,,,,,,,,,,,,,,,,,30,,,,,,,,1711.2780605999287,1711.2780605999287,1711.2780605999287,1711.2780605999287,1711.2780605999287,right,5.697893000207841,1,0,0,99,0.48000000000000004,0.32,right,5.615472299978137,,,,,,,,,,,,,,,,,,,,,,,,,,,,,,,,,,,,,,,,,,,,,,,,,,,,,,,,,,,,A0D2RV,train_x,blue_star,top_left,2025-02-05_15h43.27.230,HideSeek_v1,2022.2.5,59.94100610105,
,4,9,8,9,4,0,21,,train_dim1_1,3,30,,,,2,0,2,0,,,,,,,,,0,0,0,0,0,2,2,2,4,0,4,0,,,,,,,,,,,,,,,,,,,,,,,,,,,,,,,,,,,,,,,,,,,,,,,,,,,,,,,,,,,,,,,,30,,,,,,,,1716.9842042999808,1716.9842042999808,1716.9842042999808,1716.9842042999808,1716.9842042999808,return,1.3108025998808444,2,0,0,1,0.48000000000000004,0.32,return,1.227865300141275,-4,8,0.48000000000000004,0.32,,,,,,,,,,,,,,,,,,,,,,,,,,,,,,,,,,,,,,,,,,,,,,,,,,,,,,,,A0D2RV,train_x,blue_star,top_left,2025-02-05_15h43.27.230,HideSeek_v1,2022.2.5,59.94100610105,
,2,8,3,8,1,0,51,,train_dim1_1,4,30,,,,2,0,2,0,,,,,,,,,0,0,0,0,0,3,3,3,0,0,0,0,,,,,,,,,,,,,,,,,,,,,,,,,stimuli/alien_stimuli/51.png,,,,,,,,,,,,,,,,,,,,,,,,,,,,,stimuli/alien_stimuli/21.png,21,4,5,,,,,,,30,,,,,,,,1725.2816514000297,1725.2816514000297,1725.2816514000297,1725.2816514000297,1725.2816514000297,down,7.462211500154808,2,0,0,99,0,0.15999999999999998,down,7.368459099903703,,,,,1723.721565300133,1725.2816514000297,0.48,0.32,0.0,0.32,0.32,0.48,0.32,0.48,0.32,1719.879338900093,1719.879338900093,1719.879338900093,1719.879338900093,1719.879338900093,1719.879338900093,1719.879338900093,1719.879338900093,1719.8679786400405,3.9721591998822987,return,3.809946299996227,,,,,,,,,,,,,,,,,,,,,,,,,,,,,,,,,A0D2RV,train_x,blue_star,top_left,2025-02-05_15h43.27.230,HideSeek_v1,2022.2.5,59.94100610105,
,2,8,3,8,1,0,51,,train_dim1_1,4,30,,,,2,0,2,0,,,,,,,,,0,0,0,0,0,3,3,3,1,0,1,0,,,,,,,,,,,,,,,,,,,,,,,,,,,,,,,,,,,,,,,,,,,,,,,,,,,,,,,,,,,,,,,,30,,,,,,,,1732.7465582001023,1732.7465582001023,1732.7465582001023,1732.7465582001023,1732.7465582001023,down,1.6939904999453574,2,0,0,99,0,0.07999999999999997,down,1.6135694000404328,,,,,,,,,,,,,,,,,,,,,,,,,,,,,,,,,,,,,,,,,,,,,,,,,,,,,,,,,,,,A0D2RV,train_x,blue_star,top_left,2025-02-05_15h43.27.230,HideSeek_v1,2022.2.5,59.94100610105,
,2,8,3,8,1,0,51,,train_dim1_1,4,30,,,,2,0,2,0,,,,,,,,,0,0,0,0,0,3,3,3,2,0,2,0,,,,,,,,,,,,,,,,,,,,,,,,,,,,,,,,,,,,,,,,,,,,,,,,,,,,,,,,,,,,,,,,30,,,,,,,,1734.4460620000027,1734.4460620000027,1734.4460620000027,1734.4460620000027,1734.4460620000027,down,1.4442681998480111,2,0,0,99,0,-2.7755575615628914e-17,down,1.3636668999679387,,,,,,,,,,,,,,,,,,,,,,,,,,,,,,,,,,,,,,,,,,,,,,,,,,,,,,,,,,,,A0D2RV,train_x,blue_star,top_left,2025-02-05_15h43.27.230,HideSeek_v1,2022.2.5,59.94100610105,
,2,8,3,8,1,0,51,,train_dim1_1,4,30,,,,2,0,2,0,,,,,,,,,0,0,0,0,0,3,3,3,3,0,3,0,,,,,,,,,,,,,,,,,,,,,,,,,,,,,,,,,,,,,,,,,,,,,,,,,,,,,,,,,,,,,,,,30,,,,,,,,1735.9098616000265,1735.9098616000265,1735.9098616000265,1735.9098616000265,1735.9098616000265,return,2.0615878999233246,2,0,0,0,0,-2.7755575615628914e-17,return,1.9639305998571217,-7,8,0,-2.7755575615628914e-17,,,,,,,,,,,,,,,,,,,,,,,,,,,,,,,,,,,,,,,,,,,,,,,,,,,,,,,,A0D2RV,train_x,blue_star,top_left,2025-02-05_15h43.27.230,HideSeek_v1,2022.2.5,59.94100610105,
,0,7,0,7,0,0,61,,train_dim1_1,5,30,,,,2,0,2,0,,,,,,,,,0,0,0,0,0,4,4,4,0,0,0,0,,,,,,,,,,,,,,,,,,,,,,,,,stimuli/alien_stimuli/61.png,,,,,,,,,,,,,,,,,,,,,,,,,,,,,stimuli/alien_stimuli/51.png,51,2,6,,,,,,,30,,,,,,,,1744.580338000087,1744.580338000087,1744.580338000087,1744.580338000087,1744.580338000087,right,2.0244335997849703,2,0,0,99,-0.08,0.16,right,1.9389500999823213,,,,,1743.0205926999915,1744.580338000087,0.08,0.24,0.0,0.08,0.24,0.08,0.04,0.08,0.24,1739.5415573001374,1739.5415573001374,1739.5415573001374,1739.5415573001374,1739.5415573001374,1739.5415573001374,1739.5415573001374,1739.5415573001374,1739.5343884401025,3.604969099862501,return,3.4592857998795807,,,,,,,,,,,,,,,,,,,,,,,,,,,,,,,,,A0D2RV,train_x,blue_star,top_left,2025-02-05_15h43.27.230,HideSeek_v1,2022.2.5,59.94100610105,
,0,7,0,7,0,0,61,,train_dim1_1,5,30,,,,2,0,2,0,,,,,,,,,0,0,0,0,0,4,4,4,1,0,1,0,,,,,,,,,,,,,,,,,,,,,,,,,,,,,,,,,,,,,,,,,,,,,,,,,,,,,,,,,,,,,,,,30,,,,,,,,1746.6041168000083,1746.6041168000083,1746.6041168000083,1746.6041168000083,1746.6041168000083,return,2.3945616998244077,2,1,0,0,-0.08,0.16,return,2.313630999997258,-7,9,-0.08,0.16,,,,,,,,,,,,,,,,,,,,,,,,,,,,,,,,,,,,,,,,,,,,,,,,,,,,,,,,A0D2RV,train_x,blue_star,top_left,2025-02-05_15h43.27.230,HideSeek_v1,2022.2.5,59.94100610105,
,0,5,4,5,4,0,21,,train_dim1_1,6,30,,,,2,0,2,0,,,,,,,,,0,0,0,0,0,5,5,5,0,0,0,0,,,,,,,,,,,,,,,,,,,,,,,,,stimuli/alien_stimuli/21.png,,,,,,,,,,,,,,,,,,,,,,,,,,,,,stimuli/alien_stimuli/61.png,61,0,7,,,,,,,30,,,,,,,,1763.7206377999391,1763.7206377999391,1763.7206377999391,1763.7206377999391,1763.7206377999391,right,3.5089594998862594,2,1,0,99,-0.08,0,right,3.408079400192946,,,,,1762.1530510999728,1763.7206377999391,-0.16,0.16,0.0,0.0,0.16,-0.16,-0.16,-0.16,0.16,1750.5781547001097,1750.5781547001097,1750.5781547001097,1750.5781547001097,1750.5781547001097,1750.5781547001097,1750.5781547001097,1750.5781547001097,1750.5600710599451,11.695574800018221,return,11.554531899979338,,,,,,,,,,,,,,,,,,,,,,,,,,,,,,,,,A0D2RV,train_x,blue_star,top_left,2025-02-05_15h43.27.230,HideSeek_v1,2022.2.5,59.94100610105,
,0,5,4,5,4,0,21,,train_dim1_1,6,30,,,,2,0,2,0,,,,,,,,,0,0,0,0,0,5,5,5,1,0,1,0,,,,,,,,,,,,,,,,,,,,,,,,,,,,,,,,,,,,,,,,,,,,,,,,,,,,,,,,,,,,,,,,30,,,,,,,,1767.2246531001292,1767.2246531001292,1767.2246531001292,1767.2246531001292,1767.2246531001292,right,0.6935385998804122,2,1,0,99,0.0,0,right,0.616147399879992,,,,,,,,,,,,,,,,,,,,,,,,,,,,,,,,,,,,,,,,,,,,,,,,,,,,,,,,,,,,A0D2RV,train_x,blue_star,top_left,2025-02-05_15h43.27.230,HideSeek_v1,2022.2.5,59.94100610105,
,0,5,4,5,4,0,21,,train_dim1_1,6,30,,,,2,0,2,0,,,,,,,,,0,0,0,0,0,5,5,5,2,0,2,0,,,,,,,,,,,,,,,,,,,,,,,,,,,,,,,,,,,,,,,,,,,,,,,,,,,,,,,,,,,,,,,,30,,,,,,,,1767.9254928000737,1767.9254928000737,1767.9254928000737,1767.9254928000737,1767.9254928000737,right,0.7939462999347597,2,1,0,99,0.08,0,right,0.7128668001387268,,,,,,,,,,,,,,,,,,,,,,,,,,,,,,,,,,,,,,,,,,,,,,,,,,,,,,,,,,,,A0D2RV,train_x,blue_star,top_left,2025-02-05_15h43.27.230,HideSeek_v1,2022.2.5,59.94100610105,
,0,5,4,5,4,0,21,,train_dim1_1,6,30,,,,2,0,2,0,,,,,,,,,0,0,0,0,0,5,5,5,3,0,3,0,,,,,,,,,,,,,,,,,,,,,,,,,,,,,,,,,,,,,,,,,,,,,,,,,,,,,,,,,,,,,,,,30,,,,,,,,1768.7257733000442,1768.7257733000442,1768.7257733000442,1768.7257733000442,1768.7257733000442,right,1.1608130999375135,2,1,0,99,0.16,0,right,1.0743501998949796,,,,,,,,,,,,,,,,,,,,,,,,,,,,,,,,,,,,,,,,,,,,,,,,,,,,,,,,,,,,A0D2RV,train_x,blue_star,top_left,2025-02-05_15h43.27.230,HideSeek_v1,2022.2.5,59.94100610105,
,0,5,4,5,4,0,21,,train_dim1_1,6,30,,,,2,0,2,0,,,,,,,,,0,0,0,0,0,5,5,5,4,0,4,0,,,,,,,,,,,,,,,,,,,,,,,,,,,,,,,,,,,,,,,,,,,,,,,,,,,,,,,,,,,,,,,,30,,,,,,,,1769.8935748999938,1769.8935748999938,1769.8935748999938,1769.8935748999938,1769.8935748999938,return,1.2938312999904156,3,0,0,1,0.16,0,return,1.2163748999591917,-7,13,0.16,0,,,,,,,,,,,,,,,,,,,,,,,,,,,,,,,,,,,,,,,,,,,,,,,,,,,,,,,,A0D2RV,train_x,blue_star,top_left,2025-02-05_15h43.27.230,HideSeek_v1,2022.2.5,59.94100610105,
,3,5,3,5,0,0,61,,train_dim1_1,7,30,,,,2,0,2,0,,,,,,,,,0,0,0,0,0,6,6,6,0,0,0,0,,,,,,,,,,,,,,,,,,,,,,,,,stimuli/alien_stimuli/61.png,,,,,,,,,,,,,,,,,,,,,,,,,,,,,stimuli/alien_stimuli/21.png,21,0,8,,,,,,,30,,,,,,,,1778.222864100011,1778.222864100011,1778.222864100011,1778.222864100011,1778.222864100011,return,3.192190899979323,4,0,0,1,0.08,0,return,3.1010783999226987,-7,13,0.08,0,1776.6650295001455,1778.222864100011,0.16,0,0.0,0.32,0.0,0.16,0.0,0.16,0,1772.777536000125,1772.777536000125,1772.777536000125,1772.777536000125,1772.777536000125,1772.777536000125,1772.777536000125,1772.777536000125,1772.761978540011,4.022397699998692,return,3.8707973998971283,,,,,,,,,,,,,,,,,,,,,,,,,,,,,,,,,A0D2RV,train_x,blue_star,top_left,2025-02-05_15h43.27.230,HideSeek_v1,2022.2.5,59.94100610105,
,0,9,3,9,3,0,31,,train_dim1_1,8,30,,,,2,0,2,0,,,,,,,,,0,0,0,0,0,7,7,7,0,0,0,0,,,,,,,,,,,,,,,,,,,,,,,,,stimuli/alien_stimuli/31.png,,,,,,,,,,,,,,,,,,,,,,,,,,,,,stimuli/alien_stimuli/61.png,61,3,9,,,,,,,30,,,,,,,,1788.9320910000242,1788.9320910000242,1788.9320910000242,1788.9320910000242,1788.9320910000242,right,3.0416399999521673,4,0,0,99,-0.08,0.32,right,2.952154800062999,,,,,1787.3740326000843,1788.9320910000242,0.08,0,0.0,0.0,0.0,0.08,0.08,0.08,0,1782.9712493000552,1782.9712493000552,1782.9712493000552,1782.9712493000552,1782.9712493000552,1782.9712493000552,1782.9712493000552,1782.9712493000552,1782.9536540799775,4.506104900036007,return,4.384436900028959,,,,,,,,,,,,,,,,,,,,,,,,,,,,,,,,,A0D2RV,train_x,blue_star,top_left,2025-02-05_15h43.27.230,HideSeek_v1,2022.2.5,59.94100610105,
,0,9,3,9,3,0,31,,train_dim1_1,8,30,,,,2,0,2,0,,,,,,,,,0,0,0,0,0,7,7,7,1,0,1,0,,,,,,,,,,,,,,,,,,,,,,,,,,,,,,,,,,,,,,,,,,,,,,,,,,,,,,,,,,,,,,,,30,,,,,,,,1791.9754912999924,1791.9754912999924,1791.9754912999924,1791.9754912999924,1791.9754912999924,right,0.8268278001341969,4,0,0,99,0.0,0.32,right,0.7447035999502987,,,,,,,,,,,,,,,,,,,,,,,,,,,,,,,,,,,,,,,,,,,,,,,,,,,,,,,,,,,,A0D2RV,train_x,blue_star,top_left,2025-02-05_15h43.27.230,HideSeek_v1,2022.2.5,59.94100610105,
,0,9,3,9,3,0,31,,train_dim1_1,8,30,,,,2,0,2,0,,,,,,,,,0,0,0,0,0,7,7,7,2,0,2,0,,,,,,,,,,,,,,,,,,,,,,,,,,,,,,,,,,,,,,,,,,,,,,,,,,,,,,,,,,,,,,,,30,,,,,,,,1792.8087567000184,1792.8087567000184,1792.8087567000184,1792.8087567000184,1792.8087567000184,right,0.8937516999430954,4,0,0,99,0.08,0.32,right,0.8062869000714272,,,,,,,,,,,,,,,,,,,,,,,,,,,,,,,,,,,,,,,,,,,,,,,,,,,,,,,,,,,,A0D2RV,train_x,blue_star,top_left,2025-02-05_15h43.27.230,HideSeek_v1,2022.2.5,59.94100610105,
,0,9,3,9,3,0,31,,train_dim1_1,8,30,,,,2,0,2,0,,,,,,,,,0,0,0,0,0,7,7,7,3,0,3,0,,,,,,,,,,,,,,,,,,,,,,,,,,,,,,,,,,,,,,,,,,,,,,,,,,,,,,,,,,,,,,,,30,,,,,,,,1793.709263500059,1793.709263500059,1793.709263500059,1793.709263500059,1793.709263500059,right,1.1105714000295848,4,0,0,99,0.16,0.32,right,1.0372558999806643,,,,,,,,,,,,,,,,,,,,,,,,,,,,,,,,,,,,,,,,,,,,,,,,,,,,,,,,,,,,A0D2RV,train_x,blue_star,top_left,2025-02-05_15h43.27.230,HideSeek_v1,2022.2.5,59.94100610105,
,0,9,3,9,3,0,31,,train_dim1_1,8,30,,,,2,0,2,0,,,,,,,,,0,0,0,0,0,7,7,7,4,0,4,0,,,,,,,,,,,,,,,,,,,,,,,,,,,,,,,,,,,,,,,,,,,,,,,,,,,,,,,,,,,,,,,,30,,,,,,,,1794.8269915999845,1794.8269915999845,1794.8269915999845,1794.8269915999845,1794.8269915999845,return,1.4777983999811113,4,1,0,0,0.16,0.32,return,1.3993759001605213,-7,17,0.16,0.32,,,,,,,,,,,,,,,,,,,,,,,,,,,,,,,,,,,,,,,,,,,,,,,,,,,,,,,,A0D2RV,train_x,blue_star,top_left,2025-02-05_15h43.27.230,HideSeek_v1,2022.2.5,59.94100610105,
,1,5,2,5,1,0,51,,train_dim1_1,9,30,,,,2,0,2,0,,,,,,,,,0,0,0,0,0,8,8,8,0,0,0,0,,,,,,,,,,,,,,,,,,,,,,,,,stimuli/alien_stimuli/51.png,,,,,,,,,,,,,,,,,,,,,,,,,,,,,stimuli/alien_stimuli/31.png,31,0,10,,,,,,,30,,,,,,,,1803.096014100127,1803.096014100127,1803.096014100127,1803.096014100127,1803.096014100127,right,6.328041099943221,4,1,0,99,0.0,0,right,6.234070300124586,,,,,1801.5358458999544,1803.096014100127,0.08,0.32,0.0,0.24,0.32,0.08,-0.04,0.08,0.32,1797.8836534000002,1797.8836534000002,1797.8836534000002,1797.8836534000002,1797.8836534000002,1797.8836534000002,1797.8836534000002,1797.8836534000002,1797.8660193599994,3.7717466999311,return,3.6226440998725593,,,,,,,,,,,,,,,,,,,,,,,,,,,,,,,,,A0D2RV,train_x,blue_star,top_left,2025-02-05_15h43.27.230,HideSeek_v1,2022.2.5,59.94100610105,
,1,5,2,5,1,0,51,,train_dim1_1,9,30,,,,2,0,2,0,,,,,,,,,0,0,0,0,0,8,8,8,1,0,1,0,,,,,,,,,,,,,,,,,,,,,,,,,,,,,,,,,,,,,,,,,,,,,,,,,,,,,,,,,,,,,,,,30,,,,,,,,1809.4262191001326,1809.4262191001326,1809.4262191001326,1809.4262191001326,1809.4262191001326,return,1.6438496001064777,5,0,0,1,0.0,0,return,1.5555102999787778,-7,18,0.0,0,,,,,,,,,,,,,,,,,,,,,,,,,,,,,,,,,,,,,,,,,,,,,,,,,,,,,,,,A0D2RV,train_x,blue_star,top_left,2025-02-05_15h43.27.230,HideSeek_v1,2022.2.5,59.94100610105,
,0,8,5,8,5,0,11,,train_dim1_1,10,30,,,,2,0,2,0,,,,,,,,,0,0,0,0,0,9,9,9,0,0,0,0,,,,,,,,,,,,,,,,,,,,,,,,,stimuli/alien_stimuli/11.png,,,,,,,,,,,,,,,,,,,,,,,,,,,,,stimuli/alien_stimuli/51.png,51,1,11,,,,,,,30,,,,,,,,1819.6980673000216,1819.6980673000216,1819.6980673000216,1819.6980673000216,1819.6980673000216,right,3.7401666999794543,5,0,0,99,-0.08,0.24,right,3.643829100066796,,,,,1818.1329167999793,1819.6980673000216,0,0,0.0,0.08,0.0,0,-0.04,0,0,1812.652566500008,1812.652566500008,1812.652566500008,1812.652566500008,1812.652566500008,1812.652566500008,1812.652566500008,1812.652566500008,1812.6449808400591,5.607008799910545,return,5.459932399913669,,,,,,,,,,,,,,,,,,,,,,,,,,,,,,,,,A0D2RV,train_x,blue_star,top_left,2025-02-05_15h43.27.230,HideSeek_v1,2022.2.5,59.94100610105,
,0,8,5,8,5,0,11,,train_dim1_1,10,30,,,,2,0,2,0,,,,,,,,,0,0,0,0,0,9,9,9,1,0,1,0,,,,,,,,,,,,,,,,,,,,,,,,,,,,,,,,,,,,,,,,,,,,,,,,,,,,,,,,,,,,,,,,30,,,,,,,,1823.4417413999327,1823.4417413999327,1823.4417413999327,1823.4417413999327,1823.4417413999327,right,0.7430277999956161,5,0,0,99,0.0,0.24,right,0.6574192999396473,,,,,,,,,,,,,,,,,,,,,,,,,,,,,,,,,,,,,,,,,,,,,,,,,,,,,,,,,,,,A0D2RV,train_x,blue_star,top_left,2025-02-05_15h43.27.230,HideSeek_v1,2022.2.5,59.94100610105,
,0,8,5,8,5,0,11,,train_dim1_1,10,30,,,,2,0,2,0,,,,,,,,,0,0,0,0,0,9,9,9,2,0,2,0,,,,,,,,,,,,,,,,,,,,,,,,,,,,,,,,,,,,,,,,,,,,,,,,,,,,,,,,,,,,,,,,30,,,,,,,,1824.190145000117,1824.190145000117,1824.190145000117,1824.190145000117,1824.190145000117,right,1.1444202000275254,5,0,0,99,0.08,0.24,right,1.0601051000412554,,,,,,,,,,,,,,,,,,,,,,,,,,,,,,,,,,,,,,,,,,,,,,,,,,,,,,,,,,,,A0D2RV,train_x,blue_star,top_left,2025-02-05_15h43.27.230,HideSeek_v1,2022.2.5,59.94100610105,
,0,8,5,8,5,0,11,,train_dim1_1,10,30,,,,2,0,2,0,,,,,,,,,0,0,0,0,0,9,9,9,3,0,3,0,,,,,,,,,,,,,,,,,,,,,,,,,,,,,,,,,,,,,,,,,,,,,,,,,,,,,,,,,,,,,,,,30,,,,,,,,1825.3447799999267,1825.3447799999267,1825.3447799999267,1825.3447799999267,1825.3447799999267,right,1.2270607999525964,5,0,0,99,0.16,0.24,right,1.1329648001119494,,,,,,,,,,,,,,,,,,,,,,,,,,,,,,,,,,,,,,,,,,,,,,,,,,,,,,,,,,,,A0D2RV,train_x,blue_star,top_left,2025-02-05_15h43.27.230,HideSeek_v1,2022.2.5,59.94100610105,
,0,8,5,8,5,0,11,,train_dim1_1,10,30,,,,2,0,2,0,,,,,,,,,0,0,0,0,0,9,9,9,4,0,4,0,,,,,,,,,,,,,,,,,,,,,,,,,,,,,,,,,,,,,,,,,,,,,,,,,,,,,,,,,,,,,,,,30,,,,,,,,1826.5732901000883,1826.5732901000883,1826.5732901000883,1826.5732901000883,1826.5732901000883,return,0.8271876000799239,5,1,0,0,0.16,0.24,return,0.736128400079906,-7,22,0.16,0.24,,,,,,,,,,,,,,,,,,,,,,,,,,,,,,,,,,,,,,,,,,,,,,,,,,,,,,,,A0D2RV,train_x,blue_star,top_left,2025-02-05_15h43.27.230,HideSeek_v1,2022.2.5,59.94100610105,
,2,7,5,7,3,0,31,,train_dim1_1,11,30,,,,2,0,2,0,,,,,,,,,0,0,0,0,0,10,10,10,0,0,0,0,,,,,,,,,,,,,,,,,,,,,,,,,stimuli/alien_stimuli/31.png,,,,,,,,,,,,,,,,,,,,,,,,,,,,,stimuli/alien_stimuli/11.png,11,0,12,,,,,,,30,,,,,,,,1835.5049407000188,1835.5049407000188,1835.5049407000188,1835.5049407000188,1835.5049407000188,right,3.9749310000333935,5,1,0,99,0.08,0.16,right,3.886132299900055,,,,,1833.945967500098,1835.5049407000188,0.24,0.24,0.0,0.4,0.24,0.24,0.039999999999999994,0.24,0.24,1828.9756283999886,1828.9756283999886,1828.9756283999886,1828.9756283999886,1828.9756283999886,1828.9756283999886,1828.9756283999886,1828.9756283999886,1828.9586101600203,5.0894055000972,return,4.943192399805412,,,,,,,,,,,,,,,,,,,,,,,,,,,,,,,,,A0D2RV,train_x,blue_star,top_left,2025-02-05_15h43.27.230,HideSeek_v1,2022.2.5,59.94100610105,
,2,7,5,7,3,0,31,,train_dim1_1,11,30,,,,2,0,2,0,,,,,,,,,0,0,0,0,0,10,10,10,1,0,1,0,,,,,,,,,,,,,,,,,,,,,,,,,,,,,,,,,,,,,,,,,,,,,,,,,,,,,,,,,,,,,,,,30,,,,,,,,1839.4819720999803,1839.4819720999803,1839.4819720999803,1839.4819720999803,1839.4819720999803,right,0.8261822999920696,5,1,0,99,0.16,0.16,right,0.7471969998441637,,,,,,,,,,,,,,,,,,,,,,,,,,,,,,,,,,,,,,,,,,,,,,,,,,,,,,,,,,,,A0D2RV,train_x,blue_star,top_left,2025-02-05_15h43.27.230,HideSeek_v1,2022.2.5,59.94100610105,
,2,7,5,7,3,0,31,,train_dim1_1,11,30,,,,2,0,2,0,,,,,,,,,0,0,0,0,0,10,10,10,2,0,2,0,,,,,,,,,,,,,,,,,,,,,,,,,,,,,,,,,,,,,,,,,,,,,,,,,,,,,,,,,,,,,,,,30,,,,,,,,1840.315278999973,1840.315278999973,1840.315278999973,1840.315278999973,1840.315278999973,right,1.3607250000350177,5,1,0,99,0.24,0.16,right,1.2806169998366386,,,,,,,,,,,,,,,,,,,,,,,,,,,,,,,,,,,,,,,,,,,,,,,,,,,,,,,,,,,,A0D2RV,train_x,blue_star,top_left,2025-02-05_15h43.27.230,HideSeek_v1,2022.2.5,59.94100610105,
,2,7,5,7,3,0,31,,train_dim1_1,11,30,,,,2,0,2,0,,,,,,,,,0,0,0,0,0,10,10,10,3,0,3,0,,,,,,,,,,,,,,,,,,,,,,,,,,,,,,,,,,,,,,,,,,,,,,,,,,,,,,,,,,,,,,,,30,,,,,,,,1841.6828149000648,1841.6828149000648,1841.6828149000648,1841.6828149000648,1841.6828149000648,right,1.3108759999740869,5,1,0,99,0.32,0.16,right,1.2328284999821335,,,,,,,,,,,,,,,,,,,,,,,,,,,,,,,,,,,,,,,,,,,,,,,,,,,,,,,,,,,,A0D2RV,train_x,blue_star,top_left,2025-02-05_15h43.27.230,HideSeek_v1,2022.2.5,59.94100610105,
,2,7,5,7,3,0,31,,train_dim1_1,11,30,,,,2,0,2,0,,,,,,,,,0,0,0,0,0,10,10,10,4,0,4,0,,,,,,,,,,,,,,,,,,,,,,,,,,,,,,,,,,,,,,,,,,,,,,,,,,,,,,,,,,,,,,,,30,,,,,,,,1843.0004585001152,1843.0004585001152,1843.0004585001152,1843.0004585001152,1843.0004585001152,return,2.1615850999951363,5,1,0,0,0.32,0.16,return,2.0746790000703186,-7,26,0.32,0.16,,,,,,,,,,,,,,,,,,,,,,,,,,,,,,,,,,,,,,,,,,,,,,,,,,,,,,,,A0D2RV,train_x,blue_star,top_left,2025-02-05_15h43.27.230,HideSeek_v1,2022.2.5,59.94100610105,
,0,5,4,5,4,0,21,,train_dim1_1,12,30,,,,2,0,2,0,,,,,,,,,0,0,0,0,0,11,11,11,0,0,0,0,,,,,,,,,,,,,,,,,,,,,,,,,stimuli/alien_stimuli/21.png,,,,,,,,,,,,,,,,,,,,,,,,,,,,,stimuli/alien_stimuli/31.png,31,2,13,,,,,,,30,,,,,,,,1851.6059966001194,1851.6059966001194,1851.6059966001194,1851.6059966001194,1851.6059966001194,right,2.474230899941176,5,1,0,99,-0.08,0,right,2.386125999968499,,,,,1850.0427111000754,1851.6059966001194,0.24,0.16,0.0,0.24,0.16,0.24,0.12,0.24,0.16,1846.7426760001108,1846.7426760001108,1846.7426760001108,1846.7426760001108,1846.7426760001108,1846.7426760001108,1846.7426760001108,1846.7426760001108,1846.7231818600326,3.4216696000657976,return,3.2835216999519616,,,,,,,,,,,,,,,,,,,,,,,,,,,,,,,,,A0D2RV,train_x,blue_star,top_left,2025-02-05_15h43.27.230,HideSeek_v1,2022.2.5,59.94100610105,
,0,5,4,5,4,0,21,,train_dim1_1,12,30,,,,2,0,2,0,,,,,,,,,0,0,0,0,0,11,11,11,1,0,1,0,,,,,,,,,,,,,,,,,,,,,,,,,,,,,,,,,,,,,,,,,,,,,,,,,,,,,,,,,,,,,,,,30,,,,,,,,1854.0809855000116,1854.0809855000116,1854.0809855000116,1854.0809855000116,1854.0809855000116,right,0.7098808998707682,5,1,0,99,0.0,0,right,0.6278543001972139,,,,,,,,,,,,,,,,,,,,,,,,,,,,,,,,,,,,,,,,,,,,,,,,,,,,,,,,,,,,A0D2RV,train_x,blue_star,top_left,2025-02-05_15h43.27.230,HideSeek_v1,2022.2.5,59.94100610105,
,0,5,4,5,4,0,21,,train_dim1_1,12,30,,,,2,0,2,0,,,,,,,,,0,0,0,0,0,11,11,11,2,0,2,0,,,,,,,,,,,,,,,,,,,,,,,,,,,,,,,,,,,,,,,,,,,,,,,,,,,,,,,,,,,,,,,,30,,,,,,,,1854.7978481999598,1854.7978481999598,1854.7978481999598,1854.7978481999598,1854.7978481999598,right,0.7435938001144677,5,1,0,99,0.08,0,right,0.6669657998718321,,,,,,,,,,,,,,,,,,,,,,,,,,,,,,,,,,,,,,,,,,,,,,,,,,,,,,,,,,,,A0D2RV,train_x,blue_star,top_left,2025-02-05_15h43.27.230,HideSeek_v1,2022.2.5,59.94100610105,
,0,5,4,5,4,0,21,,train_dim1_1,12,30,,,,2,0,2,0,,,,,,,,,0,0,0,0,0,11,11,11,3,0,3,0,,,,,,,,,,,,,,,,,,,,,,,,,,,,,,,,,,,,,,,,,,,,,,,,,,,,,,,,,,,,,,,,30,,,,,,,,1855.5479242000729,1855.5479242000729,1855.5479242000729,1855.5479242000729,1855.5479242000729,right,0.9606534000486135,5,1,0,99,0.16,0,right,0.8842503000050783,,,,,,,,,,,,,,,,,,,,,,,,,,,,,,,,,,,,,,,,,,,,,,,,,,,,,,,,,,,,A0D2RV,train_x,blue_star,top_left,2025-02-05_15h43.27.230,HideSeek_v1,2022.2.5,59.94100610105,
,0,5,4,5,4,0,21,,train_dim1_1,12,30,,,,2,0,2,0,,,,,,,,,0,0,0,0,0,11,11,11,4,0,4,0,,,,,,,,,,,,,,,,,,,,,,,,,,,,,,,,,,,,,,,,,,,,,,,,,,,,,,,,,,,,,,,,30,,,,,,,,1856.5158671999816,1856.5158671999816,1856.5158671999816,1856.5158671999816,1856.5158671999816,right,3.996119099901989,5,1,0,99,0.24,0,right,3.904534799978137,,,,,,,,,,,,,,,,,,,,,,,,,,,,,,,,,,,,,,,,,,,,,,,,,,,,,,,,,,,,A0D2RV,train_x,blue_star,top_left,2025-02-05_15h43.27.230,HideSeek_v1,2022.2.5,59.94100610105,
,0,5,4,5,4,0,21,,train_dim1_1,12,30,,,,2,0,2,0,,,,,,,,,0,0,0,0,0,11,11,11,5,0,5,0,,,,,,,,,,,,,,,,,,,,,,,,,,,,,,,,,,,,,,,,,,,,,,,,,,,,,,,,,,,,,,,,30,,,,,,,,1860.5186870000325,1860.5186870000325,1860.5186870000325,1860.5186870000325,1860.5186870000325,left,1.6110185999423265,5,1,0,99,0.15999999999999998,0,left,1.5251096999272704,,,,,,,,,,,,,,,,,,,,,,,,,,,,,,,,,,,,,,,,,,,,,,,,,,,,,,,,,,,,A0D2RV,train_x,blue_star,top_left,2025-02-05_15h43.27.230,HideSeek_v1,2022.2.5,59.94100610105,
,0,5,4,5,4,0,21,,train_dim1_1,12,30,,,,2,0,2,0,,,,,,,,,0,0,0,0,0,11,11,11,6,0,6,0,,,,,,,,,,,,,,,,,,,,,,,,,,,,,,,,,,,,,,,,,,,,,,,,,,,,,,,,,,,,,,,,30,,,,,,,,1862.1368126000743,1862.1368126000743,1862.1368126000743,1862.1368126000743,1862.1368126000743,return,0.6771001000888646,6,0,0,1,0.15999999999999998,0,return,0.5994870001450181,-7,30,0.15999999999999998,0,,,,,,,,,,,,,,,,,,,,,,,,,,,,,,,,,,,,,,,,,,,,,,,,,,,,,,,,A0D2RV,train_x,blue_star,top_left,2025-02-05_15h43.27.230,HideSeek_v1,2022.2.5,59.94100610105,
,0,9,1,9,1,0,51,,train_dim1_1,13,30,,,,2,0,2,0,,,,,,,,,0,0,0,0,0,12,12,12,0,0,0,0,,,,,,,,,,,,,,,,,,,,,,,,,stimuli/alien_stimuli/51.png,,,,,,,,,,,,,,,,,,,,,,,,,,,,,stimuli/alien_stimuli/21.png,21,0,14,,,,,,,30,,,,,,,,1868.5863141000737,1868.5863141000737,1868.5863141000737,1868.5863141000737,1868.5863141000737,right,2.1226774998940527,6,0,0,99,-0.08,0.32,right,2.024718000087887,,,,,1867.0235232999548,1868.5863141000737,0.16,0,0.0,0.32,0.0,0.16,0.0,0.16,0,1864.398511199979,1864.398511199979,1864.398511199979,1864.398511199979,1864.398511199979,1864.398511199979,1864.398511199979,1864.398511199979,1864.3878016398755,2.754715699935332,return,2.603039300069213,,,,,,,,,,,,,,,,,,,,,,,,,,,,,,,,,A0D2RV,train_x,blue_star,top_left,2025-02-05_15h43.27.230,HideSeek_v1,2022.2.5,59.94100610105,
,0,9,1,9,1,0,51,,train_dim1_1,13,30,,,,2,0,2,0,,,,,,,,,0,0,0,0,0,12,12,12,1,0,1,0,,,,,,,,,,,,,,,,,,,,,,,,,,,,,,,,,,,,,,,,,,,,,,,,,,,,,,,,,,,,,,,,30,,,,,,,,1870.709789100103,1870.709789100103,1870.709789100103,1870.709789100103,1870.709789100103,return,1.7775035998784006,7,0,0,1,-0.08,0.32,return,1.6879636000376195,-7,31,-0.08,0.32,,,,,,,,,,,,,,,,,,,,,,,,,,,,,,,,,,,,,,,,,,,,,,,,,,,,,,,,A0D2RV,train_x,blue_star,top_left,2025-02-05_15h43.27.230,HideSeek_v1,2022.2.5,59.94100610105,
,4,8,9,8,5,0,11,,train_dim1_1,14,30,,,,2,0,2,0,,,,,,,,,0,0,0,0,0,13,13,13,0,0,0,0,,,,,,,,,,,,,,,,,,,,,,,,,stimuli/alien_stimuli/11.png,,,,,,,,,,,,,,,,,,,,,,,,,,,,,stimuli/alien_stimuli/51.png,51,0,15,,,,,,,30,,,,,,,,1877.54785740003,1877.54785740003,1877.54785740003,1877.54785740003,1877.54785740003,right,2.689790300093591,7,0,0,99,0.24,0.24,right,2.5797419999726117,,,,,1875.9641787,1877.54785740003,-0.08,0.32,0.0,0.08,0.32,-0.08,-0.12,-0.08,0.32,1874.0531113001052,1874.0531113001052,1874.0531113001052,1874.0531113001052,1874.0531113001052,1874.0531113001052,1874.0531113001052,1874.0531113001052,1874.0459180599778,2.0209435999859124,return,1.8875793998595327,,,,,,,,,,,,,,,,,,,,,,,,,,,,,,,,,A0D2RV,train_x,blue_star,top_left,2025-02-05_15h43.27.230,HideSeek_v1,2022.2.5,59.94100610105,
,4,8,9,8,5,0,11,,train_dim1_1,14,30,,,,2,0,2,0,,,,,,,,,0,0,0,0,0,13,13,13,1,0,1,0,,,,,,,,,,,,,,,,,,,,,,,,,,,,,,,,,,,,,,,,,,,,,,,,,,,,,,,,,,,,,,,,30,,,,,,,,1880.2203888001386,1880.2203888001386,1880.2203888001386,1880.2203888001386,1880.2203888001386,right,0.7921040998771787,7,0,0,99,0.32,0.24,right,0.7035558999050409,,,,,,,,,,,,,,,,,,,,,,,,,,,,,,,,,,,,,,,,,,,,,,,,,,,,,,,,,,,,A0D2RV,train_x,blue_star,top_left,2025-02-05_15h43.27.230,HideSeek_v1,2022.2.5,59.94100610105,
,4,8,9,8,5,0,11,,train_dim1_1,14,30,,,,2,0,2,0,,,,,,,,,0,0,0,0,0,13,13,13,2,0,2,0,,,,,,,,,,,,,,,,,,,,,,,,,,,,,,,,,,,,,,,,,,,,,,,,,,,,,,,,,,,,,,,,30,,,,,,,,1881.0184782999568,1881.0184782999568,1881.0184782999568,1881.0184782999568,1881.0184782999568,right,0.7267249000724405,7,0,0,99,0.4,0.24,right,0.6478860001079738,,,,,,,,,,,,,,,,,,,,,,,,,,,,,,,,,,,,,,,,,,,,,,,,,,,,,,,,,,,,A0D2RV,train_x,blue_star,top_left,2025-02-05_15h43.27.230,HideSeek_v1,2022.2.5,59.94100610105,
,4,8,9,8,5,0,11,,train_dim1_1,14,30,,,,2,0,2,0,,,,,,,,,0,0,0,0,0,13,13,13,3,0,3,0,,,,,,,,,,,,,,,,,,,,,,,,,,,,,,,,,,,,,,,,,,,,,,,,,,,,,,,,,,,,,,,,30,,,,,,,,1881.7528234999627,1881.7528234999627,1881.7528234999627,1881.7528234999627,1881.7528234999627,right,0.8271270000841469,7,0,0,99,0.48000000000000004,0.24,right,0.7367636999115348,,,,,,,,,,,,,,,,,,,,,,,,,,,,,,,,,,,,,,,,,,,,,,,,,,,,,,,,,,,,A0D2RV,train_x,blue_star,top_left,2025-02-05_15h43.27.230,HideSeek_v1,2022.2.5,59.94100610105,
,4,8,9,8,5,0,11,,train_dim1_1,14,30,,,,2,0,2,0,,,,,,,,,0,0,0,0,0,13,13,13,4,0,4,0,,,,,,,,,,,,,,,,,,,,,,,,,,,,,,,,,,,,,,,,,,,,,,,,,,,,,,,,,,,,,,,,30,,,,,,,,1882.5872905999422,1882.5872905999422,1882.5872905999422,1882.5872905999422,1882.5872905999422,return,2.1116063999943435,7,1,0,0,0.48000000000000004,0.24,return,2.0278429000172764,-7,35,0.48000000000000004,0.24,,,,,,,,,,,,,,,,,,,,,,,,,,,,,,,,,,,,,,,,,,,,,,,,,,,,,,,,A0D2RV,train_x,blue_star,top_left,2025-02-05_15h43.27.230,HideSeek_v1,2022.2.5,59.94100610105,
,4,7,4,7,0,0,61,,train_dim1_1,15,30,,,,2,0,2,0,,,,,,,,,0,0,0,0,0,14,14,14,0,0,0,0,,,,,,,,,,,,,,,,,,,,,,,,,stimuli/alien_stimuli/61.png,,,,,,,,,,,,,,,,,,,,,,,,,,,,,stimuli/alien_stimuli/11.png,11,4,16,,,,,,,30,,,,,,,,1891.0215882000048,1891.0215882000048,1891.0215882000048,1891.0215882000048,1891.0215882000048,return,2.9405949998181313,8,0,0,1,0.16,0.16,return,2.845495899906382,-7,35,0.16,0.16,1889.458586000139,1891.0215882000048,0.56,0.24,0.0,0.4,0.24,0.56,0.36000000000000004,0.56,0.24,1886.282509099925,1886.282509099925,1886.282509099925,1886.282509099925,1886.282509099925,1886.282509099925,1886.282509099925,1886.282509099925,1886.2725876398852,3.305230400059372,return,3.156902899965644,,,,,,,,,,,,,,,,,,,,,,,,,,,,,,,,,A0D2RV,train_x,blue_star,top_left,2025-02-05_15h43.27.230,HideSeek_v1,2022.2.5,59.94100610105,
,3,8,4,8,1,0,51,,train_dim1_1,16,30,,,,2,0,2,0,,,,,,,,,0,0,0,0,0,15,15,15,0,0,0,0,,,,,,,,,,,,,,,,,,,,,,,,,stimuli/alien_stimuli/51.png,,,,,,,,,,,,,,,,,,,,,,,,,,,,,stimuli/alien_stimuli/61.png,61,4,17,,,,,,,30,,,,,,,,1898.9784202000592,1898.9784202000592,1898.9784202000592,1898.9784202000592,1898.9784202000592,right,2.1546406000852585,8,0,0,99,0.16,0.24,right,2.0414792001247406,,,,,1897.3986442000605,1898.9784202000592,0.16,0.16,0.0,0.0,0.16,0.16,0.16,0.16,0.16,1895.5154919000342,1895.5154919000342,1895.5154919000342,1895.5154919000342,1895.5154919000342,1895.5154919000342,1895.5154919000342,1895.5154919000342,1895.4971324799583,1.986949099926278,return,1.8613578998483717,,,,,,,,,,,,,,,,,,,,,,,,,,,,,,,,,A0D2RV,train_x,blue_star,top_left,2025-02-05_15h43.27.230,HideSeek_v1,2022.2.5,59.94100610105,
,3,8,4,8,1,0,51,,train_dim1_1,16,30,,,,2,0,2,0,,,,,,,,,0,0,0,0,0,15,15,15,1,0,1,0,,,,,,,,,,,,,,,,,,,,,,,,,,,,,,,,,,,,,,,,,,,,,,,,,,,,,,,,,,,,,,,,30,,,,,,,,1901.134033499984,1901.134033499984,1901.134033499984,1901.134033499984,1901.134033499984,return,0.4932414998766035,9,0,0,1,0.16,0.24,return,0.39274799986742437,-7,36,0.16,0.24,,,,,,,,,,,,,,,,,,,,,,,,,,,,,,,,,,,,,,,,,,,,,,,,,,,,,,,,A0D2RV,train_x,blue_star,top_left,2025-02-05_15h43.27.230,HideSeek_v1,2022.2.5,59.94100610105,
,2,9,6,9,4,0,21,,train_dim1_1,17,30,,,,2,0,2,0,,,,,,,,,0,0,0,0,0,16,16,16,0,0,0,0,,,,,,,,,,,,,,,,,,,,,,,,,stimuli/alien_stimuli/21.png,,,,,,,,,,,,,,,,,,,,,,,,,,,,,stimuli/alien_stimuli/51.png,51,3,18,,,,,,,30,,,,,,,,1908.3365104999393,1908.3365104999393,1908.3365104999393,1908.3365104999393,1908.3365104999393,right,2.840830599889159,9,0,0,99,0.08,0.32,right,2.7412185000721365,,,,,1906.7731351000257,1908.3365104999393,0.16,0.24,0.0,0.08,0.24,0.16,0.12,0.16,0.24,1903.1768698000815,1903.1768698000815,1903.1768698000815,1903.1768698000815,1903.1768698000815,1903.1768698000815,1903.1768698000815,1903.1768698000815,1903.1699270598824,3.7051405999809504,return,3.5659269001334906,,,,,,,,,,,,,,,,,,,,,,,,,,,,,,,,,A0D2RV,train_x,blue_star,top_left,2025-02-05_15h43.27.230,HideSeek_v1,2022.2.5,59.94100610105,
,2,9,6,9,4,0,21,,train_dim1_1,17,30,,,,2,0,2,0,,,,,,,,,0,0,0,0,0,16,16,16,1,0,1,0,,,,,,,,,,,,,,,,,,,,,,,,,,,,,,,,,,,,,,,,,,,,,,,,,,,,,,,,,,,,,,,,30,,,,,,,,1911.177065399941,1911.177065399941,1911.177065399941,1911.177065399941,1911.177065399941,right,1.2271152001339942,9,0,0,99,0.16,0.32,right,1.1459892999846488,,,,,,,,,,,,,,,,,,,,,,,,,,,,,,,,,,,,,,,,,,,,,,,,,,,,,,,,,,,,A0D2RV,train_x,blue_star,top_left,2025-02-05_15h43.27.230,HideSeek_v1,2022.2.5,59.94100610105,
,2,9,6,9,4,0,21,,train_dim1_1,17,30,,,,2,0,2,0,,,,,,,,,0,0,0,0,0,16,16,16,2,0,2,0,,,,,,,,,,,,,,,,,,,,,,,,,,,,,,,,,,,,,,,,,,,,,,,,,,,,,,,,,,,,,,,,30,,,,,,,,1912.4121350001078,1912.4121350001078,1912.4121350001078,1912.4121350001078,1912.4121350001078,right,5.514426600188017,9,0,0,99,0.24,0.32,right,5.425162200117484,,,,,,,,,,,,,,,,,,,,,,,,,,,,,,,,,,,,,,,,,,,,,,,,,,,,,,,,,,,,A0D2RV,train_x,blue_star,top_left,2025-02-05_15h43.27.230,HideSeek_v1,2022.2.5,59.94100610105,
,2,9,6,9,4,0,21,,train_dim1_1,17,30,,,,2,0,2,0,,,,,,,,,0,0,0,0,0,16,16,16,3,0,3,0,,,,,,,,,,,,,,,,,,,,,,,,,,,,,,,,,,,,,,,,,,,,,,,,,,,,,,,,,,,,,,,,30,,,,,,,,1917.9343711999245,1917.9343711999245,1917.9343711999245,1917.9343711999245,1917.9343711999245,right,2.095063599990681,9,0,0,99,0.32,0.32,right,2.007167899981141,,,,,,,,,,,,,,,,,,,,,,,,,,,,,,,,,,,,,,,,,,,,,,,,,,,,,,,,,,,,A0D2RV,train_x,blue_star,top_left,2025-02-05_15h43.27.230,HideSeek_v1,2022.2.5,59.94100610105,
,2,9,6,9,4,0,21,,train_dim1_1,17,30,,,,2,0,2,0,,,,,,,,,0,0,0,0,0,16,16,16,4,0,4,0,,,,,,,,,,,,,,,,,,,,,,,,,,,,,,,,,,,,,,,,,,,,,,,,,,,,,,,,,,,,,,,,30,,,,,,,,1920.0349749999586,1920.0349749999586,1920.0349749999586,1920.0349749999586,1920.0349749999586,return,2.4783699999097735,10,0,0,1,0.32,0.32,return,2.397386899916455,-7,40,0.32,0.32,,,,,,,,,,,,,,,,,,,,,,,,,,,,,,,,,,,,,,,,,,,,,,,,,,,,,,,,A0D2RV,train_x,blue_star,top_left,2025-02-05_15h43.27.230,HideSeek_v1,2022.2.5,59.94100610105,
,2,6,2,6,0,0,61,,train_dim1_1,18,30,,,,2,0,2,0,,,,,,,,,0,0,0,0,0,17,17,17,0,0,0,0,,,,,,,,,,,,,,,,,,,,,,,,,stimuli/alien_stimuli/61.png,,,,,,,,,,,,,,,,,,,,,,,,,,,,,stimuli/alien_stimuli/21.png,21,2,19,,,,,,,30,,,,,,,,1927.8527542001102,1927.8527542001102,1927.8527542001102,1927.8527542001102,1927.8527542001102,return,2.5067269999999553,11,0,0,1,0,0.08,return,2.39749399991706,-7,40,0,0.08,1926.2725985001307,1927.8527542001102,0.32,0.32,0.0,0.32,0.32,0.32,0.16,0.32,0.32,1924.100799200125,1924.100799200125,1924.100799200125,1924.100799200125,1924.100799200125,1924.100799200125,1924.100799200125,1924.100799200125,1924.0873510398903,2.3040845000650734,return,2.1544487001374364,,,,,,,,,,,,,,,,,,,,,,,,,,,,,,,,,A0D2RV,train_x,blue_star,top_left,2025-02-05_15h43.27.230,HideSeek_v1,2022.2.5,59.94100610105,
,0,8,3,8,3,0,31,,train_dim1_1,19,30,,,,2,0,2,0,,,,,,,,,0,0,0,0,0,18,18,18,0,0,0,0,,,,,,,,,,,,,,,,,,,,,,,,,stimuli/alien_stimuli/31.png,,,,,,,,,,,,,,,,,,,,,,,,,,,,,stimuli/alien_stimuli/61.png,61,2,20,,,,,,,30,,,,,,,,1935.0554218001198,1935.0554218001198,1935.0554218001198,1935.0554218001198,1935.0554218001198,right,2.2389177000150084,11,0,0,99,-0.08,0.24,right,2.1334903999231756,,,,,1933.478522800142,1935.0554218001198,0,0.08,0.0,0.0,0.08,0,0.0,0,0.08,1931.89302580012,1931.89302580012,1931.89302580012,1931.89302580012,1931.89302580012,1931.89302580012,1931.89302580012,1931.89302580012,1931.8770444801078,1.6870703999884427,return,1.5557426998857409,,,,,,,,,,,,,,,,,,,,,,,,,,,,,,,,,A0D2RV,train_x,blue_star,top_left,2025-02-05_15h43.27.230,HideSeek_v1,2022.2.5,59.94100610105,
,0,8,3,8,3,0,31,,train_dim1_1,19,30,,,,2,0,2,0,,,,,,,,,0,0,0,0,0,18,18,18,1,0,1,0,,,,,,,,,,,,,,,,,,,,,,,,,,,,,,,,,,,,,,,,,,,,,,,,,,,,,,,,,,,,,,,,30,,,,,,,,1937.279329800047,1937.279329800047,1937.279329800047,1937.279329800047,1937.279329800047,right,0.9603565998841077,11,0,0,99,0.0,0.24,right,0.8840994001366198,,,,,,,,,,,,,,,,,,,,,,,,,,,,,,,,,,,,,,,,,,,,,,,,,,,,,,,,,,,,A0D2RV,train_x,blue_star,top_left,2025-02-05_15h43.27.230,HideSeek_v1,2022.2.5,59.94100610105,
,0,8,3,8,3,0,31,,train_dim1_1,19,30,,,,2,0,2,0,,,,,,,,,0,0,0,0,0,18,18,18,2,0,2,0,,,,,,,,,,,,,,,,,,,,,,,,,,,,,,,,,,,,,,,,,,,,,,,,,,,,,,,,,,,,,,,,30,,,,,,,,1938.2469617000315,1938.2469617000315,1938.2469617000315,1938.2469617000315,1938.2469617000315,right,0.7268993000034243,11,0,0,99,0.08,0.24,right,0.6431269999593496,,,,,,,,,,,,,,,,,,,,,,,,,,,,,,,,,,,,,,,,,,,,,,,,,,,,,,,,,,,,A0D2RV,train_x,blue_star,top_left,2025-02-05_15h43.27.230,HideSeek_v1,2022.2.5,59.94100610105,
,0,8,3,8,3,0,31,,train_dim1_1,19,30,,,,2,0,2,0,,,,,,,,,0,0,0,0,0,18,18,18,3,0,3,0,,,,,,,,,,,,,,,,,,,,,,,,,,,,,,,,,,,,,,,,,,,,,,,,,,,,,,,,,,,,,,,,30,,,,,,,,1938.980047200108,1938.980047200108,1938.980047200108,1938.980047200108,1938.980047200108,return,1.8114425998646766,12,0,0,1,0.08,0.24,return,1.7375964999664575,-7,43,0.08,0.24,,,,,,,,,,,,,,,,,,,,,,,,,,,,,,,,,,,,,,,,,,,,,,,,,,,,,,,,A0D2RV,train_x,blue_star,top_left,2025-02-05_15h43.27.230,HideSeek_v1,2022.2.5,59.94100610105,
,0,6,5,6,5,0,11,,train_dim1_1,20,30,,,,2,0,2,0,,,,,,,,,0,0,0,0,0,19,19,19,0,0,0,0,,,,,,,,,,,,,,,,,,,,,,,,,stimuli/alien_stimuli/11.png,,,,,,,,,,,,,,,,,,,,,,,,,,,,,stimuli/alien_stimuli/31.png,31,0,21,,,,,,,30,,,,,,,,1945.2556417000014,1945.2556417000014,1945.2556417000014,1945.2556417000014,1945.2556417000014,right,1.5379381999373436,12,0,0,99,-0.08,0.08,right,1.4186334998812526,,,,,1943.6702580000274,1945.2556417000014,0.08,0.24,0.0,0.24,0.24,0.08,-0.04,0.08,0.24,1942.372819900047,1942.372819900047,1942.372819900047,1942.372819900047,1942.372819900047,1942.372819900047,1942.372819900047,1942.372819900047,1942.3523077599007,1.4200637000612915,return,1.275506200036034,,,,,,,,,,,,,,,,,,,,,,,,,,,,,,,,,A0D2RV,train_x,blue_star,top_left,2025-02-05_15h43.27.230,HideSeek_v1,2022.2.5,59.94100610105,
,0,6,5,6,5,0,11,,train_dim1_1,20,30,,,,2,0,2,0,,,,,,,,,0,0,0,0,0,19,19,19,1,0,1,0,,,,,,,,,,,,,,,,,,,,,,,,,,,,,,,,,,,,,,,,,,,,,,,,,,,,,,,,,,,,,,,,30,,,,,,,,1946.774209300056,1946.774209300056,1946.774209300056,1946.774209300056,1946.774209300056,right,0.643286099890247,12,0,0,99,0.0,0.08,right,0.5589105000253767,,,,,,,,,,,,,,,,,,,,,,,,,,,,,,,,,,,,,,,,,,,,,,,,,,,,,,,,,,,,A0D2RV,train_x,blue_star,top_left,2025-02-05_15h43.27.230,HideSeek_v1,2022.2.5,59.94100610105,
,0,6,5,6,5,0,11,,train_dim1_1,20,30,,,,2,0,2,0,,,,,,,,,0,0,0,0,0,19,19,19,2,0,2,0,,,,,,,,,,,,,,,,,,,,,,,,,,,,,,,,,,,,,,,,,,,,,,,,,,,,,,,,,,,,,,,,30,,,,,,,,1947.424374599941,1947.424374599941,1947.424374599941,1947.424374599941,1947.424374599941,right,0.6101247000042349,12,0,0,99,0.08,0.08,right,0.5282433000393212,,,,,,,,,,,,,,,,,,,,,,,,,,,,,,,,,,,,,,,,,,,,,,,,,,,,,,,,,,,,A0D2RV,train_x,blue_star,top_left,2025-02-05_15h43.27.230,HideSeek_v1,2022.2.5,59.94100610105,
,0,6,5,6,5,0,11,,train_dim1_1,20,30,,,,2,0,2,0,,,,,,,,,0,0,0,0,0,19,19,19,3,0,3,0,,,,,,,,,,,,,,,,,,,,,,,,,,,,,,,,,,,,,,,,,,,,,,,,,,,,,,,,,,,,,,,,30,,,,,,,,1948.0416208999231,1948.0416208999231,1948.0416208999231,1948.0416208999231,1948.0416208999231,right,0.6769387000240386,12,0,0,99,0.16,0.08,right,0.5943827999290079,,,,,,,,,,,,,,,,,,,,,,,,,,,,,,,,,,,,,,,,,,,,,,,,,,,,,,,,,,,,A0D2RV,train_x,blue_star,top_left,2025-02-05_15h43.27.230,HideSeek_v1,2022.2.5,59.94100610105,
,0,6,5,6,5,0,11,,train_dim1_1,20,30,,,,2,0,2,0,,,,,,,,,0,0,0,0,0,19,19,19,4,0,4,0,,,,,,,,,,,,,,,,,,,,,,,,,,,,,,,,,,,,,,,,,,,,,,,,,,,,,,,,,,,,,,,,30,,,,,,,,1948.7253163000569,1948.7253163000569,1948.7253163000569,1948.7253163000569,1948.7253163000569,right,1.0437970999628305,12,0,0,99,0.24,0.08,right,0.9509717999026179,,,,,,,,,,,,,,,,,,,,,,,,,,,,,,,,,,,,,,,,,,,,,,,,,,,,,,,,,,,,A0D2RV,train_x,blue_star,top_left,2025-02-05_15h43.27.230,HideSeek_v1,2022.2.5,59.94100610105,
,0,6,5,6,5,0,11,,train_dim1_1,20,30,,,,2,0,2,0,,,,,,,,,0,0,0,0,0,19,19,19,5,0,5,0,,,,,,,,,,,,,,,,,,,,,,,,,,,,,,,,,,,,,,,,,,,,,,,,,,,,,,,,,,,,,,,,30,,,,,,,,1949.7760747000575,1949.7760747000575,1949.7760747000575,1949.7760747000575,1949.7760747000575,return,0.6605707998387516,13,0,0,1,0.24,0.08,return,0.5753460000269115,-7,48,0.24,0.08,,,,,,,,,,,,,,,,,,,,,,,,,,,,,,,,,,,,,,,,,,,,,,,,,,,,,,,,A0D2RV,train_x,blue_star,top_left,2025-02-05_15h43.27.230,HideSeek_v1,2022.2.5,59.94100610105,
,4,7,7,7,3,0,31,,train_dim1_1,21,30,,,,2,0,2,0,,,,,,,,,0,0,0,0,0,20,20,20,0,0,0,0,,,,,,,,,,,,,,,,,,,,,,,,,stimuli/alien_stimuli/31.png,,,,,,,,,,,,,,,,,,,,,,,,,,,,,stimuli/alien_stimuli/11.png,11,0,22,,,,,,,30,,,,,,,,1954.850592700066,1954.850592700066,1954.850592700066,1954.850592700066,1954.850592700066,right,1.6055354999843985,13,0,0,99,0.24,0.16,right,1.5062035999726504,,,,,1953.278360299999,1954.850592700066,0.24,0.08,0.0,0.4,0.08,0.24,0.039999999999999994,0.24,0.08,1952.0032089001033,1952.0032089001033,1952.0032089001033,1952.0032089001033,1952.0032089001033,1952.0032089001033,1952.0032089001033,1952.0032089001033,1951.9937809600729,1.3869230998679996,return,1.2585285999812186,,,,,,,,,,,,,,,,,,,,,,,,,,,,,,,,,A0D2RV,train_x,blue_star,top_left,2025-02-05_15h43.27.230,HideSeek_v1,2022.2.5,59.94100610105,
,4,7,7,7,3,0,31,,train_dim1_1,21,30,,,,2,0,2,0,,,,,,,,,0,0,0,0,0,20,20,20,1,0,1,0,,,,,,,,,,,,,,,,,,,,,,,,,,,,,,,,,,,,,,,,,,,,,,,,,,,,,,,,,,,,,,,,30,,,,,,,,1956.4454920000862,1956.4454920000862,1956.4454920000862,1956.4454920000862,1956.4454920000862,right,0.6430196000728756,13,0,0,99,0.32,0.16,right,0.5659028000663966,,,,,,,,,,,,,,,,,,,,,,,,,,,,,,,,,,,,,,,,,,,,,,,,,,,,,,,,,,,,A0D2RV,train_x,blue_star,top_left,2025-02-05_15h43.27.230,HideSeek_v1,2022.2.5,59.94100610105,
,4,7,7,7,3,0,31,,train_dim1_1,21,30,,,,2,0,2,0,,,,,,,,,0,0,0,0,0,20,20,20,2,0,2,0,,,,,,,,,,,,,,,,,,,,,,,,,,,,,,,,,,,,,,,,,,,,,,,,,,,,,,,,,,,,,,,,30,,,,,,,,1957.095387400128,1957.095387400128,1957.095387400128,1957.095387400128,1957.095387400128,right,0.5602560001425445,13,0,0,99,0.4,0.16,right,0.48458240018226206,,,,,,,,,,,,,,,,,,,,,,,,,,,,,,,,,,,,,,,,,,,,,,,,,,,,,,,,,,,,A0D2RV,train_x,blue_star,top_left,2025-02-05_15h43.27.230,HideSeek_v1,2022.2.5,59.94100610105,
,4,7,7,7,3,0,31,,train_dim1_1,21,30,,,,2,0,2,0,,,,,,,,,0,0,0,0,0,20,20,20,3,0,3,0,,,,,,,,,,,,,,,,,,,,,,,,,,,,,,,,,,,,,,,,,,,,,,,,,,,,,,,,,,,,,,,,30,,,,,,,,1957.6630566001404,1957.6630566001404,1957.6630566001404,1957.6630566001404,1957.6630566001404,right,0.5772616998292506,13,0,0,99,0.48000000000000004,0.16,right,0.49899100000038743,,,,,,,,,,,,,,,,,,,,,,,,,,,,,,,,,,,,,,,,,,,,,,,,,,,,,,,,,,,,A0D2RV,train_x,blue_star,top_left,2025-02-05_15h43.27.230,HideSeek_v1,2022.2.5,59.94100610105,
,4,7,7,7,3,0,31,,train_dim1_1,21,30,,,,2,0,2,0,,,,,,,,,0,0,0,0,0,20,20,20,4,0,4,0,,,,,,,,,,,,,,,,,,,,,,,,,,,,,,,,,,,,,,,,,,,,,,,,,,,,,,,,,,,,,,,,30,,,,,,,,1958.246533599915,1958.246533599915,1958.246533599915,1958.246533599915,1958.246533599915,return,0.7272626999765635,13,1,0,0,0.48000000000000004,0.16,return,0.6464358998928219,-7,52,0.48000000000000004,0.16,,,,,,,,,,,,,,,,,,,,,,,,,,,,,,,,,,,,,,,,,,,,,,,,,,,,,,,,A0D2RV,train_x,blue_star,top_left,2025-02-05_15h43.27.230,HideSeek_v1,2022.2.5,59.94100610105,
,1,5,5,5,4,0,21,,train_dim1_1,22,30,,,,2,0,2,0,,,,,,,,,0,0,0,0,0,21,21,21,0,0,0,0,,,,,,,,,,,,,,,,,,,,,,,,,stimuli/alien_stimuli/21.png,,,,,,,,,,,,,,,,,,,,,,,,,,,,,stimuli/alien_stimuli/31.png,31,4,23,,,,,,,30,,,,,,,,1963.8519890999887,1963.8519890999887,1963.8519890999887,1963.8519890999887,1963.8519890999887,right,1.8234312999993563,13,1,0,99,0.0,0,right,1.7090288000181317,,,,,1962.2689537999686,1963.8519890999887,0.4,0.16,0.0,0.24,0.16,0.4,0.28,0.4,0.16,1960.537767099915,1960.537767099915,1960.537767099915,1960.537767099915,1960.537767099915,1960.537767099915,1960.537767099915,1960.537767099915,1960.5174273800105,1.8369636998977512,return,1.710123399971053,,,,,,,,,,,,,,,,,,,,,,,,,,,,,,,,,A0D2RV,train_x,blue_star,top_left,2025-02-05_15h43.27.230,HideSeek_v1,2022.2.5,59.94100610105,
,1,5,5,5,4,0,21,,train_dim1_1,22,30,,,,2,0,2,0,,,,,,,,,0,0,0,0,0,21,21,21,1,0,1,0,,,,,,,,,,,,,,,,,,,,,,,,,,,,,,,,,,,,,,,,,,,,,,,,,,,,,,,,,,,,,,,,30,,,,,,,,1965.6557283999864,1965.6557283999864,1965.6557283999864,1965.6557283999864,1965.6557283999864,right,0.47648620000109076,13,1,0,99,0.08,0,right,0.3935732999816537,,,,,,,,,,,,,,,,,,,,,,,,,,,,,,,,,,,,,,,,,,,,,,,,,,,,,,,,,,,,A0D2RV,train_x,blue_star,top_left,2025-02-05_15h43.27.230,HideSeek_v1,2022.2.5,59.94100610105,
,1,5,5,5,4,0,21,,train_dim1_1,22,30,,,,2,0,2,0,,,,,,,,,0,0,0,0,0,21,21,21,2,0,2,0,,,,,,,,,,,,,,,,,,,,,,,,,,,,,,,,,,,,,,,,,,,,,,,,,,,,,,,,,,,,,,,,30,,,,,,,,1966.1400568999816,1966.1400568999816,1966.1400568999816,1966.1400568999816,1966.1400568999816,right,0.643463300075382,13,1,0,99,0.16,0,right,0.5637275001499802,,,,,,,,,,,,,,,,,,,,,,,,,,,,,,,,,,,,,,,,,,,,,,,,,,,,,,,,,,,,A0D2RV,train_x,blue_star,top_left,2025-02-05_15h43.27.230,HideSeek_v1,2022.2.5,59.94100610105,
,1,5,5,5,4,0,21,,train_dim1_1,22,30,,,,2,0,2,0,,,,,,,,,0,0,0,0,0,21,21,21,3,0,3,0,,,,,,,,,,,,,,,,,,,,,,,,,,,,,,,,,,,,,,,,,,,,,,,,,,,,,,,,,,,,,,,,30,,,,,,,,1966.7900714001153,1966.7900714001153,1966.7900714001153,1966.7900714001153,1966.7900714001153,right,0.643526499858126,13,1,0,99,0.24,0,right,0.5615375998895615,,,,,,,,,,,,,,,,,,,,,,,,,,,,,,,,,,,,,,,,,,,,,,,,,,,,,,,,,,,,A0D2RV,train_x,blue_star,top_left,2025-02-05_15h43.27.230,HideSeek_v1,2022.2.5,59.94100610105,
,1,5,5,5,4,0,21,,train_dim1_1,22,30,,,,2,0,2,0,,,,,,,,,0,0,0,0,0,21,21,21,4,0,4,0,,,,,,,,,,,,,,,,,,,,,,,,,,,,,,,,,,,,,,,,,,,,,,,,,,,,,,,,,,,,,,,,30,,,,,,,,1967.4409223000985,1967.4409223000985,1967.4409223000985,1967.4409223000985,1967.4409223000985,return,0.8271191001404077,14,0,0,1,0.24,0,return,0.7451274001505226,-7,56,0.24,0,,,,,,,,,,,,,,,,,,,,,,,,,,,,,,,,,,,,,,,,,,,,,,,,,,,,,,,,A0D2RV,train_x,blue_star,top_left,2025-02-05_15h43.27.230,HideSeek_v1,2022.2.5,59.94100610105,
,2,6,2,6,0,0,61,,train_dim1_1,23,30,,,,2,0,2,0,,,,,,,,,0,0,0,0,0,22,22,22,0,0,0,0,,,,,,,,,,,,,,,,,,,,,,,,,stimuli/alien_stimuli/61.png,,,,,,,,,,,,,,,,,,,,,,,,,,,,,stimuli/alien_stimuli/21.png,21,1,24,,,,,,,30,,,,,,,,1973.601643000031,1973.601643000031,1973.601643000031,1973.601643000031,1973.601643000031,return,1.8729284000582993,15,0,0,1,0,0.08,return,1.7790449000895023,-7,56,0,0.08,1972.0272603000049,1973.601643000031,0.24,0,0.0,0.32,0.0,0.24,0.07999999999999999,0.24,0,1969.8344799999613,1969.8344799999613,1969.8344799999613,1969.8344799999613,1969.8344799999613,1969.8344799999613,1969.8344799999613,1969.8344799999613,1969.8250982600498,2.3040948000270873,return,2.1683337001595646,,,,,,,,,,,,,,,,,,,,,,,,,,,,,,,,,A0D2RV,train_x,blue_star,top_left,2025-02-05_15h43.27.230,HideSeek_v1,2022.2.5,59.94100610105,
,4,9,5,9,1,0,51,,train_dim1_1,24,30,,,,2,0,2,0,,,,,,,,,0,0,0,0,0,23,23,23,0,0,0,0,,,,,,,,,,,,,,,,,,,,,,,,,stimuli/alien_stimuli/51.png,,,,,,,,,,,,,,,,,,,,,,,,,,,,,stimuli/alien_stimuli/61.png,61,2,25,,,,,,,30,,,,,,,,1979.8951942001004,1979.8951942001004,1979.8951942001004,1979.8951942001004,1979.8951942001004,right,3.0235239998437464,15,0,0,99,0.24,0.32,right,2.936103600077331,,,,,1978.3321782001294,1979.8951942001004,0,0.08,0.0,0.0,0.08,0,0.0,0,0.08,1977.0196072000545,1977.0196072000545,1977.0196072000545,1977.0196072000545,1977.0196072000545,1977.0196072000545,1977.0196072000545,1977.0196072000545,1976.9979452800937,1.4200764000415802,return,1.296309000113979,,,,,,,,,,,,,,,,,,,,,,,,,,,,,,,,,A0D2RV,train_x,blue_star,top_left,2025-02-05_15h43.27.230,HideSeek_v1,2022.2.5,59.94100610105,
,4,9,5,9,1,0,51,,train_dim1_1,24,30,,,,2,0,2,0,,,,,,,,,0,0,0,0,0,23,23,23,1,0,1,0,,,,,,,,,,,,,,,,,,,,,,,,,,,,,,,,,,,,,,,,,,,,,,,,,,,,,,,,,,,,,,,,30,,,,,,,,1982.9199630001094,1982.9199630001094,1982.9199630001094,1982.9199630001094,1982.9199630001094,return,0.7099103000946343,16,0,0,1,0.24,0.32,return,0.6260798000730574,-7,57,0.24,0.32,,,,,,,,,,,,,,,,,,,,,,,,,,,,,,,,,,,,,,,,,,,,,,,,,,,,,,,,A0D2RV,train_x,blue_star,top_left,2025-02-05_15h43.27.230,HideSeek_v1,2022.2.5,59.94100610105,
,3,5,8,5,5,0,11,,train_dim1_1,25,30,,,,2,0,2,0,,,,,,,,,0,0,0,0,0,24,24,24,0,0,0,0,,,,,,,,,,,,,,,,,,,,,,,,,stimuli/alien_stimuli/11.png,,,,,,,,,,,,,,,,,,,,,,,,,,,,,stimuli/alien_stimuli/51.png,51,4,26,,,,,,,30,,,,,,,,1988.4735854000319,1988.4735854000319,1988.4735854000319,1988.4735854000319,1988.4735854000319,right,1.7349318000487983,16,0,0,99,0.16,0,right,1.630456699989736,,,,,1986.8894164001103,1988.4735854000319,0.24,0.32,0.0,0.08,0.32,0.24,0.2,0.24,0.32,1985.1988047000486,1985.1988047000486,1985.1988047000486,1985.1988047000486,1985.1988047000486,1985.1988047000486,1985.1988047000486,1985.1988047000486,1985.1881233600202,1.8033737000077963,return,1.6604863998945802,,,,,,,,,,,,,,,,,,,,,,,,,,,,,,,,,A0D2RV,train_x,blue_star,top_left,2025-02-05_15h43.27.230,HideSeek_v1,2022.2.5,59.94100610105,
,3,5,8,5,5,0,11,,train_dim1_1,25,30,,,,2,0,2,0,,,,,,,,,0,0,0,0,0,24,24,24,1,0,1,0,,,,,,,,,,,,,,,,,,,,,,,,,,,,,,,,,,,,,,,,,,,,,,,,,,,,,,,,,,,,,,,,30,,,,,,,,1990.1945374999195,1990.1945374999195,1990.1945374999195,1990.1945374999195,1990.1945374999195,right,0.8272329999599606,16,0,0,99,0.24,0,right,0.7443534999620169,,,,,,,,,,,,,,,,,,,,,,,,,,,,,,,,,,,,,,,,,,,,,,,,,,,,,,,,,,,,A0D2RV,train_x,blue_star,top_left,2025-02-05_15h43.27.230,HideSeek_v1,2022.2.5,59.94100610105,
,3,5,8,5,5,0,11,,train_dim1_1,25,30,,,,2,0,2,0,,,,,,,,,0,0,0,0,0,24,24,24,2,0,2,0,,,,,,,,,,,,,,,,,,,,,,,,,,,,,,,,,,,,,,,,,,,,,,,,,,,,,,,,,,,,,,,,30,,,,,,,,1991.026595100062,1991.026595100062,1991.026595100062,1991.026595100062,1991.026595100062,right,0.7431218000128865,16,0,0,99,0.32,0,right,0.660278300056234,,,,,,,,,,,,,,,,,,,,,,,,,,,,,,,,,,,,,,,,,,,,,,,,,,,,,,,,,,,,A0D2RV,train_x,blue_star,top_left,2025-02-05_15h43.27.230,HideSeek_v1,2022.2.5,59.94100610105,
,3,5,8,5,5,0,11,,train_dim1_1,25,30,,,,2,0,2,0,,,,,,,,,0,0,0,0,0,24,24,24,3,0,3,0,,,,,,,,,,,,,,,,,,,,,,,,,,,,,,,,,,,,,,,,,,,,,,,,,,,,,,,,,,,,,,,,30,,,,,,,,1991.7780158999376,1991.7780158999376,1991.7780158999376,1991.7780158999376,1991.7780158999376,right,0.8606410000938922,16,0,0,99,0.4,0,right,0.7836740000639111,,,,,,,,,,,,,,,,,,,,,,,,,,,,,,,,,,,,,,,,,,,,,,,,,,,,,,,,,,,,A0D2RV,train_x,blue_star,top_left,2025-02-05_15h43.27.230,HideSeek_v1,2022.2.5,59.94100610105,
,3,5,8,5,5,0,11,,train_dim1_1,25,30,,,,2,0,2,0,,,,,,,,,0,0,0,0,0,24,24,24,4,0,4,0,,,,,,,,,,,,,,,,,,,,,,,,,,,,,,,,,,,,,,,,,,,,,,,,,,,,,,,,,,,,,,,,30,,,,,,,,1992.6464351001196,1992.6464351001196,1992.6464351001196,1992.6464351001196,1992.6464351001196,return,0.7270080999005586,16,1,0,0,0.4,0,return,0.6400942001491785,-7,61,0.4,0,,,,,,,,,,,,,,,,,,,,,,,,,,,,,,,,,,,,,,,,,,,,,,,,,,,,,,,,A0D2RV,train_x,blue_star,top_left,2025-02-05_15h43.27.230,HideSeek_v1,2022.2.5,59.94100610105,
,1,6,1,6,0,0,61,,train_dim1_1,26,30,,,,2,0,2,0,,,,,,,,,0,0,0,0,0,25,25,25,0,0,0,0,,,,,,,,,,,,,,,,,,,,,,,,,stimuli/alien_stimuli/61.png,,,,,,,,,,,,,,,,,,,,,,,,,,,,,stimuli/alien_stimuli/11.png,11,3,27,,,,,,,30,,,,,,,,1998.3432750999928,1998.3432750999928,1998.3432750999928,1998.3432750999928,1998.3432750999928,return,1.6396048001479357,17,0,0,1,-0.08,0.08,return,1.5321834001224488,-7,61,-0.08,0.08,1996.7641954999417,1998.3432750999928,0.48,0,0.0,0.4,0.0,0.48,0.27999999999999997,0.48,0,1994.936123300111,1994.936123300111,1994.936123300111,1994.936123300111,1994.936123300111,1994.936123300111,1994.936123300111,1994.936123300111,1994.9294479600853,1.9372314000502229,return,1.8058239999227226,,,,,,,,,,,,,,,,,,,,,,,,,,,,,,,,,A0D2RV,train_x,blue_star,top_left,2025-02-05_15h43.27.230,HideSeek_v1,2022.2.5,59.94100610105,
,0,6,3,6,3,0,31,,train_dim1_1,27,30,,,,2,0,2,0,,,,,,,,,0,0,0,0,0,26,26,26,0,0,0,0,,,,,,,,,,,,,,,,,,,,,,,,,stimuli/alien_stimuli/31.png,,,,,,,,,,,,,,,,,,,,,,,,,,,,,stimuli/alien_stimuli/61.png,61,1,28,,,,,,,30,,,,,,,,2005.1480716001242,2005.1480716001242,2005.1480716001242,2005.1480716001242,2005.1480716001242,right,1.9868773999623954,17,0,0,99,-0.08,0.08,right,1.8916845000348985,,,,,2003.57002510014,2005.1480716001242,-0.08,0.08,0.0,0.0,0.08,-0.08,-0.08,-0.08,0.08,2001.521178400144,2001.521178400144,2001.521178400144,2001.521178400144,2001.521178400144,2001.521178400144,2001.521178400144,2001.521178400144,2001.5015122800135,2.153898200020194,return,2.021814600098878,,,,,,,,,,,,,,,,,,,,,,,,,,,,,,,,,A0D2RV,train_x,blue_star,top_left,2025-02-05_15h43.27.230,HideSeek_v1,2022.2.5,59.94100610105,
,0,6,3,6,3,0,31,,train_dim1_1,27,30,,,,2,0,2,0,,,,,,,,,0,0,0,0,0,26,26,26,1,0,1,0,,,,,,,,,,,,,,,,,,,,,,,,,,,,,,,,,,,,,,,,,,,,,,,,,,,,,,,,,,,,,,,,30,,,,,,,,2007.120872200001,2007.120872200001,2007.120872200001,2007.120872200001,2007.120872200001,right,0.6931367001961917,17,0,0,99,0.0,0.08,right,0.6192155999597162,,,,,,,,,,,,,,,,,,,,,,,,,,,,,,,,,,,,,,,,,,,,,,,,,,,,,,,,,,,,A0D2RV,train_x,blue_star,top_left,2025-02-05_15h43.27.230,HideSeek_v1,2022.2.5,59.94100610105,
,0,6,3,6,3,0,31,,train_dim1_1,27,30,,,,2,0,2,0,,,,,,,,,0,0,0,0,0,26,26,26,2,0,2,0,,,,,,,,,,,,,,,,,,,,,,,,,,,,,,,,,,,,,,,,,,,,,,,,,,,,,,,,,,,,,,,,30,,,,,,,,2007.8208584999666,2007.8208584999666,2007.8208584999666,2007.8208584999666,2007.8208584999666,right,0.8106891999486834,17,0,0,99,0.08,0.08,right,0.7356598998885602,,,,,,,,,,,,,,,,,,,,,,,,,,,,,,,,,,,,,,,,,,,,,,,,,,,,,,,,,,,,A0D2RV,train_x,blue_star,top_left,2025-02-05_15h43.27.230,HideSeek_v1,2022.2.5,59.94100610105,
,0,6,3,6,3,0,31,,train_dim1_1,27,30,,,,2,0,2,0,,,,,,,,,0,0,0,0,0,26,26,26,3,0,3,0,,,,,,,,,,,,,,,,,,,,,,,,,,,,,,,,,,,,,,,,,,,,,,,,,,,,,,,,,,,,,,,,30,,,,,,,,2008.6373356000986,2008.6373356000986,2008.6373356000986,2008.6373356000986,2008.6373356000986,return,5.581110599916428,18,0,0,1,0.08,0.08,return,5.502291199984029,-7,64,0.08,0.08,,,,,,,,,,,,,,,,,,,,,,,,,,,,,,,,,,,,,,,,,,,,,,,,,,,,,,,,A0D2RV,train_x,blue_star,top_left,2025-02-05_15h43.27.230,HideSeek_v1,2022.2.5,59.94100610105,
,3,6,7,6,4,0,21,,train_dim1_1,28,30,,,,2,0,2,0,,,,,,,,,0,0,0,0,0,27,27,27,0,0,0,0,,,,,,,,,,,,,,,,,,,,,,,,,stimuli/alien_stimuli/21.png,,,,,,,,,,,,,,,,,,,,,,,,,,,,,stimuli/alien_stimuli/31.png,31,0,29,,,,,,,30,,,,,,,,2019.1485905000009,2019.1485905000009,2019.1485905000009,2019.1485905000009,2019.1485905000009,right,1.724200899945572,18,0,0,99,0.16,0.08,right,1.6045838000718504,,,,,2017.5648749999236,2019.1485905000009,0.08,0.08,0.0,0.24,0.08,0.08,-0.04,0.08,0.08,2015.8038149001077,2015.8038149001077,2015.8038149001077,2015.8038149001077,2015.8038149001077,2015.8038149001077,2015.8038149001077,2015.8038149001077,2015.7802906599595,1.886612799949944,return,1.7430625997949392,,,,,,,,,,,,,,,,,,,,,,,,,,,,,,,,,A0D2RV,train_x,blue_star,top_left,2025-02-05_15h43.27.230,HideSeek_v1,2022.2.5,59.94100610105,
,3,6,7,6,4,0,21,,train_dim1_1,28,30,,,,2,0,2,0,,,,,,,,,0,0,0,0,0,27,27,27,1,0,1,0,,,,,,,,,,,,,,,,,,,,,,,,,,,,,,,,,,,,,,,,,,,,,,,,,,,,,,,,,,,,,,,,30,,,,,,,,2020.8526234000456,2020.8526234000456,2020.8526234000456,2020.8526234000456,2020.8526234000456,right,0.7101270998828113,18,0,0,99,0.24,0.08,right,0.6278587998822331,,,,,,,,,,,,,,,,,,,,,,,,,,,,,,,,,,,,,,,,,,,,,,,,,,,,,,,,,,,,A0D2RV,train_x,blue_star,top_left,2025-02-05_15h43.27.230,HideSeek_v1,2022.2.5,59.94100610105,
,3,6,7,6,4,0,21,,train_dim1_1,28,30,,,,2,0,2,0,,,,,,,,,0,0,0,0,0,27,27,27,2,0,2,0,,,,,,,,,,,,,,,,,,,,,,,,,,,,,,,,,,,,,,,,,,,,,,,,,,,,,,,,,,,,,,,,30,,,,,,,,2021.569006799953,2021.569006799953,2021.569006799953,2021.569006799953,2021.569006799953,right,0.6936942001339048,18,0,0,99,0.32,0.08,right,0.6069680999498814,,,,,,,,,,,,,,,,,,,,,,,,,,,,,,,,,,,,,,,,,,,,,,,,,,,,,,,,,,,,A0D2RV,train_x,blue_star,top_left,2025-02-05_15h43.27.230,HideSeek_v1,2022.2.5,59.94100610105,
,3,6,7,6,4,0,21,,train_dim1_1,28,30,,,,2,0,2,0,,,,,,,,,0,0,0,0,0,27,27,27,3,0,3,0,,,,,,,,,,,,,,,,,,,,,,,,,,,,,,,,,,,,,,,,,,,,,,,,,,,,,,,,,,,,,,,,30,,,,,,,,2022.2697791000828,2022.2697791000828,2022.2697791000828,2022.2697791000828,2022.2697791000828,right,0.8435300998389721,18,0,0,99,0.4,0.08,right,0.7611545999534428,,,,,,,,,,,,,,,,,,,,,,,,,,,,,,,,,,,,,,,,,,,,,,,,,,,,,,,,,,,,A0D2RV,train_x,blue_star,top_left,2025-02-05_15h43.27.230,HideSeek_v1,2022.2.5,59.94100610105,
,3,6,7,6,4,0,21,,train_dim1_1,28,30,,,,2,0,2,0,,,,,,,,,0,0,0,0,0,27,27,27,4,0,4,0,,,,,,,,,,,,,,,,,,,,,,,,,,,,,,,,,,,,,,,,,,,,,,,,,,,,,,,,,,,,,,,,30,,,,,,,,2023.1212490000762,2023.1212490000762,2023.1212490000762,2023.1212490000762,2023.1212490000762,return,0.7771276999264956,19,0,0,1,0.4,0.08,return,0.6864950000308454,-7,68,0.4,0.08,,,,,,,,,,,,,,,,,,,,,,,,,,,,,,,,,,,,,,,,,,,,,,,,,,,,,,,,A0D2RV,train_x,blue_star,top_left,2025-02-05_15h43.27.230,HideSeek_v1,2022.2.5,59.94100610105,
,4,5,5,5,1,0,51,,train_dim1_1,29,30,,,,2,0,2,0,,,,,,,,,0,0,0,0,0,28,28,28,0,0,0,0,,,,,,,,,,,,,,,,,,,,,,,,,stimuli/alien_stimuli/51.png,,,,,,,,,,,,,,,,,,,,,,,,,,,,,stimuli/alien_stimuli/21.png,21,3,30,,,,,,,30,,,,,,,,2028.4364644000307,2028.4364644000307,2028.4364644000307,2028.4364644000307,2028.4364644000307,right,1.7051488000433892,19,0,0,99,0.24,0,right,1.6005512999836355,,,,,2026.8559399999212,2028.4364644000307,0.4,0.08,0.0,0.32,0.08,0.4,0.24000000000000002,0.4,0.08,2025.4635495999828,2025.4635495999828,2025.4635495999828,2025.4635495999828,2025.4635495999828,2025.4635495999828,2025.4635495999828,2025.4635495999828,2025.4547500600806,1.5031924000941217,return,1.3608673999551684,,,,,,,,,,,,,,,,,,,,,,,,,,,,,,,,,A0D2RV,train_x,blue_star,top_left,2025-02-05_15h43.27.230,HideSeek_v1,2022.2.5,59.94100610105,
,4,5,5,5,1,0,51,,train_dim1_1,29,30,,,,2,0,2,0,,,,,,,,,0,0,0,0,0,28,28,28,1,0,1,0,,,,,,,,,,,,,,,,,,,,,,,,,,,,,,,,,,,,,,,,,,,,,,,,,,,,,,,,,,,,,,,,30,,,,,,,,2030.1242372000124,2030.1242372000124,2030.1242372000124,2030.1242372000124,2030.1242372000124,return,0.4934183999430388,20,0,0,1,0.24,0,return,0.4068887000903487,-7,69,0.24,0,,,,,,,,,,,,,,,,,,,,,,,,,,,,,,,,,,,,,,,,,,,,,,,,,,,,,,,,A0D2RV,train_x,blue_star,top_left,2025-02-05_15h43.27.230,HideSeek_v1,2022.2.5,59.94100610105,
,2,7,7,7,5,0,11,,train_dim1_1,30,30,,,,2,0,2,0,,,,,,,,,0,0,0,0,0,29,29,29,0,0,0,0,,,,,,,,,,,,,,,,,,,,,,,,,stimuli/alien_stimuli/11.png,,,,,,,,,,,,,,,,,,,,,,,,,,,,,stimuli/alien_stimuli/51.png,51,4,31,,,,,,,30,,,,,,,,2034.8744928999804,2034.8744928999804,2034.8744928999804,2034.8744928999804,2034.8744928999804,right,1.3559062001295388,20,0,0,99,0.08,0.16,right,1.2702428000047803,,,,,2033.311261499999,2034.8744928999804,0.24,0,0.0,0.08,0.0,0.24,0.2,0.24,0,2032.1868318000343,2032.1868318000343,2032.1868318000343,2032.1868318000343,2032.1868318000343,2032.1868318000343,2032.1868318000343,2032.1868318000343,2032.1771860599752,1.2358939999248832,return,1.0929855001159012,,,,,,,,,,,,,,,,,,,,,,,,,,,,,,,,,A0D2RV,train_x,blue_star,top_left,2025-02-05_15h43.27.230,HideSeek_v1,2022.2.5,59.94100610105,
,2,7,7,7,5,0,11,,train_dim1_1,30,30,,,,2,0,2,0,,,,,,,,,0,0,0,0,0,29,29,29,1,0,1,0,,,,,,,,,,,,,,,,,,,,,,,,,,,,,,,,,,,,,,,,,,,,,,,,,,,,,,,,,,,,,,,,30,,,,,,,,2036.2321820000652,2036.2321820000652,2036.2321820000652,2036.2321820000652,2036.2321820000652,right,0.5262235999107361,20,0,0,99,0.16,0.16,right,0.43736020009964705,,,,,,,,,,,,,,,,,,,,,,,,,,,,,,,,,,,,,,,,,,,,,,,,,,,,,,,,,,,,A0D2RV,train_x,blue_star,top_left,2025-02-05_15h43.27.230,HideSeek_v1,2022.2.5,59.94100610105,
,2,7,7,7,5,0,11,,train_dim1_1,30,30,,,,2,0,2,0,,,,,,,,,0,0,0,0,0,29,29,29,2,0,2,0,,,,,,,,,,,,,,,,,,,,,,,,,,,,,,,,,,,,,,,,,,,,,,,,,,,,,,,,,,,,,,,,30,,,,,,,,2036.7644011001103,2036.7644011001103,2036.7644011001103,2036.7644011001103,2036.7644011001103,right,0.593661299906671,20,0,0,99,0.24,0.16,right,0.5066457998473197,,,,,,,,,,,,,,,,,,,,,,,,,,,,,,,,,,,,,,,,,,,,,,,,,,,,,,,,,,,,A0D2RV,train_x,blue_star,top_left,2025-02-05_15h43.27.230,HideSeek_v1,2022.2.5,59.94100610105,
,2,7,7,7,5,0,11,,train_dim1_1,30,30,,,,2,0,2,0,,,,,,,,,0,0,0,0,0,29,29,29,3,0,3,0,,,,,,,,,,,,,,,,,,,,,,,,,,,,,,,,,,,,,,,,,,,,,,,,,,,,,,,,,,,,,,,,30,,,,,,,,2037.3649347000755,2037.3649347000755,2037.3649347000755,2037.3649347000755,2037.3649347000755,right,0.660318800015375,20,0,0,99,0.32,0.16,right,0.5791967001277953,,,,,,,,,,,,,,,,,,,,,,,,,,,,,,,,,,,,,,,,,,,,,,,,,,,,,,,,,,,,A0D2RV,train_x,blue_star,top_left,2025-02-05_15h43.27.230,HideSeek_v1,2022.2.5,59.94100610105,
,2,7,7,7,5,0,11,,train_dim1_1,30,30,,,,2,0,2,0,,,,,,,,,0,0,0,0,0,29,29,29,4,0,4,0,,,,,,,,,,,,,,,,,,,,,,,,,,,,,,,,,,,,,,,,,,,,,,,,,,,,,,,,,,,,,,,,30,,,,,,,,2038.0331043000333,2038.0331043000333,2038.0331043000333,2038.0331043000333,2038.0331043000333,right,0.7603864001575857,20,0,0,99,0.4,0.16,right,0.6779642000328749,,,,,,,,,,,,,,,,,,,,,,,,,,,,,,,,,,,,,,,,,,,,,,,,,,,,,,,,,,,,A0D2RV,train_x,blue_star,top_left,2025-02-05_15h43.27.230,HideSeek_v1,2022.2.5,59.94100610105,
,2,7,7,7,5,0,11,,train_dim1_1,30,30,,,,2,0,2,0,,,,,,,,,0,0,0,0,0,29,29,29,5,0,5,0,,,,,,,,,,,,,,,,,,,,,,,,,,,,,,,,,,,,,,,,,,,,,,,,,,,,,,,,,,,,,,,,30,,,,,,,,2038.7995815000031,2038.7995815000031,2038.7995815000031,2038.7995815000031,2038.7995815000031,return,0.4933433001860976,21,0,0,1,0.4,0.16,return,0.40671600005589426,-7,74,0.4,0.16,,,,,,,,,,,,,,,,,,,,,,,,,,,,,,,,,,,,,,,,,,,,,,,,,,,,,,,,A0D2RV,train_x,blue_star,top_left,2025-02-05_15h43.27.230,HideSeek_v1,2022.2.5,59.94100610105,
,,,,,,,,,,,30,,,,2,0,2,0,,,,,,,,,,,,,,,,,,,,,,,,,,,,,,,,,,,,,,,,,,,,,,,,,,,,,,,,,,,,,,,,,,,,,,,,,,stimuli/alien_stimuli/11.png,11,2,32,21,0.7,0.875,1,1,1,30,0,conditions/schedules/train_x_first/blue_star_00/top_left/inputTrain_2.1.xlsx,99,1,2,1,0,,,,,,,,,,,1,,,,,,,,,2042.4687062001321,2044.026489800075,0.4,0.16,0.0,0.4,0.16,0.4,0.2,0.4,0.16,2040.858413200127,2040.858413200127,2040.858413200127,2040.858413200127,2040.858413200127,2040.858413200127,2040.858413200127,2040.858413200127,2040.8508377598832,1.7202787999995053,return,1.5808939000125974,0,0.9,0,1,21,,,,,,,,,,,,,,,,,,,,,,,,,,,,A0D2RV,train_x,blue_star,top_left,2025-02-05_15h43.27.230,HideSeek_v1,2022.2.5,59.94100610105,
,,,,,,,,,,,,,,,3,0,3,0,0,0,0,0,,,,,,,,,,,,,,,,,,,,,,,,,,,,,,,conditions/schedules/train_x_first/blue_star_00/top_left/instructions/Slide17.png,conditions/schedules/train_x_first/blue_star_00/top_left/instructions/Audio17.wav,2044.026489800075,2044.0202318198978,17,"[8.514610700076446, 18.669747800100595, 17.433705400209874, 19.388229799922556, 4.505756800062954, 4.488769300049171, 5.439589299960062, 11.625806099968031, 6.407959500094876, 7.318219000007957, 12.509170199977234, 12.588662000140175, 17.801368900109082, 12.789129700046033, 31.904002099996433, 21.62614609999582, 48.33150490000844]","[0.000215600011870265, 0.01445010001771152, 0.03550029988400638, 0.014390799915418029, 0.1014388999901712, 0.0683271000161767, 0.08308249991387129, 0.0694528000894934, 0.0657044998370111, 0.09901070012710989, 0.029777900082990527, 12.588669300079346, 0.08427469991147518, 12.789136199979112, 0.0807722001336515, 21.626152700046077, 48.33151229983196]",0,,,,,,,,,,,,,,,,,,,,,,,,,,,,,,,,,,,,,,,,,,,,,,,,,,,,,,,,,,,,,,,,,,,,,,,,,,,,,,,,,,,,,,,,,,,,,,,,,,,,,,,,,,,,,,,,,,,,,,,,,,,,A0D2RV,train_x,blue_star,top_left,2025-02-05_15h43.27.230,HideSeek_v1,2022.2.5,59.94100610105,
,,,,,,,,,,,,,,,3,0,3,0,1,0,1,0,,,,,,,,,,,,,,,,,,,,,,,,,,,,,,,conditions/schedules/train_x_first/blue_star_00/top_left/instructions/Slide18.png,conditions/schedules/train_x_first/blue_star_00/top_left/instructions/Audio18.wav,2092.4119696000125,2092.4102129200005,18,"[8.514610700076446, 18.669747800100595, 17.433705400209874, 19.388229799922556, 4.505756800062954, 4.488769300049171, 5.439589299960062, 11.625806099968031, 6.407959500094876, 7.318219000007957, 12.509170199977234, 12.588662000140175, 17.801368900109082, 12.789129700046033, 31.904002099996433, 21.62614609999582, 48.33150490000844, 6.868330299854279]","[0.000215600011870265, 0.01445010001771152, 0.03550029988400638, 0.014390799915418029, 0.1014388999901712, 0.0683271000161767, 0.08308249991387129, 0.0694528000894934, 0.0657044998370111, 0.09901070012710989, 0.029777900082990527, 12.588669300079346, 0.08427469991147518, 12.789136199979112, 0.0807722001336515, 21.626152700046077, 0.031418300000950694, 6.868336899904534]",0,,,,,,,,,,,,,,,,,,,,,,,,,,,,,,,,,,,,,,,,,,,,,,,,,,,,,,,,,,,,,,,,,,,,,,,,,,,,,,,,,,,,,,,,,,,,,,,,,,,,,,,,,,,,,,,,,,,,,,,,,,,,A0D2RV,train_x,blue_star,top_left,2025-02-05_15h43.27.230,HideSeek_v1,2022.2.5,59.94100610105,
,,,,,,,,,,,,,,,3,0,3,0,2,0,2,0,,,,,,,,,,,,,,,,,,,,,,,,,,,,,,,conditions/schedules/train_x_first/blue_star_00/top_left/instructions/Slide19.png,conditions/schedules/train_x_first/blue_star_00/top_left/instructions/Audio19.wav,2099.3162428999785,2099.3160783399594,19,"[8.514610700076446, 18.669747800100595, 17.433705400209874, 19.388229799922556, 4.505756800062954, 4.488769300049171, 5.439589299960062, 11.625806099968031, 6.407959500094876, 7.318219000007957, 12.509170199977234, 12.588662000140175, 17.801368900109082, 12.789129700046033, 31.904002099996433, 21.62614609999582, 48.33150490000844, 6.868330299854279, 10.906496699899435]","[0.000215600011870265, 0.01445010001771152, 0.03550029988400638, 0.014390799915418029, 0.1014388999901712, 0.0683271000161767, 0.08308249991387129, 0.0694528000894934, 0.0657044998370111, 0.09901070012710989, 0.029777900082990527, 12.588669300079346, 0.08427469991147518, 12.789136199979112, 0.0807722001336515, 21.626152700046077, 0.031418300000950694, 0.09761359984986484, 10.906503399834037]",0,,,,,,,,,,,,,,,,,,,,,,,,,,,,,,,,,,,,,,,,,,,,,,,,,,,,,,,,,,,,,,,,,,,,,,,,,,,,,,,,,,,,,,,,,,,,,,,,,,,,,,,,,,,,,,,,,,,,,,,,,,,,A0D2RV,train_x,blue_star,top_left,2025-02-05_15h43.27.230,HideSeek_v1,2022.2.5,59.94100610105,
,,,,,,,,,,,,,,,3,0,3,0,3,0,3,0,,,,,,,,,,,,,,,,,,,,,,,,,,,,,,,conditions/schedules/train_x_first/blue_star_00/top_left/instructions/Slide20.png,conditions/schedules/train_x_first/blue_star_00/top_left/instructions/Audio20.wav,2110.288404100109,2110.2751122200393,20,"[8.514610700076446, 18.669747800100595, 17.433705400209874, 19.388229799922556, 4.505756800062954, 4.488769300049171, 5.439589299960062, 11.625806099968031, 6.407959500094876, 7.318219000007957, 12.509170199977234, 12.588662000140175, 17.801368900109082, 12.789129700046033, 31.904002099996433, 21.62614609999582, 48.33150490000844, 6.868330299854279, 10.906496699899435, 13.546288900077343]","[0.000215600011870265, 0.01445010001771152, 0.03550029988400638, 0.014390799915418029, 0.1014388999901712, 0.0683271000161767, 0.08308249991387129, 0.0694528000894934, 0.0657044998370111, 0.09901070012710989, 0.029777900082990527, 12.588669300079346, 0.08427469991147518, 12.789136199979112, 0.0807722001336515, 21.626152700046077, 0.031418300000950694, 0.09761359984986484, 0.10108520020730793, 13.546297300141305]",0,,,,,,,,,,,,,,,,,,,,,,,,,,,,,,,,,,,,,,,,,,,,,,,,,,,,,,,,,,,,,,,,,,,,,,,,,,,,,,,,,,,,,,,,,,,,,,,,,,,,,,,,,,,,,,,,,,,,,,,,,,,,A0D2RV,train_x,blue_star,top_left,2025-02-05_15h43.27.230,HideSeek_v1,2022.2.5,59.94100610105,
1,0,8,0,3,0,-5,66,2,instr_dim1_2,,,,,,3,0,3,0,,,,,0,0,0,0,,,,,,,,,,,,,,,,,,,,,,,,,,,,,,,,,,,,,stimuli/alien_stimuli/66.png,conditions/schedules/train_x_first/blue_star_00/top_left/inputInstr_2.xlsx,stimuli/alien_stimuli/66.png,2123.9271442000754,2123.9271442000754,2123.9271442000754,2123.9271442000754,2123.9197644799015,return,11.313991300063208,"[-0.16, -0.08, 0, 0.08, 0.16, 0.24, 0.32, 0.4, 0.48, 0.56]","[-0.4, -0.32, -0.24, -0.16, -0.08, 0, 0.08, 0.16, 0.24, 0.32]",3,8,0,0,0.4,0.0,2135.3981892000884,2135.3981892000884,2135.3981892000884,2135.3981892000884,2135.3981892000884,2135.3981892000884,2135.3981892000884,2135.3958759199127,7.673950900090858,return,7.518173000076786,stimuli/alien_stimuli/66.png,66,0,1,,,,,,,,,,,,,,,,,,,,,,,,,,,,,,,,,,,,,,,,,,,,,,,,,,,,,,,,,,,,,,,,,,,,,,,,,,,,,,,,,,,,,,,,,A0D2RV,train_x,blue_star,top_left,2025-02-05_15h43.27.230,HideSeek_v1,2022.2.5,59.94100610105,
,,,,,,,,,,,30,,,,3,0,3,0,,,,,,,,,,,,,,,,,,,,,,,,,,,,,,,,,,,,,,,,,,,,,,,,,,,,,,,,,,,,,,,,,,,,,,,,,,,,,,21,0.7,0.875,1,99,2,30,0,conditions/schedules/train_x_first/blue_star_00/top_left/inputTrain_2.1.xlsx,99,1,2,1,0,,,,,,,,,,,,,,,,,,,,,,,,,,,,,,,,,,,,,,,,,,,,,,,,,,,,,,,,,,,,,,,,,,,,,,,,,,,A0D2RV,train_x,blue_star,top_left,2025-02-05_15h43.27.230,HideSeek_v1,2022.2.5,59.94100610105,
,,,,,,,,,,,,,,,4,0,4,0,0,0,0,0,,,,,,,,,,,,,,,,,,,,,,,,,,,,,,,conditions/schedules/train_x_first/blue_star_00/top_left/instructions/Slide21.png,conditions/schedules/train_x_first/blue_star_00/top_left/instructions/Audio21.wav,2143.0827126000077,2143.0854585999623,21,"[8.514610700076446, 18.669747800100595, 17.433705400209874, 19.388229799922556, 4.505756800062954, 4.488769300049171, 5.439589299960062, 11.625806099968031, 6.407959500094876, 7.318219000007957, 12.509170199977234, 12.588662000140175, 17.801368900109082, 12.789129700046033, 31.904002099996433, 21.62614609999582, 48.33150490000844, 6.868330299854279, 10.906496699899435, 13.546288900077343, 18.09814659995027]","[0.000215600011870265, 0.01445010001771152, 0.03550029988400638, 0.014390799915418029, 0.1014388999901712, 0.0683271000161767, 0.08308249991387129, 0.0694528000894934, 0.0657044998370111, 0.09901070012710989, 0.029777900082990527, 12.588669300079346, 0.08427469991147518, 12.789136199979112, 0.0807722001336515, 21.626152700046077, 0.031418300000950694, 0.09761359984986484, 0.10108520020730793, 13.546297300141305, 18.09815360000357]",0,,,,,,,,,,,,,,,,,,,,,,,,,,,,,,,,,,,,,,,,,,,,,,,,,,,,,,,,,,,,,,,,,,,,,,,,,,,,,,,,,,,,,,,,,,,,,,,,,,,,,,,,,,,,,,,,,,,,,,,,,,,,A0D2RV,train_x,blue_star,top_left,2025-02-05_15h43.27.230,HideSeek_v1,2022.2.5,59.94100610105,
2,2,8,2,8,0,0,61,2,instr_dim1_2,,,,,,4,0,4,0,,,,,0,0,0,0,,,,,,,,,,,,,,,,,,,,,,,,,,,,,,,,,,,,,stimuli/alien_stimuli/61.png,conditions/schedules/train_x_first/blue_star_00/top_left/inputInstr_2.xlsx,stimuli/alien_stimuli/61.png,2161.275958399987,2161.275958399987,2161.275958399987,2161.275958399987,2161.267044779891,return,6.60125429998152,"[-0.16, -0.08, 0, 0.08, 0.16, 0.24, 0.32, 0.4, 0.48, 0.56]","[-0.4, -0.32, -0.24, -0.16, -0.08, 0, 0.08, 0.16, 0.24, 0.32]",8,8,2,2,0.0,0.0,2168.025367999915,2168.025367999915,2168.025367999915,2168.025367999915,2168.025367999915,2168.025367999915,2168.025367999915,2168.0229352399706,6.990262900013477,return,6.839693899964914,stimuli/alien_stimuli/61.png,61,2,2,,,,,,,,,,,,,,,,,,,,,,,,,,,,,,,,,,,,,,,,,,,,,,,,,,,,,,,,,,,,,,,,,,,,,,,,,,,,,,,,,,,,,,,,,A0D2RV,train_x,blue_star,top_left,2025-02-05_15h43.27.230,HideSeek_v1,2022.2.5,59.94100610105,
,,,,,,,,,,,30,,,,4,0,4,0,,,,,,,,,,,,,,,,,,,,,,,,,,,,,,,,,,,,,,,,,,,,,,,,,,,,,,,,,,,,,,,,,,,,,,,,,,,,,,21,0.7,0.875,1,99,2,30,0,conditions/schedules/train_x_first/blue_star_00/top_left/inputTrain_2.1.xlsx,99,1,2,1,0,,,,,,,,,,,,,,,,,,,,,,,,,,,,,,,,,,,,,,,,,,,,,,,,,,,,,,,,,,,,,,,,,,,,,,,,,,,A0D2RV,train_x,blue_star,top_left,2025-02-05_15h43.27.230,HideSeek_v1,2022.2.5,59.94100610105,
,,,,,,,,,,,,,,,5,0,5,0,0,0,0,0,,,,,,,,,,,,,,,,,,,,,,,,,,,,,,,conditions/schedules/train_x_first/blue_star_00/top_left/instructions/Slide22.png,conditions/schedules/train_x_first/blue_star_00/top_left/instructions/Audio22.wav,2175.0479856000748,2175.045470000012,22,"[8.514610700076446, 18.669747800100595, 17.433705400209874, 19.388229799922556, 4.505756800062954, 4.488769300049171, 5.439589299960062, 11.625806099968031, 6.407959500094876, 7.318219000007957, 12.509170199977234, 12.588662000140175, 17.801368900109082, 12.789129700046033, 31.904002099996433, 21.62614609999582, 48.33150490000844, 6.868330299854279, 10.906496699899435, 13.546288900077343, 18.09814659995027, 42.930230300175026]","[0.000215600011870265, 0.01445010001771152, 0.03550029988400638, 0.014390799915418029, 0.1014388999901712, 0.0683271000161767, 0.08308249991387129, 0.0694528000894934, 0.0657044998370111, 0.09901070012710989, 0.029777900082990527, 12.588669300079346, 0.08427469991147518, 12.789136199979112, 0.0807722001336515, 21.626152700046077, 0.031418300000950694, 0.09761359984986484, 0.10108520020730793, 13.546297300141305, 18.09815360000357, 42.93023780011572]",0,,,,,,,,,,,,,,,,,,,,,,,,,,,,,,,,,,,,,,,,,,,,,,,,,,,,,,,,,,,,,,,,,,,,,,,,,,,,,,,,,,,,,,,,,,,,,,,,,,,,,,,,,,,,,,,,,,,,,,,,,,,,A0D2RV,train_x,blue_star,top_left,2025-02-05_15h43.27.230,HideSeek_v1,2022.2.5,59.94100610105,
,0,5,0,1,0,-4,65,,train_dim1_2,1,30,,,,5,0,5,0,,,,,,,,,0,0,0,0,0,0,0,0,0,0,0,0,,,,,,,,,,,,,,,,,,,,,,,,,stimuli/alien_stimuli/65.png,,,,,,,,,,,,,,,,,,,,,,,,,,,,,,,,,,,,,,,30,,,,,,,,2218.0823341999203,2218.0823341999203,2218.0823341999203,2218.0823341999203,2218.0823341999203,down,3.9477042998187244,0,0,0,99,-0.16,-0.08,down,3.8444819001015276,,,,,,,,,,,,,,,,,,,,,,,,,,,,,,,,,,,,,,,,,,,,,,,,,,,,,,,,,,,,A0D2RV,train_x,blue_star,top_left,2025-02-05_15h43.27.230,HideSeek_v1,2022.2.5,59.94100610105,
,0,5,0,1,0,-4,65,,train_dim1_2,1,30,,,,5,0,5,0,,,,,,,,,0,0,0,0,0,0,0,0,1,0,1,0,,,,,,,,,,,,,,,,,,,,,,,,,,,,,,,,,,,,,,,,,,,,,,,,,,,,,,,,,,,,,,,,30,,,,,,,,2222.015606299974,2222.015606299974,2222.015606299974,2222.015606299974,2222.015606299974,down,0.7264108001254499,0,0,0,99,-0.16,-0.16,down,0.6374961999244988,,,,,,,,,,,,,,,,,,,,,,,,,,,,,,,,,,,,,,,,,,,,,,,,,,,,,,,,,,,,A0D2RV,train_x,blue_star,top_left,2025-02-05_15h43.27.230,HideSeek_v1,2022.2.5,59.94100610105,
,0,5,0,1,0,-4,65,,train_dim1_2,1,30,,,,5,0,5,0,,,,,,,,,0,0,0,0,0,0,0,0,2,0,2,0,,,,,,,,,,,,,,,,,,,,,,,,,,,,,,,,,,,,,,,,,,,,,,,,,,,,,,,,,,,,,,,,30,,,,,,,,2222.7480498999357,2222.7480498999357,2222.7480498999357,2222.7480498999357,2222.7480498999357,down,0.6271935999393463,0,0,0,99,-0.16,-0.24,down,0.5552036000881344,,,,,,,,,,,,,,,,,,,,,,,,,,,,,,,,,,,,,,,,,,,,,,,,,,,,,,,,,,,,A0D2RV,train_x,blue_star,top_left,2025-02-05_15h43.27.230,HideSeek_v1,2022.2.5,59.94100610105,
,0,5,0,1,0,-4,65,,train_dim1_2,1,30,,,,5,0,5,0,,,,,,,,,0,0,0,0,0,0,0,0,3,0,3,0,,,,,,,,,,,,,,,,,,,,,,,,,,,,,,,,,,,,,,,,,,,,,,,,,,,,,,,,,,,,,,,,30,,,,,,,,2223.38291819999,2223.38291819999,2223.38291819999,2223.38291819999,2223.38291819999,down,0.6269088999833912,0,0,0,99,-0.16,-0.32,down,0.5484207000117749,,,,,,,,,,,,,,,,,,,,,,,,,,,,,,,,,,,,,,,,,,,,,,,,,,,,,,,,,,,,A0D2RV,train_x,blue_star,top_left,2025-02-05_15h43.27.230,HideSeek_v1,2022.2.5,59.94100610105,
,0,5,0,1,0,-4,65,,train_dim1_2,1,30,,,,5,0,5,0,,,,,,,,,0,0,0,0,0,0,0,0,4,0,4,0,,,,,,,,,,,,,,,,,,,,,,,,,,,,,,,,,,,,,,,,,,,,,,,,,,,,,,,,,,,,,,,,30,,,,,,,,2224.016012399923,2224.016012399923,2224.016012399923,2224.016012399923,2224.016012399923,down,0.6769053000025451,0,0,0,99,-0.16,-0.4,down,0.5889606999699026,,,,,,,,,,,,,,,,,,,,,,,,,,,,,,,,,,,,,,,,,,,,,,,,,,,,,,,,,,,,A0D2RV,train_x,blue_star,top_left,2025-02-05_15h43.27.230,HideSeek_v1,2022.2.5,59.94100610105,
,0,5,0,1,0,-4,65,,train_dim1_2,1,30,,,,5,0,5,0,,,,,,,,,0,0,0,0,0,0,0,0,5,0,5,0,,,,,,,,,,,,,,,,,,,,,,,,,,,,,,,,,,,,,,,,,,,,,,,,,,,,,,,,,,,,,,,,30,,,,,,,,2224.700110099977,2224.700110099977,2224.700110099977,2224.700110099977,2224.700110099977,return,0.7768174998927861,0,1,0,0,-0.16,-0.4,return,0.703496300149709,-12,74,-0.16,-0.4,,,,,,,,,,,,,,,,,,,,,,,,,,,,,,,,,,,,,,,,,,,,,,,,,,,,,,,,A0D2RV,train_x,blue_star,top_left,2025-02-05_15h43.27.230,HideSeek_v1,2022.2.5,59.94100610105,
,3,7,3,2,0,-5,66,,train_dim1_2,2,30,,,,5,0,5,0,,,,,,,,,0,0,0,0,0,1,1,1,0,0,0,0,,,,,,,,,,,,,,,,,,,,,,,,,stimuli/alien_stimuli/66.png,,,,,,,,,,,,,,,,,,,,,,,,,,,,,stimuli/alien_stimuli/65.png,65,0,3,,,,,,,30,,,,,,,,2234.9969198000617,2234.9969198000617,2234.9969198000617,2234.9969198000617,2234.9969198000617,down,2.540102700004354,0,1,0,99,0.08,0.08,down,2.4531133000273257,,,,,2233.4438764001243,2234.9969198000617,-0.16,-0.32,0.32,0.0,-0.16,-0.16,-0.16,-0.16,-0.32,2227.0625535999425,2227.0625535999425,2227.0625535999425,2227.0625535999425,2227.0625535999425,2227.0625535999425,2227.0625535999425,2227.0625535999425,2227.0550904398783,6.5077302001882344,return,6.356324400054291,,,,,,,,,,,,,,,,,,,,,,,,,,,,,,,,,A0D2RV,train_x,blue_star,top_left,2025-02-05_15h43.27.230,HideSeek_v1,2022.2.5,59.94100610105,
