trialInstr,x_fixStart,y_fixStart,x_corrSteps,y_corrSteps,x_nrSteps,y_nrSteps,alienID,trialLength,version,trialTrain,praclen,testlen,trial_label,break_on_off,beforeExpLoop.thisRepN,beforeExpLoop.thisTrialN,beforeExpLoop.thisN,beforeExpLoop.thisIndex,mini_instr_trials.thisRepN,mini_instr_trials.thisTrialN,mini_instr_trials.thisN,mini_instr_trials.thisIndex,instrLoop.thisRepN,instrLoop.thisTrialN,instrLoop.thisN,instrLoop.thisIndex,repeat_prac.thisRepN,repeat_prac.thisTrialN,repeat_prac.thisN,repeat_prac.thisIndex,trainLoop.thisRepN,trainLoop.thisTrialN,trainLoop.thisN,trainLoop.thisIndex,moveLoop_train.thisRepN,moveLoop_train.thisTrialN,moveLoop_train.thisN,moveLoop_train.thisIndex,experiment.thisRepN,experiment.thisTrialN,experiment.thisN,experiment.thisIndex,moveLoop_test.thisRepN,moveLoop_test.thisTrialN,moveLoop_test.thisN,moveLoop_test.thisIndex,mini_instr2_trials.thisRepN,mini_instr2_trials.thisTrialN,mini_instr2_trials.thisN,mini_instr2_trials.thisIndex,start_all_time,url,slideStim,audioStim,slides.started,sounds.started,nextButton.numClicks,nextButton.timesOn,nextButton.timesOff,prev_but.numClicks,prev_but.timesOn,prev_but.timesOff,alienStim,instrFile,alienStim_instr,gridImage_instr.started,startPos_3.started,key_instr.started,alienImage_3.started,sounds_1.started,key_instr.keys,key_instr.rt,all_x,all_y,FBy_corrSteps,FBy_fixStart,FBx_corrSteps,FBx_fixStart,FBy_pathSize_check,FBx_pathSize_check,gridImage_9.started,alienImageFB_3.started,startPosFB_3.started,keyFB_3.started,pathLine_ydir_2.started,pathLine_xdir_2.started,alienFace_3.started,sounds_2.started,RTFB_instr,keyFB_3.keys,keyFB_3.rt,draw_alienStim,draw_alienID,test_x,nrepcount,perfthres,percthres,earlierperf,earlystop,nextPrac,fileidx,praclen,saveACC_train,pracFile,nextPrac_train,addNrep,fileidx_endr,repExp,showearly,gridImage_4.started,startPos.started,movePos.started,key_resp.started,alienImage.started,buttonPress_train,RTchoice_train,cumAcctrain,aCorr,saveACC_choice,corrAns,x_movePos_end,y_movePos_end,key_resp.keys,key_resp.rt,wLy_dir,wLx_dir,x_movePos,y_movePos,text_2.started,text_2.stopped,aft_x_corrPos,aft_y_corrPos,y_pathSize_check,x_pathSize_check,y_pathdirY,x_pathdirY,x_pathdirX,x_corrPos,y_corrPos,gridImage_6.started,alienImageFB_2.started,startPosFB_2.started,movePosFB_2.started,keyFB_2.started,pathLine_xdir.started,pathLine_ydir.started,alienFace.started,sounds_4.started,RT_FBtrain,keyFB_2.keys,keyFB_2.rt,saveACC_pre,ACC,within_saveACC_train,earlystop_wloop,cumAcctrain_check,gridImage_3.started,alienImage_test.started,startPos_test.started,movePos_test.started,key_resp_test.started,wLy_dir_test,wLx_dir_test,buttonPress_test,RTchoice_test,cumAcctest,corrAns_test,key_resp_test.keys,key_resp_test.rt,text_3.started,text_3.stopped,total_time,end_all_time,key_resp_3.keys,slides_2.started,sounds_3.started,nextButton_2.numClicks,nextButton_2.timesOn,nextButton_2.timesOff,prev_but_2.numClicks,prev_but_2.timesOn,prev_but_2.timesOff,bye.started,participant,train_first,00_coordinate,starting corner,date,expName,psychopyVersion,frameRate,
,,,,,,,,,,,,,,,0,0,0,0,0,0,0,0,,,,,,,,,,,,,,,,,,,,,,,,,,,,,start_all_time,testround,conditions/schedules/train_x_first/red_square_00/bottom_right/instructions/Slide1.png,conditions/schedules/train_x_first/red_square_00/bottom_right/instructions/Audio1.wav,908.6142652002163,908.56224440597,1,[6.301994899753481],[6.302004199940711],0,,,,,,,,,,,,,,,,,,,,,,,,,,,,,,,,,,,,,,,,,,,,,,,,,,,,,,,,,,,,,,,,,,,,,,,,,,,,,,,,,,,,,,,,,,,,,,,,,,,,,,,,,,,,,,,,,,,,,,,,,,,,A2GA51,train_x,red_square,bottom_right,2025-04-16_16h10.51.931,HideSeek_v1,2022.2.5,60.38275410760011,
,,,,,,,,,,,,,,,0,0,0,0,1,0,1,0,,,,,,,,,,,,,,,,,,,,,,,,,,,,,,,conditions/schedules/train_x_first/red_square_00/bottom_right/instructions/Slide2.png,conditions/schedules/train_x_first/red_square_00/bottom_right/instructions/Audio2.wav,914.93733659992,914.9353469000198,2,"[6.301994899753481, 18.043653099797666]","[0.00021169986575841904, 18.043659799732268]",0,,,,,,,,,,,,,,,,,,,,,,,,,,,,,,,,,,,,,,,,,,,,,,,,,,,,,,,,,,,,,,,,,,,,,,,,,,,,,,,,,,,,,,,,,,,,,,,,,,,,,,,,,,,,,,,,,,,,,,,,,,,,A2GA51,train_x,red_square,bottom_right,2025-04-16_16h10.51.931,HideSeek_v1,2022.2.5,60.38275410760011,
,,,,,,,,,,,,,,,0,0,0,0,2,0,2,0,,,,,,,,,,,,,,,,,,,,,,,,,,,,,,,conditions/schedules/train_x_first/red_square_00/bottom_right/instructions/Slide3.png,conditions/schedules/train_x_first/red_square_00/bottom_right/instructions/Audio3.wav,933.0593067998998,933.0504435002804,3,"[6.301994899753481, 18.043653099797666, 16.919973900076002]","[0.00021169986575841904, 0.014084500260651112, 16.919980500359088]",0,,,,,,,,,,,,,,,,,,,,,,,,,,,,,,,,,,,,,,,,,,,,,,,,,,,,,,,,,,,,,,,,,,,,,,,,,,,,,,,,,,,,,,,,,,,,,,,,,,,,,,,,,,,,,,,,,,,,,,,,,,,,A2GA51,train_x,red_square,bottom_right,2025-04-16_16h10.51.931,HideSeek_v1,2022.2.5,60.38275410760011,
,,,,,,,,,,,,,,,0,0,0,0,3,0,3,0,,,,,,,,,,,,,,,,,,,,,,,,,,,,,,,conditions/schedules/train_x_first/red_square_00/bottom_right/instructions/Slide4.png,conditions/schedules/train_x_first/red_square_00/bottom_right/instructions/Audio4.wav,950.0590304001234,950.0484232003801,4,"[6.301994899753481, 18.043653099797666, 16.919973900076002, 19.619303999934345]","[0.00021169986575841904, 0.014084500260651112, 0.01405709981918335, 19.619310699868947]",0,,,,,,,,,,,,,,,,,,,,,,,,,,,,,,,,,,,,,,,,,,,,,,,,,,,,,,,,,,,,,,,,,,,,,,,,,,,,,,,,,,,,,,,,,,,,,,,,,,,,,,,,,,,,,,,,,,,,,,,,,,,,A2GA51,train_x,red_square,bottom_right,2025-04-16_16h10.51.931,HideSeek_v1,2022.2.5,60.38275410760011,
,,,,,,,,,,,,,,,0,0,0,0,4,0,4,0,,,,,,,,,,,,,,,,,,,,,,,,,,,,,,,conditions/schedules/train_x_first/red_square_00/bottom_right/instructions/Slide5.png,conditions/schedules/train_x_first/red_square_00/bottom_right/instructions/Audio5.wav,969.7470007003285,969.7474553002976,5,"[6.301994899753481, 18.043653099797666, 16.919973900076002, 19.619303999934345, 4.801103299949318]","[0.00021169986575841904, 0.014084500260651112, 0.01405709981918335, 0.013314099982380867, 4.801110100001097]",0,,,,,,,,,,,,,,,,,,,,,,,,,,,,,,,,,,,,,,,,,,,,,,,,,,,,,,,,,,,,,,,,,,,,,,,,,,,,,,,,,,,,,,,,,,,,,,,,,,,,,,,,,,,,,,,,,,,,,,,,,,,,A2GA51,train_x,red_square,bottom_right,2025-04-16_16h10.51.931,HideSeek_v1,2022.2.5,60.38275410760011,
,,,,,,,,,,,,,,,0,0,0,0,5,0,5,0,,,,,,,,,,,,,,,,,,,,,,,,,,,,,,,conditions/schedules/train_x_first/red_square_00/bottom_right/instructions/Slide6.png,conditions/schedules/train_x_first/red_square_00/bottom_right/instructions/Audio6.wav,974.6005849000067,974.6016423000955,6,"[6.301994899753481, 18.043653099797666, 16.919973900076002, 19.619303999934345, 4.801103299949318, 4.6529291998595]","[0.00021169986575841904, 0.014084500260651112, 0.01405709981918335, 0.013314099982380867, 0.014384099747985601, 4.6529362997971475]",0,,,,,,,,,,,,,,,,,,,,,,,,,,,,,,,,,,,,,,,,,,,,,,,,,,,,,,,,,,,,,,,,,,,,,,,,,,,,,,,,,,,,,,,,,,,,,,,,,,,,,,,,,,,,,,,,,,,,,,,,,,,,A2GA51,train_x,red_square,bottom_right,2025-04-16_16h10.51.931,HideSeek_v1,2022.2.5,60.38275410760011,
,,,,,,,,,,,,,,,0,0,0,0,6,0,6,0,,,,,,,,,,,,,,,,,,,,,,,,,,,,,,,conditions/schedules/train_x_first/red_square_00/bottom_right/instructions/Slide7.png,conditions/schedules/train_x_first/red_square_00/bottom_right/instructions/Audio7.wav,979.3051816001534,979.3056211003103,7,"[6.301994899753481, 18.043653099797666, 16.919973900076002, 19.619303999934345, 4.801103299949318, 4.6529291998595, 5.101787199731916]","[0.00021169986575841904, 0.014084500260651112, 0.01405709981918335, 0.013314099982380867, 0.014384099747985601, 0.06439309986308217, 5.101793699897826]",0,,,,,,,,,,,,,,,,,,,,,,,,,,,,,,,,,,,,,,,,,,,,,,,,,,,,,,,,,,,,,,,,,,,,,,,,,,,,,,,,,,,,,,,,,,,,,,,,,,,,,,,,,,,,,,,,,,,,,,,,,,,,A2GA51,train_x,red_square,bottom_right,2025-04-16_16h10.51.931,HideSeek_v1,2022.2.5,60.38275410760011,
,,,,,,,,,,,,,,,0,0,0,0,7,0,7,0,,,,,,,,,,,,,,,,,,,,,,,,,,,,,,,conditions/schedules/train_x_first/red_square_00/bottom_right/instructions/Slide8.png,conditions/schedules/train_x_first/red_square_00/bottom_right/instructions/Audio8.wav,984.4610783001408,984.459737000242,8,"[6.301994899753481, 18.043653099797666, 16.919973900076002, 19.619303999934345, 4.801103299949318, 4.6529291998595, 5.101787199731916, 11.78969610016793]","[0.00021169986575841904, 0.014084500260651112, 0.01405709981918335, 0.013314099982380867, 0.014384099747985601, 0.06439309986308217, 0.04636939987540245, 11.789702599868178]",0,,,,,,,,,,,,,,,,,,,,,,,,,,,,,,,,,,,,,,,,,,,,,,,,,,,,,,,,,,,,,,,,,,,,,,,,,,,,,,,,,,,,,,,,,,,,,,,,,,,,,,,,,,,,,,,,,,,,,,,,,,,,A2GA51,train_x,red_square,bottom_right,2025-04-16_16h10.51.931,HideSeek_v1,2022.2.5,60.38275410760011,
,,,,,,,,,,,,,,,0,0,0,0,8,0,8,0,,,,,,,,,,,,,,,,,,,,,,,,,,,,,,,conditions/schedules/train_x_first/red_square_00/bottom_right/instructions/Slide9.png,conditions/schedules/train_x_first/red_square_00/bottom_right/instructions/Audio9.wav,996.3176728002727,996.3196947001852,9,"[6.301994899753481, 18.043653099797666, 16.919973900076002, 19.619303999934345, 4.801103299949318, 4.6529291998595, 5.101787199731916, 11.78969610016793, 5.921554500237107]","[0.00021169986575841904, 0.014084500260651112, 0.01405709981918335, 0.013314099982380867, 0.014384099747985601, 0.06439309986308217, 0.04636939987540245, 0.01466060010716319, 5.921561399940401]",0,,,,,,,,,,,,,,,,,,,,,,,,,,,,,,,,,,,,,,,,,,,,,,,,,,,,,,,,,,,,,,,,,,,,,,,,,,,,,,,,,,,,,,,,,,,,,,,,,,,,,,,,,,,,,,,,,,,,,,,,,,,,A2GA51,train_x,red_square,bottom_right,2025-04-16_16h10.51.931,HideSeek_v1,2022.2.5,60.38275410760011,
,,,,,,,,,,,,,,,0,0,0,0,9,0,9,0,,,,,,,,,,,,,,,,,,,,,,,,,,,,,,,conditions/schedules/train_x_first/red_square_00/bottom_right/instructions/Slide10.png,conditions/schedules/train_x_first/red_square_00/bottom_right/instructions/Audio10.wav,1002.2890384001657,1002.2913372001611,10,"[6.301994899753481, 18.043653099797666, 16.919973900076002, 19.619303999934345, 4.801103299949318, 4.6529291998595, 5.101787199731916, 11.78969610016793, 5.921554500237107, 6.771896600257605]","[0.00021169986575841904, 0.014084500260651112, 0.01405709981918335, 0.013314099982380867, 0.014384099747985601, 0.06439309986308217, 0.04636939987540245, 0.01466060010716319, 0.06599240005016327, 6.771903300192207]",0,,,,,,,,,,,,,,,,,,,,,,,,,,,,,,,,,,,,,,,,,,,,,,,,,,,,,,,,,,,,,,,,,,,,,,,,,,,,,,,,,,,,,,,,,,,,,,,,,,,,,,,,,,,,,,,,,,,,,,,,,,,,A2GA51,train_x,red_square,bottom_right,2025-04-16_16h10.51.931,HideSeek_v1,2022.2.5,60.38275410760011,
,,,,,,,,,,,,,,,0,0,0,0,10,0,10,0,,,,,,,,,,,,,,,,,,,,,,,,,,,,,,,conditions/schedules/train_x_first/red_square_00/bottom_right/instructions/Slide11.png,conditions/schedules/train_x_first/red_square_00/bottom_right/instructions/Audio11.wav,1009.1304705003276,1009.1303728003986,11,"[6.301994899753481, 18.043653099797666, 16.919973900076002, 19.619303999934345, 4.801103299949318, 4.6529291998595, 5.101787199731916, 11.78969610016793, 5.921554500237107, 6.771896600257605, 9.938567199744284]","[0.00021169986575841904, 0.014084500260651112, 0.01405709981918335, 0.013314099982380867, 0.014384099747985601, 0.06439309986308217, 0.04636939987540245, 0.01466060010716319, 0.06599240005016327, 0.0636843997053802, 9.93857380002737]",0,,,,,,,,,,,,,,,,,,,,,,,,,,,,,,,,,,,,,,,,,,,,,,,,,,,,,,,,,,,,,,,,,,,,,,,,,,,,,,,,,,,,,,,,,,,,,,,,,,,,,,,,,,,,,,,,,,,,,,,,,,,,A2GA51,train_x,red_square,bottom_right,2025-04-16_16h10.51.931,HideSeek_v1,2022.2.5,60.38275410760011,
,,,,,,,,,,,,,,,0,0,0,0,11,0,11,0,,,,,,,,,,,,,,,,,,,,,,,,,,,,,,,conditions/schedules/train_x_first/red_square_00/bottom_right/instructions/Slide12.png,conditions/schedules/train_x_first/red_square_00/bottom_right/instructions/Audio12.wav,1019.1254683001898,1019.1217923999765,12,"[6.301994899753481, 18.043653099797666, 16.919973900076002, 19.619303999934345, 4.801103299949318, 4.6529291998595, 5.101787199731916, 11.78969610016793, 5.921554500237107, 6.771896600257605, 9.938567199744284, 12.52101940009743]","[0.00021169986575841904, 0.014084500260651112, 0.01405709981918335, 0.013314099982380867, 0.014384099747985601, 0.06439309986308217, 0.04636939987540245, 0.01466060010716319, 0.06599240005016327, 0.0636843997053802, 0.12706479988992214, 12.521025800146163]",0,,,,,,,,,,,,,,,,,,,,,,,,,,,,,,,,,,,,,,,,,,,,,,,,,,,,,,,,,,,,,,,,,,,,,,,,,,,,,,,,,,,,,,,,,,,,,,,,,,,,,,,,,,,,,,,,,,,,,,,,,,,,A2GA51,train_x,red_square,bottom_right,2025-04-16_16h10.51.931,HideSeek_v1,2022.2.5,60.38275410760011,
1,8,2,3,2,-5,0,66,2,instr_dim1_1,,,,,,0,0,0,0,,,,,0,0,0,0,,,,,,,,,,,,,,,,,,,,,,,,,,,,,,,,,,,,,stimuli/alien_stimuli/66.png,conditions/schedules/train_x_first/red_square_00/bottom_right/inputInstr_1.xlsx,stimuli/alien_stimuli/66.png,1031.7522611999884,1031.7522611999884,1031.7522611999884,1031.7522611999884,1031.7492112001405,return,9.688097800128162,"[-0.16, -0.08, 0, 0.08, 0.16, 0.24, 0.32, 0.4, 0.48, 0.56]","[-0.4, -0.32, -0.24, -0.16, -0.08, 0, 0.08, 0.16, 0.24, 0.32]",2,2,3,8,0.0,0.4,1041.5845332001336,1041.5845332001336,1041.5845332001336,1041.5845332001336,1041.5845332001336,1041.5845332001336,1041.5845332001336,1041.5738808004187,9.341649000067264,return,9.183334699831903,stimuli/alien_stimuli/66.png,66,8,1,,,,,,,,,,,,,,,,,,,,,,,,,,,,,,,,,,,,,,,,,,,,,,,,,,,,,,,,,,,,,,,,,,,,,,,,,,,,,,,,,,,,,,,,,A2GA51,train_x,red_square,bottom_right,2025-04-16_16h10.51.931,HideSeek_v1,2022.2.5,60.38275410760011,
,,,,,,,,,,,30,,,,0,0,0,0,,,,,,,,,,,,,,,,,,,,,,,,,,,,,,,,,,,,,,,,,,,,,,,,,,,,,,,,,,,,,,,,,,,,,,,,,,,,,,21,0.7,0,0,99,1,30,0,conditions/schedules/train_x_first/red_square_00/bottom_right/inputTrain_1.1.xlsx,99,1,1,1,0,,,,,,,,,,,,,,,,,,,,,,,,,,,,,,,,,,,,,,,,,,,,,,,,,,,,,,,,,,,,,,,,,,,,,,,,,,,A2GA51,train_x,red_square,bottom_right,2025-04-16_16h10.51.931,HideSeek_v1,2022.2.5,60.38275410760011,
,,,,,,,,,,,,,,,1,0,1,0,0,0,0,0,,,,,,,,,,,,,,,,,,,,,,,,,,,,,,,conditions/schedules/train_x_first/red_square_00/bottom_right/instructions/Slide13.png,conditions/schedules/train_x_first/red_square_00/bottom_right/instructions/Audio13.wav,1050.9278287999332,1050.9149103000761,13,"[6.301994899753481, 18.043653099797666, 16.919973900076002, 19.619303999934345, 4.801103299949318, 4.6529291998595, 5.101787199731916, 11.78969610016793, 5.921554500237107, 6.771896600257605, 9.938567199744284, 12.52101940009743, 19.78384319972247]","[0.00021169986575841904, 0.014084500260651112, 0.01405709981918335, 0.013314099982380867, 0.014384099747985601, 0.06439309986308217, 0.04636939987540245, 0.01466060010716319, 0.06599240005016327, 0.0636843997053802, 0.12706479988992214, 12.521025800146163, 19.783850099891424]",0,,,,,,,,,,,,,,,,,,,,,,,,,,,,,,,,,,,,,,,,,,,,,,,,,,,,,,,,,,,,,,,,,,,,,,,,,,,,,,,,,,,,,,,,,,,,,,,,,,,,,,,,,,,,,,,,,,,,,,,,,,,,A2GA51,train_x,red_square,bottom_right,2025-04-16_16h10.51.931,HideSeek_v1,2022.2.5,60.38275410760011,
,,,,,,,,,,,,,,,1,0,1,0,1,0,1,0,,,,,,,,,,,,,,,,,,,,,,,,,,,,,,,conditions/schedules/train_x_first/red_square_00/bottom_right/instructions/Slide14.png,conditions/schedules/train_x_first/red_square_00/bottom_right/instructions/Audio14.wav,1070.7773519000039,1070.764810800273,14,"[6.301994899753481, 18.043653099797666, 16.919973900076002, 19.619303999934345, 4.801103299949318, 4.6529291998595, 5.101787199731916, 11.78969610016793, 5.921554500237107, 6.771896600257605, 9.938567199744284, 12.52101940009743, 19.78384319972247, 12.813914500176907]","[0.00021169986575841904, 0.014084500260651112, 0.01405709981918335, 0.013314099982380867, 0.014384099747985601, 0.06439309986308217, 0.04636939987540245, 0.01466060010716319, 0.06599240005016327, 0.0636843997053802, 0.12706479988992214, 12.521025800146163, 0.06812990037724376, 12.813922100234777]",0,,,,,,,,,,,,,,,,,,,,,,,,,,,,,,,,,,,,,,,,,,,,,,,,,,,,,,,,,,,,,,,,,,,,,,,,,,,,,,,,,,,,,,,,,,,,,,,,,,,,,,,,,,,,,,,,,,,,,,,,,,,,A2GA51,train_x,red_square,bottom_right,2025-04-16_16h10.51.931,HideSeek_v1,2022.2.5,60.38275410760011,
2,9,0,9,0,0,0,16,2,instr_dim1_1,,,,,,1,0,1,0,,,,,0,0,0,0,,,,,,,,,,,,,,,,,,,,,,,,,,,,,,,,,,,,,stimuli/alien_stimuli/16.png,conditions/schedules/train_x_first/red_square_00/bottom_right/inputInstr_1.xlsx,stimuli/alien_stimuli/16.png,1083.6953819999471,1083.6953819999471,1083.6953819999471,1083.6953819999471,1083.6923264000566,return,10.288996700197458,"[-0.16, -0.08, 0, 0.08, 0.16, 0.24, 0.32, 0.4, 0.48, 0.56]","[-0.4, -0.32, -0.24, -0.16, -0.08, 0, 0.08, 0.16, 0.24, 0.32]",0,0,9,9,0.0,0.0,1094.1562307002023,1094.1562307002023,1094.1562307002023,1094.1562307002023,1094.1562307002023,1094.1562307002023,1094.1562307002023,1094.1342198003083,22.419342500157654,return,22.24501369986683,stimuli/alien_stimuli/16.png,16,9,2,,,,,,,,,,,,,,,,,,,,,,,,,,,,,,,,,,,,,,,,,,,,,,,,,,,,,,,,,,,,,,,,,,,,,,,,,,,,,,,,,,,,,,,,,A2GA51,train_x,red_square,bottom_right,2025-04-16_16h10.51.931,HideSeek_v1,2022.2.5,60.38275410760011,
,,,,,,,,,,,30,,,,1,0,1,0,,,,,,,,,,,,,,,,,,,,,,,,,,,,,,,,,,,,,,,,,,,,,,,,,,,,,,,,,,,,,,,,,,,,,,,,,,,,,,21,0.7,0,0,99,1,30,0,conditions/schedules/train_x_first/red_square_00/bottom_right/inputTrain_1.1.xlsx,99,1,1,1,0,,,,,,,,,,,,,,,,,,,,,,,,,,,,,,,,,,,,,,,,,,,,,,,,,,,,,,,,,,,,,,,,,,,,,,,,,,,A2GA51,train_x,red_square,bottom_right,2025-04-16_16h10.51.931,HideSeek_v1,2022.2.5,60.38275410760011,
,,,,,,,,,,,,,,,2,0,2,0,0,0,0,0,,,,,,,,,,,,,,,,,,,,,,,,,,,,,,,conditions/schedules/train_x_first/red_square_00/bottom_right/instructions/Slide15.png,conditions/schedules/train_x_first/red_square_00/bottom_right/instructions/Audio15.wav,1116.567032400053,1116.5694541004486,15,"[6.301994899753481, 18.043653099797666, 16.919973900076002, 19.619303999934345, 4.801103299949318, 4.6529291998595, 5.101787199731916, 11.78969610016793, 5.921554500237107, 6.771896600257605, 9.938567199744284, 12.52101940009743, 19.78384319972247, 12.813914500176907, 30.675419100094587]","[0.00021169986575841904, 0.014084500260651112, 0.01405709981918335, 0.013314099982380867, 0.014384099747985601, 0.06439309986308217, 0.04636939987540245, 0.01466060010716319, 0.06599240005016327, 0.0636843997053802, 0.12706479988992214, 12.521025800146163, 0.06812990037724376, 12.813922100234777, 30.67542580002919]",0,,,,,,,,,,,,,,,,,,,,,,,,,,,,,,,,,,,,,,,,,,,,,,,,,,,,,,,,,,,,,,,,,,,,,,,,,,,,,,,,,,,,,,,,,,,,,,,,,,,,,,,,,,,,,,,,,,,,,,,,,,,,A2GA51,train_x,red_square,bottom_right,2025-04-16_16h10.51.931,HideSeek_v1,2022.2.5,60.38275410760011,
,,,,,,,,,,,,,,,2,0,2,0,1,0,1,0,,,,,,,,,,,,,,,,,,,,,,,,,,,,,,,conditions/schedules/train_x_first/red_square_00/bottom_right/instructions/Slide16.png,conditions/schedules/train_x_first/red_square_00/bottom_right/instructions/Audio16.wav,1147.312093900051,1147.311926400289,16,"[6.301994899753481, 18.043653099797666, 16.919973900076002, 19.619303999934345, 4.801103299949318, 4.6529291998595, 5.101787199731916, 11.78969610016793, 5.921554500237107, 6.771896600257605, 9.938567199744284, 12.52101940009743, 19.78384319972247, 12.813914500176907, 30.675419100094587, 22.215656700078398]","[0.00021169986575841904, 0.014084500260651112, 0.01405709981918335, 0.013314099982380867, 0.014384099747985601, 0.06439309986308217, 0.04636939987540245, 0.01466060010716319, 0.06599240005016327, 0.0636843997053802, 0.12706479988992214, 12.521025800146163, 0.06812990037724376, 12.813922100234777, 0.09663379983976483, 22.21566369989887]",0,,,,,,,,,,,,,,,,,,,,,,,,,,,,,,,,,,,,,,,,,,,,,,,,,,,,,,,,,,,,,,,,,,,,,,,,,,,,,,,,,,,,,,,,,,,,,,,,,,,,,,,,,,,,,,,,,,,,,,,,,,,,A2GA51,train_x,red_square,bottom_right,2025-04-16_16h10.51.931,HideSeek_v1,2022.2.5,60.38275410760011,
,7,1,4,1,-3,0,46,,train_dim1_1,1,30,,,,2,0,2,0,,,,,,,,,0,0,0,0,0,0,0,0,0,0,0,0,,,,,,,,,,,,,,,,,,,,,,,,,stimuli/alien_stimuli/46.png,,,,,,,,,,,,,,,,,,,,,,,,,,,,,,,,,,,,,,,30,,,,,,,,1169.6282291002572,1169.6282291002572,1169.6282291002572,1169.6282291002572,1169.6282291002572,up,21.478620999958366,0,0,0,99,0.4,-0.24,up,21.381540700327605,,,,,,,,,,,,,,,,,,,,,,,,,,,,,,,,,,,,,,,,,,,,,,,,,,,,,,,,,,,,A2GA51,train_x,red_square,bottom_right,2025-04-16_16h10.51.931,HideSeek_v1,2022.2.5,60.38275410760011,
,7,1,4,1,-3,0,46,,train_dim1_1,1,30,,,,2,0,2,0,,,,,,,,,0,0,0,0,0,0,0,0,1,0,1,0,,,,,,,,,,,,,,,,,,,,,,,,,,,,,,,,,,,,,,,,,,,,,,,,,,,,,,,,,,,,,,,,30,,,,,,,,1191.112084500026,1191.112084500026,1191.112084500026,1191.112084500026,1191.112084500026,up,2.0107737998478115,0,0,0,99,0.4,-0.15999999999999998,up,1.9187969001941383,,,,,,,,,,,,,,,,,,,,,,,,,,,,,,,,,,,,,,,,,,,,,,,,,,,,,,,,,,,,A2GA51,train_x,red_square,bottom_right,2025-04-16_16h10.51.931,HideSeek_v1,2022.2.5,60.38275410760011,
,7,1,4,1,-3,0,46,,train_dim1_1,1,30,,,,2,0,2,0,,,,,,,,,0,0,0,0,0,0,0,0,2,0,2,0,,,,,,,,,,,,,,,,,,,,,,,,,,,,,,,,,,,,,,,,,,,,,,,,,,,,,,,,,,,,,,,,30,,,,,,,,1193.1131996000186,1193.1131996000186,1193.1131996000186,1193.1131996000186,1193.1131996000186,left,1.0939543000422418,0,0,0,99,0.32,-0.15999999999999998,left,1.0106719001196325,,,,,,,,,,,,,,,,,,,,,,,,,,,,,,,,,,,,,,,,,,,,,,,,,,,,,,,,,,,,A2GA51,train_x,red_square,bottom_right,2025-04-16_16h10.51.931,HideSeek_v1,2022.2.5,60.38275410760011,
,7,1,4,1,-3,0,46,,train_dim1_1,1,30,,,,2,0,2,0,,,,,,,,,0,0,0,0,0,0,0,0,3,0,3,0,,,,,,,,,,,,,,,,,,,,,,,,,,,,,,,,,,,,,,,,,,,,,,,,,,,,,,,,,,,,,,,,30,,,,,,,,1194.213550500106,1194.213550500106,1194.213550500106,1194.213550500106,1194.213550500106,left,1.6609748997725546,0,0,0,99,0.24,-0.15999999999999998,left,1.5770793003030121,,,,,,,,,,,,,,,,,,,,,,,,,,,,,,,,,,,,,,,,,,,,,,,,,,,,,,,,,,,,A2GA51,train_x,red_square,bottom_right,2025-04-16_16h10.51.931,HideSeek_v1,2022.2.5,60.38275410760011,
,7,1,4,1,-3,0,46,,train_dim1_1,1,30,,,,2,0,2,0,,,,,,,,,0,0,0,0,0,0,0,0,4,0,4,0,,,,,,,,,,,,,,,,,,,,,,,,,,,,,,,,,,,,,,,,,,,,,,,,,,,,,,,,,,,,,,,,30,,,,,,,,1195.8827527002431,1195.8827527002431,1195.8827527002431,1195.8827527002431,1195.8827527002431,up,2.911815400235355,0,0,0,99,0.24,-0.07999999999999997,up,2.823785400018096,,,,,,,,,,,,,,,,,,,,,,,,,,,,,,,,,,,,,,,,,,,,,,,,,,,,,,,,,,,,A2GA51,train_x,red_square,bottom_right,2025-04-16_16h10.51.931,HideSeek_v1,2022.2.5,60.38275410760011,
,7,1,4,1,-3,0,46,,train_dim1_1,1,30,,,,2,0,2,0,,,,,,,,,0,0,0,0,0,0,0,0,5,0,5,0,,,,,,,,,,,,,,,,,,,,,,,,,,,,,,,,,,,,,,,,,,,,,,,,,,,,,,,,,,,,,,,,30,,,,,,,,1198.8016266999766,1198.8016266999766,1198.8016266999766,1198.8016266999766,1198.8016266999766,right,1.327141399960965,0,0,0,99,0.32,-0.07999999999999997,right,1.2507169004529715,,,,,,,,,,,,,,,,,,,,,,,,,,,,,,,,,,,,,,,,,,,,,,,,,,,,,,,,,,,,A2GA51,train_x,red_square,bottom_right,2025-04-16_16h10.51.931,HideSeek_v1,2022.2.5,60.38275410760011,
,7,1,4,1,-3,0,46,,train_dim1_1,1,30,,,,2,0,2,0,,,,,,,,,0,0,0,0,0,0,0,0,6,0,6,0,,,,,,,,,,,,,,,,,,,,,,,,,,,,,,,,,,,,,,,,,,,,,,,,,,,,,,,,,,,,,,,,30,,,,,,,,1200.13548539998,1200.13548539998,1200.13548539998,1200.13548539998,1200.13548539998,right,0.5433744001202285,0,0,0,99,0.4,-0.07999999999999997,right,0.47013070015236735,,,,,,,,,,,,,,,,,,,,,,,,,,,,,,,,,,,,,,,,,,,,,,,,,,,,,,,,,,,,A2GA51,train_x,red_square,bottom_right,2025-04-16_16h10.51.931,HideSeek_v1,2022.2.5,60.38275410760011,
,7,1,4,1,-3,0,46,,train_dim1_1,1,30,,,,2,0,2,0,,,,,,,,,0,0,0,0,0,0,0,0,7,0,7,0,,,,,,,,,,,,,,,,,,,,,,,,,,,,,,,,,,,,,,,,,,,,,,,,,,,,,,,,,,,,,,,,30,,,,,,,,1200.685875700321,1200.685875700321,1200.685875700321,1200.685875700321,1200.685875700321,return,4.5636180001311,0,0,0,0,0.4,-0.07999999999999997,return,4.48266139999032,3,0,0.4,-0.07999999999999997,,,,,,,,,,,,,,,,,,,,,,,,,,,,,,,,,,,,,,,,,,,,,,,,,,,,,,,,A2GA51,train_x,red_square,bottom_right,2025-04-16_16h10.51.931,HideSeek_v1,2022.2.5,60.38275410760011,
,7,4,7,4,0,0,16,,train_dim1_1,2,30,,,,2,0,2,0,,,,,,,,,0,0,0,0,0,1,1,1,0,0,0,0,,,,,,,,,,,,,,,,,,,,,,,,,stimuli/alien_stimuli/16.png,,,,,,,,,,,,,,,,,,,,,,,,,,,,,stimuli/alien_stimuli/46.png,46,7,3,,,,,,,30,,,,,,,,1230.1902975002304,1230.1902975002304,1230.1902975002304,1230.1902975002304,1230.1902975002304,down,4.1413365001790226,0,0,0,99,0.4,-0.16,down,4.0395849999040365,,,,,1228.6127404002473,1230.1902975002304,0.16,-0.32,0.0,0.24,-0.32,0.16,0.28,0.16,-0.32,1206.822348400019,1206.822348400019,1206.822348400019,1206.822348400019,1206.822348400019,1206.822348400019,1206.822348400019,1206.822348400019,1206.8112764000894,21.903783299960196,return,21.77340959990397,,,,,,,,,,,,,,,,,,,,,,,,,,,,,,,,,A2GA51,train_x,red_square,bottom_right,2025-04-16_16h10.51.931,HideSeek_v1,2022.2.5,60.38275410760011,
,7,4,7,4,0,0,16,,train_dim1_1,2,30,,,,2,0,2,0,,,,,,,,,0,0,0,0,0,1,1,1,1,0,1,0,,,,,,,,,,,,,,,,,,,,,,,,,,,,,,,,,,,,,,,,,,,,,,,,,,,,,,,,,,,,,,,,30,,,,,,,,1234.3192247003317,1234.3192247003317,1234.3192247003317,1234.3192247003317,1234.3192247003317,down,0.575859900098294,0,0,0,99,0.4,-0.24,down,0.49395549995824695,,,,,,,,,,,,,,,,,,,,,,,,,,,,,,,,,,,,,,,,,,,,,,,,,,,,,,,,,,,,A2GA51,train_x,red_square,bottom_right,2025-04-16_16h10.51.931,HideSeek_v1,2022.2.5,60.38275410760011,
,7,4,7,4,0,0,16,,train_dim1_1,2,30,,,,2,0,2,0,,,,,,,,,0,0,0,0,0,1,1,1,2,0,2,0,,,,,,,,,,,,,,,,,,,,,,,,,,,,,,,,,,,,,,,,,,,,,,,,,,,,,,,,,,,,,,,,30,,,,,,,,1234.9013547999784,1234.9013547999784,1234.9013547999784,1234.9013547999784,1234.9013547999784,down,0.9940480999648571,0,0,0,99,0.4,-0.32,down,0.91247049998492,,,,,,,,,,,,,,,,,,,,,,,,,,,,,,,,,,,,,,,,,,,,,,,,,,,,,,,,,,,,A2GA51,train_x,red_square,bottom_right,2025-04-16_16h10.51.931,HideSeek_v1,2022.2.5,60.38275410760011,
,7,4,7,4,0,0,16,,train_dim1_1,2,30,,,,2,0,2,0,,,,,,,,,0,0,0,0,0,1,1,1,3,0,3,0,,,,,,,,,,,,,,,,,,,,,,,,,,,,,,,,,,,,,,,,,,,,,,,,,,,,,,,,,,,,,,,,30,,,,,,,,1235.9026445001364,1235.9026445001364,1235.9026445001364,1235.9026445001364,1235.9026445001364,return,1.410445800051093,0,0,0,0,0.4,-0.32,return,1.330641500186175,0,0,0.4,-0.32,,,,,,,,,,,,,,,,,,,,,,,,,,,,,,,,,,,,,,,,,,,,,,,,,,,,,,,,A2GA51,train_x,red_square,bottom_right,2025-04-16_16h10.51.931,HideSeek_v1,2022.2.5,60.38275410760011,
,9,4,8,4,-1,0,26,,train_dim1_1,3,30,,,,2,0,2,0,,,,,,,,,0,0,0,0,0,2,2,2,0,0,0,0,,,,,,,,,,,,,,,,,,,,,,,,,stimuli/alien_stimuli/26.png,,,,,,,,,,,,,,,,,,,,,,,,,,,,,stimuli/alien_stimuli/16.png,16,7,4,,,,,,,30,,,,,,,,1247.7272419999354,1247.7272419999354,1247.7272419999354,1247.7272419999354,1247.7272419999354,left,6.008170899935067,0,0,0,99,0.48000000000000004,-0.08,left,5.912366700358689,,,,,1246.1604925999418,1247.7272419999354,0.4,-0.08,0.0,0.0,-0.08,0.4,0.4,0.4,-0.08,1238.9030778002925,1238.9030778002925,1238.9030778002925,1238.9030778002925,1238.9030778002925,1238.9030778002925,1238.9030778002925,1238.9030778002925,1238.887891100161,7.391869999933988,return,7.240852999966592,,,,,,,,,,,,,,,,,,,,,,,,,,,,,,,,,A2GA51,train_x,red_square,bottom_right,2025-04-16_16h10.51.931,HideSeek_v1,2022.2.5,60.38275410760011,
,9,4,8,4,-1,0,26,,train_dim1_1,3,30,,,,2,0,2,0,,,,,,,,,0,0,0,0,0,2,2,2,1,0,1,0,,,,,,,,,,,,,,,,,,,,,,,,,,,,,,,,,,,,,,,,,,,,,,,,,,,,,,,,,,,,,,,,30,,,,,,,,1253.734810099937,1253.734810099937,1253.734810099937,1253.734810099937,1253.734810099937,left,0.6437825001776218,0,0,0,99,0.4,-0.08,left,0.5522831999696791,,,,,,,,,,,,,,,,,,,,,,,,,,,,,,,,,,,,,,,,,,,,,,,,,,,,,,,,,,,,A2GA51,train_x,red_square,bottom_right,2025-04-16_16h10.51.931,HideSeek_v1,2022.2.5,60.38275410760011,
,9,4,8,4,-1,0,26,,train_dim1_1,3,30,,,,2,0,2,0,,,,,,,,,0,0,0,0,0,2,2,2,2,0,2,0,,,,,,,,,,,,,,,,,,,,,,,,,,,,,,,,,,,,,,,,,,,,,,,,,,,,,,,,,,,,,,,,30,,,,,,,,1254.3848210000433,1254.3848210000433,1254.3848210000433,1254.3848210000433,1254.3848210000433,left,0.6596087999641895,0,0,0,99,0.32,-0.08,left,0.5685808998532593,,,,,,,,,,,,,,,,,,,,,,,,,,,,,,,,,,,,,,,,,,,,,,,,,,,,,,,,,,,,A2GA51,train_x,red_square,bottom_right,2025-04-16_16h10.51.931,HideSeek_v1,2022.2.5,60.38275410760011,
,9,4,8,4,-1,0,26,,train_dim1_1,3,30,,,,2,0,2,0,,,,,,,,,0,0,0,0,0,2,2,2,3,0,3,0,,,,,,,,,,,,,,,,,,,,,,,,,,,,,,,,,,,,,,,,,,,,,,,,,,,,,,,,,,,,,,,,30,,,,,,,,1255.0516067999415,1255.0516067999415,1255.0516067999415,1255.0516067999415,1255.0516067999415,return,2.1778665999881923,0,0,0,0,0.32,-0.08,return,2.0925145000219345,0,-3,0.32,-0.08,,,,,,,,,,,,,,,,,,,,,,,,,,,,,,,,,,,,,,,,,,,,,,,,,,,,,,,,A2GA51,train_x,red_square,bottom_right,2025-04-16_16h10.51.931,HideSeek_v1,2022.2.5,60.38275410760011,
,7,3,3,3,-4,0,56,,train_dim1_1,4,30,,,,2,0,2,0,,,,,,,,,0,0,0,0,0,3,3,3,0,0,0,0,,,,,,,,,,,,,,,,,,,,,,,,,stimuli/alien_stimuli/56.png,,,,,,,,,,,,,,,,,,,,,,,,,,,,,stimuli/alien_stimuli/26.png,26,9,5,,,,,,,30,,,,,,,,1264.1721596000716,1264.1721596000716,1264.1721596000716,1264.1721596000716,1264.1721596000716,left,21.052689799573272,0,0,0,99,0.32,-0.16,left,20.96650950005278,,,,,1262.6075023999438,1264.1721596000716,0.48,-0.08,0.0,0.08,-0.08,0.48,0.52,0.48,-0.08,1258.812343600206,1258.812343600206,1258.812343600206,1258.812343600206,1258.812343600206,1258.812343600206,1258.812343600206,1258.812343600206,1258.8043411000633,3.9224638999439776,return,3.7760022999718785,,,,,,,,,,,,,,,,,,,,,,,,,,,,,,,,,A2GA51,train_x,red_square,bottom_right,2025-04-16_16h10.51.931,HideSeek_v1,2022.2.5,60.38275410760011,
,7,3,3,3,-4,0,56,,train_dim1_1,4,30,,,,2,0,2,0,,,,,,,,,0,0,0,0,0,3,3,3,1,0,1,0,,,,,,,,,,,,,,,,,,,,,,,,,,,,,,,,,,,,,,,,,,,,,,,,,,,,,,,,,,,,,,,,30,,,,,,,,1285.2377702998929,1285.2377702998929,1285.2377702998929,1285.2377702998929,1285.2377702998929,left,0.5930570997297764,0,0,0,99,0.24,-0.16,left,0.4909926000982523,,,,,,,,,,,,,,,,,,,,,,,,,,,,,,,,,,,,,,,,,,,,,,,,,,,,,,,,,,,,A2GA51,train_x,red_square,bottom_right,2025-04-16_16h10.51.931,HideSeek_v1,2022.2.5,60.38275410760011,
,7,3,3,3,-4,0,56,,train_dim1_1,4,30,,,,2,0,2,0,,,,,,,,,0,0,0,0,0,3,3,3,2,0,2,0,,,,,,,,,,,,,,,,,,,,,,,,,,,,,,,,,,,,,,,,,,,,,,,,,,,,,,,,,,,,,,,,30,,,,,,,,1285.8260746002197,1285.8260746002197,1285.8260746002197,1285.8260746002197,1285.8260746002197,left,0.5434733997099102,0,0,0,99,0.15999999999999998,-0.16,left,0.45499120000749826,,,,,,,,,,,,,,,,,,,,,,,,,,,,,,,,,,,,,,,,,,,,,,,,,,,,,,,,,,,,A2GA51,train_x,red_square,bottom_right,2025-04-16_16h10.51.931,HideSeek_v1,2022.2.5,60.38275410760011,
,7,3,3,3,-4,0,56,,train_dim1_1,4,30,,,,2,0,2,0,,,,,,,,,0,0,0,0,0,3,3,3,3,0,3,0,,,,,,,,,,,,,,,,,,,,,,,,,,,,,,,,,,,,,,,,,,,,,,,,,,,,,,,,,,,,,,,,30,,,,,,,,1286.3760891002603,1286.3760891002603,1286.3760891002603,1286.3760891002603,1286.3760891002603,left,0.4768350999802351,0,0,0,99,0.07999999999999997,-0.16,left,0.39998790016397834,,,,,,,,,,,,,,,,,,,,,,,,,,,,,,,,,,,,,,,,,,,,,,,,,,,,,,,,,,,,A2GA51,train_x,red_square,bottom_right,2025-04-16_16h10.51.931,HideSeek_v1,2022.2.5,60.38275410760011,
,7,3,3,3,-4,0,56,,train_dim1_1,4,30,,,,2,0,2,0,,,,,,,,,0,0,0,0,0,3,3,3,4,0,4,0,,,,,,,,,,,,,,,,,,,,,,,,,,,,,,,,,,,,,,,,,,,,,,,,,,,,,,,,,,,,,,,,30,,,,,,,,1286.8595275999978,1286.8595275999978,1286.8595275999978,1286.8595275999978,1286.8595275999978,left,0.3431552997790277,0,0,0,99,-2.7755575615628914e-17,-0.16,left,0.26817920012399554,,,,,,,,,,,,,,,,,,,,,,,,,,,,,,,,,,,,,,,,,,,,,,,,,,,,,,,,,,,,A2GA51,train_x,red_square,bottom_right,2025-04-16_16h10.51.931,HideSeek_v1,2022.2.5,60.38275410760011,
,7,3,3,3,-4,0,56,,train_dim1_1,4,30,,,,2,0,2,0,,,,,,,,,0,0,0,0,0,3,3,3,5,0,5,0,,,,,,,,,,,,,,,,,,,,,,,,,,,,,,,,,,,,,,,,,,,,,,,,,,,,,,,,,,,,,,,,30,,,,,,,,1287.2094736001454,1287.2094736001454,1287.2094736001454,1287.2094736001454,1287.2094736001454,return,0.7768938997760415,0,1,0,0,-2.7755575615628914e-17,-0.16,return,0.694203800521791,0,-8,-2.7755575615628914e-17,-0.16,,,,,,,,,,,,,,,,,,,,,,,,,,,,,,,,,,,,,,,,,,,,,,,,,,,,,,,,A2GA51,train_x,red_square,bottom_right,2025-04-16_16h10.51.931,HideSeek_v1,2022.2.5,60.38275410760011,
,5,2,0,2,-5,0,66,,train_dim1_1,5,30,,,,2,0,2,0,,,,,,,,,0,0,0,0,0,4,4,4,0,0,0,0,,,,,,,,,,,,,,,,,,,,,,,,,stimuli/alien_stimuli/66.png,,,,,,,,,,,,,,,,,,,,,,,,,,,,,stimuli/alien_stimuli/56.png,56,7,6,,,,,,,30,,,,,,,,1308.2807332002558,1308.2807332002558,1308.2807332002558,1308.2807332002558,1308.2807332002558,left,5.293590999674052,0,1,0,99,0.15999999999999998,-0.24,left,5.192906499840319,,,,,1306.7108352999203,1308.2807332002558,0.08,-0.16,0.0,0.32,-0.16,0.08,0.24000000000000002,0.08,-0.16,1289.56588320015,1289.56588320015,1289.56588320015,1289.56588320015,1289.56588320015,1289.56588320015,1289.56588320015,1289.56588320015,1289.5465140003712,17.26638950034976,return,17.11794160027057,,,,,,,,,,,,,,,,,,,,,,,,,,,,,,,,,A2GA51,train_x,red_square,bottom_right,2025-04-16_16h10.51.931,HideSeek_v1,2022.2.5,60.38275410760011,
,5,2,0,2,-5,0,66,,train_dim1_1,5,30,,,,2,0,2,0,,,,,,,,,0,0,0,0,0,4,4,4,1,0,1,0,,,,,,,,,,,,,,,,,,,,,,,,,,,,,,,,,,,,,,,,,,,,,,,,,,,,,,,,,,,,,,,,30,,,,,,,,1313.5653309999034,1313.5653309999034,1313.5653309999034,1313.5653309999034,1313.5653309999034,left,0.6259166998788714,0,1,0,99,0.07999999999999997,-0.24,left,0.5442393999546766,,,,,,,,,,,,,,,,,,,,,,,,,,,,,,,,,,,,,,,,,,,,,,,,,,,,,,,,,,,,A2GA51,train_x,red_square,bottom_right,2025-04-16_16h10.51.931,HideSeek_v1,2022.2.5,60.38275410760011,
,5,2,0,2,-5,0,66,,train_dim1_1,5,30,,,,2,0,2,0,,,,,,,,,0,0,0,0,0,4,4,4,2,0,2,0,,,,,,,,,,,,,,,,,,,,,,,,,,,,,,,,,,,,,,,,,,,,,,,,,,,,,,,,,,,,,,,,30,,,,,,,,1314.1969619002193,1314.1969619002193,1314.1969619002193,1314.1969619002193,1314.1969619002193,left,0.5267223999835551,0,1,0,99,-2.7755575615628914e-17,-0.24,left,0.4478126000612974,,,,,,,,,,,,,,,,,,,,,,,,,,,,,,,,,,,,,,,,,,,,,,,,,,,,,,,,,,,,A2GA51,train_x,red_square,bottom_right,2025-04-16_16h10.51.931,HideSeek_v1,2022.2.5,60.38275410760011,
,5,2,0,2,-5,0,66,,train_dim1_1,5,30,,,,2,0,2,0,,,,,,,,,0,0,0,0,0,4,4,4,3,0,3,0,,,,,,,,,,,,,,,,,,,,,,,,,,,,,,,,,,,,,,,,,,,,,,,,,,,,,,,,,,,,,,,,30,,,,,,,,1314.731316599995,1314.731316599995,1314.731316599995,1314.731316599995,1314.731316599995,left,0.4095820998772979,0,1,0,99,-0.08000000000000003,-0.24,left,0.3282272005453706,,,,,,,,,,,,,,,,,,,,,,,,,,,,,,,,,,,,,,,,,,,,,,,,,,,,,,,,,,,,A2GA51,train_x,red_square,bottom_right,2025-04-16_16h10.51.931,HideSeek_v1,2022.2.5,60.38275410760011,
,5,2,0,2,-5,0,66,,train_dim1_1,5,30,,,,2,0,2,0,,,,,,,,,0,0,0,0,0,4,4,4,4,0,4,0,,,,,,,,,,,,,,,,,,,,,,,,,,,,,,,,,,,,,,,,,,,,,,,,,,,,,,,,,,,,,,,,30,,,,,,,,1315.147629099898,1315.147629099898,1315.147629099898,1315.147629099898,1315.147629099898,return,1.0771694001741707,0,1,0,0,-0.08000000000000003,-0.24,return,1.003814300056547,0,-12,-0.08000000000000003,-0.24,,,,,,,,,,,,,,,,,,,,,,,,,,,,,,,,,,,,,,,,,,,,,,,,,,,,,,,,A2GA51,train_x,red_square,bottom_right,2025-04-16_16h10.51.931,HideSeek_v1,2022.2.5,60.38275410760011,
,5,0,4,0,-1,0,26,,train_dim1_1,6,30,,,,2,0,2,0,,,,,,,,,0,0,0,0,0,5,5,5,0,0,0,0,,,,,,,,,,,,,,,,,,,,,,,,,stimuli/alien_stimuli/26.png,,,,,,,,,,,,,,,,,,,,,,,,,,,,,stimuli/alien_stimuli/66.png,66,5,7,,,,,,,30,,,,,,,,1328.139871600084,1328.139871600084,1328.139871600084,1328.139871600084,1328.139871600084,up,19.73853150010109,0,1,0,99,0.24,-0.32,up,19.64393790019676,,,,,1326.5774372001179,1328.139871600084,-0.16,-0.24,0.0,0.4,-0.24,-0.16,0.039999999999999994,-0.16,-0.24,1317.784935799893,1317.784935799893,1317.784935799893,1317.784935799893,1317.784935799893,1317.784935799893,1317.784935799893,1317.784935799893,1317.769942300208,8.892817200161517,return,8.76922049978748,,,,,,,,,,,,,,,,,,,,,,,,,,,,,,,,,A2GA51,train_x,red_square,bottom_right,2025-04-16_16h10.51.931,HideSeek_v1,2022.2.5,60.38275410760011,
,5,0,4,0,-1,0,26,,train_dim1_1,6,30,,,,2,0,2,0,,,,,,,,,0,0,0,0,0,5,5,5,1,0,1,0,,,,,,,,,,,,,,,,,,,,,,,,,,,,,,,,,,,,,,,,,,,,,,,,,,,,,,,,,,,,,,,,30,,,,,,,,1347.9001092002727,1347.9001092002727,1347.9001092002727,1347.9001092002727,1347.9001092002727,up,1.1263875998556614,0,1,0,99,0.24,-0.24,up,1.0166566004045308,,,,,,,,,,,,,,,,,,,,,,,,,,,,,,,,,,,,,,,,,,,,,,,,,,,,,,,,,,,,A2GA51,train_x,red_square,bottom_right,2025-04-16_16h10.51.931,HideSeek_v1,2022.2.5,60.38275410760011,
,5,0,4,0,-1,0,26,,train_dim1_1,6,30,,,,2,0,2,0,,,,,,,,,0,0,0,0,0,5,5,5,2,0,2,0,,,,,,,,,,,,,,,,,,,,,,,,,,,,,,,,,,,,,,,,,,,,,,,,,,,,,,,,,,,,,,,,30,,,,,,,,1349.0147023000754,1349.0147023000754,1349.0147023000754,1349.0147023000754,1349.0147023000754,up,0.6262970003299415,0,1,0,99,0.24,-0.15999999999999998,up,0.546900199726224,,,,,,,,,,,,,,,,,,,,,,,,,,,,,,,,,,,,,,,,,,,,,,,,,,,,,,,,,,,,A2GA51,train_x,red_square,bottom_right,2025-04-16_16h10.51.931,HideSeek_v1,2022.2.5,60.38275410760011,
,5,0,4,0,-1,0,26,,train_dim1_1,6,30,,,,2,0,2,0,,,,,,,,,0,0,0,0,0,5,5,5,3,0,3,0,,,,,,,,,,,,,,,,,,,,,,,,,,,,,,,,,,,,,,,,,,,,,,,,,,,,,,,,,,,,,,,,30,,,,,,,,1349.6470071999356,1349.6470071999356,1349.6470071999356,1349.6470071999356,1349.6470071999356,return,1.0939143002033234,0,0,0,0,0.24,-0.15999999999999998,return,1.0146729000844061,3,-12,0.24,-0.15999999999999998,,,,,,,,,,,,,,,,,,,,,,,,,,,,,,,,,,,,,,,,,,,,,,,,,,,,,,,,A2GA51,train_x,red_square,bottom_right,2025-04-16_16h10.51.931,HideSeek_v1,2022.2.5,60.38275410760011,
,8,0,3,0,-5,0,66,,train_dim1_1,7,30,,,,2,0,2,0,,,,,,,,,0,0,0,0,0,6,6,6,0,0,0,0,,,,,,,,,,,,,,,,,,,,,,,,,stimuli/alien_stimuli/66.png,,,,,,,,,,,,,,,,,,,,,,,,,,,,,stimuli/alien_stimuli/26.png,26,5,8,,,,,,,30,,,,,,,,1357.2777084000409,1357.2777084000409,1357.2777084000409,1357.2777084000409,1357.2777084000409,left,4.625274700112641,0,0,0,99,0.39999999999999997,-0.4,left,4.5468011000193655,,,,,1355.7182296998799,1357.2777084000409,0.16,-0.4,0.0,0.08,-0.4,0.16,0.2,0.16,-0.4,1352.3209695001133,1352.3209695001133,1352.3209695001133,1352.3209695001133,1352.3209695001133,1352.3209695001133,1352.3209695001133,1352.3209695001133,1352.2986518001185,3.5217536999844015,return,3.380277399905026,,,,,,,,,,,,,,,,,,,,,,,,,,,,,,,,,A2GA51,train_x,red_square,bottom_right,2025-04-16_16h10.51.931,HideSeek_v1,2022.2.5,60.38275410760011,
,8,0,3,0,-5,0,66,,train_dim1_1,7,30,,,,2,0,2,0,,,,,,,,,0,0,0,0,0,6,6,6,1,0,1,0,,,,,,,,,,,,,,,,,,,,,,,,,,,,,,,,,,,,,,,,,,,,,,,,,,,,,,,,,,,,,,,,30,,,,,,,,1361.9045339003205,1361.9045339003205,1361.9045339003205,1361.9045339003205,1361.9045339003205,left,0.5260119000449777,0,0,0,99,0.31999999999999995,-0.4,left,0.439024000428617,,,,,,,,,,,,,,,,,,,,,,,,,,,,,,,,,,,,,,,,,,,,,,,,,,,,,,,,,,,,A2GA51,train_x,red_square,bottom_right,2025-04-16_16h10.51.931,HideSeek_v1,2022.2.5,60.38275410760011,
,8,0,3,0,-5,0,66,,train_dim1_1,7,30,,,,2,0,2,0,,,,,,,,,0,0,0,0,0,6,6,6,2,0,2,0,,,,,,,,,,,,,,,,,,,,,,,,,,,,,,,,,,,,,,,,,,,,,,,,,,,,,,,,,,,,,,,,30,,,,,,,,1362.4371839002706,1362.4371839002706,1362.4371839002706,1362.4371839002706,1362.4371839002706,left,0.5598089001141489,0,0,0,99,0.23999999999999994,-0.4,left,0.47696870006620884,,,,,,,,,,,,,,,,,,,,,,,,,,,,,,,,,,,,,,,,,,,,,,,,,,,,,,,,,,,,A2GA51,train_x,red_square,bottom_right,2025-04-16_16h10.51.931,HideSeek_v1,2022.2.5,60.38275410760011,
,8,0,3,0,-5,0,66,,train_dim1_1,7,30,,,,2,0,2,0,,,,,,,,,0,0,0,0,0,6,6,6,3,0,3,0,,,,,,,,,,,,,,,,,,,,,,,,,,,,,,,,,,,,,,,,,,,,,,,,,,,,,,,,,,,,,,,,30,,,,,,,,1363.0045103998855,1363.0045103998855,1363.0045103998855,1363.0045103998855,1363.0045103998855,left,0.7769723003730178,0,0,0,99,0.15999999999999992,-0.4,left,0.6935004000551999,,,,,,,,,,,,,,,,,,,,,,,,,,,,,,,,,,,,,,,,,,,,,,,,,,,,,,,,,,,,A2GA51,train_x,red_square,bottom_right,2025-04-16_16h10.51.931,HideSeek_v1,2022.2.5,60.38275410760011,
,8,0,3,0,-5,0,66,,train_dim1_1,7,30,,,,2,0,2,0,,,,,,,,,0,0,0,0,0,6,6,6,4,0,4,0,,,,,,,,,,,,,,,,,,,,,,,,,,,,,,,,,,,,,,,,,,,,,,,,,,,,,,,,,,,,,,,,30,,,,,,,,1363.7880048002116,1363.7880048002116,1363.7880048002116,1363.7880048002116,1363.7880048002116,return,0.94353779964149,0,1,0,0,0.15999999999999992,-0.4,return,0.8694090005010366,3,-16,0.15999999999999992,-0.4,,,,,,,,,,,,,,,,,,,,,,,,,,,,,,,,,,,,,,,,,,,,,,,,,,,,,,,,A2GA51,train_x,red_square,bottom_right,2025-04-16_16h10.51.931,HideSeek_v1,2022.2.5,60.38275410760011,
,5,4,2,4,-3,0,46,,train_dim1_1,8,30,,,,2,0,2,0,,,,,,,,,0,0,0,0,0,7,7,7,0,0,0,0,,,,,,,,,,,,,,,,,,,,,,,,,stimuli/alien_stimuli/46.png,,,,,,,,,,,,,,,,,,,,,,,,,,,,,stimuli/alien_stimuli/66.png,66,8,9,,,,,,,30,,,,,,,,1373.4950373000465,1373.4950373000465,1373.4950373000465,1373.4950373000465,1373.4950373000465,down,3.1864207996986806,0,1,0,99,0.24,-0.16,down,3.106702800374478,,,,,1371.9316767002456,1373.4950373000465,0.08,-0.4,0.0,0.4,-0.4,0.08,0.27999999999999997,0.08,-0.4,1366.313192800153,1366.313192800153,1366.313192800153,1366.313192800153,1366.313192800153,1366.313192800153,1366.313192800153,1366.313192800153,1366.2936354001054,5.740358000155538,return,5.5870857001282275,,,,,,,,,,,,,,,,,,,,,,,,,,,,,,,,,A2GA51,train_x,red_square,bottom_right,2025-04-16_16h10.51.931,HideSeek_v1,2022.2.5,60.38275410760011,
,5,4,2,4,-3,0,46,,train_dim1_1,8,30,,,,2,0,2,0,,,,,,,,,0,0,0,0,0,7,7,7,1,0,1,0,,,,,,,,,,,,,,,,,,,,,,,,,,,,,,,,,,,,,,,,,,,,,,,,,,,,,,,,,,,,,,,,30,,,,,,,,1376.6833289000206,1376.6833289000206,1376.6833289000206,1376.6833289000206,1376.6833289000206,down,0.3594462997280061,0,1,0,99,0.24,-0.24,down,0.2869027000851929,,,,,,,,,,,,,,,,,,,,,,,,,,,,,,,,,,,,,,,,,,,,,,,,,,,,,,,,,,,,A2GA51,train_x,red_square,bottom_right,2025-04-16_16h10.51.931,HideSeek_v1,2022.2.5,60.38275410760011,
,5,4,2,4,-3,0,46,,train_dim1_1,8,30,,,,2,0,2,0,,,,,,,,,0,0,0,0,0,7,7,7,2,0,2,0,,,,,,,,,,,,,,,,,,,,,,,,,,,,,,,,,,,,,,,,,,,,,,,,,,,,,,,,,,,,,,,,30,,,,,,,,1377.0496565001085,1377.0496565001085,1377.0496565001085,1377.0496565001085,1377.0496565001085,down,0.3426518999040127,0,1,0,99,0.24,-0.32,down,0.25947170006111264,,,,,,,,,,,,,,,,,,,,,,,,,,,,,,,,,,,,,,,,,,,,,,,,,,,,,,,,,,,,A2GA51,train_x,red_square,bottom_right,2025-04-16_16h10.51.931,HideSeek_v1,2022.2.5,60.38275410760011,
,5,4,2,4,-3,0,46,,train_dim1_1,8,30,,,,2,0,2,0,,,,,,,,,0,0,0,0,0,7,7,7,3,0,3,0,,,,,,,,,,,,,,,,,,,,,,,,,,,,,,,,,,,,,,,,,,,,,,,,,,,,,,,,,,,,,,,,30,,,,,,,,1377.3991237999871,1377.3991237999871,1377.3991237999871,1377.3991237999871,1377.3991237999871,return,1.2276250999420881,0,0,0,0,0.24,-0.32,return,1.1455632001161575,0,-16,0.24,-0.32,,,,,,,,,,,,,,,,,,,,,,,,,,,,,,,,,,,,,,,,,,,,,,,,,,,,,,,,A2GA51,train_x,red_square,bottom_right,2025-04-16_16h10.51.931,HideSeek_v1,2022.2.5,60.38275410760011,
,6,0,2,0,-4,0,56,,train_dim1_1,9,30,,,,2,0,2,0,,,,,,,,,0,0,0,0,0,8,8,8,0,0,0,0,,,,,,,,,,,,,,,,,,,,,,,,,stimuli/alien_stimuli/56.png,,,,,,,,,,,,,,,,,,,,,,,,,,,,,stimuli/alien_stimuli/46.png,46,5,10,,,,,,,30,,,,,,,,1386.6707009002566,1386.6707009002566,1386.6707009002566,1386.6707009002566,1386.6707009002566,left,3.2571086999960244,0,0,0,99,0.24,-0.4,left,3.165383300278336,,,,,1385.1092436001636,1386.6707009002566,0,-0.08,0.0,0.24,-0.08,0,0.12,0,-0.08,1380.2090171002783,1380.2090171002783,1380.2090171002783,1380.2090171002783,1380.2090171002783,1380.2090171002783,1380.2090171002783,1380.2090171002783,1380.1884345003405,5.0234905001707375,return,4.881793100386858,,,,,,,,,,,,,,,,,,,,,,,,,,,,,,,,,A2GA51,train_x,red_square,bottom_right,2025-04-16_16h10.51.931,HideSeek_v1,2022.2.5,60.38275410760011,
,6,0,2,0,-4,0,56,,train_dim1_1,9,30,,,,2,0,2,0,,,,,,,,,0,0,0,0,0,8,8,8,1,0,1,0,,,,,,,,,,,,,,,,,,,,,,,,,,,,,,,,,,,,,,,,,,,,,,,,,,,,,,,,,,,,,,,,30,,,,,,,,1389.9284991002642,1389.9284991002642,1389.9284991002642,1389.9284991002642,1389.9284991002642,left,1.4773130998946726,0,0,0,99,0.15999999999999998,-0.4,left,1.4008994000032544,,,,,,,,,,,,,,,,,,,,,,,,,,,,,,,,,,,,,,,,,,,,,,,,,,,,,,,,,,,,A2GA51,train_x,red_square,bottom_right,2025-04-16_16h10.51.931,HideSeek_v1,2022.2.5,60.38275410760011,
,6,0,2,0,-4,0,56,,train_dim1_1,9,30,,,,2,0,2,0,,,,,,,,,0,0,0,0,0,8,8,8,2,0,2,0,,,,,,,,,,,,,,,,,,,,,,,,,,,,,,,,,,,,,,,,,,,,,,,,,,,,,,,,,,,,,,,,30,,,,,,,,1391.4128073002212,1391.4128073002212,1391.4128073002212,1391.4128073002212,1391.4128073002212,left,0.7768069999292493,0,0,0,99,0.07999999999999997,-0.4,left,0.6869291001930833,,,,,,,,,,,,,,,,,,,,,,,,,,,,,,,,,,,,,,,,,,,,,,,,,,,,,,,,,,,,A2GA51,train_x,red_square,bottom_right,2025-04-16_16h10.51.931,HideSeek_v1,2022.2.5,60.38275410760011,
,6,0,2,0,-4,0,56,,train_dim1_1,9,30,,,,2,0,2,0,,,,,,,,,0,0,0,0,0,8,8,8,3,0,3,0,,,,,,,,,,,,,,,,,,,,,,,,,,,,,,,,,,,,,,,,,,,,,,,,,,,,,,,,,,,,,,,,30,,,,,,,,1392.1971861002967,1392.1971861002967,1392.1971861002967,1392.1971861002967,1392.1971861002967,left,0.9605175997130573,0,0,0,99,-2.7755575615628914e-17,-0.4,left,0.8837702004238963,,,,,,,,,,,,,,,,,,,,,,,,,,,,,,,,,,,,,,,,,,,,,,,,,,,,,,,,,,,,A2GA51,train_x,red_square,bottom_right,2025-04-16_16h10.51.931,HideSeek_v1,2022.2.5,60.38275410760011,
,6,0,2,0,-4,0,56,,train_dim1_1,9,30,,,,2,0,2,0,,,,,,,,,0,0,0,0,0,8,8,8,4,0,4,0,,,,,,,,,,,,,,,,,,,,,,,,,,,,,,,,,,,,,,,,,,,,,,,,,,,,,,,,,,,,,,,,30,,,,,,,,1393.165005300194,1393.165005300194,1393.165005300194,1393.165005300194,1393.165005300194,left,0.7930839997716248,0,0,0,99,-0.08000000000000003,-0.4,left,0.7041782001033425,,,,,,,,,,,,,,,,,,,,,,,,,,,,,,,,,,,,,,,,,,,,,,,,,,,,,,,,,,,,A2GA51,train_x,red_square,bottom_right,2025-04-16_16h10.51.931,HideSeek_v1,2022.2.5,60.38275410760011,
,6,0,2,0,-4,0,56,,train_dim1_1,9,30,,,,2,0,2,0,,,,,,,,,0,0,0,0,0,8,8,8,5,0,5,0,,,,,,,,,,,,,,,,,,,,,,,,,,,,,,,,,,,,,,,,,,,,,,,,,,,,,,,,,,,,,,,,30,,,,,,,,1393.9657356999815,1393.9657356999815,1393.9657356999815,1393.9657356999815,1393.9657356999815,return,0.8768257000483572,0,1,0,0,-0.08000000000000003,-0.4,return,0.7941856998950243,0,-21,-0.08000000000000003,-0.4,,,,,,,,,,,,,,,,,,,,,,,,,,,,,,,,,,,,,,,,,,,,,,,,,,,,,,,,A2GA51,train_x,red_square,bottom_right,2025-04-16_16h10.51.931,HideSeek_v1,2022.2.5,60.38275410760011,
,5,3,5,3,0,0,16,,train_dim1_1,10,30,,,,2,0,2,0,,,,,,,,,0,0,0,0,0,9,9,9,0,0,0,0,,,,,,,,,,,,,,,,,,,,,,,,,stimuli/alien_stimuli/16.png,,,,,,,,,,,,,,,,,,,,,,,,,,,,,stimuli/alien_stimuli/56.png,56,6,11,,,,,,,30,,,,,,,,1401.736396400258,1401.736396400258,1401.736396400258,1401.736396400258,1401.736396400258,left,8.095842199865729,0,1,0,99,0.15999999999999998,-0.16,left,8.004928499925882,,,,,1400.171851800289,1401.736396400258,0,-0.4,0.0,0.32,-0.4,0,0.16,0,-0.4,1396.4258694001473,1396.4258694001473,1396.4258694001473,1396.4258694001473,1396.4258694001473,1396.4258694001473,1396.4258694001473,1396.4258694001473,1396.418878600374,3.871943899895996,return,3.714385500177741,,,,,,,,,,,,,,,,,,,,,,,,,,,,,,,,,A2GA51,train_x,red_square,bottom_right,2025-04-16_16h10.51.931,HideSeek_v1,2022.2.5,60.38275410760011,
,5,3,5,3,0,0,16,,train_dim1_1,10,30,,,,2,0,2,0,,,,,,,,,0,0,0,0,0,9,9,9,1,0,1,0,,,,,,,,,,,,,,,,,,,,,,,,,,,,,,,,,,,,,,,,,,,,,,,,,,,,,,,,,,,,,,,,30,,,,,,,,1409.830938800238,1409.830938800238,1409.830938800238,1409.830938800238,1409.830938800238,left,0.45952549995854497,0,1,0,99,0.07999999999999997,-0.16,left,0.36754220025613904,,,,,,,,,,,,,,,,,,,,,,,,,,,,,,,,,,,,,,,,,,,,,,,,,,,,,,,,,,,,A2GA51,train_x,red_square,bottom_right,2025-04-16_16h10.51.931,HideSeek_v1,2022.2.5,60.38275410760011,
,5,3,5,3,0,0,16,,train_dim1_1,10,30,,,,2,0,2,0,,,,,,,,,0,0,0,0,0,9,9,9,2,0,2,0,,,,,,,,,,,,,,,,,,,,,,,,,,,,,,,,,,,,,,,,,,,,,,,,,,,,,,,,,,,,,,,,30,,,,,,,,1410.2978420001455,1410.2978420001455,1410.2978420001455,1410.2978420001455,1410.2978420001455,left,0.37668070010840893,0,1,0,99,-2.7755575615628914e-17,-0.16,left,0.2926541999913752,,,,,,,,,,,,,,,,,,,,,,,,,,,,,,,,,,,,,,,,,,,,,,,,,,,,,,,,,,,,A2GA51,train_x,red_square,bottom_right,2025-04-16_16h10.51.931,HideSeek_v1,2022.2.5,60.38275410760011,
,5,3,5,3,0,0,16,,train_dim1_1,10,30,,,,2,0,2,0,,,,,,,,,0,0,0,0,0,9,9,9,3,0,3,0,,,,,,,,,,,,,,,,,,,,,,,,,,,,,,,,,,,,,,,,,,,,,,,,,,,,,,,,,,,,,,,,30,,,,,,,,1410.6815865999088,1410.6815865999088,1410.6815865999088,1410.6815865999088,1410.6815865999088,return,1.8945655999705195,0,0,0,0,-2.7755575615628914e-17,-0.16,return,1.8082893998362124,0,-24,-2.7755575615628914e-17,-0.16,,,,,,,,,,,,,,,,,,,,,,,,,,,,,,,,,,,,,,,,,,,,,,,,,,,,,,,,A2GA51,train_x,red_square,bottom_right,2025-04-16_16h10.51.931,HideSeek_v1,2022.2.5,60.38275410760011,
,7,2,4,2,-3,0,46,,train_dim1_1,11,30,,,,2,0,2,0,,,,,,,,,0,0,0,0,0,10,10,10,0,0,0,0,,,,,,,,,,,,,,,,,,,,,,,,,stimuli/alien_stimuli/46.png,,,,,,,,,,,,,,,,,,,,,,,,,,,,,stimuli/alien_stimuli/16.png,16,5,12,,,,,,,30,,,,,,,,1419.5455318000168,1419.5455318000168,1419.5455318000168,1419.5455318000168,1419.5455318000168,left,5.993540400173515,0,0,0,99,0.32,-0.24,left,5.902841800358146,,,,,1417.9867441998795,1419.5455318000168,0.24,-0.16,0.0,0.0,-0.16,0.24,0.24,0.24,-0.16,1414.1609998000786,1414.1609998000786,1414.1609998000786,1414.1609998000786,1414.1609998000786,1414.1609998000786,1414.1609998000786,1414.1609998000786,1414.15007340014,3.955424400046468,return,3.8048052000813186,,,,,,,,,,,,,,,,,,,,,,,,,,,,,,,,,A2GA51,train_x,red_square,bottom_right,2025-04-16_16h10.51.931,HideSeek_v1,2022.2.5,60.38275410760011,
,7,2,4,2,-3,0,46,,train_dim1_1,11,30,,,,2,0,2,0,,,,,,,,,0,0,0,0,0,10,10,10,1,0,1,0,,,,,,,,,,,,,,,,,,,,,,,,,,,,,,,,,,,,,,,,,,,,,,,,,,,,,,,,,,,,,,,,30,,,,,,,,1425.5396123998798,1425.5396123998798,1425.5396123998798,1425.5396123998798,1425.5396123998798,left,0.5265978998504579,0,0,0,99,0.24,-0.24,left,0.4512742003425956,,,,,,,,,,,,,,,,,,,,,,,,,,,,,,,,,,,,,,,,,,,,,,,,,,,,,,,,,,,,A2GA51,train_x,red_square,bottom_right,2025-04-16_16h10.51.931,HideSeek_v1,2022.2.5,60.38275410760011,
,7,2,4,2,-3,0,46,,train_dim1_1,11,30,,,,2,0,2,0,,,,,,,,,0,0,0,0,0,10,10,10,2,0,2,0,,,,,,,,,,,,,,,,,,,,,,,,,,,,,,,,,,,,,,,,,,,,,,,,,,,,,,,,,,,,,,,,30,,,,,,,,1426.072742300108,1426.072742300108,1426.072742300108,1426.072742300108,1426.072742300108,left,0.4599996996112168,0,0,0,99,0.15999999999999998,-0.24,left,0.3727131001651287,,,,,,,,,,,,,,,,,,,,,,,,,,,,,,,,,,,,,,,,,,,,,,,,,,,,,,,,,,,,A2GA51,train_x,red_square,bottom_right,2025-04-16_16h10.51.931,HideSeek_v1,2022.2.5,60.38275410760011,
,7,2,4,2,-3,0,46,,train_dim1_1,11,30,,,,2,0,2,0,,,,,,,,,0,0,0,0,0,10,10,10,3,0,3,0,,,,,,,,,,,,,,,,,,,,,,,,,,,,,,,,,,,,,,,,,,,,,,,,,,,,,,,,,,,,,,,,30,,,,,,,,1426.5403971001506,1426.5403971001506,1426.5403971001506,1426.5403971001506,1426.5403971001506,left,0.8105488996952772,0,0,0,99,0.07999999999999997,-0.24,left,0.7341957003809512,,,,,,,,,,,,,,,,,,,,,,,,,,,,,,,,,,,,,,,,,,,,,,,,,,,,,,,,,,,,A2GA51,train_x,red_square,bottom_right,2025-04-16_16h10.51.931,HideSeek_v1,2022.2.5,60.38275410760011,
,7,2,4,2,-3,0,46,,train_dim1_1,11,30,,,,2,0,2,0,,,,,,,,,0,0,0,0,0,10,10,10,4,0,4,0,,,,,,,,,,,,,,,,,,,,,,,,,,,,,,,,,,,,,,,,,,,,,,,,,,,,,,,,,,,,,,,,30,,,,,,,,1427.3583740000613,1427.3583740000613,1427.3583740000613,1427.3583740000613,1427.3583740000613,return,0.7934775999747217,0,1,0,0,0.07999999999999997,-0.24,return,0.7046007001772523,0,-28,0.07999999999999997,-0.24,,,,,,,,,,,,,,,,,,,,,,,,,,,,,,,,,,,,,,,,,,,,,,,,,,,,,,,,A2GA51,train_x,red_square,bottom_right,2025-04-16_16h10.51.931,HideSeek_v1,2022.2.5,60.38275410760011,
,5,0,4,0,-1,0,26,,train_dim1_1,12,30,,,,2,0,2,0,,,,,,,,,0,0,0,0,0,11,11,11,0,0,0,0,,,,,,,,,,,,,,,,,,,,,,,,,stimuli/alien_stimuli/26.png,,,,,,,,,,,,,,,,,,,,,,,,,,,,,stimuli/alien_stimuli/46.png,46,7,13,,,,,,,30,,,,,,,,1433.6465301001444,1433.6465301001444,1433.6465301001444,1433.6465301001444,1433.6465301001444,left,2.9585060998797417,0,1,0,99,0.15999999999999998,-0.4,left,2.8439817000180483,,,,,1432.0648953001946,1433.6465301001444,0.16,-0.24,0.0,0.24,-0.24,0.16,0.28,0.16,-0.24,1429.7335391002707,1429.7335391002707,1429.7335391002707,1429.7335391002707,1429.7335391002707,1429.7335391002707,1429.7335391002707,1429.7335391002707,1429.7130301004277,2.454448599833995,return,2.3140089004300535,,,,,,,,,,,,,,,,,,,,,,,,,,,,,,,,,A2GA51,train_x,red_square,bottom_right,2025-04-16_16h10.51.931,HideSeek_v1,2022.2.5,60.38275410760011,
,5,0,4,0,-1,0,26,,train_dim1_1,12,30,,,,2,0,2,0,,,,,,,,,0,0,0,0,0,11,11,11,1,0,1,0,,,,,,,,,,,,,,,,,,,,,,,,,,,,,,,,,,,,,,,,,,,,,,,,,,,,,,,,,,,,,,,,30,,,,,,,,1436.5900464002043,1436.5900464002043,1436.5900464002043,1436.5900464002043,1436.5900464002043,left,0.4262259998358786,0,1,0,99,0.07999999999999997,-0.4,left,0.3457162999548018,,,,,,,,,,,,,,,,,,,,,,,,,,,,,,,,,,,,,,,,,,,,,,,,,,,,,,,,,,,,A2GA51,train_x,red_square,bottom_right,2025-04-16_16h10.51.931,HideSeek_v1,2022.2.5,60.38275410760011,
,5,0,4,0,-1,0,26,,train_dim1_1,12,30,,,,2,0,2,0,,,,,,,,,0,0,0,0,0,11,11,11,2,0,2,0,,,,,,,,,,,,,,,,,,,,,,,,,,,,,,,,,,,,,,,,,,,,,,,,,,,,,,,,,,,,,,,,30,,,,,,,,1437.0189294000156,1437.0189294000156,1437.0189294000156,1437.0189294000156,1437.0189294000156,left,0.3432331997901201,0,1,0,99,-2.7755575615628914e-17,-0.4,left,0.26610720017924905,,,,,,,,,,,,,,,,,,,,,,,,,,,,,,,,,,,,,,,,,,,,,,,,,,,,,,,,,,,,A2GA51,train_x,red_square,bottom_right,2025-04-16_16h10.51.931,HideSeek_v1,2022.2.5,60.38275410760011,
,5,0,4,0,-1,0,26,,train_dim1_1,12,30,,,,2,0,2,0,,,,,,,,,0,0,0,0,0,11,11,11,3,0,3,0,,,,,,,,,,,,,,,,,,,,,,,,,,,,,,,,,,,,,,,,,,,,,,,,,,,,,,,,,,,,,,,,30,,,,,,,,1437.3695022002794,1437.3695022002794,1437.3695022002794,1437.3695022002794,1437.3695022002794,return,0.7936724000610411,0,0,0,0,-2.7755575615628914e-17,-0.4,return,0.7098107002675533,0,-31,-2.7755575615628914e-17,-0.4,,,,,,,,,,,,,,,,,,,,,,,,,,,,,,,,,,,,,,,,,,,,,,,,,,,,,,,,A2GA51,train_x,red_square,bottom_right,2025-04-16_16h10.51.931,HideSeek_v1,2022.2.5,60.38275410760011,
,5,4,1,4,-4,0,56,,train_dim1_1,13,30,,,,2,0,2,0,,,,,,,,,0,0,0,0,0,12,12,12,0,0,0,0,,,,,,,,,,,,,,,,,,,,,,,,,stimuli/alien_stimuli/56.png,,,,,,,,,,,,,,,,,,,,,,,,,,,,,stimuli/alien_stimuli/26.png,26,5,14,,,,,,,30,,,,,,,,1443.8629188002087,1443.8629188002087,1443.8629188002087,1443.8629188002087,1443.8629188002087,left,5.181942100171,0,0,0,99,0.15999999999999998,-0.08,left,5.094353400170803,,,,,1442.2900000000373,1443.8629188002087,0.16,-0.4,0.0,0.08,-0.4,0.16,0.2,0.16,-0.4,1439.730591200292,1439.730591200292,1439.730591200292,1439.730591200292,1439.730591200292,1439.730591200292,1439.730591200292,1439.730591200292,1439.7213585000486,2.6709617003798485,return,2.542557400185615,,,,,,,,,,,,,,,,,,,,,,,,,,,,,,,,,A2GA51,train_x,red_square,bottom_right,2025-04-16_16h10.51.931,HideSeek_v1,2022.2.5,60.38275410760011,
,5,4,1,4,-4,0,56,,train_dim1_1,13,30,,,,2,0,2,0,,,,,,,,,0,0,0,0,0,12,12,12,1,0,1,0,,,,,,,,,,,,,,,,,,,,,,,,,,,,,,,,,,,,,,,,,,,,,,,,,,,,,,,,,,,,,,,,30,,,,,,,,1449.0450200000778,1449.0450200000778,1449.0450200000778,1449.0450200000778,1449.0450200000778,left,0.4596204999834299,0,0,0,99,0.07999999999999997,-0.08,left,0.3726153001189232,,,,,,,,,,,,,,,,,,,,,,,,,,,,,,,,,,,,,,,,,,,,,,,,,,,,,,,,,,,,A2GA51,train_x,red_square,bottom_right,2025-04-16_16h10.51.931,HideSeek_v1,2022.2.5,60.38275410760011,
,5,4,1,4,-4,0,56,,train_dim1_1,13,30,,,,2,0,2,0,,,,,,,,,0,0,0,0,0,12,12,12,2,0,2,0,,,,,,,,,,,,,,,,,,,,,,,,,,,,,,,,,,,,,,,,,,,,,,,,,,,,,,,,,,,,,,,,30,,,,,,,,1449.5113115999848,1449.5113115999848,1449.5113115999848,1449.5113115999848,1449.5113115999848,left,0.44331440003588796,0,0,0,99,-2.7755575615628914e-17,-0.08,left,0.3539694999344647,,,,,,,,,,,,,,,,,,,,,,,,,,,,,,,,,,,,,,,,,,,,,,,,,,,,,,,,,,,,A2GA51,train_x,red_square,bottom_right,2025-04-16_16h10.51.931,HideSeek_v1,2022.2.5,60.38275410760011,
,5,4,1,4,-4,0,56,,train_dim1_1,13,30,,,,2,0,2,0,,,,,,,,,0,0,0,0,0,12,12,12,3,0,3,0,,,,,,,,,,,,,,,,,,,,,,,,,,,,,,,,,,,,,,,,,,,,,,,,,,,,,,,,,,,,,,,,30,,,,,,,,1449.9616331001744,1449.9616331001744,1449.9616331001744,1449.9616331001744,1449.9616331001744,left,0.2932353997603059,0,0,0,99,-0.08000000000000003,-0.08,left,0.21475239982828498,,,,,,,,,,,,,,,,,,,,,,,,,,,,,,,,,,,,,,,,,,,,,,,,,,,,,,,,,,,,A2GA51,train_x,red_square,bottom_right,2025-04-16_16h10.51.931,HideSeek_v1,2022.2.5,60.38275410760011,
,5,4,1,4,-4,0,56,,train_dim1_1,13,30,,,,2,0,2,0,,,,,,,,,0,0,0,0,0,12,12,12,4,0,4,0,,,,,,,,,,,,,,,,,,,,,,,,,,,,,,,,,,,,,,,,,,,,,,,,,,,,,,,,,,,,,,,,30,,,,,,,,1450.2624333002605,1450.2624333002605,1450.2624333002605,1450.2624333002605,1450.2624333002605,return,0.7769969003275037,1,0,0,1,-0.08000000000000003,-0.08,return,0.6883634002879262,0,-35,-0.08000000000000003,-0.08,,,,,,,,,,,,,,,,,,,,,,,,,,,,,,,,,,,,,,,,,,,,,,,,,,,,,,,,A2GA51,train_x,red_square,bottom_right,2025-04-16_16h10.51.931,HideSeek_v1,2022.2.5,60.38275410760011,
,9,3,9,3,0,0,16,,train_dim1_1,14,30,,,,2,0,2,0,,,,,,,,,0,0,0,0,0,13,13,13,0,0,0,0,,,,,,,,,,,,,,,,,,,,,,,,,stimuli/alien_stimuli/16.png,,,,,,,,,,,,,,,,,,,,,,,,,,,,,stimuli/alien_stimuli/56.png,56,5,15,,,,,,,30,,,,,,,,1457.9846653002314,1457.9846653002314,1457.9846653002314,1457.9846653002314,1457.9846653002314,return,8.458985699806362,2,0,0,1,0.56,-0.16,return,8.374332600273192,0,-35,0.56,-0.16,1456.4186356002465,1457.9846653002314,-0.08,-0.08,0.0,0.32,-0.08,-0.08,0.07999999999999999,-0.08,-0.08,1452.6222377000377,1452.6222377000377,1452.6222377000377,1452.6222377000377,1452.6222377000377,1452.6222377000377,1452.6222377000377,1452.6222377000377,1452.6153489001097,3.922517799772322,return,3.775486399885267,,,,,,,,,,,,,,,,,,,,,,,,,,,,,,,,,A2GA51,train_x,red_square,bottom_right,2025-04-16_16h10.51.931,HideSeek_v1,2022.2.5,60.38275410760011,
,9,2,4,2,-5,0,66,,train_dim1_1,15,30,,,,2,0,2,0,,,,,,,,,0,0,0,0,0,14,14,14,0,0,0,0,,,,,,,,,,,,,,,,,,,,,,,,,stimuli/alien_stimuli/66.png,,,,,,,,,,,,,,,,,,,,,,,,,,,,,stimuli/alien_stimuli/16.png,16,9,16,,,,,,,30,,,,,,,,1475.22586710006,1475.22586710006,1475.22586710006,1475.22586710006,1475.22586710006,left,1.822339499834925,2,0,0,99,0.48000000000000004,-0.24,left,1.732722599990666,,,,,1473.6661450001411,1475.22586710006,0.56,-0.16,0.0,0.0,-0.16,0.56,0.56,0.56,-0.16,1468.0053075002506,1468.0053075002506,1468.0053075002506,1468.0053075002506,1468.0053075002506,1468.0053075002506,1468.0053075002506,1468.0053075002506,1467.9948412003928,5.773460499942303,return,5.635560799855739,,,,,,,,,,,,,,,,,,,,,,,,,,,,,,,,,A2GA51,train_x,red_square,bottom_right,2025-04-16_16h10.51.931,HideSeek_v1,2022.2.5,60.38275410760011,
,9,2,4,2,-5,0,66,,train_dim1_1,15,30,,,,2,0,2,0,,,,,,,,,0,0,0,0,0,14,14,14,1,0,1,0,,,,,,,,,,,,,,,,,,,,,,,,,,,,,,,,,,,,,,,,,,,,,,,,,,,,,,,,,,,,,,,,30,,,,,,,,1477.0492354002781,1477.0492354002781,1477.0492354002781,1477.0492354002781,1477.0492354002781,left,0.5428942004218698,2,0,0,99,0.4,-0.24,left,0.46752439998090267,,,,,,,,,,,,,,,,,,,,,,,,,,,,,,,,,,,,,,,,,,,,,,,,,,,,,,,,,,,,A2GA51,train_x,red_square,bottom_right,2025-04-16_16h10.51.931,HideSeek_v1,2022.2.5,60.38275410760011,
,9,2,4,2,-5,0,66,,train_dim1_1,15,30,,,,2,0,2,0,,,,,,,,,0,0,0,0,0,14,14,14,2,0,2,0,,,,,,,,,,,,,,,,,,,,,,,,,,,,,,,,,,,,,,,,,,,,,,,,,,,,,,,,,,,,,,,,30,,,,,,,,1477.599359600339,1477.599359600339,1477.599359600339,1477.599359600339,1477.599359600339,left,0.4764243997633457,2,0,0,99,0.32,-0.24,left,0.3915593000128865,,,,,,,,,,,,,,,,,,,,,,,,,,,,,,,,,,,,,,,,,,,,,,,,,,,,,,,,,,,,A2GA51,train_x,red_square,bottom_right,2025-04-16_16h10.51.931,HideSeek_v1,2022.2.5,60.38275410760011,
,9,2,4,2,-5,0,66,,train_dim1_1,15,30,,,,2,0,2,0,,,,,,,,,0,0,0,0,0,14,14,14,3,0,3,0,,,,,,,,,,,,,,,,,,,,,,,,,,,,,,,,,,,,,,,,,,,,,,,,,,,,,,,,,,,,,,,,30,,,,,,,,1478.083734600339,1478.083734600339,1478.083734600339,1478.083734600339,1478.083734600339,left,2.1944530000910163,2,0,0,99,0.24,-0.24,left,2.1200275998562574,,,,,,,,,,,,,,,,,,,,,,,,,,,,,,,,,,,,,,,,,,,,,,,,,,,,,,,,,,,,A2GA51,train_x,red_square,bottom_right,2025-04-16_16h10.51.931,HideSeek_v1,2022.2.5,60.38275410760011,
,9,2,4,2,-5,0,66,,train_dim1_1,15,30,,,,2,0,2,0,,,,,,,,,0,0,0,0,0,14,14,14,4,0,4,0,,,,,,,,,,,,,,,,,,,,,,,,,,,,,,,,,,,,,,,,,,,,,,,,,,,,,,,,,,,,,,,,30,,,,,,,,1480.2847315003164,1480.2847315003164,1480.2847315003164,1480.2847315003164,1480.2847315003164,return,1.144077599979937,2,1,0,0,0.24,-0.24,return,1.06150639988482,0,-39,0.24,-0.24,,,,,,,,,,,,,,,,,,,,,,,,,,,,,,,,,,,,,,,,,,,,,,,,,,,,,,,,A2GA51,train_x,red_square,bottom_right,2025-04-16_16h10.51.931,HideSeek_v1,2022.2.5,60.38275410760011,
,8,3,4,3,-4,0,56,,train_dim1_1,16,30,,,,2,0,2,0,,,,,,,,,0,0,0,0,0,15,15,15,0,0,0,0,,,,,,,,,,,,,,,,,,,,,,,,,stimuli/alien_stimuli/56.png,,,,,,,,,,,,,,,,,,,,,,,,,,,,,stimuli/alien_stimuli/66.png,66,9,17,,,,,,,30,,,,,,,,1486.691721800249,1486.691721800249,1486.691721800249,1486.691721800249,1486.691721800249,left,6.5072800000198185,2,1,0,99,0.39999999999999997,-0.16,left,6.4009575000964105,,,,,1485.1090998998843,1486.691721800249,0.16,-0.24,0.0,0.4,-0.24,0.16,0.36000000000000004,0.16,-0.24,1483.0117978001945,1483.0117978001945,1483.0117978001945,1483.0117978001945,1483.0117978001945,1483.0117978001945,1483.0117978001945,1483.0117978001945,1482.990599700343,2.220540000125766,return,2.076420500408858,,,,,,,,,,,,,,,,,,,,,,,,,,,,,,,,,A2GA51,train_x,red_square,bottom_right,2025-04-16_16h10.51.931,HideSeek_v1,2022.2.5,60.38275410760011,
,8,3,4,3,-4,0,56,,train_dim1_1,16,30,,,,2,0,2,0,,,,,,,,,0,0,0,0,0,15,15,15,1,0,1,0,,,,,,,,,,,,,,,,,,,,,,,,,,,,,,,,,,,,,,,,,,,,,,,,,,,,,,,,,,,,,,,,30,,,,,,,,1493.1823208001442,1493.1823208001442,1493.1823208001442,1493.1823208001442,1493.1823208001442,left,0.4429112998768687,2,1,0,99,0.31999999999999995,-0.16,left,0.3523748000152409,,,,,,,,,,,,,,,,,,,,,,,,,,,,,,,,,,,,,,,,,,,,,,,,,,,,,,,,,,,,A2GA51,train_x,red_square,bottom_right,2025-04-16_16h10.51.931,HideSeek_v1,2022.2.5,60.38275410760011,
,8,3,4,3,-4,0,56,,train_dim1_1,16,30,,,,2,0,2,0,,,,,,,,,0,0,0,0,0,15,15,15,2,0,2,0,,,,,,,,,,,,,,,,,,,,,,,,,,,,,,,,,,,,,,,,,,,,,,,,,,,,,,,,,,,,,,,,30,,,,,,,,1493.631424299907,1493.631424299907,1493.631424299907,1493.631424299907,1493.631424299907,left,1.0104849999770522,2,1,0,99,0.23999999999999994,-0.16,left,0.9275647001340985,,,,,,,,,,,,,,,,,,,,,,,,,,,,,,,,,,,,,,,,,,,,,,,,,,,,,,,,,,,,A2GA51,train_x,red_square,bottom_right,2025-04-16_16h10.51.931,HideSeek_v1,2022.2.5,60.38275410760011,
,8,3,4,3,-4,0,56,,train_dim1_1,16,30,,,,2,0,2,0,,,,,,,,,0,0,0,0,0,15,15,15,3,0,3,0,,,,,,,,,,,,,,,,,,,,,,,,,,,,,,,,,,,,,,,,,,,,,,,,,,,,,,,,,,,,,,,,30,,,,,,,,1494.6490424000658,1494.6490424000658,1494.6490424000658,1494.6490424000658,1494.6490424000658,left,1.4941349001601338,2,1,0,99,0.15999999999999992,-0.16,left,1.4172931001521647,,,,,,,,,,,,,,,,,,,,,,,,,,,,,,,,,,,,,,,,,,,,,,,,,,,,,,,,,,,,A2GA51,train_x,red_square,bottom_right,2025-04-16_16h10.51.931,HideSeek_v1,2022.2.5,60.38275410760011,
,8,3,4,3,-4,0,56,,train_dim1_1,16,30,,,,2,0,2,0,,,,,,,,,0,0,0,0,0,15,15,15,4,0,4,0,,,,,,,,,,,,,,,,,,,,,,,,,,,,,,,,,,,,,,,,,,,,,,,,,,,,,,,,,,,,,,,,30,,,,,,,,1496.150086000096,1496.150086000096,1496.150086000096,1496.150086000096,1496.150086000096,return,0.4098876998759806,3,0,0,1,0.15999999999999992,-0.16,return,0.3281433004885912,0,-43,0.15999999999999992,-0.16,,,,,,,,,,,,,,,,,,,,,,,,,,,,,,,,,,,,,,,,,,,,,,,,,,,,,,,,A2GA51,train_x,red_square,bottom_right,2025-04-16_16h10.51.931,HideSeek_v1,2022.2.5,60.38275410760011,
,7,4,6,4,-1,0,26,,train_dim1_1,17,30,,,,2,0,2,0,,,,,,,,,0,0,0,0,0,16,16,16,0,0,0,0,,,,,,,,,,,,,,,,,,,,,,,,,stimuli/alien_stimuli/26.png,,,,,,,,,,,,,,,,,,,,,,,,,,,,,stimuli/alien_stimuli/56.png,56,8,18,,,,,,,30,,,,,,,,1503.7372910999693,1503.7372910999693,1503.7372910999693,1503.7372910999693,1503.7372910999693,left,1.9558088998310268,3,0,0,99,0.32,-0.08,left,1.8605535998940468,,,,,1502.1732785999775,1503.7372910999693,0.16,-0.16,0.0,0.32,-0.16,0.16,0.32,0.16,-0.16,1498.138549100142,1498.138549100142,1498.138549100142,1498.138549100142,1498.138549100142,1498.138549100142,1498.138549100142,1498.138549100142,1498.1197308000178,4.155992299783975,return,4.009331699926406,,,,,,,,,,,,,,,,,,,,,,,,,,,,,,,,,A2GA51,train_x,red_square,bottom_right,2025-04-16_16h10.51.931,HideSeek_v1,2022.2.5,60.38275410760011,
,7,4,6,4,-1,0,26,,train_dim1_1,17,30,,,,2,0,2,0,,,,,,,,,0,0,0,0,0,16,16,16,1,0,1,0,,,,,,,,,,,,,,,,,,,,,,,,,,,,,,,,,,,,,,,,,,,,,,,,,,,,,,,,,,,,,,,,30,,,,,,,,1505.6940994001925,1505.6940994001925,1505.6940994001925,1505.6940994001925,1505.6940994001925,return,0.5596484998241067,4,0,0,1,0.32,-0.08,return,0.4727735002525151,0,-44,0.32,-0.08,,,,,,,,,,,,,,,,,,,,,,,,,,,,,,,,,,,,,,,,,,,,,,,,,,,,,,,,A2GA51,train_x,red_square,bottom_right,2025-04-16_16h10.51.931,HideSeek_v1,2022.2.5,60.38275410760011,
,7,1,2,1,-5,0,66,,train_dim1_1,18,30,,,,2,0,2,0,,,,,,,,,0,0,0,0,0,17,17,17,0,0,0,0,,,,,,,,,,,,,,,,,,,,,,,,,stimuli/alien_stimuli/66.png,,,,,,,,,,,,,,,,,,,,,,,,,,,,,stimuli/alien_stimuli/26.png,26,7,19,,,,,,,30,,,,,,,,1511.3753749001771,1511.3753749001771,1511.3753749001771,1511.3753749001771,1511.3753749001771,left,1.6882818997837603,4,0,0,99,0.32,-0.32,left,1.5974861001595855,,,,,1509.8130030999891,1511.3753749001771,0.32,-0.08,0.0,0.08,-0.08,0.32,0.36,0.32,-0.08,1507.8396368999965,1507.8396368999965,1507.8396368999965,1507.8396368999965,1507.8396368999965,1507.8396368999965,1507.8396368999965,1507.8396368999965,1507.8280006003567,2.1048526000231504,return,1.95192060014233,,,,,,,,,,,,,,,,,,,,,,,,,,,,,,,,,A2GA51,train_x,red_square,bottom_right,2025-04-16_16h10.51.931,HideSeek_v1,2022.2.5,60.38275410760011,
,7,1,2,1,-5,0,66,,train_dim1_1,18,30,,,,2,0,2,0,,,,,,,,,0,0,0,0,0,17,17,17,1,0,1,0,,,,,,,,,,,,,,,,,,,,,,,,,,,,,,,,,,,,,,,,,,,,,,,,,,,,,,,,,,,,,,,,30,,,,,,,,1513.0622523003258,1513.0622523003258,1513.0622523003258,1513.0622523003258,1513.0622523003258,left,1.41040759999305,4,0,0,99,0.24,-0.32,left,1.331726800184697,,,,,,,,,,,,,,,,,,,,,,,,,,,,,,,,,,,,,,,,,,,,,,,,,,,,,,,,,,,,A2GA51,train_x,red_square,bottom_right,2025-04-16_16h10.51.931,HideSeek_v1,2022.2.5,60.38275410760011,
,7,1,2,1,-5,0,66,,train_dim1_1,18,30,,,,2,0,2,0,,,,,,,,,0,0,0,0,0,17,17,17,2,0,2,0,,,,,,,,,,,,,,,,,,,,,,,,,,,,,,,,,,,,,,,,,,,,,,,,,,,,,,,,,,,,,,,,30,,,,,,,,1514.4802979999222,1514.4802979999222,1514.4802979999222,1514.4802979999222,1514.4802979999222,left,0.4100699000991881,4,0,0,99,0.15999999999999998,-0.32,left,0.3322739005088806,,,,,,,,,,,,,,,,,,,,,,,,,,,,,,,,,,,,,,,,,,,,,,,,,,,,,,,,,,,,A2GA51,train_x,red_square,bottom_right,2025-04-16_16h10.51.931,HideSeek_v1,2022.2.5,60.38275410760011,
,7,1,2,1,-5,0,66,,train_dim1_1,18,30,,,,2,0,2,0,,,,,,,,,0,0,0,0,0,17,17,17,3,0,3,0,,,,,,,,,,,,,,,,,,,,,,,,,,,,,,,,,,,,,,,,,,,,,,,,,,,,,,,,,,,,,,,,30,,,,,,,,1514.8973751002923,1514.8973751002923,1514.8973751002923,1514.8973751002923,1514.8973751002923,left,0.576800599694252,4,0,0,99,0.07999999999999997,-0.32,left,0.49095220025628805,,,,,,,,,,,,,,,,,,,,,,,,,,,,,,,,,,,,,,,,,,,,,,,,,,,,,,,,,,,,A2GA51,train_x,red_square,bottom_right,2025-04-16_16h10.51.931,HideSeek_v1,2022.2.5,60.38275410760011,
,7,1,2,1,-5,0,66,,train_dim1_1,18,30,,,,2,0,2,0,,,,,,,,,0,0,0,0,0,17,17,17,4,0,4,0,,,,,,,,,,,,,,,,,,,,,,,,,,,,,,,,,,,,,,,,,,,,,,,,,,,,,,,,,,,,,,,,30,,,,,,,,1515.4807238001376,1515.4807238001376,1515.4807238001376,1515.4807238001376,1515.4807238001376,left,0.4264409998431802,4,0,0,99,-2.7755575615628914e-17,-0.32,left,0.3495470001362264,,,,,,,,,,,,,,,,,,,,,,,,,,,,,,,,,,,,,,,,,,,,,,,,,,,,,,,,,,,,A2GA51,train_x,red_square,bottom_right,2025-04-16_16h10.51.931,HideSeek_v1,2022.2.5,60.38275410760011,
,7,1,2,1,-5,0,66,,train_dim1_1,18,30,,,,2,0,2,0,,,,,,,,,0,0,0,0,0,17,17,17,5,0,5,0,,,,,,,,,,,,,,,,,,,,,,,,,,,,,,,,,,,,,,,,,,,,,,,,,,,,,,,,,,,,,,,,30,,,,,,,,1515.9148369003087,1515.9148369003087,1515.9148369003087,1515.9148369003087,1515.9148369003087,return,0.526764300186187,5,0,0,1,-2.7755575615628914e-17,-0.32,return,0.4391340003348887,0,-49,-2.7755575615628914e-17,-0.32,,,,,,,,,,,,,,,,,,,,,,,,,,,,,,,,,,,,,,,,,,,,,,,,,,,,,,,,A2GA51,train_x,red_square,bottom_right,2025-04-16_16h10.51.931,HideSeek_v1,2022.2.5,60.38275410760011,
,5,3,2,3,-3,0,46,,train_dim1_1,19,30,,,,2,0,2,0,,,,,,,,,0,0,0,0,0,18,18,18,0,0,0,0,,,,,,,,,,,,,,,,,,,,,,,,,stimuli/alien_stimuli/46.png,,,,,,,,,,,,,,,,,,,,,,,,,,,,,stimuli/alien_stimuli/66.png,66,7,20,,,,,,,30,,,,,,,,1520.8586075999774,1520.8586075999774,1520.8586075999774,1520.8586075999774,1520.8586075999774,left,2.8575607002712786,5,0,0,99,0.15999999999999998,-0.16,left,2.7574155000038445,,,,,1519.2875802000053,1520.8586075999774,0,-0.32,0.0,0.4,-0.32,0,0.2,0,-0.32,1518.0043520000763,1518.0043520000763,1518.0043520000763,1518.0043520000763,1518.0043520000763,1518.0043520000763,1518.0043520000763,1518.0043520000763,1517.9864537001588,1.3863600003533065,return,1.2526254002004862,,,,,,,,,,,,,,,,,,,,,,,,,,,,,,,,,A2GA51,train_x,red_square,bottom_right,2025-04-16_16h10.51.931,HideSeek_v1,2022.2.5,60.38275410760011,
,5,3,2,3,-3,0,46,,train_dim1_1,19,30,,,,2,0,2,0,,,,,,,,,0,0,0,0,0,18,18,18,1,0,1,0,,,,,,,,,,,,,,,,,,,,,,,,,,,,,,,,,,,,,,,,,,,,,,,,,,,,,,,,,,,,,,,,30,,,,,,,,1523.7068771002814,1523.7068771002814,1523.7068771002814,1523.7068771002814,1523.7068771002814,left,0.45963740022853017,5,0,0,99,0.07999999999999997,-0.16,left,0.37485470017418265,,,,,,,,,,,,,,,,,,,,,,,,,,,,,,,,,,,,,,,,,,,,,,,,,,,,,,,,,,,,A2GA51,train_x,red_square,bottom_right,2025-04-16_16h10.51.931,HideSeek_v1,2022.2.5,60.38275410760011,
,5,3,2,3,-3,0,46,,train_dim1_1,19,30,,,,2,0,2,0,,,,,,,,,0,0,0,0,0,18,18,18,2,0,2,0,,,,,,,,,,,,,,,,,,,,,,,,,,,,,,,,,,,,,,,,,,,,,,,,,,,,,,,,,,,,,,,,30,,,,,,,,1524.1717166001908,1524.1717166001908,1524.1717166001908,1524.1717166001908,1524.1717166001908,left,0.3601151001639664,5,0,0,99,-2.7755575615628914e-17,-0.16,left,0.2814079998061061,,,,,,,,,,,,,,,,,,,,,,,,,,,,,,,,,,,,,,,,,,,,,,,,,,,,,,,,,,,,A2GA51,train_x,red_square,bottom_right,2025-04-16_16h10.51.931,HideSeek_v1,2022.2.5,60.38275410760011,
,5,3,2,3,-3,0,46,,train_dim1_1,19,30,,,,2,0,2,0,,,,,,,,,0,0,0,0,0,18,18,18,3,0,3,0,,,,,,,,,,,,,,,,,,,,,,,,,,,,,,,,,,,,,,,,,,,,,,,,,,,,,,,,,,,,,,,,30,,,,,,,,1524.5379910003394,1524.5379910003394,1524.5379910003394,1524.5379910003394,1524.5379910003394,return,2.3613978000357747,6,0,0,1,-2.7755575615628914e-17,-0.16,return,2.2885190998204052,0,-52,-2.7755575615628914e-17,-0.16,,,,,,,,,,,,,,,,,,,,,,,,,,,,,,,,,,,,,,,,,,,,,,,,,,,,,,,,A2GA51,train_x,red_square,bottom_right,2025-04-16_16h10.51.931,HideSeek_v1,2022.2.5,60.38275410760011,
,5,1,5,1,0,0,16,,train_dim1_1,20,30,,,,2,0,2,0,,,,,,,,,0,0,0,0,0,19,19,19,0,0,0,0,,,,,,,,,,,,,,,,,,,,,,,,,stimuli/alien_stimuli/16.png,,,,,,,,,,,,,,,,,,,,,,,,,,,,,stimuli/alien_stimuli/46.png,46,5,21,,,,,,,30,,,,,,,,1532.3291831999086,1532.3291831999086,1532.3291831999086,1532.3291831999086,1532.3291831999086,return,2.2910054000094533,7,0,0,1,0.24,-0.32,return,2.175925999879837,0,-52,0.24,-0.32,1530.7472208002582,1532.3291831999086,0,-0.16,0.0,0.24,-0.16,0,0.12,0,-0.16,1528.4777732999064,1528.4777732999064,1528.4777732999064,1528.4777732999064,1528.4777732999064,1528.4777732999064,1528.4777732999064,1528.4777732999064,1528.46168370042,2.3874631002545357,return,2.2503420002758503,,,,,,,,,,,,,,,,,,,,,,,,,,,,,,,,,A2GA51,train_x,red_square,bottom_right,2025-04-16_16h10.51.931,HideSeek_v1,2022.2.5,60.38275410760011,
,9,2,6,2,-3,0,46,,train_dim1_1,21,30,,,,2,0,2,0,,,,,,,,,0,0,0,0,0,20,20,20,0,0,0,0,,,,,,,,,,,,,,,,,,,,,,,,,stimuli/alien_stimuli/46.png,,,,,,,,,,,,,,,,,,,,,,,,,,,,,stimuli/alien_stimuli/16.png,16,5,22,,,,,,,30,,,,,,,,1539.0255228001624,1539.0255228001624,1539.0255228001624,1539.0255228001624,1539.0255228001624,left,1.5069396998733282,7,0,0,99,0.48000000000000004,-0.24,left,1.4142237002961338,,,,,1537.469174399972,1539.0255228001624,0.24,-0.32,0.0,0.0,-0.32,0.24,0.24,0.24,-0.32,1536.158440799918,1536.158440799918,1536.158440799918,1536.158440799918,1536.158440799918,1536.158440799918,1536.158440799918,1536.158440799918,1536.1513781003655,1.4201913001015782,return,1.2840068000368774,,,,,,,,,,,,,,,,,,,,,,,,,,,,,,,,,A2GA51,train_x,red_square,bottom_right,2025-04-16_16h10.51.931,HideSeek_v1,2022.2.5,60.38275410760011,
,9,2,6,2,-3,0,46,,train_dim1_1,21,30,,,,2,0,2,0,,,,,,,,,0,0,0,0,0,20,20,20,1,0,1,0,,,,,,,,,,,,,,,,,,,,,,,,,,,,,,,,,,,,,,,,,,,,,,,,,,,,,,,,,,,,,,,,30,,,,,,,,1540.5360520998947,1540.5360520998947,1540.5360520998947,1540.5360520998947,1540.5360520998947,left,0.3931543999351561,7,0,0,99,0.4,-0.24,left,0.3040596004575491,,,,,,,,,,,,,,,,,,,,,,,,,,,,,,,,,,,,,,,,,,,,,,,,,,,,,,,,,,,,A2GA51,train_x,red_square,bottom_right,2025-04-16_16h10.51.931,HideSeek_v1,2022.2.5,60.38275410760011,
,9,2,6,2,-3,0,46,,train_dim1_1,21,30,,,,2,0,2,0,,,,,,,,,0,0,0,0,0,20,20,20,2,0,2,0,,,,,,,,,,,,,,,,,,,,,,,,,,,,,,,,,,,,,,,,,,,,,,,,,,,,,,,,,,,,,,,,30,,,,,,,,1540.9355470002629,1540.9355470002629,1540.9355470002629,1540.9355470002629,1540.9355470002629,left,0.34309379989281297,7,0,0,99,0.32,-0.24,left,0.2555544003844261,,,,,,,,,,,,,,,,,,,,,,,,,,,,,,,,,,,,,,,,,,,,,,,,,,,,,,,,,,,,A2GA51,train_x,red_square,bottom_right,2025-04-16_16h10.51.931,HideSeek_v1,2022.2.5,60.38275410760011,
,9,2,6,2,-3,0,46,,train_dim1_1,21,30,,,,2,0,2,0,,,,,,,,,0,0,0,0,0,20,20,20,3,0,3,0,,,,,,,,,,,,,,,,,,,,,,,,,,,,,,,,,,,,,,,,,,,,,,,,,,,,,,,,,,,,,,,,30,,,,,,,,1541.285840000026,1541.285840000026,1541.285840000026,1541.285840000026,1541.285840000026,return,0.5263892002403736,8,0,0,1,0.32,-0.24,return,0.4442013003863394,0,-55,0.32,-0.24,,,,,,,,,,,,,,,,,,,,,,,,,,,,,,,,,,,,,,,,,,,,,,,,,,,,,,,,A2GA51,train_x,red_square,bottom_right,2025-04-16_16h10.51.931,HideSeek_v1,2022.2.5,60.38275410760011,
,6,0,5,0,-1,0,26,,train_dim1_1,22,30,,,,2,0,2,0,,,,,,,,,0,0,0,0,0,21,21,21,0,0,0,0,,,,,,,,,,,,,,,,,,,,,,,,,stimuli/alien_stimuli/26.png,,,,,,,,,,,,,,,,,,,,,,,,,,,,,stimuli/alien_stimuli/46.png,46,9,23,,,,,,,30,,,,,,,,1546.004869100172,1546.004869100172,1546.004869100172,1546.004869100172,1546.004869100172,left,2.0737239001318812,8,0,0,99,0.24,-0.4,left,1.9757309001870453,,,,,1544.4417266002856,1546.004869100172,0.32,-0.24,0.0,0.24,-0.24,0.32,0.44000000000000006,0.32,-0.24,1543.3741099000908,1543.3741099000908,1543.3741099000908,1543.3741099000908,1543.3741099000908,1543.3741099000908,1543.3741099000908,1543.3741099000908,1543.3574518000707,1.1696591000072658,return,1.0458709001541138,,,,,,,,,,,,,,,,,,,,,,,,,,,,,,,,,A2GA51,train_x,red_square,bottom_right,2025-04-16_16h10.51.931,HideSeek_v1,2022.2.5,60.38275410760011,
,6,0,5,0,-1,0,26,,train_dim1_1,22,30,,,,2,0,2,0,,,,,,,,,0,0,0,0,0,21,21,21,1,0,1,0,,,,,,,,,,,,,,,,,,,,,,,,,,,,,,,,,,,,,,,,,,,,,,,,,,,,,,,,,,,,,,,,30,,,,,,,,1548.0788364000618,1548.0788364000618,1548.0788364000618,1548.0788364000618,1548.0788364000618,return,0.5596261001192033,9,0,0,1,0.24,-0.4,return,0.4745271001011133,0,-56,0.24,-0.4,,,,,,,,,,,,,,,,,,,,,,,,,,,,,,,,,,,,,,,,,,,,,,,,,,,,,,,,A2GA51,train_x,red_square,bottom_right,2025-04-16_16h10.51.931,HideSeek_v1,2022.2.5,60.38275410760011,
,7,1,2,1,-5,0,66,,train_dim1_1,23,30,,,,2,0,2,0,,,,,,,,,0,0,0,0,0,22,22,22,0,0,0,0,,,,,,,,,,,,,,,,,,,,,,,,,stimuli/alien_stimuli/66.png,,,,,,,,,,,,,,,,,,,,,,,,,,,,,stimuli/alien_stimuli/26.png,26,6,24,,,,,,,30,,,,,,,,1553.180302100256,1553.180302100256,1553.180302100256,1553.180302100256,1553.180302100256,left,2.1358952997252345,9,0,0,99,0.32,-0.32,left,2.048943900037557,,,,,1551.6142155001871,1553.180302100256,0.24,-0.4,0.0,0.08,-0.4,0.24,0.28,0.24,-0.4,1550.2055564001203,1550.2055564001203,1550.2055564001203,1550.2055564001203,1550.2055564001203,1550.2055564001203,1550.2055564001203,1550.2055564001203,1550.1966864001938,1.5196587000973523,return,1.3785508004948497,,,,,,,,,,,,,,,,,,,,,,,,,,,,,,,,,A2GA51,train_x,red_square,bottom_right,2025-04-16_16h10.51.931,HideSeek_v1,2022.2.5,60.38275410760011,
,7,1,2,1,-5,0,66,,train_dim1_1,23,30,,,,2,0,2,0,,,,,,,,,0,0,0,0,0,22,22,22,1,0,1,0,,,,,,,,,,,,,,,,,,,,,,,,,,,,,,,,,,,,,,,,,,,,,,,,,,,,,,,,,,,,,,,,30,,,,,,,,1555.3172484003007,1555.3172484003007,1555.3172484003007,1555.3172484003007,1555.3172484003007,left,1.0239445003680885,9,0,0,99,0.24,-0.32,left,0.9432232999242842,,,,,,,,,,,,,,,,,,,,,,,,,,,,,,,,,,,,,,,,,,,,,,,,,,,,,,,,,,,,A2GA51,train_x,red_square,bottom_right,2025-04-16_16h10.51.931,HideSeek_v1,2022.2.5,60.38275410760011,
,7,1,2,1,-5,0,66,,train_dim1_1,23,30,,,,2,0,2,0,,,,,,,,,0,0,0,0,0,22,22,22,2,0,2,0,,,,,,,,,,,,,,,,,,,,,,,,,,,,,,,,,,,,,,,,,,,,,,,,,,,,,,,,,,,,,,,,30,,,,,,,,1556.347755299881,1556.347755299881,1556.347755299881,1556.347755299881,1556.347755299881,left,0.6936809998005629,9,0,0,99,0.15999999999999998,-0.32,left,0.6062680003233254,,,,,,,,,,,,,,,,,,,,,,,,,,,,,,,,,,,,,,,,,,,,,,,,,,,,,,,,,,,,A2GA51,train_x,red_square,bottom_right,2025-04-16_16h10.51.931,HideSeek_v1,2022.2.5,60.38275410760011,
,7,1,2,1,-5,0,66,,train_dim1_1,23,30,,,,2,0,2,0,,,,,,,,,0,0,0,0,0,22,22,22,3,0,3,0,,,,,,,,,,,,,,,,,,,,,,,,,,,,,,,,,,,,,,,,,,,,,,,,,,,,,,,,,,,,,,,,30,,,,,,,,1557.0496771000326,1557.0496771000326,1557.0496771000326,1557.0496771000326,1557.0496771000326,left,0.576817600056529,9,0,0,99,0.07999999999999997,-0.32,left,0.49745320016518235,,,,,,,,,,,,,,,,,,,,,,,,,,,,,,,,,,,,,,,,,,,,,,,,,,,,,,,,,,,,A2GA51,train_x,red_square,bottom_right,2025-04-16_16h10.51.931,HideSeek_v1,2022.2.5,60.38275410760011,
,7,1,2,1,-5,0,66,,train_dim1_1,23,30,,,,2,0,2,0,,,,,,,,,0,0,0,0,0,22,22,22,4,0,4,0,,,,,,,,,,,,,,,,,,,,,,,,,,,,,,,,,,,,,,,,,,,,,,,,,,,,,,,,,,,,,,,,30,,,,,,,,1557.6322798999026,1557.6322798999026,1557.6322798999026,1557.6322798999026,1557.6322798999026,left,0.3266855999827385,9,0,0,99,-2.7755575615628914e-17,-0.32,left,0.24156710039824247,,,,,,,,,,,,,,,,,,,,,,,,,,,,,,,,,,,,,,,,,,,,,,,,,,,,,,,,,,,,A2GA51,train_x,red_square,bottom_right,2025-04-16_16h10.51.931,HideSeek_v1,2022.2.5,60.38275410760011,
,7,1,2,1,-5,0,66,,train_dim1_1,23,30,,,,2,0,2,0,,,,,,,,,0,0,0,0,0,22,22,22,5,0,5,0,,,,,,,,,,,,,,,,,,,,,,,,,,,,,,,,,,,,,,,,,,,,,,,,,,,,,,,,,,,,,,,,30,,,,,,,,1557.966530899983,1557.966530899983,1557.966530899983,1557.966530899983,1557.966530899983,return,0.44345280015841126,10,0,0,1,-2.7755575615628914e-17,-0.32,return,0.35986150009557605,0,-61,-2.7755575615628914e-17,-0.32,,,,,,,,,,,,,,,,,,,,,,,,,,,,,,,,,,,,,,,,,,,,,,,,,,,,,,,,A2GA51,train_x,red_square,bottom_right,2025-04-16_16h10.51.931,HideSeek_v1,2022.2.5,60.38275410760011,
,9,4,5,4,-4,0,56,,train_dim1_1,24,30,,,,2,0,2,0,,,,,,,,,0,0,0,0,0,23,23,23,0,0,0,0,,,,,,,,,,,,,,,,,,,,,,,,,stimuli/alien_stimuli/56.png,,,,,,,,,,,,,,,,,,,,,,,,,,,,,stimuli/alien_stimuli/66.png,66,7,25,,,,,,,30,,,,,,,,1562.5160233001225,1562.5160233001225,1562.5160233001225,1562.5160233001225,1562.5160233001225,left,1.6888425000943244,10,0,0,99,0.48000000000000004,-0.08,left,1.5852773999795318,,,,,1560.9386105001904,1562.5160233001225,0,-0.32,0.0,0.4,-0.32,0,0.2,0,-0.32,1559.97289799992,1559.97289799992,1559.97289799992,1559.97289799992,1559.97289799992,1559.97289799992,1559.97289799992,1559.97289799992,1559.9544883000665,1.0696856998838484,return,0.9435481005348265,,,,,,,,,,,,,,,,,,,,,,,,,,,,,,,,,A2GA51,train_x,red_square,bottom_right,2025-04-16_16h10.51.931,HideSeek_v1,2022.2.5,60.38275410760011,
,9,4,5,4,-4,0,56,,train_dim1_1,24,30,,,,2,0,2,0,,,,,,,,,0,0,0,0,0,23,23,23,1,0,1,0,,,,,,,,,,,,,,,,,,,,,,,,,,,,,,,,,,,,,,,,,,,,,,,,,,,,,,,,,,,,,,,,30,,,,,,,,1564.1898456001654,1564.1898456001654,1564.1898456001654,1564.1898456001654,1564.1898456001654,left,0.3598386999219656,10,0,0,99,0.4,-0.08,left,0.27170500019565225,,,,,,,,,,,,,,,,,,,,,,,,,,,,,,,,,,,,,,,,,,,,,,,,,,,,,,,,,,,,A2GA51,train_x,red_square,bottom_right,2025-04-16_16h10.51.931,HideSeek_v1,2022.2.5,60.38275410760011,
,9,4,5,4,-4,0,56,,train_dim1_1,24,30,,,,2,0,2,0,,,,,,,,,0,0,0,0,0,23,23,23,2,0,2,0,,,,,,,,,,,,,,,,,,,,,,,,,,,,,,,,,,,,,,,,,,,,,,,,,,,,,,,,,,,,,,,,30,,,,,,,,1564.5577357001603,1564.5577357001603,1564.5577357001603,1564.5577357001603,1564.5577357001603,left,0.3100781999528408,10,0,0,99,0.32,-0.08,left,0.22310240054503083,,,,,,,,,,,,,,,,,,,,,,,,,,,,,,,,,,,,,,,,,,,,,,,,,,,,,,,,,,,,A2GA51,train_x,red_square,bottom_right,2025-04-16_16h10.51.931,HideSeek_v1,2022.2.5,60.38275410760011,
,9,4,5,4,-4,0,56,,train_dim1_1,24,30,,,,2,0,2,0,,,,,,,,,0,0,0,0,0,23,23,23,3,0,3,0,,,,,,,,,,,,,,,,,,,,,,,,,,,,,,,,,,,,,,,,,,,,,,,,,,,,,,,,,,,,,,,,30,,,,,,,,1564.873852699995,1564.873852699995,1564.873852699995,1564.873852699995,1564.873852699995,left,0.32668890012428164,10,0,0,99,0.24,-0.08,left,0.2373084998689592,,,,,,,,,,,,,,,,,,,,,,,,,,,,,,,,,,,,,,,,,,,,,,,,,,,,,,,,,,,,A2GA51,train_x,red_square,bottom_right,2025-04-16_16h10.51.931,HideSeek_v1,2022.2.5,60.38275410760011,
,9,4,5,4,-4,0,56,,train_dim1_1,24,30,,,,2,0,2,0,,,,,,,,,0,0,0,0,0,23,23,23,4,0,4,0,,,,,,,,,,,,,,,,,,,,,,,,,,,,,,,,,,,,,,,,,,,,,,,,,,,,,,,,,,,,,,,,30,,,,,,,,1565.2079777000472,1565.2079777000472,1565.2079777000472,1565.2079777000472,1565.2079777000472,return,5.197428100276738,11,0,0,1,0.24,-0.08,return,5.106355700176209,0,-65,0.24,-0.08,,,,,,,,,,,,,,,,,,,,,,,,,,,,,,,,,,,,,,,,,,,,,,,,,,,,,,,,A2GA51,train_x,red_square,bottom_right,2025-04-16_16h10.51.931,HideSeek_v1,2022.2.5,60.38275410760011,
,8,0,8,0,0,0,16,,train_dim1_1,25,30,,,,2,0,2,0,,,,,,,,,0,0,0,0,0,24,24,24,0,0,0,0,,,,,,,,,,,,,,,,,,,,,,,,,stimuli/alien_stimuli/16.png,,,,,,,,,,,,,,,,,,,,,,,,,,,,,stimuli/alien_stimuli/56.png,56,9,26,,,,,,,30,,,,,,,,1574.5103708999231,1574.5103708999231,1574.5103708999231,1574.5103708999231,1574.5103708999231,return,1.8562254002317786,12,0,0,1,0.48,-0.4,return,1.757414699997753,0,-65,0.48,-0.4,1572.9206782002002,1571.986009800341,0.24,-0.08,0.0,0.32,-0.08,0.24,0.4,0.24,-0.08,1571.986009800341,1571.986009800341,1571.986009800341,1571.986009800341,1571.986009800341,1571.986009800341,1571.986009800341,1571.986009800341,1571.9645099002869,1.059515899978578,return,0.9156104000285268,,,,,,,,,,,,,,,,,,,,,,,,,,,,,,,,,A2GA51,train_x,red_square,bottom_right,2025-04-16_16h10.51.931,HideSeek_v1,2022.2.5,60.38275410760011,
,6,1,1,1,-5,0,66,,train_dim1_1,26,30,,,,2,0,2,0,,,,,,,,,0,0,0,0,0,25,25,25,0,0,0,0,,,,,,,,,,,,,,,,,,,,,,,,,stimuli/alien_stimuli/66.png,,,,,,,,,,,,,,,,,,,,,,,,,,,,,stimuli/alien_stimuli/16.png,16,8,27,,,,,,,30,,,,,,,,1580.4962536999956,1580.4962536999956,1580.4962536999956,1580.4962536999956,1580.4962536999956,left,1.3895562998950481,12,0,0,99,0.24,-0.32,left,1.2950367000885308,,,,,1578.9369312003255,1580.4962536999956,0.48,-0.4,0.0,0.0,-0.4,0.48,0.48,0.48,-0.4,1577.9102769000456,1577.9102769000456,1577.9102769000456,1577.9102769000456,1577.9102769000456,1577.9102769000456,1577.9102769000456,1577.9102769000456,1577.902744600177,1.136503600049764,return,1.0074821002781391,,,,,,,,,,,,,,,,,,,,,,,,,,,,,,,,,A2GA51,train_x,red_square,bottom_right,2025-04-16_16h10.51.931,HideSeek_v1,2022.2.5,60.38275410760011,
,6,1,1,1,-5,0,66,,train_dim1_1,26,30,,,,2,0,2,0,,,,,,,,,0,0,0,0,0,25,25,25,1,0,1,0,,,,,,,,,,,,,,,,,,,,,,,,,,,,,,,,,,,,,,,,,,,,,,,,,,,,,,,,,,,,,,,,30,,,,,,,,1581.8860182999633,1581.8860182999633,1581.8860182999633,1581.8860182999633,1581.8860182999633,left,0.6265617003664374,12,0,0,99,0.15999999999999998,-0.32,left,0.5424788999371231,,,,,,,,,,,,,,,,,,,,,,,,,,,,,,,,,,,,,,,,,,,,,,,,,,,,,,,,,,,,A2GA51,train_x,red_square,bottom_right,2025-04-16_16h10.51.931,HideSeek_v1,2022.2.5,60.38275410760011,
,6,1,1,1,-5,0,66,,train_dim1_1,26,30,,,,2,0,2,0,,,,,,,,,0,0,0,0,0,25,25,25,2,0,2,0,,,,,,,,,,,,,,,,,,,,,,,,,,,,,,,,,,,,,,,,,,,,,,,,,,,,,,,,,,,,,,,,30,,,,,,,,1582.5188752003014,1582.5188752003014,1582.5188752003014,1582.5188752003014,1582.5188752003014,left,1.828107099980116,12,0,0,99,0.07999999999999997,-0.32,left,1.74089810019359,,,,,,,,,,,,,,,,,,,,,,,,,,,,,,,,,,,,,,,,,,,,,,,,,,,,,,,,,,,,A2GA51,train_x,red_square,bottom_right,2025-04-16_16h10.51.931,HideSeek_v1,2022.2.5,60.38275410760011,
,6,1,1,1,-5,0,66,,train_dim1_1,26,30,,,,2,0,2,0,,,,,,,,,0,0,0,0,0,25,25,25,3,0,3,0,,,,,,,,,,,,,,,,,,,,,,,,,,,,,,,,,,,,,,,,,,,,,,,,,,,,,,,,,,,,,,,,30,,,,,,,,1584.3551071002148,1584.3551071002148,1584.3551071002148,1584.3551071002148,1584.3551071002148,left,0.5266197002492845,12,0,0,99,-2.7755575615628914e-17,-0.32,left,0.44576040003448725,,,,,,,,,,,,,,,,,,,,,,,,,,,,,,,,,,,,,,,,,,,,,,,,,,,,,,,,,,,,A2GA51,train_x,red_square,bottom_right,2025-04-16_16h10.51.931,HideSeek_v1,2022.2.5,60.38275410760011,
,6,1,1,1,-5,0,66,,train_dim1_1,26,30,,,,2,0,2,0,,,,,,,,,0,0,0,0,0,25,25,25,4,0,4,0,,,,,,,,,,,,,,,,,,,,,,,,,,,,,,,,,,,,,,,,,,,,,,,,,,,,,,,,,,,,,,,,30,,,,,,,,1584.8888206002302,1584.8888206002302,1584.8888206002302,1584.8888206002302,1584.8888206002302,left,0.36015830002725124,12,0,0,99,-0.08000000000000003,-0.32,left,0.27700800029560924,,,,,,,,,,,,,,,,,,,,,,,,,,,,,,,,,,,,,,,,,,,,,,,,,,,,,,,,,,,,A2GA51,train_x,red_square,bottom_right,2025-04-16_16h10.51.931,HideSeek_v1,2022.2.5,60.38275410760011,
,6,1,1,1,-5,0,66,,train_dim1_1,26,30,,,,2,0,2,0,,,,,,,,,0,0,0,0,0,25,25,25,5,0,5,0,,,,,,,,,,,,,,,,,,,,,,,,,,,,,,,,,,,,,,,,,,,,,,,,,,,,,,,,,,,,,,,,30,,,,,,,,1585.255753800273,1585.255753800273,1585.255753800273,1585.255753800273,1585.255753800273,return,0.4432767000980675,13,0,0,1,-0.08000000000000003,-0.32,return,0.3584226001985371,0,-70,-0.08000000000000003,-0.32,,,,,,,,,,,,,,,,,,,,,,,,,,,,,,,,,,,,,,,,,,,,,,,,,,,,,,,,A2GA51,train_x,red_square,bottom_right,2025-04-16_16h10.51.931,HideSeek_v1,2022.2.5,60.38275410760011,
,5,1,2,1,-3,0,46,,train_dim1_1,27,30,,,,2,0,2,0,,,,,,,,,0,0,0,0,0,26,26,26,0,0,0,0,,,,,,,,,,,,,,,,,,,,,,,,,stimuli/alien_stimuli/46.png,,,,,,,,,,,,,,,,,,,,,,,,,,,,,stimuli/alien_stimuli/66.png,66,6,28,,,,,,,30,,,,,,,,1591.1206475999206,1591.1206475999206,1591.1206475999206,1591.1206475999206,1591.1206475999206,left,1.2558996002189815,13,0,0,99,0.15999999999999998,-0.32,left,1.1460554003715515,,,,,1589.5457403999753,1591.1206475999206,-0.08,-0.32,0.0,0.4,-0.32,-0.08,0.12,-0.08,-0.32,1587.2606921000406,1587.2606921000406,1587.2606921000406,1587.2606921000406,1587.2606921000406,1587.2606921000406,1587.2606921000406,1587.2606921000406,1587.243920100201,2.387558000162244,return,2.2680122000165284,,,,,,,,,,,,,,,,,,,,,,,,,,,,,,,,,A2GA51,train_x,red_square,bottom_right,2025-04-16_16h10.51.931,HideSeek_v1,2022.2.5,60.38275410760011,
,5,1,2,1,-3,0,46,,train_dim1_1,27,30,,,,2,0,2,0,,,,,,,,,0,0,0,0,0,26,26,26,1,0,1,0,,,,,,,,,,,,,,,,,,,,,,,,,,,,,,,,,,,,,,,,,,,,,,,,,,,,,,,,,,,,,,,,30,,,,,,,,1592.3627415001392,1592.3627415001392,1592.3627415001392,1592.3627415001392,1592.3627415001392,left,0.4430113001726568,13,0,0,99,0.07999999999999997,-0.32,left,0.3697534999810159,,,,,,,,,,,,,,,,,,,,,,,,,,,,,,,,,,,,,,,,,,,,,,,,,,,,,,,,,,,,A2GA51,train_x,red_square,bottom_right,2025-04-16_16h10.51.931,HideSeek_v1,2022.2.5,60.38275410760011,
,5,1,2,1,-3,0,46,,train_dim1_1,27,30,,,,2,0,2,0,,,,,,,,,0,0,0,0,0,26,26,26,2,0,2,0,,,,,,,,,,,,,,,,,,,,,,,,,,,,,,,,,,,,,,,,,,,,,,,,,,,,,,,,,,,,,,,,30,,,,,,,,1592.8126977002248,1592.8126977002248,1592.8126977002248,1592.8126977002248,1592.8126977002248,left,0.3927035997621715,13,0,0,99,-2.7755575615628914e-17,-0.32,left,0.3090388998389244,,,,,,,,,,,,,,,,,,,,,,,,,,,,,,,,,,,,,,,,,,,,,,,,,,,,,,,,,,,,A2GA51,train_x,red_square,bottom_right,2025-04-16_16h10.51.931,HideSeek_v1,2022.2.5,60.38275410760011,
,5,1,2,1,-3,0,46,,train_dim1_1,27,30,,,,2,0,2,0,,,,,,,,,0,0,0,0,0,26,26,26,3,0,3,0,,,,,,,,,,,,,,,,,,,,,,,,,,,,,,,,,,,,,,,,,,,,,,,,,,,,,,,,,,,,,,,,30,,,,,,,,1593.2115875002928,1593.2115875002928,1593.2115875002928,1593.2115875002928,1593.2115875002928,return,0.6776682999916375,14,0,0,1,-2.7755575615628914e-17,-0.32,return,0.5936683998443186,0,-73,-2.7755575615628914e-17,-0.32,,,,,,,,,,,,,,,,,,,,,,,,,,,,,,,,,,,,,,,,,,,,,,,,,,,,,,,,A2GA51,train_x,red_square,bottom_right,2025-04-16_16h10.51.931,HideSeek_v1,2022.2.5,60.38275410760011,
,8,1,7,1,-1,0,26,,train_dim1_1,28,30,,,,2,0,2,0,,,,,,,,,0,0,0,0,0,27,27,27,0,0,0,0,,,,,,,,,,,,,,,,,,,,,,,,,stimuli/alien_stimuli/26.png,,,,,,,,,,,,,,,,,,,,,,,,,,,,,stimuli/alien_stimuli/46.png,46,5,29,,,,,,,30,,,,,,,,1597.9773780000396,1597.9773780000396,1597.9773780000396,1597.9773780000396,1597.9773780000396,left,2.0575816999189556,14,0,0,99,0.39999999999999997,-0.32,left,1.9599872003309429,,,,,1596.38989030011,1595.4512487999164,0,-0.32,0.0,0.24,-0.32,0,0.12,0,-0.32,1595.4512487999164,1595.4512487999164,1595.4512487999164,1595.4512487999164,1595.4512487999164,1595.4512487999164,1595.4512487999164,1595.4512487999164,1595.43403350031,1.0422523999586701,return,0.9167784000746906,,,,,,,,,,,,,,,,,,,,,,,,,,,,,,,,,A2GA51,train_x,red_square,bottom_right,2025-04-16_16h10.51.931,HideSeek_v1,2022.2.5,60.38275410760011,
,8,1,7,1,-1,0,26,,train_dim1_1,28,30,,,,2,0,2,0,,,,,,,,,0,0,0,0,0,27,27,27,1,0,1,0,,,,,,,,,,,,,,,,,,,,,,,,,,,,,,,,,,,,,,,,,,,,,,,,,,,,,,,,,,,,,,,,30,,,,,,,,1600.0221130000427,1600.0221130000427,1600.0221130000427,1600.0221130000427,1600.0221130000427,return,0.8598436000756919,15,0,0,1,0.39999999999999997,-0.32,return,0.768474000506103,0,-74,0.39999999999999997,-0.32,,,,,,,,,,,,,,,,,,,,,,,,,,,,,,,,,,,,,,,,,,,,,,,,,,,,,,,,A2GA51,train_x,red_square,bottom_right,2025-04-16_16h10.51.931,HideSeek_v1,2022.2.5,60.38275410760011,
,9,0,5,0,-4,0,56,,train_dim1_1,29,30,,,,2,0,2,0,,,,,,,,,0,0,0,0,0,28,28,28,0,0,0,0,,,,,,,,,,,,,,,,,,,,,,,,,stimuli/alien_stimuli/56.png,,,,,,,,,,,,,,,,,,,,,,,,,,,,,stimuli/alien_stimuli/26.png,26,8,30,,,,,,,30,,,,,,,,1605.0525199999101,1605.0525199999101,1605.0525199999101,1605.0525199999101,1605.0525199999101,left,3.2737306002527475,15,0,0,99,0.48000000000000004,-0.4,left,3.193458500318229,,,,,1603.478998000268,1602.4473896999843,0.4,-0.32,0.0,0.08,-0.32,0.4,0.44,0.4,-0.32,1602.4473896999843,1602.4473896999843,1602.4473896999843,1602.4473896999843,1602.4473896999843,1602.4473896999843,1602.4473896999843,1602.4473896999843,1602.4398280001246,1.1423491002060473,return,1.0058432999067008,,,,,,,,,,,,,,,,,,,,,,,,,,,,,,,,,A2GA51,train_x,red_square,bottom_right,2025-04-16_16h10.51.931,HideSeek_v1,2022.2.5,60.38275410760011,
,9,0,5,0,-4,0,56,,train_dim1_1,29,30,,,,2,0,2,0,,,,,,,,,0,0,0,0,0,28,28,28,1,0,1,0,,,,,,,,,,,,,,,,,,,,,,,,,,,,,,,,,,,,,,,,,,,,,,,,,,,,,,,,,,,,,,,,30,,,,,,,,1608.3274538000114,1608.3274538000114,1608.3274538000114,1608.3274538000114,1608.3274538000114,left,0.44293450005352497,15,0,0,99,0.4,-0.4,left,0.367000600323081,,,,,,,,,,,,,,,,,,,,,,,,,,,,,,,,,,,,,,,,,,,,,,,,,,,,,,,,,,,,A2GA51,train_x,red_square,bottom_right,2025-04-16_16h10.51.931,HideSeek_v1,2022.2.5,60.38275410760011,
,9,0,5,0,-4,0,56,,train_dim1_1,29,30,,,,2,0,2,0,,,,,,,,,0,0,0,0,0,28,28,28,2,0,2,0,,,,,,,,,,,,,,,,,,,,,,,,,,,,,,,,,,,,,,,,,,,,,,,,,,,,,,,,,,,,,,,,30,,,,,,,,1608.777282500174,1608.777282500174,1608.777282500174,1608.777282500174,1608.777282500174,left,0.3598372000269592,15,0,0,99,0.32,-0.4,left,0.27687300043180585,,,,,,,,,,,,,,,,,,,,,,,,,,,,,,,,,,,,,,,,,,,,,,,,,,,,,,,,,,,,A2GA51,train_x,red_square,bottom_right,2025-04-16_16h10.51.931,HideSeek_v1,2022.2.5,60.38275410760011,
,9,0,5,0,-4,0,56,,train_dim1_1,29,30,,,,2,0,2,0,,,,,,,,,0,0,0,0,0,28,28,28,3,0,3,0,,,,,,,,,,,,,,,,,,,,,,,,,,,,,,,,,,,,,,,,,,,,,,,,,,,,,,,,,,,,,,,,30,,,,,,,,1609.1446640999056,1609.1446640999056,1609.1446640999056,1609.1446640999056,1609.1446640999056,left,0.34337650006636977,15,0,0,99,0.24,-0.4,left,0.2569936001673341,,,,,,,,,,,,,,,,,,,,,,,,,,,,,,,,,,,,,,,,,,,,,,,,,,,,,,,,,,,,A2GA51,train_x,red_square,bottom_right,2025-04-16_16h10.51.931,HideSeek_v1,2022.2.5,60.38275410760011,
,9,0,5,0,-4,0,56,,train_dim1_1,29,30,,,,2,0,2,0,,,,,,,,,0,0,0,0,0,28,28,28,4,0,4,0,,,,,,,,,,,,,,,,,,,,,,,,,,,,,,,,,,,,,,,,,,,,,,,,,,,,,,,,,,,,,,,,30,,,,,,,,1609.4944893000647,1609.4944893000647,1609.4944893000647,1609.4944893000647,1609.4944893000647,return,0.5269129001535475,16,0,0,1,0.24,-0.4,return,0.4370133001357317,0,-78,0.24,-0.4,,,,,,,,,,,,,,,,,,,,,,,,,,,,,,,,,,,,,,,,,,,,,,,,,,,,,,,,A2GA51,train_x,red_square,bottom_right,2025-04-16_16h10.51.931,HideSeek_v1,2022.2.5,60.38275410760011,
,7,2,7,2,0,0,16,,train_dim1_1,30,30,,,,2,0,2,0,,,,,,,,,0,0,0,0,0,29,29,29,0,0,0,0,,,,,,,,,,,,,,,,,,,,,,,,,stimuli/alien_stimuli/16.png,,,,,,,,,,,,,,,,,,,,,,,,,,,,,stimuli/alien_stimuli/56.png,56,9,31,,,,,,,30,,,,,,,,1614.1919438000768,1614.1919438000768,1614.1919438000768,1614.1919438000768,1614.1919438000768,return,2.2080166996456683,17,0,0,1,0.4,-0.24,return,2.1020923000760376,0,-78,0.4,-0.24,1612.6147715002298,1614.1919438000768,0.24,-0.4,0.0,0.32,-0.4,0.24,0.4,0.24,-0.4,1611.5842915000394,1611.5842915000394,1611.5842915000394,1611.5842915000394,1611.5842915000394,1611.5842915000394,1611.5842915000394,1611.5842915000394,1611.5635462000967,1.137202300131321,return,1.0083707002922893,,,,,,,,,,,,,,,,,,,,,,,,,,,,,,,,,A2GA51,train_x,red_square,bottom_right,2025-04-16_16h10.51.931,HideSeek_v1,2022.2.5,60.38275410760011,
,,,,,,,,,,,30,,,,2,0,2,0,,,,,,,,,,,,,,,,,,,,,,,,,,,,,,,,,,,,,,,,,,,,,,,,,,,,,,,,,,,,,,,,,,,,,,,,,,stimuli/alien_stimuli/16.png,16,7,32,21,0.7,0.7083333333333335,1,1,1,30,0,conditions/schedules/train_x_first/red_square_00/bottom_right/inputTrain_2.1.xlsx,99,1,2,1,0,,,,,,,,,,,1,,,,,,,,,1618.8535656998865,1620.39438300021,0.4,-0.24,0.0,0.0,-0.24,0.4,0.4,0.4,-0.24,1617.9445867002942,1617.9445867002942,1617.9445867002942,1617.9445867002942,1617.9445867002942,1617.9445867002942,1617.9445867002942,1617.9445867002942,1617.9360461003148,1.0196561999619007,return,0.8885240000672638,0,0.9,0,1,17,,,,,,,,,,,,,,,,,,,,,,,,,,,,A2GA51,train_x,red_square,bottom_right,2025-04-16_16h10.51.931,HideSeek_v1,2022.2.5,60.38275410760011,
,,,,,,,,,,,,,,,3,0,3,0,0,0,0,0,,,,,,,,,,,,,,,,,,,,,,,,,,,,,,,conditions/schedules/train_x_first/red_square_00/bottom_right/instructions/Slide17.png,conditions/schedules/train_x_first/red_square_00/bottom_right/instructions/Audio17.wav,1620.39438300021,1620.388123900071,17,"[6.301994899753481, 18.043653099797666, 16.919973900076002, 19.619303999934345, 4.801103299949318, 4.6529291998595, 5.101787199731916, 11.78969610016793, 5.921554500237107, 6.771896600257605, 9.938567199744284, 12.52101940009743, 19.78384319972247, 12.813914500176907, 30.675419100094587, 22.215656700078398, 50.33458789996803]","[0.00021169986575841904, 0.014084500260651112, 0.01405709981918335, 0.013314099982380867, 0.014384099747985601, 0.06439309986308217, 0.04636939987540245, 0.01466060010716319, 0.06599240005016327, 0.0636843997053802, 0.12706479988992214, 12.521025800146163, 0.06812990037724376, 12.813922100234777, 0.09663379983976483, 22.21566369989887, 50.334596399683505]",0,,,,,,,,,,,,,,,,,,,,,,,,,,,,,,,,,,,,,,,,,,,,,,,,,,,,,,,,,,,,,,,,,,,,,,,,,,,,,,,,,,,,,,,,,,,,,,,,,,,,,,,,,,,,,,,,,,,,,,,,,,,,A2GA51,train_x,red_square,bottom_right,2025-04-16_16h10.51.931,HideSeek_v1,2022.2.5,60.38275410760011,
,,,,,,,,,,,,,,,3,0,3,0,1,0,1,0,,,,,,,,,,,,,,,,,,,,,,,,,,,,,,,conditions/schedules/train_x_first/red_square_00/bottom_right/instructions/Slide18.png,conditions/schedules/train_x_first/red_square_00/bottom_right/instructions/Audio18.wav,1670.7985360999592,1670.796707100235,18,"[6.301994899753481, 18.043653099797666, 16.919973900076002, 19.619303999934345, 4.801103299949318, 4.6529291998595, 5.101787199731916, 11.78969610016793, 5.921554500237107, 6.771896600257605, 9.938567199744284, 12.52101940009743, 19.78384319972247, 12.813914500176907, 30.675419100094587, 22.215656700078398, 50.33458789996803, 6.334504299797118]","[0.00021169986575841904, 0.014084500260651112, 0.01405709981918335, 0.013314099982380867, 0.014384099747985601, 0.06439309986308217, 0.04636939987540245, 0.01466060010716319, 0.06599240005016327, 0.0636843997053802, 0.12706479988992214, 12.521025800146163, 0.06812990037724376, 12.813922100234777, 0.09663379983976483, 22.21566369989887, 0.00020079966634511948, 6.334512100089341]",0,,,,,,,,,,,,,,,,,,,,,,,,,,,,,,,,,,,,,,,,,,,,,,,,,,,,,,,,,,,,,,,,,,,,,,,,,,,,,,,,,,,,,,,,,,,,,,,,,,,,,,,,,,,,,,,,,,,,,,,,,,,,A2GA51,train_x,red_square,bottom_right,2025-04-16_16h10.51.931,HideSeek_v1,2022.2.5,60.38275410760011,
,,,,,,,,,,,,,,,3,0,3,0,2,0,2,0,,,,,,,,,,,,,,,,,,,,,,,,,,,,,,,conditions/schedules/train_x_first/red_square_00/bottom_right/instructions/Slide19.png,conditions/schedules/train_x_first/red_square_00/bottom_right/instructions/Audio19.wav,1677.17121590022,1677.1688077001834,19,"[6.301994899753481, 18.043653099797666, 16.919973900076002, 19.619303999934345, 4.801103299949318, 4.6529291998595, 5.101787199731916, 11.78969610016793, 5.921554500237107, 6.771896600257605, 9.938567199744284, 12.52101940009743, 19.78384319972247, 12.813914500176907, 30.675419100094587, 22.215656700078398, 50.33458789996803, 6.334504299797118, 10.905062799807638]","[0.00021169986575841904, 0.014084500260651112, 0.01405709981918335, 0.013314099982380867, 0.014384099747985601, 0.06439309986308217, 0.04636939987540245, 0.01466060010716319, 0.06599240005016327, 0.0636843997053802, 0.12706479988992214, 12.521025800146163, 0.06812990037724376, 12.813922100234777, 0.09663379983976483, 22.21566369989887, 0.00020079966634511948, 0.07850999990478158, 10.905072699766606]",0,,,,,,,,,,,,,,,,,,,,,,,,,,,,,,,,,,,,,,,,,,,,,,,,,,,,,,,,,,,,,,,,,,,,,,,,,,,,,,,,,,,,,,,,,,,,,,,,,,,,,,,,,,,,,,,,,,,,,,,,,,,,A2GA51,train_x,red_square,bottom_right,2025-04-16_16h10.51.931,HideSeek_v1,2022.2.5,60.38275410760011,
,,,,,,,,,,,,,,,3,0,3,0,3,0,3,0,,,,,,,,,,,,,,,,,,,,,,,,,,,,,,,conditions/schedules/train_x_first/red_square_00/bottom_right/instructions/Slide20.png,conditions/schedules/train_x_first/red_square_00/bottom_right/instructions/Audio20.wav,1688.1459294003434,1688.1442818003707,20,"[6.301994899753481, 18.043653099797666, 16.919973900076002, 19.619303999934345, 4.801103299949318, 4.6529291998595, 5.101787199731916, 11.78969610016793, 5.921554500237107, 6.771896600257605, 9.938567199744284, 12.52101940009743, 19.78384319972247, 12.813914500176907, 30.675419100094587, 22.215656700078398, 50.33458789996803, 6.334504299797118, 10.905062799807638, 13.574634499847889]","[0.00021169986575841904, 0.014084500260651112, 0.01405709981918335, 0.013314099982380867, 0.014384099747985601, 0.06439309986308217, 0.04636939987540245, 0.01466060010716319, 0.06599240005016327, 0.0636843997053802, 0.12706479988992214, 12.521025800146163, 0.06812990037724376, 12.813922100234777, 0.09663379983976483, 22.21566369989887, 0.00020079966634511948, 0.07850999990478158, 0.03075899975374341, 13.57464119978249]",0,,,,,,,,,,,,,,,,,,,,,,,,,,,,,,,,,,,,,,,,,,,,,,,,,,,,,,,,,,,,,,,,,,,,,,,,,,,,,,,,,,,,,,,,,,,,,,,,,,,,,,,,,,,,,,,,,,,,,,,,,,,,A2GA51,train_x,red_square,bottom_right,2025-04-16_16h10.51.931,HideSeek_v1,2022.2.5,60.38275410760011,
1,7,3,7,8,0,5,11,2,instr_dim1_2,,,,,,3,0,3,0,,,,,0,0,0,0,,,,,,,,,,,,,,,,,,,,,,,,,,,,,,,,,,,,,stimuli/alien_stimuli/11.png,conditions/schedules/train_x_first/red_square_00/bottom_right/inputInstr_2.xlsx,stimuli/alien_stimuli/11.png,1701.815350800287,1701.815350800287,1701.815350800287,1701.815350800287,1701.805901800096,return,8.48399779992178,"[-0.16, -0.08, 0, 0.08, 0.16, 0.24, 0.32, 0.4, 0.48, 0.56]","[-0.4, -0.32, -0.24, -0.16, -0.08, 0, 0.08, 0.16, 0.24, 0.32]",8,3,7,7,0.4,0.0,1710.459103900008,1710.459103900008,1710.459103900008,1710.459103900008,1710.459103900008,1710.459103900008,1710.459103900008,1710.446022900194,8.15767819993198,return,8.009756200015545,stimuli/alien_stimuli/11.png,11,7,1,,,,,,,,,,,,,,,,,,,,,,,,,,,,,,,,,,,,,,,,,,,,,,,,,,,,,,,,,,,,,,,,,,,,,,,,,,,,,,,,,,,,,,,,,A2GA51,train_x,red_square,bottom_right,2025-04-16_16h10.51.931,HideSeek_v1,2022.2.5,60.38275410760011,
,,,,,,,,,,,30,,,,3,0,3,0,,,,,,,,,,,,,,,,,,,,,,,,,,,,,,,,,,,,,,,,,,,,,,,,,,,,,,,,,,,,,,,,,,,,,,,,,,,,,,21,0.7,0.7083333333333335,1,99,2,30,0,conditions/schedules/train_x_first/red_square_00/bottom_right/inputTrain_2.1.xlsx,99,1,2,1,0,,,,,,,,,,,,,,,,,,,,,,,,,,,,,,,,,,,,,,,,,,,,,,,,,,,,,,,,,,,,,,,,,,,,,,,,,,,A2GA51,train_x,red_square,bottom_right,2025-04-16_16h10.51.931,HideSeek_v1,2022.2.5,60.38275410760011,
,,,,,,,,,,,,,,,4,0,4,0,0,0,0,0,,,,,,,,,,,,,,,,,,,,,,,,,,,,,,,conditions/schedules/train_x_first/red_square_00/bottom_right/instructions/Slide21.png,conditions/schedules/train_x_first/red_square_00/bottom_right/instructions/Audio21.wav,1718.6374192000367,1718.6362587003969,21,"[6.301994899753481, 18.043653099797666, 16.919973900076002, 19.619303999934345, 4.801103299949318, 4.6529291998595, 5.101787199731916, 11.78969610016793, 5.921554500237107, 6.771896600257605, 9.938567199744284, 12.52101940009743, 19.78384319972247, 12.813914500176907, 30.675419100094587, 22.215656700078398, 50.33458789996803, 6.334504299797118, 10.905062799807638, 13.574634499847889, 23.735887800343335]","[0.00021169986575841904, 0.014084500260651112, 0.01405709981918335, 0.013314099982380867, 0.014384099747985601, 0.06439309986308217, 0.04636939987540245, 0.01466060010716319, 0.06599240005016327, 0.0636843997053802, 0.12706479988992214, 12.521025800146163, 0.06812990037724376, 12.813922100234777, 0.09663379983976483, 22.21566369989887, 0.00020079966634511948, 0.07850999990478158, 0.03075899975374341, 13.57464119978249, 23.73590420000255]",0,,,,,,,,,,,,,,,,,,,,,,,,,,,,,,,,,,,,,,,,,,,,,,,,,,,,,,,,,,,,,,,,,,,,,,,,,,,,,,,,,,,,,,,,,,,,,,,,,,,,,,,,,,,,,,,,,,,,,,,,,,,,A2GA51,train_x,red_square,bottom_right,2025-04-16_16h10.51.931,HideSeek_v1,2022.2.5,60.38275410760011,
2,5,3,5,3,0,0,16,2,instr_dim1_2,,,,,,4,0,4,0,,,,,0,0,0,0,,,,,,,,,,,,,,,,,,,,,,,,,,,,,,,,,,,,,stimuli/alien_stimuli/16.png,conditions/schedules/train_x_first/red_square_00/bottom_right/inputInstr_2.xlsx,stimuli/alien_stimuli/16.png,1742.4729466000572,1742.4729466000572,1742.4729466000572,1742.4729466000572,1742.472747600265,return,5.378242599777877,"[-0.16, -0.08, 0, 0.08, 0.16, 0.24, 0.32, 0.4, 0.48, 0.56]","[-0.4, -0.32, -0.24, -0.16, -0.08, 0, 0.08, 0.16, 0.24, 0.32]",3,3,5,5,0.0,0.0,1748.0095633999445,1748.0095633999445,1748.0095633999445,1748.0095633999445,1748.0095633999445,1748.0095633999445,1748.0095633999445,1748.010712000262,6.723254399839789,return,6.562364100012928,stimuli/alien_stimuli/16.png,16,5,2,,,,,,,,,,,,,,,,,,,,,,,,,,,,,,,,,,,,,,,,,,,,,,,,,,,,,,,,,,,,,,,,,,,,,,,,,,,,,,,,,,,,,,,,,A2GA51,train_x,red_square,bottom_right,2025-04-16_16h10.51.931,HideSeek_v1,2022.2.5,60.38275410760011,
,,,,,,,,,,,30,,,,4,0,4,0,,,,,,,,,,,,,,,,,,,,,,,,,,,,,,,,,,,,,,,,,,,,,,,,,,,,,,,,,,,,,,,,,,,,,,,,,,,,,,21,0.7,0.7083333333333335,1,99,2,30,0,conditions/schedules/train_x_first/red_square_00/bottom_right/inputTrain_2.1.xlsx,99,1,2,1,0,,,,,,,,,,,,,,,,,,,,,,,,,,,,,,,,,,,,,,,,,,,,,,,,,,,,,,,,,,,,,,,,,,,,,,,,,,,A2GA51,train_x,red_square,bottom_right,2025-04-16_16h10.51.931,HideSeek_v1,2022.2.5,60.38275410760011,
