trialInstr,x_fixStart,y_fixStart,x_corrSteps,y_corrSteps,x_nrSteps,y_nrSteps,alienID,trialLength,version,trialTrain,praclen,testlen,trial_label,break_on_off,beforeExpLoop.thisRepN,beforeExpLoop.thisTrialN,beforeExpLoop.thisN,beforeExpLoop.thisIndex,mini_instr_trials.thisRepN,mini_instr_trials.thisTrialN,mini_instr_trials.thisN,mini_instr_trials.thisIndex,instrLoop.thisRepN,instrLoop.thisTrialN,instrLoop.thisN,instrLoop.thisIndex,repeat_prac.thisRepN,repeat_prac.thisTrialN,repeat_prac.thisN,repeat_prac.thisIndex,trainLoop.thisRepN,trainLoop.thisTrialN,trainLoop.thisN,trainLoop.thisIndex,moveLoop_train.thisRepN,moveLoop_train.thisTrialN,moveLoop_train.thisN,moveLoop_train.thisIndex,experiment.thisRepN,experiment.thisTrialN,experiment.thisN,experiment.thisIndex,moveLoop_test.thisRepN,moveLoop_test.thisTrialN,moveLoop_test.thisN,moveLoop_test.thisIndex,mini_instr2_trials.thisRepN,mini_instr2_trials.thisTrialN,mini_instr2_trials.thisN,mini_instr2_trials.thisIndex,start_all_time,url,slideStim,audioStim,slides.started,sounds.started,nextButton.numClicks,nextButton.timesOn,nextButton.timesOff,prev_but.numClicks,prev_but.timesOn,prev_but.timesOff,alienStim,instrFile,alienStim_instr,gridImage_instr.started,startPos_3.started,key_instr.started,alienImage_3.started,sounds_1.started,key_instr.keys,key_instr.rt,all_x,all_y,FBy_corrSteps,FBy_fixStart,FBx_corrSteps,FBx_fixStart,FBy_pathSize_check,FBx_pathSize_check,gridImage_9.started,alienImageFB_3.started,startPosFB_3.started,keyFB_3.started,pathLine_ydir_2.started,pathLine_xdir_2.started,alienFace_3.started,sounds_2.started,RTFB_instr,keyFB_3.keys,keyFB_3.rt,draw_alienStim,draw_alienID,test_x,nrepcount,perfthres,percthres,earlierperf,earlystop,nextPrac,fileidx,praclen,saveACC_train,pracFile,nextPrac_train,addNrep,fileidx_endr,repExp,showearly,gridImage_4.started,startPos.started,movePos.started,key_resp.started,alienImage.started,buttonPress_train,RTchoice_train,cumAcctrain,aCorr,saveACC_choice,corrAns,x_movePos_end,y_movePos_end,key_resp.keys,key_resp.rt,wLy_dir,wLx_dir,x_movePos,y_movePos,text_2.started,text_2.stopped,aft_x_corrPos,aft_y_corrPos,y_pathSize_check,x_pathSize_check,y_pathdirY,x_pathdirY,x_pathdirX,x_corrPos,y_corrPos,gridImage_6.started,alienImageFB_2.started,startPosFB_2.started,movePosFB_2.started,keyFB_2.started,pathLine_xdir.started,pathLine_ydir.started,alienFace.started,sounds_4.started,RT_FBtrain,keyFB_2.keys,keyFB_2.rt,saveACC_pre,ACC,within_saveACC_train,earlystop_wloop,cumAcctrain_check,gridImage_3.started,alienImage_test.started,startPos_test.started,movePos_test.started,key_resp_test.started,wLy_dir_test,wLx_dir_test,buttonPress_test,RTchoice_test,cumAcctest,corrAns_test,key_resp_test.keys,key_resp_test.rt,text_3.started,text_3.stopped,total_time,end_all_time,key_resp_3.keys,slides_2.started,sounds_3.started,nextButton_2.numClicks,nextButton_2.timesOn,nextButton_2.timesOff,prev_but_2.numClicks,prev_but_2.timesOn,prev_but_2.timesOff,bye.started,participant,train_first,00_coordinate,starting corner,date,expName,psychopyVersion,frameRate,
,,,,,,,,,,,,,,,0,0,0,0,0,0,0,0,,,,,,,,,,,,,,,,,,,,,,,,,,,,,start_all_time,testround,conditions/schedules/train_y_first/red_square_00/top_left/instructions/Slide1.png,conditions/schedules/train_y_first/red_square_00/top_left/instructions/Audio1.wav,56.54326350009069,56.48544346007984,1,[9.293861399986781],[9.293880800018087],0,,,,,,,,,,,,,,,,,,,,,,,,,,,,,,,,,,,,,,,,,,,,,,,,,,,,,,,,,,,,,,,,,,,,,,,,,,,,,,,,,,,,,,,,,,,,,,,,,,,,,,,,,,,,,,,,,,,,,,,,,,,,A5PLRQ,train_y,red_square,top_left,2025-03-28_14h15.09.382,HideSeek_v1,2022.2.5,59.939676738451894,
,,,,,,,,,,,,,,,0,0,0,0,1,0,1,0,,,,,,,,,,,,,,,,,,,,,,,,,,,,,,,conditions/schedules/train_y_first/red_square_00/top_left/instructions/Slide2.png,conditions/schedules/train_y_first/red_square_00/top_left/instructions/Audio2.wav,65.85651070007589,65.85797855007695,2,"[9.293861399986781, 18.099270100006834]","[9.293880800018087, 18.099278699955903]",0,,,,,,,,,,,,,,,,,,,,,,,,,,,,,,,,,,,,,,,,,,,,,,,,,,,,,,,,,,,,,,,,,,,,,,,,,,,,,,,,,,,,,,,,,,,,,,,,,,,,,,,,,,,,,,,,,,,,,,,,,,,,A5PLRQ,train_y,red_square,top_left,2025-03-28_14h15.09.382,HideSeek_v1,2022.2.5,59.939676738451894,
,,,,,,,,,,,,,,,0,0,0,0,2,0,2,0,,,,,,,,,,,,,,,,,,,,,,,,,,,,,,,conditions/schedules/train_y_first/red_square_00/top_left/instructions/Slide3.png,conditions/schedules/train_y_first/red_square_00/top_left/instructions/Audio3.wav,84.02315870008897,84.02297455008375,3,"[9.293861399986781, 18.099270100006834, 16.44489679997787]","[9.293880800018087, 0.04775330005213618, 16.444905000040308]",0,,,,,,,,,,,,,,,,,,,,,,,,,,,,,,,,,,,,,,,,,,,,,,,,,,,,,,,,,,,,,,,,,,,,,,,,,,,,,,,,,,,,,,,,,,,,,,,,,,,,,,,,,,,,,,,,,,,,,,,,,,,,A5PLRQ,train_y,red_square,top_left,2025-03-28_14h15.09.382,HideSeek_v1,2022.2.5,59.939676738451894,
,,,,,,,,,,,,,,,0,0,0,0,3,0,3,0,,,,,,,,,,,,,,,,,,,,,,,,,,,,,,,conditions/schedules/train_y_first/red_square_00/top_left/instructions/Slide4.png,conditions/schedules/train_y_first/red_square_00/top_left/instructions/Audio4.wav,100.53833500004839,100.5368690500618,4,"[9.293861399986781, 18.099270100006834, 16.44489679997787, 19.19620250002481]","[9.293880800018087, 0.04775330005213618, 0.00021770002786070108, 19.19621109997388]",0,,,,,,,,,,,,,,,,,,,,,,,,,,,,,,,,,,,,,,,,,,,,,,,,,,,,,,,,,,,,,,,,,,,,,,,,,,,,,,,,,,,,,,,,,,,,,,,,,,,,,,,,,,,,,,,,,,,,,,,,,,,,A5PLRQ,train_y,red_square,top_left,2025-03-28_14h15.09.382,HideSeek_v1,2022.2.5,59.939676738451894,
,,,,,,,,,,,,,,,0,0,0,0,4,0,4,0,,,,,,,,,,,,,,,,,,,,,,,,,,,,,,,conditions/schedules/train_y_first/red_square_00/top_left/instructions/Slide5.png,conditions/schedules/train_y_first/red_square_00/top_left/instructions/Audio5.wav,119.79503949999344,119.78628954009618,5,"[9.293861399986781, 18.099270100006834, 16.44489679997787, 19.19620250002481, 5.143331999890506]","[9.293880800018087, 0.04775330005213618, 0.00021770002786070108, 0.05588939995504916, 5.1433404999552295]",0,,,,,,,,,,,,,,,,,,,,,,,,,,,,,,,,,,,,,,,,,,,,,,,,,,,,,,,,,,,,,,,,,,,,,,,,,,,,,,,,,,,,,,,,,,,,,,,,,,,,,,,,,,,,,,,,,,,,,,,,,,,,A5PLRQ,train_y,red_square,top_left,2025-03-28_14h15.09.382,HideSeek_v1,2022.2.5,59.939676738451894,
,,,,,,,,,,,,,,,0,0,0,0,5,0,5,0,,,,,,,,,,,,,,,,,,,,,,,,,,,,,,,conditions/schedules/train_y_first/red_square_00/top_left/instructions/Slide6.png,conditions/schedules/train_y_first/red_square_00/top_left/instructions/Audio6.wav,124.98796920001041,124.99028924000449,6,"[9.293861399986781, 18.099270100006834, 16.44489679997787, 19.19620250002481, 5.143331999890506, 4.804168300004676]","[9.293880800018087, 0.04775330005213618, 0.00021770002786070108, 0.05588939995504916, 0.014323699986562133, 4.804176199948415]",0,,,,,,,,,,,,,,,,,,,,,,,,,,,,,,,,,,,,,,,,,,,,,,,,,,,,,,,,,,,,,,,,,,,,,,,,,,,,,,,,,,,,,,,,,,,,,,,,,,,,,,,,,,,,,,,,,,,,,,,,,,,,A5PLRQ,train_y,red_square,top_left,2025-03-28_14h15.09.382,HideSeek_v1,2022.2.5,59.939676738451894,
,,,,,,,,,,,,,,,0,0,0,0,6,0,6,0,,,,,,,,,,,,,,,,,,,,,,,,,,,,,,,conditions/schedules/train_y_first/red_square_00/top_left/instructions/Slide7.png,conditions/schedules/train_y_first/red_square_00/top_left/instructions/Audio7.wav,129.856586500071,129.84457314000466,7,"[9.293861399986781, 18.099270100006834, 16.44489679997787, 19.19620250002481, 5.143331999890506, 4.804168300004676, 5.523309200070798]","[9.293880800018087, 0.04775330005213618, 0.00021770002786070108, 0.05588939995504916, 0.014323699986562133, 0.035384700051508844, 5.523317900020629]",0,,,,,,,,,,,,,,,,,,,,,,,,,,,,,,,,,,,,,,,,,,,,,,,,,,,,,,,,,,,,,,,,,,,,,,,,,,,,,,,,,,,,,,,,,,,,,,,,,,,,,,,,,,,,,,,,,,,,,,,,,,,,A5PLRQ,train_y,red_square,top_left,2025-03-28_14h15.09.382,HideSeek_v1,2022.2.5,59.939676738451894,
,,,,,,,,,,,,,,,0,0,0,0,7,0,7,0,,,,,,,,,,,,,,,,,,,,,,,,,,,,,,,conditions/schedules/train_y_first/red_square_00/top_left/instructions/Slide8.png,conditions/schedules/train_y_first/red_square_00/top_left/instructions/Audio8.wav,135.43137040000875,135.43239544003737,8,"[9.293861399986781, 18.099270100006834, 16.44489679997787, 19.19620250002481, 5.143331999890506, 4.804168300004676, 5.523309200070798, 11.525010999990627]","[9.293880800018087, 0.04775330005213618, 0.00021770002786070108, 0.05588939995504916, 0.014323699986562133, 0.035384700051508844, 0.04852979991119355, 11.525028400006704]",0,,,,,,,,,,,,,,,,,,,,,,,,,,,,,,,,,,,,,,,,,,,,,,,,,,,,,,,,,,,,,,,,,,,,,,,,,,,,,,,,,,,,,,,,,,,,,,,,,,,,,,,,,,,,,,,,,,,,,,,,,,,,A5PLRQ,train_y,red_square,top_left,2025-03-28_14h15.09.382,HideSeek_v1,2022.2.5,59.939676738451894,
,,,,,,,,,,,,,,,0,0,0,0,8,0,8,0,,,,,,,,,,,,,,,,,,,,,,,,,,,,,,,conditions/schedules/train_y_first/red_square_00/top_left/instructions/Slide9.png,conditions/schedules/train_y_first/red_square_00/top_left/instructions/Audio9.wav,147.01385550003033,147.0086544400314,9,"[9.293861399986781, 18.099270100006834, 16.44489679997787, 19.19620250002481, 5.143331999890506, 4.804168300004676, 5.523309200070798, 11.525010999990627, 6.097582799964584]","[9.293880800018087, 0.04775330005213618, 0.00021770002786070108, 0.05588939995504916, 0.014323699986562133, 0.035384700051508844, 0.04852979991119355, 0.04720150004141033, 6.097591300029308]",0,,,,,,,,,,,,,,,,,,,,,,,,,,,,,,,,,,,,,,,,,,,,,,,,,,,,,,,,,,,,,,,,,,,,,,,,,,,,,,,,,,,,,,,,,,,,,,,,,,,,,,,,,,,,,,,,,,,,,,,,,,,,A5PLRQ,train_y,red_square,top_left,2025-03-28_14h15.09.382,HideSeek_v1,2022.2.5,59.939676738451894,
,,,,,,,,,,,,,,,0,0,0,0,9,0,9,0,,,,,,,,,,,,,,,,,,,,,,,,,,,,,,,conditions/schedules/train_y_first/red_square_00/top_left/instructions/Slide10.png,conditions/schedules/train_y_first/red_square_00/top_left/instructions/Audio10.wav,153.1482374999905,153.14714863001134,10,"[9.293861399986781, 18.099270100006834, 16.44489679997787, 19.19620250002481, 5.143331999890506, 4.804168300004676, 5.523309200070798, 11.525010999990627, 6.097582799964584, 6.935380900045857]","[9.293880800018087, 0.04775330005213618, 0.00021770002786070108, 0.05588939995504916, 0.014323699986562133, 0.035384700051508844, 0.04852979991119355, 0.04720150004141033, 0.06272659997921437, 6.935389699996449]",0,,,,,,,,,,,,,,,,,,,,,,,,,,,,,,,,,,,,,,,,,,,,,,,,,,,,,,,,,,,,,,,,,,,,,,,,,,,,,,,,,,,,,,,,,,,,,,,,,,,,,,,,,,,,,,,,,,,,,,,,,,,,A5PLRQ,train_y,red_square,top_left,2025-03-28_14h15.09.382,HideSeek_v1,2022.2.5,59.939676738451894,
,,,,,,,,,,,,,,,0,0,0,0,10,0,10,0,,,,,,,,,,,,,,,,,,,,,,,,,,,,,,,conditions/schedules/train_y_first/red_square_00/top_left/instructions/Slide11.png,conditions/schedules/train_y_first/red_square_00/top_left/instructions/Audio11.wav,160.12099150009453,160.11946033000712,11,"[9.293861399986781, 18.099270100006834, 16.44489679997787, 19.19620250002481, 5.143331999890506, 4.804168300004676, 5.523309200070798, 11.525010999990627, 6.097582799964584, 6.935380900045857, 10.13774260005448]","[9.293880800018087, 0.04775330005213618, 0.00021770002786070108, 0.05588939995504916, 0.014323699986562133, 0.035384700051508844, 0.04852979991119355, 0.04720150004141033, 0.06272659997921437, 0.06275849998928607, 10.137751400005072]",0,,,,,,,,,,,,,,,,,,,,,,,,,,,,,,,,,,,,,,,,,,,,,,,,,,,,,,,,,,,,,,,,,,,,,,,,,,,,,,,,,,,,,,,,,,,,,,,,,,,,,,,,,,,,,,,,,,,,,,,,,,,,A5PLRQ,train_y,red_square,top_left,2025-03-28_14h15.09.382,HideSeek_v1,2022.2.5,59.939676738451894,
,,,,,,,,,,,,,,,0,0,0,0,11,0,11,0,,,,,,,,,,,,,,,,,,,,,,,,,,,,,,,conditions/schedules/train_y_first/red_square_00/top_left/instructions/Slide12.png,conditions/schedules/train_y_first/red_square_00/top_left/instructions/Audio12.wav,170.32479620003141,170.3112700400874,12,"[9.293861399986781, 18.099270100006834, 16.44489679997787, 19.19620250002481, 5.143331999890506, 4.804168300004676, 5.523309200070798, 11.525010999990627, 6.097582799964584, 6.935380900045857, 10.13774260005448, 13.812270599999465]","[9.293880800018087, 0.04775330005213618, 0.00021770002786070108, 0.05588939995504916, 0.014323699986562133, 0.035384700051508844, 0.04852979991119355, 0.04720150004141033, 0.06272659997921437, 0.06275849998928607, 0.05100149998907, 13.812278799945489]",0,,,,,,,,,,,,,,,,,,,,,,,,,,,,,,,,,,,,,,,,,,,,,,,,,,,,,,,,,,,,,,,,,,,,,,,,,,,,,,,,,,,,,,,,,,,,,,,,,,,,,,,,,,,,,,,,,,,,,,,,,,,,A5PLRQ,train_y,red_square,top_left,2025-03-28_14h15.09.382,HideSeek_v1,2022.2.5,59.939676738451894,
1,2,8,2,3,0,-5,11,2,instr_dim1_1,,,,,,0,0,0,0,,,,,0,0,0,0,,,,,,,,,,,,,,,,,,,,,,,,,,,,,,,,,,,,,stimuli/alien_stimuli/11.png,conditions/schedules/train_y_first/red_square_00/top_left/inputInstr_1.xlsx,stimuli/alien_stimuli/11.png,184.2350596000906,184.2350596000906,184.2350596000906,184.2350596000906,184.22300896004307,return,8.527344699949026,"[-0.16, -0.08, 0, 0.08, 0.16, 0.24, 0.32, 0.4, 0.48, 0.56]","[-0.4, -0.32, -0.24, -0.16, -0.08, 0, 0.08, 0.16, 0.24, 0.32]",3,8,2,2,0.4,0.0,192.9118230000604,192.9118230000604,192.9118230000604,192.9118230000604,192.9118230000604,192.9118230000604,192.9118230000604,192.89666428004855,6.839795300038531,return,6.675268599996343,stimuli/alien_stimuli/11.png,11,2,1,,,,,,,,,,,,,,,,,,,,,,,,,,,,,,,,,,,,,,,,,,,,,,,,,,,,,,,,,,,,,,,,,,,,,,,,,,,,,,,,,,,,,,,,,A5PLRQ,train_y,red_square,top_left,2025-03-28_14h15.09.382,HideSeek_v1,2022.2.5,59.939676738451894,
,,,,,,,,,,,30,,,,0,0,0,0,,,,,,,,,,,,,,,,,,,,,,,,,,,,,,,,,,,,,,,,,,,,,,,,,,,,,,,,,,,,,,,,,,,,,,,,,,,,,,21,0.7,0,0,99,1,30,0,conditions/schedules/train_y_first/red_square_00/top_left/inputTrain_1.1.xlsx,99,1,1,1,0,,,,,,,,,,,,,,,,,,,,,,,,,,,,,,,,,,,,,,,,,,,,,,,,,,,,,,,,,,,,,,,,,,,,,,,,,,,A5PLRQ,train_y,red_square,top_left,2025-03-28_14h15.09.382,HideSeek_v1,2022.2.5,59.939676738451894,
,,,,,,,,,,,,,,,1,0,1,0,0,0,0,0,,,,,,,,,,,,,,,,,,,,,,,,,,,,,,,conditions/schedules/train_y_first/red_square_00/top_left/instructions/Slide13.png,conditions/schedules/train_y_first/red_square_00/top_left/instructions/Audio13.wav,199.74970410007518,199.7524120899965,13,"[9.293861399986781, 18.099270100006834, 16.44489679997787, 19.19620250002481, 5.143331999890506, 4.804168300004676, 5.523309200070798, 11.525010999990627, 6.097582799964584, 6.935380900045857, 10.13774260005448, 13.812270599999465, 16.830572200007737]","[9.293880800018087, 0.04775330005213618, 0.00021770002786070108, 0.05588939995504916, 0.014323699986562133, 0.035384700051508844, 0.04852979991119355, 0.04720150004141033, 0.06272659997921437, 0.06275849998928607, 0.05100149998907, 13.812278799945489, 16.830579700064845]",0,,,,,,,,,,,,,,,,,,,,,,,,,,,,,,,,,,,,,,,,,,,,,,,,,,,,,,,,,,,,,,,,,,,,,,,,,,,,,,,,,,,,,,,,,,,,,,,,,,,,,,,,,,,,,,,,,,,,,,,,,,,,A5PLRQ,train_y,red_square,top_left,2025-03-28_14h15.09.382,HideSeek_v1,2022.2.5,59.939676738451894,
,,,,,,,,,,,,,,,1,0,1,0,1,0,1,0,,,,,,,,,,,,,,,,,,,,,,,,,,,,,,,conditions/schedules/train_y_first/red_square_00/top_left/instructions/Slide14.png,conditions/schedules/train_y_first/red_square_00/top_left/instructions/Audio14.wav,216.64992740005255,216.64992145000724,14,"[9.293861399986781, 18.099270100006834, 16.44489679997787, 19.19620250002481, 5.143331999890506, 4.804168300004676, 5.523309200070798, 11.525010999990627, 6.097582799964584, 6.935380900045857, 10.13774260005448, 13.812270599999465, 16.830572200007737, 16.644751799991354]","[9.293880800018087, 0.04775330005213618, 0.00021770002786070108, 0.05588939995504916, 0.014323699986562133, 0.035384700051508844, 0.04852979991119355, 0.04720150004141033, 0.06272659997921437, 0.06275849998928607, 0.05100149998907, 13.812278799945489, 0.03088989993557334, 16.64476299996022]",0,,,,,,,,,,,,,,,,,,,,,,,,,,,,,,,,,,,,,,,,,,,,,,,,,,,,,,,,,,,,,,,,,,,,,,,,,,,,,,,,,,,,,,,,,,,,,,,,,,,,,,,,,,,,,,,,,,,,,,,,,,,,A5PLRQ,train_y,red_square,top_left,2025-03-28_14h15.09.382,HideSeek_v1,2022.2.5,59.939676738451894,
2,0,8,0,8,0,0,16,2,instr_dim1_1,,,,,,1,0,1,0,,,,,0,0,0,0,,,,,,,,,,,,,,,,,,,,,,,,,,,,,,,,,,,,,stimuli/alien_stimuli/16.png,conditions/schedules/train_y_first/red_square_00/top_left/inputInstr_1.xlsx,stimuli/alien_stimuli/16.png,233.38386960001662,233.38386960001662,233.38386960001662,233.38386960001662,233.38067856002598,return,6.841481099952944,"[-0.16, -0.08, 0, 0.08, 0.16, 0.24, 0.32, 0.4, 0.48, 0.56]","[-0.4, -0.32, -0.24, -0.16, -0.08, 0, 0.08, 0.16, 0.24, 0.32]",8,8,0,0,0.0,0.0,240.38207870000042,240.38207870000042,240.38207870000042,240.38207870000042,240.38207870000042,240.38207870000042,240.38207870000042,240.36954278005285,5.071779699996114,return,4.9092145001050085,stimuli/alien_stimuli/16.png,16,0,2,,,,,,,,,,,,,,,,,,,,,,,,,,,,,,,,,,,,,,,,,,,,,,,,,,,,,,,,,,,,,,,,,,,,,,,,,,,,,,,,,,,,,,,,,A5PLRQ,train_y,red_square,top_left,2025-03-28_14h15.09.382,HideSeek_v1,2022.2.5,59.939676738451894,
,,,,,,,,,,,30,,,,1,0,1,0,,,,,,,,,,,,,,,,,,,,,,,,,,,,,,,,,,,,,,,,,,,,,,,,,,,,,,,,,,,,,,,,,,,,,,,,,,,,,,21,0.7,0,0,99,1,30,0,conditions/schedules/train_y_first/red_square_00/top_left/inputTrain_1.1.xlsx,99,1,1,1,0,,,,,,,,,,,,,,,,,,,,,,,,,,,,,,,,,,,,,,,,,,,,,,,,,,,,,,,,,,,,,,,,,,,,,,,,,,,A5PLRQ,train_y,red_square,top_left,2025-03-28_14h15.09.382,HideSeek_v1,2022.2.5,59.939676738451894,
,,,,,,,,,,,,,,,2,0,2,0,0,0,0,0,,,,,,,,,,,,,,,,,,,,,,,,,,,,,,,conditions/schedules/train_y_first/red_square_00/top_left/instructions/Slide15.png,conditions/schedules/train_y_first/red_square_00/top_left/instructions/Audio15.wav,245.47595260001253,245.47385509999003,15,"[9.293861399986781, 18.099270100006834, 16.44489679997787, 19.19620250002481, 5.143331999890506, 4.804168300004676, 5.523309200070798, 11.525010999990627, 6.097582799964584, 6.935380900045857, 10.13774260005448, 13.812270599999465, 16.830572200007737, 16.644751799991354, 43.415338700055145]","[9.293880800018087, 0.04775330005213618, 0.00021770002786070108, 0.05588939995504916, 0.014323699986562133, 0.035384700051508844, 0.04852979991119355, 0.04720150004141033, 0.06272659997921437, 0.06275849998928607, 0.05100149998907, 13.812278799945489, 0.03088989993557334, 16.64476299996022, 43.41534609999508]",0,,,,,,,,,,,,,,,,,,,,,,,,,,,,,,,,,,,,,,,,,,,,,,,,,,,,,,,,,,,,,,,,,,,,,,,,,,,,,,,,,,,,,,,,,,,,,,,,,,,,,,,,,,,,,,,,,,,,,,,,,,,,A5PLRQ,train_y,red_square,top_left,2025-03-28_14h15.09.382,HideSeek_v1,2022.2.5,59.939676738451894,
,,,,,,,,,,,,,,,2,0,2,0,1,0,1,0,,,,,,,,,,,,,,,,,,,,,,,,,,,,,,,conditions/schedules/train_y_first/red_square_00/top_left/instructions/Slide16.png,conditions/schedules/train_y_first/red_square_00/top_left/instructions/Audio16.wav,288.95834000001196,288.9599965500529,16,"[9.293861399986781, 18.099270100006834, 16.44489679997787, 19.19620250002481, 5.143331999890506, 4.804168300004676, 5.523309200070798, 11.525010999990627, 6.097582799964584, 6.935380900045857, 10.13774260005448, 13.812270599999465, 16.830572200007737, 16.644751799991354, 43.415338700055145, 24.619315100018866]","[9.293880800018087, 0.04775330005213618, 0.00021770002786070108, 0.05588939995504916, 0.014323699986562133, 0.035384700051508844, 0.04852979991119355, 0.04720150004141033, 0.06272659997921437, 0.06275849998928607, 0.05100149998907, 13.812278799945489, 0.03088989993557334, 16.64476299996022, 0.14898339996580034, 24.619322999962606]",0,,,,,,,,,,,,,,,,,,,,,,,,,,,,,,,,,,,,,,,,,,,,,,,,,,,,,,,,,,,,,,,,,,,,,,,,,,,,,,,,,,,,,,,,,,,,,,,,,,,,,,,,,,,,,,,,,,,,,,,,,,,,A5PLRQ,train_y,red_square,top_left,2025-03-28_14h15.09.382,HideSeek_v1,2022.2.5,59.939676738451894,
,0,5,0,4,0,-1,15,,train_dim1_1,1,30,,,,2,0,2,0,,,,,,,,,0,0,0,0,0,0,0,0,0,0,0,0,,,,,,,,,,,,,,,,,,,,,,,,,stimuli/alien_stimuli/15.png,,,,,,,,,,,,,,,,,,,,,,,,,,,,,,,,,,,,,,,30,,,,,,,,313.68063770001754,313.68063770001754,313.68063770001754,313.68063770001754,313.68063770001754,right,3.914259699988179,0,0,0,99,-0.08,0,right,3.815040500019677,,,,,,,,,,,,,,,,,,,,,,,,,,,,,,,,,,,,,,,,,,,,,,,,,,,,,,,,,,,,A5PLRQ,train_y,red_square,top_left,2025-03-28_14h15.09.382,HideSeek_v1,2022.2.5,59.939676738451894,
,0,5,0,4,0,-1,15,,train_dim1_1,1,30,,,,2,0,2,0,,,,,,,,,0,0,0,0,0,0,0,0,1,0,1,0,,,,,,,,,,,,,,,,,,,,,,,,,,,,,,,,,,,,,,,,,,,,,,,,,,,,,,,,,,,,,,,,30,,,,,,,,317.58511510002427,317.58511510002427,317.58511510002427,317.58511510002427,317.58511510002427,left,1.9770174999721348,0,0,0,99,-0.16,0,left,1.8893200000748038,,,,,,,,,,,,,,,,,,,,,,,,,,,,,,,,,,,,,,,,,,,,,,,,,,,,,,,,,,,,A5PLRQ,train_y,red_square,top_left,2025-03-28_14h15.09.382,HideSeek_v1,2022.2.5,59.939676738451894,
,0,5,0,4,0,-1,15,,train_dim1_1,1,30,,,,2,0,2,0,,,,,,,,,0,0,0,0,0,0,0,0,2,0,2,0,,,,,,,,,,,,,,,,,,,,,,,,,,,,,,,,,,,,,,,,,,,,,,,,,,,,,,,,,,,,,,,,30,,,,,,,,319.56973670003936,319.56973670003936,319.56973670003936,319.56973670003936,319.56973670003936,return,0.693081000004895,0,1,0,0,-0.16,0,return,0.6044868000317365,0,0,-0.16,0,,,,,,,,,,,,,,,,,,,,,,,,,,,,,,,,,,,,,,,,,,,,,,,,,,,,,,,,A5PLRQ,train_y,red_square,top_left,2025-03-28_14h15.09.382,HideSeek_v1,2022.2.5,59.939676738451894,
,3,7,3,7,0,0,16,,train_dim1_1,2,30,,,,2,0,2,0,,,,,,,,,0,0,0,0,0,1,1,1,0,0,0,0,,,,,,,,,,,,,,,,,,,,,,,,,stimuli/alien_stimuli/16.png,,,,,,,,,,,,,,,,,,,,,,,,,,,,,stimuli/alien_stimuli/15.png,15,0,3,,,,,,,30,,,,,,,,338.1009987000143,338.1009987000143,338.1009987000143,338.1009987000143,338.1009987000143,down,4.875401399913244,0,1,0,99,0.08,0.08,down,4.777228999999352,,,,,336.5325995000312,338.1009987000143,-0.16,-0.08,0.08,0.0,-0.04,-0.16,-0.16,-0.16,-0.08,321.8316527000861,321.8316527000861,321.8316527000861,321.8316527000861,321.8316527000861,321.8316527000861,321.8316527000861,321.8316527000861,321.8205011699931,14.814416000037454,return,14.677794099901803,,,,,,,,,,,,,,,,,,,,,,,,,,,,,,,,,A5PLRQ,train_y,red_square,top_left,2025-03-28_14h15.09.382,HideSeek_v1,2022.2.5,59.939676738451894,
,3,7,3,7,0,0,16,,train_dim1_1,2,30,,,,2,0,2,0,,,,,,,,,0,0,0,0,0,1,1,1,1,0,1,0,,,,,,,,,,,,,,,,,,,,,,,,,,,,,,,,,,,,,,,,,,,,,,,,,,,,,,,,,,,,,,,,30,,,,,,,,342.9728379000444,342.9728379000444,342.9728379000444,342.9728379000444,342.9728379000444,return,1.9774715000530705,0,1,0,0,0.08,0.08,return,1.8858014999423176,-1,0,0.08,0.08,,,,,,,,,,,,,,,,,,,,,,,,,,,,,,,,,,,,,,,,,,,,,,,,,,,,,,,,A5PLRQ,train_y,red_square,top_left,2025-03-28_14h15.09.382,HideSeek_v1,2022.2.5,59.939676738451894,
,2,8,2,5,0,-3,13,,train_dim1_1,3,30,,,,2,0,2,0,,,,,,,,,0,0,0,0,0,2,2,2,0,0,0,0,,,,,,,,,,,,,,,,,,,,,,,,,stimuli/alien_stimuli/13.png,,,,,,,,,,,,,,,,,,,,,,,,,,,,,stimuli/alien_stimuli/16.png,16,3,4,,,,,,,30,,,,,,,,355.8049879000755,355.8049879000755,355.8049879000755,355.8049879000755,355.8049879000755,down,3.490864400053397,0,1,0,99,0,0.15999999999999998,down,3.409756899927743,,,,,354.24754330003634,355.8049879000755,0.08,0.16,0.0,0.0,0.16,0.08,0.08,0.08,0.16,346.51832600007765,346.51832600007765,346.51832600007765,346.51832600007765,346.51832600007765,346.51832600007765,346.51832600007765,346.51832600007765,346.50769887001957,7.842443499946967,return,7.696878699935041,,,,,,,,,,,,,,,,,,,,,,,,,,,,,,,,,A5PLRQ,train_y,red_square,top_left,2025-03-28_14h15.09.382,HideSeek_v1,2022.2.5,59.939676738451894,
,2,8,2,5,0,-3,13,,train_dim1_1,3,30,,,,2,0,2,0,,,,,,,,,0,0,0,0,0,2,2,2,1,0,1,0,,,,,,,,,,,,,,,,,,,,,,,,,,,,,,,,,,,,,,,,,,,,,,,,,,,,,,,,,,,,,,,,30,,,,,,,,359.30268600001,359.30268600001,359.30268600001,359.30268600001,359.30268600001,return,1.4598480000859126,0,0,0,0,0,0.15999999999999998,return,1.3733712000539526,-2,0,0,0.15999999999999998,,,,,,,,,,,,,,,,,,,,,,,,,,,,,,,,,,,,,,,,,,,,,,,,,,,,,,,,A5PLRQ,train_y,red_square,top_left,2025-03-28_14h15.09.382,HideSeek_v1,2022.2.5,59.939676738451894,
,0,6,0,2,0,-4,12,,train_dim1_1,4,30,,,,2,0,2,0,,,,,,,,,0,0,0,0,0,3,3,3,0,0,0,0,,,,,,,,,,,,,,,,,,,,,,,,,stimuli/alien_stimuli/12.png,,,,,,,,,,,,,,,,,,,,,,,,,,,,,stimuli/alien_stimuli/13.png,13,2,5,,,,,,,30,,,,,,,,373.26157169998623,373.26157169998623,373.26157169998623,373.26157169998623,373.26157169998623,right,3.0905392999993637,0,0,0,99,-0.08,0.08,right,2.9992591999471188,,,,,371.69548260001466,373.26157169998623,0,0,0.24,0.0,0.12,0,0.0,0,0,362.32377980009187,362.32377980009187,362.32377980009187,362.32377980009187,362.32377980009187,362.32377980009187,362.32377980009187,362.32377980009187,362.32083597009773,9.476959899999201,return,9.350909500033595,,,,,,,,,,,,,,,,,,,,,,,,,,,,,,,,,A5PLRQ,train_y,red_square,top_left,2025-03-28_14h15.09.382,HideSeek_v1,2022.2.5,59.939676738451894,
,0,6,0,2,0,-4,12,,train_dim1_1,4,30,,,,2,0,2,0,,,,,,,,,0,0,0,0,0,3,3,3,1,0,1,0,,,,,,,,,,,,,,,,,,,,,,,,,,,,,,,,,,,,,,,,,,,,,,,,,,,,,,,,,,,,,,,,30,,,,,,,,376.34961190004833,376.34961190004833,376.34961190004833,376.34961190004833,376.34961190004833,right,0.4092596999835223,0,0,0,99,0.0,0.08,right,0.32876199996098876,,,,,,,,,,,,,,,,,,,,,,,,,,,,,,,,,,,,,,,,,,,,,,,,,,,,,,,,,,,,A5PLRQ,train_y,red_square,top_left,2025-03-28_14h15.09.382,HideSeek_v1,2022.2.5,59.939676738451894,
,0,6,0,2,0,-4,12,,train_dim1_1,4,30,,,,2,0,2,0,,,,,,,,,0,0,0,0,0,3,3,3,2,0,2,0,,,,,,,,,,,,,,,,,,,,,,,,,,,,,,,,,,,,,,,,,,,,,,,,,,,,,,,,,,,,,,,,30,,,,,,,,376.76614590000827,376.76614590000827,376.76614590000827,376.76614590000827,376.76614590000827,right,0.41036700003314763,0,0,0,99,0.08,0.08,right,0.32306740002240986,,,,,,,,,,,,,,,,,,,,,,,,,,,,,,,,,,,,,,,,,,,,,,,,,,,,,,,,,,,,A5PLRQ,train_y,red_square,top_left,2025-03-28_14h15.09.382,HideSeek_v1,2022.2.5,59.939676738451894,
,0,6,0,2,0,-4,12,,train_dim1_1,4,30,,,,2,0,2,0,,,,,,,,,0,0,0,0,0,3,3,3,3,0,3,0,,,,,,,,,,,,,,,,,,,,,,,,,,,,,,,,,,,,,,,,,,,,,,,,,,,,,,,,,,,,,,,,30,,,,,,,,377.1838502000319,377.1838502000319,377.1838502000319,377.1838502000319,377.1838502000319,right,0.39300909999292344,0,0,0,99,0.16,0.08,right,0.3157425000099465,,,,,,,,,,,,,,,,,,,,,,,,,,,,,,,,,,,,,,,,,,,,,,,,,,,,,,,,,,,,A5PLRQ,train_y,red_square,top_left,2025-03-28_14h15.09.382,HideSeek_v1,2022.2.5,59.939676738451894,
,0,6,0,2,0,-4,12,,train_dim1_1,4,30,,,,2,0,2,0,,,,,,,,,0,0,0,0,0,3,3,3,4,0,4,0,,,,,,,,,,,,,,,,,,,,,,,,,,,,,,,,,,,,,,,,,,,,,,,,,,,,,,,,,,,,,,,,30,,,,,,,,377.58400000003166,377.58400000003166,377.58400000003166,377.58400000003166,377.58400000003166,right,0.4098355999449268,0,0,0,99,0.24,0.08,right,0.328994799987413,,,,,,,,,,,,,,,,,,,,,,,,,,,,,,,,,,,,,,,,,,,,,,,,,,,,,,,,,,,,A5PLRQ,train_y,red_square,top_left,2025-03-28_14h15.09.382,HideSeek_v1,2022.2.5,59.939676738451894,
,0,6,0,2,0,-4,12,,train_dim1_1,4,30,,,,2,0,2,0,,,,,,,,,0,0,0,0,0,3,3,3,5,0,5,0,,,,,,,,,,,,,,,,,,,,,,,,,,,,,,,,,,,,,,,,,,,,,,,,,,,,,,,,,,,,,,,,30,,,,,,,,377.99983330001123,377.99983330001123,377.99983330001123,377.99983330001123,377.99983330001123,return,1.4774345000041649,0,0,0,0,0.24,0.08,return,1.3921407000161707,-2,5,0.24,0.08,,,,,,,,,,,,,,,,,,,,,,,,,,,,,,,,,,,,,,,,,,,,,,,,,,,,,,,,A5PLRQ,train_y,red_square,top_left,2025-03-28_14h15.09.382,HideSeek_v1,2022.2.5,59.939676738451894,
,3,8,3,3,0,-5,11,,train_dim1_1,5,30,,,,2,0,2,0,,,,,,,,,0,0,0,0,0,4,4,4,0,0,0,0,,,,,,,,,,,,,,,,,,,,,,,,,stimuli/alien_stimuli/11.png,,,,,,,,,,,,,,,,,,,,,,,,,,,,,stimuli/alien_stimuli/12.png,12,0,6,,,,,,,30,,,,,,,,387.1991776000941,387.1991776000941,387.1991776000941,387.1991776000941,387.1991776000941,down,3.2218758000526577,0,0,0,99,0.08,0.15999999999999998,down,3.1313862999668345,,,,,385.6401057000039,387.1991776000941,-0.16,-0.24,0.32,0.0,-0.07999999999999999,-0.16,-0.16,-0.16,-0.24,381.05110710009467,381.05110710009467,381.05110710009467,381.05110710009467,381.05110710009467,381.05110710009467,381.05110710009467,381.05110710009467,381.03637207007273,4.706090099993162,return,4.571983499918133,,,,,,,,,,,,,,,,,,,,,,,,,,,,,,,,,A5PLRQ,train_y,red_square,top_left,2025-03-28_14h15.09.382,HideSeek_v1,2022.2.5,59.939676738451894,
,3,8,3,3,0,-5,11,,train_dim1_1,5,30,,,,2,0,2,0,,,,,,,,,0,0,0,0,0,4,4,4,1,0,1,0,,,,,,,,,,,,,,,,,,,,,,,,,,,,,,,,,,,,,,,,,,,,,,,,,,,,,,,,,,,,,,,,30,,,,,,,,390.4288971000351,390.4288971000351,390.4288971000351,390.4288971000351,390.4288971000351,down,0.6423840000061318,0,0,0,99,0.08,0.07999999999999997,down,0.5666733999969438,,,,,,,,,,,,,,,,,,,,,,,,,,,,,,,,,,,,,,,,,,,,,,,,,,,,,,,,,,,,A5PLRQ,train_y,red_square,top_left,2025-03-28_14h15.09.382,HideSeek_v1,2022.2.5,59.939676738451894,
,3,8,3,3,0,-5,11,,train_dim1_1,5,30,,,,2,0,2,0,,,,,,,,,0,0,0,0,0,4,4,4,2,0,2,0,,,,,,,,,,,,,,,,,,,,,,,,,,,,,,,,,,,,,,,,,,,,,,,,,,,,,,,,,,,,,,,,30,,,,,,,,391.07767860009335,391.07767860009335,391.07767860009335,391.07767860009335,391.07767860009335,down,0.5935399000300094,0,0,0,99,0.08,-2.7755575615628914e-17,down,0.5065537999616936,,,,,,,,,,,,,,,,,,,,,,,,,,,,,,,,,,,,,,,,,,,,,,,,,,,,,,,,,,,,A5PLRQ,train_y,red_square,top_left,2025-03-28_14h15.09.382,HideSeek_v1,2022.2.5,59.939676738451894,
,3,8,3,3,0,-5,11,,train_dim1_1,5,30,,,,2,0,2,0,,,,,,,,,0,0,0,0,0,4,4,4,3,0,3,0,,,,,,,,,,,,,,,,,,,,,,,,,,,,,,,,,,,,,,,,,,,,,,,,,,,,,,,,,,,,,,,,30,,,,,,,,391.6784617000958,391.6784617000958,391.6784617000958,391.6784617000958,391.6784617000958,down,0.5270383999450132,0,0,0,99,0.08,-0.08000000000000003,down,0.45004000002518296,,,,,,,,,,,,,,,,,,,,,,,,,,,,,,,,,,,,,,,,,,,,,,,,,,,,,,,,,,,,A5PLRQ,train_y,red_square,top_left,2025-03-28_14h15.09.382,HideSeek_v1,2022.2.5,59.939676738451894,
,3,8,3,3,0,-5,11,,train_dim1_1,5,30,,,,2,0,2,0,,,,,,,,,0,0,0,0,0,4,4,4,4,0,4,0,,,,,,,,,,,,,,,,,,,,,,,,,,,,,,,,,,,,,,,,,,,,,,,,,,,,,,,,,,,,,,,,30,,,,,,,,392.2129229999846,392.2129229999846,392.2129229999846,392.2129229999846,392.2129229999846,return,0.6597671000054106,0,1,0,0,0.08,-0.08000000000000003,return,0.5741406999295577,-6,5,0.08,-0.08000000000000003,,,,,,,,,,,,,,,,,,,,,,,,,,,,,,,,,,,,,,,,,,,,,,,,,,,,,,,,A5PLRQ,train_y,red_square,top_left,2025-03-28_14h15.09.382,HideSeek_v1,2022.2.5,59.939676738451894,
,1,9,1,5,0,-4,12,,train_dim1_1,6,30,,,,2,0,2,0,,,,,,,,,0,0,0,0,0,5,5,5,0,0,0,0,,,,,,,,,,,,,,,,,,,,,,,,,stimuli/alien_stimuli/12.png,,,,,,,,,,,,,,,,,,,,,,,,,,,,,stimuli/alien_stimuli/11.png,11,3,7,,,,,,,30,,,,,,,,401.0619378000265,401.0619378000265,401.0619378000265,401.0619378000265,401.0619378000265,down,3.538423700025305,0,1,0,99,-0.08,0.24,down,3.460235000005923,,,,,399.50173800007906,401.0619378000265,0.08,-0.16,0.4,0.0,0.039999999999999994,0.08,0.08,0.08,-0.16,394.4382040000055,394.4382040000055,394.4382040000055,394.4382040000055,394.4382040000055,394.4382040000055,394.4382040000055,394.4382040000055,394.4308382701013,5.173066300107166,return,5.0331430999794975,,,,,,,,,,,,,,,,,,,,,,,,,,,,,,,,,A5PLRQ,train_y,red_square,top_left,2025-03-28_14h15.09.382,HideSeek_v1,2022.2.5,59.939676738451894,
,1,9,1,5,0,-4,12,,train_dim1_1,6,30,,,,2,0,2,0,,,,,,,,,0,0,0,0,0,5,5,5,1,0,1,0,,,,,,,,,,,,,,,,,,,,,,,,,,,,,,,,,,,,,,,,,,,,,,,,,,,,,,,,,,,,,,,,30,,,,,,,,404.60545260005165,404.60545260005165,404.60545260005165,404.60545260005165,404.60545260005165,down,0.5763829000061378,0,1,0,99,-0.08,0.15999999999999998,down,0.49636670004110783,,,,,,,,,,,,,,,,,,,,,,,,,,,,,,,,,,,,,,,,,,,,,,,,,,,,,,,,,,,,A5PLRQ,train_y,red_square,top_left,2025-03-28_14h15.09.382,HideSeek_v1,2022.2.5,59.939676738451894,
,1,9,1,5,0,-4,12,,train_dim1_1,6,30,,,,2,0,2,0,,,,,,,,,0,0,0,0,0,5,5,5,2,0,2,0,,,,,,,,,,,,,,,,,,,,,,,,,,,,,,,,,,,,,,,,,,,,,,,,,,,,,,,,,,,,,,,,30,,,,,,,,405.19188380008563,405.19188380008563,405.19188380008563,405.19188380008563,405.19188380008563,down,0.5434276999440044,0,1,0,99,-0.08,0.07999999999999997,down,0.45781709998846054,,,,,,,,,,,,,,,,,,,,,,,,,,,,,,,,,,,,,,,,,,,,,,,,,,,,,,,,,,,,A5PLRQ,train_y,red_square,top_left,2025-03-28_14h15.09.382,HideSeek_v1,2022.2.5,59.939676738451894,
,1,9,1,5,0,-4,12,,train_dim1_1,6,30,,,,2,0,2,0,,,,,,,,,0,0,0,0,0,5,5,5,3,0,3,0,,,,,,,,,,,,,,,,,,,,,,,,,,,,,,,,,,,,,,,,,,,,,,,,,,,,,,,,,,,,,,,,30,,,,,,,,405.7403337000869,405.7403337000869,405.7403337000869,405.7403337000869,405.7403337000869,down,0.5436728000640869,0,1,0,99,-0.08,-2.7755575615628914e-17,down,0.4538272999925539,,,,,,,,,,,,,,,,,,,,,,,,,,,,,,,,,,,,,,,,,,,,,,,,,,,,,,,,,,,,A5PLRQ,train_y,red_square,top_left,2025-03-28_14h15.09.382,HideSeek_v1,2022.2.5,59.939676738451894,
,1,9,1,5,0,-4,12,,train_dim1_1,6,30,,,,2,0,2,0,,,,,,,,,0,0,0,0,0,5,5,5,4,0,4,0,,,,,,,,,,,,,,,,,,,,,,,,,,,,,,,,,,,,,,,,,,,,,,,,,,,,,,,,,,,,,,,,30,,,,,,,,406.29062900005374,406.29062900005374,406.29062900005374,406.29062900005374,406.29062900005374,return,1.6609938000328839,1,0,0,1,-0.08,-2.7755575615628914e-17,return,1.576918700011447,-10,5,-0.08,-2.7755575615628914e-17,,,,,,,,,,,,,,,,,,,,,,,,,,,,,,,,,,,,,,,,,,,,,,,,,,,,,,,,A5PLRQ,train_y,red_square,top_left,2025-03-28_14h15.09.382,HideSeek_v1,2022.2.5,59.939676738451894,
,1,8,1,5,0,-3,13,,train_dim1_1,7,30,,,,2,0,2,0,,,,,,,,,0,0,0,0,0,6,6,6,0,0,0,0,,,,,,,,,,,,,,,,,,,,,,,,,stimuli/alien_stimuli/13.png,,,,,,,,,,,,,,,,,,,,,,,,,,,,,stimuli/alien_stimuli/12.png,12,1,8,,,,,,,30,,,,,,,,413.1517727000173,413.1517727000173,413.1517727000173,413.1517727000173,413.1517727000173,right,8.127131700050086,1,0,0,99,0.0,0.24,right,8.044875300023705,,,,,411.59502410003915,413.1517727000173,-0.08,0,0.32,0.0,0.16,-0.08,-0.08,-0.08,0,409.5177753000753,409.5177753000753,409.5177753000753,409.5177753000753,409.5177753000753,409.5177753000753,409.5177753000753,409.5177753000753,409.5101849700907,2.1870811000699177,return,2.053373900009319,,,,,,,,,,,,,,,,,,,,,,,,,,,,,,,,,A5PLRQ,train_y,red_square,top_left,2025-03-28_14h15.09.382,HideSeek_v1,2022.2.5,59.939676738451894,
,1,8,1,5,0,-3,13,,train_dim1_1,7,30,,,,2,0,2,0,,,,,,,,,0,0,0,0,0,6,6,6,1,0,1,0,,,,,,,,,,,,,,,,,,,,,,,,,,,,,,,,,,,,,,,,,,,,,,,,,,,,,,,,,,,,,,,,30,,,,,,,,421.28641050006263,421.28641050006263,421.28641050006263,421.28641050006263,421.28641050006263,right,0.5428083000006154,1,0,0,99,0.08,0.24,right,0.4569830000400543,,,,,,,,,,,,,,,,,,,,,,,,,,,,,,,,,,,,,,,,,,,,,,,,,,,,,,,,,,,,A5PLRQ,train_y,red_square,top_left,2025-03-28_14h15.09.382,HideSeek_v1,2022.2.5,59.939676738451894,
,1,8,1,5,0,-3,13,,train_dim1_1,7,30,,,,2,0,2,0,,,,,,,,,0,0,0,0,0,6,6,6,2,0,2,0,,,,,,,,,,,,,,,,,,,,,,,,,,,,,,,,,,,,,,,,,,,,,,,,,,,,,,,,,,,,,,,,30,,,,,,,,421.83654819999356,421.83654819999356,421.83654819999356,421.83654819999356,421.83654819999356,return,0.7436329000629485,1,0,0,0,0.08,0.24,return,0.6686019999906421,-10,7,0.08,0.24,,,,,,,,,,,,,,,,,,,,,,,,,,,,,,,,,,,,,,,,,,,,,,,,,,,,,,,,A5PLRQ,train_y,red_square,top_left,2025-03-28_14h15.09.382,HideSeek_v1,2022.2.5,59.939676738451894,
,4,7,4,2,0,-5,11,,train_dim1_1,8,30,,,,2,0,2,0,,,,,,,,,0,0,0,0,0,7,7,7,0,0,0,0,,,,,,,,,,,,,,,,,,,,,,,,,stimuli/alien_stimuli/11.png,,,,,,,,,,,,,,,,,,,,,,,,,,,,,stimuli/alien_stimuli/13.png,13,1,9,,,,,,,30,,,,,,,,430.2001426999923,430.2001426999923,430.2001426999923,430.2001426999923,430.2001426999923,down,4.174236000049859,1,0,0,99,0.16,0.08,down,4.082933200057596,,,,,428.6425600000657,430.2001426999923,-0.08,0,0.24,0.0,0.12,-0.08,-0.08,-0.08,0,424.1504554999992,424.1504554999992,424.1504554999992,424.1504554999992,424.1504554999992,424.1504554999992,424.1504554999992,424.1504554999992,424.1388800700545,4.6062100999988616,return,4.469872300047427,,,,,,,,,,,,,,,,,,,,,,,,,,,,,,,,,A5PLRQ,train_y,red_square,top_left,2025-03-28_14h15.09.382,HideSeek_v1,2022.2.5,59.939676738451894,
,4,7,4,2,0,-5,11,,train_dim1_1,8,30,,,,2,0,2,0,,,,,,,,,0,0,0,0,0,7,7,7,1,0,1,0,,,,,,,,,,,,,,,,,,,,,,,,,,,,,,,,,,,,,,,,,,,,,,,,,,,,,,,,,,,,,,,,30,,,,,,,,434.3823226999957,434.3823226999957,434.3823226999957,434.3823226999957,434.3823226999957,down,0.4419764999765903,1,0,0,99,0.16,0.0,down,0.35798060009256005,,,,,,,,,,,,,,,,,,,,,,,,,,,,,,,,,,,,,,,,,,,,,,,,,,,,,,,,,,,,A5PLRQ,train_y,red_square,top_left,2025-03-28_14h15.09.382,HideSeek_v1,2022.2.5,59.939676738451894,
,4,7,4,2,0,-5,11,,train_dim1_1,8,30,,,,2,0,2,0,,,,,,,,,0,0,0,0,0,7,7,7,2,0,2,0,,,,,,,,,,,,,,,,,,,,,,,,,,,,,,,,,,,,,,,,,,,,,,,,,,,,,,,,,,,,,,,,30,,,,,,,,434.83030860009603,434.83030860009603,434.83030860009603,434.83030860009603,434.83030860009603,down,0.760417899931781,1,0,0,99,0.16,-0.08,down,0.6734860999276862,,,,,,,,,,,,,,,,,,,,,,,,,,,,,,,,,,,,,,,,,,,,,,,,,,,,,,,,,,,,A5PLRQ,train_y,red_square,top_left,2025-03-28_14h15.09.382,HideSeek_v1,2022.2.5,59.939676738451894,
,4,7,4,2,0,-5,11,,train_dim1_1,8,30,,,,2,0,2,0,,,,,,,,,0,0,0,0,0,7,7,7,3,0,3,0,,,,,,,,,,,,,,,,,,,,,,,,,,,,,,,,,,,,,,,,,,,,,,,,,,,,,,,,,,,,,,,,30,,,,,,,,435.6004612999968,435.6004612999968,435.6004612999968,435.6004612999968,435.6004612999968,down,0.45848300005309284,1,0,0,99,0.16,-0.16,down,0.3780997999710962,,,,,,,,,,,,,,,,,,,,,,,,,,,,,,,,,,,,,,,,,,,,,,,,,,,,,,,,,,,,A5PLRQ,train_y,red_square,top_left,2025-03-28_14h15.09.382,HideSeek_v1,2022.2.5,59.939676738451894,
,4,7,4,2,0,-5,11,,train_dim1_1,8,30,,,,2,0,2,0,,,,,,,,,0,0,0,0,0,7,7,7,4,0,4,0,,,,,,,,,,,,,,,,,,,,,,,,,,,,,,,,,,,,,,,,,,,,,,,,,,,,,,,,,,,,,,,,30,,,,,,,,436.06537150009535,436.06537150009535,436.06537150009535,436.06537150009535,436.06537150009535,return,0.41007370001170784,1,1,0,0,0.16,-0.16,return,0.3305539999855682,-14,7,0.16,-0.16,,,,,,,,,,,,,,,,,,,,,,,,,,,,,,,,,,,,,,,,,,,,,,,,,,,,,,,,A5PLRQ,train_y,red_square,top_left,2025-03-28_14h15.09.382,HideSeek_v1,2022.2.5,59.939676738451894,
,4,8,4,7,0,-1,15,,train_dim1_1,9,30,,,,2,0,2,0,,,,,,,,,0,0,0,0,0,8,8,8,0,0,0,0,,,,,,,,,,,,,,,,,,,,,,,,,stimuli/alien_stimuli/15.png,,,,,,,,,,,,,,,,,,,,,,,,,,,,,stimuli/alien_stimuli/11.png,11,4,10,,,,,,,30,,,,,,,,441.2097618000116,441.2097618000116,441.2097618000116,441.2097618000116,441.2097618000116,down,4.957349099917337,1,1,0,99,0.16,0.15999999999999998,down,4.876226700027473,,,,,439.6516608000966,441.2097618000116,0.16,-0.24,0.4,0.0,-0.039999999999999994,0.16,0.16,0.16,-0.24,438.0477591000963,438.0477591000963,438.0477591000963,438.0477591000963,438.0477591000963,438.0477591000963,438.0477591000963,438.0477591000963,438.0337563700625,1.7205120000289753,return,1.5881999999983236,,,,,,,,,,,,,,,,,,,,,,,,,,,,,,,,,A5PLRQ,train_y,red_square,top_left,2025-03-28_14h15.09.382,HideSeek_v1,2022.2.5,59.939676738451894,
,4,8,4,7,0,-1,15,,train_dim1_1,9,30,,,,2,0,2,0,,,,,,,,,0,0,0,0,0,8,8,8,1,0,1,0,,,,,,,,,,,,,,,,,,,,,,,,,,,,,,,,,,,,,,,,,,,,,,,,,,,,,,,,,,,,,,,,30,,,,,,,,446.1751375000458,446.1751375000458,446.1751375000458,446.1751375000458,446.1751375000458,return,0.37591160007286817,2,0,0,1,0.16,0.15999999999999998,return,0.29155980003997684,-15,7,0.16,0.15999999999999998,,,,,,,,,,,,,,,,,,,,,,,,,,,,,,,,,,,,,,,,,,,,,,,,,,,,,,,,A5PLRQ,train_y,red_square,top_left,2025-03-28_14h15.09.382,HideSeek_v1,2022.2.5,59.939676738451894,
,2,7,2,7,0,0,16,,train_dim1_1,10,30,,,,2,0,2,0,,,,,,,,,0,0,0,0,0,9,9,9,0,0,0,0,,,,,,,,,,,,,,,,,,,,,,,,,stimuli/alien_stimuli/16.png,,,,,,,,,,,,,,,,,,,,,,,,,,,,,stimuli/alien_stimuli/15.png,15,4,11,,,,,,,30,,,,,,,,451.40085850004107,451.40085850004107,451.40085850004107,451.40085850004107,451.40085850004107,down,1.6714824000373483,2,0,0,99,0,0.08,down,1.5951760000316426,,,,,449.8433438000502,451.40085850004107,0.16,0.16,0.08,0.0,0.2,0.16,0.16,0.16,0.16,448.1096211000113,448.1096211000113,448.1096211000113,448.1096211000113,448.1096211000113,448.1096211000113,448.1096211000113,448.1096211000113,448.1087627700647,1.8370607999386266,return,1.7022415000246838,,,,,,,,,,,,,,,,,,,,,,,,,,,,,,,,,A5PLRQ,train_y,red_square,top_left,2025-03-28_14h15.09.382,HideSeek_v1,2022.2.5,59.939676738451894,
,2,7,2,7,0,0,16,,train_dim1_1,10,30,,,,2,0,2,0,,,,,,,,,0,0,0,0,0,9,9,9,1,0,1,0,,,,,,,,,,,,,,,,,,,,,,,,,,,,,,,,,,,,,,,,,,,,,,,,,,,,,,,,,,,,,,,,30,,,,,,,,453.080343300011,453.080343300011,453.080343300011,453.080343300011,453.080343300011,return,0.325825999956578,2,1,0,0,0,0.08,return,0.23992349999025464,-16,7,0,0.08,,,,,,,,,,,,,,,,,,,,,,,,,,,,,,,,,,,,,,,,,,,,,,,,,,,,,,,,A5PLRQ,train_y,red_square,top_left,2025-03-28_14h15.09.382,HideSeek_v1,2022.2.5,59.939676738451894,
,4,6,4,5,0,-1,15,,train_dim1_1,11,30,,,,2,0,2,0,,,,,,,,,0,0,0,0,0,10,10,10,0,0,0,0,,,,,,,,,,,,,,,,,,,,,,,,,stimuli/alien_stimuli/15.png,,,,,,,,,,,,,,,,,,,,,,,,,,,,,stimuli/alien_stimuli/16.png,16,2,12,,,,,,,30,,,,,,,,458.72837240004446,458.72837240004446,458.72837240004446,458.72837240004446,458.72837240004446,down,1.4181952000362799,2,1,0,99,0.16,0.0,down,1.3409377000061795,,,,,457.16633140004706,458.72837240004446,0,0.16,0.0,0.0,0.16,0,0.0,0,0.16,454.960598600097,454.960598600097,454.960598600097,454.960598600097,454.960598600097,454.960598600097,454.960598600097,454.960598600097,454.9478459600592,2.3038806000258774,return,2.1788195999106392,,,,,,,,,,,,,,,,,,,,,,,,,,,,,,,,,A5PLRQ,train_y,red_square,top_left,2025-03-28_14h15.09.382,HideSeek_v1,2022.2.5,59.939676738451894,
,4,6,4,5,0,-1,15,,train_dim1_1,11,30,,,,2,0,2,0,,,,,,,,,0,0,0,0,0,10,10,10,1,0,1,0,,,,,,,,,,,,,,,,,,,,,,,,,,,,,,,,,,,,,,,,,,,,,,,,,,,,,,,,,,,,,,,,30,,,,,,,,460.1525132000679,460.1525132000679,460.1525132000679,460.1525132000679,460.1525132000679,return,0.47607249999418855,3,0,0,1,0.16,0.0,return,0.40067650005221367,-17,7,0.16,0.0,,,,,,,,,,,,,,,,,,,,,,,,,,,,,,,,,,,,,,,,,,,,,,,,,,,,,,,,A5PLRQ,train_y,red_square,top_left,2025-03-28_14h15.09.382,HideSeek_v1,2022.2.5,59.939676738451894,
,0,5,0,0,0,-5,11,,train_dim1_1,12,30,,,,2,0,2,0,,,,,,,,,0,0,0,0,0,11,11,11,0,0,0,0,,,,,,,,,,,,,,,,,,,,,,,,,stimuli/alien_stimuli/11.png,,,,,,,,,,,,,,,,,,,,,,,,,,,,,stimuli/alien_stimuli/15.png,15,4,13,,,,,,,30,,,,,,,,464.86267930001486,464.86267930001486,464.86267930001486,464.86267930001486,464.86267930001486,down,1.804168100003153,3,0,0,99,-0.16,-0.08,down,1.7157756999367848,,,,,463.3049731000792,464.86267930001486,0.16,0,0.08,0.0,0.04,0.16,0.16,0.16,0,462.20076500007417,462.20076500007417,462.20076500007417,462.20076500007417,462.20076500007417,462.20076500007417,462.20076500007417,462.20076500007417,462.1871469700593,1.2198824998922646,return,1.0719549999339506,,,,,,,,,,,,,,,,,,,,,,,,,,,,,,,,,A5PLRQ,train_y,red_square,top_left,2025-03-28_14h15.09.382,HideSeek_v1,2022.2.5,59.939676738451894,
,0,5,0,0,0,-5,11,,train_dim1_1,12,30,,,,2,0,2,0,,,,,,,,,0,0,0,0,0,11,11,11,1,0,1,0,,,,,,,,,,,,,,,,,,,,,,,,,,,,,,,,,,,,,,,,,,,,,,,,,,,,,,,,,,,,,,,,30,,,,,,,,466.6746550000971,466.6746550000971,466.6746550000971,466.6746550000971,466.6746550000971,down,0.643084799987264,3,0,0,99,-0.16,-0.16,down,0.5668285000137985,,,,,,,,,,,,,,,,,,,,,,,,,,,,,,,,,,,,,,,,,,,,,,,,,,,,,,,,,,,,A5PLRQ,train_y,red_square,top_left,2025-03-28_14h15.09.382,HideSeek_v1,2022.2.5,59.939676738451894,
,0,5,0,0,0,-5,11,,train_dim1_1,12,30,,,,2,0,2,0,,,,,,,,,0,0,0,0,0,11,11,11,2,0,2,0,,,,,,,,,,,,,,,,,,,,,,,,,,,,,,,,,,,,,,,,,,,,,,,,,,,,,,,,,,,,,,,,30,,,,,,,,467.32416090008337,467.32416090008337,467.32416090008337,467.32416090008337,467.32416090008337,down,0.4934149000328034,3,0,0,99,-0.16,-0.24,down,0.4027416999451816,,,,,,,,,,,,,,,,,,,,,,,,,,,,,,,,,,,,,,,,,,,,,,,,,,,,,,,,,,,,A5PLRQ,train_y,red_square,top_left,2025-03-28_14h15.09.382,HideSeek_v1,2022.2.5,59.939676738451894,
,0,5,0,0,0,-5,11,,train_dim1_1,12,30,,,,2,0,2,0,,,,,,,,,0,0,0,0,0,11,11,11,3,0,3,0,,,,,,,,,,,,,,,,,,,,,,,,,,,,,,,,,,,,,,,,,,,,,,,,,,,,,,,,,,,,,,,,30,,,,,,,,467.8257539999904,467.8257539999904,467.8257539999904,467.8257539999904,467.8257539999904,down,0.5766489999368787,3,0,0,99,-0.16,-0.32,down,0.5007334999972954,,,,,,,,,,,,,,,,,,,,,,,,,,,,,,,,,,,,,,,,,,,,,,,,,,,,,,,,,,,,A5PLRQ,train_y,red_square,top_left,2025-03-28_14h15.09.382,HideSeek_v1,2022.2.5,59.939676738451894,
,0,5,0,0,0,-5,11,,train_dim1_1,12,30,,,,2,0,2,0,,,,,,,,,0,0,0,0,0,11,11,11,4,0,4,0,,,,,,,,,,,,,,,,,,,,,,,,,,,,,,,,,,,,,,,,,,,,,,,,,,,,,,,,,,,,,,,,30,,,,,,,,468.40917300002184,468.40917300002184,468.40917300002184,468.40917300002184,468.40917300002184,return,2.1779375000623986,3,1,0,0,-0.16,-0.32,return,2.0989550000522286,-21,7,-0.16,-0.32,,,,,,,,,,,,,,,,,,,,,,,,,,,,,,,,,,,,,,,,,,,,,,,,,,,,,,,,A5PLRQ,train_y,red_square,top_left,2025-03-28_14h15.09.382,HideSeek_v1,2022.2.5,59.939676738451894,
,4,8,4,4,0,-4,12,,train_dim1_1,13,30,,,,2,0,2,0,,,,,,,,,0,0,0,0,0,12,12,12,0,0,0,0,,,,,,,,,,,,,,,,,,,,,,,,,stimuli/alien_stimuli/12.png,,,,,,,,,,,,,,,,,,,,,,,,,,,,,stimuli/alien_stimuli/11.png,11,0,14,,,,,,,30,,,,,,,,475.06987900007516,475.06987900007516,475.06987900007516,475.06987900007516,475.06987900007516,down,1.2891408000141382,3,1,0,99,0.16,0.15999999999999998,down,1.201058900100179,,,,,473.513034600066,475.06987900007516,-0.16,-0.4,0.4,0.0,-0.2,-0.16,-0.16,-0.16,-0.4,472.14650959998835,472.14650959998835,472.14650959998835,472.14650959998835,472.14650959998835,472.14650959998835,472.14650959998835,472.14650959998835,472.14553197006467,1.469672300037928,return,1.3435709999175742,,,,,,,,,,,,,,,,,,,,,,,,,,,,,,,,,A5PLRQ,train_y,red_square,top_left,2025-03-28_14h15.09.382,HideSeek_v1,2022.2.5,59.939676738451894,
,4,8,4,4,0,-4,12,,train_dim1_1,13,30,,,,2,0,2,0,,,,,,,,,0,0,0,0,0,12,12,12,1,0,1,0,,,,,,,,,,,,,,,,,,,,,,,,,,,,,,,,,,,,,,,,,,,,,,,,,,,,,,,,,,,,,,,,30,,,,,,,,476.36618690006435,476.36618690006435,476.36618690006435,476.36618690006435,476.36618690006435,down,0.35931880003772676,3,1,0,99,0.16,0.07999999999999997,down,0.27850809996016324,,,,,,,,,,,,,,,,,,,,,,,,,,,,,,,,,,,,,,,,,,,,,,,,,,,,,,,,,,,,A5PLRQ,train_y,red_square,top_left,2025-03-28_14h15.09.382,HideSeek_v1,2022.2.5,59.939676738451894,
,4,8,4,4,0,-4,12,,train_dim1_1,13,30,,,,2,0,2,0,,,,,,,,,0,0,0,0,0,12,12,12,2,0,2,0,,,,,,,,,,,,,,,,,,,,,,,,,,,,,,,,,,,,,,,,,,,,,,,,,,,,,,,,,,,,,,,,30,,,,,,,,476.73249419999775,476.73249419999775,476.73249419999775,476.73249419999775,476.73249419999775,down,0.3599152999231592,3,1,0,99,0.16,-2.7755575615628914e-17,down,0.2743872000137344,,,,,,,,,,,,,,,,,,,,,,,,,,,,,,,,,,,,,,,,,,,,,,,,,,,,,,,,,,,,A5PLRQ,train_y,red_square,top_left,2025-03-28_14h15.09.382,HideSeek_v1,2022.2.5,59.939676738451894,
,4,8,4,4,0,-4,12,,train_dim1_1,13,30,,,,2,0,2,0,,,,,,,,,0,0,0,0,0,12,12,12,3,0,3,0,,,,,,,,,,,,,,,,,,,,,,,,,,,,,,,,,,,,,,,,,,,,,,,,,,,,,,,,,,,,,,,,30,,,,,,,,477.10038469999563,477.10038469999563,477.10038469999563,477.10038469999563,477.10038469999563,down,0.3768966000061482,3,1,0,99,0.16,-0.08000000000000003,down,0.2851973999058828,,,,,,,,,,,,,,,,,,,,,,,,,,,,,,,,,,,,,,,,,,,,,,,,,,,,,,,,,,,,A5PLRQ,train_y,red_square,top_left,2025-03-28_14h15.09.382,HideSeek_v1,2022.2.5,59.939676738451894,
,4,8,4,4,0,-4,12,,train_dim1_1,13,30,,,,2,0,2,0,,,,,,,,,0,0,0,0,0,12,12,12,4,0,4,0,,,,,,,,,,,,,,,,,,,,,,,,,,,,,,,,,,,,,,,,,,,,,,,,,,,,,,,,,,,,,,,,30,,,,,,,,477.4832757000113,477.4832757000113,477.4832757000113,477.4832757000113,477.4832757000113,return,0.3431727000279352,4,0,0,1,0.16,-0.08000000000000003,return,0.2664924000855535,-25,7,0.16,-0.08000000000000003,,,,,,,,,,,,,,,,,,,,,,,,,,,,,,,,,,,,,,,,,,,,,,,,,,,,,,,,A5PLRQ,train_y,red_square,top_left,2025-03-28_14h15.09.382,HideSeek_v1,2022.2.5,59.939676738451894,
,2,7,2,7,0,0,16,,train_dim1_1,14,30,,,,2,0,2,0,,,,,,,,,0,0,0,0,0,13,13,13,0,0,0,0,,,,,,,,,,,,,,,,,,,,,,,,,stimuli/alien_stimuli/16.png,,,,,,,,,,,,,,,,,,,,,,,,,,,,,stimuli/alien_stimuli/12.png,12,4,15,,,,,,,30,,,,,,,,481.77636950009037,481.77636950009037,481.77636950009037,481.77636950009037,481.77636950009037,down,4.37423580000177,4,0,0,99,0,0.08,down,4.297540199942887,,,,,480.21880710008554,481.77636950009037,0.16,-0.08,0.32,0.0,0.07999999999999999,0.16,0.16,0.16,-0.08,479.3825055999914,479.3825055999914,479.3825055999914,479.3825055999914,479.3825055999914,479.3825055999914,479.3825055999914,479.3825055999914,479.367937859986,0.9365607999498025,return,0.8197139999829233,,,,,,,,,,,,,,,,,,,,,,,,,,,,,,,,,A5PLRQ,train_y,red_square,top_left,2025-03-28_14h15.09.382,HideSeek_v1,2022.2.5,59.939676738451894,
,2,7,2,7,0,0,16,,train_dim1_1,14,30,,,,2,0,2,0,,,,,,,,,0,0,0,0,0,13,13,13,1,0,1,0,,,,,,,,,,,,,,,,,,,,,,,,,,,,,,,,,,,,,,,,,,,,,,,,,,,,,,,,,,,,,,,,30,,,,,,,,486.15828219999094,486.15828219999094,486.15828219999094,486.15828219999094,486.15828219999094,up,0.2926436000270769,4,0,0,99,0,0.16,up,0.21338580001611263,,,,,,,,,,,,,,,,,,,,,,,,,,,,,,,,,,,,,,,,,,,,,,,,,,,,,,,,,,,,A5PLRQ,train_y,red_square,top_left,2025-03-28_14h15.09.382,HideSeek_v1,2022.2.5,59.939676738451894,
,2,7,2,7,0,0,16,,train_dim1_1,14,30,,,,2,0,2,0,,,,,,,,,0,0,0,0,0,13,13,13,2,0,2,0,,,,,,,,,,,,,,,,,,,,,,,,,,,,,,,,,,,,,,,,,,,,,,,,,,,,,,,,,,,,,,,,30,,,,,,,,486.4573839000659,486.4573839000659,486.4573839000659,486.4573839000659,486.4573839000659,return,0.5933001999510452,5,0,0,1,0,0.16,return,0.5050645000301301,-25,7,0,0.16,,,,,,,,,,,,,,,,,,,,,,,,,,,,,,,,,,,,,,,,,,,,,,,,,,,,,,,,A5PLRQ,train_y,red_square,top_left,2025-03-28_14h15.09.382,HideSeek_v1,2022.2.5,59.939676738451894,
,1,9,1,6,0,-3,13,,train_dim1_1,15,30,,,,2,0,2,0,,,,,,,,,0,0,0,0,0,14,14,14,0,0,0,0,,,,,,,,,,,,,,,,,,,,,,,,,stimuli/alien_stimuli/13.png,,,,,,,,,,,,,,,,,,,,,,,,,,,,,stimuli/alien_stimuli/16.png,16,2,16,,,,,,,30,,,,,,,,491.0150770000182,491.0150770000182,491.0150770000182,491.0150770000182,491.0150770000182,down,1.522916099987924,5,0,0,99,-0.08,0.24,down,1.4437017000745982,,,,,489.4597960000392,491.0150770000182,0,0.16,0.0,0.0,0.16,0,0.0,0,0.16,488.6057649999857,488.6057649999857,488.6057649999857,488.6057649999857,488.6057649999857,488.6057649999857,488.6057649999857,488.6057649999857,488.5924000600586,0.95274080010131,return,0.8277265999931842,,,,,,,,,,,,,,,,,,,,,,,,,,,,,,,,,A5PLRQ,train_y,red_square,top_left,2025-03-28_14h15.09.382,HideSeek_v1,2022.2.5,59.939676738451894,
,1,9,1,6,0,-3,13,,train_dim1_1,15,30,,,,2,0,2,0,,,,,,,,,0,0,0,0,0,14,14,14,1,0,1,0,,,,,,,,,,,,,,,,,,,,,,,,,,,,,,,,,,,,,,,,,,,,,,,,,,,,,,,,,,,,,,,,30,,,,,,,,492.5452690999955,492.5452690999955,492.5452690999955,492.5452690999955,492.5452690999955,down,0.643205099971965,5,0,0,99,-0.08,0.15999999999999998,down,0.5644330000504851,,,,,,,,,,,,,,,,,,,,,,,,,,,,,,,,,,,,,,,,,,,,,,,,,,,,,,,,,,,,A5PLRQ,train_y,red_square,top_left,2025-03-28_14h15.09.382,HideSeek_v1,2022.2.5,59.939676738451894,
,1,9,1,6,0,-3,13,,train_dim1_1,15,30,,,,2,0,2,0,,,,,,,,,0,0,0,0,0,14,14,14,2,0,2,0,,,,,,,,,,,,,,,,,,,,,,,,,,,,,,,,,,,,,,,,,,,,,,,,,,,,,,,,,,,,,,,,30,,,,,,,,493.19514520000666,493.19514520000666,493.19514520000666,493.19514520000666,493.19514520000666,down,1.3274257000302896,5,0,0,99,-0.08,0.07999999999999997,down,1.2473506999667734,,,,,,,,,,,,,,,,,,,,,,,,,,,,,,,,,,,,,,,,,,,,,,,,,,,,,,,,,,,,A5PLRQ,train_y,red_square,top_left,2025-03-28_14h15.09.382,HideSeek_v1,2022.2.5,59.939676738451894,
,1,9,1,6,0,-3,13,,train_dim1_1,15,30,,,,2,0,2,0,,,,,,,,,0,0,0,0,0,14,14,14,3,0,3,0,,,,,,,,,,,,,,,,,,,,,,,,,,,,,,,,,,,,,,,,,,,,,,,,,,,,,,,,,,,,,,,,30,,,,,,,,494.5308197000995,494.5308197000995,494.5308197000995,494.5308197000995,494.5308197000995,return,0.32587749999947846,6,0,0,1,-0.08,0.07999999999999997,return,0.24564139998983592,-28,7,-0.08,0.07999999999999997,,,,,,,,,,,,,,,,,,,,,,,,,,,,,,,,,,,,,,,,,,,,,,,,,,,,,,,,A5PLRQ,train_y,red_square,top_left,2025-03-28_14h15.09.382,HideSeek_v1,2022.2.5,59.939676738451894,
,4,5,4,4,0,-1,15,,train_dim1_1,16,30,,,,2,0,2,0,,,,,,,,,0,0,0,0,0,15,15,15,0,0,0,0,,,,,,,,,,,,,,,,,,,,,,,,,stimuli/alien_stimuli/15.png,,,,,,,,,,,,,,,,,,,,,,,,,,,,,stimuli/alien_stimuli/13.png,13,1,17,,,,,,,30,,,,,,,,498.8919455000432,498.8919455000432,498.8919455000432,498.8919455000432,498.8919455000432,down,1.7701426999410614,6,0,0,99,0.16,-0.08,down,1.6868164000334218,,,,,497.333887899993,498.8919455000432,-0.08,0.08,0.24,0.0,0.2,-0.08,-0.08,-0.08,0.08,496.4134645999875,496.4134645999875,496.4134645999875,496.4134645999875,496.4134645999875,496.4134645999875,496.4134645999875,496.4134645999875,496.3987927600043,1.0196516000432894,return,0.8883390000555664,,,,,,,,,,,,,,,,,,,,,,,,,,,,,,,,,A5PLRQ,train_y,red_square,top_left,2025-03-28_14h15.09.382,HideSeek_v1,2022.2.5,59.939676738451894,
,4,5,4,4,0,-1,15,,train_dim1_1,16,30,,,,2,0,2,0,,,,,,,,,0,0,0,0,0,15,15,15,1,0,1,0,,,,,,,,,,,,,,,,,,,,,,,,,,,,,,,,,,,,,,,,,,,,,,,,,,,,,,,,,,,,,,,,30,,,,,,,,500.6689506000839,500.6689506000839,500.6689506000839,500.6689506000839,500.6689506000839,return,0.926766199991107,7,0,0,1,0.16,-0.08,return,0.8482212999369949,-29,7,0.16,-0.08,,,,,,,,,,,,,,,,,,,,,,,,,,,,,,,,,,,,,,,,,,,,,,,,,,,,,,,,A5PLRQ,train_y,red_square,top_left,2025-03-28_14h15.09.382,HideSeek_v1,2022.2.5,59.939676738451894,
,3,8,3,5,0,-3,13,,train_dim1_1,17,30,,,,2,0,2,0,,,,,,,,,0,0,0,0,0,16,16,16,0,0,0,0,,,,,,,,,,,,,,,,,,,,,,,,,stimuli/alien_stimuli/13.png,,,,,,,,,,,,,,,,,,,,,,,,,,,,,stimuli/alien_stimuli/15.png,15,4,18,,,,,,,30,,,,,,,,505.3466944000684,505.3466944000684,505.3466944000684,505.3466944000684,505.3466944000684,down,1.653598599950783,7,0,0,99,0.08,0.15999999999999998,down,1.5732095999410376,,,,,503.7882863000268,505.3466944000684,0.16,-0.08,0.08,0.0,-0.04,0.16,0.16,0.16,-0.08,503.1530904000392,503.1530904000392,503.1530904000392,503.1530904000392,503.1530904000392,503.1530904000392,503.1530904000392,503.1530904000392,503.15451527001574,0.7359287000726908,return,0.6164060999872163,,,,,,,,,,,,,,,,,,,,,,,,,,,,,,,,,A5PLRQ,train_y,red_square,top_left,2025-03-28_14h15.09.382,HideSeek_v1,2022.2.5,59.939676738451894,
,3,8,3,5,0,-3,13,,train_dim1_1,17,30,,,,2,0,2,0,,,,,,,,,0,0,0,0,0,16,16,16,1,0,1,0,,,,,,,,,,,,,,,,,,,,,,,,,,,,,,,,,,,,,,,,,,,,,,,,,,,,,,,,,,,,,,,,30,,,,,,,,507.00726540002506,507.00726540002506,507.00726540002506,507.00726540002506,507.00726540002506,down,0.4096022000303492,7,0,0,99,0.08,0.07999999999999997,down,0.331682899966836,,,,,,,,,,,,,,,,,,,,,,,,,,,,,,,,,,,,,,,,,,,,,,,,,,,,,,,,,,,,A5PLRQ,train_y,red_square,top_left,2025-03-28_14h15.09.382,HideSeek_v1,2022.2.5,59.939676738451894,
,3,8,3,5,0,-3,13,,train_dim1_1,17,30,,,,2,0,2,0,,,,,,,,,0,0,0,0,0,16,16,16,2,0,2,0,,,,,,,,,,,,,,,,,,,,,,,,,,,,,,,,,,,,,,,,,,,,,,,,,,,,,,,,,,,,,,,,30,,,,,,,,507.425988300005,507.425988300005,507.425988300005,507.425988300005,507.425988300005,down,0.44325990008655936,7,0,0,99,0.08,-2.7755575615628914e-17,down,0.35520290001295507,,,,,,,,,,,,,,,,,,,,,,,,,,,,,,,,,,,,,,,,,,,,,,,,,,,,,,,,,,,,A5PLRQ,train_y,red_square,top_left,2025-03-28_14h15.09.382,HideSeek_v1,2022.2.5,59.939676738451894,
,3,8,3,5,0,-3,13,,train_dim1_1,17,30,,,,2,0,2,0,,,,,,,,,0,0,0,0,0,16,16,16,3,0,3,0,,,,,,,,,,,,,,,,,,,,,,,,,,,,,,,,,,,,,,,,,,,,,,,,,,,,,,,,,,,,,,,,30,,,,,,,,507.8739674000535,507.8739674000535,507.8739674000535,507.8739674000535,507.8739674000535,down,0.5263319999212399,7,0,0,99,0.08,-0.08000000000000003,down,0.44718170003034174,,,,,,,,,,,,,,,,,,,,,,,,,,,,,,,,,,,,,,,,,,,,,,,,,,,,,,,,,,,,A5PLRQ,train_y,red_square,top_left,2025-03-28_14h15.09.382,HideSeek_v1,2022.2.5,59.939676738451894,
,3,8,3,5,0,-3,13,,train_dim1_1,17,30,,,,2,0,2,0,,,,,,,,,0,0,0,0,0,16,16,16,4,0,4,0,,,,,,,,,,,,,,,,,,,,,,,,,,,,,,,,,,,,,,,,,,,,,,,,,,,,,,,,,,,,,,,,30,,,,,,,,508.40838670008816,508.40838670008816,508.40838670008816,508.40838670008816,508.40838670008816,up,2.127920200000517,7,0,0,99,0.08,-2.7755575615628914e-17,up,2.0384850000264123,,,,,,,,,,,,,,,,,,,,,,,,,,,,,,,,,,,,,,,,,,,,,,,,,,,,,,,,,,,,A5PLRQ,train_y,red_square,top_left,2025-03-28_14h15.09.382,HideSeek_v1,2022.2.5,59.939676738451894,
,3,8,3,5,0,-3,13,,train_dim1_1,17,30,,,,2,0,2,0,,,,,,,,,0,0,0,0,0,16,16,16,5,0,5,0,,,,,,,,,,,,,,,,,,,,,,,,,,,,,,,,,,,,,,,,,,,,,,,,,,,,,,,,,,,,,,,,30,,,,,,,,510.54215210000984,510.54215210000984,510.54215210000984,510.54215210000984,510.54215210000984,return,0.5769659000216052,8,0,0,1,0.08,-2.7755575615628914e-17,return,0.4874812999041751,-32,7,0.08,-2.7755575615628914e-17,,,,,,,,,,,,,,,,,,,,,,,,,,,,,,,,,,,,,,,,,,,,,,,,,,,,,,,,A5PLRQ,train_y,red_square,top_left,2025-03-28_14h15.09.382,HideSeek_v1,2022.2.5,59.939676738451894,
,2,6,2,1,0,-5,11,,train_dim1_1,18,30,,,,2,0,2,0,,,,,,,,,0,0,0,0,0,17,17,17,0,0,0,0,,,,,,,,,,,,,,,,,,,,,,,,,stimuli/alien_stimuli/11.png,,,,,,,,,,,,,,,,,,,,,,,,,,,,,stimuli/alien_stimuli/13.png,13,3,19,,,,,,,30,,,,,,,,515.288244000054,515.288244000054,515.288244000054,515.288244000054,515.288244000054,down,1.186364300083369,8,0,0,99,0,0.0,down,1.1032218999462202,,,,,513.7298836000264,515.288244000054,0.08,0,0.24,0.0,0.12,0.08,0.08,0.08,0,512.675038299989,512.675038299989,512.675038299989,512.675038299989,512.675038299989,512.675038299989,512.675038299989,512.675038299989,512.6622922600014,1.1537624000338838,return,1.039392500068061,,,,,,,,,,,,,,,,,,,,,,,,,,,,,,,,,A5PLRQ,train_y,red_square,top_left,2025-03-28_14h15.09.382,HideSeek_v1,2022.2.5,59.939676738451894,
,2,6,2,1,0,-5,11,,train_dim1_1,18,30,,,,2,0,2,0,,,,,,,,,0,0,0,0,0,17,17,17,1,0,1,0,,,,,,,,,,,,,,,,,,,,,,,,,,,,,,,,,,,,,,,,,,,,,,,,,,,,,,,,,,,,,,,,30,,,,,,,,516.4834452000214,516.4834452000214,516.4834452000214,516.4834452000214,516.4834452000214,down,0.35898860008455813,8,0,0,99,0,-0.08,down,0.2744003999978304,,,,,,,,,,,,,,,,,,,,,,,,,,,,,,,,,,,,,,,,,,,,,,,,,,,,,,,,,,,,A5PLRQ,train_y,red_square,top_left,2025-03-28_14h15.09.382,HideSeek_v1,2022.2.5,59.939676738451894,
,2,6,2,1,0,-5,11,,train_dim1_1,18,30,,,,2,0,2,0,,,,,,,,,0,0,0,0,0,17,17,17,2,0,2,0,,,,,,,,,,,,,,,,,,,,,,,,,,,,,,,,,,,,,,,,,,,,,,,,,,,,,,,,,,,,,,,,30,,,,,,,,516.8481612000614,516.8481612000614,516.8481612000614,516.8481612000614,516.8481612000614,down,0.35992700001224875,8,0,0,99,0,-0.16,down,0.28279049997217953,,,,,,,,,,,,,,,,,,,,,,,,,,,,,,,,,,,,,,,,,,,,,,,,,,,,,,,,,,,,A5PLRQ,train_y,red_square,top_left,2025-03-28_14h15.09.382,HideSeek_v1,2022.2.5,59.939676738451894,
,2,6,2,1,0,-5,11,,train_dim1_1,18,30,,,,2,0,2,0,,,,,,,,,0,0,0,0,0,17,17,17,3,0,3,0,,,,,,,,,,,,,,,,,,,,,,,,,,,,,,,,,,,,,,,,,,,,,,,,,,,,,,,,,,,,,,,,30,,,,,,,,517.2157506000949,517.2157506000949,517.2157506000949,517.2157506000949,517.2157506000949,down,0.44359209993854165,8,0,0,99,0,-0.24,down,0.3659544999245554,,,,,,,,,,,,,,,,,,,,,,,,,,,,,,,,,,,,,,,,,,,,,,,,,,,,,,,,,,,,A5PLRQ,train_y,red_square,top_left,2025-03-28_14h15.09.382,HideSeek_v1,2022.2.5,59.939676738451894,
,2,6,2,1,0,-5,11,,train_dim1_1,18,30,,,,2,0,2,0,,,,,,,,,0,0,0,0,0,17,17,17,4,0,4,0,,,,,,,,,,,,,,,,,,,,,,,,,,,,,,,,,,,,,,,,,,,,,,,,,,,,,,,,,,,,,,,,30,,,,,,,,517.6658603000687,517.6658603000687,517.6658603000687,517.6658603000687,517.6658603000687,return,1.4438454000046477,8,1,0,0,0,-0.24,return,1.3610259999986738,-36,7,0,-0.24,,,,,,,,,,,,,,,,,,,,,,,,,,,,,,,,,,,,,,,,,,,,,,,,,,,,,,,,A5PLRQ,train_y,red_square,top_left,2025-03-28_14h15.09.382,HideSeek_v1,2022.2.5,59.939676738451894,
,0,9,0,5,0,-4,12,,train_dim1_1,19,30,,,,2,0,2,0,,,,,,,,,0,0,0,0,0,18,18,18,0,0,0,0,,,,,,,,,,,,,,,,,,,,,,,,,stimuli/alien_stimuli/12.png,,,,,,,,,,,,,,,,,,,,,,,,,,,,,stimuli/alien_stimuli/11.png,11,2,20,,,,,,,30,,,,,,,,523.5320495000342,523.5320495000342,523.5320495000342,523.5320495000342,523.5320495000342,down,1.0336514000082389,8,1,0,99,-0.16,0.24,down,0.9467734000645578,,,,,521.9701552999904,523.5320495000342,0,-0.32,0.4,0.0,-0.12,0,0.0,0,-0.32,520.6656591000501,520.6656591000501,520.6656591000501,520.6656591000501,520.6656591000501,520.6656591000501,520.6656591000501,520.6656591000501,520.652425460075,1.403321599937044,return,1.2854580000275746,,,,,,,,,,,,,,,,,,,,,,,,,,,,,,,,,A5PLRQ,train_y,red_square,top_left,2025-03-28_14h15.09.382,HideSeek_v1,2022.2.5,59.939676738451894,
,0,9,0,5,0,-4,12,,train_dim1_1,19,30,,,,2,0,2,0,,,,,,,,,0,0,0,0,0,18,18,18,1,0,1,0,,,,,,,,,,,,,,,,,,,,,,,,,,,,,,,,,,,,,,,,,,,,,,,,,,,,,,,,,,,,,,,,30,,,,,,,,524.5742340000579,524.5742340000579,524.5742340000579,524.5742340000579,524.5742340000579,down,0.42602010001428425,8,1,0,99,-0.16,0.15999999999999998,down,0.33488790004048496,,,,,,,,,,,,,,,,,,,,,,,,,,,,,,,,,,,,,,,,,,,,,,,,,,,,,,,,,,,,A5PLRQ,train_y,red_square,top_left,2025-03-28_14h15.09.382,HideSeek_v1,2022.2.5,59.939676738451894,
,0,9,0,5,0,-4,12,,train_dim1_1,19,30,,,,2,0,2,0,,,,,,,,,0,0,0,0,0,18,18,18,2,0,2,0,,,,,,,,,,,,,,,,,,,,,,,,,,,,,,,,,,,,,,,,,,,,,,,,,,,,,,,,,,,,,,,,30,,,,,,,,525.0061962000327,525.0061962000327,525.0061962000327,525.0061962000327,525.0061962000327,down,0.5101345999864861,8,1,0,99,-0.16,0.07999999999999997,down,0.4343343999935314,,,,,,,,,,,,,,,,,,,,,,,,,,,,,,,,,,,,,,,,,,,,,,,,,,,,,,,,,,,,A5PLRQ,train_y,red_square,top_left,2025-03-28_14h15.09.382,HideSeek_v1,2022.2.5,59.939676738451894,
,0,9,0,5,0,-4,12,,train_dim1_1,19,30,,,,2,0,2,0,,,,,,,,,0,0,0,0,0,18,18,18,3,0,3,0,,,,,,,,,,,,,,,,,,,,,,,,,,,,,,,,,,,,,,,,,,,,,,,,,,,,,,,,,,,,,,,,30,,,,,,,,525.5232958000852,525.5232958000852,525.5232958000852,525.5232958000852,525.5232958000852,down,0.6261648000217974,8,1,0,99,-0.16,-2.7755575615628914e-17,down,0.538632299983874,,,,,,,,,,,,,,,,,,,,,,,,,,,,,,,,,,,,,,,,,,,,,,,,,,,,,,,,,,,,A5PLRQ,train_y,red_square,top_left,2025-03-28_14h15.09.382,HideSeek_v1,2022.2.5,59.939676738451894,
,0,9,0,5,0,-4,12,,train_dim1_1,19,30,,,,2,0,2,0,,,,,,,,,0,0,0,0,0,18,18,18,4,0,4,0,,,,,,,,,,,,,,,,,,,,,,,,,,,,,,,,,,,,,,,,,,,,,,,,,,,,,,,,,,,,,,,,30,,,,,,,,526.1571717000334,526.1571717000334,526.1571717000334,526.1571717000334,526.1571717000334,return,0.5937643999932334,9,0,0,1,-0.16,-2.7755575615628914e-17,return,0.5030260999919847,-40,7,-0.16,-2.7755575615628914e-17,,,,,,,,,,,,,,,,,,,,,,,,,,,,,,,,,,,,,,,,,,,,,,,,,,,,,,,,A5PLRQ,train_y,red_square,top_left,2025-03-28_14h15.09.382,HideSeek_v1,2022.2.5,59.939676738451894,
,2,5,2,5,0,0,16,,train_dim1_1,20,30,,,,2,0,2,0,,,,,,,,,0,0,0,0,0,19,19,19,0,0,0,0,,,,,,,,,,,,,,,,,,,,,,,,,stimuli/alien_stimuli/16.png,,,,,,,,,,,,,,,,,,,,,,,,,,,,,stimuli/alien_stimuli/12.png,12,0,21,,,,,,,30,,,,,,,,530.2141452000942,530.2141452000942,530.2141452000942,530.2141452000942,530.2141452000942,down,2.758810400031507,9,0,0,99,0,-0.08,down,2.6753053999273106,,,,,528.6588866000529,530.2141452000942,-0.16,0,0.32,0.0,0.16,-0.16,-0.16,-0.16,0,528.306078499998,528.306078499998,528.306078499998,528.306078499998,528.306078499998,528.306078499998,528.306078499998,528.306078499998,528.2919882600196,0.4528796999948099,return,0.3316636000527069,,,,,,,,,,,,,,,,,,,,,,,,,,,,,,,,,A5PLRQ,train_y,red_square,top_left,2025-03-28_14h15.09.382,HideSeek_v1,2022.2.5,59.939676738451894,
,2,5,2,5,0,0,16,,train_dim1_1,20,30,,,,2,0,2,0,,,,,,,,,0,0,0,0,0,19,19,19,1,0,1,0,,,,,,,,,,,,,,,,,,,,,,,,,,,,,,,,,,,,,,,,,,,,,,,,,,,,,,,,,,,,,,,,30,,,,,,,,532.9798423000611,532.9798423000611,532.9798423000611,532.9798423000611,532.9798423000611,return,0.35948999994434416,9,1,0,0,0,-0.08,return,0.27453060005791485,-41,7,0,-0.08,,,,,,,,,,,,,,,,,,,,,,,,,,,,,,,,,,,,,,,,,,,,,,,,,,,,,,,,A5PLRQ,train_y,red_square,top_left,2025-03-28_14h15.09.382,HideSeek_v1,2022.2.5,59.939676738451894,
,2,9,2,8,0,-1,15,,train_dim1_1,21,30,,,,2,0,2,0,,,,,,,,,0,0,0,0,0,20,20,20,0,0,0,0,,,,,,,,,,,,,,,,,,,,,,,,,stimuli/alien_stimuli/15.png,,,,,,,,,,,,,,,,,,,,,,,,,,,,,stimuli/alien_stimuli/16.png,16,2,22,,,,,,,30,,,,,,,,537.2559241000563,537.2559241000563,537.2559241000563,537.2559241000563,537.2559241000563,down,1.1211468999972567,9,1,0,99,0,0.24,down,1.0382984000025317,,,,,535.6983168000588,537.2559241000563,0,0,0.0,0.0,0.0,0,0.0,0,0,534.898302400019,534.898302400019,534.898302400019,534.898302400019,534.898302400019,534.898302400019,534.898302400019,534.898302400019,534.8975102699944,0.902683199965395,return,0.7789802000625059,,,,,,,,,,,,,,,,,,,,,,,,,,,,,,,,,A5PLRQ,train_y,red_square,top_left,2025-03-28_14h15.09.382,HideSeek_v1,2022.2.5,59.939676738451894,
,2,9,2,8,0,-1,15,,train_dim1_1,21,30,,,,2,0,2,0,,,,,,,,,0,0,0,0,0,20,20,20,1,0,1,0,,,,,,,,,,,,,,,,,,,,,,,,,,,,,,,,,,,,,,,,,,,,,,,,,,,,,,,,,,,,,,,,30,,,,,,,,538.3840988000156,538.3840988000156,538.3840988000156,538.3840988000156,538.3840988000156,return,1.5436275000683963,10,0,0,1,0,0.24,return,1.4670288000488654,-42,7,0,0.24,,,,,,,,,,,,,,,,,,,,,,,,,,,,,,,,,,,,,,,,,,,,,,,,,,,,,,,,A5PLRQ,train_y,red_square,top_left,2025-03-28_14h15.09.382,HideSeek_v1,2022.2.5,59.939676738451894,
,0,7,0,4,0,-3,13,,train_dim1_1,22,30,,,,2,0,2,0,,,,,,,,,0,0,0,0,0,21,21,21,0,0,0,0,,,,,,,,,,,,,,,,,,,,,,,,,stimuli/alien_stimuli/13.png,,,,,,,,,,,,,,,,,,,,,,,,,,,,,stimuli/alien_stimuli/15.png,15,2,23,,,,,,,30,,,,,,,,543.7296528000152,543.7296528000152,543.7296528000152,543.7296528000152,543.7296528000152,down,4.873437900096178,10,0,0,99,-0.16,0.08,down,4.780119900009595,,,,,542.1702426000265,543.7296528000152,0,0.24,0.08,0.0,0.28,0,0.0,0,0.24,541.4849844001001,541.4849844001001,541.4849844001001,541.4849844001001,541.4849844001001,541.4849844001001,541.4849844001001,541.4849844001001,541.4863662700984,0.7862504000077024,return,0.6535536999581382,,,,,,,,,,,,,,,,,,,,,,,,,,,,,,,,,A5PLRQ,train_y,red_square,top_left,2025-03-28_14h15.09.382,HideSeek_v1,2022.2.5,59.939676738451894,
,0,7,0,4,0,-3,13,,train_dim1_1,22,30,,,,2,0,2,0,,,,,,,,,0,0,0,0,0,21,21,21,1,0,1,0,,,,,,,,,,,,,,,,,,,,,,,,,,,,,,,,,,,,,,,,,,,,,,,,,,,,,,,,,,,,,,,,30,,,,,,,,548.609272700036,548.609272700036,548.609272700036,548.609272700036,548.609272700036,down,0.6762800998985767,10,0,0,99,-0.16,0.0,down,0.5967083000577986,,,,,,,,,,,,,,,,,,,,,,,,,,,,,,,,,,,,,,,,,,,,,,,,,,,,,,,,,,,,A5PLRQ,train_y,red_square,top_left,2025-03-28_14h15.09.382,HideSeek_v1,2022.2.5,59.939676738451894,
,0,7,0,4,0,-3,13,,train_dim1_1,22,30,,,,2,0,2,0,,,,,,,,,0,0,0,0,0,21,21,21,2,0,2,0,,,,,,,,,,,,,,,,,,,,,,,,,,,,,,,,,,,,,,,,,,,,,,,,,,,,,,,,,,,,,,,,30,,,,,,,,549.2935080000898,549.2935080000898,549.2935080000898,549.2935080000898,549.2935080000898,down,1.576953100040555,10,0,0,99,-0.16,-0.08,down,1.4989827000536025,,,,,,,,,,,,,,,,,,,,,,,,,,,,,,,,,,,,,,,,,,,,,,,,,,,,,,,,,,,,A5PLRQ,train_y,red_square,top_left,2025-03-28_14h15.09.382,HideSeek_v1,2022.2.5,59.939676738451894,
,0,7,0,4,0,-3,13,,train_dim1_1,22,30,,,,2,0,2,0,,,,,,,,,0,0,0,0,0,21,21,21,3,0,3,0,,,,,,,,,,,,,,,,,,,,,,,,,,,,,,,,,,,,,,,,,,,,,,,,,,,,,,,,,,,,,,,,30,,,,,,,,550.8762061999878,550.8762061999878,550.8762061999878,550.8762061999878,550.8762061999878,down,0.7104020999977365,10,0,0,99,-0.16,-0.16,down,0.6308899999130517,,,,,,,,,,,,,,,,,,,,,,,,,,,,,,,,,,,,,,,,,,,,,,,,,,,,,,,,,,,,A5PLRQ,train_y,red_square,top_left,2025-03-28_14h15.09.382,HideSeek_v1,2022.2.5,59.939676738451894,
,0,7,0,4,0,-3,13,,train_dim1_1,22,30,,,,2,0,2,0,,,,,,,,,0,0,0,0,0,21,21,21,4,0,4,0,,,,,,,,,,,,,,,,,,,,,,,,,,,,,,,,,,,,,,,,,,,,,,,,,,,,,,,,,,,,,,,,30,,,,,,,,551.593684200081,551.593684200081,551.593684200081,551.593684200081,551.593684200081,return,1.2106166000012308,10,1,0,0,-0.16,-0.16,return,1.1296248999424279,-46,7,-0.16,-0.16,,,,,,,,,,,,,,,,,,,,,,,,,,,,,,,,,,,,,,,,,,,,,,,,,,,,,,,,A5PLRQ,train_y,red_square,top_left,2025-03-28_14h15.09.382,HideSeek_v1,2022.2.5,59.939676738451894,
,0,8,0,3,0,-5,11,,train_dim1_1,23,30,,,,2,0,2,0,,,,,,,,,0,0,0,0,0,22,22,22,0,0,0,0,,,,,,,,,,,,,,,,,,,,,,,,,stimuli/alien_stimuli/11.png,,,,,,,,,,,,,,,,,,,,,,,,,,,,,stimuli/alien_stimuli/13.png,13,0,24,,,,,,,30,,,,,,,,557.1377553000348,557.1377553000348,557.1377553000348,557.1377553000348,557.1377553000348,down,1.722715099924244,10,1,0,99,-0.16,0.15999999999999998,down,1.6416648000013083,,,,,555.5809998000041,557.1377553000348,-0.16,-0.08,0.24,0.0,0.04,-0.16,-0.16,-0.16,-0.08,554.377899400075,554.377899400075,554.377899400075,554.377899400075,554.377899400075,554.377899400075,554.377899400075,554.377899400075,554.3637903700467,1.3195374999195337,return,1.186002800008282,,,,,,,,,,,,,,,,,,,,,,,,,,,,,,,,,A5PLRQ,train_y,red_square,top_left,2025-03-28_14h15.09.382,HideSeek_v1,2022.2.5,59.939676738451894,
,0,8,0,3,0,-5,11,,train_dim1_1,23,30,,,,2,0,2,0,,,,,,,,,0,0,0,0,0,22,22,22,1,0,1,0,,,,,,,,,,,,,,,,,,,,,,,,,,,,,,,,,,,,,,,,,,,,,,,,,,,,,,,,,,,,,,,,30,,,,,,,,558.8680618000217,558.8680618000217,558.8680618000217,558.8680618000217,558.8680618000217,down,0.34272700001019984,10,1,0,99,-0.16,0.07999999999999997,down,0.2555382000282407,,,,,,,,,,,,,,,,,,,,,,,,,,,,,,,,,,,,,,,,,,,,,,,,,,,,,,,,,,,,A5PLRQ,train_y,red_square,top_left,2025-03-28_14h15.09.382,HideSeek_v1,2022.2.5,59.939676738451894,
,0,8,0,3,0,-5,11,,train_dim1_1,23,30,,,,2,0,2,0,,,,,,,,,0,0,0,0,0,22,22,22,2,0,2,0,,,,,,,,,,,,,,,,,,,,,,,,,,,,,,,,,,,,,,,,,,,,,,,,,,,,,,,,,,,,,,,,30,,,,,,,,559.217581700068,559.217581700068,559.217581700068,559.217581700068,559.217581700068,down,0.32648749998770654,10,1,0,99,-0.16,-2.7755575615628914e-17,down,0.25024179997853935,,,,,,,,,,,,,,,,,,,,,,,,,,,,,,,,,,,,,,,,,,,,,,,,,,,,,,,,,,,,A5PLRQ,train_y,red_square,top_left,2025-03-28_14h15.09.382,HideSeek_v1,2022.2.5,59.939676738451894,
,0,8,0,3,0,-5,11,,train_dim1_1,23,30,,,,2,0,2,0,,,,,,,,,0,0,0,0,0,22,22,22,3,0,3,0,,,,,,,,,,,,,,,,,,,,,,,,,,,,,,,,,,,,,,,,,,,,,,,,,,,,,,,,,,,,,,,,30,,,,,,,,559.5510493000038,559.5510493000038,559.5510493000038,559.5510493000038,559.5510493000038,down,0.4600703000323847,10,1,0,99,-0.16,-0.08000000000000003,down,0.3744507000083104,,,,,,,,,,,,,,,,,,,,,,,,,,,,,,,,,,,,,,,,,,,,,,,,,,,,,,,,,,,,A5PLRQ,train_y,red_square,top_left,2025-03-28_14h15.09.382,HideSeek_v1,2022.2.5,59.939676738451894,
,0,8,0,3,0,-5,11,,train_dim1_1,23,30,,,,2,0,2,0,,,,,,,,,0,0,0,0,0,22,22,22,4,0,4,0,,,,,,,,,,,,,,,,,,,,,,,,,,,,,,,,,,,,,,,,,,,,,,,,,,,,,,,,,,,,,,,,30,,,,,,,,560.0185649000341,560.0185649000341,560.0185649000341,560.0185649000341,560.0185649000341,return,0.6934260999551043,10,1,0,0,-0.16,-0.08000000000000003,return,0.6131443000631407,-50,7,-0.16,-0.08000000000000003,,,,,,,,,,,,,,,,,,,,,,,,,,,,,,,,,,,,,,,,,,,,,,,,,,,,,,,,A5PLRQ,train_y,red_square,top_left,2025-03-28_14h15.09.382,HideSeek_v1,2022.2.5,59.939676738451894,
,3,7,3,7,0,0,16,,train_dim1_1,24,30,,,,2,0,2,0,,,,,,,,,0,0,0,0,0,23,23,23,0,0,0,0,,,,,,,,,,,,,,,,,,,,,,,,,stimuli/alien_stimuli/16.png,,,,,,,,,,,,,,,,,,,,,,,,,,,,,stimuli/alien_stimuli/11.png,11,0,25,,,,,,,30,,,,,,,,564.7277368000941,564.7277368000941,564.7277368000941,564.7277368000941,564.7277368000941,down,3.2565477000316605,10,1,0,99,0.08,0.08,down,3.1704834999982268,,,,,563.171027500066,564.7277368000941,-0.16,-0.16,0.4,0.0,0.039999999999999994,-0.16,-0.16,-0.16,-0.16,562.2673582000425,562.2673582000425,562.2673582000425,562.2673582000425,562.2673582000425,562.2673582000425,562.2673582000425,562.2673582000425,562.2536286600167,1.003460600040853,return,0.8830947999376804,,,,,,,,,,,,,,,,,,,,,,,,,,,,,,,,,A5PLRQ,train_y,red_square,top_left,2025-03-28_14h15.09.382,HideSeek_v1,2022.2.5,59.939676738451894,
,3,7,3,7,0,0,16,,train_dim1_1,24,30,,,,2,0,2,0,,,,,,,,,0,0,0,0,0,23,23,23,1,0,1,0,,,,,,,,,,,,,,,,,,,,,,,,,,,,,,,,,,,,,,,,,,,,,,,,,,,,,,,,,,,,,,,,30,,,,,,,,567.9923638000619,567.9923638000619,567.9923638000619,567.9923638000619,567.9923638000619,return,0.9600337999872863,10,1,0,0,0.08,0.08,return,0.8739308000076562,-51,7,0.08,0.08,,,,,,,,,,,,,,,,,,,,,,,,,,,,,,,,,,,,,,,,,,,,,,,,,,,,,,,,A5PLRQ,train_y,red_square,top_left,2025-03-28_14h15.09.382,HideSeek_v1,2022.2.5,59.939676738451894,
,3,8,3,4,0,-4,12,,train_dim1_1,25,30,,,,2,0,2,0,,,,,,,,,0,0,0,0,0,24,24,24,0,0,0,0,,,,,,,,,,,,,,,,,,,,,,,,,stimuli/alien_stimuli/12.png,,,,,,,,,,,,,,,,,,,,,,,,,,,,,stimuli/alien_stimuli/16.png,16,3,26,,,,,,,30,,,,,,,,573.4028353000758,573.4028353000758,573.4028353000758,573.4028353000758,573.4028353000758,down,2.088633200037293,10,1,0,99,0.08,0.15999999999999998,down,2.002727900049649,,,,,571.8449184000492,573.4028353000758,0.08,0.16,0.0,0.0,0.16,0.08,0.08,0.08,0.16,570.5089331000345,570.5089331000345,570.5089331000345,570.5089331000345,570.5089331000345,570.5089331000345,570.5089331000345,570.5089331000345,570.5106619699975,1.43626799993217,return,1.3092557999771088,,,,,,,,,,,,,,,,,,,,,,,,,,,,,,,,,A5PLRQ,train_y,red_square,top_left,2025-03-28_14h15.09.382,HideSeek_v1,2022.2.5,59.939676738451894,
,3,8,3,4,0,-4,12,,train_dim1_1,25,30,,,,2,0,2,0,,,,,,,,,0,0,0,0,0,24,24,24,1,0,1,0,,,,,,,,,,,,,,,,,,,,,,,,,,,,,,,,,,,,,,,,,,,,,,,,,,,,,,,,,,,,,,,,30,,,,,,,,575.4984362000832,575.4984362000832,575.4984362000832,575.4984362000832,575.4984362000832,down,0.45957710000220686,10,1,0,99,0.08,0.07999999999999997,down,0.369784599984996,,,,,,,,,,,,,,,,,,,,,,,,,,,,,,,,,,,,,,,,,,,,,,,,,,,,,,,,,,,,A5PLRQ,train_y,red_square,top_left,2025-03-28_14h15.09.382,HideSeek_v1,2022.2.5,59.939676738451894,
,3,8,3,4,0,-4,12,,train_dim1_1,25,30,,,,2,0,2,0,,,,,,,,,0,0,0,0,0,24,24,24,2,0,2,0,,,,,,,,,,,,,,,,,,,,,,,,,,,,,,,,,,,,,,,,,,,,,,,,,,,,,,,,,,,,,,,,30,,,,,,,,575.9649459000211,575.9649459000211,575.9649459000211,575.9649459000211,575.9649459000211,down,0.4610386999556795,10,1,0,99,0.08,-2.7755575615628914e-17,down,0.37662080000154674,,,,,,,,,,,,,,,,,,,,,,,,,,,,,,,,,,,,,,,,,,,,,,,,,,,,,,,,,,,,A5PLRQ,train_y,red_square,top_left,2025-03-28_14h15.09.382,HideSeek_v1,2022.2.5,59.939676738451894,
,3,8,3,4,0,-4,12,,train_dim1_1,25,30,,,,2,0,2,0,,,,,,,,,0,0,0,0,0,24,24,24,3,0,3,0,,,,,,,,,,,,,,,,,,,,,,,,,,,,,,,,,,,,,,,,,,,,,,,,,,,,,,,,,,,,,,,,30,,,,,,,,576.4327180000255,576.4327180000255,576.4327180000255,576.4327180000255,576.4327180000255,down,0.9929695000173524,10,1,0,99,0.08,-0.08000000000000003,down,0.9165633000666276,,,,,,,,,,,,,,,,,,,,,,,,,,,,,,,,,,,,,,,,,,,,,,,,,,,,,,,,,,,,A5PLRQ,train_y,red_square,top_left,2025-03-28_14h15.09.382,HideSeek_v1,2022.2.5,59.939676738451894,
,3,8,3,4,0,-4,12,,train_dim1_1,25,30,,,,2,0,2,0,,,,,,,,,0,0,0,0,0,24,24,24,4,0,4,0,,,,,,,,,,,,,,,,,,,,,,,,,,,,,,,,,,,,,,,,,,,,,,,,,,,,,,,,,,,,,,,,30,,,,,,,,577.4341438000556,577.4341438000556,577.4341438000556,577.4341438000556,577.4341438000556,return,0.42653639998752624,11,0,0,1,0.08,-0.08000000000000003,return,0.34660649998113513,-55,7,0.08,-0.08000000000000003,,,,,,,,,,,,,,,,,,,,,,,,,,,,,,,,,,,,,,,,,,,,,,,,,,,,,,,,A5PLRQ,train_y,red_square,top_left,2025-03-28_14h15.09.382,HideSeek_v1,2022.2.5,59.939676738451894,
,4,9,4,6,0,-3,13,,train_dim1_1,26,30,,,,2,0,2,0,,,,,,,,,0,0,0,0,0,25,25,25,0,0,0,0,,,,,,,,,,,,,,,,,,,,,,,,,stimuli/alien_stimuli/13.png,,,,,,,,,,,,,,,,,,,,,,,,,,,,,stimuli/alien_stimuli/12.png,12,3,27,,,,,,,30,,,,,,,,581.724603000097,581.724603000097,581.724603000097,581.724603000097,581.724603000097,down,2.205884199938737,11,0,0,99,0.16,0.24,down,2.1207958000013605,,,,,580.1688118000748,581.724603000097,0.08,-0.08,0.32,0.0,0.07999999999999999,0.08,0.08,0.08,-0.08,579.4160835000221,579.4160835000221,579.4160835000221,579.4160835000221,579.4160835000221,579.4160835000221,579.4160835000221,579.4160835000221,579.4010877600173,0.852899199933745,return,0.7202766999835148,,,,,,,,,,,,,,,,,,,,,,,,,,,,,,,,,A5PLRQ,train_y,red_square,top_left,2025-03-28_14h15.09.382,HideSeek_v1,2022.2.5,59.939676738451894,
,4,9,4,6,0,-3,13,,train_dim1_1,26,30,,,,2,0,2,0,,,,,,,,,0,0,0,0,0,25,25,25,1,0,1,0,,,,,,,,,,,,,,,,,,,,,,,,,,,,,,,,,,,,,,,,,,,,,,,,,,,,,,,,,,,,,,,,30,,,,,,,,583.9381233000895,583.9381233000895,583.9381233000895,583.9381233000895,583.9381233000895,down,0.3427725000074133,11,0,0,99,0.16,0.15999999999999998,down,0.2587196999229491,,,,,,,,,,,,,,,,,,,,,,,,,,,,,,,,,,,,,,,,,,,,,,,,,,,,,,,,,,,,A5PLRQ,train_y,red_square,top_left,2025-03-28_14h15.09.382,HideSeek_v1,2022.2.5,59.939676738451894,
,4,9,4,6,0,-3,13,,train_dim1_1,26,30,,,,2,0,2,0,,,,,,,,,0,0,0,0,0,25,25,25,2,0,2,0,,,,,,,,,,,,,,,,,,,,,,,,,,,,,,,,,,,,,,,,,,,,,,,,,,,,,,,,,,,,,,,,30,,,,,,,,584.2878491000738,584.2878491000738,584.2878491000738,584.2878491000738,584.2878491000738,down,0.3435225000139326,11,0,0,99,0.16,0.07999999999999997,down,0.25896030000876635,,,,,,,,,,,,,,,,,,,,,,,,,,,,,,,,,,,,,,,,,,,,,,,,,,,,,,,,,,,,A5PLRQ,train_y,red_square,top_left,2025-03-28_14h15.09.382,HideSeek_v1,2022.2.5,59.939676738451894,
,4,9,4,6,0,-3,13,,train_dim1_1,26,30,,,,2,0,2,0,,,,,,,,,0,0,0,0,0,25,25,25,3,0,3,0,,,,,,,,,,,,,,,,,,,,,,,,,,,,,,,,,,,,,,,,,,,,,,,,,,,,,,,,,,,,,,,,30,,,,,,,,584.6382070000982,584.6382070000982,584.6382070000982,584.6382070000982,584.6382070000982,down,0.3094233999727294,11,0,0,99,0.16,-2.7755575615628914e-17,down,0.22701759997289628,,,,,,,,,,,,,,,,,,,,,,,,,,,,,,,,,,,,,,,,,,,,,,,,,,,,,,,,,,,,A5PLRQ,train_y,red_square,top_left,2025-03-28_14h15.09.382,HideSeek_v1,2022.2.5,59.939676738451894,
,4,9,4,6,0,-3,13,,train_dim1_1,26,30,,,,2,0,2,0,,,,,,,,,0,0,0,0,0,25,25,25,4,0,4,0,,,,,,,,,,,,,,,,,,,,,,,,,,,,,,,,,,,,,,,,,,,,,,,,,,,,,,,,,,,,,,,,30,,,,,,,,584.9551390000852,584.9551390000852,584.9551390000852,584.9551390000852,584.9551390000852,return,0.8438120000064373,11,1,0,0,0.16,-2.7755575615628914e-17,return,0.7617361999582499,-59,7,0.16,-2.7755575615628914e-17,,,,,,,,,,,,,,,,,,,,,,,,,,,,,,,,,,,,,,,,,,,,,,,,,,,,,,,,A5PLRQ,train_y,red_square,top_left,2025-03-28_14h15.09.382,HideSeek_v1,2022.2.5,59.939676738451894,
,3,9,3,9,0,0,16,,train_dim1_1,27,30,,,,2,0,2,0,,,,,,,,,0,0,0,0,0,26,26,26,0,0,0,0,,,,,,,,,,,,,,,,,,,,,,,,,stimuli/alien_stimuli/16.png,,,,,,,,,,,,,,,,,,,,,,,,,,,,,stimuli/alien_stimuli/13.png,13,4,28,,,,,,,30,,,,,,,,590.3310444999952,590.3310444999952,590.3310444999952,590.3310444999952,590.3310444999952,down,1.6558883999241516,11,1,0,99,0.08,0.24,down,1.5763573999283835,,,,,588.7756290000398,590.3310444999952,0.16,0.08,0.24,0.0,0.2,0.16,0.16,0.16,0.08,587.3543851000722,587.3543851000722,587.3543851000722,587.3543851000722,587.3543851000722,587.3543851000722,587.3543851000722,587.3543851000722,587.341246760008,1.519628099980764,return,1.3931648000143468,,,,,,,,,,,,,,,,,,,,,,,,,,,,,,,,,A5PLRQ,train_y,red_square,top_left,2025-03-28_14h15.09.382,HideSeek_v1,2022.2.5,59.939676738451894,
,3,9,3,9,0,0,16,,train_dim1_1,27,30,,,,2,0,2,0,,,,,,,,,0,0,0,0,0,26,26,26,1,0,1,0,,,,,,,,,,,,,,,,,,,,,,,,,,,,,,,,,,,,,,,,,,,,,,,,,,,,,,,,,,,,,,,,30,,,,,,,,591.9952370000537,591.9952370000537,591.9952370000537,591.9952370000537,591.9952370000537,up,0.9767700999509543,11,1,0,99,0.08,0.32,up,0.8959955000318587,,,,,,,,,,,,,,,,,,,,,,,,,,,,,,,,,,,,,,,,,,,,,,,,,,,,,,,,,,,,A5PLRQ,train_y,red_square,top_left,2025-03-28_14h15.09.382,HideSeek_v1,2022.2.5,59.939676738451894,
,3,9,3,9,0,0,16,,train_dim1_1,27,30,,,,2,0,2,0,,,,,,,,,0,0,0,0,0,26,26,26,2,0,2,0,,,,,,,,,,,,,,,,,,,,,,,,,,,,,,,,,,,,,,,,,,,,,,,,,,,,,,,,,,,,,,,,30,,,,,,,,592.9781189000932,592.9781189000932,592.9781189000932,592.9781189000932,592.9781189000932,down,0.4933459999738261,11,1,0,99,0.08,0.24,down,0.40334469999652356,,,,,,,,,,,,,,,,,,,,,,,,,,,,,,,,,,,,,,,,,,,,,,,,,,,,,,,,,,,,A5PLRQ,train_y,red_square,top_left,2025-03-28_14h15.09.382,HideSeek_v1,2022.2.5,59.939676738451894,
,3,9,3,9,0,0,16,,train_dim1_1,27,30,,,,2,0,2,0,,,,,,,,,0,0,0,0,0,26,26,26,3,0,3,0,,,,,,,,,,,,,,,,,,,,,,,,,,,,,,,,,,,,,,,,,,,,,,,,,,,,,,,,,,,,,,,,30,,,,,,,,593.47955430008,593.47955430008,593.47955430008,593.47955430008,593.47955430008,return,0.5267914000432938,11,1,0,0,0.08,0.24,return,0.45024649996776134,-60,7,0.08,0.24,,,,,,,,,,,,,,,,,,,,,,,,,,,,,,,,,,,,,,,,,,,,,,,,,,,,,,,,A5PLRQ,train_y,red_square,top_left,2025-03-28_14h15.09.382,HideSeek_v1,2022.2.5,59.939676738451894,
,4,6,4,1,0,-5,11,,train_dim1_1,28,30,,,,2,0,2,0,,,,,,,,,0,0,0,0,0,27,27,27,0,0,0,0,,,,,,,,,,,,,,,,,,,,,,,,,stimuli/alien_stimuli/11.png,,,,,,,,,,,,,,,,,,,,,,,,,,,,,stimuli/alien_stimuli/16.png,16,3,29,,,,,,,30,,,,,,,,599.8408751999959,599.8408751999959,599.8408751999959,599.8408751999959,599.8408751999959,down,1.3383180999662727,11,1,0,99,0.16,0.0,down,1.2531675000209361,,,,,598.283380900044,599.8408751999959,0.08,0.32,0.0,0.0,0.32,0.08,0.08,0.08,0.32,595.5616892999969,595.5616892999969,595.5616892999969,595.5616892999969,595.5616892999969,595.5616892999969,595.5616892999969,595.5616892999969,595.5479320599931,2.821347299963236,return,2.7016093001002446,,,,,,,,,,,,,,,,,,,,,,,,,,,,,,,,,A5PLRQ,train_y,red_square,top_left,2025-03-28_14h15.09.382,HideSeek_v1,2022.2.5,59.939676738451894,
,4,6,4,1,0,-5,11,,train_dim1_1,28,30,,,,2,0,2,0,,,,,,,,,0,0,0,0,0,27,27,27,1,0,1,0,,,,,,,,,,,,,,,,,,,,,,,,,,,,,,,,,,,,,,,,,,,,,,,,,,,,,,,,,,,,,,,,30,,,,,,,,601.1863174000755,601.1863174000755,601.1863174000755,601.1863174000755,601.1863174000755,down,0.5765137999551371,11,1,0,99,0.16,-0.08,down,0.49161210004240274,,,,,,,,,,,,,,,,,,,,,,,,,,,,,,,,,,,,,,,,,,,,,,,,,,,,,,,,,,,,A5PLRQ,train_y,red_square,top_left,2025-03-28_14h15.09.382,HideSeek_v1,2022.2.5,59.939676738451894,
,4,6,4,1,0,-5,11,,train_dim1_1,28,30,,,,2,0,2,0,,,,,,,,,0,0,0,0,0,27,27,27,2,0,2,0,,,,,,,,,,,,,,,,,,,,,,,,,,,,,,,,,,,,,,,,,,,,,,,,,,,,,,,,,,,,,,,,30,,,,,,,,601.7700867000967,601.7700867000967,601.7700867000967,601.7700867000967,601.7700867000967,down,0.5099989000009373,11,1,0,99,0.16,-0.16,down,0.420358799980022,,,,,,,,,,,,,,,,,,,,,,,,,,,,,,,,,,,,,,,,,,,,,,,,,,,,,,,,,,,,A5PLRQ,train_y,red_square,top_left,2025-03-28_14h15.09.382,HideSeek_v1,2022.2.5,59.939676738451894,
,4,6,4,1,0,-5,11,,train_dim1_1,28,30,,,,2,0,2,0,,,,,,,,,0,0,0,0,0,27,27,27,3,0,3,0,,,,,,,,,,,,,,,,,,,,,,,,,,,,,,,,,,,,,,,,,,,,,,,,,,,,,,,,,,,,,,,,30,,,,,,,,602.2873232000275,602.2873232000275,602.2873232000275,602.2873232000275,602.2873232000275,down,1.2938952000113204,11,1,0,99,0.16,-0.24,down,1.2062165000243112,,,,,,,,,,,,,,,,,,,,,,,,,,,,,,,,,,,,,,,,,,,,,,,,,,,,,,,,,,,,A5PLRQ,train_y,red_square,top_left,2025-03-28_14h15.09.382,HideSeek_v1,2022.2.5,59.939676738451894,
,4,6,4,1,0,-5,11,,train_dim1_1,28,30,,,,2,0,2,0,,,,,,,,,0,0,0,0,0,27,27,27,4,0,4,0,,,,,,,,,,,,,,,,,,,,,,,,,,,,,,,,,,,,,,,,,,,,,,,,,,,,,,,,,,,,,,,,30,,,,,,,,603.5875702000922,603.5875702000922,603.5875702000922,603.5875702000922,603.5875702000922,down,2.2782042999751866,11,1,0,99,0.16,-0.32,down,2.201741599943489,,,,,,,,,,,,,,,,,,,,,,,,,,,,,,,,,,,,,,,,,,,,,,,,,,,,,,,,,,,,A5PLRQ,train_y,red_square,top_left,2025-03-28_14h15.09.382,HideSeek_v1,2022.2.5,59.939676738451894,
,4,6,4,1,0,-5,11,,train_dim1_1,28,30,,,,2,0,2,0,,,,,,,,,0,0,0,0,0,27,27,27,5,0,5,0,,,,,,,,,,,,,,,,,,,,,,,,,,,,,,,,,,,,,,,,,,,,,,,,,,,,,,,,,,,,,,,,30,,,,,,,,605.872497000033,605.872497000033,605.872497000033,605.872497000033,605.872497000033,return,0.4933747999602929,12,0,0,1,0.16,-0.32,return,0.41007999994326383,-65,7,0.16,-0.32,,,,,,,,,,,,,,,,,,,,,,,,,,,,,,,,,,,,,,,,,,,,,,,,,,,,,,,,A5PLRQ,train_y,red_square,top_left,2025-03-28_14h15.09.382,HideSeek_v1,2022.2.5,59.939676738451894,
,2,7,2,3,0,-4,12,,train_dim1_1,29,30,,,,2,0,2,0,,,,,,,,,0,0,0,0,0,28,28,28,0,0,0,0,,,,,,,,,,,,,,,,,,,,,,,,,stimuli/alien_stimuli/12.png,,,,,,,,,,,,,,,,,,,,,,,,,,,,,stimuli/alien_stimuli/11.png,11,4,30,,,,,,,30,,,,,,,,610.3652669000439,610.3652669000439,610.3652669000439,610.3652669000439,610.3652669000439,down,2.290574499987997,12,0,0,99,0,0.08,down,2.2021791000152007,,,,,608.8087327000685,610.3652669000439,0.16,-0.32,0.4,0.0,-0.12,0.16,0.16,0.16,-0.32,607.9377182000317,607.9377182000317,607.9377182000317,607.9377182000317,607.9377182000317,607.9377182000317,607.9377182000317,607.9377182000317,607.9248896700913,0.9858721999917179,return,0.839613200048916,,,,,,,,,,,,,,,,,,,,,,,,,,,,,,,,,A5PLRQ,train_y,red_square,top_left,2025-03-28_14h15.09.382,HideSeek_v1,2022.2.5,59.939676738451894,
,2,7,2,3,0,-4,12,,train_dim1_1,29,30,,,,2,0,2,0,,,,,,,,,0,0,0,0,0,28,28,28,1,0,1,0,,,,,,,,,,,,,,,,,,,,,,,,,,,,,,,,,,,,,,,,,,,,,,,,,,,,,,,,,,,,,,,,30,,,,,,,,612.6627325000009,612.6627325000009,612.6627325000009,612.6627325000009,612.6627325000009,down,0.4432734000729397,12,0,0,99,0,0.0,down,0.3599291999125853,,,,,,,,,,,,,,,,,,,,,,,,,,,,,,,,,,,,,,,,,,,,,,,,,,,,,,,,,,,,A5PLRQ,train_y,red_square,top_left,2025-03-28_14h15.09.382,HideSeek_v1,2022.2.5,59.939676738451894,
,2,7,2,3,0,-4,12,,train_dim1_1,29,30,,,,2,0,2,0,,,,,,,,,0,0,0,0,0,28,28,28,2,0,2,0,,,,,,,,,,,,,,,,,,,,,,,,,,,,,,,,,,,,,,,,,,,,,,,,,,,,,,,,,,,,,,,,30,,,,,,,,613.1125809000805,613.1125809000805,613.1125809000805,613.1125809000805,613.1125809000805,down,0.3265102000441402,12,0,0,99,0,-0.08,down,0.23989750002510846,,,,,,,,,,,,,,,,,,,,,,,,,,,,,,,,,,,,,,,,,,,,,,,,,,,,,,,,,,,,A5PLRQ,train_y,red_square,top_left,2025-03-28_14h15.09.382,HideSeek_v1,2022.2.5,59.939676738451894,
,2,7,2,3,0,-4,12,,train_dim1_1,29,30,,,,2,0,2,0,,,,,,,,,0,0,0,0,0,28,28,28,3,0,3,0,,,,,,,,,,,,,,,,,,,,,,,,,,,,,,,,,,,,,,,,,,,,,,,,,,,,,,,,,,,,,,,,30,,,,,,,,613.4461806000909,613.4461806000909,613.4461806000909,613.4461806000909,613.4461806000909,down,0.35984749998897314,12,0,0,99,0,-0.16,down,0.27481560001615435,,,,,,,,,,,,,,,,,,,,,,,,,,,,,,,,,,,,,,,,,,,,,,,,,,,,,,,,,,,,A5PLRQ,train_y,red_square,top_left,2025-03-28_14h15.09.382,HideSeek_v1,2022.2.5,59.939676738451894,
,2,7,2,3,0,-4,12,,train_dim1_1,29,30,,,,2,0,2,0,,,,,,,,,0,0,0,0,0,28,28,28,4,0,4,0,,,,,,,,,,,,,,,,,,,,,,,,,,,,,,,,,,,,,,,,,,,,,,,,,,,,,,,,,,,,,,,,30,,,,,,,,613.8136591000948,613.8136591000948,613.8136591000948,613.8136591000948,613.8136591000948,return,0.3598937999922782,13,0,0,1,0,-0.16,return,0.27433909999672323,-69,7,0,-0.16,,,,,,,,,,,,,,,,,,,,,,,,,,,,,,,,,,,,,,,,,,,,,,,,,,,,,,,,A5PLRQ,train_y,red_square,top_left,2025-03-28_14h15.09.382,HideSeek_v1,2022.2.5,59.939676738451894,
,0,6,0,5,0,-1,15,,train_dim1_1,30,30,,,,2,0,2,0,,,,,,,,,0,0,0,0,0,29,29,29,0,0,0,0,,,,,,,,,,,,,,,,,,,,,,,,,stimuli/alien_stimuli/15.png,,,,,,,,,,,,,,,,,,,,,,,,,,,,,stimuli/alien_stimuli/12.png,12,2,31,,,,,,,30,,,,,,,,618.2212673000759,618.2212673000759,618.2212673000759,618.2212673000759,618.2212673000759,down,2.5906405999558046,13,0,0,99,-0.16,0.0,down,2.5122495000250638,,,,,616.6653486000141,618.2212673000759,0,-0.16,0.32,0.0,0.0,0,0.0,0,-0.16,615.7295764000155,615.7295764000155,615.7295764000155,615.7295764000155,615.7295764000155,615.7295764000155,615.7295764000155,615.7295764000155,615.7313788700733,1.0365563000086695,return,0.9184118000557646,,,,,,,,,,,,,,,,,,,,,,,,,,,,,,,,,A5PLRQ,train_y,red_square,top_left,2025-03-28_14h15.09.382,HideSeek_v1,2022.2.5,59.939676738451894,
,0,6,0,5,0,-1,15,,train_dim1_1,30,30,,,,2,0,2,0,,,,,,,,,0,0,0,0,0,29,29,29,1,0,1,0,,,,,,,,,,,,,,,,,,,,,,,,,,,,,,,,,,,,,,,,,,,,,,,,,,,,,,,,,,,,,,,,30,,,,,,,,620.8191593000665,620.8191593000665,620.8191593000665,620.8191593000665,620.8191593000665,return,0.6267073999624699,14,0,0,1,-0.16,0.0,return,0.5451668999157846,-70,7,-0.16,0.0,,,,,,,,,,,,,,,,,,,,,,,,,,,,,,,,,,,,,,,,,,,,,,,,,,,,,,,,A5PLRQ,train_y,red_square,top_left,2025-03-28_14h15.09.382,HideSeek_v1,2022.2.5,59.939676738451894,
,,,,,,,,,,,30,,,,2,0,2,0,,,,,,,,,,,,,,,,,,,,,,,,,,,,,,,,,,,,,,,,,,,,,,,,,,,,,,,,,,,,,,,,,,,,,,,,,,stimuli/alien_stimuli/15.png,15,0,32,21,0.7,0.5833333333333334,1,1,1,30,0,conditions/schedules/train_y_first/red_square_00/top_left/inputTrain_2.1.xlsx,99,1,2,1,0,,,,,,,,,,,1,,,,,,,,,623.7212860999862,625.2787124000024,-0.16,0,0.08,0.0,0.04,-0.16,-0.16,-0.16,0,622.9998590000905,622.9998590000905,622.9998590000905,622.9998590000905,622.9998590000905,622.9998590000905,622.9998590000905,622.9998590000905,622.9875641600462,0.8191789999837056,return,0.6977319999132305,0,0.9,0,1,14,,,,,,,,,,,,,,,,,,,,,,,,,,,,A5PLRQ,train_y,red_square,top_left,2025-03-28_14h15.09.382,HideSeek_v1,2022.2.5,59.939676738451894,
,,,,,,,,,,,,,,,3,0,3,0,0,0,0,0,,,,,,,,,,,,,,,,,,,,,,,,,,,,,,,conditions/schedules/train_y_first/red_square_00/top_left/instructions/Slide17.png,conditions/schedules/train_y_first/red_square_00/top_left/instructions/Audio17.wav,625.2787124000024,625.2726378399879,17,"[9.293861399986781, 18.099270100006834, 16.44489679997787, 19.19620250002481, 5.143331999890506, 4.804168300004676, 5.523309200070798, 11.525010999990627, 6.097582799964584, 6.935380900045857, 10.13774260005448, 13.812270599999465, 16.830572200007737, 16.644751799991354, 43.415338700055145, 24.619315100018866, 36.50705159991048]","[9.293880800018087, 0.04775330005213618, 0.00021770002786070108, 0.05588939995504916, 0.014323699986562133, 0.035384700051508844, 0.04852979991119355, 0.04720150004141033, 0.06272659997921437, 0.06275849998928607, 0.05100149998907, 13.812278799945489, 0.03088989993557334, 16.64476299996022, 0.14898339996580034, 24.619322999962606, 36.507082099909894]",0,,,,,,,,,,,,,,,,,,,,,,,,,,,,,,,,,,,,,,,,,,,,,,,,,,,,,,,,,,,,,,,,,,,,,,,,,,,,,,,,,,,,,,,,,,,,,,,,,,,,,,,,,,,,,,,,,,,,,,,,,,,,A5PLRQ,train_y,red_square,top_left,2025-03-28_14h15.09.382,HideSeek_v1,2022.2.5,59.939676738451894,
,,,,,,,,,,,,,,,3,0,3,0,1,0,1,0,,,,,,,,,,,,,,,,,,,,,,,,,,,,,,,conditions/schedules/train_y_first/red_square_00/top_left/instructions/Slide18.png,conditions/schedules/train_y_first/red_square_00/top_left/instructions/Audio18.wav,661.8490374000976,661.8375077399891,18,"[9.293861399986781, 18.099270100006834, 16.44489679997787, 19.19620250002481, 5.143331999890506, 4.804168300004676, 5.523309200070798, 11.525010999990627, 6.097582799964584, 6.935380900045857, 10.13774260005448, 13.812270599999465, 16.830572200007737, 16.644751799991354, 43.415338700055145, 24.619315100018866, 36.50705159991048, 6.357111599994823]","[9.293880800018087, 0.04775330005213618, 0.00021770002786070108, 0.05588939995504916, 0.014323699986562133, 0.035384700051508844, 0.04852979991119355, 0.04720150004141033, 0.06272659997921437, 0.06275849998928607, 0.05100149998907, 13.812278799945489, 0.03088989993557334, 16.64476299996022, 0.14898339996580034, 24.619322999962606, 36.507082099909894, 6.357119700056501]",0,,,,,,,,,,,,,,,,,,,,,,,,,,,,,,,,,,,,,,,,,,,,,,,,,,,,,,,,,,,,,,,,,,,,,,,,,,,,,,,,,,,,,,,,,,,,,,,,,,,,,,,,,,,,,,,,,,,,,,,,,,,,A5PLRQ,train_y,red_square,top_left,2025-03-28_14h15.09.382,HideSeek_v1,2022.2.5,59.939676738451894,
,,,,,,,,,,,,,,,3,0,3,0,2,0,2,0,,,,,,,,,,,,,,,,,,,,,,,,,,,,,,,conditions/schedules/train_y_first/red_square_00/top_left/instructions/Slide19.png,conditions/schedules/train_y_first/red_square_00/top_left/instructions/Audio19.wav,668.2586492000846,668.2584869400365,19,"[9.293861399986781, 18.099270100006834, 16.44489679997787, 19.19620250002481, 5.143331999890506, 4.804168300004676, 5.523309200070798, 11.525010999990627, 6.097582799964584, 6.935380900045857, 10.13774260005448, 13.812270599999465, 16.830572200007737, 16.644751799991354, 43.415338700055145, 24.619315100018866, 36.50705159991048, 6.357111599994823, 9.638404299970716]","[9.293880800018087, 0.04775330005213618, 0.00021770002786070108, 0.05588939995504916, 0.014323699986562133, 0.035384700051508844, 0.04852979991119355, 0.04720150004141033, 0.06272659997921437, 0.06275849998928607, 0.05100149998907, 13.812278799945489, 0.03088989993557334, 16.64476299996022, 0.14898339996580034, 24.619322999962606, 36.507082099909894, 0.04711320006754249, 9.638412500033155]",0,,,,,,,,,,,,,,,,,,,,,,,,,,,,,,,,,,,,,,,,,,,,,,,,,,,,,,,,,,,,,,,,,,,,,,,,,,,,,,,,,,,,,,,,,,,,,,,,,,,,,,,,,,,,,,,,,,,,,,,,,,,,A5PLRQ,train_y,red_square,top_left,2025-03-28_14h15.09.382,HideSeek_v1,2022.2.5,59.939676738451894,
,,,,,,,,,,,,,,,3,0,3,0,3,0,3,0,,,,,,,,,,,,,,,,,,,,,,,,,,,,,,,conditions/schedules/train_y_first/red_square_00/top_left/instructions/Slide20.png,conditions/schedules/train_y_first/red_square_00/top_left/instructions/Audio20.wav,677.9654344000155,677.9664591500186,20,"[9.293861399986781, 18.099270100006834, 16.44489679997787, 19.19620250002481, 5.143331999890506, 4.804168300004676, 5.523309200070798, 11.525010999990627, 6.097582799964584, 6.935380900045857, 10.13774260005448, 13.812270599999465, 16.830572200007737, 16.644751799991354, 43.415338700055145, 24.619315100018866, 36.50705159991048, 6.357111599994823, 9.638404299970716, 12.709479599958286]","[9.293880800018087, 0.04775330005213618, 0.00021770002786070108, 0.05588939995504916, 0.014323699986562133, 0.035384700051508844, 0.04852979991119355, 0.04720150004141033, 0.06272659997921437, 0.06275849998928607, 0.05100149998907, 13.812278799945489, 0.03088989993557334, 16.64476299996022, 0.14898339996580034, 24.619322999962606, 36.507082099909894, 0.04711320006754249, 0.06587009993381798, 12.709488300024532]",0,,,,,,,,,,,,,,,,,,,,,,,,,,,,,,,,,,,,,,,,,,,,,,,,,,,,,,,,,,,,,,,,,,,,,,,,,,,,,,,,,,,,,,,,,,,,,,,,,,,,,,,,,,,,,,,,,,,,,,,,,,,,A5PLRQ,train_y,red_square,top_left,2025-03-28_14h15.09.382,HideSeek_v1,2022.2.5,59.939676738451894,
1,3,7,8,7,5,0,66,2,instr_dim1_2,,,,,,3,0,3,0,,,,,0,0,0,0,,,,,,,,,,,,,,,,,,,,,,,,,,,,,,,,,,,,,stimuli/alien_stimuli/66.png,conditions/schedules/train_y_first/red_square_00/top_left/inputInstr_2.xlsx,stimuli/alien_stimuli/66.png,690.765163400094,690.765163400094,690.765163400094,690.765163400094,690.7603773600655,return,6.293337399954908,"[-0.16, -0.08, 0, 0.08, 0.16, 0.24, 0.32, 0.4, 0.48, 0.56]","[-0.4, -0.32, -0.24, -0.16, -0.08, 0, 0.08, 0.16, 0.24, 0.32]",7,7,8,3,0.0,0.4,697.2013992000138,697.2013992000138,697.2013992000138,697.2013992000138,697.2013992000138,697.2013992000138,697.2013992000138,697.1822472700035,6.5399111999431625,return,6.400785799953155,stimuli/alien_stimuli/66.png,66,3,1,,,,,,,,,,,,,,,,,,,,,,,,,,,,,,,,,,,,,,,,,,,,,,,,,,,,,,,,,,,,,,,,,,,,,,,,,,,,,,,,,,,,,,,,,A5PLRQ,train_y,red_square,top_left,2025-03-28_14h15.09.382,HideSeek_v1,2022.2.5,59.939676738451894,
,,,,,,,,,,,30,,,,3,0,3,0,,,,,,,,,,,,,,,,,,,,,,,,,,,,,,,,,,,,,,,,,,,,,,,,,,,,,,,,,,,,,,,,,,,,,,,,,,,,,,21,0.7,0.5833333333333334,1,99,2,30,0,conditions/schedules/train_y_first/red_square_00/top_left/inputTrain_2.1.xlsx,99,1,2,1,0,,,,,,,,,,,,,,,,,,,,,,,,,,,,,,,,,,,,,,,,,,,,,,,,,,,,,,,,,,,,,,,,,,,,,,,,,,,A5PLRQ,train_y,red_square,top_left,2025-03-28_14h15.09.382,HideSeek_v1,2022.2.5,59.939676738451894,
,,,,,,,,,,,,,,,4,0,4,0,0,0,0,0,,,,,,,,,,,,,,,,,,,,,,,,,,,,,,,conditions/schedules/train_y_first/red_square_00/top_left/instructions/Slide21.png,conditions/schedules/train_y_first/red_square_00/top_left/instructions/Audio21.wav,703.7519023000496,703.7544491900247,21,"[9.293861399986781, 18.099270100006834, 16.44489679997787, 19.19620250002481, 5.143331999890506, 4.804168300004676, 5.523309200070798, 11.525010999990627, 6.097582799964584, 6.935380900045857, 10.13774260005448, 13.812270599999465, 16.830572200007737, 16.644751799991354, 43.415338700055145, 24.619315100018866, 36.50705159991048, 6.357111599994823, 9.638404299970716, 12.709479599958286, 13.160550700034946]","[9.293880800018087, 0.04775330005213618, 0.00021770002786070108, 0.05588939995504916, 0.014323699986562133, 0.035384700051508844, 0.04852979991119355, 0.04720150004141033, 0.06272659997921437, 0.06275849998928607, 0.05100149998907, 13.812278799945489, 0.03088989993557334, 16.64476299996022, 0.14898339996580034, 24.619322999962606, 36.507082099909894, 0.04711320006754249, 0.06587009993381798, 12.709488300024532, 13.16055819997564]",0,,,,,,,,,,,,,,,,,,,,,,,,,,,,,,,,,,,,,,,,,,,,,,,,,,,,,,,,,,,,,,,,,,,,,,,,,,,,,,,,,,,,,,,,,,,,,,,,,,,,,,,,,,,,,,,,,,,,,,,,,,,,A5PLRQ,train_y,red_square,top_left,2025-03-28_14h15.09.382,HideSeek_v1,2022.2.5,59.939676738451894,
2,4,5,4,5,0,0,16,2,instr_dim1_2,,,,,,4,0,4,0,,,,,0,0,0,0,,,,,,,,,,,,,,,,,,,,,,,,,,,,,,,,,,,,,stimuli/alien_stimuli/16.png,conditions/schedules/train_y_first/red_square_00/top_left/inputInstr_2.xlsx,stimuli/alien_stimuli/16.png,717.0087321000174,717.0087321000174,717.0087321000174,717.0087321000174,716.9988501600689,return,6.420283799991012,"[-0.16, -0.08, 0, 0.08, 0.16, 0.24, 0.32, 0.4, 0.48, 0.56]","[-0.4, -0.32, -0.24, -0.16, -0.08, 0, 0.08, 0.16, 0.24, 0.32]",5,5,4,4,0.0,0.0,723.5930604999885,723.5930604999885,723.5930604999885,723.5930604999885,723.5930604999885,723.5930604999885,723.5930604999885,723.5708587800153,6.690088599920273,return,6.529107500100508,stimuli/alien_stimuli/16.png,16,4,2,,,,,,,,,,,,,,,,,,,,,,,,,,,,,,,,,,,,,,,,,,,,,,,,,,,,,,,,,,,,,,,,,,,,,,,,,,,,,,,,,,,,,,,,,A5PLRQ,train_y,red_square,top_left,2025-03-28_14h15.09.382,HideSeek_v1,2022.2.5,59.939676738451894,
,,,,,,,,,,,30,,,,4,0,4,0,,,,,,,,,,,,,,,,,,,,,,,,,,,,,,,,,,,,,,,,,,,,,,,,,,,,,,,,,,,,,,,,,,,,,,,,,,,,,,21,0.7,0.5833333333333334,1,99,2,30,0,conditions/schedules/train_y_first/red_square_00/top_left/inputTrain_2.1.xlsx,99,1,2,1,0,,,,,,,,,,,,,,,,,,,,,,,,,,,,,,,,,,,,,,,,,,,,,,,,,,,,,,,,,,,,,,,,,,,,,,,,,,,A5PLRQ,train_y,red_square,top_left,2025-03-28_14h15.09.382,HideSeek_v1,2022.2.5,59.939676738451894,
,,,,,,,,,,,,,,,5,0,5,0,0,0,0,0,,,,,,,,,,,,,,,,,,,,,,,,,,,,,,,conditions/schedules/train_y_first/red_square_00/top_left/instructions/Slide22.png,conditions/schedules/train_y_first/red_square_00/top_left/instructions/Audio22.wav,730.2776639000513,730.2766179900267,22,"[9.293861399986781, 18.099270100006834, 16.44489679997787, 19.19620250002481, 5.143331999890506, 4.804168300004676, 5.523309200070798, 11.525010999990627, 6.097582799964584, 6.935380900045857, 10.13774260005448, 13.812270599999465, 16.830572200007737, 16.644751799991354, 43.415338700055145, 24.619315100018866, 36.50705159991048, 6.357111599994823, 9.638404299970716, 12.709479599958286, 13.160550700034946, 30.32201950007584]","[9.293880800018087, 0.04775330005213618, 0.00021770002786070108, 0.05588939995504916, 0.014323699986562133, 0.035384700051508844, 0.04852979991119355, 0.04720150004141033, 0.06272659997921437, 0.06275849998928607, 0.05100149998907, 13.812278799945489, 0.03088989993557334, 16.64476299996022, 0.14898339996580034, 24.619322999962606, 36.507082099909894, 0.04711320006754249, 0.06587009993381798, 12.709488300024532, 13.16055819997564, 30.32202670001425]",0,,,,,,,,,,,,,,,,,,,,,,,,,,,,,,,,,,,,,,,,,,,,,,,,,,,,,,,,,,,,,,,,,,,,,,,,,,,,,,,,,,,,,,,,,,,,,,,,,,,,,,,,,,,,,,,,,,,,,,,,,,,,A5PLRQ,train_y,red_square,top_left,2025-03-28_14h15.09.382,HideSeek_v1,2022.2.5,59.939676738451894,
,2,6,5,6,3,0,46,,train_dim1_2,1,30,,,,5,0,5,0,,,,,,,,,0,0,0,0,0,0,0,0,0,0,0,0,,,,,,,,,,,,,,,,,,,,,,,,,stimuli/alien_stimuli/46.png,,,,,,,,,,,,,,,,,,,,,,,,,,,,,,,,,,,,,,,30,,,,,,,,760.6941797999898,760.6941797999898,760.6941797999898,760.6941797999898,760.6941797999898,right,14.589110599947162,0,0,0,99,0.08,0.08,right,14.503207199973986,,,,,,,,,,,,,,,,,,,,,,,,,,,,,,,,,,,,,,,,,,,,,,,,,,,,,,,,,,,,A5PLRQ,train_y,red_square,top_left,2025-03-28_14h15.09.382,HideSeek_v1,2022.2.5,59.939676738451894,
,2,6,5,6,3,0,46,,train_dim1_2,1,30,,,,5,0,5,0,,,,,,,,,0,0,0,0,0,0,0,0,1,0,1,0,,,,,,,,,,,,,,,,,,,,,,,,,,,,,,,,,,,,,,,,,,,,,,,,,,,,,,,,,,,,,,,,30,,,,,,,,775.2832207999891,775.2832207999891,775.2832207999891,775.2832207999891,775.2832207999891,right,6.330115600023419,0,0,0,99,0.16,0.08,right,6.245607299963012,,,,,,,,,,,,,,,,,,,,,,,,,,,,,,,,,,,,,,,,,,,,,,,,,,,,,,,,,,,,A5PLRQ,train_y,red_square,top_left,2025-03-28_14h15.09.382,HideSeek_v1,2022.2.5,59.939676738451894,
,2,6,5,6,3,0,46,,train_dim1_2,1,30,,,,5,0,5,0,,,,,,,,,0,0,0,0,0,0,0,0,2,0,2,0,,,,,,,,,,,,,,,,,,,,,,,,,,,,,,,,,,,,,,,,,,,,,,,,,,,,,,,,,,,,,,,,30,,,,,,,,781.6155214000028,781.6155214000028,781.6155214000028,781.6155214000028,781.6155214000028,right,0.4438361000502482,0,0,0,99,0.24,0.08,right,0.37152939999941736,,,,,,,,,,,,,,,,,,,,,,,,,,,,,,,,,,,,,,,,,,,,,,,,,,,,,,,,,,,,A5PLRQ,train_y,red_square,top_left,2025-03-28_14h15.09.382,HideSeek_v1,2022.2.5,59.939676738451894,
,2,6,5,6,3,0,46,,train_dim1_2,1,30,,,,5,0,5,0,,,,,,,,,0,0,0,0,0,0,0,0,3,0,3,0,,,,,,,,,,,,,,,,,,,,,,,,,,,,,,,,,,,,,,,,,,,,,,,,,,,,,,,,,,,,,,,,30,,,,,,,,782.0651312000118,782.0651312000118,782.0651312000118,782.0651312000118,782.0651312000118,return,0.3096809000708163,1,0,0,1,0.24,0.08,return,0.23757750005461276,-70,10,0.24,0.08,,,,,,,,,,,,,,,,,,,,,,,,,,,,,,,,,,,,,,,,,,,,,,,,,,,,,,,,A5PLRQ,train_y,red_square,top_left,2025-03-28_14h15.09.382,HideSeek_v1,2022.2.5,59.939676738451894,
,2,9,2,9,0,0,16,,train_dim1_2,2,30,,,,5,0,5,0,,,,,,,,,0,0,0,0,0,1,1,1,0,0,0,0,,,,,,,,,,,,,,,,,,,,,,,,,stimuli/alien_stimuli/16.png,,,,,,,,,,,,,,,,,,,,,,,,,,,,,stimuli/alien_stimuli/46.png,46,2,3,,,,,,,30,,,,,,,,786.6353551000357,786.6353551000357,786.6353551000357,786.6353551000357,786.6353551000357,down,2.587262300075963,1,0,0,99,0,0.24,down,2.488662000047043,,,,,785.0553781000199,786.6353551000357,0.24,0.08,0.0,0.24,0.08,0.24,0.12,0.24,0.08,783.9545272000832,783.9545272000832,783.9545272000832,783.9545272000832,783.9545272000832,783.9545272000832,783.9545272000832,783.9545272000832,783.9378277700046,1.2195727000944316,return,1.070651700021699,,,,,,,,,,,,,,,,,,,,,,,,,,,,,,,,,A5PLRQ,train_y,red_square,top_left,2025-03-28_14h15.09.382,HideSeek_v1,2022.2.5,59.939676738451894,
,2,9,2,9,0,0,16,,train_dim1_2,2,30,,,,5,0,5,0,,,,,,,,,0,0,0,0,0,1,1,1,1,0,1,0,,,,,,,,,,,,,,,,,,,,,,,,,,,,,,,,,,,,,,,,,,,,,,,,,,,,,,,,,,,,,,,,30,,,,,,,,789.2123202000512,789.2123202000512,789.2123202000512,789.2123202000512,789.2123202000512,up,0.4236761999782175,1,0,0,99,0,0.32,up,0.3377240999834612,,,,,,,,,,,,,,,,,,,,,,,,,,,,,,,,,,,,,,,,,,,,,,,,,,,,,,,,,,,,A5PLRQ,train_y,red_square,top_left,2025-03-28_14h15.09.382,HideSeek_v1,2022.2.5,59.939676738451894,
,2,9,2,9,0,0,16,,train_dim1_2,2,30,,,,5,0,5,0,,,,,,,,,0,0,0,0,0,1,1,1,2,0,2,0,,,,,,,,,,,,,,,,,,,,,,,,,,,,,,,,,,,,,,,,,,,,,,,,,,,,,,,,,,,,,,,,30,,,,,,,,789.6440717000514,789.6440717000514,789.6440717000514,789.6440717000514,789.6440717000514,return,0.44321719999425113,2,0,0,1,0,0.32,return,0.35990160005167127,-70,10,0,0.32,,,,,,,,,,,,,,,,,,,,,,,,,,,,,,,,,,,,,,,,,,,,,,,,,,,,,,,,A5PLRQ,train_y,red_square,top_left,2025-03-28_14h15.09.382,HideSeek_v1,2022.2.5,59.939676738451894,
,4,9,5,9,1,0,26,,train_dim1_2,3,30,,,,5,0,5,0,,,,,,,,,0,0,0,0,0,2,2,2,0,0,0,0,,,,,,,,,,,,,,,,,,,,,,,,,stimuli/alien_stimuli/26.png,,,,,,,,,,,,,,,,,,,,,,,,,,,,,stimuli/alien_stimuli/16.png,16,2,4,,,,,,,30,,,,,,,,793.9460880000843,793.9460880000843,793.9460880000843,793.9460880000843,793.9460880000843,down,1.8230681999120861,2,0,0,99,0.16,0.24,down,1.73019460006617,,,,,792.3780931000365,793.9460880000843,0,0.32,0.0,0.0,0.32,0,0.0,0,0.32,791.6518169000046,791.6518169000046,791.6518169000046,791.6518169000046,791.6518169000046,791.6518169000046,791.6518169000046,791.6518169000046,791.6441762699862,0.8365768000949174,return,0.7095618000021204,,,,,,,,,,,,,,,,,,,,,,,,,,,,,,,,,A5PLRQ,train_y,red_square,top_left,2025-03-28_14h15.09.382,HideSeek_v1,2022.2.5,59.939676738451894,
,4,9,5,9,1,0,26,,train_dim1_2,3,30,,,,5,0,5,0,,,,,,,,,0,0,0,0,0,2,2,2,1,0,1,0,,,,,,,,,,,,,,,,,,,,,,,,,,,,,,,,,,,,,,,,,,,,,,,,,,,,,,,,,,,,,,,,30,,,,,,,,795.7657309999922,795.7657309999922,795.7657309999922,795.7657309999922,795.7657309999922,down,0.32570229994598776,2,0,0,99,0.16,0.15999999999999998,down,0.23990219994448125,,,,,,,,,,,,,,,,,,,,,,,,,,,,,,,,,,,,,,,,,,,,,,,,,,,,,,,,,,,,A5PLRQ,train_y,red_square,top_left,2025-03-28_14h15.09.382,HideSeek_v1,2022.2.5,59.939676738451894,
