trialInstr,x_fixStart,y_fixStart,x_corrSteps,y_corrSteps,x_nrSteps,y_nrSteps,alienID,trialLength,version,trialTrain,praclen,testlen,trial_label,break_on_off,beforeExpLoop.thisRepN,beforeExpLoop.thisTrialN,beforeExpLoop.thisN,beforeExpLoop.thisIndex,mini_instr_trials.thisRepN,mini_instr_trials.thisTrialN,mini_instr_trials.thisN,mini_instr_trials.thisIndex,instrLoop.thisRepN,instrLoop.thisTrialN,instrLoop.thisN,instrLoop.thisIndex,repeat_prac.thisRepN,repeat_prac.thisTrialN,repeat_prac.thisN,repeat_prac.thisIndex,trainLoop.thisRepN,trainLoop.thisTrialN,trainLoop.thisN,trainLoop.thisIndex,moveLoop_train.thisRepN,moveLoop_train.thisTrialN,moveLoop_train.thisN,moveLoop_train.thisIndex,experiment.thisRepN,experiment.thisTrialN,experiment.thisN,experiment.thisIndex,moveLoop_test.thisRepN,moveLoop_test.thisTrialN,moveLoop_test.thisN,moveLoop_test.thisIndex,mini_instr2_trials.thisRepN,mini_instr2_trials.thisTrialN,mini_instr2_trials.thisN,mini_instr2_trials.thisIndex,start_all_time,url,slideStim,audioStim,slides.started,sounds.started,nextButton.numClicks,nextButton.timesOn,nextButton.timesOff,prev_but.numClicks,prev_but.timesOn,prev_but.timesOff,alienStim,instrFile,alienStim_instr,gridImage_instr.started,startPos_3.started,key_instr.started,alienImage_3.started,sounds_1.started,key_instr.keys,key_instr.rt,all_x,all_y,FBy_corrSteps,FBy_fixStart,FBx_corrSteps,FBx_fixStart,FBy_pathSize_check,FBx_pathSize_check,gridImage_9.started,alienImageFB_3.started,startPosFB_3.started,keyFB_3.started,pathLine_ydir_2.started,pathLine_xdir_2.started,alienFace_3.started,sounds_2.started,RTFB_instr,keyFB_3.keys,keyFB_3.rt,draw_alienStim,draw_alienID,test_x,nrepcount,perfthres,percthres,earlierperf,earlystop,nextPrac,fileidx,praclen,saveACC_train,pracFile,nextPrac_train,addNrep,fileidx_endr,repExp,showearly,gridImage_4.started,startPos.started,movePos.started,key_resp.started,alienImage.started,buttonPress_train,RTchoice_train,cumAcctrain,aCorr,saveACC_choice,corrAns,x_movePos_end,y_movePos_end,key_resp.keys,key_resp.rt,wLy_dir,wLx_dir,x_movePos,y_movePos,text_2.started,text_2.stopped,aft_x_corrPos,aft_y_corrPos,y_pathSize_check,x_pathSize_check,y_pathdirY,x_pathdirY,x_pathdirX,x_corrPos,y_corrPos,gridImage_6.started,alienImageFB_2.started,startPosFB_2.started,movePosFB_2.started,keyFB_2.started,pathLine_xdir.started,pathLine_ydir.started,alienFace.started,sounds_4.started,RT_FBtrain,keyFB_2.keys,keyFB_2.rt,saveACC_pre,ACC,within_saveACC_train,earlystop_wloop,cumAcctrain_check,gridImage_3.started,alienImage_test.started,startPos_test.started,movePos_test.started,key_resp_test.started,wLy_dir_test,wLx_dir_test,buttonPress_test,RTchoice_test,cumAcctest,corrAns_test,key_resp_test.keys,key_resp_test.rt,text_3.started,text_3.stopped,total_time,end_all_time,key_resp_3.keys,slides_2.started,sounds_3.started,nextButton_2.numClicks,nextButton_2.timesOn,nextButton_2.timesOff,prev_but_2.numClicks,prev_but_2.timesOn,prev_but_2.timesOff,bye.started,participant,train_first,00_coordinate,starting corner,date,expName,psychopyVersion,frameRate,
,,,,,,,,,,,,,,,0,0,0,0,0,0,0,0,,,,,,,,,,,,,,,,,,,,,,,,,,,,,start_all_time,testround,conditions/schedules/train_y_first/blue_star_00/bottom_left/instructions/Slide1.png,conditions/schedules/train_y_first/blue_star_00/bottom_left/instructions/Audio1.wav,30.460175200016238,30.393141560279766,1,[3.617961800075136],[3.6179724000394344],0,,,,,,,,,,,,,,,,,,,,,,,,,,,,,,,,,,,,,,,,,,,,,,,,,,,,,,,,,,,,,,,,,,,,,,,,,,,,,,,,,,,,,,,,,,,,,,,,,,,,,,,,,,,,,,,,,,,,,,,,,,,,A867Z4,train_y,blue_star,bottom_left,2025-03-15_11h11.32.451,HideSeek_v1,2022.2.5,59.891177724174305,
,,,,,,,,,,,,,,,0,0,0,0,1,0,1,0,,,,,,,,,,,,,,,,,,,,,,,,,,,,,,,conditions/schedules/train_y_first/blue_star_00/bottom_left/instructions/Slide2.png,conditions/schedules/train_y_first/blue_star_00/bottom_left/instructions/Audio2.wav,34.09304169996176,34.09133359999396,2,"[3.617961800075136, 23.61595240002498]","[3.6179724000394344, 23.615958799957298]",0,,,,,,,,,,,,,,,,,,,,,,,,,,,,,,,,,,,,,,,,,,,,,,,,,,,,,,,,,,,,,,,,,,,,,,,,,,,,,,,,,,,,,,,,,,,,,,,,,,,,,,,,,,,,,,,,,,,,,,,,,,,,A867Z4,train_y,blue_star,bottom_left,2025-03-15_11h11.32.451,HideSeek_v1,2022.2.5,59.891177724174305,
,,,,,,,,,,,,,,,0,0,0,0,2,0,2,0,,,,,,,,,,,,,,,,,,,,,,,,,,,,,,,conditions/schedules/train_y_first/blue_star_00/bottom_left/instructions/Slide3.png,conditions/schedules/train_y_first/blue_star_00/bottom_left/instructions/Audio3.wav,57.78345869993791,57.77763230004348,3,"[3.617961800075136, 23.61595240002498, 16.722995800082572]","[3.6179724000394344, 0.031023900024592876, 16.723002600017935]",0,,,,,,,,,,,,,,,,,,,,,,,,,,,,,,,,,,,,,,,,,,,,,,,,,,,,,,,,,,,,,,,,,,,,,,,,,,,,,,,,,,,,,,,,,,,,,,,,,,,,,,,,,,,,,,,,,,,,,,,,,,,,A867Z4,train_y,blue_star,bottom_left,2025-03-15_11h11.32.451,HideSeek_v1,2022.2.5,59.891177724174305,
,,,,,,,,,,,,,,,0,0,0,0,3,0,3,0,,,,,,,,,,,,,,,,,,,,,,,,,,,,,,,conditions/schedules/train_y_first/blue_star_00/bottom_left/instructions/Slide4.png,conditions/schedules/train_y_first/blue_star_00/bottom_left/instructions/Audio4.wav,74.58495189994574,74.5748952999711,4,"[3.617961800075136, 23.61595240002498, 16.722995800082572, 19.40429860004224]","[3.6179724000394344, 0.031023900024592876, 0.014455600059591234, 19.404305499978364]",0,,,,,,,,,,,,,,,,,,,,,,,,,,,,,,,,,,,,,,,,,,,,,,,,,,,,,,,,,,,,,,,,,,,,,,,,,,,,,,,,,,,,,,,,,,,,,,,,,,,,,,,,,,,,,,,,,,,,,,,,,,,,A867Z4,train_y,blue_star,bottom_left,2025-03-15_11h11.32.451,HideSeek_v1,2022.2.5,59.891177724174305,
,,,,,,,,,,,,,,,0,0,0,0,4,0,4,0,,,,,,,,,,,,,,,,,,,,,,,,,,,,,,,conditions/schedules/train_y_first/blue_star_00/bottom_left/instructions/Slide5.png,conditions/schedules/train_y_first/blue_star_00/bottom_left/instructions/Audio5.wav,94.06066209997516,94.05752100003883,5,"[3.617961800075136, 23.61595240002498, 16.722995800082572, 19.40429860004224, 5.666990200057626]","[3.6179724000394344, 0.031023900024592876, 0.014455600059591234, 0.047081700060516596, 5.666998300002888]",0,,,,,,,,,,,,,,,,,,,,,,,,,,,,,,,,,,,,,,,,,,,,,,,,,,,,,,,,,,,,,,,,,,,,,,,,,,,,,,,,,,,,,,,,,,,,,,,,,,,,,,,,,,,,,,,,,,,,,,,,,,,,A867Z4,train_y,blue_star,bottom_left,2025-03-15_11h11.32.451,HideSeek_v1,2022.2.5,59.891177724174305,
,,,,,,,,,,,,,,,0,0,0,0,5,0,5,0,,,,,,,,,,,,,,,,,,,,,,,,,,,,,,,conditions/schedules/train_y_first/blue_star_00/bottom_left/instructions/Slide6.png,conditions/schedules/train_y_first/blue_star_00/bottom_left/instructions/Audio6.wav,99.77781150001101,99.77933898004703,6,"[3.617961800075136, 23.61595240002498, 16.722995800082572, 19.40429860004224, 5.666990200057626, 5.12007059995085]","[3.6179724000394344, 0.031023900024592876, 0.014455600059591234, 0.047081700060516596, 0.04953119996935129, 5.120076599996537]",0,,,,,,,,,,,,,,,,,,,,,,,,,,,,,,,,,,,,,,,,,,,,,,,,,,,,,,,,,,,,,,,,,,,,,,,,,,,,,,,,,,,,,,,,,,,,,,,,,,,,,,,,,,,,,,,,,,,,,,,,,,,,A867Z4,train_y,blue_star,bottom_left,2025-03-15_11h11.32.451,HideSeek_v1,2022.2.5,59.891177724174305,
,,,,,,,,,,,,,,,0,0,0,0,6,0,6,0,,,,,,,,,,,,,,,,,,,,,,,,,,,,,,,conditions/schedules/train_y_first/blue_star_00/bottom_left/instructions/Slide7.png,conditions/schedules/train_y_first/blue_star_00/bottom_left/instructions/Audio7.wav,104.94882329995744,104.95027317998465,7,"[3.617961800075136, 23.61595240002498, 16.722995800082572, 19.40429860004224, 5.666990200057626, 5.12007059995085, 5.3370869000209495]","[3.6179724000394344, 0.031023900024592876, 0.014455600059591234, 0.047081700060516596, 0.04953119996935129, 0.04928389994893223, 5.337093399954028]",0,,,,,,,,,,,,,,,,,,,,,,,,,,,,,,,,,,,,,,,,,,,,,,,,,,,,,,,,,,,,,,,,,,,,,,,,,,,,,,,,,,,,,,,,,,,,,,,,,,,,,,,,,,,,,,,,,,,,,,,,,,,,A867Z4,train_y,blue_star,bottom_left,2025-03-15_11h11.32.451,HideSeek_v1,2022.2.5,59.891177724174305,
,,,,,,,,,,,,,,,0,0,0,0,7,0,7,0,,,,,,,,,,,,,,,,,,,,,,,,,,,,,,,conditions/schedules/train_y_first/blue_star_00/bottom_left/instructions/Slide8.png,conditions/schedules/train_y_first/blue_star_00/bottom_left/instructions/Audio8.wav,110.33889280003496,110.33800327994395,8,"[3.617961800075136, 23.61595240002498, 16.722995800082572, 19.40429860004224, 5.666990200057626, 5.12007059995085, 5.3370869000209495, 11.8239546000259]","[3.6179724000394344, 0.031023900024592876, 0.014455600059591234, 0.047081700060516596, 0.04953119996935129, 0.04928389994893223, 0.06401410000398755, 11.823960899957456]",0,,,,,,,,,,,,,,,,,,,,,,,,,,,,,,,,,,,,,,,,,,,,,,,,,,,,,,,,,,,,,,,,,,,,,,,,,,,,,,,,,,,,,,,,,,,,,,,,,,,,,,,,,,,,,,,,,,,,,,,,,,,,A867Z4,train_y,blue_star,bottom_left,2025-03-15_11h11.32.451,HideSeek_v1,2022.2.5,59.891177724174305,
,,,,,,,,,,,,,,,0,0,0,0,8,0,8,0,,,,,,,,,,,,,,,,,,,,,,,,,,,,,,,conditions/schedules/train_y_first/blue_star_00/bottom_left/instructions/Slide9.png,conditions/schedules/train_y_first/blue_star_00/bottom_left/instructions/Audio9.wav,122.22877789998893,122.23113229998853,9,"[3.617961800075136, 23.61595240002498, 16.722995800082572, 19.40429860004224, 5.666990200057626, 5.12007059995085, 5.3370869000209495, 11.8239546000259, 6.038854000042193]","[3.6179724000394344, 0.031023900024592876, 0.014455600059591234, 0.047081700060516596, 0.04953119996935129, 0.04928389994893223, 0.06401410000398755, 0.014444999978877604, 6.038860599976033]",0,,,,,,,,,,,,,,,,,,,,,,,,,,,,,,,,,,,,,,,,,,,,,,,,,,,,,,,,,,,,,,,,,,,,,,,,,,,,,,,,,,,,,,,,,,,,,,,,,,,,,,,,,,,,,,,,,,,,,,,,,,,,A867Z4,train_y,blue_star,bottom_left,2025-03-15_11h11.32.451,HideSeek_v1,2022.2.5,59.891177724174305,
,,,,,,,,,,,,,,,0,0,0,0,9,0,9,0,,,,,,,,,,,,,,,,,,,,,,,,,,,,,,,conditions/schedules/train_y_first/blue_star_00/bottom_left/instructions/Slide10.png,conditions/schedules/train_y_first/blue_star_00/bottom_left/instructions/Audio10.wav,128.31885679997504,128.31959378004538,10,"[3.617961800075136, 23.61595240002498, 16.722995800082572, 19.40429860004224, 5.666990200057626, 5.12007059995085, 5.3370869000209495, 11.8239546000259, 6.038854000042193, 59.665306300041266]","[3.6179724000394344, 0.031023900024592876, 0.014455600059591234, 0.047081700060516596, 0.04953119996935129, 0.04928389994893223, 0.06401410000398755, 0.014444999978877604, 0.06545870006084442, 59.66531309997663]",0,,,,,,,,,,,,,,,,,,,,,,,,,,,,,,,,,,,,,,,,,,,,,,,,,,,,,,,,,,,,,,,,,,,,,,,,,,,,,,,,,,,,,,,,,,,,,,,,,,,,,,,,,,,,,,,,,,,,,,,,,,,,A867Z4,train_y,blue_star,bottom_left,2025-03-15_11h11.32.451,HideSeek_v1,2022.2.5,59.891177724174305,
,,,,,,,,,,,,,,,0,0,0,0,10,0,10,0,,,,,,,,,,,,,,,,,,,,,,,,,,,,,,,conditions/schedules/train_y_first/blue_star_00/bottom_left/instructions/Slide11.png,conditions/schedules/train_y_first/blue_star_00/bottom_left/instructions/Audio11.wav,188.03778869996313,188.0362006800249,11,"[3.617961800075136, 23.61595240002498, 16.722995800082572, 19.40429860004224, 5.666990200057626, 5.12007059995085, 5.3370869000209495, 11.8239546000259, 6.038854000042193, 59.665306300041266, 11.438560100039467]","[3.6179724000394344, 0.031023900024592876, 0.014455600059591234, 0.047081700060516596, 0.04953119996935129, 0.04928389994893223, 0.06401410000398755, 0.014444999978877604, 0.06545870006084442, 0.04735670005902648, 11.438566699973308]",0,,,,,,,,,,,,,,,,,,,,,,,,,,,,,,,,,,,,,,,,,,,,,,,,,,,,,,,,,,,,,,,,,,,,,,,,,,,,,,,,,,,,,,,,,,,,,,,,,,,,,,,,,,,,,,,,,,,,,,,,,,,,A867Z4,train_y,blue_star,bottom_left,2025-03-15_11h11.32.451,HideSeek_v1,2022.2.5,59.891177724174305,
,,,,,,,,,,,,,,,0,0,0,0,11,0,11,0,,,,,,,,,,,,,,,,,,,,,,,,,,,,,,,conditions/schedules/train_y_first/blue_star_00/bottom_left/instructions/Slide12.png,conditions/schedules/train_y_first/blue_star_00/bottom_left/instructions/Audio12.wav,199.54613749997225,199.54513710003812,12,"[3.617961800075136, 23.61595240002498, 16.722995800082572, 19.40429860004224, 5.666990200057626, 5.12007059995085, 5.3370869000209495, 11.8239546000259, 6.038854000042193, 59.665306300041266, 11.438560100039467, 13.925339299952611]","[3.6179724000394344, 0.031023900024592876, 0.014455600059591234, 0.047081700060516596, 0.04953119996935129, 0.04928389994893223, 0.06401410000398755, 0.014444999978877604, 0.06545870006084442, 0.04735670005902648, 0.130745799979195, 13.925346400006674]",0,,,,,,,,,,,,,,,,,,,,,,,,,,,,,,,,,,,,,,,,,,,,,,,,,,,,,,,,,,,,,,,,,,,,,,,,,,,,,,,,,,,,,,,,,,,,,,,,,,,,,,,,,,,,,,,,,,,,,,,,,,,,A867Z4,train_y,blue_star,bottom_left,2025-03-15_11h11.32.451,HideSeek_v1,2022.2.5,59.891177724174305,
1,0,3,0,8,0,5,66,2,instr_dim1_1,,,,,,0,0,0,0,,,,,0,0,0,0,,,,,,,,,,,,,,,,,,,,,,,,,,,,,,,,,,,,,stimuli/alien_stimuli/66.png,conditions/schedules/train_y_first/blue_star_00/bottom_left/inputInstr_1.xlsx,stimuli/alien_stimuli/66.png,213.56947780004703,213.56947780004703,213.56947780004703,213.56947780004703,213.55675401997286,return,8.174953200039454,"[-0.16, -0.08, 0, 0.08, 0.16, 0.24, 0.32, 0.4, 0.48, 0.56]","[-0.4, -0.32, -0.24, -0.16, -0.08, 0, 0.08, 0.16, 0.24, 0.32]",8,3,0,0,0.4,0.0,221.885990699986,221.885990699986,221.885990699986,221.885990699986,221.885990699986,221.885990699986,221.885990699986,221.88003105998504,8.757779399980791,return,8.607178900041617,stimuli/alien_stimuli/66.png,66,0,1,,,,,,,,,,,,,,,,,,,,,,,,,,,,,,,,,,,,,,,,,,,,,,,,,,,,,,,,,,,,,,,,,,,,,,,,,,,,,,,,,,,,,,,,,A867Z4,train_y,blue_star,bottom_left,2025-03-15_11h11.32.451,HideSeek_v1,2022.2.5,59.891177724174305,
,,,,,,,,,,,30,,,,0,0,0,0,,,,,,,,,,,,,,,,,,,,,,,,,,,,,,,,,,,,,,,,,,,,,,,,,,,,,,,,,,,,,,,,,,,,,,,,,,,,,,21,0.7,0,0,99,1,30,0,conditions/schedules/train_y_first/blue_star_00/bottom_left/inputTrain_1.1.xlsx,99,1,1,1,0,,,,,,,,,,,,,,,,,,,,,,,,,,,,,,,,,,,,,,,,,,,,,,,,,,,,,,,,,,,,,,,,,,,,,,,,,,,A867Z4,train_y,blue_star,bottom_left,2025-03-15_11h11.32.451,HideSeek_v1,2022.2.5,59.891177724174305,
,,,,,,,,,,,,,,,1,0,1,0,0,0,0,0,,,,,,,,,,,,,,,,,,,,,,,,,,,,,,,conditions/schedules/train_y_first/blue_star_00/bottom_left/instructions/Slide13.png,conditions/schedules/train_y_first/blue_star_00/bottom_left/instructions/Audio13.wav,230.6509148000041,230.65379217995795,13,"[3.617961800075136, 23.61595240002498, 16.722995800082572, 19.40429860004224, 5.666990200057626, 5.12007059995085, 5.3370869000209495, 11.8239546000259, 6.038854000042193, 59.665306300041266, 11.438560100039467, 13.925339299952611, 18.299708000035025]","[3.6179724000394344, 0.031023900024592876, 0.014455600059591234, 0.047081700060516596, 0.04953119996935129, 0.04928389994893223, 0.06401410000398755, 0.014444999978877604, 0.06545870006084442, 0.04735670005902648, 0.130745799979195, 13.925346400006674, 18.299714700086042]",0,,,,,,,,,,,,,,,,,,,,,,,,,,,,,,,,,,,,,,,,,,,,,,,,,,,,,,,,,,,,,,,,,,,,,,,,,,,,,,,,,,,,,,,,,,,,,,,,,,,,,,,,,,,,,,,,,,,,,,,,,,,,A867Z4,train_y,blue_star,bottom_left,2025-03-15_11h11.32.451,HideSeek_v1,2022.2.5,59.891177724174305,
,,,,,,,,,,,,,,,1,0,1,0,1,0,1,0,,,,,,,,,,,,,,,,,,,,,,,,,,,,,,,conditions/schedules/train_y_first/blue_star_00/bottom_left/instructions/Slide14.png,conditions/schedules/train_y_first/blue_star_00/bottom_left/instructions/Audio14.wav,249.01195720001124,249.00279588003175,14,"[3.617961800075136, 23.61595240002498, 16.722995800082572, 19.40429860004224, 5.666990200057626, 5.12007059995085, 5.3370869000209495, 11.8239546000259, 6.038854000042193, 59.665306300041266, 11.438560100039467, 13.925339299952611, 18.299708000035025, 17.153267899993807]","[3.6179724000394344, 0.031023900024592876, 0.014455600059591234, 0.047081700060516596, 0.04953119996935129, 0.04928389994893223, 0.06401410000398755, 0.014444999978877604, 0.06545870006084442, 0.04735670005902648, 0.130745799979195, 13.925346400006674, 0.055552100064232945, 17.1532744000433]",0,,,,,,,,,,,,,,,,,,,,,,,,,,,,,,,,,,,,,,,,,,,,,,,,,,,,,,,,,,,,,,,,,,,,,,,,,,,,,,,,,,,,,,,,,,,,,,,,,,,,,,,,,,,,,,,,,,,,,,,,,,,,A867Z4,train_y,blue_star,bottom_left,2025-03-15_11h11.32.451,HideSeek_v1,2022.2.5,59.891177724174305,
2,2,3,2,3,0,0,61,2,instr_dim1_1,,,,,,1,0,1,0,,,,,0,0,0,0,,,,,,,,,,,,,,,,,,,,,,,,,,,,,,,,,,,,,stimuli/alien_stimuli/61.png,conditions/schedules/train_y_first/blue_star_00/bottom_left/inputInstr_1.xlsx,stimuli/alien_stimuli/61.png,266.26347380003426,266.26347380003426,266.26347380003426,266.26347380003426,266.2669933399651,return,6.416293599992059,"[-0.16, -0.08, 0, 0.08, 0.16, 0.24, 0.32, 0.4, 0.48, 0.56]","[-0.4, -0.32, -0.24, -0.16, -0.08, 0, 0.08, 0.16, 0.24, 0.32]",3,3,2,2,0.0,0.0,272.8273157000076,272.8273157000076,272.8273157000076,272.8273157000076,272.8273157000076,272.8273157000076,272.8273157000076,272.822169560031,6.706617100047879,return,6.556521899998188,stimuli/alien_stimuli/61.png,61,2,2,,,,,,,,,,,,,,,,,,,,,,,,,,,,,,,,,,,,,,,,,,,,,,,,,,,,,,,,,,,,,,,,,,,,,,,,,,,,,,,,,,,,,,,,,A867Z4,train_y,blue_star,bottom_left,2025-03-15_11h11.32.451,HideSeek_v1,2022.2.5,59.891177724174305,
,,,,,,,,,,,30,,,,1,0,1,0,,,,,,,,,,,,,,,,,,,,,,,,,,,,,,,,,,,,,,,,,,,,,,,,,,,,,,,,,,,,,,,,,,,,,,,,,,,,,,21,0.7,0,0,99,1,30,0,conditions/schedules/train_y_first/blue_star_00/bottom_left/inputTrain_1.1.xlsx,99,1,1,1,0,,,,,,,,,,,,,,,,,,,,,,,,,,,,,,,,,,,,,,,,,,,,,,,,,,,,,,,,,,,,,,,,,,,,,,,,,,,A867Z4,train_y,blue_star,bottom_left,2025-03-15_11h11.32.451,HideSeek_v1,2022.2.5,59.891177724174305,
,,,,,,,,,,,,,,,2,0,2,0,0,0,0,0,,,,,,,,,,,,,,,,,,,,,,,,,,,,,,,conditions/schedules/train_y_first/blue_star_00/bottom_left/instructions/Slide15.png,conditions/schedules/train_y_first/blue_star_00/bottom_left/instructions/Audio15.wav,279.5538070000475,279.54441907997244,15,"[3.617961800075136, 23.61595240002498, 16.722995800082572, 19.40429860004224, 5.666990200057626, 5.12007059995085, 5.3370869000209495, 11.8239546000259, 6.038854000042193, 59.665306300041266, 11.438560100039467, 13.925339299952611, 18.299708000035025, 17.153267899993807, 43.55842899996787]","[3.6179724000394344, 0.031023900024592876, 0.014455600059591234, 0.047081700060516596, 0.04953119996935129, 0.04928389994893223, 0.06401410000398755, 0.014444999978877604, 0.06545870006084442, 0.04735670005902648, 0.130745799979195, 13.925346400006674, 0.055552100064232945, 17.1532744000433, 43.55843580001965]",0,,,,,,,,,,,,,,,,,,,,,,,,,,,,,,,,,,,,,,,,,,,,,,,,,,,,,,,,,,,,,,,,,,,,,,,,,,,,,,,,,,,,,,,,,,,,,,,,,,,,,,,,,,,,,,,,,,,,,,,,,,,,A867Z4,train_y,blue_star,bottom_left,2025-03-15_11h11.32.451,HideSeek_v1,2022.2.5,59.891177724174305,
,,,,,,,,,,,,,,,2,0,2,0,1,0,1,0,,,,,,,,,,,,,,,,,,,,,,,,,,,,,,,conditions/schedules/train_y_first/blue_star_00/bottom_left/instructions/Slide16.png,conditions/schedules/train_y_first/blue_star_00/bottom_left/instructions/Audio16.wav,323.1803696999559,323.18098409997765,16,"[3.617961800075136, 23.61595240002498, 16.722995800082572, 19.40429860004224, 5.666990200057626, 5.12007059995085, 5.3370869000209495, 11.8239546000259, 6.038854000042193, 59.665306300041266, 11.438560100039467, 13.925339299952611, 18.299708000035025, 17.153267899993807, 43.55842899996787, 21.80024789995514]","[3.6179724000394344, 0.031023900024592876, 0.014455600059591234, 0.047081700060516596, 0.04953119996935129, 0.04928389994893223, 0.06401410000398755, 0.014444999978877604, 0.06545870006084442, 0.04735670005902648, 0.130745799979195, 13.925346400006674, 0.055552100064232945, 17.1532744000433, 0.03268880001269281, 21.800254500005394]",0,,,,,,,,,,,,,,,,,,,,,,,,,,,,,,,,,,,,,,,,,,,,,,,,,,,,,,,,,,,,,,,,,,,,,,,,,,,,,,,,,,,,,,,,,,,,,,,,,,,,,,,,,,,,,,,,,,,,,,,,,,,,A867Z4,train_y,blue_star,bottom_left,2025-03-15_11h11.32.451,HideSeek_v1,2022.2.5,59.891177724174305,
,0,0,0,4,0,4,65,,train_dim1_1,1,30,,,,2,0,2,0,,,,,,,,,0,0,0,0,0,0,0,0,0,0,0,0,,,,,,,,,,,,,,,,,,,,,,,,,stimuli/alien_stimuli/65.png,,,,,,,,,,,,,,,,,,,,,,,,,,,,,,,,,,,,,,,30,,,,,,,,345.08204739994835,345.08204739994835,345.08204739994835,345.08204739994835,345.08204739994835,up,2.4462416999740526,0,0,0,99,-0.16,-0.32,up,2.3457620999542996,,,,,,,,,,,,,,,,,,,,,,,,,,,,,,,,,,,,,,,,,,,,,,,,,,,,,,,,,,,,A867Z4,train_y,blue_star,bottom_left,2025-03-15_11h11.32.451,HideSeek_v1,2022.2.5,59.891177724174305,
,0,0,0,4,0,4,65,,train_dim1_1,1,30,,,,2,0,2,0,,,,,,,,,0,0,0,0,0,0,0,0,1,0,1,0,,,,,,,,,,,,,,,,,,,,,,,,,,,,,,,,,,,,,,,,,,,,,,,,,,,,,,,,,,,,,,,,30,,,,,,,,347.53916869999375,347.53916869999375,347.53916869999375,347.53916869999375,347.53916869999375,up,0.5759716000175104,0,0,0,99,-0.16,-0.24,up,0.4694943999638781,,,,,,,,,,,,,,,,,,,,,,,,,,,,,,,,,,,,,,,,,,,,,,,,,,,,,,,,,,,,A867Z4,train_y,blue_star,bottom_left,2025-03-15_11h11.32.451,HideSeek_v1,2022.2.5,59.891177724174305,
,0,0,0,4,0,4,65,,train_dim1_1,1,30,,,,2,0,2,0,,,,,,,,,0,0,0,0,0,0,0,0,2,0,2,0,,,,,,,,,,,,,,,,,,,,,,,,,,,,,,,,,,,,,,,,,,,,,,,,,,,,,,,,,,,,,,,,30,,,,,,,,348.0985069000162,348.0985069000162,348.0985069000162,348.0985069000162,348.0985069000162,up,0.526784099987708,0,0,0,99,-0.16,-0.15999999999999998,up,0.4531552999978885,,,,,,,,,,,,,,,,,,,,,,,,,,,,,,,,,,,,,,,,,,,,,,,,,,,,,,,,,,,,A867Z4,train_y,blue_star,bottom_left,2025-03-15_11h11.32.451,HideSeek_v1,2022.2.5,59.891177724174305,
,0,0,0,4,0,4,65,,train_dim1_1,1,30,,,,2,0,2,0,,,,,,,,,0,0,0,0,0,0,0,0,3,0,3,0,,,,,,,,,,,,,,,,,,,,,,,,,,,,,,,,,,,,,,,,,,,,,,,,,,,,,,,,,,,,,,,,30,,,,,,,,348.6319126000162,348.6319126000162,348.6319126000162,348.6319126000162,348.6319126000162,up,4.847084800014272,0,0,0,99,-0.16,-0.07999999999999997,up,4.759565799962729,,,,,,,,,,,,,,,,,,,,,,,,,,,,,,,,,,,,,,,,,,,,,,,,,,,,,,,,,,,,A867Z4,train_y,blue_star,bottom_left,2025-03-15_11h11.32.451,HideSeek_v1,2022.2.5,59.891177724174305,
,0,0,0,4,0,4,65,,train_dim1_1,1,30,,,,2,0,2,0,,,,,,,,,0,0,0,0,0,0,0,0,4,0,4,0,,,,,,,,,,,,,,,,,,,,,,,,,,,,,,,,,,,,,,,,,,,,,,,,,,,,,,,,,,,,,,,,30,,,,,,,,353.4869391999673,353.4869391999673,353.4869391999673,353.4869391999673,353.4869391999673,up,0.4933206000132486,0,0,0,99,-0.16,2.7755575615628914e-17,up,0.4050525000784546,,,,,,,,,,,,,,,,,,,,,,,,,,,,,,,,,,,,,,,,,,,,,,,,,,,,,,,,,,,,A867Z4,train_y,blue_star,bottom_left,2025-03-15_11h11.32.451,HideSeek_v1,2022.2.5,59.891177724174305,
,0,0,0,4,0,4,65,,train_dim1_1,1,30,,,,2,0,2,0,,,,,,,,,0,0,0,0,0,0,0,0,5,0,5,0,,,,,,,,,,,,,,,,,,,,,,,,,,,,,,,,,,,,,,,,,,,,,,,,,,,,,,,,,,,,,,,,30,,,,,,,,353.9867565999739,353.9867565999739,353.9867565999739,353.9867565999739,353.9867565999739,return,0.8937456000130624,0,1,0,0,-0.16,2.7755575615628914e-17,return,0.8072433000197634,5,0,-0.16,2.7755575615628914e-17,,,,,,,,,,,,,,,,,,,,,,,,,,,,,,,,,,,,,,,,,,,,,,,,,,,,,,,,A867Z4,train_y,blue_star,bottom_left,2025-03-15_11h11.32.451,HideSeek_v1,2022.2.5,59.891177724174305,
,3,2,3,7,0,5,66,,train_dim1_1,2,30,,,,2,0,2,0,,,,,,,,,0,0,0,0,0,1,1,1,0,0,0,0,,,,,,,,,,,,,,,,,,,,,,,,,stimuli/alien_stimuli/66.png,,,,,,,,,,,,,,,,,,,,,,,,,,,,,stimuli/alien_stimuli/65.png,65,0,3,,,,,,,30,,,,,,,,387.28948639996815,387.28948639996815,387.28948639996815,387.28948639996815,387.28948639996815,up,8.17838150006719,0,1,0,99,0.08,-0.15999999999999998,up,8.075344700017013,,,,,385.7165544000454,387.28948639996815,-0.16,-0.08,0.32,0.0,-0.24000000000000002,-0.16,-0.16,-0.16,-0.08,356.45976510003675,356.45976510003675,356.45976510003675,356.45976510003675,356.45976510003675,356.45976510003675,356.45976510003675,356.45976510003675,356.44153934004714,29.37650500005111,return,29.22629290004261,,,,,,,,,,,,,,,,,,,,,,,,,,,,,,,,,A867Z4,train_y,blue_star,bottom_left,2025-03-15_11h11.32.451,HideSeek_v1,2022.2.5,59.891177724174305,
,3,2,3,7,0,5,66,,train_dim1_1,2,30,,,,2,0,2,0,,,,,,,,,0,0,0,0,0,1,1,1,1,0,1,0,,,,,,,,,,,,,,,,,,,,,,,,,,,,,,,,,,,,,,,,,,,,,,,,,,,,,,,,,,,,,,,,30,,,,,,,,395.4560667000478,395.4560667000478,395.4560667000478,395.4560667000478,395.4560667000478,up,0.4429018000373617,0,1,0,99,0.08,-0.07999999999999997,up,0.35771820007357746,,,,,,,,,,,,,,,,,,,,,,,,,,,,,,,,,,,,,,,,,,,,,,,,,,,,,,,,,,,,A867Z4,train_y,blue_star,bottom_left,2025-03-15_11h11.32.451,HideSeek_v1,2022.2.5,59.891177724174305,
,3,2,3,7,0,5,66,,train_dim1_1,2,30,,,,2,0,2,0,,,,,,,,,0,0,0,0,0,1,1,1,2,0,2,0,,,,,,,,,,,,,,,,,,,,,,,,,,,,,,,,,,,,,,,,,,,,,,,,,,,,,,,,,,,,,,,,30,,,,,,,,395.9147428999422,395.9147428999422,395.9147428999422,395.9147428999422,395.9147428999422,up,1.5610637000063434,0,1,0,99,0.08,2.7755575615628914e-17,up,1.4635166000807658,,,,,,,,,,,,,,,,,,,,,,,,,,,,,,,,,,,,,,,,,,,,,,,,,,,,,,,,,,,,A867Z4,train_y,blue_star,bottom_left,2025-03-15_11h11.32.451,HideSeek_v1,2022.2.5,59.891177724174305,
,3,2,3,7,0,5,66,,train_dim1_1,2,30,,,,2,0,2,0,,,,,,,,,0,0,0,0,0,1,1,1,3,0,3,0,,,,,,,,,,,,,,,,,,,,,,,,,,,,,,,,,,,,,,,,,,,,,,,,,,,,,,,,,,,,,,,,30,,,,,,,,397.47663189994637,397.47663189994637,397.47663189994637,397.47663189994637,397.47663189994637,up,1.9082234000088647,0,1,0,99,0.08,0.08000000000000003,up,1.8330163999926299,,,,,,,,,,,,,,,,,,,,,,,,,,,,,,,,,,,,,,,,,,,,,,,,,,,,,,,,,,,,A867Z4,train_y,blue_star,bottom_left,2025-03-15_11h11.32.451,HideSeek_v1,2022.2.5,59.891177724174305,
,3,2,3,7,0,5,66,,train_dim1_1,2,30,,,,2,0,2,0,,,,,,,,,0,0,0,0,0,1,1,1,4,0,4,0,,,,,,,,,,,,,,,,,,,,,,,,,,,,,,,,,,,,,,,,,,,,,,,,,,,,,,,,,,,,,,,,30,,,,,,,,399.39156759995967,399.39156759995967,399.39156759995967,399.39156759995967,399.39156759995967,up,7.482557500014082,0,1,0,99,0.08,0.16000000000000003,up,7.407899399986491,,,,,,,,,,,,,,,,,,,,,,,,,,,,,,,,,,,,,,,,,,,,,,,,,,,,,,,,,,,,A867Z4,train_y,blue_star,bottom_left,2025-03-15_11h11.32.451,HideSeek_v1,2022.2.5,59.891177724174305,
,3,2,3,7,0,5,66,,train_dim1_1,2,30,,,,2,0,2,0,,,,,,,,,0,0,0,0,0,1,1,1,5,0,5,0,,,,,,,,,,,,,,,,,,,,,,,,,,,,,,,,,,,,,,,,,,,,,,,,,,,,,,,,,,,,,,,,30,,,,,,,,406.9029473999981,406.9029473999981,406.9029473999981,406.9029473999981,406.9029473999981,return,4.647138700005598,1,0,0,1,0.08,0.16000000000000003,return,4.536630899994634,10,0,0.08,0.16000000000000003,,,,,,,,,,,,,,,,,,,,,,,,,,,,,,,,,,,,,,,,,,,,,,,,,,,,,,,,A867Z4,train_y,blue_star,bottom_left,2025-03-15_11h11.32.451,HideSeek_v1,2022.2.5,59.891177724174305,
,2,3,2,6,0,3,64,,train_dim1_1,3,30,,,,2,0,2,0,,,,,,,,,0,0,0,0,0,2,2,2,0,0,0,0,,,,,,,,,,,,,,,,,,,,,,,,,stimuli/alien_stimuli/64.png,,,,,,,,,,,,,,,,,,,,,,,,,,,,,stimuli/alien_stimuli/66.png,66,3,4,,,,,,,30,,,,,,,,432.4098474000348,432.4098474000348,432.4098474000348,432.4098474000348,432.4098474000348,up,18.268447099952027,1,0,0,99,0,-0.08,up,18.164951299899258,,,,,430.8374336999841,432.4098474000348,0.08,0.16,0.4,0.0,-0.039999999999999994,0.08,0.08,0.08,0.16,413.10319910000544,413.10319910000544,413.10319910000544,413.10319910000544,413.10319910000544,413.10319910000544,413.10319910000544,413.10319910000544,413.08873574002644,17.85040590004064,return,17.7167727999622,,,,,,,,,,,,,,,,,,,,,,,,,,,,,,,,,A867Z4,train_y,blue_star,bottom_left,2025-03-15_11h11.32.451,HideSeek_v1,2022.2.5,59.891177724174305,
,2,3,2,6,0,3,64,,train_dim1_1,3,30,,,,2,0,2,0,,,,,,,,,0,0,0,0,0,2,2,2,1,0,1,0,,,,,,,,,,,,,,,,,,,,,,,,,,,,,,,,,,,,,,,,,,,,,,,,,,,,,,,,,,,,,,,,30,,,,,,,,450.6907089999877,450.6907089999877,450.6907089999877,450.6907089999877,450.6907089999877,up,0.44312539999373257,1,0,0,99,0,0.0,up,0.341099200071767,,,,,,,,,,,,,,,,,,,,,,,,,,,,,,,,,,,,,,,,,,,,,,,,,,,,,,,,,,,,A867Z4,train_y,blue_star,bottom_left,2025-03-15_11h11.32.451,HideSeek_v1,2022.2.5,59.891177724174305,
,2,3,2,6,0,3,64,,train_dim1_1,3,30,,,,2,0,2,0,,,,,,,,,0,0,0,0,0,2,2,2,2,0,2,0,,,,,,,,,,,,,,,,,,,,,,,,,,,,,,,,,,,,,,,,,,,,,,,,,,,,,,,,,,,,,,,,30,,,,,,,,451.1181338999886,451.1181338999886,451.1181338999886,451.1181338999886,451.1181338999886,return,0.8936933999648318,1,1,0,0,0,0.0,return,0.8154268000507727,12,0,0,0.0,,,,,,,,,,,,,,,,,,,,,,,,,,,,,,,,,,,,,,,,,,,,,,,,,,,,,,,,A867Z4,train_y,blue_star,bottom_left,2025-03-15_11h11.32.451,HideSeek_v1,2022.2.5,59.891177724174305,
,0,1,0,2,0,1,62,,train_dim1_1,4,30,,,,2,0,2,0,,,,,,,,,0,0,0,0,0,3,3,3,0,0,0,0,,,,,,,,,,,,,,,,,,,,,,,,,stimuli/alien_stimuli/62.png,,,,,,,,,,,,,,,,,,,,,,,,,,,,,stimuli/alien_stimuli/64.png,64,2,5,,,,,,,30,,,,,,,,466.75489700003527,466.75489700003527,466.75489700003527,466.75489700003527,466.75489700003527,up,5.759816600009799,1,1,0,99,-0.16,-0.24,up,5.657179199974053,,,,,465.1824743000325,466.75489700003527,0,0.08,0.24,0.0,-0.04,0,0.0,0,0.08,453.57927280000877,453.57927280000877,453.57927280000877,453.57927280000877,453.57927280000877,453.57927280000877,453.57927280000877,453.57927280000877,453.572002939973,11.712283200002275,return,11.580502999946475,,,,,,,,,,,,,,,,,,,,,,,,,,,,,,,,,A867Z4,train_y,blue_star,bottom_left,2025-03-15_11h11.32.451,HideSeek_v1,2022.2.5,59.891177724174305,
,0,1,0,2,0,1,62,,train_dim1_1,4,30,,,,2,0,2,0,,,,,,,,,0,0,0,0,0,3,3,3,1,0,1,0,,,,,,,,,,,,,,,,,,,,,,,,,,,,,,,,,,,,,,,,,,,,,,,,,,,,,,,,,,,,,,,,30,,,,,,,,472.50512909993995,472.50512909993995,472.50512909993995,472.50512909993995,472.50512909993995,return,0.692622400005348,2,0,0,1,-0.16,-0.24,return,0.6149582000216469,13,0,-0.16,-0.24,,,,,,,,,,,,,,,,,,,,,,,,,,,,,,,,,,,,,,,,,,,,,,,,,,,,,,,,A867Z4,train_y,blue_star,bottom_left,2025-03-15_11h11.32.451,HideSeek_v1,2022.2.5,59.891177724174305,
,3,3,3,3,0,0,61,,train_dim1_1,5,30,,,,2,0,2,0,,,,,,,,,0,0,0,0,0,4,4,4,0,0,0,0,,,,,,,,,,,,,,,,,,,,,,,,,stimuli/alien_stimuli/61.png,,,,,,,,,,,,,,,,,,,,,,,,,,,,,stimuli/alien_stimuli/62.png,62,0,6,,,,,,,30,,,,,,,,478.2647409000201,478.2647409000201,478.2647409000201,478.2647409000201,478.2647409000201,return,3.592124699964188,3,0,0,1,0.08,-0.16,return,3.5028880999889225,13,0,0.08,-0.16,476.70856199995615,478.2647409000201,-0.16,-0.24,0.08,0.0,-0.28,-0.16,-0.16,-0.16,-0.24,474.7651273999363,474.7651273999363,474.7651273999363,474.7651273999363,474.7651273999363,474.7651273999363,474.7651273999363,474.7651273999363,474.7563695399789,2.0539171000709757,return,1.9169348999857903,,,,,,,,,,,,,,,,,,,,,,,,,,,,,,,,,A867Z4,train_y,blue_star,bottom_left,2025-03-15_11h11.32.451,HideSeek_v1,2022.2.5,59.891177724174305,
,1,4,1,5,0,1,62,,train_dim1_1,6,30,,,,2,0,2,0,,,,,,,,,0,0,0,0,0,5,5,5,0,0,0,0,,,,,,,,,,,,,,,,,,,,,,,,,stimuli/alien_stimuli/62.png,,,,,,,,,,,,,,,,,,,,,,,,,,,,,stimuli/alien_stimuli/61.png,61,3,7,,,,,,,30,,,,,,,,486.15363289997913,486.15363289997913,486.15363289997913,486.15363289997913,486.15363289997913,up,2.324612900032662,3,0,0,99,-0.08,0.0,up,2.2406252999790013,,,,,484.5984017000301,486.15363289997913,0.08,-0.16,0.0,0.0,-0.16,0.08,0.08,0.08,-0.16,483.4090097999433,483.4090097999433,483.4090097999433,483.4090097999433,483.4090097999433,483.4090097999433,483.4090097999433,483.4090097999433,483.39700812001246,1.2866274000843987,return,1.1726596999214962,,,,,,,,,,,,,,,,,,,,,,,,,,,,,,,,,A867Z4,train_y,blue_star,bottom_left,2025-03-15_11h11.32.451,HideSeek_v1,2022.2.5,59.891177724174305,
,1,4,1,5,0,1,62,,train_dim1_1,6,30,,,,2,0,2,0,,,,,,,,,0,0,0,0,0,5,5,5,1,0,1,0,,,,,,,,,,,,,,,,,,,,,,,,,,,,,,,,,,,,,,,,,,,,,,,,,,,,,,,,,,,,,,,,30,,,,,,,,488.4832054999424,488.4832054999424,488.4832054999424,488.4832054999424,488.4832054999424,return,0.6432614999357611,4,0,0,1,-0.08,0.0,return,0.5661329999566078,14,0,-0.08,0.0,,,,,,,,,,,,,,,,,,,,,,,,,,,,,,,,,,,,,,,,,,,,,,,,,,,,,,,,A867Z4,train_y,blue_star,bottom_left,2025-03-15_11h11.32.451,HideSeek_v1,2022.2.5,59.891177724174305,
,1,3,1,6,0,3,64,,train_dim1_1,7,30,,,,2,0,2,0,,,,,,,,,0,0,0,0,0,6,6,6,0,0,0,0,,,,,,,,,,,,,,,,,,,,,,,,,stimuli/alien_stimuli/64.png,,,,,,,,,,,,,,,,,,,,,,,,,,,,,stimuli/alien_stimuli/62.png,62,1,8,,,,,,,30,,,,,,,,494.0255237999372,494.0255237999372,494.0255237999372,494.0255237999372,494.0255237999372,up,3.558667300036177,4,0,0,99,-0.08,-0.08,up,3.469032100052573,,,,,492.4718560000183,494.0255237999372,-0.08,0,0.08,0.0,-0.04,-0.08,-0.08,-0.08,0,490.67950700002257,490.67950700002257,490.67950700002257,490.67950700002257,490.67950700002257,490.67950700002257,490.67950700002257,490.67950700002257,490.66960862004197,1.8868657998973504,return,1.7601199999917299,,,,,,,,,,,,,,,,,,,,,,,,,,,,,,,,,A867Z4,train_y,blue_star,bottom_left,2025-03-15_11h11.32.451,HideSeek_v1,2022.2.5,59.891177724174305,
,1,3,1,6,0,3,64,,train_dim1_1,7,30,,,,2,0,2,0,,,,,,,,,0,0,0,0,0,6,6,6,1,0,1,0,,,,,,,,,,,,,,,,,,,,,,,,,,,,,,,,,,,,,,,,,,,,,,,,,,,,,,,,,,,,,,,,30,,,,,,,,497.5910231999587,497.5910231999587,497.5910231999587,497.5910231999587,497.5910231999587,up,3.1784937999909744,4,0,0,99,-0.08,0.0,up,3.092472599935718,,,,,,,,,,,,,,,,,,,,,,,,,,,,,,,,,,,,,,,,,,,,,,,,,,,,,,,,,,,,A867Z4,train_y,blue_star,bottom_left,2025-03-15_11h11.32.451,HideSeek_v1,2022.2.5,59.891177724174305,
,1,3,1,6,0,3,64,,train_dim1_1,7,30,,,,2,0,2,0,,,,,,,,,0,0,0,0,0,6,6,6,2,0,2,0,,,,,,,,,,,,,,,,,,,,,,,,,,,,,,,,,,,,,,,,,,,,,,,,,,,,,,,,,,,,,,,,30,,,,,,,,500.77558819996193,500.77558819996193,500.77558819996193,500.77558819996193,500.77558819996193,up,0.6100284999702126,4,0,0,99,-0.08,0.08,up,0.5214105000486597,,,,,,,,,,,,,,,,,,,,,,,,,,,,,,,,,,,,,,,,,,,,,,,,,,,,,,,,,,,,A867Z4,train_y,blue_star,bottom_left,2025-03-15_11h11.32.451,HideSeek_v1,2022.2.5,59.891177724174305,
,1,3,1,6,0,3,64,,train_dim1_1,7,30,,,,2,0,2,0,,,,,,,,,0,0,0,0,0,6,6,6,3,0,3,0,,,,,,,,,,,,,,,,,,,,,,,,,,,,,,,,,,,,,,,,,,,,,,,,,,,,,,,,,,,,,,,,30,,,,,,,,501.3953272999497,501.3953272999497,501.3953272999497,501.3953272999497,501.3953272999497,return,0.760171000030823,5,0,0,1,-0.08,0.08,return,0.6744517999468371,17,0,-0.08,0.08,,,,,,,,,,,,,,,,,,,,,,,,,,,,,,,,,,,,,,,,,,,,,,,,,,,,,,,,A867Z4,train_y,blue_star,bottom_left,2025-03-15_11h11.32.451,HideSeek_v1,2022.2.5,59.891177724174305,
,4,2,4,2,0,0,61,,train_dim1_1,8,30,,,,2,0,2,0,,,,,,,,,0,0,0,0,0,7,7,7,0,0,0,0,,,,,,,,,,,,,,,,,,,,,,,,,stimuli/alien_stimuli/61.png,,,,,,,,,,,,,,,,,,,,,,,,,,,,,stimuli/alien_stimuli/64.png,64,1,9,,,,,,,30,,,,,,,,506.1849103999557,506.1849103999557,506.1849103999557,506.1849103999557,506.1849103999557,return,5.343818000052124,6,0,0,1,0.16,-0.24,return,5.257895800052211,17,0,0.16,-0.24,504.6318174999906,506.1849103999557,-0.08,0.08,0.24,0.0,-0.04,-0.08,-0.08,-0.08,0.08,503.7357048999984,503.7357048999984,503.7357048999984,503.7357048999984,503.7357048999984,503.7357048999984,503.7357048999984,503.7357048999984,503.7303988599684,1.0194357999134809,return,0.8638097000075504,,,,,,,,,,,,,,,,,,,,,,,,,,,,,,,,,A867Z4,train_y,blue_star,bottom_left,2025-03-15_11h11.32.451,HideSeek_v1,2022.2.5,59.891177724174305,
,4,3,4,7,0,4,65,,train_dim1_1,9,30,,,,2,0,2,0,,,,,,,,,0,0,0,0,0,8,8,8,0,0,0,0,,,,,,,,,,,,,,,,,,,,,,,,,stimuli/alien_stimuli/65.png,,,,,,,,,,,,,,,,,,,,,,,,,,,,,stimuli/alien_stimuli/61.png,61,4,10,,,,,,,30,,,,,,,,515.9686171000358,515.9686171000358,515.9686171000358,515.9686171000358,515.9686171000358,up,4.699838100001216,6,0,0,99,0.16,-0.08,up,4.6109993000281975,,,,,514.4065054999664,515.9686171000358,0.16,-0.24,0.0,0.0,-0.24,0.16,0.16,0.16,-0.24,513.0809085000074,513.0809085000074,513.0809085000074,513.0809085000074,513.0809085000074,513.0809085000074,513.0809085000074,513.0809085000074,513.0716161199846,1.4198833999689668,return,1.2959710999857634,,,,,,,,,,,,,,,,,,,,,,,,,,,,,,,,,A867Z4,train_y,blue_star,bottom_left,2025-03-15_11h11.32.451,HideSeek_v1,2022.2.5,59.891177724174305,
,4,3,4,7,0,4,65,,train_dim1_1,9,30,,,,2,0,2,0,,,,,,,,,0,0,0,0,0,8,8,8,1,0,1,0,,,,,,,,,,,,,,,,,,,,,,,,,,,,,,,,,,,,,,,,,,,,,,,,,,,,,,,,,,,,,,,,30,,,,,,,,520.6764819000382,520.6764819000382,520.6764819000382,520.6764819000382,520.6764819000382,up,0.5093611000338569,6,0,0,99,0.16,0.0,up,0.42046049993950874,,,,,,,,,,,,,,,,,,,,,,,,,,,,,,,,,,,,,,,,,,,,,,,,,,,,,,,,,,,,A867Z4,train_y,blue_star,bottom_left,2025-03-15_11h11.32.451,HideSeek_v1,2022.2.5,59.891177724174305,
,4,3,4,7,0,4,65,,train_dim1_1,9,30,,,,2,0,2,0,,,,,,,,,0,0,0,0,0,8,8,8,2,0,2,0,,,,,,,,,,,,,,,,,,,,,,,,,,,,,,,,,,,,,,,,,,,,,,,,,,,,,,,,,,,,,,,,30,,,,,,,,521.1935792999575,521.1935792999575,521.1935792999575,521.1935792999575,521.1935792999575,up,2.1947013000026345,6,0,0,99,0.16,0.08,up,2.1082121999934316,,,,,,,,,,,,,,,,,,,,,,,,,,,,,,,,,,,,,,,,,,,,,,,,,,,,,,,,,,,,A867Z4,train_y,blue_star,bottom_left,2025-03-15_11h11.32.451,HideSeek_v1,2022.2.5,59.891177724174305,
,4,3,4,7,0,4,65,,train_dim1_1,9,30,,,,2,0,2,0,,,,,,,,,0,0,0,0,0,8,8,8,3,0,3,0,,,,,,,,,,,,,,,,,,,,,,,,,,,,,,,,,,,,,,,,,,,,,,,,,,,,,,,,,,,,,,,,30,,,,,,,,523.3940325999865,523.3940325999865,523.3940325999865,523.3940325999865,523.3940325999865,up,0.7767783999443054,6,0,0,99,0.16,0.16,up,0.7009143000468612,,,,,,,,,,,,,,,,,,,,,,,,,,,,,,,,,,,,,,,,,,,,,,,,,,,,,,,,,,,,A867Z4,train_y,blue_star,bottom_left,2025-03-15_11h11.32.451,HideSeek_v1,2022.2.5,59.891177724174305,
,4,3,4,7,0,4,65,,train_dim1_1,9,30,,,,2,0,2,0,,,,,,,,,0,0,0,0,0,8,8,8,4,0,4,0,,,,,,,,,,,,,,,,,,,,,,,,,,,,,,,,,,,,,,,,,,,,,,,,,,,,,,,,,,,,,,,,30,,,,,,,,524.17798519996,524.17798519996,524.17798519996,524.17798519996,524.17798519996,up,0.5102701999712735,6,0,0,99,0.16,0.24,up,0.42212390003260225,,,,,,,,,,,,,,,,,,,,,,,,,,,,,,,,,,,,,,,,,,,,,,,,,,,,,,,,,,,,A867Z4,train_y,blue_star,bottom_left,2025-03-15_11h11.32.451,HideSeek_v1,2022.2.5,59.891177724174305,
,4,3,4,7,0,4,65,,train_dim1_1,9,30,,,,2,0,2,0,,,,,,,,,0,0,0,0,0,8,8,8,5,0,5,0,,,,,,,,,,,,,,,,,,,,,,,,,,,,,,,,,,,,,,,,,,,,,,,,,,,,,,,,,,,,,,,,30,,,,,,,,524.697236899985,524.697236899985,524.697236899985,524.697236899985,524.697236899985,return,0.5768478000536561,6,1,0,0,0.16,0.24,return,0.4891269999789074,22,0,0.16,0.24,,,,,,,,,,,,,,,,,,,,,,,,,,,,,,,,,,,,,,,,,,,,,,,,,,,,,,,,A867Z4,train_y,blue_star,bottom_left,2025-03-15_11h11.32.451,HideSeek_v1,2022.2.5,59.891177724174305,
,2,2,2,7,0,5,66,,train_dim1_1,10,30,,,,2,0,2,0,,,,,,,,,0,0,0,0,0,9,9,9,0,0,0,0,,,,,,,,,,,,,,,,,,,,,,,,,stimuli/alien_stimuli/66.png,,,,,,,,,,,,,,,,,,,,,,,,,,,,,stimuli/alien_stimuli/65.png,65,4,11,,,,,,,30,,,,,,,,533.5409160000272,533.5409160000272,533.5409160000272,533.5409160000272,533.5409160000272,up,2.974998199963011,6,1,0,99,0,-0.15999999999999998,up,2.8922722999705,,,,,531.9878997999476,533.5409160000272,0.16,0.16,0.32,0.0,0.0,0.16,0.16,0.16,0.16,526.8412868999876,526.8412868999876,526.8412868999876,526.8412868999876,526.8412868999876,526.8412868999876,526.8412868999876,526.8412868999876,526.8329268400325,5.256529300007969,return,5.115005000028759,,,,,,,,,,,,,,,,,,,,,,,,,,,,,,,,,A867Z4,train_y,blue_star,bottom_left,2025-03-15_11h11.32.451,HideSeek_v1,2022.2.5,59.891177724174305,
,2,2,2,7,0,5,66,,train_dim1_1,10,30,,,,2,0,2,0,,,,,,,,,0,0,0,0,0,9,9,9,1,0,1,0,,,,,,,,,,,,,,,,,,,,,,,,,,,,,,,,,,,,,,,,,,,,,,,,,,,,,,,,,,,,,,,,30,,,,,,,,536.5218641000101,536.5218641000101,536.5218641000101,536.5218641000101,536.5218641000101,up,0.5426982999779284,6,1,0,99,0,-0.07999999999999997,up,0.4682335000252351,,,,,,,,,,,,,,,,,,,,,,,,,,,,,,,,,,,,,,,,,,,,,,,,,,,,,,,,,,,,A867Z4,train_y,blue_star,bottom_left,2025-03-15_11h11.32.451,HideSeek_v1,2022.2.5,59.891177724174305,
,2,2,2,7,0,5,66,,train_dim1_1,10,30,,,,2,0,2,0,,,,,,,,,0,0,0,0,0,9,9,9,2,0,2,0,,,,,,,,,,,,,,,,,,,,,,,,,,,,,,,,,,,,,,,,,,,,,,,,,,,,,,,,,,,,,,,,30,,,,,,,,537.0745502000209,537.0745502000209,537.0745502000209,537.0745502000209,537.0745502000209,up,0.7435650000115857,6,1,0,99,0,2.7755575615628914e-17,up,0.6671754000708461,,,,,,,,,,,,,,,,,,,,,,,,,,,,,,,,,,,,,,,,,,,,,,,,,,,,,,,,,,,,A867Z4,train_y,blue_star,bottom_left,2025-03-15_11h11.32.451,HideSeek_v1,2022.2.5,59.891177724174305,
,2,2,2,7,0,5,66,,train_dim1_1,10,30,,,,2,0,2,0,,,,,,,,,0,0,0,0,0,9,9,9,3,0,3,0,,,,,,,,,,,,,,,,,,,,,,,,,,,,,,,,,,,,,,,,,,,,,,,,,,,,,,,,,,,,,,,,30,,,,,,,,537.8231186999474,537.8231186999474,537.8231186999474,537.8231186999474,537.8231186999474,up,0.7102683000266552,6,1,0,99,0,0.08000000000000003,up,0.627950899885036,,,,,,,,,,,,,,,,,,,,,,,,,,,,,,,,,,,,,,,,,,,,,,,,,,,,,,,,,,,,A867Z4,train_y,blue_star,bottom_left,2025-03-15_11h11.32.451,HideSeek_v1,2022.2.5,59.891177724174305,
,2,2,2,7,0,5,66,,train_dim1_1,10,30,,,,2,0,2,0,,,,,,,,,0,0,0,0,0,9,9,9,4,0,4,0,,,,,,,,,,,,,,,,,,,,,,,,,,,,,,,,,,,,,,,,,,,,,,,,,,,,,,,,,,,,,,,,30,,,,,,,,538.5402997999918,538.5402997999918,538.5402997999918,538.5402997999918,538.5402997999918,up,0.7101916000247002,6,1,0,99,0,0.16000000000000003,up,0.6214828999945894,,,,,,,,,,,,,,,,,,,,,,,,,,,,,,,,,,,,,,,,,,,,,,,,,,,,,,,,,,,,A867Z4,train_y,blue_star,bottom_left,2025-03-15_11h11.32.451,HideSeek_v1,2022.2.5,59.891177724174305,
,2,2,2,7,0,5,66,,train_dim1_1,10,30,,,,2,0,2,0,,,,,,,,,0,0,0,0,0,9,9,9,5,0,5,0,,,,,,,,,,,,,,,,,,,,,,,,,,,,,,,,,,,,,,,,,,,,,,,,,,,,,,,,,,,,,,,,30,,,,,,,,539.2567109999945,539.2567109999945,539.2567109999945,539.2567109999945,539.2567109999945,return,3.445862099993974,7,0,0,1,0,0.16000000000000003,return,3.3613229000475258,27,0,0,0.16000000000000003,,,,,,,,,,,,,,,,,,,,,,,,,,,,,,,,,,,,,,,,,,,,,,,,,,,,,,,,A867Z4,train_y,blue_star,bottom_left,2025-03-15_11h11.32.451,HideSeek_v1,2022.2.5,59.891177724174305,
,4,1,4,5,0,4,65,,train_dim1_1,11,30,,,,2,0,2,0,,,,,,,,,0,0,0,0,0,10,10,10,0,0,0,0,,,,,,,,,,,,,,,,,,,,,,,,,stimuli/alien_stimuli/65.png,,,,,,,,,,,,,,,,,,,,,,,,,,,,,stimuli/alien_stimuli/66.png,66,2,12,,,,,,,30,,,,,,,,547.1341844999697,547.1341844999697,547.1341844999697,547.1341844999697,547.1341844999697,up,3.942476599942893,7,0,0,99,0.16,-0.24,up,3.8539850000524893,,,,,545.5824876000406,547.1341844999697,0,0.16,0.4,0.0,-0.039999999999999994,0,0.0,0,0.16,544.2698562999722,544.2698562999722,544.2698562999722,544.2698562999722,544.2698562999722,544.2698562999722,544.2698562999722,544.2698562999722,544.2640443399782,1.4198998999781907,return,1.287387500051409,,,,,,,,,,,,,,,,,,,,,,,,,,,,,,,,,A867Z4,train_y,blue_star,bottom_left,2025-03-15_11h11.32.451,HideSeek_v1,2022.2.5,59.891177724174305,
,4,1,4,5,0,4,65,,train_dim1_1,11,30,,,,2,0,2,0,,,,,,,,,0,0,0,0,0,10,10,10,1,0,1,0,,,,,,,,,,,,,,,,,,,,,,,,,,,,,,,,,,,,,,,,,,,,,,,,,,,,,,,,,,,,,,,,30,,,,,,,,551.0831650999608,551.0831650999608,551.0831650999608,551.0831650999608,551.0831650999608,up,0.5096329000080004,7,0,0,99,0.16,-0.15999999999999998,up,0.4331450000172481,,,,,,,,,,,,,,,,,,,,,,,,,,,,,,,,,,,,,,,,,,,,,,,,,,,,,,,,,,,,A867Z4,train_y,blue_star,bottom_left,2025-03-15_11h11.32.451,HideSeek_v1,2022.2.5,59.891177724174305,
,4,1,4,5,0,4,65,,train_dim1_1,11,30,,,,2,0,2,0,,,,,,,,,0,0,0,0,0,10,10,10,2,0,2,0,,,,,,,,,,,,,,,,,,,,,,,,,,,,,,,,,,,,,,,,,,,,,,,,,,,,,,,,,,,,,,,,30,,,,,,,,551.6006914000027,551.6006914000027,551.6006914000027,551.6006914000027,551.6006914000027,up,0.6769292000681162,7,0,0,99,0.16,-0.07999999999999997,up,0.6033675000071526,,,,,,,,,,,,,,,,,,,,,,,,,,,,,,,,,,,,,,,,,,,,,,,,,,,,,,,,,,,,A867Z4,train_y,blue_star,bottom_left,2025-03-15_11h11.32.451,HideSeek_v1,2022.2.5,59.891177724174305,
,4,1,4,5,0,4,65,,train_dim1_1,11,30,,,,2,0,2,0,,,,,,,,,0,0,0,0,0,10,10,10,3,0,3,0,,,,,,,,,,,,,,,,,,,,,,,,,,,,,,,,,,,,,,,,,,,,,,,,,,,,,,,,,,,,,,,,30,,,,,,,,552.2865571000148,552.2865571000148,552.2865571000148,552.2865571000148,552.2865571000148,up,0.5759638999588788,7,0,0,99,0.16,2.7755575615628914e-17,up,0.5017780000343919,,,,,,,,,,,,,,,,,,,,,,,,,,,,,,,,,,,,,,,,,,,,,,,,,,,,,,,,,,,,A867Z4,train_y,blue_star,bottom_left,2025-03-15_11h11.32.451,HideSeek_v1,2022.2.5,59.891177724174305,
,4,1,4,5,0,4,65,,train_dim1_1,11,30,,,,2,0,2,0,,,,,,,,,0,0,0,0,0,10,10,10,4,0,4,0,,,,,,,,,,,,,,,,,,,,,,,,,,,,,,,,,,,,,,,,,,,,,,,,,,,,,,,,,,,,,,,,30,,,,,,,,552.8683682000265,552.8683682000265,552.8683682000265,552.8683682000265,552.8683682000265,return,0.9937050000298768,8,0,0,1,0.16,2.7755575615628914e-17,return,0.9192725999746472,31,0,0.16,2.7755575615628914e-17,,,,,,,,,,,,,,,,,,,,,,,,,,,,,,,,,,,,,,,,,,,,,,,,,,,,,,,,A867Z4,train_y,blue_star,bottom_left,2025-03-15_11h11.32.451,HideSeek_v1,2022.2.5,59.891177724174305,
,0,0,0,0,0,0,61,,train_dim1_1,12,30,,,,2,0,2,0,,,,,,,,,0,0,0,0,0,11,11,11,0,0,0,0,,,,,,,,,,,,,,,,,,,,,,,,,stimuli/alien_stimuli/61.png,,,,,,,,,,,,,,,,,,,,,,,,,,,,,stimuli/alien_stimuli/65.png,65,4,13,,,,,,,30,,,,,,,,558.9708242999623,558.9708242999623,558.9708242999623,558.9708242999623,558.9708242999623,return,3.909506500000134,9,0,0,1,-0.16,-0.4,return,3.8144596000202,31,0,-0.16,-0.4,557.4088431999553,558.9708242999623,0.16,0,0.32,0.0,-0.16,0.16,0.16,0.16,0,555.4268139000051,555.4268139000051,555.4268139000051,555.4268139000051,555.4268139000051,555.4268139000051,555.4268139000051,555.4268139000051,555.4232502400178,2.087181800045073,return,1.9612200999399647,,,,,,,,,,,,,,,,,,,,,,,,,,,,,,,,,A867Z4,train_y,blue_star,bottom_left,2025-03-15_11h11.32.451,HideSeek_v1,2022.2.5,59.891177724174305,
,4,3,4,4,0,1,62,,train_dim1_1,13,30,,,,2,0,2,0,,,,,,,,,0,0,0,0,0,12,12,12,0,0,0,0,,,,,,,,,,,,,,,,,,,,,,,,,stimuli/alien_stimuli/62.png,,,,,,,,,,,,,,,,,,,,,,,,,,,,,stimuli/alien_stimuli/61.png,61,0,14,,,,,,,30,,,,,,,,567.6357384000439,567.6357384000439,567.6357384000439,567.6357384000439,567.6357384000439,up,2.3246895999182016,9,0,0,99,0.16,-0.08,up,2.235293500008993,,,,,566.0827062999597,567.6357384000439,-0.16,-0.4,0.0,0.0,-0.4,-0.16,-0.16,-0.16,-0.4,564.4377858999651,564.4377858999651,564.4377858999651,564.4377858999651,564.4377858999651,564.4377858999651,564.4377858999651,564.4377858999651,564.430564739951,1.7539397000800818,return,1.617735999985598,,,,,,,,,,,,,,,,,,,,,,,,,,,,,,,,,A867Z4,train_y,blue_star,bottom_left,2025-03-15_11h11.32.451,HideSeek_v1,2022.2.5,59.891177724174305,
,4,3,4,4,0,1,62,,train_dim1_1,13,30,,,,2,0,2,0,,,,,,,,,0,0,0,0,0,12,12,12,1,0,1,0,,,,,,,,,,,,,,,,,,,,,,,,,,,,,,,,,,,,,,,,,,,,,,,,,,,,,,,,,,,,,,,,30,,,,,,,,569.9671595999971,569.9671595999971,569.9671595999971,569.9671595999971,569.9671595999971,return,0.9099637999897823,10,0,0,1,0.16,-0.08,return,0.8300287000602111,32,0,0.16,-0.08,,,,,,,,,,,,,,,,,,,,,,,,,,,,,,,,,,,,,,,,,,,,,,,,,,,,,,,,A867Z4,train_y,blue_star,bottom_left,2025-03-15_11h11.32.451,HideSeek_v1,2022.2.5,59.891177724174305,
,2,2,2,7,0,5,66,,train_dim1_1,14,30,,,,2,0,2,0,,,,,,,,,0,0,0,0,0,13,13,13,0,0,0,0,,,,,,,,,,,,,,,,,,,,,,,,,stimuli/alien_stimuli/66.png,,,,,,,,,,,,,,,,,,,,,,,,,,,,,stimuli/alien_stimuli/62.png,62,4,15,,,,,,,30,,,,,,,,575.0071612000465,575.0071612000465,575.0071612000465,575.0071612000465,575.0071612000465,up,2.7250531000318006,10,0,0,99,0,-0.15999999999999998,up,2.6375379000091925,,,,,573.4555868000025,575.0071612000465,0.16,-0.08,0.08,0.0,-0.12,0.16,0.16,0.16,-0.08,572.4294283000054,572.4294283000054,572.4294283000054,572.4294283000054,572.4294283000054,572.4294283000054,572.4294283000054,572.4294283000054,572.4211066200398,1.1194218000164255,return,1.00691769993864,,,,,,,,,,,,,,,,,,,,,,,,,,,,,,,,,A867Z4,train_y,blue_star,bottom_left,2025-03-15_11h11.32.451,HideSeek_v1,2022.2.5,59.891177724174305,
,2,2,2,7,0,5,66,,train_dim1_1,14,30,,,,2,0,2,0,,,,,,,,,0,0,0,0,0,13,13,13,1,0,1,0,,,,,,,,,,,,,,,,,,,,,,,,,,,,,,,,,,,,,,,,,,,,,,,,,,,,,,,,,,,,,,,,30,,,,,,,,577.7392713000299,577.7392713000299,577.7392713000299,577.7392713000299,577.7392713000299,up,0.5431506000459194,10,0,0,99,0,-0.07999999999999997,up,0.4581860000034794,,,,,,,,,,,,,,,,,,,,,,,,,,,,,,,,,,,,,,,,,,,,,,,,,,,,,,,,,,,,A867Z4,train_y,blue_star,bottom_left,2025-03-15_11h11.32.451,HideSeek_v1,2022.2.5,59.891177724174305,
,2,2,2,7,0,5,66,,train_dim1_1,14,30,,,,2,0,2,0,,,,,,,,,0,0,0,0,0,13,13,13,2,0,2,0,,,,,,,,,,,,,,,,,,,,,,,,,,,,,,,,,,,,,,,,,,,,,,,,,,,,,,,,,,,,,,,,30,,,,,,,,578.2906520999968,578.2906520999968,578.2906520999968,578.2906520999968,578.2906520999968,up,0.7269986000610515,10,0,0,99,0,2.7755575615628914e-17,up,0.6417921000393108,,,,,,,,,,,,,,,,,,,,,,,,,,,,,,,,,,,,,,,,,,,,,,,,,,,,,,,,,,,,A867Z4,train_y,blue_star,bottom_left,2025-03-15_11h11.32.451,HideSeek_v1,2022.2.5,59.891177724174305,
,2,2,2,7,0,5,66,,train_dim1_1,14,30,,,,2,0,2,0,,,,,,,,,0,0,0,0,0,13,13,13,3,0,3,0,,,,,,,,,,,,,,,,,,,,,,,,,,,,,,,,,,,,,,,,,,,,,,,,,,,,,,,,,,,,,,,,30,,,,,,,,579.0236018999713,579.0236018999713,579.0236018999713,579.0236018999713,579.0236018999713,up,0.8269706999417394,10,0,0,99,0,0.08000000000000003,up,0.749879700015299,,,,,,,,,,,,,,,,,,,,,,,,,,,,,,,,,,,,,,,,,,,,,,,,,,,,,,,,,,,,A867Z4,train_y,blue_star,bottom_left,2025-03-15_11h11.32.451,HideSeek_v1,2022.2.5,59.891177724174305,
,2,2,2,7,0,5,66,,train_dim1_1,14,30,,,,2,0,2,0,,,,,,,,,0,0,0,0,0,13,13,13,4,0,4,0,,,,,,,,,,,,,,,,,,,,,,,,,,,,,,,,,,,,,,,,,,,,,,,,,,,,,,,,,,,,,,,,30,,,,,,,,579.8576376000419,579.8576376000419,579.8576376000419,579.8576376000419,579.8576376000419,up,0.8771020999411121,10,0,0,99,0,0.16000000000000003,up,0.7932247000280768,,,,,,,,,,,,,,,,,,,,,,,,,,,,,,,,,,,,,,,,,,,,,,,,,,,,,,,,,,,,A867Z4,train_y,blue_star,bottom_left,2025-03-15_11h11.32.451,HideSeek_v1,2022.2.5,59.891177724174305,
,2,2,2,7,0,5,66,,train_dim1_1,14,30,,,,2,0,2,0,,,,,,,,,0,0,0,0,0,13,13,13,5,0,5,0,,,,,,,,,,,,,,,,,,,,,,,,,,,,,,,,,,,,,,,,,,,,,,,,,,,,,,,,,,,,,,,,30,,,,,,,,580.7433847000357,580.7433847000357,580.7433847000357,580.7433847000357,580.7433847000357,return,0.860230699996464,11,0,0,1,0,0.16000000000000003,return,0.7860069000162184,37,0,0,0.16000000000000003,,,,,,,,,,,,,,,,,,,,,,,,,,,,,,,,,,,,,,,,,,,,,,,,,,,,,,,,A867Z4,train_y,blue_star,bottom_left,2025-03-15_11h11.32.451,HideSeek_v1,2022.2.5,59.891177724174305,
,1,4,1,7,0,3,64,,train_dim1_1,15,30,,,,2,0,2,0,,,,,,,,,0,0,0,0,0,14,14,14,0,0,0,0,,,,,,,,,,,,,,,,,,,,,,,,,stimuli/alien_stimuli/64.png,,,,,,,,,,,,,,,,,,,,,,,,,,,,,stimuli/alien_stimuli/66.png,66,2,16,,,,,,,30,,,,,,,,585.7184982999461,585.7184982999461,585.7184982999461,585.7184982999461,585.7184982999461,up,6.711871500010602,11,0,0,99,-0.08,0.0,up,6.632165000075474,,,,,584.1644004000118,585.7184982999461,0,0.16,0.4,0.0,-0.039999999999999994,0,0.0,0,0.16,583.1699200000148,583.1699200000148,583.1699200000148,583.1699200000148,583.1699200000148,583.1699200000148,583.1699200000148,583.1699200000148,583.1628896399402,1.1032715999754146,return,0.9710571999894455,,,,,,,,,,,,,,,,,,,,,,,,,,,,,,,,,A867Z4,train_y,blue_star,bottom_left,2025-03-15_11h11.32.451,HideSeek_v1,2022.2.5,59.891177724174305,
,1,4,1,7,0,3,64,,train_dim1_1,15,30,,,,2,0,2,0,,,,,,,,,0,0,0,0,0,14,14,14,1,0,1,0,,,,,,,,,,,,,,,,,,,,,,,,,,,,,,,,,,,,,,,,,,,,,,,,,,,,,,,,,,,,,,,,30,,,,,,,,592.435869500041,592.435869500041,592.435869500041,592.435869500041,592.435869500041,up,0.6093839999521151,11,0,0,99,-0.08,0.08,up,0.5279798000119627,,,,,,,,,,,,,,,,,,,,,,,,,,,,,,,,,,,,,,,,,,,,,,,,,,,,,,,,,,,,A867Z4,train_y,blue_star,bottom_left,2025-03-15_11h11.32.451,HideSeek_v1,2022.2.5,59.891177724174305,
,1,4,1,7,0,3,64,,train_dim1_1,15,30,,,,2,0,2,0,,,,,,,,,0,0,0,0,0,14,14,14,2,0,2,0,,,,,,,,,,,,,,,,,,,,,,,,,,,,,,,,,,,,,,,,,,,,,,,,,,,,,,,,,,,,,,,,30,,,,,,,,593.0517290999414,593.0517290999414,593.0517290999414,593.0517290999414,593.0517290999414,up,0.5601222000550479,11,0,0,99,-0.08,0.16,up,0.47283290000632405,,,,,,,,,,,,,,,,,,,,,,,,,,,,,,,,,,,,,,,,,,,,,,,,,,,,,,,,,,,,A867Z4,train_y,blue_star,bottom_left,2025-03-15_11h11.32.451,HideSeek_v1,2022.2.5,59.891177724174305,
,1,4,1,7,0,3,64,,train_dim1_1,15,30,,,,2,0,2,0,,,,,,,,,0,0,0,0,0,14,14,14,3,0,3,0,,,,,,,,,,,,,,,,,,,,,,,,,,,,,,,,,,,,,,,,,,,,,,,,,,,,,,,,,,,,,,,,30,,,,,,,,593.622400799999,593.622400799999,593.622400799999,593.622400799999,593.622400799999,return,0.7435625001089647,12,0,0,1,-0.08,0.16,return,0.6541529999813065,40,0,-0.08,0.16,,,,,,,,,,,,,,,,,,,,,,,,,,,,,,,,,,,,,,,,,,,,,,,,,,,,,,,,A867Z4,train_y,blue_star,bottom_left,2025-03-15_11h11.32.451,HideSeek_v1,2022.2.5,59.891177724174305,
,4,0,4,4,0,4,65,,train_dim1_1,16,30,,,,2,0,2,0,,,,,,,,,0,0,0,0,0,15,15,15,0,0,0,0,,,,,,,,,,,,,,,,,,,,,,,,,stimuli/alien_stimuli/65.png,,,,,,,,,,,,,,,,,,,,,,,,,,,,,stimuli/alien_stimuli/64.png,64,1,17,,,,,,,30,,,,,,,,599.8443352000322,599.8443352000322,599.8443352000322,599.8443352000322,599.8443352000322,up,6.061192199937068,12,0,0,99,0.16,-0.32,up,5.97494770004414,,,,,598.29273440002,599.8443352000322,-0.08,0.16,0.24,0.0,0.04,-0.08,-0.08,-0.08,0.16,595.932365900022,595.932365900022,595.932365900022,595.932365900022,595.932365900022,595.932365900022,595.932365900022,595.932365900022,595.9235437400407,2.4707605000585318,return,2.3308035999070853,,,,,,,,,,,,,,,,,,,,,,,,,,,,,,,,,A867Z4,train_y,blue_star,bottom_left,2025-03-15_11h11.32.451,HideSeek_v1,2022.2.5,59.891177724174305,
,4,0,4,4,0,4,65,,train_dim1_1,16,30,,,,2,0,2,0,,,,,,,,,0,0,0,0,0,15,15,15,1,0,1,0,,,,,,,,,,,,,,,,,,,,,,,,,,,,,,,,,,,,,,,,,,,,,,,,,,,,,,,,,,,,,,,,30,,,,,,,,605.9134989000158,605.9134989000158,605.9134989000158,605.9134989000158,605.9134989000158,up,0.4595782000105828,12,0,0,99,0.16,-0.24,up,0.37090550002176315,,,,,,,,,,,,,,,,,,,,,,,,,,,,,,,,,,,,,,,,,,,,,,,,,,,,,,,,,,,,A867Z4,train_y,blue_star,bottom_left,2025-03-15_11h11.32.451,HideSeek_v1,2022.2.5,59.891177724174305,
,4,0,4,4,0,4,65,,train_dim1_1,16,30,,,,2,0,2,0,,,,,,,,,0,0,0,0,0,15,15,15,2,0,2,0,,,,,,,,,,,,,,,,,,,,,,,,,,,,,,,,,,,,,,,,,,,,,,,,,,,,,,,,,,,,,,,,30,,,,,,,,606.3787904999917,606.3787904999917,606.3787904999917,606.3787904999917,606.3787904999917,up,0.5770344999618828,12,0,0,99,0.16,-0.15999999999999998,up,0.49828850000631064,,,,,,,,,,,,,,,,,,,,,,,,,,,,,,,,,,,,,,,,,,,,,,,,,,,,,,,,,,,,A867Z4,train_y,blue_star,bottom_left,2025-03-15_11h11.32.451,HideSeek_v1,2022.2.5,59.891177724174305,
,4,0,4,4,0,4,65,,train_dim1_1,16,30,,,,2,0,2,0,,,,,,,,,0,0,0,0,0,15,15,15,3,0,3,0,,,,,,,,,,,,,,,,,,,,,,,,,,,,,,,,,,,,,,,,,,,,,,,,,,,,,,,,,,,,,,,,30,,,,,,,,606.9663526000222,606.9663526000222,606.9663526000222,606.9663526000222,606.9663526000222,up,1.0105241000419483,12,0,0,99,0.16,-0.07999999999999997,up,0.9194719000952318,,,,,,,,,,,,,,,,,,,,,,,,,,,,,,,,,,,,,,,,,,,,,,,,,,,,,,,,,,,,A867Z4,train_y,blue_star,bottom_left,2025-03-15_11h11.32.451,HideSeek_v1,2022.2.5,59.891177724174305,
,4,0,4,4,0,4,65,,train_dim1_1,16,30,,,,2,0,2,0,,,,,,,,,0,0,0,0,0,15,15,15,4,0,4,0,,,,,,,,,,,,,,,,,,,,,,,,,,,,,,,,,,,,,,,,,,,,,,,,,,,,,,,,,,,,,,,,30,,,,,,,,607.9799800999463,607.9799800999463,607.9799800999463,607.9799800999463,607.9799800999463,up,0.5267603000393137,12,0,0,99,0.16,2.7755575615628914e-17,up,0.4539323999779299,,,,,,,,,,,,,,,,,,,,,,,,,,,,,,,,,,,,,,,,,,,,,,,,,,,,,,,,,,,,A867Z4,train_y,blue_star,bottom_left,2025-03-15_11h11.32.451,HideSeek_v1,2022.2.5,59.891177724174305,
,4,0,4,4,0,4,65,,train_dim1_1,16,30,,,,2,0,2,0,,,,,,,,,0,0,0,0,0,15,15,15,5,0,5,0,,,,,,,,,,,,,,,,,,,,,,,,,,,,,,,,,,,,,,,,,,,,,,,,,,,,,,,,,,,,,,,,30,,,,,,,,608.5145110000158,608.5145110000158,608.5145110000158,608.5145110000158,608.5145110000158,return,0.6435255999676883,12,1,0,0,0.16,2.7755575615628914e-17,return,0.5703222999582067,45,0,0.16,2.7755575615628914e-17,,,,,,,,,,,,,,,,,,,,,,,,,,,,,,,,,,,,,,,,,,,,,,,,,,,,,,,,A867Z4,train_y,blue_star,bottom_left,2025-03-15_11h11.32.451,HideSeek_v1,2022.2.5,59.891177724174305,
,3,3,3,6,0,3,64,,train_dim1_1,17,30,,,,2,0,2,0,,,,,,,,,0,0,0,0,0,16,16,16,0,0,0,0,,,,,,,,,,,,,,,,,,,,,,,,,stimuli/alien_stimuli/64.png,,,,,,,,,,,,,,,,,,,,,,,,,,,,,stimuli/alien_stimuli/65.png,65,4,18,,,,,,,30,,,,,,,,616.6251100000227,616.6251100000227,616.6251100000227,616.6251100000227,616.6251100000227,up,2.241394600016065,12,1,0,99,0.08,-0.08,up,2.1632836000062525,,,,,615.0732861999422,616.6251100000227,0.16,-0.08,0.32,0.0,-0.24000000000000002,0.16,0.16,0.16,-0.08,610.7256093999604,610.7256093999604,610.7256093999604,610.7256093999604,610.7256093999604,610.7256093999604,610.7256093999604,610.7256093999604,610.7190231400077,4.455765499966219,return,4.31758869998157,,,,,,,,,,,,,,,,,,,,,,,,,,,,,,,,,A867Z4,train_y,blue_star,bottom_left,2025-03-15_11h11.32.451,HideSeek_v1,2022.2.5,59.891177724174305,
,3,3,3,6,0,3,64,,train_dim1_1,17,30,,,,2,0,2,0,,,,,,,,,0,0,0,0,0,16,16,16,1,0,1,0,,,,,,,,,,,,,,,,,,,,,,,,,,,,,,,,,,,,,,,,,,,,,,,,,,,,,,,,,,,,,,,,30,,,,,,,,618.8738267000299,618.8738267000299,618.8738267000299,618.8738267000299,618.8738267000299,up,0.4426225000061095,12,1,0,99,0.08,0.0,up,0.3559986000182107,,,,,,,,,,,,,,,,,,,,,,,,,,,,,,,,,,,,,,,,,,,,,,,,,,,,,,,,,,,,A867Z4,train_y,blue_star,bottom_left,2025-03-15_11h11.32.451,HideSeek_v1,2022.2.5,59.891177724174305,
,3,3,3,6,0,3,64,,train_dim1_1,17,30,,,,2,0,2,0,,,,,,,,,0,0,0,0,0,16,16,16,2,0,2,0,,,,,,,,,,,,,,,,,,,,,,,,,,,,,,,,,,,,,,,,,,,,,,,,,,,,,,,,,,,,,,,,30,,,,,,,,619.3287826000014,619.3287826000014,619.3287826000014,619.3287826000014,619.3287826000014,up,0.5100194000406191,12,1,0,99,0.08,0.08,up,0.4277268999721855,,,,,,,,,,,,,,,,,,,,,,,,,,,,,,,,,,,,,,,,,,,,,,,,,,,,,,,,,,,,A867Z4,train_y,blue_star,bottom_left,2025-03-15_11h11.32.451,HideSeek_v1,2022.2.5,59.891177724174305,
,3,3,3,6,0,3,64,,train_dim1_1,17,30,,,,2,0,2,0,,,,,,,,,0,0,0,0,0,16,16,16,3,0,3,0,,,,,,,,,,,,,,,,,,,,,,,,,,,,,,,,,,,,,,,,,,,,,,,,,,,,,,,,,,,,,,,,30,,,,,,,,619.840759600047,619.840759600047,619.840759600047,619.840759600047,619.840759600047,return,1.143811000045389,13,0,0,1,0.08,0.08,return,1.0559264000039548,48,0,0.08,0.08,,,,,,,,,,,,,,,,,,,,,,,,,,,,,,,,,,,,,,,,,,,,,,,,,,,,,,,,A867Z4,train_y,blue_star,bottom_left,2025-03-15_11h11.32.451,HideSeek_v1,2022.2.5,59.891177724174305,
,2,1,2,1,0,0,61,,train_dim1_1,18,30,,,,2,0,2,0,,,,,,,,,0,0,0,0,0,17,17,17,0,0,0,0,,,,,,,,,,,,,,,,,,,,,,,,,stimuli/alien_stimuli/61.png,,,,,,,,,,,,,,,,,,,,,,,,,,,,,stimuli/alien_stimuli/64.png,64,3,19,,,,,,,30,,,,,,,,625.3315329999896,625.3315329999896,625.3315329999896,625.3315329999896,625.3315329999896,return,2.4415501999901608,14,0,0,1,0,-0.32,return,2.364510599989444,48,0,0,-0.32,623.7805203000316,625.3315329999896,0.08,0.08,0.24,0.0,-0.04,0.08,0.08,0.08,0.08,622.5519837000174,622.5519837000174,622.5519837000174,622.5519837000174,622.5519837000174,622.5519837000174,622.5519837000174,622.5519837000174,622.5454712400447,1.3366649999516085,return,1.206696999957785,,,,,,,,,,,,,,,,,,,,,,,,,,,,,,,,,A867Z4,train_y,blue_star,bottom_left,2025-03-15_11h11.32.451,HideSeek_v1,2022.2.5,59.891177724174305,
,0,4,0,5,0,1,62,,train_dim1_1,19,30,,,,2,0,2,0,,,,,,,,,0,0,0,0,0,18,18,18,0,0,0,0,,,,,,,,,,,,,,,,,,,,,,,,,stimuli/alien_stimuli/62.png,,,,,,,,,,,,,,,,,,,,,,,,,,,,,stimuli/alien_stimuli/61.png,61,2,20,,,,,,,30,,,,,,,,634.3076852000086,634.3076852000086,634.3076852000086,634.3076852000086,634.3076852000086,up,2.1744784999173135,14,0,0,99,-0.16,0.0,up,2.0944992000004277,,,,,632.7548448999878,634.3076852000086,0,-0.32,0.0,0.0,-0.32,0,0.0,0,-0.32,629.3256582999602,629.3256582999602,629.3256582999602,629.3256582999602,629.3256582999602,629.3256582999602,629.3256582999602,629.3256582999602,629.3180925200461,3.5217785999411717,return,3.399883900070563,,,,,,,,,,,,,,,,,,,,,,,,,,,,,,,,,A867Z4,train_y,blue_star,bottom_left,2025-03-15_11h11.32.451,HideSeek_v1,2022.2.5,59.891177724174305,
,0,4,0,5,0,1,62,,train_dim1_1,19,30,,,,2,0,2,0,,,,,,,,,0,0,0,0,0,18,18,18,1,0,1,0,,,,,,,,,,,,,,,,,,,,,,,,,,,,,,,,,,,,,,,,,,,,,,,,,,,,,,,,,,,,,,,,30,,,,,,,,636.4886686999816,636.4886686999816,636.4886686999816,636.4886686999816,636.4886686999816,return,0.9436092999530956,15,0,0,1,-0.16,0.0,return,0.8556397999636829,49,0,-0.16,0.0,,,,,,,,,,,,,,,,,,,,,,,,,,,,,,,,,,,,,,,,,,,,,,,,,,,,,,,,A867Z4,train_y,blue_star,bottom_left,2025-03-15_11h11.32.451,HideSeek_v1,2022.2.5,59.891177724174305,
,2,0,2,5,0,5,66,,train_dim1_1,20,30,,,,2,0,2,0,,,,,,,,,0,0,0,0,0,19,19,19,0,0,0,0,,,,,,,,,,,,,,,,,,,,,,,,,stimuli/alien_stimuli/66.png,,,,,,,,,,,,,,,,,,,,,,,,,,,,,stimuli/alien_stimuli/62.png,62,0,21,,,,,,,30,,,,,,,,641.7958510000026,641.7958510000026,641.7958510000026,641.7958510000026,641.7958510000026,up,2.3246756000444293,15,0,0,99,0,-0.32,up,2.236867900006473,,,,,640.2443294000113,641.7958510000026,-0.16,0,0.08,0.0,-0.04,-0.16,-0.16,-0.16,0,638.9872839000309,638.9872839000309,638.9872839000309,638.9872839000309,638.9872839000309,638.9872839000309,638.9872839000309,638.9872839000309,638.9759148200276,1.3533975000027567,return,1.2327366000972688,,,,,,,,,,,,,,,,,,,,,,,,,,,,,,,,,A867Z4,train_y,blue_star,bottom_left,2025-03-15_11h11.32.451,HideSeek_v1,2022.2.5,59.891177724174305,
,2,0,2,5,0,5,66,,train_dim1_1,20,30,,,,2,0,2,0,,,,,,,,,0,0,0,0,0,19,19,19,1,0,1,0,,,,,,,,,,,,,,,,,,,,,,,,,,,,,,,,,,,,,,,,,,,,,,,,,,,,,,,,,,,,,,,,30,,,,,,,,644.1273329999531,644.1273329999531,644.1273329999531,644.1273329999531,644.1273329999531,up,0.7264739000238478,15,0,0,99,0,-0.24,up,0.6454156000399962,,,,,,,,,,,,,,,,,,,,,,,,,,,,,,,,,,,,,,,,,,,,,,,,,,,,,,,,,,,,A867Z4,train_y,blue_star,bottom_left,2025-03-15_11h11.32.451,HideSeek_v1,2022.2.5,59.891177724174305,
,2,0,2,5,0,5,66,,train_dim1_1,20,30,,,,2,0,2,0,,,,,,,,,0,0,0,0,0,19,19,19,2,0,2,0,,,,,,,,,,,,,,,,,,,,,,,,,,,,,,,,,,,,,,,,,,,,,,,,,,,,,,,,,,,,,,,,30,,,,,,,,644.8615481000161,644.8615481000161,644.8615481000161,644.8615481000161,644.8615481000161,up,0.8272449999349192,15,0,0,99,0,-0.15999999999999998,up,0.7402891999809071,,,,,,,,,,,,,,,,,,,,,,,,,,,,,,,,,,,,,,,,,,,,,,,,,,,,,,,,,,,,A867Z4,train_y,blue_star,bottom_left,2025-03-15_11h11.32.451,HideSeek_v1,2022.2.5,59.891177724174305,
,2,0,2,5,0,5,66,,train_dim1_1,20,30,,,,2,0,2,0,,,,,,,,,0,0,0,0,0,19,19,19,3,0,3,0,,,,,,,,,,,,,,,,,,,,,,,,,,,,,,,,,,,,,,,,,,,,,,,,,,,,,,,,,,,,,,,,30,,,,,,,,645.6961285000434,645.6961285000434,645.6961285000434,645.6961285000434,645.6961285000434,up,0.7935108999954537,15,0,0,99,0,-0.07999999999999997,up,0.7053884000051767,,,,,,,,,,,,,,,,,,,,,,,,,,,,,,,,,,,,,,,,,,,,,,,,,,,,,,,,,,,,A867Z4,train_y,blue_star,bottom_left,2025-03-15_11h11.32.451,HideSeek_v1,2022.2.5,59.891177724174305,
,2,0,2,5,0,5,66,,train_dim1_1,20,30,,,,2,0,2,0,,,,,,,,,0,0,0,0,0,19,19,19,4,0,4,0,,,,,,,,,,,,,,,,,,,,,,,,,,,,,,,,,,,,,,,,,,,,,,,,,,,,,,,,,,,,,,,,30,,,,,,,,646.4971147000324,646.4971147000324,646.4971147000324,646.4971147000324,646.4971147000324,up,0.9106651999754831,15,0,0,99,0,2.7755575615628914e-17,up,0.8336710999719799,,,,,,,,,,,,,,,,,,,,,,,,,,,,,,,,,,,,,,,,,,,,,,,,,,,,,,,,,,,,A867Z4,train_y,blue_star,bottom_left,2025-03-15_11h11.32.451,HideSeek_v1,2022.2.5,59.891177724174305,
,2,0,2,5,0,5,66,,train_dim1_1,20,30,,,,2,0,2,0,,,,,,,,,0,0,0,0,0,19,19,19,5,0,5,0,,,,,,,,,,,,,,,,,,,,,,,,,,,,,,,,,,,,,,,,,,,,,,,,,,,,,,,,,,,,,,,,30,,,,,,,,647.4131639000261,647.4131639000261,647.4131639000261,647.4131639000261,647.4131639000261,return,0.8940092000411823,16,0,0,1,0,2.7755575615628914e-17,return,0.8147604999830946,54,0,0,2.7755575615628914e-17,,,,,,,,,,,,,,,,,,,,,,,,,,,,,,,,,,,,,,,,,,,,,,,,,,,,,,,,A867Z4,train_y,blue_star,bottom_left,2025-03-15_11h11.32.451,HideSeek_v1,2022.2.5,59.891177724174305,
,2,4,2,8,0,4,65,,train_dim1_1,21,30,,,,2,0,2,0,,,,,,,,,0,0,0,0,0,20,20,20,0,0,0,0,,,,,,,,,,,,,,,,,,,,,,,,,stimuli/alien_stimuli/65.png,,,,,,,,,,,,,,,,,,,,,,,,,,,,,stimuli/alien_stimuli/66.png,66,2,22,,,,,,,30,,,,,,,,652.8052025999641,652.8052025999641,652.8052025999641,652.8052025999641,652.8052025999641,up,3.0419450999470428,16,0,0,99,0,0.0,up,2.9583864000160247,,,,,651.2529214000097,652.8052025999641,0,0,0.4,0.0,-0.2,0,0.0,0,0,649.8753790999763,649.8753790999763,649.8753790999763,649.8753790999763,649.8753790999763,649.8753790999763,649.8753790999763,649.8753790999763,649.8682217399823,1.4863492000149563,return,1.360051800031215,,,,,,,,,,,,,,,,,,,,,,,,,,,,,,,,,A867Z4,train_y,blue_star,bottom_left,2025-03-15_11h11.32.451,HideSeek_v1,2022.2.5,59.891177724174305,
,2,4,2,8,0,4,65,,train_dim1_1,21,30,,,,2,0,2,0,,,,,,,,,0,0,0,0,0,20,20,20,1,0,1,0,,,,,,,,,,,,,,,,,,,,,,,,,,,,,,,,,,,,,,,,,,,,,,,,,,,,,,,,,,,,,,,,30,,,,,,,,655.8538046999602,655.8538046999602,655.8538046999602,655.8538046999602,655.8538046999602,up,0.7763898000121117,16,0,0,99,0,0.08,up,0.6996578000253066,,,,,,,,,,,,,,,,,,,,,,,,,,,,,,,,,,,,,,,,,,,,,,,,,,,,,,,,,,,,A867Z4,train_y,blue_star,bottom_left,2025-03-15_11h11.32.451,HideSeek_v1,2022.2.5,59.891177724174305,
,2,4,2,8,0,4,65,,train_dim1_1,21,30,,,,2,0,2,0,,,,,,,,,0,0,0,0,0,20,20,20,2,0,2,0,,,,,,,,,,,,,,,,,,,,,,,,,,,,,,,,,,,,,,,,,,,,,,,,,,,,,,,,,,,,,,,,30,,,,,,,,656.6409248999553,656.6409248999553,656.6409248999553,656.6409248999553,656.6409248999553,up,0.959278899943456,16,0,0,99,0,0.16,up,0.8748742000898346,,,,,,,,,,,,,,,,,,,,,,,,,,,,,,,,,,,,,,,,,,,,,,,,,,,,,,,,,,,,A867Z4,train_y,blue_star,bottom_left,2025-03-15_11h11.32.451,HideSeek_v1,2022.2.5,59.891177724174305,
,2,4,2,8,0,4,65,,train_dim1_1,21,30,,,,2,0,2,0,,,,,,,,,0,0,0,0,0,20,20,20,3,0,3,0,,,,,,,,,,,,,,,,,,,,,,,,,,,,,,,,,,,,,,,,,,,,,,,,,,,,,,,,,,,,,,,,30,,,,,,,,657.6053690999979,657.6053690999979,657.6053690999979,657.6053690999979,657.6053690999979,up,0.8438921000342816,16,0,0,99,0,0.24,up,0.7605681999120861,,,,,,,,,,,,,,,,,,,,,,,,,,,,,,,,,,,,,,,,,,,,,,,,,,,,,,,,,,,,A867Z4,train_y,blue_star,bottom_left,2025-03-15_11h11.32.451,HideSeek_v1,2022.2.5,59.891177724174305,
,2,4,2,8,0,4,65,,train_dim1_1,21,30,,,,2,0,2,0,,,,,,,,,0,0,0,0,0,20,20,20,4,0,4,0,,,,,,,,,,,,,,,,,,,,,,,,,,,,,,,,,,,,,,,,,,,,,,,,,,,,,,,,,,,,,,,,30,,,,,,,,658.4561376000056,658.4561376000056,658.4561376000056,658.4561376000056,658.4561376000056,return,0.8100859000114724,17,0,0,1,0,0.24,return,0.7329756999388337,58,0,0,0.24,,,,,,,,,,,,,,,,,,,,,,,,,,,,,,,,,,,,,,,,,,,,,,,,,,,,,,,,A867Z4,train_y,blue_star,bottom_left,2025-03-15_11h11.32.451,HideSeek_v1,2022.2.5,59.891177724174305,
,0,2,0,5,0,3,64,,train_dim1_1,22,30,,,,2,0,2,0,,,,,,,,,0,0,0,0,0,21,21,21,0,0,0,0,,,,,,,,,,,,,,,,,,,,,,,,,stimuli/alien_stimuli/64.png,,,,,,,,,,,,,,,,,,,,,,,,,,,,,stimuli/alien_stimuli/65.png,65,2,23,,,,,,,30,,,,,,,,663.8500415999442,663.8500415999442,663.8500415999442,663.8500415999442,663.8500415999442,up,2.1238553998991847,17,0,0,99,-0.16,-0.15999999999999998,up,2.0331836999394,,,,,662.2791432000231,663.8500415999442,0,0.24,0.32,0.0,0.07999999999999999,0,0.0,0,0.24,660.8396097000223,660.8396097000223,660.8396097000223,660.8396097000223,660.8396097000223,660.8396097000223,660.8396097000223,660.8396097000223,660.8273002400297,1.5534063000231981,return,1.4163631999399513,,,,,,,,,,,,,,,,,,,,,,,,,,,,,,,,,A867Z4,train_y,blue_star,bottom_left,2025-03-15_11h11.32.451,HideSeek_v1,2022.2.5,59.891177724174305,
,0,2,0,5,0,3,64,,train_dim1_1,22,30,,,,2,0,2,0,,,,,,,,,0,0,0,0,0,21,21,21,1,0,1,0,,,,,,,,,,,,,,,,,,,,,,,,,,,,,,,,,,,,,,,,,,,,,,,,,,,,,,,,,,,,,,,,30,,,,,,,,665.9631573000224,665.9631573000224,665.9631573000224,665.9631573000224,665.9631573000224,up,1.2436307000461966,17,0,0,99,-0.16,-0.07999999999999997,up,1.1627843999303877,,,,,,,,,,,,,,,,,,,,,,,,,,,,,,,,,,,,,,,,,,,,,,,,,,,,,,,,,,,,A867Z4,train_y,blue_star,bottom_left,2025-03-15_11h11.32.451,HideSeek_v1,2022.2.5,59.891177724174305,
,0,2,0,5,0,3,64,,train_dim1_1,22,30,,,,2,0,2,0,,,,,,,,,0,0,0,0,0,21,21,21,2,0,2,0,,,,,,,,,,,,,,,,,,,,,,,,,,,,,,,,,,,,,,,,,,,,,,,,,,,,,,,,,,,,,,,,30,,,,,,,,667.2129333999474,667.2129333999474,667.2129333999474,667.2129333999474,667.2129333999474,up,0.8272938999580219,17,0,0,99,-0.16,2.7755575615628914e-17,up,0.7396180999930948,,,,,,,,,,,,,,,,,,,,,,,,,,,,,,,,,,,,,,,,,,,,,,,,,,,,,,,,,,,,A867Z4,train_y,blue_star,bottom_left,2025-03-15_11h11.32.451,HideSeek_v1,2022.2.5,59.891177724174305,
,0,2,0,5,0,3,64,,train_dim1_1,22,30,,,,2,0,2,0,,,,,,,,,0,0,0,0,0,21,21,21,3,0,3,0,,,,,,,,,,,,,,,,,,,,,,,,,,,,,,,,,,,,,,,,,,,,,,,,,,,,,,,,,,,,,,,,30,,,,,,,,668.0474525999743,668.0474525999743,668.0474525999743,668.0474525999743,668.0474525999743,return,0.7599829999962822,18,0,0,1,-0.16,2.7755575615628914e-17,return,0.6719257000368088,61,0,-0.16,2.7755575615628914e-17,,,,,,,,,,,,,,,,,,,,,,,,,,,,,,,,,,,,,,,,,,,,,,,,,,,,,,,,A867Z4,train_y,blue_star,bottom_left,2025-03-15_11h11.32.451,HideSeek_v1,2022.2.5,59.891177724174305,
,0,3,0,3,0,0,61,,train_dim1_1,23,30,,,,2,0,2,0,,,,,,,,,0,0,0,0,0,22,22,22,0,0,0,0,,,,,,,,,,,,,,,,,,,,,,,,,stimuli/alien_stimuli/61.png,,,,,,,,,,,,,,,,,,,,,,,,,,,,,stimuli/alien_stimuli/64.png,64,0,24,,,,,,,30,,,,,,,,674.3095600999659,674.3095600999659,674.3095600999659,674.3095600999659,674.3095600999659,return,3.2916190000250936,19,0,0,1,-0.16,-0.16,return,3.2118244000012055,61,0,-0.16,-0.16,672.7544764999766,674.3095600999659,-0.16,0,0.24,0.0,-0.12,-0.16,-0.16,-0.16,0,670.3615231999429,670.3615231999429,670.3615231999429,670.3615231999429,670.3615231999429,670.3615231999429,670.3615231999429,670.3615231999429,670.3521085200366,2.4873599000275135,return,2.3657923000864685,,,,,,,,,,,,,,,,,,,,,,,,,,,,,,,,,A867Z4,train_y,blue_star,bottom_left,2025-03-15_11h11.32.451,HideSeek_v1,2022.2.5,59.891177724174305,
,3,2,3,7,0,5,66,,train_dim1_1,24,30,,,,2,0,2,0,,,,,,,,,0,0,0,0,0,23,23,23,0,0,0,0,,,,,,,,,,,,,,,,,,,,,,,,,stimuli/alien_stimuli/66.png,,,,,,,,,,,,,,,,,,,,,,,,,,,,,stimuli/alien_stimuli/61.png,61,0,25,,,,,,,30,,,,,,,,682.933921799995,682.933921799995,682.933921799995,682.933921799995,682.933921799995,up,2.5079434999497607,19,0,0,99,0.08,-0.15999999999999998,up,2.421053599915467,,,,,681.3781924999785,682.933921799995,-0.16,-0.16,0.0,0.0,-0.16,-0.16,-0.16,-0.16,-0.16,679.1657162000192,679.1657162000192,679.1657162000192,679.1657162000192,679.1657162000192,679.1657162000192,679.1657162000192,679.1657162000192,679.1591532400112,2.320962499943562,return,2.195770699996501,,,,,,,,,,,,,,,,,,,,,,,,,,,,,,,,,A867Z4,train_y,blue_star,bottom_left,2025-03-15_11h11.32.451,HideSeek_v1,2022.2.5,59.891177724174305,
,3,2,3,7,0,5,66,,train_dim1_1,24,30,,,,2,0,2,0,,,,,,,,,0,0,0,0,0,23,23,23,1,0,1,0,,,,,,,,,,,,,,,,,,,,,,,,,,,,,,,,,,,,,,,,,,,,,,,,,,,,,,,,,,,,,,,,30,,,,,,,,685.4558542999439,685.4558542999439,685.4558542999439,685.4558542999439,685.4558542999439,up,0.6933070999803022,19,0,0,99,0.08,-0.07999999999999997,up,0.6016100000124425,,,,,,,,,,,,,,,,,,,,,,,,,,,,,,,,,,,,,,,,,,,,,,,,,,,,,,,,,,,,A867Z4,train_y,blue_star,bottom_left,2025-03-15_11h11.32.451,HideSeek_v1,2022.2.5,59.891177724174305,
,3,2,3,7,0,5,66,,train_dim1_1,24,30,,,,2,0,2,0,,,,,,,,,0,0,0,0,0,23,23,23,2,0,2,0,,,,,,,,,,,,,,,,,,,,,,,,,,,,,,,,,,,,,,,,,,,,,,,,,,,,,,,,,,,,,,,,30,,,,,,,,686.1486118000466,686.1486118000466,686.1486118000466,686.1486118000466,686.1486118000466,up,1.3107260999968275,19,0,0,99,0.08,2.7755575615628914e-17,up,1.2226032000035048,,,,,,,,,,,,,,,,,,,,,,,,,,,,,,,,,,,,,,,,,,,,,,,,,,,,,,,,,,,,A867Z4,train_y,blue_star,bottom_left,2025-03-15_11h11.32.451,HideSeek_v1,2022.2.5,59.891177724174305,
,3,2,3,7,0,5,66,,train_dim1_1,24,30,,,,2,0,2,0,,,,,,,,,0,0,0,0,0,23,23,23,3,0,3,0,,,,,,,,,,,,,,,,,,,,,,,,,,,,,,,,,,,,,,,,,,,,,,,,,,,,,,,,,,,,,,,,30,,,,,,,,687.4631697000004,687.4631697000004,687.4631697000004,687.4631697000004,687.4631697000004,up,0.7601152000715956,19,0,0,99,0.08,0.08000000000000003,up,0.6773511000210419,,,,,,,,,,,,,,,,,,,,,,,,,,,,,,,,,,,,,,,,,,,,,,,,,,,,,,,,,,,,A867Z4,train_y,blue_star,bottom_left,2025-03-15_11h11.32.451,HideSeek_v1,2022.2.5,59.891177724174305,
,3,2,3,7,0,5,66,,train_dim1_1,24,30,,,,2,0,2,0,,,,,,,,,0,0,0,0,0,23,23,23,4,0,4,0,,,,,,,,,,,,,,,,,,,,,,,,,,,,,,,,,,,,,,,,,,,,,,,,,,,,,,,,,,,,,,,,30,,,,,,,,688.2323393999832,688.2323393999832,688.2323393999832,688.2323393999832,688.2323393999832,up,0.6103335999650881,19,0,0,99,0.08,0.16000000000000003,up,0.5270712000783533,,,,,,,,,,,,,,,,,,,,,,,,,,,,,,,,,,,,,,,,,,,,,,,,,,,,,,,,,,,,A867Z4,train_y,blue_star,bottom_left,2025-03-15_11h11.32.451,HideSeek_v1,2022.2.5,59.891177724174305,
,3,2,3,7,0,5,66,,train_dim1_1,24,30,,,,2,0,2,0,,,,,,,,,0,0,0,0,0,23,23,23,5,0,5,0,,,,,,,,,,,,,,,,,,,,,,,,,,,,,,,,,,,,,,,,,,,,,,,,,,,,,,,,,,,,,,,,30,,,,,,,,688.8494086000137,688.8494086000137,688.8494086000137,688.8494086000137,688.8494086000137,return,0.8099387000547722,20,0,0,1,0.08,0.16000000000000003,return,0.7205354999750853,66,0,0.08,0.16000000000000003,,,,,,,,,,,,,,,,,,,,,,,,,,,,,,,,,,,,,,,,,,,,,,,,,,,,,,,,A867Z4,train_y,blue_star,bottom_left,2025-03-15_11h11.32.451,HideSeek_v1,2022.2.5,59.891177724174305,
,3,3,3,4,0,1,62,,train_dim1_1,25,30,,,,2,0,2,0,,,,,,,,,0,0,0,0,0,24,24,24,0,0,0,0,,,,,,,,,,,,,,,,,,,,,,,,,stimuli/alien_stimuli/62.png,,,,,,,,,,,,,,,,,,,,,,,,,,,,,stimuli/alien_stimuli/66.png,66,3,26,,,,,,,30,,,,,,,,694.7248214000138,694.7248214000138,694.7248214000138,694.7248214000138,694.7248214000138,up,3.407913399976678,20,0,0,99,0.08,-0.08,up,3.3245435999706388,,,,,693.1713954999577,694.7248214000138,0.08,0.16,0.4,0.0,-0.039999999999999994,0.08,0.08,0.08,0.16,691.2258466000203,691.2258466000203,691.2258466000203,691.2258466000203,691.2258466000203,691.2258466000203,691.2258466000203,691.2258466000203,691.219377440028,2.053444700082764,return,1.916444499976933,,,,,,,,,,,,,,,,,,,,,,,,,,,,,,,,,A867Z4,train_y,blue_star,bottom_left,2025-03-15_11h11.32.451,HideSeek_v1,2022.2.5,59.891177724174305,
,3,3,3,4,0,1,62,,train_dim1_1,25,30,,,,2,0,2,0,,,,,,,,,0,0,0,0,0,24,24,24,1,0,1,0,,,,,,,,,,,,,,,,,,,,,,,,,,,,,,,,,,,,,,,,,,,,,,,,,,,,,,,,,,,,,,,,30,,,,,,,,698.1403151999693,698.1403151999693,698.1403151999693,698.1403151999693,698.1403151999693,right,0.5598021000623703,20,0,0,99,0.16,-0.08,right,0.48377910000272095,,,,,,,,,,,,,,,,,,,,,,,,,,,,,,,,,,,,,,,,,,,,,,,,,,,,,,,,,,,,A867Z4,train_y,blue_star,bottom_left,2025-03-15_11h11.32.451,HideSeek_v1,2022.2.5,59.891177724174305,
,3,3,3,4,0,1,62,,train_dim1_1,25,30,,,,2,0,2,0,,,,,,,,,0,0,0,0,0,24,24,24,2,0,2,0,,,,,,,,,,,,,,,,,,,,,,,,,,,,,,,,,,,,,,,,,,,,,,,,,,,,,,,,,,,,,,,,30,,,,,,,,698.7065679000225,698.7065679000225,698.7065679000225,698.7065679000225,698.7065679000225,return,0.5601276999805123,20,1,0,0,0.16,-0.08,return,0.4818637000862509,67,1,0.16,-0.08,,,,,,,,,,,,,,,,,,,,,,,,,,,,,,,,,,,,,,,,,,,,,,,,,,,,,,,,A867Z4,train_y,blue_star,bottom_left,2025-03-15_11h11.32.451,HideSeek_v1,2022.2.5,59.891177724174305,
,4,4,4,7,0,3,64,,train_dim1_1,26,30,,,,2,0,2,0,,,,,,,,,0,0,0,0,0,25,25,25,0,0,0,0,,,,,,,,,,,,,,,,,,,,,,,,,stimuli/alien_stimuli/64.png,,,,,,,,,,,,,,,,,,,,,,,,,,,,,stimuli/alien_stimuli/62.png,62,3,27,,,,,,,30,,,,,,,,705.5338247000473,705.5338247000473,705.5338247000473,705.5338247000473,705.5338247000473,up,2.189995300024748,20,1,0,99,0.16,0.0,up,2.115849900059402,,,,,703.9804216999328,705.5338247000473,0.08,-0.08,0.08,0.0,-0.12,0.08,0.08,0.08,-0.08,700.8196048999671,700.8196048999671,700.8196048999671,700.8196048999671,700.8196048999671,700.8196048999671,700.8196048999671,700.8196048999671,700.8105727199465,3.255026000086218,return,3.1438963999971747,,,,,,,,,,,,,,,,,,,,,,,,,,,,,,,,,A867Z4,train_y,blue_star,bottom_left,2025-03-15_11h11.32.451,HideSeek_v1,2022.2.5,59.891177724174305,
,4,4,4,7,0,3,64,,train_dim1_1,26,30,,,,2,0,2,0,,,,,,,,,0,0,0,0,0,25,25,25,1,0,1,0,,,,,,,,,,,,,,,,,,,,,,,,,,,,,,,,,,,,,,,,,,,,,,,,,,,,,,,,,,,,,,,,30,,,,,,,,707.7313763999846,707.7313763999846,707.7313763999846,707.7313763999846,707.7313763999846,up,0.7766797000076622,20,1,0,99,0.16,0.08,up,0.6880937999812886,,,,,,,,,,,,,,,,,,,,,,,,,,,,,,,,,,,,,,,,,,,,,,,,,,,,,,,,,,,,A867Z4,train_y,blue_star,bottom_left,2025-03-15_11h11.32.451,HideSeek_v1,2022.2.5,59.891177724174305,
,4,4,4,7,0,3,64,,train_dim1_1,26,30,,,,2,0,2,0,,,,,,,,,0,0,0,0,0,25,25,25,2,0,2,0,,,,,,,,,,,,,,,,,,,,,,,,,,,,,,,,,,,,,,,,,,,,,,,,,,,,,,,,,,,,,,,,30,,,,,,,,708.5159041000297,708.5159041000297,708.5159041000297,708.5159041000297,708.5159041000297,up,1.4608251999597996,20,1,0,99,0.16,0.16,up,1.3720848999219015,,,,,,,,,,,,,,,,,,,,,,,,,,,,,,,,,,,,,,,,,,,,,,,,,,,,,,,,,,,,A867Z4,train_y,blue_star,bottom_left,2025-03-15_11h11.32.451,HideSeek_v1,2022.2.5,59.891177724174305,
,4,4,4,7,0,3,64,,train_dim1_1,26,30,,,,2,0,2,0,,,,,,,,,0,0,0,0,0,25,25,25,3,0,3,0,,,,,,,,,,,,,,,,,,,,,,,,,,,,,,,,,,,,,,,,,,,,,,,,,,,,,,,,,,,,,,,,30,,,,,,,,709.9822842000285,709.9822842000285,709.9822842000285,709.9822842000285,709.9822842000285,return,3.896153699955903,21,0,0,1,0.16,0.16,return,3.8144232999766245,70,1,0.16,0.16,,,,,,,,,,,,,,,,,,,,,,,,,,,,,,,,,,,,,,,,,,,,,,,,,,,,,,,,A867Z4,train_y,blue_star,bottom_left,2025-03-15_11h11.32.451,HideSeek_v1,2022.2.5,59.891177724174305,
,3,4,3,9,0,5,66,,train_dim1_1,27,30,,,,2,0,2,0,,,,,,,,,0,0,0,0,0,26,26,26,0,0,0,0,,,,,,,,,,,,,,,,,,,,,,,,,stimuli/alien_stimuli/66.png,,,,,,,,,,,,,,,,,,,,,,,,,,,,,stimuli/alien_stimuli/64.png,64,4,28,,,,,,,30,,,,,,,,719.3106528000208,719.3106528000208,719.3106528000208,719.3106528000208,719.3106528000208,up,2.874954800005071,21,0,0,99,0.08,0.0,up,2.7967910999432206,,,,,717.7584697999991,719.3106528000208,0.16,0.16,0.24,0.0,0.04,0.16,0.16,0.16,0.16,715.4769845999544,715.4769845999544,715.4769845999544,715.4769845999544,715.4769845999544,715.4769845999544,715.4769845999544,715.4769845999544,715.472351079993,2.420867900014855,return,2.2624294999986887,,,,,,,,,,,,,,,,,,,,,,,,,,,,,,,,,A867Z4,train_y,blue_star,bottom_left,2025-03-15_11h11.32.451,HideSeek_v1,2022.2.5,59.891177724174305,
,3,4,3,9,0,5,66,,train_dim1_1,27,30,,,,2,0,2,0,,,,,,,,,0,0,0,0,0,26,26,26,1,0,1,0,,,,,,,,,,,,,,,,,,,,,,,,,,,,,,,,,,,,,,,,,,,,,,,,,,,,,,,,,,,,,,,,30,,,,,,,,722.19279250002,722.19279250002,722.19279250002,722.19279250002,722.19279250002,up,0.7098783999681473,21,0,0,99,0.08,0.08,up,0.6351154000731185,,,,,,,,,,,,,,,,,,,,,,,,,,,,,,,,,,,,,,,,,,,,,,,,,,,,,,,,,,,,A867Z4,train_y,blue_star,bottom_left,2025-03-15_11h11.32.451,HideSeek_v1,2022.2.5,59.891177724174305,
,3,4,3,9,0,5,66,,train_dim1_1,27,30,,,,2,0,2,0,,,,,,,,,0,0,0,0,0,26,26,26,2,0,2,0,,,,,,,,,,,,,,,,,,,,,,,,,,,,,,,,,,,,,,,,,,,,,,,,,,,,,,,,,,,,,,,,30,,,,,,,,722.9097472999711,722.9097472999711,722.9097472999711,722.9097472999711,722.9097472999711,up,0.7599302000598982,21,0,0,99,0.08,0.16,up,0.6764197000302374,,,,,,,,,,,,,,,,,,,,,,,,,,,,,,,,,,,,,,,,,,,,,,,,,,,,,,,,,,,,A867Z4,train_y,blue_star,bottom_left,2025-03-15_11h11.32.451,HideSeek_v1,2022.2.5,59.891177724174305,
,3,4,3,9,0,5,66,,train_dim1_1,27,30,,,,2,0,2,0,,,,,,,,,0,0,0,0,0,26,26,26,3,0,3,0,,,,,,,,,,,,,,,,,,,,,,,,,,,,,,,,,,,,,,,,,,,,,,,,,,,,,,,,,,,,,,,,30,,,,,,,,723.677813300048,723.677813300048,723.677813300048,723.677813300048,723.677813300048,up,0.9441157000837848,21,0,0,99,0.08,0.24,up,0.8694488999899477,,,,,,,,,,,,,,,,,,,,,,,,,,,,,,,,,,,,,,,,,,,,,,,,,,,,,,,,,,,,A867Z4,train_y,blue_star,bottom_left,2025-03-15_11h11.32.451,HideSeek_v1,2022.2.5,59.891177724174305,
,3,4,3,9,0,5,66,,train_dim1_1,27,30,,,,2,0,2,0,,,,,,,,,0,0,0,0,0,26,26,26,4,0,4,0,,,,,,,,,,,,,,,,,,,,,,,,,,,,,,,,,,,,,,,,,,,,,,,,,,,,,,,,,,,,,,,,30,,,,,,,,724.6278138000052,724.6278138000052,724.6278138000052,724.6278138000052,724.6278138000052,up,1.0103153999662027,21,0,0,99,0.08,0.32,up,0.9335345999570563,,,,,,,,,,,,,,,,,,,,,,,,,,,,,,,,,,,,,,,,,,,,,,,,,,,,,,,,,,,,A867Z4,train_y,blue_star,bottom_left,2025-03-15_11h11.32.451,HideSeek_v1,2022.2.5,59.891177724174305,
,3,4,3,9,0,5,66,,train_dim1_1,27,30,,,,2,0,2,0,,,,,,,,,0,0,0,0,0,26,26,26,5,0,5,0,,,,,,,,,,,,,,,,,,,,,,,,,,,,,,,,,,,,,,,,,,,,,,,,,,,,,,,,,,,,,,,,30,,,,,,,,725.6463449000148,725.6463449000148,725.6463449000148,725.6463449000148,725.6463449000148,return,0.5434056000085548,22,0,0,1,0.08,0.32,return,0.4574498999863863,75,1,0.08,0.32,,,,,,,,,,,,,,,,,,,,,,,,,,,,,,,,,,,,,,,,,,,,,,,,,,,,,,,,A867Z4,train_y,blue_star,bottom_left,2025-03-15_11h11.32.451,HideSeek_v1,2022.2.5,59.891177724174305,
,4,1,4,1,0,0,61,,train_dim1_1,28,30,,,,2,0,2,0,,,,,,,,,0,0,0,0,0,27,27,27,0,0,0,0,,,,,,,,,,,,,,,,,,,,,,,,,stimuli/alien_stimuli/61.png,,,,,,,,,,,,,,,,,,,,,,,,,,,,,stimuli/alien_stimuli/66.png,66,3,29,,,,,,,30,,,,,,,,731.9879341999767,731.9879341999767,731.9879341999767,731.9879341999767,731.9879341999767,return,3.525700799888,23,0,0,1,0.16,-0.32,return,3.451616100035608,75,1,0.16,-0.32,730.4356179999886,731.9879341999767,0.08,0.32,0.4,0.0,0.12,0.08,0.08,0.08,0.32,727.7551517999964,727.7551517999964,727.7551517999964,727.7551517999964,727.7551517999964,727.7551517999964,727.7551517999964,727.7551517999964,727.7493909400423,2.787920600036159,return,2.6588217000244185,,,,,,,,,,,,,,,,,,,,,,,,,,,,,,,,,A867Z4,train_y,blue_star,bottom_left,2025-03-15_11h11.32.451,HideSeek_v1,2022.2.5,59.891177724174305,
,2,2,2,3,0,1,62,,train_dim1_1,29,30,,,,2,0,2,0,,,,,,,,,0,0,0,0,0,28,28,28,0,0,0,0,,,,,,,,,,,,,,,,,,,,,,,,,stimuli/alien_stimuli/62.png,,,,,,,,,,,,,,,,,,,,,,,,,,,,,stimuli/alien_stimuli/61.png,61,4,30,,,,,,,30,,,,,,,,739.9438092999626,739.9438092999626,739.9438092999626,739.9438092999626,739.9438092999626,up,2.4915581999812275,23,0,0,99,0,-0.15999999999999998,up,2.4050914000254124,,,,,738.3923033999745,739.9438092999626,0.16,-0.32,0.0,0.0,-0.32,0.16,0.16,0.16,-0.32,737.0654803999932,737.0654803999932,737.0654803999932,737.0654803999932,737.0654803999932,737.0654803999932,737.0654803999932,737.0654803999932,737.0571828199784,1.4198925999226049,return,1.3019563000416383,,,,,,,,,,,,,,,,,,,,,,,,,,,,,,,,,A867Z4,train_y,blue_star,bottom_left,2025-03-15_11h11.32.451,HideSeek_v1,2022.2.5,59.891177724174305,
,2,2,2,3,0,1,62,,train_dim1_1,29,30,,,,2,0,2,0,,,,,,,,,0,0,0,0,0,28,28,28,1,0,1,0,,,,,,,,,,,,,,,,,,,,,,,,,,,,,,,,,,,,,,,,,,,,,,,,,,,,,,,,,,,,,,,,30,,,,,,,,742.4438913000049,742.4438913000049,742.4438913000049,742.4438913000049,742.4438913000049,return,0.6259897999698296,24,0,0,1,0,-0.15999999999999998,return,0.5506169000873342,76,1,0,-0.15999999999999998,,,,,,,,,,,,,,,,,,,,,,,,,,,,,,,,,,,,,,,,,,,,,,,,,,,,,,,,A867Z4,train_y,blue_star,bottom_left,2025-03-15_11h11.32.451,HideSeek_v1,2022.2.5,59.891177724174305,
,0,1,0,5,0,4,65,,train_dim1_1,30,30,,,,2,0,2,0,,,,,,,,,0,0,0,0,0,29,29,29,0,0,0,0,,,,,,,,,,,,,,,,,,,,,,,,,stimuli/alien_stimuli/65.png,,,,,,,,,,,,,,,,,,,,,,,,,,,,,stimuli/alien_stimuli/62.png,62,2,31,,,,,,,30,,,,,,,,747.2337227000389,747.2337227000389,747.2337227000389,747.2337227000389,747.2337227000389,up,3.2586982999928296,24,0,0,99,-0.16,-0.24,up,3.1747000999748707,,,,,745.6817105000373,747.2337227000389,0,-0.16,0.08,0.0,-0.2,0,0.0,0,-0.16,744.6234668999678,744.6234668999678,744.6234668999678,744.6234668999678,744.6234668999678,744.6234668999678,744.6234668999678,744.6234668999678,744.6140281199944,1.1525106000481173,return,1.0370318000204861,,,,,,,,,,,,,,,,,,,,,,,,,,,,,,,,,A867Z4,train_y,blue_star,bottom_left,2025-03-15_11h11.32.451,HideSeek_v1,2022.2.5,59.891177724174305,
,0,1,0,5,0,4,65,,train_dim1_1,30,30,,,,2,0,2,0,,,,,,,,,0,0,0,0,0,29,29,29,1,0,1,0,,,,,,,,,,,,,,,,,,,,,,,,,,,,,,,,,,,,,,,,,,,,,,,,,,,,,,,,,,,,,,,,30,,,,,,,,750.4993755000178,750.4993755000178,750.4993755000178,750.4993755000178,750.4993755000178,up,0.5927395999897271,24,0,0,99,-0.16,-0.15999999999999998,up,0.5090891999425367,,,,,,,,,,,,,,,,,,,,,,,,,,,,,,,,,,,,,,,,,,,,,,,,,,,,,,,,,,,,A867Z4,train_y,blue_star,bottom_left,2025-03-15_11h11.32.451,HideSeek_v1,2022.2.5,59.891177724174305,
,0,1,0,5,0,4,65,,train_dim1_1,30,30,,,,2,0,2,0,,,,,,,,,0,0,0,0,0,29,29,29,2,0,2,0,,,,,,,,,,,,,,,,,,,,,,,,,,,,,,,,,,,,,,,,,,,,,,,,,,,,,,,,,,,,,,,,30,,,,,,,,751.1011932999827,751.1011932999827,751.1011932999827,751.1011932999827,751.1011932999827,up,0.6265986000653356,24,0,0,99,-0.16,-0.07999999999999997,up,0.5511615000432357,,,,,,,,,,,,,,,,,,,,,,,,,,,,,,,,,,,,,,,,,,,,,,,,,,,,,,,,,,,,A867Z4,train_y,blue_star,bottom_left,2025-03-15_11h11.32.451,HideSeek_v1,2022.2.5,59.891177724174305,
,0,1,0,5,0,4,65,,train_dim1_1,30,30,,,,2,0,2,0,,,,,,,,,0,0,0,0,0,29,29,29,3,0,3,0,,,,,,,,,,,,,,,,,,,,,,,,,,,,,,,,,,,,,,,,,,,,,,,,,,,,,,,,,,,,,,,,30,,,,,,,,751.7327657999704,751.7327657999704,751.7327657999704,751.7327657999704,751.7327657999704,up,0.860513599938713,24,0,0,99,-0.16,2.7755575615628914e-17,up,0.7874327000463381,,,,,,,,,,,,,,,,,,,,,,,,,,,,,,,,,,,,,,,,,,,,,,,,,,,,,,,,,,,,A867Z4,train_y,blue_star,bottom_left,2025-03-15_11h11.32.451,HideSeek_v1,2022.2.5,59.891177724174305,
,0,1,0,5,0,4,65,,train_dim1_1,30,30,,,,2,0,2,0,,,,,,,,,0,0,0,0,0,29,29,29,4,0,4,0,,,,,,,,,,,,,,,,,,,,,,,,,,,,,,,,,,,,,,,,,,,,,,,,,,,,,,,,,,,,,,,,30,,,,,,,,752.6001497999532,752.6001497999532,752.6001497999532,752.6001497999532,752.6001497999532,up,0.7769149999367073,24,0,0,99,-0.16,0.08000000000000003,up,0.6924017000710592,,,,,,,,,,,,,,,,,,,,,,,,,,,,,,,,,,,,,,,,,,,,,,,,,,,,,,,,,,,,A867Z4,train_y,blue_star,bottom_left,2025-03-15_11h11.32.451,HideSeek_v1,2022.2.5,59.891177724174305,
,0,1,0,5,0,4,65,,train_dim1_1,30,30,,,,2,0,2,0,,,,,,,,,0,0,0,0,0,29,29,29,5,0,5,0,,,,,,,,,,,,,,,,,,,,,,,,,,,,,,,,,,,,,,,,,,,,,,,,,,,,,,,,,,,,,,,,30,,,,,,,,753.3843439000193,753.3843439000193,753.3843439000193,753.3843439000193,753.3843439000193,return,1.8614318000618368,24,1,0,0,-0.16,0.08000000000000003,return,1.7841377999866381,81,1,-0.16,0.08000000000000003,,,,,,,,,,,,,,,,,,,,,,,,,,,,,,,,,,,,,,,,,,,,,,,,,,,,,,,,A867Z4,train_y,blue_star,bottom_left,2025-03-15_11h11.32.451,HideSeek_v1,2022.2.5,59.891177724174305,
,,,,,,,,,,,30,,,,2,0,2,0,,,,,,,,,,,,,,,,,,,,,,,,,,,,,,,,,,,,,,,,,,,,,,,,,,,,,,,,,,,,,,,,,,,,,,,,,,stimuli/alien_stimuli/65.png,65,0,32,21,0.7,1.0,1,1,1,30,0,conditions/schedules/train_y_first/blue_star_00/bottom_left/inputTrain_2.1.xlsx,99,1,2,1,0,,,,,,,,,,,0,,,,,,,,,759.2762605999596,760.8335100000259,-0.16,0,0.32,0.0,-0.16,-0.16,-0.16,-0.16,0,756.8182800000068,756.8182800000068,756.8182800000068,756.8182800000068,756.8182800000068,756.8182800000068,756.8182800000068,756.8182800000068,756.8068216399756,2.571126199909486,return,2.431903599994257,0,0.9,0,1,24,,,,,,,,,,,,,,,,,,,,,,,,,,,,A867Z4,train_y,blue_star,bottom_left,2025-03-15_11h11.32.451,HideSeek_v1,2022.2.5,59.891177724174305,
,,,,,,,,,,,,,,,3,0,3,0,0,0,0,0,,,,,,,,,,,,,,,,,,,,,,,,,,,,,,,conditions/schedules/train_y_first/blue_star_00/bottom_left/instructions/Slide17.png,conditions/schedules/train_y_first/blue_star_00/bottom_left/instructions/Audio17.wav,760.8335100000259,760.8271926800488,17,"[3.617961800075136, 23.61595240002498, 16.722995800082572, 19.40429860004224, 5.666990200057626, 5.12007059995085, 5.3370869000209495, 11.8239546000259, 6.038854000042193, 59.665306300041266, 11.438560100039467, 13.925339299952611, 18.299708000035025, 17.153267899993807, 43.55842899996787, 21.80024789995514, 50.96744719997514]","[3.6179724000394344, 0.031023900024592876, 0.014455600059591234, 0.047081700060516596, 0.04953119996935129, 0.04928389994893223, 0.06401410000398755, 0.014444999978877604, 0.06545870006084442, 0.04735670005902648, 0.130745799979195, 13.925346400006674, 0.055552100064232945, 17.1532744000433, 0.03268880001269281, 21.800254500005394, 50.967454400029965]",0,,,,,,,,,,,,,,,,,,,,,,,,,,,,,,,,,,,,,,,,,,,,,,,,,,,,,,,,,,,,,,,,,,,,,,,,,,,,,,,,,,,,,,,,,,,,,,,,,,,,,,,,,,,,,,,,,,,,,,,,,,,,A867Z4,train_y,blue_star,bottom_left,2025-03-15_11h11.32.451,HideSeek_v1,2022.2.5,59.891177724174305,
,,,,,,,,,,,,,,,3,0,3,0,1,0,1,0,,,,,,,,,,,,,,,,,,,,,,,,,,,,,,,conditions/schedules/train_y_first/blue_star_00/bottom_left/instructions/Slide18.png,conditions/schedules/train_y_first/blue_star_00/bottom_left/instructions/Audio18.wav,811.8694318999769,811.8698883999605,18,"[3.617961800075136, 23.61595240002498, 16.722995800082572, 19.40429860004224, 5.666990200057626, 5.12007059995085, 5.3370869000209495, 11.8239546000259, 6.038854000042193, 59.665306300041266, 11.438560100039467, 13.925339299952611, 18.299708000035025, 17.153267899993807, 43.55842899996787, 21.80024789995514, 50.96744719997514, 75.07706650008913]","[3.6179724000394344, 0.031023900024592876, 0.014455600059591234, 0.047081700060516596, 0.04953119996935129, 0.04928389994893223, 0.06401410000398755, 0.014444999978877604, 0.06545870006084442, 0.04735670005902648, 0.130745799979195, 13.925346400006674, 0.055552100064232945, 17.1532744000433, 0.03268880001269281, 21.800254500005394, 50.967454400029965, 75.07707300002221]",0,,,,,,,,,,,,,,,,,,,,,,,,,,,,,,,,,,,,,,,,,,,,,,,,,,,,,,,,,,,,,,,,,,,,,,,,,,,,,,,,,,,,,,,,,,,,,,,,,,,,,,,,,,,,,,,,,,,,,,,,,,,,A867Z4,train_y,blue_star,bottom_left,2025-03-15_11h11.32.451,HideSeek_v1,2022.2.5,59.891177724174305,
,,,,,,,,,,,,,,,3,0,3,0,2,0,2,0,,,,,,,,,,,,,,,,,,,,,,,,,,,,,,,conditions/schedules/train_y_first/blue_star_00/bottom_left/instructions/Slide19.png,conditions/schedules/train_y_first/blue_star_00/bottom_left/instructions/Audio19.wav,887.0160814999836,887.0150959000457,19,"[3.617961800075136, 23.61595240002498, 16.722995800082572, 19.40429860004224, 5.666990200057626, 5.12007059995085, 5.3370869000209495, 11.8239546000259, 6.038854000042193, 59.665306300041266, 11.438560100039467, 13.925339299952611, 18.299708000035025, 17.153267899993807, 43.55842899996787, 21.80024789995514, 50.96744719997514, 75.07706650008913, 11.289585300022736]","[3.6179724000394344, 0.031023900024592876, 0.014455600059591234, 0.047081700060516596, 0.04953119996935129, 0.04928389994893223, 0.06401410000398755, 0.014444999978877604, 0.06545870006084442, 0.04735670005902648, 0.130745799979195, 13.925346400006674, 0.055552100064232945, 17.1532744000433, 0.03268880001269281, 21.800254500005394, 50.967454400029965, 0.030444600037299097, 11.289591600070707]",0,,,,,,,,,,,,,,,,,,,,,,,,,,,,,,,,,,,,,,,,,,,,,,,,,,,,,,,,,,,,,,,,,,,,,,,,,,,,,,,,,,,,,,,,,,,,,,,,,,,,,,,,,,,,,,,,,,,,,,,,,,,,A867Z4,train_y,blue_star,bottom_left,2025-03-15_11h11.32.451,HideSeek_v1,2022.2.5,59.891177724174305,
,,,,,,,,,,,,,,,3,0,3,0,3,0,3,0,,,,,,,,,,,,,,,,,,,,,,,,,,,,,,,conditions/schedules/train_y_first/blue_star_00/bottom_left/instructions/Slide20.png,conditions/schedules/train_y_first/blue_star_00/bottom_left/instructions/Audio20.wav,898.3743637000443,898.3744236000348,20,"[3.617961800075136, 23.61595240002498, 16.722995800082572, 19.40429860004224, 5.666990200057626, 5.12007059995085, 5.3370869000209495, 11.8239546000259, 6.038854000042193, 59.665306300041266, 11.438560100039467, 13.925339299952611, 18.299708000035025, 17.153267899993807, 43.55842899996787, 21.80024789995514, 50.96744719997514, 75.07706650008913, 11.289585300022736, 13.125729599967599]","[3.6179724000394344, 0.031023900024592876, 0.014455600059591234, 0.047081700060516596, 0.04953119996935129, 0.04928389994893223, 0.06401410000398755, 0.014444999978877604, 0.06545870006084442, 0.04735670005902648, 0.130745799979195, 13.925346400006674, 0.055552100064232945, 17.1532744000433, 0.03268880001269281, 21.800254500005394, 50.967454400029965, 0.030444600037299097, 11.289591600070707, 13.125736400019377]",0,,,,,,,,,,,,,,,,,,,,,,,,,,,,,,,,,,,,,,,,,,,,,,,,,,,,,,,,,,,,,,,,,,,,,,,,,,,,,,,,,,,,,,,,,,,,,,,,,,,,,,,,,,,,,,,,,,,,,,,,,,,,A867Z4,train_y,blue_star,bottom_left,2025-03-15_11h11.32.451,HideSeek_v1,2022.2.5,59.891177724174305,
1,4,0,9,0,5,0,11,2,instr_dim1_2,,,,,,3,0,3,0,,,,,0,0,0,0,,,,,,,,,,,,,,,,,,,,,,,,,,,,,,,,,,,,,stimuli/alien_stimuli/11.png,conditions/schedules/train_y_first/blue_star_00/bottom_left/inputInstr_2.xlsx,stimuli/alien_stimuli/11.png,911.6092956999782,911.6092956999782,911.6092956999782,911.6092956999782,911.6019316400402,return,7.22026980004739,"[-0.16, -0.08, 0, 0.08, 0.16, 0.24, 0.32, 0.4, 0.48, 0.56]","[-0.4, -0.32, -0.24, -0.16, -0.08, 0, 0.08, 0.16, 0.24, 0.32]",0,0,9,4,0.0,0.4,918.9959037000081,918.9959037000081,918.9959037000081,918.9959037000081,918.9959037000081,918.9959037000081,918.9959037000081,918.9744707599981,6.823260199977085,return,6.663262299960479,stimuli/alien_stimuli/11.png,11,4,1,,,,,,,,,,,,,,,,,,,,,,,,,,,,,,,,,,,,,,,,,,,,,,,,,,,,,,,,,,,,,,,,,,,,,,,,,,,,,,,,,,,,,,,,,A867Z4,train_y,blue_star,bottom_left,2025-03-15_11h11.32.451,HideSeek_v1,2022.2.5,59.891177724174305,
,,,,,,,,,,,30,,,,3,0,3,0,,,,,,,,,,,,,,,,,,,,,,,,,,,,,,,,,,,,,,,,,,,,,,,,,,,,,,,,,,,,,,,,,,,,,,,,,,,,,,21,0.7,1.0,1,99,2,30,0,conditions/schedules/train_y_first/blue_star_00/bottom_left/inputTrain_2.1.xlsx,99,1,2,1,0,,,,,,,,,,,,,,,,,,,,,,,,,,,,,,,,,,,,,,,,,,,,,,,,,,,,,,,,,,,,,,,,,,,,,,,,,,,A867Z4,train_y,blue_star,bottom_left,2025-03-15_11h11.32.451,HideSeek_v1,2022.2.5,59.891177724174305,
,,,,,,,,,,,,,,,4,0,4,0,0,0,0,0,,,,,,,,,,,,,,,,,,,,,,,,,,,,,,,conditions/schedules/train_y_first/blue_star_00/bottom_left/instructions/Slide21.png,conditions/schedules/train_y_first/blue_star_00/bottom_left/instructions/Audio21.wav,925.8845527999802,925.8796769599663,21,"[3.617961800075136, 23.61595240002498, 16.722995800082572, 19.40429860004224, 5.666990200057626, 5.12007059995085, 5.3370869000209495, 11.8239546000259, 6.038854000042193, 59.665306300041266, 11.438560100039467, 13.925339299952611, 18.299708000035025, 17.153267899993807, 43.55842899996787, 21.80024789995514, 50.96744719997514, 75.07706650008913, 11.289585300022736, 13.125729599967599, 27.316604199935682]","[3.6179724000394344, 0.031023900024592876, 0.014455600059591234, 0.047081700060516596, 0.04953119996935129, 0.04928389994893223, 0.06401410000398755, 0.014444999978877604, 0.06545870006084442, 0.04735670005902648, 0.130745799979195, 13.925346400006674, 0.055552100064232945, 17.1532744000433, 0.03268880001269281, 21.800254500005394, 50.967454400029965, 0.030444600037299097, 11.289591600070707, 13.125736400019377, 27.316610599984415]",0,,,,,,,,,,,,,,,,,,,,,,,,,,,,,,,,,,,,,,,,,,,,,,,,,,,,,,,,,,,,,,,,,,,,,,,,,,,,,,,,,,,,,,,,,,,,,,,,,,,,,,,,,,,,,,,,,,,,,,,,,,,,A867Z4,train_y,blue_star,bottom_left,2025-03-15_11h11.32.451,HideSeek_v1,2022.2.5,59.891177724174305,
2,3,2,3,2,0,0,61,2,instr_dim1_2,,,,,,4,0,4,0,,,,,0,0,0,0,,,,,,,,,,,,,,,,,,,,,,,,,,,,,,,,,,,,,stimuli/alien_stimuli/61.png,conditions/schedules/train_y_first/blue_star_00/bottom_left/inputInstr_2.xlsx,stimuli/alien_stimuli/61.png,953.2964451999869,953.2964451999869,953.2964451999869,953.2964451999869,953.2864925199422,return,7.47777519992087,"[-0.16, -0.08, 0, 0.08, 0.16, 0.24, 0.32, 0.4, 0.48, 0.56]","[-0.4, -0.32, -0.24, -0.16, -0.08, 0, 0.08, 0.16, 0.24, 0.32]",2,2,3,3,0.0,0.0,960.916709800018,960.916709800018,960.916709800018,960.916709800018,960.916709800018,960.916709800018,960.916709800018,960.9091795600485,10.809896999970078,return,10.654908899916336,stimuli/alien_stimuli/61.png,61,3,2,,,,,,,,,,,,,,,,,,,,,,,,,,,,,,,,,,,,,,,,,,,,,,,,,,,,,,,,,,,,,,,,,,,,,,,,,,,,,,,,,,,,,,,,,A867Z4,train_y,blue_star,bottom_left,2025-03-15_11h11.32.451,HideSeek_v1,2022.2.5,59.891177724174305,
,,,,,,,,,,,30,,,,4,0,4,0,,,,,,,,,,,,,,,,,,,,,,,,,,,,,,,,,,,,,,,,,,,,,,,,,,,,,,,,,,,,,,,,,,,,,,,,,,,,,,21,0.7,1.0,1,99,2,30,0,conditions/schedules/train_y_first/blue_star_00/bottom_left/inputTrain_2.1.xlsx,99,1,2,1,0,,,,,,,,,,,,,,,,,,,,,,,,,,,,,,,,,,,,,,,,,,,,,,,,,,,,,,,,,,,,,,,,,,,,,,,,,,,A867Z4,train_y,blue_star,bottom_left,2025-03-15_11h11.32.451,HideSeek_v1,2022.2.5,59.891177724174305,
,,,,,,,,,,,,,,,5,0,5,0,0,0,0,0,,,,,,,,,,,,,,,,,,,,,,,,,,,,,,,conditions/schedules/train_y_first/blue_star_00/bottom_left/instructions/Slide22.png,conditions/schedules/train_y_first/blue_star_00/bottom_left/instructions/Audio22.wav,971.7536591000389,971.7515210999409,22,"[3.617961800075136, 23.61595240002498, 16.722995800082572, 19.40429860004224, 5.666990200057626, 5.12007059995085, 5.3370869000209495, 11.8239546000259, 6.038854000042193, 59.665306300041266, 11.438560100039467, 13.925339299952611, 18.299708000035025, 17.153267899993807, 43.55842899996787, 21.80024789995514, 50.96744719997514, 75.07706650008913, 11.289585300022736, 13.125729599967599, 27.316604199935682, 30.822310199961066]","[3.6179724000394344, 0.031023900024592876, 0.014455600059591234, 0.047081700060516596, 0.04953119996935129, 0.04928389994893223, 0.06401410000398755, 0.014444999978877604, 0.06545870006084442, 0.04735670005902648, 0.130745799979195, 13.925346400006674, 0.055552100064232945, 17.1532744000433, 0.03268880001269281, 21.800254500005394, 50.967454400029965, 0.030444600037299097, 11.289591600070707, 13.125736400019377, 27.316610599984415, 30.822317000012845]",0,,,,,,,,,,,,,,,,,,,,,,,,,,,,,,,,,,,,,,,,,,,,,,,,,,,,,,,,,,,,,,,,,,,,,,,,,,,,,,,,,,,,,,,,,,,,,,,,,,,,,,,,,,,,,,,,,,,,,,,,,,,,A867Z4,train_y,blue_star,bottom_left,2025-03-15_11h11.32.451,HideSeek_v1,2022.2.5,59.891177724174305,
,2,1,5,1,3,0,31,,train_dim1_2,1,30,,,,5,0,5,0,,,,,,,,,0,0,0,0,0,0,0,0,0,0,0,0,,,,,,,,,,,,,,,,,,,,,,,,,stimuli/alien_stimuli/31.png,,,,,,,,,,,,,,,,,,,,,,,,,,,,,,,,,,,,,,,30,,,,,,,,1002.6724065999733,1002.6724065999733,1002.6724065999733,1002.6724065999733,1002.6724065999733,right,7.851008200086653,0,1,0,99,0.08,-0.32,right,7.756890999968164,,,,,,,,,,,,,,,,,,,,,,,,,,,,,,,,,,,,,,,,,,,,,,,,,,,,,,,,,,,,A867Z4,train_y,blue_star,bottom_left,2025-03-15_11h11.32.451,HideSeek_v1,2022.2.5,59.891177724174305,
,2,1,5,1,3,0,31,,train_dim1_2,1,30,,,,5,0,5,0,,,,,,,,,0,0,0,0,0,0,0,0,1,0,1,0,,,,,,,,,,,,,,,,,,,,,,,,,,,,,,,,,,,,,,,,,,,,,,,,,,,,,,,,,,,,,,,,30,,,,,,,,1010.5176237999694,1010.5176237999694,1010.5176237999694,1010.5176237999694,1010.5176237999694,right,1.894012700067833,0,1,0,99,0.16,-0.32,right,1.8191868000430986,,,,,,,,,,,,,,,,,,,,,,,,,,,,,,,,,,,,,,,,,,,,,,,,,,,,,,,,,,,,A867Z4,train_y,blue_star,bottom_left,2025-03-15_11h11.32.451,HideSeek_v1,2022.2.5,59.891177724174305,
,2,1,5,1,3,0,31,,train_dim1_2,1,30,,,,5,0,5,0,,,,,,,,,0,0,0,0,0,0,0,0,2,0,2,0,,,,,,,,,,,,,,,,,,,,,,,,,,,,,,,,,,,,,,,,,,,,,,,,,,,,,,,,,,,,,,,,30,,,,,,,,1012.416382299969,1012.416382299969,1012.416382299969,1012.416382299969,1012.416382299969,right,1.961502999998629,0,1,0,99,0.24,-0.32,right,1.8757798000006005,,,,,,,,,,,,,,,,,,,,,,,,,,,,,,,,,,,,,,,,,,,,,,,,,,,,,,,,,,,,A867Z4,train_y,blue_star,bottom_left,2025-03-15_11h11.32.451,HideSeek_v1,2022.2.5,59.891177724174305,
,2,1,5,1,3,0,31,,train_dim1_2,1,30,,,,5,0,5,0,,,,,,,,,0,0,0,0,0,0,0,0,3,0,3,0,,,,,,,,,,,,,,,,,,,,,,,,,,,,,,,,,,,,,,,,,,,,,,,,,,,,,,,,,,,,,,,,30,,,,,,,,1014.3907125999685,1014.3907125999685,1014.3907125999685,1014.3907125999685,1014.3907125999685,right,0.8431737000355497,0,1,0,99,0.32,-0.32,right,0.7548524000449106,,,,,,,,,,,,,,,,,,,,,,,,,,,,,,,,,,,,,,,,,,,,,,,,,,,,,,,,,,,,A867Z4,train_y,blue_star,bottom_left,2025-03-15_11h11.32.451,HideSeek_v1,2022.2.5,59.891177724174305,
,2,1,5,1,3,0,31,,train_dim1_2,1,30,,,,5,0,5,0,,,,,,,,,0,0,0,0,0,0,0,0,4,0,4,0,,,,,,,,,,,,,,,,,,,,,,,,,,,,,,,,,,,,,,,,,,,,,,,,,,,,,,,,,,,,,,,,30,,,,,,,,1015.2354568999726,1015.2354568999726,1015.2354568999726,1015.2354568999726,1015.2354568999726,return,0.9269373000133783,0,1,0,0,0.32,-0.32,return,0.8392618000507355,81,5,0.32,-0.32,,,,,,,,,,,,,,,,,,,,,,,,,,,,,,,,,,,,,,,,,,,,,,,,,,,,,,,,A867Z4,train_y,blue_star,bottom_left,2025-03-15_11h11.32.451,HideSeek_v1,2022.2.5,59.891177724174305,
,2,4,7,4,5,0,11,,train_dim1_2,2,30,,,,5,0,5,0,,,,,,,,,0,0,0,0,0,1,1,1,0,0,0,0,,,,,,,,,,,,,,,,,,,,,,,,,stimuli/alien_stimuli/11.png,,,,,,,,,,,,,,,,,,,,,,,,,,,,,stimuli/alien_stimuli/31.png,31,2,3,,,,,,,30,,,,,,,,1031.9609688000055,1031.9609688000055,1031.9609688000055,1031.9609688000055,1031.9609688000055,right,4.492907200008631,0,1,0,99,0.08,-0.08,right,4.390965600032359,,,,,1030.3842389000347,1031.9609688000055,0.24,-0.32,0.0,0.24,-0.32,0.24,0.12,0.24,-0.32,1017.7518935999833,1017.7518935999833,1017.7518935999833,1017.7518935999833,1017.7518935999833,1017.7518935999833,1017.7518935999833,1017.7518935999833,1017.7396048599854,12.763043400016613,return,12.616552100051194,,,,,,,,,,,,,,,,,,,,,,,,,,,,,,,,,A867Z4,train_y,blue_star,bottom_left,2025-03-15_11h11.32.451,HideSeek_v1,2022.2.5,59.891177724174305,
,2,4,7,4,5,0,11,,train_dim1_2,2,30,,,,5,0,5,0,,,,,,,,,0,0,0,0,0,1,1,1,1,0,1,0,,,,,,,,,,,,,,,,,,,,,,,,,,,,,,,,,,,,,,,,,,,,,,,,,,,,,,,,,,,,,,,,30,,,,,,,,1036.442509299959,1036.442509299959,1036.442509299959,1036.442509299959,1036.442509299959,right,0.4592703999951482,0,1,0,99,0.16,-0.08,right,0.36819670000113547,,,,,,,,,,,,,,,,,,,,,,,,,,,,,,,,,,,,,,,,,,,,,,,,,,,,,,,,,,,,A867Z4,train_y,blue_star,bottom_left,2025-03-15_11h11.32.451,HideSeek_v1,2022.2.5,59.891177724174305,
,2,4,7,4,5,0,11,,train_dim1_2,2,30,,,,5,0,5,0,,,,,,,,,0,0,0,0,0,1,1,1,2,0,2,0,,,,,,,,,,,,,,,,,,,,,,,,,,,,,,,,,,,,,,,,,,,,,,,,,,,,,,,,,,,,,,,,30,,,,,,,,1036.9079129999736,1036.9079129999736,1036.9079129999736,1036.9079129999736,1036.9079129999736,right,0.509926899918355,0,1,0,99,0.24,-0.08,right,0.4212690000422299,,,,,,,,,,,,,,,,,,,,,,,,,,,,,,,,,,,,,,,,,,,,,,,,,,,,,,,,,,,,A867Z4,train_y,blue_star,bottom_left,2025-03-15_11h11.32.451,HideSeek_v1,2022.2.5,59.891177724174305,
,2,4,7,4,5,0,11,,train_dim1_2,2,30,,,,5,0,5,0,,,,,,,,,0,0,0,0,0,1,1,1,3,0,3,0,,,,,,,,,,,,,,,,,,,,,,,,,,,,,,,,,,,,,,,,,,,,,,,,,,,,,,,,,,,,,,,,30,,,,,,,,1037.4263264000183,1037.4263264000183,1037.4263264000183,1037.4263264000183,1037.4263264000183,right,0.5267809999641031,0,1,0,99,0.32,-0.08,right,0.44575049995910376,,,,,,,,,,,,,,,,,,,,,,,,,,,,,,,,,,,,,,,,,,,,,,,,,,,,,,,,,,,,A867Z4,train_y,blue_star,bottom_left,2025-03-15_11h11.32.451,HideSeek_v1,2022.2.5,59.891177724174305,
,2,4,7,4,5,0,11,,train_dim1_2,2,30,,,,5,0,5,0,,,,,,,,,0,0,0,0,0,1,1,1,4,0,4,0,,,,,,,,,,,,,,,,,,,,,,,,,,,,,,,,,,,,,,,,,,,,,,,,,,,,,,,,,,,,,,,,30,,,,,,,,1037.9584568999708,1037.9584568999708,1037.9584568999708,1037.9584568999708,1037.9584568999708,right,0.6265412999782711,0,1,0,99,0.4,-0.08,right,0.5337575000012293,,,,,,,,,,,,,,,,,,,,,,,,,,,,,,,,,,,,,,,,,,,,,,,,,,,,,,,,,,,,A867Z4,train_y,blue_star,bottom_left,2025-03-15_11h11.32.451,HideSeek_v1,2022.2.5,59.891177724174305,
,2,4,7,4,5,0,11,,train_dim1_2,2,30,,,,5,0,5,0,,,,,,,,,0,0,0,0,0,1,1,1,5,0,5,0,,,,,,,,,,,,,,,,,,,,,,,,,,,,,,,,,,,,,,,,,,,,,,,,,,,,,,,,,,,,,,,,30,,,,,,,,1038.593712999951,1038.593712999951,1038.593712999951,1038.593712999951,1038.593712999951,return,1.0604396000271663,1,0,0,1,0.4,-0.08,return,0.9768980999942869,81,10,0.4,-0.08,,,,,,,,,,,,,,,,,,,,,,,,,,,,,,,,,,,,,,,,,,,,,,,,,,,,,,,,A867Z4,train_y,blue_star,bottom_left,2025-03-15_11h11.32.451,HideSeek_v1,2022.2.5,59.891177724174305,
,4,4,8,4,4,0,21,,train_dim1_2,3,30,,,,5,0,5,0,,,,,,,,,0,0,0,0,0,2,2,2,0,0,0,0,,,,,,,,,,,,,,,,,,,,,,,,,stimuli/alien_stimuli/21.png,,,,,,,,,,,,,,,,,,,,,,,,,,,,,stimuli/alien_stimuli/11.png,11,2,4,,,,,,,30,,,,,,,,1044.1891435999423,1044.1891435999423,1044.1891435999423,1044.1891435999423,1044.1891435999423,right,2.308018800104037,1,0,0,99,0.24,-0.08,right,2.208312499918975,,,,,1042.6111245999346,1044.1891435999423,0.4,-0.08,0.0,0.4,-0.08,0.4,0.2,0.4,-0.08,1041.2377595000435,1041.2377595000435,1041.2377595000435,1041.2377595000435,1041.2377595000435,1041.2377595000435,1041.2377595000435,1041.2377595000435,1041.2256894599648,1.5034689999883994,return,1.3491015000035986,,,,,,,,,,,,,,,,,,,,,,,,,,,,,,,,,A867Z4,train_y,blue_star,bottom_left,2025-03-15_11h11.32.451,HideSeek_v1,2022.2.5,59.891177724174305,
