trialInstr,x_fixStart,y_fixStart,x_corrSteps,y_corrSteps,x_nrSteps,y_nrSteps,alienID,trialLength,version,trialTrain,praclen,testlen,trial_label,break_on_off,beforeExpLoop.thisRepN,beforeExpLoop.thisTrialN,beforeExpLoop.thisN,beforeExpLoop.thisIndex,mini_instr_trials.thisRepN,mini_instr_trials.thisTrialN,mini_instr_trials.thisN,mini_instr_trials.thisIndex,instrLoop.thisRepN,instrLoop.thisTrialN,instrLoop.thisN,instrLoop.thisIndex,repeat_prac.thisRepN,repeat_prac.thisTrialN,repeat_prac.thisN,repeat_prac.thisIndex,trainLoop.thisRepN,trainLoop.thisTrialN,trainLoop.thisN,trainLoop.thisIndex,moveLoop_train.thisRepN,moveLoop_train.thisTrialN,moveLoop_train.thisN,moveLoop_train.thisIndex,experiment.thisRepN,experiment.thisTrialN,experiment.thisN,experiment.thisIndex,moveLoop_test.thisRepN,moveLoop_test.thisTrialN,moveLoop_test.thisN,moveLoop_test.thisIndex,mini_instr2_trials.thisRepN,mini_instr2_trials.thisTrialN,mini_instr2_trials.thisN,mini_instr2_trials.thisIndex,start_all_time,url,slideStim,audioStim,slides.started,sounds.started,nextButton.numClicks,nextButton.timesOn,nextButton.timesOff,prev_but.numClicks,prev_but.timesOn,prev_but.timesOff,alienStim,instrFile,alienStim_instr,gridImage_instr.started,startPos_3.started,key_instr.started,alienImage_3.started,sounds_1.started,key_instr.keys,key_instr.rt,all_x,all_y,FBy_corrSteps,FBy_fixStart,FBx_corrSteps,FBx_fixStart,FBy_pathSize_check,FBx_pathSize_check,gridImage_9.started,alienImageFB_3.started,startPosFB_3.started,keyFB_3.started,pathLine_ydir_2.started,pathLine_xdir_2.started,alienFace_3.started,sounds_2.started,RTFB_instr,keyFB_3.keys,keyFB_3.rt,draw_alienStim,draw_alienID,test_x,nrepcount,perfthres,percthres,earlierperf,earlystop,nextPrac,fileidx,praclen,saveACC_train,pracFile,nextPrac_train,addNrep,fileidx_endr,repExp,showearly,gridImage_4.started,startPos.started,movePos.started,key_resp.started,alienImage.started,buttonPress_train,RTchoice_train,cumAcctrain,aCorr,saveACC_choice,corrAns,x_movePos_end,y_movePos_end,key_resp.keys,key_resp.rt,wLy_dir,wLx_dir,x_movePos,y_movePos,text_2.started,text_2.stopped,aft_x_corrPos,aft_y_corrPos,y_pathSize_check,x_pathSize_check,y_pathdirY,x_pathdirY,x_pathdirX,x_corrPos,y_corrPos,gridImage_6.started,alienImageFB_2.started,startPosFB_2.started,movePosFB_2.started,keyFB_2.started,pathLine_xdir.started,pathLine_ydir.started,alienFace.started,sounds_4.started,RT_FBtrain,keyFB_2.keys,keyFB_2.rt,saveACC_pre,ACC,within_saveACC_train,earlystop_wloop,cumAcctrain_check,gridImage_3.started,alienImage_test.started,startPos_test.started,movePos_test.started,key_resp_test.started,wLy_dir_test,wLx_dir_test,buttonPress_test,RTchoice_test,cumAcctest,corrAns_test,key_resp_test.keys,key_resp_test.rt,text_3.started,text_3.stopped,total_time,end_all_time,key_resp_3.keys,slides_2.started,sounds_3.started,nextButton_2.numClicks,nextButton_2.timesOn,nextButton_2.timesOff,prev_but_2.numClicks,prev_but_2.timesOn,prev_but_2.timesOff,bye.started,participant,train_first,00_coordinate,starting corner,date,expName,psychopyVersion,frameRate,
,,,,,,,,,,,,,,,0,0,0,0,0,0,0,0,,,,,,,,,,,,,,,,,,,,,,,,,,,,,start_all_time,testround,conditions/schedules/train_x_first/blue_star_00/bottom_left/instructions/Slide1.png,conditions/schedules/train_x_first/blue_star_00/bottom_left/instructions/Audio1.wav,508.31994319998194,508.27557349868584,1,[45.46542769996449],[45.46543490001932],0,,,,,,,,,,,,,,,,,,,,,,,,,,,,,,,,,,,,,,,,,,,,,,,,,,,,,,,,,,,,,,,,,,,,,,,,,,,,,,,,,,,,,,,,,,,,,,,,,,,,,,,,,,,,,,,,,,,,,,,,,,,,A983Y0,train_x,blue_star,bottom_left,2025-06-21_14h18.42.635,HideSeek_v1,2022.2.5,59.960881502255134,
,,,,,,,,,,,,,,,0,0,0,0,1,0,1,0,,,,,,,,,,,,,,,,,,,,,,,,,,,,,,,conditions/schedules/train_x_first/blue_star_00/bottom_left/instructions/Slide2.png,conditions/schedules/train_x_first/blue_star_00/bottom_left/instructions/Audio2.wav,553.8130295999581,553.8100658499752,2,"[45.46542769996449, 18.39284820004832]","[0.00023260002490133047, 18.392854599980637]",0,,,,,,,,,,,,,,,,,,,,,,,,,,,,,,,,,,,,,,,,,,,,,,,,,,,,,,,,,,,,,,,,,,,,,,,,,,,,,,,,,,,,,,,,,,,,,,,,,,,,,,,,,,,,,,,,,,,,,,,,,,,,A983Y0,train_x,blue_star,bottom_left,2025-06-21_14h18.42.635,HideSeek_v1,2022.2.5,59.960881502255134,
,,,,,,,,,,,,,,,0,0,0,0,2,0,2,0,,,,,,,,,,,,,,,,,,,,,,,,,,,,,,,conditions/schedules/train_x_first/blue_star_00/bottom_left/instructions/Slide3.png,conditions/schedules/train_x_first/blue_star_00/bottom_left/instructions/Audio3.wav,572.2854200999718,572.2762037499924,3,"[45.46542769996449, 18.39284820004832, 16.751444000052288]","[0.00023260002490133047, 18.392854599980637, 16.751450499985367]",0,,,,,,,,,,,,,,,,,,,,,,,,,,,,,,,,,,,,,,,,,,,,,,,,,,,,,,,,,,,,,,,,,,,,,,,,,,,,,,,,,,,,,,,,,,,,,,,,,,,,,,,,,,,,,,,,,,,,,,,,,,,,A983Y0,train_x,blue_star,bottom_left,2025-06-21_14h18.42.635,HideSeek_v1,2022.2.5,59.960881502255134,
,,,,,,,,,,,,,,,0,0,0,0,3,0,3,0,,,,,,,,,,,,,,,,,,,,,,,,,,,,,,,conditions/schedules/train_x_first/blue_star_00/bottom_left/instructions/Slide4.png,conditions/schedules/train_x_first/blue_star_00/bottom_left/instructions/Audio4.wav,589.1189896999858,589.1066812499776,4,"[45.46542769996449, 18.39284820004832, 16.751444000052288, 19.80186100001447]","[0.00023260002490133047, 18.392854599980637, 0.014747500070370734, 19.801868200069293]",0,,,,,,,,,,,,,,,,,,,,,,,,,,,,,,,,,,,,,,,,,,,,,,,,,,,,,,,,,,,,,,,,,,,,,,,,,,,,,,,,,,,,,,,,,,,,,,,,,,,,,,,,,,,,,,,,,,,,,,,,,,,,A983Y0,train_x,blue_star,bottom_left,2025-06-21_14h18.42.635,HideSeek_v1,2022.2.5,59.960881502255134,
,,,,,,,,,,,,,,,0,0,0,0,4,0,4,0,,,,,,,,,,,,,,,,,,,,,,,,,,,,,,,conditions/schedules/train_x_first/blue_star_00/bottom_left/instructions/Slide5.png,conditions/schedules/train_x_first/blue_star_00/bottom_left/instructions/Audio5.wav,608.9884306999156,608.9898918499821,5,"[45.46542769996449, 18.39284820004832, 16.751444000052288, 19.80186100001447, 6.770869899890386]","[0.00023260002490133047, 18.392854599980637, 0.014747500070370734, 19.801868200069293, 6.770876899943687]",0,,,,,,,,,,,,,,,,,,,,,,,,,,,,,,,,,,,,,,,,,,,,,,,,,,,,,,,,,,,,,,,,,,,,,,,,,,,,,,,,,,,,,,,,,,,,,,,,,,,,,,,,,,,,,,,,,,,,,,,,,,,,A983Y0,train_x,blue_star,bottom_left,2025-06-21_14h18.42.635,HideSeek_v1,2022.2.5,59.960881502255134,
,,,,,,,,,,,,,,,0,0,0,0,5,0,5,0,,,,,,,,,,,,,,,,,,,,,,,,,,,,,,,conditions/schedules/train_x_first/blue_star_00/bottom_left/instructions/Slide6.png,conditions/schedules/train_x_first/blue_star_00/bottom_left/instructions/Audio6.wav,615.8105574999936,615.8121424999554,6,"[45.46542769996449, 18.39284820004832, 16.751444000052288, 19.80186100001447, 6.770869899890386, 5.153278100071475]","[0.00023260002490133047, 18.392854599980637, 0.014747500070370734, 19.801868200069293, 0.06528860004618764, 5.153286000015214]",0,,,,,,,,,,,,,,,,,,,,,,,,,,,,,,,,,,,,,,,,,,,,,,,,,,,,,,,,,,,,,,,,,,,,,,,,,,,,,,,,,,,,,,,,,,,,,,,,,,,,,,,,,,,,,,,,,,,,,,,,,,,,A983Y0,train_x,blue_star,bottom_left,2025-06-21_14h18.42.635,HideSeek_v1,2022.2.5,59.960881502255134,
,,,,,,,,,,,,,,,0,0,0,0,6,0,6,0,,,,,,,,,,,,,,,,,,,,,,,,,,,,,,,conditions/schedules/train_x_first/blue_star_00/bottom_left/instructions/Slide7.png,conditions/schedules/train_x_first/blue_star_00/bottom_left/instructions/Audio7.wav,621.0156112000113,621.0164030999877,7,"[45.46542769996449, 18.39284820004832, 16.751444000052288, 19.80186100001447, 6.770869899890386, 5.153278100071475, 5.319513600086793]","[0.00023260002490133047, 18.392854599980637, 0.014747500070370734, 19.801868200069293, 0.06528860004618764, 0.081893700058572, 5.3195204000221565]",0,,,,,,,,,,,,,,,,,,,,,,,,,,,,,,,,,,,,,,,,,,,,,,,,,,,,,,,,,,,,,,,,,,,,,,,,,,,,,,,,,,,,,,,,,,,,,,,,,,,,,,,,,,,,,,,,,,,,,,,,,,,,A983Y0,train_x,blue_star,bottom_left,2025-06-21_14h18.42.635,HideSeek_v1,2022.2.5,59.960881502255134,
,,,,,,,,,,,,,,,0,0,0,0,7,0,7,0,,,,,,,,,,,,,,,,,,,,,,,,,,,,,,,conditions/schedules/train_x_first/blue_star_00/bottom_left/instructions/Slide8.png,conditions/schedules/train_x_first/blue_star_00/bottom_left/instructions/Audio8.wav,626.3875757999485,626.3874565999722,8,"[45.46542769996449, 18.39284820004832, 16.751444000052288, 19.80186100001447, 6.770869899890386, 5.153278100071475, 5.319513600086793, 11.59038559999317]","[0.00023260002490133047, 18.392854599980637, 0.014747500070370734, 19.801868200069293, 0.06528860004618764, 0.081893700058572, 0.08048080001026392, 11.590393300051801]",0,,,,,,,,,,,,,,,,,,,,,,,,,,,,,,,,,,,,,,,,,,,,,,,,,,,,,,,,,,,,,,,,,,,,,,,,,,,,,,,,,,,,,,,,,,,,,,,,,,,,,,,,,,,,,,,,,,,,,,,,,,,,A983Y0,train_x,blue_star,bottom_left,2025-06-21_14h18.42.635,HideSeek_v1,2022.2.5,59.960881502255134,
,,,,,,,,,,,,,,,0,0,0,0,8,0,8,0,,,,,,,,,,,,,,,,,,,,,,,,,,,,,,,conditions/schedules/train_x_first/blue_star_00/bottom_left/instructions/Slide9.png,conditions/schedules/train_x_first/blue_star_00/bottom_left/instructions/Audio9.wav,638.0432808999904,638.0305551999481,9,"[45.46542769996449, 18.39284820004832, 16.751444000052288, 19.80186100001447, 6.770869899890386, 5.153278100071475, 5.319513600086793, 11.59038559999317, 5.7224604999646544]","[0.00023260002490133047, 18.392854599980637, 0.014747500070370734, 19.801868200069293, 0.06528860004618764, 0.081893700058572, 0.08048080001026392, 0.03479720000177622, 5.722467300016433]",0,,,,,,,,,,,,,,,,,,,,,,,,,,,,,,,,,,,,,,,,,,,,,,,,,,,,,,,,,,,,,,,,,,,,,,,,,,,,,,,,,,,,,,,,,,,,,,,,,,,,,,,,,,,,,,,,,,,,,,,,,,,,A983Y0,train_x,blue_star,bottom_left,2025-06-21_14h18.42.635,HideSeek_v1,2022.2.5,59.960881502255134,
,,,,,,,,,,,,,,,0,0,0,0,9,0,9,0,,,,,,,,,,,,,,,,,,,,,,,,,,,,,,,conditions/schedules/train_x_first/blue_star_00/bottom_left/instructions/Slide10.png,conditions/schedules/train_x_first/blue_star_00/bottom_left/instructions/Audio10.wav,643.8049547999399,643.8016501499224,10,"[45.46542769996449, 18.39284820004832, 16.751444000052288, 19.80186100001447, 6.770869899890386, 5.153278100071475, 5.319513600086793, 11.59038559999317, 5.7224604999646544, 7.216940300073475]","[0.00023260002490133047, 18.392854599980637, 0.014747500070370734, 19.801868200069293, 0.06528860004618764, 0.081893700058572, 0.08048080001026392, 0.03479720000177622, 0.07996980007737875, 7.216946900007315]",0,,,,,,,,,,,,,,,,,,,,,,,,,,,,,,,,,,,,,,,,,,,,,,,,,,,,,,,,,,,,,,,,,,,,,,,,,,,,,,,,,,,,,,,,,,,,,,,,,,,,,,,,,,,,,,,,,,,,,,,,,,,,A983Y0,train_x,blue_star,bottom_left,2025-06-21_14h18.42.635,HideSeek_v1,2022.2.5,59.960881502255134,
,,,,,,,,,,,,,,,0,0,0,0,10,0,10,0,,,,,,,,,,,,,,,,,,,,,,,,,,,,,,,conditions/schedules/train_x_first/blue_star_00/bottom_left/instructions/Slide11.png,conditions/schedules/train_x_first/blue_star_00/bottom_left/instructions/Audio11.wav,651.0757157999324,651.074527699966,11,"[45.46542769996449, 18.39284820004832, 16.751444000052288, 19.80186100001447, 6.770869899890386, 5.153278100071475, 5.319513600086793, 11.59038559999317, 5.7224604999646544, 7.216940300073475, 9.97139059996698]","[0.00023260002490133047, 18.392854599980637, 0.014747500070370734, 19.801868200069293, 0.06528860004618764, 0.081893700058572, 0.08048080001026392, 0.03479720000177622, 0.07996980007737875, 0.07956760004162788, 9.971397300017998]",0,,,,,,,,,,,,,,,,,,,,,,,,,,,,,,,,,,,,,,,,,,,,,,,,,,,,,,,,,,,,,,,,,,,,,,,,,,,,,,,,,,,,,,,,,,,,,,,,,,,,,,,,,,,,,,,,,,,,,,,,,,,,A983Y0,train_x,blue_star,bottom_left,2025-06-21_14h18.42.635,HideSeek_v1,2022.2.5,59.960881502255134,
,,,,,,,,,,,,,,,0,0,0,0,11,0,11,0,,,,,,,,,,,,,,,,,,,,,,,,,,,,,,,conditions/schedules/train_x_first/blue_star_00/bottom_left/instructions/Slide12.png,conditions/schedules/train_x_first/blue_star_00/bottom_left/instructions/Audio12.wav,661.1026833999204,661.100091499975,12,"[45.46542769996449, 18.39284820004832, 16.751444000052288, 19.80186100001447, 6.770869899890386, 5.153278100071475, 5.319513600086793, 11.59038559999317, 5.7224604999646544, 7.216940300073475, 9.97139059996698, 12.837512700003572]","[0.00023260002490133047, 18.392854599980637, 0.014747500070370734, 19.801868200069293, 0.06528860004618764, 0.081893700058572, 0.08048080001026392, 0.03479720000177622, 0.07996980007737875, 0.07956760004162788, 0.09471740003209561, 12.837518900050782]",0,,,,,,,,,,,,,,,,,,,,,,,,,,,,,,,,,,,,,,,,,,,,,,,,,,,,,,,,,,,,,,,,,,,,,,,,,,,,,,,,,,,,,,,,,,,,,,,,,,,,,,,,,,,,,,,,,,,,,,,,,,,,A983Y0,train_x,blue_star,bottom_left,2025-06-21_14h18.42.635,HideSeek_v1,2022.2.5,59.960881502255134,
1,4,0,9,0,5,0,11,2,instr_dim1_1,,,,,,0,0,0,0,,,,,0,0,0,0,,,,,,,,,,,,,,,,,,,,,,,,,,,,,,,,,,,,,stimuli/alien_stimuli/11.png,conditions/schedules/train_x_first/blue_star_00/bottom_left/inputInstr_1.xlsx,stimuli/alien_stimuli/11.png,674.0420934999129,674.0420934999129,674.0420934999129,674.0420934999129,674.043876849988,return,25.9723313000286,"[-0.16, -0.08, 0, 0.08, 0.16, 0.24, 0.32, 0.4, 0.48, 0.56]","[-0.4, -0.32, -0.24, -0.16, -0.08, 0, 0.08, 0.16, 0.24, 0.32]",0,0,9,4,0.0,0.4,700.1716841999441,700.1716841999441,700.1716841999441,700.1716841999441,700.1716841999441,700.1716841999441,700.1716841999441,700.1658235499053,11.260235799942166,return,11.100757799926214,stimuli/alien_stimuli/11.png,11,4,1,,,,,,,,,,,,,,,,,,,,,,,,,,,,,,,,,,,,,,,,,,,,,,,,,,,,,,,,,,,,,,,,,,,,,,,,,,,,,,,,,,,,,,,,,A983Y0,train_x,blue_star,bottom_left,2025-06-21_14h18.42.635,HideSeek_v1,2022.2.5,59.960881502255134,
,,,,,,,,,,,30,,,,0,0,0,0,,,,,,,,,,,,,,,,,,,,,,,,,,,,,,,,,,,,,,,,,,,,,,,,,,,,,,,,,,,,,,,,,,,,,,,,,,,,,,21,0.7,0,0,99,1,30,0,conditions/schedules/train_x_first/blue_star_00/bottom_left/inputTrain_1.1.xlsx,99,1,1,1,0,,,,,,,,,,,,,,,,,,,,,,,,,,,,,,,,,,,,,,,,,,,,,,,,,,,,,,,,,,,,,,,,,,,,,,,,,,,A983Y0,train_x,blue_star,bottom_left,2025-06-21_14h18.42.635,HideSeek_v1,2022.2.5,59.960881502255134,
,,,,,,,,,,,,,,,1,0,1,0,0,0,0,0,,,,,,,,,,,,,,,,,,,,,,,,,,,,,,,conditions/schedules/train_x_first/blue_star_00/bottom_left/instructions/Slide13.png,conditions/schedules/train_x_first/blue_star_00/bottom_left/instructions/Audio13.wav,711.432607499999,711.4252186499652,13,"[45.46542769996449, 18.39284820004832, 16.751444000052288, 19.80186100001447, 6.770869899890386, 5.153278100071475, 5.319513600086793, 11.59038559999317, 5.7224604999646544, 7.216940300073475, 9.97139059996698, 12.837512700003572, 16.903621200006455]","[0.00023260002490133047, 18.392854599980637, 0.014747500070370734, 19.801868200069293, 0.06528860004618764, 0.081893700058572, 0.08048080001026392, 0.03479720000177622, 0.07996980007737875, 0.07956760004162788, 0.09471740003209561, 12.837518900050782, 16.90362840006128]",0,,,,,,,,,,,,,,,,,,,,,,,,,,,,,,,,,,,,,,,,,,,,,,,,,,,,,,,,,,,,,,,,,,,,,,,,,,,,,,,,,,,,,,,,,,,,,,,,,,,,,,,,,,,,,,,,,,,,,,,,,,,,A983Y0,train_x,blue_star,bottom_left,2025-06-21_14h18.42.635,HideSeek_v1,2022.2.5,59.960881502255134,
,,,,,,,,,,,,,,,1,0,1,0,1,0,1,0,,,,,,,,,,,,,,,,,,,,,,,,,,,,,,,conditions/schedules/train_x_first/blue_star_00/bottom_left/instructions/Slide14.png,conditions/schedules/train_x_first/blue_star_00/bottom_left/instructions/Audio14.wav,728.407590799965,728.405618049961,14,"[45.46542769996449, 18.39284820004832, 16.751444000052288, 19.80186100001447, 6.770869899890386, 5.153278100071475, 5.319513600086793, 11.59038559999317, 5.7224604999646544, 7.216940300073475, 9.97139059996698, 12.837512700003572, 16.903621200006455, 13.622755000018515]","[0.00023260002490133047, 18.392854599980637, 0.014747500070370734, 19.801868200069293, 0.06528860004618764, 0.081893700058572, 0.08048080001026392, 0.03479720000177622, 0.07996980007737875, 0.07956760004162788, 0.09471740003209561, 12.837518900050782, 0.01432399998884648, 13.622761500068009]",0,,,,,,,,,,,,,,,,,,,,,,,,,,,,,,,,,,,,,,,,,,,,,,,,,,,,,,,,,,,,,,,,,,,,,,,,,,,,,,,,,,,,,,,,,,,,,,,,,,,,,,,,,,,,,,,,,,,,,,,,,,,,A983Y0,train_x,blue_star,bottom_left,2025-06-21_14h18.42.635,HideSeek_v1,2022.2.5,59.960881502255134,
2,3,2,3,2,0,0,61,2,instr_dim1_1,,,,,,1,0,1,0,,,,,0,0,0,0,,,,,,,,,,,,,,,,,,,,,,,,,,,,,,,,,,,,,stimuli/alien_stimuli/61.png,conditions/schedules/train_x_first/blue_star_00/bottom_left/inputInstr_1.xlsx,stimuli/alien_stimuli/61.png,742.1315251999767,742.1315251999767,742.1315251999767,742.1315251999767,742.1169535999652,return,7.558913000044413,"[-0.16, -0.08, 0, 0.08, 0.16, 0.24, 0.32, 0.4, 0.48, 0.56]","[-0.4, -0.32, -0.24, -0.16, -0.08, 0, 0.08, 0.16, 0.24, 0.32]",2,2,3,3,0.0,0.0,749.8586285000201,749.8586285000201,749.8586285000201,749.8586285000201,749.8586285000201,749.8586285000201,749.8586285000201,749.8402398999315,9.642160200048238,return,9.472323299967684,stimuli/alien_stimuli/61.png,61,3,2,,,,,,,,,,,,,,,,,,,,,,,,,,,,,,,,,,,,,,,,,,,,,,,,,,,,,,,,,,,,,,,,,,,,,,,,,,,,,,,,,,,,,,,,,A983Y0,train_x,blue_star,bottom_left,2025-06-21_14h18.42.635,HideSeek_v1,2022.2.5,59.960881502255134,
,,,,,,,,,,,30,,,,1,0,1,0,,,,,,,,,,,,,,,,,,,,,,,,,,,,,,,,,,,,,,,,,,,,,,,,,,,,,,,,,,,,,,,,,,,,,,,,,,,,,,21,0.7,0,0,99,1,30,0,conditions/schedules/train_x_first/blue_star_00/bottom_left/inputTrain_1.1.xlsx,99,1,1,1,0,,,,,,,,,,,,,,,,,,,,,,,,,,,,,,,,,,,,,,,,,,,,,,,,,,,,,,,,,,,,,,,,,,,,,,,,,,,A983Y0,train_x,blue_star,bottom_left,2025-06-21_14h18.42.635,HideSeek_v1,2022.2.5,59.960881502255134,
,,,,,,,,,,,,,,,2,0,2,0,0,0,0,0,,,,,,,,,,,,,,,,,,,,,,,,,,,,,,,conditions/schedules/train_x_first/blue_star_00/bottom_left/instructions/Slide15.png,conditions/schedules/train_x_first/blue_star_00/bottom_left/instructions/Audio15.wav,759.4978869999759,759.4982415498816,15,"[45.46542769996449, 18.39284820004832, 16.751444000052288, 19.80186100001447, 6.770869899890386, 5.153278100071475, 5.319513600086793, 11.59038559999317, 5.7224604999646544, 7.216940300073475, 9.97139059996698, 12.837512700003572, 16.903621200006455, 13.622755000018515, 30.28790679993108]","[0.00023260002490133047, 18.392854599980637, 0.014747500070370734, 19.801868200069293, 0.06528860004618764, 0.081893700058572, 0.08048080001026392, 0.03479720000177622, 0.07996980007737875, 0.07956760004162788, 0.09471740003209561, 12.837518900050782, 0.01432399998884648, 13.622761500068009, 30.287913999985904]",0,,,,,,,,,,,,,,,,,,,,,,,,,,,,,,,,,,,,,,,,,,,,,,,,,,,,,,,,,,,,,,,,,,,,,,,,,,,,,,,,,,,,,,,,,,,,,,,,,,,,,,,,,,,,,,,,,,,,,,,,,,,,A983Y0,train_x,blue_star,bottom_left,2025-06-21_14h18.42.635,HideSeek_v1,2022.2.5,59.960881502255134,
,,,,,,,,,,,,,,,2,0,2,0,1,0,1,0,,,,,,,,,,,,,,,,,,,,,,,,,,,,,,,conditions/schedules/train_x_first/blue_star_00/bottom_left/instructions/Slide16.png,conditions/schedules/train_x_first/blue_star_00/bottom_left/instructions/Audio16.wav,789.8473287000088,789.8396318999585,16,"[45.46542769996449, 18.39284820004832, 16.751444000052288, 19.80186100001447, 6.770869899890386, 5.153278100071475, 5.319513600086793, 11.59038559999317, 5.7224604999646544, 7.216940300073475, 9.97139059996698, 12.837512700003572, 16.903621200006455, 13.622755000018515, 30.28790679993108, 21.90726080001332]","[0.00023260002490133047, 18.392854599980637, 0.014747500070370734, 19.801868200069293, 0.06528860004618764, 0.081893700058572, 0.08048080001026392, 0.03479720000177622, 0.07996980007737875, 0.07956760004162788, 0.09471740003209561, 12.837518900050782, 0.01432399998884648, 13.622761500068009, 0.013875799952074885, 21.907267099944875]",0,,,,,,,,,,,,,,,,,,,,,,,,,,,,,,,,,,,,,,,,,,,,,,,,,,,,,,,,,,,,,,,,,,,,,,,,,,,,,,,,,,,,,,,,,,,,,,,,,,,,,,,,,,,,,,,,,,,,,,,,,,,,A983Y0,train_x,blue_star,bottom_left,2025-06-21_14h18.42.635,HideSeek_v1,2022.2.5,59.960881502255134,
,2,1,5,1,3,0,31,,train_dim1_1,1,30,,,,2,0,2,0,,,,,,,,,0,0,0,0,0,0,0,0,0,0,0,0,,,,,,,,,,,,,,,,,,,,,,,,,stimuli/alien_stimuli/31.png,,,,,,,,,,,,,,,,,,,,,,,,,,,,,,,,,,,,,,,30,,,,,,,,811.8546832000138,811.8546832000138,811.8546832000138,811.8546832000138,811.8546832000138,right,13.707375800004229,0,0,0,99,0.08,-0.32,right,13.605771099915728,,,,,,,,,,,,,,,,,,,,,,,,,,,,,,,,,,,,,,,,,,,,,,,,,,,,,,,,,,,,A983Y0,train_x,blue_star,bottom_left,2025-06-21_14h18.42.635,HideSeek_v1,2022.2.5,59.960881502255134,
,2,1,5,1,3,0,31,,train_dim1_1,1,30,,,,2,0,2,0,,,,,,,,,0,0,0,0,0,0,0,0,1,0,1,0,,,,,,,,,,,,,,,,,,,,,,,,,,,,,,,,,,,,,,,,,,,,,,,,,,,,,,,,,,,,,,,,30,,,,,,,,825.5673226999352,825.5673226999352,825.5673226999352,825.5673226999352,825.5673226999352,right,1.1436327999690548,0,0,0,99,0.16,-0.32,right,1.038929200032726,,,,,,,,,,,,,,,,,,,,,,,,,,,,,,,,,,,,,,,,,,,,,,,,,,,,,,,,,,,,A983Y0,train_x,blue_star,bottom_left,2025-06-21_14h18.42.635,HideSeek_v1,2022.2.5,59.960881502255134,
,2,1,5,1,3,0,31,,train_dim1_1,1,30,,,,2,0,2,0,,,,,,,,,0,0,0,0,0,0,0,0,2,0,2,0,,,,,,,,,,,,,,,,,,,,,,,,,,,,,,,,,,,,,,,,,,,,,,,,,,,,,,,,,,,,,,,,30,,,,,,,,826.6996962999692,826.6996962999692,826.6996962999692,826.6996962999692,826.6996962999692,right,1.027029599994421,0,0,0,99,0.24,-0.32,right,0.9515962000004947,,,,,,,,,,,,,,,,,,,,,,,,,,,,,,,,,,,,,,,,,,,,,,,,,,,,,,,,,,,,A983Y0,train_x,blue_star,bottom_left,2025-06-21_14h18.42.635,HideSeek_v1,2022.2.5,59.960881502255134,
,2,1,5,1,3,0,31,,train_dim1_1,1,30,,,,2,0,2,0,,,,,,,,,0,0,0,0,0,0,0,0,3,0,3,0,,,,,,,,,,,,,,,,,,,,,,,,,,,,,,,,,,,,,,,,,,,,,,,,,,,,,,,,,,,,,,,,30,,,,,,,,827.7341112999711,827.7341112999711,827.7341112999711,827.7341112999711,827.7341112999711,right,0.9773626999231055,0,0,0,99,0.32,-0.32,right,0.9046153000090271,,,,,,,,,,,,,,,,,,,,,,,,,,,,,,,,,,,,,,,,,,,,,,,,,,,,,,,,,,,,A983Y0,train_x,blue_star,bottom_left,2025-06-21_14h18.42.635,HideSeek_v1,2022.2.5,59.960881502255134,
,2,1,5,1,3,0,31,,train_dim1_1,1,30,,,,2,0,2,0,,,,,,,,,0,0,0,0,0,0,0,0,4,0,4,0,,,,,,,,,,,,,,,,,,,,,,,,,,,,,,,,,,,,,,,,,,,,,,,,,,,,,,,,,,,,,,,,30,,,,,,,,828.7190680999774,828.7190680999774,828.7190680999774,828.7190680999774,828.7190680999774,right,1.009856199962087,0,0,0,99,0.4,-0.32,right,0.9217977999942377,,,,,,,,,,,,,,,,,,,,,,,,,,,,,,,,,,,,,,,,,,,,,,,,,,,,,,,,,,,,A983Y0,train_x,blue_star,bottom_left,2025-06-21_14h18.42.635,HideSeek_v1,2022.2.5,59.960881502255134,
,2,1,5,1,3,0,31,,train_dim1_1,1,30,,,,2,0,2,0,,,,,,,,,0,0,0,0,0,0,0,0,5,0,5,0,,,,,,,,,,,,,,,,,,,,,,,,,,,,,,,,,,,,,,,,,,,,,,,,,,,,,,,,,,,,,,,,30,,,,,,,,829.7362970999675,829.7362970999675,829.7362970999675,829.7362970999675,829.7362970999675,return,1.7610312000615522,0,0,0,0,0.4,-0.32,return,1.6737188999541104,0,5,0.4,-0.32,,,,,,,,,,,,,,,,,,,,,,,,,,,,,,,,,,,,,,,,,,,,,,,,,,,,,,,,A983Y0,train_x,blue_star,bottom_left,2025-06-21_14h18.42.635,HideSeek_v1,2022.2.5,59.960881502255134,
,2,4,7,4,5,0,11,,train_dim1_1,2,30,,,,2,0,2,0,,,,,,,,,0,0,0,0,0,1,1,1,0,0,0,0,,,,,,,,,,,,,,,,,,,,,,,,,stimuli/alien_stimuli/11.png,,,,,,,,,,,,,,,,,,,,,,,,,,,,,stimuli/alien_stimuli/31.png,31,2,3,,,,,,,30,,,,,,,,873.2537163000088,873.2537163000088,873.2537163000088,873.2537163000088,873.2537163000088,down,4.575125699979253,0,0,0,99,0,-0.16,down,4.466375300078653,,,,,871.6736788999988,873.2537163000088,0.24,-0.32,0.0,0.24,-0.32,0.24,0.12,0.24,-0.32,833.0726947999792,833.0726947999792,833.0726947999792,833.0726947999792,833.0726947999792,833.0726947999792,833.0726947999792,833.0726947999792,833.0589006499504,38.71807329996955,return,38.58514879993163,,,,,,,,,,,,,,,,,,,,,,,,,,,,,,,,,A983Y0,train_x,blue_star,bottom_left,2025-06-21_14h18.42.635,HideSeek_v1,2022.2.5,59.960881502255134,
,2,4,7,4,5,0,11,,train_dim1_1,2,30,,,,2,0,2,0,,,,,,,,,0,0,0,0,0,1,1,1,1,0,1,0,,,,,,,,,,,,,,,,,,,,,,,,,,,,,,,,,,,,,,,,,,,,,,,,,,,,,,,,,,,,,,,,30,,,,,,,,877.8140561999753,877.8140561999753,877.8140561999753,877.8140561999753,877.8140561999753,down,2.3110411999514326,0,0,0,99,0,-0.24,down,2.2230948000214994,,,,,,,,,,,,,,,,,,,,,,,,,,,,,,,,,,,,,,,,,,,,,,,,,,,,,,,,,,,,A983Y0,train_x,blue_star,bottom_left,2025-06-21_14h18.42.635,HideSeek_v1,2022.2.5,59.960881502255134,
,2,4,7,4,5,0,11,,train_dim1_1,2,30,,,,2,0,2,0,,,,,,,,,0,0,0,0,0,1,1,1,2,0,2,0,,,,,,,,,,,,,,,,,,,,,,,,,,,,,,,,,,,,,,,,,,,,,,,,,,,,,,,,,,,,,,,,30,,,,,,,,880.1311216999311,880.1311216999311,880.1311216999311,880.1311216999311,880.1311216999311,up,4.8467418000800535,0,0,0,99,0,-0.15999999999999998,up,4.761472400045022,,,,,,,,,,,,,,,,,,,,,,,,,,,,,,,,,,,,,,,,,,,,,,,,,,,,,,,,,,,,A983Y0,train_x,blue_star,bottom_left,2025-06-21_14h18.42.635,HideSeek_v1,2022.2.5,59.960881502255134,
,2,4,7,4,5,0,11,,train_dim1_1,2,30,,,,2,0,2,0,,,,,,,,,0,0,0,0,0,1,1,1,3,0,3,0,,,,,,,,,,,,,,,,,,,,,,,,,,,,,,,,,,,,,,,,,,,,,,,,,,,,,,,,,,,,,,,,30,,,,,,,,884.9857646999881,884.9857646999881,884.9857646999881,884.9857646999881,884.9857646999881,up,0.35997500002849847,0,0,0,99,0,-0.07999999999999997,up,0.26926760002970695,,,,,,,,,,,,,,,,,,,,,,,,,,,,,,,,,,,,,,,,,,,,,,,,,,,,,,,,,,,,A983Y0,train_x,blue_star,bottom_left,2025-06-21_14h18.42.635,HideSeek_v1,2022.2.5,59.960881502255134,
,2,4,7,4,5,0,11,,train_dim1_1,2,30,,,,2,0,2,0,,,,,,,,,0,0,0,0,0,1,1,1,4,0,4,0,,,,,,,,,,,,,,,,,,,,,,,,,,,,,,,,,,,,,,,,,,,,,,,,,,,,,,,,,,,,,,,,30,,,,,,,,885.352541500004,885.352541500004,885.352541500004,885.352541500004,885.352541500004,up,0.42639949999284,0,0,0,99,0,2.7755575615628914e-17,up,0.3409239000175148,,,,,,,,,,,,,,,,,,,,,,,,,,,,,,,,,,,,,,,,,,,,,,,,,,,,,,,,,,,,A983Y0,train_x,blue_star,bottom_left,2025-06-21_14h18.42.635,HideSeek_v1,2022.2.5,59.960881502255134,
,2,4,7,4,5,0,11,,train_dim1_1,2,30,,,,2,0,2,0,,,,,,,,,0,0,0,0,0,1,1,1,5,0,5,0,,,,,,,,,,,,,,,,,,,,,,,,,,,,,,,,,,,,,,,,,,,,,,,,,,,,,,,,,,,,,,,,30,,,,,,,,885.7858006999595,885.7858006999595,885.7858006999595,885.7858006999595,885.7858006999595,up,0.477085700025782,0,0,0,99,0,0.08000000000000003,up,0.3895687999902293,,,,,,,,,,,,,,,,,,,,,,,,,,,,,,,,,,,,,,,,,,,,,,,,,,,,,,,,,,,,A983Y0,train_x,blue_star,bottom_left,2025-06-21_14h18.42.635,HideSeek_v1,2022.2.5,59.960881502255134,
,2,4,7,4,5,0,11,,train_dim1_1,2,30,,,,2,0,2,0,,,,,,,,,0,0,0,0,0,1,1,1,6,0,6,0,,,,,,,,,,,,,,,,,,,,,,,,,,,,,,,,,,,,,,,,,,,,,,,,,,,,,,,,,,,,,,,,30,,,,,,,,886.2699291999452,886.2699291999452,886.2699291999452,886.2699291999452,886.2699291999452,return,1.694447199930437,0,0,0,0,0,0.08000000000000003,return,1.6157213000115007,2,5,0,0.08000000000000003,,,,,,,,,,,,,,,,,,,,,,,,,,,,,,,,,,,,,,,,,,,,,,,,,,,,,,,,A983Y0,train_x,blue_star,bottom_left,2025-06-21_14h18.42.635,HideSeek_v1,2022.2.5,59.960881502255134,
,4,4,8,4,4,0,21,,train_dim1_1,3,30,,,,2,0,2,0,,,,,,,,,0,0,0,0,0,2,2,2,0,0,0,0,,,,,,,,,,,,,,,,,,,,,,,,,stimuli/alien_stimuli/21.png,,,,,,,,,,,,,,,,,,,,,,,,,,,,,stimuli/alien_stimuli/11.png,11,2,4,,,,,,,30,,,,,,,,899.8292176999385,899.8292176999385,899.8292176999385,899.8292176999385,899.8292176999385,right,3.3085696999914944,0,0,0,99,0.24,-0.08,right,3.1912843000609428,,,,,898.2455615999643,899.8292176999385,0.4,-0.08,0.0,0.4,-0.08,0.4,0.2,0.4,-0.08,889.5561269000173,889.5561269000173,889.5561269000173,889.5561269000173,889.5561269000173,889.5561269000173,889.5561269000173,889.5561269000173,889.539455799968,8.82584720000159,return,8.660024999990128,,,,,,,,,,,,,,,,,,,,,,,,,,,,,,,,,A983Y0,train_x,blue_star,bottom_left,2025-06-21_14h18.42.635,HideSeek_v1,2022.2.5,59.960881502255134,
,4,4,8,4,4,0,21,,train_dim1_1,3,30,,,,2,0,2,0,,,,,,,,,0,0,0,0,0,2,2,2,1,0,1,0,,,,,,,,,,,,,,,,,,,,,,,,,,,,,,,,,,,,,,,,,,,,,,,,,,,,,,,,,,,,,,,,30,,,,,,,,903.1172470999882,903.1172470999882,903.1172470999882,903.1172470999882,903.1172470999882,right,0.6096904999576509,0,0,0,99,0.32,-0.08,right,0.5252623000415042,,,,,,,,,,,,,,,,,,,,,,,,,,,,,,,,,,,,,,,,,,,,,,,,,,,,,,,,,,,,A983Y0,train_x,blue_star,bottom_left,2025-06-21_14h18.42.635,HideSeek_v1,2022.2.5,59.960881502255134,
,4,4,8,4,4,0,21,,train_dim1_1,3,30,,,,2,0,2,0,,,,,,,,,0,0,0,0,0,2,2,2,2,0,2,0,,,,,,,,,,,,,,,,,,,,,,,,,,,,,,,,,,,,,,,,,,,,,,,,,,,,,,,,,,,,,,,,30,,,,,,,,903.7342145999428,903.7342145999428,903.7342145999428,903.7342145999428,903.7342145999428,right,1.2441992999520153,0,0,0,99,0.4,-0.08,right,1.1554198000812903,,,,,,,,,,,,,,,,,,,,,,,,,,,,,,,,,,,,,,,,,,,,,,,,,,,,,,,,,,,,A983Y0,train_x,blue_star,bottom_left,2025-06-21_14h18.42.635,HideSeek_v1,2022.2.5,59.960881502255134,
,4,4,8,4,4,0,21,,train_dim1_1,3,30,,,,2,0,2,0,,,,,,,,,0,0,0,0,0,2,2,2,3,0,3,0,,,,,,,,,,,,,,,,,,,,,,,,,,,,,,,,,,,,,,,,,,,,,,,,,,,,,,,,,,,,,,,,30,,,,,,,,904.9857531000162,904.9857531000162,904.9857531000162,904.9857531000162,904.9857531000162,right,0.7607496000127867,0,0,0,99,0.48000000000000004,-0.08,right,0.6703830999322236,,,,,,,,,,,,,,,,,,,,,,,,,,,,,,,,,,,,,,,,,,,,,,,,,,,,,,,,,,,,A983Y0,train_x,blue_star,bottom_left,2025-06-21_14h18.42.635,HideSeek_v1,2022.2.5,59.960881502255134,
,4,4,8,4,4,0,21,,train_dim1_1,3,30,,,,2,0,2,0,,,,,,,,,0,0,0,0,0,2,2,2,4,0,4,0,,,,,,,,,,,,,,,,,,,,,,,,,,,,,,,,,,,,,,,,,,,,,,,,,,,,,,,,,,,,,,,,30,,,,,,,,905.752790199942,905.752790199942,905.752790199942,905.752790199942,905.752790199942,return,1.3438789999345317,1,0,0,1,0.48000000000000004,-0.08,return,1.2668062000302598,2,9,0.48000000000000004,-0.08,,,,,,,,,,,,,,,,,,,,,,,,,,,,,,,,,,,,,,,,,,,,,,,,,,,,,,,,A983Y0,train_x,blue_star,bottom_left,2025-06-21_14h18.42.635,HideSeek_v1,2022.2.5,59.960881502255134,
,2,3,3,3,1,0,51,,train_dim1_1,4,30,,,,2,0,2,0,,,,,,,,,0,0,0,0,0,3,3,3,0,0,0,0,,,,,,,,,,,,,,,,,,,,,,,,,stimuli/alien_stimuli/51.png,,,,,,,,,,,,,,,,,,,,,,,,,,,,,stimuli/alien_stimuli/21.png,21,4,5,,,,,,,30,,,,,,,,915.4735807999969,915.4735807999969,915.4735807999969,915.4735807999969,915.4735807999969,right,1.8700109999626875,1,0,0,99,0.08,-0.16,right,1.7802660999586806,,,,,913.9084790999768,915.4735807999969,0.48,-0.08,0.0,0.32,-0.08,0.48,0.32,0.48,-0.08,908.6767264999216,908.6767264999216,908.6767264999216,908.6767264999216,908.6767264999216,908.6767264999216,908.6767264999216,908.6767264999216,908.6548768499051,5.356745400000364,return,5.2036116000963375,,,,,,,,,,,,,,,,,,,,,,,,,,,,,,,,,A983Y0,train_x,blue_star,bottom_left,2025-06-21_14h18.42.635,HideSeek_v1,2022.2.5,59.960881502255134,
,2,3,3,3,1,0,51,,train_dim1_1,4,30,,,,2,0,2,0,,,,,,,,,0,0,0,0,0,3,3,3,1,0,1,0,,,,,,,,,,,,,,,,,,,,,,,,,,,,,,,,,,,,,,,,,,,,,,,,,,,,,,,,,,,,,,,,30,,,,,,,,917.3439961000113,917.3439961000113,917.3439961000113,917.3439961000113,917.3439961000113,right,0.8100110999075696,1,0,0,99,0.16,-0.16,right,0.728437399957329,,,,,,,,,,,,,,,,,,,,,,,,,,,,,,,,,,,,,,,,,,,,,,,,,,,,,,,,,,,,A983Y0,train_x,blue_star,bottom_left,2025-06-21_14h18.42.635,HideSeek_v1,2022.2.5,59.960881502255134,
,2,3,3,3,1,0,51,,train_dim1_1,4,30,,,,2,0,2,0,,,,,,,,,0,0,0,0,0,3,3,3,2,0,2,0,,,,,,,,,,,,,,,,,,,,,,,,,,,,,,,,,,,,,,,,,,,,,,,,,,,,,,,,,,,,,,,,30,,,,,,,,918.1621051999973,918.1621051999973,918.1621051999973,918.1621051999973,918.1621051999973,left,1.4775613999227062,1,0,0,99,0.08,-0.16,left,1.3892998000374064,,,,,,,,,,,,,,,,,,,,,,,,,,,,,,,,,,,,,,,,,,,,,,,,,,,,,,,,,,,,A983Y0,train_x,blue_star,bottom_left,2025-06-21_14h18.42.635,HideSeek_v1,2022.2.5,59.960881502255134,
,2,3,3,3,1,0,51,,train_dim1_1,4,30,,,,2,0,2,0,,,,,,,,,0,0,0,0,0,3,3,3,3,0,3,0,,,,,,,,,,,,,,,,,,,,,,,,,,,,,,,,,,,,,,,,,,,,,,,,,,,,,,,,,,,,,,,,30,,,,,,,,919.6476923999144,919.6476923999144,919.6476923999144,919.6476923999144,919.6476923999144,left,0.3432655999204144,1,0,0,99,0.0,-0.16,left,0.2590503999963403,,,,,,,,,,,,,,,,,,,,,,,,,,,,,,,,,,,,,,,,,,,,,,,,,,,,,,,,,,,,A983Y0,train_x,blue_star,bottom_left,2025-06-21_14h18.42.635,HideSeek_v1,2022.2.5,59.960881502255134,
,2,3,3,3,1,0,51,,train_dim1_1,4,30,,,,2,0,2,0,,,,,,,,,0,0,0,0,0,3,3,3,4,0,4,0,,,,,,,,,,,,,,,,,,,,,,,,,,,,,,,,,,,,,,,,,,,,,,,,,,,,,,,,,,,,,,,,30,,,,,,,,919.9965525999432,919.9965525999432,919.9965525999432,919.9965525999432,919.9965525999432,return,1.2275911999167874,1,1,0,0,0.0,-0.16,return,1.1439759000204504,2,9,0.0,-0.16,,,,,,,,,,,,,,,,,,,,,,,,,,,,,,,,,,,,,,,,,,,,,,,,,,,,,,,,A983Y0,train_x,blue_star,bottom_left,2025-06-21_14h18.42.635,HideSeek_v1,2022.2.5,59.960881502255134,
,0,2,0,2,0,0,61,,train_dim1_1,5,30,,,,2,0,2,0,,,,,,,,,0,0,0,0,0,4,4,4,0,0,0,0,,,,,,,,,,,,,,,,,,,,,,,,,stimuli/alien_stimuli/61.png,,,,,,,,,,,,,,,,,,,,,,,,,,,,,stimuli/alien_stimuli/51.png,51,2,6,,,,,,,30,,,,,,,,932.1649449999677,932.1649449999677,932.1649449999677,932.1649449999677,932.1649449999677,left,4.242206099908799,1,1,0,99,-0.24,-0.24,left,4.161869999952614,,,,,930.6056728999829,932.1649449999677,0.08,-0.16,0.0,0.08,-0.16,0.08,0.04,0.08,-0.16,922.809252499952,922.809252499952,922.809252499952,922.809252499952,922.809252499952,922.809252499952,922.809252499952,922.809252499952,922.8003332999069,7.925585799966939,return,7.778194700018503,,,,,,,,,,,,,,,,,,,,,,,,,,,,,,,,,A983Y0,train_x,blue_star,bottom_left,2025-06-21_14h18.42.635,HideSeek_v1,2022.2.5,59.960881502255134,
,0,2,0,2,0,0,61,,train_dim1_1,5,30,,,,2,0,2,0,,,,,,,,,0,0,0,0,0,4,4,4,1,0,1,0,,,,,,,,,,,,,,,,,,,,,,,,,,,,,,,,,,,,,,,,,,,,,,,,,,,,,,,,,,,,,,,,30,,,,,,,,936.409098999924,936.409098999924,936.409098999924,936.409098999924,936.409098999924,right,0.8759669000282884,1,1,0,99,-0.15999999999999998,-0.24,right,0.7919154999544844,,,,,,,,,,,,,,,,,,,,,,,,,,,,,,,,,,,,,,,,,,,,,,,,,,,,,,,,,,,,A983Y0,train_x,blue_star,bottom_left,2025-06-21_14h18.42.635,HideSeek_v1,2022.2.5,59.960881502255134,
,0,2,0,2,0,0,61,,train_dim1_1,5,30,,,,2,0,2,0,,,,,,,,,0,0,0,0,0,4,4,4,2,0,2,0,,,,,,,,,,,,,,,,,,,,,,,,,,,,,,,,,,,,,,,,,,,,,,,,,,,,,,,,,,,,,,,,30,,,,,,,,937.2906335999724,937.2906335999724,937.2906335999724,937.2906335999724,937.2906335999724,return,0.6933945999480784,2,0,0,1,-0.15999999999999998,-0.24,return,0.6151185999624431,2,9,-0.15999999999999998,-0.24,,,,,,,,,,,,,,,,,,,,,,,,,,,,,,,,,,,,,,,,,,,,,,,,,,,,,,,,A983Y0,train_x,blue_star,bottom_left,2025-06-21_14h18.42.635,HideSeek_v1,2022.2.5,59.960881502255134,
,0,0,4,0,4,0,21,,train_dim1_1,6,30,,,,2,0,2,0,,,,,,,,,0,0,0,0,0,5,5,5,0,0,0,0,,,,,,,,,,,,,,,,,,,,,,,,,stimuli/alien_stimuli/21.png,,,,,,,,,,,,,,,,,,,,,,,,,,,,,stimuli/alien_stimuli/61.png,61,0,7,,,,,,,30,,,,,,,,943.6541076999856,943.6541076999856,943.6541076999856,943.6541076999856,943.6541076999856,right,2.0560636000009254,2,0,0,99,-0.08,-0.4,right,1.9430587999522686,,,,,942.0652556999121,943.6541076999856,-0.16,-0.24,0.0,0.0,-0.24,-0.16,-0.16,-0.16,-0.24,939.5676636999706,939.5676636999706,939.5676636999706,939.5676636999706,939.5676636999706,939.5676636999706,939.5676636999706,939.5676636999706,939.5473059499054,2.6209236999275163,return,2.4762003000359982,,,,,,,,,,,,,,,,,,,,,,,,,,,,,,,,,A983Y0,train_x,blue_star,bottom_left,2025-06-21_14h18.42.635,HideSeek_v1,2022.2.5,59.960881502255134,
,0,0,4,0,4,0,21,,train_dim1_1,6,30,,,,2,0,2,0,,,,,,,,,0,0,0,0,0,5,5,5,1,0,1,0,,,,,,,,,,,,,,,,,,,,,,,,,,,,,,,,,,,,,,,,,,,,,,,,,,,,,,,,,,,,,,,,30,,,,,,,,945.6860141999787,945.6860141999787,945.6860141999787,945.6860141999787,945.6860141999787,right,0.44298340007662773,2,0,0,99,0.0,-0.4,right,0.35892160004004836,,,,,,,,,,,,,,,,,,,,,,,,,,,,,,,,,,,,,,,,,,,,,,,,,,,,,,,,,,,,A983Y0,train_x,blue_star,bottom_left,2025-06-21_14h18.42.635,HideSeek_v1,2022.2.5,59.960881502255134,
,0,0,4,0,4,0,21,,train_dim1_1,6,30,,,,2,0,2,0,,,,,,,,,0,0,0,0,0,5,5,5,2,0,2,0,,,,,,,,,,,,,,,,,,,,,,,,,,,,,,,,,,,,,,,,,,,,,,,,,,,,,,,,,,,,,,,,30,,,,,,,,946.1360722999088,946.1360722999088,946.1360722999088,946.1360722999088,946.1360722999088,right,0.47693070000968874,2,0,0,99,0.08,-0.4,right,0.38722529995720834,,,,,,,,,,,,,,,,,,,,,,,,,,,,,,,,,,,,,,,,,,,,,,,,,,,,,,,,,,,,A983Y0,train_x,blue_star,bottom_left,2025-06-21_14h18.42.635,HideSeek_v1,2022.2.5,59.960881502255134,
,0,0,4,0,4,0,21,,train_dim1_1,6,30,,,,2,0,2,0,,,,,,,,,0,0,0,0,0,5,5,5,3,0,3,0,,,,,,,,,,,,,,,,,,,,,,,,,,,,,,,,,,,,,,,,,,,,,,,,,,,,,,,,,,,,,,,,30,,,,,,,,946.6196342000039,946.6196342000039,946.6196342000039,946.6196342000039,946.6196342000039,right,0.49327410000842065,2,0,0,99,0.16,-0.4,right,0.41293989995028824,,,,,,,,,,,,,,,,,,,,,,,,,,,,,,,,,,,,,,,,,,,,,,,,,,,,,,,,,,,,A983Y0,train_x,blue_star,bottom_left,2025-06-21_14h18.42.635,HideSeek_v1,2022.2.5,59.960881502255134,
,0,0,4,0,4,0,21,,train_dim1_1,6,30,,,,2,0,2,0,,,,,,,,,0,0,0,0,0,5,5,5,4,0,4,0,,,,,,,,,,,,,,,,,,,,,,,,,,,,,,,,,,,,,,,,,,,,,,,,,,,,,,,,,,,,,,,,30,,,,,,,,947.1218451999594,947.1218451999594,947.1218451999594,947.1218451999594,947.1218451999594,right,0.49340359994675964,2,0,0,99,0.24,-0.4,right,0.4025961000006646,,,,,,,,,,,,,,,,,,,,,,,,,,,,,,,,,,,,,,,,,,,,,,,,,,,,,,,,,,,,A983Y0,train_x,blue_star,bottom_left,2025-06-21_14h18.42.635,HideSeek_v1,2022.2.5,59.960881502255134,
,0,0,4,0,4,0,21,,train_dim1_1,6,30,,,,2,0,2,0,,,,,,,,,0,0,0,0,0,5,5,5,5,0,5,0,,,,,,,,,,,,,,,,,,,,,,,,,,,,,,,,,,,,,,,,,,,,,,,,,,,,,,,,,,,,,,,,30,,,,,,,,947.6210239999928,947.6210239999928,947.6210239999928,947.6210239999928,947.6210239999928,return,0.7603309000842273,2,1,0,0,0.24,-0.4,return,0.6827533999457955,2,14,0.24,-0.4,,,,,,,,,,,,,,,,,,,,,,,,,,,,,,,,,,,,,,,,,,,,,,,,,,,,,,,,A983Y0,train_x,blue_star,bottom_left,2025-06-21_14h18.42.635,HideSeek_v1,2022.2.5,59.960881502255134,
,3,0,3,0,0,0,61,,train_dim1_1,7,30,,,,2,0,2,0,,,,,,,,,0,0,0,0,0,6,6,6,0,0,0,0,,,,,,,,,,,,,,,,,,,,,,,,,stimuli/alien_stimuli/61.png,,,,,,,,,,,,,,,,,,,,,,,,,,,,,stimuli/alien_stimuli/21.png,21,0,8,,,,,,,30,,,,,,,,954.4015050999587,954.4015050999587,954.4015050999587,954.4015050999587,954.4015050999587,down,2.355461400002241,2,1,0,99,0.08,-0.48000000000000004,down,2.2632603000383824,,,,,952.8407758999383,954.4015050999587,0.16,-0.4,0.0,0.32,-0.4,0.16,0.0,0.16,-0.4,949.9502166999737,949.9502166999737,949.9502166999737,949.9502166999737,949.9502166999737,949.9502166999737,949.9502166999737,949.9502166999737,949.9391972498852,3.0046437999699265,return,2.8585815000114962,,,,,,,,,,,,,,,,,,,,,,,,,,,,,,,,,A983Y0,train_x,blue_star,bottom_left,2025-06-21_14h18.42.635,HideSeek_v1,2022.2.5,59.960881502255134,
,3,0,3,0,0,0,61,,train_dim1_1,7,30,,,,2,0,2,0,,,,,,,,,0,0,0,0,0,6,6,6,1,0,1,0,,,,,,,,,,,,,,,,,,,,,,,,,,,,,,,,,,,,,,,,,,,,,,,,,,,,,,,,,,,,,,,,30,,,,,,,,956.7575248000212,956.7575248000212,956.7575248000212,956.7575248000212,956.7575248000212,up,1.460427000070922,2,1,0,99,0.08,-0.4,up,1.3804348999401554,,,,,,,,,,,,,,,,,,,,,,,,,,,,,,,,,,,,,,,,,,,,,,,,,,,,,,,,,,,,A983Y0,train_x,blue_star,bottom_left,2025-06-21_14h18.42.635,HideSeek_v1,2022.2.5,59.960881502255134,
,3,0,3,0,0,0,61,,train_dim1_1,7,30,,,,2,0,2,0,,,,,,,,,0,0,0,0,0,6,6,6,2,0,2,0,,,,,,,,,,,,,,,,,,,,,,,,,,,,,,,,,,,,,,,,,,,,,,,,,,,,,,,,,,,,,,,,30,,,,,,,,958.2253924999386,958.2253924999386,958.2253924999386,958.2253924999386,958.2253924999386,return,0.6434936999576166,3,0,0,1,0.08,-0.4,return,0.55509759997949,2,14,0.08,-0.4,,,,,,,,,,,,,,,,,,,,,,,,,,,,,,,,,,,,,,,,,,,,,,,,,,,,,,,,A983Y0,train_x,blue_star,bottom_left,2025-06-21_14h18.42.635,HideSeek_v1,2022.2.5,59.960881502255134,
,0,4,3,4,3,0,31,,train_dim1_1,8,30,,,,2,0,2,0,,,,,,,,,0,0,0,0,0,7,7,7,0,0,0,0,,,,,,,,,,,,,,,,,,,,,,,,,stimuli/alien_stimuli/31.png,,,,,,,,,,,,,,,,,,,,,,,,,,,,,stimuli/alien_stimuli/61.png,61,3,9,,,,,,,30,,,,,,,,964.7259688000195,964.7259688000195,964.7259688000195,964.7259688000195,964.7259688000195,right,1.9055901999818161,3,0,0,99,-0.08,-0.08,right,1.8270457999315113,,,,,963.1659786999226,964.7259688000195,0.08,-0.4,0.0,0.0,-0.4,0.08,0.08,0.08,-0.4,960.4555401999969,960.4555401999969,960.4555401999969,960.4555401999969,960.4555401999969,960.4555401999969,960.4555401999969,960.4555401999969,960.4480842999183,2.837773900013417,return,2.6899611999979243,,,,,,,,,,,,,,,,,,,,,,,,,,,,,,,,,A983Y0,train_x,blue_star,bottom_left,2025-06-21_14h18.42.635,HideSeek_v1,2022.2.5,59.960881502255134,
,0,4,3,4,3,0,31,,train_dim1_1,8,30,,,,2,0,2,0,,,,,,,,,0,0,0,0,0,7,7,7,1,0,1,0,,,,,,,,,,,,,,,,,,,,,,,,,,,,,,,,,,,,,,,,,,,,,,,,,,,,,,,,,,,,,,,,30,,,,,,,,966.6332020999398,966.6332020999398,966.6332020999398,966.6332020999398,966.6332020999398,right,0.4094421999761835,3,0,0,99,0.0,-0.08,right,0.3271746000973508,,,,,,,,,,,,,,,,,,,,,,,,,,,,,,,,,,,,,,,,,,,,,,,,,,,,,,,,,,,,A983Y0,train_x,blue_star,bottom_left,2025-06-21_14h18.42.635,HideSeek_v1,2022.2.5,59.960881502255134,
,0,4,3,4,3,0,31,,train_dim1_1,8,30,,,,2,0,2,0,,,,,,,,,0,0,0,0,0,7,7,7,2,0,2,0,,,,,,,,,,,,,,,,,,,,,,,,,,,,,,,,,,,,,,,,,,,,,,,,,,,,,,,,,,,,,,,,30,,,,,,,,967.0493827000028,967.0493827000028,967.0493827000028,967.0493827000028,967.0493827000028,right,0.42664169997442514,3,0,0,99,0.08,-0.08,right,0.33840190002229065,,,,,,,,,,,,,,,,,,,,,,,,,,,,,,,,,,,,,,,,,,,,,,,,,,,,,,,,,,,,A983Y0,train_x,blue_star,bottom_left,2025-06-21_14h18.42.635,HideSeek_v1,2022.2.5,59.960881502255134,
,0,4,3,4,3,0,31,,train_dim1_1,8,30,,,,2,0,2,0,,,,,,,,,0,0,0,0,0,7,7,7,3,0,3,0,,,,,,,,,,,,,,,,,,,,,,,,,,,,,,,,,,,,,,,,,,,,,,,,,,,,,,,,,,,,,,,,30,,,,,,,,967.4868950999808,967.4868950999808,967.4868950999808,967.4868950999808,967.4868950999808,right,0.40740350005216897,3,0,0,99,0.16,-0.08,right,0.3263786000898108,,,,,,,,,,,,,,,,,,,,,,,,,,,,,,,,,,,,,,,,,,,,,,,,,,,,,,,,,,,,A983Y0,train_x,blue_star,bottom_left,2025-06-21_14h18.42.635,HideSeek_v1,2022.2.5,59.960881502255134,
,0,4,3,4,3,0,31,,train_dim1_1,8,30,,,,2,0,2,0,,,,,,,,,0,0,0,0,0,7,7,7,4,0,4,0,,,,,,,,,,,,,,,,,,,,,,,,,,,,,,,,,,,,,,,,,,,,,,,,,,,,,,,,,,,,,,,,30,,,,,,,,967.9002820999594,967.9002820999594,967.9002820999594,967.9002820999594,967.9002820999594,right,0.40982629999052733,3,0,0,99,0.24,-0.08,right,0.3374024999793619,,,,,,,,,,,,,,,,,,,,,,,,,,,,,,,,,,,,,,,,,,,,,,,,,,,,,,,,,,,,A983Y0,train_x,blue_star,bottom_left,2025-06-21_14h18.42.635,HideSeek_v1,2022.2.5,59.960881502255134,
,0,4,3,4,3,0,31,,train_dim1_1,8,30,,,,2,0,2,0,,,,,,,,,0,0,0,0,0,7,7,7,5,0,5,0,,,,,,,,,,,,,,,,,,,,,,,,,,,,,,,,,,,,,,,,,,,,,,,,,,,,,,,,,,,,,,,,30,,,,,,,,968.3180445999606,968.3180445999606,968.3180445999606,968.3180445999606,968.3180445999606,return,0.6435562999686226,3,0,0,0,0.24,-0.08,return,0.5562286999775097,2,19,0.24,-0.08,,,,,,,,,,,,,,,,,,,,,,,,,,,,,,,,,,,,,,,,,,,,,,,,,,,,,,,,A983Y0,train_x,blue_star,bottom_left,2025-06-21_14h18.42.635,HideSeek_v1,2022.2.5,59.960881502255134,
,1,0,2,0,1,0,51,,train_dim1_1,9,30,,,,2,0,2,0,,,,,,,,,0,0,0,0,0,8,8,8,0,0,0,0,,,,,,,,,,,,,,,,,,,,,,,,,stimuli/alien_stimuli/51.png,,,,,,,,,,,,,,,,,,,,,,,,,,,,,stimuli/alien_stimuli/31.png,31,0,10,,,,,,,30,,,,,,,,973.7721264999127,973.7721264999127,973.7721264999127,973.7721264999127,973.7721264999127,up,2.673120400053449,3,0,0,99,-0.08,-0.32,up,2.557905300054699,,,,,972.1904463999672,973.7721264999127,0.08,-0.08,0.0,0.24,-0.08,0.08,-0.04,0.08,-0.08,970.5253516999073,970.5253516999073,970.5253516999073,970.5253516999073,970.5253516999073,970.5253516999073,970.5253516999073,970.5253516999073,970.5062804999761,1.7704451000317931,return,1.644373600021936,,,,,,,,,,,,,,,,,,,,,,,,,,,,,,,,,A983Y0,train_x,blue_star,bottom_left,2025-06-21_14h18.42.635,HideSeek_v1,2022.2.5,59.960881502255134,
,1,0,2,0,1,0,51,,train_dim1_1,9,30,,,,2,0,2,0,,,,,,,,,0,0,0,0,0,8,8,8,1,0,1,0,,,,,,,,,,,,,,,,,,,,,,,,,,,,,,,,,,,,,,,,,,,,,,,,,,,,,,,,,,,,,,,,30,,,,,,,,976.4278173999628,976.4278173999628,976.4278173999628,976.4278173999628,976.4278173999628,return,1.7272556000389159,3,0,0,0,-0.08,-0.32,return,1.6408132000360638,3,19,-0.08,-0.32,,,,,,,,,,,,,,,,,,,,,,,,,,,,,,,,,,,,,,,,,,,,,,,,,,,,,,,,A983Y0,train_x,blue_star,bottom_left,2025-06-21_14h18.42.635,HideSeek_v1,2022.2.5,59.960881502255134,
,0,3,5,3,5,0,11,,train_dim1_1,10,30,,,,2,0,2,0,,,,,,,,,0,0,0,0,0,9,9,9,0,0,0,0,,,,,,,,,,,,,,,,,,,,,,,,,stimuli/alien_stimuli/11.png,,,,,,,,,,,,,,,,,,,,,,,,,,,,,stimuli/alien_stimuli/51.png,51,1,11,,,,,,,30,,,,,,,,983.2970003000228,983.2970003000228,983.2970003000228,983.2970003000228,983.2970003000228,right,2.673447500099428,3,0,0,99,-0.08,-0.16,right,2.557127800071612,,,,,981.7151549999835,983.2970003000228,0,-0.4,0.0,0.08,-0.4,0,-0.04,0,-0.4,979.7212398999836,979.7212398999836,979.7212398999836,979.7212398999836,979.7212398999836,979.7212398999836,979.7212398999836,979.7212398999836,979.7148907499504,2.103032600018196,return,1.974975400022231,,,,,,,,,,,,,,,,,,,,,,,,,,,,,,,,,A983Y0,train_x,blue_star,bottom_left,2025-06-21_14h18.42.635,HideSeek_v1,2022.2.5,59.960881502255134,
,0,3,5,3,5,0,11,,train_dim1_1,10,30,,,,2,0,2,0,,,,,,,,,0,0,0,0,0,9,9,9,1,0,1,0,,,,,,,,,,,,,,,,,,,,,,,,,,,,,,,,,,,,,,,,,,,,,,,,,,,,,,,,,,,,,,,,30,,,,,,,,985.969105499913,985.969105499913,985.969105499913,985.969105499913,985.969105499913,right,0.2930493999738246,3,0,0,99,0.0,-0.16,right,0.1990710999816656,,,,,,,,,,,,,,,,,,,,,,,,,,,,,,,,,,,,,,,,,,,,,,,,,,,,,,,,,,,,A983Y0,train_x,blue_star,bottom_left,2025-06-21_14h18.42.635,HideSeek_v1,2022.2.5,59.960881502255134,
,0,3,5,3,5,0,11,,train_dim1_1,10,30,,,,2,0,2,0,,,,,,,,,0,0,0,0,0,9,9,9,2,0,2,0,,,,,,,,,,,,,,,,,,,,,,,,,,,,,,,,,,,,,,,,,,,,,,,,,,,,,,,,,,,,,,,,30,,,,,,,,986.253279699944,986.253279699944,986.253279699944,986.253279699944,986.253279699944,right,0.29315310006495565,3,0,0,99,0.08,-0.16,right,0.21546780003700405,,,,,,,,,,,,,,,,,,,,,,,,,,,,,,,,,,,,,,,,,,,,,,,,,,,,,,,,,,,,A983Y0,train_x,blue_star,bottom_left,2025-06-21_14h18.42.635,HideSeek_v1,2022.2.5,59.960881502255134,
,0,3,5,3,5,0,11,,train_dim1_1,10,30,,,,2,0,2,0,,,,,,,,,0,0,0,0,0,9,9,9,3,0,3,0,,,,,,,,,,,,,,,,,,,,,,,,,,,,,,,,,,,,,,,,,,,,,,,,,,,,,,,,,,,,,,,,30,,,,,,,,986.5537194999633,986.5537194999633,986.5537194999633,986.5537194999633,986.5537194999633,right,0.29333750007208437,3,0,0,99,0.16,-0.16,right,0.20597950008232147,,,,,,,,,,,,,,,,,,,,,,,,,,,,,,,,,,,,,,,,,,,,,,,,,,,,,,,,,,,,A983Y0,train_x,blue_star,bottom_left,2025-06-21_14h18.42.635,HideSeek_v1,2022.2.5,59.960881502255134,
,0,3,5,3,5,0,11,,train_dim1_1,10,30,,,,2,0,2,0,,,,,,,,,0,0,0,0,0,9,9,9,4,0,4,0,,,,,,,,,,,,,,,,,,,,,,,,,,,,,,,,,,,,,,,,,,,,,,,,,,,,,,,,,,,,,,,,30,,,,,,,,986.8530948999105,986.8530948999105,986.8530948999105,986.8530948999105,986.8530948999105,right,0.32615089998580515,3,0,0,99,0.24,-0.16,right,0.24249969993252307,,,,,,,,,,,,,,,,,,,,,,,,,,,,,,,,,,,,,,,,,,,,,,,,,,,,,,,,,,,,A983Y0,train_x,blue_star,bottom_left,2025-06-21_14h18.42.635,HideSeek_v1,2022.2.5,59.960881502255134,
,0,3,5,3,5,0,11,,train_dim1_1,10,30,,,,2,0,2,0,,,,,,,,,0,0,0,0,0,9,9,9,5,0,5,0,,,,,,,,,,,,,,,,,,,,,,,,,,,,,,,,,,,,,,,,,,,,,,,,,,,,,,,,,,,,,,,,30,,,,,,,,987.1868717999896,987.1868717999896,987.1868717999896,987.1868717999896,987.1868717999896,return,0.8600796000100672,4,0,0,1,0.24,-0.16,return,0.7785197999328375,3,24,0.24,-0.16,,,,,,,,,,,,,,,,,,,,,,,,,,,,,,,,,,,,,,,,,,,,,,,,,,,,,,,,A983Y0,train_x,blue_star,bottom_left,2025-06-21_14h18.42.635,HideSeek_v1,2022.2.5,59.960881502255134,
,2,2,5,2,3,0,31,,train_dim1_1,11,30,,,,2,0,2,0,,,,,,,,,0,0,0,0,0,10,10,10,0,0,0,0,,,,,,,,,,,,,,,,,,,,,,,,,stimuli/alien_stimuli/31.png,,,,,,,,,,,,,,,,,,,,,,,,,,,,,stimuli/alien_stimuli/11.png,11,0,12,,,,,,,30,,,,,,,,993.7186130000046,993.7186130000046,993.7186130000046,993.7186130000046,993.7186130000046,right,2.623941299971193,4,0,0,99,0.08,-0.24,right,2.528889099950902,,,,,992.1566976999165,993.7186130000046,0.24,-0.16,0.0,0.4,-0.16,0.24,0.039999999999999994,0.24,-0.16,989.6107872999273,989.6107872999273,989.6107872999273,989.6107872999273,989.6107872999273,989.6107872999273,989.6107872999273,989.6107872999273,989.5888447999023,2.6541925999335945,return,2.513692400068976,,,,,,,,,,,,,,,,,,,,,,,,,,,,,,,,,A983Y0,train_x,blue_star,bottom_left,2025-06-21_14h18.42.635,HideSeek_v1,2022.2.5,59.960881502255134,
,2,2,5,2,3,0,31,,train_dim1_1,11,30,,,,2,0,2,0,,,,,,,,,0,0,0,0,0,10,10,10,1,0,1,0,,,,,,,,,,,,,,,,,,,,,,,,,,,,,,,,,,,,,,,,,,,,,,,,,,,,,,,,,,,,,,,,30,,,,,,,,996.3403483999427,996.3403483999427,996.3403483999427,996.3403483999427,996.3403483999427,right,0.30987749993801117,4,0,0,99,0.16,-0.24,right,0.2303412000183016,,,,,,,,,,,,,,,,,,,,,,,,,,,,,,,,,,,,,,,,,,,,,,,,,,,,,,,,,,,,A983Y0,train_x,blue_star,bottom_left,2025-06-21_14h18.42.635,HideSeek_v1,2022.2.5,59.960881502255134,
,2,2,5,2,3,0,31,,train_dim1_1,11,30,,,,2,0,2,0,,,,,,,,,0,0,0,0,0,10,10,10,2,0,2,0,,,,,,,,,,,,,,,,,,,,,,,,,,,,,,,,,,,,,,,,,,,,,,,,,,,,,,,,,,,,,,,,30,,,,,,,,996.6570863999659,996.6570863999659,996.6570863999659,996.6570863999659,996.6570863999659,right,0.2604064999613911,4,0,0,99,0.24,-0.24,right,0.17589970002882183,,,,,,,,,,,,,,,,,,,,,,,,,,,,,,,,,,,,,,,,,,,,,,,,,,,,,,,,,,,,A983Y0,train_x,blue_star,bottom_left,2025-06-21_14h18.42.635,HideSeek_v1,2022.2.5,59.960881502255134,
,2,2,5,2,3,0,31,,train_dim1_1,11,30,,,,2,0,2,0,,,,,,,,,0,0,0,0,0,10,10,10,3,0,3,0,,,,,,,,,,,,,,,,,,,,,,,,,,,,,,,,,,,,,,,,,,,,,,,,,,,,,,,,,,,,,,,,30,,,,,,,,996.9245200000005,996.9245200000005,996.9245200000005,996.9245200000005,996.9245200000005,right,0.32663000002503395,4,0,0,99,0.32,-0.24,right,0.23780310002621263,,,,,,,,,,,,,,,,,,,,,,,,,,,,,,,,,,,,,,,,,,,,,,,,,,,,,,,,,,,,A983Y0,train_x,blue_star,bottom_left,2025-06-21_14h18.42.635,HideSeek_v1,2022.2.5,59.960881502255134,
,2,2,5,2,3,0,31,,train_dim1_1,11,30,,,,2,0,2,0,,,,,,,,,0,0,0,0,0,10,10,10,4,0,4,0,,,,,,,,,,,,,,,,,,,,,,,,,,,,,,,,,,,,,,,,,,,,,,,,,,,,,,,,,,,,,,,,30,,,,,,,,997.258649699972,997.258649699972,997.258649699972,997.258649699972,997.258649699972,return,0.6093728999840096,4,1,0,0,0.32,-0.24,return,0.5268454999895766,3,28,0.32,-0.24,,,,,,,,,,,,,,,,,,,,,,,,,,,,,,,,,,,,,,,,,,,,,,,,,,,,,,,,A983Y0,train_x,blue_star,bottom_left,2025-06-21_14h18.42.635,HideSeek_v1,2022.2.5,59.960881502255134,
,0,0,4,0,4,0,21,,train_dim1_1,12,30,,,,2,0,2,0,,,,,,,,,0,0,0,0,0,11,11,11,0,0,0,0,,,,,,,,,,,,,,,,,,,,,,,,,stimuli/alien_stimuli/21.png,,,,,,,,,,,,,,,,,,,,,,,,,,,,,stimuli/alien_stimuli/31.png,31,2,13,,,,,,,30,,,,,,,,1003.9480157999787,1003.9480157999787,1003.9480157999787,1003.9480157999787,1003.9480157999787,right,2.4041255000047386,4,1,0,99,-0.08,-0.4,right,2.3141457999590784,,,,,1002.3817553999834,1003.9480157999787,0.24,-0.24,0.0,0.24,-0.24,0.24,0.12,0.24,-0.24,999.4310310999863,999.4310310999863,999.4310310999863,999.4310310999863,999.4310310999863,999.4310310999863,999.4310310999863,999.4310310999863,999.4134284999454,3.0546687999740243,return,2.9189037999603897,,,,,,,,,,,,,,,,,,,,,,,,,,,,,,,,,A983Y0,train_x,blue_star,bottom_left,2025-06-21_14h18.42.635,HideSeek_v1,2022.2.5,59.960881502255134,
,0,0,4,0,4,0,21,,train_dim1_1,12,30,,,,2,0,2,0,,,,,,,,,0,0,0,0,0,11,11,11,1,0,1,0,,,,,,,,,,,,,,,,,,,,,,,,,,,,,,,,,,,,,,,,,,,,,,,,,,,,,,,,,,,,,,,,30,,,,,,,,1006.3553019999526,1006.3553019999526,1006.3553019999526,1006.3553019999526,1006.3553019999526,right,1.5255658000241965,4,1,0,99,0.0,-0.4,right,1.447490100050345,,,,,,,,,,,,,,,,,,,,,,,,,,,,,,,,,,,,,,,,,,,,,,,,,,,,,,,,,,,,A983Y0,train_x,blue_star,bottom_left,2025-06-21_14h18.42.635,HideSeek_v1,2022.2.5,59.960881502255134,
,0,0,4,0,4,0,21,,train_dim1_1,12,30,,,,2,0,2,0,,,,,,,,,0,0,0,0,0,11,11,11,2,0,2,0,,,,,,,,,,,,,,,,,,,,,,,,,,,,,,,,,,,,,,,,,,,,,,,,,,,,,,,,,,,,,,,,30,,,,,,,,1007.885994900018,1007.885994900018,1007.885994900018,1007.885994900018,1007.885994900018,right,1.1273681999882683,4,1,0,99,0.08,-0.4,right,1.0457044999348,,,,,,,,,,,,,,,,,,,,,,,,,,,,,,,,,,,,,,,,,,,,,,,,,,,,,,,,,,,,A983Y0,train_x,blue_star,bottom_left,2025-06-21_14h18.42.635,HideSeek_v1,2022.2.5,59.960881502255134,
,0,0,4,0,4,0,21,,train_dim1_1,12,30,,,,2,0,2,0,,,,,,,,,0,0,0,0,0,11,11,11,3,0,3,0,,,,,,,,,,,,,,,,,,,,,,,,,,,,,,,,,,,,,,,,,,,,,,,,,,,,,,,,,,,,,,,,30,,,,,,,,1009.0280434999149,1009.0280434999149,1009.0280434999149,1009.0280434999149,1009.0280434999149,return,4.413362600025721,4,1,0,0,0.08,-0.4,return,4.324427300016396,3,31,0.08,-0.4,,,,,,,,,,,,,,,,,,,,,,,,,,,,,,,,,,,,,,,,,,,,,,,,,,,,,,,,A983Y0,train_x,blue_star,bottom_left,2025-06-21_14h18.42.635,HideSeek_v1,2022.2.5,59.960881502255134,
,0,4,1,4,1,0,51,,train_dim1_1,13,30,,,,2,0,2,0,,,,,,,,,0,0,0,0,0,12,12,12,0,0,0,0,,,,,,,,,,,,,,,,,,,,,,,,,stimuli/alien_stimuli/51.png,,,,,,,,,,,,,,,,,,,,,,,,,,,,,stimuli/alien_stimuli/21.png,21,0,14,,,,,,,30,,,,,,,,1020.5575078999391,1020.5575078999391,1020.5575078999391,1020.5575078999391,1020.5575078999391,right,2.188767099985853,4,1,0,99,-0.08,-0.08,right,2.100632300018333,,,,,1018.9958647999447,1020.5575078999391,0.16,-0.4,0.0,0.32,-0.4,0.16,0.0,0.16,-0.4,1015.0412897999631,1015.0412897999631,1015.0412897999631,1015.0412897999631,1015.0412897999631,1015.0412897999631,1015.0412897999631,1015.0412897999631,1015.0269067498739,4.1057002999586985,return,3.9311915000434965,,,,,,,,,,,,,,,,,,,,,,,,,,,,,,,,,A983Y0,train_x,blue_star,bottom_left,2025-06-21_14h18.42.635,HideSeek_v1,2022.2.5,59.960881502255134,
,0,4,1,4,1,0,51,,train_dim1_1,13,30,,,,2,0,2,0,,,,,,,,,0,0,0,0,0,12,12,12,1,0,1,0,,,,,,,,,,,,,,,,,,,,,,,,,,,,,,,,,,,,,,,,,,,,,,,,,,,,,,,,,,,,,,,,30,,,,,,,,1022.7512032999657,1022.7512032999657,1022.7512032999657,1022.7512032999657,1022.7512032999657,return,0.9768370999954641,5,0,0,1,-0.08,-0.08,return,0.8935586999868974,3,32,-0.08,-0.08,,,,,,,,,,,,,,,,,,,,,,,,,,,,,,,,,,,,,,,,,,,,,,,,,,,,,,,,A983Y0,train_x,blue_star,bottom_left,2025-06-21_14h18.42.635,HideSeek_v1,2022.2.5,59.960881502255134,
,4,3,9,3,5,0,11,,train_dim1_1,14,30,,,,2,0,2,0,,,,,,,,,0,0,0,0,0,13,13,13,0,0,0,0,,,,,,,,,,,,,,,,,,,,,,,,,stimuli/alien_stimuli/11.png,,,,,,,,,,,,,,,,,,,,,,,,,,,,,stimuli/alien_stimuli/51.png,51,0,15,,,,,,,30,,,,,,,,1028.823645299999,1028.823645299999,1028.823645299999,1028.823645299999,1028.823645299999,right,2.0076947000343353,5,0,0,99,0.24,-0.16,right,1.905672499909997,,,,,1027.2528303000145,1028.823645299999,-0.08,-0.08,0.0,0.08,-0.08,-0.08,-0.12,-0.08,-0.08,1025.3113730999175,1025.3113730999175,1025.3113730999175,1025.3113730999175,1025.3113730999175,1025.3113730999175,1025.3113730999175,1025.3113730999175,1025.3017211998813,2.0706211999058723,return,1.9185394000960514,,,,,,,,,,,,,,,,,,,,,,,,,,,,,,,,,A983Y0,train_x,blue_star,bottom_left,2025-06-21_14h18.42.635,HideSeek_v1,2022.2.5,59.960881502255134,
,4,3,9,3,5,0,11,,train_dim1_1,14,30,,,,2,0,2,0,,,,,,,,,0,0,0,0,0,13,13,13,1,0,1,0,,,,,,,,,,,,,,,,,,,,,,,,,,,,,,,,,,,,,,,,,,,,,,,,,,,,,,,,,,,,,,,,30,,,,,,,,1030.8238661999349,1030.8238661999349,1030.8238661999349,1030.8238661999349,1030.8238661999349,right,0.30952149990480393,5,0,0,99,0.32,-0.16,right,0.2315152999944985,,,,,,,,,,,,,,,,,,,,,,,,,,,,,,,,,,,,,,,,,,,,,,,,,,,,,,,,,,,,A983Y0,train_x,blue_star,bottom_left,2025-06-21_14h18.42.635,HideSeek_v1,2022.2.5,59.960881502255134,
,4,3,9,3,5,0,11,,train_dim1_1,14,30,,,,2,0,2,0,,,,,,,,,0,0,0,0,0,13,13,13,2,0,2,0,,,,,,,,,,,,,,,,,,,,,,,,,,,,,,,,,,,,,,,,,,,,,,,,,,,,,,,,,,,,,,,,30,,,,,,,,1031.1406259000069,1031.1406259000069,1031.1406259000069,1031.1406259000069,1031.1406259000069,right,0.30981100001372397,5,0,0,99,0.4,-0.16,right,0.22271030000410974,,,,,,,,,,,,,,,,,,,,,,,,,,,,,,,,,,,,,,,,,,,,,,,,,,,,,,,,,,,,A983Y0,train_x,blue_star,bottom_left,2025-06-21_14h18.42.635,HideSeek_v1,2022.2.5,59.960881502255134,
,4,3,9,3,5,0,11,,train_dim1_1,14,30,,,,2,0,2,0,,,,,,,,,0,0,0,0,0,13,13,13,3,0,3,0,,,,,,,,,,,,,,,,,,,,,,,,,,,,,,,,,,,,,,,,,,,,,,,,,,,,,,,,,,,,,,,,30,,,,,,,,1031.456838299986,1031.456838299986,1031.456838299986,1031.456838299986,1031.456838299986,right,0.3266484000487253,5,0,0,99,0.48000000000000004,-0.16,right,0.2384697999805212,,,,,,,,,,,,,,,,,,,,,,,,,,,,,,,,,,,,,,,,,,,,,,,,,,,,,,,,,,,,A983Y0,train_x,blue_star,bottom_left,2025-06-21_14h18.42.635,HideSeek_v1,2022.2.5,59.960881502255134,
,4,3,9,3,5,0,11,,train_dim1_1,14,30,,,,2,0,2,0,,,,,,,,,0,0,0,0,0,13,13,13,4,0,4,0,,,,,,,,,,,,,,,,,,,,,,,,,,,,,,,,,,,,,,,,,,,,,,,,,,,,,,,,,,,,,,,,30,,,,,,,,1031.790721199941,1031.790721199941,1031.790721199941,1031.790721199941,1031.790721199941,right,0.3263372000074014,5,0,0,99,0.56,-0.16,right,0.23545349994674325,,,,,,,,,,,,,,,,,,,,,,,,,,,,,,,,,,,,,,,,,,,,,,,,,,,,,,,,,,,,A983Y0,train_x,blue_star,bottom_left,2025-06-21_14h18.42.635,HideSeek_v1,2022.2.5,59.960881502255134,
,4,3,9,3,5,0,11,,train_dim1_1,14,30,,,,2,0,2,0,,,,,,,,,0,0,0,0,0,13,13,13,5,0,5,0,,,,,,,,,,,,,,,,,,,,,,,,,,,,,,,,,,,,,,,,,,,,,,,,,,,,,,,,,,,,,,,,30,,,,,,,,1032.1291122999974,1032.1291122999974,1032.1291122999974,1032.1291122999974,1032.1291122999974,return,0.6266765999607742,6,0,0,1,0.56,-0.16,return,0.5428979999851435,3,37,0.56,-0.16,,,,,,,,,,,,,,,,,,,,,,,,,,,,,,,,,,,,,,,,,,,,,,,,,,,,,,,,A983Y0,train_x,blue_star,bottom_left,2025-06-21_14h18.42.635,HideSeek_v1,2022.2.5,59.960881502255134,
,4,2,4,2,0,0,61,,train_dim1_1,15,30,,,,2,0,2,0,,,,,,,,,0,0,0,0,0,14,14,14,0,0,0,0,,,,,,,,,,,,,,,,,,,,,,,,,stimuli/alien_stimuli/61.png,,,,,,,,,,,,,,,,,,,,,,,,,,,,,stimuli/alien_stimuli/11.png,11,4,16,,,,,,,30,,,,,,,,1037.6587824999588,1037.6587824999588,1037.6587824999588,1037.6587824999588,1037.6587824999588,left,2.372285799938254,6,0,0,99,0.08,-0.24,left,2.266293099964969,,,,,1036.0763989000116,1037.6587824999588,0.56,-0.16,0.0,0.4,-0.16,0.56,0.36000000000000004,0.56,-0.16,1034.3199890999822,1034.3199890999822,1034.3199890999822,1034.3199890999822,1034.3199890999822,1034.3199890999822,1034.3199890999822,1034.3199890999822,1034.309141549922,1.8702690000645816,return,1.7336758999153972,,,,,,,,,,,,,,,,,,,,,,,,,,,,,,,,,A983Y0,train_x,blue_star,bottom_left,2025-06-21_14h18.42.635,HideSeek_v1,2022.2.5,59.960881502255134,
,4,2,4,2,0,0,61,,train_dim1_1,15,30,,,,2,0,2,0,,,,,,,,,0,0,0,0,0,14,14,14,1,0,1,0,,,,,,,,,,,,,,,,,,,,,,,,,,,,,,,,,,,,,,,,,,,,,,,,,,,,,,,,,,,,,,,,30,,,,,,,,1040.0099765999475,1040.0099765999475,1040.0099765999475,1040.0099765999475,1040.0099765999475,right,0.5263816999504343,6,0,0,99,0.16,-0.24,right,0.4447165000019595,,,,,,,,,,,,,,,,,,,,,,,,,,,,,,,,,,,,,,,,,,,,,,,,,,,,,,,,,,,,A983Y0,train_x,blue_star,bottom_left,2025-06-21_14h18.42.635,HideSeek_v1,2022.2.5,59.960881502255134,
,4,2,4,2,0,0,61,,train_dim1_1,15,30,,,,2,0,2,0,,,,,,,,,0,0,0,0,0,14,14,14,2,0,2,0,,,,,,,,,,,,,,,,,,,,,,,,,,,,,,,,,,,,,,,,,,,,,,,,,,,,,,,,,,,,,,,,30,,,,,,,,1040.543415699969,1040.543415699969,1040.543415699969,1040.543415699969,1040.543415699969,return,0.42682729999069124,7,0,0,1,0.16,-0.24,return,0.34316889999900013,3,37,0.16,-0.24,,,,,,,,,,,,,,,,,,,,,,,,,,,,,,,,,,,,,,,,,,,,,,,,,,,,,,,,A983Y0,train_x,blue_star,bottom_left,2025-06-21_14h18.42.635,HideSeek_v1,2022.2.5,59.960881502255134,
,3,3,4,3,1,0,51,,train_dim1_1,16,30,,,,2,0,2,0,,,,,,,,,0,0,0,0,0,15,15,15,0,0,0,0,,,,,,,,,,,,,,,,,,,,,,,,,stimuli/alien_stimuli/51.png,,,,,,,,,,,,,,,,,,,,,,,,,,,,,stimuli/alien_stimuli/61.png,61,4,17,,,,,,,30,,,,,,,,1046.4848532999167,1046.4848532999167,1046.4848532999167,1046.4848532999167,1046.4848532999167,right,1.5406340999761596,7,0,0,99,0.16,-0.16,right,1.4436370999319479,,,,,1044.9171392999124,1046.4848532999167,0.16,-0.24,0.0,0.0,-0.24,0.16,0.16,0.16,-0.24,1042.534720800002,1042.534720800002,1042.534720800002,1042.534720800002,1042.534720800002,1042.534720800002,1042.534720800002,1042.534720800002,1042.5160453999415,2.488206599955447,return,2.363885900005698,,,,,,,,,,,,,,,,,,,,,,,,,,,,,,,,,A983Y0,train_x,blue_star,bottom_left,2025-06-21_14h18.42.635,HideSeek_v1,2022.2.5,59.960881502255134,
,3,3,4,3,1,0,51,,train_dim1_1,16,30,,,,2,0,2,0,,,,,,,,,0,0,0,0,0,15,15,15,1,0,1,0,,,,,,,,,,,,,,,,,,,,,,,,,,,,,,,,,,,,,,,,,,,,,,,,,,,,,,,,,,,,,,,,30,,,,,,,,1048.0204264000058,1048.0204264000058,1048.0204264000058,1048.0204264000058,1048.0204264000058,return,0.5761355999857187,8,0,0,1,0.16,-0.16,return,0.48593399999663234,3,38,0.16,-0.16,,,,,,,,,,,,,,,,,,,,,,,,,,,,,,,,,,,,,,,,,,,,,,,,,,,,,,,,A983Y0,train_x,blue_star,bottom_left,2025-06-21_14h18.42.635,HideSeek_v1,2022.2.5,59.960881502255134,
,2,4,6,4,4,0,21,,train_dim1_1,17,30,,,,2,0,2,0,,,,,,,,,0,0,0,0,0,16,16,16,0,0,0,0,,,,,,,,,,,,,,,,,,,,,,,,,stimuli/alien_stimuli/21.png,,,,,,,,,,,,,,,,,,,,,,,,,,,,,stimuli/alien_stimuli/51.png,51,3,18,,,,,,,30,,,,,,,,1053.041420299909,1053.041420299909,1053.041420299909,1053.041420299909,1053.041420299909,right,1.3877565999282524,8,0,0,99,0.08,-0.08,right,1.2825262999394909,,,,,1051.456154900021,1053.041420299909,0.16,-0.16,0.0,0.08,-0.16,0.16,0.12,0.16,-0.16,1050.1620198999299,1050.1620198999299,1050.1620198999299,1050.1620198999299,1050.1620198999299,1050.1620198999299,1050.1620198999299,1050.1620198999299,1050.1388598999474,1.403445199946873,return,1.2635756999952719,,,,,,,,,,,,,,,,,,,,,,,,,,,,,,,,,A983Y0,train_x,blue_star,bottom_left,2025-06-21_14h18.42.635,HideSeek_v1,2022.2.5,59.960881502255134,
,2,4,6,4,4,0,21,,train_dim1_1,17,30,,,,2,0,2,0,,,,,,,,,0,0,0,0,0,16,16,16,1,0,1,0,,,,,,,,,,,,,,,,,,,,,,,,,,,,,,,,,,,,,,,,,,,,,,,,,,,,,,,,,,,,,,,,30,,,,,,,,1054.4093628999544,1054.4093628999544,1054.4093628999544,1054.4093628999544,1054.4093628999544,right,0.2764578000642359,8,0,0,99,0.16,-0.08,right,0.19248510000761598,,,,,,,,,,,,,,,,,,,,,,,,,,,,,,,,,,,,,,,,,,,,,,,,,,,,,,,,,,,,A983Y0,train_x,blue_star,bottom_left,2025-06-21_14h18.42.635,HideSeek_v1,2022.2.5,59.960881502255134,
,2,4,6,4,4,0,21,,train_dim1_1,17,30,,,,2,0,2,0,,,,,,,,,0,0,0,0,0,16,16,16,2,0,2,0,,,,,,,,,,,,,,,,,,,,,,,,,,,,,,,,,,,,,,,,,,,,,,,,,,,,,,,,,,,,,,,,30,,,,,,,,1054.6926117999246,1054.6926117999246,1054.6926117999246,1054.6926117999246,1054.6926117999246,right,0.2931016000220552,8,0,0,99,0.24,-0.08,right,0.20487979997415096,,,,,,,,,,,,,,,,,,,,,,,,,,,,,,,,,,,,,,,,,,,,,,,,,,,,,,,,,,,,A983Y0,train_x,blue_star,bottom_left,2025-06-21_14h18.42.635,HideSeek_v1,2022.2.5,59.960881502255134,
,2,4,6,4,4,0,21,,train_dim1_1,17,30,,,,2,0,2,0,,,,,,,,,0,0,0,0,0,16,16,16,3,0,3,0,,,,,,,,,,,,,,,,,,,,,,,,,,,,,,,,,,,,,,,,,,,,,,,,,,,,,,,,,,,,,,,,30,,,,,,,,1054.993496399955,1054.993496399955,1054.993496399955,1054.993496399955,1054.993496399955,right,0.2931603000033647,8,0,0,99,0.32,-0.08,right,0.21124309999868274,,,,,,,,,,,,,,,,,,,,,,,,,,,,,,,,,,,,,,,,,,,,,,,,,,,,,,,,,,,,A983Y0,train_x,blue_star,bottom_left,2025-06-21_14h18.42.635,HideSeek_v1,2022.2.5,59.960881502255134,
,2,4,6,4,4,0,21,,train_dim1_1,17,30,,,,2,0,2,0,,,,,,,,,0,0,0,0,0,16,16,16,4,0,4,0,,,,,,,,,,,,,,,,,,,,,,,,,,,,,,,,,,,,,,,,,,,,,,,,,,,,,,,,,,,,,,,,30,,,,,,,,1055.2935261999955,1055.2935261999955,1055.2935261999955,1055.2935261999955,1055.2935261999955,right,0.3099915999919176,8,0,0,99,0.4,-0.08,right,0.22163960000034422,,,,,,,,,,,,,,,,,,,,,,,,,,,,,,,,,,,,,,,,,,,,,,,,,,,,,,,,,,,,A983Y0,train_x,blue_star,bottom_left,2025-06-21_14h18.42.635,HideSeek_v1,2022.2.5,59.960881502255134,
,2,4,6,4,4,0,21,,train_dim1_1,17,30,,,,2,0,2,0,,,,,,,,,0,0,0,0,0,16,16,16,5,0,5,0,,,,,,,,,,,,,,,,,,,,,,,,,,,,,,,,,,,,,,,,,,,,,,,,,,,,,,,,,,,,,,,,30,,,,,,,,1055.6093190999236,1055.6093190999236,1055.6093190999236,1055.6093190999236,1055.6093190999236,return,0.49339039996266365,8,1,0,0,0.4,-0.08,return,0.4178402000106871,3,43,0.4,-0.08,,,,,,,,,,,,,,,,,,,,,,,,,,,,,,,,,,,,,,,,,,,,,,,,,,,,,,,,A983Y0,train_x,blue_star,bottom_left,2025-06-21_14h18.42.635,HideSeek_v1,2022.2.5,59.960881502255134,
,2,1,2,1,0,0,61,,train_dim1_1,18,30,,,,2,0,2,0,,,,,,,,,0,0,0,0,0,17,17,17,0,0,0,0,,,,,,,,,,,,,,,,,,,,,,,,,stimuli/alien_stimuli/61.png,,,,,,,,,,,,,,,,,,,,,,,,,,,,,stimuli/alien_stimuli/21.png,21,2,19,,,,,,,30,,,,,,,,1060.9018159999978,1060.9018159999978,1060.9018159999978,1060.9018159999978,1060.9018159999978,up,2.174118799972348,8,1,0,99,0,-0.24,up,2.0515928000677377,,,,,1059.312285299995,1060.9018159999978,0.32,-0.08,0.0,0.32,-0.08,0.32,0.16,0.32,-0.08,1057.6719197999919,1057.6719197999919,1057.6719197999919,1057.6719197999919,1057.6719197999919,1057.6719197999919,1057.6719197999919,1057.6719197999919,1057.6620430499897,1.7532432998996228,return,1.6135367999086156,,,,,,,,,,,,,,,,,,,,,,,,,,,,,,,,,A983Y0,train_x,blue_star,bottom_left,2025-06-21_14h18.42.635,HideSeek_v1,2022.2.5,59.960881502255134,
,2,1,2,1,0,0,61,,train_dim1_1,18,30,,,,2,0,2,0,,,,,,,,,0,0,0,0,0,17,17,17,1,0,1,0,,,,,,,,,,,,,,,,,,,,,,,,,,,,,,,,,,,,,,,,,,,,,,,,,,,,,,,,,,,,,,,,30,,,,,,,,1063.0464348999085,1063.0464348999085,1063.0464348999085,1063.0464348999085,1063.0464348999085,return,0.4596978999907151,8,1,0,0,0,-0.24,return,0.3791586000006646,4,43,0,-0.24,,,,,,,,,,,,,,,,,,,,,,,,,,,,,,,,,,,,,,,,,,,,,,,,,,,,,,,,A983Y0,train_x,blue_star,bottom_left,2025-06-21_14h18.42.635,HideSeek_v1,2022.2.5,59.960881502255134,
,0,3,3,3,3,0,31,,train_dim1_1,19,30,,,,2,0,2,0,,,,,,,,,0,0,0,0,0,18,18,18,0,0,0,0,,,,,,,,,,,,,,,,,,,,,,,,,stimuli/alien_stimuli/31.png,,,,,,,,,,,,,,,,,,,,,,,,,,,,,stimuli/alien_stimuli/61.png,61,2,20,,,,,,,30,,,,,,,,1069.4943991999608,1069.4943991999608,1069.4943991999608,1069.4943991999608,1069.4943991999608,right,1.1734518999001011,8,1,0,99,-0.08,-0.16,right,1.0817841000389308,,,,,1067.9361769999377,1069.4943991999608,0,-0.32,0.0,0.0,-0.32,0,0.0,0,-0.32,1065.0680100999307,1065.0680100999307,1065.0680100999307,1065.0680100999307,1065.0680100999307,1065.0680100999307,1065.0680100999307,1065.0680100999307,1065.0511037999531,2.9714114000089467,return,2.845067400019616,,,,,,,,,,,,,,,,,,,,,,,,,,,,,,,,,A983Y0,train_x,blue_star,bottom_left,2025-06-21_14h18.42.635,HideSeek_v1,2022.2.5,59.960881502255134,
,0,3,3,3,3,0,31,,train_dim1_1,19,30,,,,2,0,2,0,,,,,,,,,0,0,0,0,0,18,18,18,1,0,1,0,,,,,,,,,,,,,,,,,,,,,,,,,,,,,,,,,,,,,,,,,,,,,,,,,,,,,,,,,,,,,,,,30,,,,,,,,1070.6689691999927,1070.6689691999927,1070.6689691999927,1070.6689691999927,1070.6689691999927,right,0.34301379998214543,8,1,0,99,0.0,-0.16,right,0.2592258999357,,,,,,,,,,,,,,,,,,,,,,,,,,,,,,,,,,,,,,,,,,,,,,,,,,,,,,,,,,,,A983Y0,train_x,blue_star,bottom_left,2025-06-21_14h18.42.635,HideSeek_v1,2022.2.5,59.960881502255134,
,0,3,3,3,3,0,31,,train_dim1_1,19,30,,,,2,0,2,0,,,,,,,,,0,0,0,0,0,18,18,18,2,0,2,0,,,,,,,,,,,,,,,,,,,,,,,,,,,,,,,,,,,,,,,,,,,,,,,,,,,,,,,,,,,,,,,,30,,,,,,,,1071.0240661000134,1071.0240661000134,1071.0240661000134,1071.0240661000134,1071.0240661000134,right,0.6100649998988956,8,1,0,99,0.08,-0.16,right,0.5246421999763697,,,,,,,,,,,,,,,,,,,,,,,,,,,,,,,,,,,,,,,,,,,,,,,,,,,,,,,,,,,,A983Y0,train_x,blue_star,bottom_left,2025-06-21_14h18.42.635,HideSeek_v1,2022.2.5,59.960881502255134,
,0,3,3,3,3,0,31,,train_dim1_1,19,30,,,,2,0,2,0,,,,,,,,,0,0,0,0,0,18,18,18,3,0,3,0,,,,,,,,,,,,,,,,,,,,,,,,,,,,,,,,,,,,,,,,,,,,,,,,,,,,,,,,,,,,,,,,30,,,,,,,,1071.6364088999107,1071.6364088999107,1071.6364088999107,1071.6364088999107,1071.6364088999107,right,1.14415830001235,8,1,0,99,0.16,-0.16,right,1.0656138999620453,,,,,,,,,,,,,,,,,,,,,,,,,,,,,,,,,,,,,,,,,,,,,,,,,,,,,,,,,,,,A983Y0,train_x,blue_star,bottom_left,2025-06-21_14h18.42.635,HideSeek_v1,2022.2.5,59.960881502255134,
,0,3,3,3,3,0,31,,train_dim1_1,19,30,,,,2,0,2,0,,,,,,,,,0,0,0,0,0,18,18,18,4,0,4,0,,,,,,,,,,,,,,,,,,,,,,,,,,,,,,,,,,,,,,,,,,,,,,,,,,,,,,,,,,,,,,,,30,,,,,,,,1072.7878034999594,1072.7878034999594,1072.7878034999594,1072.7878034999594,1072.7878034999594,left,0.776455600047484,8,1,0,99,0.08,-0.16,left,0.6944228999782354,,,,,,,,,,,,,,,,,,,,,,,,,,,,,,,,,,,,,,,,,,,,,,,,,,,,,,,,,,,,A983Y0,train_x,blue_star,bottom_left,2025-06-21_14h18.42.635,HideSeek_v1,2022.2.5,59.960881502255134,
,0,3,3,3,3,0,31,,train_dim1_1,19,30,,,,2,0,2,0,,,,,,,,,0,0,0,0,0,18,18,18,5,0,5,0,,,,,,,,,,,,,,,,,,,,,,,,,,,,,,,,,,,,,,,,,,,,,,,,,,,,,,,,,,,,,,,,30,,,,,,,,1073.5828665000154,1073.5828665000154,1073.5828665000154,1073.5828665000154,1073.5828665000154,return,0.4103409999515861,9,0,0,1,0.08,-0.16,return,0.3114675000542775,4,46,0.08,-0.16,,,,,,,,,,,,,,,,,,,,,,,,,,,,,,,,,,,,,,,,,,,,,,,,,,,,,,,,A983Y0,train_x,blue_star,bottom_left,2025-06-21_14h18.42.635,HideSeek_v1,2022.2.5,59.960881502255134,
,0,1,5,1,5,0,11,,train_dim1_1,20,30,,,,2,0,2,0,,,,,,,,,0,0,0,0,0,19,19,19,0,0,0,0,,,,,,,,,,,,,,,,,,,,,,,,,stimuli/alien_stimuli/11.png,,,,,,,,,,,,,,,,,,,,,,,,,,,,,stimuli/alien_stimuli/31.png,31,0,21,,,,,,,30,,,,,,,,1079.1907308999216,1079.1907308999216,1079.1907308999216,1079.1907308999216,1079.1907308999216,right,2.3747970999684185,9,0,0,99,-0.08,-0.32,right,2.2616348000010476,,,,,1077.611505699926,1079.1907308999216,0.08,-0.16,0.0,0.24,-0.16,0.08,-0.04,0.08,-0.16,1075.5639073000057,1075.5639073000057,1075.5639073000057,1075.5639073000057,1075.5639073000057,1075.5639073000057,1075.5639073000057,1075.5639073000057,1075.5434097499237,2.171364300069399,return,2.0294038999127224,,,,,,,,,,,,,,,,,,,,,,,,,,,,,,,,,A983Y0,train_x,blue_star,bottom_left,2025-06-21_14h18.42.635,HideSeek_v1,2022.2.5,59.960881502255134,
,0,1,5,1,5,0,11,,train_dim1_1,20,30,,,,2,0,2,0,,,,,,,,,0,0,0,0,0,19,19,19,1,0,1,0,,,,,,,,,,,,,,,,,,,,,,,,,,,,,,,,,,,,,,,,,,,,,,,,,,,,,,,,,,,,,,,,30,,,,,,,,1081.549106499995,1081.549106499995,1081.549106499995,1081.549106499995,1081.549106499995,right,0.35915610007941723,9,0,0,99,0.0,-0.32,right,0.2828694999916479,,,,,,,,,,,,,,,,,,,,,,,,,,,,,,,,,,,,,,,,,,,,,,,,,,,,,,,,,,,,A983Y0,train_x,blue_star,bottom_left,2025-06-21_14h18.42.635,HideSeek_v1,2022.2.5,59.960881502255134,
,0,1,5,1,5,0,11,,train_dim1_1,20,30,,,,2,0,2,0,,,,,,,,,0,0,0,0,0,19,19,19,2,0,2,0,,,,,,,,,,,,,,,,,,,,,,,,,,,,,,,,,,,,,,,,,,,,,,,,,,,,,,,,,,,,,,,,30,,,,,,,,1081.91580409999,1081.91580409999,1081.91580409999,1081.91580409999,1081.91580409999,right,0.7938830000348389,9,0,0,99,0.08,-0.32,right,0.7091361000202596,,,,,,,,,,,,,,,,,,,,,,,,,,,,,,,,,,,,,,,,,,,,,,,,,,,,,,,,,,,,A983Y0,train_x,blue_star,bottom_left,2025-06-21_14h18.42.635,HideSeek_v1,2022.2.5,59.960881502255134,
,0,1,5,1,5,0,11,,train_dim1_1,20,30,,,,2,0,2,0,,,,,,,,,0,0,0,0,0,19,19,19,3,0,3,0,,,,,,,,,,,,,,,,,,,,,,,,,,,,,,,,,,,,,,,,,,,,,,,,,,,,,,,,,,,,,,,,30,,,,,,,,1082.716650599963,1082.716650599963,1082.716650599963,1082.716650599963,1082.716650599963,right,0.5597783999983221,9,0,0,99,0.16,-0.32,right,0.4777779000578448,,,,,,,,,,,,,,,,,,,,,,,,,,,,,,,,,,,,,,,,,,,,,,,,,,,,,,,,,,,,A983Y0,train_x,blue_star,bottom_left,2025-06-21_14h18.42.635,HideSeek_v1,2022.2.5,59.960881502255134,
,0,1,5,1,5,0,11,,train_dim1_1,20,30,,,,2,0,2,0,,,,,,,,,0,0,0,0,0,19,19,19,4,0,4,0,,,,,,,,,,,,,,,,,,,,,,,,,,,,,,,,,,,,,,,,,,,,,,,,,,,,,,,,,,,,,,,,30,,,,,,,,1083.284317099955,1083.284317099955,1083.284317099955,1083.284317099955,1083.284317099955,right,0.4268951000412926,9,0,0,99,0.24,-0.32,right,0.3411193999927491,,,,,,,,,,,,,,,,,,,,,,,,,,,,,,,,,,,,,,,,,,,,,,,,,,,,,,,,,,,,A983Y0,train_x,blue_star,bottom_left,2025-06-21_14h18.42.635,HideSeek_v1,2022.2.5,59.960881502255134,
,0,1,5,1,5,0,11,,train_dim1_1,20,30,,,,2,0,2,0,,,,,,,,,0,0,0,0,0,19,19,19,5,0,5,0,,,,,,,,,,,,,,,,,,,,,,,,,,,,,,,,,,,,,,,,,,,,,,,,,,,,,,,,,,,,,,,,30,,,,,,,,1083.7172363999998,1083.7172363999998,1083.7172363999998,1083.7172363999998,1083.7172363999998,return,0.4267102999147028,10,0,0,1,0.24,-0.32,return,0.34324940002989024,4,51,0.24,-0.32,,,,,,,,,,,,,,,,,,,,,,,,,,,,,,,,,,,,,,,,,,,,,,,,,,,,,,,,A983Y0,train_x,blue_star,bottom_left,2025-06-21_14h18.42.635,HideSeek_v1,2022.2.5,59.960881502255134,
,4,2,7,2,3,0,31,,train_dim1_1,21,30,,,,2,0,2,0,,,,,,,,,0,0,0,0,0,20,20,20,0,0,0,0,,,,,,,,,,,,,,,,,,,,,,,,,stimuli/alien_stimuli/31.png,,,,,,,,,,,,,,,,,,,,,,,,,,,,,stimuli/alien_stimuli/11.png,11,0,22,,,,,,,30,,,,,,,,1088.7605509000132,1088.7605509000132,1088.7605509000132,1088.7605509000132,1088.7605509000132,right,1.4069414000259712,10,0,0,99,0.24,-0.24,right,1.310494799981825,,,,,1087.1858352000127,1088.7605509000132,0.24,-0.32,0.0,0.4,-0.32,0.24,0.039999999999999994,0.24,-0.32,1085.7109475999605,1085.7109475999605,1085.7109475999605,1085.7109475999605,1085.7109475999605,1085.7109475999605,1085.7109475999605,1085.7109475999605,1085.7020826499793,1.5871006000088528,return,1.447191199986264,,,,,,,,,,,,,,,,,,,,,,,,,,,,,,,,,A983Y0,train_x,blue_star,bottom_left,2025-06-21_14h18.42.635,HideSeek_v1,2022.2.5,59.960881502255134,
,4,2,7,2,3,0,31,,train_dim1_1,21,30,,,,2,0,2,0,,,,,,,,,0,0,0,0,0,20,20,20,1,0,1,0,,,,,,,,,,,,,,,,,,,,,,,,,,,,,,,,,,,,,,,,,,,,,,,,,,,,,,,,,,,,,,,,30,,,,,,,,1090.1523288999451,1090.1523288999451,1090.1523288999451,1090.1523288999451,1090.1523288999451,right,0.4097362000029534,10,0,0,99,0.32,-0.24,right,0.32036160002462566,,,,,,,,,,,,,,,,,,,,,,,,,,,,,,,,,,,,,,,,,,,,,,,,,,,,,,,,,,,,A983Y0,train_x,blue_star,bottom_left,2025-06-21_14h18.42.635,HideSeek_v1,2022.2.5,59.960881502255134,
,4,2,7,2,3,0,31,,train_dim1_1,21,30,,,,2,0,2,0,,,,,,,,,0,0,0,0,0,20,20,20,2,0,2,0,,,,,,,,,,,,,,,,,,,,,,,,,,,,,,,,,,,,,,,,,,,,,,,,,,,,,,,,,,,,,,,,30,,,,,,,,1090.5692822999554,1090.5692822999554,1090.5692822999554,1090.5692822999554,1090.5692822999554,right,0.376912200008519,10,0,0,99,0.4,-0.24,right,0.29785890004131943,,,,,,,,,,,,,,,,,,,,,,,,,,,,,,,,,,,,,,,,,,,,,,,,,,,,,,,,,,,,A983Y0,train_x,blue_star,bottom_left,2025-06-21_14h18.42.635,HideSeek_v1,2022.2.5,59.960881502255134,
,4,2,7,2,3,0,31,,train_dim1_1,21,30,,,,2,0,2,0,,,,,,,,,0,0,0,0,0,20,20,20,3,0,3,0,,,,,,,,,,,,,,,,,,,,,,,,,,,,,,,,,,,,,,,,,,,,,,,,,,,,,,,,,,,,,,,,30,,,,,,,,1090.9521530999336,1090.9521530999336,1090.9521530999336,1090.9521530999336,1090.9521530999336,return,0.35961129993665963,11,0,0,1,0.4,-0.24,return,0.2852500000735745,4,54,0.4,-0.24,,,,,,,,,,,,,,,,,,,,,,,,,,,,,,,,,,,,,,,,,,,,,,,,,,,,,,,,A983Y0,train_x,blue_star,bottom_left,2025-06-21_14h18.42.635,HideSeek_v1,2022.2.5,59.960881502255134,
,1,0,5,0,4,0,21,,train_dim1_1,22,30,,,,2,0,2,0,,,,,,,,,0,0,0,0,0,21,21,21,0,0,0,0,,,,,,,,,,,,,,,,,,,,,,,,,stimuli/alien_stimuli/21.png,,,,,,,,,,,,,,,,,,,,,,,,,,,,,stimuli/alien_stimuli/31.png,31,4,23,,,,,,,30,,,,,,,,1096.307196400012,1096.307196400012,1096.307196400012,1096.307196400012,1096.307196400012,right,1.056383699993603,11,0,0,99,0.0,-0.4,right,0.9499746999936178,,,,,1094.7250776999863,1096.307196400012,0.4,-0.24,0.0,0.24,-0.24,0.4,0.28,0.4,-0.24,1092.8790465999627,1092.8790465999627,1092.8790465999627,1092.8790465999627,1092.8790465999627,1092.8790465999627,1092.8790465999627,1092.8790465999627,1092.8575084999902,1.9540346000576392,return,1.8192258999915794,,,,,,,,,,,,,,,,,,,,,,,,,,,,,,,,,A983Y0,train_x,blue_star,bottom_left,2025-06-21_14h18.42.635,HideSeek_v1,2022.2.5,59.960881502255134,
,1,0,5,0,4,0,21,,train_dim1_1,22,30,,,,2,0,2,0,,,,,,,,,0,0,0,0,0,21,21,21,1,0,1,0,,,,,,,,,,,,,,,,,,,,,,,,,,,,,,,,,,,,,,,,,,,,,,,,,,,,,,,,,,,,,,,,30,,,,,,,,1097.3593773000175,1097.3593773000175,1097.3593773000175,1097.3593773000175,1097.3593773000175,right,0.34249799989629537,11,0,0,99,0.08,-0.4,right,0.23909899999853224,,,,,,,,,,,,,,,,,,,,,,,,,,,,,,,,,,,,,,,,,,,,,,,,,,,,,,,,,,,,A983Y0,train_x,blue_star,bottom_left,2025-06-21_14h18.42.635,HideSeek_v1,2022.2.5,59.960881502255134,
,1,0,5,0,4,0,21,,train_dim1_1,22,30,,,,2,0,2,0,,,,,,,,,0,0,0,0,0,21,21,21,2,0,2,0,,,,,,,,,,,,,,,,,,,,,,,,,,,,,,,,,,,,,,,,,,,,,,,,,,,,,,,,,,,,,,,,30,,,,,,,,1097.695873699966,1097.695873699966,1097.695873699966,1097.695873699966,1097.695873699966,right,0.310527199995704,11,0,0,99,0.16,-0.4,right,0.2264761000405997,,,,,,,,,,,,,,,,,,,,,,,,,,,,,,,,,,,,,,,,,,,,,,,,,,,,,,,,,,,,A983Y0,train_x,blue_star,bottom_left,2025-06-21_14h18.42.635,HideSeek_v1,2022.2.5,59.960881502255134,
,1,0,5,0,4,0,21,,train_dim1_1,22,30,,,,2,0,2,0,,,,,,,,,0,0,0,0,0,21,21,21,3,0,3,0,,,,,,,,,,,,,,,,,,,,,,,,,,,,,,,,,,,,,,,,,,,,,,,,,,,,,,,,,,,,,,,,30,,,,,,,,1098.0121084999992,1098.0121084999992,1098.0121084999992,1098.0121084999992,1098.0121084999992,right,0.2930442000506446,11,0,0,99,0.24,-0.4,right,0.20724229991901666,,,,,,,,,,,,,,,,,,,,,,,,,,,,,,,,,,,,,,,,,,,,,,,,,,,,,,,,,,,,A983Y0,train_x,blue_star,bottom_left,2025-06-21_14h18.42.635,HideSeek_v1,2022.2.5,59.960881502255134,
,1,0,5,0,4,0,21,,train_dim1_1,22,30,,,,2,0,2,0,,,,,,,,,0,0,0,0,0,21,21,21,4,0,4,0,,,,,,,,,,,,,,,,,,,,,,,,,,,,,,,,,,,,,,,,,,,,,,,,,,,,,,,,,,,,,,,,30,,,,,,,,1098.311826499994,1098.311826499994,1098.311826499994,1098.311826499994,1098.311826499994,right,3.2625953000970185,11,0,0,99,0.32,-0.4,right,3.1740609999978915,,,,,,,,,,,,,,,,,,,,,,,,,,,,,,,,,,,,,,,,,,,,,,,,,,,,,,,,,,,,A983Y0,train_x,blue_star,bottom_left,2025-06-21_14h18.42.635,HideSeek_v1,2022.2.5,59.960881502255134,
,1,0,5,0,4,0,21,,train_dim1_1,22,30,,,,2,0,2,0,,,,,,,,,0,0,0,0,0,21,21,21,5,0,5,0,,,,,,,,,,,,,,,,,,,,,,,,,,,,,,,,,,,,,,,,,,,,,,,,,,,,,,,,,,,,,,,,30,,,,,,,,1101.5820378999924,1101.5820378999924,1101.5820378999924,1101.5820378999924,1101.5820378999924,right,0.34281629999168217,11,0,0,99,0.4,-0.4,right,0.260962100001052,,,,,,,,,,,,,,,,,,,,,,,,,,,,,,,,,,,,,,,,,,,,,,,,,,,,,,,,,,,,A983Y0,train_x,blue_star,bottom_left,2025-06-21_14h18.42.635,HideSeek_v1,2022.2.5,59.960881502255134,
,1,0,5,0,4,0,21,,train_dim1_1,22,30,,,,2,0,2,0,,,,,,,,,0,0,0,0,0,21,21,21,6,0,6,0,,,,,,,,,,,,,,,,,,,,,,,,,,,,,,,,,,,,,,,,,,,,,,,,,,,,,,,,,,,,,,,,30,,,,,,,,1101.9319760999642,1101.9319760999642,1101.9319760999642,1101.9319760999642,1101.9319760999642,return,0.7268924000672996,11,0,0,0,0.4,-0.4,return,0.6409258999628946,4,60,0.4,-0.4,,,,,,,,,,,,,,,,,,,,,,,,,,,,,,,,,,,,,,,,,,,,,,,,,,,,,,,,A983Y0,train_x,blue_star,bottom_left,2025-06-21_14h18.42.635,HideSeek_v1,2022.2.5,59.960881502255134,
,2,1,2,1,0,0,61,,train_dim1_1,23,30,,,,2,0,2,0,,,,,,,,,0,0,0,0,0,22,22,22,0,0,0,0,,,,,,,,,,,,,,,,,,,,,,,,,stimuli/alien_stimuli/61.png,,,,,,,,,,,,,,,,,,,,,,,,,,,,,stimuli/alien_stimuli/21.png,21,1,24,,,,,,,30,,,,,,,,1107.4008348999778,1107.4008348999778,1107.4008348999778,1107.4008348999778,1107.4008348999778,right,1.505161999957636,11,0,0,99,0.08,-0.32,right,1.38801070000045,,,,,1105.817715000012,1107.4008348999778,0.24,-0.4,0.0,0.32,-0.4,0.24,0.07999999999999999,0.24,-0.4,1104.2523642999586,1104.2523642999586,1104.2523642999586,1104.2523642999586,1104.2523642999586,1104.2523642999586,1104.2523642999586,1104.2523642999586,1104.2340864998987,1.7034566999645904,return,1.5430578000377864,,,,,,,,,,,,,,,,,,,,,,,,,,,,,,,,,A983Y0,train_x,blue_star,bottom_left,2025-06-21_14h18.42.635,HideSeek_v1,2022.2.5,59.960881502255134,
,2,1,2,1,0,0,61,,train_dim1_1,23,30,,,,2,0,2,0,,,,,,,,,0,0,0,0,0,22,22,22,1,0,1,0,,,,,,,,,,,,,,,,,,,,,,,,,,,,,,,,,,,,,,,,,,,,,,,,,,,,,,,,,,,,,,,,30,,,,,,,,1108.8845103000058,1108.8845103000058,1108.8845103000058,1108.8845103000058,1108.8845103000058,left,0.6598095000954345,11,0,0,99,0.0,-0.32,left,0.5854850999312475,,,,,,,,,,,,,,,,,,,,,,,,,,,,,,,,,,,,,,,,,,,,,,,,,,,,,,,,,,,,A983Y0,train_x,blue_star,bottom_left,2025-06-21_14h18.42.635,HideSeek_v1,2022.2.5,59.960881502255134,
,2,1,2,1,0,0,61,,train_dim1_1,23,30,,,,2,0,2,0,,,,,,,,,0,0,0,0,0,22,22,22,2,0,2,0,,,,,,,,,,,,,,,,,,,,,,,,,,,,,,,,,,,,,,,,,,,,,,,,,,,,,,,,,,,,,,,,30,,,,,,,,1109.5509131000144,1109.5509131000144,1109.5509131000144,1109.5509131000144,1109.5509131000144,return,0.40987670002505183,12,0,0,1,0.0,-0.32,return,0.32393459999002516,4,60,0.0,-0.32,,,,,,,,,,,,,,,,,,,,,,,,,,,,,,,,,,,,,,,,,,,,,,,,,,,,,,,,A983Y0,train_x,blue_star,bottom_left,2025-06-21_14h18.42.635,HideSeek_v1,2022.2.5,59.960881502255134,
,4,4,5,4,1,0,51,,train_dim1_1,24,30,,,,2,0,2,0,,,,,,,,,0,0,0,0,0,23,23,23,0,0,0,0,,,,,,,,,,,,,,,,,,,,,,,,,stimuli/alien_stimuli/51.png,,,,,,,,,,,,,,,,,,,,,,,,,,,,,stimuli/alien_stimuli/61.png,61,2,25,,,,,,,30,,,,,,,,1117.1036677999655,1117.1036677999655,1117.1036677999655,1117.1036677999655,1117.1036677999655,right,2.7573243000078946,12,0,0,99,0.24,-0.08,right,2.6634663000004366,,,,,1115.5421691000229,1117.1036677999655,0,-0.32,0.0,0.0,-0.32,0,0.0,0,-0.32,1111.5269875999074,1111.5269875999074,1111.5269875999074,1111.5269875999074,1111.5269875999074,1111.5269875999074,1111.5269875999074,1111.5269875999074,1111.5064363998827,4.122038899920881,return,3.9904688999522477,,,,,,,,,,,,,,,,,,,,,,,,,,,,,,,,,A983Y0,train_x,blue_star,bottom_left,2025-06-21_14h18.42.635,HideSeek_v1,2022.2.5,59.960881502255134,
,4,4,5,4,1,0,51,,train_dim1_1,24,30,,,,2,0,2,0,,,,,,,,,0,0,0,0,0,23,23,23,1,0,1,0,,,,,,,,,,,,,,,,,,,,,,,,,,,,,,,,,,,,,,,,,,,,,,,,,,,,,,,,,,,,,,,,30,,,,,,,,1119.863313299953,1119.863313299953,1119.863313299953,1119.863313299953,1119.863313299953,return,0.6264473999617621,13,0,0,1,0.24,-0.08,return,0.5390552000608295,4,61,0.24,-0.08,,,,,,,,,,,,,,,,,,,,,,,,,,,,,,,,,,,,,,,,,,,,,,,,,,,,,,,,A983Y0,train_x,blue_star,bottom_left,2025-06-21_14h18.42.635,HideSeek_v1,2022.2.5,59.960881502255134,
,3,0,8,0,5,0,11,,train_dim1_1,25,30,,,,2,0,2,0,,,,,,,,,0,0,0,0,0,24,24,24,0,0,0,0,,,,,,,,,,,,,,,,,,,,,,,,,stimuli/alien_stimuli/11.png,,,,,,,,,,,,,,,,,,,,,,,,,,,,,stimuli/alien_stimuli/51.png,51,4,26,,,,,,,30,,,,,,,,1125.147348599974,1125.147348599974,1125.147348599974,1125.147348599974,1125.147348599974,right,24.775003000046127,13,0,0,99,0.16,-0.4,right,24.674402100034058,,,,,1123.5657503999537,1125.147348599974,0.24,-0.08,0.0,0.08,-0.08,0.24,0.2,0.24,-0.08,1122.074606499984,1122.074606499984,1122.074606499984,1122.074606499984,1122.074606499984,1122.074606499984,1122.074606499984,1122.074606499984,1122.0654514998896,1.6202346000354737,return,1.4739473999943584,,,,,,,,,,,,,,,,,,,,,,,,,,,,,,,,,A983Y0,train_x,blue_star,bottom_left,2025-06-21_14h18.42.635,HideSeek_v1,2022.2.5,59.960881502255134,
,3,0,8,0,5,0,11,,train_dim1_1,25,30,,,,2,0,2,0,,,,,,,,,0,0,0,0,0,24,24,24,1,0,1,0,,,,,,,,,,,,,,,,,,,,,,,,,,,,,,,,,,,,,,,,,,,,,,,,,,,,,,,,,,,,,,,,30,,,,,,,,1149.9099660000065,1149.9099660000065,1149.9099660000065,1149.9099660000065,1149.9099660000065,right,0.37603780010249466,13,0,0,99,0.24,-0.4,right,0.2811845999676734,,,,,,,,,,,,,,,,,,,,,,,,,,,,,,,,,,,,,,,,,,,,,,,,,,,,,,,,,,,,A983Y0,train_x,blue_star,bottom_left,2025-06-21_14h18.42.635,HideSeek_v1,2022.2.5,59.960881502255134,
,3,0,8,0,5,0,11,,train_dim1_1,25,30,,,,2,0,2,0,,,,,,,,,0,0,0,0,0,24,24,24,2,0,2,0,,,,,,,,,,,,,,,,,,,,,,,,,,,,,,,,,,,,,,,,,,,,,,,,,,,,,,,,,,,,,,,,30,,,,,,,,1150.2893659999827,1150.2893659999827,1150.2893659999827,1150.2893659999827,1150.2893659999827,right,0.3270742000313476,13,0,0,99,0.32,-0.4,right,0.24809360003564507,,,,,,,,,,,,,,,,,,,,,,,,,,,,,,,,,,,,,,,,,,,,,,,,,,,,,,,,,,,,A983Y0,train_x,blue_star,bottom_left,2025-06-21_14h18.42.635,HideSeek_v1,2022.2.5,59.960881502255134,
,3,0,8,0,5,0,11,,train_dim1_1,25,30,,,,2,0,2,0,,,,,,,,,0,0,0,0,0,24,24,24,3,0,3,0,,,,,,,,,,,,,,,,,,,,,,,,,,,,,,,,,,,,,,,,,,,,,,,,,,,,,,,,,,,,,,,,30,,,,,,,,1150.6228527999483,1150.6228527999483,1150.6228527999483,1150.6228527999483,1150.6228527999483,right,1.5103536000242457,13,0,0,99,0.4,-0.4,right,1.4290054000448436,,,,,,,,,,,,,,,,,,,,,,,,,,,,,,,,,,,,,,,,,,,,,,,,,,,,,,,,,,,,A983Y0,train_x,blue_star,bottom_left,2025-06-21_14h18.42.635,HideSeek_v1,2022.2.5,59.960881502255134,
,3,0,8,0,5,0,11,,train_dim1_1,25,30,,,,2,0,2,0,,,,,,,,,0,0,0,0,0,24,24,24,4,0,4,0,,,,,,,,,,,,,,,,,,,,,,,,,,,,,,,,,,,,,,,,,,,,,,,,,,,,,,,,,,,,,,,,30,,,,,,,,1152.139932399965,1152.139932399965,1152.139932399965,1152.139932399965,1152.139932399965,right,1.1438913000747561,13,0,0,99,0.48000000000000004,-0.4,right,1.0569887000601739,,,,,,,,,,,,,,,,,,,,,,,,,,,,,,,,,,,,,,,,,,,,,,,,,,,,,,,,,,,,A983Y0,train_x,blue_star,bottom_left,2025-06-21_14h18.42.635,HideSeek_v1,2022.2.5,59.960881502255134,
,3,0,8,0,5,0,11,,train_dim1_1,25,30,,,,2,0,2,0,,,,,,,,,0,0,0,0,0,24,24,24,5,0,5,0,,,,,,,,,,,,,,,,,,,,,,,,,,,,,,,,,,,,,,,,,,,,,,,,,,,,,,,,,,,,,,,,30,,,,,,,,1153.2906984,1153.2906984,1153.2906984,1153.2906984,1153.2906984,return,1.0105341000016779,14,0,0,1,0.48000000000000004,-0.4,return,0.93013490003068,4,66,0.48000000000000004,-0.4,,,,,,,,,,,,,,,,,,,,,,,,,,,,,,,,,,,,,,,,,,,,,,,,,,,,,,,,A983Y0,train_x,blue_star,bottom_left,2025-06-21_14h18.42.635,HideSeek_v1,2022.2.5,59.960881502255134,
,1,1,1,1,0,0,61,,train_dim1_1,26,30,,,,2,0,2,0,,,,,,,,,0,0,0,0,0,25,25,25,0,0,0,0,,,,,,,,,,,,,,,,,,,,,,,,,stimuli/alien_stimuli/61.png,,,,,,,,,,,,,,,,,,,,,,,,,,,,,stimuli/alien_stimuli/11.png,11,3,27,,,,,,,30,,,,,,,,1163.4744522999972,1163.4744522999972,1163.4744522999972,1163.4744522999972,1163.4744522999972,right,2.0400368999689817,14,0,0,99,0.0,-0.32,right,1.9465058000059798,,,,,1161.9141949999612,1163.4744522999972,0.48,-0.4,0.0,0.4,-0.4,0.48,0.27999999999999997,0.48,-0.4,1155.89017769997,1155.89017769997,1155.89017769997,1155.89017769997,1155.89017769997,1155.89017769997,1155.89017769997,1155.89017769997,1155.876627099933,6.157339199911803,return,5.9955261999275535,,,,,,,,,,,,,,,,,,,,,,,,,,,,,,,,,A983Y0,train_x,blue_star,bottom_left,2025-06-21_14h18.42.635,HideSeek_v1,2022.2.5,59.960881502255134,
,1,1,1,1,0,0,61,,train_dim1_1,26,30,,,,2,0,2,0,,,,,,,,,0,0,0,0,0,25,25,25,1,0,1,0,,,,,,,,,,,,,,,,,,,,,,,,,,,,,,,,,,,,,,,,,,,,,,,,,,,,,,,,,,,,,,,,30,,,,,,,,1165.5145303999307,1165.5145303999307,1165.5145303999307,1165.5145303999307,1165.5145303999307,left,0.37650010001379997,14,0,0,99,-0.08,-0.32,left,0.29380500002298504,,,,,,,,,,,,,,,,,,,,,,,,,,,,,,,,,,,,,,,,,,,,,,,,,,,,,,,,,,,,A983Y0,train_x,blue_star,bottom_left,2025-06-21_14h18.42.635,HideSeek_v1,2022.2.5,59.960881502255134,
,1,1,1,1,0,0,61,,train_dim1_1,26,30,,,,2,0,2,0,,,,,,,,,0,0,0,0,0,25,25,25,2,0,2,0,,,,,,,,,,,,,,,,,,,,,,,,,,,,,,,,,,,,,,,,,,,,,,,,,,,,,,,,,,,,,,,,30,,,,,,,,1165.90562580002,1165.90562580002,1165.90562580002,1165.90562580002,1165.90562580002,return,0.3262538000708446,15,0,0,1,-0.08,-0.32,return,0.24398899998050183,4,66,-0.08,-0.32,,,,,,,,,,,,,,,,,,,,,,,,,,,,,,,,,,,,,,,,,,,,,,,,,,,,,,,,A983Y0,train_x,blue_star,bottom_left,2025-06-21_14h18.42.635,HideSeek_v1,2022.2.5,59.960881502255134,
,0,1,3,1,3,0,31,,train_dim1_1,27,30,,,,2,0,2,0,,,,,,,,,0,0,0,0,0,26,26,26,0,0,0,0,,,,,,,,,,,,,,,,,,,,,,,,,stimuli/alien_stimuli/31.png,,,,,,,,,,,,,,,,,,,,,,,,,,,,,stimuli/alien_stimuli/61.png,61,1,28,,,,,,,30,,,,,,,,1170.6638918999815,1170.6638918999815,1170.6638918999815,1170.6638918999815,1170.6638918999815,return,1.5393255999078974,15,0,0,0,-0.16,-0.32,return,1.4391806999919936,4,66,-0.16,-0.32,1169.0867483000038,1170.6638918999815,-0.08,-0.32,0.0,0.0,-0.32,-0.08,-0.08,-0.08,-0.32,1167.81318930001,1167.81318930001,1167.81318930001,1167.81318930001,1167.81318930001,1167.81318930001,1167.81318930001,1167.81318930001,1167.8033947999356,1.4035742999985814,return,1.254612599965185,,,,,,,,,,,,,,,,,,,,,,,,,,,,,,,,,A983Y0,train_x,blue_star,bottom_left,2025-06-21_14h18.42.635,HideSeek_v1,2022.2.5,59.960881502255134,
,3,1,7,1,4,0,21,,train_dim1_1,28,30,,,,2,0,2,0,,,,,,,,,0,0,0,0,0,27,27,27,0,0,0,0,,,,,,,,,,,,,,,,,,,,,,,,,stimuli/alien_stimuli/21.png,,,,,,,,,,,,,,,,,,,,,,,,,,,,,stimuli/alien_stimuli/31.png,31,0,29,,,,,,,30,,,,,,,,1180.7740272999508,1180.7740272999508,1180.7740272999508,1180.7740272999508,1180.7740272999508,right,1.1063375000376254,15,0,0,99,0.16,-0.32,right,1.0149784999666736,,,,,1179.2118738999125,1180.7740272999508,0.08,-0.32,0.0,0.24,-0.32,0.08,-0.04,0.08,-0.32,1173.741899500019,1173.741899500019,1173.741899500019,1173.741899500019,1173.741899500019,1173.741899500019,1173.741899500019,1173.741899500019,1173.7246506999945,5.573751499992795,return,5.4425243000732735,,,,,,,,,,,,,,,,,,,,,,,,,,,,,,,,,A983Y0,train_x,blue_star,bottom_left,2025-06-21_14h18.42.635,HideSeek_v1,2022.2.5,59.960881502255134,
,3,1,7,1,4,0,21,,train_dim1_1,28,30,,,,2,0,2,0,,,,,,,,,0,0,0,0,0,27,27,27,1,0,1,0,,,,,,,,,,,,,,,,,,,,,,,,,,,,,,,,,,,,,,,,,,,,,,,,,,,,,,,,,,,,,,,,30,,,,,,,,1181.8818490999984,1181.8818490999984,1181.8818490999984,1181.8818490999984,1181.8818490999984,right,0.2427940999623388,15,0,0,99,0.24,-0.32,right,0.16026960010640323,,,,,,,,,,,,,,,,,,,,,,,,,,,,,,,,,,,,,,,,,,,,,,,,,,,,,,,,,,,,A983Y0,train_x,blue_star,bottom_left,2025-06-21_14h18.42.635,HideSeek_v1,2022.2.5,59.960881502255134,
,3,1,7,1,4,0,21,,train_dim1_1,28,30,,,,2,0,2,0,,,,,,,,,0,0,0,0,0,27,27,27,2,0,2,0,,,,,,,,,,,,,,,,,,,,,,,,,,,,,,,,,,,,,,,,,,,,,,,,,,,,,,,,,,,,,,,,30,,,,,,,,1182.1313549999613,1182.1313549999613,1182.1313549999613,1182.1313549999613,1182.1313549999613,right,0.1934543999377638,15,0,0,99,0.32,-0.32,right,0.11539799999445677,,,,,,,,,,,,,,,,,,,,,,,,,,,,,,,,,,,,,,,,,,,,,,,,,,,,,,,,,,,,A983Y0,train_x,blue_star,bottom_left,2025-06-21_14h18.42.635,HideSeek_v1,2022.2.5,59.960881502255134,
,3,1,7,1,4,0,21,,train_dim1_1,28,30,,,,2,0,2,0,,,,,,,,,0,0,0,0,0,27,27,27,3,0,3,0,,,,,,,,,,,,,,,,,,,,,,,,,,,,,,,,,,,,,,,,,,,,,,,,,,,,,,,,,,,,,,,,30,,,,,,,,1182.3326823000098,1182.3326823000098,1182.3326823000098,1182.3326823000098,1182.3326823000098,return,0.3926600000122562,15,1,0,0,0.32,-0.32,return,0.3069934999803081,4,69,0.32,-0.32,,,,,,,,,,,,,,,,,,,,,,,,,,,,,,,,,,,,,,,,,,,,,,,,,,,,,,,,A983Y0,train_x,blue_star,bottom_left,2025-06-21_14h18.42.635,HideSeek_v1,2022.2.5,59.960881502255134,
,4,0,5,0,1,0,51,,train_dim1_1,29,30,,,,2,0,2,0,,,,,,,,,0,0,0,0,0,28,28,28,0,0,0,0,,,,,,,,,,,,,,,,,,,,,,,,,stimuli/alien_stimuli/51.png,,,,,,,,,,,,,,,,,,,,,,,,,,,,,stimuli/alien_stimuli/21.png,21,3,30,,,,,,,30,,,,,,,,1186.8280064999126,1186.8280064999126,1186.8280064999126,1186.8280064999126,1186.8280064999126,right,1.2728719000006095,15,1,0,99,0.24,-0.4,right,1.1607696000719443,,,,,1185.2500971999252,1186.8280064999126,0.4,-0.32,0.0,0.32,-0.32,0.4,0.24000000000000002,0.4,-0.32,1184.3087319999468,1184.3087319999468,1184.3087319999468,1184.3087319999468,1184.3087319999468,1184.3087319999468,1184.3087319999468,1184.3087319999468,1184.3004448999418,1.0698916999390349,return,0.9230760999489576,,,,,,,,,,,,,,,,,,,,,,,,,,,,,,,,,A983Y0,train_x,blue_star,bottom_left,2025-06-21_14h18.42.635,HideSeek_v1,2022.2.5,59.960881502255134,
,4,0,5,0,1,0,51,,train_dim1_1,29,30,,,,2,0,2,0,,,,,,,,,0,0,0,0,0,28,28,28,1,0,1,0,,,,,,,,,,,,,,,,,,,,,,,,,,,,,,,,,,,,,,,,,,,,,,,,,,,,,,,,,,,,,,,,30,,,,,,,,1188.087201999966,1188.087201999966,1188.087201999966,1188.087201999966,1188.087201999966,return,0.6744346999330446,16,0,0,1,0.24,-0.4,return,0.5901175000471994,4,70,0.24,-0.4,,,,,,,,,,,,,,,,,,,,,,,,,,,,,,,,,,,,,,,,,,,,,,,,,,,,,,,,A983Y0,train_x,blue_star,bottom_left,2025-06-21_14h18.42.635,HideSeek_v1,2022.2.5,59.960881502255134,
,2,2,7,2,5,0,11,,train_dim1_1,30,30,,,,2,0,2,0,,,,,,,,,0,0,0,0,0,29,29,29,0,0,0,0,,,,,,,,,,,,,,,,,,,,,,,,,stimuli/alien_stimuli/11.png,,,,,,,,,,,,,,,,,,,,,,,,,,,,,stimuli/alien_stimuli/51.png,51,4,31,,,,,,,30,,,,,,,,1193.0682162999874,1193.0682162999874,1193.0682162999874,1193.0682162999874,1193.0682162999874,right,1.6733797000488266,16,0,0,99,0.08,-0.24,right,1.5895877999719232,,,,,1191.5055250999285,1193.0682162999874,0.24,-0.4,0.0,0.08,-0.4,0.24,0.2,0.24,-0.4,1190.3289962999988,1190.3289962999988,1190.3289962999988,1190.3289962999988,1190.3289962999988,1190.3289962999988,1190.3289962999988,1190.3289962999988,1190.3220050499658,1.2865153000457212,return,1.1459156000055373,,,,,,,,,,,,,,,,,,,,,,,,,,,,,,,,,A983Y0,train_x,blue_star,bottom_left,2025-06-21_14h18.42.635,HideSeek_v1,2022.2.5,59.960881502255134,
,2,2,7,2,5,0,11,,train_dim1_1,30,30,,,,2,0,2,0,,,,,,,,,0,0,0,0,0,29,29,29,1,0,1,0,,,,,,,,,,,,,,,,,,,,,,,,,,,,,,,,,,,,,,,,,,,,,,,,,,,,,,,,,,,,,,,,30,,,,,,,,1194.7430927999085,1194.7430927999085,1194.7430927999085,1194.7430927999085,1194.7430927999085,right,0.2429833000060171,16,0,0,99,0.16,-0.24,right,0.15880699991248548,,,,,,,,,,,,,,,,,,,,,,,,,,,,,,,,,,,,,,,,,,,,,,,,,,,,,,,,,,,,A983Y0,train_x,blue_star,bottom_left,2025-06-21_14h18.42.635,HideSeek_v1,2022.2.5,59.960881502255134,
,2,2,7,2,5,0,11,,train_dim1_1,30,30,,,,2,0,2,0,,,,,,,,,0,0,0,0,0,29,29,29,2,0,2,0,,,,,,,,,,,,,,,,,,,,,,,,,,,,,,,,,,,,,,,,,,,,,,,,,,,,,,,,,,,,,,,,30,,,,,,,,1194.993212500005,1194.993212500005,1194.993212500005,1194.993212500005,1194.993212500005,right,0.25926600000821054,16,0,0,99,0.24,-0.24,right,0.1778209999902174,,,,,,,,,,,,,,,,,,,,,,,,,,,,,,,,,,,,,,,,,,,,,,,,,,,,,,,,,,,,A983Y0,train_x,blue_star,bottom_left,2025-06-21_14h18.42.635,HideSeek_v1,2022.2.5,59.960881502255134,
,2,2,7,2,5,0,11,,train_dim1_1,30,30,,,,2,0,2,0,,,,,,,,,0,0,0,0,0,29,29,29,3,0,3,0,,,,,,,,,,,,,,,,,,,,,,,,,,,,,,,,,,,,,,,,,,,,,,,,,,,,,,,,,,,,,,,,30,,,,,,,,1195.2595073999837,1195.2595073999837,1195.2595073999837,1195.2595073999837,1195.2595073999837,right,0.24352359992917627,16,0,0,99,0.32,-0.24,right,0.15052220004145056,,,,,,,,,,,,,,,,,,,,,,,,,,,,,,,,,,,,,,,,,,,,,,,,,,,,,,,,,,,,A983Y0,train_x,blue_star,bottom_left,2025-06-21_14h18.42.635,HideSeek_v1,2022.2.5,59.960881502255134,
,2,2,7,2,5,0,11,,train_dim1_1,30,30,,,,2,0,2,0,,,,,,,,,0,0,0,0,0,29,29,29,4,0,4,0,,,,,,,,,,,,,,,,,,,,,,,,,,,,,,,,,,,,,,,,,,,,,,,,,,,,,,,,,,,,,,,,30,,,,,,,,1195.5094343000092,1195.5094343000092,1195.5094343000092,1195.5094343000092,1195.5094343000092,right,0.26001610001549125,16,0,0,99,0.4,-0.24,right,0.17128010001033545,,,,,,,,,,,,,,,,,,,,,,,,,,,,,,,,,,,,,,,,,,,,,,,,,,,,,,,,,,,,A983Y0,train_x,blue_star,bottom_left,2025-06-21_14h18.42.635,HideSeek_v1,2022.2.5,59.960881502255134,
,2,2,7,2,5,0,11,,train_dim1_1,30,30,,,,2,0,2,0,,,,,,,,,0,0,0,0,0,29,29,29,5,0,5,0,,,,,,,,,,,,,,,,,,,,,,,,,,,,,,,,,,,,,,,,,,,,,,,,,,,,,,,,,,,,,,,,30,,,,,,,,1195.777127499925,1195.777127499925,1195.777127499925,1195.777127499925,1195.777127499925,return,0.4094121999805793,17,0,0,1,0.4,-0.24,return,0.31871520006097853,4,75,0.4,-0.24,,,,,,,,,,,,,,,,,,,,,,,,,,,,,,,,,,,,,,,,,,,,,,,,,,,,,,,,A983Y0,train_x,blue_star,bottom_left,2025-06-21_14h18.42.635,HideSeek_v1,2022.2.5,59.960881502255134,
,,,,,,,,,,,30,,,,2,0,2,0,,,,,,,,,,,,,,,,,,,,,,,,,,,,,,,,,,,,,,,,,,,,,,,,,,,,,,,,,,,,,,,,,,,,,,,,,,stimuli/alien_stimuli/11.png,11,2,32,21,0.7,0.7083333333333335,1,1,1,30,0,conditions/schedules/train_x_first/blue_star_00/bottom_left/inputTrain_2.1.xlsx,99,1,2,1,0,,,,,,,,,,,1,,,,,,,,,1199.0450825999724,1200.6020247999113,0.4,-0.24,0.0,0.4,-0.24,0.4,0.2,0.4,-0.24,1197.749339299975,1197.749339299975,1197.749339299975,1197.749339299975,1197.749339299975,1197.749339299975,1197.749339299975,1197.749339299975,1197.7279440999264,1.4031709999544546,return,1.2778570000082254,0,0.9,0,1,17,,,,,,,,,,,,,,,,,,,,,,,,,,,,A983Y0,train_x,blue_star,bottom_left,2025-06-21_14h18.42.635,HideSeek_v1,2022.2.5,59.960881502255134,
,,,,,,,,,,,,,,,3,0,3,0,0,0,0,0,,,,,,,,,,,,,,,,,,,,,,,,,,,,,,,conditions/schedules/train_x_first/blue_star_00/bottom_left/instructions/Slide17.png,conditions/schedules/train_x_first/blue_star_00/bottom_left/instructions/Audio17.wav,1200.6020247999113,1200.5968515999848,17,"[45.46542769996449, 18.39284820004832, 16.751444000052288, 19.80186100001447, 6.770869899890386, 5.153278100071475, 5.319513600086793, 11.59038559999317, 5.7224604999646544, 7.216940300073475, 9.97139059996698, 12.837512700003572, 16.903621200006455, 13.622755000018515, 30.28790679993108, 21.90726080001332, 45.19815239997115]","[0.00023260002490133047, 18.392854599980637, 0.014747500070370734, 19.801868200069293, 0.06528860004618764, 0.081893700058572, 0.08048080001026392, 0.03479720000177622, 0.07996980007737875, 0.07956760004162788, 0.09471740003209561, 12.837518900050782, 0.01432399998884648, 13.622761500068009, 0.013875799952074885, 21.907267099944875, 45.19816049991641]",0,,,,,,,,,,,,,,,,,,,,,,,,,,,,,,,,,,,,,,,,,,,,,,,,,,,,,,,,,,,,,,,,,,,,,,,,,,,,,,,,,,,,,,,,,,,,,,,,,,,,,,,,,,,,,,,,,,,,,,,,,,,,A983Y0,train_x,blue_star,bottom_left,2025-06-21_14h18.42.635,HideSeek_v1,2022.2.5,59.960881502255134,
,,,,,,,,,,,,,,,3,0,3,0,1,0,1,0,,,,,,,,,,,,,,,,,,,,,,,,,,,,,,,conditions/schedules/train_x_first/blue_star_00/bottom_left/instructions/Slide18.png,conditions/schedules/train_x_first/blue_star_00/bottom_left/instructions/Audio18.wav,1245.8588941999478,1245.8510873999912,18,"[45.46542769996449, 18.39284820004832, 16.751444000052288, 19.80186100001447, 6.770869899890386, 5.153278100071475, 5.319513600086793, 11.59038559999317, 5.7224604999646544, 7.216940300073475, 9.97139059996698, 12.837512700003572, 16.903621200006455, 13.622755000018515, 30.28790679993108, 21.90726080001332, 45.19815239997115, 6.07765929994639]","[0.00023260002490133047, 18.392854599980637, 0.014747500070370734, 19.801868200069293, 0.06528860004618764, 0.081893700058572, 0.08048080001026392, 0.03479720000177622, 0.07996980007737875, 0.07956760004162788, 0.09471740003209561, 12.837518900050782, 0.01432399998884648, 13.622761500068009, 0.013875799952074885, 21.907267099944875, 0.055842199944891036, 6.077668299898505]",0,,,,,,,,,,,,,,,,,,,,,,,,,,,,,,,,,,,,,,,,,,,,,,,,,,,,,,,,,,,,,,,,,,,,,,,,,,,,,,,,,,,,,,,,,,,,,,,,,,,,,,,,,,,,,,,,,,,,,,,,,,,,A983Y0,train_x,blue_star,bottom_left,2025-06-21_14h18.42.635,HideSeek_v1,2022.2.5,59.960881502255134,
,,,,,,,,,,,,,,,3,0,3,0,2,0,2,0,,,,,,,,,,,,,,,,,,,,,,,,,,,,,,,conditions/schedules/train_x_first/blue_star_00/bottom_left/instructions/Slide19.png,conditions/schedules/train_x_first/blue_star_00/bottom_left/instructions/Audio19.wav,1251.9762891000137,1251.9726537499228,19,"[45.46542769996449, 18.39284820004832, 16.751444000052288, 19.80186100001447, 6.770869899890386, 5.153278100071475, 5.319513600086793, 11.59038559999317, 5.7224604999646544, 7.216940300073475, 9.97139059996698, 12.837512700003572, 16.903621200006455, 13.622755000018515, 30.28790679993108, 21.90726080001332, 45.19815239997115, 6.07765929994639, 9.884825100074522]","[0.00023260002490133047, 18.392854599980637, 0.014747500070370734, 19.801868200069293, 0.06528860004618764, 0.081893700058572, 0.08048080001026392, 0.03479720000177622, 0.07996980007737875, 0.07956760004162788, 0.09471740003209561, 12.837518900050782, 0.01432399998884648, 13.622761500068009, 0.013875799952074885, 21.907267099944875, 0.055842199944891036, 0.06346470001153648, 9.884832100011408]",0,,,,,,,,,,,,,,,,,,,,,,,,,,,,,,,,,,,,,,,,,,,,,,,,,,,,,,,,,,,,,,,,,,,,,,,,,,,,,,,,,,,,,,,,,,,,,,,,,,,,,,,,,,,,,,,,,,,,,,,,,,,,A983Y0,train_x,blue_star,bottom_left,2025-06-21_14h18.42.635,HideSeek_v1,2022.2.5,59.960881502255134,
,,,,,,,,,,,,,,,3,0,3,0,3,0,3,0,,,,,,,,,,,,,,,,,,,,,,,,,,,,,,,conditions/schedules/train_x_first/blue_star_00/bottom_left/instructions/Slide20.png,conditions/schedules/train_x_first/blue_star_00/bottom_left/instructions/Audio20.wav,1261.9150593999075,1261.9144186999183,20,"[45.46542769996449, 18.39284820004832, 16.751444000052288, 19.80186100001447, 6.770869899890386, 5.153278100071475, 5.319513600086793, 11.59038559999317, 5.7224604999646544, 7.216940300073475, 9.97139059996698, 12.837512700003572, 16.903621200006455, 13.622755000018515, 30.28790679993108, 21.90726080001332, 45.19815239997115, 6.07765929994639, 9.884825100074522, 14.125286799971946]","[0.00023260002490133047, 18.392854599980637, 0.014747500070370734, 19.801868200069293, 0.06528860004618764, 0.081893700058572, 0.08048080001026392, 0.03479720000177622, 0.07996980007737875, 0.07956760004162788, 0.09471740003209561, 12.837518900050782, 0.01432399998884648, 13.622761500068009, 0.013875799952074885, 21.907267099944875, 0.055842199944891036, 0.06346470001153648, 0.04656559997238219, 14.125295700039715]",0,,,,,,,,,,,,,,,,,,,,,,,,,,,,,,,,,,,,,,,,,,,,,,,,,,,,,,,,,,,,,,,,,,,,,,,,,,,,,,,,,,,,,,,,,,,,,,,,,,,,,,,,,,,,,,,,,,,,,,,,,,,,A983Y0,train_x,blue_star,bottom_left,2025-06-21_14h18.42.635,HideSeek_v1,2022.2.5,59.960881502255134,
1,0,3,0,8,0,5,66,2,instr_dim1_2,,,,,,3,0,3,0,,,,,0,0,0,0,,,,,,,,,,,,,,,,,,,,,,,,,,,,,,,,,,,,,stimuli/alien_stimuli/66.png,conditions/schedules/train_x_first/blue_star_00/bottom_left/inputInstr_2.xlsx,stimuli/alien_stimuli/66.png,1276.130779900006,1276.130779900006,1276.130779900006,1276.130779900006,1276.1269100999925,return,13.278422700008377,"[-0.16, -0.08, 0, 0.08, 0.16, 0.24, 0.32, 0.4, 0.48, 0.56]","[-0.4, -0.32, -0.24, -0.16, -0.08, 0, 0.08, 0.16, 0.24, 0.32]",8,3,0,0,0.4,0.0,1289.5786719999742,1289.5786719999742,1289.5786719999742,1289.5786719999742,1289.5786719999742,1289.5786719999742,1289.5786719999742,1289.5710727499682,6.272850099951029,return,6.101622199988924,stimuli/alien_stimuli/66.png,66,0,1,,,,,,,,,,,,,,,,,,,,,,,,,,,,,,,,,,,,,,,,,,,,,,,,,,,,,,,,,,,,,,,,,,,,,,,,,,,,,,,,,,,,,,,,,A983Y0,train_x,blue_star,bottom_left,2025-06-21_14h18.42.635,HideSeek_v1,2022.2.5,59.960881502255134,
,,,,,,,,,,,30,,,,3,0,3,0,,,,,,,,,,,,,,,,,,,,,,,,,,,,,,,,,,,,,,,,,,,,,,,,,,,,,,,,,,,,,,,,,,,,,,,,,,,,,,21,0.7,0.7083333333333335,1,99,2,30,0,conditions/schedules/train_x_first/blue_star_00/bottom_left/inputTrain_2.1.xlsx,99,1,2,1,0,,,,,,,,,,,,,,,,,,,,,,,,,,,,,,,,,,,,,,,,,,,,,,,,,,,,,,,,,,,,,,,,,,,,,,,,,,,A983Y0,train_x,blue_star,bottom_left,2025-06-21_14h18.42.635,HideSeek_v1,2022.2.5,59.960881502255134,
,,,,,,,,,,,,,,,4,0,4,0,0,0,0,0,,,,,,,,,,,,,,,,,,,,,,,,,,,,,,,conditions/schedules/train_x_first/blue_star_00/bottom_left/instructions/Slide21.png,conditions/schedules/train_x_first/blue_star_00/bottom_left/instructions/Audio21.wav,1295.84720869991,1295.8429568498977,21,"[45.46542769996449, 18.39284820004832, 16.751444000052288, 19.80186100001447, 6.770869899890386, 5.153278100071475, 5.319513600086793, 11.59038559999317, 5.7224604999646544, 7.216940300073475, 9.97139059996698, 12.837512700003572, 16.903621200006455, 13.622755000018515, 30.28790679993108, 21.90726080001332, 45.19815239997115, 6.07765929994639, 9.884825100074522, 14.125286799971946, 16.40566879999824]","[0.00023260002490133047, 18.392854599980637, 0.014747500070370734, 19.801868200069293, 0.06528860004618764, 0.081893700058572, 0.08048080001026392, 0.03479720000177622, 0.07996980007737875, 0.07956760004162788, 0.09471740003209561, 12.837518900050782, 0.01432399998884648, 13.622761500068009, 0.013875799952074885, 21.907267099944875, 0.055842199944891036, 0.06346470001153648, 0.04656559997238219, 14.125295700039715, 16.405675600050017]",0,,,,,,,,,,,,,,,,,,,,,,,,,,,,,,,,,,,,,,,,,,,,,,,,,,,,,,,,,,,,,,,,,,,,,,,,,,,,,,,,,,,,,,,,,,,,,,,,,,,,,,,,,,,,,,,,,,,,,,,,,,,,A983Y0,train_x,blue_star,bottom_left,2025-06-21_14h18.42.635,HideSeek_v1,2022.2.5,59.960881502255134,
