trialInstr,x_fixStart,y_fixStart,x_corrSteps,y_corrSteps,x_nrSteps,y_nrSteps,alienID,trialLength,version,trialTrain,praclen,beforeExpLoop.thisRepN,beforeExpLoop.thisTrialN,beforeExpLoop.thisN,beforeExpLoop.thisIndex,mini_instr_trials.thisRepN,mini_instr_trials.thisTrialN,mini_instr_trials.thisN,mini_instr_trials.thisIndex,instrLoop.thisRepN,instrLoop.thisTrialN,instrLoop.thisN,instrLoop.thisIndex,repeat_prac.thisRepN,repeat_prac.thisTrialN,repeat_prac.thisN,repeat_prac.thisIndex,trainLoop.thisRepN,trainLoop.thisTrialN,trainLoop.thisN,trainLoop.thisIndex,moveLoop_train.thisRepN,moveLoop_train.thisTrialN,moveLoop_train.thisN,moveLoop_train.thisIndex,start_all_time,url,slideStim,audioStim,slides.started,sounds.started,nextButton.numClicks,nextButton.timesOn,nextButton.timesOff,prev_but.numClicks,prev_but.timesOn,prev_but.timesOff,alienStim,instrFile,alienStim_instr,gridImage_instr.started,startPos_3.started,key_instr.started,alienImage_3.started,sounds_1.started,key_instr.keys,key_instr.rt,all_x,all_y,FBy_corrSteps,FBy_fixStart,FBx_corrSteps,FBx_fixStart,FBy_pathSize_check,FBx_pathSize_check,gridImage_9.started,alienImageFB_3.started,startPosFB_3.started,keyFB_3.started,pathLine_ydir_2.started,pathLine_xdir_2.started,alienFace_3.started,sounds_2.started,RTFB_instr,keyFB_3.keys,keyFB_3.rt,draw_alienStim,draw_alienID,test_x,nrepcount,perfthres,percthres,earlierperf,earlystop,nextPrac,fileidx,praclen,saveACC_train,pracFile,nextPrac_train,addNrep,fileidx_endr,repExp,showearly,gridImage_4.started,startPos.started,movePos.started,key_resp.started,alienImage.started,buttonPress_train,RTchoice_train,cumAcctrain,aCorr,saveACC_choice,corrAns,x_movePos_end,y_movePos_end,key_resp.keys,key_resp.rt,wLy_dir,wLx_dir,x_movePos,y_movePos,text_2.started,text_2.stopped,aft_x_corrPos,aft_y_corrPos,y_pathSize_check,x_pathSize_check,y_pathdirY,x_pathdirY,x_pathdirX,x_corrPos,y_corrPos,gridImage_6.started,alienImageFB_2.started,startPosFB_2.started,movePosFB_2.started,keyFB_2.started,pathLine_xdir.started,pathLine_ydir.started,alienFace.started,sounds_4.started,RT_FBtrain,keyFB_2.keys,keyFB_2.rt,saveACC_pre,ACC,within_saveACC_train,earlystop_wloop,cumAcctrain_check,participant,train_first,direction of x,starting corner,date,expName,psychopyVersion,frameRate,
,,,,,,,,,,,,0,0,0,0,0,0,0,0,,,,,,,,,,,,,,,,,start_all_time,testround,conditions/schedules/train_x_first/x_increasing_steps/top_left/instructions/Slide1.png,conditions/schedules/train_x_first/x_increasing_steps/top_left/instructions/Audio1.wav,45.19107770000119,45.15587780094938,1,[4.21800340001937],[4.2180119000258856],0,,,,,,,,,,,,,,,,,,,,,,,,,,,,,,,,,,,,,,,,,,,,,,,,,,,,,,,,,,,,,,,,,,,,,,,,,,,,,,,,,,,,,,,,,,,,,,,,,A,train_x,x_increasing_steps,top_left,2024-10-29_20h46.10.468,HideSeek_v1,2022.2.5,59.45458738315335,
,,,,,,,,,,,,0,0,0,0,1,0,1,0,,,,,,,,,,,,,,,,,,,conditions/schedules/train_x_first/x_increasing_steps/top_left/instructions/Slide2.png,conditions/schedules/train_x_first/x_increasing_steps/top_left/instructions/Audio2.wav,49.475021000020206,49.457574600039514,2,"[4.21800340001937, 0.312289800029248]","[4.2180119000258856, 0.3123061000369489]",0,,,,,,,,,,,,,,,,,,,,,,,,,,,,,,,,,,,,,,,,,,,,,,,,,,,,,,,,,,,,,,,,,,,,,,,,,,,,,,,,,,,,,,,,,,,,,,,,,A,train_x,x_increasing_steps,top_left,2024-10-29_20h46.10.468,HideSeek_v1,2022.2.5,59.45458738315335,
,,,,,,,,,,,,0,0,0,0,2,0,2,0,,,,,,,,,,,,,,,,,,,conditions/schedules/train_x_first/x_increasing_steps/top_left/instructions/Slide3.png,conditions/schedules/train_x_first/x_increasing_steps/top_left/instructions/Audio3.wav,49.8585965000093,49.841391550027765,3,"[4.21800340001937, 0.312289800029248, 0.29638459999114275]","[4.2180119000258856, 0.3123061000369489, 0.2963943000067957]",0,,,,,,,,,,,,,,,,,,,,,,,,,,,,,,,,,,,,,,,,,,,,,,,,,,,,,,,,,,,,,,,,,,,,,,,,,,,,,,,,,,,,,,,,,,,,,,,,,A,train_x,x_increasing_steps,top_left,2024-10-29_20h46.10.468,HideSeek_v1,2022.2.5,59.45458738315335,
,,,,,,,,,,,,0,0,0,0,3,0,3,0,,,,,,,,,,,,,,,,,,,conditions/schedules/train_x_first/x_increasing_steps/top_left/instructions/Slide4.png,conditions/schedules/train_x_first/x_increasing_steps/top_left/instructions/Audio4.wav,50.22640670003602,50.20773435005685,4,"[4.21800340001937, 0.312289800029248, 0.29638459999114275, 0.23180820001289248]","[4.2180119000258856, 0.3123061000369489, 0.2963943000067957, 0.23181929998099804]",0,,,,,,,,,,,,,,,,,,,,,,,,,,,,,,,,,,,,,,,,,,,,,,,,,,,,,,,,,,,,,,,,,,,,,,,,,,,,,,,,,,,,,,,,,,,,,,,,,A,train_x,x_increasing_steps,top_left,2024-10-29_20h46.10.468,HideSeek_v1,2022.2.5,59.45458738315335,
,,,,,,,,,,,,0,0,0,0,4,0,4,0,,,,,,,,,,,,,,,,,,,conditions/schedules/train_x_first/x_increasing_steps/top_left/instructions/Slide5.png,conditions/schedules/train_x_first/x_increasing_steps/top_left/instructions/Audio5.wav,50.524383200041484,50.507989450066816,5,"[4.21800340001937, 0.312289800029248, 0.29638459999114275, 0.23180820001289248, 0.2616313000326045]","[4.2180119000258856, 0.3123061000369489, 0.2963943000067957, 0.23181929998099804, 0.2616468000342138]",0,,,,,,,,,,,,,,,,,,,,,,,,,,,,,,,,,,,,,,,,,,,,,,,,,,,,,,,,,,,,,,,,,,,,,,,,,,,,,,,,,,,,,,,,,,,,,,,,,A,train_x,x_increasing_steps,top_left,2024-10-29_20h46.10.468,HideSeek_v1,2022.2.5,59.45458738315335,
,,,,,,,,,,,,0,0,0,0,5,0,5,0,,,,,,,,,,,,,,,,,,,conditions/schedules/train_x_first/x_increasing_steps/top_left/instructions/Slide6.png,conditions/schedules/train_x_first/x_increasing_steps/top_left/instructions/Audio6.wav,50.840932700026315,50.82489570005564,6,"[4.21800340001937, 0.312289800029248, 0.29638459999114275, 0.23180820001289248, 0.2616313000326045, 0.3223417000262998]","[4.2180119000258856, 0.3123061000369489, 0.2963943000067957, 0.23181929998099804, 0.00024170003598555923, 0.32235910004237667]",0,,,,,,,,,,,,,,,,,,,,,,,,,,,,,,,,,,,,,,,,,,,,,,,,,,,,,,,,,,,,,,,,,,,,,,,,,,,,,,,,,,,,,,,,,,,,,,,,,A,train_x,x_increasing_steps,top_left,2024-10-29_20h46.10.468,HideSeek_v1,2022.2.5,59.45458738315335,
,,,,,,,,,,,,0,0,0,0,6,0,6,0,,,,,,,,,,,,,,,,,,,conditions/schedules/train_x_first/x_increasing_steps/top_left/instructions/Slide7.png,conditions/schedules/train_x_first/x_increasing_steps/top_left/instructions/Audio7.wav,51.224780999997165,51.206267700030004,7,"[4.21800340001937, 0.312289800029248, 0.29638459999114275, 0.23180820001289248, 0.2616313000326045, 0.3223417000262998, 0.1925347000360489]","[4.2180119000258856, 0.3123061000369489, 0.2963943000067957, 0.23181929998099804, 0.00024170003598555923, 0.32235910004237667, 0.19254390004789457]",0,,,,,,,,,,,,,,,,,,,,,,,,,,,,,,,,,,,,,,,,,,,,,,,,,,,,,,,,,,,,,,,,,,,,,,,,,,,,,,,,,,,,,,,,,,,,,,,,,A,train_x,x_increasing_steps,top_left,2024-10-29_20h46.10.468,HideSeek_v1,2022.2.5,59.45458738315335,
,,,,,,,,,,,,0,0,0,0,7,0,7,0,,,,,,,,,,,,,,,,,,,conditions/schedules/train_x_first/x_increasing_steps/top_left/instructions/Slide8.png,conditions/schedules/train_x_first/x_increasing_steps/top_left/instructions/Audio8.wav,51.470929600007366,51.45695300000953,8,"[4.21800340001937, 0.312289800029248, 0.29638459999114275, 0.23180820001289248, 0.2616313000326045, 0.3223417000262998, 0.1925347000360489, 0.27212219999637455]","[4.2180119000258856, 0.3123061000369489, 0.2963943000067957, 0.23181929998099804, 0.00024170003598555923, 0.32235910004237667, 0.017556700040586293, 0.2721324000158347]",0,,,,,,,,,,,,,,,,,,,,,,,,,,,,,,,,,,,,,,,,,,,,,,,,,,,,,,,,,,,,,,,,,,,,,,,,,,,,,,,,,,,,,,,,,,,,,,,,,A,train_x,x_increasing_steps,top_left,2024-10-29_20h46.10.468,HideSeek_v1,2022.2.5,59.45458738315335,
,,,,,,,,,,,,0,0,0,0,8,0,8,0,,,,,,,,,,,,,,,,,,,conditions/schedules/train_x_first/x_increasing_steps/top_left/instructions/Slide9.png,conditions/schedules/train_x_first/x_increasing_steps/top_left/instructions/Audio9.wav,51.808535400021356,51.79177250005305,9,"[4.21800340001937, 0.312289800029248, 0.29638459999114275, 0.23180820001289248, 0.2616313000326045, 0.3223417000262998, 0.1925347000360489, 0.27212219999637455, 0.24114220001501963]","[4.2180119000258856, 0.3123061000369489, 0.2963943000067957, 0.23181929998099804, 0.00024170003598555923, 0.32235910004237667, 0.017556700040586293, 0.0002875000354833901, 0.24115370004437864]",0,,,,,,,,,,,,,,,,,,,,,,,,,,,,,,,,,,,,,,,,,,,,,,,,,,,,,,,,,,,,,,,,,,,,,,,,,,,,,,,,,,,,,,,,,,,,,,,,,A,train_x,x_increasing_steps,top_left,2024-10-29_20h46.10.468,HideSeek_v1,2022.2.5,59.45458738315335,
,,,,,,,,,,,,0,0,0,0,9,0,9,0,,,,,,,,,,,,,,,,,,,conditions/schedules/train_x_first/x_increasing_steps/top_left/instructions/Slide10.png,conditions/schedules/train_x_first/x_increasing_steps/top_left/instructions/Audio10.wav,52.088044800038915,52.07496955005917,10,"[4.21800340001937, 0.312289800029248, 0.29638459999114275, 0.23180820001289248, 0.2616313000326045, 0.3223417000262998, 0.1925347000360489, 0.27212219999637455, 0.24114220001501963, 0.28998679999494925]","[4.2180119000258856, 0.3123061000369489, 0.2963943000067957, 0.23181929998099804, 0.00024170003598555923, 0.32235910004237667, 0.017556700040586293, 0.0002875000354833901, 0.07338790001813322, 0.29000390000874177]",0,,,,,,,,,,,,,,,,,,,,,,,,,,,,,,,,,,,,,,,,,,,,,,,,,,,,,,,,,,,,,,,,,,,,,,,,,,,,,,,,,,,,,,,,,,,,,,,,,A,train_x,x_increasing_steps,top_left,2024-10-29_20h46.10.468,HideSeek_v1,2022.2.5,59.45458738315335,
,,,,,,,,,,,,0,0,0,0,10,0,10,0,,,,,,,,,,,,,,,,,,,conditions/schedules/train_x_first/x_increasing_steps/top_left/instructions/Slide11.png,conditions/schedules/train_x_first/x_increasing_steps/top_left/instructions/Audio11.wav,52.441536300000735,52.424434600013775,11,"[4.21800340001937, 0.312289800029248, 0.29638459999114275, 0.23180820001289248, 0.2616313000326045, 0.3223417000262998, 0.1925347000360489, 0.27212219999637455, 0.24114220001501963, 0.28998679999494925, 0.2529817000031471]","[4.2180119000258856, 0.3123061000369489, 0.2963943000067957, 0.23181929998099804, 0.00024170003598555923, 0.32235910004237667, 0.017556700040586293, 0.0002875000354833901, 0.07338790001813322, 0.020041300042066723, 0.2529931000317447]",0,,,,,,,,,,,,,,,,,,,,,,,,,,,,,,,,,,,,,,,,,,,,,,,,,,,,,,,,,,,,,,,,,,,,,,,,,,,,,,,,,,,,,,,,,,,,,,,,,A,train_x,x_increasing_steps,top_left,2024-10-29_20h46.10.468,HideSeek_v1,2022.2.5,59.45458738315335,
,,,,,,,,,,,,0,0,0,0,11,0,11,0,,,,,,,,,,,,,,,,,,,conditions/schedules/train_x_first/x_increasing_steps/top_left/instructions/Slide12.png,conditions/schedules/train_x_first/x_increasing_steps/top_left/instructions/Audio12.wav,52.75669230002677,52.741090300050566,12,"[4.21800340001937, 0.312289800029248, 0.29638459999114275, 0.23180820001289248, 0.2616313000326045, 0.3223417000262998, 0.1925347000360489, 0.27212219999637455, 0.24114220001501963, 0.28998679999494925, 0.2529817000031471, 0.2865148999844678]","[4.2180119000258856, 0.3123061000369489, 0.2963943000067957, 0.23181929998099804, 0.00024170003598555923, 0.32235910004237667, 0.017556700040586293, 0.0002875000354833901, 0.07338790001813322, 0.020041300042066723, 0.018735599995125085, 0.2865243999985978]",0,,,,,,,,,,,,,,,,,,,,,,,,,,,,,,,,,,,,,,,,,,,,,,,,,,,,,,,,,,,,,,,,,,,,,,,,,,,,,,,,,,,,,,,,,,,,,,,,,A,train_x,x_increasing_steps,top_left,2024-10-29_20h46.10.468,HideSeek_v1,2022.2.5,59.45458738315335,
1,3,2,8,2,5,0,66,2,instr_dim1_1,,,0,0,0,0,,,,,0,0,0,0,,,,,,,,,,,,,,,,,,,,,,,,,stimuli/alien_stimuli/66.png,conditions/schedules/train_x_first/x_increasing_steps/top_left/inputInstr_1.xlsx,stimuli/alien_stimuli/66.png,53.14162660000147,53.14162660000147,53.14162660000147,53.14162660000147,53.12441710002022,return,1.0802109999931417,"[-0.16, -0.08, 0, 0.08, 0.16, 0.24, 0.32, 0.4, 0.48, 0.56]","[-0.4, -0.32, -0.24, -0.16, -0.08, 0, 0.08, 0.16, 0.24, 0.32]",2,2,8,3,0.0,0.4,54.40768610005034,54.40768610005034,54.40768610005034,54.40768610005034,54.40768610005034,54.40768610005034,54.40768610005034,54.35830160002224,0.7832436000462621,return,0.5927921999827959,stimuli/alien_stimuli/66.png,66,3,1,,,,,,,,,,,,,,,,,,,,,,,,,,,,,,,,,,,,,,,,,,,,,,,,,,,,,,,,,,,,,,A,train_x,x_increasing_steps,top_left,2024-10-29_20h46.10.468,HideSeek_v1,2022.2.5,59.45458738315335,
,,,,,,,,,,,30,0,0,0,0,,,,,,,,,,,,,,,,,,,,,,,,,,,,,,,,,,,,,,,,,,,,,,,,,,,,,,,,,,,,,,,,,,17,0.7,0,0,99,1,30,0,conditions/schedules/train_x_first/x_increasing_steps/top_left/inputTrain_1.1.xlsx,99,1,1,1,0,,,,,,,,,,,,,,,,,,,,,,,,,,,,,,,,,,,,,,,,,,,,,,,,A,train_x,x_increasing_steps,top_left,2024-10-29_20h46.10.468,HideSeek_v1,2022.2.5,59.45458738315335,
,,,,,,,,,,,,1,0,1,0,0,0,0,0,,,,,,,,,,,,,,,,,,,conditions/schedules/train_x_first/x_increasing_steps/top_left/instructions/Slide13.png,conditions/schedules/train_x_first/x_increasing_steps/top_left/instructions/Audio13.wav,55.184968700050376,55.174345200066455,13,"[4.21800340001937, 0.312289800029248, 0.29638459999114275, 0.23180820001289248, 0.2616313000326045, 0.3223417000262998, 0.1925347000360489, 0.27212219999637455, 0.24114220001501963, 0.28998679999494925, 0.2529817000031471, 0.2865148999844678, 0.6924110000254586]","[4.2180119000258856, 0.3123061000369489, 0.2963943000067957, 0.23181929998099804, 0.00024170003598555923, 0.32235910004237667, 0.017556700040586293, 0.0002875000354833901, 0.07338790001813322, 0.020041300042066723, 0.018735599995125085, 0.2865243999985978, 0.6924194000312127]",0,,,,,,,,,,,,,,,,,,,,,,,,,,,,,,,,,,,,,,,,,,,,,,,,,,,,,,,,,,,,,,,,,,,,,,,,,,,,,,,,,,,,,,,,,,,,,,,,,A,train_x,x_increasing_steps,top_left,2024-10-29_20h46.10.468,HideSeek_v1,2022.2.5,59.45458738315335,
,,,,,,,,,,,,1,0,1,0,1,0,1,0,,,,,,,,,,,,,,,,,,,conditions/schedules/train_x_first/x_increasing_steps/top_left/instructions/Slide14.png,conditions/schedules/train_x_first/x_increasing_steps/top_left/instructions/Audio14.wav,55.94737480004551,55.94139845005702,14,"[4.21800340001937, 0.312289800029248, 0.29638459999114275, 0.23180820001289248, 0.2616313000326045, 0.3223417000262998, 0.1925347000360489, 0.27212219999637455, 0.24114220001501963, 0.28998679999494925, 0.2529817000031471, 0.2865148999844678, 0.6924110000254586, 0.7126104999915697]","[4.2180119000258856, 0.3123061000369489, 0.2963943000067957, 0.23181929998099804, 0.00024170003598555923, 0.32235910004237667, 0.017556700040586293, 0.0002875000354833901, 0.07338790001813322, 0.020041300042066723, 0.018735599995125085, 0.2865243999985978, 0.16256679996149614, 0.7126196999452077]",0,,,,,,,,,,,,,,,,,,,,,,,,,,,,,,,,,,,,,,,,,,,,,,,,,,,,,,,,,,,,,,,,,,,,,,,,,,,,,,,,,,,,,,,,,,,,,,,,,A,train_x,x_increasing_steps,top_left,2024-10-29_20h46.10.468,HideSeek_v1,2022.2.5,59.45458738315335,
2,4,0,4,0,0,0,16,2,instr_dim1_1,,,1,0,1,0,,,,,0,0,0,0,,,,,,,,,,,,,,,,,,,,,,,,,stimuli/alien_stimuli/16.png,conditions/schedules/train_x_first/x_increasing_steps/top_left/inputInstr_1.xlsx,stimuli/alien_stimuli/16.png,56.84177140000975,56.84177140000975,56.84177140000975,56.84177140000975,56.74155600005761,return,1.8099815999739803,"[-0.16, -0.08, 0, 0.08, 0.16, 0.24, 0.32, 0.4, 0.48, 0.56]","[-0.4, -0.32, -0.24, -0.16, -0.08, 0, 0.08, 0.16, 0.24, 0.32]",0,0,4,4,0.0,0.0,58.92518740001833,58.92518740001833,58.92518740001833,58.92518740001833,58.92518740001833,58.92518740001833,58.92518740001833,58.807585450029,0.7006855999934487,return,0.41844690003199503,stimuli/alien_stimuli/16.png,16,4,2,,,,,,,,,,,,,,,,,,,,,,,,,,,,,,,,,,,,,,,,,,,,,,,,,,,,,,,,,,,,,,A,train_x,x_increasing_steps,top_left,2024-10-29_20h46.10.468,HideSeek_v1,2022.2.5,59.45458738315335,
,,,,,,,,,,,30,1,0,1,0,,,,,,,,,,,,,,,,,,,,,,,,,,,,,,,,,,,,,,,,,,,,,,,,,,,,,,,,,,,,,,,,,,17,0.7,0,0,99,1,30,0,conditions/schedules/train_x_first/x_increasing_steps/top_left/inputTrain_1.1.xlsx,99,1,1,1,0,,,,,,,,,,,,,,,,,,,,,,,,,,,,,,,,,,,,,,,,,,,,,,,,A,train_x,x_increasing_steps,top_left,2024-10-29_20h46.10.468,HideSeek_v1,2022.2.5,59.45458738315335,
,,,,,,,,,,,,2,0,2,0,0,0,0,0,,,,,,,,,,,,,,,,,,,conditions/schedules/train_x_first/x_increasing_steps/top_left/instructions/Slide15.png,conditions/schedules/train_x_first/x_increasing_steps/top_left/instructions/Audio15.wav,59.54859000002034,59.54062665007077,15,"[4.21800340001937, 0.312289800029248, 0.29638459999114275, 0.23180820001289248, 0.2616313000326045, 0.3223417000262998, 0.1925347000360489, 0.27212219999637455, 0.24114220001501963, 0.28998679999494925, 0.2529817000031471, 0.2865148999844678, 0.6924110000254586, 0.7126104999915697, 1.378243700019084]","[4.2180119000258856, 0.3123061000369489, 0.2963943000067957, 0.23181929998099804, 0.00024170003598555923, 0.32235910004237667, 0.017556700040586293, 0.0002875000354833901, 0.07338790001813322, 0.020041300042066723, 0.018735599995125085, 0.2865243999985978, 0.16256679996149614, 0.7126196999452077, 1.378263099992182]",0,,,,,,,,,,,,,,,,,,,,,,,,,,,,,,,,,,,,,,,,,,,,,,,,,,,,,,,,,,,,,,,,,,,,,,,,,,,,,,,,,,,,,,,,,,,,,,,,,A,train_x,x_increasing_steps,top_left,2024-10-29_20h46.10.468,HideSeek_v1,2022.2.5,59.45458738315335,
,,,,,,,,,,,,2,0,2,0,1,0,1,0,,,,,,,,,,,,,,,,,,,conditions/schedules/train_x_first/x_increasing_steps/top_left/instructions/Slide16.png,conditions/schedules/train_x_first/x_increasing_steps/top_left/instructions/Audio16.wav,61.00767620000988,60.99103465001099,16,"[4.21800340001937, 0.312289800029248, 0.29638459999114275, 0.23180820001289248, 0.2616313000326045, 0.3223417000262998, 0.1925347000360489, 0.27212219999637455, 0.24114220001501963, 0.28998679999494925, 0.2529817000031471, 0.2865148999844678, 0.6924110000254586, 0.7126104999915697, 1.378243700019084, 0.6914787000278011]","[4.2180119000258856, 0.3123061000369489, 0.2963943000067957, 0.23181929998099804, 0.00024170003598555923, 0.32235910004237667, 0.017556700040586293, 0.0002875000354833901, 0.07338790001813322, 0.020041300042066723, 0.018735599995125085, 0.2865243999985978, 0.16256679996149614, 0.7126196999452077, 1.378263099992182, 0.6914901999989524]",0,,,,,,,,,,,,,,,,,,,,,,,,,,,,,,,,,,,,,,,,,,,,,,,,,,,,,,,,,,,,,,,,,,,,,,,,,,,,,,,,,,,,,,,,,,,,,,,,,A,train_x,x_increasing_steps,top_left,2024-10-29_20h46.10.468,HideSeek_v1,2022.2.5,59.45458738315335,
,2,1,4,1,2,0,36,,train_dim1_1,1,30,2,0,2,0,,,,,,,,,0,0,0,0,0,0,0,0,0,0,0,0,,,,,,,,,,,,,stimuli/alien_stimuli/36.png,,,,,,,,,,,,,,,,,,,,,,,,,,,,,,,,,,,,,,,30,,,,,,,,61.79120380000677,61.79120380000677,61.79120380000677,61.79120380000677,61.79120380000677,right,2.2050273999921046,0,0,0,99,0.08,-0.32,right,2.1046266999910586,,,,,,,,,,,,,,,,,,,,,,,,,,,,,,,,,A,train_x,x_increasing_steps,top_left,2024-10-29_20h46.10.468,HideSeek_v1,2022.2.5,59.45458738315335,
,2,1,4,1,2,0,36,,train_dim1_1,1,30,2,0,2,0,,,,,,,,,0,0,0,0,0,0,0,0,1,0,1,0,,,,,,,,,,,,,,,,,,,,,,,,,,,,,,,,,,,,,,,,,,,,,,,,,,,,30,,,,,,,,64.00799520005239,64.00799520005239,64.00799520005239,64.00799520005239,64.00799520005239,right,3.8428900000290014,0,0,0,99,0.16,-0.32,right,3.7524374999920838,,,,,,,,,,,,,,,,,,,,,,,,,,,,,,,,,A,train_x,x_increasing_steps,top_left,2024-10-29_20h46.10.468,HideSeek_v1,2022.2.5,59.45458738315335,
,2,1,4,1,2,0,36,,train_dim1_1,1,30,2,0,2,0,,,,,,,,,0,0,0,0,0,0,0,0,2,0,2,0,,,,,,,,,,,,,,,,,,,,,,,,,,,,,,,,,,,,,,,,,,,,,,,,,,,,30,,,,,,,,67.85086360003334,67.85086360003334,67.85086360003334,67.85086360003334,67.85086360003334,return,0.42307189997518435,1,0,0,1,0.16,-0.32,return,0.34226240002317354,0,2,0.16,-0.32,,,,,,,,,,,,,,,,,,,,,,,,,,,,,A,train_x,x_increasing_steps,top_left,2024-10-29_20h46.10.468,HideSeek_v1,2022.2.5,59.45458738315335,
,2,4,2,4,0,0,16,,train_dim1_1,2,30,2,0,2,0,,,,,,,,,0,0,0,0,0,1,1,1,0,0,0,0,,,,,,,,,,,,,stimuli/alien_stimuli/16.png,,,,,,,,,,,,,,,,,,,,,,,,,,,,,stimuli/alien_stimuli/36.png,36,2,3,,,,,,,30,,,,,,,,71.99555600003805,71.99555600003805,71.99555600003805,71.99555600003805,71.99555600003805,return,0.8539896999718621,2,0,0,1,0,-0.08,return,0.7212591999559663,0,2,0,-0.08,70.39149370003724,71.99555600003805,0.16,-0.32,0.0,0.16,-0.32,0.16,0.08,0.16,-0.32,69.88119640003424,69.88119640003424,69.88119640003424,69.88119640003424,69.88119640003424,69.88119640003424,69.88119640003424,69.88119640003424,69.824063650053,0.6691813999786973,return,0.49116450001019984,,,,,,A,train_x,x_increasing_steps,top_left,2024-10-29_20h46.10.468,HideSeek_v1,2022.2.5,59.45458738315335,
,4,4,5,4,1,0,26,,train_dim1_1,3,30,2,0,2,0,,,,,,,,,0,0,0,0,0,2,2,2,0,0,0,0,,,,,,,,,,,,,stimuli/alien_stimuli/26.png,,,,,,,,,,,,,,,,,,,,,,,,,,,,,stimuli/alien_stimuli/16.png,16,2,4,,,,,,,30,,,,,,,,76.53711640002439,76.53711640002439,76.53711640002439,76.53711640002439,76.53711640002439,right,0.48809920001076534,2,0,0,99,0.24,-0.08,right,0.33246919995872304,,,,,74.90726760000689,76.53711640002439,0,-0.08,0.0,0.0,-0.08,0,0.0,0,-0.08,74.52204360003816,74.52204360003816,74.52204360003816,74.52204360003816,74.52204360003816,74.52204360003816,74.52204360003816,74.52204360003816,74.3581239500316,0.6528424000134692,return,0.36899650003761053,,,,,,A,train_x,x_increasing_steps,top_left,2024-10-29_20h46.10.468,HideSeek_v1,2022.2.5,59.45458738315335,
,4,4,5,4,1,0,26,,train_dim1_1,3,30,2,0,2,0,,,,,,,,,0,0,0,0,0,2,2,2,1,0,1,0,,,,,,,,,,,,,,,,,,,,,,,,,,,,,,,,,,,,,,,,,,,,,,,,,,,,30,,,,,,,,76.97214820003137,76.97214820003137,76.97214820003137,76.97214820003137,76.97214820003137,return,0.340084100025706,3,0,0,1,0.24,-0.08,return,0.2507177999941632,0,3,0.24,-0.08,,,,,,,,,,,,,,,,,,,,,,,,,,,,,A,train_x,x_increasing_steps,top_left,2024-10-29_20h46.10.468,HideSeek_v1,2022.2.5,59.45458738315335,
,2,3,5,3,3,0,46,,train_dim1_1,4,30,2,0,2,0,,,,,,,,,0,0,0,0,0,3,3,3,0,0,0,0,,,,,,,,,,,,,stimuli/alien_stimuli/46.png,,,,,,,,,,,,,,,,,,,,,,,,,,,,,stimuli/alien_stimuli/26.png,26,4,5,,,,,,,30,,,,,,,,80.82348580000689,80.82348580000689,80.82348580000689,80.82348580000689,80.82348580000689,right,1.3538377999793738,3,0,0,99,0.08,-0.16,right,1.2215972999692895,,,,,79.22375550004654,80.82348580000689,0.24,-0.08,0.0,0.08,-0.08,0.24,0.2,0.24,-0.08,78.99208880000515,78.99208880000515,78.99208880000515,78.99208880000515,78.99208880000515,78.99208880000515,78.99208880000515,78.99208880000515,78.89125055007172,0.46824580000247806,return,0.21131899999454618,,,,,,A,train_x,x_increasing_steps,top_left,2024-10-29_20h46.10.468,HideSeek_v1,2022.2.5,59.45458738315335,
,2,3,5,3,3,0,46,,train_dim1_1,4,30,2,0,2,0,,,,,,,,,0,0,0,0,0,3,3,3,1,0,1,0,,,,,,,,,,,,,,,,,,,,,,,,,,,,,,,,,,,,,,,,,,,,,,,,,,,,30,,,,,,,,82.15175330004422,82.15175330004422,82.15175330004422,82.15175330004422,82.15175330004422,right,0.24127850000513718,3,0,0,99,0.16,-0.16,right,0.14315239997813478,,,,,,,,,,,,,,,,,,,,,,,,,,,,,,,,,A,train_x,x_increasing_steps,top_left,2024-10-29_20h46.10.468,HideSeek_v1,2022.2.5,59.45458738315335,
,2,3,5,3,3,0,46,,train_dim1_1,4,30,2,0,2,0,,,,,,,,,0,0,0,0,0,3,3,3,2,0,2,0,,,,,,,,,,,,,,,,,,,,,,,,,,,,,,,,,,,,,,,,,,,,,,,,,,,,30,,,,,,,,82.39710850000847,82.39710850000847,82.39710850000847,82.39710850000847,82.39710850000847,right,0.24101519997930154,3,0,0,99,0.24,-0.16,right,0.1480401000007987,,,,,,,,,,,,,,,,,,,,,,,,,,,,,,,,,A,train_x,x_increasing_steps,top_left,2024-10-29_20h46.10.468,HideSeek_v1,2022.2.5,59.45458738315335,
,2,3,5,3,3,0,46,,train_dim1_1,4,30,2,0,2,0,,,,,,,,,0,0,0,0,0,3,3,3,3,0,3,0,,,,,,,,,,,,,,,,,,,,,,,,,,,,,,,,,,,,,,,,,,,,,,,,,,,,30,,,,,,,,82.64909160003299,82.64909160003299,82.64909160003299,82.64909160003299,82.64909160003299,return,0.3244852999923751,4,0,0,1,0.24,-0.16,return,0.23940069996751845,0,6,0.24,-0.16,,,,,,,,,,,,,,,,,,,,,,,,,,,,,A,train_x,x_increasing_steps,top_left,2024-10-29_20h46.10.468,HideSeek_v1,2022.2.5,59.45458738315335,
,0,2,5,2,5,0,66,,train_dim1_1,5,30,2,0,2,0,,,,,,,,,0,0,0,0,0,4,4,4,0,0,0,0,,,,,,,,,,,,,stimuli/alien_stimuli/66.png,,,,,,,,,,,,,,,,,,,,,,,,,,,,,stimuli/alien_stimuli/46.png,46,2,6,,,,,,,30,,,,,,,,87.31319610000355,87.31319610000355,87.31319610000355,87.31319610000355,87.31319610000355,right,1.0036575999693014,4,0,0,99,-0.08,-0.24,right,0.8265103999874555,,,,,85.65729540004395,87.31319610000355,0.24,-0.16,0.0,0.24,-0.16,0.24,0.12,0.24,-0.16,84.61382270004833,84.61382270004833,84.61382270004833,84.61382270004833,84.61382270004833,84.61382270004833,84.61382270004833,84.61382270004833,84.52433455003194,1.2351668000337668,return,1.0215806000051089,,,,,,A,train_x,x_increasing_steps,top_left,2024-10-29_20h46.10.468,HideSeek_v1,2022.2.5,59.45458738315335,
,0,2,5,2,5,0,66,,train_dim1_1,5,30,2,0,2,0,,,,,,,,,0,0,0,0,0,4,4,4,1,0,1,0,,,,,,,,,,,,,,,,,,,,,,,,,,,,,,,,,,,,,,,,,,,,,,,,,,,,30,,,,,,,,88.23953030002303,88.23953030002303,88.23953030002303,88.23953030002303,88.23953030002303,right,0.22380859998520464,4,0,0,99,0.0,-0.24,right,0.12303650000831112,,,,,,,,,,,,,,,,,,,,,,,,,,,,,,,,,A,train_x,x_increasing_steps,top_left,2024-10-29_20h46.10.468,HideSeek_v1,2022.2.5,59.45458738315335,
,0,2,5,2,5,0,66,,train_dim1_1,5,30,2,0,2,0,,,,,,,,,0,0,0,0,0,4,4,4,2,0,2,0,,,,,,,,,,,,,,,,,,,,,,,,,,,,,,,,,,,,,,,,,,,,,,,,,,,,30,,,,,,,,88.4745905000018,88.4745905000018,88.4745905000018,88.4745905000018,88.4745905000018,right,0.22474969999166206,4,0,0,99,0.08,-0.24,right,0.12498869997216389,,,,,,,,,,,,,,,,,,,,,,,,,,,,,,,,,A,train_x,x_increasing_steps,top_left,2024-10-29_20h46.10.468,HideSeek_v1,2022.2.5,59.45458738315335,
,0,2,5,2,5,0,66,,train_dim1_1,5,30,2,0,2,0,,,,,,,,,0,0,0,0,0,4,4,4,3,0,3,0,,,,,,,,,,,,,,,,,,,,,,,,,,,,,,,,,,,,,,,,,,,,,,,,,,,,30,,,,,,,,88.70848640002077,88.70848640002077,88.70848640002077,88.70848640002077,88.70848640002077,right,0.19165990001056343,4,0,0,99,0.16,-0.24,right,0.09556420001899824,,,,,,,,,,,,,,,,,,,,,,,,,,,,,,,,,A,train_x,x_increasing_steps,top_left,2024-10-29_20h46.10.468,HideSeek_v1,2022.2.5,59.45458738315335,
,0,2,5,2,5,0,66,,train_dim1_1,5,30,2,0,2,0,,,,,,,,,0,0,0,0,0,4,4,4,4,0,4,0,,,,,,,,,,,,,,,,,,,,,,,,,,,,,,,,,,,,,,,,,,,,,,,,,,,,30,,,,,,,,88.90129650000017,88.90129650000017,88.90129650000017,88.90129650000017,88.90129650000017,right,0.24194879998685792,4,0,0,99,0.24,-0.24,right,0.1498386000166647,,,,,,,,,,,,,,,,,,,,,,,,,,,,,,,,,A,train_x,x_increasing_steps,top_left,2024-10-29_20h46.10.468,HideSeek_v1,2022.2.5,59.45458738315335,
,0,2,5,2,5,0,66,,train_dim1_1,5,30,2,0,2,0,,,,,,,,,0,0,0,0,0,4,4,4,5,0,5,0,,,,,,,,,,,,,,,,,,,,,,,,,,,,,,,,,,,,,,,,,,,,,,,,,,,,30,,,,,,,,89.15465010004118,89.15465010004118,89.15465010004118,89.15465010004118,89.15465010004118,return,0.3239354999968782,5,0,0,1,0.24,-0.24,return,0.23595770000247285,0,11,0.24,-0.24,,,,,,,,,,,,,,,,,,,,,,,,,,,,,A,train_x,x_increasing_steps,top_left,2024-10-29_20h46.10.468,HideSeek_v1,2022.2.5,59.45458738315335,
,0,0,1,0,1,0,26,,train_dim1_1,6,30,2,0,2,0,,,,,,,,,0,0,0,0,0,5,5,5,0,0,0,0,,,,,,,,,,,,,stimuli/alien_stimuli/26.png,,,,,,,,,,,,,,,,,,,,,,,,,,,,,stimuli/alien_stimuli/66.png,66,0,7,,,,,,,30,,,,,,,,92.98991980002029,92.98991980002029,92.98991980002029,92.98991980002029,92.98991980002029,right,0.7376370999845676,5,0,0,99,-0.08,-0.4,right,0.6048817000119016,,,,,91.39030050003203,92.98991980002029,0.24,-0.24,0.0,0.4,-0.24,0.24,0.039999999999999994,0.24,-0.24,91.1053288000403,91.1053288000403,91.1053288000403,91.1053288000403,91.1053288000403,91.1053288000403,91.1053288000403,91.1053288000403,91.0239879500703,0.4686359000043012,return,0.26213909999933094,,,,,,A,train_x,x_increasing_steps,top_left,2024-10-29_20h46.10.468,HideSeek_v1,2022.2.5,59.45458738315335,
,0,0,1,0,1,0,26,,train_dim1_1,6,30,2,0,2,0,,,,,,,,,0,0,0,0,0,5,5,5,1,0,1,0,,,,,,,,,,,,,,,,,,,,,,,,,,,,,,,,,,,,,,,,,,,,,,,,,,,,30,,,,,,,,93.70406990003539,93.70406990003539,93.70406990003539,93.70406990003539,93.70406990003539,return,0.4572722999728285,6,0,0,1,-0.08,-0.4,return,0.3594621000229381,0,12,-0.08,-0.4,,,,,,,,,,,,,,,,,,,,,,,,,,,,,A,train_x,x_increasing_steps,top_left,2024-10-29_20h46.10.468,HideSeek_v1,2022.2.5,59.45458738315335,
,3,0,8,0,5,0,66,,train_dim1_1,7,30,2,0,2,0,,,,,,,,,0,0,0,0,0,6,6,6,0,0,0,0,,,,,,,,,,,,,stimuli/alien_stimuli/66.png,,,,,,,,,,,,,,,,,,,,,,,,,,,,,stimuli/alien_stimuli/26.png,26,0,8,,,,,,,30,,,,,,,,98.34474320005393,98.34474320005393,98.34474320005393,98.34474320005393,98.34474320005393,right,0.6886668000370264,6,0,0,99,0.16,-0.4,right,0.5549167999997735,,,,,96.74046410003211,95.80956590001006,-0.08,-0.4,0.0,0.08,-0.4,-0.08,-0.12,-0.08,-0.4,95.80956590001006,95.80956590001006,95.80956590001006,95.80956590001006,95.80956590001006,95.80956590001006,95.80956590001006,95.80956590001006,95.72481530007208,1.1175491000176407,return,0.886047400010284,,,,,,A,train_x,x_increasing_steps,top_left,2024-10-29_20h46.10.468,HideSeek_v1,2022.2.5,59.45458738315335,
,3,0,8,0,5,0,66,,train_dim1_1,7,30,2,0,2,0,,,,,,,,,0,0,0,0,0,6,6,6,1,0,1,0,,,,,,,,,,,,,,,,,,,,,,,,,,,,,,,,,,,,,,,,,,,,,,,,,,,,30,,,,,,,,99.00267800001893,99.00267800001893,99.00267800001893,99.00267800001893,99.00267800001893,right,0.2412894000299275,6,0,0,99,0.24,-0.4,right,0.1416421000030823,,,,,,,,,,,,,,,,,,,,,,,,,,,,,,,,,A,train_x,x_increasing_steps,top_left,2024-10-29_20h46.10.468,HideSeek_v1,2022.2.5,59.45458738315335,
,3,0,8,0,5,0,66,,train_dim1_1,7,30,2,0,2,0,,,,,,,,,0,0,0,0,0,6,6,6,2,0,2,0,,,,,,,,,,,,,,,,,,,,,,,,,,,,,,,,,,,,,,,,,,,,,,,,,,,,30,,,,,,,,99.25578710000264,99.25578710000264,99.25578710000264,99.25578710000264,99.25578710000264,right,0.2412565000122413,6,0,0,99,0.32,-0.4,right,0.14672979997703806,,,,,,,,,,,,,,,,,,,,,,,,,,,,,,,,,A,train_x,x_increasing_steps,top_left,2024-10-29_20h46.10.468,HideSeek_v1,2022.2.5,59.45458738315335,
,3,0,8,0,5,0,66,,train_dim1_1,7,30,2,0,2,0,,,,,,,,,0,0,0,0,0,6,6,6,3,0,3,0,,,,,,,,,,,,,,,,,,,,,,,,,,,,,,,,,,,,,,,,,,,,,,,,,,,,30,,,,,,,,99.5036822000402,99.5036822000402,99.5036822000402,99.5036822000402,99.5036822000402,right,0.20840069995028898,6,0,0,99,0.4,-0.4,right,0.1203531000064686,,,,,,,,,,,,,,,,,,,,,,,,,,,,,,,,,A,train_x,x_increasing_steps,top_left,2024-10-29_20h46.10.468,HideSeek_v1,2022.2.5,59.45458738315335,
,3,0,8,0,5,0,66,,train_dim1_1,7,30,2,0,2,0,,,,,,,,,0,0,0,0,0,6,6,6,4,0,4,0,,,,,,,,,,,,,,,,,,,,,,,,,,,,,,,,,,,,,,,,,,,,,,,,,,,,30,,,,,,,,99.72567660000641,99.72567660000641,99.72567660000641,99.72567660000641,99.72567660000641,right,0.20844359998591244,6,0,0,99,0.48000000000000004,-0.4,right,0.11249049997422844,,,,,,,,,,,,,,,,,,,,,,,,,,,,,,,,,A,train_x,x_increasing_steps,top_left,2024-10-29_20h46.10.468,HideSeek_v1,2022.2.5,59.45458738315335,
,3,0,8,0,5,0,66,,train_dim1_1,7,30,2,0,2,0,,,,,,,,,0,0,0,0,0,6,6,6,5,0,5,0,,,,,,,,,,,,,,,,,,,,,,,,,,,,,,,,,,,,,,,,,,,,,,,,,,,,30,,,,,,,,99.94247380003799,99.94247380003799,99.94247380003799,99.94247380003799,99.94247380003799,return,0.27433129999553785,7,0,0,1,0.48000000000000004,-0.4,return,0.17830610001692548,0,17,0.48000000000000004,-0.4,,,,,,,,,,,,,,,,,,,,,,,,,,,,,A,train_x,x_increasing_steps,top_left,2024-10-29_20h46.10.468,HideSeek_v1,2022.2.5,59.45458738315335,
,0,4,2,4,2,0,36,,train_dim1_1,8,30,2,0,2,0,,,,,,,,,0,0,0,0,0,7,7,7,0,0,0,0,,,,,,,,,,,,,stimuli/alien_stimuli/36.png,,,,,,,,,,,,,,,,,,,,,,,,,,,,,stimuli/alien_stimuli/66.png,66,3,9,,,,,,,30,,,,,,,,104.12421650002943,104.12421650002943,104.12421650002943,104.12421650002943,104.12421650002943,right,0.5542695000185631,7,0,0,99,-0.08,-0.08,right,0.4322387000429444,,,,,102.52407090004999,104.12421650002943,0.48,-0.4,0.0,0.4,-0.4,0.48,0.27999999999999997,0.48,-0.4,101.93429770000512,101.93429770000512,101.93429770000512,101.93429770000512,101.93429770000512,101.93429770000512,101.93429770000512,101.93429770000512,101.77419620006113,0.8701034999685362,return,0.5747777000069618,,,,,,A,train_x,x_increasing_steps,top_left,2024-10-29_20h46.10.468,HideSeek_v1,2022.2.5,59.45458738315335,
,0,4,2,4,2,0,36,,train_dim1_1,8,30,2,0,2,0,,,,,,,,,0,0,0,0,0,7,7,7,1,0,1,0,,,,,,,,,,,,,,,,,,,,,,,,,,,,,,,,,,,,,,,,,,,,,,,,,,,,30,,,,,,,,104.64691390004009,104.64691390004009,104.64691390004009,104.64691390004009,104.64691390004009,right,0.4576094000367448,7,0,0,99,0.0,-0.08,right,0.3710194999584928,,,,,,,,,,,,,,,,,,,,,,,,,,,,,,,,,A,train_x,x_increasing_steps,top_left,2024-10-29_20h46.10.468,HideSeek_v1,2022.2.5,59.45458738315335,
,0,4,2,4,2,0,36,,train_dim1_1,8,30,2,0,2,0,,,,,,,,,0,0,0,0,0,7,7,7,2,0,2,0,,,,,,,,,,,,,,,,,,,,,,,,,,,,,,,,,,,,,,,,,,,,,,,,,,,,30,,,,,,,,105.11322500003735,105.11322500003735,105.11322500003735,105.11322500003735,105.11322500003735,return,0.47469189995899796,8,0,0,1,0.0,-0.08,return,0.3890817000064999,0,19,0.0,-0.08,,,,,,,,,,,,,,,,,,,,,,,,,,,,,A,train_x,x_increasing_steps,top_left,2024-10-29_20h46.10.468,HideSeek_v1,2022.2.5,59.45458738315335,
,1,0,4,0,3,0,46,,train_dim1_1,9,30,2,0,2,0,,,,,,,,,0,0,0,0,0,8,8,8,0,0,0,0,,,,,,,,,,,,,stimuli/alien_stimuli/46.png,,,,,,,,,,,,,,,,,,,,,,,,,,,,,stimuli/alien_stimuli/36.png,36,0,10,,,,,,,30,,,,,,,,109.14316550001968,109.14316550001968,109.14316550001968,109.14316550001968,109.14316550001968,right,0.5387313000392169,8,0,0,99,0.0,-0.4,right,0.4308051000116393,,,,,107.55676990002394,109.14316550001968,0,-0.08,0.0,0.16,-0.08,0,-0.08,0,-0.08,107.24143140000524,107.24143140000524,107.24143140000524,107.24143140000524,107.24143140000524,107.24143140000524,107.24143140000524,107.24143140000524,107.15758620003471,0.5178765999735333,return,0.2883338999818079,,,,,,A,train_x,x_increasing_steps,top_left,2024-10-29_20h46.10.468,HideSeek_v1,2022.2.5,59.45458738315335,
,1,0,4,0,3,0,46,,train_dim1_1,9,30,2,0,2,0,,,,,,,,,0,0,0,0,0,8,8,8,1,0,1,0,,,,,,,,,,,,,,,,,,,,,,,,,,,,,,,,,,,,,,,,,,,,,,,,,,,,30,,,,,,,,109.66318020003382,109.66318020003382,109.66318020003382,109.66318020003382,109.66318020003382,right,0.9399530999944545,8,0,0,99,0.08,-0.4,right,0.8517602999927476,,,,,,,,,,,,,,,,,,,,,,,,,,,,,,,,,A,train_x,x_increasing_steps,top_left,2024-10-29_20h46.10.468,HideSeek_v1,2022.2.5,59.45458738315335,
,1,0,4,0,3,0,46,,train_dim1_1,9,30,2,0,2,0,,,,,,,,,0,0,0,0,0,8,8,8,2,0,2,0,,,,,,,,,,,,,,,,,,,,,,,,,,,,,,,,,,,,,,,,,,,,,,,,,,,,30,,,,,,,,110.6143617000198,110.6143617000198,110.6143617000198,110.6143617000198,110.6143617000198,right,1.0085483000148088,8,0,0,99,0.16,-0.4,right,0.912237600015942,,,,,,,,,,,,,,,,,,,,,,,,,,,,,,,,,A,train_x,x_increasing_steps,top_left,2024-10-29_20h46.10.468,HideSeek_v1,2022.2.5,59.45458738315335,
,1,0,4,0,3,0,46,,train_dim1_1,9,30,2,0,2,0,,,,,,,,,0,0,0,0,0,8,8,8,3,0,3,0,,,,,,,,,,,,,,,,,,,,,,,,,,,,,,,,,,,,,,,,,,,,,,,,,,,,30,,,,,,,,111.63109670003178,111.63109670003178,111.63109670003178,111.63109670003178,111.63109670003178,return,0.2242788000148721,9,0,0,1,0.16,-0.4,return,0.13652709999587387,0,22,0.16,-0.4,,,,,,,,,,,,,,,,,,,,,,,,,,,,,A,train_x,x_increasing_steps,top_left,2024-10-29_20h46.10.468,HideSeek_v1,2022.2.5,59.45458738315335,
,0,3,0,3,0,0,16,,train_dim1_1,10,30,2,0,2,0,,,,,,,,,0,0,0,0,0,9,9,9,0,0,0,0,,,,,,,,,,,,,stimuli/alien_stimuli/16.png,,,,,,,,,,,,,,,,,,,,,,,,,,,,,stimuli/alien_stimuli/46.png,46,1,11,,,,,,,30,,,,,,,,116.07667550002225,116.07667550002225,116.07667550002225,116.07667550002225,116.07667550002225,return,0.8205858000437729,10,0,0,1,-0.16,-0.16,return,0.6867685000179335,0,22,-0.16,-0.16,114.47394510003505,116.07667550002225,0.16,-0.4,0.0,0.24,-0.4,0.16,0.04,0.16,-0.4,113.47084320004797,113.47084320004797,113.47084320004797,113.47084320004797,113.47084320004797,113.47084320004797,113.47084320004797,113.47084320004797,113.4073370500235,1.170576100004837,return,0.9879486999707296,,,,,,A,train_x,x_increasing_steps,top_left,2024-10-29_20h46.10.468,HideSeek_v1,2022.2.5,59.45458738315335,
,2,2,4,2,2,0,36,,train_dim1_1,11,30,2,0,2,0,,,,,,,,,0,0,0,0,0,10,10,10,0,0,0,0,,,,,,,,,,,,,stimuli/alien_stimuli/36.png,,,,,,,,,,,,,,,,,,,,,,,,,,,,,stimuli/alien_stimuli/16.png,16,0,12,,,,,,,30,,,,,,,,120.73597710003378,120.73597710003378,120.73597710003378,120.73597710003378,120.73597710003378,right,0.5555768000194803,10,0,0,99,0.08,-0.24,right,0.43343859998276457,,,,,119.14031330001308,120.73597710003378,-0.16,-0.16,0.0,0.0,-0.16,-0.16,-0.16,-0.16,-0.16,118.60788920003688,118.60788920003688,118.60788920003688,118.60788920003688,118.60788920003688,118.60788920003688,118.60788920003688,118.60788920003688,118.47476305007004,0.8359371000551619,return,0.5141133000142872,,,,,,A,train_x,x_increasing_steps,top_left,2024-10-29_20h46.10.468,HideSeek_v1,2022.2.5,59.45458738315335,
,2,2,4,2,2,0,36,,train_dim1_1,11,30,2,0,2,0,,,,,,,,,0,0,0,0,0,10,10,10,1,0,1,0,,,,,,,,,,,,,,,,,,,,,,,,,,,,,,,,,,,,,,,,,,,,,,,,,,,,30,,,,,,,,121.26363290002337,121.26363290002337,121.26363290002337,121.26363290002337,121.26363290002337,right,0.6070567000424489,10,0,0,99,0.16,-0.24,right,0.5187470999662764,,,,,,,,,,,,,,,,,,,,,,,,,,,,,,,,,A,train_x,x_increasing_steps,top_left,2024-10-29_20h46.10.468,HideSeek_v1,2022.2.5,59.45458738315335,
,2,2,4,2,2,0,36,,train_dim1_1,11,30,2,0,2,0,,,,,,,,,0,0,0,0,0,10,10,10,2,0,2,0,,,,,,,,,,,,,,,,,,,,,,,,,,,,,,,,,,,,,,,,,,,,,,,,,,,,30,,,,,,,,121.8775530999992,121.8775530999992,121.8775530999992,121.8775530999992,121.8775530999992,return,0.8080702000297606,11,0,0,1,0.16,-0.24,return,0.7263685999787413,0,24,0.16,-0.24,,,,,,,,,,,,,,,,,,,,,,,,,,,,,A,train_x,x_increasing_steps,top_left,2024-10-29_20h46.10.468,HideSeek_v1,2022.2.5,59.45458738315335,
,0,0,1,0,1,0,26,,train_dim1_1,12,30,2,0,2,0,,,,,,,,,0,0,0,0,0,11,11,11,0,0,0,0,,,,,,,,,,,,,stimuli/alien_stimuli/26.png,,,,,,,,,,,,,,,,,,,,,,,,,,,,,stimuli/alien_stimuli/36.png,36,2,13,,,,,,,30,,,,,,,,126.29042770003434,126.29042770003434,126.29042770003434,126.29042770003434,126.29042770003434,right,1.003809400019236,11,0,0,99,-0.08,-0.4,right,0.8717542000231333,,,,,124.69018030003645,126.29042770003434,0.16,-0.24,0.0,0.16,-0.24,0.16,0.08,0.16,-0.24,124.32398570002988,124.32398570002988,124.32398570002988,124.32398570002988,124.32398570002988,124.32398570002988,124.32398570002988,124.32398570002988,124.24129715004239,0.5513509000302292,return,0.3429891999694519,,,,,,A,train_x,x_increasing_steps,top_left,2024-10-29_20h46.10.468,HideSeek_v1,2022.2.5,59.45458738315335,
,0,0,1,0,1,0,26,,train_dim1_1,12,30,2,0,2,0,,,,,,,,,0,0,0,0,0,11,11,11,1,0,1,0,,,,,,,,,,,,,,,,,,,,,,,,,,,,,,,,,,,,,,,,,,,,,,,,,,,,30,,,,,,,,127.27240610000445,127.27240610000445,127.27240610000445,127.27240610000445,127.27240610000445,return,0.24020020000170916,12,0,0,1,-0.08,-0.4,return,0.15085939998971298,0,25,-0.08,-0.4,,,,,,,,,,,,,,,,,,,,,,,,,,,,,A,train_x,x_increasing_steps,top_left,2024-10-29_20h46.10.468,HideSeek_v1,2022.2.5,59.45458738315335,
,0,4,3,4,3,0,46,,train_dim1_1,13,30,2,0,2,0,,,,,,,,,0,0,0,0,0,12,12,12,0,0,0,0,,,,,,,,,,,,,stimuli/alien_stimuli/46.png,,,,,,,,,,,,,,,,,,,,,,,,,,,,,stimuli/alien_stimuli/26.png,26,0,14,,,,,,,30,,,,,,,,131.2022267000284,131.2022267000284,131.2022267000284,131.2022267000284,131.2022267000284,right,0.6708114999928512,12,0,0,99,-0.08,-0.08,right,0.5467003000085242,,,,,129.607071800041,131.2022267000284,-0.08,-0.4,0.0,0.08,-0.4,-0.08,-0.12,-0.08,-0.4,129.14029790001223,129.14029790001223,129.14029790001223,129.14029790001223,129.14029790001223,129.14029790001223,129.14029790001223,129.14029790001223,129.05682595005493,0.6523084999644198,return,0.4477889999980107,,,,,,A,train_x,x_increasing_steps,top_left,2024-10-29_20h46.10.468,HideSeek_v1,2022.2.5,59.45458738315335,
,0,4,3,4,3,0,46,,train_dim1_1,13,30,2,0,2,0,,,,,,,,,0,0,0,0,0,12,12,12,1,0,1,0,,,,,,,,,,,,,,,,,,,,,,,,,,,,,,,,,,,,,,,,,,,,,,,,,,,,30,,,,,,,,131.84782720002113,131.84782720002113,131.84782720002113,131.84782720002113,131.84782720002113,right,0.3739369999966584,12,0,0,99,0.0,-0.08,right,0.28161020000698045,,,,,,,,,,,,,,,,,,,,,,,,,,,,,,,,,A,train_x,x_increasing_steps,top_left,2024-10-29_20h46.10.468,HideSeek_v1,2022.2.5,59.45458738315335,
,0,4,3,4,3,0,46,,train_dim1_1,13,30,2,0,2,0,,,,,,,,,0,0,0,0,0,12,12,12,2,0,2,0,,,,,,,,,,,,,,,,,,,,,,,,,,,,,,,,,,,,,,,,,,,,,,,,,,,,30,,,,,,,,132.22988340002485,132.22988340002485,132.22988340002485,132.22988340002485,132.22988340002485,right,1.2749547999701463,12,0,0,99,0.08,-0.08,right,1.1808382000308484,,,,,,,,,,,,,,,,,,,,,,,,,,,,,,,,,A,train_x,x_increasing_steps,top_left,2024-10-29_20h46.10.468,HideSeek_v1,2022.2.5,59.45458738315335,
,0,4,3,4,3,0,46,,train_dim1_1,13,30,2,0,2,0,,,,,,,,,0,0,0,0,0,12,12,12,3,0,3,0,,,,,,,,,,,,,,,,,,,,,,,,,,,,,,,,,,,,,,,,,,,,,,,,,,,,30,,,,,,,,133.5239539000322,133.5239539000322,133.5239539000322,133.5239539000322,133.5239539000322,return,0.40745629998855293,13,0,0,1,0.08,-0.08,return,0.3024273000191897,0,28,0.08,-0.08,,,,,,,,,,,,,,,,,,,,,,,,,,,,,A,train_x,x_increasing_steps,top_left,2024-10-29_20h46.10.468,HideSeek_v1,2022.2.5,59.45458738315335,
,4,3,4,3,0,0,16,,train_dim1_1,14,30,2,0,2,0,,,,,,,,,0,0,0,0,0,13,13,13,0,0,0,0,,,,,,,,,,,,,stimuli/alien_stimuli/16.png,,,,,,,,,,,,,,,,,,,,,,,,,,,,,stimuli/alien_stimuli/46.png,46,0,15,,,,,,,30,,,,,,,,138.37353000004077,138.37353000004077,138.37353000004077,138.37353000004077,138.37353000004077,return,0.8544068000046536,14,0,0,1,0.16,-0.16,return,0.7219120999798179,0,28,0.16,-0.16,136.7732665000367,138.37353000004077,0.08,-0.08,0.0,0.24,-0.08,0.08,-0.04,0.08,-0.08,135.5592566000414,135.5592566000414,135.5592566000414,135.5592566000414,135.5592566000414,135.5592566000414,135.5592566000414,135.5592566000414,135.47398785002298,1.4028963000164367,return,1.1899814999778755,,,,,,A,train_x,x_increasing_steps,top_left,2024-10-29_20h46.10.468,HideSeek_v1,2022.2.5,59.45458738315335,
,4,2,9,2,5,0,66,,train_dim1_1,15,30,2,0,2,0,,,,,,,,,0,0,0,0,0,14,14,14,0,0,0,0,,,,,,,,,,,,,stimuli/alien_stimuli/66.png,,,,,,,,,,,,,,,,,,,,,,,,,,,,,stimuli/alien_stimuli/16.png,16,4,16,,,,,,,30,,,,,,,,143.24017240002286,143.24017240002286,143.24017240002286,143.24017240002286,143.24017240002286,right,0.9159423999954015,14,0,0,99,0.24,-0.24,right,0.7426879999693483,,,,,141.5903573000105,143.24017240002286,0.16,-0.16,0.0,0.0,-0.16,0.16,0.16,0.16,-0.16,140.82403270003852,140.82403270003852,140.82403270003852,140.82403270003852,140.82403270003852,140.82403270003852,140.82403270003852,140.82403270003852,140.74037305004896,0.951591799966991,return,0.7445871999952942,,,,,,A,train_x,x_increasing_steps,top_left,2024-10-29_20h46.10.468,HideSeek_v1,2022.2.5,59.45458738315335,
,4,2,9,2,5,0,66,,train_dim1_1,15,30,2,0,2,0,,,,,,,,,0,0,0,0,0,14,14,14,1,0,1,0,,,,,,,,,,,,,,,,,,,,,,,,,,,,,,,,,,,,,,,,,,,,,,,,,,,,30,,,,,,,,144.09003870002925,144.09003870002925,144.09003870002925,144.09003870002925,144.09003870002925,right,0.2074325000285171,14,0,0,99,0.32,-0.24,right,0.1164800000260584,,,,,,,,,,,,,,,,,,,,,,,,,,,,,,,,,A,train_x,x_increasing_steps,top_left,2024-10-29_20h46.10.468,HideSeek_v1,2022.2.5,59.45458738315335,
,4,2,9,2,5,0,66,,train_dim1_1,15,30,2,0,2,0,,,,,,,,,0,0,0,0,0,14,14,14,2,0,2,0,,,,,,,,,,,,,,,,,,,,,,,,,,,,,,,,,,,,,,,,,,,,,,,,,,,,30,,,,,,,,144.30539049999788,144.30539049999788,144.30539049999788,144.30539049999788,144.30539049999788,right,0.3090171999647282,14,0,0,99,0.4,-0.24,right,0.21932550001656637,,,,,,,,,,,,,,,,,,,,,,,,,,,,,,,,,A,train_x,x_increasing_steps,top_left,2024-10-29_20h46.10.468,HideSeek_v1,2022.2.5,59.45458738315335,
,4,2,9,2,5,0,66,,train_dim1_1,15,30,2,0,2,0,,,,,,,,,0,0,0,0,0,14,14,14,3,0,3,0,,,,,,,,,,,,,,,,,,,,,,,,,,,,,,,,,,,,,,,,,,,,,,,,,,,,30,,,,,,,,144.6241084000212,144.6241084000212,144.6241084000212,144.6241084000212,144.6241084000212,right,0.2740306000341661,14,0,0,99,0.48000000000000004,-0.24,right,0.17385790002299473,,,,,,,,,,,,,,,,,,,,,,,,,,,,,,,,,A,train_x,x_increasing_steps,top_left,2024-10-29_20h46.10.468,HideSeek_v1,2022.2.5,59.45458738315335,
,4,2,9,2,5,0,66,,train_dim1_1,15,30,2,0,2,0,,,,,,,,,0,0,0,0,0,14,14,14,4,0,4,0,,,,,,,,,,,,,,,,,,,,,,,,,,,,,,,,,,,,,,,,,,,,,,,,,,,,30,,,,,,,,144.90536380000412,144.90536380000412,144.90536380000412,144.90536380000412,144.90536380000412,right,0.20758559997193515,14,0,0,99,0.56,-0.24,right,0.11667600000509992,,,,,,,,,,,,,,,,,,,,,,,,,,,,,,,,,A,train_x,x_increasing_steps,top_left,2024-10-29_20h46.10.468,HideSeek_v1,2022.2.5,59.45458738315335,
,4,2,9,2,5,0,66,,train_dim1_1,15,30,2,0,2,0,,,,,,,,,0,0,0,0,0,14,14,14,5,0,5,0,,,,,,,,,,,,,,,,,,,,,,,,,,,,,,,,,,,,,,,,,,,,,,,,,,,,30,,,,,,,,145.12343050003983,145.12343050003983,145.12343050003983,145.12343050003983,145.12343050003983,return,0.24047800002153963,15,0,0,1,0.56,-0.24,return,0.15182389999972656,0,33,0.56,-0.24,,,,,,,,,,,,,,,,,,,,,,,,,,,,,A,train_x,x_increasing_steps,top_left,2024-10-29_20h46.10.468,HideSeek_v1,2022.2.5,59.45458738315335,
,3,3,6,3,3,0,46,,train_dim1_1,16,30,2,0,2,0,,,,,,,,,0,0,0,0,0,15,15,15,0,0,0,0,,,,,,,,,,,,,stimuli/alien_stimuli/46.png,,,,,,,,,,,,,,,,,,,,,,,,,,,,,stimuli/alien_stimuli/66.png,66,4,17,,,,,,,30,,,,,,,,149.1408413000172,149.1408413000172,149.1408413000172,149.1408413000172,149.1408413000172,right,0.5543898000032641,15,0,0,99,0.16,-0.16,right,0.4096558999735862,,,,,147.52319190005073,149.1408413000172,0.56,-0.24,0.0,0.4,-0.24,0.56,0.36000000000000004,0.56,-0.24,147.07887980004307,147.07887980004307,147.07887980004307,147.07887980004307,147.07887980004307,147.07887980004307,147.07887980004307,147.07887980004307,146.9237867000513,0.7184860999695957,return,0.4140491000143811,,,,,,A,train_x,x_increasing_steps,top_left,2024-10-29_20h46.10.468,HideSeek_v1,2022.2.5,59.45458738315335,
,3,3,6,3,3,0,46,,train_dim1_1,16,30,2,0,2,0,,,,,,,,,0,0,0,0,0,15,15,15,1,0,1,0,,,,,,,,,,,,,,,,,,,,,,,,,,,,,,,,,,,,,,,,,,,,,,,,,,,,30,,,,,,,,149.64236280001933,149.64236280001933,149.64236280001933,149.64236280001933,149.64236280001933,right,0.32438340003136545,15,0,0,99,0.24,-0.16,right,0.2336290999664925,,,,,,,,,,,,,,,,,,,,,,,,,,,,,,,,,A,train_x,x_increasing_steps,top_left,2024-10-29_20h46.10.468,HideSeek_v1,2022.2.5,59.45458738315335,
,3,3,6,3,3,0,46,,train_dim1_1,16,30,2,0,2,0,,,,,,,,,0,0,0,0,0,15,15,15,2,0,2,0,,,,,,,,,,,,,,,,,,,,,,,,,,,,,,,,,,,,,,,,,,,,,,,,,,,,30,,,,,,,,149.97967130003963,149.97967130003963,149.97967130003963,149.97967130003963,149.97967130003963,right,2.0081584000145085,15,0,0,99,0.32,-0.16,right,1.9262075000442564,,,,,,,,,,,,,,,,,,,,,,,,,,,,,,,,,A,train_x,x_increasing_steps,top_left,2024-10-29_20h46.10.468,HideSeek_v1,2022.2.5,59.45458738315335,
,3,3,6,3,3,0,46,,train_dim1_1,16,30,2,0,2,0,,,,,,,,,0,0,0,0,0,15,15,15,3,0,3,0,,,,,,,,,,,,,,,,,,,,,,,,,,,,,,,,,,,,,,,,,,,,,,,,,,,,30,,,,,,,,151.99448789999587,151.99448789999587,151.99448789999587,151.99448789999587,151.99448789999587,return,0.24107410002034158,16,0,0,1,0.32,-0.16,return,0.1577312999870628,0,36,0.32,-0.16,,,,,,,,,,,,,,,,,,,,,,,,,,,,,A,train_x,x_increasing_steps,top_left,2024-10-29_20h46.10.468,HideSeek_v1,2022.2.5,59.45458738315335,
,2,4,3,4,1,0,26,,train_dim1_1,17,30,2,0,2,0,,,,,,,,,0,0,0,0,0,16,16,16,0,0,0,0,,,,,,,,,,,,,stimuli/alien_stimuli/26.png,,,,,,,,,,,,,,,,,,,,,,,,,,,,,stimuli/alien_stimuli/46.png,46,3,18,,,,,,,30,,,,,,,,156.19185010000365,156.19185010000365,156.19185010000365,156.19185010000365,156.19185010000365,right,1.67060999997193,16,0,0,99,0.08,-0.08,right,1.5434664000058547,,,,,154.58965249999892,153.8596974000102,0.32,-0.16,0.0,0.24,-0.16,0.32,0.2,0.32,-0.16,153.8596974000102,153.8596974000102,153.8596974000102,153.8596974000102,153.8596974000102,153.8596974000102,153.8596974000102,153.8596974000102,153.77368900002912,0.8848811999778263,return,0.6833665000158362,,,,,,A,train_x,x_increasing_steps,top_left,2024-10-29_20h46.10.468,HideSeek_v1,2022.2.5,59.45458738315335,
,2,4,3,4,1,0,26,,train_dim1_1,17,30,2,0,2,0,,,,,,,,,0,0,0,0,0,16,16,16,1,0,1,0,,,,,,,,,,,,,,,,,,,,,,,,,,,,,,,,,,,,,,,,,,,,,,,,,,,,30,,,,,,,,157.83839580003405,157.83839580003405,157.83839580003405,157.83839580003405,157.83839580003405,return,0.2230547999497503,17,0,0,1,0.08,-0.08,return,0.1244237000355497,0,37,0.08,-0.08,,,,,,,,,,,,,,,,,,,,,,,,,,,,,A,train_x,x_increasing_steps,top_left,2024-10-29_20h46.10.468,HideSeek_v1,2022.2.5,59.45458738315335,
,2,1,7,1,5,0,66,,train_dim1_1,18,30,2,0,2,0,,,,,,,,,0,0,0,0,0,17,17,17,0,0,0,0,,,,,,,,,,,,,stimuli/alien_stimuli/66.png,,,,,,,,,,,,,,,,,,,,,,,,,,,,,stimuli/alien_stimuli/26.png,26,2,19,,,,,,,30,,,,,,,,161.64197280001827,161.64197280001827,161.64197280001827,161.64197280001827,161.64197280001827,right,0.6884701999952085,17,0,0,99,0.08,-0.32,right,0.5555977000040002,,,,,160.040093800053,161.64197280001827,0.08,-0.08,0.0,0.08,-0.08,0.08,0.04,0.08,-0.08,159.71845860005124,159.71845860005124,159.71845860005124,159.71845860005124,159.71845860005124,159.71845860005124,159.71845860005124,159.71845860005124,159.6400355500751,0.5352214999729767,return,0.2957118999911472,,,,,,A,train_x,x_increasing_steps,top_left,2024-10-29_20h46.10.468,HideSeek_v1,2022.2.5,59.45458738315335,
,2,1,7,1,5,0,66,,train_dim1_1,18,30,2,0,2,0,,,,,,,,,0,0,0,0,0,17,17,17,1,0,1,0,,,,,,,,,,,,,,,,,,,,,,,,,,,,,,,,,,,,,,,,,,,,,,,,,,,,30,,,,,,,,162.30670750001445,162.30670750001445,162.30670750001445,162.30670750001445,162.30670750001445,right,0.239557099994272,17,0,0,99,0.16,-0.32,right,0.15129449998494238,,,,,,,,,,,,,,,,,,,,,,,,,,,,,,,,,A,train_x,x_increasing_steps,top_left,2024-10-29_20h46.10.468,HideSeek_v1,2022.2.5,59.45458738315335,
,2,1,7,1,5,0,66,,train_dim1_1,18,30,2,0,2,0,,,,,,,,,0,0,0,0,0,17,17,17,2,0,2,0,,,,,,,,,,,,,,,,,,,,,,,,,,,,,,,,,,,,,,,,,,,,,,,,,,,,30,,,,,,,,162.55438149999827,162.55438149999827,162.55438149999827,162.55438149999827,162.55438149999827,right,0.2919224000070244,17,0,0,99,0.24,-0.32,right,0.18757040001219139,,,,,,,,,,,,,,,,,,,,,,,,,,,,,,,,,A,train_x,x_increasing_steps,top_left,2024-10-29_20h46.10.468,HideSeek_v1,2022.2.5,59.45458738315335,
,2,1,7,1,5,0,66,,train_dim1_1,18,30,2,0,2,0,,,,,,,,,0,0,0,0,0,17,17,17,3,0,3,0,,,,,,,,,,,,,,,,,,,,,,,,,,,,,,,,,,,,,,,,,,,,,,,,,,,,30,,,,,,,,162.85390490002465,162.85390490002465,162.85390490002465,162.85390490002465,162.85390490002465,right,0.24242569995112717,17,0,0,99,0.32,-0.32,right,0.1468855999992229,,,,,,,,,,,,,,,,,,,,,,,,,,,,,,,,,A,train_x,x_increasing_steps,top_left,2024-10-29_20h46.10.468,HideSeek_v1,2022.2.5,59.45458738315335,
,2,1,7,1,5,0,66,,train_dim1_1,18,30,2,0,2,0,,,,,,,,,0,0,0,0,0,17,17,17,4,0,4,0,,,,,,,,,,,,,,,,,,,,,,,,,,,,,,,,,,,,,,,,,,,,,,,,,,,,30,,,,,,,,163.1026780999964,163.1026780999964,163.1026780999964,163.1026780999964,163.1026780999964,right,0.2079022999969311,17,0,0,99,0.4,-0.32,right,0.11512600001879036,,,,,,,,,,,,,,,,,,,,,,,,,,,,,,,,,A,train_x,x_increasing_steps,top_left,2024-10-29_20h46.10.468,HideSeek_v1,2022.2.5,59.45458738315335,
,2,1,7,1,5,0,66,,train_dim1_1,18,30,2,0,2,0,,,,,,,,,0,0,0,0,0,17,17,17,5,0,5,0,,,,,,,,,,,,,,,,,,,,,,,,,,,,,,,,,,,,,,,,,,,,,,,,,,,,30,,,,,,,,163.32051879999926,163.32051879999926,163.32051879999926,163.32051879999926,163.32051879999926,return,0.24052230000961572,18,0,0,1,0.4,-0.32,return,0.15254710003500804,0,42,0.4,-0.32,,,,,,,,,,,,,,,,,,,,,,,,,,,,,A,train_x,x_increasing_steps,top_left,2024-10-29_20h46.10.468,HideSeek_v1,2022.2.5,59.45458738315335,
,0,3,2,3,2,0,36,,train_dim1_1,19,30,2,0,2,0,,,,,,,,,0,0,0,0,0,18,18,18,0,0,0,0,,,,,,,,,,,,,stimuli/alien_stimuli/36.png,,,,,,,,,,,,,,,,,,,,,,,,,,,,,stimuli/alien_stimuli/66.png,66,2,20,,,,,,,30,,,,,,,,167.17477090004832,167.17477090004832,167.17477090004832,167.17477090004832,167.17477090004832,right,0.5493579999892972,18,0,0,99,-0.08,-0.16,right,0.4249891999643296,,,,,165.57296090002637,167.17477090004832,0.4,-0.32,0.0,0.4,-0.32,0.4,0.2,0.4,-0.32,165.29519060003804,165.29519060003804,165.29519060003804,165.29519060003804,165.29519060003804,165.29519060003804,165.29519060003804,165.29519060003804,165.1233166500577,0.5534118000068702,return,0.2587626000167802,,,,,,A,train_x,x_increasing_steps,top_left,2024-10-29_20h46.10.468,HideSeek_v1,2022.2.5,59.45458738315335,
,0,3,2,3,2,0,36,,train_dim1_1,19,30,2,0,2,0,,,,,,,,,0,0,0,0,0,18,18,18,1,0,1,0,,,,,,,,,,,,,,,,,,,,,,,,,,,,,,,,,,,,,,,,,,,,,,,,,,,,30,,,,,,,,167.69589560001623,167.69589560001623,167.69589560001623,167.69589560001623,167.69589560001623,right,0.29064500000094995,18,0,0,99,0.0,-0.16,right,0.2108392000081949,,,,,,,,,,,,,,,,,,,,,,,,,,,,,,,,,A,train_x,x_increasing_steps,top_left,2024-10-29_20h46.10.468,HideSeek_v1,2022.2.5,59.45458738315335,
,0,3,2,3,2,0,36,,train_dim1_1,19,30,2,0,2,0,,,,,,,,,0,0,0,0,0,18,18,18,2,0,2,0,,,,,,,,,,,,,,,,,,,,,,,,,,,,,,,,,,,,,,,,,,,,,,,,,,,,30,,,,,,,,167.99505720002344,167.99505720002344,167.99505720002344,167.99505720002344,167.99505720002344,return,0.3913926999666728,19,0,0,1,0.0,-0.16,return,0.31386490003205836,0,44,0.0,-0.16,,,,,,,,,,,,,,,,,,,,,,,,,,,,,A,train_x,x_increasing_steps,top_left,2024-10-29_20h46.10.468,HideSeek_v1,2022.2.5,59.45458738315335,
,0,1,0,1,0,0,16,,train_dim1_1,20,30,2,0,2,0,,,,,,,,,0,0,0,0,0,19,19,19,0,0,0,0,,,,,,,,,,,,,stimuli/alien_stimuli/16.png,,,,,,,,,,,,,,,,,,,,,,,,,,,,,stimuli/alien_stimuli/36.png,36,0,21,,,,,,,30,,,,,,,,172.0021332000033,172.0021332000033,172.0021332000033,172.0021332000033,172.0021332000033,return,0.7696192999719642,20,0,0,1,-0.16,-0.32,return,0.6493048000265844,0,44,-0.16,-0.32,170.4065235000453,172.0021332000033,0,-0.16,0.0,0.16,-0.16,0,-0.08,0,-0.16,170.00834070000565,170.00834070000565,170.00834070000565,170.00834070000565,170.00834070000565,170.00834070000565,170.00834070000565,170.00834070000565,169.9234756000573,0.5713706000242382,return,0.38453260000096634,,,,,,A,train_x,x_increasing_steps,top_left,2024-10-29_20h46.10.468,HideSeek_v1,2022.2.5,59.45458738315335,
,4,2,6,2,2,0,36,,train_dim1_1,21,30,2,0,2,0,,,,,,,,,0,0,0,0,0,20,20,20,0,0,0,0,,,,,,,,,,,,,stimuli/alien_stimuli/36.png,,,,,,,,,,,,,,,,,,,,,,,,,,,,,stimuli/alien_stimuli/16.png,16,0,22,,,,,,,30,,,,,,,,176.3379209000268,176.3379209000268,176.3379209000268,176.3379209000268,176.3379209000268,right,0.6046811999985948,20,0,0,99,0.24,-0.24,right,0.45541519997641444,,,,,174.72354460001225,176.3379209000268,-0.16,-0.32,0.0,0.0,-0.32,-0.16,-0.16,-0.16,-0.32,174.42274490004638,174.42274490004638,174.42274490004638,174.42274490004638,174.42274490004638,174.42274490004638,174.42274490004638,174.42274490004638,174.3395892000408,0.5353000999893993,return,0.27736309997271746,,,,,,A,train_x,x_increasing_steps,top_left,2024-10-29_20h46.10.468,HideSeek_v1,2022.2.5,59.45458738315335,
,4,2,6,2,2,0,36,,train_dim1_1,21,30,2,0,2,0,,,,,,,,,0,0,0,0,0,20,20,20,1,0,1,0,,,,,,,,,,,,,,,,,,,,,,,,,,,,,,,,,,,,,,,,,,,,,,,,,,,,30,,,,,,,,176.89812820003135,176.89812820003135,176.89812820003135,176.89812820003135,176.89812820003135,right,0.30429020000156015,20,0,0,99,0.32,-0.24,right,0.21042580000357702,,,,,,,,,,,,,,,,,,,,,,,,,,,,,,,,,A,train_x,x_increasing_steps,top_left,2024-10-29_20h46.10.468,HideSeek_v1,2022.2.5,59.45458738315335,
,4,2,6,2,2,0,36,,train_dim1_1,21,30,2,0,2,0,,,,,,,,,0,0,0,0,0,20,20,20,2,0,2,0,,,,,,,,,,,,,,,,,,,,,,,,,,,,,,,,,,,,,,,,,,,,,,,,,,,,30,,,,,,,,177.21228050003992,177.21228050003992,177.21228050003992,177.21228050003992,177.21228050003992,return,0.2585767999989912,21,0,0,1,0.32,-0.24,return,0.17309599998407066,0,46,0.32,-0.24,,,,,,,,,,,,,,,,,,,,,,,,,,,,,A,train_x,x_increasing_steps,top_left,2024-10-29_20h46.10.468,HideSeek_v1,2022.2.5,59.45458738315335,
,1,0,2,0,1,0,26,,train_dim1_1,22,30,2,0,2,0,,,,,,,,,0,0,0,0,0,21,21,21,0,0,0,0,,,,,,,,,,,,,stimuli/alien_stimuli/26.png,,,,,,,,,,,,,,,,,,,,,,,,,,,,,stimuli/alien_stimuli/36.png,36,4,23,,,,,,,30,,,,,,,,181.1461369000026,181.1461369000026,181.1461369000026,181.1461369000026,181.1461369000026,right,0.8879452000255696,21,0,0,99,0.0,-0.4,right,0.7755296999821439,,,,,179.5562901000376,181.1461369000026,0.32,-0.24,0.0,0.16,-0.24,0.32,0.24,0.32,-0.24,179.13904770003865,179.13904770003865,179.13904770003865,179.13904770003865,179.13904770003865,179.13904770003865,179.13904770003865,179.13904770003865,179.0401028000517,0.6353123000008054,return,0.39505560003453866,,,,,,A,train_x,x_increasing_steps,top_left,2024-10-29_20h46.10.468,HideSeek_v1,2022.2.5,59.45458738315335,
,1,0,2,0,1,0,26,,train_dim1_1,22,30,2,0,2,0,,,,,,,,,0,0,0,0,0,21,21,21,1,0,1,0,,,,,,,,,,,,,,,,,,,,,,,,,,,,,,,,,,,,,,,,,,,,,,,,,,,,30,,,,,,,,182.02178110001842,182.02178110001842,182.02178110001842,182.02178110001842,182.02178110001842,return,0.2568121000076644,22,0,0,1,0.0,-0.4,return,0.1644154000096023,0,47,0.0,-0.4,,,,,,,,,,,,,,,,,,,,,,,,,,,,,A,train_x,x_increasing_steps,top_left,2024-10-29_20h46.10.468,HideSeek_v1,2022.2.5,59.45458738315335,
,2,1,7,1,5,0,66,,train_dim1_1,23,30,2,0,2,0,,,,,,,,,0,0,0,0,0,22,22,22,0,0,0,0,,,,,,,,,,,,,stimuli/alien_stimuli/66.png,,,,,,,,,,,,,,,,,,,,,,,,,,,,,stimuli/alien_stimuli/26.png,26,1,24,,,,,,,30,,,,,,,,185.91361190000316,185.91361190000316,185.91361190000316,185.91361190000316,185.91361190000316,right,2.154445099993609,22,0,0,99,0.08,-0.32,right,2.0081745000206865,,,,,184.28947430005064,185.91361190000316,0,-0.4,0.0,0.08,-0.4,0,-0.04,0,-0.4,183.90030590002425,183.90030590002425,183.90030590002425,183.90030590002425,183.90030590002425,183.90030590002425,183.90030590002425,183.90030590002425,183.82298645005795,0.5695714999455959,return,0.3647981000249274,,,,,,A,train_x,x_increasing_steps,top_left,2024-10-29_20h46.10.468,HideSeek_v1,2022.2.5,59.45458738315335,
,2,1,7,1,5,0,66,,train_dim1_1,23,30,2,0,2,0,,,,,,,,,0,0,0,0,0,22,22,22,1,0,1,0,,,,,,,,,,,,,,,,,,,,,,,,,,,,,,,,,,,,,,,,,,,,,,,,,,,,30,,,,,,,,188.02669170004083,188.02669170004083,188.02669170004083,188.02669170004083,188.02669170004083,right,0.257034600013867,22,0,0,99,0.16,-0.32,right,0.15199419995769858,,,,,,,,,,,,,,,,,,,,,,,,,,,,,,,,,A,train_x,x_increasing_steps,top_left,2024-10-29_20h46.10.468,HideSeek_v1,2022.2.5,59.45458738315335,
,2,1,7,1,5,0,66,,train_dim1_1,23,30,2,0,2,0,,,,,,,,,0,0,0,0,0,22,22,22,2,0,2,0,,,,,,,,,,,,,,,,,,,,,,,,,,,,,,,,,,,,,,,,,,,,,,,,,,,,30,,,,,,,,188.28392660000827,188.28392660000827,188.28392660000827,188.28392660000827,188.28392660000827,right,0.2591404999839142,22,0,0,99,0.24,-0.32,right,0.16251529997680336,,,,,,,,,,,,,,,,,,,,,,,,,,,,,,,,,A,train_x,x_increasing_steps,top_left,2024-10-29_20h46.10.468,HideSeek_v1,2022.2.5,59.45458738315335,
,2,1,7,1,5,0,66,,train_dim1_1,23,30,2,0,2,0,,,,,,,,,0,0,0,0,0,22,22,22,3,0,3,0,,,,,,,,,,,,,,,,,,,,,,,,,,,,,,,,,,,,,,,,,,,,,,,,,,,,30,,,,,,,,188.55134310002904,188.55134310002904,188.55134310002904,188.55134310002904,188.55134310002904,right,0.22413289995165542,22,0,0,99,0.32,-0.32,right,0.13524139998480678,,,,,,,,,,,,,,,,,,,,,,,,,,,,,,,,,A,train_x,x_increasing_steps,top_left,2024-10-29_20h46.10.468,HideSeek_v1,2022.2.5,59.45458738315335,
,2,1,7,1,5,0,66,,train_dim1_1,23,30,2,0,2,0,,,,,,,,,0,0,0,0,0,22,22,22,4,0,4,0,,,,,,,,,,,,,,,,,,,,,,,,,,,,,,,,,,,,,,,,,,,,,,,,,,,,30,,,,,,,,188.78509040002245,188.78509040002245,188.78509040002245,188.78509040002245,188.78509040002245,right,0.22463409998454154,22,0,0,99,0.4,-0.32,right,0.12452370004029945,,,,,,,,,,,,,,,,,,,,,,,,,,,,,,,,,A,train_x,x_increasing_steps,top_left,2024-10-29_20h46.10.468,HideSeek_v1,2022.2.5,59.45458738315335,
,2,1,7,1,5,0,66,,train_dim1_1,23,30,2,0,2,0,,,,,,,,,0,0,0,0,0,22,22,22,5,0,5,0,,,,,,,,,,,,,,,,,,,,,,,,,,,,,,,,,,,,,,,,,,,,,,,,,,,,30,,,,,,,,189.02153090003412,189.02153090003412,189.02153090003412,189.02153090003412,189.02153090003412,return,0.2395241999765858,23,0,0,1,0.4,-0.32,return,0.1531830999883823,0,52,0.4,-0.32,,,,,,,,,,,,,,,,,,,,,,,,,,,,,A,train_x,x_increasing_steps,top_left,2024-10-29_20h46.10.468,HideSeek_v1,2022.2.5,59.45458738315335,
,4,4,7,4,3,0,46,,train_dim1_1,24,30,2,0,2,0,,,,,,,,,0,0,0,0,0,23,23,23,0,0,0,0,,,,,,,,,,,,,stimuli/alien_stimuli/46.png,,,,,,,,,,,,,,,,,,,,,,,,,,,,,stimuli/alien_stimuli/66.png,66,2,25,,,,,,,30,,,,,,,,196.91673029999947,196.91673029999947,196.91673029999947,196.91673029999947,196.91673029999947,right,1.920456700026989,23,0,0,99,0.24,-0.08,right,1.8053541000117548,,,,,195.32272120000562,196.91673029999947,0.4,-0.32,0.0,0.4,-0.32,0.4,0.2,0.4,-0.32,190.93073620001087,190.93073620001087,190.93073620001087,190.93073620001087,190.93073620001087,190.93073620001087,190.93073620001087,190.93073620001087,190.84090465006884,4.61765720002586,return,4.3670405999873765,,,,,,A,train_x,x_increasing_steps,top_left,2024-10-29_20h46.10.468,HideSeek_v1,2022.2.5,59.45458738315335,
,4,4,7,4,3,0,46,,train_dim1_1,24,30,2,0,2,0,,,,,,,,,0,0,0,0,0,23,23,23,1,0,1,0,,,,,,,,,,,,,,,,,,,,,,,,,,,,,,,,,,,,,,,,,,,,,,,,,,,,30,,,,,,,,198.822988800006,198.822988800006,198.822988800006,198.822988800006,198.822988800006,right,1.857176499965135,23,0,0,99,0.32,-0.08,right,1.7656469999928959,,,,,,,,,,,,,,,,,,,,,,,,,,,,,,,,,A,train_x,x_increasing_steps,top_left,2024-10-29_20h46.10.468,HideSeek_v1,2022.2.5,59.45458738315335,
,4,4,7,4,3,0,46,,train_dim1_1,24,30,2,0,2,0,,,,,,,,,0,0,0,0,0,23,23,23,2,0,2,0,,,,,,,,,,,,,,,,,,,,,,,,,,,,,,,,,,,,,,,,,,,,,,,,,,,,30,,,,,,,,200.67714980000164,200.67714980000164,200.67714980000164,200.67714980000164,200.67714980000164,right,0.20848339999793097,23,0,0,99,0.4,-0.08,right,0.11567940004169941,,,,,,,,,,,,,,,,,,,,,,,,,,,,,,,,,A,train_x,x_increasing_steps,top_left,2024-10-29_20h46.10.468,HideSeek_v1,2022.2.5,59.45458738315335,
,4,4,7,4,3,0,46,,train_dim1_1,24,30,2,0,2,0,,,,,,,,,0,0,0,0,0,23,23,23,3,0,3,0,,,,,,,,,,,,,,,,,,,,,,,,,,,,,,,,,,,,,,,,,,,,,,,,,,,,30,,,,,,,,200.8941300000297,200.8941300000297,200.8941300000297,200.8941300000297,200.8941300000297,return,0.5244451999897137,24,0,0,1,0.4,-0.08,return,0.4405206000083126,0,55,0.4,-0.08,,,,,,,,,,,,,,,,,,,,,,,,,,,,,A,train_x,x_increasing_steps,top_left,2024-10-29_20h46.10.468,HideSeek_v1,2022.2.5,59.45458738315335,
,3,0,3,0,0,0,16,,train_dim1_1,25,30,2,0,2,0,,,,,,,,,0,0,0,0,0,24,24,24,0,0,0,0,,,,,,,,,,,,,stimuli/alien_stimuli/16.png,,,,,,,,,,,,,,,,,,,,,,,,,,,,,stimuli/alien_stimuli/46.png,46,4,26,,,,,,,30,,,,,,,,205.39015089999884,205.39015089999884,205.39015089999884,205.39015089999884,205.39015089999884,return,3.987470000050962,25,0,0,1,0.08,-0.4,return,3.803066399996169,0,55,0.08,-0.4,203.7392719000345,205.39015089999884,0.4,-0.08,0.0,0.24,-0.08,0.4,0.28,0.4,-0.08,203.03466980002122,203.03466980002122,203.03466980002122,203.03466980002122,203.03466980002122,203.03466980002122,203.03466980002122,203.03466980002122,202.972794550017,0.8686577000189573,return,0.6773664000211284,,,,,,A,train_x,x_increasing_steps,top_left,2024-10-29_20h46.10.468,HideSeek_v1,2022.2.5,59.45458738315335,
,1,1,6,1,5,0,66,,train_dim1_1,26,30,2,0,2,0,,,,,,,,,0,0,0,0,0,25,25,25,0,0,0,0,,,,,,,,,,,,,stimuli/alien_stimuli/66.png,,,,,,,,,,,,,,,,,,,,,,,,,,,,,stimuli/alien_stimuli/16.png,16,3,27,,,,,,,30,,,,,,,,229.57254940003622,229.57254940003622,229.57254940003622,229.57254940003622,229.57254940003622,right,2.6875618000049144,25,0,0,99,0.0,-0.32,right,2.5527114999713376,,,,,227.97215680003865,229.57254940003622,0.08,-0.4,0.0,0.0,-0.4,0.08,0.08,0.08,-0.4,210.94027400005143,210.94027400005143,210.94027400005143,210.94027400005143,210.94027400005143,210.94027400005143,210.94027400005143,210.94027400005143,210.85677150007106,17.234249499975704,return,17.0034870999516,,,,,,A,train_x,x_increasing_steps,top_left,2024-10-29_20h46.10.468,HideSeek_v1,2022.2.5,59.45458738315335,
,1,1,6,1,5,0,66,,train_dim1_1,26,30,2,0,2,0,,,,,,,,,0,0,0,0,0,25,25,25,1,0,1,0,,,,,,,,,,,,,,,,,,,,,,,,,,,,,,,,,,,,,,,,,,,,,,,,,,,,30,,,,,,,,232.2676529000164,232.2676529000164,232.2676529000164,232.2676529000164,232.2676529000164,right,0.19163100002333522,25,0,0,99,0.08,-0.32,right,0.07004970003617927,,,,,,,,,,,,,,,,,,,,,,,,,,,,,,,,,A,train_x,x_increasing_steps,top_left,2024-10-29_20h46.10.468,HideSeek_v1,2022.2.5,59.45458738315335,
,1,1,6,1,5,0,66,,train_dim1_1,26,30,2,0,2,0,,,,,,,,,0,0,0,0,0,25,25,25,2,0,2,0,,,,,,,,,,,,,,,,,,,,,,,,,,,,,,,,,,,,,,,,,,,,,,,,,,,,30,,,,,,,,232.44092030002503,232.44092030002503,232.44092030002503,232.44092030002503,232.44092030002503,right,0.20684679999249056,25,0,0,99,0.16,-0.32,right,0.10317439999198541,,,,,,,,,,,,,,,,,,,,,,,,,,,,,,,,,A,train_x,x_increasing_steps,top_left,2024-10-29_20h46.10.468,HideSeek_v1,2022.2.5,59.45458738315335,
,1,1,6,1,5,0,66,,train_dim1_1,26,30,2,0,2,0,,,,,,,,,0,0,0,0,0,25,25,25,3,0,3,0,,,,,,,,,,,,,,,,,,,,,,,,,,,,,,,,,,,,,,,,,,,,,,,,,,,,30,,,,,,,,232.65262590005295,232.65262590005295,232.65262590005295,232.65262590005295,232.65262590005295,right,0.20837090001441538,25,0,0,99,0.24,-0.32,right,0.10740430001169443,,,,,,,,,,,,,,,,,,,,,,,,,,,,,,,,,A,train_x,x_increasing_steps,top_left,2024-10-29_20h46.10.468,HideSeek_v1,2022.2.5,59.45458738315335,
,1,1,6,1,5,0,66,,train_dim1_1,26,30,2,0,2,0,,,,,,,,,0,0,0,0,0,25,25,25,4,0,4,0,,,,,,,,,,,,,,,,,,,,,,,,,,,,,,,,,,,,,,,,,,,,,,,,,,,,30,,,,,,,,232.86953870003344,232.86953870003344,232.86953870003344,232.86953870003344,232.86953870003344,right,0.2070522999856621,25,0,0,99,0.32,-0.32,right,0.10694580001290888,,,,,,,,,,,,,,,,,,,,,,,,,,,,,,,,,A,train_x,x_increasing_steps,top_left,2024-10-29_20h46.10.468,HideSeek_v1,2022.2.5,59.45458738315335,
,1,1,6,1,5,0,66,,train_dim1_1,26,30,2,0,2,0,,,,,,,,,0,0,0,0,0,25,25,25,5,0,5,0,,,,,,,,,,,,,,,,,,,,,,,,,,,,,,,,,,,,,,,,,,,,,,,,,,,,30,,,,,,,,233.08293830003822,233.08293830003822,233.08293830003822,233.08293830003822,233.08293830003822,return,0.2242971999803558,26,0,0,1,0.32,-0.32,return,0.1334956000209786,0,60,0.32,-0.32,,,,,,,,,,,,,,,,,,,,,,,,,,,,,A,train_x,x_increasing_steps,top_left,2024-10-29_20h46.10.468,HideSeek_v1,2022.2.5,59.45458738315335,
,0,1,2,1,2,0,36,,train_dim1_1,27,30,2,0,2,0,,,,,,,,,0,0,0,0,0,26,26,26,0,0,0,0,,,,,,,,,,,,,stimuli/alien_stimuli/36.png,,,,,,,,,,,,,,,,,,,,,,,,,,,,,stimuli/alien_stimuli/66.png,66,1,28,,,,,,,30,,,,,,,,236.93558040005155,236.93558040005155,236.93558040005155,236.93558040005155,236.93558040005155,right,0.6195322000421584,26,0,0,99,-0.08,-0.32,right,0.5026797000318766,,,,,235.33902250003302,236.93558040005155,0.32,-0.32,0.0,0.4,-0.32,0.32,0.12,0.32,-0.32,234.94051820004825,234.94051820004825,234.94051820004825,234.94051820004825,234.94051820004825,234.94051820004825,234.94051820004825,234.94051820004825,234.85587805004326,0.5868137999786995,return,0.3726712000207044,,,,,,A,train_x,x_increasing_steps,top_left,2024-10-29_20h46.10.468,HideSeek_v1,2022.2.5,59.45458738315335,
,0,1,2,1,2,0,36,,train_dim1_1,27,30,2,0,2,0,,,,,,,,,0,0,0,0,0,26,26,26,1,0,1,0,,,,,,,,,,,,,,,,,,,,,,,,,,,,,,,,,,,,,,,,,,,,,,,,,,,,30,,,,,,,,237.5269875000231,237.5269875000231,237.5269875000231,237.5269875000231,237.5269875000231,right,0.2751270000007935,26,0,0,99,0.0,-0.32,right,0.19218029995681718,,,,,,,,,,,,,,,,,,,,,,,,,,,,,,,,,A,train_x,x_increasing_steps,top_left,2024-10-29_20h46.10.468,HideSeek_v1,2022.2.5,59.45458738315335,
,0,1,2,1,2,0,36,,train_dim1_1,27,30,2,0,2,0,,,,,,,,,0,0,0,0,0,26,26,26,2,0,2,0,,,,,,,,,,,,,,,,,,,,,,,,,,,,,,,,,,,,,,,,,,,,,,,,,,,,30,,,,,,,,237.84355160000268,237.84355160000268,237.84355160000268,237.84355160000268,237.84355160000268,return,0.8238674000022002,27,0,0,1,0.0,-0.32,return,0.7109421999775805,0,62,0.0,-0.32,,,,,,,,,,,,,,,,,,,,,,,,,,,,,A,train_x,x_increasing_steps,top_left,2024-10-29_20h46.10.468,HideSeek_v1,2022.2.5,59.45458738315335,
,3,1,4,1,1,0,26,,train_dim1_1,28,30,2,0,2,0,,,,,,,,,0,0,0,0,0,27,27,27,0,0,0,0,,,,,,,,,,,,,stimuli/alien_stimuli/26.png,,,,,,,,,,,,,,,,,,,,,,,,,,,,,stimuli/alien_stimuli/36.png,36,0,29,,,,,,,30,,,,,,,,242.32157240004744,242.32157240004744,242.32157240004744,242.32157240004744,242.32157240004744,right,0.9373152999905869,27,0,0,99,0.16,-0.32,right,0.8167312999721617,,,,,240.72255669999868,242.32157240004744,0,-0.32,0.0,0.16,-0.32,0,-0.08,0,-0.32,240.25993530004052,240.25993530004052,240.25993530004052,240.25993530004052,240.25993530004052,240.25993530004052,240.25993530004052,240.25993530004052,240.18993435003796,0.635406100016553,return,0.4449195000343025,,,,,,A,train_x,x_increasing_steps,top_left,2024-10-29_20h46.10.468,HideSeek_v1,2022.2.5,59.45458738315335,
,3,1,4,1,1,0,26,,train_dim1_1,28,30,2,0,2,0,,,,,,,,,0,0,0,0,0,27,27,27,1,0,1,0,,,,,,,,,,,,,,,,,,,,,,,,,,,,,,,,,,,,,,,,,,,,,,,,,,,,30,,,,,,,,243.23404740000842,243.23404740000842,243.23404740000842,243.23404740000842,243.23404740000842,return,0.2745345999719575,28,0,0,1,0.16,-0.32,return,0.18237719999160618,0,63,0.16,-0.32,,,,,,,,,,,,,,,,,,,,,,,,,,,,,A,train_x,x_increasing_steps,top_left,2024-10-29_20h46.10.468,HideSeek_v1,2022.2.5,59.45458738315335,
,4,0,7,0,3,0,46,,train_dim1_1,29,30,2,0,2,0,,,,,,,,,0,0,0,0,0,28,28,28,0,0,0,0,,,,,,,,,,,,,stimuli/alien_stimuli/46.png,,,,,,,,,,,,,,,,,,,,,,,,,,,,,stimuli/alien_stimuli/26.png,26,3,30,,,,,,,30,,,,,,,,247.03391450003255,247.03391450003255,247.03391450003255,247.03391450003255,247.03391450003255,right,0.6204317000228912,28,0,0,99,0.24,-0.4,right,0.492947600025218,,,,,245.43902320001507,247.03391450003255,0.16,-0.32,0.0,0.08,-0.32,0.16,0.12,0.16,-0.32,245.12809680000646,245.12809680000646,245.12809680000646,245.12809680000646,245.12809680000646,245.12809680000646,245.12809680000646,245.12809680000646,245.05632985006088,0.48504549998324364,return,0.26778010005364195,,,,,,A,train_x,x_increasing_steps,top_left,2024-10-29_20h46.10.468,HideSeek_v1,2022.2.5,59.45458738315335,
,4,0,7,0,3,0,46,,train_dim1_1,29,30,2,0,2,0,,,,,,,,,0,0,0,0,0,28,28,28,1,0,1,0,,,,,,,,,,,,,,,,,,,,,,,,,,,,,,,,,,,,,,,,,,,,,,,,,,,,30,,,,,,,,247.6262010000064,247.6262010000064,247.6262010000064,247.6262010000064,247.6262010000064,right,0.5911400999757461,28,0,0,99,0.32,-0.4,right,0.5105354000115767,,,,,,,,,,,,,,,,,,,,,,,,,,,,,,,,,A,train_x,x_increasing_steps,top_left,2024-10-29_20h46.10.468,HideSeek_v1,2022.2.5,59.45458738315335,
,4,0,7,0,3,0,46,,train_dim1_1,29,30,2,0,2,0,,,,,,,,,0,0,0,0,0,28,28,28,2,0,2,0,,,,,,,,,,,,,,,,,,,,,,,,,,,,,,,,,,,,,,,,,,,,,,,,,,,,30,,,,,,,,248.22735260002082,248.22735260002082,248.22735260002082,248.22735260002082,248.22735260002082,right,0.3082632000441663,28,0,0,99,0.4,-0.4,right,0.22559019998880103,,,,,,,,,,,,,,,,,,,,,,,,,,,,,,,,,A,train_x,x_increasing_steps,top_left,2024-10-29_20h46.10.468,HideSeek_v1,2022.2.5,59.45458738315335,
,4,0,7,0,3,0,46,,train_dim1_1,29,30,2,0,2,0,,,,,,,,,0,0,0,0,0,28,28,28,3,0,3,0,,,,,,,,,,,,,,,,,,,,,,,,,,,,,,,,,,,,,,,,,,,,,,,,,,,,30,,,,,,,,248.54742370004533,248.54742370004533,248.54742370004533,248.54742370004533,248.54742370004533,return,0.2408581999479793,29,0,0,1,0.4,-0.4,return,0.14346300001488999,0,66,0.4,-0.4,,,,,,,,,,,,,,,,,,,,,,,,,,,,,A,train_x,x_increasing_steps,top_left,2024-10-29_20h46.10.468,HideSeek_v1,2022.2.5,59.45458738315335,
,2,2,2,2,0,0,16,,train_dim1_1,30,30,2,0,2,0,,,,,,,,,0,0,0,0,0,29,29,29,0,0,0,0,,,,,,,,,,,,,stimuli/alien_stimuli/16.png,,,,,,,,,,,,,,,,,,,,,,,,,,,,,stimuli/alien_stimuli/46.png,46,4,31,,,,,,,30,,,,,,,,252.35132330004126,252.35132330004126,252.35132330004126,252.35132330004126,252.35132330004126,return,0.8036259000073187,30,0,0,1,0,-0.24,return,0.6792500999872573,0,66,0,-0.24,250.75533040001756,252.35132330004126,0.4,-0.4,0.0,0.24,-0.4,0.4,0.28,0.4,-0.4,250.4073649000493,250.4073649000493,250.4073649000493,250.4073649000493,250.4073649000493,250.4073649000493,250.4073649000493,250.4073649000493,250.33950915002498,0.5176495999912731,return,0.32288579997839406,,,,,,A,train_x,x_increasing_steps,top_left,2024-10-29_20h46.10.468,HideSeek_v1,2022.2.5,59.45458738315335,
,,,,,,,,,,,30,2,0,2,0,,,,,,,,,,,,,,,,,,,,,,,,,,,,,,,,,,,,,,,,,,,,,,,,,,,,,,,,,,,,,,stimuli/alien_stimuli/16.png,16,2,32,17,0.7,1.25,1,1,1,30,0,conditions/schedules/train_x_first/x_increasing_steps/top_left/inputTrain_2.1.xlsx,99,1,2,1,0,,,,,,,,,,,1,,,,,,,,,255.0056170000462,256.5594799000537,0,-0.24,0.0,0.0,-0.24,0,0.0,0,-0.24,254.75493750005262,254.75493750005262,254.75493750005262,254.75493750005262,254.75493750005262,254.75493750005262,254.75493750005262,254.75493750005262,254.68883510002635,0.43534440000075847,return,0.22318520001135767,0,1.25,0,1,30,A,train_x,x_increasing_steps,top_left,2024-10-29_20h46.10.468,HideSeek_v1,2022.2.5,59.45458738315335,
,,,,,,,,,,,,3,0,3,0,0,0,0,0,,,,,,,,,,,,,,,,,,,conditions/schedules/train_x_first/x_increasing_steps/top_left/instructions/Slide17.png,conditions/schedules/train_x_first/x_increasing_steps/top_left/instructions/Audio17.wav,256.5594799000537,256.55631960005263,17,"[4.21800340001937, 0.312289800029248, 0.29638459999114275, 0.23180820001289248, 0.2616313000326045, 0.3223417000262998, 0.1925347000360489, 0.27212219999637455, 0.24114220001501963, 0.28998679999494925, 0.2529817000031471, 0.2865148999844678, 0.6924110000254586, 0.7126104999915697, 1.378243700019084, 0.6914787000278011, 1.1000530000310391]","[4.2180119000258856, 0.3123061000369489, 0.2963943000067957, 0.23181929998099804, 0.00024170003598555923, 0.32235910004237667, 0.017556700040586293, 0.0002875000354833901, 0.07338790001813322, 0.020041300042066723, 0.018735599995125085, 0.2865243999985978, 0.16256679996149614, 0.7126196999452077, 1.378263099992182, 0.6914901999989524, 1.1000615000375547]",0,,,,,,,,,,,,,,,,,,,,,,,,,,,,,,,,,,,,,,,,,,,,,,,,,,,,,,,,,,,,,,,,,,,,,,,,,,,,,,,,,,,,,,,,,,,,,,,,,A,train_x,x_increasing_steps,top_left,2024-10-29_20h46.10.468,HideSeek_v1,2022.2.5,59.45458738315335,
,,,,,,,,,,,,3,0,3,0,1,0,1,0,,,,,,,,,,,,,,,,,,,conditions/schedules/train_x_first/x_increasing_steps/top_left/instructions/Slide18.png,conditions/schedules/train_x_first/x_increasing_steps/top_left/instructions/Audio18.wav,257.72299920005025,257.70636840004005,18,"[4.21800340001937, 0.312289800029248, 0.29638459999114275, 0.23180820001289248, 0.2616313000326045, 0.3223417000262998, 0.1925347000360489, 0.27212219999637455, 0.24114220001501963, 0.28998679999494925, 0.2529817000031471, 0.2865148999844678, 0.6924110000254586, 0.7126104999915697, 1.378243700019084, 0.6914787000278011, 1.1000530000310391, 0.5018448000191711]","[4.2180119000258856, 0.3123061000369489, 0.2963943000067957, 0.23181929998099804, 0.00024170003598555923, 0.32235910004237667, 0.017556700040586293, 0.0002875000354833901, 0.07338790001813322, 0.020041300042066723, 0.018735599995125085, 0.2865243999985978, 0.16256679996149614, 0.7126196999452077, 1.378263099992182, 0.6914901999989524, 0.00024480000138282776, 0.5018556999857537]",0,,,,,,,,,,,,,,,,,,,,,,,,,,,,,,,,,,,,,,,,,,,,,,,,,,,,,,,,,,,,,,,,,,,,,,,,,,,,,,,,,,,,,,,,,,,,,,,,,A,train_x,x_increasing_steps,top_left,2024-10-29_20h46.10.468,HideSeek_v1,2022.2.5,59.45458738315335,
,,,,,,,,,,,,3,0,3,0,2,0,2,0,,,,,,,,,,,,,,,,,,,conditions/schedules/train_x_first/x_increasing_steps/top_left/instructions/Slide19.png,conditions/schedules/train_x_first/x_increasing_steps/top_left/instructions/Audio19.wav,258.26536360004684,258.2555940500344,19,"[4.21800340001937, 0.312289800029248, 0.29638459999114275, 0.23180820001289248, 0.2616313000326045, 0.3223417000262998, 0.1925347000360489, 0.27212219999637455, 0.24114220001501963, 0.28998679999494925, 0.2529817000031471, 0.2865148999844678, 0.6924110000254586, 0.7126104999915697, 1.378243700019084, 0.6914787000278011, 1.1000530000310391, 0.5018448000191711, 0.7906000000075437]","[4.2180119000258856, 0.3123061000369489, 0.2963943000067957, 0.23181929998099804, 0.00024170003598555923, 0.32235910004237667, 0.017556700040586293, 0.0002875000354833901, 0.07338790001813322, 0.020041300042066723, 0.018735599995125085, 0.2865243999985978, 0.16256679996149614, 0.7126196999452077, 1.378263099992182, 0.6914901999989524, 0.00024480000138282776, 0.04100810003001243, 0.7906103000277653]",0,,,,,,,,,,,,,,,,,,,,,,,,,,,,,,,,,,,,,,,,,,,,,,,,,,,,,,,,,,,,,,,,,,,,,,,,,,,,,,,,,,,,,,,,,,,,,,,,,A,train_x,x_increasing_steps,top_left,2024-10-29_20h46.10.468,HideSeek_v1,2022.2.5,59.45458738315335,
,,,,,,,,,,,,3,0,3,0,3,0,3,0,,,,,,,,,,,,,,,,,,,conditions/schedules/train_x_first/x_increasing_steps/top_left/instructions/Slide20.png,conditions/schedules/train_x_first/x_increasing_steps/top_left/instructions/Audio20.wav,259.1220598000218,259.1054484000429,20,"[4.21800340001937, 0.312289800029248, 0.29638459999114275, 0.23180820001289248, 0.2616313000326045, 0.3223417000262998, 0.1925347000360489, 0.27212219999637455, 0.24114220001501963, 0.28998679999494925, 0.2529817000031471, 0.2865148999844678, 0.6924110000254586, 0.7126104999915697, 1.378243700019084, 0.6914787000278011, 1.1000530000310391, 0.5018448000191711, 0.7906000000075437, 1.9680067999870516]","[4.2180119000258856, 0.3123061000369489, 0.2963943000067957, 0.23181929998099804, 0.00024170003598555923, 0.32235910004237667, 0.017556700040586293, 0.0002875000354833901, 0.07338790001813322, 0.020041300042066723, 0.018735599995125085, 0.2865243999985978, 0.16256679996149614, 0.7126196999452077, 1.378263099992182, 0.6914901999989524, 0.00024480000138282776, 0.04100810003001243, 0.0674262999673374, 1.968016800004989]",0,,,,,,,,,,,,,,,,,,,,,,,,,,,,,,,,,,,,,,,,,,,,,,,,,,,,,,,,,,,,,,,,,,,,,,,,,,,,,,,,,,,,,,,,,,,,,,,,,A,train_x,x_increasing_steps,top_left,2024-10-29_20h46.10.468,HideSeek_v1,2022.2.5,59.45458738315335,
,,,,,,,,,,,,,,,,,,,,,,,,,,,,,,,,,,,,,,,,,,,,,,,,stimuli/alien_stimuli/66.png,conditions/schedules/train_x_first/x_increasing_steps/top_left/inputInstr_1.xlsx,stimuli/alien_stimuli/66.png,261.23197390005225,261.23197390005225,261.23197390005225,261.23197390005225,261.172881700017,,,,,,,,,,,,,,,,,,,,,,,,,,,,,,,,,,,,,,,,,,,,,,,,,,,,,,,,,,,,,,,,,,,,,,,,,,,,,,,,,,,,,,,,,,,,,,,
