trialInstr,x_fixStart,y_fixStart,x_corrSteps,y_corrSteps,x_nrSteps,y_nrSteps,alienID,trialLength,version,trialTrain,praclen,beforeExpLoop.thisRepN,beforeExpLoop.thisTrialN,beforeExpLoop.thisN,beforeExpLoop.thisIndex,mini_instr_trials.thisRepN,mini_instr_trials.thisTrialN,mini_instr_trials.thisN,mini_instr_trials.thisIndex,instrLoop.thisRepN,instrLoop.thisTrialN,instrLoop.thisN,instrLoop.thisIndex,repeat_prac.thisRepN,repeat_prac.thisTrialN,repeat_prac.thisN,repeat_prac.thisIndex,trainLoop.thisRepN,trainLoop.thisTrialN,trainLoop.thisN,trainLoop.thisIndex,moveLoop_train.thisRepN,moveLoop_train.thisTrialN,moveLoop_train.thisN,moveLoop_train.thisIndex,start_all_time,url,slideStim,audioStim,slides.started,sounds.started,nextButton.numClicks,nextButton.timesOn,nextButton.timesOff,prev_but.numClicks,prev_but.timesOn,prev_but.timesOff,alienStim,instrFile,alienStim_instr,gridImage_instr.started,startPos_3.started,key_instr.started,alienImage_3.started,sounds_1.started,key_instr.keys,key_instr.rt,all_x,all_y,FBy_corrSteps,FBy_fixStart,FBx_corrSteps,FBx_fixStart,FBy_pathSize_check,FBx_pathSize_check,gridImage_9.started,alienImageFB_3.started,startPosFB_3.started,keyFB_3.started,pathLine_ydir_2.started,pathLine_xdir_2.started,alienFace_3.started,sounds_2.started,RTFB_instr,keyFB_3.keys,keyFB_3.rt,draw_alienStim,draw_alienID,test_x,nrepcount,perfthres,percthres,earlierperf,earlystop,nextPrac,fileidx,praclen,saveACC_train,pracFile,nextPrac_train,addNrep,fileidx_endr,repExp,showearly,gridImage_4.started,startPos.started,movePos.started,key_resp.started,alienImage.started,buttonPress_train,RTchoice_train,cumAcctrain,aCorr,saveACC_choice,corrAns,x_movePos_end,y_movePos_end,key_resp.keys,key_resp.rt,wLy_dir,wLx_dir,x_movePos,y_movePos,text_2.started,aft_x_corrPos,aft_y_corrPos,y_pathSize_check,x_pathSize_check,y_pathdirY,x_pathdirY,x_pathdirX,x_corrPos,y_corrPos,gridImage_6.started,alienImageFB_2.started,startPosFB_2.started,movePosFB_2.started,keyFB_2.started,pathLine_xdir.started,pathLine_ydir.started,alienFace.started,sounds_4.started,RT_FBtrain,keyFB_2.keys,keyFB_2.rt,text_2.stopped,saveACC_pre,ACC,within_saveACC_train,earlystop_wloop,cumAcctrain_check,participant,train_first,direction of x,starting corner,date,expName,psychopyVersion,frameRate,
,,,,,,,,,,,,0,0,0,0,0,0,0,0,,,,,,,,,,,,,,,,,start_all_time,testround,conditions/schedules/train_x_first/x_increasing_steps/top_left/instructions/Slide1.png,conditions/schedules/train_x_first/x_increasing_steps/top_left/instructions/Audio1.wav,61.21055650000926,61.08818711946951,1,[3.761934000009205],[3.761949600011576],0,,,,,,,,,,,,,,,,,,,,,,,,,,,,,,,,,,,,,,,,,,,,,,,,,,,,,,,,,,,,,,,,,,,,,,,,,,,,,,,,,,,,,,,,,,,,,,,,,A,train_x,x_increasing_steps,top_left,2024-10-29_21h53.21.681,HideSeek_v1,2022.2.5,60.14136829154068,
,,,,,,,,,,,,0,0,0,0,1,0,1,0,,,,,,,,,,,,,,,,,,,conditions/schedules/train_x_first/x_increasing_steps/top_left/instructions/Slide2.png,conditions/schedules/train_x_first/x_increasing_steps/top_left/instructions/Audio2.wav,64.98460380005417,64.96098419004701,2,"[3.761934000009205, 0.6022230999660678]","[0.10068949998822063, 0.6022371000144631]",0,,,,,,,,,,,,,,,,,,,,,,,,,,,,,,,,,,,,,,,,,,,,,,,,,,,,,,,,,,,,,,,,,,,,,,,,,,,,,,,,,,,,,,,,,,,,,,,,,A,train_x,x_increasing_steps,top_left,2024-10-29_21h53.21.681,HideSeek_v1,2022.2.5,60.14136829154068,
,,,,,,,,,,,,0,0,0,0,2,0,2,0,,,,,,,,,,,,,,,,,,,conditions/schedules/train_x_first/x_increasing_steps/top_left/instructions/Slide3.png,conditions/schedules/train_x_first/x_increasing_steps/top_left/instructions/Audio3.wav,65.6916919000214,65.67563758999458,3,"[3.761934000009205, 0.6022230999660678, 2.1955465999781154]","[0.10068949998822063, 0.09493919997476041, 2.19556039996678]",0,,,,,,,,,,,,,,,,,,,,,,,,,,,,,,,,,,,,,,,,,,,,,,,,,,,,,,,,,,,,,,,,,,,,,,,,,,,,,,,,,,,,,,,,,,,,,,,,,A,train_x,x_increasing_steps,top_left,2024-10-29_21h53.21.681,HideSeek_v1,2022.2.5,60.14136829154068,
,,,,,,,,,,,,0,0,0,0,3,0,3,0,,,,,,,,,,,,,,,,,,,conditions/schedules/train_x_first/x_increasing_steps/top_left/instructions/Slide4.png,conditions/schedules/train_x_first/x_increasing_steps/top_left/instructions/Audio4.wav,67.99555760005023,67.97872229001368,4,"[3.761934000009205, 0.6022230999660678, 2.1955465999781154, 0.35567790002096444]","[0.10068949998822063, 0.09493919997476041, 0.07284510001773015, 0.3556906000012532]",0,,,,,,,,,,,,,,,,,,,,,,,,,,,,,,,,,,,,,,,,,,,,,,,,,,,,,,,,,,,,,,,,,,,,,,,,,,,,,,,,,,,,,,,,,,,,,,,,,A,train_x,x_increasing_steps,top_left,2024-10-29_21h53.21.681,HideSeek_v1,2022.2.5,60.14136829154068,
,,,,,,,,,,,,0,0,0,0,4,0,4,0,,,,,,,,,,,,,,,,,,,conditions/schedules/train_x_first/x_increasing_steps/top_left/instructions/Slide5.png,conditions/schedules/train_x_first/x_increasing_steps/top_left/instructions/Audio5.wav,68.44250360003207,68.42566732004052,5,"[3.761934000009205, 0.6022230999660678, 2.1955465999781154, 0.35567790002096444, 0.2957173999748193]","[0.10068949998822063, 0.09493919997476041, 0.07284510001773015, 0.0949104999890551, 0.29572900000493973]",0,,,,,,,,,,,,,,,,,,,,,,,,,,,,,,,,,,,,,,,,,,,,,,,,,,,,,,,,,,,,,,,,,,,,,,,,,,,,,,,,,,,,,,,,,,,,,,,,,A,train_x,x_increasing_steps,top_left,2024-10-29_21h53.21.681,HideSeek_v1,2022.2.5,60.14136829154068,
,,,,,,,,,,,,0,0,0,0,5,0,5,0,,,,,,,,,,,,,,,,,,,conditions/schedules/train_x_first/x_increasing_steps/top_left/instructions/Slide6.png,conditions/schedules/train_x_first/x_increasing_steps/top_left/instructions/Audio6.wav,68.83189300005324,68.81229002000764,6,"[3.761934000009205, 0.6022230999660678, 2.1955465999781154, 0.35567790002096444, 0.2957173999748193, 0.37212209997233003]","[0.10068949998822063, 0.09493919997476041, 0.07284510001773015, 0.0949104999890551, 0.12281979998806491, 0.3721353000146337]",0,,,,,,,,,,,,,,,,,,,,,,,,,,,,,,,,,,,,,,,,,,,,,,,,,,,,,,,,,,,,,,,,,,,,,,,,,,,,,,,,,,,,,,,,,,,,,,,,,A,train_x,x_increasing_steps,top_left,2024-10-29_21h53.21.681,HideSeek_v1,2022.2.5,60.14136829154068,
,,,,,,,,,,,,0,0,0,0,6,0,6,0,,,,,,,,,,,,,,,,,,,conditions/schedules/train_x_first/x_increasing_steps/top_left/instructions/Slide7.png,conditions/schedules/train_x_first/x_increasing_steps/top_left/instructions/Audio7.wav,69.29949699999997,69.27826002002693,7,"[3.761934000009205, 0.6022230999660678, 2.1955465999781154, 0.35567790002096444, 0.2957173999748193, 0.37212209997233003, 0.4176661999663338]","[0.10068949998822063, 0.09493919997476041, 0.07284510001773015, 0.0949104999890551, 0.12281979998806491, 0.09831169998506084, 0.41767819999950007]",0,,,,,,,,,,,,,,,,,,,,,,,,,,,,,,,,,,,,,,,,,,,,,,,,,,,,,,,,,,,,,,,,,,,,,,,,,,,,,,,,,,,,,,,,,,,,,,,,,A,train_x,x_increasing_steps,top_left,2024-10-29_21h53.21.681,HideSeek_v1,2022.2.5,60.14136829154068,
,,,,,,,,,,,,0,0,0,0,7,0,7,0,,,,,,,,,,,,,,,,,,,conditions/schedules/train_x_first/x_increasing_steps/top_left/instructions/Slide8.png,conditions/schedules/train_x_first/x_increasing_steps/top_left/instructions/Audio8.wav,69.81964300002437,69.79486661999253,8,"[3.761934000009205, 0.6022230999660678, 2.1955465999781154, 0.35567790002096444, 0.2957173999748193, 0.37212209997233003, 0.4176661999663338, 0.4579248999943957]","[0.10068949998822063, 0.09493919997476041, 0.07284510001773015, 0.0949104999890551, 0.12281979998806491, 0.09831169998506084, 0.10728019999805838, 0.4579360000207089]",0,,,,,,,,,,,,,,,,,,,,,,,,,,,,,,,,,,,,,,,,,,,,,,,,,,,,,,,,,,,,,,,,,,,,,,,,,,,,,,,,,,,,,,,,,,,,,,,,,A,train_x,x_increasing_steps,top_left,2024-10-29_21h53.21.681,HideSeek_v1,2022.2.5,60.14136829154068,
,,,,,,,,,,,,0,0,0,0,8,0,8,0,,,,,,,,,,,,,,,,,,,conditions/schedules/train_x_first/x_increasing_steps/top_left/instructions/Slide9.png,conditions/schedules/train_x_first/x_increasing_steps/top_left/instructions/Audio9.wav,70.36199660005514,70.34228461999446,9,"[3.761934000009205, 0.6022230999660678, 2.1955465999781154, 0.35567790002096444, 0.2957173999748193, 0.37212209997233003, 0.4176661999663338, 0.4579248999943957, 1.00332790001994]","[0.10068949998822063, 0.09493919997476041, 0.07284510001773015, 0.0949104999890551, 0.12281979998806491, 0.09831169998506084, 0.10728019999805838, 0.10306579997995868, 1.0033404999994673]",0,,,,,,,,,,,,,,,,,,,,,,,,,,,,,,,,,,,,,,,,,,,,,,,,,,,,,,,,,,,,,,,,,,,,,,,,,,,,,,,,,,,,,,,,,,,,,,,,,A,train_x,x_increasing_steps,top_left,2024-10-29_21h53.21.681,HideSeek_v1,2022.2.5,60.14136829154068,
,,,,,,,,,,,,0,0,0,0,9,0,9,0,,,,,,,,,,,,,,,,,,,conditions/schedules/train_x_first/x_increasing_steps/top_left/instructions/Slide10.png,conditions/schedules/train_x_first/x_increasing_steps/top_left/instructions/Audio10.wav,71.43793860002188,71.42540045003989,10,"[3.761934000009205, 0.6022230999660678, 2.1955465999781154, 0.35567790002096444, 0.2957173999748193, 0.37212209997233003, 0.4176661999663338, 0.4579248999943957, 1.00332790001994, 0.4493209000211209]","[0.10068949998822063, 0.09493919997476041, 0.07284510001773015, 0.0949104999890551, 0.12281979998806491, 0.09831169998506084, 0.10728019999805838, 0.10306579997995868, 0.14527640002779663, 0.4493330999976024]",0,,,,,,,,,,,,,,,,,,,,,,,,,,,,,,,,,,,,,,,,,,,,,,,,,,,,,,,,,,,,,,,,,,,,,,,,,,,,,,,,,,,,,,,,,,,,,,,,,A,train_x,x_increasing_steps,top_left,2024-10-29_21h53.21.681,HideSeek_v1,2022.2.5,60.14136829154068,
,,,,,,,,,,,,0,0,0,0,10,0,10,0,,,,,,,,,,,,,,,,,,,conditions/schedules/train_x_first/x_increasing_steps/top_left/instructions/Slide11.png,conditions/schedules/train_x_first/x_increasing_steps/top_left/instructions/Audio11.wav,71.98414870002307,71.96350952000357,11,"[3.761934000009205, 0.6022230999660678, 2.1955465999781154, 0.35567790002096444, 0.2957173999748193, 0.37212209997233003, 0.4176661999663338, 0.4579248999943957, 1.00332790001994, 0.4493209000211209, 0.381854800041765]","[0.10068949998822063, 0.09493919997476041, 0.07284510001773015, 0.0949104999890551, 0.12281979998806491, 0.09831169998506084, 0.10728019999805838, 0.10306579997995868, 0.14527640002779663, 0.11765780003042892, 0.38186880003195256]",0,,,,,,,,,,,,,,,,,,,,,,,,,,,,,,,,,,,,,,,,,,,,,,,,,,,,,,,,,,,,,,,,,,,,,,,,,,,,,,,,,,,,,,,,,,,,,,,,,A,train_x,x_increasing_steps,top_left,2024-10-29_21h53.21.681,HideSeek_v1,2022.2.5,60.14136829154068,
,,,,,,,,,,,,0,0,0,0,11,0,11,0,,,,,,,,,,,,,,,,,,,conditions/schedules/train_x_first/x_increasing_steps/top_left/instructions/Slide12.png,conditions/schedules/train_x_first/x_increasing_steps/top_left/instructions/Audio12.wav,72.46554580004886,72.45901619002106,12,"[3.761934000009205, 0.6022230999660678, 2.1955465999781154, 0.35567790002096444, 0.2957173999748193, 0.37212209997233003, 0.4176661999663338, 0.4579248999943957, 1.00332790001994, 0.4493209000211209, 0.381854800041765, 0.5496646999963559]","[0.10068949998822063, 0.09493919997476041, 0.07284510001773015, 0.0949104999890551, 0.12281979998806491, 0.09831169998506084, 0.10728019999805838, 0.10306579997995868, 0.14527640002779663, 0.11765780003042892, 0.11844610003754497, 0.5496765000279993]",0,,,,,,,,,,,,,,,,,,,,,,,,,,,,,,,,,,,,,,,,,,,,,,,,,,,,,,,,,,,,,,,,,,,,,,,,,,,,,,,,,,,,,,,,,,,,,,,,,A,train_x,x_increasing_steps,top_left,2024-10-29_21h53.21.681,HideSeek_v1,2022.2.5,60.14136829154068,
1,3,2,8,2,5,0,66,2,instr_dim1_1,,,0,0,0,0,,,,,0,0,0,0,,,,,,,,,,,,,,,,,,,,,,,,,stimuli/alien_stimuli/66.png,conditions/schedules/train_x_first/x_increasing_steps/top_left/inputInstr_1.xlsx,stimuli/alien_stimuli/66.png,73.24527430004673,73.24527430004673,73.24527430004673,73.24527430004673,73.12517856000922,return,3.1744884000509046,"[-0.16, -0.08, 0, 0.08, 0.16, 0.24, 0.32, 0.4, 0.48, 0.56]","[-0.4, -0.32, -0.24, -0.16, -0.08, 0, 0.08, 0.16, 0.24, 0.32]",2,2,8,3,0.0,0.4,76.70390830002725,76.70390830002725,76.70390830002725,76.70390830002725,76.70390830002725,76.70390830002725,76.70390830002725,76.6260645400267,0.9361005999962799,return,0.6537822000100277,stimuli/alien_stimuli/66.png,66,3,1,,,,,,,,,,,,,,,,,,,,,,,,,,,,,,,,,,,,,,,,,,,,,,,,,,,,,,,,,,,,,,A,train_x,x_increasing_steps,top_left,2024-10-29_21h53.21.681,HideSeek_v1,2022.2.5,60.14136829154068,
,,,,,,,,,,,30,0,0,0,0,,,,,,,,,,,,,,,,,,,,,,,,,,,,,,,,,,,,,,,,,,,,,,,,,,,,,,,,,,,,,,,,,,17,0.7,0,0,99,1,30,0,conditions/schedules/train_x_first/x_increasing_steps/top_left/inputTrain_1.1.xlsx,99,1,1,1,0,,,,,,,,,,,,,,,,,,,,,,,,,,,,,,,,,,,,,,,,,,,,,,,,A,train_x,x_increasing_steps,top_left,2024-10-29_21h53.21.681,HideSeek_v1,2022.2.5,60.14136829154068,
,,,,,,,,,,,,1,0,1,0,0,0,0,0,,,,,,,,,,,,,,,,,,,conditions/schedules/train_x_first/x_increasing_steps/top_left/instructions/Slide13.png,conditions/schedules/train_x_first/x_increasing_steps/top_left/instructions/Audio13.wav,77.63050810003188,77.60956864999025,13,"[3.761934000009205, 0.6022230999660678, 2.1955465999781154, 0.35567790002096444, 0.2957173999748193, 0.37212209997233003, 0.4176661999663338, 0.4579248999943957, 1.00332790001994, 0.4493209000211209, 0.381854800041765, 0.5496646999963559, 0.9311145999818109]","[0.10068949998822063, 0.09493919997476041, 0.07284510001773015, 0.0949104999890551, 0.12281979998806491, 0.09831169998506084, 0.10728019999805838, 0.10306579997995868, 0.14527640002779663, 0.11765780003042892, 0.11844610003754497, 0.5496765000279993, 0.931133600010071]",0,,,,,,,,,,,,,,,,,,,,,,,,,,,,,,,,,,,,,,,,,,,,,,,,,,,,,,,,,,,,,,,,,,,,,,,,,,,,,,,,,,,,,,,,,,,,,,,,,A,train_x,x_increasing_steps,top_left,2024-10-29_21h53.21.681,HideSeek_v1,2022.2.5,60.14136829154068,
,,,,,,,,,,,,1,0,1,0,1,0,1,0,,,,,,,,,,,,,,,,,,,conditions/schedules/train_x_first/x_increasing_steps/top_left/instructions/Slide14.png,conditions/schedules/train_x_first/x_increasing_steps/top_left/instructions/Audio14.wav,78.66277800005628,78.64624429004616,14,"[3.761934000009205, 0.6022230999660678, 2.1955465999781154, 0.35567790002096444, 0.2957173999748193, 0.37212209997233003, 0.4176661999663338, 0.4579248999943957, 1.00332790001994, 0.4493209000211209, 0.381854800041765, 0.5496646999963559, 0.9311145999818109, 0.6226869000238366]","[0.10068949998822063, 0.09493919997476041, 0.07284510001773015, 0.0949104999890551, 0.12281979998806491, 0.09831169998506084, 0.10728019999805838, 0.10306579997995868, 0.14527640002779663, 0.11765780003042892, 0.11844610003754497, 0.5496765000279993, 0.02361520001431927, 0.6226984999957494]",0,,,,,,,,,,,,,,,,,,,,,,,,,,,,,,,,,,,,,,,,,,,,,,,,,,,,,,,,,,,,,,,,,,,,,,,,,,,,,,,,,,,,,,,,,,,,,,,,,A,train_x,x_increasing_steps,top_left,2024-10-29_21h53.21.681,HideSeek_v1,2022.2.5,60.14136829154068,
2,4,0,4,0,0,0,16,2,instr_dim1_1,,,1,0,1,0,,,,,0,0,0,0,,,,,,,,,,,,,,,,,,,,,,,,,stimuli/alien_stimuli/16.png,conditions/schedules/train_x_first/x_increasing_steps/top_left/inputInstr_1.xlsx,stimuli/alien_stimuli/16.png,79.48928560002241,79.48928560002241,79.48928560002241,79.48928560002241,79.41179463001318,return,1.1831929000327364,"[-0.16, -0.08, 0, 0.08, 0.16, 0.24, 0.32, 0.4, 0.48, 0.56]","[-0.4, -0.32, -0.24, -0.16, -0.08, 0, 0.08, 0.16, 0.24, 0.32]",0,0,4,4,0.0,0.0,80.98944540001685,80.98944540001685,80.98944540001685,80.98944540001685,80.98944540001685,80.98944540001685,80.98944540001685,80.87563293999992,0.49953900004038587,return,0.17161909997230396,stimuli/alien_stimuli/16.png,16,4,2,,,,,,,,,,,,,,,,,,,,,,,,,,,,,,,,,,,,,,,,,,,,,,,,,,,,,,,,,,,,,,A,train_x,x_increasing_steps,top_left,2024-10-29_21h53.21.681,HideSeek_v1,2022.2.5,60.14136829154068,
,,,,,,,,,,,30,1,0,1,0,,,,,,,,,,,,,,,,,,,,,,,,,,,,,,,,,,,,,,,,,,,,,,,,,,,,,,,,,,,,,,,,,,17,0.7,0,0,99,1,30,0,conditions/schedules/train_x_first/x_increasing_steps/top_left/inputTrain_1.1.xlsx,99,1,1,1,0,,,,,,,,,,,,,,,,,,,,,,,,,,,,,,,,,,,,,,,,,,,,,,,,A,train_x,x_increasing_steps,top_left,2024-10-29_21h53.21.681,HideSeek_v1,2022.2.5,60.14136829154068,
,,,,,,,,,,,,2,0,2,0,0,0,0,0,,,,,,,,,,,,,,,,,,,conditions/schedules/train_x_first/x_increasing_steps/top_left/instructions/Slide15.png,conditions/schedules/train_x_first/x_increasing_steps/top_left/instructions/Audio15.wav,81.45790350000607,81.4427482200088,15,"[3.761934000009205, 0.6022230999660678, 2.1955465999781154, 0.35567790002096444, 0.2957173999748193, 0.37212209997233003, 0.4176661999663338, 0.4579248999943957, 1.00332790001994, 0.4493209000211209, 0.381854800041765, 0.5496646999963559, 0.9311145999818109, 0.6226869000238366, 1.9841924000065774]","[0.10068949998822063, 0.09493919997476041, 0.07284510001773015, 0.0949104999890551, 0.12281979998806491, 0.09831169998506084, 0.10728019999805838, 0.10306579997995868, 0.14527640002779663, 0.11765780003042892, 0.11844610003754497, 0.5496765000279993, 0.02361520001431927, 0.6226984999957494, 1.9842051999876276]",0,,,,,,,,,,,,,,,,,,,,,,,,,,,,,,,,,,,,,,,,,,,,,,,,,,,,,,,,,,,,,,,,,,,,,,,,,,,,,,,,,,,,,,,,,,,,,,,,,A,train_x,x_increasing_steps,top_left,2024-10-29_21h53.21.681,HideSeek_v1,2022.2.5,60.14136829154068,
,,,,,,,,,,,,2,0,2,0,1,0,1,0,,,,,,,,,,,,,,,,,,,conditions/schedules/train_x_first/x_increasing_steps/top_left/instructions/Slide16.png,conditions/schedules/train_x_first/x_increasing_steps/top_left/instructions/Audio16.wav,83.55448640004033,83.54210296003147,16,"[3.761934000009205, 0.6022230999660678, 2.1955465999781154, 0.35567790002096444, 0.2957173999748193, 0.37212209997233003, 0.4176661999663338, 0.4579248999943957, 1.00332790001994, 0.4493209000211209, 0.381854800041765, 0.5496646999963559, 0.9311145999818109, 0.6226869000238366, 1.9841924000065774, 0.9329402000294067]","[0.10068949998822063, 0.09493919997476041, 0.07284510001773015, 0.0949104999890551, 0.12281979998806491, 0.09831169998506084, 0.10728019999805838, 0.10306579997995868, 0.14527640002779663, 0.11765780003042892, 0.11844610003754497, 0.5496765000279993, 0.02361520001431927, 0.6226984999957494, 0.026810000010300428, 0.9329515999997966]",0,,,,,,,,,,,,,,,,,,,,,,,,,,,,,,,,,,,,,,,,,,,,,,,,,,,,,,,,,,,,,,,,,,,,,,,,,,,,,,,,,,,,,,,,,,,,,,,,,A,train_x,x_increasing_steps,top_left,2024-10-29_21h53.21.681,HideSeek_v1,2022.2.5,60.14136829154068,
,2,1,4,1,2,0,36,,train_dim1_1,1,30,2,0,2,0,,,,,,,,,0,0,0,0,0,0,0,0,0,0,0,0,,,,,,,,,,,,,stimuli/alien_stimuli/36.png,,,,,,,,,,,,,,,,,,,,,,,,,,,,,,,,,,,,,,,30,,,,,,,,84.64585630001966,84.64585630001966,84.64585630001966,84.64585630001966,84.64585630001966,right,2.0638261000276543,0,0,0,99,0.08,-0.32,right,1.936631300020963,,,,,,,,,,,,,,,,,,,,,,,,,,,,,,,,,A,train_x,x_increasing_steps,top_left,2024-10-29_21h53.21.681,HideSeek_v1,2022.2.5,60.14136829154068,
,2,1,4,1,2,0,36,,train_dim1_1,1,30,2,0,2,0,,,,,,,,,0,0,0,0,0,0,0,0,1,0,1,0,,,,,,,,,,,,,,,,,,,,,,,,,,,,,,,,,,,,,,,,,,,,,,,,,,,,30,,,,,,,,86.72219980001682,86.72219980001682,86.72219980001682,86.72219980001682,86.72219980001682,right,0.2871134000015445,0,0,0,99,0.16,-0.32,right,0.13962239999091253,,,,,,,,,,,,,,,,,,,,,,,,,,,,,,,,,A,train_x,x_increasing_steps,top_left,2024-10-29_21h53.21.681,HideSeek_v1,2022.2.5,60.14136829154068,
,2,1,4,1,2,0,36,,train_dim1_1,1,30,2,0,2,0,,,,,,,,,0,0,0,0,0,0,0,0,2,0,2,0,,,,,,,,,,,,,,,,,,,,,,,,,,,,,,,,,,,,,,,,,,,,,,,,,,,,30,,,,,,,,87.02116620005108,87.02116620005108,87.02116620005108,87.02116620005108,87.02116620005108,return,0.35293759999331087,1,0,0,1,0.16,-0.32,return,0.22096790000796318,0,2,0.16,-0.32,,,,,,,,,,,,,,,,,,,,,,,,,,,,,A,train_x,x_increasing_steps,top_left,2024-10-29_21h53.21.681,HideSeek_v1,2022.2.5,60.14136829154068,
,2,4,2,4,0,0,16,,train_dim1_1,2,30,2,0,2,0,,,,,,,,,0,0,0,0,0,1,1,1,0,0,0,0,,,,,,,,,,,,,stimuli/alien_stimuli/16.png,,,,,,,,,,,,,,,,,,,,,,,,,,,,,stimuli/alien_stimuli/36.png,36,2,3,,,,,,,30,,,,,,,,95.50809250003658,95.50809250003658,95.50809250003658,95.50809250003658,95.50809250003658,return,1.7534204000257887,2,0,0,1,0,-0.08,return,1.5791394999832846,0,2,0,-0.08,93.85827940003946,0.16,-0.32,0.0,0.16,-0.32,0.16,0.08,0.16,-0.32,89.11124030000065,89.11124030000065,89.11124030000065,89.11124030000065,89.11124030000065,89.11124030000065,89.11124030000065,89.11124030000065,88.97598387002363,5.0538813000312075,return,4.709876500011887,95.50809250003658,,,,,,A,train_x,x_increasing_steps,top_left,2024-10-29_21h53.21.681,HideSeek_v1,2022.2.5,60.14136829154068,
,4,4,5,4,1,0,26,,train_dim1_1,3,30,2,0,2,0,,,,,,,,,0,0,0,0,0,2,2,2,0,0,0,0,,,,,,,,,,,,,stimuli/alien_stimuli/26.png,,,,,,,,,,,,,,,,,,,,,,,,,,,,,stimuli/alien_stimuli/16.png,16,2,4,,,,,,,30,,,,,,,,101.28973150003003,101.28973150003003,101.28973150003003,101.28973150003003,101.28973150003003,right,1.5126871999818832,2,0,0,99,0.24,-0.08,right,1.271991399989929,,,,,99.5750071000075,0,-0.08,0.0,0.0,-0.08,0,0.0,0,-0.08,98.89173840003787,98.89173840003787,98.89173840003787,98.89173840003787,98.89173840003787,98.89173840003787,98.89173840003787,98.89173840003787,98.7753974300169,0.9257795999874361,return,0.6488896000082605,,,,,,,A,train_x,x_increasing_steps,top_left,2024-10-29_21h53.21.681,HideSeek_v1,2022.2.5,60.14136829154068,
,4,4,5,4,1,0,26,,train_dim1_1,3,30,2,0,2,0,,,,,,,,,0,0,0,0,0,2,2,2,1,0,1,0,,,,,,,,,,,,,,,,,,,,,,,,,,,,,,,,,,,,,,,,,,,,,,,,,,,,30,,,,,,,,102.70955070003401,102.70955070003401,102.70955070003401,102.70955070003401,102.70955070003401,return,0.38863310002489015,3,0,0,1,0.24,-0.08,return,0.23563869995996356,0,3,0.24,-0.08,,,,,,,,,,,,,,,,,,,,,,,,,,,,,A,train_x,x_increasing_steps,top_left,2024-10-29_21h53.21.681,HideSeek_v1,2022.2.5,60.14136829154068,
,2,3,5,3,3,0,46,,train_dim1_1,4,30,2,0,2,0,,,,,,,,,0,0,0,0,0,3,3,3,0,0,0,0,,,,,,,,,,,,,stimuli/alien_stimuli/46.png,,,,,,,,,,,,,,,,,,,,,,,,,,,,,stimuli/alien_stimuli/26.png,26,4,5,,,,,,,30,,,,,,,,107.78765030001523,107.78765030001523,107.78765030001523,107.78765030001523,107.78765030001523,right,6.436702199978754,3,0,0,99,0.08,-0.16,right,6.263619099976495,,,,,106.14147120004054,0.24,-0.08,0.0,0.08,-0.08,0.24,0.2,0.24,-0.08,104.87020240002312,104.87020240002312,104.87020240002312,104.87020240002312,104.87020240002312,104.87020240002312,104.87020240002312,104.87020240002312,104.67570170003455,1.6117700999602675,return,1.226323000038974,,,,,,,A,train_x,x_increasing_steps,top_left,2024-10-29_21h53.21.681,HideSeek_v1,2022.2.5,60.14136829154068,
,2,3,5,3,3,0,46,,train_dim1_1,4,30,2,0,2,0,,,,,,,,,0,0,0,0,0,3,3,3,1,0,1,0,,,,,,,,,,,,,,,,,,,,,,,,,,,,,,,,,,,,,,,,,,,,,,,,,,,,30,,,,,,,,114.20025250001345,114.20025250001345,114.20025250001345,114.20025250001345,114.20025250001345,right,0.6879645999870263,3,0,0,99,0.16,-0.16,right,0.562321699981112,,,,,,,,,,,,,,,,,,,,,,,,,,,,,,,,,A,train_x,x_increasing_steps,top_left,2024-10-29_21h53.21.681,HideSeek_v1,2022.2.5,60.14136829154068,
,2,3,5,3,3,0,46,,train_dim1_1,4,30,2,0,2,0,,,,,,,,,0,0,0,0,0,3,3,3,2,0,2,0,,,,,,,,,,,,,,,,,,,,,,,,,,,,,,,,,,,,,,,,,,,,,,,,,,,,30,,,,,,,,114.89968630002113,114.89968630002113,114.89968630002113,114.89968630002113,114.89968630002113,right,0.39296879997709766,3,0,0,99,0.24,-0.16,right,0.2749828000087291,,,,,,,,,,,,,,,,,,,,,,,,,,,,,,,,,A,train_x,x_increasing_steps,top_left,2024-10-29_21h53.21.681,HideSeek_v1,2022.2.5,60.14136829154068,
,2,3,5,3,3,0,46,,train_dim1_1,4,30,2,0,2,0,,,,,,,,,0,0,0,0,0,3,3,3,3,0,3,0,,,,,,,,,,,,,,,,,,,,,,,,,,,,,,,,,,,,,,,,,,,,,,,,,,,,30,,,,,,,,115.29501940001501,115.29501940001501,115.29501940001501,115.29501940001501,115.29501940001501,return,0.32134660001611337,4,0,0,1,0.24,-0.16,return,0.21127760002855211,0,6,0.24,-0.16,,,,,,,,,,,,,,,,,,,,,,,,,,,,,A,train_x,x_increasing_steps,top_left,2024-10-29_21h53.21.681,HideSeek_v1,2022.2.5,60.14136829154068,
,0,2,5,2,5,0,66,,train_dim1_1,5,30,2,0,2,0,,,,,,,,,0,0,0,0,0,4,4,4,0,0,0,0,,,,,,,,,,,,,stimuli/alien_stimuli/66.png,,,,,,,,,,,,,,,,,,,,,,,,,,,,,stimuli/alien_stimuli/46.png,46,2,6,,,,,,,30,,,,,,,,119.39222070004325,119.39222070004325,119.39222070004325,119.39222070004325,119.39222070004325,right,1.217381900001783,4,0,0,99,-0.08,-0.24,right,1.0447171999840066,,,,,117.74105360003887,0.24,-0.16,0.0,0.24,-0.16,0.24,0.12,0.24,-0.16,117.2954171000165,117.2954171000165,117.2954171000165,117.2954171000165,117.2954171000165,117.2954171000165,117.2954171000165,117.2954171000165,117.1747122599976,0.6803517999942414,return,0.40105270000640303,,,,,,,A,train_x,x_increasing_steps,top_left,2024-10-29_21h53.21.681,HideSeek_v1,2022.2.5,60.14136829154068,
,0,2,5,2,5,0,66,,train_dim1_1,5,30,2,0,2,0,,,,,,,,,0,0,0,0,0,4,4,4,1,0,1,0,,,,,,,,,,,,,,,,,,,,,,,,,,,,,,,,,,,,,,,,,,,,,,,,,,,,30,,,,,,,,120.56967920000898,120.56967920000898,120.56967920000898,120.56967920000898,120.56967920000898,right,0.3689025999628939,4,0,0,99,0.0,-0.24,right,0.24321590003091842,,,,,,,,,,,,,,,,,,,,,,,,,,,,,,,,,A,train_x,x_increasing_steps,top_left,2024-10-29_21h53.21.681,HideSeek_v1,2022.2.5,60.14136829154068,
,0,2,5,2,5,0,66,,train_dim1_1,5,30,2,0,2,0,,,,,,,,,0,0,0,0,0,4,4,4,2,0,2,0,,,,,,,,,,,,,,,,,,,,,,,,,,,,,,,,,,,,,,,,,,,,,,,,,,,,30,,,,,,,,120.95056420000037,120.95056420000037,120.95056420000037,120.95056420000037,120.95056420000037,right,0.35521569999400526,4,0,0,99,0.08,-0.24,right,0.22091169998748228,,,,,,,,,,,,,,,,,,,,,,,,,,,,,,,,,A,train_x,x_increasing_steps,top_left,2024-10-29_21h53.21.681,HideSeek_v1,2022.2.5,60.14136829154068,
,0,2,5,2,5,0,66,,train_dim1_1,5,30,2,0,2,0,,,,,,,,,0,0,0,0,0,4,4,4,3,0,3,0,,,,,,,,,,,,,,,,,,,,,,,,,,,,,,,,,,,,,,,,,,,,,,,,,,,,30,,,,,,,,121.32201460003853,121.32201460003853,121.32201460003853,121.32201460003853,121.32201460003853,right,0.35301979997893795,4,0,0,99,0.16,-0.24,right,0.2157333999639377,,,,,,,,,,,,,,,,,,,,,,,,,,,,,,,,,A,train_x,x_increasing_steps,top_left,2024-10-29_21h53.21.681,HideSeek_v1,2022.2.5,60.14136829154068,
,0,2,5,2,5,0,66,,train_dim1_1,5,30,2,0,2,0,,,,,,,,,0,0,0,0,0,4,4,4,4,0,4,0,,,,,,,,,,,,,,,,,,,,,,,,,,,,,,,,,,,,,,,,,,,,,,,,,,,,30,,,,,,,,121.68141240003752,121.68141240003752,121.68141240003752,121.68141240003752,121.68141240003752,right,0.3257346999598667,4,0,0,99,0.24,-0.24,right,0.18969470000592992,,,,,,,,,,,,,,,,,,,,,,,,,,,,,,,,,A,train_x,x_increasing_steps,top_left,2024-10-29_21h53.21.681,HideSeek_v1,2022.2.5,60.14136829154068,
,0,2,5,2,5,0,66,,train_dim1_1,5,30,2,0,2,0,,,,,,,,,0,0,0,0,0,4,4,4,5,0,5,0,,,,,,,,,,,,,,,,,,,,,,,,,,,,,,,,,,,,,,,,,,,,,,,,,,,,30,,,,,,,,122.03234299999895,122.03234299999895,122.03234299999895,122.03234299999895,122.03234299999895,return,0.27044409996597096,5,0,0,1,0.24,-0.24,return,0.1411155000096187,0,11,0.24,-0.24,,,,,,,,,,,,,,,,,,,,,,,,,,,,,A,train_x,x_increasing_steps,top_left,2024-10-29_21h53.21.681,HideSeek_v1,2022.2.5,60.14136829154068,
,0,0,1,0,1,0,26,,train_dim1_1,6,30,2,0,2,0,,,,,,,,,0,0,0,0,0,5,5,5,0,0,0,0,,,,,,,,,,,,,stimuli/alien_stimuli/26.png,,,,,,,,,,,,,,,,,,,,,,,,,,,,,stimuli/alien_stimuli/66.png,66,0,7,,,,,,,30,,,,,,,,126.68011290003778,126.68011290003778,126.68011290003778,126.68011290003778,126.68011290003778,right,0.7726202000048943,5,0,0,99,-0.08,-0.4,right,0.6032809999887832,,,,,125.04079100000672,0.24,-0.24,0.0,0.4,-0.24,0.24,0.039999999999999994,0.24,-0.24,123.97089930000948,123.97089930000948,123.97089930000948,123.97089930000948,123.97089930000948,123.97089930000948,123.97089930000948,123.97089930000948,123.87495010002749,1.3086611999897286,return,1.0410906999604777,,,,,,,A,train_x,x_increasing_steps,top_left,2024-10-29_21h53.21.681,HideSeek_v1,2022.2.5,60.14136829154068,
,0,0,1,0,1,0,26,,train_dim1_1,6,30,2,0,2,0,,,,,,,,,0,0,0,0,0,5,5,5,1,0,1,0,,,,,,,,,,,,,,,,,,,,,,,,,,,,,,,,,,,,,,,,,,,,,,,,,,,,30,,,,,,,,127.42194430000382,127.42194430000382,127.42194430000382,127.42194430000382,127.42194430000382,return,0.43098789994837716,6,0,0,1,-0.08,-0.4,return,0.3206184000009671,0,12,-0.08,-0.4,,,,,,,,,,,,,,,,,,,,,,,,,,,,,A,train_x,x_increasing_steps,top_left,2024-10-29_21h53.21.681,HideSeek_v1,2022.2.5,60.14136829154068,
,3,0,8,0,5,0,66,,train_dim1_1,7,30,2,0,2,0,,,,,,,,,0,0,0,0,0,6,6,6,0,0,0,0,,,,,,,,,,,,,stimuli/alien_stimuli/66.png,,,,,,,,,,,,,,,,,,,,,,,,,,,,,stimuli/alien_stimuli/26.png,26,0,8,,,,,,,30,,,,,,,,132.03552790003596,132.03552790003596,132.03552790003596,132.03552790003596,132.03552790003596,right,0.832519699994009,6,0,0,99,0.16,-0.4,right,0.655598099983763,,,,,130.39121460000752,-0.08,-0.4,0.0,0.08,-0.4,-0.08,-0.12,-0.08,-0.4,129.60198390000733,129.60198390000733,129.60198390000733,129.60198390000733,129.60198390000733,129.60198390000733,129.60198390000733,129.60198390000733,129.44160090002697,1.1041678000474349,return,0.7548822000389919,132.03552790003596,,,,,,A,train_x,x_increasing_steps,top_left,2024-10-29_21h53.21.681,HideSeek_v1,2022.2.5,60.14136829154068,
,3,0,8,0,5,0,66,,train_dim1_1,7,30,2,0,2,0,,,,,,,,,0,0,0,0,0,6,6,6,1,0,1,0,,,,,,,,,,,,,,,,,,,,,,,,,,,,,,,,,,,,,,,,,,,,,,,,,,,,30,,,,,,,,132.85071280004922,132.85071280004922,132.85071280004922,132.85071280004922,132.85071280004922,right,0.20482679997803643,6,0,0,99,0.24,-0.4,right,0.07573300000512972,,,,,,,,,,,,,,,,,,,,,,,,,,,,,,,,,A,train_x,x_increasing_steps,top_left,2024-10-29_21h53.21.681,HideSeek_v1,2022.2.5,60.14136829154068,
,3,0,8,0,5,0,66,,train_dim1_1,7,30,2,0,2,0,,,,,,,,,0,0,0,0,0,6,6,6,2,0,2,0,,,,,,,,,,,,,,,,,,,,,,,,,,,,,,,,,,,,,,,,,,,,,,,,,,,,30,,,,,,,,133.05305450002197,133.05305450002197,133.05305450002197,133.05305450002197,133.05305450002197,right,0.2244730000384152,6,0,0,99,0.32,-0.4,right,0.0931113000260666,,,,,,,,,,,,,,,,,,,,,,,,,,,,,,,,,A,train_x,x_increasing_steps,top_left,2024-10-29_21h53.21.681,HideSeek_v1,2022.2.5,60.14136829154068,
,3,0,8,0,5,0,66,,train_dim1_1,7,30,2,0,2,0,,,,,,,,,0,0,0,0,0,6,6,6,3,0,3,0,,,,,,,,,,,,,,,,,,,,,,,,,,,,,,,,,,,,,,,,,,,,,,,,,,,,30,,,,,,,,133.2923093000427,133.2923093000427,133.2923093000427,133.2923093000427,133.2923093000427,right,0.21899470000062138,6,0,0,99,0.4,-0.4,right,0.07080909999785945,,,,,,,,,,,,,,,,,,,,,,,,,,,,,,,,,A,train_x,x_increasing_steps,top_left,2024-10-29_21h53.21.681,HideSeek_v1,2022.2.5,60.14136829154068,
,3,0,8,0,5,0,66,,train_dim1_1,7,30,2,0,2,0,,,,,,,,,0,0,0,0,0,6,6,6,4,0,4,0,,,,,,,,,,,,,,,,,,,,,,,,,,,,,,,,,,,,,,,,,,,,,,,,,,,,30,,,,,,,,133.53271420003148,133.53271420003148,133.53271420003148,133.53271420003148,133.53271420003148,right,0.20327080000424758,6,0,0,99,0.48000000000000004,-0.4,right,0.07125659997109324,,,,,,,,,,,,,,,,,,,,,,,,,,,,,,,,,A,train_x,x_increasing_steps,top_left,2024-10-29_21h53.21.681,HideSeek_v1,2022.2.5,60.14136829154068,
,3,0,8,0,5,0,66,,train_dim1_1,7,30,2,0,2,0,,,,,,,,,0,0,0,0,0,6,6,6,5,0,5,0,,,,,,,,,,,,,,,,,,,,,,,,,,,,,,,,,,,,,,,,,,,,,,,,,,,,30,,,,,,,,133.73617150000064,133.73617150000064,133.73617150000064,133.73617150000064,133.73617150000064,return,0.3515118000213988,7,0,0,1,0.48000000000000004,-0.4,return,0.2078759999712929,0,17,0.48000000000000004,-0.4,,,,,,,,,,,,,,,,,,,,,,,,,,,,,A,train_x,x_increasing_steps,top_left,2024-10-29_21h53.21.681,HideSeek_v1,2022.2.5,60.14136829154068,
,0,4,2,4,2,0,36,,train_dim1_1,8,30,2,0,2,0,,,,,,,,,0,0,0,0,0,7,7,7,0,0,0,0,,,,,,,,,,,,,stimuli/alien_stimuli/36.png,,,,,,,,,,,,,,,,,,,,,,,,,,,,,stimuli/alien_stimuli/66.png,66,3,9,,,,,,,30,,,,,,,,137.8889270000509,137.8889270000509,137.8889270000509,137.8889270000509,137.8889270000509,right,1.383110900002066,7,0,0,99,-0.08,-0.08,right,1.1864733999827877,,,,,136.20789950003382,0.48,-0.4,0.0,0.4,-0.4,0.48,0.27999999999999997,0.48,-0.4,135.79179370001657,135.79179370001657,135.79179370001657,135.79179370001657,135.79179370001657,135.79179370001657,135.79179370001657,135.79179370001657,135.67473820003215,0.6736177999991924,return,0.3552961999666877,,,,,,,A,train_x,x_increasing_steps,top_left,2024-10-29_21h53.21.681,HideSeek_v1,2022.2.5,60.14136829154068,
,0,4,2,4,2,0,36,,train_dim1_1,8,30,2,0,2,0,,,,,,,,,0,0,0,0,0,7,7,7,1,0,1,0,,,,,,,,,,,,,,,,,,,,,,,,,,,,,,,,,,,,,,,,,,,,,,,,,,,,30,,,,,,,,139.20278500003042,139.20278500003042,139.20278500003042,139.20278500003042,139.20278500003042,right,0.3856610000366345,7,0,0,99,0.0,-0.08,right,0.24928129999898374,,,,,,,,,,,,,,,,,,,,,,,,,,,,,,,,,A,train_x,x_increasing_steps,top_left,2024-10-29_21h53.21.681,HideSeek_v1,2022.2.5,60.14136829154068,
,0,4,2,4,2,0,36,,train_dim1_1,8,30,2,0,2,0,,,,,,,,,0,0,0,0,0,7,7,7,2,0,2,0,,,,,,,,,,,,,,,,,,,,,,,,,,,,,,,,,,,,,,,,,,,,,,,,,,,,30,,,,,,,,139.59967030002736,139.59967030002736,139.59967030002736,139.59967030002736,139.59967030002736,return,0.2730813999660313,8,0,0,1,0.0,-0.08,return,0.14546649996191263,0,19,0.0,-0.08,,,,,,,,,,,,,,,,,,,,,,,,,,,,,A,train_x,x_increasing_steps,top_left,2024-10-29_21h53.21.681,HideSeek_v1,2022.2.5,60.14136829154068,
,1,0,4,0,3,0,46,,train_dim1_1,9,30,2,0,2,0,,,,,,,,,0,0,0,0,0,8,8,8,0,0,0,0,,,,,,,,,,,,,stimuli/alien_stimuli/46.png,,,,,,,,,,,,,,,,,,,,,,,,,,,,,stimuli/alien_stimuli/36.png,36,0,10,,,,,,,30,,,,,,,,143.72030580003047,143.72030580003047,143.72030580003047,143.72030580003047,143.72030580003047,right,0.572118500014767,8,0,0,99,0.0,-0.4,right,0.4201883000205271,,,,,142.09087830001954,0,-0.08,0.0,0.16,-0.08,0,-0.08,0,-0.08,141.5583226000308,141.5583226000308,141.5583226000308,141.5583226000308,141.5583226000308,141.5583226000308,141.5583226000308,141.5583226000308,141.4418454300205,0.772054200002458,return,0.493697699974291,,,,,,,A,train_x,x_increasing_steps,top_left,2024-10-29_21h53.21.681,HideSeek_v1,2022.2.5,60.14136829154068,
,1,0,4,0,3,0,46,,train_dim1_1,9,30,2,0,2,0,,,,,,,,,0,0,0,0,0,8,8,8,1,0,1,0,,,,,,,,,,,,,,,,,,,,,,,,,,,,,,,,,,,,,,,,,,,,,,,,,,,,30,,,,,,,,144.26335040002596,144.26335040002596,144.26335040002596,144.26335040002596,144.26335040002596,right,0.4816416999674402,8,0,0,99,0.08,-0.4,right,0.36383719998411834,,,,,,,,,,,,,,,,,,,,,,,,,,,,,,,,,A,train_x,x_increasing_steps,top_left,2024-10-29_21h53.21.681,HideSeek_v1,2022.2.5,60.14136829154068,
,1,0,4,0,3,0,46,,train_dim1_1,9,30,2,0,2,0,,,,,,,,,0,0,0,0,0,8,8,8,2,0,2,0,,,,,,,,,,,,,,,,,,,,,,,,,,,,,,,,,,,,,,,,,,,,,,,,,,,,30,,,,,,,,144.76171060005436,144.76171060005436,144.76171060005436,144.76171060005436,144.76171060005436,right,0.9022043000441045,8,0,0,99,0.16,-0.4,right,0.765675300033763,,,,,,,,,,,,,,,,,,,,,,,,,,,,,,,,,A,train_x,x_increasing_steps,top_left,2024-10-29_21h53.21.681,HideSeek_v1,2022.2.5,60.14136829154068,
,1,0,4,0,3,0,46,,train_dim1_1,9,30,2,0,2,0,,,,,,,,,0,0,0,0,0,8,8,8,3,0,3,0,,,,,,,,,,,,,,,,,,,,,,,,,,,,,,,,,,,,,,,,,,,,,,,,,,,,30,,,,,,,,145.6751044000266,145.6751044000266,145.6751044000266,145.6751044000266,145.6751044000266,return,0.35443070001201704,9,0,0,1,0.16,-0.4,return,0.2458037000033073,0,22,0.16,-0.4,,,,,,,,,,,,,,,,,,,,,,,,,,,,,A,train_x,x_increasing_steps,top_left,2024-10-29_21h53.21.681,HideSeek_v1,2022.2.5,60.14136829154068,
,0,3,0,3,0,0,16,,train_dim1_1,10,30,2,0,2,0,,,,,,,,,0,0,0,0,0,9,9,9,0,0,0,0,,,,,,,,,,,,,stimuli/alien_stimuli/16.png,,,,,,,,,,,,,,,,,,,,,,,,,,,,,stimuli/alien_stimuli/46.png,46,1,11,,,,,,,30,,,,,,,,149.65891610004473,149.65891610004473,149.65891610004473,149.65891610004473,149.65891610004473,return,1.1996717999572866,10,0,0,1,-0.16,-0.16,return,1.0206009999965318,0,22,-0.16,-0.16,148.01020350004546,0.16,-0.4,0.0,0.24,-0.4,0.16,0.04,0.16,-0.4,147.69203880004352,147.69203880004352,147.69203880004352,147.69203880004352,147.69203880004352,147.69203880004352,147.69203880004352,147.69203880004352,147.60806213000907,0.5377904999768361,return,0.2713516000076197,,,,,,,A,train_x,x_increasing_steps,top_left,2024-10-29_21h53.21.681,HideSeek_v1,2022.2.5,60.14136829154068,
,2,2,4,2,2,0,36,,train_dim1_1,11,30,2,0,2,0,,,,,,,,,0,0,0,0,0,10,10,10,0,0,0,0,,,,,,,,,,,,,stimuli/alien_stimuli/36.png,,,,,,,,,,,,,,,,,,,,,,,,,,,,,stimuli/alien_stimuli/16.png,16,0,12,,,,,,,30,,,,,,,,154.79143520002253,154.79143520002253,154.79143520002253,154.79143520002253,154.79143520002253,right,0.7333172999788076,10,0,0,99,0.08,-0.24,right,0.5561736000236124,,,,,153.13353970000753,-0.16,-0.16,0.0,0.0,-0.16,-0.16,-0.16,-0.16,-0.16,152.63776360003976,152.63776360003976,152.63776360003976,152.63776360003976,152.63776360003976,152.63776360003976,152.63776360003976,152.63776360003976,152.44149784001058,0.8721573000075296,return,0.46835390001069754,,,,,,,A,train_x,x_increasing_steps,top_left,2024-10-29_21h53.21.681,HideSeek_v1,2022.2.5,60.14136829154068,
,2,2,4,2,2,0,36,,train_dim1_1,11,30,2,0,2,0,,,,,,,,,0,0,0,0,0,10,10,10,1,0,1,0,,,,,,,,,,,,,,,,,,,,,,,,,,,,,,,,,,,,,,,,,,,,,,,,,,,,30,,,,,,,,155.4808703000308,155.4808703000308,155.4808703000308,155.4808703000308,155.4808703000308,right,0.406180799996946,10,0,0,99,0.16,-0.24,right,0.2969646999845281,,,,,,,,,,,,,,,,,,,,,,,,,,,,,,,,,A,train_x,x_increasing_steps,top_left,2024-10-29_21h53.21.681,HideSeek_v1,2022.2.5,60.14136829154068,
,2,2,4,2,2,0,36,,train_dim1_1,11,30,2,0,2,0,,,,,,,,,0,0,0,0,0,10,10,10,2,0,2,0,,,,,,,,,,,,,,,,,,,,,,,,,,,,,,,,,,,,,,,,,,,,,,,,,,,,30,,,,,,,,155.90121989999898,155.90121989999898,155.90121989999898,155.90121989999898,155.90121989999898,return,0.30704149999655783,11,0,0,1,0.16,-0.24,return,0.19147040002280846,0,24,0.16,-0.24,,,,,,,,,,,,,,,,,,,,,,,,,,,,,A,train_x,x_increasing_steps,top_left,2024-10-29_21h53.21.681,HideSeek_v1,2022.2.5,60.14136829154068,
,0,0,1,0,1,0,26,,train_dim1_1,12,30,2,0,2,0,,,,,,,,,0,0,0,0,0,11,11,11,0,0,0,0,,,,,,,,,,,,,stimuli/alien_stimuli/26.png,,,,,,,,,,,,,,,,,,,,,,,,,,,,,stimuli/alien_stimuli/36.png,36,2,13,,,,,,,30,,,,,,,,160.00391190004302,160.00391190004302,160.00391190004302,160.00391190004302,160.00391190004302,right,0.5650802000309341,11,0,0,99,-0.08,-0.4,right,0.3990189000032842,,,,,158.35741990001407,0.16,-0.24,0.0,0.16,-0.24,0.16,0.08,0.16,-0.24,157.90547080000397,157.90547080000397,157.90547080000397,157.90547080000397,157.90547080000397,157.90547080000397,157.90547080000397,157.90547080000397,157.79134540003724,0.7076225000200793,return,0.4151715000043623,,,,,,,A,train_x,x_increasing_steps,top_left,2024-10-29_21h53.21.681,HideSeek_v1,2022.2.5,60.14136829154068,
,0,0,1,0,1,0,26,,train_dim1_1,12,30,2,0,2,0,,,,,,,,,0,0,0,0,0,11,11,11,1,0,1,0,,,,,,,,,,,,,,,,,,,,,,,,,,,,,,,,,,,,,,,,,,,,,,,,,,,,30,,,,,,,,160.5413949000067,160.5413949000067,160.5413949000067,160.5413949000067,160.5413949000067,return,0.5214016999816522,12,0,0,1,-0.08,-0.4,return,0.3990135999629274,0,25,-0.08,-0.4,,,,,,,,,,,,,,,,,,,,,,,,,,,,,A,train_x,x_increasing_steps,top_left,2024-10-29_21h53.21.681,HideSeek_v1,2022.2.5,60.14136829154068,
,0,4,3,4,3,0,46,,train_dim1_1,13,30,2,0,2,0,,,,,,,,,0,0,0,0,0,12,12,12,0,0,0,0,,,,,,,,,,,,,stimuli/alien_stimuli/46.png,,,,,,,,,,,,,,,,,,,,,,,,,,,,,stimuli/alien_stimuli/26.png,26,0,14,,,,,,,30,,,,,,,,165.06387000001268,165.06387000001268,165.06387000001268,165.06387000001268,165.06387000001268,right,0.9380227000219747,12,0,0,99,-0.08,-0.08,right,0.7692468999885023,,,,,163.42402050003875,-0.08,-0.4,0.0,0.08,-0.4,-0.08,-0.12,-0.08,-0.4,162.74453240004368,162.74453240004368,162.74453240004368,162.74453240004368,162.74453240004368,162.74453240004368,162.74453240004368,162.74453240004368,162.6419075000449,0.9238882000208832,return,0.6403652000008151,,,,,,,A,train_x,x_increasing_steps,top_left,2024-10-29_21h53.21.681,HideSeek_v1,2022.2.5,60.14136829154068,
,0,4,3,4,3,0,46,,train_dim1_1,13,30,2,0,2,0,,,,,,,,,0,0,0,0,0,12,12,12,1,0,1,0,,,,,,,,,,,,,,,,,,,,,,,,,,,,,,,,,,,,,,,,,,,,,,,,,,,,30,,,,,,,,165.96864380000625,165.96864380000625,165.96864380000625,165.96864380000625,165.96864380000625,right,0.44730559998424724,12,0,0,99,0.0,-0.08,right,0.3273018999607302,,,,,,,,,,,,,,,,,,,,,,,,,,,,,,,,,A,train_x,x_increasing_steps,top_left,2024-10-29_21h53.21.681,HideSeek_v1,2022.2.5,60.14136829154068,
,0,4,3,4,3,0,46,,train_dim1_1,13,30,2,0,2,0,,,,,,,,,0,0,0,0,0,12,12,12,2,0,2,0,,,,,,,,,,,,,,,,,,,,,,,,,,,,,,,,,,,,,,,,,,,,,,,,,,,,30,,,,,,,,166.4244522000081,166.4244522000081,166.4244522000081,166.4244522000081,166.4244522000081,right,0.7719250000081956,12,0,0,99,0.08,-0.08,right,0.6592726000235416,,,,,,,,,,,,,,,,,,,,,,,,,,,,,,,,,A,train_x,x_increasing_steps,top_left,2024-10-29_21h53.21.681,HideSeek_v1,2022.2.5,60.14136829154068,
,0,4,3,4,3,0,46,,train_dim1_1,13,30,2,0,2,0,,,,,,,,,0,0,0,0,0,12,12,12,3,0,3,0,,,,,,,,,,,,,,,,,,,,,,,,,,,,,,,,,,,,,,,,,,,,,,,,,,,,30,,,,,,,,167.21113810001407,167.21113810001407,167.21113810001407,167.21113810001407,167.21113810001407,return,0.2887322000460699,13,0,0,1,0.08,-0.08,return,0.17286449996754527,0,28,0.08,-0.08,,,,,,,,,,,,,,,,,,,,,,,,,,,,,A,train_x,x_increasing_steps,top_left,2024-10-29_21h53.21.681,HideSeek_v1,2022.2.5,60.14136829154068,
,4,3,4,3,0,0,16,,train_dim1_1,14,30,2,0,2,0,,,,,,,,,0,0,0,0,0,13,13,13,0,0,0,0,,,,,,,,,,,,,stimuli/alien_stimuli/16.png,,,,,,,,,,,,,,,,,,,,,,,,,,,,,stimuli/alien_stimuli/46.png,46,0,15,,,,,,,30,,,,,,,,171.23071960004745,171.23071960004745,171.23071960004745,171.23071960004745,171.23071960004745,return,1.01655539998319,14,0,0,1,0.16,-0.16,return,0.8319876000168733,0,28,0.16,-0.16,169.57632230001036,0.08,-0.08,0.0,0.24,-0.08,0.08,-0.04,0.08,-0.08,169.1801985000493,169.1801985000493,169.1801985000493,169.1801985000493,169.1801985000493,169.1801985000493,169.1801985000493,169.1801985000493,169.07476793004318,0.6382743999711238,return,0.36216700001386926,,,,,,,A,train_x,x_increasing_steps,top_left,2024-10-29_21h53.21.681,HideSeek_v1,2022.2.5,60.14136829154068,
,4,2,9,2,5,0,66,,train_dim1_1,15,30,2,0,2,0,,,,,,,,,0,0,0,0,0,14,14,14,0,0,0,0,,,,,,,,,,,,,stimuli/alien_stimuli/66.png,,,,,,,,,,,,,,,,,,,,,,,,,,,,,stimuli/alien_stimuli/16.png,16,4,16,,,,,,,30,,,,,,,,176.12784400000237,176.12784400000237,176.12784400000237,176.12784400000237,176.12784400000237,right,0.6651166999945417,14,0,0,99,0.24,-0.24,right,0.46522959996946156,,,,,174.45956570003182,0.16,-0.16,0.0,0.0,-0.16,0.16,0.16,0.16,-0.16,173.89159430004656,173.89159430004656,173.89159430004656,173.89159430004656,173.89159430004656,173.89159430004656,173.89159430004656,173.89159430004656,173.7913344000117,0.8218595999642275,return,0.5408645999850705,,,,,,,A,train_x,x_increasing_steps,top_left,2024-10-29_21h53.21.681,HideSeek_v1,2022.2.5,60.14136829154068,
,4,2,9,2,5,0,66,,train_dim1_1,15,30,2,0,2,0,,,,,,,,,0,0,0,0,0,14,14,14,1,0,1,0,,,,,,,,,,,,,,,,,,,,,,,,,,,,,,,,,,,,,,,,,,,,,,,,,,,,30,,,,,,,,176.75744810001925,176.75744810001925,176.75744810001925,176.75744810001925,176.75744810001925,right,0.27206839999416843,14,0,0,99,0.32,-0.24,right,0.13936890003969893,,,,,,,,,,,,,,,,,,,,,,,,,,,,,,,,,A,train_x,x_increasing_steps,top_left,2024-10-29_21h53.21.681,HideSeek_v1,2022.2.5,60.14136829154068,
,4,2,9,2,5,0,66,,train_dim1_1,15,30,2,0,2,0,,,,,,,,,0,0,0,0,0,14,14,14,2,0,2,0,,,,,,,,,,,,,,,,,,,,,,,,,,,,,,,,,,,,,,,,,,,,,,,,,,,,30,,,,,,,,177.04119060002267,177.04119060002267,177.04119060002267,177.04119060002267,177.04119060002267,right,0.32224790001055226,14,0,0,99,0.4,-0.24,right,0.19473950000246987,,,,,,,,,,,,,,,,,,,,,,,,,,,,,,,,,A,train_x,x_increasing_steps,top_left,2024-10-29_21h53.21.681,HideSeek_v1,2022.2.5,60.14136829154068,
,4,2,9,2,5,0,66,,train_dim1_1,15,30,2,0,2,0,,,,,,,,,0,0,0,0,0,14,14,14,3,0,3,0,,,,,,,,,,,,,,,,,,,,,,,,,,,,,,,,,,,,,,,,,,,,,,,,,,,,30,,,,,,,,177.3719227000256,177.3719227000256,177.3719227000256,177.3719227000256,177.3719227000256,right,0.3522334999870509,14,0,0,99,0.48000000000000004,-0.24,right,0.20611600001575425,,,,,,,,,,,,,,,,,,,,,,,,,,,,,,,,,A,train_x,x_increasing_steps,top_left,2024-10-29_21h53.21.681,HideSeek_v1,2022.2.5,60.14136829154068,
,4,2,9,2,5,0,66,,train_dim1_1,15,30,2,0,2,0,,,,,,,,,0,0,0,0,0,14,14,14,4,0,4,0,,,,,,,,,,,,,,,,,,,,,,,,,,,,,,,,,,,,,,,,,,,,,,,,,,,,30,,,,,,,,177.73737370001618,177.73737370001618,177.73737370001618,177.73737370001618,177.73737370001618,right,0.30645939998794347,14,0,0,99,0.56,-0.24,right,0.18793140002526343,,,,,,,,,,,,,,,,,,,,,,,,,,,,,,,,,A,train_x,x_increasing_steps,top_left,2024-10-29_21h53.21.681,HideSeek_v1,2022.2.5,60.14136829154068,
,4,2,9,2,5,0,66,,train_dim1_1,15,30,2,0,2,0,,,,,,,,,0,0,0,0,0,14,14,14,5,0,5,0,,,,,,,,,,,,,,,,,,,,,,,,,,,,,,,,,,,,,,,,,,,,,,,,,,,,30,,,,,,,,178.05777170002693,178.05777170002693,178.05777170002693,178.05777170002693,178.05777170002693,return,0.3211635000188835,15,0,0,1,0.56,-0.24,return,0.17235989996697754,0,33,0.56,-0.24,,,,,,,,,,,,,,,,,,,,,,,,,,,,,A,train_x,x_increasing_steps,top_left,2024-10-29_21h53.21.681,HideSeek_v1,2022.2.5,60.14136829154068,
,3,3,6,3,3,0,46,,train_dim1_1,16,30,2,0,2,0,,,,,,,,,0,0,0,0,0,15,15,15,0,0,0,0,,,,,,,,,,,,,stimuli/alien_stimuli/46.png,,,,,,,,,,,,,,,,,,,,,,,,,,,,,stimuli/alien_stimuli/66.png,66,4,17,,,,,,,30,,,,,,,,182.89622270001564,182.89622270001564,182.89622270001564,182.89622270001564,182.89622270001564,right,1.115358799987007,15,0,0,99,0.16,-0.16,right,0.9550565000390634,,,,,181.2580172000453,0.56,-0.24,0.0,0.4,-0.24,0.56,0.36000000000000004,0.56,-0.24,180.11346090002917,180.11346090002917,180.11346090002917,180.11346090002917,180.11346090002917,180.11346090002917,180.11346090002917,180.11346090002917,180.0084227100073,1.453988300054334,return,1.106809200020507,182.89622270001564,,,,,,A,train_x,x_increasing_steps,top_left,2024-10-29_21h53.21.681,HideSeek_v1,2022.2.5,60.14136829154068,
,3,3,6,3,3,0,46,,train_dim1_1,16,30,2,0,2,0,,,,,,,,,0,0,0,0,0,15,15,15,1,0,1,0,,,,,,,,,,,,,,,,,,,,,,,,,,,,,,,,,,,,,,,,,,,,,,,,,,,,30,,,,,,,,183.97607880004216,183.97607880004216,183.97607880004216,183.97607880004216,183.97607880004216,right,1.154851500003133,15,0,0,99,0.24,-0.16,right,1.0374195000040345,,,,,,,,,,,,,,,,,,,,,,,,,,,,,,,,,A,train_x,x_increasing_steps,top_left,2024-10-29_21h53.21.681,HideSeek_v1,2022.2.5,60.14136829154068,
,3,3,6,3,3,0,46,,train_dim1_1,16,30,2,0,2,0,,,,,,,,,0,0,0,0,0,15,15,15,2,0,2,0,,,,,,,,,,,,,,,,,,,,,,,,,,,,,,,,,,,,,,,,,,,,,,,,,,,,30,,,,,,,,185.14713880000636,185.14713880000636,185.14713880000636,185.14713880000636,185.14713880000636,right,0.37014360004104674,15,0,0,99,0.32,-0.16,right,0.2574330000206828,,,,,,,,,,,,,,,,,,,,,,,,,,,,,,,,,A,train_x,x_increasing_steps,top_left,2024-10-29_21h53.21.681,HideSeek_v1,2022.2.5,60.14136829154068,
,3,3,6,3,3,0,46,,train_dim1_1,16,30,2,0,2,0,,,,,,,,,0,0,0,0,0,15,15,15,3,0,3,0,,,,,,,,,,,,,,,,,,,,,,,,,,,,,,,,,,,,,,,,,,,,,,,,,,,,30,,,,,,,,185.52563119999832,185.52563119999832,185.52563119999832,185.52563119999832,185.52563119999832,return,0.3874352999846451,16,0,0,1,0.32,-0.16,return,0.27281689998926595,0,36,0.32,-0.16,,,,,,,,,,,,,,,,,,,,,,,,,,,,,A,train_x,x_increasing_steps,top_left,2024-10-29_21h53.21.681,HideSeek_v1,2022.2.5,60.14136829154068,
,2,4,3,4,1,0,26,,train_dim1_1,17,30,2,0,2,0,,,,,,,,,0,0,0,0,0,16,16,16,0,0,0,0,,,,,,,,,,,,,stimuli/alien_stimuli/26.png,,,,,,,,,,,,,,,,,,,,,,,,,,,,,stimuli/alien_stimuli/46.png,46,3,18,,,,,,,30,,,,,,,,192.0620589000173,192.0620589000173,192.0620589000173,192.0620589000173,192.0620589000173,right,2.18223959999159,16,0,0,99,0.08,-0.08,right,2.022358200047165,,,,,190.42417190002743,0.32,-0.16,0.0,0.24,-0.16,0.32,0.2,0.32,-0.16,187.592113300052,187.592113300052,187.592113300052,187.592113300052,187.592113300052,187.592113300052,187.592113300052,187.592113300052,187.4911190300074,3.0562226999900304,return,2.7915811999700963,,,,,,,A,train_x,x_increasing_steps,top_left,2024-10-29_21h53.21.681,HideSeek_v1,2022.2.5,60.14136829154068,
,2,4,3,4,1,0,26,,train_dim1_1,17,30,2,0,2,0,,,,,,,,,0,0,0,0,0,16,16,16,1,0,1,0,,,,,,,,,,,,,,,,,,,,,,,,,,,,,,,,,,,,,,,,,,,,,,,,,,,,30,,,,,,,,194.2133905000519,194.2133905000519,194.2133905000519,194.2133905000519,194.2133905000519,return,0.4211464000400156,17,0,0,1,0.08,-0.08,return,0.29647199995815754,0,37,0.08,-0.08,,,,,,,,,,,,,,,,,,,,,,,,,,,,,A,train_x,x_increasing_steps,top_left,2024-10-29_21h53.21.681,HideSeek_v1,2022.2.5,60.14136829154068,
,2,1,7,1,5,0,66,,train_dim1_1,18,30,2,0,2,0,,,,,,,,,0,0,0,0,0,17,17,17,0,0,0,0,,,,,,,,,,,,,stimuli/alien_stimuli/66.png,,,,,,,,,,,,,,,,,,,,,,,,,,,,,stimuli/alien_stimuli/26.png,26,2,19,,,,,,,30,,,,,,,,198.79086460004328,198.79086460004328,198.79086460004328,198.79086460004328,198.79086460004328,right,1.2001539000193588,17,0,0,99,0.08,-0.32,right,0.9866845000069588,,,,,197.12326740002027,0.08,-0.08,0.0,0.08,-0.08,0.08,0.04,0.08,-0.08,196.32539940002607,196.32539940002607,196.32539940002607,196.32539940002607,196.32539940002607,196.32539940002607,196.32539940002607,196.32539940002607,196.22420039999997,1.0416333999601193,return,0.7615963999996893,,,,,,,A,train_x,x_increasing_steps,top_left,2024-10-29_21h53.21.681,HideSeek_v1,2022.2.5,60.14136829154068,
,2,1,7,1,5,0,66,,train_dim1_1,18,30,2,0,2,0,,,,,,,,,0,0,0,0,0,17,17,17,1,0,1,0,,,,,,,,,,,,,,,,,,,,,,,,,,,,,,,,,,,,,,,,,,,,,,,,,,,,30,,,,,,,,199.93615560000762,199.93615560000762,199.93615560000762,199.93615560000762,199.93615560000762,right,0.3041788999689743,17,0,0,99,0.16,-0.32,right,0.18584699998609722,,,,,,,,,,,,,,,,,,,,,,,,,,,,,,,,,A,train_x,x_increasing_steps,top_left,2024-10-29_21h53.21.681,HideSeek_v1,2022.2.5,60.14136829154068,
,2,1,7,1,5,0,66,,train_dim1_1,18,30,2,0,2,0,,,,,,,,,0,0,0,0,0,17,17,17,2,0,2,0,,,,,,,,,,,,,,,,,,,,,,,,,,,,,,,,,,,,,,,,,,,,,,,,,,,,30,,,,,,,,200.2518300000229,200.2518300000229,200.2518300000229,200.2518300000229,200.2518300000229,right,0.3536162999807857,17,0,0,99,0.24,-0.32,right,0.23800199996912852,,,,,,,,,,,,,,,,,,,,,,,,,,,,,,,,,A,train_x,x_increasing_steps,top_left,2024-10-29_21h53.21.681,HideSeek_v1,2022.2.5,60.14136829154068,
,2,1,7,1,5,0,66,,train_dim1_1,18,30,2,0,2,0,,,,,,,,,0,0,0,0,0,17,17,17,3,0,3,0,,,,,,,,,,,,,,,,,,,,,,,,,,,,,,,,,,,,,,,,,,,,,,,,,,,,30,,,,,,,,200.62121450004634,200.62121450004634,200.62121450004634,200.62121450004634,200.62121450004634,right,0.33814850001363084,17,0,0,99,0.32,-0.32,right,0.20950639998773113,,,,,,,,,,,,,,,,,,,,,,,,,,,,,,,,,A,train_x,x_increasing_steps,top_left,2024-10-29_21h53.21.681,HideSeek_v1,2022.2.5,60.14136829154068,
,2,1,7,1,5,0,66,,train_dim1_1,18,30,2,0,2,0,,,,,,,,,0,0,0,0,0,17,17,17,4,0,4,0,,,,,,,,,,,,,,,,,,,,,,,,,,,,,,,,,,,,,,,,,,,,,,,,,,,,30,,,,,,,,200.96757530001923,200.96757530001923,200.96757530001923,200.96757530001923,200.96757530001923,right,0.3207545000477694,17,0,0,99,0.4,-0.32,right,0.1913945999694988,,,,,,,,,,,,,,,,,,,,,,,,,,,,,,,,,A,train_x,x_increasing_steps,top_left,2024-10-29_21h53.21.681,HideSeek_v1,2022.2.5,60.14136829154068,
,2,1,7,1,5,0,66,,train_dim1_1,18,30,2,0,2,0,,,,,,,,,0,0,0,0,0,17,17,17,5,0,5,0,,,,,,,,,,,,,,,,,,,,,,,,,,,,,,,,,,,,,,,,,,,,,,,,,,,,30,,,,,,,,201.30333910003537,201.30333910003537,201.30333910003537,201.30333910003537,201.30333910003537,return,2.087069699948188,18,0,0,1,0.4,-0.32,return,1.9396063999738544,0,42,0.4,-0.32,,,,,,,,,,,,,,,,,,,,,,,,,,,,,A,train_x,x_increasing_steps,top_left,2024-10-29_21h53.21.681,HideSeek_v1,2022.2.5,60.14136829154068,
,0,3,2,3,2,0,36,,train_dim1_1,19,30,2,0,2,0,,,,,,,,,0,0,0,0,0,18,18,18,0,0,0,0,,,,,,,,,,,,,stimuli/alien_stimuli/36.png,,,,,,,,,,,,,,,,,,,,,,,,,,,,,stimuli/alien_stimuli/66.png,66,2,20,,,,,,,30,,,,,,,,207.54894960002275,207.54894960002275,207.54894960002275,207.54894960002275,207.54894960002275,right,1.0155787999974564,18,0,0,99,-0.08,-0.16,right,0.8193161999806762,,,,,205.8899541000137,0.4,-0.32,0.0,0.4,-0.32,0.4,0.2,0.4,-0.32,205.09048190002795,205.09048190002795,205.09048190002795,205.09048190002795,205.09048190002795,205.09048190002795,205.09048190002795,205.09048190002795,204.9579834000324,1.0733111000154167,return,0.7635426999768242,205.09048190002795,,,,,,A,train_x,x_increasing_steps,top_left,2024-10-29_21h53.21.681,HideSeek_v1,2022.2.5,60.14136829154068,
,0,3,2,3,2,0,36,,train_dim1_1,19,30,2,0,2,0,,,,,,,,,0,0,0,0,0,18,18,18,1,0,1,0,,,,,,,,,,,,,,,,,,,,,,,,,,,,,,,,,,,,,,,,,,,,,,,,,,,,30,,,,,,,,208.52159880002728,208.52159880002728,208.52159880002728,208.52159880002728,208.52159880002728,right,0.6221066999714822,18,0,0,99,0.0,-0.16,right,0.5031941999914125,,,,,,,,,,,,,,,,,,,,,,,,,,,,,,,,,A,train_x,x_increasing_steps,top_left,2024-10-29_21h53.21.681,HideSeek_v1,2022.2.5,60.14136829154068,
,0,3,2,3,2,0,36,,train_dim1_1,19,30,2,0,2,0,,,,,,,,,0,0,0,0,0,18,18,18,2,0,2,0,,,,,,,,,,,,,,,,,,,,,,,,,,,,,,,,,,,,,,,,,,,,,,,,,,,,30,,,,,,,,209.15045760001522,209.15045760001522,209.15045760001522,209.15045760001522,209.15045760001522,return,0.335868299996946,19,0,0,1,0.0,-0.16,return,0.2130580999655649,0,44,0.0,-0.16,,,,,,,,,,,,,,,,,,,,,,,,,,,,,A,train_x,x_increasing_steps,top_left,2024-10-29_21h53.21.681,HideSeek_v1,2022.2.5,60.14136829154068,
,0,1,0,1,0,0,16,,train_dim1_1,20,30,2,0,2,0,,,,,,,,,0,0,0,0,0,19,19,19,0,0,0,0,,,,,,,,,,,,,stimuli/alien_stimuli/16.png,,,,,,,,,,,,,,,,,,,,,,,,,,,,,stimuli/alien_stimuli/36.png,36,0,21,,,,,,,30,,,,,,,,214.4300694000558,214.4300694000558,214.4300694000558,214.4300694000558,214.4300694000558,right,0.6843884999980219,19,0,0,99,-0.08,-0.32,right,0.5062233999487944,,,,,212.77330960001564,0,-0.16,0.0,0.16,-0.16,0,-0.08,0,-0.16,211.2008120000246,211.2008120000246,211.2008120000246,211.2008120000246,211.2008120000246,211.2008120000246,211.2008120000246,211.2008120000246,211.07393499999307,1.8460388000239618,return,1.5347459000186063,,,,,,,A,train_x,x_increasing_steps,top_left,2024-10-29_21h53.21.681,HideSeek_v1,2022.2.5,60.14136829154068,
,0,1,0,1,0,0,16,,train_dim1_1,20,30,2,0,2,0,,,,,,,,,0,0,0,0,0,19,19,19,1,0,1,0,,,,,,,,,,,,,,,,,,,,,,,,,,,,,,,,,,,,,,,,,,,,,,,,,,,,30,,,,,,,,215.0957991000032,215.0957991000032,215.0957991000032,215.0957991000032,215.0957991000032,left,0.850555999961216,19,0,0,99,-0.16,-0.32,left,0.7092660000198521,,,,,,,,,,,,,,,,,,,,,,,,,,,,,,,,,A,train_x,x_increasing_steps,top_left,2024-10-29_21h53.21.681,HideSeek_v1,2022.2.5,60.14136829154068,
,0,1,0,1,0,0,16,,train_dim1_1,20,30,2,0,2,0,,,,,,,,,0,0,0,0,0,19,19,19,2,0,2,0,,,,,,,,,,,,,,,,,,,,,,,,,,,,,,,,,,,,,,,,,,,,,,,,,,,,30,,,,,,,,215.93646210001316,215.93646210001316,215.93646210001316,215.93646210001316,215.93646210001316,return,0.3093519000103697,20,0,0,1,-0.16,-0.32,return,0.18534040002850816,0,44,-0.16,-0.32,,,,,,,,,,,,,,,,,,,,,,,,,,,,,A,train_x,x_increasing_steps,top_left,2024-10-29_21h53.21.681,HideSeek_v1,2022.2.5,60.14136829154068,
,4,2,6,2,2,0,36,,train_dim1_1,21,30,2,0,2,0,,,,,,,,,0,0,0,0,0,20,20,20,0,0,0,0,,,,,,,,,,,,,stimuli/alien_stimuli/36.png,,,,,,,,,,,,,,,,,,,,,,,,,,,,,stimuli/alien_stimuli/16.png,16,0,22,,,,,,,30,,,,,,,,220.3573621000396,220.3573621000396,220.3573621000396,220.3573621000396,220.3573621000396,right,0.8631922000204213,20,0,0,99,0.24,-0.24,right,0.6797394999885,,,,,218.68989200005308,-0.16,-0.32,0.0,0.0,-0.32,-0.16,-0.16,-0.16,-0.32,217.94013990001986,217.94013990001986,217.94013990001986,217.94013990001986,217.94013990001986,217.94013990001986,217.94013990001986,217.94013990001986,217.84079467002886,1.0143089999910444,return,0.7032289999770001,,,,,,,A,train_x,x_increasing_steps,top_left,2024-10-29_21h53.21.681,HideSeek_v1,2022.2.5,60.14136829154068,
,4,2,6,2,2,0,36,,train_dim1_1,21,30,2,0,2,0,,,,,,,,,0,0,0,0,0,20,20,20,1,0,1,0,,,,,,,,,,,,,,,,,,,,,,,,,,,,,,,,,,,,,,,,,,,,,,,,,,,,30,,,,,,,,221.16514750005445,221.16514750005445,221.16514750005445,221.16514750005445,221.16514750005445,right,0.5196339000249282,20,0,0,99,0.32,-0.24,right,0.3983969999826513,,,,,,,,,,,,,,,,,,,,,,,,,,,,,,,,,A,train_x,x_increasing_steps,top_left,2024-10-29_21h53.21.681,HideSeek_v1,2022.2.5,60.14136829154068,
,4,2,6,2,2,0,36,,train_dim1_1,21,30,2,0,2,0,,,,,,,,,0,0,0,0,0,20,20,20,2,0,2,0,,,,,,,,,,,,,,,,,,,,,,,,,,,,,,,,,,,,,,,,,,,,,,,,,,,,30,,,,,,,,221.70915860001696,221.70915860001696,221.70915860001696,221.70915860001696,221.70915860001696,return,0.33783940004650503,21,0,0,1,0.32,-0.24,return,0.21604589995695278,0,46,0.32,-0.24,,,,,,,,,,,,,,,,,,,,,,,,,,,,,A,train_x,x_increasing_steps,top_left,2024-10-29_21h53.21.681,HideSeek_v1,2022.2.5,60.14136829154068,
,1,0,2,0,1,0,26,,train_dim1_1,22,30,2,0,2,0,,,,,,,,,0,0,0,0,0,21,21,21,0,0,0,0,,,,,,,,,,,,,stimuli/alien_stimuli/26.png,,,,,,,,,,,,,,,,,,,,,,,,,,,,,stimuli/alien_stimuli/36.png,36,4,23,,,,,,,30,,,,,,,,225.79581080004573,225.79581080004573,225.79581080004573,225.79581080004573,225.79581080004573,right,2.7663566000410356,21,0,0,99,0.0,-0.4,right,2.5919334999634884,,,,,224.157160200004,0.32,-0.24,0.0,0.16,-0.24,0.32,0.24,0.32,-0.24,223.73814170004334,223.73814170004334,223.73814170004334,223.73814170004334,223.73814170004334,223.73814170004334,223.73814170004334,223.73814170004334,223.6239925000118,0.6886294999858364,return,0.37232379999477416,225.79581080004573,,,,,,A,train_x,x_increasing_steps,top_left,2024-10-29_21h53.21.681,HideSeek_v1,2022.2.5,60.14136829154068,
,1,0,2,0,1,0,26,,train_dim1_1,22,30,2,0,2,0,,,,,,,,,0,0,0,0,0,21,21,21,1,0,1,0,,,,,,,,,,,,,,,,,,,,,,,,,,,,,,,,,,,,,,,,,,,,,,,,,,,,30,,,,,,,,228.55776630004402,228.55776630004402,228.55776630004402,228.55776630004402,228.55776630004402,return,1.6698087999830022,22,0,0,1,0.0,-0.4,return,1.5116312999743968,0,47,0.0,-0.4,,,,,,,,,,,,,,,,,,,,,,,,,,,,,A,train_x,x_increasing_steps,top_left,2024-10-29_21h53.21.681,HideSeek_v1,2022.2.5,60.14136829154068,
,2,1,7,1,5,0,66,,train_dim1_1,23,30,2,0,2,0,,,,,,,,,0,0,0,0,0,22,22,22,0,0,0,0,,,,,,,,,,,,,stimuli/alien_stimuli/66.png,,,,,,,,,,,,,,,,,,,,,,,,,,,,,stimuli/alien_stimuli/26.png,26,1,24,,,,,,,30,,,,,,,,235.64170720003312,235.64170720003312,235.64170720003312,235.64170720003312,235.64170720003312,right,0.9482487000059336,22,0,0,99,0.08,-0.32,right,0.7903630000073463,,,,,234.00784830003977,0,-0.4,0.0,0.08,-0.4,0,-0.04,0,-0.4,231.88431140000466,231.88431140000466,231.88431140000466,231.88431140000466,231.88431140000466,231.88431140000466,231.88431140000466,231.88431140000466,231.7907098000287,2.3720014999853447,return,2.0955330999568105,235.64170720003312,,,,,,A,train_x,x_increasing_steps,top_left,2024-10-29_21h53.21.681,HideSeek_v1,2022.2.5,60.14136829154068,
,2,1,7,1,5,0,66,,train_dim1_1,23,30,2,0,2,0,,,,,,,,,0,0,0,0,0,22,22,22,1,0,1,0,,,,,,,,,,,,,,,,,,,,,,,,,,,,,,,,,,,,,,,,,,,,,,,,,,,,30,,,,,,,,236.56297250004718,236.56297250004718,236.56297250004718,236.56297250004718,236.56297250004718,right,0.32018320000497624,22,0,0,99,0.16,-0.32,right,0.20864480000454932,,,,,,,,,,,,,,,,,,,,,,,,,,,,,,,,,A,train_x,x_increasing_steps,top_left,2024-10-29_21h53.21.681,HideSeek_v1,2022.2.5,60.14136829154068,
,2,1,7,1,5,0,66,,train_dim1_1,23,30,2,0,2,0,,,,,,,,,0,0,0,0,0,22,22,22,2,0,2,0,,,,,,,,,,,,,,,,,,,,,,,,,,,,,,,,,,,,,,,,,,,,,,,,,,,,30,,,,,,,,236.88976210000692,236.88976210000692,236.88976210000692,236.88976210000692,236.88976210000692,right,0.33822920004604384,22,0,0,99,0.24,-0.32,right,0.20314810000127181,,,,,,,,,,,,,,,,,,,,,,,,,,,,,,,,,A,train_x,x_increasing_steps,top_left,2024-10-29_21h53.21.681,HideSeek_v1,2022.2.5,60.14136829154068,
,2,1,7,1,5,0,66,,train_dim1_1,23,30,2,0,2,0,,,,,,,,,0,0,0,0,0,22,22,22,3,0,3,0,,,,,,,,,,,,,,,,,,,,,,,,,,,,,,,,,,,,,,,,,,,,,,,,,,,,30,,,,,,,,237.24344500002917,237.24344500002917,237.24344500002917,237.24344500002917,237.24344500002917,right,0.2796758000040427,22,0,0,99,0.32,-0.32,right,0.15352739999070764,,,,,,,,,,,,,,,,,,,,,,,,,,,,,,,,,A,train_x,x_increasing_steps,top_left,2024-10-29_21h53.21.681,HideSeek_v1,2022.2.5,60.14136829154068,
,2,1,7,1,5,0,66,,train_dim1_1,23,30,2,0,2,0,,,,,,,,,0,0,0,0,0,22,22,22,4,0,4,0,,,,,,,,,,,,,,,,,,,,,,,,,,,,,,,,,,,,,,,,,,,,,,,,,,,,30,,,,,,,,237.53998580004554,237.53998580004554,237.53998580004554,237.53998580004554,237.53998580004554,right,0.3121979999705218,22,0,0,99,0.4,-0.32,right,0.19978540000738576,,,,,,,,,,,,,,,,,,,,,,,,,,,,,,,,,A,train_x,x_increasing_steps,top_left,2024-10-29_21h53.21.681,HideSeek_v1,2022.2.5,60.14136829154068,
,2,1,7,1,5,0,66,,train_dim1_1,23,30,2,0,2,0,,,,,,,,,0,0,0,0,0,22,22,22,5,0,5,0,,,,,,,,,,,,,,,,,,,,,,,,,,,,,,,,,,,,,,,,,,,,,,,,,,,,30,,,,,,,,237.8568214000552,237.8568214000552,237.8568214000552,237.8568214000552,237.8568214000552,return,0.32267540000611916,23,0,0,1,0.4,-0.32,return,0.21809909999137744,0,52,0.4,-0.32,,,,,,,,,,,,,,,,,,,,,,,,,,,,,A,train_x,x_increasing_steps,top_left,2024-10-29_21h53.21.681,HideSeek_v1,2022.2.5,60.14136829154068,
,4,4,7,4,3,0,46,,train_dim1_1,24,30,2,0,2,0,,,,,,,,,0,0,0,0,0,23,23,23,0,0,0,0,,,,,,,,,,,,,stimuli/alien_stimuli/46.png,,,,,,,,,,,,,,,,,,,,,,,,,,,,,stimuli/alien_stimuli/66.png,66,2,25,,,,,,,30,,,,,,,,241.87487530004,241.87487530004,241.87487530004,241.87487530004,241.87487530004,right,0.5494708000333048,23,0,0,99,0.24,-0.08,right,0.39533480000682175,,,,,240.22423849999905,0.4,-0.32,0.0,0.4,-0.32,0.4,0.2,0.4,-0.32,239.85634019999998,239.85634019999998,239.85634019999998,239.85634019999998,239.85634019999998,239.85634019999998,239.85634019999998,239.85634019999998,239.7576506300422,0.6044961999868974,return,0.3444040999747813,,,,,,,A,train_x,x_increasing_steps,top_left,2024-10-29_21h53.21.681,HideSeek_v1,2022.2.5,60.14136829154068,
,4,4,7,4,3,0,46,,train_dim1_1,24,30,2,0,2,0,,,,,,,,,0,0,0,0,0,23,23,23,1,0,1,0,,,,,,,,,,,,,,,,,,,,,,,,,,,,,,,,,,,,,,,,,,,,,,,,,,,,30,,,,,,,,242.38507780001964,242.38507780001964,242.38507780001964,242.38507780001964,242.38507780001964,right,1.069875800050795,23,0,0,99,0.32,-0.08,right,0.9610342999803834,,,,,,,,,,,,,,,,,,,,,,,,,,,,,,,,,A,train_x,x_increasing_steps,top_left,2024-10-29_21h53.21.681,HideSeek_v1,2022.2.5,60.14136829154068,
,4,4,7,4,3,0,46,,train_dim1_1,24,30,2,0,2,0,,,,,,,,,0,0,0,0,0,23,23,23,2,0,2,0,,,,,,,,,,,,,,,,,,,,,,,,,,,,,,,,,,,,,,,,,,,,,,,,,,,,30,,,,,,,,243.4658230000059,243.4658230000059,243.4658230000059,243.4658230000059,243.4658230000059,right,0.34212389995809644,23,0,0,99,0.4,-0.08,right,0.21581339999102056,,,,,,,,,,,,,,,,,,,,,,,,,,,,,,,,,A,train_x,x_increasing_steps,top_left,2024-10-29_21h53.21.681,HideSeek_v1,2022.2.5,60.14136829154068,
,4,4,7,4,3,0,46,,train_dim1_1,24,30,2,0,2,0,,,,,,,,,0,0,0,0,0,23,23,23,3,0,3,0,,,,,,,,,,,,,,,,,,,,,,,,,,,,,,,,,,,,,,,,,,,,,,,,,,,,30,,,,,,,,243.82400520000374,243.82400520000374,243.82400520000374,243.82400520000374,243.82400520000374,return,0.26581930002430454,24,0,0,1,0.4,-0.08,return,0.1430167000507936,0,55,0.4,-0.08,,,,,,,,,,,,,,,,,,,,,,,,,,,,,A,train_x,x_increasing_steps,top_left,2024-10-29_21h53.21.681,HideSeek_v1,2022.2.5,60.14136829154068,
,3,0,3,0,0,0,16,,train_dim1_1,25,30,2,0,2,0,,,,,,,,,0,0,0,0,0,24,24,24,0,0,0,0,,,,,,,,,,,,,stimuli/alien_stimuli/16.png,,,,,,,,,,,,,,,,,,,,,,,,,,,,,stimuli/alien_stimuli/46.png,46,4,26,,,,,,,30,,,,,,,,248.50305640004808,248.50305640004808,248.50305640004808,248.50305640004808,248.50305640004808,return,1.0495159999700263,25,0,0,1,0.08,-0.4,return,0.8721247999928892,0,55,0.08,-0.4,246.8732681000256,0.4,-0.08,0.0,0.24,-0.08,0.4,0.28,0.4,-0.08,245.77323890000116,245.77323890000116,245.77323890000116,245.77323890000116,245.77323890000116,245.77323890000116,245.77323890000116,245.77323890000116,245.67419912999614,1.3229433000087738,return,1.0651806000387296,,,,,,,A,train_x,x_increasing_steps,top_left,2024-10-29_21h53.21.681,HideSeek_v1,2022.2.5,60.14136829154068,
,1,1,6,1,5,0,66,,train_dim1_1,26,30,2,0,2,0,,,,,,,,,0,0,0,0,0,25,25,25,0,0,0,0,,,,,,,,,,,,,stimuli/alien_stimuli/66.png,,,,,,,,,,,,,,,,,,,,,,,,,,,,,stimuli/alien_stimuli/16.png,16,3,27,,,,,,,30,,,,,,,,253.52909020002699,253.52909020002699,253.52909020002699,253.52909020002699,253.52909020002699,right,0.9663285999558866,25,0,0,99,0.0,-0.32,right,0.8106711999862455,,,,,251.89101510000182,0.08,-0.4,0.0,0.0,-0.4,0.08,0.08,0.08,-0.4,251.19169780000811,251.19169780000811,251.19169780000811,251.19169780000811,251.19169780000811,251.19169780000811,251.19169780000811,251.19169780000811,251.10670040000696,0.9384474999969825,return,0.678330399969127,253.52909020002699,,,,,,A,train_x,x_increasing_steps,top_left,2024-10-29_21h53.21.681,HideSeek_v1,2022.2.5,60.14136829154068,
,1,1,6,1,5,0,66,,train_dim1_1,26,30,2,0,2,0,,,,,,,,,0,0,0,0,0,25,25,25,1,0,1,0,,,,,,,,,,,,,,,,,,,,,,,,,,,,,,,,,,,,,,,,,,,,,,,,,,,,30,,,,,,,,254.46368240000447,254.46368240000447,254.46368240000447,254.46368240000447,254.46368240000447,right,0.3364278000080958,25,0,0,99,0.08,-0.32,right,0.21759239997481927,,,,,,,,,,,,,,,,,,,,,,,,,,,,,,,,,A,train_x,x_increasing_steps,top_left,2024-10-29_21h53.21.681,HideSeek_v1,2022.2.5,60.14136829154068,
,1,1,6,1,5,0,66,,train_dim1_1,26,30,2,0,2,0,,,,,,,,,0,0,0,0,0,25,25,25,2,0,2,0,,,,,,,,,,,,,,,,,,,,,,,,,,,,,,,,,,,,,,,,,,,,,,,,,,,,30,,,,,,,,254.8077257000259,254.8077257000259,254.8077257000259,254.8077257000259,254.8077257000259,right,0.32007930002873763,25,0,0,99,0.16,-0.32,right,0.20739140000659972,,,,,,,,,,,,,,,,,,,,,,,,,,,,,,,,,A,train_x,x_increasing_steps,top_left,2024-10-29_21h53.21.681,HideSeek_v1,2022.2.5,60.14136829154068,
,1,1,6,1,5,0,66,,train_dim1_1,26,30,2,0,2,0,,,,,,,,,0,0,0,0,0,25,25,25,3,0,3,0,,,,,,,,,,,,,,,,,,,,,,,,,,,,,,,,,,,,,,,,,,,,,,,,,,,,30,,,,,,,,255.14187089999905,255.14187089999905,255.14187089999905,255.14187089999905,255.14187089999905,right,0.37246479996247217,25,0,0,99,0.24,-0.32,right,0.25168459996348247,,,,,,,,,,,,,,,,,,,,,,,,,,,,,,,,,A,train_x,x_increasing_steps,top_left,2024-10-29_21h53.21.681,HideSeek_v1,2022.2.5,60.14136829154068,
,1,1,6,1,5,0,66,,train_dim1_1,26,30,2,0,2,0,,,,,,,,,0,0,0,0,0,25,25,25,4,0,4,0,,,,,,,,,,,,,,,,,,,,,,,,,,,,,,,,,,,,,,,,,,,,,,,,,,,,30,,,,,,,,255.53896040003747,255.53896040003747,255.53896040003747,255.53896040003747,255.53896040003747,right,0.3495111999800429,25,0,0,99,0.32,-0.32,right,0.20934050000505522,,,,,,,,,,,,,,,,,,,,,,,,,,,,,,,,,A,train_x,x_increasing_steps,top_left,2024-10-29_21h53.21.681,HideSeek_v1,2022.2.5,60.14136829154068,
,1,1,6,1,5,0,66,,train_dim1_1,26,30,2,0,2,0,,,,,,,,,0,0,0,0,0,25,25,25,5,0,5,0,,,,,,,,,,,,,,,,,,,,,,,,,,,,,,,,,,,,,,,,,,,,,,,,,,,,30,,,,,,,,255.88995850004721,255.88995850004721,255.88995850004721,255.88995850004721,255.88995850004721,return,0.32215660001384094,26,0,0,1,0.32,-0.32,return,0.20984450000105426,0,60,0.32,-0.32,,,,,,,,,,,,,,,,,,,,,,,,,,,,,A,train_x,x_increasing_steps,top_left,2024-10-29_21h53.21.681,HideSeek_v1,2022.2.5,60.14136829154068,
,0,1,2,1,2,0,36,,train_dim1_1,27,30,2,0,2,0,,,,,,,,,0,0,0,0,0,26,26,26,0,0,0,0,,,,,,,,,,,,,stimuli/alien_stimuli/36.png,,,,,,,,,,,,,,,,,,,,,,,,,,,,,stimuli/alien_stimuli/66.png,66,1,28,,,,,,,30,,,,,,,,259.8903266999987,259.8903266999987,259.8903266999987,259.8903266999987,259.8903266999987,right,0.5824288999428973,26,0,0,99,-0.08,-0.32,right,0.4309606999740936,,,,,258.256254900014,0.32,-0.32,0.0,0.4,-0.32,0.32,0.12,0.32,-0.32,257.8900672000018,257.8900672000018,257.8900672000018,257.8900672000018,257.8900672000018,257.8900672000018,257.8900672000018,257.8900672000018,257.7904144300439,0.5915106000029482,return,0.329846800013911,,,,,,,A,train_x,x_increasing_steps,top_left,2024-10-29_21h53.21.681,HideSeek_v1,2022.2.5,60.14136829154068,
,0,1,2,1,2,0,36,,train_dim1_1,27,30,2,0,2,0,,,,,,,,,0,0,0,0,0,26,26,26,1,0,1,0,,,,,,,,,,,,,,,,,,,,,,,,,,,,,,,,,,,,,,,,,,,,,,,,,,,,30,,,,,,,,260.44239970005583,260.44239970005583,260.44239970005583,260.44239970005583,260.44239970005583,right,0.5201816000044346,26,0,0,99,0.0,-0.32,right,0.40236690000165254,,,,,,,,,,,,,,,,,,,,,,,,,,,,,,,,,A,train_x,x_increasing_steps,top_left,2024-10-29_21h53.21.681,HideSeek_v1,2022.2.5,60.14136829154068,
,0,1,2,1,2,0,36,,train_dim1_1,27,30,2,0,2,0,,,,,,,,,0,0,0,0,0,26,26,26,2,0,2,0,,,,,,,,,,,,,,,,,,,,,,,,,,,,,,,,,,,,,,,,,,,,,,,,,,,,30,,,,,,,,260.97015240002656,260.97015240002656,260.97015240002656,260.97015240002656,260.97015240002656,return,0.2544293999671936,27,0,0,1,0.0,-0.32,return,0.15471790003357455,0,62,0.0,-0.32,,,,,,,,,,,,,,,,,,,,,,,,,,,,,A,train_x,x_increasing_steps,top_left,2024-10-29_21h53.21.681,HideSeek_v1,2022.2.5,60.14136829154068,
,3,1,4,1,1,0,26,,train_dim1_1,28,30,2,0,2,0,,,,,,,,,0,0,0,0,0,27,27,27,0,0,0,0,,,,,,,,,,,,,stimuli/alien_stimuli/26.png,,,,,,,,,,,,,,,,,,,,,,,,,,,,,stimuli/alien_stimuli/36.png,36,0,29,,,,,,,30,,,,,,,,265.03717680001864,265.03717680001864,265.03717680001864,265.03717680001864,265.03717680001864,right,1.3681540999677964,27,0,0,99,0.16,-0.32,right,1.2164056000183336,,,,,263.407218700042,0,-0.32,0.0,0.16,-0.32,0,-0.08,0,-0.32,262.91043680004077,262.91043680004077,262.91043680004077,262.91043680004077,262.91043680004077,262.91043680004077,262.91043680004077,262.91043680004077,262.8072020299907,0.7366791000240482,return,0.45032760000322014,265.03717680001864,,,,,,A,train_x,x_increasing_steps,top_left,2024-10-29_21h53.21.681,HideSeek_v1,2022.2.5,60.14136829154068,
,3,1,4,1,1,0,26,,train_dim1_1,28,30,2,0,2,0,,,,,,,,,0,0,0,0,0,27,27,27,1,0,1,0,,,,,,,,,,,,,,,,,,,,,,,,,,,,,,,,,,,,,,,,,,,,,,,,,,,,30,,,,,,,,266.37986240000464,266.37986240000464,266.37986240000464,266.37986240000464,266.37986240000464,return,0.3172453999868594,28,0,0,1,0.16,-0.32,return,0.19832820002920926,0,63,0.16,-0.32,,,,,,,,,,,,,,,,,,,,,,,,,,,,,A,train_x,x_increasing_steps,top_left,2024-10-29_21h53.21.681,HideSeek_v1,2022.2.5,60.14136829154068,
,4,0,7,0,3,0,46,,train_dim1_1,29,30,2,0,2,0,,,,,,,,,0,0,0,0,0,28,28,28,0,0,0,0,,,,,,,,,,,,,stimuli/alien_stimuli/46.png,,,,,,,,,,,,,,,,,,,,,,,,,,,,,stimuli/alien_stimuli/26.png,26,3,30,,,,,,,30,,,,,,,,270.83981850004056,270.83981850004056,270.83981850004056,270.83981850004056,270.83981850004056,right,4.234480899991468,28,0,0,99,0.24,-0.4,right,4.084917000029236,,,,,269.2062344000442,0.16,-0.32,0.0,0.08,-0.32,0.16,0.12,0.16,-0.32,268.37095240002964,268.37095240002964,268.37095240002964,268.37095240002964,268.37095240002964,268.37095240002964,268.37095240002964,268.37095240002964,268.27320812999386,1.0711615000036545,return,0.7901213000295684,270.83981850004056,,,,,,A,train_x,x_increasing_steps,top_left,2024-10-29_21h53.21.681,HideSeek_v1,2022.2.5,60.14136829154068,
,4,0,7,0,3,0,46,,train_dim1_1,29,30,2,0,2,0,,,,,,,,,0,0,0,0,0,28,28,28,1,0,1,0,,,,,,,,,,,,,,,,,,,,,,,,,,,,,,,,,,,,,,,,,,,,,,,,,,,,30,,,,,,,,275.04759570001625,275.04759570001625,275.04759570001625,275.04759570001625,275.04759570001625,right,0.4502852999721654,28,0,0,99,0.32,-0.4,right,0.33176370000001043,,,,,,,,,,,,,,,,,,,,,,,,,,,,,,,,,A,train_x,x_increasing_steps,top_left,2024-10-29_21h53.21.681,HideSeek_v1,2022.2.5,60.14136829154068,
,4,0,7,0,3,0,46,,train_dim1_1,29,30,2,0,2,0,,,,,,,,,0,0,0,0,0,28,28,28,2,0,2,0,,,,,,,,,,,,,,,,,,,,,,,,,,,,,,,,,,,,,,,,,,,,,,,,,,,,30,,,,,,,,275.5065184000414,275.5065184000414,275.5065184000414,275.5065184000414,275.5065184000414,right,0.38332900003297254,28,0,0,99,0.4,-0.4,right,0.272981499962043,,,,,,,,,,,,,,,,,,,,,,,,,,,,,,,,,A,train_x,x_increasing_steps,top_left,2024-10-29_21h53.21.681,HideSeek_v1,2022.2.5,60.14136829154068,
,4,0,7,0,3,0,46,,train_dim1_1,29,30,2,0,2,0,,,,,,,,,0,0,0,0,0,28,28,28,3,0,3,0,,,,,,,,,,,,,,,,,,,,,,,,,,,,,,,,,,,,,,,,,,,,,,,,,,,,30,,,,,,,,275.8989782000426,275.8989782000426,275.8989782000426,275.8989782000426,275.8989782000426,return,0.3115867000306025,29,0,0,1,0.4,-0.4,return,0.2107255000155419,0,66,0.4,-0.4,,,,,,,,,,,,,,,,,,,,,,,,,,,,,A,train_x,x_increasing_steps,top_left,2024-10-29_21h53.21.681,HideSeek_v1,2022.2.5,60.14136829154068,
,2,2,2,2,0,0,16,,train_dim1_1,30,30,2,0,2,0,,,,,,,,,0,0,0,0,0,29,29,29,0,0,0,0,,,,,,,,,,,,,stimuli/alien_stimuli/16.png,,,,,,,,,,,,,,,,,,,,,,,,,,,,,stimuli/alien_stimuli/46.png,46,4,31,,,,,,,30,,,,,,,,280.53542440000456,280.53542440000456,280.53542440000456,280.53542440000456,280.53542440000456,return,3.3198896999820136,30,0,0,1,0,-0.24,return,3.1566121999640018,0,66,0,-0.24,278.90629620000254,0.4,-0.4,0.0,0.24,-0.4,0.4,0.28,0.4,-0.4,277.8754209000035,277.8754209000035,277.8754209000035,277.8754209000035,277.8754209000035,277.8754209000035,277.8754209000035,277.8754209000035,277.7735874600243,1.2393056000000797,return,0.9900067000417039,,,,,,,A,train_x,x_increasing_steps,top_left,2024-10-29_21h53.21.681,HideSeek_v1,2022.2.5,60.14136829154068,
,,,,,,,,,,,30,2,0,2,0,,,,,,,,,,,,,,,,,,,,,,,,,,,,,,,,,,,,,,,,,,,,,,,,,,,,,,,,,,,,,,stimuli/alien_stimuli/16.png,16,2,32,17,0.7,1.25,1,1,1,30,0,conditions/schedules/train_x_first/x_increasing_steps/top_left/inputTrain_1.1.xlsx,99,1,2,1,0,,,,,,,,,,,1,,,,,,,,,286.86474470002577,0,-0.24,0.0,0.0,-0.24,0,0.0,0,-0.24,285.4915208000457,285.4915208000457,285.4915208000457,285.4915208000457,285.4915208000457,285.4915208000457,285.4915208000457,285.4915208000457,285.3901831300056,1.6043616000097245,return,1.337629699963145,,0,1.25,0,1,30,A,train_x,x_increasing_steps,top_left,2024-10-29_21h53.21.681,HideSeek_v1,2022.2.5,60.14136829154068,
,,,,,,,,,,,,3,0,3,0,0,0,0,0,,,,,,,,,,,,,,,,,,,conditions/schedules/train_x_first/x_increasing_steps/top_left/instructions/Slide17.png,conditions/schedules/train_x_first/x_increasing_steps/top_left/instructions/Audio17.wav,288.45837000000756,288.4396487500344,17,"[3.761934000009205, 0.6022230999660678, 2.1955465999781154, 0.35567790002096444, 0.2957173999748193, 0.37212209997233003, 0.4176661999663338, 0.4579248999943957, 1.00332790001994, 0.4493209000211209, 0.381854800041765, 0.5496646999963559, 0.9311145999818109, 0.6226869000238366, 1.9841924000065774, 0.9329402000294067, 1.3788955000345595]","[0.10068949998822063, 0.09493919997476041, 0.07284510001773015, 0.0949104999890551, 0.12281979998806491, 0.09831169998506084, 0.10728019999805838, 0.10306579997995868, 0.14527640002779663, 0.11765780003042892, 0.11844610003754497, 0.5496765000279993, 0.02361520001431927, 0.6226984999957494, 0.026810000010300428, 0.9329515999997966, 1.3789405000279658]",0,,,,,,,,,,,,,,,,,,,,,,,,,,,,,,,,,,,,,,,,,,,,,,,,,,,,,,,,,,,,,,,,,,,,,,,,,,,,,,,,,,,,,,,,,,,,,,,,,A,train_x,x_increasing_steps,top_left,2024-10-29_21h53.21.681,HideSeek_v1,2022.2.5,60.14136829154068,
,,,,,,,,,,,,3,0,3,0,1,0,1,0,,,,,,,,,,,,,,,,,,,conditions/schedules/train_x_first/x_increasing_steps/top_left/instructions/Slide18.png,conditions/schedules/train_x_first/x_increasing_steps/top_left/instructions/Audio18.wav,289.9285227000364,289.909292320034,18,"[3.761934000009205, 0.6022230999660678, 2.1955465999781154, 0.35567790002096444, 0.2957173999748193, 0.37212209997233003, 0.4176661999663338, 0.4579248999943957, 1.00332790001994, 0.4493209000211209, 0.381854800041765, 0.5496646999963559, 0.9311145999818109, 0.6226869000238366, 1.9841924000065774, 0.9329402000294067, 1.3788955000345595, 0.6350862000253983]","[0.10068949998822063, 0.09493919997476041, 0.07284510001773015, 0.0949104999890551, 0.12281979998806491, 0.09831169998506084, 0.10728019999805838, 0.10306579997995868, 0.14527640002779663, 0.11765780003042892, 0.11844610003754497, 0.5496765000279993, 0.02361520001431927, 0.6226984999957494, 0.026810000010300428, 0.9329515999997966, 0.10015489999204874, 0.6350992000079714]",0,,,,,,,,,,,,,,,,,,,,,,,,,,,,,,,,,,,,,,,,,,,,,,,,,,,,,,,,,,,,,,,,,,,,,,,,,,,,,,,,,,,,,,,,,,,,,,,,,A,train_x,x_increasing_steps,top_left,2024-10-29_21h53.21.681,HideSeek_v1,2022.2.5,60.14136829154068,
,,,,,,,,,,,,3,0,3,0,2,0,2,0,,,,,,,,,,,,,,,,,,,conditions/schedules/train_x_first/x_increasing_steps/top_left/instructions/Slide19.png,conditions/schedules/train_x_first/x_increasing_steps/top_left/instructions/Audio19.wav,290.62259450001875,290.60609058004337,19,"[3.761934000009205, 0.6022230999660678, 2.1955465999781154, 0.35567790002096444, 0.2957173999748193, 0.37212209997233003, 0.4176661999663338, 0.4579248999943957, 1.00332790001994, 0.4493209000211209, 0.381854800041765, 0.5496646999963559, 0.9311145999818109, 0.6226869000238366, 1.9841924000065774, 0.9329402000294067, 1.3788955000345595, 0.6350862000253983, 0.7759382000076585]","[0.10068949998822063, 0.09493919997476041, 0.07284510001773015, 0.0949104999890551, 0.12281979998806491, 0.09831169998506084, 0.10728019999805838, 0.10306579997995868, 0.14527640002779663, 0.11765780003042892, 0.11844610003754497, 0.5496765000279993, 0.02361520001431927, 0.6226984999957494, 0.026810000010300428, 0.9329515999997966, 0.10015489999204874, 0.14706460002344102, 0.7759523999993689]",0,,,,,,,,,,,,,,,,,,,,,,,,,,,,,,,,,,,,,,,,,,,,,,,,,,,,,,,,,,,,,,,,,,,,,,,,,,,,,,,,,,,,,,,,,,,,,,,,,A,train_x,x_increasing_steps,top_left,2024-10-29_21h53.21.681,HideSeek_v1,2022.2.5,60.14136829154068,
,,,,,,,,,,,,3,0,3,0,3,0,3,0,,,,,,,,,,,,,,,,,,,conditions/schedules/train_x_first/x_increasing_steps/top_left/instructions/Slide20.png,conditions/schedules/train_x_first/x_increasing_steps/top_left/instructions/Audio20.wav,291.482238400029,291.47304831999355,20,"[3.761934000009205, 0.6022230999660678, 2.1955465999781154, 0.35567790002096444, 0.2957173999748193, 0.37212209997233003, 0.4176661999663338, 0.4579248999943957, 1.00332790001994, 0.4493209000211209, 0.381854800041765, 0.5496646999963559, 0.9311145999818109, 0.6226869000238366, 1.9841924000065774, 0.9329402000294067, 1.3788955000345595, 0.6350862000253983, 0.7759382000076585, 0.8497486000414938]","[0.10068949998822063, 0.09493919997476041, 0.07284510001773015, 0.0949104999890551, 0.12281979998806491, 0.09831169998506084, 0.10728019999805838, 0.10306579997995868, 0.14527640002779663, 0.11765780003042892, 0.11844610003754497, 0.5496765000279993, 0.02361520001431927, 0.6226984999957494, 0.026810000010300428, 0.9329515999997966, 0.10015489999204874, 0.14706460002344102, 0.09806780004873872, 0.8497625000309199]",0,,,,,,,,,,,,,,,,,,,,,,,,,,,,,,,,,,,,,,,,,,,,,,,,,,,,,,,,,,,,,,,,,,,,,,,,,,,,,,,,,,,,,,,,,,,,,,,,,A,train_x,x_increasing_steps,top_left,2024-10-29_21h53.21.681,HideSeek_v1,2022.2.5,60.14136829154068,
1,3,2,8,2,5,0,66,2,instr_dim1_1,,,3,0,3,0,,,,,0,0,0,0,,,,,,,,,,,,,,,,,,,,,,,,,stimuli/alien_stimuli/66.png,conditions/schedules/train_x_first/x_increasing_steps/top_left/inputInstr_1.xlsx,stimuli/alien_stimuli/66.png,292.5014258000301,292.5014258000301,292.5014258000301,292.5014258000301,292.4398563600029,return,2.181677199958358,"[-0.16, -0.08, 0, 0.08, 0.16, 0.24, 0.32, 0.4, 0.48, 0.56]","[-0.4, -0.32, -0.24, -0.16, -0.08, 0, 0.08, 0.16, 0.24, 0.32]",2,2,8,3,0.0,0.4,294.9929508000496,294.9929508000496,294.9929508000496,294.9929508000496,294.9929508000496,294.9929508000496,294.9929508000496,294.87381306999015,0.6678136000409722,return,0.3456078000017442,stimuli/alien_stimuli/66.png,66,3,1,,,,,,,,,,,,,,,,,,,,,,,,,,,,,,,,,,,,,,,,,,,,,,,,,,,,,,,,,,,,,,A,train_x,x_increasing_steps,top_left,2024-10-29_21h53.21.681,HideSeek_v1,2022.2.5,60.14136829154068,
,,,,,,,,,,,30,3,0,3,0,,,,,,,,,,,,,,,,,,,,,,,,,,,,,,,,,,,,,,,,,,,,,,,,,,,,,,,,,,,,,,,,,,17,0.7,1.25,1,99,2,30,0,conditions/schedules/train_x_first/x_increasing_steps/top_left/inputTrain_1.1.xlsx,99,1,2,1,0,,,,,,,,,,,,,,,,,,,,,,,,,,,,,,,,,,,,,,,,,,,,,,,,A,train_x,x_increasing_steps,top_left,2024-10-29_21h53.21.681,HideSeek_v1,2022.2.5,60.14136829154068,
,,,,,,,,,,,,4,0,4,0,0,0,0,0,,,,,,,,,,,,,,,,,,,conditions/schedules/train_x_first/x_increasing_steps/top_left/instructions/Slide21.png,conditions/schedules/train_x_first/x_increasing_steps/top_left/instructions/Audio21.wav,295.6004331000149,295.59022418000967,21,"[3.761934000009205, 0.6022230999660678, 2.1955465999781154, 0.35567790002096444, 0.2957173999748193, 0.37212209997233003, 0.4176661999663338, 0.4579248999943957, 1.00332790001994, 0.4493209000211209, 0.381854800041765, 0.5496646999963559, 0.9311145999818109, 0.6226869000238366, 1.9841924000065774, 0.9329402000294067, 1.3788955000345595, 0.6350862000253983, 0.7759382000076585, 0.8497486000414938, 5.399702899972908]","[0.10068949998822063, 0.09493919997476041, 0.07284510001773015, 0.0949104999890551, 0.12281979998806491, 0.09831169998506084, 0.10728019999805838, 0.10306579997995868, 0.14527640002779663, 0.11765780003042892, 0.11844610003754497, 0.5496765000279993, 0.02361520001431927, 0.6226984999957494, 0.026810000010300428, 0.9329515999997966, 0.10015489999204874, 0.14706460002344102, 0.09806780004873872, 0.8497625000309199, 5.399716400017496]",0,,,,,,,,,,,,,,,,,,,,,,,,,,,,,,,,,,,,,,,,,,,,,,,,,,,,,,,,,,,,,,,,,,,,,,,,,,,,,,,,,,,,,,,,,,,,,,,,,A,train_x,x_increasing_steps,top_left,2024-10-29_21h53.21.681,HideSeek_v1,2022.2.5,60.14136829154068,
2,4,0,4,0,0,0,16,2,instr_dim1_1,,,4,0,4,0,,,,,0,0,0,0,,,,,,,,,,,,,,,,,,,,,,,,,stimuli/alien_stimuli/16.png,conditions/schedules/train_x_first/x_increasing_steps/top_left/inputInstr_1.xlsx,stimuli/alien_stimuli/16.png,301.18945560004795,301.18945560004795,301.18945560004795,301.18945560004795,301.12558953000115,return,0.8481296999962069,"[-0.16, -0.08, 0, 0.08, 0.16, 0.24, 0.32, 0.4, 0.48, 0.56]","[-0.4, -0.32, -0.24, -0.16, -0.08, 0, 0.08, 0.16, 0.24, 0.32]",0,0,4,4,0.0,0.0,302.31439340004,302.31439340004,302.31439340004,302.31439340004,302.31439340004,302.31439340004,302.31439340004,302.2064375000191,0.5697548000025563,return,0.28699329996015877,stimuli/alien_stimuli/16.png,16,4,2,,,,,,,,,,,,,,,,,,,,,,,,,,,,,,,,,,,,,,,,,,,,,,,,,,,,,,,,,,,,,,A,train_x,x_increasing_steps,top_left,2024-10-29_21h53.21.681,HideSeek_v1,2022.2.5,60.14136829154068,
,,,,,,,,,,,30,4,0,4,0,,,,,,,,,,,,,,,,,,,,,,,,,,,,,,,,,,,,,,,,,,,,,,,,,,,,,,,,,,,,,,,,,,17,0.7,1.25,1,99,2,30,0,conditions/schedules/train_x_first/x_increasing_steps/top_left/inputTrain_1.1.xlsx,99,1,2,1,0,,,,,,,,,,,,,,,,,,,,,,,,,,,,,,,,,,,,,,,,,,,,,,,,A,train_x,x_increasing_steps,top_left,2024-10-29_21h53.21.681,HideSeek_v1,2022.2.5,60.14136829154068,
,,,,,,,,,,,,5,0,5,0,0,0,0,0,,,,,,,,,,,,,,,,,,,conditions/schedules/train_x_first/x_increasing_steps/top_left/instructions/Slide22.png,conditions/schedules/train_x_first/x_increasing_steps/top_left/instructions/Audio22.wav,302.85926490003476,302.8422150800354,22,"[3.761934000009205, 0.6022230999660678, 2.1955465999781154, 0.35567790002096444, 0.2957173999748193, 0.37212209997233003, 0.4176661999663338, 0.4579248999943957, 1.00332790001994, 0.4493209000211209, 0.381854800041765, 0.5496646999963559, 0.9311145999818109, 0.6226869000238366, 1.9841924000065774, 0.9329402000294067, 1.3788955000345595, 0.6350862000253983, 0.7759382000076585, 0.8497486000414938, 5.399702899972908, 1.2768220000434667]","[0.10068949998822063, 0.09493919997476041, 0.07284510001773015, 0.0949104999890551, 0.12281979998806491, 0.09831169998506084, 0.10728019999805838, 0.10306579997995868, 0.14527640002779663, 0.11765780003042892, 0.11844610003754497, 0.5496765000279993, 0.02361520001431927, 0.6226984999957494, 0.026810000010300428, 0.9329515999997966, 0.10015489999204874, 0.14706460002344102, 0.09806780004873872, 0.8497625000309199, 5.399716400017496, 1.2768347000237554]",0,,,,,,,,,,,,,,,,,,,,,,,,,,,,,,,,,,,,,,,,,,,,,,,,,,,,,,,,,,,,,,,,,,,,,,,,,,,,,,,,,,,,,,,,,,,,,,,,,A,train_x,x_increasing_steps,top_left,2024-10-29_21h53.21.681,HideSeek_v1,2022.2.5,60.14136829154068,
,2,1,4,1,2,0,36,,train_dim1_1,1,30,5,0,5,0,,,,,,,,,0,0,0,0,0,0,0,0,0,0,0,0,,,,,,,,,,,,,stimuli/alien_stimuli/36.png,,,,,,,,,,,,,,,,,,,,,,,,,,,,,,,,,,,,,,,30,,,,,,,,304.33947110001463,304.33947110001463,304.33947110001463,304.33947110001463,304.33947110001463,right,1.9253634000197053,0,0,0,99,0.08,-0.32,right,1.7443247999763116,,,,,,,,,,,,,,,,,,,,,,,,,,,,,,,,,A,train_x,x_increasing_steps,top_left,2024-10-29_21h53.21.681,HideSeek_v1,2022.2.5,60.14136829154068,
,2,1,4,1,2,0,36,,train_dim1_1,1,30,5,0,5,0,,,,,,,,,0,0,0,0,0,0,0,0,1,0,1,0,,,,,,,,,,,,,,,,,,,,,,,,,,,,,,,,,,,,,,,,,,,,,,,,,,,,30,,,,,,,,306.2040363000124,306.2040363000124,306.2040363000124,306.2040363000124,306.2040363000124,right,0.5808571999659762,0,0,0,99,0.16,-0.32,right,0.4699116999981925,,,,,,,,,,,,,,,,,,,,,,,,,,,,,,,,,A,train_x,x_increasing_steps,top_left,2024-10-29_21h53.21.681,HideSeek_v1,2022.2.5,60.14136829154068,
,2,1,4,1,2,0,36,,train_dim1_1,1,30,5,0,5,0,,,,,,,,,0,0,0,0,0,0,0,0,2,0,2,0,,,,,,,,,,,,,,,,,,,,,,,,,,,,,,,,,,,,,,,,,,,,,,,,,,,,30,,,,,,,,306.80150580004556,306.80150580004556,306.80150580004556,306.80150580004556,306.80150580004556,return,0.7950555999996141,1,0,0,1,0.16,-0.32,return,0.6635481000412256,0,68,0.16,-0.32,,,,,,,,,,,,,,,,,,,,,,,,,,,,,A,train_x,x_increasing_steps,top_left,2024-10-29_21h53.21.681,HideSeek_v1,2022.2.5,60.14136829154068,
,2,4,2,4,0,0,16,,train_dim1_1,2,30,5,0,5,0,,,,,,,,,0,0,0,0,0,1,1,1,0,0,0,0,,,,,,,,,,,,,stimuli/alien_stimuli/16.png,,,,,,,,,,,,,,,,,,,,,,,,,,,,,stimuli/alien_stimuli/36.png,36,2,3,,,,,,,30,,,,,,,,311.3901577000506,311.3901577000506,311.3901577000506,311.3901577000506,311.3901577000506,return,1.098948400001973,2,0,0,1,0,-0.08,return,0.9389868999714963,0,68,0,-0.08,309.74099230003776,0.16,-0.32,0.0,0.16,-0.32,0.16,0.08,0.16,-0.32,309.2959744000109,309.2959744000109,309.2959744000109,309.2959744000109,309.2959744000109,309.2959744000109,309.2959744000109,309.2959744000109,309.1899334000191,0.7049347000429407,return,0.4067374999867752,,,,,,,A,train_x,x_increasing_steps,top_left,2024-10-29_21h53.21.681,HideSeek_v1,2022.2.5,60.14136829154068,
,4,4,5,4,1,0,26,,train_dim1_1,3,30,5,0,5,0,,,,,,,,,0,0,0,0,0,2,2,2,0,0,0,0,,,,,,,,,,,,,stimuli/alien_stimuli/26.png,,,,,,,,,,,,,,,,,,,,,,,,,,,,,stimuli/alien_stimuli/16.png,16,2,4,,,,,,,30,,,,,,,,316.60571310005616,316.60571310005616,316.60571310005616,316.60571310005616,316.60571310005616,right,10.532324499974493,2,0,0,99,0.24,-0.08,right,10.34293849999085,,,,,314.9418357000104,0,-0.08,0.0,0.0,-0.08,0,0.0,0,-0.08,314.17295950005064,314.17295950005064,314.17295950005064,314.17295950005064,314.17295950005064,314.17295950005064,314.17295950005064,314.17295950005064,314.05704846999726,1.0559265000047162,return,0.7417079999577254,,,,,,,A,train_x,x_increasing_steps,top_left,2024-10-29_21h53.21.681,HideSeek_v1,2022.2.5,60.14136829154068,
,4,4,5,4,1,0,26,,train_dim1_1,3,30,5,0,5,0,,,,,,,,,0,0,0,0,0,2,2,2,1,0,1,0,,,,,,,,,,,,,,,,,,,,,,,,,,,,,,,,,,,,,,,,,,,,,,,,,,,,30,,,,,,,,327.0695974000264,327.0695974000264,327.0695974000264,327.0695974000264,327.0695974000264,return,0.5182588999741711,3,0,0,1,0.24,-0.08,return,0.40270060003967956,0,69,0.24,-0.08,,,,,,,,,,,,,,,,,,,,,,,,,,,,,A,train_x,x_increasing_steps,top_left,2024-10-29_21h53.21.681,HideSeek_v1,2022.2.5,60.14136829154068,
,2,3,5,3,3,0,46,,train_dim1_1,4,30,5,0,5,0,,,,,,,,,0,0,0,0,0,3,3,3,0,0,0,0,,,,,,,,,,,,,stimuli/alien_stimuli/46.png,,,,,,,,,,,,,,,,,,,,,,,,,,,,,stimuli/alien_stimuli/26.png,26,4,5,,,,,,,30,,,,,,,,331.2545295000309,331.2545295000309,331.2545295000309,331.2545295000309,331.2545295000309,right,0.7584470000001602,3,0,0,99,0.08,-0.16,right,0.6616206999751739,,,,,329.68756950000534,0.24,-0.08,0.0,0.08,-0.08,0.24,0.2,0.24,-0.08,329.1698013000423,329.1698013000423,329.1698013000423,329.1698013000423,329.1698013000423,329.1698013000423,329.1698013000423,329.1698013000423,329.1048571500287,0.6526292999624275,return,0.5016806999919936,331.2545295000309,,,,,,A,train_x,x_increasing_steps,top_left,2024-10-29_21h53.21.681,HideSeek_v1,2022.2.5,60.14136829154068,
,2,3,5,3,3,0,46,,train_dim1_1,4,30,5,0,5,0,,,,,,,,,0,0,0,0,0,3,3,3,1,0,1,0,,,,,,,,,,,,,,,,,,,,,,,,,,,,,,,,,,,,,,,,,,,,,,,,,,,,30,,,,,,,,331.99009790003765,331.99009790003765,331.99009790003765,331.99009790003765,331.99009790003765,right,0.3271515999804251,3,0,0,99,0.16,-0.16,right,0.2611210000468418,,,,,,,,,,,,,,,,,,,,,,,,,,,,,,,,,A,train_x,x_increasing_steps,top_left,2024-10-29_21h53.21.681,HideSeek_v1,2022.2.5,60.14136829154068,
,2,3,5,3,3,0,46,,train_dim1_1,4,30,5,0,5,0,,,,,,,,,0,0,0,0,0,3,3,3,2,0,2,0,,,,,,,,,,,,,,,,,,,,,,,,,,,,,,,,,,,,,,,,,,,,,,,,,,,,30,,,,,,,,332.32265520002693,332.32265520002693,332.32265520002693,332.32265520002693,332.32265520002693,right,0.2770471999538131,3,0,0,99,0.24,-0.16,right,0.2071035000262782,,,,,,,,,,,,,,,,,,,,,,,,,,,,,,,,,A,train_x,x_increasing_steps,top_left,2024-10-29_21h53.21.681,HideSeek_v1,2022.2.5,60.14136829154068,
,2,3,5,3,3,0,46,,train_dim1_1,4,30,5,0,5,0,,,,,,,,,0,0,0,0,0,3,3,3,3,0,3,0,,,,,,,,,,,,,,,,,,,,,,,,,,,,,,,,,,,,,,,,,,,,,,,,,,,,30,,,,,,,,332.6009760000161,332.6009760000161,332.6009760000161,332.6009760000161,332.6009760000161,return,0.2278762999922037,4,0,0,1,0.24,-0.16,return,0.1641294999863021,0,72,0.24,-0.16,,,,,,,,,,,,,,,,,,,,,,,,,,,,,A,train_x,x_increasing_steps,top_left,2024-10-29_21h53.21.681,HideSeek_v1,2022.2.5,60.14136829154068,
,0,2,5,2,5,0,66,,train_dim1_1,5,30,5,0,5,0,,,,,,,,,0,0,0,0,0,4,4,4,0,0,0,0,,,,,,,,,,,,,stimuli/alien_stimuli/66.png,,,,,,,,,,,,,,,,,,,,,,,,,,,,,stimuli/alien_stimuli/46.png,46,2,6,,,,,,,30,,,,,,,,337.0041397000314,337.0041397000314,337.0041397000314,337.0041397000314,337.0041397000314,right,0.82511010003509,4,0,0,99,-0.08,-0.24,right,0.7344241999671794,,,,,335.4377580000437,0.24,-0.16,0.0,0.24,-0.16,0.24,0.12,0.24,-0.16,334.4124682000256,334.4124682000256,334.4124682000256,334.4124682000256,334.4124682000256,334.4124682000256,334.4124682000256,334.4124682000256,334.3543952799984,1.1345707000000402,return,1.0033815000206232,337.0041397000314,,,,,,A,train_x,x_increasing_steps,top_left,2024-10-29_21h53.21.681,HideSeek_v1,2022.2.5,60.14136829154068,
,0,2,5,2,5,0,66,,train_dim1_1,5,30,5,0,5,0,,,,,,,,,0,0,0,0,0,4,4,4,1,0,1,0,,,,,,,,,,,,,,,,,,,,,,,,,,,,,,,,,,,,,,,,,,,,,,,,,,,,30,,,,,,,,337.80960650002817,337.80960650002817,337.80960650002817,337.80960650002817,337.80960650002817,right,0.27792259998386726,4,0,0,99,0.0,-0.24,right,0.2112916999612935,,,,,,,,,,,,,,,,,,,,,,,,,,,,,,,,,A,train_x,x_increasing_steps,top_left,2024-10-29_21h53.21.681,HideSeek_v1,2022.2.5,60.14136829154068,
,0,2,5,2,5,0,66,,train_dim1_1,5,30,5,0,5,0,,,,,,,,,0,0,0,0,0,4,4,4,2,0,2,0,,,,,,,,,,,,,,,,,,,,,,,,,,,,,,,,,,,,,,,,,,,,,,,,,,,,30,,,,,,,,338.09260630002245,338.09260630002245,338.09260630002245,338.09260630002245,338.09260630002245,right,0.24319509998895228,4,0,0,99,0.08,-0.24,right,0.17427189997397363,,,,,,,,,,,,,,,,,,,,,,,,,,,,,,,,,A,train_x,x_increasing_steps,top_left,2024-10-29_21h53.21.681,HideSeek_v1,2022.2.5,60.14136829154068,
,0,2,5,2,5,0,66,,train_dim1_1,5,30,5,0,5,0,,,,,,,,,0,0,0,0,0,4,4,4,3,0,3,0,,,,,,,,,,,,,,,,,,,,,,,,,,,,,,,,,,,,,,,,,,,,,,,,,,,,30,,,,,,,,338.34123220003676,338.34123220003676,338.34123220003676,338.34123220003676,338.34123220003676,right,0.27757109998492524,4,0,0,99,0.16,-0.24,right,0.20343310001771897,,,,,,,,,,,,,,,,,,,,,,,,,,,,,,,,,A,train_x,x_increasing_steps,top_left,2024-10-29_21h53.21.681,HideSeek_v1,2022.2.5,60.14136829154068,
,0,2,5,2,5,0,66,,train_dim1_1,5,30,5,0,5,0,,,,,,,,,0,0,0,0,0,4,4,4,4,0,4,0,,,,,,,,,,,,,,,,,,,,,,,,,,,,,,,,,,,,,,,,,,,,,,,,,,,,30,,,,,,,,338.6241959000472,338.6241959000472,338.6241959000472,338.6241959000472,338.6241959000472,right,0.2445022000465542,4,0,0,99,0.24,-0.24,right,0.1764369999873452,,,,,,,,,,,,,,,,,,,,,,,,,,,,,,,,,A,train_x,x_increasing_steps,top_left,2024-10-29_21h53.21.681,HideSeek_v1,2022.2.5,60.14136829154068,
,0,2,5,2,5,0,66,,train_dim1_1,5,30,5,0,5,0,,,,,,,,,0,0,0,0,0,4,4,4,5,0,5,0,,,,,,,,,,,,,,,,,,,,,,,,,,,,,,,,,,,,,,,,,,,,,,,,,,,,30,,,,,,,,338.8749759000493,338.8749759000493,338.8749759000493,338.8749759000493,338.8749759000493,return,0.2777860999922268,5,0,0,1,0.24,-0.24,return,0.20046759996330366,0,77,0.24,-0.24,,,,,,,,,,,,,,,,,,,,,,,,,,,,,A,train_x,x_increasing_steps,top_left,2024-10-29_21h53.21.681,HideSeek_v1,2022.2.5,60.14136829154068,
,0,0,1,0,1,0,26,,train_dim1_1,6,30,5,0,5,0,,,,,,,,,0,0,0,0,0,5,5,5,0,0,0,0,,,,,,,,,,,,,stimuli/alien_stimuli/26.png,,,,,,,,,,,,,,,,,,,,,,,,,,,,,stimuli/alien_stimuli/66.png,66,0,7,,,,,,,30,,,,,,,,343.18789050000487,343.18789050000487,343.18789050000487,343.18789050000487,343.18789050000487,right,0.608518399996683,5,0,0,99,-0.08,-0.4,right,0.5122485000174493,,,,,341.62069860001793,0.24,-0.24,0.0,0.4,-0.24,0.24,0.039999999999999994,0.24,-0.24,340.7695338000194,340.7695338000194,340.7695338000194,340.7695338000194,340.7695338000194,340.7695338000194,340.7695338000194,340.7695338000194,340.6880790500145,1.0018275000038557,return,0.8289104999857955,343.18789050000487,,,,,,A,train_x,x_increasing_steps,top_left,2024-10-29_21h53.21.681,HideSeek_v1,2022.2.5,60.14136829154068,
,0,0,1,0,1,0,26,,train_dim1_1,6,30,5,0,5,0,,,,,,,,,0,0,0,0,0,5,5,5,1,0,1,0,,,,,,,,,,,,,,,,,,,,,,,,,,,,,,,,,,,,,,,,,,,,,,,,,,,,30,,,,,,,,343.7746224000002,343.7746224000002,343.7746224000002,343.7746224000002,343.7746224000002,return,0.5438657000195235,6,0,0,1,-0.08,-0.4,return,0.47896490001585335,0,78,-0.08,-0.4,,,,,,,,,,,,,,,,,,,,,,,,,,,,,A,train_x,x_increasing_steps,top_left,2024-10-29_21h53.21.681,HideSeek_v1,2022.2.5,60.14136829154068,
,3,0,8,0,5,0,66,,train_dim1_1,7,30,5,0,5,0,,,,,,,,,0,0,0,0,0,6,6,6,0,0,0,0,,,,,,,,,,,,,stimuli/alien_stimuli/66.png,,,,,,,,,,,,,,,,,,,,,,,,,,,,,stimuli/alien_stimuli/26.png,26,0,8,,,,,,,30,,,,,,,,348.1496592000476,348.1496592000476,348.1496592000476,348.1496592000476,348.1496592000476,right,0.7752661000122316,6,0,0,99,0.16,-0.4,right,0.6725854999967851,,,,,346.587345500011,-0.08,-0.4,0.0,0.08,-0.4,-0.08,-0.12,-0.08,-0.4,345.90772380004637,345.90772380004637,345.90772380004637,345.90772380004637,345.90772380004637,345.90772380004637,345.90772380004637,345.90772380004637,345.85436485000537,0.8020608999649994,return,0.6540898000239395,348.1496592000476,,,,,,A,train_x,x_increasing_steps,top_left,2024-10-29_21h53.21.681,HideSeek_v1,2022.2.5,60.14136829154068,
,3,0,8,0,5,0,66,,train_dim1_1,7,30,5,0,5,0,,,,,,,,,0,0,0,0,0,6,6,6,1,0,1,0,,,,,,,,,,,,,,,,,,,,,,,,,,,,,,,,,,,,,,,,,,,,,,,,,,,,30,,,,,,,,348.9089190000086,348.9089190000086,348.9089190000086,348.9089190000086,348.9089190000086,right,0.2937052000197582,6,0,0,99,0.24,-0.4,right,0.22709239996038377,,,,,,,,,,,,,,,,,,,,,,,,,,,,,,,,,A,train_x,x_increasing_steps,top_left,2024-10-29_21h53.21.681,HideSeek_v1,2022.2.5,60.14136829154068,
,3,0,8,0,5,0,66,,train_dim1_1,7,30,5,0,5,0,,,,,,,,,0,0,0,0,0,6,6,6,2,0,2,0,,,,,,,,,,,,,,,,,,,,,,,,,,,,,,,,,,,,,,,,,,,,,,,,,,,,30,,,,,,,,349.2112772000255,349.2112772000255,349.2112772000255,349.2112772000255,349.2112772000255,right,0.34374570002546534,6,0,0,99,0.32,-0.4,right,0.2744539999985136,,,,,,,,,,,,,,,,,,,,,,,,,,,,,,,,,A,train_x,x_increasing_steps,top_left,2024-10-29_21h53.21.681,HideSeek_v1,2022.2.5,60.14136829154068,
,3,0,8,0,5,0,66,,train_dim1_1,7,30,5,0,5,0,,,,,,,,,0,0,0,0,0,6,6,6,3,0,3,0,,,,,,,,,,,,,,,,,,,,,,,,,,,,,,,,,,,,,,,,,,,,,,,,,,,,30,,,,,,,,349.557185200043,349.557185200043,349.557185200043,349.557185200043,349.557185200043,right,0.34469820000231266,6,0,0,99,0.4,-0.4,right,0.2738567999913357,,,,,,,,,,,,,,,,,,,,,,,,,,,,,,,,,A,train_x,x_increasing_steps,top_left,2024-10-29_21h53.21.681,HideSeek_v1,2022.2.5,60.14136829154068,
,3,0,8,0,5,0,66,,train_dim1_1,7,30,5,0,5,0,,,,,,,,,0,0,0,0,0,6,6,6,4,0,4,0,,,,,,,,,,,,,,,,,,,,,,,,,,,,,,,,,,,,,,,,,,,,,,,,,,,,30,,,,,,,,349.9081328000175,349.9081328000175,349.9081328000175,349.9081328000175,349.9081328000175,right,0.3441569000133313,6,0,0,99,0.48000000000000004,-0.4,right,0.2653470000368543,,,,,,,,,,,,,,,,,,,,,,,,,,,,,,,,,A,train_x,x_increasing_steps,top_left,2024-10-29_21h53.21.681,HideSeek_v1,2022.2.5,60.14136829154068,
,3,0,8,0,5,0,66,,train_dim1_1,7,30,5,0,5,0,,,,,,,,,0,0,0,0,0,6,6,6,5,0,5,0,,,,,,,,,,,,,,,,,,,,,,,,,,,,,,,,,,,,,,,,,,,,,,,,,,,,30,,,,,,,,350.25660390005214,350.25660390005214,350.25660390005214,350.25660390005214,350.25660390005214,return,0.2609894999768585,7,0,0,1,0.48000000000000004,-0.4,return,0.18394630000693724,0,83,0.48000000000000004,-0.4,,,,,,,,,,,,,,,,,,,,,,,,,,,,,A,train_x,x_increasing_steps,top_left,2024-10-29_21h53.21.681,HideSeek_v1,2022.2.5,60.14136829154068,
,0,4,2,4,2,0,36,,train_dim1_1,8,30,5,0,5,0,,,,,,,,,0,0,0,0,0,7,7,7,0,0,0,0,,,,,,,,,,,,,stimuli/alien_stimuli/36.png,,,,,,,,,,,,,,,,,,,,,,,,,,,,,stimuli/alien_stimuli/66.png,66,3,9,,,,,,,30,,,,,,,,354.5635328000062,354.5635328000062,354.5635328000062,354.5635328000062,354.5635328000062,right,0.774865600047633,7,0,0,99,-0.08,-0.08,right,0.6846797000034712,,,,,353.0044576000073,0.48,-0.4,0.0,0.4,-0.4,0.48,0.27999999999999997,0.48,-0.4,352.1078808000311,352.1078808000311,352.1078808000311,352.1078808000311,352.1078808000311,352.1078808000311,352.1078808000311,352.1078808000311,352.0542737500218,1.0192081999848597,return,0.8783846999867819,354.5635328000062,,,,,,A,train_x,x_increasing_steps,top_left,2024-10-29_21h53.21.681,HideSeek_v1,2022.2.5,60.14136829154068,
,0,4,2,4,2,0,36,,train_dim1_1,8,30,5,0,5,0,,,,,,,,,0,0,0,0,0,7,7,7,1,0,1,0,,,,,,,,,,,,,,,,,,,,,,,,,,,,,,,,,,,,,,,,,,,,,,,,,,,,30,,,,,,,,355.3236630000174,355.3236630000174,355.3236630000174,355.3236630000174,355.3236630000174,right,0.49405059998389333,7,0,0,99,0.0,-0.08,right,0.4275062999804504,,,,,,,,,,,,,,,,,,,,,,,,,,,,,,,,,A,train_x,x_increasing_steps,top_left,2024-10-29_21h53.21.681,HideSeek_v1,2022.2.5,60.14136829154068,
,0,4,2,4,2,0,36,,train_dim1_1,8,30,5,0,5,0,,,,,,,,,0,0,0,0,0,7,7,7,2,0,2,0,,,,,,,,,,,,,,,,,,,,,,,,,,,,,,,,,,,,,,,,,,,,,,,,,,,,30,,,,,,,,355.82306680001784,355.82306680001784,355.82306680001784,355.82306680001784,355.82306680001784,return,0.2613275999901816,8,0,0,1,0.0,-0.08,return,0.19524140004068613,0,85,0.0,-0.08,,,,,,,,,,,,,,,,,,,,,,,,,,,,,A,train_x,x_increasing_steps,top_left,2024-10-29_21h53.21.681,HideSeek_v1,2022.2.5,60.14136829154068,
,1,0,4,0,3,0,46,,train_dim1_1,9,30,5,0,5,0,,,,,,,,,0,0,0,0,0,8,8,8,0,0,0,0,,,,,,,,,,,,,stimuli/alien_stimuli/46.png,,,,,,,,,,,,,,,,,,,,,,,,,,,,,stimuli/alien_stimuli/36.png,36,0,10,,,,,,,30,,,,,,,,359.94320140004857,359.94320140004857,359.94320140004857,359.94320140004857,359.94320140004857,right,5.5416864000144415,8,0,0,99,0.0,-0.4,right,5.448872399982065,,,,,358.3872861000127,0,-0.08,0.0,0.16,-0.08,0,-0.08,0,-0.08,357.6663158000447,357.6663158000447,357.6663158000447,357.6663158000447,357.6663158000447,357.6663158000447,357.6663158000447,357.6663158000447,357.62114975004806,0.8355419999570586,return,0.7050366000039503,359.94320140004857,,,,,,A,train_x,x_increasing_steps,top_left,2024-10-29_21h53.21.681,HideSeek_v1,2022.2.5,60.14136829154068,
,1,0,4,0,3,0,46,,train_dim1_1,9,30,5,0,5,0,,,,,,,,,0,0,0,0,0,8,8,8,1,0,1,0,,,,,,,,,,,,,,,,,,,,,,,,,,,,,,,,,,,,,,,,,,,,,,,,,,,,30,,,,,,,,365.4710881000501,365.4710881000501,365.4710881000501,365.4710881000501,365.4710881000501,right,0.3110090999980457,8,0,0,99,0.08,-0.4,right,0.2443519000080414,,,,,,,,,,,,,,,,,,,,,,,,,,,,,,,,,A,train_x,x_increasing_steps,top_left,2024-10-29_21h53.21.681,HideSeek_v1,2022.2.5,60.14136829154068,
,1,0,4,0,3,0,46,,train_dim1_1,9,30,5,0,5,0,,,,,,,,,0,0,0,0,0,8,8,8,2,0,2,0,,,,,,,,,,,,,,,,,,,,,,,,,,,,,,,,,,,,,,,,,,,,,,,,,,,,30,,,,,,,,365.78774180001346,365.78774180001346,365.78774180001346,365.78774180001346,365.78774180001346,right,0.31092840002384037,8,0,0,99,0.16,-0.4,right,0.24999159999424592,,,,,,,,,,,,,,,,,,,,,,,,,,,,,,,,,A,train_x,x_increasing_steps,top_left,2024-10-29_21h53.21.681,HideSeek_v1,2022.2.5,60.14136829154068,
,1,0,4,0,3,0,46,,train_dim1_1,9,30,5,0,5,0,,,,,,,,,0,0,0,0,0,8,8,8,3,0,3,0,,,,,,,,,,,,,,,,,,,,,,,,,,,,,,,,,,,,,,,,,,,,,,,,,,,,30,,,,,,,,366.10489840002265,366.10489840002265,366.10489840002265,366.10489840002265,366.10489840002265,return,0.2940472000045702,9,0,0,1,0.16,-0.4,return,0.22527689998969436,0,88,0.16,-0.4,,,,,,,,,,,,,,,,,,,,,,,,,,,,,A,train_x,x_increasing_steps,top_left,2024-10-29_21h53.21.681,HideSeek_v1,2022.2.5,60.14136829154068,
,0,3,0,3,0,0,16,,train_dim1_1,10,30,5,0,5,0,,,,,,,,,0,0,0,0,0,9,9,9,0,0,0,0,,,,,,,,,,,,,stimuli/alien_stimuli/16.png,,,,,,,,,,,,,,,,,,,,,,,,,,,,,stimuli/alien_stimuli/46.png,46,1,11,,,,,,,30,,,,,,,,370.89664360001916,370.89664360001916,370.89664360001916,370.89664360001916,370.89664360001916,return,0.991113799973391,10,0,0,1,-0.16,-0.16,return,0.9013148000231013,0,88,-0.16,-0.16,369.3373567000381,0.16,-0.4,0.0,0.24,-0.4,0.16,0.04,0.16,-0.4,367.99236850003945,367.99236850003945,367.99236850003945,367.99236850003945,367.99236850003945,367.99236850003945,367.99236850003945,367.99236850003945,367.92116158000425,1.4686620999709703,return,1.3150583999813534,370.89664360001916,,,,,,A,train_x,x_increasing_steps,top_left,2024-10-29_21h53.21.681,HideSeek_v1,2022.2.5,60.14136829154068,
,2,2,4,2,2,0,36,,train_dim1_1,11,30,5,0,5,0,,,,,,,,,0,0,0,0,0,10,10,10,0,0,0,0,,,,,,,,,,,,,stimuli/alien_stimuli/36.png,,,,,,,,,,,,,,,,,,,,,,,,,,,,,stimuli/alien_stimuli/16.png,16,0,12,,,,,,,30,,,,,,,,378.2179056000314,378.2179056000314,378.2179056000314,378.2179056000314,378.2179056000314,right,2.8750843000016175,10,0,0,99,0.08,-0.24,right,2.778079900017474,,,,,376.6537434000056,-0.16,-0.16,0.0,0.0,-0.16,-0.16,-0.16,-0.16,-0.16,373.470583300048,373.470583300048,373.470583300048,373.470583300048,373.470583300048,373.470583300048,373.470583300048,373.470583300048,373.4045346500061,3.3179890000028536,return,3.1510638000327162,378.2179056000314,,,,,,A,train_x,x_increasing_steps,top_left,2024-10-29_21h53.21.681,HideSeek_v1,2022.2.5,60.14136829154068,
,2,2,4,2,2,0,36,,train_dim1_1,11,30,5,0,5,0,,,,,,,,,0,0,0,0,0,10,10,10,1,0,1,0,,,,,,,,,,,,,,,,,,,,,,,,,,,,,,,,,,,,,,,,,,,,,,,,,,,,30,,,,,,,,381.0749470000155,381.0749470000155,381.0749470000155,381.0749470000155,381.0749470000155,right,0.5598399000009522,10,0,0,99,0.16,-0.24,right,0.48844200000166893,,,,,,,,,,,,,,,,,,,,,,,,,,,,,,,,,A,train_x,x_increasing_steps,top_left,2024-10-29_21h53.21.681,HideSeek_v1,2022.2.5,60.14136829154068,
,2,2,4,2,2,0,36,,train_dim1_1,11,30,5,0,5,0,,,,,,,,,0,0,0,0,0,10,10,10,2,0,2,0,,,,,,,,,,,,,,,,,,,,,,,,,,,,,,,,,,,,,,,,,,,,,,,,,,,,30,,,,,,,,381.6408612000523,381.6408612000523,381.6408612000523,381.6408612000523,381.6408612000523,return,0.360960400023032,11,0,0,1,0.16,-0.24,return,0.2925706999958493,0,90,0.16,-0.24,,,,,,,,,,,,,,,,,,,,,,,,,,,,,A,train_x,x_increasing_steps,top_left,2024-10-29_21h53.21.681,HideSeek_v1,2022.2.5,60.14136829154068,
