trialInstr,x_fixStart,y_fixStart,x_corrSteps,y_corrSteps,x_nrSteps,y_nrSteps,alienID,trialLength,version,trialTrain,praclen,beforeExpLoop.thisRepN,beforeExpLoop.thisTrialN,beforeExpLoop.thisN,beforeExpLoop.thisIndex,mini_instr_trials.thisRepN,mini_instr_trials.thisTrialN,mini_instr_trials.thisN,mini_instr_trials.thisIndex,instrLoop.thisRepN,instrLoop.thisTrialN,instrLoop.thisN,instrLoop.thisIndex,repeat_prac.thisRepN,repeat_prac.thisTrialN,repeat_prac.thisN,repeat_prac.thisIndex,trainLoop.thisRepN,trainLoop.thisTrialN,trainLoop.thisN,trainLoop.thisIndex,moveLoop_train.thisRepN,moveLoop_train.thisTrialN,moveLoop_train.thisN,moveLoop_train.thisIndex,start_all_time,url,slideStim,audioStim,slides.started,sounds.started,nextButton.numClicks,nextButton.timesOn,nextButton.timesOff,prev_but.numClicks,prev_but.timesOn,prev_but.timesOff,alienStim,instrFile,alienStim_instr,gridImage_instr.started,startPos_3.started,key_instr.started,alienImage_3.started,sounds_1.started,key_instr.keys,key_instr.rt,all_x,all_y,FBy_corrSteps,FBy_fixStart,FBx_corrSteps,FBx_fixStart,FBy_pathSize_check,FBx_pathSize_check,gridImage_9.started,alienImageFB_3.started,startPosFB_3.started,keyFB_3.started,pathLine_ydir_2.started,pathLine_xdir_2.started,alienFace_3.started,sounds_2.started,RTFB_instr,keyFB_3.keys,keyFB_3.rt,draw_alienStim,draw_alienID,test_x,nrepcount,perfthres,percthres,earlierperf,earlystop,nextPrac,fileidx,praclen,saveACC_train,pracFile,nextPrac_train,addNrep,fileidx_endr,repExp,showearly,gridImage_4.started,startPos.started,movePos.started,key_resp.started,alienImage.started,buttonPress_train,RTchoice_train,cumAcctrain,aCorr,saveACC_choice,corrAns,x_movePos_end,y_movePos_end,key_resp.keys,key_resp.rt,wLy_dir,wLx_dir,x_movePos,y_movePos,text_2.started,text_2.stopped,aft_x_corrPos,aft_y_corrPos,y_pathSize_check,x_pathSize_check,y_pathdirY,x_pathdirY,x_pathdirX,x_corrPos,y_corrPos,gridImage_6.started,alienImageFB_2.started,startPosFB_2.started,movePosFB_2.started,keyFB_2.started,pathLine_xdir.started,pathLine_ydir.started,alienFace.started,sounds_4.started,RT_FBtrain,keyFB_2.keys,keyFB_2.rt,saveACC_pre,ACC,within_saveACC_train,earlystop_wloop,cumAcctrain_check,participant,train_first,direction of x,starting corner,date,expName,psychopyVersion,frameRate,
,,,,,,,,,,,,0,0,0,0,0,0,0,0,,,,,,,,,,,,,,,,,start_all_time,testround,conditions/schedules/train_x_first/x_increasing_steps/top_left/instructions/Slide1.png,conditions/schedules/train_x_first/x_increasing_steps/top_left/instructions/Audio1.wav,58.22541319997981,58.1709357201471,1,[164.70876589999534],[164.70878079999238],0,,,,,,,,,,,,,,,,,,,,,,,,,,,,,,,,,,,,,,,,,,,,,,,,,,,,,,,,,,,,,,,,,,,,,,,,,,,,,,,,,,,,,,,,,,,,,,,,,A,train_x,x_increasing_steps,top_left,2024-10-29_22h27.15.265,HideSeek_v1,2022.2.5,60.12148147360831,
,,,,,,,,,,,,0,0,0,0,1,0,1,0,,,,,,,,,,,,,,,,,,,conditions/schedules/train_x_first/x_increasing_steps/top_left/instructions/Slide2.png,conditions/schedules/train_x_first/x_increasing_steps/top_left/instructions/Audio2.wav,222.95225460000802,222.9521143999882,2,"[164.70876589999534, 2.1504118000157177]","[1.0836300000082701, 2.15041800000472]",0,,,,,,,,,,,,,,,,,,,,,,,,,,,,,,,,,,,,,,,,,,,,,,,,,,,,,,,,,,,,,,,,,,,,,,,,,,,,,,,,,,,,,,,,,,,,,,,,,A,train_x,x_increasing_steps,top_left,2024-10-29_22h27.15.265,HideSeek_v1,2022.2.5,60.12148147360831,
,,,,,,,,,,,,0,0,0,0,2,0,2,0,,,,,,,,,,,,,,,,,,,conditions/schedules/train_x_first/x_increasing_steps/top_left/instructions/Slide3.png,conditions/schedules/train_x_first/x_increasing_steps/top_left/instructions/Audio3.wav,225.16894140001386,225.1523366799811,3,"[164.70876589999534, 2.1504118000157177, 0.23846149997552857]","[1.0836300000082701, 0.02201349998358637, 0.2384685999713838]",0,,,,,,,,,,,,,,,,,,,,,,,,,,,,,,,,,,,,,,,,,,,,,,,,,,,,,,,,,,,,,,,,,,,,,,,,,,,,,,,,,,,,,,,,,,,,,,,,,A,train_x,x_increasing_steps,top_left,2024-10-29_22h27.15.265,HideSeek_v1,2022.2.5,60.12148147360831,
,,,,,,,,,,,,0,0,0,0,3,0,3,0,,,,,,,,,,,,,,,,,,,conditions/schedules/train_x_first/x_increasing_steps/top_left/instructions/Slide4.png,conditions/schedules/train_x_first/x_increasing_steps/top_left/instructions/Audio4.wav,225.45257590000983,225.452093579981,4,"[164.70876589999534, 2.1504118000157177, 0.23846149997552857, 0.16738569998415187]","[1.0836300000082701, 0.02201349998358637, 0.00020319997565820813, 0.16739309998229146]",0,,,,,,,,,,,,,,,,,,,,,,,,,,,,,,,,,,,,,,,,,,,,,,,,,,,,,,,,,,,,,,,,,,,,,,,,,,,,,,,,,,,,,,,,,,,,,,,,,A,train_x,x_increasing_steps,top_left,2024-10-29_22h27.15.265,HideSeek_v1,2022.2.5,60.12148147360831,
,,,,,,,,,,,,0,0,0,0,4,0,4,0,,,,,,,,,,,,,,,,,,,conditions/schedules/train_x_first/x_increasing_steps/top_left/instructions/Slide5.png,conditions/schedules/train_x_first/x_increasing_steps/top_left/instructions/Audio5.wav,225.65636179997819,225.65261016000295,5,"[164.70876589999534, 2.1504118000157177, 0.23846149997552857, 0.16738569998415187, 0.14351449999958277]","[1.0836300000082701, 0.02201349998358637, 0.00020319997565820813, 0.013263900007586926, 0.1435217999969609]",0,,,,,,,,,,,,,,,,,,,,,,,,,,,,,,,,,,,,,,,,,,,,,,,,,,,,,,,,,,,,,,,,,,,,,,,,,,,,,,,,,,,,,,,,,,,,,,,,,A,train_x,x_increasing_steps,top_left,2024-10-29_22h27.15.265,HideSeek_v1,2022.2.5,60.12148147360831,
,,,,,,,,,,,,0,0,0,0,5,0,5,0,,,,,,,,,,,,,,,,,,,conditions/schedules/train_x_first/x_increasing_steps/top_left/instructions/Slide6.png,conditions/schedules/train_x_first/x_increasing_steps/top_left/instructions/Audio6.wav,225.85325619997457,225.8359652599902,6,"[164.70876589999534, 2.1504118000157177, 0.23846149997552857, 0.16738569998415187, 0.14351449999958277, 0.140084000013303]","[1.0836300000082701, 0.02201349998358637, 0.00020319997565820813, 0.013263900007586926, 0.00024969998048618436, 0.14008969999849796]",0,,,,,,,,,,,,,,,,,,,,,,,,,,,,,,,,,,,,,,,,,,,,,,,,,,,,,,,,,,,,,,,,,,,,,,,,,,,,,,,,,,,,,,,,,,,,,,,,,A,train_x,x_increasing_steps,top_left,2024-10-29_22h27.15.265,HideSeek_v1,2022.2.5,60.12148147360831,
,,,,,,,,,,,,0,0,0,0,6,0,6,0,,,,,,,,,,,,,,,,,,,conditions/schedules/train_x_first/x_increasing_steps/top_left/instructions/Slide7.png,conditions/schedules/train_x_first/x_increasing_steps/top_left/instructions/Audio7.wav,226.03570150001906,226.01863026001956,7,"[164.70876589999534, 2.1504118000157177, 0.23846149997552857, 0.16738569998415187, 0.14351449999958277, 0.140084000013303, 0.14204120001522824]","[1.0836300000082701, 0.02201349998358637, 0.00020319997565820813, 0.013263900007586926, 0.00024969998048618436, 0.00018909998470917344, 0.1420475000049919]",0,,,,,,,,,,,,,,,,,,,,,,,,,,,,,,,,,,,,,,,,,,,,,,,,,,,,,,,,,,,,,,,,,,,,,,,,,,,,,,,,,,,,,,,,,,,,,,,,,A,train_x,x_increasing_steps,top_left,2024-10-29_22h27.15.265,HideSeek_v1,2022.2.5,60.12148147360831,
,,,,,,,,,,,,0,0,0,0,7,0,7,0,,,,,,,,,,,,,,,,,,,conditions/schedules/train_x_first/x_increasing_steps/top_left/instructions/Slide8.png,conditions/schedules/train_x_first/x_increasing_steps/top_left/instructions/Audio8.wav,226.21943389996886,226.2019739599782,8,"[164.70876589999534, 2.1504118000157177, 0.23846149997552857, 0.16738569998415187, 0.14351449999958277, 0.140084000013303, 0.14204120001522824, 0.12549409997882321]","[1.0836300000082701, 0.02201349998358637, 0.00020319997565820813, 0.013263900007586926, 0.00024969998048618436, 0.00018909998470917344, 0.00019390002125874162, 0.12549990002298728]",0,,,,,,,,,,,,,,,,,,,,,,,,,,,,,,,,,,,,,,,,,,,,,,,,,,,,,,,,,,,,,,,,,,,,,,,,,,,,,,,,,,,,,,,,,,,,,,,,,A,train_x,x_increasing_steps,top_left,2024-10-29_22h27.15.265,HideSeek_v1,2022.2.5,60.12148147360831,
,,,,,,,,,,,,0,0,0,0,8,0,8,0,,,,,,,,,,,,,,,,,,,conditions/schedules/train_x_first/x_increasing_steps/top_left/instructions/Slide9.png,conditions/schedules/train_x_first/x_increasing_steps/top_left/instructions/Audio9.wav,226.38611079996917,226.3691463600262,9,"[164.70876589999534, 2.1504118000157177, 0.23846149997552857, 0.16738569998415187, 0.14351449999958277, 0.140084000013303, 0.14204120001522824, 0.12549409997882321, 0.14147039997624233]","[1.0836300000082701, 0.02201349998358637, 0.00020319997565820813, 0.013263900007586926, 0.00024969998048618436, 0.00018909998470917344, 0.00019390002125874162, 0.00018879998242482543, 0.14147629996296018]",0,,,,,,,,,,,,,,,,,,,,,,,,,,,,,,,,,,,,,,,,,,,,,,,,,,,,,,,,,,,,,,,,,,,,,,,,,,,,,,,,,,,,,,,,,,,,,,,,,A,train_x,x_increasing_steps,top_left,2024-10-29_22h27.15.265,HideSeek_v1,2022.2.5,60.12148147360831,
,,,,,,,,,,,,0,0,0,0,9,0,9,0,,,,,,,,,,,,,,,,,,,conditions/schedules/train_x_first/x_increasing_steps/top_left/instructions/Slide10.png,conditions/schedules/train_x_first/x_increasing_steps/top_left/instructions/Audio10.wav,226.5526119999704,226.53588083997602,10,"[164.70876589999534, 2.1504118000157177, 0.23846149997552857, 0.16738569998415187, 0.14351449999958277, 0.140084000013303, 0.14204120001522824, 0.12549409997882321, 0.14147039997624233, 0.1549824999528937]","[1.0836300000082701, 0.02201349998358637, 0.00020319997565820813, 0.013263900007586926, 0.00024969998048618436, 0.00018909998470917344, 0.00019390002125874162, 0.00018879998242482543, 0.00019999995129182935, 0.1549898999510333]",0,,,,,,,,,,,,,,,,,,,,,,,,,,,,,,,,,,,,,,,,,,,,,,,,,,,,,,,,,,,,,,,,,,,,,,,,,,,,,,,,,,,,,,,,,,,,,,,,,A,train_x,x_increasing_steps,top_left,2024-10-29_22h27.15.265,HideSeek_v1,2022.2.5,60.12148147360831,
,,,,,,,,,,,,0,0,0,0,10,0,10,0,,,,,,,,,,,,,,,,,,,conditions/schedules/train_x_first/x_increasing_steps/top_left/instructions/Slide11.png,conditions/schedules/train_x_first/x_increasing_steps/top_left/instructions/Audio11.wav,226.75298370001838,226.7357509600115,11,"[164.70876589999534, 2.1504118000157177, 0.23846149997552857, 0.16738569998415187, 0.14351449999958277, 0.140084000013303, 0.14204120001522824, 0.12549409997882321, 0.14147039997624233, 0.1549824999528937, 0.12565450003603473]","[1.0836300000082701, 0.02201349998358637, 0.00020319997565820813, 0.013263900007586926, 0.00024969998048618436, 0.00018909998470917344, 0.00019390002125874162, 0.00018879998242482543, 0.00019999995129182935, 0.1549898999510333, 0.12566070002503693]",0,,,,,,,,,,,,,,,,,,,,,,,,,,,,,,,,,,,,,,,,,,,,,,,,,,,,,,,,,,,,,,,,,,,,,,,,,,,,,,,,,,,,,,,,,,,,,,,,,A,train_x,x_increasing_steps,top_left,2024-10-29_22h27.15.265,HideSeek_v1,2022.2.5,60.12148147360831,
,,,,,,,,,,,,0,0,0,0,11,0,11,0,,,,,,,,,,,,,,,,,,,conditions/schedules/train_x_first/x_increasing_steps/top_left/instructions/Slide12.png,conditions/schedules/train_x_first/x_increasing_steps/top_left/instructions/Audio12.wav,226.91915169998538,226.9030516599887,12,"[164.70876589999534, 2.1504118000157177, 0.23846149997552857, 0.16738569998415187, 0.14351449999958277, 0.140084000013303, 0.14204120001522824, 0.12549409997882321, 0.14147039997624233, 0.1549824999528937, 0.12565450003603473, 0.1544253000174649]","[1.0836300000082701, 0.02201349998358637, 0.00020319997565820813, 0.013263900007586926, 0.00024969998048618436, 0.00018909998470917344, 0.00019390002125874162, 0.00018879998242482543, 0.00019999995129182935, 0.1549898999510333, 0.12566070002503693, 0.15443100000265986]",0,,,,,,,,,,,,,,,,,,,,,,,,,,,,,,,,,,,,,,,,,,,,,,,,,,,,,,,,,,,,,,,,,,,,,,,,,,,,,,,,,,,,,,,,,,,,,,,,,A,train_x,x_increasing_steps,top_left,2024-10-29_22h27.15.265,HideSeek_v1,2022.2.5,60.12148147360831,
1,3,2,8,2,5,0,66,2,instr_dim1_1,,,0,0,0,0,,,,,0,0,0,0,,,,,,,,,,,,,,,,,,,,,,,,,stimuli/alien_stimuli/66.png,conditions/schedules/train_x_first/x_increasing_steps/top_left/inputInstr_1.xlsx,stimuli/alien_stimuli/66.png,227.16934560000664,227.16934560000664,227.16934560000664,227.16934560000664,227.1192460799939,return,4.2999926000484265,"[-0.16, -0.08, 0, 0.08, 0.16, 0.24, 0.32, 0.4, 0.48, 0.56]","[-0.4, -0.32, -0.24, -0.16, -0.08, 0, 0.08, 0.16, 0.24, 0.32]",2,2,8,3,0.0,0.4,231.60328229999868,231.60328229999868,231.60328229999868,231.60328229999868,231.60328229999868,231.60328229999868,231.60328229999868,231.56918642000528,0.9343009000294842,return,0.7868752999929711,stimuli/alien_stimuli/66.png,66,3,1,,,,,,,,,,,,,,,,,,,,,,,,,,,,,,,,,,,,,,,,,,,,,,,,,,,,,,,,,,,,,,A,train_x,x_increasing_steps,top_left,2024-10-29_22h27.15.265,HideSeek_v1,2022.2.5,60.12148147360831,
,,,,,,,,,,,30,0,0,0,0,,,,,,,,,,,,,,,,,,,,,,,,,,,,,,,,,,,,,,,,,,,,,,,,,,,,,,,,,,,,,,,,,,17,0.7,0,0,99,1,30,0,conditions/schedules/train_x_first/x_increasing_steps/top_left/inputTrain_1.1.xlsx,99,1,1,1,0,,,,,,,,,,,,,,,,,,,,,,,,,,,,,,,,,,,,,,,,,,,,,,,,A,train_x,x_increasing_steps,top_left,2024-10-29_22h27.15.265,HideSeek_v1,2022.2.5,60.12148147360831,
,,,,,,,,,,,,1,0,1,0,0,0,0,0,,,,,,,,,,,,,,,,,,,conditions/schedules/train_x_first/x_increasing_steps/top_left/instructions/Slide13.png,conditions/schedules/train_x_first/x_increasing_steps/top_left/instructions/Audio13.wav,232.569410600001,232.569731399999,13,"[164.70876589999534, 2.1504118000157177, 0.23846149997552857, 0.16738569998415187, 0.14351449999958277, 0.140084000013303, 0.14204120001522824, 0.12549409997882321, 0.14147039997624233, 0.1549824999528937, 0.12565450003603473, 0.1544253000174649, 1.362561399990227]","[1.0836300000082701, 0.02201349998358637, 0.00020319997565820813, 0.013263900007586926, 0.00024969998048618436, 0.00018909998470917344, 0.00019390002125874162, 0.00018879998242482543, 0.00019999995129182935, 0.1549898999510333, 0.12566070002503693, 0.15443100000265986, 1.3625687999883667]",0,,,,,,,,,,,,,,,,,,,,,,,,,,,,,,,,,,,,,,,,,,,,,,,,,,,,,,,,,,,,,,,,,,,,,,,,,,,,,,,,,,,,,,,,,,,,,,,,,A,train_x,x_increasing_steps,top_left,2024-10-29_22h27.15.265,HideSeek_v1,2022.2.5,60.12148147360831,
,,,,,,,,,,,,1,0,1,0,1,0,1,0,,,,,,,,,,,,,,,,,,,conditions/schedules/train_x_first/x_increasing_steps/top_left/instructions/Slide14.png,conditions/schedules/train_x_first/x_increasing_steps/top_left/instructions/Audio14.wav,233.98583439999493,233.96892536000814,14,"[164.70876589999534, 2.1504118000157177, 0.23846149997552857, 0.16738569998415187, 0.14351449999958277, 0.140084000013303, 0.14204120001522824, 0.12549409997882321, 0.14147039997624233, 0.1549824999528937, 0.12565450003603473, 0.1544253000174649, 1.362561399990227, 0.9064203999587335]","[1.0836300000082701, 0.02201349998358637, 0.00020319997565820813, 0.013263900007586926, 0.00024969998048618436, 0.00018909998470917344, 0.00019390002125874162, 0.00018879998242482543, 0.00019999995129182935, 0.1549898999510333, 0.12566070002503693, 0.15443100000265986, 0.1554007999948226, 0.9064289999660105]",0,,,,,,,,,,,,,,,,,,,,,,,,,,,,,,,,,,,,,,,,,,,,,,,,,,,,,,,,,,,,,,,,,,,,,,,,,,,,,,,,,,,,,,,,,,,,,,,,,A,train_x,x_increasing_steps,top_left,2024-10-29_22h27.15.265,HideSeek_v1,2022.2.5,60.12148147360831,
2,4,0,4,0,0,0,16,2,instr_dim1_1,,,1,0,1,0,,,,,0,0,0,0,,,,,,,,,,,,,,,,,,,,,,,,,stimuli/alien_stimuli/16.png,conditions/schedules/train_x_first/x_increasing_steps/top_left/inputInstr_1.xlsx,stimuli/alien_stimuli/16.png,234.96859050000785,234.96859050000785,234.96859050000785,234.96859050000785,234.93573238002136,return,1.0021146000362933,"[-0.16, -0.08, 0, 0.08, 0.16, 0.24, 0.32, 0.4, 0.48, 0.56]","[-0.4, -0.32, -0.24, -0.16, -0.08, 0, 0.08, 0.16, 0.24, 0.32]",0,0,4,4,0.0,0.0,236.15277420001803,236.15277420001803,236.15277420001803,236.15277420001803,236.15277420001803,236.15277420001803,236.15277420001803,236.08574131998466,0.9178474000073038,return,0.7474879000219516,stimuli/alien_stimuli/16.png,16,4,2,,,,,,,,,,,,,,,,,,,,,,,,,,,,,,,,,,,,,,,,,,,,,,,,,,,,,,,,,,,,,,A,train_x,x_increasing_steps,top_left,2024-10-29_22h27.15.265,HideSeek_v1,2022.2.5,60.12148147360831,
,,,,,,,,,,,30,1,0,1,0,,,,,,,,,,,,,,,,,,,,,,,,,,,,,,,,,,,,,,,,,,,,,,,,,,,,,,,,,,,,,,,,,,17,0.7,0,0,99,1,30,0,conditions/schedules/train_x_first/x_increasing_steps/top_left/inputTrain_1.1.xlsx,99,1,1,1,0,,,,,,,,,,,,,,,,,,,,,,,,,,,,,,,,,,,,,,,,,,,,,,,,A,train_x,x_increasing_steps,top_left,2024-10-29_22h27.15.265,HideSeek_v1,2022.2.5,60.12148147360831,
,,,,,,,,,,,,2,0,2,0,0,0,0,0,,,,,,,,,,,,,,,,,,,conditions/schedules/train_x_first/x_increasing_steps/top_left/instructions/Slide15.png,conditions/schedules/train_x_first/x_increasing_steps/top_left/instructions/Audio15.wav,237.07112420001067,237.06912659999216,15,"[164.70876589999534, 2.1504118000157177, 0.23846149997552857, 0.16738569998415187, 0.14351449999958277, 0.140084000013303, 0.14204120001522824, 0.12549409997882321, 0.14147039997624233, 0.1549824999528937, 0.12565450003603473, 0.1544253000174649, 1.362561399990227, 0.9064203999587335, 3.861102700000629]","[1.0836300000082701, 0.02201349998358637, 0.00020319997565820813, 0.013263900007586926, 0.00024969998048618436, 0.00018909998470917344, 0.00019390002125874162, 0.00018879998242482543, 0.00019999995129182935, 0.1549898999510333, 0.12566070002503693, 0.15443100000265986, 0.1554007999948226, 0.9064289999660105, 3.861109299992677]",0,,,,,,,,,,,,,,,,,,,,,,,,,,,,,,,,,,,,,,,,,,,,,,,,,,,,,,,,,,,,,,,,,,,,,,,,,,,,,,,,,,,,,,,,,,,,,,,,,A,train_x,x_increasing_steps,top_left,2024-10-29_22h27.15.265,HideSeek_v1,2022.2.5,60.12148147360831,
,,,,,,,,,,,,2,0,2,0,1,0,1,0,,,,,,,,,,,,,,,,,,,conditions/schedules/train_x_first/x_increasing_steps/top_left/instructions/Slide16.png,conditions/schedules/train_x_first/x_increasing_steps/top_left/instructions/Audio16.wav,241.02526219998254,241.01858431997243,16,"[164.70876589999534, 2.1504118000157177, 0.23846149997552857, 0.16738569998415187, 0.14351449999958277, 0.140084000013303, 0.14204120001522824, 0.12549409997882321, 0.14147039997624233, 0.1549824999528937, 0.12565450003603473, 0.1544253000174649, 1.362561399990227, 0.9064203999587335, 3.861102700000629, 3.2902941999491304]","[1.0836300000082701, 0.02201349998358637, 0.00020319997565820813, 0.013263900007586926, 0.00024969998048618436, 0.00018909998470917344, 0.00019390002125874162, 0.00018879998242482543, 0.00019999995129182935, 0.1549898999510333, 0.12566070002503693, 0.15443100000265986, 0.1554007999948226, 0.9064289999660105, 0.05640359997050837, 3.2903014000039548]",0,,,,,,,,,,,,,,,,,,,,,,,,,,,,,,,,,,,,,,,,,,,,,,,,,,,,,,,,,,,,,,,,,,,,,,,,,,,,,,,,,,,,,,,,,,,,,,,,,A,train_x,x_increasing_steps,top_left,2024-10-29_22h27.15.265,HideSeek_v1,2022.2.5,60.12148147360831,
,2,1,4,1,2,0,36,,train_dim1_1,1,30,2,0,2,0,,,,,,,,,0,0,0,0,0,0,0,0,0,0,0,0,,,,,,,,,,,,,stimuli/alien_stimuli/36.png,,,,,,,,,,,,,,,,,,,,,,,,,,,,,,,,,,,,,,,30,,,,,,,,244.385632599995,244.385632599995,244.385632599995,244.385632599995,244.385632599995,right,1.6482084000017494,0,0,0,99,0.08,-0.32,right,1.5701315999613144,,,,,,,,,,,,,,,,,,,,,,,,,,,,,,,,,A,train_x,x_increasing_steps,top_left,2024-10-29_22h27.15.265,HideSeek_v1,2022.2.5,60.12148147360831,
,2,1,4,1,2,0,36,,train_dim1_1,1,30,2,0,2,0,,,,,,,,,0,0,0,0,0,0,0,0,1,0,1,0,,,,,,,,,,,,,,,,,,,,,,,,,,,,,,,,,,,,,,,,,,,,,,,,,,,,30,,,,,,,,246.0362266000011,246.0362266000011,246.0362266000011,246.0362266000011,246.0362266000011,right,0.260655099991709,0,0,0,99,0.16,-0.32,right,0.19681980001041666,,,,,,,,,,,,,,,,,,,,,,,,,,,,,,,,,A,train_x,x_increasing_steps,top_left,2024-10-29_22h27.15.265,HideSeek_v1,2022.2.5,60.12148147360831,
,2,1,4,1,2,0,36,,train_dim1_1,1,30,2,0,2,0,,,,,,,,,0,0,0,0,0,0,0,0,2,0,2,0,,,,,,,,,,,,,,,,,,,,,,,,,,,,,,,,,,,,,,,,,,,,,,,,,,,,30,,,,,,,,246.30306160001783,246.30306160001783,246.30306160001783,246.30306160001783,246.30306160001783,return,0.2943525000009686,1,0,0,1,0.16,-0.32,return,0.22097159997792915,0,2,0.16,-0.32,,,,,,,,,,,,,,,,,,,,,,,,,,,,,A,train_x,x_increasing_steps,top_left,2024-10-29_22h27.15.265,HideSeek_v1,2022.2.5,60.12148147360831,
,2,4,2,4,0,0,16,,train_dim1_1,2,30,2,0,2,0,,,,,,,,,0,0,0,0,0,1,1,1,0,0,0,0,,,,,,,,,,,,,stimuli/alien_stimuli/16.png,,,,,,,,,,,,,,,,,,,,,,,,,,,,,stimuli/alien_stimuli/36.png,36,2,3,,,,,,,30,,,,,,,,250.1649796999991,250.1649796999991,250.1649796999991,250.1649796999991,250.1649796999991,return,1.008470100001432,2,0,0,1,0,-0.08,return,0.9155505000380799,0,2,0,-0.08,248.60229010001058,250.1649796999991,0.16,-0.32,0.0,0.16,-0.32,0.16,0.08,0.16,-0.32,248.22226199996658,248.22226199996658,248.22226199996658,248.22226199996658,248.22226199996658,248.22226199996658,248.22226199996658,248.22226199996658,248.16909664002014,0.5347083000233397,return,0.35499979997985065,,,,,,A,train_x,x_increasing_steps,top_left,2024-10-29_22h27.15.265,HideSeek_v1,2022.2.5,60.12148147360831,
,4,4,5,4,1,0,26,,train_dim1_1,3,30,2,0,2,0,,,,,,,,,0,0,0,0,0,2,2,2,0,0,0,0,,,,,,,,,,,,,stimuli/alien_stimuli/26.png,,,,,,,,,,,,,,,,,,,,,,,,,,,,,stimuli/alien_stimuli/16.png,16,2,4,,,,,,,30,,,,,,,,254.93583410000429,254.93583410000429,254.93583410000429,254.93583410000429,254.93583410000429,right,0.9416530000162311,2,0,0,99,0.24,-0.08,right,0.7908443000051193,,,,,253.3185415000189,254.93583410000429,0,-0.08,0.0,0.0,-0.08,0,0.0,0,-0.08,252.81856240000343,252.81856240000343,252.81856240000343,252.81856240000343,252.81856240000343,252.81856240000343,252.81856240000343,252.81856240000343,252.71870223997394,0.7026809999952093,return,0.4831813999917358,,,,,,A,train_x,x_increasing_steps,top_left,2024-10-29_22h27.15.265,HideSeek_v1,2022.2.5,60.12148147360831,
,4,4,5,4,1,0,26,,train_dim1_1,3,30,2,0,2,0,,,,,,,,,0,0,0,0,0,2,2,2,1,0,1,0,,,,,,,,,,,,,,,,,,,,,,,,,,,,,,,,,,,,,,,,,,,,,,,,,,,,30,,,,,,,,255.84359900001436,255.84359900001436,255.84359900001436,255.84359900001436,255.84359900001436,return,0.24380569998174906,3,0,0,1,0.24,-0.08,return,0.14152899995679036,0,3,0.24,-0.08,,,,,,,,,,,,,,,,,,,,,,,,,,,,,A,train_x,x_increasing_steps,top_left,2024-10-29_22h27.15.265,HideSeek_v1,2022.2.5,60.12148147360831,
,2,3,5,3,3,0,46,,train_dim1_1,4,30,2,0,2,0,,,,,,,,,0,0,0,0,0,3,3,3,0,0,0,0,,,,,,,,,,,,,stimuli/alien_stimuli/46.png,,,,,,,,,,,,,,,,,,,,,,,,,,,,,stimuli/alien_stimuli/26.png,26,4,5,,,,,,,30,,,,,,,,259.54490390000865,259.54490390000865,259.54490390000865,259.54490390000865,259.54490390000865,right,0.7918750999961048,3,0,0,99,0.08,-0.16,right,0.6964650999871083,,,,,257.98548590001883,259.54490390000865,0.24,-0.08,0.0,0.08,-0.08,0.24,0.2,0.24,-0.08,257.6850946000195,257.6850946000195,257.6850946000195,257.6850946000195,257.6850946000195,257.6850946000195,257.6850946000195,257.6850946000195,257.5851068000193,0.4702584999613464,return,0.2851496000075713,,,,,,A,train_x,x_increasing_steps,top_left,2024-10-29_22h27.15.265,HideSeek_v1,2022.2.5,60.12148147360831,
,2,3,5,3,3,0,46,,train_dim1_1,4,30,2,0,2,0,,,,,,,,,0,0,0,0,0,3,3,3,1,0,1,0,,,,,,,,,,,,,,,,,,,,,,,,,,,,,,,,,,,,,,,,,,,,,,,,,,,,30,,,,,,,,260.31863940000767,260.31863940000767,260.31863940000767,260.31863940000767,260.31863940000767,right,0.4103814999689348,3,0,0,99,0.16,-0.16,right,0.3454335000133142,,,,,,,,,,,,,,,,,,,,,,,,,,,,,,,,,A,train_x,x_increasing_steps,top_left,2024-10-29_22h27.15.265,HideSeek_v1,2022.2.5,60.12148147360831,
,2,3,5,3,3,0,46,,train_dim1_1,4,30,2,0,2,0,,,,,,,,,0,0,0,0,0,3,3,3,2,0,2,0,,,,,,,,,,,,,,,,,,,,,,,,,,,,,,,,,,,,,,,,,,,,,,,,,,,,30,,,,,,,,260.7345257999841,260.7345257999841,260.7345257999841,260.7345257999841,260.7345257999841,right,0.49395420000655577,3,0,0,99,0.24,-0.16,right,0.42617660004179925,,,,,,,,,,,,,,,,,,,,,,,,,,,,,,,,,A,train_x,x_increasing_steps,top_left,2024-10-29_22h27.15.265,HideSeek_v1,2022.2.5,60.12148147360831,
,2,3,5,3,3,0,46,,train_dim1_1,4,30,2,0,2,0,,,,,,,,,0,0,0,0,0,3,3,3,3,0,3,0,,,,,,,,,,,,,,,,,,,,,,,,,,,,,,,,,,,,,,,,,,,,,,,,,,,,30,,,,,,,,261.2345855999738,261.2345855999738,261.2345855999738,261.2345855999738,261.2345855999738,return,0.3115207999944687,4,0,0,1,0.24,-0.16,return,0.24048320000292733,0,6,0.24,-0.16,,,,,,,,,,,,,,,,,,,,,,,,,,,,,A,train_x,x_increasing_steps,top_left,2024-10-29_22h27.15.265,HideSeek_v1,2022.2.5,60.12148147360831,
,0,2,5,2,5,0,66,,train_dim1_1,5,30,2,0,2,0,,,,,,,,,0,0,0,0,0,4,4,4,0,0,0,0,,,,,,,,,,,,,stimuli/alien_stimuli/66.png,,,,,,,,,,,,,,,,,,,,,,,,,,,,,stimuli/alien_stimuli/46.png,46,2,6,,,,,,,30,,,,,,,,276.1517277000239,276.1517277000239,276.1517277000239,276.1517277000239,276.1517277000239,right,0.9583429000340402,4,0,0,99,-0.08,-0.24,right,0.8511633999878541,,,,,274.58480750001036,276.1517277000239,0.24,-0.16,0.0,0.24,-0.16,0.24,0.12,0.24,-0.16,263.1231800999958,263.1231800999958,263.1231800999958,263.1231800999958,263.1231800999958,263.1231800999958,263.1231800999958,263.1231800999958,263.08541920001153,11.568503200018313,return,11.43845129996771,,,,,,A,train_x,x_increasing_steps,top_left,2024-10-29_22h27.15.265,HideSeek_v1,2022.2.5,60.12148147360831,
,0,2,5,2,5,0,66,,train_dim1_1,5,30,2,0,2,0,,,,,,,,,0,0,0,0,0,4,4,4,1,0,1,0,,,,,,,,,,,,,,,,,,,,,,,,,,,,,,,,,,,,,,,,,,,,,,,,,,,,30,,,,,,,,277.0942476000055,277.0942476000055,277.0942476000055,277.0942476000055,277.0942476000055,right,0.3104615999618545,4,0,0,99,0.0,-0.24,right,0.22942769998917356,,,,,,,,,,,,,,,,,,,,,,,,,,,,,,,,,A,train_x,x_increasing_steps,top_left,2024-10-29_22h27.15.265,HideSeek_v1,2022.2.5,60.12148147360831,
,0,2,5,2,5,0,66,,train_dim1_1,5,30,2,0,2,0,,,,,,,,,0,0,0,0,0,4,4,4,2,0,2,0,,,,,,,,,,,,,,,,,,,,,,,,,,,,,,,,,,,,,,,,,,,,,,,,,,,,30,,,,,,,,277.41523290000623,277.41523290000623,277.41523290000623,277.41523290000623,277.41523290000623,right,0.3110031000105664,4,0,0,99,0.08,-0.24,right,0.23024420003639534,,,,,,,,,,,,,,,,,,,,,,,,,,,,,,,,,A,train_x,x_increasing_steps,top_left,2024-10-29_22h27.15.265,HideSeek_v1,2022.2.5,60.12148147360831,
,0,2,5,2,5,0,66,,train_dim1_1,5,30,2,0,2,0,,,,,,,,,0,0,0,0,0,4,4,4,3,0,3,0,,,,,,,,,,,,,,,,,,,,,,,,,,,,,,,,,,,,,,,,,,,,,,,,,,,,30,,,,,,,,277.72149440000067,277.72149440000067,277.72149440000067,277.72149440000067,277.72149440000067,right,0.31142299994826317,4,0,0,99,0.16,-0.24,right,0.23282480001216754,,,,,,,,,,,,,,,,,,,,,,,,,,,,,,,,,A,train_x,x_increasing_steps,top_left,2024-10-29_22h27.15.265,HideSeek_v1,2022.2.5,60.12148147360831,
,0,2,5,2,5,0,66,,train_dim1_1,5,30,2,0,2,0,,,,,,,,,0,0,0,0,0,4,4,4,4,0,4,0,,,,,,,,,,,,,,,,,,,,,,,,,,,,,,,,,,,,,,,,,,,,,,,,,,,,30,,,,,,,,278.0402062999783,278.0402062999783,278.0402062999783,278.0402062999783,278.0402062999783,right,0.29407419997733086,4,0,0,99,0.24,-0.24,right,0.22533049999037758,,,,,,,,,,,,,,,,,,,,,,,,,,,,,,,,,A,train_x,x_increasing_steps,top_left,2024-10-29_22h27.15.265,HideSeek_v1,2022.2.5,60.12148147360831,
,0,2,5,2,5,0,66,,train_dim1_1,5,30,2,0,2,0,,,,,,,,,0,0,0,0,0,4,4,4,5,0,5,0,,,,,,,,,,,,,,,,,,,,,,,,,,,,,,,,,,,,,,,,,,,,,,,,,,,,30,,,,,,,,278.3392883000197,278.3392883000197,278.3392883000197,278.3392883000197,278.3392883000197,return,0.27787639998132363,5,0,0,1,0.24,-0.24,return,0.2124000999610871,0,11,0.24,-0.24,,,,,,,,,,,,,,,,,,,,,,,,,,,,,A,train_x,x_increasing_steps,top_left,2024-10-29_22h27.15.265,HideSeek_v1,2022.2.5,60.12148147360831,
,0,0,1,0,1,0,26,,train_dim1_1,6,30,2,0,2,0,,,,,,,,,0,0,0,0,0,5,5,5,0,0,0,0,,,,,,,,,,,,,stimuli/alien_stimuli/26.png,,,,,,,,,,,,,,,,,,,,,,,,,,,,,stimuli/alien_stimuli/66.png,66,0,7,,,,,,,30,,,,,,,,282.36270679999143,282.36270679999143,282.36270679999143,282.36270679999143,282.36270679999143,right,2.609038900001906,5,0,0,99,-0.08,-0.4,right,2.5191624999861233,,,,,280.80183780001244,282.36270679999143,0.24,-0.24,0.0,0.4,-0.24,0.24,0.039999999999999994,0.24,-0.24,280.2012043999857,280.2012043999857,280.2012043999857,280.2012043999857,280.2012043999857,280.2012043999857,280.2012043999857,280.2012043999857,280.15163109998684,0.718353100004606,return,0.5723560000187717,,,,,,A,train_x,x_increasing_steps,top_left,2024-10-29_22h27.15.265,HideSeek_v1,2022.2.5,60.12148147360831,
,0,0,1,0,1,0,26,,train_dim1_1,6,30,2,0,2,0,,,,,,,,,0,0,0,0,0,5,5,5,1,0,1,0,,,,,,,,,,,,,,,,,,,,,,,,,,,,,,,,,,,,,,,,,,,,,,,,,,,,30,,,,,,,,284.96734400000423,284.96734400000423,284.96734400000423,284.96734400000423,284.96734400000423,return,0.37732060003327206,6,0,0,1,-0.08,-0.4,return,0.29018880001967773,0,12,-0.08,-0.4,,,,,,,,,,,,,,,,,,,,,,,,,,,,,A,train_x,x_increasing_steps,top_left,2024-10-29_22h27.15.265,HideSeek_v1,2022.2.5,60.12148147360831,
,3,0,8,0,5,0,66,,train_dim1_1,7,30,2,0,2,0,,,,,,,,,0,0,0,0,0,6,6,6,0,0,0,0,,,,,,,,,,,,,stimuli/alien_stimuli/66.png,,,,,,,,,,,,,,,,,,,,,,,,,,,,,stimuli/alien_stimuli/26.png,26,0,8,,,,,,,30,,,,,,,,289.8792723999941,289.8792723999941,289.8792723999941,289.8792723999941,289.8792723999941,right,2.241888199991081,6,0,0,99,0.16,-0.4,right,2.1403343999991193,,,,,288.3183823999716,289.8792723999941,-0.08,-0.4,0.0,0.08,-0.4,-0.08,-0.12,-0.08,-0.4,286.9154427999747,286.9154427999747,286.9154427999747,286.9154427999747,286.9154427999747,286.9154427999747,286.9154427999747,286.9154427999747,286.86785330000566,1.5186737999902107,return,1.3726812999811955,,,,,,A,train_x,x_increasing_steps,top_left,2024-10-29_22h27.15.265,HideSeek_v1,2022.2.5,60.12148147360831,
,3,0,8,0,5,0,66,,train_dim1_1,7,30,2,0,2,0,,,,,,,,,0,0,0,0,0,6,6,6,1,0,1,0,,,,,,,,,,,,,,,,,,,,,,,,,,,,,,,,,,,,,,,,,,,,,,,,,,,,30,,,,,,,,292.1072541999747,292.1072541999747,292.1072541999747,292.1072541999747,292.1072541999747,right,0.5268475000048056,6,0,0,99,0.24,-0.4,right,0.45495359995402396,,,,,,,,,,,,,,,,,,,,,,,,,,,,,,,,,A,train_x,x_increasing_steps,top_left,2024-10-29_22h27.15.265,HideSeek_v1,2022.2.5,60.12148147360831,
,3,0,8,0,5,0,66,,train_dim1_1,7,30,2,0,2,0,,,,,,,,,0,0,0,0,0,6,6,6,2,0,2,0,,,,,,,,,,,,,,,,,,,,,,,,,,,,,,,,,,,,,,,,,,,,,,,,,,,,30,,,,,,,,292.6403195000021,292.6403195000021,292.6403195000021,292.6403195000021,292.6403195000021,right,0.41098929999861866,6,0,0,99,0.32,-0.4,right,0.34293240000260994,,,,,,,,,,,,,,,,,,,,,,,,,,,,,,,,,A,train_x,x_increasing_steps,top_left,2024-10-29_22h27.15.265,HideSeek_v1,2022.2.5,60.12148147360831,
,3,0,8,0,5,0,66,,train_dim1_1,7,30,2,0,2,0,,,,,,,,,0,0,0,0,0,6,6,6,3,0,3,0,,,,,,,,,,,,,,,,,,,,,,,,,,,,,,,,,,,,,,,,,,,,,,,,,,,,30,,,,,,,,293.05669870000565,293.05669870000565,293.05669870000565,293.05669870000565,293.05669870000565,right,0.4104835000471212,6,0,0,99,0.4,-0.4,right,0.3400713000446558,,,,,,,,,,,,,,,,,,,,,,,,,,,,,,,,,A,train_x,x_increasing_steps,top_left,2024-10-29_22h27.15.265,HideSeek_v1,2022.2.5,60.12148147360831,
,3,0,8,0,5,0,66,,train_dim1_1,7,30,2,0,2,0,,,,,,,,,0,0,0,0,0,6,6,6,4,0,4,0,,,,,,,,,,,,,,,,,,,,,,,,,,,,,,,,,,,,,,,,,,,,,,,,,,,,30,,,,,,,,293.4719943999662,293.4719943999662,293.4719943999662,293.4719943999662,293.4719943999662,right,0.3442454999894835,6,0,0,99,0.48000000000000004,-0.4,right,0.27307049999944866,,,,,,,,,,,,,,,,,,,,,,,,,,,,,,,,,A,train_x,x_increasing_steps,top_left,2024-10-29_22h27.15.265,HideSeek_v1,2022.2.5,60.12148147360831,
,3,0,8,0,5,0,66,,train_dim1_1,7,30,2,0,2,0,,,,,,,,,0,0,0,0,0,6,6,6,5,0,5,0,,,,,,,,,,,,,,,,,,,,,,,,,,,,,,,,,,,,,,,,,,,,,,,,,,,,30,,,,,,,,293.8202935999725,293.8202935999725,293.8202935999725,293.8202935999725,293.8202935999725,return,0.4446804000181146,7,0,0,1,0.48000000000000004,-0.4,return,0.37571250001201406,0,17,0.48000000000000004,-0.4,,,,,,,,,,,,,,,,,,,,,,,,,,,,,A,train_x,x_increasing_steps,top_left,2024-10-29_22h27.15.265,HideSeek_v1,2022.2.5,60.12148147360831,
,0,4,2,4,2,0,36,,train_dim1_1,8,30,2,0,2,0,,,,,,,,,0,0,0,0,0,7,7,7,0,0,0,0,,,,,,,,,,,,,stimuli/alien_stimuli/36.png,,,,,,,,,,,,,,,,,,,,,,,,,,,,,stimuli/alien_stimuli/66.png,66,3,9,,,,,,,30,,,,,,,,303.94085529999575,303.94085529999575,303.94085529999575,303.94085529999575,303.94085529999575,right,1.508683199994266,7,0,0,99,-0.08,-0.08,right,1.419641699991189,,,,,302.384697499976,303.94085529999575,0.48,-0.4,0.0,0.4,-0.4,0.48,0.27999999999999997,0.48,-0.4,295.85354859998915,295.85354859998915,295.85354859998915,295.85354859998915,295.85354859998915,295.85354859998915,295.85354859998915,295.85354859998915,295.8011855999939,6.652647699986119,return,6.513772299978882,,,,,,A,train_x,x_increasing_steps,top_left,2024-10-29_22h27.15.265,HideSeek_v1,2022.2.5,60.12148147360831,
,0,4,2,4,2,0,36,,train_dim1_1,8,30,2,0,2,0,,,,,,,,,0,0,0,0,0,7,7,7,1,0,1,0,,,,,,,,,,,,,,,,,,,,,,,,,,,,,,,,,,,,,,,,,,,,,,,,,,,,30,,,,,,,,305.45150139997713,305.45150139997713,305.45150139997713,305.45150139997713,305.45150139997713,right,0.3777295000036247,7,0,0,99,0.0,-0.08,right,0.28788399999029934,,,,,,,,,,,,,,,,,,,,,,,,,,,,,,,,,A,train_x,x_increasing_steps,top_left,2024-10-29_22h27.15.265,HideSeek_v1,2022.2.5,60.12148147360831,
,0,4,2,4,2,0,36,,train_dim1_1,8,30,2,0,2,0,,,,,,,,,0,0,0,0,0,7,7,7,2,0,2,0,,,,,,,,,,,,,,,,,,,,,,,,,,,,,,,,,,,,,,,,,,,,,,,,,,,,30,,,,,,,,305.8179878999945,305.8179878999945,305.8179878999945,305.8179878999945,305.8179878999945,return,0.3942703999928199,8,0,0,1,0.0,-0.08,return,0.32346260000485927,0,19,0.0,-0.08,,,,,,,,,,,,,,,,,,,,,,,,,,,,,A,train_x,x_increasing_steps,top_left,2024-10-29_22h27.15.265,HideSeek_v1,2022.2.5,60.12148147360831,
,1,0,4,0,3,0,46,,train_dim1_1,9,30,2,0,2,0,,,,,,,,,0,0,0,0,0,8,8,8,0,0,0,0,,,,,,,,,,,,,stimuli/alien_stimuli/46.png,,,,,,,,,,,,,,,,,,,,,,,,,,,,,stimuli/alien_stimuli/36.png,36,0,10,,,,,,,30,,,,,,,,312.5366661999724,312.5366661999724,312.5366661999724,312.5366661999724,312.5366661999724,right,1.2411823999718763,8,0,0,99,0.0,-0.4,right,1.158992299984675,,,,,310.98448380001355,312.5366661999724,0,-0.08,0.0,0.16,-0.08,0,-0.08,0,-0.08,307.7908619000227,307.7908619000227,307.7908619000227,307.7908619000227,307.7908619000227,307.7908619000227,307.7908619000227,307.7908619000227,307.7514305000077,3.302304400014691,return,3.1757674999535084,,,,,,A,train_x,x_increasing_steps,top_left,2024-10-29_22h27.15.265,HideSeek_v1,2022.2.5,60.12148147360831,
,1,0,4,0,3,0,46,,train_dim1_1,9,30,2,0,2,0,,,,,,,,,0,0,0,0,0,8,8,8,1,0,1,0,,,,,,,,,,,,,,,,,,,,,,,,,,,,,,,,,,,,,,,,,,,,,,,,,,,,30,,,,,,,,313.7711472000228,313.7711472000228,313.7711472000228,313.7711472000228,313.7711472000228,right,0.3607876999885775,8,0,0,99,0.08,-0.4,right,0.2963410999509506,,,,,,,,,,,,,,,,,,,,,,,,,,,,,,,,,A,train_x,x_increasing_steps,top_left,2024-10-29_22h27.15.265,HideSeek_v1,2022.2.5,60.12148147360831,
,1,0,4,0,3,0,46,,train_dim1_1,9,30,2,0,2,0,,,,,,,,,0,0,0,0,0,8,8,8,2,0,2,0,,,,,,,,,,,,,,,,,,,,,,,,,,,,,,,,,,,,,,,,,,,,,,,,,,,,30,,,,,,,,314.1360499999719,314.1360499999719,314.1360499999719,314.1360499999719,314.1360499999719,right,0.294408600020688,8,0,0,99,0.16,-0.4,right,0.23018319997936487,,,,,,,,,,,,,,,,,,,,,,,,,,,,,,,,,A,train_x,x_increasing_steps,top_left,2024-10-29_22h27.15.265,HideSeek_v1,2022.2.5,60.12148147360831,
,1,0,4,0,3,0,46,,train_dim1_1,9,30,2,0,2,0,,,,,,,,,0,0,0,0,0,8,8,8,3,0,3,0,,,,,,,,,,,,,,,,,,,,,,,,,,,,,,,,,,,,,,,,,,,,,,,,,,,,30,,,,,,,,314.43453410000075,314.43453410000075,314.43453410000075,314.43453410000075,314.43453410000075,return,0.27733579999767244,9,0,0,1,0.16,-0.4,return,0.2133824999909848,0,22,0.16,-0.4,,,,,,,,,,,,,,,,,,,,,,,,,,,,,A,train_x,x_increasing_steps,top_left,2024-10-29_22h27.15.265,HideSeek_v1,2022.2.5,60.12148147360831,
,0,3,0,3,0,0,16,,train_dim1_1,10,30,2,0,2,0,,,,,,,,,0,0,0,0,0,9,9,9,0,0,0,0,,,,,,,,,,,,,stimuli/alien_stimuli/16.png,,,,,,,,,,,,,,,,,,,,,,,,,,,,,stimuli/alien_stimuli/46.png,46,1,11,,,,,,,30,,,,,,,,321.4513948999811,321.4513948999811,321.4513948999811,321.4513948999811,321.4513948999811,return,1.0585755000356585,10,0,0,1,-0.16,-0.16,return,0.9563209999469109,0,22,-0.16,-0.16,319.8845829999773,321.4513948999811,0.16,-0.4,0.0,0.24,-0.4,0.16,0.04,0.16,-0.4,316.28393669996876,316.28393669996876,316.28393669996876,316.28393669996876,316.28393669996876,316.28393669996876,316.28393669996876,316.28393669996876,316.25156130001415,3.702521800005343,return,3.5829740000190213,,,,,,A,train_x,x_increasing_steps,top_left,2024-10-29_22h27.15.265,HideSeek_v1,2022.2.5,60.12148147360831,
,2,2,4,2,2,0,36,,train_dim1_1,11,30,2,0,2,0,,,,,,,,,0,0,0,0,0,10,10,10,0,0,0,0,,,,,,,,,,,,,stimuli/alien_stimuli/36.png,,,,,,,,,,,,,,,,,,,,,,,,,,,,,stimuli/alien_stimuli/16.png,16,0,12,,,,,,,30,,,,,,,,328.368445399974,328.368445399974,328.368445399974,328.368445399974,328.368445399974,right,1.942096600017976,10,0,0,99,0.08,-0.24,right,1.8494071000022814,,,,,326.8017908000038,328.368445399974,-0.16,-0.16,0.0,0.0,-0.16,-0.16,-0.16,-0.16,-0.16,324.06777399999555,324.06777399999555,324.06777399999555,324.06777399999555,324.06777399999555,324.06777399999555,324.06777399999555,324.06777399999555,324.0178942999919,2.852039999968838,return,2.7039992000209168,,,,,,A,train_x,x_increasing_steps,top_left,2024-10-29_22h27.15.265,HideSeek_v1,2022.2.5,60.12148147360831,
,2,2,4,2,2,0,36,,train_dim1_1,11,30,2,0,2,0,,,,,,,,,0,0,0,0,0,10,10,10,1,0,1,0,,,,,,,,,,,,,,,,,,,,,,,,,,,,,,,,,,,,,,,,,,,,,,,,,,,,30,,,,,,,,330.28551389998756,330.28551389998756,330.28551389998756,330.28551389998756,330.28551389998756,right,0.29389219998847693,10,0,0,99,0.16,-0.24,right,0.22627450001891702,,,,,,,,,,,,,,,,,,,,,,,,,,,,,,,,,A,train_x,x_increasing_steps,top_left,2024-10-29_22h27.15.265,HideSeek_v1,2022.2.5,60.12148147360831,
,2,2,4,2,2,0,36,,train_dim1_1,11,30,2,0,2,0,,,,,,,,,0,0,0,0,0,10,10,10,2,0,2,0,,,,,,,,,,,,,,,,,,,,,,,,,,,,,,,,,,,,,,,,,,,,,,,,,,,,30,,,,,,,,330.58485199999996,330.58485199999996,330.58485199999996,330.58485199999996,330.58485199999996,return,0.3446482999715954,11,0,0,1,0.16,-0.24,return,0.27777240000432357,0,24,0.16,-0.24,,,,,,,,,,,,,,,,,,,,,,,,,,,,,A,train_x,x_increasing_steps,top_left,2024-10-29_22h27.15.265,HideSeek_v1,2022.2.5,60.12148147360831,
,0,0,1,0,1,0,26,,train_dim1_1,12,30,2,0,2,0,,,,,,,,,0,0,0,0,0,11,11,11,0,0,0,0,,,,,,,,,,,,,stimuli/alien_stimuli/26.png,,,,,,,,,,,,,,,,,,,,,,,,,,,,,stimuli/alien_stimuli/36.png,36,2,13,,,,,,,30,,,,,,,,337.770025899983,337.770025899983,337.770025899983,337.770025899983,337.770025899983,right,0.7756023000110872,11,0,0,99,-0.08,-0.4,right,0.687106000026688,,,,,336.2180604999885,337.770025899983,0.16,-0.24,0.0,0.16,-0.24,0.16,0.08,0.16,-0.24,332.50908069999423,332.50908069999423,332.50908069999423,332.50908069999423,332.50908069999423,332.50908069999423,332.50908069999423,332.50908069999423,332.4680017000064,3.8182869000011124,return,3.6778109000297263,,,,,,A,train_x,x_increasing_steps,top_left,2024-10-29_22h27.15.265,HideSeek_v1,2022.2.5,60.12148147360831,
,0,0,1,0,1,0,26,,train_dim1_1,12,30,2,0,2,0,,,,,,,,,0,0,0,0,0,11,11,11,1,0,1,0,,,,,,,,,,,,,,,,,,,,,,,,,,,,,,,,,,,,,,,,,,,,,,,,,,,,30,,,,,,,,338.53850740002235,338.53850740002235,338.53850740002235,338.53850740002235,338.53850740002235,return,0.26074450003216043,12,0,0,1,-0.08,-0.4,return,0.18709859997034073,0,25,-0.08,-0.4,,,,,,,,,,,,,,,,,,,,,,,,,,,,,A,train_x,x_increasing_steps,top_left,2024-10-29_22h27.15.265,HideSeek_v1,2022.2.5,60.12148147360831,
,0,4,3,4,3,0,46,,train_dim1_1,13,30,2,0,2,0,,,,,,,,,0,0,0,0,0,12,12,12,0,0,0,0,,,,,,,,,,,,,stimuli/alien_stimuli/46.png,,,,,,,,,,,,,,,,,,,,,,,,,,,,,stimuli/alien_stimuli/26.png,26,0,14,,,,,,,30,,,,,,,,343.32545579998987,343.32545579998987,343.32545579998987,343.32545579998987,343.32545579998987,right,1.274779600033071,12,0,0,99,-0.08,-0.08,right,1.1871751999715343,,,,,341.7679505000124,343.32545579998987,-0.08,-0.4,0.0,0.08,-0.4,-0.08,-0.12,-0.08,-0.4,340.40165720001096,340.40165720001096,340.40165720001096,340.40165720001096,340.40165720001096,340.40165720001096,340.40165720001096,340.40165720001096,340.35099141998217,1.5019589000148699,return,1.3489437000243925,,,,,,A,train_x,x_increasing_steps,top_left,2024-10-29_22h27.15.265,HideSeek_v1,2022.2.5,60.12148147360831,
,0,4,3,4,3,0,46,,train_dim1_1,13,30,2,0,2,0,,,,,,,,,0,0,0,0,0,12,12,12,1,0,1,0,,,,,,,,,,,,,,,,,,,,,,,,,,,,,,,,,,,,,,,,,,,,,,,,,,,,30,,,,,,,,344.5858260000241,344.5858260000241,344.5858260000241,344.5858260000241,344.5858260000241,right,0.41086850001011044,12,0,0,99,0.0,-0.08,right,0.34367650002241135,,,,,,,,,,,,,,,,,,,,,,,,,,,,,,,,,A,train_x,x_increasing_steps,top_left,2024-10-29_22h27.15.265,HideSeek_v1,2022.2.5,60.12148147360831,
,0,4,3,4,3,0,46,,train_dim1_1,13,30,2,0,2,0,,,,,,,,,0,0,0,0,0,12,12,12,2,0,2,0,,,,,,,,,,,,,,,,,,,,,,,,,,,,,,,,,,,,,,,,,,,,,,,,,,,,30,,,,,,,,344.99786539998604,344.99786539998604,344.99786539998604,344.99786539998604,344.99786539998604,right,0.36141389998374507,12,0,0,99,0.08,-0.08,right,0.29332729999441653,,,,,,,,,,,,,,,,,,,,,,,,,,,,,,,,,A,train_x,x_increasing_steps,top_left,2024-10-29_22h27.15.265,HideSeek_v1,2022.2.5,60.12148147360831,
,0,4,3,4,3,0,46,,train_dim1_1,13,30,2,0,2,0,,,,,,,,,0,0,0,0,0,12,12,12,3,0,3,0,,,,,,,,,,,,,,,,,,,,,,,,,,,,,,,,,,,,,,,,,,,,,,,,,,,,30,,,,,,,,345.36682310001925,345.36682310001925,345.36682310001925,345.36682310001925,345.36682310001925,return,0.3614467000006698,13,0,0,1,0.08,-0.08,return,0.29647270002169535,0,28,0.08,-0.08,,,,,,,,,,,,,,,,,,,,,,,,,,,,,A,train_x,x_increasing_steps,top_left,2024-10-29_22h27.15.265,HideSeek_v1,2022.2.5,60.12148147360831,
,4,3,4,3,0,0,16,,train_dim1_1,14,30,2,0,2,0,,,,,,,,,0,0,0,0,0,13,13,13,0,0,0,0,,,,,,,,,,,,,stimuli/alien_stimuli/16.png,,,,,,,,,,,,,,,,,,,,,,,,,,,,,stimuli/alien_stimuli/46.png,46,0,15,,,,,,,30,,,,,,,,380.35069900000235,380.35069900000235,380.35069900000235,380.35069900000235,380.35069900000235,return,0.8914316999725997,14,0,0,1,0.16,-0.16,return,0.7904375999933109,0,28,0.16,-0.16,378.7837734000059,380.35069900000235,0.08,-0.08,0.0,0.24,-0.08,0.08,-0.04,0.08,-0.08,347.30545400001574,347.30545400001574,347.30545400001574,347.30545400001574,347.30545400001574,347.30545400001574,347.30545400001574,347.30545400001574,347.2510179799865,31.584904499992263,return,31.453978899982758,,,,,,A,train_x,x_increasing_steps,top_left,2024-10-29_22h27.15.265,HideSeek_v1,2022.2.5,60.12148147360831,
,4,2,9,2,5,0,66,,train_dim1_1,15,30,2,0,2,0,,,,,,,,,0,0,0,0,0,14,14,14,0,0,0,0,,,,,,,,,,,,,stimuli/alien_stimuli/66.png,,,,,,,,,,,,,,,,,,,,,,,,,,,,,stimuli/alien_stimuli/16.png,16,4,16,,,,,,,30,,,,,,,,385.5321585999918,385.5321585999918,385.5321585999918,385.5321585999918,385.5321585999918,right,0.7255669999867678,14,0,0,99,0.24,-0.24,right,0.635369100025855,,,,,383.96754390001297,385.5321585999918,0.16,-0.16,0.0,0.0,-0.16,0.16,0.16,0.16,-0.16,382.79150039999513,382.79150039999513,382.79150039999513,382.79150039999513,382.79150039999513,382.79150039999513,382.79150039999513,382.79150039999513,382.75058509997325,1.2851089999894612,return,1.14383940002881,,,,,,A,train_x,x_increasing_steps,top_left,2024-10-29_22h27.15.265,HideSeek_v1,2022.2.5,60.12148147360831,
,4,2,9,2,5,0,66,,train_dim1_1,15,30,2,0,2,0,,,,,,,,,0,0,0,0,0,14,14,14,1,0,1,0,,,,,,,,,,,,,,,,,,,,,,,,,,,,,,,,,,,,,,,,,,,,,,,,,,,,30,,,,,,,,386.2384367000195,386.2384367000195,386.2384367000195,386.2384367000195,386.2384367000195,right,0.3105008999700658,14,0,0,99,0.32,-0.24,right,0.2358290000120178,,,,,,,,,,,,,,,,,,,,,,,,,,,,,,,,,A,train_x,x_increasing_steps,top_left,2024-10-29_22h27.15.265,HideSeek_v1,2022.2.5,60.12148147360831,
,4,2,9,2,5,0,66,,train_dim1_1,15,30,2,0,2,0,,,,,,,,,0,0,0,0,0,14,14,14,2,0,2,0,,,,,,,,,,,,,,,,,,,,,,,,,,,,,,,,,,,,,,,,,,,,,,,,,,,,30,,,,,,,,386.55373340001097,386.55373340001097,386.55373340001097,386.55373340001097,386.55373340001097,right,0.31147359998431057,14,0,0,99,0.4,-0.24,right,0.23915000003762543,,,,,,,,,,,,,,,,,,,,,,,,,,,,,,,,,A,train_x,x_increasing_steps,top_left,2024-10-29_22h27.15.265,HideSeek_v1,2022.2.5,60.12148147360831,
,4,2,9,2,5,0,66,,train_dim1_1,15,30,2,0,2,0,,,,,,,,,0,0,0,0,0,14,14,14,3,0,3,0,,,,,,,,,,,,,,,,,,,,,,,,,,,,,,,,,,,,,,,,,,,,,,,,,,,,30,,,,,,,,386.8739970999886,386.8739970999886,386.8739970999886,386.8739970999886,386.8739970999886,right,0.2946815000032075,14,0,0,99,0.48000000000000004,-0.24,right,0.22281030000885949,,,,,,,,,,,,,,,,,,,,,,,,,,,,,,,,,A,train_x,x_increasing_steps,top_left,2024-10-29_22h27.15.265,HideSeek_v1,2022.2.5,60.12148147360831,
,4,2,9,2,5,0,66,,train_dim1_1,15,30,2,0,2,0,,,,,,,,,0,0,0,0,0,14,14,14,4,0,4,0,,,,,,,,,,,,,,,,,,,,,,,,,,,,,,,,,,,,,,,,,,,,,,,,,,,,30,,,,,,,,387.17453020001994,387.17453020001994,387.17453020001994,387.17453020001994,387.17453020001994,right,0.2939159999950789,14,0,0,99,0.56,-0.24,right,0.21509400004288182,,,,,,,,,,,,,,,,,,,,,,,,,,,,,,,,,A,train_x,x_increasing_steps,top_left,2024-10-29_22h27.15.265,HideSeek_v1,2022.2.5,60.12148147360831,
,4,2,9,2,5,0,66,,train_dim1_1,15,30,2,0,2,0,,,,,,,,,0,0,0,0,0,14,14,14,5,0,5,0,,,,,,,,,,,,,,,,,,,,,,,,,,,,,,,,,,,,,,,,,,,,,,,,,,,,30,,,,,,,,387.4710727999918,387.4710727999918,387.4710727999918,387.4710727999918,387.4710727999918,return,0.27773119998164475,15,0,0,1,0.56,-0.24,return,0.1969756999751553,0,33,0.56,-0.24,,,,,,,,,,,,,,,,,,,,,,,,,,,,,A,train_x,x_increasing_steps,top_left,2024-10-29_22h27.15.265,HideSeek_v1,2022.2.5,60.12148147360831,
,3,3,6,3,3,0,46,,train_dim1_1,16,30,2,0,2,0,,,,,,,,,0,0,0,0,0,15,15,15,0,0,0,0,,,,,,,,,,,,,stimuli/alien_stimuli/46.png,,,,,,,,,,,,,,,,,,,,,,,,,,,,,stimuli/alien_stimuli/66.png,66,4,17,,,,,,,30,,,,,,,,392.26697340002283,392.26697340002283,392.26697340002283,392.26697340002283,392.26697340002283,right,1.1749805000144988,15,0,0,99,0.16,-0.16,right,1.0727985000121407,,,,,390.7007947000093,392.26697340002283,0.56,-0.24,0.0,0.4,-0.24,0.56,0.36000000000000004,0.56,-0.24,389.3332301999908,389.3332301999908,389.3332301999908,389.3332301999908,389.3332301999908,389.3332301999908,389.3332301999908,389.3332301999908,389.2840992999845,1.4849913000361994,return,1.338816199975554,,,,,,A,train_x,x_increasing_steps,top_left,2024-10-29_22h27.15.265,HideSeek_v1,2022.2.5,60.12148147360831,
,3,3,6,3,3,0,46,,train_dim1_1,16,30,2,0,2,0,,,,,,,,,0,0,0,0,0,15,15,15,1,0,1,0,,,,,,,,,,,,,,,,,,,,,,,,,,,,,,,,,,,,,,,,,,,,,,,,,,,,30,,,,,,,,393.41673190001165,393.41673190001165,393.41673190001165,393.41673190001165,393.41673190001165,right,0.6441501000081189,15,0,0,99,0.24,-0.16,right,0.582758600008674,,,,,,,,,,,,,,,,,,,,,,,,,,,,,,,,,A,train_x,x_increasing_steps,top_left,2024-10-29_22h27.15.265,HideSeek_v1,2022.2.5,60.12148147360831,
,3,3,6,3,3,0,46,,train_dim1_1,16,30,2,0,2,0,,,,,,,,,0,0,0,0,0,15,15,15,2,0,2,0,,,,,,,,,,,,,,,,,,,,,,,,,,,,,,,,,,,,,,,,,,,,,,,,,,,,30,,,,,,,,394.0666300000157,394.0666300000157,394.0666300000157,394.0666300000157,394.0666300000157,right,0.7275336000020616,15,0,0,99,0.32,-0.16,right,0.660045699973125,,,,,,,,,,,,,,,,,,,,,,,,,,,,,,,,,A,train_x,x_increasing_steps,top_left,2024-10-29_22h27.15.265,HideSeek_v1,2022.2.5,60.12148147360831,
,3,3,6,3,3,0,46,,train_dim1_1,16,30,2,0,2,0,,,,,,,,,0,0,0,0,0,15,15,15,3,0,3,0,,,,,,,,,,,,,,,,,,,,,,,,,,,,,,,,,,,,,,,,,,,,,,,,,,,,30,,,,,,,,394.79971290001413,394.79971290001413,394.79971290001413,394.79971290001413,394.79971290001413,return,0.3105636999825947,16,0,0,1,0.32,-0.16,return,0.24856409995118156,0,36,0.32,-0.16,,,,,,,,,,,,,,,,,,,,,,,,,,,,,A,train_x,x_increasing_steps,top_left,2024-10-29_22h27.15.265,HideSeek_v1,2022.2.5,60.12148147360831,
,2,4,3,4,1,0,26,,train_dim1_1,17,30,2,0,2,0,,,,,,,,,0,0,0,0,0,16,16,16,0,0,0,0,,,,,,,,,,,,,stimuli/alien_stimuli/26.png,,,,,,,,,,,,,,,,,,,,,,,,,,,,,stimuli/alien_stimuli/46.png,46,3,18,,,,,,,30,,,,,,,,399.10108679998666,399.10108679998666,399.10108679998666,399.10108679998666,399.10108679998666,right,0.825120399997104,16,0,0,99,0.08,-0.08,right,0.6954744000104256,,,,,397.5007719999994,399.10108679998666,0.32,-0.16,0.0,0.24,-0.16,0.32,0.2,0.32,-0.16,396.68715989997145,396.68715989997145,396.68715989997145,396.68715989997145,396.68715989997145,396.68715989997145,396.68715989997145,396.68715989997145,396.63387767999666,0.9184291000128724,return,0.7917961000348441,,,,,,A,train_x,x_increasing_steps,top_left,2024-10-29_22h27.15.265,HideSeek_v1,2022.2.5,60.12148147360831,
,2,4,3,4,1,0,26,,train_dim1_1,17,30,2,0,2,0,,,,,,,,,0,0,0,0,0,16,16,16,1,0,1,0,,,,,,,,,,,,,,,,,,,,,,,,,,,,,,,,,,,,,,,,,,,,,,,,,,,,30,,,,,,,,399.8713025000179,399.8713025000179,399.8713025000179,399.8713025000179,399.8713025000179,return,0.31096659996546805,17,0,0,1,0.08,-0.08,return,0.24233110004570335,0,37,0.08,-0.08,,,,,,,,,,,,,,,,,,,,,,,,,,,,,A,train_x,x_increasing_steps,top_left,2024-10-29_22h27.15.265,HideSeek_v1,2022.2.5,60.12148147360831,
,2,1,7,1,5,0,66,,train_dim1_1,18,30,2,0,2,0,,,,,,,,,0,0,0,0,0,17,17,17,0,0,0,0,,,,,,,,,,,,,stimuli/alien_stimuli/66.png,,,,,,,,,,,,,,,,,,,,,,,,,,,,,stimuli/alien_stimuli/26.png,26,2,19,,,,,,,30,,,,,,,,403.7966391000082,403.7966391000082,403.7966391000082,403.7966391000082,403.7966391000082,right,0.5918543000007048,17,0,0,99,0.08,-0.32,right,0.4943640999845229,,,,,402.2339826999814,403.7966391000082,0.08,-0.08,0.0,0.08,-0.08,0.08,0.04,0.08,-0.08,401.7637016000226,401.7637016000226,401.7637016000226,401.7637016000226,401.7637016000226,401.7637016000226,401.7637016000226,401.7637016000226,401.71722519997275,0.5850154000218026,return,0.4487962999846786,,,,,,A,train_x,x_increasing_steps,top_left,2024-10-29_22h27.15.265,HideSeek_v1,2022.2.5,60.12148147360831,
,2,1,7,1,5,0,66,,train_dim1_1,18,30,2,0,2,0,,,,,,,,,0,0,0,0,0,17,17,17,1,0,1,0,,,,,,,,,,,,,,,,,,,,,,,,,,,,,,,,,,,,,,,,,,,,,,,,,,,,30,,,,,,,,404.37517399998615,404.37517399998615,404.37517399998615,404.37517399998615,404.37517399998615,right,0.2777458999771625,17,0,0,99,0.16,-0.32,right,0.19924500002525747,,,,,,,,,,,,,,,,,,,,,,,,,,,,,,,,,A,train_x,x_increasing_steps,top_left,2024-10-29_22h27.15.265,HideSeek_v1,2022.2.5,60.12148147360831,
,2,1,7,1,5,0,66,,train_dim1_1,18,30,2,0,2,0,,,,,,,,,0,0,0,0,0,17,17,17,2,0,2,0,,,,,,,,,,,,,,,,,,,,,,,,,,,,,,,,,,,,,,,,,,,,,,,,,,,,30,,,,,,,,404.6556790000177,404.6556790000177,404.6556790000177,404.6556790000177,404.6556790000177,right,0.26077240001177415,17,0,0,99,0.24,-0.32,right,0.19071589998202398,,,,,,,,,,,,,,,,,,,,,,,,,,,,,,,,,A,train_x,x_increasing_steps,top_left,2024-10-29_22h27.15.265,HideSeek_v1,2022.2.5,60.12148147360831,
,2,1,7,1,5,0,66,,train_dim1_1,18,30,2,0,2,0,,,,,,,,,0,0,0,0,0,17,17,17,3,0,3,0,,,,,,,,,,,,,,,,,,,,,,,,,,,,,,,,,,,,,,,,,,,,,,,,,,,,30,,,,,,,,404.92214270000113,404.92214270000113,404.92214270000113,404.92214270000113,404.92214270000113,right,0.24384770001051947,17,0,0,99,0.32,-0.32,right,0.17691600002581254,,,,,,,,,,,,,,,,,,,,,,,,,,,,,,,,,A,train_x,x_increasing_steps,top_left,2024-10-29_22h27.15.265,HideSeek_v1,2022.2.5,60.12148147360831,
,2,1,7,1,5,0,66,,train_dim1_1,18,30,2,0,2,0,,,,,,,,,0,0,0,0,0,17,17,17,4,0,4,0,,,,,,,,,,,,,,,,,,,,,,,,,,,,,,,,,,,,,,,,,,,,,,,,,,,,30,,,,,,,,405.17043950001244,405.17043950001244,405.17043950001244,405.17043950001244,405.17043950001244,right,0.26095760002499446,17,0,0,99,0.4,-0.32,right,0.1887727999710478,,,,,,,,,,,,,,,,,,,,,,,,,,,,,,,,,A,train_x,x_increasing_steps,top_left,2024-10-29_22h27.15.265,HideSeek_v1,2022.2.5,60.12148147360831,
,2,1,7,1,5,0,66,,train_dim1_1,18,30,2,0,2,0,,,,,,,,,0,0,0,0,0,17,17,17,5,0,5,0,,,,,,,,,,,,,,,,,,,,,,,,,,,,,,,,,,,,,,,,,,,,,,,,,,,,30,,,,,,,,405.4375501999748,405.4375501999748,405.4375501999748,405.4375501999748,405.4375501999748,return,0.22757470002397895,18,0,0,1,0.4,-0.32,return,0.15471699996851385,0,42,0.4,-0.32,,,,,,,,,,,,,,,,,,,,,,,,,,,,,A,train_x,x_increasing_steps,top_left,2024-10-29_22h27.15.265,HideSeek_v1,2022.2.5,60.12148147360831,
,0,3,2,3,2,0,36,,train_dim1_1,19,30,2,0,2,0,,,,,,,,,0,0,0,0,0,18,18,18,0,0,0,0,,,,,,,,,,,,,stimuli/alien_stimuli/36.png,,,,,,,,,,,,,,,,,,,,,,,,,,,,,stimuli/alien_stimuli/66.png,66,2,20,,,,,,,30,,,,,,,,410.5391926000011,410.5391926000011,410.5391926000011,410.5391926000011,410.5391926000011,right,1.1747870000544935,18,0,0,99,-0.08,-0.16,right,1.0842180000036024,,,,,408.98406659998,410.5391926000011,0.4,-0.32,0.0,0.4,-0.32,0.4,0.2,0.4,-0.32,407.2504215000081,407.2504215000081,407.2504215000081,407.2504215000081,407.2504215000081,407.2504215000081,407.2504215000081,407.2504215000081,407.20020099997055,1.8520182999782264,return,1.71116120001534,,,,,,A,train_x,x_increasing_steps,top_left,2024-10-29_22h27.15.265,HideSeek_v1,2022.2.5,60.12148147360831,
,0,3,2,3,2,0,36,,train_dim1_1,19,30,2,0,2,0,,,,,,,,,0,0,0,0,0,18,18,18,1,0,1,0,,,,,,,,,,,,,,,,,,,,,,,,,,,,,,,,,,,,,,,,,,,,,,,,,,,,30,,,,,,,,411.70130090002203,411.70130090002203,411.70130090002203,411.70130090002203,411.70130090002203,right,0.5936838999623433,18,0,0,99,0.0,-0.16,right,0.5169178000069223,,,,,,,,,,,,,,,,,,,,,,,,,,,,,,,,,A,train_x,x_increasing_steps,top_left,2024-10-29_22h27.15.265,HideSeek_v1,2022.2.5,60.12148147360831,
,0,3,2,3,2,0,36,,train_dim1_1,19,30,2,0,2,0,,,,,,,,,0,0,0,0,0,18,18,18,2,0,2,0,,,,,,,,,,,,,,,,,,,,,,,,,,,,,,,,,,,,,,,,,,,,,,,,,,,,30,,,,,,,,412.3022763999761,412.3022763999761,412.3022763999761,412.3022763999761,412.3022763999761,return,0.39408220001496375,19,0,0,1,0.0,-0.16,return,0.3185133000370115,0,44,0.0,-0.16,,,,,,,,,,,,,,,,,,,,,,,,,,,,,A,train_x,x_increasing_steps,top_left,2024-10-29_22h27.15.265,HideSeek_v1,2022.2.5,60.12148147360831,
,0,1,0,1,0,0,16,,train_dim1_1,20,30,2,0,2,0,,,,,,,,,0,0,0,0,0,19,19,19,0,0,0,0,,,,,,,,,,,,,stimuli/alien_stimuli/16.png,,,,,,,,,,,,,,,,,,,,,,,,,,,,,stimuli/alien_stimuli/36.png,36,0,21,,,,,,,30,,,,,,,,416.1555933000054,416.1555933000054,416.1555933000054,416.1555933000054,416.1555933000054,return,1.4067584999720566,20,0,0,1,-0.16,-0.32,return,1.3107590999570675,0,44,-0.16,-0.32,414.58386189996963,416.1555933000054,0,-0.16,0.0,0.16,-0.16,0,-0.08,0,-0.16,414.2817285999772,414.2817285999772,414.2817285999772,414.2817285999772,414.2817285999772,414.2817285999772,414.2817285999772,414.2817285999772,414.2336141000269,0.418640400050208,return,0.27249980001943186,,,,,,A,train_x,x_increasing_steps,top_left,2024-10-29_22h27.15.265,HideSeek_v1,2022.2.5,60.12148147360831,
,4,2,6,2,2,0,36,,train_dim1_1,21,30,2,0,2,0,,,,,,,,,0,0,0,0,0,20,20,20,0,0,0,0,,,,,,,,,,,,,stimuli/alien_stimuli/36.png,,,,,,,,,,,,,,,,,,,,,,,,,,,,,stimuli/alien_stimuli/16.png,16,0,22,,,,,,,30,,,,,,,,421.78938779997407,421.78938779997407,421.78938779997407,421.78938779997407,421.78938779997407,right,0.8248383000027388,20,0,0,99,0.24,-0.24,right,0.7343177999719046,,,,,420.2333223000169,421.78938779997407,-0.16,-0.32,0.0,0.0,-0.32,-0.16,-0.16,-0.16,-0.32,419.1201128999819,419.1201128999819,419.1201128999819,419.1201128999819,419.1201128999819,419.1201128999819,419.1201128999819,419.1201128999819,419.083590920025,1.235450500040315,return,1.0880689999903552,,,,,,A,train_x,x_increasing_steps,top_left,2024-10-29_22h27.15.265,HideSeek_v1,2022.2.5,60.12148147360831,
,4,2,6,2,2,0,36,,train_dim1_1,21,30,2,0,2,0,,,,,,,,,0,0,0,0,0,20,20,20,1,0,1,0,,,,,,,,,,,,,,,,,,,,,,,,,,,,,,,,,,,,,,,,,,,,,,,,,,,,30,,,,,,,,422.6025627999916,422.6025627999916,422.6025627999916,422.6025627999916,422.6025627999916,right,0.3437864999868907,20,0,0,99,0.32,-0.24,right,0.27552269998705015,,,,,,,,,,,,,,,,,,,,,,,,,,,,,,,,,A,train_x,x_increasing_steps,top_left,2024-10-29_22h27.15.265,HideSeek_v1,2022.2.5,60.12148147360831,
,4,2,6,2,2,0,36,,train_dim1_1,21,30,2,0,2,0,,,,,,,,,0,0,0,0,0,20,20,20,2,0,2,0,,,,,,,,,,,,,,,,,,,,,,,,,,,,,,,,,,,,,,,,,,,,,,,,,,,,30,,,,,,,,422.9506072999793,422.9506072999793,422.9506072999793,422.9506072999793,422.9506072999793,return,0.27740999998059124,21,0,0,1,0.32,-0.24,return,0.2003306999686174,0,46,0.32,-0.24,,,,,,,,,,,,,,,,,,,,,,,,,,,,,A,train_x,x_increasing_steps,top_left,2024-10-29_22h27.15.265,HideSeek_v1,2022.2.5,60.12148147360831,
,1,0,2,0,1,0,26,,train_dim1_1,22,30,2,0,2,0,,,,,,,,,0,0,0,0,0,21,21,21,0,0,0,0,,,,,,,,,,,,,stimuli/alien_stimuli/26.png,,,,,,,,,,,,,,,,,,,,,,,,,,,,,stimuli/alien_stimuli/36.png,36,4,23,,,,,,,30,,,,,,,,427.1858111000038,427.1858111000038,427.1858111000038,427.1858111000038,427.1858111000038,right,1.0584678000304848,21,0,0,99,0.0,-0.4,right,0.9453147000167519,,,,,425.6003165000002,427.1858111000038,0.32,-0.24,0.0,0.16,-0.24,0.32,0.24,0.32,-0.24,424.8208871000097,424.8208871000097,424.8208871000097,424.8208871000097,424.8208871000097,424.8208871000097,424.8208871000097,424.8208871000097,424.7669320999994,0.902053400001023,return,0.7515897999983281,,,,,,A,train_x,x_increasing_steps,top_left,2024-10-29_22h27.15.265,HideSeek_v1,2022.2.5,60.12148147360831,
,1,0,2,0,1,0,26,,train_dim1_1,22,30,2,0,2,0,,,,,,,,,0,0,0,0,0,21,21,21,1,0,1,0,,,,,,,,,,,,,,,,,,,,,,,,,,,,,,,,,,,,,,,,,,,,,,,,,,,,30,,,,,,,,428.22378569998546,428.22378569998546,428.22378569998546,428.22378569998546,428.22378569998546,return,0.34373319998849183,22,0,0,1,0.0,-0.4,return,0.252314799989108,0,47,0.0,-0.4,,,,,,,,,,,,,,,,,,,,,,,,,,,,,A,train_x,x_increasing_steps,top_left,2024-10-29_22h27.15.265,HideSeek_v1,2022.2.5,60.12148147360831,
,2,1,7,1,5,0,66,,train_dim1_1,23,30,2,0,2,0,,,,,,,,,0,0,0,0,0,22,22,22,0,0,0,0,,,,,,,,,,,,,stimuli/alien_stimuli/66.png,,,,,,,,,,,,,,,,,,,,,,,,,,,,,stimuli/alien_stimuli/26.png,26,1,24,,,,,,,30,,,,,,,,438.0352496000123,438.0352496000123,438.0352496000123,438.0352496000123,438.0352496000123,right,0.974578500026837,22,0,0,99,0.08,-0.32,right,0.8507701000198722,,,,,436.45079119998263,438.0352496000123,0,-0.4,0.0,0.08,-0.4,0,-0.04,0,-0.4,430.1196993999765,430.1196993999765,430.1196993999765,430.1196993999765,430.1196993999765,430.1196993999765,430.1196993999765,430.1196993999765,430.0834068999975,6.436730100016575,return,6.298891799990088,,,,,,A,train_x,x_increasing_steps,top_left,2024-10-29_22h27.15.265,HideSeek_v1,2022.2.5,60.12148147360831,
,2,1,7,1,5,0,66,,train_dim1_1,23,30,2,0,2,0,,,,,,,,,0,0,0,0,0,22,22,22,1,0,1,0,,,,,,,,,,,,,,,,,,,,,,,,,,,,,,,,,,,,,,,,,,,,,,,,,,,,30,,,,,,,,439.001832799986,439.001832799986,439.001832799986,439.001832799986,439.001832799986,right,0.2945167000289075,22,0,0,99,0.16,-0.32,right,0.18987359997117892,,,,,,,,,,,,,,,,,,,,,,,,,,,,,,,,,A,train_x,x_increasing_steps,top_left,2024-10-29_22h27.15.265,HideSeek_v1,2022.2.5,60.12148147360831,
,2,1,7,1,5,0,66,,train_dim1_1,23,30,2,0,2,0,,,,,,,,,0,0,0,0,0,22,22,22,2,0,2,0,,,,,,,,,,,,,,,,,,,,,,,,,,,,,,,,,,,,,,,,,,,,,,,,,,,,30,,,,,,,,439.2687425999902,439.2687425999902,439.2687425999902,439.2687425999902,439.2687425999902,right,0.3610365999629721,22,0,0,99,0.24,-0.32,right,0.28420150000602007,,,,,,,,,,,,,,,,,,,,,,,,,,,,,,,,,A,train_x,x_increasing_steps,top_left,2024-10-29_22h27.15.265,HideSeek_v1,2022.2.5,60.12148147360831,
,2,1,7,1,5,0,66,,train_dim1_1,23,30,2,0,2,0,,,,,,,,,0,0,0,0,0,22,22,22,3,0,3,0,,,,,,,,,,,,,,,,,,,,,,,,,,,,,,,,,,,,,,,,,,,,,,,,,,,,30,,,,,,,,439.6420363999787,439.6420363999787,439.6420363999787,439.6420363999787,439.6420363999787,right,0.32719869998982176,22,0,0,99,0.32,-0.32,right,0.24448320001829416,,,,,,,,,,,,,,,,,,,,,,,,,,,,,,,,,A,train_x,x_increasing_steps,top_left,2024-10-29_22h27.15.265,HideSeek_v1,2022.2.5,60.12148147360831,
,2,1,7,1,5,0,66,,train_dim1_1,23,30,2,0,2,0,,,,,,,,,0,0,0,0,0,22,22,22,4,0,4,0,,,,,,,,,,,,,,,,,,,,,,,,,,,,,,,,,,,,,,,,,,,,,,,,,,,,30,,,,,,,,439.96659339999314,439.96659339999314,439.96659339999314,439.96659339999314,439.96659339999314,right,0.27905270003248006,22,0,0,99,0.4,-0.32,right,0.21424039994599298,,,,,,,,,,,,,,,,,,,,,,,,,,,,,,,,,A,train_x,x_increasing_steps,top_left,2024-10-29_22h27.15.265,HideSeek_v1,2022.2.5,60.12148147360831,
,2,1,7,1,5,0,66,,train_dim1_1,23,30,2,0,2,0,,,,,,,,,0,0,0,0,0,22,22,22,5,0,5,0,,,,,,,,,,,,,,,,,,,,,,,,,,,,,,,,,,,,,,,,,,,,,,,,,,,,30,,,,,,,,440.2518322999822,440.2518322999822,440.2518322999822,440.2518322999822,440.2518322999822,return,0.2611359999864362,23,0,0,1,0.4,-0.32,return,0.19447059999220073,0,52,0.4,-0.32,,,,,,,,,,,,,,,,,,,,,,,,,,,,,A,train_x,x_increasing_steps,top_left,2024-10-29_22h27.15.265,HideSeek_v1,2022.2.5,60.12148147360831,
,4,4,7,4,3,0,46,,train_dim1_1,24,30,2,0,2,0,,,,,,,,,0,0,0,0,0,23,23,23,0,0,0,0,,,,,,,,,,,,,stimuli/alien_stimuli/46.png,,,,,,,,,,,,,,,,,,,,,,,,,,,,,stimuli/alien_stimuli/66.png,66,2,25,,,,,,,30,,,,,,,,445.4727139999741,445.4727139999741,445.4727139999741,445.4727139999741,445.4727139999741,right,1.2918644999735989,23,0,0,99,0.24,-0.08,right,1.207117699959781,,,,,443.9169067000039,445.4727139999741,0.4,-0.32,0.0,0.4,-0.32,0.4,0.2,0.4,-0.32,442.0997389999684,442.0997389999684,442.0997389999684,442.0997389999684,442.0997389999684,442.0997389999684,442.0997389999684,442.0997389999684,442.04965960001573,1.9355770000256598,return,1.7939173000049777,,,,,,A,train_x,x_increasing_steps,top_left,2024-10-29_22h27.15.265,HideSeek_v1,2022.2.5,60.12148147360831,
,4,4,7,4,3,0,46,,train_dim1_1,24,30,2,0,2,0,,,,,,,,,0,0,0,0,0,23,23,23,1,0,1,0,,,,,,,,,,,,,,,,,,,,,,,,,,,,,,,,,,,,,,,,,,,,,,,,,,,,30,,,,,,,,446.7480815000017,446.7480815000017,446.7480815000017,446.7480815000017,446.7480815000017,right,0.3775514999870211,23,0,0,99,0.32,-0.08,right,0.31782290001865476,,,,,,,,,,,,,,,,,,,,,,,,,,,,,,,,,A,train_x,x_increasing_steps,top_left,2024-10-29_22h27.15.265,HideSeek_v1,2022.2.5,60.12148147360831,
,4,4,7,4,3,0,46,,train_dim1_1,24,30,2,0,2,0,,,,,,,,,0,0,0,0,0,23,23,23,2,0,2,0,,,,,,,,,,,,,,,,,,,,,,,,,,,,,,,,,,,,,,,,,,,,,,,,,,,,30,,,,,,,,447.1322624000022,447.1322624000022,447.1322624000022,447.1322624000022,447.1322624000022,right,0.3110251000034623,23,0,0,99,0.4,-0.08,right,0.2463127999799326,,,,,,,,,,,,,,,,,,,,,,,,,,,,,,,,,A,train_x,x_increasing_steps,top_left,2024-10-29_22h27.15.265,HideSeek_v1,2022.2.5,60.12148147360831,
,4,4,7,4,3,0,46,,train_dim1_1,24,30,2,0,2,0,,,,,,,,,0,0,0,0,0,23,23,23,3,0,3,0,,,,,,,,,,,,,,,,,,,,,,,,,,,,,,,,,,,,,,,,,,,,,,,,,,,,30,,,,,,,,447.4490486999857,447.4490486999857,447.4490486999857,447.4490486999857,447.4490486999857,return,0.2775555000407621,24,0,0,1,0.4,-0.08,return,0.21327710000332445,0,55,0.4,-0.08,,,,,,,,,,,,,,,,,,,,,,,,,,,,,A,train_x,x_increasing_steps,top_left,2024-10-29_22h27.15.265,HideSeek_v1,2022.2.5,60.12148147360831,
,3,0,3,0,0,0,16,,train_dim1_1,25,30,2,0,2,0,,,,,,,,,0,0,0,0,0,24,24,24,0,0,0,0,,,,,,,,,,,,,stimuli/alien_stimuli/16.png,,,,,,,,,,,,,,,,,,,,,,,,,,,,,stimuli/alien_stimuli/46.png,46,4,26,,,,,,,30,,,,,,,,459.01634590001777,459.01634590001777,459.01634590001777,459.01634590001777,459.01634590001777,return,1.2081182000110857,25,0,0,1,0.08,-0.4,return,1.102261100022588,0,55,0.08,-0.4,457.4501263999846,459.01634590001777,0.4,-0.08,0.0,0.24,-0.08,0.4,0.28,0.4,-0.08,449.31742600002326,449.31742600002326,449.31742600002326,449.31742600002326,449.31742600002326,449.31742600002326,449.31742600002326,449.31742600002326,449.26666079997085,8.251714900019579,return,8.10644850000972,,,,,,A,train_x,x_increasing_steps,top_left,2024-10-29_22h27.15.265,HideSeek_v1,2022.2.5,60.12148147360831,
,1,1,6,1,5,0,66,,train_dim1_1,26,30,2,0,2,0,,,,,,,,,0,0,0,0,0,25,25,25,0,0,0,0,,,,,,,,,,,,,stimuli/alien_stimuli/66.png,,,,,,,,,,,,,,,,,,,,,,,,,,,,,stimuli/alien_stimuli/16.png,16,3,27,,,,,,,30,,,,,,,,464.30681869998807,464.30681869998807,464.30681869998807,464.30681869998807,464.30681869998807,right,1.0084437999757938,25,0,0,99,0.0,-0.32,right,0.8851866000331938,,,,,462.7163513000123,464.30681869998807,0.08,-0.4,0.0,0.0,-0.4,0.08,0.08,0.08,-0.4,461.7760387000162,461.7760387000162,461.7760387000162,461.7760387000162,461.7760387000162,461.7760387000162,461.7760387000162,461.7760387000162,461.7327417000197,1.052257900009863,return,0.920663799974136,,,,,,A,train_x,x_increasing_steps,top_left,2024-10-29_22h27.15.265,HideSeek_v1,2022.2.5,60.12148147360831,
,1,1,6,1,5,0,66,,train_dim1_1,26,30,2,0,2,0,,,,,,,,,0,0,0,0,0,25,25,25,1,0,1,0,,,,,,,,,,,,,,,,,,,,,,,,,,,,,,,,,,,,,,,,,,,,,,,,,,,,30,,,,,,,,465.27425810002023,465.27425810002023,465.27425810002023,465.27425810002023,465.27425810002023,right,0.42734589998144656,25,0,0,99,0.08,-0.32,right,0.3525794000015594,,,,,,,,,,,,,,,,,,,,,,,,,,,,,,,,,A,train_x,x_increasing_steps,top_left,2024-10-29_22h27.15.265,HideSeek_v1,2022.2.5,60.12148147360831,
,1,1,6,1,5,0,66,,train_dim1_1,26,30,2,0,2,0,,,,,,,,,0,0,0,0,0,25,25,25,2,0,2,0,,,,,,,,,,,,,,,,,,,,,,,,,,,,,,,,,,,,,,,,,,,,,,,,,,,,30,,,,,,,,465.7046403000131,465.7046403000131,465.7046403000131,465.7046403000131,465.7046403000131,right,0.4943443000083789,25,0,0,99,0.16,-0.32,right,0.413380199985113,,,,,,,,,,,,,,,,,,,,,,,,,,,,,,,,,A,train_x,x_increasing_steps,top_left,2024-10-29_22h27.15.265,HideSeek_v1,2022.2.5,60.12148147360831,
,1,1,6,1,5,0,66,,train_dim1_1,26,30,2,0,2,0,,,,,,,,,0,0,0,0,0,25,25,25,3,0,3,0,,,,,,,,,,,,,,,,,,,,,,,,,,,,,,,,,,,,,,,,,,,,,,,,,,,,30,,,,,,,,466.2022290999885,466.2022290999885,466.2022290999885,466.2022290999885,466.2022290999885,right,0.36106299998937175,25,0,0,99,0.24,-0.32,right,0.2841871000127867,,,,,,,,,,,,,,,,,,,,,,,,,,,,,,,,,A,train_x,x_increasing_steps,top_left,2024-10-29_22h27.15.265,HideSeek_v1,2022.2.5,60.12148147360831,
,1,1,6,1,5,0,66,,train_dim1_1,26,30,2,0,2,0,,,,,,,,,0,0,0,0,0,25,25,25,4,0,4,0,,,,,,,,,,,,,,,,,,,,,,,,,,,,,,,,,,,,,,,,,,,,,,,,,,,,30,,,,,,,,466.5695675999741,466.5695675999741,466.5695675999741,466.5695675999741,466.5695675999741,right,0.31091210001613945,25,0,0,99,0.32,-0.32,right,0.2346284000086598,,,,,,,,,,,,,,,,,,,,,,,,,,,,,,,,,A,train_x,x_increasing_steps,top_left,2024-10-29_22h27.15.265,HideSeek_v1,2022.2.5,60.12148147360831,
,1,1,6,1,5,0,66,,train_dim1_1,26,30,2,0,2,0,,,,,,,,,0,0,0,0,0,25,25,25,5,0,5,0,,,,,,,,,,,,,,,,,,,,,,,,,,,,,,,,,,,,,,,,,,,,,,,,,,,,30,,,,,,,,466.88715329999104,466.88715329999104,466.88715329999104,466.88715329999104,466.88715329999104,return,0.3771265000104904,26,0,0,1,0.32,-0.32,return,0.29693679994670674,0,60,0.32,-0.32,,,,,,,,,,,,,,,,,,,,,,,,,,,,,A,train_x,x_increasing_steps,top_left,2024-10-29_22h27.15.265,HideSeek_v1,2022.2.5,60.12148147360831,
,0,1,2,1,2,0,36,,train_dim1_1,27,30,2,0,2,0,,,,,,,,,0,0,0,0,0,26,26,26,0,0,0,0,,,,,,,,,,,,,stimuli/alien_stimuli/36.png,,,,,,,,,,,,,,,,,,,,,,,,,,,,,stimuli/alien_stimuli/66.png,66,1,28,,,,,,,30,,,,,,,,470.9551272999961,470.9551272999961,470.9551272999961,470.9551272999961,470.9551272999961,right,0.8080003999639302,26,0,0,99,-0.08,-0.32,right,0.7163057999568991,,,,,469.39952330000233,470.9551272999961,0.32,-0.32,0.0,0.4,-0.32,0.32,0.12,0.32,-0.32,468.8479847999988,468.8479847999988,468.8479847999988,468.8479847999988,468.8479847999988,468.8479847999988,468.8479847999988,468.8479847999988,468.7994277999969,0.6692718000267632,return,0.5221567000262439,,,,,,A,train_x,x_increasing_steps,top_left,2024-10-29_22h27.15.265,HideSeek_v1,2022.2.5,60.12148147360831,
,0,1,2,1,2,0,36,,train_dim1_1,27,30,2,0,2,0,,,,,,,,,0,0,0,0,0,26,26,26,1,0,1,0,,,,,,,,,,,,,,,,,,,,,,,,,,,,,,,,,,,,,,,,,,,,,,,,,,,,30,,,,,,,,471.74980950000463,471.74980950000463,471.74980950000463,471.74980950000463,471.74980950000463,right,0.42761070001870394,26,0,0,99,0.0,-0.32,right,0.3590928000048734,,,,,,,,,,,,,,,,,,,,,,,,,,,,,,,,,A,train_x,x_increasing_steps,top_left,2024-10-29_22h27.15.265,HideSeek_v1,2022.2.5,60.12148147360831,
,0,1,2,1,2,0,36,,train_dim1_1,27,30,2,0,2,0,,,,,,,,,0,0,0,0,0,26,26,26,2,0,2,0,,,,,,,,,,,,,,,,,,,,,,,,,,,,,,,,,,,,,,,,,,,,,,,,,,,,30,,,,,,,,472.1825148999924,472.1825148999924,472.1825148999924,472.1825148999924,472.1825148999924,return,0.5110236000036821,27,0,0,1,0.0,-0.32,return,0.4428910999558866,0,62,0.0,-0.32,,,,,,,,,,,,,,,,,,,,,,,,,,,,,A,train_x,x_increasing_steps,top_left,2024-10-29_22h27.15.265,HideSeek_v1,2022.2.5,60.12148147360831,
,3,1,4,1,1,0,26,,train_dim1_1,28,30,2,0,2,0,,,,,,,,,0,0,0,0,0,27,27,27,0,0,0,0,,,,,,,,,,,,,stimuli/alien_stimuli/26.png,,,,,,,,,,,,,,,,,,,,,,,,,,,,,stimuli/alien_stimuli/36.png,36,0,29,,,,,,,30,,,,,,,,476.158047600009,476.158047600009,476.158047600009,476.158047600009,476.158047600009,right,0.7242008000030182,27,0,0,99,0.16,-0.32,right,0.6263563999673352,,,,,474.59945739997784,476.158047600009,0,-0.32,0.0,0.16,-0.32,0,-0.08,0,-0.32,474.2785283999983,474.2785283999983,474.2785283999983,474.2785283999983,474.2785283999983,474.2785283999983,474.2785283999983,474.2785283999983,474.233696100011,0.43507740000495687,return,0.2982817000010982,,,,,,A,train_x,x_increasing_steps,top_left,2024-10-29_22h27.15.265,HideSeek_v1,2022.2.5,60.12148147360831,
,3,1,4,1,1,0,26,,train_dim1_1,28,30,2,0,2,0,,,,,,,,,0,0,0,0,0,27,27,27,1,0,1,0,,,,,,,,,,,,,,,,,,,,,,,,,,,,,,,,,,,,,,,,,,,,,,,,,,,,30,,,,,,,,476.8724106000154,476.8724106000154,476.8724106000154,476.8724106000154,476.8724106000154,return,0.5108190000173636,28,0,0,1,0.16,-0.32,return,0.44318900001235306,0,63,0.16,-0.32,,,,,,,,,,,,,,,,,,,,,,,,,,,,,A,train_x,x_increasing_steps,top_left,2024-10-29_22h27.15.265,HideSeek_v1,2022.2.5,60.12148147360831,
,4,0,7,0,3,0,46,,train_dim1_1,29,30,2,0,2,0,,,,,,,,,0,0,0,0,0,28,28,28,0,0,0,0,,,,,,,,,,,,,stimuli/alien_stimuli/46.png,,,,,,,,,,,,,,,,,,,,,,,,,,,,,stimuli/alien_stimuli/26.png,26,3,30,,,,,,,30,,,,,,,,481.51599200000055,481.51599200000055,481.51599200000055,481.51599200000055,481.51599200000055,right,0.5914062999654561,28,0,0,99,0.24,-0.4,right,0.4898230999824591,,,,,479.949809200014,481.51599200000055,0.16,-0.32,0.0,0.08,-0.32,0.16,0.12,0.16,-0.32,478.9779756999924,478.9779756999924,478.9779756999924,478.9779756999924,478.9779756999924,478.9779756999924,478.9779756999924,478.9779756999924,478.9334877199726,1.1014891000231728,return,0.9471216999809258,,,,,,A,train_x,x_increasing_steps,top_left,2024-10-29_22h27.15.265,HideSeek_v1,2022.2.5,60.12148147360831,
,4,0,7,0,3,0,46,,train_dim1_1,29,30,2,0,2,0,,,,,,,,,0,0,0,0,0,28,28,28,1,0,1,0,,,,,,,,,,,,,,,,,,,,,,,,,,,,,,,,,,,,,,,,,,,,,,,,,,,,30,,,,,,,,482.08267640002305,482.08267640002305,482.08267640002305,482.08267640002305,482.08267640002305,right,0.42810660001123324,28,0,0,99,0.32,-0.4,right,0.3636149000376463,,,,,,,,,,,,,,,,,,,,,,,,,,,,,,,,,A,train_x,x_increasing_steps,top_left,2024-10-29_22h27.15.265,HideSeek_v1,2022.2.5,60.12148147360831,
,4,0,7,0,3,0,46,,train_dim1_1,29,30,2,0,2,0,,,,,,,,,0,0,0,0,0,28,28,28,2,0,2,0,,,,,,,,,,,,,,,,,,,,,,,,,,,,,,,,,,,,,,,,,,,,,,,,,,,,30,,,,,,,,482.51614700001664,482.51614700001664,482.51614700001664,482.51614700001664,482.51614700001664,right,0.37717919994611293,28,0,0,99,0.4,-0.4,right,0.3082347000017762,,,,,,,,,,,,,,,,,,,,,,,,,,,,,,,,,A,train_x,x_increasing_steps,top_left,2024-10-29_22h27.15.265,HideSeek_v1,2022.2.5,60.12148147360831,
,4,0,7,0,3,0,46,,train_dim1_1,29,30,2,0,2,0,,,,,,,,,0,0,0,0,0,28,28,28,3,0,3,0,,,,,,,,,,,,,,,,,,,,,,,,,,,,,,,,,,,,,,,,,,,,,,,,,,,,30,,,,,,,,482.89834219997283,482.89834219997283,482.89834219997283,482.89834219997283,482.89834219997283,return,0.49442160001490265,29,0,0,1,0.4,-0.4,return,0.43081579997669905,0,66,0.4,-0.4,,,,,,,,,,,,,,,,,,,,,,,,,,,,,A,train_x,x_increasing_steps,top_left,2024-10-29_22h27.15.265,HideSeek_v1,2022.2.5,60.12148147360831,
,2,2,2,2,0,0,16,,train_dim1_1,30,30,2,0,2,0,,,,,,,,,0,0,0,0,0,29,29,29,0,0,0,0,,,,,,,,,,,,,stimuli/alien_stimuli/16.png,,,,,,,,,,,,,,,,,,,,,,,,,,,,,stimuli/alien_stimuli/46.png,46,4,31,,,,,,,30,,,,,,,,488.05058029998327,488.05058029998327,488.05058029998327,488.05058029998327,488.05058029998327,return,1.1422280000406317,30,0,0,1,0,-0.24,return,1.027921199973207,0,66,0,-0.24,486.4663971000118,488.05058029998327,0.4,-0.4,0.0,0.24,-0.4,0.4,0.28,0.4,-0.4,484.9718465000042,484.9718465000042,484.9718465000042,484.9718465000042,484.9718465000042,484.9718465000042,484.9718465000042,484.9718465000042,484.932696999982,1.6020707999705337,return,1.463883199961856,,,,,,A,train_x,x_increasing_steps,top_left,2024-10-29_22h27.15.265,HideSeek_v1,2022.2.5,60.12148147360831,
,,,,,,,,,,,30,2,0,2,0,,,,,,,,,,,,,,,,,,,,,,,,,,,,,,,,,,,,,,,,,,,,,,,,,,,,,,,,,,,,,,stimuli/alien_stimuli/16.png,16,2,32,17,0.7,1.25,1,1,1,30,0,conditions/schedules/train_x_first/x_increasing_steps/top_left/inputTrain_1.1.xlsx,99,1,2,1,0,,,,,,,,,,,1,,,,,,,,,491.1995339000132,492.7315436999779,0,-0.24,0.0,0.0,-0.24,0,0.0,0,-0.24,490.7294289999991,490.7294289999991,490.7294289999991,490.7294289999991,490.7294289999991,490.7294289999991,490.7294289999991,490.7294289999991,490.68281929998193,0.585446499986574,return,0.44667849998222664,0,1.25,0,1,30,A,train_x,x_increasing_steps,top_left,2024-10-29_22h27.15.265,HideSeek_v1,2022.2.5,60.12148147360831,
,,,,,,,,,,,,3,0,3,0,0,0,0,0,,,,,,,,,,,,,,,,,,,conditions/schedules/train_x_first/x_increasing_steps/top_left/instructions/Slide17.png,conditions/schedules/train_x_first/x_increasing_steps/top_left/instructions/Audio17.wav,492.7315436999779,492.73262695997255,17,"[164.70876589999534, 2.1504118000157177, 0.23846149997552857, 0.16738569998415187, 0.14351449999958277, 0.140084000013303, 0.14204120001522824, 0.12549409997882321, 0.14147039997624233, 0.1549824999528937, 0.12565450003603473, 0.1544253000174649, 1.362561399990227, 0.9064203999587335, 3.861102700000629, 3.2902941999491304, 1.6484229000052437]","[1.0836300000082701, 0.02201349998358637, 0.00020319997565820813, 0.013263900007586926, 0.00024969998048618436, 0.00018909998470917344, 0.00019390002125874162, 0.00018879998242482543, 0.00019999995129182935, 0.1549898999510333, 0.12566070002503693, 0.15443100000265986, 0.1554007999948226, 0.9064289999660105, 0.05640359997050837, 3.2903014000039548, 1.6484322000178508]",0,,,,,,,,,,,,,,,,,,,,,,,,,,,,,,,,,,,,,,,,,,,,,,,,,,,,,,,,,,,,,,,,,,,,,,,,,,,,,,,,,,,,,,,,,,,,,,,,,A,train_x,x_increasing_steps,top_left,2024-10-29_22h27.15.265,HideSeek_v1,2022.2.5,60.12148147360831,
,,,,,,,,,,,,3,0,3,0,1,0,1,0,,,,,,,,,,,,,,,,,,,conditions/schedules/train_x_first/x_increasing_steps/top_left/instructions/Slide18.png,conditions/schedules/train_x_first/x_increasing_steps/top_left/instructions/Audio18.wav,494.4234051000094,494.416571460024,18,"[164.70876589999534, 2.1504118000157177, 0.23846149997552857, 0.16738569998415187, 0.14351449999958277, 0.140084000013303, 0.14204120001522824, 0.12549409997882321, 0.14147039997624233, 0.1549824999528937, 0.12565450003603473, 0.1544253000174649, 1.362561399990227, 0.9064203999587335, 3.861102700000629, 3.2902941999491304, 1.6484229000052437, 0.7387872000108473]","[1.0836300000082701, 0.02201349998358637, 0.00020319997565820813, 0.013263900007586926, 0.00024969998048618436, 0.00018909998470917344, 0.00019390002125874162, 0.00018879998242482543, 0.00019999995129182935, 0.1549898999510333, 0.12566070002503693, 0.15443100000265986, 0.1554007999948226, 0.9064289999660105, 0.05640359997050837, 3.2903014000039548, 0.07195489999139681, 0.7387925999937579]",0,,,,,,,,,,,,,,,,,,,,,,,,,,,,,,,,,,,,,,,,,,,,,,,,,,,,,,,,,,,,,,,,,,,,,,,,,,,,,,,,,,,,,,,,,,,,,,,,,A,train_x,x_increasing_steps,top_left,2024-10-29_22h27.15.265,HideSeek_v1,2022.2.5,60.12148147360831,
,,,,,,,,,,,,3,0,3,0,2,0,2,0,,,,,,,,,,,,,,,,,,,conditions/schedules/train_x_first/x_increasing_steps/top_left/instructions/Slide19.png,conditions/schedules/train_x_first/x_increasing_steps/top_left/instructions/Audio19.wav,495.2018528999761,495.1993753599818,19,"[164.70876589999534, 2.1504118000157177, 0.23846149997552857, 0.16738569998415187, 0.14351449999958277, 0.140084000013303, 0.14204120001522824, 0.12549409997882321, 0.14147039997624233, 0.1549824999528937, 0.12565450003603473, 0.1544253000174649, 1.362561399990227, 0.9064203999587335, 3.861102700000629, 3.2902941999491304, 1.6484229000052437, 0.7387872000108473, 0.6780153999570757]","[1.0836300000082701, 0.02201349998358637, 0.00020319997565820813, 0.013263900007586926, 0.00024969998048618436, 0.00018909998470917344, 0.00019390002125874162, 0.00018879998242482543, 0.00019999995129182935, 0.1549898999510333, 0.12566070002503693, 0.15443100000265986, 0.1554007999948226, 0.9064289999660105, 0.05640359997050837, 3.2903014000039548, 0.07195489999139681, 0.1270888999570161, 0.6780215999460779]",0,,,,,,,,,,,,,,,,,,,,,,,,,,,,,,,,,,,,,,,,,,,,,,,,,,,,,,,,,,,,,,,,,,,,,,,,,,,,,,,,,,,,,,,,,,,,,,,,,A,train_x,x_increasing_steps,top_left,2024-10-29_22h27.15.265,HideSeek_v1,2022.2.5,60.12148147360831,
,,,,,,,,,,,,3,0,3,0,3,0,3,0,,,,,,,,,,,,,,,,,,,conditions/schedules/train_x_first/x_increasing_steps/top_left/instructions/Slide20.png,conditions/schedules/train_x_first/x_increasing_steps/top_left/instructions/Audio20.wav,495.93261919997167,495.9331793800229,20,"[164.70876589999534, 2.1504118000157177, 0.23846149997552857, 0.16738569998415187, 0.14351449999958277, 0.140084000013303, 0.14204120001522824, 0.12549409997882321, 0.14147039997624233, 0.1549824999528937, 0.12565450003603473, 0.1544253000174649, 1.362561399990227, 0.9064203999587335, 3.861102700000629, 3.2902941999491304, 1.6484229000052437, 0.7387872000108473, 0.6780153999570757, 0.7815029000048526]","[1.0836300000082701, 0.02201349998358637, 0.00020319997565820813, 0.013263900007586926, 0.00024969998048618436, 0.00018909998470917344, 0.00019390002125874162, 0.00018879998242482543, 0.00019999995129182935, 0.1549898999510333, 0.12566070002503693, 0.15443100000265986, 0.1554007999948226, 0.9064289999660105, 0.05640359997050837, 3.2903014000039548, 0.07195489999139681, 0.1270888999570161, 0.13132600003154948, 0.7815092999953777]",0,,,,,,,,,,,,,,,,,,,,,,,,,,,,,,,,,,,,,,,,,,,,,,,,,,,,,,,,,,,,,,,,,,,,,,,,,,,,,,,,,,,,,,,,,,,,,,,,,A,train_x,x_increasing_steps,top_left,2024-10-29_22h27.15.265,HideSeek_v1,2022.2.5,60.12148147360831,
,,,,,,,,,,,,,,,,,,,,,,,,,,,,,,,,,,,,,,,,,,,,,,,,stimuli/alien_stimuli/66.png,conditions/schedules/train_x_first/x_increasing_steps/top_left/inputInstr_1.xlsx,stimuli/alien_stimuli/66.png,496.79942230001325,496.79942230001325,496.79942230001325,496.79942230001325,496.7659811800113,,,,,,,,,,,,,,,,,,,,,,,,,,,,,,,,,,,,,,,,,,,,,,,,,,,,,,,,,,,,,,,,,,,,,,,,,,,,,,,,,,,,,,,,,,,,,,,
