trialInstr,x_fixStart,y_fixStart,x_corrSteps,y_corrSteps,x_nrSteps,y_nrSteps,alienID,trialLength,version,trialTrain,praclen,beforeExpLoop.thisRepN,beforeExpLoop.thisTrialN,beforeExpLoop.thisN,beforeExpLoop.thisIndex,mini_instr_trials.thisRepN,mini_instr_trials.thisTrialN,mini_instr_trials.thisN,mini_instr_trials.thisIndex,instrLoop.thisRepN,instrLoop.thisTrialN,instrLoop.thisN,instrLoop.thisIndex,repeat_prac.thisRepN,repeat_prac.thisTrialN,repeat_prac.thisN,repeat_prac.thisIndex,trainLoop.thisRepN,trainLoop.thisTrialN,trainLoop.thisN,trainLoop.thisIndex,moveLoop_train.thisRepN,moveLoop_train.thisTrialN,moveLoop_train.thisN,moveLoop_train.thisIndex,start_all_time,url,slideStim,audioStim,slides.started,sounds.started,nextButton.numClicks,nextButton.timesOn,nextButton.timesOff,prev_but.numClicks,prev_but.timesOn,prev_but.timesOff,alienStim,instrFile,alienStim_instr,gridImage_instr.started,startPos_3.started,key_instr.started,alienImage_3.started,sounds_1.started,key_instr.keys,key_instr.rt,all_x,all_y,FBy_corrSteps,FBy_fixStart,FBx_corrSteps,FBx_fixStart,FBy_pathSize_check,FBx_pathSize_check,gridImage_9.started,alienImageFB_3.started,startPosFB_3.started,keyFB_3.started,pathLine_ydir_2.started,pathLine_xdir_2.started,alienFace_3.started,sounds_2.started,RTFB_instr,keyFB_3.keys,keyFB_3.rt,draw_alienStim,draw_alienID,test_x,nrepcount,perfthres,percthres,earlierperf,earlystop,nextPrac,fileidx,praclen,saveACC_train,pracFile,nextPrac_train,addNrep,fileidx_endr,repExp,showearly,gridImage_4.started,startPos.started,movePos.started,key_resp.started,alienImage.started,buttonPress_train,RTchoice_train,cumAcctrain,aCorr,saveACC_choice,corrAns,x_movePos_end,y_movePos_end,key_resp.keys,key_resp.rt,wLy_dir,wLx_dir,x_movePos,y_movePos,text_2.started,text_2.stopped,aft_x_corrPos,aft_y_corrPos,y_pathSize_check,x_pathSize_check,y_pathdirY,x_pathdirY,x_pathdirX,x_corrPos,y_corrPos,gridImage_6.started,alienImageFB_2.started,startPosFB_2.started,movePosFB_2.started,keyFB_2.started,pathLine_xdir.started,pathLine_ydir.started,alienFace.started,sounds_4.started,RT_FBtrain,keyFB_2.keys,keyFB_2.rt,saveACC_pre,ACC,within_saveACC_train,earlystop_wloop,cumAcctrain_check,participant,train_first,direction of x,starting corner,date,expName,psychopyVersion,frameRate,
,,,,,,,,,,,,0,0,0,0,0,0,0,0,,,,,,,,,,,,,,,,,start_all_time,testround,conditions/schedules/train_x_first/x_increasing_steps/top_left/instructions/Slide1.png,conditions/schedules/train_x_first/x_increasing_steps/top_left/instructions/Audio1.wav,31.80445579998195,31.747422899777302,1,[5.758012899954338],[5.758025799994357],0,,,,,,,,,,,,,,,,,,,,,,,,,,,,,,,,,,,,,,,,,,,,,,,,,,,,,,,,,,,,,,,,,,,,,,,,,,,,,,,,,,,,,,,,,,,,,,,,,A,train_x,x_increasing_steps,top_left,2024-10-29_23h02.04.851,HideSeek_v1,2022.2.5,60.14838607096862,
,,,,,,,,,,,,0,0,0,0,1,0,1,0,,,,,,,,,,,,,,,,,,,conditions/schedules/train_x_first/x_increasing_steps/top_left/instructions/Slide2.png,conditions/schedules/train_x_first/x_increasing_steps/top_left/instructions/Audio2.wav,37.56557249999605,37.54763829997973,2,"[5.758012899954338, 0.27507860003970563]","[0.025748100015334785, 0.2750872999895364]",0,,,,,,,,,,,,,,,,,,,,,,,,,,,,,,,,,,,,,,,,,,,,,,,,,,,,,,,,,,,,,,,,,,,,,,,,,,,,,,,,,,,,,,,,,,,,,,,,,A,train_x,x_increasing_steps,top_left,2024-10-29_23h02.04.851,HideSeek_v1,2022.2.5,60.14838607096862,
,,,,,,,,,,,,0,0,0,0,2,0,2,0,,,,,,,,,,,,,,,,,,,conditions/schedules/train_x_first/x_increasing_steps/top_left/instructions/Slide3.png,conditions/schedules/train_x_first/x_increasing_steps/top_left/instructions/Audio3.wav,37.88046929996926,37.88097220000345,3,"[5.758012899954338, 0.27507860003970563, 0.2000409999745898]","[0.025748100015334785, 0.015596499957609922, 0.20004769996739924]",0,,,,,,,,,,,,,,,,,,,,,,,,,,,,,,,,,,,,,,,,,,,,,,,,,,,,,,,,,,,,,,,,,,,,,,,,,,,,,,,,,,,,,,,,,,,,,,,,,A,train_x,x_increasing_steps,top_left,2024-10-29_23h02.04.851,HideSeek_v1,2022.2.5,60.14838607096862,
,,,,,,,,,,,,0,0,0,0,3,0,3,0,,,,,,,,,,,,,,,,,,,conditions/schedules/train_x_first/x_increasing_steps/top_left/instructions/Slide4.png,conditions/schedules/train_x_first/x_increasing_steps/top_left/instructions/Audio4.wav,38.13086719997227,38.114695200003915,4,"[5.758012899954338, 0.27507860003970563, 0.2000409999745898, 0.20373110001673922]","[0.025748100015334785, 0.015596499957609922, 0.03506969998124987, 0.20373840001411736]",0,,,,,,,,,,,,,,,,,,,,,,,,,,,,,,,,,,,,,,,,,,,,,,,,,,,,,,,,,,,,,,,,,,,,,,,,,,,,,,,,,,,,,,,,,,,,,,,,,A,train_x,x_increasing_steps,top_left,2024-10-29_23h02.04.851,HideSeek_v1,2022.2.5,60.14838607096862,
,,,,,,,,,,,,0,0,0,0,4,0,4,0,,,,,,,,,,,,,,,,,,,conditions/schedules/train_x_first/x_increasing_steps/top_left/instructions/Slide5.png,conditions/schedules/train_x_first/x_increasing_steps/top_left/instructions/Audio5.wav,38.38271370000439,38.36432070000446,5,"[5.758012899954338, 0.27507860003970563, 0.2000409999745898, 0.20373110001673922, 0.24056370003381744]","[0.025748100015334785, 0.015596499957609922, 0.03506969998124987, 0.04052750003756955, 0.24056950001977384]",0,,,,,,,,,,,,,,,,,,,,,,,,,,,,,,,,,,,,,,,,,,,,,,,,,,,,,,,,,,,,,,,,,,,,,,,,,,,,,,,,,,,,,,,,,,,,,,,,,A,train_x,x_increasing_steps,top_left,2024-10-29_23h02.04.851,HideSeek_v1,2022.2.5,60.14838607096862,
,,,,,,,,,,,,0,0,0,0,5,0,5,0,,,,,,,,,,,,,,,,,,,conditions/schedules/train_x_first/x_increasing_steps/top_left/instructions/Slide6.png,conditions/schedules/train_x_first/x_increasing_steps/top_left/instructions/Audio6.wav,38.65126799995778,38.647709399991435,6,"[5.758012899954338, 0.27507860003970563, 0.2000409999745898, 0.20373110001673922, 0.24056370003381744, 0.227823699999135]","[0.025748100015334785, 0.015596499957609922, 0.03506969998124987, 0.04052750003756955, 0.014737100049387664, 0.22783099999651313]",0,,,,,,,,,,,,,,,,,,,,,,,,,,,,,,,,,,,,,,,,,,,,,,,,,,,,,,,,,,,,,,,,,,,,,,,,,,,,,,,,,,,,,,,,,,,,,,,,,A,train_x,x_increasing_steps,top_left,2024-10-29_23h02.04.851,HideSeek_v1,2022.2.5,60.14838607096862,
,,,,,,,,,,,,0,0,0,0,6,0,6,0,,,,,,,,,,,,,,,,,,,conditions/schedules/train_x_first/x_increasing_steps/top_left/instructions/Slide7.png,conditions/schedules/train_x_first/x_increasing_steps/top_left/instructions/Audio7.wav,38.91890389996115,38.91440039995941,7,"[5.758012899954338, 0.27507860003970563, 0.2000409999745898, 0.20373110001673922, 0.24056370003381744, 0.227823699999135, 0.2606062000268139]","[0.025748100015334785, 0.015596499957609922, 0.03506969998124987, 0.04052750003756955, 0.014737100049387664, 0.0444248000276275, 0.2606130000203848]",0,,,,,,,,,,,,,,,,,,,,,,,,,,,,,,,,,,,,,,,,,,,,,,,,,,,,,,,,,,,,,,,,,,,,,,,,,,,,,,,,,,,,,,,,,,,,,,,,,A,train_x,x_increasing_steps,top_left,2024-10-29_23h02.04.851,HideSeek_v1,2022.2.5,60.14838607096862,
,,,,,,,,,,,,0,0,0,0,7,0,7,0,,,,,,,,,,,,,,,,,,,conditions/schedules/train_x_first/x_increasing_steps/top_left/instructions/Slide8.png,conditions/schedules/train_x_first/x_increasing_steps/top_left/instructions/Audio8.wav,39.21848629997112,39.21467999998131,8,"[5.758012899954338, 0.27507860003970563, 0.2000409999745898, 0.20373110001673922, 0.24056370003381744, 0.227823699999135, 0.2606062000268139, 0.37765809998381883]","[0.025748100015334785, 0.015596499957609922, 0.03506969998124987, 0.04052750003756955, 0.014737100049387664, 0.0444248000276275, 0.044553799962159246, 0.37766619998728856]",0,,,,,,,,,,,,,,,,,,,,,,,,,,,,,,,,,,,,,,,,,,,,,,,,,,,,,,,,,,,,,,,,,,,,,,,,,,,,,,,,,,,,,,,,,,,,,,,,,A,train_x,x_increasing_steps,top_left,2024-10-29_23h02.04.851,HideSeek_v1,2022.2.5,60.14838607096862,
,,,,,,,,,,,,0,0,0,0,8,0,8,0,,,,,,,,,,,,,,,,,,,conditions/schedules/train_x_first/x_increasing_steps/top_left/instructions/Slide9.png,conditions/schedules/train_x_first/x_increasing_steps/top_left/instructions/Audio9.wav,39.6478162999847,39.630964799964566,9,"[5.758012899954338, 0.27507860003970563, 0.2000409999745898, 0.20373110001673922, 0.24056370003381744, 0.227823699999135, 0.2606062000268139, 0.37765809998381883, 0.28972699999576434]","[0.025748100015334785, 0.015596499957609922, 0.03506969998124987, 0.04052750003756955, 0.014737100049387664, 0.0444248000276275, 0.044553799962159246, 0.07303580001462251, 0.2897342999931425]",0,,,,,,,,,,,,,,,,,,,,,,,,,,,,,,,,,,,,,,,,,,,,,,,,,,,,,,,,,,,,,,,,,,,,,,,,,,,,,,,,,,,,,,,,,,,,,,,,,A,train_x,x_increasing_steps,top_left,2024-10-29_23h02.04.851,HideSeek_v1,2022.2.5,60.14838607096862,
,,,,,,,,,,,,0,0,0,0,9,0,9,0,,,,,,,,,,,,,,,,,,,conditions/schedules/train_x_first/x_increasing_steps/top_left/instructions/Slide10.png,conditions/schedules/train_x_first/x_increasing_steps/top_left/instructions/Audio10.wav,39.964446800004225,39.947773799963755,10,"[5.758012899954338, 0.27507860003970563, 0.2000409999745898, 0.20373110001673922, 0.24056370003381744, 0.227823699999135, 0.2606062000268139, 0.37765809998381883, 0.28972699999576434, 0.27105999999912456]","[0.025748100015334785, 0.015596499957609922, 0.03506969998124987, 0.04052750003756955, 0.014737100049387664, 0.0444248000276275, 0.044553799962159246, 0.07303580001462251, 0.07140469999285415, 0.2710656999843195]",0,,,,,,,,,,,,,,,,,,,,,,,,,,,,,,,,,,,,,,,,,,,,,,,,,,,,,,,,,,,,,,,,,,,,,,,,,,,,,,,,,,,,,,,,,,,,,,,,,A,train_x,x_increasing_steps,top_left,2024-10-29_23h02.04.851,HideSeek_v1,2022.2.5,60.14838607096862,
,,,,,,,,,,,,0,0,0,0,10,0,10,0,,,,,,,,,,,,,,,,,,,conditions/schedules/train_x_first/x_increasing_steps/top_left/instructions/Slide11.png,conditions/schedules/train_x_first/x_increasing_steps/top_left/instructions/Audio11.wav,40.28104139998322,40.26414879999938,11,"[5.758012899954338, 0.27507860003970563, 0.2000409999745898, 0.20373110001673922, 0.24056370003381744, 0.227823699999135, 0.2606062000268139, 0.37765809998381883, 0.28972699999576434, 0.27105999999912456, 0.29211729997769]","[0.025748100015334785, 0.015596499957609922, 0.03506969998124987, 0.04052750003756955, 0.014737100049387664, 0.0444248000276275, 0.044553799962159246, 0.07303580001462251, 0.07140469999285415, 0.05891149997478351, 0.29212489997735247]",0,,,,,,,,,,,,,,,,,,,,,,,,,,,,,,,,,,,,,,,,,,,,,,,,,,,,,,,,,,,,,,,,,,,,,,,,,,,,,,,,,,,,,,,,,,,,,,,,,A,train_x,x_increasing_steps,top_left,2024-10-29_23h02.04.851,HideSeek_v1,2022.2.5,60.14838607096862,
,,,,,,,,,,,,0,0,0,0,11,0,11,0,,,,,,,,,,,,,,,,,,,conditions/schedules/train_x_first/x_increasing_steps/top_left/instructions/Slide12.png,conditions/schedules/train_x_first/x_increasing_steps/top_left/instructions/Audio12.wav,40.61447799997404,40.597547199990366,12,"[5.758012899954338, 0.27507860003970563, 0.2000409999745898, 0.20373110001673922, 0.24056370003381744, 0.227823699999135, 0.2606062000268139, 0.37765809998381883, 0.28972699999576434, 0.27105999999912456, 0.29211729997769, 0.3249426000402309]","[0.025748100015334785, 0.015596499957609922, 0.03506969998124987, 0.04052750003756955, 0.014737100049387664, 0.0444248000276275, 0.044553799962159246, 0.07303580001462251, 0.07140469999285415, 0.05891149997478351, 0.07496840000385419, 0.3249508999870159]",0,,,,,,,,,,,,,,,,,,,,,,,,,,,,,,,,,,,,,,,,,,,,,,,,,,,,,,,,,,,,,,,,,,,,,,,,,,,,,,,,,,,,,,,,,,,,,,,,,A,train_x,x_increasing_steps,top_left,2024-10-29_23h02.04.851,HideSeek_v1,2022.2.5,60.14838607096862,
1,3,2,8,2,5,0,66,2,instr_dim1_1,,,0,0,0,0,,,,,0,0,0,0,,,,,,,,,,,,,,,,,,,,,,,,,stimuli/alien_stimuli/66.png,conditions/schedules/train_x_first/x_increasing_steps/top_left/inputInstr_1.xlsx,stimuli/alien_stimuli/66.png,40.99909579998348,40.99909579998348,40.99909579998348,40.99909579998348,40.98087399998912,return,0.841697399970144,"[-0.16, -0.08, 0, 0.08, 0.16, 0.24, 0.32, 0.4, 0.48, 0.56]","[-0.4, -0.32, -0.24, -0.16, -0.08, 0, 0.08, 0.16, 0.24, 0.32]",2,2,8,3,0.0,0.4,42.01569259999087,42.01569259999087,42.01569259999087,42.01569259999087,42.01569259999087,42.01569259999087,42.01569259999087,41.94741279999725,0.5176083000260405,return,0.34516219998477027,stimuli/alien_stimuli/66.png,66,3,1,,,,,,,,,,,,,,,,,,,,,,,,,,,,,,,,,,,,,,,,,,,,,,,,,,,,,,,,,,,,,,A,train_x,x_increasing_steps,top_left,2024-10-29_23h02.04.851,HideSeek_v1,2022.2.5,60.14838607096862,
,,,,,,,,,,,30,0,0,0,0,,,,,,,,,,,,,,,,,,,,,,,,,,,,,,,,,,,,,,,,,,,,,,,,,,,,,,,,,,,,,,,,,,17,0.7,0,0,99,1,30,0,conditions/schedules/train_x_first/x_increasing_steps/top_left/inputTrain_1.1.xlsx,99,1,1,1,0,,,,,,,,,,,,,,,,,,,,,,,,,,,,,,,,,,,,,,,,,,,,,,,,A,train_x,x_increasing_steps,top_left,2024-10-29_23h02.04.851,HideSeek_v1,2022.2.5,60.14838607096862,
,,,,,,,,,,,,1,0,1,0,0,0,0,0,,,,,,,,,,,,,,,,,,,conditions/schedules/train_x_first/x_increasing_steps/top_left/instructions/Slide13.png,conditions/schedules/train_x_first/x_increasing_steps/top_left/instructions/Audio13.wav,42.47575169999618,42.4643167999573,13,"[5.758012899954338, 0.27507860003970563, 0.2000409999745898, 0.20373110001673922, 0.24056370003381744, 0.227823699999135, 0.2606062000268139, 0.37765809998381883, 0.28972699999576434, 0.27105999999912456, 0.29211729997769, 0.3249426000402309, 0.5535800000070594]","[0.025748100015334785, 0.015596499957609922, 0.03506969998124987, 0.04052750003756955, 0.014737100049387664, 0.0444248000276275, 0.044553799962159246, 0.07303580001462251, 0.07140469999285415, 0.05891149997478351, 0.07496840000385419, 0.3249508999870159, 0.5535873000044376]",0,,,,,,,,,,,,,,,,,,,,,,,,,,,,,,,,,,,,,,,,,,,,,,,,,,,,,,,,,,,,,,,,,,,,,,,,,,,,,,,,,,,,,,,,,,,,,,,,,A,train_x,x_increasing_steps,top_left,2024-10-29_23h02.04.851,HideSeek_v1,2022.2.5,60.14838607096862,
,,,,,,,,,,,,1,0,1,0,1,0,1,0,,,,,,,,,,,,,,,,,,,conditions/schedules/train_x_first/x_increasing_steps/top_left/instructions/Slide14.png,conditions/schedules/train_x_first/x_increasing_steps/top_left/instructions/Audio14.wav,43.07601319998503,43.06430869998294,14,"[5.758012899954338, 0.27507860003970563, 0.2000409999745898, 0.20373110001673922, 0.24056370003381744, 0.227823699999135, 0.2606062000268139, 0.37765809998381883, 0.28972699999576434, 0.27105999999912456, 0.29211729997769, 0.3249426000402309, 0.5535800000070594, 1.1370066999807023]","[0.025748100015334785, 0.015596499957609922, 0.03506969998124987, 0.04052750003756955, 0.014737100049387664, 0.0444248000276275, 0.044553799962159246, 0.07303580001462251, 0.07140469999285415, 0.05891149997478351, 0.07496840000385419, 0.3249508999870159, 0.052956199971958995, 1.1370139999780804]",0,,,,,,,,,,,,,,,,,,,,,,,,,,,,,,,,,,,,,,,,,,,,,,,,,,,,,,,,,,,,,,,,,,,,,,,,,,,,,,,,,,,,,,,,,,,,,,,,,A,train_x,x_increasing_steps,top_left,2024-10-29_23h02.04.851,HideSeek_v1,2022.2.5,60.14838607096862,
2,4,0,4,0,0,0,16,2,instr_dim1_1,,,1,0,1,0,,,,,0,0,0,0,,,,,,,,,,,,,,,,,,,,,,,,,stimuli/alien_stimuli/16.png,conditions/schedules/train_x_first/x_increasing_steps/top_left/inputInstr_1.xlsx,stimuli/alien_stimuli/16.png,44.2984019999858,44.2984019999858,44.2984019999858,44.2984019999858,44.26427390000317,return,0.38657420000527054,"[-0.16, -0.08, 0, 0.08, 0.16, 0.24, 0.32, 0.4, 0.48, 0.56]","[-0.4, -0.32, -0.24, -0.16, -0.08, 0, 0.08, 0.16, 0.24, 0.32]",0,0,4,4,0.0,0.0,44.9642509999685,44.9642509999685,44.9642509999685,44.9642509999685,44.9642509999685,44.9642509999685,44.9642509999685,44.79764239997603,0.5559026999981143,return,0.2766605000360869,stimuli/alien_stimuli/16.png,16,4,2,,,,,,,,,,,,,,,,,,,,,,,,,,,,,,,,,,,,,,,,,,,,,,,,,,,,,,,,,,,,,,A,train_x,x_increasing_steps,top_left,2024-10-29_23h02.04.851,HideSeek_v1,2022.2.5,60.14838607096862,
,,,,,,,,,,,30,1,0,1,0,,,,,,,,,,,,,,,,,,,,,,,,,,,,,,,,,,,,,,,,,,,,,,,,,,,,,,,,,,,,,,,,,,17,0.7,0,0,99,1,30,0,conditions/schedules/train_x_first/x_increasing_steps/top_left/inputTrain_1.1.xlsx,99,1,1,1,0,,,,,,,,,,,,,,,,,,,,,,,,,,,,,,,,,,,,,,,,,,,,,,,,A,train_x,x_increasing_steps,top_left,2024-10-29_23h02.04.851,HideSeek_v1,2022.2.5,60.14838607096862,
,,,,,,,,,,,,2,0,2,0,0,0,0,0,,,,,,,,,,,,,,,,,,,conditions/schedules/train_x_first/x_increasing_steps/top_left/instructions/Slide15.png,conditions/schedules/train_x_first/x_increasing_steps/top_left/instructions/Audio15.wav,45.37979489995632,45.36714290000381,15,"[5.758012899954338, 0.27507860003970563, 0.2000409999745898, 0.20373110001673922, 0.24056370003381744, 0.227823699999135, 0.2606062000268139, 0.37765809998381883, 0.28972699999576434, 0.27105999999912456, 0.29211729997769, 0.3249426000402309, 0.5535800000070594, 1.1370066999807023, 0.7997813000110909]","[0.025748100015334785, 0.015596499957609922, 0.03506969998124987, 0.04052750003756955, 0.014737100049387664, 0.0444248000276275, 0.044553799962159246, 0.07303580001462251, 0.07140469999285415, 0.05891149997478351, 0.07496840000385419, 0.3249508999870159, 0.052956199971958995, 1.1370139999780804, 0.7997885000077076]",0,,,,,,,,,,,,,,,,,,,,,,,,,,,,,,,,,,,,,,,,,,,,,,,,,,,,,,,,,,,,,,,,,,,,,,,,,,,,,,,,,,,,,,,,,,,,,,,,,A,train_x,x_increasing_steps,top_left,2024-10-29_23h02.04.851,HideSeek_v1,2022.2.5,60.14838607096862,
,,,,,,,,,,,,2,0,2,0,1,0,1,0,,,,,,,,,,,,,,,,,,,conditions/schedules/train_x_first/x_increasing_steps/top_left/instructions/Slide16.png,conditions/schedules/train_x_first/x_increasing_steps/top_left/instructions/Audio16.wav,46.2329268999747,46.23107699996326,16,"[5.758012899954338, 0.27507860003970563, 0.2000409999745898, 0.20373110001673922, 0.24056370003381744, 0.227823699999135, 0.2606062000268139, 0.37765809998381883, 0.28972699999576434, 0.27105999999912456, 0.29211729997769, 0.3249426000402309, 0.5535800000070594, 1.1370066999807023, 0.7997813000110909, 0.3966102999984287]","[0.025748100015334785, 0.015596499957609922, 0.03506969998124987, 0.04052750003756955, 0.014737100049387664, 0.0444248000276275, 0.044553799962159246, 0.07303580001462251, 0.07140469999285415, 0.05891149997478351, 0.07496840000385419, 0.3249508999870159, 0.052956199971958995, 1.1370139999780804, 0.06296829995699227, 0.3966165999881923]",0,,,,,,,,,,,,,,,,,,,,,,,,,,,,,,,,,,,,,,,,,,,,,,,,,,,,,,,,,,,,,,,,,,,,,,,,,,,,,,,,,,,,,,,,,,,,,,,,,A,train_x,x_increasing_steps,top_left,2024-10-29_23h02.04.851,HideSeek_v1,2022.2.5,60.14838607096862,
,2,1,4,1,2,0,36,,train_dim1_1,1,30,2,0,2,0,,,,,,,,,0,0,0,0,0,0,0,0,0,0,0,0,,,,,,,,,,,,,stimuli/alien_stimuli/36.png,,,,,,,,,,,,,,,,,,,,,,,,,,,,,,,,,,,,,,,30,,,,,,,,46.69949849997647,46.69949849997647,46.69949849997647,46.69949849997647,46.69949849997647,right,1.1660828000167385,0,0,0,99,0.08,-0.32,right,1.0840331999934278,,,,,,,,,,,,,,,,,,,,,,,,,,,,,,,,,A,train_x,x_increasing_steps,top_left,2024-10-29_23h02.04.851,HideSeek_v1,2022.2.5,60.14838607096862,
,2,1,4,1,2,0,36,,train_dim1_1,1,30,2,0,2,0,,,,,,,,,0,0,0,0,0,0,0,0,1,0,1,0,,,,,,,,,,,,,,,,,,,,,,,,,,,,,,,,,,,,,,,,,,,,,,,,,,,,30,,,,,,,,47.896940999955405,47.896940999955405,47.896940999955405,47.896940999955405,47.896940999955405,right,0.14373010001145303,0,0,0,99,0.16,-0.32,right,0.05064379994291812,,,,,,,,,,,,,,,,,,,,,,,,,,,,,,,,,A,train_x,x_increasing_steps,top_left,2024-10-29_23h02.04.851,HideSeek_v1,2022.2.5,60.14838607096862,
,2,1,4,1,2,0,36,,train_dim1_1,1,30,2,0,2,0,,,,,,,,,0,0,0,0,0,0,0,0,2,0,2,0,,,,,,,,,,,,,,,,,,,,,,,,,,,,,,,,,,,,,,,,,,,,,,,,,,,,30,,,,,,,,48.01643159997184,48.01643159997184,48.01643159997184,48.01643159997184,48.01643159997184,return,0.3277068000170402,1,0,0,1,0.16,-0.32,return,0.25298660004045814,0,2,0.16,-0.32,,,,,,,,,,,,,,,,,,,,,,,,,,,,,A,train_x,x_increasing_steps,top_left,2024-10-29_23h02.04.851,HideSeek_v1,2022.2.5,60.14838607096862,
,2,4,2,4,0,0,16,,train_dim1_1,2,30,2,0,2,0,,,,,,,,,0,0,0,0,0,1,1,1,0,0,0,0,,,,,,,,,,,,,stimuli/alien_stimuli/16.png,,,,,,,,,,,,,,,,,,,,,,,,,,,,,stimuli/alien_stimuli/36.png,36,2,3,,,,,,,30,,,,,,,,51.93920640001306,51.93920640001306,51.93920640001306,51.93920640001306,51.93920640001306,return,0.7750352000002749,2,0,0,1,0,-0.08,return,0.6405717000016011,0,2,0,-0.08,50.33066679997137,51.93920640001306,0.16,-0.32,0.0,0.16,-0.32,0.16,0.08,0.16,-0.32,49.9461737999809,49.9461737999809,49.9461737999809,49.9461737999809,49.9461737999809,49.9461737999809,49.9461737999809,49.9461737999809,49.88082609997946,0.5186130999936722,return,0.36534359998768196,,,,,,A,train_x,x_increasing_steps,top_left,2024-10-29_23h02.04.851,HideSeek_v1,2022.2.5,60.14838607096862,
,4,4,5,4,1,0,26,,train_dim1_1,3,30,2,0,2,0,,,,,,,,,0,0,0,0,0,2,2,2,0,0,0,0,,,,,,,,,,,,,stimuli/alien_stimuli/26.png,,,,,,,,,,,,,,,,,,,,,,,,,,,,,stimuli/alien_stimuli/16.png,16,2,4,,,,,,,30,,,,,,,,56.3133419000078,56.3133419000078,56.3133419000078,56.3133419000078,56.3133419000078,right,0.5421846999670379,2,0,0,99,0.24,-0.08,right,0.4405140000162646,,,,,54.7479588999995,56.3133419000078,0,-0.08,0.0,0.0,-0.08,0,0.0,0,-0.08,54.26401360001182,54.26401360001182,54.26401360001182,54.26401360001182,54.26401360001182,54.26401360001182,54.26401360001182,54.26401360001182,54.180922700004885,0.6350844000116922,return,0.4531833999790251,,,,,,A,train_x,x_increasing_steps,top_left,2024-10-29_23h02.04.851,HideSeek_v1,2022.2.5,60.14838607096862,
,4,4,5,4,1,0,26,,train_dim1_1,3,30,2,0,2,0,,,,,,,,,0,0,0,0,0,2,2,2,1,0,1,0,,,,,,,,,,,,,,,,,,,,,,,,,,,,,,,,,,,,,,,,,,,,,,,,,,,,30,,,,,,,,56.84736909996718,56.84736909996718,56.84736909996718,56.84736909996718,56.84736909996718,return,0.20914900000207126,3,0,0,1,0.24,-0.08,return,0.1337867000256665,0,3,0.24,-0.08,,,,,,,,,,,,,,,,,,,,,,,,,,,,,A,train_x,x_increasing_steps,top_left,2024-10-29_23h02.04.851,HideSeek_v1,2022.2.5,60.14838607096862,
,2,3,5,3,3,0,46,,train_dim1_1,4,30,2,0,2,0,,,,,,,,,0,0,0,0,0,3,3,3,0,0,0,0,,,,,,,,,,,,,stimuli/alien_stimuli/46.png,,,,,,,,,,,,,,,,,,,,,,,,,,,,,stimuli/alien_stimuli/26.png,26,4,5,,,,,,,30,,,,,,,,60.532388799998444,60.532388799998444,60.532388799998444,60.532388799998444,60.532388799998444,right,0.7918835000018589,3,0,0,99,0.08,-0.16,right,0.6926364999962971,,,,,58.96428089996334,60.532388799998444,0.24,-0.08,0.0,0.08,-0.08,0.24,0.2,0.24,-0.08,58.632597999996506,58.632597999996506,58.632597999996506,58.632597999996506,58.632597999996506,58.632597999996506,58.632597999996506,58.632597999996506,58.58076539999456,0.45266529999207705,return,0.31018710002535954,,,,,,A,train_x,x_increasing_steps,top_left,2024-10-29_23h02.04.851,HideSeek_v1,2022.2.5,60.14838607096862,
,2,3,5,3,3,0,46,,train_dim1_1,4,30,2,0,2,0,,,,,,,,,0,0,0,0,0,3,3,3,1,0,1,0,,,,,,,,,,,,,,,,,,,,,,,,,,,,,,,,,,,,,,,,,,,,,,,,,,,,30,,,,,,,,61.29764389997581,61.29764389997581,61.29764389997581,61.29764389997581,61.29764389997581,right,0.37726640002802014,3,0,0,99,0.16,-0.16,right,0.3088680000510067,,,,,,,,,,,,,,,,,,,,,,,,,,,,,,,,,A,train_x,x_increasing_steps,top_left,2024-10-29_23h02.04.851,HideSeek_v1,2022.2.5,60.14838607096862,
,2,3,5,3,3,0,46,,train_dim1_1,4,30,2,0,2,0,,,,,,,,,0,0,0,0,0,3,3,3,2,0,2,0,,,,,,,,,,,,,,,,,,,,,,,,,,,,,,,,,,,,,,,,,,,,,,,,,,,,30,,,,,,,,61.68137999996543,61.68137999996543,61.68137999996543,61.68137999996543,61.68137999996543,right,0.3115957000409253,3,0,0,99,0.24,-0.16,right,0.24562840000726283,,,,,,,,,,,,,,,,,,,,,,,,,,,,,,,,,A,train_x,x_increasing_steps,top_left,2024-10-29_23h02.04.851,HideSeek_v1,2022.2.5,60.14838607096862,
,2,3,5,3,3,0,46,,train_dim1_1,4,30,2,0,2,0,,,,,,,,,0,0,0,0,0,3,3,3,3,0,3,0,,,,,,,,,,,,,,,,,,,,,,,,,,,,,,,,,,,,,,,,,,,,,,,,,,,,30,,,,,,,,61.99887359997956,61.99887359997956,61.99887359997956,61.99887359997956,61.99887359997956,return,0.24395280005410314,4,0,0,1,0.24,-0.16,return,0.17809600004693493,0,6,0.24,-0.16,,,,,,,,,,,,,,,,,,,,,,,,,,,,,A,train_x,x_increasing_steps,top_left,2024-10-29_23h02.04.851,HideSeek_v1,2022.2.5,60.14838607096862,
,0,2,5,2,5,0,66,,train_dim1_1,5,30,2,0,2,0,,,,,,,,,0,0,0,0,0,4,4,4,0,0,0,0,,,,,,,,,,,,,stimuli/alien_stimuli/66.png,,,,,,,,,,,,,,,,,,,,,,,,,,,,,stimuli/alien_stimuli/46.png,46,2,6,,,,,,,30,,,,,,,,66.24742119997973,66.24742119997973,66.24742119997973,66.24742119997973,66.24742119997973,right,0.7587558000232093,4,0,0,99,-0.08,-0.24,right,0.6641534000518732,,,,,64.68055489996914,66.24742119997973,0.24,-0.16,0.0,0.24,-0.16,0.24,0.12,0.24,-0.16,63.8453113999567,63.8453113999567,63.8453113999567,63.8453113999567,63.8453113999567,63.8453113999567,63.8453113999567,63.8453113999567,63.78079679995426,0.9684448999469168,return,0.8061714000068605,,,,,,A,train_x,x_increasing_steps,top_left,2024-10-29_23h02.04.851,HideSeek_v1,2022.2.5,60.14838607096862,
,0,2,5,2,5,0,66,,train_dim1_1,5,30,2,0,2,0,,,,,,,,,0,0,0,0,0,4,4,4,1,0,1,0,,,,,,,,,,,,,,,,,,,,,,,,,,,,,,,,,,,,,,,,,,,,,,,,,,,,30,,,,,,,,66.98657999996794,66.98657999996794,66.98657999996794,66.98657999996794,66.98657999996794,right,0.3278872999944724,4,0,0,99,0.0,-0.24,right,0.25238269998226315,,,,,,,,,,,,,,,,,,,,,,,,,,,,,,,,,A,train_x,x_increasing_steps,top_left,2024-10-29_23h02.04.851,HideSeek_v1,2022.2.5,60.14838607096862,
,0,2,5,2,5,0,66,,train_dim1_1,5,30,2,0,2,0,,,,,,,,,0,0,0,0,0,4,4,4,2,0,2,0,,,,,,,,,,,,,,,,,,,,,,,,,,,,,,,,,,,,,,,,,,,,,,,,,,,,30,,,,,,,,67.3215566999861,67.3215566999861,67.3215566999861,67.3215566999861,67.3215566999861,right,0.27830900001572445,4,0,0,99,0.08,-0.24,right,0.20657939999364316,,,,,,,,,,,,,,,,,,,,,,,,,,,,,,,,,A,train_x,x_increasing_steps,top_left,2024-10-29_23h02.04.851,HideSeek_v1,2022.2.5,60.14838607096862,
,0,2,5,2,5,0,66,,train_dim1_1,5,30,2,0,2,0,,,,,,,,,0,0,0,0,0,4,4,4,3,0,3,0,,,,,,,,,,,,,,,,,,,,,,,,,,,,,,,,,,,,,,,,,,,,,,,,,,,,30,,,,,,,,67.60484149999684,67.60484149999684,67.60484149999684,67.60484149999684,67.60484149999684,right,0.2940647999639623,4,0,0,99,0.16,-0.24,right,0.22593890002463013,,,,,,,,,,,,,,,,,,,,,,,,,,,,,,,,,A,train_x,x_increasing_steps,top_left,2024-10-29_23h02.04.851,HideSeek_v1,2022.2.5,60.14838607096862,
,0,2,5,2,5,0,66,,train_dim1_1,5,30,2,0,2,0,,,,,,,,,0,0,0,0,0,4,4,4,4,0,4,0,,,,,,,,,,,,,,,,,,,,,,,,,,,,,,,,,,,,,,,,,,,,,,,,,,,,30,,,,,,,,67.9058041999815,67.9058041999815,67.9058041999815,67.9058041999815,67.9058041999815,right,0.2443086999701336,4,0,0,99,0.24,-0.24,right,0.16492199996719137,,,,,,,,,,,,,,,,,,,,,,,,,,,,,,,,,A,train_x,x_increasing_steps,top_left,2024-10-29_23h02.04.851,HideSeek_v1,2022.2.5,60.14838607096862,
,0,2,5,2,5,0,66,,train_dim1_1,5,30,2,0,2,0,,,,,,,,,0,0,0,0,0,4,4,4,5,0,5,0,,,,,,,,,,,,,,,,,,,,,,,,,,,,,,,,,,,,,,,,,,,,,,,,,,,,30,,,,,,,,68.15452679997543,68.15452679997543,68.15452679997543,68.15452679997543,68.15452679997543,return,0.31070259999250993,5,0,0,1,0.24,-0.24,return,0.23242219997337088,0,11,0.24,-0.24,,,,,,,,,,,,,,,,,,,,,,,,,,,,,A,train_x,x_increasing_steps,top_left,2024-10-29_23h02.04.851,HideSeek_v1,2022.2.5,60.14838607096862,
,0,0,1,0,1,0,26,,train_dim1_1,6,30,2,0,2,0,,,,,,,,,0,0,0,0,0,5,5,5,0,0,0,0,,,,,,,,,,,,,stimuli/alien_stimuli/26.png,,,,,,,,,,,,,,,,,,,,,,,,,,,,,stimuli/alien_stimuli/66.png,66,0,7,,,,,,,30,,,,,,,,73.59619229997043,73.59619229997043,73.59619229997043,73.59619229997043,73.59619229997043,right,0.9749124000081792,5,0,0,99,-0.08,-0.4,right,0.8740684000076726,,,,,72.03064750001067,73.59619229997043,0.24,-0.24,0.0,0.4,-0.24,0.24,0.039999999999999994,0.24,-0.24,70.07894219999434,70.07894219999434,70.07894219999434,70.07894219999434,70.07894219999434,70.07894219999434,70.07894219999434,70.07894219999434,69.9970464000071,2.1018024999648333,return,1.930053099989891,,,,,,A,train_x,x_increasing_steps,top_left,2024-10-29_23h02.04.851,HideSeek_v1,2022.2.5,60.14838607096862,
,0,0,1,0,1,0,26,,train_dim1_1,6,30,2,0,2,0,,,,,,,,,0,0,0,0,0,5,5,5,1,0,1,0,,,,,,,,,,,,,,,,,,,,,,,,,,,,,,,,,,,,,,,,,,,,,,,,,,,,30,,,,,,,,74.55422589997761,74.55422589997761,74.55422589997761,74.55422589997761,74.55422589997761,return,0.26095140003599226,6,0,0,1,-0.08,-0.4,return,0.1888526999973692,0,12,-0.08,-0.4,,,,,,,,,,,,,,,,,,,,,,,,,,,,,A,train_x,x_increasing_steps,top_left,2024-10-29_23h02.04.851,HideSeek_v1,2022.2.5,60.14838607096862,
,3,0,8,0,5,0,66,,train_dim1_1,7,30,2,0,2,0,,,,,,,,,0,0,0,0,0,6,6,6,0,0,0,0,,,,,,,,,,,,,stimuli/alien_stimuli/66.png,,,,,,,,,,,,,,,,,,,,,,,,,,,,,stimuli/alien_stimuli/26.png,26,0,8,,,,,,,30,,,,,,,,78.80156039999565,78.80156039999565,78.80156039999565,78.80156039999565,78.80156039999565,right,0.6419469999964349,6,0,0,99,0.16,-0.4,right,0.5199581999913789,,,,,77.21382760000415,78.80156039999565,-0.08,-0.4,0.0,0.08,-0.4,-0.08,-0.12,-0.08,-0.4,76.43858139996883,76.43858139996883,76.43858139996883,76.43858139996883,76.43858139996883,76.43858139996883,76.43858139996883,76.43858139996883,76.34715039996081,0.9353372000041418,return,0.7448068000376225,,,,,,A,train_x,x_increasing_steps,top_left,2024-10-29_23h02.04.851,HideSeek_v1,2022.2.5,60.14838607096862,
,3,0,8,0,5,0,66,,train_dim1_1,7,30,2,0,2,0,,,,,,,,,0,0,0,0,0,6,6,6,1,0,1,0,,,,,,,,,,,,,,,,,,,,,,,,,,,,,,,,,,,,,,,,,,,,,,,,,,,,30,,,,,,,,79.4034229000099,79.4034229000099,79.4034229000099,79.4034229000099,79.4034229000099,right,0.3605070000048727,6,0,0,99,0.24,-0.4,right,0.28599130001384765,,,,,,,,,,,,,,,,,,,,,,,,,,,,,,,,,A,train_x,x_increasing_steps,top_left,2024-10-29_23h02.04.851,HideSeek_v1,2022.2.5,60.14838607096862,
,3,0,8,0,5,0,66,,train_dim1_1,7,30,2,0,2,0,,,,,,,,,0,0,0,0,0,6,6,6,2,0,2,0,,,,,,,,,,,,,,,,,,,,,,,,,,,,,,,,,,,,,,,,,,,,,,,,,,,,30,,,,,,,,79.77163299999665,79.77163299999665,79.77163299999665,79.77163299999665,79.77163299999665,right,0.34447589999763295,6,0,0,99,0.32,-0.4,right,0.2629758999682963,,,,,,,,,,,,,,,,,,,,,,,,,,,,,,,,,A,train_x,x_increasing_steps,top_left,2024-10-29_23h02.04.851,HideSeek_v1,2022.2.5,60.14838607096862,
,3,0,8,0,5,0,66,,train_dim1_1,7,30,2,0,2,0,,,,,,,,,0,0,0,0,0,6,6,6,3,0,3,0,,,,,,,,,,,,,,,,,,,,,,,,,,,,,,,,,,,,,,,,,,,,,,,,,,,,30,,,,,,,,80.12057769997045,80.12057769997045,80.12057769997045,80.12057769997045,80.12057769997045,right,0.34433979995083064,6,0,0,99,0.4,-0.4,right,0.2610094999545254,,,,,,,,,,,,,,,,,,,,,,,,,,,,,,,,,A,train_x,x_increasing_steps,top_left,2024-10-29_23h02.04.851,HideSeek_v1,2022.2.5,60.14838607096862,
,3,0,8,0,5,0,66,,train_dim1_1,7,30,2,0,2,0,,,,,,,,,0,0,0,0,0,6,6,6,4,0,4,0,,,,,,,,,,,,,,,,,,,,,,,,,,,,,,,,,,,,,,,,,,,,,,,,,,,,30,,,,,,,,80.4757135999971,80.4757135999971,80.4757135999971,80.4757135999971,80.4757135999971,right,0.3606885999906808,6,0,0,99,0.48000000000000004,-0.4,right,0.2782670999877155,,,,,,,,,,,,,,,,,,,,,,,,,,,,,,,,,A,train_x,x_increasing_steps,top_left,2024-10-29_23h02.04.851,HideSeek_v1,2022.2.5,60.14838607096862,
,3,0,8,0,5,0,66,,train_dim1_1,7,30,2,0,2,0,,,,,,,,,0,0,0,0,0,6,6,6,5,0,5,0,,,,,,,,,,,,,,,,,,,,,,,,,,,,,,,,,,,,,,,,,,,,,,,,,,,,30,,,,,,,,80.83636809996096,80.83636809996096,80.83636809996096,80.83636809996096,80.83636809996096,return,0.29404989996692166,7,0,0,1,0.48000000000000004,-0.4,return,0.2131711000110954,0,17,0.48000000000000004,-0.4,,,,,,,,,,,,,,,,,,,,,,,,,,,,,A,train_x,x_increasing_steps,top_left,2024-10-29_23h02.04.851,HideSeek_v1,2022.2.5,60.14838607096862,
,0,4,2,4,2,0,36,,train_dim1_1,8,30,2,0,2,0,,,,,,,,,0,0,0,0,0,7,7,7,0,0,0,0,,,,,,,,,,,,,stimuli/alien_stimuli/36.png,,,,,,,,,,,,,,,,,,,,,,,,,,,,,stimuli/alien_stimuli/66.png,66,3,9,,,,,,,30,,,,,,,,85.2640672000125,85.2640672000125,85.2640672000125,85.2640672000125,85.2640672000125,right,0.5573188999551348,7,0,0,99,-0.08,-0.08,right,0.45533799997065216,,,,,83.69714020000538,85.2640672000125,0.48,-0.4,0.0,0.4,-0.4,0.48,0.27999999999999997,0.48,-0.4,82.77555319998646,82.77555319998646,82.77555319998646,82.77555319998646,82.77555319998646,82.77555319998646,82.77555319998646,82.77555319998646,82.680352499953,1.1019502999843098,return,0.9036581999971531,,,,,,A,train_x,x_increasing_steps,top_left,2024-10-29_23h02.04.851,HideSeek_v1,2022.2.5,60.14838607096862,
,0,4,2,4,2,0,36,,train_dim1_1,8,30,2,0,2,0,,,,,,,,,0,0,0,0,0,7,7,7,1,0,1,0,,,,,,,,,,,,,,,,,,,,,,,,,,,,,,,,,,,,,,,,,,,,,,,,,,,,30,,,,,,,,85.79985229996964,85.79985229996964,85.79985229996964,85.79985229996964,85.79985229996964,right,0.4274291999754496,7,0,0,99,0.0,-0.08,right,0.3616038999753073,,,,,,,,,,,,,,,,,,,,,,,,,,,,,,,,,A,train_x,x_increasing_steps,top_left,2024-10-29_23h02.04.851,HideSeek_v1,2022.2.5,60.14838607096862,
,0,4,2,4,2,0,36,,train_dim1_1,8,30,2,0,2,0,,,,,,,,,0,0,0,0,0,7,7,7,2,0,2,0,,,,,,,,,,,,,,,,,,,,,,,,,,,,,,,,,,,,,,,,,,,,,,,,,,,,30,,,,,,,,86.23434719996294,86.23434719996294,86.23434719996294,86.23434719996294,86.23434719996294,return,0.24419609998585656,8,0,0,1,0.0,-0.08,return,0.169164200022351,0,19,0.0,-0.08,,,,,,,,,,,,,,,,,,,,,,,,,,,,,A,train_x,x_increasing_steps,top_left,2024-10-29_23h02.04.851,HideSeek_v1,2022.2.5,60.14838607096862,
,1,0,4,0,3,0,46,,train_dim1_1,9,30,2,0,2,0,,,,,,,,,0,0,0,0,0,8,8,8,0,0,0,0,,,,,,,,,,,,,stimuli/alien_stimuli/46.png,,,,,,,,,,,,,,,,,,,,,,,,,,,,,stimuli/alien_stimuli/36.png,36,0,10,,,,,,,30,,,,,,,,90.29948990000412,90.29948990000412,90.29948990000412,90.29948990000412,90.29948990000412,right,0.7750809999997728,8,0,0,99,0.0,-0.4,right,0.6979834000230767,,,,,88.7471663999604,90.29948990000412,0,-0.08,0.0,0.16,-0.08,0,-0.08,0,-0.08,88.08066789997974,88.08066789997974,88.08066789997974,88.08066789997974,88.08066789997974,88.08066789997974,88.08066789997974,88.08066789997974,88.01365379997878,0.8015760999987833,return,0.6348109999671578,,,,,,A,train_x,x_increasing_steps,top_left,2024-10-29_23h02.04.851,HideSeek_v1,2022.2.5,60.14838607096862,
,1,0,4,0,3,0,46,,train_dim1_1,9,30,2,0,2,0,,,,,,,,,0,0,0,0,0,8,8,8,1,0,1,0,,,,,,,,,,,,,,,,,,,,,,,,,,,,,,,,,,,,,,,,,,,,,,,,,,,,30,,,,,,,,91.06556710001314,91.06556710001314,91.06556710001314,91.06556710001314,91.06556710001314,right,0.5606757999630645,8,0,0,99,0.08,-0.4,right,0.4950575999682769,,,,,,,,,,,,,,,,,,,,,,,,,,,,,,,,,A,train_x,x_increasing_steps,top_left,2024-10-29_23h02.04.851,HideSeek_v1,2022.2.5,60.14838607096862,
,1,0,4,0,3,0,46,,train_dim1_1,9,30,2,0,2,0,,,,,,,,,0,0,0,0,0,8,8,8,2,0,2,0,,,,,,,,,,,,,,,,,,,,,,,,,,,,,,,,,,,,,,,,,,,,,,,,,,,,30,,,,,,,,91.62927969999146,91.62927969999146,91.62927969999146,91.62927969999146,91.62927969999146,right,0.4775754000293091,8,0,0,99,0.16,-0.4,right,0.4047355999937281,,,,,,,,,,,,,,,,,,,,,,,,,,,,,,,,,A,train_x,x_increasing_steps,top_left,2024-10-29_23h02.04.851,HideSeek_v1,2022.2.5,60.14838607096862,
,1,0,4,0,3,0,46,,train_dim1_1,9,30,2,0,2,0,,,,,,,,,0,0,0,0,0,8,8,8,3,0,3,0,,,,,,,,,,,,,,,,,,,,,,,,,,,,,,,,,,,,,,,,,,,,,,,,,,,,30,,,,,,,,92.11571320000803,92.11571320000803,92.11571320000803,92.11571320000803,92.11571320000803,return,0.4611915000132285,9,0,0,1,0.16,-0.4,return,0.3880494000040926,0,22,0.16,-0.4,,,,,,,,,,,,,,,,,,,,,,,,,,,,,A,train_x,x_increasing_steps,top_left,2024-10-29_23h02.04.851,HideSeek_v1,2022.2.5,60.14838607096862,
,0,3,0,3,0,0,16,,train_dim1_1,10,30,2,0,2,0,,,,,,,,,0,0,0,0,0,9,9,9,0,0,0,0,,,,,,,,,,,,,stimuli/alien_stimuli/16.png,,,,,,,,,,,,,,,,,,,,,,,,,,,,,stimuli/alien_stimuli/46.png,46,1,11,,,,,,,30,,,,,,,,96.4596660999814,96.4596660999814,96.4596660999814,96.4596660999814,96.4596660999814,right,0.7418260999838822,9,0,0,99,-0.08,-0.16,right,0.6440175999887288,,,,,94.89691209996818,96.4596660999814,0.16,-0.4,0.0,0.24,-0.4,0.16,0.04,0.16,-0.4,94.14692759996979,94.14692759996979,94.14692759996979,94.14692759996979,94.14692759996979,94.14692759996979,94.14692759996979,94.14692759996979,94.09699079998536,0.8525484999991022,return,0.7343139000004157,,,,,,A,train_x,x_increasing_steps,top_left,2024-10-29_23h02.04.851,HideSeek_v1,2022.2.5,60.14838607096862,
,0,3,0,3,0,0,16,,train_dim1_1,10,30,2,0,2,0,,,,,,,,,0,0,0,0,0,9,9,9,1,0,1,0,,,,,,,,,,,,,,,,,,,,,,,,,,,,,,,,,,,,,,,,,,,,,,,,,,,,30,,,,,,,,97.18625979998615,97.18625979998615,97.18625979998615,97.18625979998615,97.18625979998615,left,0.5106610999791883,9,0,0,99,-0.16,-0.16,left,0.4330865000374615,,,,,,,,,,,,,,,,,,,,,,,,,,,,,,,,,A,train_x,x_increasing_steps,top_left,2024-10-29_23h02.04.851,HideSeek_v1,2022.2.5,60.14838607096862,
,0,3,0,3,0,0,16,,train_dim1_1,10,30,2,0,2,0,,,,,,,,,0,0,0,0,0,9,9,9,2,0,2,0,,,,,,,,,,,,,,,,,,,,,,,,,,,,,,,,,,,,,,,,,,,,,,,,,,,,30,,,,,,,,97.7031914999825,97.7031914999825,97.7031914999825,97.7031914999825,97.7031914999825,return,0.3113168000127189,10,0,0,1,-0.16,-0.16,return,0.2435525000328198,0,22,-0.16,-0.16,,,,,,,,,,,,,,,,,,,,,,,,,,,,,A,train_x,x_increasing_steps,top_left,2024-10-29_23h02.04.851,HideSeek_v1,2022.2.5,60.14838607096862,
,2,2,4,2,2,0,36,,train_dim1_1,11,30,2,0,2,0,,,,,,,,,0,0,0,0,0,10,10,10,0,0,0,0,,,,,,,,,,,,,stimuli/alien_stimuli/36.png,,,,,,,,,,,,,,,,,,,,,,,,,,,,,stimuli/alien_stimuli/16.png,16,0,12,,,,,,,30,,,,,,,,102.03895259997807,102.03895259997807,102.03895259997807,102.03895259997807,102.03895259997807,right,0.8588938000029884,10,0,0,99,0.08,-0.24,right,0.7609223999897949,,,,,100.48054269998102,102.03895259997807,-0.16,-0.16,0.0,0.0,-0.16,-0.16,-0.16,-0.16,-0.16,99.59633550001308,99.59633550001308,99.59633550001308,99.59633550001308,99.59633550001308,99.59633550001308,99.59633550001308,99.59633550001308,99.54703319995315,1.0016944999806583,return,0.8586479999939911,,,,,,A,train_x,x_increasing_steps,top_left,2024-10-29_23h02.04.851,HideSeek_v1,2022.2.5,60.14838607096862,
,2,2,4,2,2,0,36,,train_dim1_1,11,30,2,0,2,0,,,,,,,,,0,0,0,0,0,10,10,10,1,0,1,0,,,,,,,,,,,,,,,,,,,,,,,,,,,,,,,,,,,,,,,,,,,,,,,,,,,,30,,,,,,,,102.88315010000952,102.88315010000952,102.88315010000952,102.88315010000952,102.88315010000952,right,0.9110546999727376,10,0,0,99,0.16,-0.24,right,0.8343143999809399,,,,,,,,,,,,,,,,,,,,,,,,,,,,,,,,,A,train_x,x_increasing_steps,top_left,2024-10-29_23h02.04.851,HideSeek_v1,2022.2.5,60.14838607096862,
,2,2,4,2,2,0,36,,train_dim1_1,11,30,2,0,2,0,,,,,,,,,0,0,0,0,0,10,10,10,2,0,2,0,,,,,,,,,,,,,,,,,,,,,,,,,,,,,,,,,,,,,,,,,,,,,,,,,,,,30,,,,,,,,103.80032649997156,103.80032649997156,103.80032649997156,103.80032649997156,103.80032649997156,return,0.31123410002328455,11,0,0,1,0.16,-0.24,return,0.23526039998978376,0,24,0.16,-0.24,,,,,,,,,,,,,,,,,,,,,,,,,,,,,A,train_x,x_increasing_steps,top_left,2024-10-29_23h02.04.851,HideSeek_v1,2022.2.5,60.14838607096862,
,0,0,1,0,1,0,26,,train_dim1_1,12,30,2,0,2,0,,,,,,,,,0,0,0,0,0,11,11,11,0,0,0,0,,,,,,,,,,,,,stimuli/alien_stimuli/26.png,,,,,,,,,,,,,,,,,,,,,,,,,,,,,stimuli/alien_stimuli/36.png,36,2,13,,,,,,,30,,,,,,,,108.18044369999552,108.18044369999552,108.18044369999552,108.18044369999552,108.18044369999552,right,0.7579807000001892,11,0,0,99,-0.08,-0.4,right,0.6584183000377379,,,,,106.61349099996733,108.18044369999552,0.16,-0.24,0.0,0.16,-0.24,0.16,0.08,0.16,-0.24,105.69616769999266,105.69616769999266,105.69616769999266,105.69616769999266,105.69616769999266,105.69616769999266,105.69616769999266,105.69616769999266,105.64696579999872,1.034876199963037,return,0.8928628999856301,,,,,,A,train_x,x_increasing_steps,top_left,2024-10-29_23h02.04.851,HideSeek_v1,2022.2.5,60.14838607096862,
,0,0,1,0,1,0,26,,train_dim1_1,12,30,2,0,2,0,,,,,,,,,0,0,0,0,0,11,11,11,1,0,1,0,,,,,,,,,,,,,,,,,,,,,,,,,,,,,,,,,,,,,,,,,,,,,,,,,,,,30,,,,,,,,108.92059579998022,108.92059579998022,108.92059579998022,108.92059579998022,108.92059579998022,return,0.34368869999889284,12,0,0,1,-0.08,-0.4,return,0.26814800000283867,0,25,-0.08,-0.4,,,,,,,,,,,,,,,,,,,,,,,,,,,,,A,train_x,x_increasing_steps,top_left,2024-10-29_23h02.04.851,HideSeek_v1,2022.2.5,60.14838607096862,
,0,4,3,4,3,0,46,,train_dim1_1,13,30,2,0,2,0,,,,,,,,,0,0,0,0,0,12,12,12,0,0,0,0,,,,,,,,,,,,,stimuli/alien_stimuli/46.png,,,,,,,,,,,,,,,,,,,,,,,,,,,,,stimuli/alien_stimuli/26.png,26,0,14,,,,,,,30,,,,,,,,113.1740901999874,113.1740901999874,113.1740901999874,113.1740901999874,113.1740901999874,right,0.5909663999918848,12,0,0,99,-0.08,-0.08,right,0.5050364999915473,,,,,111.61344950000057,113.1740901999874,-0.08,-0.4,0.0,0.08,-0.4,-0.08,-0.12,-0.08,-0.4,110.9167071999982,110.9167071999982,110.9167071999982,110.9167071999982,110.9167071999982,110.9167071999982,110.9167071999982,110.9167071999982,110.81351409999188,0.8848237000056542,return,0.673408400034532,,,,,,A,train_x,x_increasing_steps,top_left,2024-10-29_23h02.04.851,HideSeek_v1,2022.2.5,60.14838607096862,
,0,4,3,4,3,0,46,,train_dim1_1,13,30,2,0,2,0,,,,,,,,,0,0,0,0,0,12,12,12,1,0,1,0,,,,,,,,,,,,,,,,,,,,,,,,,,,,,,,,,,,,,,,,,,,,,,,,,,,,30,,,,,,,,113.74746019998565,113.74746019998565,113.74746019998565,113.74746019998565,113.74746019998565,right,0.42742100002942607,12,0,0,99,0.0,-0.08,right,0.3510571999941021,,,,,,,,,,,,,,,,,,,,,,,,,,,,,,,,,A,train_x,x_increasing_steps,top_left,2024-10-29_23h02.04.851,HideSeek_v1,2022.2.5,60.14838607096862,
,0,4,3,4,3,0,46,,train_dim1_1,13,30,2,0,2,0,,,,,,,,,0,0,0,0,0,12,12,12,2,0,2,0,,,,,,,,,,,,,,,,,,,,,,,,,,,,,,,,,,,,,,,,,,,,,,,,,,,,30,,,,,,,,114.22574679995887,114.22574679995887,114.22574679995887,114.22574679995887,114.22574679995887,right,0.39442500000586733,12,0,0,99,0.08,-0.08,right,0.2773464999627322,,,,,,,,,,,,,,,,,,,,,,,,,,,,,,,,,A,train_x,x_increasing_steps,top_left,2024-10-29_23h02.04.851,HideSeek_v1,2022.2.5,60.14838607096862,
,0,4,3,4,3,0,46,,train_dim1_1,13,30,2,0,2,0,,,,,,,,,0,0,0,0,0,12,12,12,3,0,3,0,,,,,,,,,,,,,,,,,,,,,,,,,,,,,,,,,,,,,,,,,,,,,,,,,,,,30,,,,,,,,114.58036359999096,114.58036359999096,114.58036359999096,114.58036359999096,114.58036359999096,return,0.3108837000327185,13,0,0,1,0.08,-0.08,return,0.24158659996464849,0,28,0.08,-0.08,,,,,,,,,,,,,,,,,,,,,,,,,,,,,A,train_x,x_increasing_steps,top_left,2024-10-29_23h02.04.851,HideSeek_v1,2022.2.5,60.14838607096862,
,4,3,4,3,0,0,16,,train_dim1_1,14,30,2,0,2,0,,,,,,,,,0,0,0,0,0,13,13,13,0,0,0,0,,,,,,,,,,,,,stimuli/alien_stimuli/16.png,,,,,,,,,,,,,,,,,,,,,,,,,,,,,stimuli/alien_stimuli/46.png,46,0,15,,,,,,,30,,,,,,,,118.74193739995826,118.74193739995826,118.74193739995826,118.74193739995826,118.74193739995826,return,0.8086479000048712,14,0,0,1,0.16,-0.16,return,0.7069988999865018,0,28,0.16,-0.16,117.18019250000361,118.74193739995826,0.08,-0.08,0.0,0.24,-0.08,0.08,-0.04,0.08,-0.08,116.49139569996623,116.49139569996623,116.49139569996623,116.49139569996623,116.49139569996623,116.49139569996623,116.49139569996623,116.49139569996623,116.43010719996528,0.8184445999795571,return,0.6711490999441594,,,,,,A,train_x,x_increasing_steps,top_left,2024-10-29_23h02.04.851,HideSeek_v1,2022.2.5,60.14838607096862,
,4,2,9,2,5,0,66,,train_dim1_1,15,30,2,0,2,0,,,,,,,,,0,0,0,0,0,14,14,14,0,0,0,0,,,,,,,,,,,,,stimuli/alien_stimuli/66.png,,,,,,,,,,,,,,,,,,,,,,,,,,,,,stimuli/alien_stimuli/16.png,16,4,16,,,,,,,30,,,,,,,,123.41309869999532,123.41309869999532,123.41309869999532,123.41309869999532,123.41309869999532,right,3.191650299995672,14,0,0,99,0.24,-0.24,right,3.1012782999896444,,,,,121.8469902999932,123.41309869999532,0.16,-0.16,0.0,0.0,-0.16,0.16,0.16,0.16,-0.16,121.13052619999507,121.13052619999507,121.13052619999507,121.13052619999507,121.13052619999507,121.13052619999507,121.13052619999507,121.13052619999507,121.06352439997136,0.8520782999694347,return,0.6987911000032909,,,,,,A,train_x,x_increasing_steps,top_left,2024-10-29_23h02.04.851,HideSeek_v1,2022.2.5,60.14838607096862,
,4,2,9,2,5,0,66,,train_dim1_1,15,30,2,0,2,0,,,,,,,,,0,0,0,0,0,14,14,14,1,0,1,0,,,,,,,,,,,,,,,,,,,,,,,,,,,,,,,,,,,,,,,,,,,,,,,,,,,,30,,,,,,,,126.58749850001186,126.58749850001186,126.58749850001186,126.58749850001186,126.58749850001186,right,0.226935799990315,14,0,0,99,0.32,-0.24,right,0.1538048999500461,,,,,,,,,,,,,,,,,,,,,,,,,,,,,,,,,A,train_x,x_increasing_steps,top_left,2024-10-29_23h02.04.851,HideSeek_v1,2022.2.5,60.14838607096862,
,4,2,9,2,5,0,66,,train_dim1_1,15,30,2,0,2,0,,,,,,,,,0,0,0,0,0,14,14,14,2,0,2,0,,,,,,,,,,,,,,,,,,,,,,,,,,,,,,,,,,,,,,,,,,,,,,,,,,,,30,,,,,,,,126.81983579997905,126.81983579997905,126.81983579997905,126.81983579997905,126.81983579997905,right,0.21069689997239038,14,0,0,99,0.4,-0.24,right,0.1412158000166528,,,,,,,,,,,,,,,,,,,,,,,,,,,,,,,,,A,train_x,x_increasing_steps,top_left,2024-10-29_23h02.04.851,HideSeek_v1,2022.2.5,60.14838607096862,
,4,2,9,2,5,0,66,,train_dim1_1,15,30,2,0,2,0,,,,,,,,,0,0,0,0,0,14,14,14,3,0,3,0,,,,,,,,,,,,,,,,,,,,,,,,,,,,,,,,,,,,,,,,,,,,,,,,,,,,30,,,,,,,,127.03690589999314,127.03690589999314,127.03690589999314,127.03690589999314,127.03690589999314,right,0.22781089995987713,14,0,0,99,0.48000000000000004,-0.24,right,0.15048080001724884,,,,,,,,,,,,,,,,,,,,,,,,,,,,,,,,,A,train_x,x_increasing_steps,top_left,2024-10-29_23h02.04.851,HideSeek_v1,2022.2.5,60.14838607096862,
,4,2,9,2,5,0,66,,train_dim1_1,15,30,2,0,2,0,,,,,,,,,0,0,0,0,0,14,14,14,4,0,4,0,,,,,,,,,,,,,,,,,,,,,,,,,,,,,,,,,,,,,,,,,,,,,,,,,,,,30,,,,,,,,127.27297699998599,127.27297699998599,127.27297699998599,127.27297699998599,127.27297699998599,right,0.19396910001523793,14,0,0,99,0.56,-0.24,right,0.12168350000865757,,,,,,,,,,,,,,,,,,,,,,,,,,,,,,,,,A,train_x,x_increasing_steps,top_left,2024-10-29_23h02.04.851,HideSeek_v1,2022.2.5,60.14838607096862,
,4,2,9,2,5,0,66,,train_dim1_1,15,30,2,0,2,0,,,,,,,,,0,0,0,0,0,14,14,14,5,0,5,0,,,,,,,,,,,,,,,,,,,,,,,,,,,,,,,,,,,,,,,,,,,,,,,,,,,,30,,,,,,,,127.4691680999822,127.4691680999822,127.4691680999822,127.4691680999822,127.4691680999822,return,0.36074259999440983,15,0,0,1,0.56,-0.24,return,0.28803379996679723,0,33,0.56,-0.24,,,,,,,,,,,,,,,,,,,,,,,,,,,,,A,train_x,x_increasing_steps,top_left,2024-10-29_23h02.04.851,HideSeek_v1,2022.2.5,60.14838607096862,
,3,3,6,3,3,0,46,,train_dim1_1,16,30,2,0,2,0,,,,,,,,,0,0,0,0,0,15,15,15,0,0,0,0,,,,,,,,,,,,,stimuli/alien_stimuli/46.png,,,,,,,,,,,,,,,,,,,,,,,,,,,,,stimuli/alien_stimuli/66.png,66,4,17,,,,,,,30,,,,,,,,173.94580499996664,173.94580499996664,173.94580499996664,173.94580499996664,173.94580499996664,right,3.44150160002755,15,0,0,99,0.16,-0.16,right,3.3387874999898486,,,,,172.37931519997073,173.94580499996664,0.56,-0.24,0.0,0.4,-0.24,0.56,0.36000000000000004,0.56,-0.24,129.445489500009,129.445489500009,129.445489500009,129.445489500009,129.445489500009,129.445489500009,129.445489500009,129.445489500009,129.36314760000096,43.085045099956915,return,42.90500379999867,,,,,,A,train_x,x_increasing_steps,top_left,2024-10-29_23h02.04.851,HideSeek_v1,2022.2.5,60.14838607096862,
,3,3,6,3,3,0,46,,train_dim1_1,16,30,2,0,2,0,,,,,,,,,0,0,0,0,0,15,15,15,1,0,1,0,,,,,,,,,,,,,,,,,,,,,,,,,,,,,,,,,,,,,,,,,,,,,,,,,,,,30,,,,,,,,177.36595399997896,177.36595399997896,177.36595399997896,177.36595399997896,177.36595399997896,right,0.19399999995948747,15,0,0,99,0.24,-0.16,right,0.11893109994707629,,,,,,,,,,,,,,,,,,,,,,,,,,,,,,,,,A,train_x,x_increasing_steps,top_left,2024-10-29_23h02.04.851,HideSeek_v1,2022.2.5,60.14838607096862,
,3,3,6,3,3,0,46,,train_dim1_1,16,30,2,0,2,0,,,,,,,,,0,0,0,0,0,15,15,15,2,0,2,0,,,,,,,,,,,,,,,,,,,,,,,,,,,,,,,,,,,,,,,,,,,,,,,,,,,,30,,,,,,,,177.56507569999667,177.56507569999667,177.56507569999667,177.56507569999667,177.56507569999667,right,0.17735120002180338,15,0,0,99,0.32,-0.16,right,0.10115030000451952,,,,,,,,,,,,,,,,,,,,,,,,,,,,,,,,,A,train_x,x_increasing_steps,top_left,2024-10-29_23h02.04.851,HideSeek_v1,2022.2.5,60.14838607096862,
,3,3,6,3,3,0,46,,train_dim1_1,16,30,2,0,2,0,,,,,,,,,0,0,0,0,0,15,15,15,3,0,3,0,,,,,,,,,,,,,,,,,,,,,,,,,,,,,,,,,,,,,,,,,,,,,,,,,,,,30,,,,,,,,177.74826219998067,177.74826219998067,177.74826219998067,177.74826219998067,177.74826219998067,return,0.31110470002749935,16,0,0,1,0.32,-0.16,return,0.23853680002503097,0,36,0.32,-0.16,,,,,,,,,,,,,,,,,,,,,,,,,,,,,A,train_x,x_increasing_steps,top_left,2024-10-29_23h02.04.851,HideSeek_v1,2022.2.5,60.14838607096862,
,2,4,3,4,1,0,26,,train_dim1_1,17,30,2,0,2,0,,,,,,,,,0,0,0,0,0,16,16,16,0,0,0,0,,,,,,,,,,,,,stimuli/alien_stimuli/26.png,,,,,,,,,,,,,,,,,,,,,,,,,,,,,stimuli/alien_stimuli/46.png,46,3,18,,,,,,,30,,,,,,,,182.62264419998974,182.62264419998974,182.62264419998974,182.62264419998974,182.62264419998974,right,22.90799939999124,16,0,0,99,0.08,-0.08,right,22.813939700019546,,,,,181.0628444000031,182.62264419998974,0.32,-0.16,0.0,0.24,-0.16,0.32,0.2,0.32,-0.16,179.63902130001225,179.63902130001225,179.63902130001225,179.63902130001225,179.63902130001225,179.63902130001225,179.63902130001225,179.63902130001225,179.59652569997706,1.5347751999506727,return,1.396779200003948,,,,,,A,train_x,x_increasing_steps,top_left,2024-10-29_23h02.04.851,HideSeek_v1,2022.2.5,60.14838607096862,
,2,4,3,4,1,0,26,,train_dim1_1,17,30,2,0,2,0,,,,,,,,,0,0,0,0,0,16,16,16,1,0,1,0,,,,,,,,,,,,,,,,,,,,,,,,,,,,,,,,,,,,,,,,,,,,,,,,,,,,30,,,,,,,,205.5292868000106,205.5292868000106,205.5292868000106,205.5292868000106,205.5292868000106,return,0.6772541999816895,17,0,0,1,0.08,-0.08,return,0.5952644000062719,0,37,0.08,-0.08,,,,,,,,,,,,,,,,,,,,,,,,,,,,,A,train_x,x_increasing_steps,top_left,2024-10-29_23h02.04.851,HideSeek_v1,2022.2.5,60.14838607096862,
,2,1,7,1,5,0,66,,train_dim1_1,18,30,2,0,2,0,,,,,,,,,0,0,0,0,0,17,17,17,0,0,0,0,,,,,,,,,,,,,stimuli/alien_stimuli/66.png,,,,,,,,,,,,,,,,,,,,,,,,,,,,,stimuli/alien_stimuli/26.png,26,2,19,,,,,,,30,,,,,,,,211.2422263000044,211.2422263000044,211.2422263000044,211.2422263000044,211.2422263000044,right,0.6585817000013776,17,0,0,99,0.08,-0.32,right,0.5681298999697901,,,,,209.67929329996696,211.2422263000044,0.08,-0.08,0.0,0.08,-0.08,0.08,0.04,0.08,-0.08,207.80796589999227,207.80796589999227,207.80796589999227,207.80796589999227,207.80796589999227,207.80796589999227,207.80796589999227,207.80796589999227,207.72896329997457,2.0188943999819458,return,1.8422615000163205,,,,,,A,train_x,x_increasing_steps,top_left,2024-10-29_23h02.04.851,HideSeek_v1,2022.2.5,60.14838607096862,
,2,1,7,1,5,0,66,,train_dim1_1,18,30,2,0,2,0,,,,,,,,,0,0,0,0,0,17,17,17,1,0,1,0,,,,,,,,,,,,,,,,,,,,,,,,,,,,,,,,,,,,,,,,,,,,,,,,,,,,30,,,,,,,,211.88634729996556,211.88634729996556,211.88634729996556,211.88634729996556,211.88634729996556,right,0.3109897000249475,17,0,0,99,0.16,-0.32,right,0.2412140999804251,,,,,,,,,,,,,,,,,,,,,,,,,,,,,,,,,A,train_x,x_increasing_steps,top_left,2024-10-29_23h02.04.851,HideSeek_v1,2022.2.5,60.14838607096862,
,2,1,7,1,5,0,66,,train_dim1_1,18,30,2,0,2,0,,,,,,,,,0,0,0,0,0,17,17,17,2,0,2,0,,,,,,,,,,,,,,,,,,,,,,,,,,,,,,,,,,,,,,,,,,,,,,,,,,,,30,,,,,,,,212.2036817999906,212.2036817999906,212.2036817999906,212.2036817999906,212.2036817999906,right,0.2941720000235364,17,0,0,99,0.24,-0.32,right,0.2163736000075005,,,,,,,,,,,,,,,,,,,,,,,,,,,,,,,,,A,train_x,x_increasing_steps,top_left,2024-10-29_23h02.04.851,HideSeek_v1,2022.2.5,60.14838607096862,
,2,1,7,1,5,0,66,,train_dim1_1,18,30,2,0,2,0,,,,,,,,,0,0,0,0,0,17,17,17,3,0,3,0,,,,,,,,,,,,,,,,,,,,,,,,,,,,,,,,,,,,,,,,,,,,,,,,,,,,30,,,,,,,,212.50088409997988,212.50088409997988,212.50088409997988,212.50088409997988,212.50088409997988,right,0.26075529999798164,17,0,0,99,0.32,-0.32,right,0.19318329996895045,,,,,,,,,,,,,,,,,,,,,,,,,,,,,,,,,A,train_x,x_increasing_steps,top_left,2024-10-29_23h02.04.851,HideSeek_v1,2022.2.5,60.14838607096862,
,2,1,7,1,5,0,66,,train_dim1_1,18,30,2,0,2,0,,,,,,,,,0,0,0,0,0,17,17,17,4,0,4,0,,,,,,,,,,,,,,,,,,,,,,,,,,,,,,,,,,,,,,,,,,,,,,,,,,,,30,,,,,,,,212.7689938999829,212.7689938999829,212.7689938999829,212.7689938999829,212.7689938999829,right,0.2606680000317283,17,0,0,99,0.4,-0.32,right,0.18964450003113598,,,,,,,,,,,,,,,,,,,,,,,,,,,,,,,,,A,train_x,x_increasing_steps,top_left,2024-10-29_23h02.04.851,HideSeek_v1,2022.2.5,60.14838607096862,
,2,1,7,1,5,0,66,,train_dim1_1,18,30,2,0,2,0,,,,,,,,,0,0,0,0,0,17,17,17,5,0,5,0,,,,,,,,,,,,,,,,,,,,,,,,,,,,,,,,,,,,,,,,,,,,,,,,,,,,30,,,,,,,,213.0358881999855,213.0358881999855,213.0358881999855,213.0358881999855,213.0358881999855,return,0.2770897999871522,18,0,0,1,0.4,-0.32,return,0.20246609998866916,0,42,0.4,-0.32,,,,,,,,,,,,,,,,,,,,,,,,,,,,,A,train_x,x_increasing_steps,top_left,2024-10-29_23h02.04.851,HideSeek_v1,2022.2.5,60.14838607096862,
,0,3,2,3,2,0,36,,train_dim1_1,19,30,2,0,2,0,,,,,,,,,0,0,0,0,0,18,18,18,0,0,0,0,,,,,,,,,,,,,stimuli/alien_stimuli/36.png,,,,,,,,,,,,,,,,,,,,,,,,,,,,,stimuli/alien_stimuli/66.png,66,2,20,,,,,,,30,,,,,,,,216.93829620000906,216.93829620000906,216.93829620000906,216.93829620000906,216.93829620000906,right,0.7249852999811992,18,0,0,99,-0.08,-0.16,right,0.6335646999650635,,,,,215.37937549996423,216.93829620000906,0.4,-0.32,0.0,0.4,-0.32,0.4,0.2,0.4,-0.32,214.91300840000622,214.91300840000622,214.91300840000622,214.91300840000622,214.91300840000622,214.91300840000622,214.91300840000622,214.91300840000622,214.8456029999943,0.6020934999687597,return,0.4444524999707937,,,,,,A,train_x,x_increasing_steps,top_left,2024-10-29_23h02.04.851,HideSeek_v1,2022.2.5,60.14838607096862,
,0,3,2,3,2,0,36,,train_dim1_1,19,30,2,0,2,0,,,,,,,,,0,0,0,0,0,18,18,18,1,0,1,0,,,,,,,,,,,,,,,,,,,,,,,,,,,,,,,,,,,,,,,,,,,,,,,,,,,,30,,,,,,,,217.6539084999822,217.6539084999822,217.6539084999822,217.6539084999822,217.6539084999822,right,0.4606066000415012,18,0,0,99,0.0,-0.16,right,0.37658229999942705,,,,,,,,,,,,,,,,,,,,,,,,,,,,,,,,,A,train_x,x_increasing_steps,top_left,2024-10-29_23h02.04.851,HideSeek_v1,2022.2.5,60.14838607096862,
,0,3,2,3,2,0,36,,train_dim1_1,19,30,2,0,2,0,,,,,,,,,0,0,0,0,0,18,18,18,2,0,2,0,,,,,,,,,,,,,,,,,,,,,,,,,,,,,,,,,,,,,,,,,,,,,,,,,,,,30,,,,,,,,218.11379639996449,218.11379639996449,218.11379639996449,218.11379639996449,218.11379639996449,return,0.29414120002184063,19,0,0,1,0.0,-0.16,return,0.2301257000071928,0,44,0.0,-0.16,,,,,,,,,,,,,,,,,,,,,,,,,,,,,A,train_x,x_increasing_steps,top_left,2024-10-29_23h02.04.851,HideSeek_v1,2022.2.5,60.14838607096862,
,0,1,0,1,0,0,16,,train_dim1_1,20,30,2,0,2,0,,,,,,,,,0,0,0,0,0,19,19,19,0,0,0,0,,,,,,,,,,,,,stimuli/alien_stimuli/16.png,,,,,,,,,,,,,,,,,,,,,,,,,,,,,stimuli/alien_stimuli/36.png,36,0,21,,,,,,,30,,,,,,,,222.0901492999983,222.0901492999983,222.0901492999983,222.0901492999983,222.0901492999983,right,0.8082468999782577,19,0,0,99,-0.08,-0.32,right,0.7201675000251271,,,,,220.5292212999775,222.0901492999983,0,-0.16,0.0,0.16,-0.16,0,-0.08,0,-0.16,219.987473999965,219.987473999965,219.987473999965,219.987473999965,219.987473999965,219.987473999965,219.987473999965,219.987473999965,219.9456234999525,0.6520349999773316,return,0.5229129000217654,,,,,,A,train_x,x_increasing_steps,top_left,2024-10-29_23h02.04.851,HideSeek_v1,2022.2.5,60.14838607096862,
,0,1,0,1,0,0,16,,train_dim1_1,20,30,2,0,2,0,,,,,,,,,0,0,0,0,0,19,19,19,1,0,1,0,,,,,,,,,,,,,,,,,,,,,,,,,,,,,,,,,,,,,,,,,,,,,,,,,,,,30,,,,,,,,222.88290289998986,222.88290289998986,222.88290289998986,222.88290289998986,222.88290289998986,left,0.5776504000532441,19,0,0,99,-0.16,-0.32,left,0.5046457999851555,,,,,,,,,,,,,,,,,,,,,,,,,,,,,,,,,A,train_x,x_increasing_steps,top_left,2024-10-29_23h02.04.851,HideSeek_v1,2022.2.5,60.14838607096862,
,0,1,0,1,0,0,16,,train_dim1_1,20,30,2,0,2,0,,,,,,,,,0,0,0,0,0,19,19,19,2,0,2,0,,,,,,,,,,,,,,,,,,,,,,,,,,,,,,,,,,,,,,,,,,,,,,,,,,,,30,,,,,,,,223.4672252999735,223.4672252999735,223.4672252999735,223.4672252999735,223.4672252999735,return,0.4614373999647796,20,0,0,1,-0.16,-0.32,return,0.3798794000176713,0,44,-0.16,-0.32,,,,,,,,,,,,,,,,,,,,,,,,,,,,,A,train_x,x_increasing_steps,top_left,2024-10-29_23h02.04.851,HideSeek_v1,2022.2.5,60.14838607096862,
,4,2,6,2,2,0,36,,train_dim1_1,21,30,2,0,2,0,,,,,,,,,0,0,0,0,0,20,20,20,0,0,0,0,,,,,,,,,,,,,stimuli/alien_stimuli/36.png,,,,,,,,,,,,,,,,,,,,,,,,,,,,,stimuli/alien_stimuli/16.png,16,0,22,,,,,,,30,,,,,,,,227.52313280000817,227.52313280000817,227.52313280000817,227.52313280000817,227.52313280000817,right,0.6247531999833882,20,0,0,99,0.24,-0.24,right,0.5355014000087976,,,,,225.96225189999677,227.52313280000817,-0.16,-0.32,0.0,0.0,-0.32,-0.16,-0.16,-0.16,-0.32,225.50532110000495,225.50532110000495,225.50532110000495,225.50532110000495,225.50532110000495,225.50532110000495,225.50532110000495,225.50532110000495,225.46217799998703,0.5690825000056066,return,0.4369562999927439,,,,,,A,train_x,x_increasing_steps,top_left,2024-10-29_23h02.04.851,HideSeek_v1,2022.2.5,60.14838607096862,
,4,2,6,2,2,0,36,,train_dim1_1,21,30,2,0,2,0,,,,,,,,,0,0,0,0,0,20,20,20,1,0,1,0,,,,,,,,,,,,,,,,,,,,,,,,,,,,,,,,,,,,,,,,,,,,,,,,,,,,30,,,,,,,,228.1282130999607,228.1282130999607,228.1282130999607,228.1282130999607,228.1282130999607,right,0.2778637000010349,20,0,0,99,0.32,-0.24,right,0.20773199998075143,,,,,,,,,,,,,,,,,,,,,,,,,,,,,,,,,A,train_x,x_increasing_steps,top_left,2024-10-29_23h02.04.851,HideSeek_v1,2022.2.5,60.14838607096862,
,4,2,6,2,2,0,36,,train_dim1_1,21,30,2,0,2,0,,,,,,,,,0,0,0,0,0,20,20,20,2,0,2,0,,,,,,,,,,,,,,,,,,,,,,,,,,,,,,,,,,,,,,,,,,,,,,,,,,,,30,,,,,,,,228.41561619995628,228.41561619995628,228.41561619995628,228.41561619995628,228.41561619995628,return,0.2110238000168465,21,0,0,1,0.32,-0.24,return,0.14544749999186024,0,46,0.32,-0.24,,,,,,,,,,,,,,,,,,,,,,,,,,,,,A,train_x,x_increasing_steps,top_left,2024-10-29_23h02.04.851,HideSeek_v1,2022.2.5,60.14838607096862,
,1,0,2,0,1,0,26,,train_dim1_1,22,30,2,0,2,0,,,,,,,,,0,0,0,0,0,21,21,21,0,0,0,0,,,,,,,,,,,,,stimuli/alien_stimuli/26.png,,,,,,,,,,,,,,,,,,,,,,,,,,,,,stimuli/alien_stimuli/36.png,36,4,23,,,,,,,30,,,,,,,,232.45293959998526,232.45293959998526,232.45293959998526,232.45293959998526,232.45293959998526,right,1.3252339999889955,21,0,0,99,0.0,-0.4,right,1.2338165999972261,,,,,230.89579370000865,232.45293959998526,0.32,-0.24,0.0,0.16,-0.24,0.32,0.24,0.32,-0.24,230.20305969996843,230.20305969996843,230.20305969996843,230.20305969996843,230.20305969996843,230.20305969996843,230.20305969996843,230.20305969996843,230.16233579997788,0.8016882999800146,return,0.6707067000097595,,,,,,A,train_x,x_increasing_steps,top_left,2024-10-29_23h02.04.851,HideSeek_v1,2022.2.5,60.14838607096862,
,1,0,2,0,1,0,26,,train_dim1_1,22,30,2,0,2,0,,,,,,,,,0,0,0,0,0,21,21,21,1,0,1,0,,,,,,,,,,,,,,,,,,,,,,,,,,,,,,,,,,,,,,,,,,,,,,,,,,,,30,,,,,,,,233.76766279997537,233.76766279997537,233.76766279997537,233.76766279997537,233.76766279997537,return,0.3775372999953106,22,0,0,1,0.0,-0.4,return,0.3110741999698803,0,47,0.0,-0.4,,,,,,,,,,,,,,,,,,,,,,,,,,,,,A,train_x,x_increasing_steps,top_left,2024-10-29_23h02.04.851,HideSeek_v1,2022.2.5,60.14838607096862,
,2,1,7,1,5,0,66,,train_dim1_1,23,30,2,0,2,0,,,,,,,,,0,0,0,0,0,22,22,22,0,0,0,0,,,,,,,,,,,,,stimuli/alien_stimuli/66.png,,,,,,,,,,,,,,,,,,,,,,,,,,,,,stimuli/alien_stimuli/26.png,26,1,24,,,,,,,30,,,,,,,,238.1954231999698,238.1954231999698,238.1954231999698,238.1954231999698,238.1954231999698,right,1.1249561000149697,22,0,0,99,0.08,-0.32,right,1.0194711000076495,,,,,236.6287316000089,238.1954231999698,0,-0.4,0.0,0.08,-0.4,0,-0.04,0,-0.4,235.71859850001056,235.71859850001056,235.71859850001056,235.71859850001056,235.71859850001056,235.71859850001056,235.71859850001056,235.71859850001056,235.6789932999818,1.0184192000306211,return,0.8890288999537006,,,,,,A,train_x,x_increasing_steps,top_left,2024-10-29_23h02.04.851,HideSeek_v1,2022.2.5,60.14838607096862,
,2,1,7,1,5,0,66,,train_dim1_1,23,30,2,0,2,0,,,,,,,,,0,0,0,0,0,22,22,22,1,0,1,0,,,,,,,,,,,,,,,,,,,,,,,,,,,,,,,,,,,,,,,,,,,,,,,,,,,,30,,,,,,,,239.3043712999788,239.3043712999788,239.3043712999788,239.3043712999788,239.3043712999788,right,0.3106495999963954,22,0,0,99,0.16,-0.32,right,0.2391897999914363,,,,,,,,,,,,,,,,,,,,,,,,,,,,,,,,,A,train_x,x_increasing_steps,top_left,2024-10-29_23h02.04.851,HideSeek_v1,2022.2.5,60.14838607096862,
,2,1,7,1,5,0,66,,train_dim1_1,23,30,2,0,2,0,,,,,,,,,0,0,0,0,0,22,22,22,2,0,2,0,,,,,,,,,,,,,,,,,,,,,,,,,,,,,,,,,,,,,,,,,,,,,,,,,,,,30,,,,,,,,239.61660959996516,239.61660959996516,239.61660959996516,239.61660959996516,239.61660959996516,right,0.34466770000290126,22,0,0,99,0.24,-0.32,right,0.279681799991522,,,,,,,,,,,,,,,,,,,,,,,,,,,,,,,,,A,train_x,x_increasing_steps,top_left,2024-10-29_23h02.04.851,HideSeek_v1,2022.2.5,60.14838607096862,
,2,1,7,1,5,0,66,,train_dim1_1,23,30,2,0,2,0,,,,,,,,,0,0,0,0,0,22,22,22,3,0,3,0,,,,,,,,,,,,,,,,,,,,,,,,,,,,,,,,,,,,,,,,,,,,,,,,,,,,30,,,,,,,,239.96815460000653,239.96815460000653,239.96815460000653,239.96815460000653,239.96815460000653,right,0.32826820004265755,22,0,0,99,0.32,-0.32,right,0.24792440002784133,,,,,,,,,,,,,,,,,,,,,,,,,,,,,,,,,A,train_x,x_increasing_steps,top_left,2024-10-29_23h02.04.851,HideSeek_v1,2022.2.5,60.14838607096862,
,2,1,7,1,5,0,66,,train_dim1_1,23,30,2,0,2,0,,,,,,,,,0,0,0,0,0,22,22,22,4,0,4,0,,,,,,,,,,,,,,,,,,,,,,,,,,,,,,,,,,,,,,,,,,,,,,,,,,,,30,,,,,,,,240.30092189996503,240.30092189996503,240.30092189996503,240.30092189996503,240.30092189996503,right,0.2944890999933705,22,0,0,99,0.4,-0.32,right,0.22069200000260025,,,,,,,,,,,,,,,,,,,,,,,,,,,,,,,,,A,train_x,x_increasing_steps,top_left,2024-10-29_23h02.04.851,HideSeek_v1,2022.2.5,60.14838607096862,
,2,1,7,1,5,0,66,,train_dim1_1,23,30,2,0,2,0,,,,,,,,,0,0,0,0,0,22,22,22,5,0,5,0,,,,,,,,,,,,,,,,,,,,,,,,,,,,,,,,,,,,,,,,,,,,,,,,,,,,30,,,,,,,,240.60041640000418,240.60041640000418,240.60041640000418,240.60041640000418,240.60041640000418,return,0.3110675999778323,23,0,0,1,0.4,-0.32,return,0.2355412999750115,0,52,0.4,-0.32,,,,,,,,,,,,,,,,,,,,,,,,,,,,,A,train_x,x_increasing_steps,top_left,2024-10-29_23h02.04.851,HideSeek_v1,2022.2.5,60.14838607096862,
,4,4,7,4,3,0,46,,train_dim1_1,24,30,2,0,2,0,,,,,,,,,0,0,0,0,0,23,23,23,0,0,0,0,,,,,,,,,,,,,stimuli/alien_stimuli/46.png,,,,,,,,,,,,,,,,,,,,,,,,,,,,,stimuli/alien_stimuli/66.png,66,2,25,,,,,,,30,,,,,,,,244.93998949998058,244.93998949998058,244.93998949998058,244.93998949998058,244.93998949998058,right,1.2256596999941394,23,0,0,99,0.24,-0.08,right,1.138038899982348,,,,,243.37875089998124,244.93998949998058,0.4,-0.32,0.0,0.4,-0.32,0.4,0.2,0.4,-0.32,242.51213330001337,242.51213330001337,242.51213330001337,242.51213330001337,242.51213330001337,242.51213330001337,242.51213330001337,242.51213330001337,242.46191369999434,1.0017737999442033,return,0.8410771999624558,,,,,,A,train_x,x_increasing_steps,top_left,2024-10-29_23h02.04.851,HideSeek_v1,2022.2.5,60.14838607096862,
,4,4,7,4,3,0,46,,train_dim1_1,24,30,2,0,2,0,,,,,,,,,0,0,0,0,0,23,23,23,1,0,1,0,,,,,,,,,,,,,,,,,,,,,,,,,,,,,,,,,,,,,,,,,,,,,,,,,,,,30,,,,,,,,246.15420980000636,246.15420980000636,246.15420980000636,246.15420980000636,246.15420980000636,right,0.6106320000253618,23,0,0,99,0.32,-0.08,right,0.5270125999813899,,,,,,,,,,,,,,,,,,,,,,,,,,,,,,,,,A,train_x,x_increasing_steps,top_left,2024-10-29_23h02.04.851,HideSeek_v1,2022.2.5,60.14838607096862,
,4,4,7,4,3,0,46,,train_dim1_1,24,30,2,0,2,0,,,,,,,,,0,0,0,0,0,23,23,23,2,0,2,0,,,,,,,,,,,,,,,,,,,,,,,,,,,,,,,,,,,,,,,,,,,,,,,,,,,,30,,,,,,,,246.76294049998978,246.76294049998978,246.76294049998978,246.76294049998978,246.76294049998978,right,0.3107865999918431,23,0,0,99,0.4,-0.08,right,0.23702719999710098,,,,,,,,,,,,,,,,,,,,,,,,,,,,,,,,,A,train_x,x_increasing_steps,top_left,2024-10-29_23h02.04.851,HideSeek_v1,2022.2.5,60.14838607096862,
,4,4,7,4,3,0,46,,train_dim1_1,24,30,2,0,2,0,,,,,,,,,0,0,0,0,0,23,23,23,3,0,3,0,,,,,,,,,,,,,,,,,,,,,,,,,,,,,,,,,,,,,,,,,,,,,,,,,,,,30,,,,,,,,247.08175329997903,247.08175329997903,247.08175329997903,247.08175329997903,247.08175329997903,return,0.31024110002908856,24,0,0,1,0.4,-0.08,return,0.238420799956657,0,55,0.4,-0.08,,,,,,,,,,,,,,,,,,,,,,,,,,,,,A,train_x,x_increasing_steps,top_left,2024-10-29_23h02.04.851,HideSeek_v1,2022.2.5,60.14838607096862,
,3,0,3,0,0,0,16,,train_dim1_1,25,30,2,0,2,0,,,,,,,,,0,0,0,0,0,24,24,24,0,0,0,0,,,,,,,,,,,,,stimuli/alien_stimuli/16.png,,,,,,,,,,,,,,,,,,,,,,,,,,,,,stimuli/alien_stimuli/46.png,46,4,26,,,,,,,30,,,,,,,,251.54549089999637,251.54549089999637,251.54549089999637,251.54549089999637,251.54549089999637,return,1.057801400020253,25,0,0,1,0.08,-0.4,return,0.9627885999507271,0,55,0.08,-0.4,249.97862279997207,251.54549089999637,0.4,-0.08,0.0,0.24,-0.08,0.4,0.28,0.4,-0.08,248.96612950001145,248.96612950001145,248.96612950001145,248.96612950001145,248.96612950001145,248.96612950001145,248.96612950001145,248.96612950001145,248.91205089997968,1.118608300050255,return,0.9840199999744073,,,,,,A,train_x,x_increasing_steps,top_left,2024-10-29_23h02.04.851,HideSeek_v1,2022.2.5,60.14838607096862,
,1,1,6,1,5,0,66,,train_dim1_1,26,30,2,0,2,0,,,,,,,,,0,0,0,0,0,25,25,25,0,0,0,0,,,,,,,,,,,,,stimuli/alien_stimuli/66.png,,,,,,,,,,,,,,,,,,,,,,,,,,,,,stimuli/alien_stimuli/16.png,16,3,27,,,,,,,30,,,,,,,,256.9659818999935,256.9659818999935,256.9659818999935,256.9659818999935,256.9659818999935,right,0.6911436999798752,25,0,0,99,0.0,-0.32,right,0.5875987999606878,,,,,255.3957834999892,256.9659818999935,0.08,-0.4,0.0,0.0,-0.4,0.08,0.08,0.08,-0.4,254.1613262000028,254.1613262000028,254.1613262000028,254.1613262000028,254.1613262000028,254.1613262000028,254.1613262000028,254.1613262000028,254.11184860000503,1.3519534000079148,return,1.20357240003068,,,,,,A,train_x,x_increasing_steps,top_left,2024-10-29_23h02.04.851,HideSeek_v1,2022.2.5,60.14838607096862,
,1,1,6,1,5,0,66,,train_dim1_1,26,30,2,0,2,0,,,,,,,,,0,0,0,0,0,25,25,25,1,0,1,0,,,,,,,,,,,,,,,,,,,,,,,,,,,,,,,,,,,,,,,,,,,,,,,,,,,,30,,,,,,,,257.64389899995876,257.64389899995876,257.64389899995876,257.64389899995876,257.64389899995876,right,0.311094900011085,25,0,0,99,0.08,-0.32,right,0.23062029998982325,,,,,,,,,,,,,,,,,,,,,,,,,,,,,,,,,A,train_x,x_increasing_steps,top_left,2024-10-29_23h02.04.851,HideSeek_v1,2022.2.5,60.14838607096862,
,1,1,6,1,5,0,66,,train_dim1_1,26,30,2,0,2,0,,,,,,,,,0,0,0,0,0,25,25,25,2,0,2,0,,,,,,,,,,,,,,,,,,,,,,,,,,,,,,,,,,,,,,,,,,,,,,,,,,,,30,,,,,,,,257.9500122999889,257.9500122999889,257.9500122999889,257.9500122999889,257.9500122999889,right,0.2946170999784954,25,0,0,99,0.16,-0.32,right,0.22018489998299628,,,,,,,,,,,,,,,,,,,,,,,,,,,,,,,,,A,train_x,x_increasing_steps,top_left,2024-10-29_23h02.04.851,HideSeek_v1,2022.2.5,60.14838607096862,
,1,1,6,1,5,0,66,,train_dim1_1,26,30,2,0,2,0,,,,,,,,,0,0,0,0,0,25,25,25,3,0,3,0,,,,,,,,,,,,,,,,,,,,,,,,,,,,,,,,,,,,,,,,,,,,,,,,,,,,30,,,,,,,,258.24994479998713,258.24994479998713,258.24994479998713,258.24994479998713,258.24994479998713,right,0.29448710003634915,25,0,0,99,0.24,-0.32,right,0.22779480001190677,,,,,,,,,,,,,,,,,,,,,,,,,,,,,,,,,A,train_x,x_increasing_steps,top_left,2024-10-29_23h02.04.851,HideSeek_v1,2022.2.5,60.14838607096862,
,1,1,6,1,5,0,66,,train_dim1_1,26,30,2,0,2,0,,,,,,,,,0,0,0,0,0,25,25,25,4,0,4,0,,,,,,,,,,,,,,,,,,,,,,,,,,,,,,,,,,,,,,,,,,,,,,,,,,,,30,,,,,,,,258.5507309999666,258.5507309999666,258.5507309999666,258.5507309999666,258.5507309999666,right,0.26089400000637397,25,0,0,99,0.32,-0.32,right,0.17915400001220405,,,,,,,,,,,,,,,,,,,,,,,,,,,,,,,,,A,train_x,x_increasing_steps,top_left,2024-10-29_23h02.04.851,HideSeek_v1,2022.2.5,60.14838607096862,
,1,1,6,1,5,0,66,,train_dim1_1,26,30,2,0,2,0,,,,,,,,,0,0,0,0,0,25,25,25,5,0,5,0,,,,,,,,,,,,,,,,,,,,,,,,,,,,,,,,,,,,,,,,,,,,,,,,,,,,30,,,,,,,,258.81516579998424,258.81516579998424,258.81516579998424,258.81516579998424,258.81516579998424,return,0.24452190002193674,26,0,0,1,0.32,-0.32,return,0.17192900000372902,0,60,0.32,-0.32,,,,,,,,,,,,,,,,,,,,,,,,,,,,,A,train_x,x_increasing_steps,top_left,2024-10-29_23h02.04.851,HideSeek_v1,2022.2.5,60.14838607096862,
,0,1,2,1,2,0,36,,train_dim1_1,27,30,2,0,2,0,,,,,,,,,0,0,0,0,0,26,26,26,0,0,0,0,,,,,,,,,,,,,stimuli/alien_stimuli/36.png,,,,,,,,,,,,,,,,,,,,,,,,,,,,,stimuli/alien_stimuli/66.png,66,1,28,,,,,,,30,,,,,,,,262.703512499982,262.703512499982,262.703512499982,262.703512499982,262.703512499982,right,0.675274699984584,26,0,0,99,-0.08,-0.32,right,0.5887833999586292,,,,,261.1451472999761,262.703512499982,0.32,-0.32,0.0,0.4,-0.32,0.32,0.12,0.32,-0.32,260.64947279996704,260.64947279996704,260.64947279996704,260.64947279996704,260.64947279996704,260.64947279996704,260.64947279996704,260.64947279996704,260.5952965999895,0.6180962999933399,return,0.47454770002514124,,,,,,A,train_x,x_increasing_steps,top_left,2024-10-29_23h02.04.851,HideSeek_v1,2022.2.5,60.14838607096862,
,0,1,2,1,2,0,36,,train_dim1_1,27,30,2,0,2,0,,,,,,,,,0,0,0,0,0,26,26,26,1,0,1,0,,,,,,,,,,,,,,,,,,,,,,,,,,,,,,,,,,,,,,,,,,,,,,,,,,,,30,,,,,,,,263.36441430001287,263.36441430001287,263.36441430001287,263.36441430001287,263.36441430001287,right,0.4938469000044279,26,0,0,99,0.0,-0.32,right,0.43148639996070415,,,,,,,,,,,,,,,,,,,,,,,,,,,,,,,,,A,train_x,x_increasing_steps,top_left,2024-10-29_23h02.04.851,HideSeek_v1,2022.2.5,60.14838607096862,
,0,1,2,1,2,0,36,,train_dim1_1,27,30,2,0,2,0,,,,,,,,,0,0,0,0,0,26,26,26,2,0,2,0,,,,,,,,,,,,,,,,,,,,,,,,,,,,,,,,,,,,,,,,,,,,,,,,,,,,30,,,,,,,,263.86359419999644,263.86359419999644,263.86359419999644,263.86359419999644,263.86359419999644,return,0.27758200000971556,27,0,0,1,0.0,-0.32,return,0.20222029997967184,0,62,0.0,-0.32,,,,,,,,,,,,,,,,,,,,,,,,,,,,,A,train_x,x_increasing_steps,top_left,2024-10-29_23h02.04.851,HideSeek_v1,2022.2.5,60.14838607096862,
,3,1,4,1,1,0,26,,train_dim1_1,28,30,2,0,2,0,,,,,,,,,0,0,0,0,0,27,27,27,0,0,0,0,,,,,,,,,,,,,stimuli/alien_stimuli/26.png,,,,,,,,,,,,,,,,,,,,,,,,,,,,,stimuli/alien_stimuli/36.png,36,0,29,,,,,,,30,,,,,,,,268.1219674999593,268.1219674999593,268.1219674999593,268.1219674999593,268.1219674999593,right,0.8911615999531932,27,0,0,99,0.16,-0.32,right,0.799325299973134,,,,,266.5618194999988,268.1219674999593,0,-0.32,0.0,0.16,-0.32,0,-0.08,0,-0.32,265.72073249996174,265.72073249996174,265.72073249996174,265.72073249996174,265.72073249996174,265.72073249996174,265.72073249996174,265.72073249996174,265.67901699998765,0.9513234999612905,return,0.8158665000228211,,,,,,A,train_x,x_increasing_steps,top_left,2024-10-29_23h02.04.851,HideSeek_v1,2022.2.5,60.14838607096862,
,3,1,4,1,1,0,26,,train_dim1_1,28,30,2,0,2,0,,,,,,,,,0,0,0,0,0,27,27,27,1,0,1,0,,,,,,,,,,,,,,,,,,,,,,,,,,,,,,,,,,,,,,,,,,,,,,,,,,,,30,,,,,,,,269.0029483999824,269.0029483999824,269.0029483999824,269.0029483999824,269.0029483999824,return,0.29382079996867105,28,0,0,1,0.16,-0.32,return,0.21901400003116578,0,63,0.16,-0.32,,,,,,,,,,,,,,,,,,,,,,,,,,,,,A,train_x,x_increasing_steps,top_left,2024-10-29_23h02.04.851,HideSeek_v1,2022.2.5,60.14838607096862,
,4,0,7,0,3,0,46,,train_dim1_1,29,30,2,0,2,0,,,,,,,,,0,0,0,0,0,28,28,28,0,0,0,0,,,,,,,,,,,,,stimuli/alien_stimuli/46.png,,,,,,,,,,,,,,,,,,,,,,,,,,,,,stimuli/alien_stimuli/26.png,26,3,30,,,,,,,30,,,,,,,,275.6855074999621,275.6855074999621,275.6855074999621,275.6855074999621,275.6855074999621,right,0.7585887999739498,28,0,0,99,0.24,-0.4,right,0.6734899000148289,,,,,274.12847970001167,275.6855074999621,0.16,-0.32,0.0,0.08,-0.32,0.16,0.12,0.16,-0.32,270.8679306000122,270.8679306000122,270.8679306000122,270.8679306000122,270.8679306000122,270.8679306000122,270.8679306000122,270.8679306000122,270.82897579998826,3.3687142999842763,return,3.24151309998706,,,,,,A,train_x,x_increasing_steps,top_left,2024-10-29_23h02.04.851,HideSeek_v1,2022.2.5,60.14838607096862,
,4,0,7,0,3,0,46,,train_dim1_1,29,30,2,0,2,0,,,,,,,,,0,0,0,0,0,28,28,28,1,0,1,0,,,,,,,,,,,,,,,,,,,,,,,,,,,,,,,,,,,,,,,,,,,,,,,,,,,,30,,,,,,,,276.4324907999835,276.4324907999835,276.4324907999835,276.4324907999835,276.4324907999835,right,0.3438486999948509,28,0,0,99,0.32,-0.4,right,0.26711020001675934,,,,,,,,,,,,,,,,,,,,,,,,,,,,,,,,,A,train_x,x_increasing_steps,top_left,2024-10-29_23h02.04.851,HideSeek_v1,2022.2.5,60.14838607096862,
,4,0,7,0,3,0,46,,train_dim1_1,29,30,2,0,2,0,,,,,,,,,0,0,0,0,0,28,28,28,2,0,2,0,,,,,,,,,,,,,,,,,,,,,,,,,,,,,,,,,,,,,,,,,,,,,,,,,,,,30,,,,,,,,276.7800556999864,276.7800556999864,276.7800556999864,276.7800556999864,276.7800556999864,right,0.24486269999761134,28,0,0,99,0.4,-0.4,right,0.1724337000050582,,,,,,,,,,,,,,,,,,,,,,,,,,,,,,,,,A,train_x,x_increasing_steps,top_left,2024-10-29_23h02.04.851,HideSeek_v1,2022.2.5,60.14838607096862,
,4,0,7,0,3,0,46,,train_dim1_1,29,30,2,0,2,0,,,,,,,,,0,0,0,0,0,28,28,28,3,0,3,0,,,,,,,,,,,,,,,,,,,,,,,,,,,,,,,,,,,,,,,,,,,,,,,,,,,,30,,,,,,,,277.0305200999719,277.0305200999719,277.0305200999719,277.0305200999719,277.0305200999719,return,0.29383770003914833,29,0,0,1,0.4,-0.4,return,0.23166689998470247,0,66,0.4,-0.4,,,,,,,,,,,,,,,,,,,,,,,,,,,,,A,train_x,x_increasing_steps,top_left,2024-10-29_23h02.04.851,HideSeek_v1,2022.2.5,60.14838607096862,
,2,2,2,2,0,0,16,,train_dim1_1,30,30,2,0,2,0,,,,,,,,,0,0,0,0,0,29,29,29,0,0,0,0,,,,,,,,,,,,,stimuli/alien_stimuli/16.png,,,,,,,,,,,,,,,,,,,,,,,,,,,,,stimuli/alien_stimuli/46.png,46,4,31,,,,,,,30,,,,,,,,280.979090799985,280.979090799985,280.979090799985,280.979090799985,280.979090799985,return,1.02632750000339,30,0,0,1,0,-0.24,return,0.8930790000013076,0,66,0,-0.24,279.3788573999773,280.979090799985,0.4,-0.4,0.0,0.24,-0.4,0.4,0.28,0.4,-0.4,278.9071568999789,278.9071568999789,278.9071568999789,278.9071568999789,278.9071568999789,278.9071568999789,278.9071568999789,278.9071568999789,278.86173519995646,0.5853571000043303,return,0.45383339998079464,,,,,,A,train_x,x_increasing_steps,top_left,2024-10-29_23h02.04.851,HideSeek_v1,2022.2.5,60.14838607096862,
,,,,,,,,,,,30,2,0,2,0,,,,,,,,,,,,,,,,,,,,,,,,,,,,,,,,,,,,,,,,,,,,,,,,,,,,,,,,,,,,,,stimuli/alien_stimuli/16.png,16,2,32,17,0.7,1.25,1,1,1,30,0,conditions/schedules/train_x_first/x_increasing_steps/top_left/inputTrain_2.1.xlsx,99,1,2,1,0,,,,,,,,,,,1,,,,,,,,,283.8119462999748,285.34695549996104,0,-0.24,0.0,0.0,-0.24,0,0.0,0,-0.24,283.5283386000083,283.5283386000083,283.5283386000083,283.5283386000083,283.5283386000083,283.5283386000083,283.5283386000083,283.5283386000083,283.47853749999194,0.4012891000020318,return,0.2640059000113979,0,1.25,0,1,30,A,train_x,x_increasing_steps,top_left,2024-10-29_23h02.04.851,HideSeek_v1,2022.2.5,60.14838607096862,
,,,,,,,,,,,,3,0,3,0,0,0,0,0,,,,,,,,,,,,,,,,,,,conditions/schedules/train_x_first/x_increasing_steps/top_left/instructions/Slide17.png,conditions/schedules/train_x_first/x_increasing_steps/top_left/instructions/Audio17.wav,285.34695549996104,285.34511169995534,17,"[5.758012899954338, 0.27507860003970563, 0.2000409999745898, 0.20373110001673922, 0.24056370003381744, 0.227823699999135, 0.2606062000268139, 0.37765809998381883, 0.28972699999576434, 0.27105999999912456, 0.29211729997769, 0.3249426000402309, 0.5535800000070594, 1.1370066999807023, 0.7997813000110909, 0.3966102999984287, 1.6981404999969527]","[0.025748100015334785, 0.015596499957609922, 0.03506969998124987, 0.04052750003756955, 0.014737100049387664, 0.0444248000276275, 0.044553799962159246, 0.07303580001462251, 0.07140469999285415, 0.05891149997478351, 0.07496840000385419, 0.3249508999870159, 0.052956199971958995, 1.1370139999780804, 0.06296829995699227, 0.3966165999881923, 1.6981480999966152]",0,,,,,,,,,,,,,,,,,,,,,,,,,,,,,,,,,,,,,,,,,,,,,,,,,,,,,,,,,,,,,,,,,,,,,,,,,,,,,,,,,,,,,,,,,,,,,,,,,A,train_x,x_increasing_steps,top_left,2024-10-29_23h02.04.851,HideSeek_v1,2022.2.5,60.14838607096862,
,,,,,,,,,,,,3,0,3,0,1,0,1,0,,,,,,,,,,,,,,,,,,,conditions/schedules/train_x_first/x_increasing_steps/top_left/instructions/Slide18.png,conditions/schedules/train_x_first/x_increasing_steps/top_left/instructions/Audio18.wav,287.08945059997495,287.07848329999837,18,"[5.758012899954338, 0.27507860003970563, 0.2000409999745898, 0.20373110001673922, 0.24056370003381744, 0.227823699999135, 0.2606062000268139, 0.37765809998381883, 0.28972699999576434, 0.27105999999912456, 0.29211729997769, 0.3249426000402309, 0.5535800000070594, 1.1370066999807023, 0.7997813000110909, 0.3966102999984287, 1.6981404999969527, 0.6204864999745041]","[0.025748100015334785, 0.015596499957609922, 0.03506969998124987, 0.04052750003756955, 0.014737100049387664, 0.0444248000276275, 0.044553799962159246, 0.07303580001462251, 0.07140469999285415, 0.05891149997478351, 0.07496840000385419, 0.3249508999870159, 0.052956199971958995, 1.1370139999780804, 0.06296829995699227, 0.3966165999881923, 0.08710519998567179, 0.620494199974928]",0,,,,,,,,,,,,,,,,,,,,,,,,,,,,,,,,,,,,,,,,,,,,,,,,,,,,,,,,,,,,,,,,,,,,,,,,,,,,,,,,,,,,,,,,,,,,,,,,,A,train_x,x_increasing_steps,top_left,2024-10-29_23h02.04.851,HideSeek_v1,2022.2.5,60.14838607096862,
,,,,,,,,,,,,3,0,3,0,2,0,2,0,,,,,,,,,,,,,,,,,,,conditions/schedules/train_x_first/x_increasing_steps/top_left/instructions/Slide19.png,conditions/schedules/train_x_first/x_increasing_steps/top_left/instructions/Audio19.wav,287.7453969999915,287.744925399957,19,"[5.758012899954338, 0.27507860003970563, 0.2000409999745898, 0.20373110001673922, 0.24056370003381744, 0.227823699999135, 0.2606062000268139, 0.37765809998381883, 0.28972699999576434, 0.27105999999912456, 0.29211729997769, 0.3249426000402309, 0.5535800000070594, 1.1370066999807023, 0.7997813000110909, 0.3966102999984287, 1.6981404999969527, 0.6204864999745041, 0.5507759000174701]","[0.025748100015334785, 0.015596499957609922, 0.03506969998124987, 0.04052750003756955, 0.014737100049387664, 0.0444248000276275, 0.044553799962159246, 0.07303580001462251, 0.07140469999285415, 0.05891149997478351, 0.07496840000385419, 0.3249508999870159, 0.052956199971958995, 1.1370139999780804, 0.06296829995699227, 0.3966165999881923, 0.08710519998567179, 0.0832506000297144, 0.5507844000239857]",0,,,,,,,,,,,,,,,,,,,,,,,,,,,,,,,,,,,,,,,,,,,,,,,,,,,,,,,,,,,,,,,,,,,,,,,,,,,,,,,,,,,,,,,,,,,,,,,,,A,train_x,x_increasing_steps,top_left,2024-10-29_23h02.04.851,HideSeek_v1,2022.2.5,60.14838607096862,
,,,,,,,,,,,,3,0,3,0,3,0,3,0,,,,,,,,,,,,,,,,,,,conditions/schedules/train_x_first/x_increasing_steps/top_left/instructions/Slide20.png,conditions/schedules/train_x_first/x_increasing_steps/top_left/instructions/Audio20.wav,288.3451074999757,288.3285761000065,20,"[5.758012899954338, 0.27507860003970563, 0.2000409999745898, 0.20373110001673922, 0.24056370003381744, 0.227823699999135, 0.2606062000268139, 0.37765809998381883, 0.28972699999576434, 0.27105999999912456, 0.29211729997769, 0.3249426000402309, 0.5535800000070594, 1.1370066999807023, 0.7997813000110909, 0.3966102999984287, 1.6981404999969527, 0.6204864999745041, 0.5507759000174701, 0.7536002999986522]","[0.025748100015334785, 0.015596499957609922, 0.03506969998124987, 0.04052750003756955, 0.014737100049387664, 0.0444248000276275, 0.044553799962159246, 0.07303580001462251, 0.07140469999285415, 0.05891149997478351, 0.07496840000385419, 0.3249508999870159, 0.052956199971958995, 1.1370139999780804, 0.06296829995699227, 0.3966165999881923, 0.08710519998567179, 0.0832506000297144, 0.08679639996262267, 0.7536076999967918]",0,,,,,,,,,,,,,,,,,,,,,,,,,,,,,,,,,,,,,,,,,,,,,,,,,,,,,,,,,,,,,,,,,,,,,,,,,,,,,,,,,,,,,,,,,,,,,,,,,A,train_x,x_increasing_steps,top_left,2024-10-29_23h02.04.851,HideSeek_v1,2022.2.5,60.14838607096862,
1,3,2,8,2,5,0,66,2,instr_dim1_1,,,3,0,3,0,,,,,0,0,0,0,,,,,,,,,,,,,,,,,,,,,,,,,stimuli/alien_stimuli/66.png,conditions/schedules/train_x_first/x_increasing_steps/top_left/inputInstr_1.xlsx,stimuli/alien_stimuli/66.png,289.1954575999989,289.1954575999989,289.1954575999989,289.1954575999989,289.14501119997584,return,2.8468384000007063,"[-0.16, -0.08, 0, 0.08, 0.16, 0.24, 0.32, 0.4, 0.48, 0.56]","[-0.4, -0.32, -0.24, -0.16, -0.08, 0, 0.08, 0.16, 0.24, 0.32]",2,2,8,3,0.0,0.4,292.2460399999982,292.2460399999982,292.2460399999982,292.2460399999982,292.2460399999982,292.2460399999982,292.2460399999982,292.1450006999774,1.1672468000324443,return,0.960382099961862,stimuli/alien_stimuli/66.png,66,3,1,,,,,,,,,,,,,,,,,,,,,,,,,,,,,,,,,,,,,,,,,,,,,,,,,,,,,,,,,,,,,,A,train_x,x_increasing_steps,top_left,2024-10-29_23h02.04.851,HideSeek_v1,2022.2.5,60.14838607096862,
,,,,,,,,,,,30,3,0,3,0,,,,,,,,,,,,,,,,,,,,,,,,,,,,,,,,,,,,,,,,,,,,,,,,,,,,,,,,,,,,,,,,,,17,0.7,1.25,1,99,2,30,0,conditions/schedules/train_x_first/x_increasing_steps/top_left/inputTrain_2.1.xlsx,99,1,2,1,0,,,,,,,,,,,,,,,,,,,,,,,,,,,,,,,,,,,,,,,,,,,,,,,,A,train_x,x_increasing_steps,top_left,2024-10-29_23h02.04.851,HideSeek_v1,2022.2.5,60.14838607096862,
,,,,,,,,,,,,4,0,4,0,0,0,0,0,,,,,,,,,,,,,,,,,,,conditions/schedules/train_x_first/x_increasing_steps/top_left/instructions/Slide21.png,conditions/schedules/train_x_first/x_increasing_steps/top_left/instructions/Audio21.wav,293.3377196000074,293.3281648000062,21,"[5.758012899954338, 0.27507860003970563, 0.2000409999745898, 0.20373110001673922, 0.24056370003381744, 0.227823699999135, 0.2606062000268139, 0.37765809998381883, 0.28972699999576434, 0.27105999999912456, 0.29211729997769, 0.3249426000402309, 0.5535800000070594, 1.1370066999807023, 0.7997813000110909, 0.3966102999984287, 1.6981404999969527, 0.6204864999745041, 0.5507759000174701, 0.7536002999986522, 2.6903622999670915]","[0.025748100015334785, 0.015596499957609922, 0.03506969998124987, 0.04052750003756955, 0.014737100049387664, 0.0444248000276275, 0.044553799962159246, 0.07303580001462251, 0.07140469999285415, 0.05891149997478351, 0.07496840000385419, 0.3249508999870159, 0.052956199971958995, 1.1370139999780804, 0.06296829995699227, 0.3966165999881923, 0.08710519998567179, 0.0832506000297144, 0.08679639996262267, 0.7536076999967918, 2.6903702999698]",0,,,,,,,,,,,,,,,,,,,,,,,,,,,,,,,,,,,,,,,,,,,,,,,,,,,,,,,,,,,,,,,,,,,,,,,,,,,,,,,,,,,,,,,,,,,,,,,,,A,train_x,x_increasing_steps,top_left,2024-10-29_23h02.04.851,HideSeek_v1,2022.2.5,60.14838607096862,
2,4,0,4,0,0,0,16,2,instr_dim1_1,,,4,0,4,0,,,,,0,0,0,0,,,,,,,,,,,,,,,,,,,,,,,,,stimuli/alien_stimuli/16.png,conditions/schedules/train_x_first/x_increasing_steps/top_left/inputInstr_1.xlsx,stimuli/alien_stimuli/16.png,296.14493889996083,296.14493889996083,296.14493889996083,296.14493889996083,296.11160909996835,return,0.7753427000134252,"[-0.16, -0.08, 0, 0.08, 0.16, 0.24, 0.32, 0.4, 0.48, 0.56]","[-0.4, -0.32, -0.24, -0.16, -0.08, 0, 0.08, 0.16, 0.24, 0.32]",0,0,4,4,0.0,0.0,297.1287199999788,297.1287199999788,297.1287199999788,297.1287199999788,297.1287199999788,297.1287199999788,297.1287199999788,297.0616820999771,0.7676271999953315,return,0.5653447000076994,stimuli/alien_stimuli/16.png,16,4,2,,,,,,,,,,,,,,,,,,,,,,,,,,,,,,,,,,,,,,,,,,,,,,,,,,,,,,,,,,,,,,A,train_x,x_increasing_steps,top_left,2024-10-29_23h02.04.851,HideSeek_v1,2022.2.5,60.14838607096862,
,,,,,,,,,,,30,4,0,4,0,,,,,,,,,,,,,,,,,,,,,,,,,,,,,,,,,,,,,,,,,,,,,,,,,,,,,,,,,,,,,,,,,,17,0.7,1.25,1,99,2,30,0,conditions/schedules/train_x_first/x_increasing_steps/top_left/inputTrain_2.1.xlsx,99,1,2,1,0,,,,,,,,,,,,,,,,,,,,,,,,,,,,,,,,,,,,,,,,,,,,,,,,A,train_x,x_increasing_steps,top_left,2024-10-29_23h02.04.851,HideSeek_v1,2022.2.5,60.14838607096862,
,,,,,,,,,,,,5,0,5,0,0,0,0,0,,,,,,,,,,,,,,,,,,,conditions/schedules/train_x_first/x_increasing_steps/top_left/instructions/Slide22.png,conditions/schedules/train_x_first/x_increasing_steps/top_left/instructions/Audio22.wav,297.83486389997415,297.8282987999614,22,"[5.758012899954338, 0.27507860003970563, 0.2000409999745898, 0.20373110001673922, 0.24056370003381744, 0.227823699999135, 0.2606062000268139, 0.37765809998381883, 0.28972699999576434, 0.27105999999912456, 0.29211729997769, 0.3249426000402309, 0.5535800000070594, 1.1370066999807023, 0.7997813000110909, 0.3966102999984287, 1.6981404999969527, 0.6204864999745041, 0.5507759000174701, 0.7536002999986522, 2.6903622999670915, 0.8435336999827996]","[0.025748100015334785, 0.015596499957609922, 0.03506969998124987, 0.04052750003756955, 0.014737100049387664, 0.0444248000276275, 0.044553799962159246, 0.07303580001462251, 0.07140469999285415, 0.05891149997478351, 0.07496840000385419, 0.3249508999870159, 0.052956199971958995, 1.1370139999780804, 0.06296829995699227, 0.3966165999881923, 0.08710519998567179, 0.0832506000297144, 0.08679639996262267, 0.7536076999967918, 2.6903702999698, 0.8435421999893151]",0,,,,,,,,,,,,,,,,,,,,,,,,,,,,,,,,,,,,,,,,,,,,,,,,,,,,,,,,,,,,,,,,,,,,,,,,,,,,,,,,,,,,,,,,,,,,,,,,,A,train_x,x_increasing_steps,top_left,2024-10-29_23h02.04.851,HideSeek_v1,2022.2.5,60.14838607096862,
,0,0,0,1,0,1,15,,train_dim1_2,1,30,5,0,5,0,,,,,,,,,0,0,0,0,0,0,0,0,0,0,0,0,,,,,,,,,,,,,stimuli/alien_stimuli/15.png,,,,,,,,,,,,,,,,,,,,,,,,,,,,,,,,,,,,,,,30,,,,,,,,298.74930079997284,298.74930079997284,298.74930079997284,298.74930079997284,298.74930079997284,return,12.286675699986517,0,1,0,0,-0.16,-0.4,return,12.200710900011472,0,66,-0.16,-0.4,,,,,,,,,,,,,,,,,,,,,,,,,,,,,A,train_x,x_increasing_steps,top_left,2024-10-29_23h02.04.851,HideSeek_v1,2022.2.5,60.14838607096862,
,3,2,3,2,0,0,16,,train_dim1_2,2,30,5,0,5,0,,,,,,,,,0,0,0,0,0,1,1,1,0,0,0,0,,,,,,,,,,,,,stimuli/alien_stimuli/16.png,,,,,,,,,,,,,,,,,,,,,,,,,,,,,stimuli/alien_stimuli/15.png,15,0,3,,,,,,,30,,,,,,,,317.21682289999444,317.21682289999444,317.21682289999444,317.21682289999444,317.21682289999444,return,2.2914327000034973,1,0,0,1,0.08,-0.24,return,2.228189100045711,0,66,0.08,-0.24,315.6781964999973,317.21682289999444,-0.16,-0.32,0.08,0.0,-0.36,-0.16,-0.16,-0.16,-0.32,312.59488799999235,312.59488799999235,312.59488799999235,312.59488799999235,312.59488799999235,312.59488799999235,312.59488799999235,312.59488799999235,312.5778850999894,3.185940399998799,return,3.067217499949038,,,,,,A,train_x,x_increasing_steps,top_left,2024-10-29_23h02.04.851,HideSeek_v1,2022.2.5,60.14838607096862,
,2,3,2,5,0,2,14,,train_dim1_2,3,30,5,0,5,0,,,,,,,,,0,0,0,0,0,2,2,2,0,0,0,0,,,,,,,,,,,,,stimuli/alien_stimuli/14.png,,,,,,,,,,,,,,,,,,,,,,,,,,,,,stimuli/alien_stimuli/16.png,16,3,4,,,,,,,30,,,,,,,,323.09803669998655,323.09803669998655,323.09803669998655,323.09803669998655,323.09803669998655,up,0.8413694999762811,1,0,0,99,0,-0.08,up,0.760054400016088,,,,,321.5443746999954,323.09803669998655,0.08,-0.24,0.0,0.0,-0.24,0.08,0.08,0.08,-0.24,321.0531557999784,321.0531557999784,321.0531557999784,321.0531557999784,321.0531557999784,321.0531557999784,321.0531557999784,321.0531557999784,321.0444565000071,0.5686735999770463,return,0.46493409998947755,,,,,,A,train_x,x_increasing_steps,top_left,2024-10-29_23h02.04.851,HideSeek_v1,2022.2.5,60.14838607096862,
,2,3,2,5,0,2,14,,train_dim1_2,3,30,5,0,5,0,,,,,,,,,0,0,0,0,0,2,2,2,1,0,1,0,,,,,,,,,,,,,,,,,,,,,,,,,,,,,,,,,,,,,,,,,,,,,,,,,,,,30,,,,,,,,323.93320269999094,323.93320269999094,323.93320269999094,323.93320269999094,323.93320269999094,up,0.41115409997291863,1,0,0,99,0,0.0,up,0.3306664999690838,,,,,,,,,,,,,,,,,,,,,,,,,,,,,,,,,A,train_x,x_increasing_steps,top_left,2024-10-29_23h02.04.851,HideSeek_v1,2022.2.5,60.14838607096862,
,2,3,2,5,0,2,14,,train_dim1_2,3,30,5,0,5,0,,,,,,,,,0,0,0,0,0,2,2,2,2,0,2,0,,,,,,,,,,,,,,,,,,,,,,,,,,,,,,,,,,,,,,,,,,,,,,,,,,,,30,,,,,,,,324.362459499971,324.362459499971,324.362459499971,324.362459499971,324.362459499971,return,0.3611761999782175,2,0,0,1,0,0.0,return,0.2765101999975741,2,66,0,0.0,,,,,,,,,,,,,,,,,,,,,,,,,,,,,A,train_x,x_increasing_steps,top_left,2024-10-29_23h02.04.851,HideSeek_v1,2022.2.5,60.14838607096862,
,0,1,0,5,0,4,12,,train_dim1_2,4,30,5,0,5,0,,,,,,,,,0,0,0,0,0,3,3,3,0,0,0,0,,,,,,,,,,,,,stimuli/alien_stimuli/12.png,,,,,,,,,,,,,,,,,,,,,,,,,,,,,stimuli/alien_stimuli/14.png,14,2,5,,,,,,,30,,,,,,,,328.3860294999904,328.3860294999904,328.3860294999904,328.3860294999904,328.3860294999904,up,0.9757552000228316,2,0,0,99,-0.16,-0.24,up,0.8674111000145786,,,,,326.8113153000013,328.3860294999904,0,0,0.16,0.0,-0.08,0,0.0,0,0,326.262023999996,326.262023999996,326.262023999996,326.262023999996,326.262023999996,326.262023999996,326.262023999996,326.262023999996,326.2446010999556,0.6348843000014313,return,0.5283603999996558,,,,,,A,train_x,x_increasing_steps,top_left,2024-10-29_23h02.04.851,HideSeek_v1,2022.2.5,60.14838607096862,
,0,1,0,5,0,4,12,,train_dim1_2,4,30,5,0,5,0,,,,,,,,,0,0,0,0,0,3,3,3,1,0,1,0,,,,,,,,,,,,,,,,,,,,,,,,,,,,,,,,,,,,,,,,,,,,,,,,,,,,30,,,,,,,,329.3304822999635,329.3304822999635,329.3304822999635,329.3304822999635,329.3304822999635,up,0.3441675000358373,2,0,0,99,-0.16,-0.15999999999999998,up,0.2728825000231154,,,,,,,,,,,,,,,,,,,,,,,,,,,,,,,,,A,train_x,x_increasing_steps,top_left,2024-10-29_23h02.04.851,HideSeek_v1,2022.2.5,60.14838607096862,
,0,1,0,5,0,4,12,,train_dim1_2,4,30,5,0,5,0,,,,,,,,,0,0,0,0,0,3,3,3,2,0,2,0,,,,,,,,,,,,,,,,,,,,,,,,,,,,,,,,,,,,,,,,,,,,,,,,,,,,30,,,,,,,,329.6823916999856,329.6823916999856,329.6823916999856,329.6823916999856,329.6823916999856,up,0.360991700028535,2,0,0,99,-0.16,-0.07999999999999997,up,0.2871080999611877,,,,,,,,,,,,,,,,,,,,,,,,,,,,,,,,,A,train_x,x_increasing_steps,top_left,2024-10-29_23h02.04.851,HideSeek_v1,2022.2.5,60.14838607096862,
,0,1,0,5,0,4,12,,train_dim1_2,4,30,5,0,5,0,,,,,,,,,0,0,0,0,0,3,3,3,3,0,3,0,,,,,,,,,,,,,,,,,,,,,,,,,,,,,,,,,,,,,,,,,,,,,,,,,,,,30,,,,,,,,330.052092399972,330.052092399972,330.052092399972,330.052092399972,330.052092399972,up,0.49365790002048016,2,0,0,99,-0.16,2.7755575615628914e-17,up,0.42702309996820986,,,,,,,,,,,,,,,,,,,,,,,,,,,,,,,,,A,train_x,x_increasing_steps,top_left,2024-10-29_23h02.04.851,HideSeek_v1,2022.2.5,60.14838607096862,
,0,1,0,5,0,4,12,,train_dim1_2,4,30,5,0,5,0,,,,,,,,,0,0,0,0,0,3,3,3,4,0,4,0,,,,,,,,,,,,,,,,,,,,,,,,,,,,,,,,,,,,,,,,,,,,,,,,,,,,30,,,,,,,,330.54895269998815,330.54895269998815,330.54895269998815,330.54895269998815,330.54895269998815,return,0.44486250000773,3,0,0,1,-0.16,2.7755575615628914e-17,return,0.3701118000317365,6,66,-0.16,2.7755575615628914e-17,,,,,,,,,,,,,,,,,,,,,,,,,,,,,A,train_x,x_increasing_steps,top_left,2024-10-29_23h02.04.851,HideSeek_v1,2022.2.5,60.14838607096862,
,3,3,3,8,0,5,11,,train_dim1_2,5,30,5,0,5,0,,,,,,,,,0,0,0,0,0,4,4,4,0,0,0,0,,,,,,,,,,,,,stimuli/alien_stimuli/11.png,,,,,,,,,,,,,,,,,,,,,,,,,,,,,stimuli/alien_stimuli/12.png,12,0,6,,,,,,,30,,,,,,,,334.52438249997795,334.52438249997795,334.52438249997795,334.52438249997795,334.52438249997795,up,0.8247552000102587,3,0,0,99,0.08,-0.08,up,0.7470662999548949,,,,,332.97765759995673,334.52438249997795,-0.16,0,0.32,0.0,-0.16,-0.16,-0.16,-0.16,0,332.53692869999213,332.53692869999213,332.53692869999213,332.53692869999213,332.53692869999213,332.53692869999213,332.53692869999213,332.53692869999213,332.5279946999799,0.518466499983333,return,0.41076880000764504,,,,,,A,train_x,x_increasing_steps,top_left,2024-10-29_23h02.04.851,HideSeek_v1,2022.2.5,60.14838607096862,
,3,3,3,8,0,5,11,,train_dim1_2,5,30,5,0,5,0,,,,,,,,,0,0,0,0,0,4,4,4,1,0,1,0,,,,,,,,,,,,,,,,,,,,,,,,,,,,,,,,,,,,,,,,,,,,,,,,,,,,30,,,,,,,,335.3719552999828,335.3719552999828,335.3719552999828,335.3719552999828,335.3719552999828,up,0.2777780999895185,3,0,0,99,0.08,0.0,up,0.17973989999154583,,,,,,,,,,,,,,,,,,,,,,,,,,,,,,,,,A,train_x,x_increasing_steps,top_left,2024-10-29_23h02.04.851,HideSeek_v1,2022.2.5,60.14838607096862,
,3,3,3,8,0,5,11,,train_dim1_2,5,30,5,0,5,0,,,,,,,,,0,0,0,0,0,4,4,4,2,0,2,0,,,,,,,,,,,,,,,,,,,,,,,,,,,,,,,,,,,,,,,,,,,,,,,,,,,,30,,,,,,,,335.63174739998067,335.63174739998067,335.63174739998067,335.63174739998067,335.63174739998067,up,0.26124720001826063,3,0,0,99,0.08,0.08,up,0.18673259997740388,,,,,,,,,,,,,,,,,,,,,,,,,,,,,,,,,A,train_x,x_increasing_steps,top_left,2024-10-29_23h02.04.851,HideSeek_v1,2022.2.5,60.14838607096862,
,3,3,3,8,0,5,11,,train_dim1_2,5,30,5,0,5,0,,,,,,,,,0,0,0,0,0,4,4,4,3,0,3,0,,,,,,,,,,,,,,,,,,,,,,,,,,,,,,,,,,,,,,,,,,,,,,,,,,,,30,,,,,,,,335.89952380000614,335.89952380000614,335.89952380000614,335.89952380000614,335.89952380000614,up,0.24510990001726896,3,0,0,99,0.08,0.16,up,0.17922619997989386,,,,,,,,,,,,,,,,,,,,,,,,,,,,,,,,,A,train_x,x_increasing_steps,top_left,2024-10-29_23h02.04.851,HideSeek_v1,2022.2.5,60.14838607096862,
,3,3,3,8,0,5,11,,train_dim1_2,5,30,5,0,5,0,,,,,,,,,0,0,0,0,0,4,4,4,4,0,4,0,,,,,,,,,,,,,,,,,,,,,,,,,,,,,,,,,,,,,,,,,,,,,,,,,,,,30,,,,,,,,336.14821019995725,336.14821019995725,336.14821019995725,336.14821019995725,336.14821019995725,up,0.2607080000452697,3,0,0,99,0.08,0.24,up,0.19599789998028427,,,,,,,,,,,,,,,,,,,,,,,,,,,,,,,,,A,train_x,x_increasing_steps,top_left,2024-10-29_23h02.04.851,HideSeek_v1,2022.2.5,60.14838607096862,
,3,3,3,8,0,5,11,,train_dim1_2,5,30,5,0,5,0,,,,,,,,,0,0,0,0,0,4,4,4,5,0,5,0,,,,,,,,,,,,,,,,,,,,,,,,,,,,,,,,,,,,,,,,,,,,,,,,,,,,30,,,,,,,,336.41355709999334,336.41355709999334,336.41355709999334,336.41355709999334,336.41355709999334,return,0.2949506999575533,4,0,0,1,0.08,0.24,return,0.22449940000660717,11,66,0.08,0.24,,,,,,,,,,,,,,,,,,,,,,,,,,,,,A,train_x,x_increasing_steps,top_left,2024-10-29_23h02.04.851,HideSeek_v1,2022.2.5,60.14838607096862,
,1,4,1,8,0,4,12,,train_dim1_2,6,30,5,0,5,0,,,,,,,,,0,0,0,0,0,5,5,5,0,0,0,0,,,,,,,,,,,,,stimuli/alien_stimuli/12.png,,,,,,,,,,,,,,,,,,,,,,,,,,,,,stimuli/alien_stimuli/11.png,11,3,7,,,,,,,30,,,,,,,,340.4504971000133,340.4504971000133,340.4504971000133,340.4504971000133,340.4504971000133,up,0.7579191999975592,4,0,0,99,-0.08,0.0,up,0.6924861000152305,,,,,338.91097369999625,340.4504971000133,0.08,0.24,0.4,0.0,0.039999999999999994,0.08,0.08,0.08,0.24,338.28095619997475,338.28095619997475,338.28095619997475,338.28095619997475,338.28095619997475,338.28095619997475,338.28095619997475,338.28095619997475,338.27823180000416,0.7353162999497727,return,0.6074949000030756,,,,,,A,train_x,x_increasing_steps,top_left,2024-10-29_23h02.04.851,HideSeek_v1,2022.2.5,60.14838607096862,
,1,4,1,8,0,4,12,,train_dim1_2,6,30,5,0,5,0,,,,,,,,,0,0,0,0,0,5,5,5,1,0,1,0,,,,,,,,,,,,,,,,,,,,,,,,,,,,,,,,,,,,,,,,,,,,,,,,,,,,30,,,,,,,,341.21681169996737,341.21681169996737,341.21681169996737,341.21681169996737,341.21681169996737,up,0.2602469000266865,4,0,0,99,-0.08,0.08,up,0.19258760003140196,,,,,,,,,,,,,,,,,,,,,,,,,,,,,,,,,A,train_x,x_increasing_steps,top_left,2024-10-29_23h02.04.851,HideSeek_v1,2022.2.5,60.14838607096862,
,1,4,1,8,0,4,12,,train_dim1_2,6,30,5,0,5,0,,,,,,,,,0,0,0,0,0,5,5,5,2,0,2,0,,,,,,,,,,,,,,,,,,,,,,,,,,,,,,,,,,,,,,,,,,,,,,,,,,,,30,,,,,,,,341.4815659999731,341.4815659999731,341.4815659999731,341.4815659999731,341.4815659999731,up,0.24447500001406297,4,0,0,99,-0.08,0.16,up,0.17568439996102825,,,,,,,,,,,,,,,,,,,,,,,,,,,,,,,,,A,train_x,x_increasing_steps,top_left,2024-10-29_23h02.04.851,HideSeek_v1,2022.2.5,60.14838607096862,
,1,4,1,8,0,4,12,,train_dim1_2,6,30,5,0,5,0,,,,,,,,,0,0,0,0,0,5,5,5,3,0,3,0,,,,,,,,,,,,,,,,,,,,,,,,,,,,,,,,,,,,,,,,,,,,,,,,,,,,30,,,,,,,,341.7358651999966,341.7358651999966,341.7358651999966,341.7358651999966,341.7358651999966,up,0.21074459998635575,4,0,0,99,-0.08,0.24,up,0.1378021000418812,,,,,,,,,,,,,,,,,,,,,,,,,,,,,,,,,A,train_x,x_increasing_steps,top_left,2024-10-29_23h02.04.851,HideSeek_v1,2022.2.5,60.14838607096862,
,1,4,1,8,0,4,12,,train_dim1_2,6,30,5,0,5,0,,,,,,,,,0,0,0,0,0,5,5,5,4,0,4,0,,,,,,,,,,,,,,,,,,,,,,,,,,,,,,,,,,,,,,,,,,,,,,,,,,,,30,,,,,,,,341.94608289998723,341.94608289998723,341.94608289998723,341.94608289998723,341.94608289998723,return,0.3111678999848664,5,0,0,1,-0.08,0.24,return,0.2421444999636151,15,66,-0.08,0.24,,,,,,,,,,,,,,,,,,,,,,,,,,,,,A,train_x,x_increasing_steps,top_left,2024-10-29_23h02.04.851,HideSeek_v1,2022.2.5,60.14838607096862,
,1,3,1,5,0,2,14,,train_dim1_2,7,30,5,0,5,0,,,,,,,,,0,0,0,0,0,6,6,6,0,0,0,0,,,,,,,,,,,,,stimuli/alien_stimuli/14.png,,,,,,,,,,,,,,,,,,,,,,,,,,,,,stimuli/alien_stimuli/12.png,12,1,8,,,,,,,30,,,,,,,,345.8449591000099,345.8449591000099,345.8449591000099,345.8449591000099,345.8449591000099,up,17.69110970001202,5,0,0,99,-0.08,-0.08,up,17.602923700003885,,,,,344.29436209995765,345.8449591000099,-0.08,0.24,0.32,0.0,0.07999999999999999,-0.08,-0.08,-0.08,0.24,343.82893439999316,343.82893439999316,343.82893439999316,343.82893439999316,343.82893439999316,343.82893439999316,343.82893439999316,343.82893439999316,343.8277919999615,0.5683308000443503,return,0.4447352000279352,,,,,,A,train_x,x_increasing_steps,top_left,2024-10-29_23h02.04.851,HideSeek_v1,2022.2.5,60.14838607096862,
,1,3,1,5,0,2,14,,train_dim1_2,7,30,5,0,5,0,,,,,,,,,0,0,0,0,0,6,6,6,1,0,1,0,,,,,,,,,,,,,,,,,,,,,,,,,,,,,,,,,,,,,,,,,,,,,,,,,,,,30,,,,,,,,363.5608634999953,363.5608634999953,363.5608634999953,363.5608634999953,363.5608634999953,up,5.943826600036118,5,0,0,99,-0.08,0.0,up,5.845303600013722,,,,,,,,,,,,,,,,,,,,,,,,,,,,,,,,,A,train_x,x_increasing_steps,top_left,2024-10-29_23h02.04.851,HideSeek_v1,2022.2.5,60.14838607096862,
,1,3,1,5,0,2,14,,train_dim1_2,7,30,5,0,5,0,,,,,,,,,0,0,0,0,0,6,6,6,2,0,2,0,,,,,,,,,,,,,,,,,,,,,,,,,,,,,,,,,,,,,,,,,,,,,,,,,,,,30,,,,,,,,369.51145599997835,369.51145599997835,369.51145599997835,369.51145599997835,369.51145599997835,up,3.1280006999731995,5,0,0,99,-0.08,0.08,up,3.0210510999895632,,,,,,,,,,,,,,,,,,,,,,,,,,,,,,,,,A,train_x,x_increasing_steps,top_left,2024-10-29_23h02.04.851,HideSeek_v1,2022.2.5,60.14838607096862,
,1,3,1,5,0,2,14,,train_dim1_2,7,30,5,0,5,0,,,,,,,,,0,0,0,0,0,6,6,6,3,0,3,0,,,,,,,,,,,,,,,,,,,,,,,,,,,,,,,,,,,,,,,,,,,,,,,,,,,,30,,,,,,,,372.64654709998285,372.64654709998285,372.64654709998285,372.64654709998285,372.64654709998285,return,0.49448200000915676,5,1,0,0,-0.08,0.08,return,0.3850232000113465,18,66,-0.08,0.08,,,,,,,,,,,,,,,,,,,,,,,,,,,,,A,train_x,x_increasing_steps,top_left,2024-10-29_23h02.04.851,HideSeek_v1,2022.2.5,60.14838607096862,
,4,2,4,7,0,5,11,,train_dim1_2,8,30,5,0,5,0,,,,,,,,,0,0,0,0,0,7,7,7,0,0,0,0,,,,,,,,,,,,,stimuli/alien_stimuli/11.png,,,,,,,,,,,,,,,,,,,,,,,,,,,,,stimuli/alien_stimuli/14.png,14,1,9,,,,,,,30,,,,,,,,377.0509607999702,377.0509607999702,377.0509607999702,377.0509607999702,377.0509607999702,up,0.9920467999763787,5,1,0,99,0.16,-0.15999999999999998,up,0.9123274000012316,,,,,375.51081929996144,377.0509607999702,-0.08,0,0.16,0.0,-0.08,-0.08,-0.08,-0.08,0,374.68879919999745,374.68879919999745,374.68879919999745,374.68879919999745,374.68879919999745,374.68879919999745,374.68879919999745,374.68879919999745,374.67756449995215,0.9360027000075206,return,0.8058220000239089,,,,,,A,train_x,x_increasing_steps,top_left,2024-10-29_23h02.04.851,HideSeek_v1,2022.2.5,60.14838607096862,
,4,2,4,7,0,5,11,,train_dim1_2,8,30,5,0,5,0,,,,,,,,,0,0,0,0,0,7,7,7,1,0,1,0,,,,,,,,,,,,,,,,,,,,,,,,,,,,,,,,,,,,,,,,,,,,,,,,,,,,30,,,,,,,,378.04815449996386,378.04815449996386,378.04815449996386,378.04815449996386,378.04815449996386,up,0.4775614000391215,5,1,0,99,0.16,-0.07999999999999997,up,0.39994979999028146,,,,,,,,,,,,,,,,,,,,,,,,,,,,,,,,,A,train_x,x_increasing_steps,top_left,2024-10-29_23h02.04.851,HideSeek_v1,2022.2.5,60.14838607096862,
,4,2,4,7,0,5,11,,train_dim1_2,8,30,5,0,5,0,,,,,,,,,0,0,0,0,0,7,7,7,2,0,2,0,,,,,,,,,,,,,,,,,,,,,,,,,,,,,,,,,,,,,,,,,,,,,,,,,,,,30,,,,,,,,378.53342569997767,378.53342569997767,378.53342569997767,378.53342569997767,378.53342569997767,up,0.6273281999747269,5,1,0,99,0.16,2.7755575615628914e-17,up,0.549058899981901,,,,,,,,,,,,,,,,,,,,,,,,,,,,,,,,,A,train_x,x_increasing_steps,top_left,2024-10-29_23h02.04.851,HideSeek_v1,2022.2.5,60.14838607096862,
,4,2,4,7,0,5,11,,train_dim1_2,8,30,5,0,5,0,,,,,,,,,0,0,0,0,0,7,7,7,3,0,3,0,,,,,,,,,,,,,,,,,,,,,,,,,,,,,,,,,,,,,,,,,,,,,,,,,,,,30,,,,,,,,379.16240939998534,379.16240939998534,379.16240939998534,379.16240939998534,379.16240939998534,up,1.144969199958723,5,1,0,99,0.16,0.08000000000000003,up,1.0758790000109002,,,,,,,,,,,,,,,,,,,,,,,,,,,,,,,,,A,train_x,x_increasing_steps,top_left,2024-10-29_23h02.04.851,HideSeek_v1,2022.2.5,60.14838607096862,
,4,2,4,7,0,5,11,,train_dim1_2,8,30,5,0,5,0,,,,,,,,,0,0,0,0,0,7,7,7,4,0,4,0,,,,,,,,,,,,,,,,,,,,,,,,,,,,,,,,,,,,,,,,,,,,,,,,,,,,30,,,,,,,,380.31568920001155,380.31568920001155,380.31568920001155,380.31568920001155,380.31568920001155,up,0.44369900005403906,5,1,0,99,0.16,0.16000000000000003,up,0.36804979998851195,,,,,,,,,,,,,,,,,,,,,,,,,,,,,,,,,A,train_x,x_increasing_steps,top_left,2024-10-29_23h02.04.851,HideSeek_v1,2022.2.5,60.14838607096862,
,4,2,4,7,0,5,11,,train_dim1_2,8,30,5,0,5,0,,,,,,,,,0,0,0,0,0,7,7,7,5,0,5,0,,,,,,,,,,,,,,,,,,,,,,,,,,,,,,,,,,,,,,,,,,,,,,,,,,,,30,,,,,,,,380.766765999957,380.766765999957,380.766765999957,380.766765999957,380.766765999957,return,0.2607035000110045,6,0,0,1,0.16,0.16000000000000003,return,0.1860964999650605,23,66,0.16,0.16000000000000003,,,,,,,,,,,,,,,,,,,,,,,,,,,,,A,train_x,x_increasing_steps,top_left,2024-10-29_23h02.04.851,HideSeek_v1,2022.2.5,60.14838607096862,
,4,3,4,4,0,1,15,,train_dim1_2,9,30,5,0,5,0,,,,,,,,,0,0,0,0,0,8,8,8,0,0,0,0,,,,,,,,,,,,,stimuli/alien_stimuli/15.png,,,,,,,,,,,,,,,,,,,,,,,,,,,,,stimuli/alien_stimuli/11.png,11,4,10,,,,,,,30,,,,,,,,384.5606948999921,384.5606948999921,384.5606948999921,384.5606948999921,384.5606948999921,up,1.425159500038717,6,0,0,99,0.16,-0.08,up,1.3090960999834351,,,,,382.9774234999786,384.5606948999921,0.16,0.16,0.4,0.0,-0.039999999999999994,0.16,0.16,0.16,0.16,382.5849453000119,382.5849453000119,382.5849453000119,382.5849453000119,382.5849453000119,382.5849453000119,382.5849453000119,382.5849453000119,382.57728179999395,0.48540740000316873,return,0.3613956999615766,,,,,,A,train_x,x_increasing_steps,top_left,2024-10-29_23h02.04.851,HideSeek_v1,2022.2.5,60.14838607096862,
,4,3,4,4,0,1,15,,train_dim1_2,9,30,5,0,5,0,,,,,,,,,0,0,0,0,0,8,8,8,1,0,1,0,,,,,,,,,,,,,,,,,,,,,,,,,,,,,,,,,,,,,,,,,,,,,,,,,,,,30,,,,,,,,385.95132459996967,385.95132459996967,385.95132459996967,385.95132459996967,385.95132459996967,return,0.8100033000227995,7,0,0,1,0.16,-0.08,return,0.7358227999648079,24,66,0.16,-0.08,,,,,,,,,,,,,,,,,,,,,,,,,,,,,A,train_x,x_increasing_steps,top_left,2024-10-29_23h02.04.851,HideSeek_v1,2022.2.5,60.14838607096862,
,2,2,2,2,0,0,16,,train_dim1_2,10,30,5,0,5,0,,,,,,,,,0,0,0,0,0,9,9,9,0,0,0,0,,,,,,,,,,,,,stimuli/alien_stimuli/16.png,,,,,,,,,,,,,,,,,,,,,,,,,,,,,stimuli/alien_stimuli/15.png,15,4,11,,,,,,,30,,,,,,,,391.19439419999253,391.19439419999253,391.19439419999253,391.19439419999253,391.19439419999253,return,1.15816710004583,8,0,0,1,0,-0.24,return,1.080256100045517,24,66,0,-0.24,389.6440755999647,391.19439419999253,0.16,-0.08,0.08,0.0,-0.12,0.16,0.16,0.16,-0.08,388.312231399992,388.312231399992,388.312231399992,388.312231399992,388.312231399992,388.312231399992,388.312231399992,388.312231399992,388.31065219996964,1.4184611000237055,return,1.2996220999630168,,,,,,A,train_x,x_increasing_steps,top_left,2024-10-29_23h02.04.851,HideSeek_v1,2022.2.5,60.14838607096862,
