trialInstr,x_fixStart,y_fixStart,x_corrSteps,y_corrSteps,x_nrSteps,y_nrSteps,alienID,trialLength,version,trialTrain,praclen,beforeExpLoop.thisRepN,beforeExpLoop.thisTrialN,beforeExpLoop.thisN,beforeExpLoop.thisIndex,mini_instr_trials.thisRepN,mini_instr_trials.thisTrialN,mini_instr_trials.thisN,mini_instr_trials.thisIndex,instrLoop.thisRepN,instrLoop.thisTrialN,instrLoop.thisN,instrLoop.thisIndex,repeat_prac.thisRepN,repeat_prac.thisTrialN,repeat_prac.thisN,repeat_prac.thisIndex,trainLoop.thisRepN,trainLoop.thisTrialN,trainLoop.thisN,trainLoop.thisIndex,moveLoop_train.thisRepN,moveLoop_train.thisTrialN,moveLoop_train.thisN,moveLoop_train.thisIndex,start_all_time,url,slideStim,audioStim,slides.started,sounds.started,nextButton.numClicks,nextButton.timesOn,nextButton.timesOff,prev_but.numClicks,prev_but.timesOn,prev_but.timesOff,alienStim,instrFile,alienStim_instr,gridImage_instr.started,startPos_3.started,key_instr.started,alienImage_3.started,sounds_1.started,key_instr.keys,key_instr.rt,all_x,all_y,FBy_corrSteps,FBy_fixStart,FBx_corrSteps,FBx_fixStart,FBy_pathSize_check,FBx_pathSize_check,gridImage_9.started,alienImageFB_3.started,startPosFB_3.started,keyFB_3.started,pathLine_ydir_2.started,pathLine_xdir_2.started,alienFace_3.started,sounds_2.started,RTFB_instr,keyFB_3.keys,keyFB_3.rt,draw_alienStim,draw_alienID,test_x,nrepcount,perfthres,percthres,earlierperf,earlystop,nextPrac,fileidx,praclen,saveACC_train,pracFile,nextPrac_train,addNrep,fileidx_endr,repExp,showearly,gridImage_4.started,startPos.started,movePos.started,key_resp.started,alienImage.started,buttonPress_train,RTchoice_train,cumAcctrain,aCorr,saveACC_choice,corrAns,x_movePos_end,y_movePos_end,key_resp.keys,key_resp.rt,wLy_dir,wLx_dir,x_movePos,y_movePos,text_2.started,text_2.stopped,aft_x_corrPos,aft_y_corrPos,y_pathSize_check,x_pathSize_check,y_pathdirY,x_pathdirY,x_pathdirX,x_corrPos,y_corrPos,gridImage_6.started,alienImageFB_2.started,startPosFB_2.started,movePosFB_2.started,keyFB_2.started,pathLine_xdir.started,pathLine_ydir.started,alienFace.started,sounds_4.started,RT_FBtrain,keyFB_2.keys,keyFB_2.rt,saveACC_pre,ACC,within_saveACC_train,earlystop_wloop,cumAcctrain_check,participant,train_first,direction of x,starting corner,date,expName,psychopyVersion,frameRate,
,,,,,,,,,,,,0,0,0,0,0,0,0,0,,,,,,,,,,,,,,,,,start_all_time,testround,conditions/schedules/train_y_first/x_increasing_steps/bottom_left/instructions/Slide1.png,conditions/schedules/train_y_first/x_increasing_steps/bottom_left/instructions/Audio1.wav,27.46989950002171,27.426215010212037,1,[2.725883800012525],[2.7258907000068575],0,,,,,,,,,,,,,,,,,,,,,,,,,,,,,,,,,,,,,,,,,,,,,,,,,,,,,,,,,,,,,,,,,,,,,,,,,,,,,,,,,,,,,,,,,,,,,,,,,A,train_y,increasing,bottom_left,2024-10-30_14h29.44.252,HideSeek_v1,2022.2.5,59.79870561680909,
,,,,,,,,,,,,0,0,0,0,1,0,1,0,,,,,,,,,,,,,,,,,,,conditions/schedules/train_y_first/x_increasing_steps/bottom_left/instructions/Slide2.png,conditions/schedules/train_y_first/x_increasing_steps/bottom_left/instructions/Audio2.wav,30.211551400017925,30.202755940018687,2,"[2.725883800012525, 0.5725363999954425]","[0.01443819998530671, 0.5725451999460347]",0,,,,,,,,,,,,,,,,,,,,,,,,,,,,,,,,,,,,,,,,,,,,,,,,,,,,,,,,,,,,,,,,,,,,,,,,,,,,,,,,,,,,,,,,,,,,,,,,,A,train_y,increasing,bottom_left,2024-10-30_14h29.44.252,HideSeek_v1,2022.2.5,59.79870561680909,
,,,,,,,,,,,,0,0,0,0,2,0,2,0,,,,,,,,,,,,,,,,,,,conditions/schedules/train_y_first/x_increasing_steps/bottom_left/instructions/Slide3.png,conditions/schedules/train_y_first/x_increasing_steps/bottom_left/instructions/Audio3.wav,30.85341670003254,30.8358289400232,3,"[2.725883800012525, 0.5725363999954425, 0.436855599982664]","[0.01443819998530671, 0.03681779996259138, 0.43686249997699633]",0,,,,,,,,,,,,,,,,,,,,,,,,,,,,,,,,,,,,,,,,,,,,,,,,,,,,,,,,,,,,,,,,,,,,,,,,,,,,,,,,,,,,,,,,,,,,,,,,,A,train_y,increasing,bottom_left,2024-10-30_14h29.44.252,HideSeek_v1,2022.2.5,59.79870561680909,
,,,,,,,,,,,,0,0,0,0,3,0,3,0,,,,,,,,,,,,,,,,,,,conditions/schedules/train_y_first/x_increasing_steps/bottom_left/instructions/Slide4.png,conditions/schedules/train_y_first/x_increasing_steps/bottom_left/instructions/Audio4.wav,31.352876999997534,31.335987240006215,4,"[2.725883800012525, 0.5725363999954425, 0.436855599982664, 0.3120436000172049]","[0.01443819998530671, 0.03681779996259138, 0.02759640000294894, 0.3120501000084914]",0,,,,,,,,,,,,,,,,,,,,,,,,,,,,,,,,,,,,,,,,,,,,,,,,,,,,,,,,,,,,,,,,,,,,,,,,,,,,,,,,,,,,,,,,,,,,,,,,,A,train_y,increasing,bottom_left,2024-10-30_14h29.44.252,HideSeek_v1,2022.2.5,59.79870561680909,
,,,,,,,,,,,,0,0,0,0,4,0,4,0,,,,,,,,,,,,,,,,,,,conditions/schedules/train_y_first/x_increasing_steps/bottom_left/instructions/Slide5.png,conditions/schedules/train_y_first/x_increasing_steps/bottom_left/instructions/Audio5.wav,31.703427600034047,31.686935029987946,5,"[2.725883800012525, 0.5725363999954425, 0.436855599982664, 0.3120436000172049, 0.31910860002972186]","[0.01443819998530671, 0.03681779996259138, 0.02759640000294894, 0.052908900019247085, 0.31911580002633855]",0,,,,,,,,,,,,,,,,,,,,,,,,,,,,,,,,,,,,,,,,,,,,,,,,,,,,,,,,,,,,,,,,,,,,,,,,,,,,,,,,,,,,,,,,,,,,,,,,,A,train_y,increasing,bottom_left,2024-10-30_14h29.44.252,HideSeek_v1,2022.2.5,59.79870561680909,
,,,,,,,,,,,,0,0,0,0,5,0,5,0,,,,,,,,,,,,,,,,,,,conditions/schedules/train_y_first/x_increasing_steps/bottom_left/instructions/Slide6.png,conditions/schedules/train_y_first/x_increasing_steps/bottom_left/instructions/Audio6.wav,32.06412400002591,32.05251742998953,6,"[2.725883800012525, 0.5725363999954425, 0.436855599982664, 0.3120436000172049, 0.31910860002972186, 0.3036191000137478]","[0.01443819998530671, 0.03681779996259138, 0.02759640000294894, 0.052908900019247085, 0.05351710005197674, 0.3036257000057958]",0,,,,,,,,,,,,,,,,,,,,,,,,,,,,,,,,,,,,,,,,,,,,,,,,,,,,,,,,,,,,,,,,,,,,,,,,,,,,,,,,,,,,,,,,,,,,,,,,,A,train_y,increasing,bottom_left,2024-10-30_14h29.44.252,HideSeek_v1,2022.2.5,59.79870561680909,
,,,,,,,,,,,,0,0,0,0,6,0,6,0,,,,,,,,,,,,,,,,,,,conditions/schedules/train_y_first/x_increasing_steps/bottom_left/instructions/Slide7.png,conditions/schedules/train_y_first/x_increasing_steps/bottom_left/instructions/Audio7.wav,32.41939480003202,32.40255283000297,7,"[2.725883800012525, 0.5725363999954425, 0.436855599982664, 0.3120436000172049, 0.31910860002972186, 0.3036191000137478, 0.3382985000498593]","[0.01443819998530671, 0.03681779996259138, 0.02759640000294894, 0.052908900019247085, 0.05351710005197674, 0.03845839999848977, 0.33830820000730455]",0,,,,,,,,,,,,,,,,,,,,,,,,,,,,,,,,,,,,,,,,,,,,,,,,,,,,,,,,,,,,,,,,,,,,,,,,,,,,,,,,,,,,,,,,,,,,,,,,,A,train_y,increasing,bottom_left,2024-10-30_14h29.44.252,HideSeek_v1,2022.2.5,59.79870561680909,
,,,,,,,,,,,,0,0,0,0,7,0,7,0,,,,,,,,,,,,,,,,,,,conditions/schedules/train_y_first/x_increasing_steps/bottom_left/instructions/Slide8.png,conditions/schedules/train_y_first/x_increasing_steps/bottom_left/instructions/Audio8.wav,32.801983000012115,32.802676640031855,8,"[2.725883800012525, 0.5725363999954425, 0.436855599982664, 0.3120436000172049, 0.31910860002972186, 0.3036191000137478, 0.3382985000498593, 0.2678806000039913]","[0.01443819998530671, 0.03681779996259138, 0.02759640000294894, 0.052908900019247085, 0.05351710005197674, 0.03845839999848977, 0.33830820000730455, 0.267886100045871]",0,,,,,,,,,,,,,,,,,,,,,,,,,,,,,,,,,,,,,,,,,,,,,,,,,,,,,,,,,,,,,,,,,,,,,,,,,,,,,,,,,,,,,,,,,,,,,,,,,A,train_y,increasing,bottom_left,2024-10-30_14h29.44.252,HideSeek_v1,2022.2.5,59.79870561680909,
,,,,,,,,,,,,0,0,0,0,8,0,8,0,,,,,,,,,,,,,,,,,,,conditions/schedules/train_y_first/x_increasing_steps/bottom_left/instructions/Slide9.png,conditions/schedules/train_y_first/x_increasing_steps/bottom_left/instructions/Audio9.wav,33.183951499988325,33.18580708004301,9,"[2.725883800012525, 0.5725363999954425, 0.436855599982664, 0.3120436000172049, 0.31910860002972186, 0.3036191000137478, 0.3382985000498593, 0.2678806000039913, 0.3679675999446772]","[0.01443819998530671, 0.03681779996259138, 0.02759640000294894, 0.052908900019247085, 0.05351710005197674, 0.03845839999848977, 0.33830820000730455, 0.014920699992217124, 0.3679746999987401]",0,,,,,,,,,,,,,,,,,,,,,,,,,,,,,,,,,,,,,,,,,,,,,,,,,,,,,,,,,,,,,,,,,,,,,,,,,,,,,,,,,,,,,,,,,,,,,,,,,A,train_y,increasing,bottom_left,2024-10-30_14h29.44.252,HideSeek_v1,2022.2.5,59.79870561680909,
,,,,,,,,,,,,0,0,0,0,9,0,9,0,,,,,,,,,,,,,,,,,,,conditions/schedules/train_y_first/x_increasing_steps/bottom_left/instructions/Slide10.png,conditions/schedules/train_y_first/x_increasing_steps/bottom_left/instructions/Audio10.wav,33.58918150002137,33.5865946300386,10,"[2.725883800012525, 0.5725363999954425, 0.436855599982664, 0.3120436000172049, 0.31910860002972186, 0.3036191000137478, 0.3382985000498593, 0.2678806000039913, 0.3679675999446772, 0.3804247999796644]","[0.01443819998530671, 0.03681779996259138, 0.02759640000294894, 0.052908900019247085, 0.05351710005197674, 0.03845839999848977, 0.33830820000730455, 0.014920699992217124, 0.06378189998213202, 0.3804307000245899]",0,,,,,,,,,,,,,,,,,,,,,,,,,,,,,,,,,,,,,,,,,,,,,,,,,,,,,,,,,,,,,,,,,,,,,,,,,,,,,,,,,,,,,,,,,,,,,,,,,A,train_y,increasing,bottom_left,2024-10-30_14h29.44.252,HideSeek_v1,2022.2.5,59.79870561680909,
,,,,,,,,,,,,0,0,0,0,10,0,10,0,,,,,,,,,,,,,,,,,,,conditions/schedules/train_y_first/x_increasing_steps/bottom_left/instructions/Slide11.png,conditions/schedules/train_y_first/x_increasing_steps/bottom_left/instructions/Audio11.wav,34.019921500002965,34.00337723002885,11,"[2.725883800012525, 0.5725363999954425, 0.436855599982664, 0.3120436000172049, 0.31910860002972186, 0.3036191000137478, 0.3382985000498593, 0.2678806000039913, 0.3679675999446772, 0.3804247999796644, 0.46184409997658804]","[0.01443819998530671, 0.03681779996259138, 0.02759640000294894, 0.052908900019247085, 0.05351710005197674, 0.03845839999848977, 0.33830820000730455, 0.014920699992217124, 0.06378189998213202, 0.14413470000727102, 0.46185129997320473]",0,,,,,,,,,,,,,,,,,,,,,,,,,,,,,,,,,,,,,,,,,,,,,,,,,,,,,,,,,,,,,,,,,,,,,,,,,,,,,,,,,,,,,,,,,,,,,,,,,A,train_y,increasing,bottom_left,2024-10-30_14h29.44.252,HideSeek_v1,2022.2.5,59.79870561680909,
,,,,,,,,,,,,0,0,0,0,11,0,11,0,,,,,,,,,,,,,,,,,,,conditions/schedules/train_y_first/x_increasing_steps/bottom_left/instructions/Slide12.png,conditions/schedules/train_y_first/x_increasing_steps/bottom_left/instructions/Audio12.wav,34.5192776999902,34.5198410400073,12,"[2.725883800012525, 0.5725363999954425, 0.436855599982664, 0.3120436000172049, 0.31910860002972186, 0.3036191000137478, 0.3382985000498593, 0.2678806000039913, 0.3679675999446772, 0.3804247999796644, 0.46184409997658804, 0.5821017000125721]","[0.01443819998530671, 0.03681779996259138, 0.02759640000294894, 0.052908900019247085, 0.05351710005197674, 0.03845839999848977, 0.33830820000730455, 0.014920699992217124, 0.06378189998213202, 0.14413470000727102, 0.047631499997805804, 0.5821093000122346]",0,,,,,,,,,,,,,,,,,,,,,,,,,,,,,,,,,,,,,,,,,,,,,,,,,,,,,,,,,,,,,,,,,,,,,,,,,,,,,,,,,,,,,,,,,,,,,,,,,A,train_y,increasing,bottom_left,2024-10-30_14h29.44.252,HideSeek_v1,2022.2.5,59.79870561680909,
1,2,8,2,3,0,-5,11,2,instr_dim1_1,,,0,0,0,0,,,,,0,0,0,0,,,,,,,,,,,,,,,,,,,,,,,,,stimuli/alien_stimuli/11.png,conditions/schedules/train_y_first/x_increasing_steps/bottom_left/inputInstr_1.xlsx,stimuli/alien_stimuli/11.png,35.21689460001653,35.21689460001653,35.21689460001653,35.21689460001653,35.16909335003584,return,1.1483454999979585,"[-0.16, -0.08, 0, 0.08, 0.16, 0.24, 0.32, 0.4, 0.48, 0.56]","[-0.4, -0.32, -0.24, -0.16, -0.08, 0, 0.08, 0.16, 0.24, 0.32]",3,8,2,2,0.4,0.0,36.55376089998754,36.55376089998754,36.55376089998754,36.55376089998754,36.55376089998754,36.55376089998754,36.55376089998754,36.45227745003649,0.4005747999763116,return,0.21406589995604008,stimuli/alien_stimuli/11.png,11,2,1,,,,,,,,,,,,,,,,,,,,,,,,,,,,,,,,,,,,,,,,,,,,,,,,,,,,,,,,,,,,,,A,train_y,increasing,bottom_left,2024-10-30_14h29.44.252,HideSeek_v1,2022.2.5,59.79870561680909,
,,,,,,,,,,,30,0,0,0,0,,,,,,,,,,,,,,,,,,,,,,,,,,,,,,,,,,,,,,,,,,,,,,,,,,,,,,,,,,,,,,,,,,17,0.7,0,0,99,1,30,0,conditions/schedules/train_y_first/x_increasing_steps/bottom_left/inputTrain_1.1.xlsx,99,1,1,1,0,,,,,,,,,,,,,,,,,,,,,,,,,,,,,,,,,,,,,,,,,,,,,,,,A,train_y,increasing,bottom_left,2024-10-30_14h29.44.252,HideSeek_v1,2022.2.5,59.79870561680909,
,,,,,,,,,,,,1,0,1,0,0,0,0,0,,,,,,,,,,,,,,,,,,,conditions/schedules/train_y_first/x_increasing_steps/bottom_left/instructions/Slide13.png,conditions/schedules/train_y_first/x_increasing_steps/bottom_left/instructions/Audio13.wav,36.88732370000798,36.88541497004334,13,"[2.725883800012525, 0.5725363999954425, 0.436855599982664, 0.3120436000172049, 0.31910860002972186, 0.3036191000137478, 0.3382985000498593, 0.2678806000039913, 0.3679675999446772, 0.3804247999796644, 0.46184409997658804, 0.5821017000125721, 0.864025600021705]","[0.01443819998530671, 0.03681779996259138, 0.02759640000294894, 0.052908900019247085, 0.05351710005197674, 0.03845839999848977, 0.33830820000730455, 0.014920699992217124, 0.06378189998213202, 0.14413470000727102, 0.047631499997805804, 0.5821093000122346, 0.8640335000236519]",0,,,,,,,,,,,,,,,,,,,,,,,,,,,,,,,,,,,,,,,,,,,,,,,,,,,,,,,,,,,,,,,,,,,,,,,,,,,,,,,,,,,,,,,,,,,,,,,,,A,train_y,increasing,bottom_left,2024-10-30_14h29.44.252,HideSeek_v1,2022.2.5,59.79870561680909,
,,,,,,,,,,,,1,0,1,0,1,0,1,0,,,,,,,,,,,,,,,,,,,conditions/schedules/train_y_first/x_increasing_steps/bottom_left/instructions/Slide14.png,conditions/schedules/train_y_first/x_increasing_steps/bottom_left/instructions/Audio14.wav,37.80171430000337,37.80253574000671,14,"[2.725883800012525, 0.5725363999954425, 0.436855599982664, 0.3120436000172049, 0.31910860002972186, 0.3036191000137478, 0.3382985000498593, 0.2678806000039913, 0.3679675999446772, 0.3804247999796644, 0.46184409997658804, 0.5821017000125721, 0.864025600021705, 0.5826428000000305]","[0.01443819998530671, 0.03681779996259138, 0.02759640000294894, 0.052908900019247085, 0.05351710005197674, 0.03845839999848977, 0.33830820000730455, 0.014920699992217124, 0.06378189998213202, 0.14413470000727102, 0.047631499997805804, 0.5821093000122346, 0.06604740000329912, 0.5826495999936014]",0,,,,,,,,,,,,,,,,,,,,,,,,,,,,,,,,,,,,,,,,,,,,,,,,,,,,,,,,,,,,,,,,,,,,,,,,,,,,,,,,,,,,,,,,,,,,,,,,,A,train_y,increasing,bottom_left,2024-10-30_14h29.44.252,HideSeek_v1,2022.2.5,59.79870561680909,
2,0,8,0,8,0,0,16,2,instr_dim1_1,,,1,0,1,0,,,,,0,0,0,0,,,,,,,,,,,,,,,,,,,,,,,,,stimuli/alien_stimuli/16.png,conditions/schedules/train_y_first/x_increasing_steps/bottom_left/inputInstr_1.xlsx,stimuli/alien_stimuli/16.png,38.45230870001251,38.45230870001251,38.45230870001251,38.45230870001251,38.43579534003511,return,0.7736940000322647,"[-0.16, -0.08, 0, 0.08, 0.16, 0.24, 0.32, 0.4, 0.48, 0.56]","[-0.4, -0.32, -0.24, -0.16, -0.08, 0, 0.08, 0.16, 0.24, 0.32]",8,8,0,0,0.0,0.0,39.35223600000609,39.35223600000609,39.35223600000609,39.35223600000609,39.35223600000609,39.35223600000609,39.35223600000609,39.33556426003342,0.40110870002536103,return,0.2792769999941811,stimuli/alien_stimuli/16.png,16,0,2,,,,,,,,,,,,,,,,,,,,,,,,,,,,,,,,,,,,,,,,,,,,,,,,,,,,,,,,,,,,,,A,train_y,increasing,bottom_left,2024-10-30_14h29.44.252,HideSeek_v1,2022.2.5,59.79870561680909,
,,,,,,,,,,,30,1,0,1,0,,,,,,,,,,,,,,,,,,,,,,,,,,,,,,,,,,,,,,,,,,,,,,,,,,,,,,,,,,,,,,,,,,17,0.7,0,0,99,1,30,0,conditions/schedules/train_y_first/x_increasing_steps/bottom_left/inputTrain_1.1.xlsx,99,1,1,1,0,,,,,,,,,,,,,,,,,,,,,,,,,,,,,,,,,,,,,,,,,,,,,,,,A,train_y,increasing,bottom_left,2024-10-30_14h29.44.252,HideSeek_v1,2022.2.5,59.79870561680909,
,,,,,,,,,,,,2,0,2,0,0,0,0,0,,,,,,,,,,,,,,,,,,,conditions/schedules/train_y_first/x_increasing_steps/bottom_left/instructions/Slide15.png,conditions/schedules/train_y_first/x_increasing_steps/bottom_left/instructions/Audio15.wav,39.75988890003646,39.75230877001886,15,"[2.725883800012525, 0.5725363999954425, 0.436855599982664, 0.3120436000172049, 0.31910860002972186, 0.3036191000137478, 0.3382985000498593, 0.2678806000039913, 0.3679675999446772, 0.3804247999796644, 0.46184409997658804, 0.5821017000125721, 0.864025600021705, 0.5826428000000305, 1.0415732000255957]","[0.01443819998530671, 0.03681779996259138, 0.02759640000294894, 0.052908900019247085, 0.05351710005197674, 0.03845839999848977, 0.33830820000730455, 0.014920699992217124, 0.06378189998213202, 0.14413470000727102, 0.047631499997805804, 0.5821093000122346, 0.06604740000329912, 0.5826495999936014, 1.0415810000267811]",0,,,,,,,,,,,,,,,,,,,,,,,,,,,,,,,,,,,,,,,,,,,,,,,,,,,,,,,,,,,,,,,,,,,,,,,,,,,,,,,,,,,,,,,,,,,,,,,,,A,train_y,increasing,bottom_left,2024-10-30_14h29.44.252,HideSeek_v1,2022.2.5,59.79870561680909,
,,,,,,,,,,,,2,0,2,0,1,0,1,0,,,,,,,,,,,,,,,,,,,conditions/schedules/train_y_first/x_increasing_steps/bottom_left/instructions/Slide16.png,conditions/schedules/train_y_first/x_increasing_steps/bottom_left/instructions/Audio16.wav,40.854019000020344,40.8524412400322,16,"[2.725883800012525, 0.5725363999954425, 0.436855599982664, 0.3120436000172049, 0.31910860002972186, 0.3036191000137478, 0.3382985000498593, 0.2678806000039913, 0.3679675999446772, 0.3804247999796644, 0.46184409997658804, 0.5821017000125721, 0.864025600021705, 0.5826428000000305, 1.0415732000255957, 0.44836470001609996]","[0.01443819998530671, 0.03681779996259138, 0.02759640000294894, 0.052908900019247085, 0.05351710005197674, 0.03845839999848977, 0.33830820000730455, 0.014920699992217124, 0.06378189998213202, 0.14413470000727102, 0.047631499997805804, 0.5821093000122346, 0.06604740000329912, 0.5826495999936014, 0.047555800003465265, 0.44837110000662506]",0,,,,,,,,,,,,,,,,,,,,,,,,,,,,,,,,,,,,,,,,,,,,,,,,,,,,,,,,,,,,,,,,,,,,,,,,,,,,,,,,,,,,,,,,,,,,,,,,,A,train_y,increasing,bottom_left,2024-10-30_14h29.44.252,HideSeek_v1,2022.2.5,59.79870561680909,
,0,5,0,4,0,-1,15,,train_dim1_1,1,30,2,0,2,0,,,,,,,,,0,0,0,0,0,0,0,0,0,0,0,0,,,,,,,,,,,,,stimuli/alien_stimuli/15.png,,,,,,,,,,,,,,,,,,,,,,,,,,,,,,,,,,,,,,,30,,,,,,,,41.38582339999266,41.38582339999266,41.38582339999266,41.38582339999266,41.38582339999266,down,2.5064781000255607,0,0,0,99,-0.16,-0.08,down,2.4114453999791294,,,,,,,,,,,,,,,,,,,,,,,,,,,,,,,,,A,train_y,increasing,bottom_left,2024-10-30_14h29.44.252,HideSeek_v1,2022.2.5,59.79870561680909,
,0,5,0,4,0,-1,15,,train_dim1_1,1,30,2,0,2,0,,,,,,,,,0,0,0,0,0,0,0,0,1,0,1,0,,,,,,,,,,,,,,,,,,,,,,,,,,,,,,,,,,,,,,,,,,,,,,,,,,,,30,,,,,,,,43.88577019999502,43.88577019999502,43.88577019999502,43.88577019999502,43.88577019999502,return,0.7604246999835595,1,0,0,1,-0.16,-0.08,return,0.6822228000382893,-1,0,-0.16,-0.08,,,,,,,,,,,,,,,,,,,,,,,,,,,,,A,train_y,increasing,bottom_left,2024-10-30_14h29.44.252,HideSeek_v1,2022.2.5,59.79870561680909,
,3,7,3,7,0,0,16,,train_dim1_1,2,30,2,0,2,0,,,,,,,,,0,0,0,0,0,1,1,1,0,0,0,0,,,,,,,,,,,,,stimuli/alien_stimuli/16.png,,,,,,,,,,,,,,,,,,,,,,,,,,,,,stimuli/alien_stimuli/15.png,15,0,3,,,,,,,30,,,,,,,,48.29062350001186,48.29062350001186,48.29062350001186,48.29062350001186,48.29062350001186,return,1.1758965000044554,2,0,0,1,0.08,0.16,return,1.0863028999883682,-1,0,0.08,0.16,46.73617520002881,48.29062350001186,-0.16,-0.08,0.08,0.0,-0.04,-0.16,-0.16,-0.16,-0.08,46.25854619999882,46.25854619999882,46.25854619999882,46.25854619999882,46.25854619999882,46.25854619999882,46.25854619999882,46.25854619999882,46.20165396999218,0.6355494000017643,return,0.44885169999906793,,,,,,A,train_y,increasing,bottom_left,2024-10-30_14h29.44.252,HideSeek_v1,2022.2.5,59.79870561680909,
,2,8,2,6,0,-2,14,,train_dim1_1,3,30,2,0,2,0,,,,,,,,,0,0,0,0,0,2,2,2,0,0,0,0,,,,,,,,,,,,,stimuli/alien_stimuli/14.png,,,,,,,,,,,,,,,,,,,,,,,,,,,,,stimuli/alien_stimuli/16.png,16,3,4,,,,,,,30,,,,,,,,52.945275100006256,52.945275100006256,52.945275100006256,52.945275100006256,52.945275100006256,down,1.1248109000152908,2,0,0,99,0,0.15999999999999998,down,1.032217500032857,,,,,51.385348100040574,52.945275100006256,0.08,0.16,0.0,0.0,0.16,0.08,0.08,0.08,0.16,51.03028130001621,51.03028130001621,51.03028130001621,51.03028130001621,51.03028130001621,51.03028130001621,51.03028130001621,51.03028130001621,51.01867266999906,0.46904260001610965,return,0.3381000999943353,,,,,,A,train_y,increasing,bottom_left,2024-10-30_14h29.44.252,HideSeek_v1,2022.2.5,59.79870561680909,
,2,8,2,6,0,-2,14,,train_dim1_1,3,30,2,0,2,0,,,,,,,,,0,0,0,0,0,2,2,2,1,0,1,0,,,,,,,,,,,,,,,,,,,,,,,,,,,,,,,,,,,,,,,,,,,,,,,,,,,,30,,,,,,,,54.06945930002257,54.06945930002257,54.06945930002257,54.06945930002257,54.06945930002257,down,0.3110344000160694,2,0,0,99,0,0.07999999999999997,down,0.22406450001290068,,,,,,,,,,,,,,,,,,,,,,,,,,,,,,,,,A,train_y,increasing,bottom_left,2024-10-30_14h29.44.252,HideSeek_v1,2022.2.5,59.79870561680909,
,2,8,2,6,0,-2,14,,train_dim1_1,3,30,2,0,2,0,,,,,,,,,0,0,0,0,0,2,2,2,2,0,2,0,,,,,,,,,,,,,,,,,,,,,,,,,,,,,,,,,,,,,,,,,,,,,,,,,,,,30,,,,,,,,54.375469400023576,54.375469400023576,54.375469400023576,54.375469400023576,54.375469400023576,return,0.27833689999533817,3,0,0,1,0,0.07999999999999997,return,0.20332600001711398,-3,0,0,0.07999999999999997,,,,,,,,,,,,,,,,,,,,,,,,,,,,,A,train_y,increasing,bottom_left,2024-10-30_14h29.44.252,HideSeek_v1,2022.2.5,59.79870561680909,
,0,6,0,2,0,-4,12,,train_dim1_1,4,30,2,0,2,0,,,,,,,,,0,0,0,0,0,3,3,3,0,0,0,0,,,,,,,,,,,,,stimuli/alien_stimuli/12.png,,,,,,,,,,,,,,,,,,,,,,,,,,,,,stimuli/alien_stimuli/14.png,14,2,5,,,,,,,30,,,,,,,,58.41292189998785,58.41292189998785,58.41292189998785,58.41292189998785,58.41292189998785,down,0.42522359994472936,3,0,0,99,-0.16,0.0,down,0.34731189999729395,,,,,56.86884230002761,58.41292189998785,0,0.08,0.16,0.0,0.16,0,0.0,0,0.08,56.19497960002627,56.19497960002627,56.19497960002627,56.19497960002627,56.19497960002627,56.19497960002627,56.19497960002627,56.19497960002627,56.1854656500218,0.7521205999655649,return,0.6442440999671817,,,,,,A,train_y,increasing,bottom_left,2024-10-30_14h29.44.252,HideSeek_v1,2022.2.5,59.79870561680909,
,0,6,0,2,0,-4,12,,train_dim1_1,4,30,2,0,2,0,,,,,,,,,0,0,0,0,0,3,3,3,1,0,1,0,,,,,,,,,,,,,,,,,,,,,,,,,,,,,,,,,,,,,,,,,,,,,,,,,,,,30,,,,,,,,58.84221999999136,58.84221999999136,58.84221999999136,58.84221999999136,58.84221999999136,down,0.31062720000045374,3,0,0,99,-0.16,-0.08,down,0.23287569999229163,,,,,,,,,,,,,,,,,,,,,,,,,,,,,,,,,A,train_y,increasing,bottom_left,2024-10-30_14h29.44.252,HideSeek_v1,2022.2.5,59.79870561680909,
,0,6,0,2,0,-4,12,,train_dim1_1,4,30,2,0,2,0,,,,,,,,,0,0,0,0,0,3,3,3,2,0,2,0,,,,,,,,,,,,,,,,,,,,,,,,,,,,,,,,,,,,,,,,,,,,,,,,,,,,30,,,,,,,,59.15671680000378,59.15671680000378,59.15671680000378,59.15671680000378,59.15671680000378,down,0.24465569999301806,3,0,0,99,-0.16,-0.16,down,0.1765055000432767,,,,,,,,,,,,,,,,,,,,,,,,,,,,,,,,,A,train_y,increasing,bottom_left,2024-10-30_14h29.44.252,HideSeek_v1,2022.2.5,59.79870561680909,
,0,6,0,2,0,-4,12,,train_dim1_1,4,30,2,0,2,0,,,,,,,,,0,0,0,0,0,3,3,3,3,0,3,0,,,,,,,,,,,,,,,,,,,,,,,,,,,,,,,,,,,,,,,,,,,,,,,,,,,,30,,,,,,,,59.40679730003467,59.40679730003467,59.40679730003467,59.40679730003467,59.40679730003467,down,0.2947123000049032,3,0,0,99,-0.16,-0.24,down,0.21840750001138076,,,,,,,,,,,,,,,,,,,,,,,,,,,,,,,,,A,train_y,increasing,bottom_left,2024-10-30_14h29.44.252,HideSeek_v1,2022.2.5,59.79870561680909,
,0,6,0,2,0,-4,12,,train_dim1_1,4,30,2,0,2,0,,,,,,,,,0,0,0,0,0,3,3,3,4,0,4,0,,,,,,,,,,,,,,,,,,,,,,,,,,,,,,,,,,,,,,,,,,,,,,,,,,,,30,,,,,,,,59.70631099998718,59.70631099998718,59.70631099998718,59.70631099998718,59.70631099998718,return,0.294366100046318,4,0,0,1,-0.16,-0.24,return,0.22116030001780018,-7,0,-0.16,-0.24,,,,,,,,,,,,,,,,,,,,,,,,,,,,,A,train_y,increasing,bottom_left,2024-10-30_14h29.44.252,HideSeek_v1,2022.2.5,59.79870561680909,
,3,8,3,3,0,-5,11,,train_dim1_1,5,30,2,0,2,0,,,,,,,,,0,0,0,0,0,4,4,4,0,0,0,0,,,,,,,,,,,,,stimuli/alien_stimuli/11.png,,,,,,,,,,,,,,,,,,,,,,,,,,,,,stimuli/alien_stimuli/12.png,12,0,6,,,,,,,30,,,,,,,,63.56084610003745,63.56084610003745,63.56084610003745,63.56084610003745,63.56084610003745,down,10.975483499991242,4,0,0,99,0.08,0.15999999999999998,down,10.902879300003406,,,,,62.018771600036416,63.56084610003745,-0.16,-0.24,0.32,0.0,-0.07999999999999999,-0.16,-0.16,-0.16,-0.24,61.549376200011466,61.549376200011466,61.549376200011466,61.549376200011466,61.549376200011466,61.549376200011466,61.549376200011466,61.549376200011466,61.53507215002901,0.5521194999455474,return,0.44172720005735755,,,,,,A,train_y,increasing,bottom_left,2024-10-30_14h29.44.252,HideSeek_v1,2022.2.5,59.79870561680909,
,3,8,3,3,0,-5,11,,train_dim1_1,5,30,2,0,2,0,,,,,,,,,0,0,0,0,0,4,4,4,1,0,1,0,,,,,,,,,,,,,,,,,,,,,,,,,,,,,,,,,,,,,,,,,,,,,,,,,,,,30,,,,,,,,74.54436569998506,74.54436569998506,74.54436569998506,74.54436569998506,74.54436569998506,down,0.14480519999051467,4,0,0,99,0.08,0.07999999999999997,down,0.07227210002020001,,,,,,,,,,,,,,,,,,,,,,,,,,,,,,,,,A,train_y,increasing,bottom_left,2024-10-30_14h29.44.252,HideSeek_v1,2022.2.5,59.79870561680909,
,3,8,3,3,0,-5,11,,train_dim1_1,5,30,2,0,2,0,,,,,,,,,0,0,0,0,0,4,4,4,2,0,2,0,,,,,,,,,,,,,,,,,,,,,,,,,,,,,,,,,,,,,,,,,,,,,,,,,,,,30,,,,,,,,74.69146090000868,74.69146090000868,74.69146090000868,74.69146090000868,74.69146090000868,down,0.16126389999408275,4,0,0,99,0.08,-2.7755575615628914e-17,down,0.08701519999885932,,,,,,,,,,,,,,,,,,,,,,,,,,,,,,,,,A,train_y,increasing,bottom_left,2024-10-30_14h29.44.252,HideSeek_v1,2022.2.5,59.79870561680909,
,3,8,3,3,0,-5,11,,train_dim1_1,5,30,2,0,2,0,,,,,,,,,0,0,0,0,0,4,4,4,3,0,3,0,,,,,,,,,,,,,,,,,,,,,,,,,,,,,,,,,,,,,,,,,,,,,,,,,,,,30,,,,,,,,74.85663080000086,74.85663080000086,74.85663080000086,74.85663080000086,74.85663080000086,down,0.1785529000335373,4,0,0,99,0.08,-0.08000000000000003,down,0.10157260001869872,,,,,,,,,,,,,,,,,,,,,,,,,,,,,,,,,A,train_y,increasing,bottom_left,2024-10-30_14h29.44.252,HideSeek_v1,2022.2.5,59.79870561680909,
,3,8,3,3,0,-5,11,,train_dim1_1,5,30,2,0,2,0,,,,,,,,,0,0,0,0,0,4,4,4,4,0,4,0,,,,,,,,,,,,,,,,,,,,,,,,,,,,,,,,,,,,,,,,,,,,,,,,,,,,30,,,,,,,,75.0406978999963,75.0406978999963,75.0406978999963,75.0406978999963,75.0406978999963,down,0.12745450000511482,4,0,0,99,0.08,-0.16000000000000003,down,0.05736090004211292,,,,,,,,,,,,,,,,,,,,,,,,,,,,,,,,,A,train_y,increasing,bottom_left,2024-10-30_14h29.44.252,HideSeek_v1,2022.2.5,59.79870561680909,
,3,8,3,3,0,-5,11,,train_dim1_1,5,30,2,0,2,0,,,,,,,,,0,0,0,0,0,4,4,4,5,0,5,0,,,,,,,,,,,,,,,,,,,,,,,,,,,,,,,,,,,,,,,,,,,,,,,,,,,,30,,,,,,,,75.17655730003025,75.17655730003025,75.17655730003025,75.17655730003025,75.17655730003025,return,0.2950762999826111,5,0,0,1,0.08,-0.16000000000000003,return,0.2248365000123158,-12,0,0.08,-0.16000000000000003,,,,,,,,,,,,,,,,,,,,,,,,,,,,,A,train_y,increasing,bottom_left,2024-10-30_14h29.44.252,HideSeek_v1,2022.2.5,59.79870561680909,
,1,9,1,5,0,-4,12,,train_dim1_1,6,30,2,0,2,0,,,,,,,,,0,0,0,0,0,5,5,5,0,0,0,0,,,,,,,,,,,,,stimuli/alien_stimuli/12.png,,,,,,,,,,,,,,,,,,,,,,,,,,,,,stimuli/alien_stimuli/11.png,11,3,7,,,,,,,30,,,,,,,,79.06215910002356,79.06215910002356,79.06215910002356,79.06215910002356,79.06215910002356,down,0.59258639998734,5,0,0,99,-0.08,0.24,down,0.5075731999822892,,,,,77.5188684000168,79.06215910002356,0.08,-0.16,0.4,0.0,0.039999999999999994,0.08,0.08,0.08,-0.16,77.01607990002958,77.01607990002958,77.01607990002958,77.01607990002958,77.01607990002958,77.01607990002958,77.01607990002958,77.01607990002958,77.00199415002135,0.5848636999726295,return,0.4714824999682605,,,,,,A,train_y,increasing,bottom_left,2024-10-30_14h29.44.252,HideSeek_v1,2022.2.5,59.79870561680909,
,1,9,1,5,0,-4,12,,train_dim1_1,6,30,2,0,2,0,,,,,,,,,0,0,0,0,0,5,5,5,1,0,1,0,,,,,,,,,,,,,,,,,,,,,,,,,,,,,,,,,,,,,,,,,,,,,,,,,,,,30,,,,,,,,79.6574963000021,79.6574963000021,79.6574963000021,79.6574963000021,79.6574963000021,down,0.21153959998628125,5,0,0,99,-0.08,0.15999999999999998,down,0.14336430002003908,,,,,,,,,,,,,,,,,,,,,,,,,,,,,,,,,A,train_y,increasing,bottom_left,2024-10-30_14h29.44.252,HideSeek_v1,2022.2.5,59.79870561680909,
,1,9,1,5,0,-4,12,,train_dim1_1,6,30,2,0,2,0,,,,,,,,,0,0,0,0,0,5,5,5,2,0,2,0,,,,,,,,,,,,,,,,,,,,,,,,,,,,,,,,,,,,,,,,,,,,,,,,,,,,30,,,,,,,,79.87645320000593,79.87645320000593,79.87645320000593,79.87645320000593,79.87645320000593,down,0.1935729999677278,5,0,0,99,-0.08,0.07999999999999997,down,0.11270530003821477,,,,,,,,,,,,,,,,,,,,,,,,,,,,,,,,,A,train_y,increasing,bottom_left,2024-10-30_14h29.44.252,HideSeek_v1,2022.2.5,59.79870561680909,
,1,9,1,5,0,-4,12,,train_dim1_1,6,30,2,0,2,0,,,,,,,,,0,0,0,0,0,5,5,5,3,0,3,0,,,,,,,,,,,,,,,,,,,,,,,,,,,,,,,,,,,,,,,,,,,,,,,,,,,,30,,,,,,,,80.07435599999735,80.07435599999735,80.07435599999735,80.07435599999735,80.07435599999735,down,0.2273949999944307,5,0,0,99,-0.08,-2.7755575615628914e-17,down,0.14908569998806342,,,,,,,,,,,,,,,,,,,,,,,,,,,,,,,,,A,train_y,increasing,bottom_left,2024-10-30_14h29.44.252,HideSeek_v1,2022.2.5,59.79870561680909,
,1,9,1,5,0,-4,12,,train_dim1_1,6,30,2,0,2,0,,,,,,,,,0,0,0,0,0,5,5,5,4,0,4,0,,,,,,,,,,,,,,,,,,,,,,,,,,,,,,,,,,,,,,,,,,,,,,,,,,,,30,,,,,,,,80.30568570003379,80.30568570003379,80.30568570003379,80.30568570003379,80.30568570003379,return,0.3451247999910265,6,0,0,1,-0.08,-2.7755575615628914e-17,return,0.27962629997637123,-16,0,-0.08,-2.7755575615628914e-17,,,,,,,,,,,,,,,,,,,,,,,,,,,,,A,train_y,increasing,bottom_left,2024-10-30_14h29.44.252,HideSeek_v1,2022.2.5,59.79870561680909,
,1,8,1,6,0,-2,14,,train_dim1_1,7,30,2,0,2,0,,,,,,,,,0,0,0,0,0,6,6,6,0,0,0,0,,,,,,,,,,,,,stimuli/alien_stimuli/14.png,,,,,,,,,,,,,,,,,,,,,,,,,,,,,stimuli/alien_stimuli/12.png,12,1,8,,,,,,,30,,,,,,,,84.09720930003095,84.09720930003095,84.09720930003095,84.09720930003095,84.09720930003095,down,0.5092945000506006,6,0,0,99,-0.08,0.15999999999999998,down,0.39145439997082576,,,,,82.51883200003067,84.09720930003095,-0.08,0,0.32,0.0,0.16,-0.08,-0.08,-0.08,0,82.19475930003682,82.19475930003682,82.19475930003682,82.19475930003682,82.19475930003682,82.19475930003682,82.19475930003682,82.19475930003682,82.18507785003749,0.40217409998876974,return,0.29793689999496564,,,,,,A,train_y,increasing,bottom_left,2024-10-30_14h29.44.252,HideSeek_v1,2022.2.5,59.79870561680909,
,1,8,1,6,0,-2,14,,train_dim1_1,7,30,2,0,2,0,,,,,,,,,0,0,0,0,0,6,6,6,1,0,1,0,,,,,,,,,,,,,,,,,,,,,,,,,,,,,,,,,,,,,,,,,,,,,,,,,,,,30,,,,,,,,84.57295920001343,84.57295920001343,84.57295920001343,84.57295920001343,84.57295920001343,down,0.32749340002192184,6,0,0,99,-0.08,0.07999999999999997,down,0.25836439995327964,,,,,,,,,,,,,,,,,,,,,,,,,,,,,,,,,A,train_y,increasing,bottom_left,2024-10-30_14h29.44.252,HideSeek_v1,2022.2.5,59.79870561680909,
,1,8,1,6,0,-2,14,,train_dim1_1,7,30,2,0,2,0,,,,,,,,,0,0,0,0,0,6,6,6,2,0,2,0,,,,,,,,,,,,,,,,,,,,,,,,,,,,,,,,,,,,,,,,,,,,,,,,,,,,30,,,,,,,,84.90625609998824,84.90625609998824,84.90625609998824,84.90625609998824,84.90625609998824,return,0.3447836000123061,7,0,0,1,-0.08,0.07999999999999997,return,0.26357179996557534,-18,0,-0.08,0.07999999999999997,,,,,,,,,,,,,,,,,,,,,,,,,,,,,A,train_y,increasing,bottom_left,2024-10-30_14h29.44.252,HideSeek_v1,2022.2.5,59.79870561680909,
,4,7,4,2,0,-5,11,,train_dim1_1,8,30,2,0,2,0,,,,,,,,,0,0,0,0,0,7,7,7,0,0,0,0,,,,,,,,,,,,,stimuli/alien_stimuli/11.png,,,,,,,,,,,,,,,,,,,,,,,,,,,,,stimuli/alien_stimuli/14.png,14,1,9,,,,,,,30,,,,,,,,88.85886400000891,88.85886400000891,88.85886400000891,88.85886400000891,88.85886400000891,down,0.5254685000400059,7,0,0,99,0.16,0.08,down,0.4485302999964915,,,,,87.33511049998924,86.80190329998732,-0.08,0.08,0.16,0.0,0.16,-0.08,-0.08,-0.08,0.08,86.80190329998732,86.80190329998732,86.80190329998732,86.80190329998732,86.80190329998732,86.80190329998732,86.80190329998732,86.80190329998732,86.78488995003863,0.5991715000127442,return,0.485019400017336,,,,,,A,train_y,increasing,bottom_left,2024-10-30_14h29.44.252,HideSeek_v1,2022.2.5,59.79870561680909,
,4,7,4,2,0,-5,11,,train_dim1_1,8,30,2,0,2,0,,,,,,,,,0,0,0,0,0,7,7,7,1,0,1,0,,,,,,,,,,,,,,,,,,,,,,,,,,,,,,,,,,,,,,,,,,,,,,,,,,,,30,,,,,,,,89.38929600000847,89.38929600000847,89.38929600000847,89.38929600000847,89.38929600000847,down,0.24493879999499768,7,0,0,99,0.16,0.0,down,0.16997819999232888,,,,,,,,,,,,,,,,,,,,,,,,,,,,,,,,,A,train_y,increasing,bottom_left,2024-10-30_14h29.44.252,HideSeek_v1,2022.2.5,59.79870561680909,
,4,7,4,2,0,-5,11,,train_dim1_1,8,30,2,0,2,0,,,,,,,,,0,0,0,0,0,7,7,7,2,0,2,0,,,,,,,,,,,,,,,,,,,,,,,,,,,,,,,,,,,,,,,,,,,,,,,,,,,,30,,,,,,,,89.64153399999486,89.64153399999486,89.64153399999486,89.64153399999486,89.64153399999486,down,0.261164799972903,7,0,0,99,0.16,-0.08,down,0.19334350002463907,,,,,,,,,,,,,,,,,,,,,,,,,,,,,,,,,A,train_y,increasing,bottom_left,2024-10-30_14h29.44.252,HideSeek_v1,2022.2.5,59.79870561680909,
,4,7,4,2,0,-5,11,,train_dim1_1,8,30,2,0,2,0,,,,,,,,,0,0,0,0,0,7,7,7,3,0,3,0,,,,,,,,,,,,,,,,,,,,,,,,,,,,,,,,,,,,,,,,,,,,,,,,,,,,30,,,,,,,,89.90604450000683,89.90604450000683,89.90604450000683,89.90604450000683,89.90604450000683,down,0.24475680000614375,7,0,0,99,0.16,-0.16,down,0.16969319997588173,,,,,,,,,,,,,,,,,,,,,,,,,,,,,,,,,A,train_y,increasing,bottom_left,2024-10-30_14h29.44.252,HideSeek_v1,2022.2.5,59.79870561680909,
,4,7,4,2,0,-5,11,,train_dim1_1,8,30,2,0,2,0,,,,,,,,,0,0,0,0,0,7,7,7,4,0,4,0,,,,,,,,,,,,,,,,,,,,,,,,,,,,,,,,,,,,,,,,,,,,,,,,,,,,30,,,,,,,,90.15539289999288,90.15539289999288,90.15539289999288,90.15539289999288,90.15539289999288,down,0.21154180000303313,7,0,0,99,0.16,-0.24,down,0.1434597999905236,,,,,,,,,,,,,,,,,,,,,,,,,,,,,,,,,A,train_y,increasing,bottom_left,2024-10-30_14h29.44.252,HideSeek_v1,2022.2.5,59.79870561680909,
,4,7,4,2,0,-5,11,,train_dim1_1,8,30,2,0,2,0,,,,,,,,,0,0,0,0,0,7,7,7,5,0,5,0,,,,,,,,,,,,,,,,,,,,,,,,,,,,,,,,,,,,,,,,,,,,,,,,,,,,30,,,,,,,,90.37273940001614,90.37273940001614,90.37273940001614,90.37273940001614,90.37273940001614,return,0.24436950002564117,8,0,0,1,0.16,-0.24,return,0.17149680003058165,-23,0,0.16,-0.24,,,,,,,,,,,,,,,,,,,,,,,,,,,,,A,train_y,increasing,bottom_left,2024-10-30_14h29.44.252,HideSeek_v1,2022.2.5,59.79870561680909,
,4,8,4,7,0,-1,15,,train_dim1_1,9,30,2,0,2,0,,,,,,,,,0,0,0,0,0,8,8,8,0,0,0,0,,,,,,,,,,,,,stimuli/alien_stimuli/15.png,,,,,,,,,,,,,,,,,,,,,,,,,,,,,stimuli/alien_stimuli/11.png,11,4,10,,,,,,,30,,,,,,,,94.02634209999815,94.02634209999815,94.02634209999815,94.02634209999815,94.02634209999815,down,0.4252042999723926,8,0,0,99,0.16,0.15999999999999998,down,0.35133289999794215,,,,,92.484956100001,94.02634209999815,0.16,-0.24,0.4,0.0,-0.039999999999999994,0.16,0.16,0.16,-0.24,92.16075590002583,92.16075590002583,92.16075590002583,92.16075590002583,92.16075590002583,92.16075590002583,92.16075590002583,92.16075590002583,92.15138555000885,0.4015690000378527,return,0.29771750001236796,,,,,,A,train_y,increasing,bottom_left,2024-10-30_14h29.44.252,HideSeek_v1,2022.2.5,59.79870561680909,
,4,8,4,7,0,-1,15,,train_dim1_1,9,30,2,0,2,0,,,,,,,,,0,0,0,0,0,8,8,8,1,0,1,0,,,,,,,,,,,,,,,,,,,,,,,,,,,,,,,,,,,,,,,,,,,,,,,,,,,,30,,,,,,,,94.4577169000404,94.4577169000404,94.4577169000404,94.4577169000404,94.4577169000404,down,0.27754370000911877,8,0,0,99,0.16,0.07999999999999997,down,0.2054772000410594,,,,,,,,,,,,,,,,,,,,,,,,,,,,,,,,,A,train_y,increasing,bottom_left,2024-10-30_14h29.44.252,HideSeek_v1,2022.2.5,59.79870561680909,
,4,8,4,7,0,-1,15,,train_dim1_1,9,30,2,0,2,0,,,,,,,,,0,0,0,0,0,8,8,8,2,0,2,0,,,,,,,,,,,,,,,,,,,,,,,,,,,,,,,,,,,,,,,,,,,,,,,,,,,,30,,,,,,,,94.7381599000073,94.7381599000073,94.7381599000073,94.7381599000073,94.7381599000073,up,0.6445906999870203,8,0,0,99,0.16,0.15999999999999998,up,0.5648530999897048,,,,,,,,,,,,,,,,,,,,,,,,,,,,,,,,,A,train_y,increasing,bottom_left,2024-10-30_14h29.44.252,HideSeek_v1,2022.2.5,59.79870561680909,
,4,8,4,7,0,-1,15,,train_dim1_1,9,30,2,0,2,0,,,,,,,,,0,0,0,0,0,8,8,8,3,0,3,0,,,,,,,,,,,,,,,,,,,,,,,,,,,,,,,,,,,,,,,,,,,,,,,,,,,,30,,,,,,,,95.39046120003331,95.39046120003331,95.39046120003331,95.39046120003331,95.39046120003331,return,0.27828510000836104,9,0,0,1,0.16,0.15999999999999998,return,0.20481470000231639,-24,0,0.16,0.15999999999999998,,,,,,,,,,,,,,,,,,,,,,,,,,,,,A,train_y,increasing,bottom_left,2024-10-30_14h29.44.252,HideSeek_v1,2022.2.5,59.79870561680909,
,2,7,2,7,0,0,16,,train_dim1_1,10,30,2,0,2,0,,,,,,,,,0,0,0,0,0,9,9,9,0,0,0,0,,,,,,,,,,,,,stimuli/alien_stimuli/16.png,,,,,,,,,,,,,,,,,,,,,,,,,,,,,stimuli/alien_stimuli/15.png,15,4,11,,,,,,,30,,,,,,,,99.01892549998593,99.01892549998593,99.01892549998593,99.01892549998593,99.01892549998593,return,0.9259275000076741,10,0,0,1,0,0.16,return,0.8370777000091039,-24,0,0,0.16,97.46843430004083,99.01892549998593,0.16,0.16,0.08,0.0,0.2,0.16,0.16,0.16,0.16,97.21704459999455,97.21704459999455,97.21704459999455,97.21704459999455,97.21704459999455,97.21704459999455,97.21704459999455,97.21704459999455,97.20160674999352,0.3350737000000663,return,0.22214140003779903,,,,,,A,train_y,increasing,bottom_left,2024-10-30_14h29.44.252,HideSeek_v1,2022.2.5,59.79870561680909,
,4,6,4,5,0,-1,15,,train_dim1_1,11,30,2,0,2,0,,,,,,,,,0,0,0,0,0,10,10,10,0,0,0,0,,,,,,,,,,,,,stimuli/alien_stimuli/15.png,,,,,,,,,,,,,,,,,,,,,,,,,,,,,stimuli/alien_stimuli/16.png,16,2,12,,,,,,,30,,,,,,,,103.53719920001458,103.53719920001458,103.53719920001458,103.53719920001458,103.53719920001458,down,0.7251493000076152,10,0,0,99,0.16,0.0,down,0.6297192999627441,,,,,101.96827310003573,103.53719920001458,0,0.16,0.0,0.0,0.16,0,0.0,0,0.16,101.48173280002084,101.48173280002084,101.48173280002084,101.48173280002084,101.48173280002084,101.48173280002084,101.48173280002084,101.48173280002084,101.46826255004271,0.568544199981261,return,0.4700514000141993,,,,,,A,train_y,increasing,bottom_left,2024-10-30_14h29.44.252,HideSeek_v1,2022.2.5,59.79870561680909,
,4,6,4,5,0,-1,15,,train_dim1_1,11,30,2,0,2,0,,,,,,,,,0,0,0,0,0,10,10,10,1,0,1,0,,,,,,,,,,,,,,,,,,,,,,,,,,,,,,,,,,,,,,,,,,,,,,,,,,,,30,,,,,,,,104.24173260002863,104.24173260002863,104.24173260002863,104.24173260002863,104.24173260002863,return,0.2945233999635093,11,0,0,1,0.16,0.0,return,0.22005130001343787,-25,0,0.16,0.0,,,,,,,,,,,,,,,,,,,,,,,,,,,,,A,train_y,increasing,bottom_left,2024-10-30_14h29.44.252,HideSeek_v1,2022.2.5,59.79870561680909,
,0,5,0,0,0,-5,11,,train_dim1_1,12,30,2,0,2,0,,,,,,,,,0,0,0,0,0,11,11,11,0,0,0,0,,,,,,,,,,,,,stimuli/alien_stimuli/11.png,,,,,,,,,,,,,,,,,,,,,,,,,,,,,stimuli/alien_stimuli/15.png,15,4,13,,,,,,,30,,,,,,,,108.218506300007,108.218506300007,108.218506300007,108.218506300007,108.218506300007,down,0.5436134999617934,11,0,0,99,-0.16,-0.08,down,0.45208800002001226,,,,,106.66845080000348,108.218506300007,0.16,0,0.08,0.0,0.04,0.16,0.16,0.16,0,106.07869460002985,106.07869460002985,106.07869460002985,106.07869460002985,106.07869460002985,106.07869460002985,106.07869460002985,106.07869460002985,106.06820534999133,0.6680503000388853,return,0.5582783999852836,,,,,,A,train_y,increasing,bottom_left,2024-10-30_14h29.44.252,HideSeek_v1,2022.2.5,59.79870561680909,
,0,5,0,0,0,-5,11,,train_dim1_1,12,30,2,0,2,0,,,,,,,,,0,0,0,0,0,11,11,11,1,0,1,0,,,,,,,,,,,,,,,,,,,,,,,,,,,,,,,,,,,,,,,,,,,,,,,,,,,,30,,,,,,,,108.75791139999637,108.75791139999637,108.75791139999637,108.75791139999637,108.75791139999637,down,0.5758352000266314,11,0,0,99,-0.16,-0.16,down,0.49824899999657646,,,,,,,,,,,,,,,,,,,,,,,,,,,,,,,,,A,train_y,increasing,bottom_left,2024-10-30_14h29.44.252,HideSeek_v1,2022.2.5,59.79870561680909,
,0,5,0,0,0,-5,11,,train_dim1_1,12,30,2,0,2,0,,,,,,,,,0,0,0,0,0,11,11,11,2,0,2,0,,,,,,,,,,,,,,,,,,,,,,,,,,,,,,,,,,,,,,,,,,,,,,,,,,,,30,,,,,,,,109.34069809998618,109.34069809998618,109.34069809998618,109.34069809998618,109.34069809998618,down,1.0267901999759488,11,0,0,99,-0.16,-0.24,down,0.9604529000353068,,,,,,,,,,,,,,,,,,,,,,,,,,,,,,,,,A,train_y,increasing,bottom_left,2024-10-30_14h29.44.252,HideSeek_v1,2022.2.5,59.79870561680909,
,0,5,0,0,0,-5,11,,train_dim1_1,12,30,2,0,2,0,,,,,,,,,0,0,0,0,0,11,11,11,3,0,3,0,,,,,,,,,,,,,,,,,,,,,,,,,,,,,,,,,,,,,,,,,,,,,,,,,,,,30,,,,,,,,110.39265819999855,110.39265819999855,110.39265819999855,110.39265819999855,110.39265819999855,down,0.2110545000177808,11,0,0,99,-0.16,-0.32,down,0.11813750001601875,,,,,,,,,,,,,,,,,,,,,,,,,,,,,,,,,A,train_y,increasing,bottom_left,2024-10-30_14h29.44.252,HideSeek_v1,2022.2.5,59.79870561680909,
,0,5,0,0,0,-5,11,,train_dim1_1,12,30,2,0,2,0,,,,,,,,,0,0,0,0,0,11,11,11,4,0,4,0,,,,,,,,,,,,,,,,,,,,,,,,,,,,,,,,,,,,,,,,,,,,,,,,,,,,30,,,,,,,,110.60504400002537,110.60504400002537,110.60504400002537,110.60504400002537,110.60504400002537,down,0.21139469998888671,11,0,0,99,-0.16,-0.4,down,0.12666579999495298,,,,,,,,,,,,,,,,,,,,,,,,,,,,,,,,,A,train_y,increasing,bottom_left,2024-10-30_14h29.44.252,HideSeek_v1,2022.2.5,59.79870561680909,
,0,5,0,0,0,-5,11,,train_dim1_1,12,30,2,0,2,0,,,,,,,,,0,0,0,0,0,11,11,11,5,0,5,0,,,,,,,,,,,,,,,,,,,,,,,,,,,,,,,,,,,,,,,,,,,,,,,,,,,,30,,,,,,,,110.80334119999316,110.80334119999316,110.80334119999316,110.80334119999316,110.80334119999316,return,0.26218219997826964,12,0,0,1,-0.16,-0.4,return,0.19466380000812933,-30,0,-0.16,-0.4,,,,,,,,,,,,,,,,,,,,,,,,,,,,,A,train_y,increasing,bottom_left,2024-10-30_14h29.44.252,HideSeek_v1,2022.2.5,59.79870561680909,
,4,8,4,4,0,-4,12,,train_dim1_1,13,30,2,0,2,0,,,,,,,,,0,0,0,0,0,12,12,12,0,0,0,0,,,,,,,,,,,,,stimuli/alien_stimuli/12.png,,,,,,,,,,,,,,,,,,,,,,,,,,,,,stimuli/alien_stimuli/11.png,11,0,14,,,,,,,30,,,,,,,,114.66865220002364,114.66865220002364,114.66865220002364,114.66865220002364,114.66865220002364,down,0.6260448000393808,12,0,0,99,0.16,0.15999999999999998,down,0.5463885999633931,,,,,113.11816800001543,114.66865220002364,-0.16,-0.4,0.4,0.0,-0.2,-0.16,-0.16,-0.16,-0.4,112.60951069998555,112.60951069998555,112.60951069998555,112.60951069998555,112.60951069998555,112.60951069998555,112.60951069998555,112.60951069998555,112.60180165004567,0.5850881999940611,return,0.4893169999704696,,,,,,A,train_y,increasing,bottom_left,2024-10-30_14h29.44.252,HideSeek_v1,2022.2.5,59.79870561680909,
,4,8,4,4,0,-4,12,,train_dim1_1,13,30,2,0,2,0,,,,,,,,,0,0,0,0,0,12,12,12,1,0,1,0,,,,,,,,,,,,,,,,,,,,,,,,,,,,,,,,,,,,,,,,,,,,,,,,,,,,30,,,,,,,,115.28800340002635,115.28800340002635,115.28800340002635,115.28800340002635,115.28800340002635,down,0.2438012000056915,12,0,0,99,0.16,0.07999999999999997,down,0.17673310003010556,,,,,,,,,,,,,,,,,,,,,,,,,,,,,,,,,A,train_y,increasing,bottom_left,2024-10-30_14h29.44.252,HideSeek_v1,2022.2.5,59.79870561680909,
,4,8,4,4,0,-4,12,,train_dim1_1,13,30,2,0,2,0,,,,,,,,,0,0,0,0,0,12,12,12,2,0,2,0,,,,,,,,,,,,,,,,,,,,,,,,,,,,,,,,,,,,,,,,,,,,,,,,,,,,30,,,,,,,,115.53684020001674,115.53684020001674,115.53684020001674,115.53684020001674,115.53684020001674,down,0.2115759000298567,12,0,0,99,0.16,-2.7755575615628914e-17,down,0.13379609998082742,,,,,,,,,,,,,,,,,,,,,,,,,,,,,,,,,A,train_y,increasing,bottom_left,2024-10-30_14h29.44.252,HideSeek_v1,2022.2.5,59.79870561680909,
,4,8,4,4,0,-4,12,,train_dim1_1,13,30,2,0,2,0,,,,,,,,,0,0,0,0,0,12,12,12,3,0,3,0,,,,,,,,,,,,,,,,,,,,,,,,,,,,,,,,,,,,,,,,,,,,,,,,,,,,30,,,,,,,,115.75300670001889,115.75300670001889,115.75300670001889,115.75300670001889,115.75300670001889,down,0.1621451000100933,12,0,0,99,0.16,-0.08000000000000003,down,0.09251840005163103,,,,,,,,,,,,,,,,,,,,,,,,,,,,,,,,,A,train_y,increasing,bottom_left,2024-10-30_14h29.44.252,HideSeek_v1,2022.2.5,59.79870561680909,
,4,8,4,4,0,-4,12,,train_dim1_1,13,30,2,0,2,0,,,,,,,,,0,0,0,0,0,12,12,12,4,0,4,0,,,,,,,,,,,,,,,,,,,,,,,,,,,,,,,,,,,,,,,,,,,,,,,,,,,,30,,,,,,,,115.9202163000009,115.9202163000009,115.9202163000009,115.9202163000009,115.9202163000009,return,0.24371039995457977,13,0,0,1,0.16,-0.08000000000000003,return,0.17870180000318214,-34,0,0.16,-0.08000000000000003,,,,,,,,,,,,,,,,,,,,,,,,,,,,,A,train_y,increasing,bottom_left,2024-10-30_14h29.44.252,HideSeek_v1,2022.2.5,59.79870561680909,
,2,7,2,7,0,0,16,,train_dim1_1,14,30,2,0,2,0,,,,,,,,,0,0,0,0,0,13,13,13,0,0,0,0,,,,,,,,,,,,,stimuli/alien_stimuli/16.png,,,,,,,,,,,,,,,,,,,,,,,,,,,,,stimuli/alien_stimuli/12.png,12,4,15,,,,,,,30,,,,,,,,119.64056020003045,119.64056020003045,119.64056020003045,119.64056020003045,119.64056020003045,return,0.7580635999911465,14,0,0,1,0,0.16,return,0.6859134999685921,-34,0,0,0.16,118.10156260000076,119.64056020003045,0.16,-0.08,0.32,0.0,0.07999999999999999,0.16,0.16,0.16,-0.08,117.70472620002693,117.70472620002693,117.70472620002693,117.70472620002693,117.70472620002693,117.70472620002693,117.70472620002693,117.70472620002693,117.70110855004168,0.46870800002943724,return,0.37093919998733327,,,,,,A,train_y,increasing,bottom_left,2024-10-30_14h29.44.252,HideSeek_v1,2022.2.5,59.79870561680909,
,1,9,1,7,0,-2,14,,train_dim1_1,15,30,2,0,2,0,,,,,,,,,0,0,0,0,0,14,14,14,0,0,0,0,,,,,,,,,,,,,stimuli/alien_stimuli/14.png,,,,,,,,,,,,,,,,,,,,,,,,,,,,,stimuli/alien_stimuli/16.png,16,2,16,,,,,,,30,,,,,,,,123.79203770001186,123.79203770001186,123.79203770001186,123.79203770001186,123.79203770001186,down,0.476019499998074,14,0,0,99,-0.08,0.24,down,0.40441570000257343,,,,,122.25152170000365,123.79203770001186,0,0.16,0.0,0.0,0.16,0,0.0,0,0.16,121.93918200000189,121.93918200000189,121.93918200000189,121.93918200000189,121.93918200000189,121.93918200000189,121.93918200000189,121.93918200000189,121.93439934999333,0.3854032999952324,return,0.2876176999998279,,,,,,A,train_y,increasing,bottom_left,2024-10-30_14h29.44.252,HideSeek_v1,2022.2.5,59.79870561680909,
,1,9,1,7,0,-2,14,,train_dim1_1,15,30,2,0,2,0,,,,,,,,,0,0,0,0,0,14,14,14,1,0,1,0,,,,,,,,,,,,,,,,,,,,,,,,,,,,,,,,,,,,,,,,,,,,,,,,,,,,30,,,,,,,,124.27072359999875,124.27072359999875,124.27072359999875,124.27072359999875,124.27072359999875,down,0.16087080002762377,14,0,0,99,-0.08,0.15999999999999998,down,0.08781409997027367,,,,,,,,,,,,,,,,,,,,,,,,,,,,,,,,,A,train_y,increasing,bottom_left,2024-10-30_14h29.44.252,HideSeek_v1,2022.2.5,59.79870561680909,
,1,9,1,7,0,-2,14,,train_dim1_1,15,30,2,0,2,0,,,,,,,,,0,0,0,0,0,14,14,14,2,0,2,0,,,,,,,,,,,,,,,,,,,,,,,,,,,,,,,,,,,,,,,,,,,,,,,,,,,,30,,,,,,,,124.43832790001761,124.43832790001761,124.43832790001761,124.43832790001761,124.43832790001761,return,0.32810819998849183,15,0,0,1,-0.08,0.15999999999999998,return,0.2544183999998495,-36,0,-0.08,0.15999999999999998,,,,,,,,,,,,,,,,,,,,,,,,,,,,,A,train_y,increasing,bottom_left,2024-10-30_14h29.44.252,HideSeek_v1,2022.2.5,59.79870561680909,
,4,5,4,4,0,-1,15,,train_dim1_1,16,30,2,0,2,0,,,,,,,,,0,0,0,0,0,15,15,15,0,0,0,0,,,,,,,,,,,,,stimuli/alien_stimuli/15.png,,,,,,,,,,,,,,,,,,,,,,,,,,,,,stimuli/alien_stimuli/14.png,14,1,17,,,,,,,30,,,,,,,,128.1282874000026,128.1282874000026,128.1282874000026,128.1282874000026,128.1282874000026,down,0.5923733999952674,15,0,0,99,0.16,-0.08,down,0.5123234000056982,,,,,126.58430440002121,128.1282874000026,-0.08,0.16,0.16,0.0,0.24,-0.08,-0.08,-0.08,0.16,126.3093205000041,126.3093205000041,126.3093205000041,126.3093205000041,126.3093205000041,126.3093205000041,126.3093205000041,126.3093205000041,126.30164165000315,0.3516700000036508,return,0.24436840001726523,,,,,,A,train_y,increasing,bottom_left,2024-10-30_14h29.44.252,HideSeek_v1,2022.2.5,59.79870561680909,
,4,5,4,4,0,-1,15,,train_dim1_1,16,30,2,0,2,0,,,,,,,,,0,0,0,0,0,15,15,15,1,0,1,0,,,,,,,,,,,,,,,,,,,,,,,,,,,,,,,,,,,,,,,,,,,,,,,,,,,,30,,,,,,,,128.72507710003993,128.72507710003993,128.72507710003993,128.72507710003993,128.72507710003993,return,0.16100969997933134,16,0,0,1,0.16,-0.08,return,0.079751200042665,-37,0,0.16,-0.08,,,,,,,,,,,,,,,,,,,,,,,,,,,,,A,train_y,increasing,bottom_left,2024-10-30_14h29.44.252,HideSeek_v1,2022.2.5,59.79870561680909,
,3,8,3,6,0,-2,14,,train_dim1_1,17,30,2,0,2,0,,,,,,,,,0,0,0,0,0,16,16,16,0,0,0,0,,,,,,,,,,,,,stimuli/alien_stimuli/14.png,,,,,,,,,,,,,,,,,,,,,,,,,,,,,stimuli/alien_stimuli/15.png,15,4,18,,,,,,,30,,,,,,,,132.24348960001953,132.24348960001953,132.24348960001953,132.24348960001953,132.24348960001953,down,0.5749577000387944,16,0,0,99,0.08,0.15999999999999998,down,0.504058399994392,,,,,130.70128839998506,132.24348960001953,0.16,-0.08,0.08,0.0,-0.04,0.16,0.16,0.16,-0.08,130.4300484000123,130.4300484000123,130.4300484000123,130.4300484000123,130.4300484000123,130.4300484000123,130.4300484000123,130.4300484000123,130.41775744999177,0.352021099999547,return,0.253970300022047,,,,,,A,train_y,increasing,bottom_left,2024-10-30_14h29.44.252,HideSeek_v1,2022.2.5,59.79870561680909,
,3,8,3,6,0,-2,14,,train_dim1_1,17,30,2,0,2,0,,,,,,,,,0,0,0,0,0,16,16,16,1,0,1,0,,,,,,,,,,,,,,,,,,,,,,,,,,,,,,,,,,,,,,,,,,,,,,,,,,,,30,,,,,,,,132.823111900012,132.823111900012,132.823111900012,132.823111900012,132.823111900012,down,0.1445782000082545,16,0,0,99,0.08,0.07999999999999997,down,0.07794869999634102,,,,,,,,,,,,,,,,,,,,,,,,,,,,,,,,,A,train_y,increasing,bottom_left,2024-10-30_14h29.44.252,HideSeek_v1,2022.2.5,59.79870561680909,
,3,8,3,6,0,-2,14,,train_dim1_1,17,30,2,0,2,0,,,,,,,,,0,0,0,0,0,16,16,16,2,0,2,0,,,,,,,,,,,,,,,,,,,,,,,,,,,,,,,,,,,,,,,,,,,,,,,,,,,,30,,,,,,,,132.97215580003103,132.97215580003103,132.97215580003103,132.97215580003103,132.97215580003103,return,0.2446382000343874,17,0,0,1,0.08,0.07999999999999997,return,0.1647647999925539,-39,0,0.08,0.07999999999999997,,,,,,,,,,,,,,,,,,,,,,,,,,,,,A,train_y,increasing,bottom_left,2024-10-30_14h29.44.252,HideSeek_v1,2022.2.5,59.79870561680909,
,2,6,2,1,0,-5,11,,train_dim1_1,18,30,2,0,2,0,,,,,,,,,0,0,0,0,0,17,17,17,0,0,0,0,,,,,,,,,,,,,stimuli/alien_stimuli/11.png,,,,,,,,,,,,,,,,,,,,,,,,,,,,,stimuli/alien_stimuli/14.png,14,3,19,,,,,,,30,,,,,,,,136.65718109998852,136.65718109998852,136.65718109998852,136.65718109998852,136.65718109998852,down,0.4756305000046268,17,0,0,99,0,0.0,down,0.3620397999766283,,,,,135.08550350001315,134.76042740000412,0.08,0.08,0.16,0.0,0.16,0.08,0.08,0.08,0.08,134.76042740000412,134.76042740000412,134.76042740000412,134.76042740000412,134.76042740000412,134.76042740000412,134.76042740000412,134.76042740000412,134.75103215003037,0.397058000031393,return,0.296420999977272,,,,,,A,train_y,increasing,bottom_left,2024-10-30_14h29.44.252,HideSeek_v1,2022.2.5,59.79870561680909,
,2,6,2,1,0,-5,11,,train_dim1_1,18,30,2,0,2,0,,,,,,,,,0,0,0,0,0,17,17,17,1,0,1,0,,,,,,,,,,,,,,,,,,,,,,,,,,,,,,,,,,,,,,,,,,,,,,,,,,,,30,,,,,,,,137.10567140002968,137.10567140002968,137.10567140002968,137.10567140002968,137.10567140002968,down,0.26088489999528974,17,0,0,99,0,-0.08,down,0.18502709997119382,,,,,,,,,,,,,,,,,,,,,,,,,,,,,,,,,A,train_y,increasing,bottom_left,2024-10-30_14h29.44.252,HideSeek_v1,2022.2.5,59.79870561680909,
,2,6,2,1,0,-5,11,,train_dim1_1,18,30,2,0,2,0,,,,,,,,,0,0,0,0,0,17,17,17,2,0,2,0,,,,,,,,,,,,,,,,,,,,,,,,,,,,,,,,,,,,,,,,,,,,,,,,,,,,30,,,,,,,,137.3858162999968,137.3858162999968,137.3858162999968,137.3858162999968,137.3858162999968,down,0.24435960000846535,17,0,0,99,0,-0.16,down,0.1641239000018686,,,,,,,,,,,,,,,,,,,,,,,,,,,,,,,,,A,train_y,increasing,bottom_left,2024-10-30_14h29.44.252,HideSeek_v1,2022.2.5,59.79870561680909,
,2,6,2,1,0,-5,11,,train_dim1_1,18,30,2,0,2,0,,,,,,,,,0,0,0,0,0,17,17,17,3,0,3,0,,,,,,,,,,,,,,,,,,,,,,,,,,,,,,,,,,,,,,,,,,,,,,,,,,,,30,,,,,,,,137.62375690002227,137.62375690002227,137.62375690002227,137.62375690002227,137.62375690002227,down,0.31076819996815175,17,0,0,99,0,-0.24,down,0.22850019996985793,,,,,,,,,,,,,,,,,,,,,,,,,,,,,,,,,A,train_y,increasing,bottom_left,2024-10-30_14h29.44.252,HideSeek_v1,2022.2.5,59.79870561680909,
,2,6,2,1,0,-5,11,,train_dim1_1,18,30,2,0,2,0,,,,,,,,,0,0,0,0,0,17,17,17,4,0,4,0,,,,,,,,,,,,,,,,,,,,,,,,,,,,,,,,,,,,,,,,,,,,,,,,,,,,30,,,,,,,,137.93721629999345,137.93721629999345,137.93721629999345,137.93721629999345,137.93721629999345,down,2.3952923999750055,17,0,0,99,0,-0.32,down,2.3215677000116557,,,,,,,,,,,,,,,,,,,,,,,,,,,,,,,,,A,train_y,increasing,bottom_left,2024-10-30_14h29.44.252,HideSeek_v1,2022.2.5,59.79870561680909,
,2,6,2,1,0,-5,11,,train_dim1_1,18,30,2,0,2,0,,,,,,,,,0,0,0,0,0,17,17,17,5,0,5,0,,,,,,,,,,,,,,,,,,,,,,,,,,,,,,,,,,,,,,,,,,,,,,,,,,,,30,,,,,,,,140.3373971999972,140.3373971999972,140.3373971999972,140.3373971999972,140.3373971999972,return,0.16104829998221248,18,0,0,1,0,-0.32,return,0.08708610001485795,-44,0,0,-0.32,,,,,,,,,,,,,,,,,,,,,,,,,,,,,A,train_y,increasing,bottom_left,2024-10-30_14h29.44.252,HideSeek_v1,2022.2.5,59.79870561680909,
,0,9,0,5,0,-4,12,,train_dim1_1,19,30,2,0,2,0,,,,,,,,,0,0,0,0,0,18,18,18,0,0,0,0,,,,,,,,,,,,,stimuli/alien_stimuli/12.png,,,,,,,,,,,,,,,,,,,,,,,,,,,,,stimuli/alien_stimuli/11.png,11,2,20,,,,,,,30,,,,,,,,144.07493890001206,144.07493890001206,144.07493890001206,144.07493890001206,144.07493890001206,down,1.1418407000019215,18,0,0,99,-0.16,0.24,down,1.070826900016982,,,,,142.53423640003894,144.07493890001206,0,-0.32,0.4,0.0,-0.12,0,0.0,0,-0.32,142.05130290001398,142.05130290001398,142.05130290001398,142.05130290001398,142.05130290001398,142.05130290001398,142.05130290001398,142.05130290001398,142.03428525003255,0.5697087000007741,return,0.45512489997781813,,,,,,A,train_y,increasing,bottom_left,2024-10-30_14h29.44.252,HideSeek_v1,2022.2.5,59.79870561680909,
,0,9,0,5,0,-4,12,,train_dim1_1,19,30,2,0,2,0,,,,,,,,,0,0,0,0,0,18,18,18,1,0,1,0,,,,,,,,,,,,,,,,,,,,,,,,,,,,,,,,,,,,,,,,,,,,,,,,,,,,30,,,,,,,,145.2276101000025,145.2276101000025,145.2276101000025,145.2276101000025,145.2276101000025,down,0.17747110000345856,18,0,0,99,-0.16,0.15999999999999998,down,0.09322700003394857,,,,,,,,,,,,,,,,,,,,,,,,,,,,,,,,,A,train_y,increasing,bottom_left,2024-10-30_14h29.44.252,HideSeek_v1,2022.2.5,59.79870561680909,
,0,9,0,5,0,-4,12,,train_dim1_1,19,30,2,0,2,0,,,,,,,,,0,0,0,0,0,18,18,18,2,0,2,0,,,,,,,,,,,,,,,,,,,,,,,,,,,,,,,,,,,,,,,,,,,,,,,,,,,,30,,,,,,,,145.4092079999973,145.4092079999973,145.4092079999973,145.4092079999973,145.4092079999973,down,0.14418489998206496,18,0,0,99,-0.16,0.07999999999999997,down,0.05989079998107627,,,,,,,,,,,,,,,,,,,,,,,,,,,,,,,,,A,train_y,increasing,bottom_left,2024-10-30_14h29.44.252,HideSeek_v1,2022.2.5,59.79870561680909,
,0,9,0,5,0,-4,12,,train_dim1_1,19,30,2,0,2,0,,,,,,,,,0,0,0,0,0,18,18,18,3,0,3,0,,,,,,,,,,,,,,,,,,,,,,,,,,,,,,,,,,,,,,,,,,,,,,,,,,,,30,,,,,,,,145.55551370000467,145.55551370000467,145.55551370000467,145.55551370000467,145.55551370000467,down,0.12788799998816103,18,0,0,99,-0.16,-2.7755575615628914e-17,down,0.05586369999218732,,,,,,,,,,,,,,,,,,,,,,,,,,,,,,,,,A,train_y,increasing,bottom_left,2024-10-30_14h29.44.252,HideSeek_v1,2022.2.5,59.79870561680909,
,0,9,0,5,0,-4,12,,train_dim1_1,19,30,2,0,2,0,,,,,,,,,0,0,0,0,0,18,18,18,4,0,4,0,,,,,,,,,,,,,,,,,,,,,,,,,,,,,,,,,,,,,,,,,,,,,,,,,,,,30,,,,,,,,145.68964980001329,145.68964980001329,145.68964980001329,145.68964980001329,145.68964980001329,return,0.27857419999781996,19,0,0,1,-0.16,-2.7755575615628914e-17,return,0.1973471000092104,-48,0,-0.16,-2.7755575615628914e-17,,,,,,,,,,,,,,,,,,,,,,,,,,,,,A,train_y,increasing,bottom_left,2024-10-30_14h29.44.252,HideSeek_v1,2022.2.5,59.79870561680909,
,2,5,2,5,0,0,16,,train_dim1_1,20,30,2,0,2,0,,,,,,,,,0,0,0,0,0,19,19,19,0,0,0,0,,,,,,,,,,,,,stimuli/alien_stimuli/16.png,,,,,,,,,,,,,,,,,,,,,,,,,,,,,stimuli/alien_stimuli/12.png,12,0,21,,,,,,,30,,,,,,,,150.09320320002735,150.09320320002735,150.09320320002735,150.09320320002735,150.09320320002735,return,0.8750244000111707,20,0,0,1,0,0,return,0.7927591999759898,-48,0,0,0,148.55085820000386,150.09320320002735,-0.16,0,0.32,0.0,0.16,-0.16,-0.16,-0.16,0,147.5291365000303,147.5291365000303,147.5291365000303,147.5291365000303,147.5291365000303,147.5291365000303,147.5291365000303,147.5291365000303,147.51757535003708,1.1023001999710687,return,0.9957812000066042,,,,,,A,train_y,increasing,bottom_left,2024-10-30_14h29.44.252,HideSeek_v1,2022.2.5,59.79870561680909,
,2,9,2,8,0,-1,15,,train_dim1_1,21,30,2,0,2,0,,,,,,,,,0,0,0,0,0,20,20,20,0,0,0,0,,,,,,,,,,,,,stimuli/alien_stimuli/15.png,,,,,,,,,,,,,,,,,,,,,,,,,,,,,stimuli/alien_stimuli/16.png,16,2,22,,,,,,,30,,,,,,,,154.44044760003453,154.44044760003453,154.44044760003453,154.44044760003453,154.44044760003453,down,0.5261161000235006,20,0,0,99,0,0.24,down,0.4537438999977894,,,,,152.90123990003485,154.44044760003453,0,0,0.0,0.0,0.0,0,0.0,0,0,152.5302173999953,152.5302173999953,152.5302173999953,152.5302173999953,152.5302173999953,152.5302173999953,152.5302173999953,152.5302173999953,152.51778465999524,0.4691313999937847,return,0.3409676000010222,,,,,,A,train_y,increasing,bottom_left,2024-10-30_14h29.44.252,HideSeek_v1,2022.2.5,59.79870561680909,
,2,9,2,8,0,-1,15,,train_dim1_1,21,30,2,0,2,0,,,,,,,,,0,0,0,0,0,20,20,20,1,0,1,0,,,,,,,,,,,,,,,,,,,,,,,,,,,,,,,,,,,,,,,,,,,,,,,,,,,,30,,,,,,,,154.97849850001512,154.97849850001512,154.97849850001512,154.97849850001512,154.97849850001512,return,0.2941685999976471,21,0,0,1,0,0.24,return,0.22153160005109385,-49,0,0,0.24,,,,,,,,,,,,,,,,,,,,,,,,,,,,,A,train_y,increasing,bottom_left,2024-10-30_14h29.44.252,HideSeek_v1,2022.2.5,59.79870561680909,
,0,7,0,5,0,-2,14,,train_dim1_1,22,30,2,0,2,0,,,,,,,,,0,0,0,0,0,21,21,21,0,0,0,0,,,,,,,,,,,,,stimuli/alien_stimuli/14.png,,,,,,,,,,,,,,,,,,,,,,,,,,,,,stimuli/alien_stimuli/15.png,15,2,23,,,,,,,30,,,,,,,,158.75324920000276,158.75324920000276,158.75324920000276,158.75324920000276,158.75324920000276,down,0.5420520999468863,21,0,0,99,-0.16,0.08,down,0.46286850003525615,,,,,157.20133609999903,158.75324920000276,0,0.24,0.08,0.0,0.28,0,0.0,0,0.24,156.80920550000155,156.80920550000155,156.80920550000155,156.80920550000155,156.80920550000155,156.80920550000155,156.80920550000155,156.80920550000155,156.80077125001117,0.46855800005141646,return,0.3634645999991335,,,,,,A,train_y,increasing,bottom_left,2024-10-30_14h29.44.252,HideSeek_v1,2022.2.5,59.79870561680909,
,0,7,0,5,0,-2,14,,train_dim1_1,22,30,2,0,2,0,,,,,,,,,0,0,0,0,0,21,21,21,1,0,1,0,,,,,,,,,,,,,,,,,,,,,,,,,,,,,,,,,,,,,,,,,,,,,,,,,,,,30,,,,,,,,159.28830720001133,159.28830720001133,159.28830720001133,159.28830720001133,159.28830720001133,down,0.2608077000477351,21,0,0,99,-0.16,0.0,down,0.18393590004416183,,,,,,,,,,,,,,,,,,,,,,,,,,,,,,,,,A,train_y,increasing,bottom_left,2024-10-30_14h29.44.252,HideSeek_v1,2022.2.5,59.79870561680909,
,0,7,0,5,0,-2,14,,train_dim1_1,22,30,2,0,2,0,,,,,,,,,0,0,0,0,0,21,21,21,2,0,2,0,,,,,,,,,,,,,,,,,,,,,,,,,,,,,,,,,,,,,,,,,,,,,,,,,,,,30,,,,,,,,159.55366460001096,159.55366460001096,159.55366460001096,159.55366460001096,159.55366460001096,return,0.22779689996968955,22,0,0,1,-0.16,0.0,return,0.15296440001111478,-51,0,-0.16,0.0,,,,,,,,,,,,,,,,,,,,,,,,,,,,,A,train_y,increasing,bottom_left,2024-10-30_14h29.44.252,HideSeek_v1,2022.2.5,59.79870561680909,
,0,8,0,3,0,-5,11,,train_dim1_1,23,30,2,0,2,0,,,,,,,,,0,0,0,0,0,22,22,22,0,0,0,0,,,,,,,,,,,,,stimuli/alien_stimuli/11.png,,,,,,,,,,,,,,,,,,,,,,,,,,,,,stimuli/alien_stimuli/14.png,14,0,24,,,,,,,30,,,,,,,,163.16068920004182,163.16068920004182,163.16068920004182,163.16068920004182,163.16068920004182,down,0.5767180999973789,22,0,0,99,-0.16,0.15999999999999998,down,0.4599099999759346,,,,,161.5850497999927,163.16068920004182,-0.16,0,0.16,0.0,0.08,-0.16,-0.16,-0.16,0,161.32544109999435,161.32544109999435,161.32544109999435,161.32544109999435,161.32544109999435,161.32544109999435,161.32544109999435,161.32544109999435,161.31746275004116,0.33551750000333413,return,0.23028360004536808,,,,,,A,train_y,increasing,bottom_left,2024-10-30_14h29.44.252,HideSeek_v1,2022.2.5,59.79870561680909,
,0,8,0,3,0,-5,11,,train_dim1_1,23,30,2,0,2,0,,,,,,,,,0,0,0,0,0,22,22,22,1,0,1,0,,,,,,,,,,,,,,,,,,,,,,,,,,,,,,,,,,,,,,,,,,,,,,,,,,,,30,,,,,,,,163.7054466000409,163.7054466000409,163.7054466000409,163.7054466000409,163.7054466000409,down,0.2436161999939941,22,0,0,99,-0.16,0.07999999999999997,down,0.17926150001585484,,,,,,,,,,,,,,,,,,,,,,,,,,,,,,,,,A,train_y,increasing,bottom_left,2024-10-30_14h29.44.252,HideSeek_v1,2022.2.5,59.79870561680909,
,0,8,0,3,0,-5,11,,train_dim1_1,23,30,2,0,2,0,,,,,,,,,0,0,0,0,0,22,22,22,2,0,2,0,,,,,,,,,,,,,,,,,,,,,,,,,,,,,,,,,,,,,,,,,,,,,,,,,,,,30,,,,,,,,163.95432409999194,163.95432409999194,163.95432409999194,163.95432409999194,163.95432409999194,down,0.3444604999967851,22,0,0,99,-0.16,-2.7755575615628914e-17,down,0.27884119999362156,,,,,,,,,,,,,,,,,,,,,,,,,,,,,,,,,A,train_y,increasing,bottom_left,2024-10-30_14h29.44.252,HideSeek_v1,2022.2.5,59.79870561680909,
,0,8,0,3,0,-5,11,,train_dim1_1,23,30,2,0,2,0,,,,,,,,,0,0,0,0,0,22,22,22,3,0,3,0,,,,,,,,,,,,,,,,,,,,,,,,,,,,,,,,,,,,,,,,,,,,,,,,,,,,30,,,,,,,,164.3062272000243,164.3062272000243,164.3062272000243,164.3062272000243,164.3062272000243,down,0.37769850000040606,22,0,0,99,-0.16,-0.08000000000000003,down,0.31185829994501546,,,,,,,,,,,,,,,,,,,,,,,,,,,,,,,,,A,train_y,increasing,bottom_left,2024-10-30_14h29.44.252,HideSeek_v1,2022.2.5,59.79870561680909,
,0,8,0,3,0,-5,11,,train_dim1_1,23,30,2,0,2,0,,,,,,,,,0,0,0,0,0,22,22,22,4,0,4,0,,,,,,,,,,,,,,,,,,,,,,,,,,,,,,,,,,,,,,,,,,,,,,,,,,,,30,,,,,,,,164.68985110003268,164.68985110003268,164.68985110003268,164.68985110003268,164.68985110003268,down,1.6949016000144184,22,0,0,99,-0.16,-0.16000000000000003,down,1.6125448000384495,,,,,,,,,,,,,,,,,,,,,,,,,,,,,,,,,A,train_y,increasing,bottom_left,2024-10-30_14h29.44.252,HideSeek_v1,2022.2.5,59.79870561680909,
,0,8,0,3,0,-5,11,,train_dim1_1,23,30,2,0,2,0,,,,,,,,,0,0,0,0,0,22,22,22,5,0,5,0,,,,,,,,,,,,,,,,,,,,,,,,,,,,,,,,,,,,,,,,,,,,,,,,,,,,30,,,,,,,,166.38798510003835,166.38798510003835,166.38798510003835,166.38798510003835,166.38798510003835,return,0.27793139999266714,23,0,0,1,-0.16,-0.16000000000000003,return,0.2097512999898754,-56,0,-0.16,-0.16000000000000003,,,,,,,,,,,,,,,,,,,,,,,,,,,,,A,train_y,increasing,bottom_left,2024-10-30_14h29.44.252,HideSeek_v1,2022.2.5,59.79870561680909,
,3,7,3,7,0,0,16,,train_dim1_1,24,30,2,0,2,0,,,,,,,,,0,0,0,0,0,23,23,23,0,0,0,0,,,,,,,,,,,,,stimuli/alien_stimuli/16.png,,,,,,,,,,,,,,,,,,,,,,,,,,,,,stimuli/alien_stimuli/11.png,11,0,25,,,,,,,30,,,,,,,,170.37845329998527,170.37845329998527,170.37845329998527,170.37845329998527,170.37845329998527,return,2.291176999977324,24,0,0,1,0.08,0.16,return,2.21799460001057,-56,0,0.08,0.16,168.83477930002846,170.37845329998527,-0.16,-0.16,0.4,0.0,0.039999999999999994,-0.16,-0.16,-0.16,-0.16,168.20727529999567,168.20727529999567,168.20727529999567,168.20727529999567,168.20727529999567,168.20727529999567,168.20727529999567,168.20727529999567,168.20081904999097,0.7022814999800175,return,0.6078853000071831,,,,,,A,train_y,increasing,bottom_left,2024-10-30_14h29.44.252,HideSeek_v1,2022.2.5,59.79870561680909,
,3,8,3,4,0,-4,12,,train_dim1_1,25,30,2,0,2,0,,,,,,,,,0,0,0,0,0,24,24,24,0,0,0,0,,,,,,,,,,,,,stimuli/alien_stimuli/12.png,,,,,,,,,,,,,,,,,,,,,,,,,,,,,stimuli/alien_stimuli/16.png,16,3,26,,,,,,,30,,,,,,,,176.525713799987,176.525713799987,176.525713799987,176.525713799987,176.525713799987,down,1.024823000014294,24,0,0,99,0.08,0.15999999999999998,down,0.9543316999915987,,,,,174.9840611999971,176.525713799987,0.08,0.16,0.0,0.0,0.16,0.08,0.08,0.08,0.16,174.21752549998928,174.21752549998928,174.21752549998928,174.21752549998928,174.21752549998928,174.21752549998928,174.21752549998928,174.21752549998928,174.20054125002935,0.852030600013677,return,0.7385719000012614,,,,,,A,train_y,increasing,bottom_left,2024-10-30_14h29.44.252,HideSeek_v1,2022.2.5,59.79870561680909,
,3,8,3,4,0,-4,12,,train_dim1_1,25,30,2,0,2,0,,,,,,,,,0,0,0,0,0,24,24,24,1,0,1,0,,,,,,,,,,,,,,,,,,,,,,,,,,,,,,,,,,,,,,,,,,,,,,,,,,,,30,,,,,,,,177.55778820003616,177.55778820003616,177.55778820003616,177.55778820003616,177.55778820003616,down,0.29464729997562245,24,0,0,99,0.08,0.07999999999999997,down,0.22261959995375946,,,,,,,,,,,,,,,,,,,,,,,,,,,,,,,,,A,train_y,increasing,bottom_left,2024-10-30_14h29.44.252,HideSeek_v1,2022.2.5,59.79870561680909,
,3,8,3,4,0,-4,12,,train_dim1_1,25,30,2,0,2,0,,,,,,,,,0,0,0,0,0,24,24,24,2,0,2,0,,,,,,,,,,,,,,,,,,,,,,,,,,,,,,,,,,,,,,,,,,,,,,,,,,,,30,,,,,,,,177.85604280000553,177.85604280000553,177.85604280000553,177.85604280000553,177.85604280000553,down,0.31077100004768,24,0,0,99,0.08,-2.7755575615628914e-17,down,0.229930899979081,,,,,,,,,,,,,,,,,,,,,,,,,,,,,,,,,A,train_y,increasing,bottom_left,2024-10-30_14h29.44.252,HideSeek_v1,2022.2.5,59.79870561680909,
,3,8,3,4,0,-4,12,,train_dim1_1,25,30,2,0,2,0,,,,,,,,,0,0,0,0,0,24,24,24,3,0,3,0,,,,,,,,,,,,,,,,,,,,,,,,,,,,,,,,,,,,,,,,,,,,,,,,,,,,30,,,,,,,,178.17081750003854,178.17081750003854,178.17081750003854,178.17081750003854,178.17081750003854,down,0.26181260001612827,24,0,0,99,0.08,-0.08000000000000003,down,0.19068150001112372,,,,,,,,,,,,,,,,,,,,,,,,,,,,,,,,,A,train_y,increasing,bottom_left,2024-10-30_14h29.44.252,HideSeek_v1,2022.2.5,59.79870561680909,
,3,8,3,4,0,-4,12,,train_dim1_1,25,30,2,0,2,0,,,,,,,,,0,0,0,0,0,24,24,24,4,0,4,0,,,,,,,,,,,,,,,,,,,,,,,,,,,,,,,,,,,,,,,,,,,,,,,,,,,,30,,,,,,,,178.44717780000065,178.44717780000065,178.44717780000065,178.44717780000065,178.44717780000065,return,0.3091098999720998,25,0,0,1,0.08,-0.08000000000000003,return,0.22729660000186414,-60,0,0.08,-0.08000000000000003,,,,,,,,,,,,,,,,,,,,,,,,,,,,,A,train_y,increasing,bottom_left,2024-10-30_14h29.44.252,HideSeek_v1,2022.2.5,59.79870561680909,
,4,9,4,7,0,-2,14,,train_dim1_1,26,30,2,0,2,0,,,,,,,,,0,0,0,0,0,25,25,25,0,0,0,0,,,,,,,,,,,,,stimuli/alien_stimuli/14.png,,,,,,,,,,,,,,,,,,,,,,,,,,,,,stimuli/alien_stimuli/12.png,12,3,27,,,,,,,30,,,,,,,,182.52606000000378,182.52606000000378,182.52606000000378,182.52606000000378,182.52606000000378,down,0.7755910999840125,25,0,0,99,0.16,0.24,down,0.7086246000253595,,,,,180.9837269000127,182.52606000000378,0.08,-0.08,0.32,0.0,0.07999999999999999,0.08,0.08,0.08,-0.08,180.3058523000218,180.3058523000218,180.3058523000218,180.3058523000218,180.3058523000218,180.3058523000218,180.3058523000218,180.3058523000218,180.30230746000308,0.7670210000360385,return,0.6566502000205219,,,,,,A,train_y,increasing,bottom_left,2024-10-30_14h29.44.252,HideSeek_v1,2022.2.5,59.79870561680909,
,4,9,4,7,0,-2,14,,train_dim1_1,26,30,2,0,2,0,,,,,,,,,0,0,0,0,0,25,25,25,1,0,1,0,,,,,,,,,,,,,,,,,,,,,,,,,,,,,,,,,,,,,,,,,,,,,,,,,,,,30,,,,,,,,183.31021720002173,183.31021720002173,183.31021720002173,183.31021720002173,183.31021720002173,down,0.3941913000307977,25,0,0,99,0.16,0.15999999999999998,down,0.309636700025294,,,,,,,,,,,,,,,,,,,,,,,,,,,,,,,,,A,train_y,increasing,bottom_left,2024-10-30_14h29.44.252,HideSeek_v1,2022.2.5,59.79870561680909,
,4,9,4,7,0,-2,14,,train_dim1_1,26,30,2,0,2,0,,,,,,,,,0,0,0,0,0,25,25,25,2,0,2,0,,,,,,,,,,,,,,,,,,,,,,,,,,,,,,,,,,,,,,,,,,,,,,,,,,,,30,,,,,,,,183.70678070001304,183.70678070001304,183.70678070001304,183.70678070001304,183.70678070001304,return,0.2940602999879047,26,0,0,1,0.16,0.15999999999999998,return,0.21221019997028634,-62,0,0.16,0.15999999999999998,,,,,,,,,,,,,,,,,,,,,,,,,,,,,A,train_y,increasing,bottom_left,2024-10-30_14h29.44.252,HideSeek_v1,2022.2.5,59.79870561680909,
,3,9,3,9,0,0,16,,train_dim1_1,27,30,2,0,2,0,,,,,,,,,0,0,0,0,0,26,26,26,0,0,0,0,,,,,,,,,,,,,stimuli/alien_stimuli/16.png,,,,,,,,,,,,,,,,,,,,,,,,,,,,,stimuli/alien_stimuli/14.png,14,4,28,,,,,,,30,,,,,,,,187.61106339999242,187.61106339999242,187.61106339999242,187.61106339999242,187.61106339999242,return,0.7081052999710664,27,0,0,1,0.08,0.32,return,0.6304468000307679,-62,0,0.08,0.32,186.0673483000137,187.61106339999242,0.16,0.16,0.16,0.0,0.24,0.16,0.16,0.16,0.16,185.54385840002215,185.54385840002215,185.54385840002215,185.54385840002215,185.54385840002215,185.54385840002215,185.54385840002215,185.54385840002215,185.5341322500317,0.6013369999709539,return,0.49499289999948815,,,,,,A,train_y,increasing,bottom_left,2024-10-30_14h29.44.252,HideSeek_v1,2022.2.5,59.79870561680909,
,4,6,4,1,0,-5,11,,train_dim1_1,28,30,2,0,2,0,,,,,,,,,0,0,0,0,0,27,27,27,0,0,0,0,,,,,,,,,,,,,stimuli/alien_stimuli/11.png,,,,,,,,,,,,,,,,,,,,,,,,,,,,,stimuli/alien_stimuli/16.png,16,3,29,,,,,,,30,,,,,,,,192.07723090000218,192.07723090000218,192.07723090000218,192.07723090000218,192.07723090000218,down,0.6255445000133477,27,0,0,99,0.16,0.0,down,0.5493845000164583,,,,,190.53397610003594,192.07723090000218,0.08,0.32,0.0,0.0,0.32,0.08,0.08,0.08,0.32,189.89350160001777,189.89350160001777,189.89350160001777,189.89350160001777,189.89350160001777,189.89350160001777,189.89350160001777,189.89350160001777,189.88389627000436,0.7524623000063002,return,0.6222347000148147,,,,,,A,train_y,increasing,bottom_left,2024-10-30_14h29.44.252,HideSeek_v1,2022.2.5,59.79870561680909,
,4,6,4,1,0,-5,11,,train_dim1_1,28,30,2,0,2,0,,,,,,,,,0,0,0,0,0,27,27,27,1,0,1,0,,,,,,,,,,,,,,,,,,,,,,,,,,,,,,,,,,,,,,,,,,,,,,,,,,,,30,,,,,,,,192.70483420003438,192.70483420003438,192.70483420003438,192.70483420003438,192.70483420003438,down,0.16108809999423102,27,0,0,99,0.16,-0.08,down,0.09671529999468476,,,,,,,,,,,,,,,,,,,,,,,,,,,,,,,,,A,train_y,increasing,bottom_left,2024-10-30_14h29.44.252,HideSeek_v1,2022.2.5,59.79870561680909,
,4,6,4,1,0,-5,11,,train_dim1_1,28,30,2,0,2,0,,,,,,,,,0,0,0,0,0,27,27,27,2,0,2,0,,,,,,,,,,,,,,,,,,,,,,,,,,,,,,,,,,,,,,,,,,,,,,,,,,,,30,,,,,,,,192.87027210002998,192.87027210002998,192.87027210002998,192.87027210002998,192.87027210002998,down,0.1940576999913901,27,0,0,99,0.16,-0.16,down,0.11461610003607348,,,,,,,,,,,,,,,,,,,,,,,,,,,,,,,,,A,train_y,increasing,bottom_left,2024-10-30_14h29.44.252,HideSeek_v1,2022.2.5,59.79870561680909,
,4,6,4,1,0,-5,11,,train_dim1_1,28,30,2,0,2,0,,,,,,,,,0,0,0,0,0,27,27,27,3,0,3,0,,,,,,,,,,,,,,,,,,,,,,,,,,,,,,,,,,,,,,,,,,,,,,,,,,,,30,,,,,,,,193.072503900039,193.072503900039,193.072503900039,193.072503900039,193.072503900039,down,0.12821260001510382,27,0,0,99,0.16,-0.24,down,0.04814780002925545,,,,,,,,,,,,,,,,,,,,,,,,,,,,,,,,,A,train_y,increasing,bottom_left,2024-10-30_14h29.44.252,HideSeek_v1,2022.2.5,59.79870561680909,
,4,6,4,1,0,-5,11,,train_dim1_1,28,30,2,0,2,0,,,,,,,,,0,0,0,0,0,27,27,27,4,0,4,0,,,,,,,,,,,,,,,,,,,,,,,,,,,,,,,,,,,,,,,,,,,,,,,,,,,,30,,,,,,,,193.20632460003253,193.20632460003253,193.20632460003253,193.20632460003253,193.20632460003253,down,0.1283873999491334,27,0,0,99,0.16,-0.32,down,0.05327450000913814,,,,,,,,,,,,,,,,,,,,,,,,,,,,,,,,,A,train_y,increasing,bottom_left,2024-10-30_14h29.44.252,HideSeek_v1,2022.2.5,59.79870561680909,
,4,6,4,1,0,-5,11,,train_dim1_1,28,30,2,0,2,0,,,,,,,,,0,0,0,0,0,27,27,27,5,0,5,0,,,,,,,,,,,,,,,,,,,,,,,,,,,,,,,,,,,,,,,,,,,,,,,,,,,,30,,,,,,,,193.338932499988,193.338932499988,193.338932499988,193.338932499988,193.338932499988,return,0.3277663000044413,28,0,0,1,0.16,-0.32,return,0.2619412000058219,-67,0,0.16,-0.32,,,,,,,,,,,,,,,,,,,,,,,,,,,,,A,train_y,increasing,bottom_left,2024-10-30_14h29.44.252,HideSeek_v1,2022.2.5,59.79870561680909,
,2,7,2,3,0,-4,12,,train_dim1_1,29,30,2,0,2,0,,,,,,,,,0,0,0,0,0,28,28,28,0,0,0,0,,,,,,,,,,,,,stimuli/alien_stimuli/12.png,,,,,,,,,,,,,,,,,,,,,,,,,,,,,stimuli/alien_stimuli/11.png,11,4,30,,,,,,,30,,,,,,,,197.15789590001805,197.15789590001805,197.15789590001805,197.15789590001805,197.15789590001805,down,0.6252365999971516,28,0,0,99,0,0.08,down,0.5492123000440188,,,,,195.61704750003992,197.15789590001805,0.16,-0.32,0.4,0.0,-0.12,0.16,0.16,0.16,-0.32,195.2104163999902,195.2104163999902,195.2104163999902,195.2104163999902,195.2104163999902,195.2104163999902,195.2104163999902,195.2104163999902,195.20023874999606,0.4854765000054613,return,0.38290630001574755,,,,,,A,train_y,increasing,bottom_left,2024-10-30_14h29.44.252,HideSeek_v1,2022.2.5,59.79870561680909,
,2,7,2,3,0,-4,12,,train_dim1_1,29,30,2,0,2,0,,,,,,,,,0,0,0,0,0,28,28,28,1,0,1,0,,,,,,,,,,,,,,,,,,,,,,,,,,,,,,,,,,,,,,,,,,,,,,,,,,,,30,,,,,,,,197.78925560001517,197.78925560001517,197.78925560001517,197.78925560001517,197.78925560001517,down,0.12811529997270554,28,0,0,99,0,0.0,down,0.06049810000695288,,,,,,,,,,,,,,,,,,,,,,,,,,,,,,,,,A,train_y,increasing,bottom_left,2024-10-30_14h29.44.252,HideSeek_v1,2022.2.5,59.79870561680909,
,2,7,2,3,0,-4,12,,train_dim1_1,29,30,2,0,2,0,,,,,,,,,0,0,0,0,0,28,28,28,2,0,2,0,,,,,,,,,,,,,,,,,,,,,,,,,,,,,,,,,,,,,,,,,,,,,,,,,,,,30,,,,,,,,197.92118300002767,197.92118300002767,197.92118300002767,197.92118300002767,197.92118300002767,down,0.1605357999796979,28,0,0,99,0,-0.08,down,0.08771609998075292,,,,,,,,,,,,,,,,,,,,,,,,,,,,,,,,,A,train_y,increasing,bottom_left,2024-10-30_14h29.44.252,HideSeek_v1,2022.2.5,59.79870561680909,
,2,7,2,3,0,-4,12,,train_dim1_1,29,30,2,0,2,0,,,,,,,,,0,0,0,0,0,28,28,28,3,0,3,0,,,,,,,,,,,,,,,,,,,,,,,,,,,,,,,,,,,,,,,,,,,,,,,,,,,,30,,,,,,,,198.08631690003676,198.08631690003676,198.08631690003676,198.08631690003676,198.08631690003676,down,0.1447440999909304,28,0,0,99,0,-0.16,down,0.07820729998638853,,,,,,,,,,,,,,,,,,,,,,,,,,,,,,,,,A,train_y,increasing,bottom_left,2024-10-30_14h29.44.252,HideSeek_v1,2022.2.5,59.79870561680909,
,2,7,2,3,0,-4,12,,train_dim1_1,29,30,2,0,2,0,,,,,,,,,0,0,0,0,0,28,28,28,4,0,4,0,,,,,,,,,,,,,,,,,,,,,,,,,,,,,,,,,,,,,,,,,,,,,,,,,,,,30,,,,,,,,198.238757300016,198.238757300016,198.238757300016,198.238757300016,198.238757300016,return,0.21178539999527857,29,0,0,1,0,-0.16,return,0.12960179999936372,-71,0,0,-0.16,,,,,,,,,,,,,,,,,,,,,,,,,,,,,A,train_y,increasing,bottom_left,2024-10-30_14h29.44.252,HideSeek_v1,2022.2.5,59.79870561680909,
,0,6,0,5,0,-1,15,,train_dim1_1,30,30,2,0,2,0,,,,,,,,,0,0,0,0,0,29,29,29,0,0,0,0,,,,,,,,,,,,,stimuli/alien_stimuli/15.png,,,,,,,,,,,,,,,,,,,,,,,,,,,,,stimuli/alien_stimuli/12.png,12,2,31,,,,,,,30,,,,,,,,201.93975409999257,201.93975409999257,201.93975409999257,201.93975409999257,201.93975409999257,up,0.9254108999739401,29,0,0,99,-0.16,0.16,up,0.8515768000506796,,,,,200.40128280001227,201.93975409999257,0,-0.16,0.32,0.0,0.0,0,0.0,0,-0.16,199.9924849999952,199.9924849999952,199.9924849999952,199.9924849999952,199.9924849999952,199.9924849999952,199.9924849999952,199.9924849999952,199.9835975500464,0.487853400001768,return,0.3916476999875158,,,,,,A,train_y,increasing,bottom_left,2024-10-30_14h29.44.252,HideSeek_v1,2022.2.5,59.79870561680909,
,0,6,0,5,0,-1,15,,train_dim1_1,30,30,2,0,2,0,,,,,,,,,0,0,0,0,0,29,29,29,1,0,1,0,,,,,,,,,,,,,,,,,,,,,,,,,,,,,,,,,,,,,,,,,,,,,,,,,,,,30,,,,,,,,202.872640400019,202.872640400019,202.872640400019,202.872640400019,202.872640400019,down,0.8447351999930106,29,0,0,99,-0.16,0.08,down,0.765977600007318,,,,,,,,,,,,,,,,,,,,,,,,,,,,,,,,,A,train_y,increasing,bottom_left,2024-10-30_14h29.44.252,HideSeek_v1,2022.2.5,59.79870561680909,
,0,6,0,5,0,-1,15,,train_dim1_1,30,30,2,0,2,0,,,,,,,,,0,0,0,0,0,29,29,29,2,0,2,0,,,,,,,,,,,,,,,,,,,,,,,,,,,,,,,,,,,,,,,,,,,,,,,,,,,,30,,,,,,,,203.72112170001492,203.72112170001492,203.72112170001492,203.72112170001492,203.72112170001492,down,0.5947352999937721,29,0,0,99,-0.16,0.0,down,0.5302369999699295,,,,,,,,,,,,,,,,,,,,,,,,,,,,,,,,,A,train_y,increasing,bottom_left,2024-10-30_14h29.44.252,HideSeek_v1,2022.2.5,59.79870561680909,
,0,6,0,5,0,-1,15,,train_dim1_1,30,30,2,0,2,0,,,,,,,,,0,0,0,0,0,29,29,29,3,0,3,0,,,,,,,,,,,,,,,,,,,,,,,,,,,,,,,,,,,,,,,,,,,,,,,,,,,,30,,,,,,,,204.32009420002578,204.32009420002578,204.32009420002578,204.32009420002578,204.32009420002578,return,0.31153880001511425,30,0,0,1,-0.16,0.0,return,0.23158459999831393,-72,0,-0.16,0.0,,,,,,,,,,,,,,,,,,,,,,,,,,,,,A,train_y,increasing,bottom_left,2024-10-30_14h29.44.252,HideSeek_v1,2022.2.5,59.79870561680909,
,,,,,,,,,,,30,2,0,2,0,,,,,,,,,,,,,,,,,,,,,,,,,,,,,,,,,,,,,,,,,,,,,,,,,,,,,,,,,,,,,,stimuli/alien_stimuli/15.png,15,0,32,17,0.7,1.25,1,1,1,30,0,conditions/schedules/train_y_first/x_increasing_steps/bottom_left/inputTrain_2.1.xlsx,99,1,2,1,0,,,,,,,,,,,1,,,,,,,,,206.8174463000032,208.3544336000341,-0.16,0,0.08,0.0,0.04,-0.16,-0.16,-0.16,0,206.17285989999073,206.17285989999073,206.17285989999073,206.17285989999073,206.17285989999073,206.17285989999073,206.17285989999073,206.17285989999073,206.16722745003062,0.7188626999850385,return,0.6260459999903105,0,1.25,0,1,30,A,train_y,increasing,bottom_left,2024-10-30_14h29.44.252,HideSeek_v1,2022.2.5,59.79870561680909,
,,,,,,,,,,,,3,0,3,0,0,0,0,0,,,,,,,,,,,,,,,,,,,conditions/schedules/train_y_first/x_increasing_steps/bottom_left/instructions/Slide17.png,conditions/schedules/train_y_first/x_increasing_steps/bottom_left/instructions/Audio17.wav,208.3544336000341,208.35037453001715,17,"[2.725883800012525, 0.5725363999954425, 0.436855599982664, 0.3120436000172049, 0.31910860002972186, 0.3036191000137478, 0.3382985000498593, 0.2678806000039913, 0.3679675999446772, 0.3804247999796644, 0.46184409997658804, 0.5821017000125721, 0.864025600021705, 0.5826428000000305, 1.0415732000255957, 0.44836470001609996, 1.6946005999925546]","[0.01443819998530671, 0.03681779996259138, 0.02759640000294894, 0.052908900019247085, 0.05351710005197674, 0.03845839999848977, 0.33830820000730455, 0.014920699992217124, 0.06378189998213202, 0.14413470000727102, 0.047631499997805804, 0.5821093000122346, 0.06604740000329912, 0.5826495999936014, 0.047555800003465265, 0.44837110000662506, 1.69460839999374]",0,,,,,,,,,,,,,,,,,,,,,,,,,,,,,,,,,,,,,,,,,,,,,,,,,,,,,,,,,,,,,,,,,,,,,,,,,,,,,,,,,,,,,,,,,,,,,,,,,A,train_y,increasing,bottom_left,2024-10-30_14h29.44.252,HideSeek_v1,2022.2.5,59.79870561680909,
,,,,,,,,,,,,3,0,3,0,1,0,1,0,,,,,,,,,,,,,,,,,,,conditions/schedules/train_y_first/x_increasing_steps/bottom_left/instructions/Slide18.png,conditions/schedules/train_y_first/x_increasing_steps/bottom_left/instructions/Audio18.wav,210.10311740002362,210.1006558399997,18,"[2.725883800012525, 0.5725363999954425, 0.436855599982664, 0.3120436000172049, 0.31910860002972186, 0.3036191000137478, 0.3382985000498593, 0.2678806000039913, 0.3679675999446772, 0.3804247999796644, 0.46184409997658804, 0.5821017000125721, 0.864025600021705, 0.5826428000000305, 1.0415732000255957, 0.44836470001609996, 1.6946005999925546, 0.6126538999960758]","[0.01443819998530671, 0.03681779996259138, 0.02759640000294894, 0.052908900019247085, 0.05351710005197674, 0.03845839999848977, 0.33830820000730455, 0.014920699992217124, 0.06378189998213202, 0.14413470000727102, 0.047631499997805804, 0.5821093000122346, 0.06604740000329912, 0.5826495999936014, 0.047555800003465265, 0.44837110000662506, 0.16265469999052584, 0.6126614999957383]",0,,,,,,,,,,,,,,,,,,,,,,,,,,,,,,,,,,,,,,,,,,,,,,,,,,,,,,,,,,,,,,,,,,,,,,,,,,,,,,,,,,,,,,,,,,,,,,,,,A,train_y,increasing,bottom_left,2024-10-30_14h29.44.252,HideSeek_v1,2022.2.5,59.79870561680909,
,,,,,,,,,,,,3,0,3,0,2,0,2,0,,,,,,,,,,,,,,,,,,,conditions/schedules/train_y_first/x_increasing_steps/bottom_left/instructions/Slide19.png,conditions/schedules/train_y_first/x_increasing_steps/bottom_left/instructions/Audio19.wav,210.7711636000313,210.76746694003234,19,"[2.725883800012525, 0.5725363999954425, 0.436855599982664, 0.3120436000172049, 0.31910860002972186, 0.3036191000137478, 0.3382985000498593, 0.2678806000039913, 0.3679675999446772, 0.3804247999796644, 0.46184409997658804, 0.5821017000125721, 0.864025600021705, 0.5826428000000305, 1.0415732000255957, 0.44836470001609996, 1.6946005999925546, 0.6126538999960758, 1.0949373000185005]","[0.01443819998530671, 0.03681779996259138, 0.02759640000294894, 0.052908900019247085, 0.05351710005197674, 0.03845839999848977, 0.33830820000730455, 0.014920699992217124, 0.06378189998213202, 0.14413470000727102, 0.047631499997805804, 0.5821093000122346, 0.06604740000329912, 0.5826495999936014, 0.047555800003465265, 0.44837110000662506, 0.16265469999052584, 0.14497740002116188, 1.094944900018163]",0,,,,,,,,,,,,,,,,,,,,,,,,,,,,,,,,,,,,,,,,,,,,,,,,,,,,,,,,,,,,,,,,,,,,,,,,,,,,,,,,,,,,,,,,,,,,,,,,,A,train_y,increasing,bottom_left,2024-10-30_14h29.44.252,HideSeek_v1,2022.2.5,59.79870561680909,
,,,,,,,,,,,,3,0,3,0,3,0,3,0,,,,,,,,,,,,,,,,,,,conditions/schedules/train_y_first/x_increasing_steps/bottom_left/instructions/Slide20.png,conditions/schedules/train_y_first/x_increasing_steps/bottom_left/instructions/Audio20.wav,211.91352190001635,211.90044202999562,20,"[2.725883800012525, 0.5725363999954425, 0.436855599982664, 0.3120436000172049, 0.31910860002972186, 0.3036191000137478, 0.3382985000498593, 0.2678806000039913, 0.3679675999446772, 0.3804247999796644, 0.46184409997658804, 0.5821017000125721, 0.864025600021705, 0.5826428000000305, 1.0415732000255957, 0.44836470001609996, 1.6946005999925546, 0.6126538999960758, 1.0949373000185005, 0.6375211999984458]","[0.01443819998530671, 0.03681779996259138, 0.02759640000294894, 0.052908900019247085, 0.05351710005197674, 0.03845839999848977, 0.33830820000730455, 0.014920699992217124, 0.06378189998213202, 0.14413470000727102, 0.047631499997805804, 0.5821093000122346, 0.06604740000329912, 0.5826495999936014, 0.047555800003465265, 0.44837110000662506, 0.16265469999052584, 0.14497740002116188, 0.15284340002108365, 0.6375289999996312]",0,,,,,,,,,,,,,,,,,,,,,,,,,,,,,,,,,,,,,,,,,,,,,,,,,,,,,,,,,,,,,,,,,,,,,,,,,,,,,,,,,,,,,,,,,,,,,,,,,A,train_y,increasing,bottom_left,2024-10-30_14h29.44.252,HideSeek_v1,2022.2.5,59.79870561680909,
1,3,7,8,7,5,0,66,2,instr_dim1_2,,,3,0,3,0,,,,,0,0,0,0,,,,,,,,,,,,,,,,,,,,,,,,,stimuli/alien_stimuli/66.png,conditions/schedules/train_y_first/x_increasing_steps/bottom_left/inputInstr_2.xlsx,stimuli/alien_stimuli/66.png,212.65818510000827,212.65818510000827,212.65818510000827,212.65818510000827,212.61711315004504,return,1.6440972999553196,"[-0.16, -0.08, 0, 0.08, 0.16, 0.24, 0.32, 0.4, 0.48, 0.56]","[-0.4, -0.32, -0.24, -0.16, -0.08, 0, 0.08, 0.16, 0.24, 0.32]",7,7,8,3,0.0,0.4,214.48429590003798,214.48429590003798,214.48429590003798,214.48429590003798,214.48429590003798,214.48429590003798,214.48429590003798,214.41695306003095,0.43378110002959147,return,0.26004439999815077,stimuli/alien_stimuli/66.png,66,3,1,,,,,,,,,,,,,,,,,,,,,,,,,,,,,,,,,,,,,,,,,,,,,,,,,,,,,,,,,,,,,,A,train_y,increasing,bottom_left,2024-10-30_14h29.44.252,HideSeek_v1,2022.2.5,59.79870561680909,
,,,,,,,,,,,30,3,0,3,0,,,,,,,,,,,,,,,,,,,,,,,,,,,,,,,,,,,,,,,,,,,,,,,,,,,,,,,,,,,,,,,,,,17,0.7,1.25,1,99,2,30,0,conditions/schedules/train_y_first/x_increasing_steps/bottom_left/inputTrain_2.1.xlsx,99,1,2,1,0,,,,,,,,,,,,,,,,,,,,,,,,,,,,,,,,,,,,,,,,,,,,,,,,A,train_y,increasing,bottom_left,2024-10-30_14h29.44.252,HideSeek_v1,2022.2.5,59.79870561680909,
,,,,,,,,,,,,4,0,4,0,0,0,0,0,,,,,,,,,,,,,,,,,,,conditions/schedules/train_y_first/x_increasing_steps/bottom_left/instructions/Slide21.png,conditions/schedules/train_y_first/x_increasing_steps/bottom_left/instructions/Audio21.wav,214.8850559000275,214.88323017999065,21,"[2.725883800012525, 0.5725363999954425, 0.436855599982664, 0.3120436000172049, 0.31910860002972186, 0.3036191000137478, 0.3382985000498593, 0.2678806000039913, 0.3679675999446772, 0.3804247999796644, 0.46184409997658804, 0.5821017000125721, 0.864025600021705, 0.5826428000000305, 1.0415732000255957, 0.44836470001609996, 1.6946005999925546, 0.6126538999960758, 1.0949373000185005, 0.6375211999984458, 0.7328856000094675]","[0.01443819998530671, 0.03681779996259138, 0.02759640000294894, 0.052908900019247085, 0.05351710005197674, 0.03845839999848977, 0.33830820000730455, 0.014920699992217124, 0.06378189998213202, 0.14413470000727102, 0.047631499997805804, 0.5821093000122346, 0.06604740000329912, 0.5826495999936014, 0.047555800003465265, 0.44837110000662506, 0.16265469999052584, 0.14497740002116188, 0.15284340002108365, 0.6375289999996312, 0.7328912999946624]",0,,,,,,,,,,,,,,,,,,,,,,,,,,,,,,,,,,,,,,,,,,,,,,,,,,,,,,,,,,,,,,,,,,,,,,,,,,,,,,,,,,,,,,,,,,,,,,,,,A,train_y,increasing,bottom_left,2024-10-30_14h29.44.252,HideSeek_v1,2022.2.5,59.79870561680909,
2,4,5,4,5,0,0,16,2,instr_dim1_2,,,4,0,4,0,,,,,0,0,0,0,,,,,,,,,,,,,,,,,,,,,,,,,stimuli/alien_stimuli/16.png,conditions/schedules/train_y_first/x_increasing_steps/bottom_left/inputInstr_2.xlsx,stimuli/alien_stimuli/16.png,215.69727270002477,215.69727270002477,215.69727270002477,215.69727270002477,215.66733354002938,return,0.7064648000523448,"[-0.16, -0.08, 0, 0.08, 0.16, 0.24, 0.32, 0.4, 0.48, 0.56]","[-0.4, -0.32, -0.24, -0.16, -0.08, 0, 0.08, 0.16, 0.24, 0.32]",5,5,4,4,0.0,0.0,216.5676784000243,216.5676784000243,216.5676784000243,216.5676784000243,216.5676784000243,216.5676784000243,216.5676784000243,216.51695486002137,0.45112930005416274,return,0.2933352999971248,stimuli/alien_stimuli/16.png,16,4,2,,,,,,,,,,,,,,,,,,,,,,,,,,,,,,,,,,,,,,,,,,,,,,,,,,,,,,,,,,,,,,A,train_y,increasing,bottom_left,2024-10-30_14h29.44.252,HideSeek_v1,2022.2.5,59.79870561680909,
,,,,,,,,,,,30,4,0,4,0,,,,,,,,,,,,,,,,,,,,,,,,,,,,,,,,,,,,,,,,,,,,,,,,,,,,,,,,,,,,,,,,,,17,0.7,1.25,1,99,2,30,0,conditions/schedules/train_y_first/x_increasing_steps/bottom_left/inputTrain_2.1.xlsx,99,1,2,1,0,,,,,,,,,,,,,,,,,,,,,,,,,,,,,,,,,,,,,,,,,,,,,,,,A,train_y,increasing,bottom_left,2024-10-30_14h29.44.252,HideSeek_v1,2022.2.5,59.79870561680909,
,,,,,,,,,,,,5,0,5,0,0,0,0,0,,,,,,,,,,,,,,,,,,,conditions/schedules/train_y_first/x_increasing_steps/bottom_left/instructions/Slide22.png,conditions/schedules/train_y_first/x_increasing_steps/bottom_left/instructions/Audio22.wav,216.9946141000255,216.9835914700467,22,"[2.725883800012525, 0.5725363999954425, 0.436855599982664, 0.3120436000172049, 0.31910860002972186, 0.3036191000137478, 0.3382985000498593, 0.2678806000039913, 0.3679675999446772, 0.3804247999796644, 0.46184409997658804, 0.5821017000125721, 0.864025600021705, 0.5826428000000305, 1.0415732000255957, 0.44836470001609996, 1.6946005999925546, 0.6126538999960758, 1.0949373000185005, 0.6375211999984458, 0.7328856000094675, 1.0518805999890901]","[0.01443819998530671, 0.03681779996259138, 0.02759640000294894, 0.052908900019247085, 0.05351710005197674, 0.03845839999848977, 0.33830820000730455, 0.014920699992217124, 0.06378189998213202, 0.14413470000727102, 0.047631499997805804, 0.5821093000122346, 0.06604740000329912, 0.5826495999936014, 0.047555800003465265, 0.44837110000662506, 0.16265469999052584, 0.14497740002116188, 0.15284340002108365, 0.6375289999996312, 0.7328912999946624, 1.0518877999857068]",0,,,,,,,,,,,,,,,,,,,,,,,,,,,,,,,,,,,,,,,,,,,,,,,,,,,,,,,,,,,,,,,,,,,,,,,,,,,,,,,,,,,,,,,,,,,,,,,,,A,train_y,increasing,bottom_left,2024-10-30_14h29.44.252,HideSeek_v1,2022.2.5,59.79870561680909,
,2,6,4,6,2,0,36,,train_dim1_2,1,30,5,0,5,0,,,,,,,,,0,0,0,0,0,0,0,0,0,0,0,0,,,,,,,,,,,,,stimuli/alien_stimuli/36.png,,,,,,,,,,,,,,,,,,,,,,,,,,,,,,,,,,,,,,,30,,,,,,,,218.12907870003255,218.12907870003255,218.12907870003255,218.12907870003255,218.12907870003255,right,2.8572926000342704,0,0,0,99,0.08,0.08,right,2.760252300009597,,,,,,,,,,,,,,,,,,,,,,,,,,,,,,,,,A,train_y,increasing,bottom_left,2024-10-30_14h29.44.252,HideSeek_v1,2022.2.5,59.79870561680909,
,2,6,4,6,2,0,36,,train_dim1_2,1,30,5,0,5,0,,,,,,,,,0,0,0,0,0,0,0,0,1,0,1,0,,,,,,,,,,,,,,,,,,,,,,,,,,,,,,,,,,,,,,,,,,,,,,,,,,,,30,,,,,,,,220.9840850000037,220.9840850000037,220.9840850000037,220.9840850000037,220.9840850000037,right,0.11068769998382777,0,0,0,99,0.16,0.08,right,0.02372200001263991,,,,,,,,,,,,,,,,,,,,,,,,,,,,,,,,,A,train_y,increasing,bottom_left,2024-10-30_14h29.44.252,HideSeek_v1,2022.2.5,59.79870561680909,
,2,6,4,6,2,0,36,,train_dim1_2,1,30,5,0,5,0,,,,,,,,,0,0,0,0,0,0,0,0,2,0,2,0,,,,,,,,,,,,,,,,,,,,,,,,,,,,,,,,,,,,,,,,,,,,,,,,,,,,30,,,,,,,,221.08264820004115,221.08264820004115,221.08264820004115,221.08264820004115,221.08264820004115,return,0.29508319997694343,1,0,0,1,0.16,0.08,return,0.2267357999808155,-72,2,0.16,0.08,,,,,,,,,,,,,,,,,,,,,,,,,,,,,A,train_y,increasing,bottom_left,2024-10-30_14h29.44.252,HideSeek_v1,2022.2.5,59.79870561680909,
,2,9,2,9,0,0,16,,train_dim1_2,2,30,5,0,5,0,,,,,,,,,0,0,0,0,0,1,1,1,0,0,0,0,,,,,,,,,,,,,stimuli/alien_stimuli/16.png,,,,,,,,,,,,,,,,,,,,,,,,,,,,,stimuli/alien_stimuli/36.png,36,2,3,,,,,,,30,,,,,,,,225.05810950003797,225.05810950003797,225.05810950003797,225.05810950003797,225.05810950003797,return,2.3762222999939695,2,0,0,1,0,0.32,return,2.279115699988324,-72,2,0,0.32,223.50011289998656,225.05810950003797,0.16,0.08,0.0,0.16,0.08,0.16,0.08,0.16,0.08,222.96517350000795,222.96517350000795,222.96517350000795,222.96517350000795,222.96517350000795,222.96517350000795,222.96517350000795,222.96517350000795,222.91685634999885,0.6528349000145681,return,0.5038700000150129,,,,,,A,train_y,increasing,bottom_left,2024-10-30_14h29.44.252,HideSeek_v1,2022.2.5,59.79870561680909,
,4,9,5,9,1,0,26,,train_dim1_2,3,30,5,0,5,0,,,,,,,,,0,0,0,0,0,2,2,2,0,0,0,0,,,,,,,,,,,,,stimuli/alien_stimuli/26.png,,,,,,,,,,,,,,,,,,,,,,,,,,,,,stimuli/alien_stimuli/16.png,16,2,4,,,,,,,30,,,,,,,,230.85856289998628,230.85856289998628,230.85856289998628,230.85856289998628,230.85856289998628,right,1.5077933999709785,2,0,0,99,0.24,0.32,right,1.4003862000536174,,,,,229.28335019998485,230.85856289998628,0,0.32,0.0,0.0,0.32,0,0.0,0,0.32,229.00078559998656,229.00078559998656,229.00078559998656,229.00078559998656,229.00078559998656,229.00078559998656,229.00078559998656,229.00078559998656,228.9504182500241,0.4020186999696307,return,0.26240880001569167,,,,,,A,train_y,increasing,bottom_left,2024-10-30_14h29.44.252,HideSeek_v1,2022.2.5,59.79870561680909,
,4,9,5,9,1,0,26,,train_dim1_2,3,30,5,0,5,0,,,,,,,,,0,0,0,0,0,2,2,2,1,0,1,0,,,,,,,,,,,,,,,,,,,,,,,,,,,,,,,,,,,,,,,,,,,,,,,,,,,,30,,,,,,,,232.33632679999573,232.33632679999573,232.33632679999573,232.33632679999573,232.33632679999573,return,0.24426370003493503,3,0,0,1,0.24,0.32,return,0.17898070003138855,-72,3,0.24,0.32,,,,,,,,,,,,,,,,,,,,,,,,,,,,,A,train_y,increasing,bottom_left,2024-10-30_14h29.44.252,HideSeek_v1,2022.2.5,59.79870561680909,
,2,8,5,8,3,0,46,,train_dim1_2,4,30,5,0,5,0,,,,,,,,,0,0,0,0,0,3,3,3,0,0,0,0,,,,,,,,,,,,,stimuli/alien_stimuli/46.png,,,,,,,,,,,,,,,,,,,,,,,,,,,,,stimuli/alien_stimuli/26.png,26,4,5,,,,,,,30,,,,,,,,236.03276090003783,236.03276090003783,236.03276090003783,236.03276090003783,236.03276090003783,right,1.3087652000249363,3,0,0,99,0.08,0.24,right,1.2136743000010028,,,,,234.4672916000127,236.03276090003783,0.24,0.32,0.0,0.08,0.32,0.24,0.2,0.24,0.32,234.18380880000768,234.18380880000768,234.18380880000768,234.18380880000768,234.18380880000768,234.18380880000768,234.18380880000768,234.18380880000768,234.11662185002933,0.41849439998622984,return,0.2625180999748409,,,,,,A,train_y,increasing,bottom_left,2024-10-30_14h29.44.252,HideSeek_v1,2022.2.5,59.79870561680909,
,2,8,5,8,3,0,46,,train_dim1_2,4,30,5,0,5,0,,,,,,,,,0,0,0,0,0,3,3,3,1,0,1,0,,,,,,,,,,,,,,,,,,,,,,,,,,,,,,,,,,,,,,,,,,,,,,,,,,,,30,,,,,,,,237.31863290001638,237.31863290001638,237.31863290001638,237.31863290001638,237.31863290001638,right,0.344434899976477,3,0,0,99,0.16,0.24,right,0.28052189998561516,,,,,,,,,,,,,,,,,,,,,,,,,,,,,,,,,A,train_y,increasing,bottom_left,2024-10-30_14h29.44.252,HideSeek_v1,2022.2.5,59.79870561680909,
,2,8,5,8,3,0,46,,train_dim1_2,4,30,5,0,5,0,,,,,,,,,0,0,0,0,0,3,3,3,2,0,2,0,,,,,,,,,,,,,,,,,,,,,,,,,,,,,,,,,,,,,,,,,,,,,,,,,,,,30,,,,,,,,237.66733820002992,237.66733820002992,237.66733820002992,237.66733820002992,237.66733820002992,right,0.5940290000289679,3,0,0,99,0.24,0.24,right,0.5229074999806471,,,,,,,,,,,,,,,,,,,,,,,,,,,,,,,,,A,train_y,increasing,bottom_left,2024-10-30_14h29.44.252,HideSeek_v1,2022.2.5,59.79870561680909,
,2,8,5,8,3,0,46,,train_dim1_2,4,30,5,0,5,0,,,,,,,,,0,0,0,0,0,3,3,3,3,0,3,0,,,,,,,,,,,,,,,,,,,,,,,,,,,,,,,,,,,,,,,,,,,,,,,,,,,,30,,,,,,,,238.2670533999917,238.2670533999917,238.2670533999917,238.2670533999917,238.2670533999917,return,0.34497850004117936,4,0,0,1,0.24,0.24,return,0.26821189996553585,-72,6,0.24,0.24,,,,,,,,,,,,,,,,,,,,,,,,,,,,,A,train_y,increasing,bottom_left,2024-10-30_14h29.44.252,HideSeek_v1,2022.2.5,59.79870561680909,
,0,7,5,7,5,0,66,,train_dim1_2,5,30,5,0,5,0,,,,,,,,,0,0,0,0,0,4,4,4,0,0,0,0,,,,,,,,,,,,,stimuli/alien_stimuli/66.png,,,,,,,,,,,,,,,,,,,,,,,,,,,,,stimuli/alien_stimuli/46.png,46,2,6,,,,,,,30,,,,,,,,242.44800580001902,242.44800580001902,242.44800580001902,242.44800580001902,242.44800580001902,right,1.1248698999988846,4,0,0,99,-0.08,0.16,right,1.034118200012017,,,,,240.88367170002311,242.44800580001902,0.24,0.24,0.0,0.24,0.24,0.24,0.12,0.24,0.24,240.2179741000291,240.2179741000291,240.2179741000291,240.2179741000291,240.2179741000291,240.2179741000291,240.2179741000291,240.2179741000291,240.16671006004327,0.8018013999680988,return,0.6331231000367552,,,,,,A,train_y,increasing,bottom_left,2024-10-30_14h29.44.252,HideSeek_v1,2022.2.5,59.79870561680909,
,0,7,5,7,5,0,66,,train_dim1_2,5,30,5,0,5,0,,,,,,,,,0,0,0,0,0,4,4,4,1,0,1,0,,,,,,,,,,,,,,,,,,,,,,,,,,,,,,,,,,,,,,,,,,,,,,,,,,,,30,,,,,,,,243.58441730000777,243.58441730000777,243.58441730000777,243.58441730000777,243.58441730000777,right,0.22776179999345914,4,0,0,99,0.0,0.16,right,0.12718360003782436,,,,,,,,,,,,,,,,,,,,,,,,,,,,,,,,,A,train_y,increasing,bottom_left,2024-10-30_14h29.44.252,HideSeek_v1,2022.2.5,59.79870561680909,
,0,7,5,7,5,0,66,,train_dim1_2,5,30,5,0,5,0,,,,,,,,,0,0,0,0,0,4,4,4,2,0,2,0,,,,,,,,,,,,,,,,,,,,,,,,,,,,,,,,,,,,,,,,,,,,,,,,,,,,30,,,,,,,,243.78804840001976,243.78804840001976,243.78804840001976,243.78804840001976,243.78804840001976,right,0.1946864000055939,4,0,0,99,0.08,0.16,right,0.12618510000174865,,,,,,,,,,,,,,,,,,,,,,,,,,,,,,,,,A,train_y,increasing,bottom_left,2024-10-30_14h29.44.252,HideSeek_v1,2022.2.5,59.79870561680909,
,0,7,5,7,5,0,66,,train_dim1_2,5,30,5,0,5,0,,,,,,,,,0,0,0,0,0,4,4,4,3,0,3,0,,,,,,,,,,,,,,,,,,,,,,,,,,,,,,,,,,,,,,,,,,,,,,,,,,,,30,,,,,,,,243.98990909999702,243.98990909999702,243.98990909999702,243.98990909999702,243.98990909999702,right,0.21111470001051202,4,0,0,99,0.16,0.16,right,0.1368590000201948,,,,,,,,,,,,,,,,,,,,,,,,,,,,,,,,,A,train_y,increasing,bottom_left,2024-10-30_14h29.44.252,HideSeek_v1,2022.2.5,59.79870561680909,
,0,7,5,7,5,0,66,,train_dim1_2,5,30,5,0,5,0,,,,,,,,,0,0,0,0,0,4,4,4,4,0,4,0,,,,,,,,,,,,,,,,,,,,,,,,,,,,,,,,,,,,,,,,,,,,,,,,,,,,30,,,,,,,,244.2071833999944,244.2071833999944,244.2071833999944,244.2071833999944,244.2071833999944,right,0.1948046999750659,4,0,0,99,0.24,0.16,right,0.12513139995280653,,,,,,,,,,,,,,,,,,,,,,,,,,,,,,,,,A,train_y,increasing,bottom_left,2024-10-30_14h29.44.252,HideSeek_v1,2022.2.5,59.79870561680909,
,0,7,5,7,5,0,66,,train_dim1_2,5,30,5,0,5,0,,,,,,,,,0,0,0,0,0,4,4,4,5,0,5,0,,,,,,,,,,,,,,,,,,,,,,,,,,,,,,,,,,,,,,,,,,,,,,,,,,,,30,,,,,,,,244.40619320003316,244.40619320003316,244.40619320003316,244.40619320003316,244.40619320003316,return,0.26122190000023693,5,0,0,1,0.24,0.16,return,0.1847198000177741,-72,11,0.24,0.16,,,,,,,,,,,,,,,,,,,,,,,,,,,,,A,train_y,increasing,bottom_left,2024-10-30_14h29.44.252,HideSeek_v1,2022.2.5,59.79870561680909,
,0,5,1,5,1,0,26,,train_dim1_2,6,30,5,0,5,0,,,,,,,,,0,0,0,0,0,5,5,5,0,0,0,0,,,,,,,,,,,,,stimuli/alien_stimuli/26.png,,,,,,,,,,,,,,,,,,,,,,,,,,,,,stimuli/alien_stimuli/66.png,66,0,7,,,,,,,30,,,,,,,,249.21691750001628,249.21691750001628,249.21691750001628,249.21691750001628,249.21691750001628,right,0.6084242999786511,5,0,0,99,-0.08,0,right,0.4386915999930352,,,,,247.58358590002172,249.21691750001628,0.24,0.16,0.0,0.4,0.16,0.24,0.039999999999999994,0.24,0.16,246.28625260002445,246.28625260002445,246.28625260002445,246.28625260002445,246.28625260002445,246.28625260002445,246.28625260002445,246.28625260002445,246.23327197000037,1.451972000009846,return,1.2694288999773562,,,,,,A,train_y,increasing,bottom_left,2024-10-30_14h29.44.252,HideSeek_v1,2022.2.5,59.79870561680909,
,0,5,1,5,1,0,26,,train_dim1_2,6,30,5,0,5,0,,,,,,,,,0,0,0,0,0,5,5,5,1,0,1,0,,,,,,,,,,,,,,,,,,,,,,,,,,,,,,,,,,,,,,,,,,,,,,,,,,,,30,,,,,,,,249.73674140003277,249.73674140003277,249.73674140003277,249.73674140003277,249.73674140003277,return,0.477262599975802,6,0,0,1,-0.08,0,return,0.4102664000238292,-72,12,-0.08,0,,,,,,,,,,,,,,,,,,,,,,,,,,,,,A,train_y,increasing,bottom_left,2024-10-30_14h29.44.252,HideSeek_v1,2022.2.5,59.79870561680909,
,3,5,8,5,5,0,66,,train_dim1_2,7,30,5,0,5,0,,,,,,,,,0,0,0,0,0,6,6,6,0,0,0,0,,,,,,,,,,,,,stimuli/alien_stimuli/66.png,,,,,,,,,,,,,,,,,,,,,,,,,,,,,stimuli/alien_stimuli/26.png,26,0,8,,,,,,,30,,,,,,,,254.18208120000781,254.18208120000781,254.18208120000781,254.18208120000781,254.18208120000781,right,0.6086008999845944,6,0,0,99,0.16,0,right,0.5125664999941364,,,,,252.61653649999062,254.18208120000781,-0.08,0,0.0,0.08,0.0,-0.08,-0.12,-0.08,0,251.8351030999911,251.8351030999911,251.8351030999911,251.8351030999911,251.8351030999911,251.8351030999911,251.8351030999911,251.8351030999911,251.7835219700297,0.9350283000385389,return,0.7589492999832146,,,,,,A,train_y,increasing,bottom_left,2024-10-30_14h29.44.252,HideSeek_v1,2022.2.5,59.79870561680909,
,3,5,8,5,5,0,66,,train_dim1_2,7,30,5,0,5,0,,,,,,,,,0,0,0,0,0,6,6,6,1,0,1,0,,,,,,,,,,,,,,,,,,,,,,,,,,,,,,,,,,,,,,,,,,,,,,,,,,,,30,,,,,,,,254.77339500002563,254.77339500002563,254.77339500002563,254.77339500002563,254.77339500002563,right,0.21043289999943227,6,0,0,99,0.24,0,right,0.13991000002715737,,,,,,,,,,,,,,,,,,,,,,,,,,,,,,,,,A,train_y,increasing,bottom_left,2024-10-30_14h29.44.252,HideSeek_v1,2022.2.5,59.79870561680909,
,3,5,8,5,5,0,66,,train_dim1_2,7,30,5,0,5,0,,,,,,,,,0,0,0,0,0,6,6,6,2,0,2,0,,,,,,,,,,,,,,,,,,,,,,,,,,,,,,,,,,,,,,,,,,,,,,,,,,,,30,,,,,,,,254.98705580004025,254.98705580004025,254.98705580004025,254.98705580004025,254.98705580004025,right,0.24510970001574606,6,0,0,99,0.32,0,right,0.17516780004370958,,,,,,,,,,,,,,,,,,,,,,,,,,,,,,,,,A,train_y,increasing,bottom_left,2024-10-30_14h29.44.252,HideSeek_v1,2022.2.5,59.79870561680909,
,3,5,8,5,5,0,66,,train_dim1_2,7,30,5,0,5,0,,,,,,,,,0,0,0,0,0,6,6,6,3,0,3,0,,,,,,,,,,,,,,,,,,,,,,,,,,,,,,,,,,,,,,,,,,,,,,,,,,,,30,,,,,,,,255.23748479998903,255.23748479998903,255.23748479998903,255.23748479998903,255.23748479998903,right,0.21127819997491315,6,0,0,99,0.4,0,right,0.14210329996421933,,,,,,,,,,,,,,,,,,,,,,,,,,,,,,,,,A,train_y,increasing,bottom_left,2024-10-30_14h29.44.252,HideSeek_v1,2022.2.5,59.79870561680909,
,3,5,8,5,5,0,66,,train_dim1_2,7,30,5,0,5,0,,,,,,,,,0,0,0,0,0,6,6,6,4,0,4,0,,,,,,,,,,,,,,,,,,,,,,,,,,,,,,,,,,,,,,,,,,,,,,,,,,,,30,,,,,,,,255.45408120000502,255.45408120000502,255.45408120000502,255.45408120000502,255.45408120000502,right,0.1950451000011526,6,0,0,99,0.48000000000000004,0,right,0.12890630000038072,,,,,,,,,,,,,,,,,,,,,,,,,,,,,,,,,A,train_y,increasing,bottom_left,2024-10-30_14h29.44.252,HideSeek_v1,2022.2.5,59.79870561680909,
,3,5,8,5,5,0,66,,train_dim1_2,7,30,5,0,5,0,,,,,,,,,0,0,0,0,0,6,6,6,5,0,5,0,,,,,,,,,,,,,,,,,,,,,,,,,,,,,,,,,,,,,,,,,,,,,,,,,,,,30,,,,,,,,255.65547180001158,255.65547180001158,255.65547180001158,255.65547180001158,255.65547180001158,return,0.19413060002261773,7,0,0,1,0.48000000000000004,0,return,0.1241992999566719,-72,17,0.48000000000000004,0,,,,,,,,,,,,,,,,,,,,,,,,,,,,,A,train_y,increasing,bottom_left,2024-10-30_14h29.44.252,HideSeek_v1,2022.2.5,59.79870561680909,
,0,9,2,9,2,0,36,,train_dim1_2,8,30,5,0,5,0,,,,,,,,,0,0,0,0,0,7,7,7,0,0,0,0,,,,,,,,,,,,,stimuli/alien_stimuli/36.png,,,,,,,,,,,,,,,,,,,,,,,,,,,,,stimuli/alien_stimuli/66.png,66,3,9,,,,,,,30,,,,,,,,259.70004780002637,259.70004780002637,259.70004780002637,259.70004780002637,259.70004780002637,right,0.858064700034447,7,0,0,99,-0.08,0.32,right,0.7544065999682061,,,,,258.1332422000123,259.70004780002637,0.48,0,0.0,0.4,0.0,0.48,0.27999999999999997,0.48,0,257.43638870003633,257.43638870003633,257.43638870003633,257.43638870003633,257.43638870003633,257.43638870003633,257.43638870003633,257.43638870003633,257.3834099500382,0.8186415999662131,return,0.6788720000186004,,,,,,A,train_y,increasing,bottom_left,2024-10-30_14h29.44.252,HideSeek_v1,2022.2.5,59.79870561680909,
,0,9,2,9,2,0,36,,train_dim1_2,8,30,5,0,5,0,,,,,,,,,0,0,0,0,0,7,7,7,1,0,1,0,,,,,,,,,,,,,,,,,,,,,,,,,,,,,,,,,,,,,,,,,,,,,,,,,,,,30,,,,,,,,260.5378038000199,260.5378038000199,260.5378038000199,260.5378038000199,260.5378038000199,right,0.5607556999893859,7,0,0,99,0.0,0.32,right,0.48878310003783554,,,,,,,,,,,,,,,,,,,,,,,,,,,,,,,,,A,train_y,increasing,bottom_left,2024-10-30_14h29.44.252,HideSeek_v1,2022.2.5,59.79870561680909,
,0,9,2,9,2,0,36,,train_dim1_2,8,30,5,0,5,0,,,,,,,,,0,0,0,0,0,7,7,7,2,0,2,0,,,,,,,,,,,,,,,,,,,,,,,,,,,,,,,,,,,,,,,,,,,,,,,,,,,,30,,,,,,,,261.09930780000286,261.09930780000286,261.09930780000286,261.09930780000286,261.09930780000286,return,2.2448391999932937,8,0,0,1,0.0,0.32,return,2.181589499989059,-72,19,0.0,0.32,,,,,,,,,,,,,,,,,,,,,,,,,,,,,A,train_y,increasing,bottom_left,2024-10-30_14h29.44.252,HideSeek_v1,2022.2.5,59.79870561680909,
,1,5,4,5,3,0,46,,train_dim1_2,9,30,5,0,5,0,,,,,,,,,0,0,0,0,0,8,8,8,0,0,0,0,,,,,,,,,,,,,stimuli/alien_stimuli/46.png,,,,,,,,,,,,,,,,,,,,,,,,,,,,,stimuli/alien_stimuli/36.png,36,0,10,,,,,,,30,,,,,,,,266.89016850001644,266.89016850001644,266.89016850001644,266.89016850001644,266.89016850001644,right,4.508040499989875,8,0,0,99,0.0,0,right,4.418865300016478,,,,,265.3331021000049,266.89016850001644,0,0.32,0.0,0.16,0.32,0,-0.08,0,0.32,264.92310180002823,264.92310180002823,264.92310180002823,264.92310180002823,264.92310180002823,264.92310180002823,264.92310180002823,264.92310180002823,264.8664844400366,0.5192164999898523,return,0.3934700000099838,,,,,,A,train_y,increasing,bottom_left,2024-10-30_14h29.44.252,HideSeek_v1,2022.2.5,59.79870561680909,
