trialInstr,x_fixStart,y_fixStart,x_corrSteps,y_corrSteps,x_nrSteps,y_nrSteps,alienID,trialLength,version,trialTrain,praclen,testlen,trial_label,beforeExpLoop.thisRepN,beforeExpLoop.thisTrialN,beforeExpLoop.thisN,beforeExpLoop.thisIndex,mini_instr_trials.thisRepN,mini_instr_trials.thisTrialN,mini_instr_trials.thisN,mini_instr_trials.thisIndex,instrLoop.thisRepN,instrLoop.thisTrialN,instrLoop.thisN,instrLoop.thisIndex,repeat_prac.thisRepN,repeat_prac.thisTrialN,repeat_prac.thisN,repeat_prac.thisIndex,trainLoop.thisRepN,trainLoop.thisTrialN,trainLoop.thisN,trainLoop.thisIndex,moveLoop_train.thisRepN,moveLoop_train.thisTrialN,moveLoop_train.thisN,moveLoop_train.thisIndex,experiment.thisRepN,experiment.thisTrialN,experiment.thisN,experiment.thisIndex,moveLoop_test.thisRepN,moveLoop_test.thisTrialN,moveLoop_test.thisN,moveLoop_test.thisIndex,mini_instr2_trials.thisRepN,mini_instr2_trials.thisTrialN,mini_instr2_trials.thisN,mini_instr2_trials.thisIndex,start_all_time,url,slideStim,audioStim,slides.started,sounds.started,nextButton.numClicks,nextButton.timesOn,nextButton.timesOff,prev_but.numClicks,prev_but.timesOn,prev_but.timesOff,alienStim,instrFile,alienStim_instr,gridImage_instr.started,startPos_3.started,key_instr.started,alienImage_3.started,sounds_1.started,key_instr.keys,key_instr.rt,all_x,all_y,FBy_corrSteps,FBy_fixStart,FBx_corrSteps,FBx_fixStart,FBy_pathSize_check,FBx_pathSize_check,gridImage_9.started,alienImageFB_3.started,startPosFB_3.started,keyFB_3.started,pathLine_ydir_2.started,pathLine_xdir_2.started,alienFace_3.started,sounds_2.started,RTFB_instr,keyFB_3.keys,keyFB_3.rt,draw_alienStim,draw_alienID,test_x,nrepcount,perfthres,percthres,earlierperf,earlystop,nextPrac,fileidx,praclen,saveACC_train,pracFile,nextPrac_train,addNrep,fileidx_endr,repExp,showearly,gridImage_4.started,startPos.started,movePos.started,key_resp.started,alienImage.started,buttonPress_train,RTchoice_train,cumAcctrain,aCorr,saveACC_choice,corrAns,x_movePos_end,y_movePos_end,key_resp.keys,key_resp.rt,wLy_dir,wLx_dir,x_movePos,y_movePos,text_2.started,text_2.stopped,aft_x_corrPos,aft_y_corrPos,y_pathSize_check,x_pathSize_check,y_pathdirY,x_pathdirY,x_pathdirX,x_corrPos,y_corrPos,gridImage_6.started,alienImageFB_2.started,startPosFB_2.started,movePosFB_2.started,keyFB_2.started,pathLine_xdir.started,pathLine_ydir.started,alienFace.started,sounds_4.started,RT_FBtrain,keyFB_2.keys,keyFB_2.rt,saveACC_pre,ACC,within_saveACC_train,earlystop_wloop,cumAcctrain_check,gridImage_3.started,alienImage_test.started,startPos_test.started,movePos_test.started,key_resp_test.started,wLy_dir_test,wLx_dir_test,buttonPress_test,RTchoice_test,cumAcctest,corrAns_test,key_resp_test.keys,key_resp_test.rt,fixation_text.started,image_break_2.started,key_resp_6.started,fixation_text.stopped,key_resp_6.keys,key_resp_6.rt,total_time,end_all_time,key_resp_3.keys,slides_2.started,sounds_3.started,nextButton_2.numClicks,nextButton_2.timesOn,nextButton_2.timesOff,prev_but_2.numClicks,prev_but_2.timesOn,prev_but_2.timesOff,participant,train_first,direction of x,starting corner,date,expName,psychopyVersion,frameRate,
,,,,,,,,,,,,,,0,0,0,0,0,0,0,0,,,,,,,,,,,,,,,,,,,,,,,,,,,,,start_all_time,testround,conditions/schedules/train_y_first/x_decreasing_steps/top_left/instructions/Slide1.png,conditions/schedules/train_y_first/x_decreasing_steps/top_left/instructions/Audio1.wav,71.11582700000145,71.05210454023909,1,[18.279452299990226],[18.279460399993695],0,,,,,,,,,,,,,,,,,,,,,,,,,,,,,,,,,,,,,,,,,,,,,,,,,,,,,,,,,,,,,,,,,,,,,,,,,,,,,,,,,,,,,,,,,,,,,,,,,,,,,,,,,,,,,,,,,,,,,,,,,,,,,,,A,train_y,decreasing,top_left,2024-10-30_14h36.31.480,HideSeek_v1,2022.2.5,60.15439226933422,
,,,,,,,,,,,,,,0,0,0,0,1,0,1,0,,,,,,,,,,,,,,,,,,,,,,,,,,,,,,,conditions/schedules/train_y_first/x_decreasing_steps/top_left/instructions/Slide2.png,conditions/schedules/train_y_first/x_decreasing_steps/top_left/instructions/Audio2.wav,89.40823300002376,89.39293782003223,2,"[18.279452299990226, 3.410434899968095]","[0.1430714000016451, 3.4104419999639504]",0,,,,,,,,,,,,,,,,,,,,,,,,,,,,,,,,,,,,,,,,,,,,,,,,,,,,,,,,,,,,,,,,,,,,,,,,,,,,,,,,,,,,,,,,,,,,,,,,,,,,,,,,,,,,,,,,,,,,,,,,,,,,,,,A,train_y,decreasing,top_left,2024-10-30_14h36.31.480,HideSeek_v1,2022.2.5,60.15439226933422,
,,,,,,,,,,,,,,0,0,0,0,2,0,2,0,,,,,,,,,,,,,,,,,,,,,,,,,,,,,,,conditions/schedules/train_y_first/x_decreasing_steps/top_left/instructions/Slide3.png,conditions/schedules/train_y_first/x_decreasing_steps/top_left/instructions/Audio3.wav,92.87578100000974,92.85864522003102,3,"[18.279452299990226, 3.410434899968095, 0.9691388999926858]","[0.1430714000016451, 0.15241889999015257, 0.9691454999847338]",0,,,,,,,,,,,,,,,,,,,,,,,,,,,,,,,,,,,,,,,,,,,,,,,,,,,,,,,,,,,,,,,,,,,,,,,,,,,,,,,,,,,,,,,,,,,,,,,,,,,,,,,,,,,,,,,,,,,,,,,,,,,,,,,A,train_y,decreasing,top_left,2024-10-30_14h36.31.480,HideSeek_v1,2022.2.5,60.15439226933422,
,,,,,,,,,,,,,,0,0,0,0,3,0,3,0,,,,,,,,,,,,,,,,,,,,,,,,,,,,,,,conditions/schedules/train_y_first/x_decreasing_steps/top_left/instructions/Slide4.png,conditions/schedules/train_y_first/x_decreasing_steps/top_left/instructions/Audio4.wav,93.8927916000248,93.89243912001838,4,"[18.279452299990226, 3.410434899968095, 0.9691388999926858, 0.7134722999762744]","[0.1430714000016451, 0.15241889999015257, 0.1629881999688223, 0.7134797999751754]",0,,,,,,,,,,,,,,,,,,,,,,,,,,,,,,,,,,,,,,,,,,,,,,,,,,,,,,,,,,,,,,,,,,,,,,,,,,,,,,,,,,,,,,,,,,,,,,,,,,,,,,,,,,,,,,,,,,,,,,,,,,,,,,,A,train_y,decreasing,top_left,2024-10-30_14h36.31.480,HideSeek_v1,2022.2.5,60.15439226933422,
,,,,,,,,,,,,,,0,0,0,0,4,0,4,0,,,,,,,,,,,,,,,,,,,,,,,,,,,,,,,conditions/schedules/train_y_first/x_decreasing_steps/top_left/instructions/Slide5.png,conditions/schedules/train_y_first/x_decreasing_steps/top_left/instructions/Audio5.wav,94.66028860001825,94.65896121998084,5,"[18.279452299990226, 3.410434899968095, 0.9691388999926858, 0.7134722999762744, 3.6133170000393875]","[0.1430714000016451, 0.15241889999015257, 0.1629881999688223, 0.16173990000970662, 3.6133238000329584]",0,,,,,,,,,,,,,,,,,,,,,,,,,,,,,,,,,,,,,,,,,,,,,,,,,,,,,,,,,,,,,,,,,,,,,,,,,,,,,,,,,,,,,,,,,,,,,,,,,,,,,,,,,,,,,,,,,,,,,,,,,,,,,,,A,train_y,decreasing,top_left,2024-10-30_14h36.31.480,HideSeek_v1,2022.2.5,60.15439226933422,
,,,,,,,,,,,,,,0,0,0,0,5,0,5,0,,,,,,,,,,,,,,,,,,,,,,,,,,,,,,,conditions/schedules/train_y_first/x_decreasing_steps/top_left/instructions/Slide6.png,conditions/schedules/train_y_first/x_decreasing_steps/top_left/instructions/Audio6.wav,98.34236650000094,98.32593591997865,6,"[18.279452299990226, 3.410434899968095, 0.9691388999926858, 0.7134722999762744, 3.6133170000393875, 1.1055870999698527]","[0.1430714000016451, 0.15241889999015257, 0.1629881999688223, 0.16173990000970662, 0.155860600003507, 1.105593600019347]",0,,,,,,,,,,,,,,,,,,,,,,,,,,,,,,,,,,,,,,,,,,,,,,,,,,,,,,,,,,,,,,,,,,,,,,,,,,,,,,,,,,,,,,,,,,,,,,,,,,,,,,,,,,,,,,,,,,,,,,,,,,,,,,,A,train_y,decreasing,top_left,2024-10-30_14h36.31.480,HideSeek_v1,2022.2.5,60.15439226933422,
,,,,,,,,,,,,,,0,0,0,0,6,0,6,0,,,,,,,,,,,,,,,,,,,,,,,,,,,,,,,conditions/schedules/train_y_first/x_decreasing_steps/top_left/instructions/Slide7.png,conditions/schedules/train_y_first/x_decreasing_steps/top_left/instructions/Audio7.wav,99.49387770000612,99.49225122001953,7,"[18.279452299990226, 3.410434899968095, 0.9691388999926858, 0.7134722999762744, 3.6133170000393875, 1.1055870999698527, 0.8454222999862395]","[0.1430714000016451, 0.15241889999015257, 0.1629881999688223, 0.16173990000970662, 0.155860600003507, 0.14543470001081005, 0.8454288999782875]",0,,,,,,,,,,,,,,,,,,,,,,,,,,,,,,,,,,,,,,,,,,,,,,,,,,,,,,,,,,,,,,,,,,,,,,,,,,,,,,,,,,,,,,,,,,,,,,,,,,,,,,,,,,,,,,,,,,,,,,,,,,,,,,,A,train_y,decreasing,top_left,2024-10-30_14h36.31.480,HideSeek_v1,2022.2.5,60.15439226933422,
,,,,,,,,,,,,,,0,0,0,0,7,0,7,0,,,,,,,,,,,,,,,,,,,,,,,,,,,,,,,conditions/schedules/train_y_first/x_decreasing_steps/top_left/instructions/Slide8.png,conditions/schedules/train_y_first/x_decreasing_steps/top_left/instructions/Audio8.wav,100.39410089998273,100.3919886200223,8,"[18.279452299990226, 3.410434899968095, 0.9691388999926858, 0.7134722999762744, 3.6133170000393875, 1.1055870999698527, 0.8454222999862395, 1.2286178999929689]","[0.1430714000016451, 0.15241889999015257, 0.1629881999688223, 0.16173990000970662, 0.155860600003507, 0.14543470001081005, 0.14494779997039586, 1.2286246999865398]",0,,,,,,,,,,,,,,,,,,,,,,,,,,,,,,,,,,,,,,,,,,,,,,,,,,,,,,,,,,,,,,,,,,,,,,,,,,,,,,,,,,,,,,,,,,,,,,,,,,,,,,,,,,,,,,,,,,,,,,,,,,,,,,,A,train_y,decreasing,top_left,2024-10-30_14h36.31.480,HideSeek_v1,2022.2.5,60.15439226933422,
,,,,,,,,,,,,,,0,0,0,0,8,0,8,0,,,,,,,,,,,,,,,,,,,,,,,,,,,,,,,conditions/schedules/train_y_first/x_decreasing_steps/top_left/instructions/Slide9.png,conditions/schedules/train_y_first/x_decreasing_steps/top_left/instructions/Audio9.wav,101.67505219997838,101.65899268998764,9,"[18.279452299990226, 3.410434899968095, 0.9691388999926858, 0.7134722999762744, 3.6133170000393875, 1.1055870999698527, 0.8454222999862395, 1.2286178999929689, 0.8696069999714382]","[0.1430714000016451, 0.15241889999015257, 0.1629881999688223, 0.16173990000970662, 0.155860600003507, 0.14543470001081005, 0.14494779997039586, 0.16899909998755902, 0.8696124000125565]",0,,,,,,,,,,,,,,,,,,,,,,,,,,,,,,,,,,,,,,,,,,,,,,,,,,,,,,,,,,,,,,,,,,,,,,,,,,,,,,,,,,,,,,,,,,,,,,,,,,,,,,,,,,,,,,,,,,,,,,,,,,,,,,,A,train_y,decreasing,top_left,2024-10-30_14h36.31.480,HideSeek_v1,2022.2.5,60.15439226933422,
,,,,,,,,,,,,,,0,0,0,0,9,0,9,0,,,,,,,,,,,,,,,,,,,,,,,,,,,,,,,conditions/schedules/train_y_first/x_decreasing_steps/top_left/instructions/Slide10.png,conditions/schedules/train_y_first/x_decreasing_steps/top_left/instructions/Audio10.wav,102.59184960002312,102.5756593900267,10,"[18.279452299990226, 3.410434899968095, 0.9691388999926858, 0.7134722999762744, 3.6133170000393875, 1.1055870999698527, 0.8454222999862395, 1.2286178999929689, 0.8696069999714382, 0.924052299989853]","[0.1430714000016451, 0.15241889999015257, 0.1629881999688223, 0.16173990000970662, 0.155860600003507, 0.14543470001081005, 0.14494779997039586, 0.16899909998755902, 0.17466389999026433, 0.9240582999773324]",0,,,,,,,,,,,,,,,,,,,,,,,,,,,,,,,,,,,,,,,,,,,,,,,,,,,,,,,,,,,,,,,,,,,,,,,,,,,,,,,,,,,,,,,,,,,,,,,,,,,,,,,,,,,,,,,,,,,,,,,,,,,,,,,A,train_y,decreasing,top_left,2024-10-30_14h36.31.480,HideSeek_v1,2022.2.5,60.15439226933422,
,,,,,,,,,,,,,,0,0,0,0,10,0,10,0,,,,,,,,,,,,,,,,,,,,,,,,,,,,,,,conditions/schedules/train_y_first/x_decreasing_steps/top_left/instructions/Slide11.png,conditions/schedules/train_y_first/x_decreasing_steps/top_left/instructions/Audio11.wav,103.55853989999741,103.54169229000108,11,"[18.279452299990226, 3.410434899968095, 0.9691388999926858, 0.7134722999762744, 3.6133170000393875, 1.1055870999698527, 0.8454222999862395, 1.2286178999929689, 0.8696069999714382, 0.924052299989853, 12.657056499971077]","[0.1430714000016451, 0.15241889999015257, 0.1629881999688223, 0.16173990000970662, 0.155860600003507, 0.14543470001081005, 0.14494779997039586, 0.16899909998755902, 0.17466389999026433, 0.15656169998692349, 12.65706339996541]",0,,,,,,,,,,,,,,,,,,,,,,,,,,,,,,,,,,,,,,,,,,,,,,,,,,,,,,,,,,,,,,,,,,,,,,,,,,,,,,,,,,,,,,,,,,,,,,,,,,,,,,,,,,,,,,,,,,,,,,,,,,,,,,,A,train_y,decreasing,top_left,2024-10-30_14h36.31.480,HideSeek_v1,2022.2.5,60.15439226933422,
,,,,,,,,,,,,,,0,0,0,0,11,0,11,0,,,,,,,,,,,,,,,,,,,,,,,,,,,,,,,conditions/schedules/train_y_first/x_decreasing_steps/top_left/instructions/Slide12.png,conditions/schedules/train_y_first/x_decreasing_steps/top_left/instructions/Audio12.wav,116.25776509998832,116.25884612001245,12,"[18.279452299990226, 3.410434899968095, 0.9691388999926858, 0.7134722999762744, 3.6133170000393875, 1.1055870999698527, 0.8454222999862395, 1.2286178999929689, 0.8696069999714382, 0.924052299989853, 12.657056499971077, 1.5651059999945574]","[0.1430714000016451, 0.15241889999015257, 0.1629881999688223, 0.16173990000970662, 0.155860600003507, 0.14543470001081005, 0.14494779997039586, 0.16899909998755902, 0.17466389999026433, 0.15656169998692349, 0.14804870000807568, 1.565112299984321]",0,,,,,,,,,,,,,,,,,,,,,,,,,,,,,,,,,,,,,,,,,,,,,,,,,,,,,,,,,,,,,,,,,,,,,,,,,,,,,,,,,,,,,,,,,,,,,,,,,,,,,,,,,,,,,,,,,,,,,,,,,,,,,,,A,train_y,decreasing,top_left,2024-10-30_14h36.31.480,HideSeek_v1,2022.2.5,60.15439226933422,
1,0,3,0,8,0,5,66,2,instr_dim1_1,,,,,0,0,0,0,,,,,0,0,0,0,,,,,,,,,,,,,,,,,,,,,,,,,,,,,,,,,,,,,stimuli/alien_stimuli/66.png,conditions/schedules/train_y_first/x_decreasing_steps/top_left/inputInstr_1.xlsx,stimuli/alien_stimuli/66.png,117.90843070001574,117.90843070001574,117.90843070001574,117.90843070001574,117.87514602000591,return,6.255226600042079,"[-0.16, -0.08, 0, 0.08, 0.16, 0.24, 0.32, 0.4, 0.48, 0.56]","[-0.4, -0.32, -0.24, -0.16, -0.08, 0, 0.08, 0.16, 0.24, 0.32]",8,3,0,0,0.4,0.0,124.359697900014,124.359697900014,124.359697900014,124.359697900014,124.359697900014,124.359697900014,124.359697900014,124.27490307998377,2.468538000015542,return,2.266570599982515,stimuli/alien_stimuli/66.png,66,0,1,,,,,,,,,,,,,,,,,,,,,,,,,,,,,,,,,,,,,,,,,,,,,,,,,,,,,,,,,,,,,,,,,,,,,,,,,,,,,,,,,,,,,,,,,,,,A,train_y,decreasing,top_left,2024-10-30_14h36.31.480,HideSeek_v1,2022.2.5,60.15439226933422,
,,,,,,,,,,,30,,,0,0,0,0,,,,,,,,,,,,,,,,,,,,,,,,,,,,,,,,,,,,,,,,,,,,,,,,,,,,,,,,,,,,,,,,,,,,,,,,,,,,,,17,0.7,0,0,99,1,30,0,conditions/schedules/train_y_first/x_decreasing_steps/top_left/inputTrain_1.1.xlsx,99,1,1,1,0,,,,,,,,,,,,,,,,,,,,,,,,,,,,,,,,,,,,,,,,,,,,,,,,,,,,,,,,,,,,,,,,,,,,,,,,,,,,,,A,train_y,decreasing,top_left,2024-10-30_14h36.31.480,HideSeek_v1,2022.2.5,60.15439226933422,
,,,,,,,,,,,,,,1,0,1,0,0,0,0,0,,,,,,,,,,,,,,,,,,,,,,,,,,,,,,,conditions/schedules/train_y_first/x_decreasing_steps/top_left/instructions/Slide13.png,conditions/schedules/train_y_first/x_decreasing_steps/top_left/instructions/Audio13.wav,126.75737690000096,126.7592812100076,13,"[18.279452299990226, 3.410434899968095, 0.9691388999926858, 0.7134722999762744, 3.6133170000393875, 1.1055870999698527, 0.8454222999862395, 1.2286178999929689, 0.8696069999714382, 0.924052299989853, 12.657056499971077, 1.5651059999945574, 6.499811499961652]","[0.1430714000016451, 0.15241889999015257, 0.1629881999688223, 0.16173990000970662, 0.155860600003507, 0.14543470001081005, 0.14494779997039586, 0.16899909998755902, 0.17466389999026433, 0.15656169998692349, 0.14804870000807568, 1.565112299984321, 6.499822599987965]",0,,,,,,,,,,,,,,,,,,,,,,,,,,,,,,,,,,,,,,,,,,,,,,,,,,,,,,,,,,,,,,,,,,,,,,,,,,,,,,,,,,,,,,,,,,,,,,,,,,,,,,,,,,,,,,,,,,,,,,,,,,,,,,,A,train_y,decreasing,top_left,2024-10-30_14h36.31.480,HideSeek_v1,2022.2.5,60.15439226933422,
,,,,,,,,,,,,,,1,0,1,0,1,0,1,0,,,,,,,,,,,,,,,,,,,,,,,,,,,,,,,conditions/schedules/train_y_first/x_decreasing_steps/top_left/instructions/Slide14.png,conditions/schedules/train_y_first/x_decreasing_steps/top_left/instructions/Audio14.wav,133.32516559999203,133.30887782000937,14,"[18.279452299990226, 3.410434899968095, 0.9691388999926858, 0.7134722999762744, 3.6133170000393875, 1.1055870999698527, 0.8454222999862395, 1.2286178999929689, 0.8696069999714382, 0.924052299989853, 12.657056499971077, 1.5651059999945574, 6.499811499961652, 1.572626399982255]","[0.1430714000016451, 0.15241889999015257, 0.1629881999688223, 0.16173990000970662, 0.155860600003507, 0.14543470001081005, 0.14494779997039586, 0.16899909998755902, 0.17466389999026433, 0.15656169998692349, 0.14804870000807568, 1.565112299984321, 0.13903259998187423, 1.5726328999735415]",0,,,,,,,,,,,,,,,,,,,,,,,,,,,,,,,,,,,,,,,,,,,,,,,,,,,,,,,,,,,,,,,,,,,,,,,,,,,,,,,,,,,,,,,,,,,,,,,,,,,,,,,,,,,,,,,,,,,,,,,,,,,,,,,A,train_y,decreasing,top_left,2024-10-30_14h36.31.480,HideSeek_v1,2022.2.5,60.15439226933422,
2,2,3,2,3,0,0,61,2,instr_dim1_1,,,,,1,0,1,0,,,,,0,0,0,0,,,,,,,,,,,,,,,,,,,,,,,,,,,,,,,,,,,,,stimuli/alien_stimuli/61.png,conditions/schedules/train_y_first/x_decreasing_steps/top_left/inputInstr_1.xlsx,stimuli/alien_stimuli/61.png,134.97559779998846,134.97559779998846,134.97559779998846,134.97559779998846,134.9754539799993,return,3.3239838000154123,"[-0.16, -0.08, 0, 0.08, 0.16, 0.24, 0.32, 0.4, 0.48, 0.56]","[-0.4, -0.32, -0.24, -0.16, -0.08, 0, 0.08, 0.16, 0.24, 0.32]",3,3,2,2,0.0,0.0,138.42542400001548,138.42542400001548,138.42542400001548,138.42542400001548,138.42542400001548,138.42542400001548,138.42542400001548,138.40827728001167,4.917486199992709,return,4.7871957999886945,stimuli/alien_stimuli/61.png,61,2,2,,,,,,,,,,,,,,,,,,,,,,,,,,,,,,,,,,,,,,,,,,,,,,,,,,,,,,,,,,,,,,,,,,,,,,,,,,,,,,,,,,,,,,,,,,,,A,train_y,decreasing,top_left,2024-10-30_14h36.31.480,HideSeek_v1,2022.2.5,60.15439226933422,
,,,,,,,,,,,30,,,1,0,1,0,,,,,,,,,,,,,,,,,,,,,,,,,,,,,,,,,,,,,,,,,,,,,,,,,,,,,,,,,,,,,,,,,,,,,,,,,,,,,,17,0.7,0,0,99,1,30,0,conditions/schedules/train_y_first/x_decreasing_steps/top_left/inputTrain_1.1.xlsx,99,1,1,1,0,,,,,,,,,,,,,,,,,,,,,,,,,,,,,,,,,,,,,,,,,,,,,,,,,,,,,,,,,,,,,,,,,,,,,,,,,,,,,,A,train_y,decreasing,top_left,2024-10-30_14h36.31.480,HideSeek_v1,2022.2.5,60.15439226933422,
,,,,,,,,,,,,,,2,0,2,0,0,0,0,0,,,,,,,,,,,,,,,,,,,,,,,,,,,,,,,conditions/schedules/train_y_first/x_decreasing_steps/top_left/instructions/Slide15.png,conditions/schedules/train_y_first/x_decreasing_steps/top_left/instructions/Audio15.wav,143.35874019999756,143.34155211002798,15,"[18.279452299990226, 3.410434899968095, 0.9691388999926858, 0.7134722999762744, 3.6133170000393875, 1.1055870999698527, 0.8454222999862395, 1.2286178999929689, 0.8696069999714382, 0.924052299989853, 12.657056499971077, 1.5651059999945574, 6.499811499961652, 1.572626399982255, 8.135273499996401]","[0.1430714000016451, 0.15241889999015257, 0.1629881999688223, 0.16173990000970662, 0.155860600003507, 0.14543470001081005, 0.14494779997039586, 0.16899909998755902, 0.17466389999026433, 0.15656169998692349, 0.14804870000807568, 1.565112299984321, 0.13903259998187423, 1.5726328999735415, 8.135280999995302]",0,,,,,,,,,,,,,,,,,,,,,,,,,,,,,,,,,,,,,,,,,,,,,,,,,,,,,,,,,,,,,,,,,,,,,,,,,,,,,,,,,,,,,,,,,,,,,,,,,,,,,,,,,,,,,,,,,,,,,,,,,,,,,,,A,train_y,decreasing,top_left,2024-10-30_14h36.31.480,HideSeek_v1,2022.2.5,60.15439226933422,
,,,,,,,,,,,,,,2,0,2,0,1,0,1,0,,,,,,,,,,,,,,,,,,,,,,,,,,,,,,,conditions/schedules/train_y_first/x_decreasing_steps/top_left/instructions/Slide16.png,conditions/schedules/train_y_first/x_decreasing_steps/top_left/instructions/Audio16.wav,151.55848100001458,151.5414411200094,16,"[18.279452299990226, 3.410434899968095, 0.9691388999926858, 0.7134722999762744, 3.6133170000393875, 1.1055870999698527, 0.8454222999862395, 1.2286178999929689, 0.8696069999714382, 0.924052299989853, 12.657056499971077, 1.5651059999945574, 6.499811499961652, 1.572626399982255, 8.135273499996401, 1.7411444000317715]","[0.1430714000016451, 0.15241889999015257, 0.1629881999688223, 0.16173990000970662, 0.155860600003507, 0.14543470001081005, 0.14494779997039586, 0.16899909998755902, 0.17466389999026433, 0.15656169998692349, 0.14804870000807568, 1.565112299984321, 0.13903259998187423, 1.5726328999735415, 0.1409121000324376, 1.7411515000276268]",0,,,,,,,,,,,,,,,,,,,,,,,,,,,,,,,,,,,,,,,,,,,,,,,,,,,,,,,,,,,,,,,,,,,,,,,,,,,,,,,,,,,,,,,,,,,,,,,,,,,,,,,,,,,,,,,,,,,,,,,,,,,,,,,A,train_y,decreasing,top_left,2024-10-30_14h36.31.480,HideSeek_v1,2022.2.5,60.15439226933422,
,0,0,0,4,0,4,65,,train_dim1_1,1,30,,,2,0,2,0,,,,,,,,,0,0,0,0,0,0,0,0,0,0,0,0,,,,,,,,,,,,,,,,,,,,,,,,,stimuli/alien_stimuli/65.png,,,,,,,,,,,,,,,,,,,,,,,,,,,,,,,,,,,,,,,30,,,,,,,,153.40792540000984,153.40792540000984,153.40792540000984,153.40792540000984,153.40792540000984,up,4.040882400004193,0,0,0,99,-0.16,-0.32,up,3.916213999968022,,,,,,,,,,,,,,,,,,,,,,,,,,,,,,,,,,,,,,,,,,,,,,,,,,,,,,,,,,,,,,,A,train_y,decreasing,top_left,2024-10-30_14h36.31.480,HideSeek_v1,2022.2.5,60.15439226933422,
,0,0,0,4,0,4,65,,train_dim1_1,1,30,,,2,0,2,0,,,,,,,,,0,0,0,0,0,0,0,0,1,0,1,0,,,,,,,,,,,,,,,,,,,,,,,,,,,,,,,,,,,,,,,,,,,,,,,,,,,,,,,,,,,,,,,,30,,,,,,,,157.4079764999915,157.4079764999915,157.4079764999915,157.4079764999915,157.4079764999915,down,0.1938176999683492,0,0,0,99,-0.16,-0.4,down,0.11066340003162622,,,,,,,,,,,,,,,,,,,,,,,,,,,,,,,,,,,,,,,,,,,,,,,,,,,,,,,,,,,,,,,A,train_y,decreasing,top_left,2024-10-30_14h36.31.480,HideSeek_v1,2022.2.5,60.15439226933422,
,0,0,0,4,0,4,65,,train_dim1_1,1,30,,,2,0,2,0,,,,,,,,,0,0,0,0,0,0,0,0,2,0,2,0,,,,,,,,,,,,,,,,,,,,,,,,,,,,,,,,,,,,,,,,,,,,,,,,,,,,,,,,,,,,,,,,30,,,,,,,,157.60130979999667,157.60130979999667,157.60130979999667,157.60130979999667,157.60130979999667,up,0.16116270003840327,0,0,0,99,-0.16,-0.32,up,0.08950140001252294,,,,,,,,,,,,,,,,,,,,,,,,,,,,,,,,,,,,,,,,,,,,,,,,,,,,,,,,,,,,,,,A,train_y,decreasing,top_left,2024-10-30_14h36.31.480,HideSeek_v1,2022.2.5,60.15439226933422,
,0,0,0,4,0,4,65,,train_dim1_1,1,30,,,2,0,2,0,,,,,,,,,0,0,0,0,0,0,0,0,3,0,3,0,,,,,,,,,,,,,,,,,,,,,,,,,,,,,,,,,,,,,,,,,,,,,,,,,,,,,,,,,,,,,,,,30,,,,,,,,157.7614701000275,157.7614701000275,157.7614701000275,157.7614701000275,157.7614701000275,down,0.17807490000268444,0,0,0,99,-0.16,-0.4,down,0.10982400004286319,,,,,,,,,,,,,,,,,,,,,,,,,,,,,,,,,,,,,,,,,,,,,,,,,,,,,,,,,,,,,,,A,train_y,decreasing,top_left,2024-10-30_14h36.31.480,HideSeek_v1,2022.2.5,60.15439226933422,
,0,0,0,4,0,4,65,,train_dim1_1,1,30,,,2,0,2,0,,,,,,,,,0,0,0,0,0,0,0,0,4,0,4,0,,,,,,,,,,,,,,,,,,,,,,,,,,,,,,,,,,,,,,,,,,,,,,,,,,,,,,,,,,,,,,,,30,,,,,,,,157.94502370001283,157.94502370001283,157.94502370001283,157.94502370001283,157.94502370001283,up,0.5284326000255533,0,0,0,99,-0.16,-0.32,up,0.4569836999871768,,,,,,,,,,,,,,,,,,,,,,,,,,,,,,,,,,,,,,,,,,,,,,,,,,,,,,,,,,,,,,,A,train_y,decreasing,top_left,2024-10-30_14h36.31.480,HideSeek_v1,2022.2.5,60.15439226933422,
,0,0,0,4,0,4,65,,train_dim1_1,1,30,,,2,0,2,0,,,,,,,,,0,0,0,0,0,0,0,0,5,0,5,0,,,,,,,,,,,,,,,,,,,,,,,,,,,,,,,,,,,,,,,,,,,,,,,,,,,,,,,,,,,,,,,,30,,,,,,,,158.48231099999975,158.48231099999975,158.48231099999975,158.48231099999975,158.48231099999975,up,0.1777900999877602,0,0,0,99,-0.16,-0.24,up,0.10427839995827526,,,,,,,,,,,,,,,,,,,,,,,,,,,,,,,,,,,,,,,,,,,,,,,,,,,,,,,,,,,,,,,A,train_y,decreasing,top_left,2024-10-30_14h36.31.480,HideSeek_v1,2022.2.5,60.15439226933422,
,0,0,0,4,0,4,65,,train_dim1_1,1,30,,,2,0,2,0,,,,,,,,,0,0,0,0,0,0,0,0,6,0,6,0,,,,,,,,,,,,,,,,,,,,,,,,,,,,,,,,,,,,,,,,,,,,,,,,,,,,,,,,,,,,,,,,30,,,,,,,,158.6749755999772,158.6749755999772,158.6749755999772,158.6749755999772,158.6749755999772,up,0.14419969997834414,0,0,0,99,-0.16,-0.15999999999999998,up,0.06440550001570955,,,,,,,,,,,,,,,,,,,,,,,,,,,,,,,,,,,,,,,,,,,,,,,,,,,,,,,,,,,,,,,A,train_y,decreasing,top_left,2024-10-30_14h36.31.480,HideSeek_v1,2022.2.5,60.15439226933422,
,0,0,0,4,0,4,65,,train_dim1_1,1,30,,,2,0,2,0,,,,,,,,,0,0,0,0,0,0,0,0,7,0,7,0,,,,,,,,,,,,,,,,,,,,,,,,,,,,,,,,,,,,,,,,,,,,,,,,,,,,,,,,,,,,,,,,30,,,,,,,,158.8116176999756,158.8116176999756,158.8116176999756,158.8116176999756,158.8116176999756,up,0.1948714000172913,0,0,0,99,-0.16,-0.07999999999999997,up,0.1262661999789998,,,,,,,,,,,,,,,,,,,,,,,,,,,,,,,,,,,,,,,,,,,,,,,,,,,,,,,,,,,,,,,A,train_y,decreasing,top_left,2024-10-30_14h36.31.480,HideSeek_v1,2022.2.5,60.15439226933422,
,0,0,0,4,0,4,65,,train_dim1_1,1,30,,,2,0,2,0,,,,,,,,,0,0,0,0,0,0,0,0,8,0,8,0,,,,,,,,,,,,,,,,,,,,,,,,,,,,,,,,,,,,,,,,,,,,,,,,,,,,,,,,,,,,,,,,30,,,,,,,,159.01312660000985,159.01312660000985,159.01312660000985,159.01312660000985,159.01312660000985,return,0.8776818999904208,1,0,0,1,-0.16,-0.07999999999999997,return,0.8031830000109039,4,0,-0.16,-0.07999999999999997,,,,,,,,,,,,,,,,,,,,,,,,,,,,,,,,,,,,,,,,,,,,,,,,,,,,,,,,,,,A,train_y,decreasing,top_left,2024-10-30_14h36.31.480,HideSeek_v1,2022.2.5,60.15439226933422,
,3,2,3,7,0,5,66,,train_dim1_1,2,30,,,2,0,2,0,,,,,,,,,0,0,0,0,0,1,1,1,0,0,0,0,,,,,,,,,,,,,,,,,,,,,,,,,stimuli/alien_stimuli/66.png,,,,,,,,,,,,,,,,,,,,,,,,,,,,,stimuli/alien_stimuli/65.png,65,0,3,,,,,,,30,,,,,,,,165.13328299997374,165.13328299997374,165.13328299997374,165.13328299997374,165.13328299997374,up,1.3417694000527263,1,0,0,99,0.08,-0.15999999999999998,up,1.2641246999846771,,,,,163.59102669998538,165.13328299997374,-0.16,-0.08,0.32,0.0,-0.24000000000000002,-0.16,-0.16,-0.16,-0.08,161.53860620001797,161.53860620001797,161.53860620001797,161.53860620001797,161.53860620001797,161.53860620001797,161.53860620001797,161.53860620001797,161.4417431800044,2.23538779997034,return,2.0368536000023596,,,,,,,,,,,,,,,,,,,,,,,,,,,,,,,,,,,,A,train_y,decreasing,top_left,2024-10-30_14h36.31.480,HideSeek_v1,2022.2.5,60.15439226933422,
,3,2,3,7,0,5,66,,train_dim1_1,2,30,,,2,0,2,0,,,,,,,,,0,0,0,0,0,1,1,1,1,0,1,0,,,,,,,,,,,,,,,,,,,,,,,,,,,,,,,,,,,,,,,,,,,,,,,,,,,,,,,,,,,,,,,,30,,,,,,,,166.47887490002904,166.47887490002904,166.47887490002904,166.47887490002904,166.47887490002904,up,0.628536400035955,1,0,0,99,0.08,-0.07999999999999997,up,0.5553159000119194,,,,,,,,,,,,,,,,,,,,,,,,,,,,,,,,,,,,,,,,,,,,,,,,,,,,,,,,,,,,,,,A,train_y,decreasing,top_left,2024-10-30_14h36.31.480,HideSeek_v1,2022.2.5,60.15439226933422,
,3,2,3,7,0,5,66,,train_dim1_1,2,30,,,2,0,2,0,,,,,,,,,0,0,0,0,0,1,1,1,2,0,2,0,,,,,,,,,,,,,,,,,,,,,,,,,,,,,,,,,,,,,,,,,,,,,,,,,,,,,,,,,,,,,,,,30,,,,,,,,167.11450050002895,167.11450050002895,167.11450050002895,167.11450050002895,167.11450050002895,up,0.16035660001216456,1,0,0,99,0.08,2.7755575615628914e-17,up,0.07965510000940412,,,,,,,,,,,,,,,,,,,,,,,,,,,,,,,,,,,,,,,,,,,,,,,,,,,,,,,,,,,,,,,A,train_y,decreasing,top_left,2024-10-30_14h36.31.480,HideSeek_v1,2022.2.5,60.15439226933422,
,3,2,3,7,0,5,66,,train_dim1_1,2,30,,,2,0,2,0,,,,,,,,,0,0,0,0,0,1,1,1,3,0,3,0,,,,,,,,,,,,,,,,,,,,,,,,,,,,,,,,,,,,,,,,,,,,,,,,,,,,,,,,,,,,,,,,30,,,,,,,,167.27907460002461,167.27907460002461,167.27907460002461,167.27907460002461,167.27907460002461,down,0.8778336999821477,1,0,0,99,0.08,-0.07999999999999997,down,0.8087831000448205,,,,,,,,,,,,,,,,,,,,,,,,,,,,,,,,,,,,,,,,,,,,,,,,,,,,,,,,,,,,,,,A,train_y,decreasing,top_left,2024-10-30_14h36.31.480,HideSeek_v1,2022.2.5,60.15439226933422,
,3,2,3,7,0,5,66,,train_dim1_1,2,30,,,2,0,2,0,,,,,,,,,0,0,0,0,0,1,1,1,4,0,4,0,,,,,,,,,,,,,,,,,,,,,,,,,,,,,,,,,,,,,,,,,,,,,,,,,,,,,,,,,,,,,,,,30,,,,,,,,168.1660083999741,168.1660083999741,168.1660083999741,168.1660083999741,168.1660083999741,down,0.16112750000320375,1,0,0,99,0.08,-0.15999999999999998,down,0.08148809999693185,,,,,,,,,,,,,,,,,,,,,,,,,,,,,,,,,,,,,,,,,,,,,,,,,,,,,,,,,,,,,,,A,train_y,decreasing,top_left,2024-10-30_14h36.31.480,HideSeek_v1,2022.2.5,60.15439226933422,
,3,2,3,7,0,5,66,,train_dim1_1,2,30,,,2,0,2,0,,,,,,,,,0,0,0,0,0,1,1,1,5,0,5,0,,,,,,,,,,,,,,,,,,,,,,,,,,,,,,,,,,,,,,,,,,,,,,,,,,,,,,,,,,,,,,,,30,,,,,,,,168.32794579997426,168.32794579997426,168.32794579997426,168.32794579997426,168.32794579997426,down,0.1949272999772802,1,0,0,99,0.08,-0.24,down,0.1224485999555327,,,,,,,,,,,,,,,,,,,,,,,,,,,,,,,,,,,,,,,,,,,,,,,,,,,,,,,,,,,,,,,A,train_y,decreasing,top_left,2024-10-30_14h36.31.480,HideSeek_v1,2022.2.5,60.15439226933422,
,3,2,3,7,0,5,66,,train_dim1_1,2,30,,,2,0,2,0,,,,,,,,,0,0,0,0,0,1,1,1,6,0,6,0,,,,,,,,,,,,,,,,,,,,,,,,,,,,,,,,,,,,,,,,,,,,,,,,,,,,,,,,,,,,,,,,30,,,,,,,,168.5303269000142,168.5303269000142,168.5303269000142,168.5303269000142,168.5303269000142,up,0.8944143999833614,1,0,0,99,0.08,-0.15999999999999998,up,0.8192645999952219,,,,,,,,,,,,,,,,,,,,,,,,,,,,,,,,,,,,,,,,,,,,,,,,,,,,,,,,,,,,,,,A,train_y,decreasing,top_left,2024-10-30_14h36.31.480,HideSeek_v1,2022.2.5,60.15439226933422,
,3,2,3,7,0,5,66,,train_dim1_1,2,30,,,2,0,2,0,,,,,,,,,0,0,0,0,0,1,1,1,7,0,7,0,,,,,,,,,,,,,,,,,,,,,,,,,,,,,,,,,,,,,,,,,,,,,,,,,,,,,,,,,,,,,,,,30,,,,,,,,169.43065059999935,169.43065059999935,169.43065059999935,169.43065059999935,169.43065059999935,up,0.24515759997302666,1,0,0,99,0.08,-0.07999999999999997,up,0.1698323999880813,,,,,,,,,,,,,,,,,,,,,,,,,,,,,,,,,,,,,,,,,,,,,,,,,,,,,,,,,,,,,,,A,train_y,decreasing,top_left,2024-10-30_14h36.31.480,HideSeek_v1,2022.2.5,60.15439226933422,
,3,2,3,7,0,5,66,,train_dim1_1,2,30,,,2,0,2,0,,,,,,,,,0,0,0,0,0,1,1,1,8,0,8,0,,,,,,,,,,,,,,,,,,,,,,,,,,,,,,,,,,,,,,,,,,,,,,,,,,,,,,,,,,,,,,,,30,,,,,,,,169.6793703000294,169.6793703000294,169.6793703000294,169.6793703000294,169.6793703000294,up,0.27771340002072975,1,0,0,99,0.08,2.7755575615628914e-17,up,0.20016120001673698,,,,,,,,,,,,,,,,,,,,,,,,,,,,,,,,,,,,,,,,,,,,,,,,,,,,,,,,,,,,,,,A,train_y,decreasing,top_left,2024-10-30_14h36.31.480,HideSeek_v1,2022.2.5,60.15439226933422,
,3,2,3,7,0,5,66,,train_dim1_1,2,30,,,2,0,2,0,,,,,,,,,0,0,0,0,0,1,1,1,9,0,9,0,,,,,,,,,,,,,,,,,,,,,,,,,,,,,,,,,,,,,,,,,,,,,,,,,,,,,,,,,,,,,,,,30,,,,,,,,169.9614754000213,169.9614754000213,169.9614754000213,169.9614754000213,169.9614754000213,up,0.27715989999705926,1,0,0,99,0.08,0.08000000000000003,up,0.20383489999221638,,,,,,,,,,,,,,,,,,,,,,,,,,,,,,,,,,,,,,,,,,,,,,,,,,,,,,,,,,,,,,,A,train_y,decreasing,top_left,2024-10-30_14h36.31.480,HideSeek_v1,2022.2.5,60.15439226933422,
,3,2,3,7,0,5,66,,train_dim1_1,2,30,,,2,0,2,0,,,,,,,,,0,0,0,0,0,1,1,1,10,0,10,0,,,,,,,,,,,,,,,,,,,,,,,,,,,,,,,,,,,,,,,,,,,,,,,,,,,,,,,,,,,,,,,,30,,,,,,,,170.2462412000168,170.2462412000168,170.2462412000168,170.2462412000168,170.2462412000168,up,0.4943985999561846,1,0,0,99,0.08,0.16000000000000003,up,0.42107670003315434,,,,,,,,,,,,,,,,,,,,,,,,,,,,,,,,,,,,,,,,,,,,,,,,,,,,,,,,,,,,,,,A,train_y,decreasing,top_left,2024-10-30_14h36.31.480,HideSeek_v1,2022.2.5,60.15439226933422,
,3,2,3,7,0,5,66,,train_dim1_1,2,30,,,2,0,2,0,,,,,,,,,0,0,0,0,0,1,1,1,11,0,11,0,,,,,,,,,,,,,,,,,,,,,,,,,,,,,,,,,,,,,,,,,,,,,,,,,,,,,,,,,,,,,,,,30,,,,,,,,170.74411600001622,170.74411600001622,170.74411600001622,170.74411600001622,170.74411600001622,return,0.41138589999172837,2,0,0,1,0.08,0.16000000000000003,return,0.3411572999903001,9,0,0.08,0.16000000000000003,,,,,,,,,,,,,,,,,,,,,,,,,,,,,,,,,,,,,,,,,,,,,,,,,,,,,,,,,,,A,train_y,decreasing,top_left,2024-10-30_14h36.31.480,HideSeek_v1,2022.2.5,60.15439226933422,
,2,3,2,6,0,3,64,,train_dim1_1,3,30,,,2,0,2,0,,,,,,,,,0,0,0,0,0,2,2,2,0,0,0,0,,,,,,,,,,,,,,,,,,,,,,,,,stimuli/alien_stimuli/64.png,,,,,,,,,,,,,,,,,,,,,,,,,,,,,stimuli/alien_stimuli/66.png,66,3,4,,,,,,,30,,,,,,,,176.96700629999395,176.96700629999395,176.96700629999395,176.96700629999395,176.96700629999395,up,0.8913973000016995,2,0,0,99,0,-0.08,up,0.8087901000399143,,,,,175.42404870002065,176.96700629999395,0.08,0.16,0.4,0.0,-0.039999999999999994,0.08,0.08,0.08,0.16,172.70775529998355,172.70775529998355,172.70775529998355,172.70775529998355,172.70775529998355,172.70775529998355,172.70775529998355,172.70775529998355,172.69109744997695,2.8021899000159465,return,2.6976598000037484,,,,,,,,,,,,,,,,,,,,,,,,,,,,,,,,,,,,A,train_y,decreasing,top_left,2024-10-30_14h36.31.480,HideSeek_v1,2022.2.5,60.15439226933422,
,2,3,2,6,0,3,64,,train_dim1_1,3,30,,,2,0,2,0,,,,,,,,,0,0,0,0,0,2,2,2,1,0,1,0,,,,,,,,,,,,,,,,,,,,,,,,,,,,,,,,,,,,,,,,,,,,,,,,,,,,,,,,,,,,,,,,30,,,,,,,,177.86254150001332,177.86254150001332,177.86254150001332,177.86254150001332,177.86254150001332,up,1.977632399997674,2,0,0,99,0,0.0,up,1.8972424000385217,,,,,,,,,,,,,,,,,,,,,,,,,,,,,,,,,,,,,,,,,,,,,,,,,,,,,,,,,,,,,,,A,train_y,decreasing,top_left,2024-10-30_14h36.31.480,HideSeek_v1,2022.2.5,60.15439226933422,
,2,3,2,6,0,3,64,,train_dim1_1,3,30,,,2,0,2,0,,,,,,,,,0,0,0,0,0,2,2,2,2,0,2,0,,,,,,,,,,,,,,,,,,,,,,,,,,,,,,,,,,,,,,,,,,,,,,,,,,,,,,,,,,,,,,,,30,,,,,,,,179.84884370001964,179.84884370001964,179.84884370001964,179.84884370001964,179.84884370001964,up,2.4956575999967754,2,0,0,99,0,0.08,up,2.4237698999932036,,,,,,,,,,,,,,,,,,,,,,,,,,,,,,,,,,,,,,,,,,,,,,,,,,,,,,,,,,,,,,,A,train_y,decreasing,top_left,2024-10-30_14h36.31.480,HideSeek_v1,2022.2.5,60.15439226933422,
,2,3,2,6,0,3,64,,train_dim1_1,3,30,,,2,0,2,0,,,,,,,,,0,0,0,0,0,2,2,2,3,0,3,0,,,,,,,,,,,,,,,,,,,,,,,,,,,,,,,,,,,,,,,,,,,,,,,,,,,,,,,,,,,,,,,,30,,,,,,,,182.34650420001708,182.34650420001708,182.34650420001708,182.34650420001708,182.34650420001708,return,0.6602595000294968,3,0,0,1,0,0.08,return,0.58306650002487,12,0,0,0.08,,,,,,,,,,,,,,,,,,,,,,,,,,,,,,,,,,,,,,,,,,,,,,,,,,,,,,,,,,,A,train_y,decreasing,top_left,2024-10-30_14h36.31.480,HideSeek_v1,2022.2.5,60.15439226933422,
,0,1,0,2,0,1,62,,train_dim1_1,4,30,,,2,0,2,0,,,,,,,,,0,0,0,0,0,3,3,3,0,0,0,0,,,,,,,,,,,,,,,,,,,,,,,,,stimuli/alien_stimuli/62.png,,,,,,,,,,,,,,,,,,,,,,,,,,,,,stimuli/alien_stimuli/64.png,64,2,5,,,,,,,30,,,,,,,,192.86569060001057,192.86569060001057,192.86569060001057,192.86569060001057,192.86569060001057,return,2.5754858000436798,3,1,0,0,-0.16,-0.32,return,2.4980476000346243,12,0,-0.16,-0.32,191.32453659997554,192.86569060001057,0,0.08,0.24,0.0,-0.04,0,0.0,0,0.08,184.54985000001034,184.54985000001034,184.54985000001034,184.54985000001034,184.54985000001034,184.54985000001034,184.54985000001034,184.54985000001034,184.54107555001974,6.851658700034022,return,6.743787700019311,,,,,,,,,,,,,,,,,,,,,,,,,,,,,,,,,,,,A,train_y,decreasing,top_left,2024-10-30_14h36.31.480,HideSeek_v1,2022.2.5,60.15439226933422,
,3,3,3,3,0,0,61,,train_dim1_1,5,30,,,2,0,2,0,,,,,,,,,0,0,0,0,0,4,4,4,0,0,0,0,,,,,,,,,,,,,,,,,,,,,,,,,stimuli/alien_stimuli/61.png,,,,,,,,,,,,,,,,,,,,,,,,,,,,,stimuli/alien_stimuli/62.png,62,0,6,,,,,,,30,,,,,,,,200.49780900002224,200.49780900002224,200.49780900002224,200.49780900002224,200.49780900002224,up,1.3926546000293456,3,1,0,99,0.08,-0.08,up,1.3260935000143945,,,,,198.95744740002556,200.49780900002224,-0.16,-0.24,0.08,0.0,-0.28,-0.16,-0.16,-0.16,-0.24,197.01859290001448,197.01859290001448,197.01859290001448,197.01859290001448,197.01859290001448,197.01859290001448,197.01859290001448,197.01859290001448,197.0075630100211,2.0516623000148684,return,1.9130796000245027,,,,,,,,,,,,,,,,,,,,,,,,,,,,,,,,,,,,A,train_y,decreasing,top_left,2024-10-30_14h36.31.480,HideSeek_v1,2022.2.5,60.15439226933422,
,3,3,3,3,0,0,61,,train_dim1_1,5,30,,,2,0,2,0,,,,,,,,,0,0,0,0,0,4,4,4,1,0,1,0,,,,,,,,,,,,,,,,,,,,,,,,,,,,,,,,,,,,,,,,,,,,,,,,,,,,,,,,,,,,,,,,30,,,,,,,,201.91076729999622,201.91076729999622,201.91076729999622,201.91076729999622,201.91076729999622,return,0.6276896999916062,3,1,0,0,0.08,-0.08,return,0.5404497000272386,13,0,0.08,-0.08,,,,,,,,,,,,,,,,,,,,,,,,,,,,,,,,,,,,,,,,,,,,,,,,,,,,,,,,,,,A,train_y,decreasing,top_left,2024-10-30_14h36.31.480,HideSeek_v1,2022.2.5,60.15439226933422,
,1,4,1,5,0,1,62,,train_dim1_1,6,30,,,2,0,2,0,,,,,,,,,0,0,0,0,0,5,5,5,0,0,0,0,,,,,,,,,,,,,,,,,,,,,,,,,stimuli/alien_stimuli/62.png,,,,,,,,,,,,,,,,,,,,,,,,,,,,,stimuli/alien_stimuli/61.png,61,3,7,,,,,,,30,,,,,,,,208.09831879998092,208.09831879998092,208.09831879998092,208.09831879998092,208.09831879998092,up,2.358573500008788,3,1,0,99,-0.08,0.0,up,2.285988299991004,,,,,206.55799729999853,208.09831879998092,0.08,-0.16,0.0,0.0,-0.16,0.08,0.08,0.08,-0.16,204.07076420000521,204.07076420000521,204.07076420000521,204.07076420000521,204.07076420000521,204.07076420000521,204.07076420000521,204.07076420000521,204.05768164998153,2.5686627000104636,return,2.4665717000025325,,,,,,,,,,,,,,,,,,,,,,,,,,,,,,,,,,,,A,train_y,decreasing,top_left,2024-10-30_14h36.31.480,HideSeek_v1,2022.2.5,60.15439226933422,
,1,4,1,5,0,1,62,,train_dim1_1,6,30,,,2,0,2,0,,,,,,,,,0,0,0,0,0,5,5,5,1,0,1,0,,,,,,,,,,,,,,,,,,,,,,,,,,,,,,,,,,,,,,,,,,,,,,,,,,,,,,,,,,,,,,,,30,,,,,,,,210.46268639998743,210.46268639998743,210.46268639998743,210.46268639998743,210.46268639998743,return,0.6273923999979161,4,0,0,1,-0.08,0.0,return,0.5517042000428773,14,0,-0.08,0.0,,,,,,,,,,,,,,,,,,,,,,,,,,,,,,,,,,,,,,,,,,,,,,,,,,,,,,,,,,,A,train_y,decreasing,top_left,2024-10-30_14h36.31.480,HideSeek_v1,2022.2.5,60.15439226933422,
,1,3,1,6,0,3,64,,train_dim1_1,7,30,,,2,0,2,0,,,,,,,,,0,0,0,0,0,6,6,6,0,0,0,0,,,,,,,,,,,,,,,,,,,,,,,,,stimuli/alien_stimuli/64.png,,,,,,,,,,,,,,,,,,,,,,,,,,,,,stimuli/alien_stimuli/62.png,62,1,8,,,,,,,30,,,,,,,,217.54151299997466,217.54151299997466,217.54151299997466,217.54151299997466,217.54151299997466,up,1.3088612999999896,4,0,0,99,-0.08,-0.08,up,1.2322074000257999,,,,,215.99056780000683,217.54151299997466,-0.08,0,0.08,0.0,-0.04,-0.08,-0.08,-0.08,0,212.67868070001714,212.67868070001714,212.67868070001714,212.67868070001714,212.67868070001714,212.67868070001714,212.67868070001714,212.67868070001714,212.67625323998507,3.432858699990902,return,3.283300799957942,,,,,,,,,,,,,,,,,,,,,,,,,,,,,,,,,,,,A,train_y,decreasing,top_left,2024-10-30_14h36.31.480,HideSeek_v1,2022.2.5,60.15439226933422,
,1,3,1,6,0,3,64,,train_dim1_1,7,30,,,2,0,2,0,,,,,,,,,0,0,0,0,0,6,6,6,1,0,1,0,,,,,,,,,,,,,,,,,,,,,,,,,,,,,,,,,,,,,,,,,,,,,,,,,,,,,,,,,,,,,,,,30,,,,,,,,218.84884549997514,218.84884549997514,218.84884549997514,218.84884549997514,218.84884549997514,up,0.32711999997263774,4,0,0,99,-0.08,0.0,up,0.24655699997674674,,,,,,,,,,,,,,,,,,,,,,,,,,,,,,,,,,,,,,,,,,,,,,,,,,,,,,,,,,,,,,,A,train_y,decreasing,top_left,2024-10-30_14h36.31.480,HideSeek_v1,2022.2.5,60.15439226933422,
,1,3,1,6,0,3,64,,train_dim1_1,7,30,,,2,0,2,0,,,,,,,,,0,0,0,0,0,6,6,6,2,0,2,0,,,,,,,,,,,,,,,,,,,,,,,,,,,,,,,,,,,,,,,,,,,,,,,,,,,,,,,,,,,,,,,,30,,,,,,,,219.18044770002598,219.18044770002598,219.18044770002598,219.18044770002598,219.18044770002598,up,0.8948378000059165,4,0,0,99,-0.08,0.08,up,0.8133105000015348,,,,,,,,,,,,,,,,,,,,,,,,,,,,,,,,,,,,,,,,,,,,,,,,,,,,,,,,,,,,,,,A,train_y,decreasing,top_left,2024-10-30_14h36.31.480,HideSeek_v1,2022.2.5,60.15439226933422,
,1,3,1,6,0,3,64,,train_dim1_1,7,30,,,2,0,2,0,,,,,,,,,0,0,0,0,0,6,6,6,3,0,3,0,,,,,,,,,,,,,,,,,,,,,,,,,,,,,,,,,,,,,,,,,,,,,,,,,,,,,,,,,,,,,,,,30,,,,,,,,220.07958329998655,220.07958329998655,220.07958329998655,220.07958329998655,220.07958329998655,return,0.41095360001781955,5,0,0,1,-0.08,0.08,return,0.3334418999729678,17,0,-0.08,0.08,,,,,,,,,,,,,,,,,,,,,,,,,,,,,,,,,,,,,,,,,,,,,,,,,,,,,,,,,,,A,train_y,decreasing,top_left,2024-10-30_14h36.31.480,HideSeek_v1,2022.2.5,60.15439226933422,
,4,2,4,2,0,0,61,,train_dim1_1,8,30,,,2,0,2,0,,,,,,,,,0,0,0,0,0,7,7,7,0,0,0,0,,,,,,,,,,,,,,,,,,,,,,,,,stimuli/alien_stimuli/61.png,,,,,,,,,,,,,,,,,,,,,,,,,,,,,stimuli/alien_stimuli/64.png,64,1,9,,,,,,,30,,,,,,,,224.65108069998678,224.65108069998678,224.65108069998678,224.65108069998678,224.65108069998678,return,1.958607500011567,6,0,0,1,0.16,-0.24,return,1.8840307999635115,17,0,0.16,-0.24,223.10741070000222,224.65108069998678,-0.08,0.08,0.24,0.0,-0.04,-0.08,-0.08,-0.08,0.08,222.06353280000621,222.06353280000621,222.06353280000621,222.06353280000621,222.06353280000621,222.06353280000621,222.06353280000621,222.06353280000621,222.05780001000966,1.1520451999967918,return,1.0221295999945141,,,,,,,,,,,,,,,,,,,,,,,,,,,,,,,,,,,,A,train_y,decreasing,top_left,2024-10-30_14h36.31.480,HideSeek_v1,2022.2.5,60.15439226933422,
,4,3,4,7,0,4,65,,train_dim1_1,9,30,,,2,0,2,0,,,,,,,,,0,0,0,0,0,8,8,8,0,0,0,0,,,,,,,,,,,,,,,,,,,,,,,,,stimuli/alien_stimuli/65.png,,,,,,,,,,,,,,,,,,,,,,,,,,,,,stimuli/alien_stimuli/61.png,61,4,10,,,,,,,30,,,,,,,,230.2659546000068,230.2659546000068,230.2659546000068,230.2659546000068,230.2659546000068,up,1.3420645000296645,6,0,0,99,0.16,-0.08,up,1.2700790999806486,,,,,228.7241534999921,230.2659546000068,0.16,-0.24,0.0,0.0,-0.24,0.16,0.16,0.16,-0.24,228.1572911000112,228.1572911000112,228.1572911000112,228.1572911000112,228.1572911000112,228.1572911000112,228.1572911000112,228.1572911000112,228.14062204997754,0.6519103999598883,return,0.5431654999847524,,,,,,,,,,,,,,,,,,,,,,,,,,,,,,,,,,,,A,train_y,decreasing,top_left,2024-10-30_14h36.31.480,HideSeek_v1,2022.2.5,60.15439226933422,
,4,3,4,7,0,4,65,,train_dim1_1,9,30,,,2,0,2,0,,,,,,,,,0,0,0,0,0,8,8,8,1,0,1,0,,,,,,,,,,,,,,,,,,,,,,,,,,,,,,,,,,,,,,,,,,,,,,,,,,,,,,,,,,,,,,,,30,,,,,,,,231.6238174000173,231.6238174000173,231.6238174000173,231.6238174000173,231.6238174000173,up,0.4934470999869518,6,0,0,99,0.16,0.0,up,0.4085400000330992,,,,,,,,,,,,,,,,,,,,,,,,,,,,,,,,,,,,,,,,,,,,,,,,,,,,,,,,,,,,,,,A,train_y,decreasing,top_left,2024-10-30_14h36.31.480,HideSeek_v1,2022.2.5,60.15439226933422,
,4,3,4,7,0,4,65,,train_dim1_1,9,30,,,2,0,2,0,,,,,,,,,0,0,0,0,0,8,8,8,2,0,2,0,,,,,,,,,,,,,,,,,,,,,,,,,,,,,,,,,,,,,,,,,,,,,,,,,,,,,,,,,,,,,,,,30,,,,,,,,232.1107956999913,232.1107956999913,232.1107956999913,232.1107956999913,232.1107956999913,up,0.4785320999799296,6,0,0,99,0.16,0.08,up,0.4092831999878399,,,,,,,,,,,,,,,,,,,,,,,,,,,,,,,,,,,,,,,,,,,,,,,,,,,,,,,,,,,,,,,A,train_y,decreasing,top_left,2024-10-30_14h36.31.480,HideSeek_v1,2022.2.5,60.15439226933422,
,4,3,4,7,0,4,65,,train_dim1_1,9,30,,,2,0,2,0,,,,,,,,,0,0,0,0,0,8,8,8,3,0,3,0,,,,,,,,,,,,,,,,,,,,,,,,,,,,,,,,,,,,,,,,,,,,,,,,,,,,,,,,,,,,,,,,30,,,,,,,,232.59602330002235,232.59602330002235,232.59602330002235,232.59602330002235,232.59602330002235,up,0.5111404999624938,6,0,0,99,0.16,0.16,up,0.44131690001813695,,,,,,,,,,,,,,,,,,,,,,,,,,,,,,,,,,,,,,,,,,,,,,,,,,,,,,,,,,,,,,,A,train_y,decreasing,top_left,2024-10-30_14h36.31.480,HideSeek_v1,2022.2.5,60.15439226933422,
,4,3,4,7,0,4,65,,train_dim1_1,9,30,,,2,0,2,0,,,,,,,,,0,0,0,0,0,8,8,8,4,0,4,0,,,,,,,,,,,,,,,,,,,,,,,,,,,,,,,,,,,,,,,,,,,,,,,,,,,,,,,,,,,,,,,,30,,,,,,,,233.11280240002088,233.11280240002088,233.11280240002088,233.11280240002088,233.11280240002088,return,0.39384619996417314,7,0,0,1,0.16,0.16,return,0.3130068000173196,21,0,0.16,0.16,,,,,,,,,,,,,,,,,,,,,,,,,,,,,,,,,,,,,,,,,,,,,,,,,,,,,,,,,,,A,train_y,decreasing,top_left,2024-10-30_14h36.31.480,HideSeek_v1,2022.2.5,60.15439226933422,
,2,2,2,7,0,5,66,,train_dim1_1,10,30,,,2,0,2,0,,,,,,,,,0,0,0,0,0,9,9,9,0,0,0,0,,,,,,,,,,,,,,,,,,,,,,,,,stimuli/alien_stimuli/66.png,,,,,,,,,,,,,,,,,,,,,,,,,,,,,stimuli/alien_stimuli/65.png,65,4,11,,,,,,,30,,,,,,,,240.17208520002896,240.17208520002896,240.17208520002896,240.17208520002896,240.17208520002896,up,0.791743999987375,7,0,0,99,0,-0.15999999999999998,up,0.703371099953074,,,,,238.62353320000693,240.17208520002896,0.16,0.16,0.32,0.0,0.0,0.16,0.16,0.16,0.16,235.04774940002244,235.04774940002244,235.04774940002244,235.04774940002244,235.04774940002244,235.04774940002244,235.04774940002244,235.04774940002244,235.04070045001572,3.6521692000096664,return,3.5564638000214472,,,,,,,,,,,,,,,,,,,,,,,,,,,,,,,,,,,,A,train_y,decreasing,top_left,2024-10-30_14h36.31.480,HideSeek_v1,2022.2.5,60.15439226933422,
,2,2,2,7,0,5,66,,train_dim1_1,10,30,,,2,0,2,0,,,,,,,,,0,0,0,0,0,9,9,9,1,0,1,0,,,,,,,,,,,,,,,,,,,,,,,,,,,,,,,,,,,,,,,,,,,,,,,,,,,,,,,,,,,,,,,,30,,,,,,,,240.96164039999712,240.96164039999712,240.96164039999712,240.96164039999712,240.96164039999712,up,0.4609785999637097,7,0,0,99,0,-0.07999999999999997,up,0.3863446000032127,,,,,,,,,,,,,,,,,,,,,,,,,,,,,,,,,,,,,,,,,,,,,,,,,,,,,,,,,,,,,,,A,train_y,decreasing,top_left,2024-10-30_14h36.31.480,HideSeek_v1,2022.2.5,60.15439226933422,
,2,2,2,7,0,5,66,,train_dim1_1,10,30,,,2,0,2,0,,,,,,,,,0,0,0,0,0,9,9,9,2,0,2,0,,,,,,,,,,,,,,,,,,,,,,,,,,,,,,,,,,,,,,,,,,,,,,,,,,,,,,,,,,,,,,,,30,,,,,,,,241.4269946999848,241.4269946999848,241.4269946999848,241.4269946999848,241.4269946999848,up,0.328297299973201,7,0,0,99,0,2.7755575615628914e-17,up,0.25418160000117496,,,,,,,,,,,,,,,,,,,,,,,,,,,,,,,,,,,,,,,,,,,,,,,,,,,,,,,,,,,,,,,A,train_y,decreasing,top_left,2024-10-30_14h36.31.480,HideSeek_v1,2022.2.5,60.15439226933422,
,2,2,2,7,0,5,66,,train_dim1_1,10,30,,,2,0,2,0,,,,,,,,,0,0,0,0,0,9,9,9,3,0,3,0,,,,,,,,,,,,,,,,,,,,,,,,,,,,,,,,,,,,,,,,,,,,,,,,,,,,,,,,,,,,,,,,30,,,,,,,,241.76259310002206,241.76259310002206,241.76259310002206,241.76259310002206,241.76259310002206,up,0.3611396999913268,7,0,0,99,0,0.08000000000000003,up,0.29192889999831095,,,,,,,,,,,,,,,,,,,,,,,,,,,,,,,,,,,,,,,,,,,,,,,,,,,,,,,,,,,,,,,A,train_y,decreasing,top_left,2024-10-30_14h36.31.480,HideSeek_v1,2022.2.5,60.15439226933422,
,2,2,2,7,0,5,66,,train_dim1_1,10,30,,,2,0,2,0,,,,,,,,,0,0,0,0,0,9,9,9,4,0,4,0,,,,,,,,,,,,,,,,,,,,,,,,,,,,,,,,,,,,,,,,,,,,,,,,,,,,,,,,,,,,,,,,30,,,,,,,,242.1268255999894,242.1268255999894,242.1268255999894,242.1268255999894,242.1268255999894,up,0.39422080002259463,7,0,0,99,0,0.16000000000000003,up,0.32096680003451183,,,,,,,,,,,,,,,,,,,,,,,,,,,,,,,,,,,,,,,,,,,,,,,,,,,,,,,,,,,,,,,A,train_y,decreasing,top_left,2024-10-30_14h36.31.480,HideSeek_v1,2022.2.5,60.15439226933422,
,2,2,2,7,0,5,66,,train_dim1_1,10,30,,,2,0,2,0,,,,,,,,,0,0,0,0,0,9,9,9,5,0,5,0,,,,,,,,,,,,,,,,,,,,,,,,,,,,,,,,,,,,,,,,,,,,,,,,,,,,,,,,,,,,,,,,30,,,,,,,,242.52893380000023,242.52893380000023,242.52893380000023,242.52893380000023,242.52893380000023,return,0.37843969999812543,8,0,0,1,0,0.16000000000000003,return,0.31105630000820383,26,0,0,0.16000000000000003,,,,,,,,,,,,,,,,,,,,,,,,,,,,,,,,,,,,,,,,,,,,,,,,,,,,,,,,,,,A,train_y,decreasing,top_left,2024-10-30_14h36.31.480,HideSeek_v1,2022.2.5,60.15439226933422,
,4,1,4,5,0,4,65,,train_dim1_1,11,30,,,2,0,2,0,,,,,,,,,0,0,0,0,0,10,10,10,0,0,0,0,,,,,,,,,,,,,,,,,,,,,,,,,stimuli/alien_stimuli/65.png,,,,,,,,,,,,,,,,,,,,,,,,,,,,,stimuli/alien_stimuli/66.png,66,2,12,,,,,,,30,,,,,,,,249.5786756000016,249.5786756000016,249.5786756000016,249.5786756000016,249.5786756000016,up,0.9250238999957219,8,0,0,99,0.16,-0.24,up,0.849161499994807,,,,,248.0404670999851,249.5786756000016,0,0.16,0.4,0.0,-0.039999999999999994,0,0.0,0,0.16,244.44762049999554,244.44762049999554,244.44762049999554,244.44762049999554,244.44762049999554,244.44762049999554,244.44762049999554,244.44762049999554,244.44084315001965,3.6682635999750346,return,3.5696475000004284,,,,,,,,,,,,,,,,,,,,,,,,,,,,,,,,,,,,A,train_y,decreasing,top_left,2024-10-30_14h36.31.480,HideSeek_v1,2022.2.5,60.15439226933422,
,4,1,4,5,0,4,65,,train_dim1_1,11,30,,,2,0,2,0,,,,,,,,,0,0,0,0,0,10,10,10,1,0,1,0,,,,,,,,,,,,,,,,,,,,,,,,,,,,,,,,,,,,,,,,,,,,,,,,,,,,,,,,,,,,,,,,30,,,,,,,,250.51010289997794,250.51010289997794,250.51010289997794,250.51010289997794,250.51010289997794,up,0.394523199996911,8,0,0,99,0.16,-0.15999999999999998,up,0.3269473999971524,,,,,,,,,,,,,,,,,,,,,,,,,,,,,,,,,,,,,,,,,,,,,,,,,,,,,,,,,,,,,,,A,train_y,decreasing,top_left,2024-10-30_14h36.31.480,HideSeek_v1,2022.2.5,60.15439226933422,
,4,1,4,5,0,4,65,,train_dim1_1,11,30,,,2,0,2,0,,,,,,,,,0,0,0,0,0,10,10,10,2,0,2,0,,,,,,,,,,,,,,,,,,,,,,,,,,,,,,,,,,,,,,,,,,,,,,,,,,,,,,,,,,,,,,,,30,,,,,,,,250.9115675999783,250.9115675999783,250.9115675999783,250.9115675999783,250.9115675999783,up,0.3776417000335641,8,0,0,99,0.16,-0.07999999999999997,up,0.29839989996980876,,,,,,,,,,,,,,,,,,,,,,,,,,,,,,,,,,,,,,,,,,,,,,,,,,,,,,,,,,,,,,,A,train_y,decreasing,top_left,2024-10-30_14h36.31.480,HideSeek_v1,2022.2.5,60.15439226933422,
,4,1,4,5,0,4,65,,train_dim1_1,11,30,,,2,0,2,0,,,,,,,,,0,0,0,0,0,10,10,10,3,0,3,0,,,,,,,,,,,,,,,,,,,,,,,,,,,,,,,,,,,,,,,,,,,,,,,,,,,,,,,,,,,,,,,,30,,,,,,,,251.29439749999437,251.29439749999437,251.29439749999437,251.29439749999437,251.29439749999437,up,0.39500819996465,8,0,0,99,0.16,2.7755575615628914e-17,up,0.32709460001206025,,,,,,,,,,,,,,,,,,,,,,,,,,,,,,,,,,,,,,,,,,,,,,,,,,,,,,,,,,,,,,,A,train_y,decreasing,top_left,2024-10-30_14h36.31.480,HideSeek_v1,2022.2.5,60.15439226933422,
,4,1,4,5,0,4,65,,train_dim1_1,11,30,,,2,0,2,0,,,,,,,,,0,0,0,0,0,10,10,10,4,0,4,0,,,,,,,,,,,,,,,,,,,,,,,,,,,,,,,,,,,,,,,,,,,,,,,,,,,,,,,,,,,,,,,,30,,,,,,,,251.69249220000347,251.69249220000347,251.69249220000347,251.69249220000347,251.69249220000347,return,0.32826889998978004,9,0,0,1,0.16,2.7755575615628914e-17,return,0.2542393999756314,30,0,0.16,2.7755575615628914e-17,,,,,,,,,,,,,,,,,,,,,,,,,,,,,,,,,,,,,,,,,,,,,,,,,,,,,,,,,,,A,train_y,decreasing,top_left,2024-10-30_14h36.31.480,HideSeek_v1,2022.2.5,60.15439226933422,
,0,0,0,0,0,0,61,,train_dim1_1,12,30,,,2,0,2,0,,,,,,,,,0,0,0,0,0,11,11,11,0,0,0,0,,,,,,,,,,,,,,,,,,,,,,,,,stimuli/alien_stimuli/61.png,,,,,,,,,,,,,,,,,,,,,,,,,,,,,stimuli/alien_stimuli/65.png,65,4,13,,,,,,,30,,,,,,,,256.1651002999861,256.1651002999861,256.1651002999861,256.1651002999861,256.1651002999861,return,1.4745449000038207,10,0,0,1,-0.16,-0.4,return,1.4020721000269987,30,0,-0.16,-0.4,254.62351910001598,256.1651002999861,0.16,0,0.32,0.0,-0.16,0.16,0.16,0.16,0,253.5646712000016,253.5646712000016,253.5646712000016,253.5646712000016,253.5646712000016,253.5646712000016,253.5646712000016,253.5646712000016,253.55679165001493,1.1361976999905892,return,1.0425208999658935,,,,,,,,,,,,,,,,,,,,,,,,,,,,,,,,,,,,A,train_y,decreasing,top_left,2024-10-30_14h36.31.480,HideSeek_v1,2022.2.5,60.15439226933422,
,4,3,4,4,0,1,62,,train_dim1_1,13,30,,,2,0,2,0,,,,,,,,,0,0,0,0,0,12,12,12,0,0,0,0,,,,,,,,,,,,,,,,,,,,,,,,,stimuli/alien_stimuli/62.png,,,,,,,,,,,,,,,,,,,,,,,,,,,,,stimuli/alien_stimuli/61.png,61,0,14,,,,,,,30,,,,,,,,261.19815780001227,261.19815780001227,261.19815780001227,261.19815780001227,261.19815780001227,up,1.1423072000034153,10,0,0,99,0.16,-0.08,up,1.0712132000480779,,,,,259.65704369999,261.19815780001227,-0.16,-0.4,0.0,0.0,-0.4,-0.16,-0.16,-0.16,-0.4,259.1903637999785,259.1903637999785,259.1903637999785,259.1903637999785,259.1903637999785,259.1903637999785,259.1903637999785,259.1903637999785,259.17367634997936,0.5518819999997504,return,0.44300999998813495,,,,,,,,,,,,,,,,,,,,,,,,,,,,,,,,,,,,A,train_y,decreasing,top_left,2024-10-30_14h36.31.480,HideSeek_v1,2022.2.5,60.15439226933422,
,4,3,4,4,0,1,62,,train_dim1_1,13,30,,,2,0,2,0,,,,,,,,,0,0,0,0,0,12,12,12,1,0,1,0,,,,,,,,,,,,,,,,,,,,,,,,,,,,,,,,,,,,,,,,,,,,,,,,,,,,,,,,,,,,,,,,30,,,,,,,,262.34649059997173,262.34649059997173,262.34649059997173,262.34649059997173,262.34649059997173,return,0.3438979999627918,11,0,0,1,0.16,-0.08,return,0.26529030001256615,31,0,0.16,-0.08,,,,,,,,,,,,,,,,,,,,,,,,,,,,,,,,,,,,,,,,,,,,,,,,,,,,,,,,,,,A,train_y,decreasing,top_left,2024-10-30_14h36.31.480,HideSeek_v1,2022.2.5,60.15439226933422,
,2,2,2,7,0,5,66,,train_dim1_1,14,30,,,2,0,2,0,,,,,,,,,0,0,0,0,0,13,13,13,0,0,0,0,,,,,,,,,,,,,,,,,,,,,,,,,stimuli/alien_stimuli/66.png,,,,,,,,,,,,,,,,,,,,,,,,,,,,,stimuli/alien_stimuli/62.png,62,4,15,,,,,,,30,,,,,,,,266.15028310002526,266.15028310002526,266.15028310002526,266.15028310002526,266.15028310002526,up,1.274708200013265,11,0,0,99,0,-0.15999999999999998,up,1.2009997999994084,,,,,264.5915490000043,264.2443621000275,0.16,-0.08,0.08,0.0,-0.12,0.16,0.16,0.16,-0.08,264.2443621000275,264.2443621000275,264.2443621000275,264.2443621000275,264.2443621000275,264.2443621000275,264.2443621000275,264.2443621000275,264.24015397999904,0.43592780001927167,return,0.3291808000067249,,,,,,,,,,,,,,,,,,,,,,,,,,,,,,,,,,,,A,train_y,decreasing,top_left,2024-10-30_14h36.31.480,HideSeek_v1,2022.2.5,60.15439226933422,
,2,2,2,7,0,5,66,,train_dim1_1,14,30,,,2,0,2,0,,,,,,,,,0,0,0,0,0,13,13,13,1,0,1,0,,,,,,,,,,,,,,,,,,,,,,,,,,,,,,,,,,,,,,,,,,,,,,,,,,,,,,,,,,,,,,,,30,,,,,,,,267.42651050002314,267.42651050002314,267.42651050002314,267.42651050002314,267.42651050002314,up,0.2279217999894172,11,0,0,99,0,-0.07999999999999997,up,0.16334060003282502,,,,,,,,,,,,,,,,,,,,,,,,,,,,,,,,,,,,,,,,,,,,,,,,,,,,,,,,,,,,,,,A,train_y,decreasing,top_left,2024-10-30_14h36.31.480,HideSeek_v1,2022.2.5,60.15439226933422,
,2,2,2,7,0,5,66,,train_dim1_1,14,30,,,2,0,2,0,,,,,,,,,0,0,0,0,0,13,13,13,2,0,2,0,,,,,,,,,,,,,,,,,,,,,,,,,,,,,,,,,,,,,,,,,,,,,,,,,,,,,,,,,,,,,,,,30,,,,,,,,267.6608720999793,267.6608720999793,267.6608720999793,267.6608720999793,267.6608720999793,up,0.22791139996843413,11,0,0,99,0,2.7755575615628914e-17,up,0.16033949999837205,,,,,,,,,,,,,,,,,,,,,,,,,,,,,,,,,,,,,,,,,,,,,,,,,,,,,,,,,,,,,,,A,train_y,decreasing,top_left,2024-10-30_14h36.31.480,HideSeek_v1,2022.2.5,60.15439226933422,
,2,2,2,7,0,5,66,,train_dim1_1,14,30,,,2,0,2,0,,,,,,,,,0,0,0,0,0,13,13,13,3,0,3,0,,,,,,,,,,,,,,,,,,,,,,,,,,,,,,,,,,,,,,,,,,,,,,,,,,,,,,,,,,,,,,,,30,,,,,,,,267.8913759000134,267.8913759000134,267.8913759000134,267.8913759000134,267.8913759000134,up,0.3614829999860376,11,0,0,99,0,0.08000000000000003,up,0.2845176000264473,,,,,,,,,,,,,,,,,,,,,,,,,,,,,,,,,,,,,,,,,,,,,,,,,,,,,,,,,,,,,,,A,train_y,decreasing,top_left,2024-10-30_14h36.31.480,HideSeek_v1,2022.2.5,60.15439226933422,
,2,2,2,7,0,5,66,,train_dim1_1,14,30,,,2,0,2,0,,,,,,,,,0,0,0,0,0,13,13,13,4,0,4,0,,,,,,,,,,,,,,,,,,,,,,,,,,,,,,,,,,,,,,,,,,,,,,,,,,,,,,,,,,,,,,,,30,,,,,,,,268.2597754999879,268.2597754999879,268.2597754999879,268.2597754999879,268.2597754999879,up,0.32794149999972433,11,0,0,99,0,0.16000000000000003,up,0.25722199998563156,,,,,,,,,,,,,,,,,,,,,,,,,,,,,,,,,,,,,,,,,,,,,,,,,,,,,,,,,,,,,,,A,train_y,decreasing,top_left,2024-10-30_14h36.31.480,HideSeek_v1,2022.2.5,60.15439226933422,
,2,2,2,7,0,5,66,,train_dim1_1,14,30,,,2,0,2,0,,,,,,,,,0,0,0,0,0,13,13,13,5,0,5,0,,,,,,,,,,,,,,,,,,,,,,,,,,,,,,,,,,,,,,,,,,,,,,,,,,,,,,,,,,,,,,,,30,,,,,,,,268.5957249000203,268.5957249000203,268.5957249000203,268.5957249000203,268.5957249000203,return,0.36165540001820773,12,0,0,1,0,0.16000000000000003,return,0.2819123000372201,36,0,0,0.16000000000000003,,,,,,,,,,,,,,,,,,,,,,,,,,,,,,,,,,,,,,,,,,,,,,,,,,,,,,,,,,,A,train_y,decreasing,top_left,2024-10-30_14h36.31.480,HideSeek_v1,2022.2.5,60.15439226933422,
,1,4,1,7,0,3,64,,train_dim1_1,15,30,,,2,0,2,0,,,,,,,,,0,0,0,0,0,14,14,14,0,0,0,0,,,,,,,,,,,,,,,,,,,,,,,,,stimuli/alien_stimuli/64.png,,,,,,,,,,,,,,,,,,,,,,,,,,,,,stimuli/alien_stimuli/66.png,66,2,16,,,,,,,30,,,,,,,,273.0446393999737,273.0446393999737,273.0446393999737,273.0446393999737,273.0446393999737,up,1.0920760000008158,12,0,0,99,-0.08,0.0,up,1.0292429000255652,,,,,271.50689830002375,273.0446393999737,0,0.16,0.4,0.0,-0.039999999999999994,0,0.0,0,0.16,270.49791709997226,270.49791709997226,270.49791709997226,270.49791709997226,270.49791709997226,270.49791709997226,270.49791709997226,270.49791709997226,270.4904077500105,1.0851326999836601,return,0.9836809000116773,,,,,,,,,,,,,,,,,,,,,,,,,,,,,,,,,,,,A,train_y,decreasing,top_left,2024-10-30_14h36.31.480,HideSeek_v1,2022.2.5,60.15439226933422,
,1,4,1,7,0,3,64,,train_dim1_1,15,30,,,2,0,2,0,,,,,,,,,0,0,0,0,0,14,14,14,1,0,1,0,,,,,,,,,,,,,,,,,,,,,,,,,,,,,,,,,,,,,,,,,,,,,,,,,,,,,,,,,,,,,,,,30,,,,,,,,274.1428881000029,274.1428881000029,274.1428881000029,274.1428881000029,274.1428881000029,up,0.29413120000390336,12,0,0,99,-0.08,0.08,up,0.21885119995567948,,,,,,,,,,,,,,,,,,,,,,,,,,,,,,,,,,,,,,,,,,,,,,,,,,,,,,,,,,,,,,,A,train_y,decreasing,top_left,2024-10-30_14h36.31.480,HideSeek_v1,2022.2.5,60.15439226933422,
,1,4,1,7,0,3,64,,train_dim1_1,15,30,,,2,0,2,0,,,,,,,,,0,0,0,0,0,14,14,14,2,0,2,0,,,,,,,,,,,,,,,,,,,,,,,,,,,,,,,,,,,,,,,,,,,,,,,,,,,,,,,,,,,,,,,,30,,,,,,,,274.4422522999812,274.4422522999812,274.4422522999812,274.4422522999812,274.4422522999812,up,0.3451113000046462,12,0,0,99,-0.08,0.16,up,0.2812720999936573,,,,,,,,,,,,,,,,,,,,,,,,,,,,,,,,,,,,,,,,,,,,,,,,,,,,,,,,,,,,,,,A,train_y,decreasing,top_left,2024-10-30_14h36.31.480,HideSeek_v1,2022.2.5,60.15439226933422,
,1,4,1,7,0,3,64,,train_dim1_1,15,30,,,2,0,2,0,,,,,,,,,0,0,0,0,0,14,14,14,3,0,3,0,,,,,,,,,,,,,,,,,,,,,,,,,,,,,,,,,,,,,,,,,,,,,,,,,,,,,,,,,,,,,,,,30,,,,,,,,274.7943537000101,274.7943537000101,274.7943537000101,274.7943537000101,274.7943537000101,return,0.3778429999947548,13,0,0,1,-0.08,0.16,return,0.2990039000287652,39,0,-0.08,0.16,,,,,,,,,,,,,,,,,,,,,,,,,,,,,,,,,,,,,,,,,,,,,,,,,,,,,,,,,,,A,train_y,decreasing,top_left,2024-10-30_14h36.31.480,HideSeek_v1,2022.2.5,60.15439226933422,
,4,0,4,4,0,4,65,,train_dim1_1,16,30,,,2,0,2,0,,,,,,,,,0,0,0,0,0,15,15,15,0,0,0,0,,,,,,,,,,,,,,,,,,,,,,,,,stimuli/alien_stimuli/65.png,,,,,,,,,,,,,,,,,,,,,,,,,,,,,stimuli/alien_stimuli/64.png,64,1,17,,,,,,,30,,,,,,,,278.71361550001893,278.71361550001893,278.71361550001893,278.71361550001893,278.71361550001893,up,0.6754495999775827,13,0,0,99,0.16,-0.32,up,0.6094162000226788,,,,,277.17320499999914,278.71361550001893,-0.08,0.16,0.24,0.0,0.04,-0.08,-0.08,-0.08,0.16,276.7233558000298,276.7233558000298,276.7233558000298,276.7233558000298,276.7233558000298,276.7233558000298,276.7233558000298,276.7233558000298,276.7067380499793,0.5359923000214621,return,0.4324851999990642,,,,,,,,,,,,,,,,,,,,,,,,,,,,,,,,,,,,A,train_y,decreasing,top_left,2024-10-30_14h36.31.480,HideSeek_v1,2022.2.5,60.15439226933422,
,4,0,4,4,0,4,65,,train_dim1_1,16,30,,,2,0,2,0,,,,,,,,,0,0,0,0,0,15,15,15,1,0,1,0,,,,,,,,,,,,,,,,,,,,,,,,,,,,,,,,,,,,,,,,,,,,,,,,,,,,,,,,,,,,,,,,30,,,,,,,,279.39463260001503,279.39463260001503,279.39463260001503,279.39463260001503,279.39463260001503,up,0.3107702999841422,13,0,0,99,0.16,-0.24,up,0.2337211999692954,,,,,,,,,,,,,,,,,,,,,,,,,,,,,,,,,,,,,,,,,,,,,,,,,,,,,,,,,,,,,,,A,train_y,decreasing,top_left,2024-10-30_14h36.31.480,HideSeek_v1,2022.2.5,60.15439226933422,
,4,0,4,4,0,4,65,,train_dim1_1,16,30,,,2,0,2,0,,,,,,,,,0,0,0,0,0,15,15,15,2,0,2,0,,,,,,,,,,,,,,,,,,,,,,,,,,,,,,,,,,,,,,,,,,,,,,,,,,,,,,,,,,,,,,,,30,,,,,,,,279.7107607999933,279.7107607999933,279.7107607999933,279.7107607999933,279.7107607999933,up,0.3283965999726206,13,0,0,99,0.16,-0.15999999999999998,up,0.26197200000751764,,,,,,,,,,,,,,,,,,,,,,,,,,,,,,,,,,,,,,,,,,,,,,,,,,,,,,,,,,,,,,,A,train_y,decreasing,top_left,2024-10-30_14h36.31.480,HideSeek_v1,2022.2.5,60.15439226933422,
,4,0,4,4,0,4,65,,train_dim1_1,16,30,,,2,0,2,0,,,,,,,,,0,0,0,0,0,15,15,15,3,0,3,0,,,,,,,,,,,,,,,,,,,,,,,,,,,,,,,,,,,,,,,,,,,,,,,,,,,,,,,,,,,,,,,,30,,,,,,,,280.0435849999776,280.0435849999776,280.0435849999776,280.0435849999776,280.0435849999776,up,0.2604937999858521,13,0,0,99,0.16,-0.07999999999999997,up,0.19246580003527924,,,,,,,,,,,,,,,,,,,,,,,,,,,,,,,,,,,,,,,,,,,,,,,,,,,,,,,,,,,,,,,A,train_y,decreasing,top_left,2024-10-30_14h36.31.480,HideSeek_v1,2022.2.5,60.15439226933422,
,4,0,4,4,0,4,65,,train_dim1_1,16,30,,,2,0,2,0,,,,,,,,,0,0,0,0,0,15,15,15,4,0,4,0,,,,,,,,,,,,,,,,,,,,,,,,,,,,,,,,,,,,,,,,,,,,,,,,,,,,,,,,,,,,,,,,30,,,,,,,,280.3105330999824,280.3105330999824,280.3105330999824,280.3105330999824,280.3105330999824,return,0.31227260001469404,14,0,0,1,0.16,-0.07999999999999997,return,0.23337019997416064,43,0,0.16,-0.07999999999999997,,,,,,,,,,,,,,,,,,,,,,,,,,,,,,,,,,,,,,,,,,,,,,,,,,,,,,,,,,,A,train_y,decreasing,top_left,2024-10-30_14h36.31.480,HideSeek_v1,2022.2.5,60.15439226933422,
,3,3,3,6,0,3,64,,train_dim1_1,17,30,,,2,0,2,0,,,,,,,,,0,0,0,0,0,16,16,16,0,0,0,0,,,,,,,,,,,,,,,,,,,,,,,,,stimuli/alien_stimuli/64.png,,,,,,,,,,,,,,,,,,,,,,,,,,,,,stimuli/alien_stimuli/65.png,65,4,18,,,,,,,30,,,,,,,,284.0649033000227,284.0649033000227,284.0649033000227,284.0649033000227,284.0649033000227,up,0.5921674000564963,14,0,0,99,0.08,-0.08,up,0.5121492999605834,,,,,282.52329560002545,284.0649033000227,0.16,-0.08,0.32,0.0,-0.24000000000000002,0.16,0.16,0.16,-0.08,282.16468410001835,282.16468410001835,282.16468410001835,282.16468410001835,282.16468410001835,282.16468410001835,282.16468410001835,282.16468410001835,282.15701755002374,0.4348887999658473,return,0.334472700022161,,,,,,,,,,,,,,,,,,,,,,,,,,,,,,,,,,,,A,train_y,decreasing,top_left,2024-10-30_14h36.31.480,HideSeek_v1,2022.2.5,60.15439226933422,
,3,3,3,6,0,3,64,,train_dim1_1,17,30,,,2,0,2,0,,,,,,,,,0,0,0,0,0,16,16,16,1,0,1,0,,,,,,,,,,,,,,,,,,,,,,,,,,,,,,,,,,,,,,,,,,,,,,,,,,,,,,,,,,,,,,,,30,,,,,,,,284.6602577000158,284.6602577000158,284.6602577000158,284.6602577000158,284.6602577000158,up,0.3281212999718264,14,0,0,99,0.08,0.0,up,0.26024899998446926,,,,,,,,,,,,,,,,,,,,,,,,,,,,,,,,,,,,,,,,,,,,,,,,,,,,,,,,,,,,,,,A,train_y,decreasing,top_left,2024-10-30_14h36.31.480,HideSeek_v1,2022.2.5,60.15439226933422,
,3,3,3,6,0,3,64,,train_dim1_1,17,30,,,2,0,2,0,,,,,,,,,0,0,0,0,0,16,16,16,2,0,2,0,,,,,,,,,,,,,,,,,,,,,,,,,,,,,,,,,,,,,,,,,,,,,,,,,,,,,,,,,,,,,,,,30,,,,,,,,284.99344039999414,284.99344039999414,284.99344039999414,284.99344039999414,284.99344039999414,up,0.3455954999662936,14,0,0,99,0.08,0.08,up,0.2661898999940604,,,,,,,,,,,,,,,,,,,,,,,,,,,,,,,,,,,,,,,,,,,,,,,,,,,,,,,,,,,,,,,A,train_y,decreasing,top_left,2024-10-30_14h36.31.480,HideSeek_v1,2022.2.5,60.15439226933422,
,3,3,3,6,0,3,64,,train_dim1_1,17,30,,,2,0,2,0,,,,,,,,,0,0,0,0,0,16,16,16,3,0,3,0,,,,,,,,,,,,,,,,,,,,,,,,,,,,,,,,,,,,,,,,,,,,,,,,,,,,,,,,,,,,,,,,30,,,,,,,,285.34242419997463,285.34242419997463,285.34242419997463,285.34242419997463,285.34242419997463,return,0.31044059997657314,15,0,0,1,0.08,0.08,return,0.24876240000594407,46,0,0.08,0.08,,,,,,,,,,,,,,,,,,,,,,,,,,,,,,,,,,,,,,,,,,,,,,,,,,,,,,,,,,,A,train_y,decreasing,top_left,2024-10-30_14h36.31.480,HideSeek_v1,2022.2.5,60.15439226933422,
,2,1,2,1,0,0,61,,train_dim1_1,18,30,,,2,0,2,0,,,,,,,,,0,0,0,0,0,17,17,17,0,0,0,0,,,,,,,,,,,,,,,,,,,,,,,,,stimuli/alien_stimuli/61.png,,,,,,,,,,,,,,,,,,,,,,,,,,,,,stimuli/alien_stimuli/64.png,64,3,19,,,,,,,30,,,,,,,,289.24731280002743,289.24731280002743,289.24731280002743,289.24731280002743,289.24731280002743,up,0.5583698999835178,15,0,0,99,0,-0.24,up,0.48077139997622,,,,,287.70645489997696,289.24731280002743,0.08,0.08,0.24,0.0,-0.04,0.08,0.08,0.08,0.08,287.20030859997496,287.20030859997496,287.20030859997496,287.20030859997496,287.20030859997496,287.20030859997496,287.20030859997496,287.20030859997496,287.18995334999636,0.5857143999892287,return,0.4828747999854386,,,,,,,,,,,,,,,,,,,,,,,,,,,,,,,,,,,,A,train_y,decreasing,top_left,2024-10-30_14h36.31.480,HideSeek_v1,2022.2.5,60.15439226933422,
,2,1,2,1,0,0,61,,train_dim1_1,18,30,,,2,0,2,0,,,,,,,,,0,0,0,0,0,17,17,17,1,0,1,0,,,,,,,,,,,,,,,,,,,,,,,,,,,,,,,,,,,,,,,,,,,,,,,,,,,,,,,,,,,,,,,,30,,,,,,,,289.8110596999759,289.8110596999759,289.8110596999759,289.8110596999759,289.8110596999759,up,0.44435449998127297,15,0,0,99,0,-0.15999999999999998,up,0.3716746999998577,,,,,,,,,,,,,,,,,,,,,,,,,,,,,,,,,,,,,,,,,,,,,,,,,,,,,,,,,,,,,,,A,train_y,decreasing,top_left,2024-10-30_14h36.31.480,HideSeek_v1,2022.2.5,60.15439226933422,
,2,1,2,1,0,0,61,,train_dim1_1,18,30,,,2,0,2,0,,,,,,,,,0,0,0,0,0,17,17,17,2,0,2,0,,,,,,,,,,,,,,,,,,,,,,,,,,,,,,,,,,,,,,,,,,,,,,,,,,,,,,,,,,,,,,,,30,,,,,,,,290.26132510002935,290.26132510002935,290.26132510002935,290.26132510002935,290.26132510002935,down,1.1113297999836504,15,0,0,99,0,-0.24,down,1.0294667000416666,,,,,,,,,,,,,,,,,,,,,,,,,,,,,,,,,,,,,,,,,,,,,,,,,,,,,,,,,,,,,,,A,train_y,decreasing,top_left,2024-10-30_14h36.31.480,HideSeek_v1,2022.2.5,60.15439226933422,
,2,1,2,1,0,0,61,,train_dim1_1,18,30,,,2,0,2,0,,,,,,,,,0,0,0,0,0,17,17,17,3,0,3,0,,,,,,,,,,,,,,,,,,,,,,,,,,,,,,,,,,,,,,,,,,,,,,,,,,,,,,,,,,,,,,,,30,,,,,,,,291.391859699972,291.391859699972,291.391859699972,291.391859699972,291.391859699972,down,3.3613129999721423,15,0,0,99,0,-0.32,down,3.2805388999986462,,,,,,,,,,,,,,,,,,,,,,,,,,,,,,,,,,,,,,,,,,,,,,,,,,,,,,,,,,,,,,,A,train_y,decreasing,top_left,2024-10-30_14h36.31.480,HideSeek_v1,2022.2.5,60.15439226933422,
,2,1,2,1,0,0,61,,train_dim1_1,18,30,,,2,0,2,0,,,,,,,,,0,0,0,0,0,17,17,17,4,0,4,0,,,,,,,,,,,,,,,,,,,,,,,,,,,,,,,,,,,,,,,,,,,,,,,,,,,,,,,,,,,,,,,,30,,,,,,,,294.7570706999977,294.7570706999977,294.7570706999977,294.7570706999977,294.7570706999977,return,0.8276923999655992,16,0,0,1,0,-0.32,return,0.7410875000059605,46,0,0,-0.32,,,,,,,,,,,,,,,,,,,,,,,,,,,,,,,,,,,,,,,,,,,,,,,,,,,,,,,,,,,A,train_y,decreasing,top_left,2024-10-30_14h36.31.480,HideSeek_v1,2022.2.5,60.15439226933422,
,0,4,0,5,0,1,62,,train_dim1_1,19,30,,,2,0,2,0,,,,,,,,,0,0,0,0,0,18,18,18,0,0,0,0,,,,,,,,,,,,,,,,,,,,,,,,,stimuli/alien_stimuli/62.png,,,,,,,,,,,,,,,,,,,,,,,,,,,,,stimuli/alien_stimuli/61.png,61,2,20,,,,,,,30,,,,,,,,299.2643102000002,299.2643102000002,299.2643102000002,299.2643102000002,299.2643102000002,up,2.0914166000438854,16,0,0,99,-0.16,0.0,up,2.0113701000227593,,,,,297.722980200022,299.2643102000002,0,-0.32,0.0,0.0,-0.32,0,0.0,0,-0.32,297.12390180001967,297.12390180001967,297.12390180001967,297.12390180001967,297.12390180001967,297.12390180001967,297.12390180001967,297.12390180001967,297.10633824998513,0.6849925999995321,return,0.5733507000259124,,,,,,,,,,,,,,,,,,,,,,,,,,,,,,,,,,,,A,train_y,decreasing,top_left,2024-10-30_14h36.31.480,HideSeek_v1,2022.2.5,60.15439226933422,
,0,4,0,5,0,1,62,,train_dim1_1,19,30,,,2,0,2,0,,,,,,,,,0,0,0,0,0,18,18,18,1,0,1,0,,,,,,,,,,,,,,,,,,,,,,,,,,,,,,,,,,,,,,,,,,,,,,,,,,,,,,,,,,,,,,,,30,,,,,,,,301.3641292999964,301.3641292999964,301.3641292999964,301.3641292999964,301.3641292999964,return,0.4290010000113398,17,0,0,1,-0.16,0.0,return,0.35037579998606816,47,0,-0.16,0.0,,,,,,,,,,,,,,,,,,,,,,,,,,,,,,,,,,,,,,,,,,,,,,,,,,,,,,,,,,,A,train_y,decreasing,top_left,2024-10-30_14h36.31.480,HideSeek_v1,2022.2.5,60.15439226933422,
,2,0,2,5,0,5,66,,train_dim1_1,20,30,,,2,0,2,0,,,,,,,,,0,0,0,0,0,19,19,19,0,0,0,0,,,,,,,,,,,,,,,,,,,,,,,,,stimuli/alien_stimuli/66.png,,,,,,,,,,,,,,,,,,,,,,,,,,,,,stimuli/alien_stimuli/62.png,62,0,21,,,,,,,30,,,,,,,,306.81419790000655,306.81419790000655,306.81419790000655,306.81419790000655,306.81419790000655,up,1.124647599994205,17,0,0,99,0,-0.32,up,1.0476610999903642,,,,,305.2734138999949,306.81419790000655,-0.16,0,0.08,0.0,-0.04,-0.16,-0.16,-0.16,0,303.3368555000052,303.3368555000052,303.3368555000052,303.3368555000052,303.3368555000052,303.3368555000052,303.3368555000052,303.3368555000052,303.3232643500087,2.0192408000002615,return,1.9139351000194438,,,,,,,,,,,,,,,,,,,,,,,,,,,,,,,,,,,,A,train_y,decreasing,top_left,2024-10-30_14h36.31.480,HideSeek_v1,2022.2.5,60.15439226933422,
,2,0,2,5,0,5,66,,train_dim1_1,20,30,,,2,0,2,0,,,,,,,,,0,0,0,0,0,19,19,19,1,0,1,0,,,,,,,,,,,,,,,,,,,,,,,,,,,,,,,,,,,,,,,,,,,,,,,,,,,,,,,,,,,,,,,,30,,,,,,,,307.94615239999257,307.94615239999257,307.94615239999257,307.94615239999257,307.94615239999257,up,0.36084700003266335,17,0,0,99,0,-0.24,up,0.2938511000247672,,,,,,,,,,,,,,,,,,,,,,,,,,,,,,,,,,,,,,,,,,,,,,,,,,,,,,,,,,,,,,,A,train_y,decreasing,top_left,2024-10-30_14h36.31.480,HideSeek_v1,2022.2.5,60.15439226933422,
,2,0,2,5,0,5,66,,train_dim1_1,20,30,,,2,0,2,0,,,,,,,,,0,0,0,0,0,19,19,19,2,0,2,0,,,,,,,,,,,,,,,,,,,,,,,,,,,,,,,,,,,,,,,,,,,,,,,,,,,,,,,,,,,,,,,,30,,,,,,,,308.3122155999881,308.3122155999881,308.3122155999881,308.3122155999881,308.3122155999881,up,0.3777520000003278,17,0,0,99,0,-0.15999999999999998,up,0.3003591999877244,,,,,,,,,,,,,,,,,,,,,,,,,,,,,,,,,,,,,,,,,,,,,,,,,,,,,,,,,,,,,,,A,train_y,decreasing,top_left,2024-10-30_14h36.31.480,HideSeek_v1,2022.2.5,60.15439226933422,
,2,0,2,5,0,5,66,,train_dim1_1,20,30,,,2,0,2,0,,,,,,,,,0,0,0,0,0,19,19,19,3,0,3,0,,,,,,,,,,,,,,,,,,,,,,,,,,,,,,,,,,,,,,,,,,,,,,,,,,,,,,,,,,,,,,,,30,,,,,,,,308.6939452000079,308.6939452000079,308.6939452000079,308.6939452000079,308.6939452000079,up,0.3617781999637373,17,0,0,99,0,-0.07999999999999997,up,0.28596180002205074,,,,,,,,,,,,,,,,,,,,,,,,,,,,,,,,,,,,,,,,,,,,,,,,,,,,,,,,,,,,,,,A,train_y,decreasing,top_left,2024-10-30_14h36.31.480,HideSeek_v1,2022.2.5,60.15439226933422,
,2,0,2,5,0,5,66,,train_dim1_1,20,30,,,2,0,2,0,,,,,,,,,0,0,0,0,0,19,19,19,4,0,4,0,,,,,,,,,,,,,,,,,,,,,,,,,,,,,,,,,,,,,,,,,,,,,,,,,,,,,,,,,,,,,,,,30,,,,,,,,309.060775400023,309.060775400023,309.060775400023,309.060775400023,309.060775400023,up,0.3612365999724716,17,0,0,99,0,2.7755575615628914e-17,up,0.2897085000295192,,,,,,,,,,,,,,,,,,,,,,,,,,,,,,,,,,,,,,,,,,,,,,,,,,,,,,,,,,,,,,,A,train_y,decreasing,top_left,2024-10-30_14h36.31.480,HideSeek_v1,2022.2.5,60.15439226933422,
,2,0,2,5,0,5,66,,train_dim1_1,20,30,,,2,0,2,0,,,,,,,,,0,0,0,0,0,19,19,19,5,0,5,0,,,,,,,,,,,,,,,,,,,,,,,,,,,,,,,,,,,,,,,,,,,,,,,,,,,,,,,,,,,,,,,,30,,,,,,,,309.42774120002287,309.42774120002287,309.42774120002287,309.42774120002287,309.42774120002287,return,0.5941964000230655,18,0,0,1,0,2.7755575615628914e-17,return,0.5149201999884099,52,0,0,2.7755575615628914e-17,,,,,,,,,,,,,,,,,,,,,,,,,,,,,,,,,,,,,,,,,,,,,,,,,,,,,,,,,,,A,train_y,decreasing,top_left,2024-10-30_14h36.31.480,HideSeek_v1,2022.2.5,60.15439226933422,
,2,4,2,8,0,4,65,,train_dim1_1,21,30,,,2,0,2,0,,,,,,,,,0,0,0,0,0,20,20,20,0,0,0,0,,,,,,,,,,,,,,,,,,,,,,,,,stimuli/alien_stimuli/65.png,,,,,,,,,,,,,,,,,,,,,,,,,,,,,stimuli/alien_stimuli/66.png,66,2,22,,,,,,,30,,,,,,,,313.9171835000161,313.9171835000161,313.9171835000161,313.9171835000161,313.9171835000161,up,0.8423831000109203,18,0,0,99,0,0.0,up,0.7498350000241771,,,,,312.35623580001993,313.9171835000161,0,0,0.4,0.0,-0.2,0,0.0,0,0,311.5666118999943,311.5666118999943,311.5666118999943,311.5666118999943,311.5666118999943,311.5666118999943,311.5666118999943,311.5666118999943,311.55733315000543,0.8679302000091411,return,0.758296900021378,,,,,,,,,,,,,,,,,,,,,,,,,,,,,,,,,,,,A,train_y,decreasing,top_left,2024-10-30_14h36.31.480,HideSeek_v1,2022.2.5,60.15439226933422,
,2,4,2,8,0,4,65,,train_dim1_1,21,30,,,2,0,2,0,,,,,,,,,0,0,0,0,0,20,20,20,1,0,1,0,,,,,,,,,,,,,,,,,,,,,,,,,,,,,,,,,,,,,,,,,,,,,,,,,,,,,,,,,,,,,,,,30,,,,,,,,314.74664450000273,314.74664450000273,314.74664450000273,314.74664450000273,314.74664450000273,up,0.35994790005497634,18,0,0,99,0,0.08,up,0.2796835000044666,,,,,,,,,,,,,,,,,,,,,,,,,,,,,,,,,,,,,,,,,,,,,,,,,,,,,,,,,,,,,,,A,train_y,decreasing,top_left,2024-10-30_14h36.31.480,HideSeek_v1,2022.2.5,60.15439226933422,
,2,4,2,8,0,4,65,,train_dim1_1,21,30,,,2,0,2,0,,,,,,,,,0,0,0,0,0,20,20,20,2,0,2,0,,,,,,,,,,,,,,,,,,,,,,,,,,,,,,,,,,,,,,,,,,,,,,,,,,,,,,,,,,,,,,,,30,,,,,,,,315.11606740002753,315.11606740002753,315.11606740002753,315.11606740002753,315.11606740002753,up,0.3945741999777965,18,0,0,99,0,0.16,up,0.31551730004139245,,,,,,,,,,,,,,,,,,,,,,,,,,,,,,,,,,,,,,,,,,,,,,,,,,,,,,,,,,,,,,,A,train_y,decreasing,top_left,2024-10-30_14h36.31.480,HideSeek_v1,2022.2.5,60.15439226933422,
,2,4,2,8,0,4,65,,train_dim1_1,21,30,,,2,0,2,0,,,,,,,,,0,0,0,0,0,20,20,20,3,0,3,0,,,,,,,,,,,,,,,,,,,,,,,,,,,,,,,,,,,,,,,,,,,,,,,,,,,,,,,,,,,,,,,,30,,,,,,,,315.5127977000084,315.5127977000084,315.5127977000084,315.5127977000084,315.5127977000084,up,0.39414140000008047,18,0,0,99,0,0.24,up,0.3139441999956034,,,,,,,,,,,,,,,,,,,,,,,,,,,,,,,,,,,,,,,,,,,,,,,,,,,,,,,,,,,,,,,A,train_y,decreasing,top_left,2024-10-30_14h36.31.480,HideSeek_v1,2022.2.5,60.15439226933422,
,2,4,2,8,0,4,65,,train_dim1_1,21,30,,,2,0,2,0,,,,,,,,,0,0,0,0,0,20,20,20,4,0,4,0,,,,,,,,,,,,,,,,,,,,,,,,,,,,,,,,,,,,,,,,,,,,,,,,,,,,,,,,,,,,,,,,30,,,,,,,,315.9120142000029,315.9120142000029,315.9120142000029,315.9120142000029,315.9120142000029,return,0.9946817999589257,19,0,0,1,0,0.24,return,0.9158000000170432,56,0,0,0.24,,,,,,,,,,,,,,,,,,,,,,,,,,,,,,,,,,,,,,,,,,,,,,,,,,,,,,,,,,,A,train_y,decreasing,top_left,2024-10-30_14h36.31.480,HideSeek_v1,2022.2.5,60.15439226933422,
,0,2,0,5,0,3,64,,train_dim1_1,22,30,,,2,0,2,0,,,,,,,,,0,0,0,0,0,21,21,21,0,0,0,0,,,,,,,,,,,,,,,,,,,,,,,,,stimuli/alien_stimuli/64.png,,,,,,,,,,,,,,,,,,,,,,,,,,,,,stimuli/alien_stimuli/65.png,65,2,23,,,,,,,30,,,,,,,,320.9468627999886,320.9468627999886,320.9468627999886,320.9468627999886,320.9468627999886,up,0.6420039000222459,19,0,0,99,-0.16,-0.15999999999999998,up,0.5710001999977976,,,,,319.40609900001436,320.9468627999886,0,0.24,0.32,0.0,0.07999999999999999,0,0.0,0,0.24,318.46908750000875,318.46908750000875,318.46908750000875,318.46908750000875,318.46908750000875,318.46908750000875,318.46908750000875,318.46908750000875,318.4563946799841,1.0354992999928072,return,0.9097460999619216,,,,,,,,,,,,,,,,,,,,,,,,,,,,,,,,,,,,A,train_y,decreasing,top_left,2024-10-30_14h36.31.480,HideSeek_v1,2022.2.5,60.15439226933422,
,0,2,0,5,0,3,64,,train_dim1_1,22,30,,,2,0,2,0,,,,,,,,,0,0,0,0,0,21,21,21,1,0,1,0,,,,,,,,,,,,,,,,,,,,,,,,,,,,,,,,,,,,,,,,,,,,,,,,,,,,,,,,,,,,,,,,30,,,,,,,,321.5957994000055,321.5957994000055,321.5957994000055,321.5957994000055,321.5957994000055,up,0.35952700005145743,19,0,0,99,-0.16,-0.07999999999999997,up,0.28507250000257045,,,,,,,,,,,,,,,,,,,,,,,,,,,,,,,,,,,,,,,,,,,,,,,,,,,,,,,,,,,,,,,A,train_y,decreasing,top_left,2024-10-30_14h36.31.480,HideSeek_v1,2022.2.5,60.15439226933422,
,0,2,0,5,0,3,64,,train_dim1_1,22,30,,,2,0,2,0,,,,,,,,,0,0,0,0,0,21,21,21,2,0,2,0,,,,,,,,,,,,,,,,,,,,,,,,,,,,,,,,,,,,,,,,,,,,,,,,,,,,,,,,,,,,,,,,30,,,,,,,,321.9612422999926,321.9612422999926,321.9612422999926,321.9612422999926,321.9612422999926,up,0.3109608000377193,19,0,0,99,-0.16,2.7755575615628914e-17,up,0.2306389000150375,,,,,,,,,,,,,,,,,,,,,,,,,,,,,,,,,,,,,,,,,,,,,,,,,,,,,,,,,,,,,,,A,train_y,decreasing,top_left,2024-10-30_14h36.31.480,HideSeek_v1,2022.2.5,60.15439226933422,
,0,2,0,5,0,3,64,,train_dim1_1,22,30,,,2,0,2,0,,,,,,,,,0,0,0,0,0,21,21,21,3,0,3,0,,,,,,,,,,,,,,,,,,,,,,,,,,,,,,,,,,,,,,,,,,,,,,,,,,,,,,,,,,,,,,,,30,,,,,,,,322.2767850999953,322.2767850999953,322.2767850999953,322.2767850999953,322.2767850999953,return,0.3781366999610327,20,0,0,1,-0.16,2.7755575615628914e-17,return,0.30972030002158135,59,0,-0.16,2.7755575615628914e-17,,,,,,,,,,,,,,,,,,,,,,,,,,,,,,,,,,,,,,,,,,,,,,,,,,,,,,,,,,,A,train_y,decreasing,top_left,2024-10-30_14h36.31.480,HideSeek_v1,2022.2.5,60.15439226933422,
,0,3,0,3,0,0,61,,train_dim1_1,23,30,,,2,0,2,0,,,,,,,,,0,0,0,0,0,22,22,22,0,0,0,0,,,,,,,,,,,,,,,,,,,,,,,,,stimuli/alien_stimuli/61.png,,,,,,,,,,,,,,,,,,,,,,,,,,,,,stimuli/alien_stimuli/64.png,64,0,24,,,,,,,30,,,,,,,,326.36260890000267,326.36260890000267,326.36260890000267,326.36260890000267,326.36260890000267,return,1.5921160000143573,21,0,0,1,-0.16,-0.16,return,1.5233069999958389,59,0,-0.16,-0.16,324.82260209997185,326.36260890000267,-0.16,0,0.24,0.0,-0.12,-0.16,-0.16,-0.16,0,324.19821190001676,324.19821190001676,324.19821190001676,324.19821190001676,324.19821190001676,324.19821190001676,324.19821190001676,324.19821190001676,324.18953655002406,0.7019761999836192,return,0.5932577999774367,,,,,,,,,,,,,,,,,,,,,,,,,,,,,,,,,,,,A,train_y,decreasing,top_left,2024-10-30_14h36.31.480,HideSeek_v1,2022.2.5,60.15439226933422,
,3,2,3,7,0,5,66,,train_dim1_1,24,30,,,2,0,2,0,,,,,,,,,0,0,0,0,0,23,23,23,0,0,0,0,,,,,,,,,,,,,,,,,,,,,,,,,stimuli/alien_stimuli/66.png,,,,,,,,,,,,,,,,,,,,,,,,,,,,,stimuli/alien_stimuli/61.png,61,0,25,,,,,,,30,,,,,,,,331.4792484000209,331.4792484000209,331.4792484000209,331.4792484000209,331.4792484000209,up,0.9257735999999568,21,0,0,99,0.08,-0.15999999999999998,up,0.8126872000284493,,,,,329.9062384000281,331.4792484000209,-0.16,-0.16,0.0,0.0,-0.16,-0.16,-0.16,-0.16,-0.16,329.4989650999778,329.4989650999778,329.4989650999778,329.4989650999778,329.4989650999778,329.4989650999778,329.4989650999778,329.4989650999778,329.4898020499968,0.48526460002176464,return,0.38398959999904037,,,,,,,,,,,,,,,,,,,,,,,,,,,,,,,,,,,,A,train_y,decreasing,top_left,2024-10-30_14h36.31.480,HideSeek_v1,2022.2.5,60.15439226933422,
,3,2,3,7,0,5,66,,train_dim1_1,24,30,,,2,0,2,0,,,,,,,,,0,0,0,0,0,23,23,23,1,0,1,0,,,,,,,,,,,,,,,,,,,,,,,,,,,,,,,,,,,,,,,,,,,,,,,,,,,,,,,,,,,,,,,,30,,,,,,,,332.37983930000337,332.37983930000337,332.37983930000337,332.37983930000337,332.37983930000337,up,0.27777149999747053,21,0,0,99,0.08,-0.07999999999999997,up,0.20076260005589575,,,,,,,,,,,,,,,,,,,,,,,,,,,,,,,,,,,,,,,,,,,,,,,,,,,,,,,,,,,,,,,A,train_y,decreasing,top_left,2024-10-30_14h36.31.480,HideSeek_v1,2022.2.5,60.15439226933422,
,3,2,3,7,0,5,66,,train_dim1_1,24,30,,,2,0,2,0,,,,,,,,,0,0,0,0,0,23,23,23,2,0,2,0,,,,,,,,,,,,,,,,,,,,,,,,,,,,,,,,,,,,,,,,,,,,,,,,,,,,,,,,,,,,,,,,30,,,,,,,,332.660526200023,332.660526200023,332.660526200023,332.660526200023,332.660526200023,up,0.3443503999733366,21,0,0,99,0.08,2.7755575615628914e-17,up,0.2709819999872707,,,,,,,,,,,,,,,,,,,,,,,,,,,,,,,,,,,,,,,,,,,,,,,,,,,,,,,,,,,,,,,A,train_y,decreasing,top_left,2024-10-30_14h36.31.480,HideSeek_v1,2022.2.5,60.15439226933422,
,3,2,3,7,0,5,66,,train_dim1_1,24,30,,,2,0,2,0,,,,,,,,,0,0,0,0,0,23,23,23,3,0,3,0,,,,,,,,,,,,,,,,,,,,,,,,,,,,,,,,,,,,,,,,,,,,,,,,,,,,,,,,,,,,,,,,30,,,,,,,,333.0097060999833,333.0097060999833,333.0097060999833,333.0097060999833,333.0097060999833,up,0.2946224000188522,21,0,0,99,0.08,0.08000000000000003,up,0.2181894999812357,,,,,,,,,,,,,,,,,,,,,,,,,,,,,,,,,,,,,,,,,,,,,,,,,,,,,,,,,,,,,,,A,train_y,decreasing,top_left,2024-10-30_14h36.31.480,HideSeek_v1,2022.2.5,60.15439226933422,
,3,2,3,7,0,5,66,,train_dim1_1,24,30,,,2,0,2,0,,,,,,,,,0,0,0,0,0,23,23,23,4,0,4,0,,,,,,,,,,,,,,,,,,,,,,,,,,,,,,,,,,,,,,,,,,,,,,,,,,,,,,,,,,,,,,,,30,,,,,,,,333.3124809000292,333.3124809000292,333.3124809000292,333.3124809000292,333.3124809000292,up,0.3436977000092156,21,0,0,99,0.08,0.16000000000000003,up,0.2747260000323877,,,,,,,,,,,,,,,,,,,,,,,,,,,,,,,,,,,,,,,,,,,,,,,,,,,,,,,,,,,,,,,A,train_y,decreasing,top_left,2024-10-30_14h36.31.480,HideSeek_v1,2022.2.5,60.15439226933422,
,3,2,3,7,0,5,66,,train_dim1_1,24,30,,,2,0,2,0,,,,,,,,,0,0,0,0,0,23,23,23,5,0,5,0,,,,,,,,,,,,,,,,,,,,,,,,,,,,,,,,,,,,,,,,,,,,,,,,,,,,,,,,,,,,,,,,30,,,,,,,,333.6607479000231,333.6607479000231,333.6607479000231,333.6607479000231,333.6607479000231,return,0.37748339999234304,22,0,0,1,0.08,0.16000000000000003,return,0.30090269999345765,64,0,0.08,0.16000000000000003,,,,,,,,,,,,,,,,,,,,,,,,,,,,,,,,,,,,,,,,,,,,,,,,,,,,,,,,,,,A,train_y,decreasing,top_left,2024-10-30_14h36.31.480,HideSeek_v1,2022.2.5,60.15439226933422,
,3,3,3,4,0,1,62,,train_dim1_1,25,30,,,2,0,2,0,,,,,,,,,0,0,0,0,0,24,24,24,0,0,0,0,,,,,,,,,,,,,,,,,,,,,,,,,stimuli/alien_stimuli/62.png,,,,,,,,,,,,,,,,,,,,,,,,,,,,,stimuli/alien_stimuli/66.png,66,3,26,,,,,,,30,,,,,,,,337.4561122999876,337.4561122999876,337.4561122999876,337.4561122999876,337.4561122999876,up,1.0916134999715723,22,0,0,99,0.08,-0.08,up,1.003431300050579,,,,,335.9059995000134,337.4561122999876,0.08,0.16,0.4,0.0,-0.039999999999999994,0.08,0.08,0.08,0.16,335.58502950001275,335.58502950001275,335.58502950001275,335.58502950001275,335.58502950001275,335.58502950001275,335.58502950001275,335.58502950001275,335.5728417499922,0.40234639996197075,return,0.2996870000497438,,,,,,,,,,,,,,,,,,,,,,,,,,,,,,,,,,,,A,train_y,decreasing,top_left,2024-10-30_14h36.31.480,HideSeek_v1,2022.2.5,60.15439226933422,
,3,3,3,4,0,1,62,,train_dim1_1,25,30,,,2,0,2,0,,,,,,,,,0,0,0,0,0,24,24,24,1,0,1,0,,,,,,,,,,,,,,,,,,,,,,,,,,,,,,,,,,,,,,,,,,,,,,,,,,,,,,,,,,,,,,,,30,,,,,,,,338.545508900017,338.545508900017,338.545508900017,338.545508900017,338.545508900017,return,0.34494640002958477,23,0,0,1,0.08,-0.08,return,0.2677679000189528,65,0,0.08,-0.08,,,,,,,,,,,,,,,,,,,,,,,,,,,,,,,,,,,,,,,,,,,,,,,,,,,,,,,,,,,A,train_y,decreasing,top_left,2024-10-30_14h36.31.480,HideSeek_v1,2022.2.5,60.15439226933422,
,4,4,4,7,0,3,64,,train_dim1_1,26,30,,,2,0,2,0,,,,,,,,,0,0,0,0,0,25,25,25,0,0,0,0,,,,,,,,,,,,,,,,,,,,,,,,,stimuli/alien_stimuli/64.png,,,,,,,,,,,,,,,,,,,,,,,,,,,,,stimuli/alien_stimuli/62.png,62,3,27,,,,,,,30,,,,,,,,342.36282370000845,342.36282370000845,342.36282370000845,342.36282370000845,342.36282370000845,up,0.9751626999932341,23,0,0,99,0.16,0.0,up,0.9067132999771275,,,,,340.8225691000116,342.36282370000845,0.08,-0.08,0.08,0.0,-0.12,0.08,0.08,0.08,-0.08,340.4426979999989,340.4426979999989,340.4426979999989,340.4426979999989,340.4426979999989,340.4426979999989,340.4426979999989,340.4426979999989,340.43969267999057,0.46783049998339266,return,0.3480592999840155,,,,,,,,,,,,,,,,,,,,,,,,,,,,,,,,,,,,A,train_y,decreasing,top_left,2024-10-30_14h36.31.480,HideSeek_v1,2022.2.5,60.15439226933422,
,4,4,4,7,0,3,64,,train_dim1_1,26,30,,,2,0,2,0,,,,,,,,,0,0,0,0,0,25,25,25,1,0,1,0,,,,,,,,,,,,,,,,,,,,,,,,,,,,,,,,,,,,,,,,,,,,,,,,,,,,,,,,,,,,,,,,30,,,,,,,,343.34487560001435,343.34487560001435,343.34487560001435,343.34487560001435,343.34487560001435,up,0.32751650002319366,23,0,0,99,0.16,0.08,up,0.2517241000314243,,,,,,,,,,,,,,,,,,,,,,,,,,,,,,,,,,,,,,,,,,,,,,,,,,,,,,,,,,,,,,,A,train_y,decreasing,top_left,2024-10-30_14h36.31.480,HideSeek_v1,2022.2.5,60.15439226933422,
,4,4,4,7,0,3,64,,train_dim1_1,26,30,,,2,0,2,0,,,,,,,,,0,0,0,0,0,25,25,25,2,0,2,0,,,,,,,,,,,,,,,,,,,,,,,,,,,,,,,,,,,,,,,,,,,,,,,,,,,,,,,,,,,,,,,,30,,,,,,,,343.6758715999895,343.6758715999895,343.6758715999895,343.6758715999895,343.6758715999895,up,0.2947273000027053,23,0,0,99,0.16,0.16,up,0.22484360000817105,,,,,,,,,,,,,,,,,,,,,,,,,,,,,,,,,,,,,,,,,,,,,,,,,,,,,,,,,,,,,,,A,train_y,decreasing,top_left,2024-10-30_14h36.31.480,HideSeek_v1,2022.2.5,60.15439226933422,
,4,4,4,7,0,3,64,,train_dim1_1,26,30,,,2,0,2,0,,,,,,,,,0,0,0,0,0,25,25,25,3,0,3,0,,,,,,,,,,,,,,,,,,,,,,,,,,,,,,,,,,,,,,,,,,,,,,,,,,,,,,,,,,,,,,,,30,,,,,,,,343.9781258000294,343.9781258000294,343.9781258000294,343.9781258000294,343.9781258000294,return,0.3449467999744229,24,0,0,1,0.16,0.16,return,0.2762158999685198,68,0,0.16,0.16,,,,,,,,,,,,,,,,,,,,,,,,,,,,,,,,,,,,,,,,,,,,,,,,,,,,,,,,,,,A,train_y,decreasing,top_left,2024-10-30_14h36.31.480,HideSeek_v1,2022.2.5,60.15439226933422,
,3,4,3,9,0,5,66,,train_dim1_1,27,30,,,2,0,2,0,,,,,,,,,0,0,0,0,0,26,26,26,0,0,0,0,,,,,,,,,,,,,,,,,,,,,,,,,stimuli/alien_stimuli/66.png,,,,,,,,,,,,,,,,,,,,,,,,,,,,,stimuli/alien_stimuli/64.png,64,4,28,,,,,,,30,,,,,,,,347.8164932000218,347.8164932000218,347.8164932000218,347.8164932000218,347.8164932000218,up,0.6745101999840699,24,0,0,99,0.08,0.0,up,0.5912149000214413,,,,,346.2729231999838,347.8164932000218,0.16,0.16,0.24,0.0,0.04,0.16,0.16,0.16,0.16,345.8665421999758,345.8665421999758,345.8665421999758,345.8665421999758,345.8665421999758,345.8665421999758,345.8665421999758,345.8665421999758,345.8564216499799,0.4845659999991767,return,0.37708499998552725,,,,,,,,,,,,,,,,,,,,,,,,,,,,,,,,,,,,A,train_y,decreasing,top_left,2024-10-30_14h36.31.480,HideSeek_v1,2022.2.5,60.15439226933422,
,3,4,3,9,0,5,66,,train_dim1_1,27,30,,,2,0,2,0,,,,,,,,,0,0,0,0,0,26,26,26,1,0,1,0,,,,,,,,,,,,,,,,,,,,,,,,,,,,,,,,,,,,,,,,,,,,,,,,,,,,,,,,,,,,,,,,30,,,,,,,,348.50677119998727,348.50677119998727,348.50677119998727,348.50677119998727,348.50677119998727,up,0.7445770999765955,24,0,0,99,0.08,0.08,up,0.6650355000165291,,,,,,,,,,,,,,,,,,,,,,,,,,,,,,,,,,,,,,,,,,,,,,,,,,,,,,,,,,,,,,,A,train_y,decreasing,top_left,2024-10-30_14h36.31.480,HideSeek_v1,2022.2.5,60.15439226933422,
,3,4,3,9,0,5,66,,train_dim1_1,27,30,,,2,0,2,0,,,,,,,,,0,0,0,0,0,26,26,26,2,0,2,0,,,,,,,,,,,,,,,,,,,,,,,,,,,,,,,,,,,,,,,,,,,,,,,,,,,,,,,,,,,,,,,,30,,,,,,,,349.26665669999784,349.26665669999784,349.26665669999784,349.26665669999784,349.26665669999784,up,0.39441000000806525,24,0,0,99,0.08,0.16,up,0.3061741000274196,,,,,,,,,,,,,,,,,,,,,,,,,,,,,,,,,,,,,,,,,,,,,,,,,,,,,,,,,,,,,,,A,train_y,decreasing,top_left,2024-10-30_14h36.31.480,HideSeek_v1,2022.2.5,60.15439226933422,
,3,4,3,9,0,5,66,,train_dim1_1,27,30,,,2,0,2,0,,,,,,,,,0,0,0,0,0,26,26,26,3,0,3,0,,,,,,,,,,,,,,,,,,,,,,,,,,,,,,,,,,,,,,,,,,,,,,,,,,,,,,,,,,,,,,,,30,,,,,,,,349.64499469997827,349.64499469997827,349.64499469997827,349.64499469997827,349.64499469997827,up,0.32813780003925785,24,0,0,99,0.08,0.24,up,0.24563670001225546,,,,,,,,,,,,,,,,,,,,,,,,,,,,,,,,,,,,,,,,,,,,,,,,,,,,,,,,,,,,,,,A,train_y,decreasing,top_left,2024-10-30_14h36.31.480,HideSeek_v1,2022.2.5,60.15439226933422,
,3,4,3,9,0,5,66,,train_dim1_1,27,30,,,2,0,2,0,,,,,,,,,0,0,0,0,0,26,26,26,4,0,4,0,,,,,,,,,,,,,,,,,,,,,,,,,,,,,,,,,,,,,,,,,,,,,,,,,,,,,,,,,,,,,,,,30,,,,,,,,349.9766993999947,349.9766993999947,349.9766993999947,349.9766993999947,349.9766993999947,up,0.42762569995829836,24,0,0,99,0.08,0.32,up,0.3576442999765277,,,,,,,,,,,,,,,,,,,,,,,,,,,,,,,,,,,,,,,,,,,,,,,,,,,,,,,,,,,,,,,A,train_y,decreasing,top_left,2024-10-30_14h36.31.480,HideSeek_v1,2022.2.5,60.15439226933422,
,3,4,3,9,0,5,66,,train_dim1_1,27,30,,,2,0,2,0,,,,,,,,,0,0,0,0,0,26,26,26,5,0,5,0,,,,,,,,,,,,,,,,,,,,,,,,,,,,,,,,,,,,,,,,,,,,,,,,,,,,,,,,,,,,,,,,30,,,,,,,,350.4092380999937,350.4092380999937,350.4092380999937,350.4092380999937,350.4092380999937,return,0.378467200032901,25,0,0,1,0.08,0.32,return,0.312459199980367,73,0,0.08,0.32,,,,,,,,,,,,,,,,,,,,,,,,,,,,,,,,,,,,,,,,,,,,,,,,,,,,,,,,,,,A,train_y,decreasing,top_left,2024-10-30_14h36.31.480,HideSeek_v1,2022.2.5,60.15439226933422,
,4,1,4,1,0,0,61,,train_dim1_1,28,30,,,2,0,2,0,,,,,,,,,0,0,0,0,0,27,27,27,0,0,0,0,,,,,,,,,,,,,,,,,,,,,,,,,stimuli/alien_stimuli/61.png,,,,,,,,,,,,,,,,,,,,,,,,,,,,,stimuli/alien_stimuli/66.png,66,3,29,,,,,,,30,,,,,,,,354.44668160000583,354.44668160000583,354.44668160000583,354.44668160000583,354.44668160000583,return,1.308649400016293,26,0,0,1,0.16,-0.32,return,1.2422321999911219,73,0,0.16,-0.32,352.905814800004,354.44668160000583,0.08,0.32,0.4,0.0,0.12,0.08,0.08,0.08,0.32,352.3388839000254,352.3388839000254,352.3388839000254,352.3388839000254,352.3388839000254,352.3388839000254,352.3388839000254,352.3388839000254,352.3222893499769,0.6524612000212073,return,0.550579699978698,,,,,,,,,,,,,,,,,,,,,,,,,,,,,,,,,,,,A,train_y,decreasing,top_left,2024-10-30_14h36.31.480,HideSeek_v1,2022.2.5,60.15439226933422,
,2,2,2,3,0,1,62,,train_dim1_1,29,30,,,2,0,2,0,,,,,,,,,0,0,0,0,0,28,28,28,0,0,0,0,,,,,,,,,,,,,,,,,,,,,,,,,stimuli/alien_stimuli/62.png,,,,,,,,,,,,,,,,,,,,,,,,,,,,,stimuli/alien_stimuli/61.png,61,4,30,,,,,,,30,,,,,,,,359.2306454000063,359.2306454000063,359.2306454000063,359.2306454000063,359.2306454000063,up,0.9260622999863699,26,0,0,99,0,-0.15999999999999998,up,0.852379199990537,,,,,357.6892055000062,359.2306454000063,0.16,-0.32,0.0,0.0,-0.32,0.16,0.16,0.16,-0.32,357.30568300001323,357.30568300001323,357.30568300001323,357.30568300001323,357.30568300001323,357.30568300001323,357.30568300001323,357.30568300001323,357.3063100800151,0.4686445000115782,return,0.3528946000151336,,,,,,,,,,,,,,,,,,,,,,,,,,,,,,,,,,,,A,train_y,decreasing,top_left,2024-10-30_14h36.31.480,HideSeek_v1,2022.2.5,60.15439226933422,
,2,2,2,3,0,1,62,,train_dim1_1,29,30,,,2,0,2,0,,,,,,,,,0,0,0,0,0,28,28,28,1,0,1,0,,,,,,,,,,,,,,,,,,,,,,,,,,,,,,,,,,,,,,,,,,,,,,,,,,,,,,,,,,,,,,,,30,,,,,,,,360.1604767999961,360.1604767999961,360.1604767999961,360.1604767999961,360.1604767999961,return,0.7779358000261709,27,0,0,1,0,-0.15999999999999998,return,0.7080539999878965,74,0,0,-0.15999999999999998,,,,,,,,,,,,,,,,,,,,,,,,,,,,,,,,,,,,,,,,,,,,,,,,,,,,,,,,,,,A,train_y,decreasing,top_left,2024-10-30_14h36.31.480,HideSeek_v1,2022.2.5,60.15439226933422,
,0,1,0,5,0,4,65,,train_dim1_1,30,30,,,2,0,2,0,,,,,,,,,0,0,0,0,0,29,29,29,0,0,0,0,,,,,,,,,,,,,,,,,,,,,,,,,stimuli/alien_stimuli/65.png,,,,,,,,,,,,,,,,,,,,,,,,,,,,,stimuli/alien_stimuli/62.png,62,2,31,,,,,,,30,,,,,,,,364.5961268999963,364.5961268999963,364.5961268999963,364.5961268999963,364.5961268999963,up,0.908554199966602,27,0,0,99,-0.16,-0.24,up,0.8338337000459433,,,,,363.05641459999606,364.5961268999963,0,-0.16,0.08,0.0,-0.2,0,0.0,0,-0.16,362.49281760002486,362.49281760002486,362.49281760002486,362.49281760002486,362.49281760002486,362.49281760002486,362.49281760002486,362.49281760002486,362.48943598000335,0.6524227000190876,return,0.542951199982781,,,,,,,,,,,,,,,,,,,,,,,,,,,,,,,,,,,,A,train_y,decreasing,top_left,2024-10-30_14h36.31.480,HideSeek_v1,2022.2.5,60.15439226933422,
,0,1,0,5,0,4,65,,train_dim1_1,30,30,,,2,0,2,0,,,,,,,,,0,0,0,0,0,29,29,29,1,0,1,0,,,,,,,,,,,,,,,,,,,,,,,,,,,,,,,,,,,,,,,,,,,,,,,,,,,,,,,,,,,,,,,,30,,,,,,,,365.5263231000281,365.5263231000281,365.5263231000281,365.5263231000281,365.5263231000281,up,0.3115719999768771,27,0,0,99,-0.16,-0.15999999999999998,up,0.22673529997700825,,,,,,,,,,,,,,,,,,,,,,,,,,,,,,,,,,,,,,,,,,,,,,,,,,,,,,,,,,,,,,,A,train_y,decreasing,top_left,2024-10-30_14h36.31.480,HideSeek_v1,2022.2.5,60.15439226933422,
,0,1,0,5,0,4,65,,train_dim1_1,30,30,,,2,0,2,0,,,,,,,,,0,0,0,0,0,29,29,29,2,0,2,0,,,,,,,,,,,,,,,,,,,,,,,,,,,,,,,,,,,,,,,,,,,,,,,,,,,,,,,,,,,,,,,,30,,,,,,,,365.8288988000131,365.8288988000131,365.8288988000131,365.8288988000131,365.8288988000131,up,0.36033120000502095,27,0,0,99,-0.16,-0.07999999999999997,up,0.2817542999982834,,,,,,,,,,,,,,,,,,,,,,,,,,,,,,,,,,,,,,,,,,,,,,,,,,,,,,,,,,,,,,,A,train_y,decreasing,top_left,2024-10-30_14h36.31.480,HideSeek_v1,2022.2.5,60.15439226933422,
,0,1,0,5,0,4,65,,train_dim1_1,30,30,,,2,0,2,0,,,,,,,,,0,0,0,0,0,29,29,29,3,0,3,0,,,,,,,,,,,,,,,,,,,,,,,,,,,,,,,,,,,,,,,,,,,,,,,,,,,,,,,,,,,,,,,,30,,,,,,,,366.19335409998894,366.19335409998894,366.19335409998894,366.19335409998894,366.19335409998894,up,0.2948156000347808,27,0,0,99,-0.16,2.7755575615628914e-17,up,0.22538200003327802,,,,,,,,,,,,,,,,,,,,,,,,,,,,,,,,,,,,,,,,,,,,,,,,,,,,,,,,,,,,,,,A,train_y,decreasing,top_left,2024-10-30_14h36.31.480,HideSeek_v1,2022.2.5,60.15439226933422,
,0,1,0,5,0,4,65,,train_dim1_1,30,30,,,2,0,2,0,,,,,,,,,0,0,0,0,0,29,29,29,4,0,4,0,,,,,,,,,,,,,,,,,,,,,,,,,,,,,,,,,,,,,,,,,,,,,,,,,,,,,,,,,,,,,,,,30,,,,,,,,366.493716500001,366.493716500001,366.493716500001,366.493716500001,366.493716500001,return,0.3112420000252314,28,0,0,1,-0.16,2.7755575615628914e-17,return,0.24380439997185022,78,0,-0.16,2.7755575615628914e-17,,,,,,,,,,,,,,,,,,,,,,,,,,,,,,,,,,,,,,,,,,,,,,,,,,,,,,,,,,,A,train_y,decreasing,top_left,2024-10-30_14h36.31.480,HideSeek_v1,2022.2.5,60.15439226933422,
,,,,,,,,,,,30,,,2,0,2,0,,,,,,,,,,,,,,,,,,,,,,,,,,,,,,,,,,,,,,,,,,,,,,,,,,,,,,,,,,,,,,,,,,,,,,,,,,stimuli/alien_stimuli/65.png,65,0,32,17,0.7,1.1666666666666667,1,1,1,30,0,conditions/schedules/train_y_first/x_decreasing_steps/top_left/inputTrain_2.1.xlsx,99,1,2,1,0,,,,,,,,,,,1,,,,,,,,,368.88907560001826,370.4327108000289,-0.16,0,0.32,0.0,-0.16,-0.16,-0.16,-0.16,0,368.36256079998566,368.36256079998566,368.36256079998566,368.36256079998566,368.36256079998566,368.36256079998566,368.36256079998566,368.36256079998566,368.355964179989,0.6188975000404753,return,0.5086242000106722,0,1.1666666666666667,0,1,28,,,,,,,,,,,,,,,,,,,,,,,,,,,,,,,A,train_y,decreasing,top_left,2024-10-30_14h36.31.480,HideSeek_v1,2022.2.5,60.15439226933422,
,,,,,,,,,,,,,,3,0,3,0,0,0,0,0,,,,,,,,,,,,,,,,,,,,,,,,,,,,,,,conditions/schedules/train_y_first/x_decreasing_steps/top_left/instructions/Slide17.png,conditions/schedules/train_y_first/x_decreasing_steps/top_left/instructions/Audio17.wav,370.4327108000289,370.4228731899755,17,"[18.279452299990226, 3.410434899968095, 0.9691388999926858, 0.7134722999762744, 3.6133170000393875, 1.1055870999698527, 0.8454222999862395, 1.2286178999929689, 0.8696069999714382, 0.924052299989853, 12.657056499971077, 1.5651059999945574, 6.499811499961652, 1.572626399982255, 8.135273499996401, 1.7411444000317715, 6.7540669000009075]","[0.1430714000016451, 0.15241889999015257, 0.1629881999688223, 0.16173990000970662, 0.155860600003507, 0.14543470001081005, 0.14494779997039586, 0.16899909998755902, 0.17466389999026433, 0.15656169998692349, 0.14804870000807568, 1.565112299984321, 0.13903259998187423, 1.5726328999735415, 0.1409121000324376, 1.7411515000276268, 6.754073999996763]",0,,,,,,,,,,,,,,,,,,,,,,,,,,,,,,,,,,,,,,,,,,,,,,,,,,,,,,,,,,,,,,,,,,,,,,,,,,,,,,,,,,,,,,,,,,,,,,,,,,,,,,,,,,,,,,,,,,,,,,,,,,,,,,,A,train_y,decreasing,top_left,2024-10-30_14h36.31.480,HideSeek_v1,2022.2.5,60.15439226933422,
,,,,,,,,,,,,,,3,0,3,0,1,0,1,0,,,,,,,,,,,,,,,,,,,,,,,,,,,,,,,conditions/schedules/train_y_first/x_decreasing_steps/top_left/instructions/Slide18.png,conditions/schedules/train_y_first/x_decreasing_steps/top_left/instructions/Audio18.wav,377.24374850001186,377.23978611999195,18,"[18.279452299990226, 3.410434899968095, 0.9691388999926858, 0.7134722999762744, 3.6133170000393875, 1.1055870999698527, 0.8454222999862395, 1.2286178999929689, 0.8696069999714382, 0.924052299989853, 12.657056499971077, 1.5651059999945574, 6.499811499961652, 1.572626399982255, 8.135273499996401, 1.7411444000317715, 6.7540669000009075, 1.0432042000466026]","[0.1430714000016451, 0.15241889999015257, 0.1629881999688223, 0.16173990000970662, 0.155860600003507, 0.14543470001081005, 0.14494779997039586, 0.16899909998755902, 0.17466389999026433, 0.15656169998692349, 0.14804870000807568, 1.565112299984321, 0.13903259998187423, 1.5726328999735415, 0.1409121000324376, 1.7411515000276268, 0.042389500013086945, 1.0432104000356048]",0,,,,,,,,,,,,,,,,,,,,,,,,,,,,,,,,,,,,,,,,,,,,,,,,,,,,,,,,,,,,,,,,,,,,,,,,,,,,,,,,,,,,,,,,,,,,,,,,,,,,,,,,,,,,,,,,,,,,,,,,,,,,,,,A,train_y,decreasing,top_left,2024-10-30_14h36.31.480,HideSeek_v1,2022.2.5,60.15439226933422,
,,,,,,,,,,,,,,3,0,3,0,2,0,2,0,,,,,,,,,,,,,,,,,,,,,,,,,,,,,,,conditions/schedules/train_y_first/x_decreasing_steps/top_left/instructions/Slide19.png,conditions/schedules/train_y_first/x_decreasing_steps/top_left/instructions/Audio19.wav,378.33901930000866,378.3399834200158,19,"[18.279452299990226, 3.410434899968095, 0.9691388999926858, 0.7134722999762744, 3.6133170000393875, 1.1055870999698527, 0.8454222999862395, 1.2286178999929689, 0.8696069999714382, 0.924052299989853, 12.657056499971077, 1.5651059999945574, 6.499811499961652, 1.572626399982255, 8.135273499996401, 1.7411444000317715, 6.7540669000009075, 1.0432042000466026, 1.479856899997685]","[0.1430714000016451, 0.15241889999015257, 0.1629881999688223, 0.16173990000970662, 0.155860600003507, 0.14543470001081005, 0.14494779997039586, 0.16899909998755902, 0.17466389999026433, 0.15656169998692349, 0.14804870000807568, 1.565112299984321, 0.13903259998187423, 1.5726328999735415, 0.1409121000324376, 1.7411515000276268, 0.042389500013086945, 0.013666599988937378, 1.4798621000372805]",0,,,,,,,,,,,,,,,,,,,,,,,,,,,,,,,,,,,,,,,,,,,,,,,,,,,,,,,,,,,,,,,,,,,,,,,,,,,,,,,,,,,,,,,,,,,,,,,,,,,,,,,,,,,,,,,,,,,,,,,,,,,,,,,A,train_y,decreasing,top_left,2024-10-30_14h36.31.480,HideSeek_v1,2022.2.5,60.15439226933422,
,,,,,,,,,,,,,,3,0,3,0,3,0,3,0,,,,,,,,,,,,,,,,,,,,,,,,,,,,,,,conditions/schedules/train_y_first/x_decreasing_steps/top_left/instructions/Slide20.png,conditions/schedules/train_y_first/x_decreasing_steps/top_left/instructions/Audio20.wav,379.9054598999792,379.8887834500056,20,"[18.279452299990226, 3.410434899968095, 0.9691388999926858, 0.7134722999762744, 3.6133170000393875, 1.1055870999698527, 0.8454222999862395, 1.2286178999929689, 0.8696069999714382, 0.924052299989853, 12.657056499971077, 1.5651059999945574, 6.499811499961652, 1.572626399982255, 8.135273499996401, 1.7411444000317715, 6.7540669000009075, 1.0432042000466026, 1.479856899997685, 1.3201531000086106]","[0.1430714000016451, 0.15241889999015257, 0.1629881999688223, 0.16173990000970662, 0.155860600003507, 0.14543470001081005, 0.14494779997039586, 0.16899909998755902, 0.17466389999026433, 0.15656169998692349, 0.14804870000807568, 1.565112299984321, 0.13903259998187423, 1.5726328999735415, 0.1409121000324376, 1.7411515000276268, 0.042389500013086945, 0.013666599988937378, 0.019709000014699996, 1.320160900009796]",0,,,,,,,,,,,,,,,,,,,,,,,,,,,,,,,,,,,,,,,,,,,,,,,,,,,,,,,,,,,,,,,,,,,,,,,,,,,,,,,,,,,,,,,,,,,,,,,,,,,,,,,,,,,,,,,,,,,,,,,,,,,,,,,A,train_y,decreasing,top_left,2024-10-30_14h36.31.480,HideSeek_v1,2022.2.5,60.15439226933422,
1,4,0,9,0,5,0,11,2,instr_dim1_2,,,,,3,0,3,0,,,,,0,0,0,0,,,,,,,,,,,,,,,,,,,,,,,,,,,,,,,,,,,,,stimuli/alien_stimuli/11.png,conditions/schedules/train_y_first/x_decreasing_steps/top_left/inputInstr_2.xlsx,stimuli/alien_stimuli/11.png,381.33673659997294,381.33673659997294,381.33673659997294,381.33673659997294,381.289203250024,return,3.520589000021573,"[-0.16, -0.08, 0, 0.08, 0.16, 0.24, 0.32, 0.4, 0.48, 0.56]","[-0.4, -0.32, -0.24, -0.16, -0.08, 0, 0.08, 0.16, 0.24, 0.32]",0,0,9,4,0.0,0.4,385.09872980002547,385.09872980002547,385.09872980002547,385.09872980002547,385.09872980002547,385.09872980002547,385.09872980002547,384.97233628000834,2.7012428999878466,return,2.4686885999981314,stimuli/alien_stimuli/11.png,11,4,1,,,,,,,,,,,,,,,,,,,,,,,,,,,,,,,,,,,,,,,,,,,,,,,,,,,,,,,,,,,,,,,,,,,,,,,,,,,,,,,,,,,,,,,,,,,,A,train_y,decreasing,top_left,2024-10-30_14h36.31.480,HideSeek_v1,2022.2.5,60.15439226933422,
,,,,,,,,,,,30,,,3,0,3,0,,,,,,,,,,,,,,,,,,,,,,,,,,,,,,,,,,,,,,,,,,,,,,,,,,,,,,,,,,,,,,,,,,,,,,,,,,,,,,17,0.7,1.1666666666666667,1,99,2,30,0,conditions/schedules/train_y_first/x_decreasing_steps/top_left/inputTrain_2.1.xlsx,99,1,2,1,0,,,,,,,,,,,,,,,,,,,,,,,,,,,,,,,,,,,,,,,,,,,,,,,,,,,,,,,,,,,,,,,,,,,,,,,,,,,,,,A,train_y,decreasing,top_left,2024-10-30_14h36.31.480,HideSeek_v1,2022.2.5,60.15439226933422,
,,,,,,,,,,,,,,4,0,4,0,0,0,0,0,,,,,,,,,,,,,,,,,,,,,,,,,,,,,,,conditions/schedules/train_y_first/x_decreasing_steps/top_left/instructions/Slide21.png,conditions/schedules/train_y_first/x_decreasing_steps/top_left/instructions/Audio21.wav,387.70224419998704,387.68918401001724,21,"[18.279452299990226, 3.410434899968095, 0.9691388999926858, 0.7134722999762744, 3.6133170000393875, 1.1055870999698527, 0.8454222999862395, 1.2286178999929689, 0.8696069999714382, 0.924052299989853, 12.657056499971077, 1.5651059999945574, 6.499811499961652, 1.572626399982255, 8.135273499996401, 1.7411444000317715, 6.7540669000009075, 1.0432042000466026, 1.479856899997685, 1.3201531000086106, 2.5009895999683067]","[0.1430714000016451, 0.15241889999015257, 0.1629881999688223, 0.16173990000970662, 0.155860600003507, 0.14543470001081005, 0.14494779997039586, 0.16899909998755902, 0.17466389999026433, 0.15656169998692349, 0.14804870000807568, 1.565112299984321, 0.13903259998187423, 1.5726328999735415, 0.1409121000324376, 1.7411515000276268, 0.042389500013086945, 0.013666599988937378, 0.019709000014699996, 1.320160900009796, 2.500998499977868]",0,,,,,,,,,,,,,,,,,,,,,,,,,,,,,,,,,,,,,,,,,,,,,,,,,,,,,,,,,,,,,,,,,,,,,,,,,,,,,,,,,,,,,,,,,,,,,,,,,,,,,,,,,,,,,,,,,,,,,,,,,,,,,,,A,train_y,decreasing,top_left,2024-10-30_14h36.31.480,HideSeek_v1,2022.2.5,60.15439226933422,
2,3,2,3,2,0,0,61,2,instr_dim1_2,,,,,4,0,4,0,,,,,0,0,0,0,,,,,,,,,,,,,,,,,,,,,,,,,,,,,,,,,,,,,stimuli/alien_stimuli/61.png,conditions/schedules/train_y_first/x_decreasing_steps/top_left/inputInstr_2.xlsx,stimuli/alien_stimuli/61.png,390.30593620002037,390.30593620002037,390.30593620002037,390.30593620002037,390.2558083199896,return,2.280041899997741,"[-0.16, -0.08, 0, 0.08, 0.16, 0.24, 0.32, 0.4, 0.48, 0.56]","[-0.4, -0.32, -0.24, -0.16, -0.08, 0, 0.08, 0.16, 0.24, 0.32]",2,2,3,3,0.0,0.0,392.80613699997775,392.80613699997775,392.80613699997775,392.80613699997775,392.80613699997775,392.80613699997775,392.80613699997775,392.7225362400175,1.0837363000027835,return,0.8591785000171512,stimuli/alien_stimuli/61.png,61,3,2,,,,,,,,,,,,,,,,,,,,,,,,,,,,,,,,,,,,,,,,,,,,,,,,,,,,,,,,,,,,,,,,,,,,,,,,,,,,,,,,,,,,,,,,,,,,A,train_y,decreasing,top_left,2024-10-30_14h36.31.480,HideSeek_v1,2022.2.5,60.15439226933422,
,,,,,,,,,,,30,,,4,0,4,0,,,,,,,,,,,,,,,,,,,,,,,,,,,,,,,,,,,,,,,,,,,,,,,,,,,,,,,,,,,,,,,,,,,,,,,,,,,,,,17,0.7,1.1666666666666667,1,99,2,30,0,conditions/schedules/train_y_first/x_decreasing_steps/top_left/inputTrain_2.1.xlsx,99,1,2,1,0,,,,,,,,,,,,,,,,,,,,,,,,,,,,,,,,,,,,,,,,,,,,,,,,,,,,,,,,,,,,,,,,,,,,,,,,,,,,,,A,train_y,decreasing,top_left,2024-10-30_14h36.31.480,HideSeek_v1,2022.2.5,60.15439226933422,
,,,,,,,,,,,,,,5,0,5,0,0,0,0,0,,,,,,,,,,,,,,,,,,,,,,,,,,,,,,,conditions/schedules/train_y_first/x_decreasing_steps/top_left/instructions/Slide22.png,conditions/schedules/train_y_first/x_decreasing_steps/top_left/instructions/Audio22.wav,393.79249650001293,393.7888644100051,22,"[18.279452299990226, 3.410434899968095, 0.9691388999926858, 0.7134722999762744, 3.6133170000393875, 1.1055870999698527, 0.8454222999862395, 1.2286178999929689, 0.8696069999714382, 0.924052299989853, 12.657056499971077, 1.5651059999945574, 6.499811499961652, 1.572626399982255, 8.135273499996401, 1.7411444000317715, 6.7540669000009075, 1.0432042000466026, 1.479856899997685, 1.3201531000086106, 2.5009895999683067, 40.67720899998676]","[0.1430714000016451, 0.15241889999015257, 0.1629881999688223, 0.16173990000970662, 0.155860600003507, 0.14543470001081005, 0.14494779997039586, 0.16899909998755902, 0.17466389999026433, 0.15656169998692349, 0.14804870000807568, 1.565112299984321, 0.13903259998187423, 1.5726328999735415, 0.1409121000324376, 1.7411515000276268, 0.042389500013086945, 0.013666599988937378, 0.019709000014699996, 1.320160900009796, 2.500998499977868, 40.677215399977285]",0,,,,,,,,,,,,,,,,,,,,,,,,,,,,,,,,,,,,,,,,,,,,,,,,,,,,,,,,,,,,,,,,,,,,,,,,,,,,,,,,,,,,,,,,,,,,,,,,,,,,,,,,,,,,,,,,,,,,,,,,,,,,,,,A,train_y,decreasing,top_left,2024-10-30_14h36.31.480,HideSeek_v1,2022.2.5,60.15439226933422,
,2,1,5,1,3,0,31,,train_dim1_2,1,30,,,5,0,5,0,,,,,,,,,0,0,0,0,0,0,0,0,0,0,0,0,,,,,,,,,,,,,,,,,,,,,,,,,stimuli/alien_stimuli/31.png,,,,,,,,,,,,,,,,,,,,,,,,,,,,,,,,,,,,,,,30,,,,,,,,434.60524820000865,434.60524820000865,434.60524820000865,434.60524820000865,434.60524820000865,right,5.98938540002564,0,0,0,99,0.08,-0.32,right,5.842935100023169,,,,,,,,,,,,,,,,,,,,,,,,,,,,,,,,,,,,,,,,,,,,,,,,,,,,,,,,,,,,,,,A,train_y,decreasing,top_left,2024-10-30_14h36.31.480,HideSeek_v1,2022.2.5,60.15439226933422,
,2,1,5,1,3,0,31,,train_dim1_2,1,30,,,5,0,5,0,,,,,,,,,0,0,0,0,0,0,0,0,1,0,1,0,,,,,,,,,,,,,,,,,,,,,,,,,,,,,,,,,,,,,,,,,,,,,,,,,,,,,,,,,,,,,,,,30,,,,,,,,440.5208827999886,440.5208827999886,440.5208827999886,440.5208827999886,440.5208827999886,right,0.7120848000049591,0,0,0,99,0.16,-0.32,right,0.6353441000101157,,,,,,,,,,,,,,,,,,,,,,,,,,,,,,,,,,,,,,,,,,,,,,,,,,,,,,,,,,,,,,,A,train_y,decreasing,top_left,2024-10-30_14h36.31.480,HideSeek_v1,2022.2.5,60.15439226933422,
,2,1,5,1,3,0,31,,train_dim1_2,1,30,,,5,0,5,0,,,,,,,,,0,0,0,0,0,0,0,0,2,0,2,0,,,,,,,,,,,,,,,,,,,,,,,,,,,,,,,,,,,,,,,,,,,,,,,,,,,,,,,,,,,,,,,,30,,,,,,,,441.2400219999836,441.2400219999836,441.2400219999836,441.2400219999836,441.2400219999836,right,5.527233999979217,0,0,0,99,0.24,-0.32,right,5.458112500025891,,,,,,,,,,,,,,,,,,,,,,,,,,,,,,,,,,,,,,,,,,,,,,,,,,,,,,,,,,,,,,,A,train_y,decreasing,top_left,2024-10-30_14h36.31.480,HideSeek_v1,2022.2.5,60.15439226933422,
