trialTrain,x_fixStart,y_fixStart,x_corrSteps,y_corrSteps,x_nrSteps,y_nrSteps,alienID,testlen,version,trial_label,break_on_off,beforeExpLoop.thisRepN,beforeExpLoop.thisTrialN,beforeExpLoop.thisN,beforeExpLoop.thisIndex,mini_instr_trials.thisRepN,mini_instr_trials.thisTrialN,mini_instr_trials.thisN,mini_instr_trials.thisIndex,instrLoop.thisRepN,instrLoop.thisTrialN,instrLoop.thisN,instrLoop.thisIndex,repeat_prac.thisRepN,repeat_prac.thisTrialN,repeat_prac.thisN,repeat_prac.thisIndex,trainLoop.thisRepN,trainLoop.thisTrialN,trainLoop.thisN,trainLoop.thisIndex,experiment.thisRepN,experiment.thisTrialN,experiment.thisN,experiment.thisIndex,moveLoop_test.thisRepN,moveLoop_test.thisTrialN,moveLoop_test.thisN,moveLoop_test.thisIndex,breaks.thisRepN,breaks.thisTrialN,breaks.thisN,breaks.thisIndex,start_all_time,url,slideStim,audioStim,slides.started,sounds.started,nextButton.numClicks,nextButton.timesOn,nextButton.timesOff,prev_but.numClicks,prev_but.timesOn,prev_but.timesOff,perfthres,percthres,earlierperf,earlystop,nextPrac,fileidx,praclen,saveACC_train,pracFile,nextPrac_train,addNrep,fileidx_endr,repExp,showearly,alienStim,gridImage_3.started,alienImage_test.started,startPos_test.started,movePos_test.started,key_resp_test.started,wLy_dir_test,wLx_dir_test,buttonPress_test,RTchoice_test,cumAcctest,saveACC_choice,corrAns_test,x_movePos_end,y_movePos_end,key_resp_test.keys,key_resp_test.rt,fixation_text.started,fixation_text.stopped,draw_alienStim,draw_alienID,test_x,nrepcount,image_break_3.started,key_resp_7.started,key_resp_7.keys,key_resp_7.rt,participant,train_first,00_coordinate,starting corner,date,expName,psychopyVersion,frameRate,
,,,,,,,,,,,,0,0,0,0,0,0,0,0,,,,,,,,,,,,,,,,,,,,,,,,,start_all_time,testround,conditions/schedules/train_y_first/red_square_00/top_left/instructions/Slide1.png,conditions/schedules/train_y_first/red_square_00/top_left/instructions/Audio1.wav,84.52895940002054,84.4737251414801,1,[12.869657600065693],[12.869667900027707],0,,,,,,,,,,,,,,,,,,,,,,,,,,,,,,,,,,,,,,,,,,,,A,train_y,red_square,top_left,2024-11-06_16h42.10.232,HideSeek_v1,2022.2.5,59.90244287787864,
,,,,,,,,,,,,0,0,0,0,1,0,1,0,,,,,,,,,,,,,,,,,,,,,,,,,,,conditions/schedules/train_y_first/red_square_00/top_left/instructions/Slide2.png,conditions/schedules/train_y_first/red_square_00/top_left/instructions/Audio2.wav,97.41316979995463,97.39631791997236,2,"[12.869657600065693, 0.1439190999371931]","[0.02688219991978258, 0.14393070002552122]",0,,,,,,,,,,,,,,,,,,,,,,,,,,,,,,,,,,,,,,,,,,,,A,train_y,red_square,top_left,2024-11-06_16h42.10.232,HideSeek_v1,2022.2.5,59.90244287787864,
,,,,,,,,,,,,0,0,0,0,2,0,2,0,,,,,,,,,,,,,,,,,,,,,,,,,,,conditions/schedules/train_y_first/red_square_00/top_left/instructions/Slide3.png,conditions/schedules/train_y_first/red_square_00/top_left/instructions/Audio3.wav,97.59428760001902,97.59645032000263,3,"[12.869657600065693, 0.1439190999371931, 0.13322790001984686]","[0.02688219991978258, 0.01363820000551641, 0.13323609996587038]",0,,,,,,,,,,,,,,,,,,,,,,,,,,,,,,,,,,,,,,,,,,,,A,train_y,red_square,top_left,2024-11-06_16h42.10.232,HideSeek_v1,2022.2.5,59.90244287787864,
,,,,,,,,,,,,0,0,0,0,3,0,3,0,,,,,,,,,,,,,,,,,,,,,,,,,,,conditions/schedules/train_y_first/red_square_00/top_left/instructions/Slide4.png,conditions/schedules/train_y_first/red_square_00/top_left/instructions/Audio4.wav,97.77978450001683,97.7633602400194,4,"[12.869657600065693, 0.1439190999371931, 0.13322790001984686, 0.11963440000545233]","[0.02688219991978258, 0.01363820000551641, 0.00021079997532069683, 0.1196430999552831]",0,,,,,,,,,,,,,,,,,,,,,,,,,,,,,,,,,,,,,,,,,,,,A,train_y,red_square,top_left,2024-11-06_16h42.10.232,HideSeek_v1,2022.2.5,59.90244287787864,
,,,,,,,,,,,,0,0,0,0,4,0,4,0,,,,,,,,,,,,,,,,,,,,,,,,,,,conditions/schedules/train_y_first/red_square_00/top_left/instructions/Slide5.png,conditions/schedules/train_y_first/red_square_00/top_left/instructions/Audio5.wav,97.93316239991691,97.929739339964,5,"[12.869657600065693, 0.1439190999371931, 0.13322790001984686, 0.11963440000545233, 0.14394129998981953]","[0.02688219991978258, 0.01363820000551641, 0.00021079997532069683, 0.01328399998601526, 0.14394809992518276]",0,,,,,,,,,,,,,,,,,,,,,,,,,,,,,,,,,,,,,,,,,,,,A,train_y,red_square,top_left,2024-11-06_16h42.10.232,HideSeek_v1,2022.2.5,59.90244287787864,
,,,,,,,,,,,,0,0,0,0,5,0,5,0,,,,,,,,,,,,,,,,,,,,,,,,,,,conditions/schedules/train_y_first/red_square_00/top_left/instructions/Slide6.png,conditions/schedules/train_y_first/red_square_00/top_left/instructions/Audio6.wav,98.12987529998645,98.11310933994828,6,"[12.869657600065693, 0.1439190999371931, 0.13322790001984686, 0.11963440000545233, 0.14394129998981953, 0.12730420008301735]","[0.02688219991978258, 0.01363820000551641, 0.00021079997532069683, 0.01328399998601526, 0.00018010009080171585, 0.12731310003437102]",0,,,,,,,,,,,,,,,,,,,,,,,,,,,,,,,,,,,,,,,,,,,,A,train_y,red_square,top_left,2024-11-06_16h42.10.232,HideSeek_v1,2022.2.5,59.90244287787864,
,,,,,,,,,,,,0,0,0,0,6,0,6,0,,,,,,,,,,,,,,,,,,,,,,,,,,,conditions/schedules/train_y_first/red_square_00/top_left/instructions/Slide7.png,conditions/schedules/train_y_first/red_square_00/top_left/instructions/Audio7.wav,98.28181730001234,98.27958623993909,7,"[12.869657600065693, 0.1439190999371931, 0.13322790001984686, 0.11963440000545233, 0.14394129998981953, 0.12730420008301735, 0.1447437999304384]","[0.02688219991978258, 0.01363820000551641, 0.00021079997532069683, 0.01328399998601526, 0.00018010009080171585, 0.013422099989838898, 0.1447512999875471]",0,,,,,,,,,,,,,,,,,,,,,,,,,,,,,,,,,,,,,,,,,,,,A,train_y,red_square,top_left,2024-11-06_16h42.10.232,HideSeek_v1,2022.2.5,59.90244287787864,
,,,,,,,,,,,,0,0,0,0,7,0,7,0,,,,,,,,,,,,,,,,,,,,,,,,,,,conditions/schedules/train_y_first/red_square_00/top_left/instructions/Slide8.png,conditions/schedules/train_y_first/red_square_00/top_left/instructions/Audio8.wav,98.48004699999001,98.46274403993739,8,"[12.869657600065693, 0.1439190999371931, 0.13322790001984686, 0.11963440000545233, 0.14394129998981953, 0.12730420008301735, 0.1447437999304384, 0.12477039999794215]","[0.02688219991978258, 0.01363820000551641, 0.00021079997532069683, 0.01328399998601526, 0.00018010009080171585, 0.013422099989838898, 0.024452999932691455, 0.12477889994625002]",0,,,,,,,,,,,,,,,,,,,,,,,,,,,,,,,,,,,,,,,,,,,,A,train_y,red_square,top_left,2024-11-06_16h42.10.232,HideSeek_v1,2022.2.5,59.90244287787864,
,,,,,,,,,,,,0,0,0,0,8,0,8,0,,,,,,,,,,,,,,,,,,,,,,,,,,,conditions/schedules/train_y_first/red_square_00/top_left/instructions/Slide9.png,conditions/schedules/train_y_first/red_square_00/top_left/instructions/Audio9.wav,98.64681049995124,98.63000413995469,9,"[12.869657600065693, 0.1439190999371931, 0.13322790001984686, 0.11963440000545233, 0.14394129998981953, 0.12730420008301735, 0.1447437999304384, 0.12477039999794215, 0.16027920006308705]","[0.02688219991978258, 0.01363820000551641, 0.00021079997532069683, 0.01328399998601526, 0.00018010009080171585, 0.013422099989838898, 0.024452999932691455, 0.027219800045713782, 0.16028750000987202]",0,,,,,,,,,,,,,,,,,,,,,,,,,,,,,,,,,,,,,,,,,,,,A,train_y,red_square,top_left,2024-11-06_16h42.10.232,HideSeek_v1,2022.2.5,59.90244287787864,
,,,,,,,,,,,,0,0,0,0,9,0,9,0,,,,,,,,,,,,,,,,,,,,,,,,,,,conditions/schedules/train_y_first/red_square_00/top_left/instructions/Slide10.png,conditions/schedules/train_y_first/red_square_00/top_left/instructions/Audio10.wav,98.82951139996294,98.81286456000527,10,"[12.869657600065693, 0.1439190999371931, 0.13322790001984686, 0.11963440000545233, 0.14394129998981953, 0.12730420008301735, 0.1447437999304384, 0.12477039999794215, 0.16027920006308705, 0.1548608000157401]","[0.02688219991978258, 0.01363820000551641, 0.00021079997532069683, 0.01328399998601526, 0.00018010009080171585, 0.013422099989838898, 0.024452999932691455, 0.027219800045713782, 0.02125069999601692, 0.15486899996176362]",0,,,,,,,,,,,,,,,,,,,,,,,,,,,,,,,,,,,,,,,,,,,,A,train_y,red_square,top_left,2024-11-06_16h42.10.232,HideSeek_v1,2022.2.5,59.90244287787864,
,,,,,,,,,,,,0,0,0,0,10,0,10,0,,,,,,,,,,,,,,,,,,,,,,,,,,,conditions/schedules/train_y_first/red_square_00/top_left/instructions/Slide11.png,conditions/schedules/train_y_first/red_square_00/top_left/instructions/Audio11.wav,99.01296680001542,98.99619865994902,11,"[12.869657600065693, 0.1439190999371931, 0.13322790001984686, 0.11963440000545233, 0.14394129998981953, 0.12730420008301735, 0.1447437999304384, 0.12477039999794215, 0.16027920006308705, 0.1548608000157401, 0.15416289994027466]","[0.02688219991978258, 0.01363820000551641, 0.00021079997532069683, 0.01328399998601526, 0.00018010009080171585, 0.013422099989838898, 0.024452999932691455, 0.027219800045713782, 0.02125069999601692, 0.03596889995969832, 0.15417160000652075]",0,,,,,,,,,,,,,,,,,,,,,,,,,,,,,,,,,,,,,,,,,,,,A,train_y,red_square,top_left,2024-11-06_16h42.10.232,HideSeek_v1,2022.2.5,59.90244287787864,
,,,,,,,,,,,,0,0,0,0,11,0,11,0,,,,,,,,,,,,,,,,,,,,,,,,,,,conditions/schedules/train_y_first/red_square_00/top_left/instructions/Slide12.png,conditions/schedules/train_y_first/red_square_00/top_left/instructions/Audio12.wav,99.21317539992742,99.19629214004381,12,"[12.869657600065693, 0.1439190999371931, 0.13322790001984686, 0.11963440000545233, 0.14394129998981953, 0.12730420008301735, 0.1447437999304384, 0.12477039999794215, 0.16027920006308705, 0.1548608000157401, 0.15416289994027466, 0.1382322000572458]","[0.02688219991978258, 0.01363820000551641, 0.00021079997532069683, 0.01328399998601526, 0.00018010009080171585, 0.013422099989838898, 0.024452999932691455, 0.027219800045713782, 0.02125069999601692, 0.03596889995969832, 0.02130840008612722, 0.13824040000326931]",0,,,,,,,,,,,,,,,,,,,,,,,,,,,,,,,,,,,,,,,,,,,,A,train_y,red_square,top_left,2024-11-06_16h42.10.232,HideSeek_v1,2022.2.5,59.90244287787864,
,,,,,,,,,,,,0,0,0,0,,,,,,,,,,,,,,,,,,,,,,,,,,,,,,,,,,,,,,,,,17,0.7,0,0,99,1,30,0,conditions/schedules/train_y_first/red_square_00/top_left/inputTrain_1.1.xlsx,99,1,1,1,0,,,,,,,,,,,,,,,,,,,,,,,,,,,,A,train_y,red_square,top_left,2024-11-06_16h42.10.232,HideSeek_v1,2022.2.5,59.90244287787864,
,,,,,,,,,,,,1,0,1,0,0,0,0,0,,,,,,,,,,,,,,,,,,,,,,,,,,,conditions/schedules/train_y_first/red_square_00/top_left/instructions/Slide13.png,conditions/schedules/train_y_first/red_square_00/top_left/instructions/Audio13.wav,99.44809899991378,99.44615296007834,13,"[12.869657600065693, 0.1439190999371931, 0.13322790001984686, 0.11963440000545233, 0.14394129998981953, 0.12730420008301735, 0.1447437999304384, 0.12477039999794215, 0.16027920006308705, 0.1548608000157401, 0.15416289994027466, 0.1382322000572458, 0.08148950000759214]","[0.02688219991978258, 0.01363820000551641, 0.00021079997532069683, 0.01328399998601526, 0.00018010009080171585, 0.013422099989838898, 0.024452999932691455, 0.027219800045713782, 0.02125069999601692, 0.03596889995969832, 0.02130840008612722, 0.13824040000326931, 0.08149619994219393]",0,,,,,,,,,,,,,,,,,,,,,,,,,,,,,,,,,,,,,,,,,,,,A,train_y,red_square,top_left,2024-11-06_16h42.10.232,HideSeek_v1,2022.2.5,59.90244287787864,
,,,,,,,,,,,,1,0,1,0,1,0,1,0,,,,,,,,,,,,,,,,,,,,,,,,,,,conditions/schedules/train_y_first/red_square_00/top_left/instructions/Slide14.png,conditions/schedules/train_y_first/red_square_00/top_left/instructions/Audio14.wav,99.57989579997957,99.56395753995749,14,"[12.869657600065693, 0.1439190999371931, 0.13322790001984686, 0.11963440000545233, 0.14394129998981953, 0.12730420008301735, 0.1447437999304384, 0.12477039999794215, 0.16027920006308705, 0.1548608000157401, 0.15416289994027466, 0.1382322000572458, 0.08148950000759214, 0.13846469996497035]","[0.02688219991978258, 0.01363820000551641, 0.00021079997532069683, 0.01328399998601526, 0.00018010009080171585, 0.013422099989838898, 0.024452999932691455, 0.027219800045713782, 0.02125069999601692, 0.03596889995969832, 0.02130840008612722, 0.13824040000326931, 0.00019449996761977673, 0.13847570004872978]",0,,,,,,,,,,,,,,,,,,,,,,,,,,,,,,,,,,,,,,,,,,,,A,train_y,red_square,top_left,2024-11-06_16h42.10.232,HideSeek_v1,2022.2.5,59.90244287787864,
,,,,,,,,,,,,1,0,1,0,,,,,,,,,,,,,,,,,,,,,,,,,,,,,,,,,,,,,,,,,17,0.7,0,0,99,1,30,0,conditions/schedules/train_y_first/red_square_00/top_left/inputTrain_1.1.xlsx,99,1,1,1,0,,,,,,,,,,,,,,,,,,,,,,,,,,,,A,train_y,red_square,top_left,2024-11-06_16h42.10.232,HideSeek_v1,2022.2.5,59.90244287787864,
,,,,,,,,,,,,2,0,2,0,0,0,0,0,,,,,,,,,,,,,,,,,,,,,,,,,,,conditions/schedules/train_y_first/red_square_00/top_left/instructions/Slide15.png,conditions/schedules/train_y_first/red_square_00/top_left/instructions/Audio15.wav,99.82974029995967,99.81275106001414,15,"[12.869657600065693, 0.1439190999371931, 0.13322790001984686, 0.11963440000545233, 0.14394129998981953, 0.12730420008301735, 0.1447437999304384, 0.12477039999794215, 0.16027920006308705, 0.1548608000157401, 0.15416289994027466, 0.1382322000572458, 0.08148950000759214, 0.13846469996497035, 0.057339999941177666]","[0.02688219991978258, 0.01363820000551641, 0.00021079997532069683, 0.01328399998601526, 0.00018010009080171585, 0.013422099989838898, 0.024452999932691455, 0.027219800045713782, 0.02125069999601692, 0.03596889995969832, 0.02130840008612722, 0.13824040000326931, 0.00019449996761977673, 0.13847570004872978, 0.05734860000666231]",0,,,,,,,,,,,,,,,,,,,,,,,,,,,,,,,,,,,,,,,,,,,,A,train_y,red_square,top_left,2024-11-06_16h42.10.232,HideSeek_v1,2022.2.5,59.90244287787864,
,,,,,,,,,,,,2,0,2,0,1,0,1,0,,,,,,,,,,,,,,,,,,,,,,,,,,,conditions/schedules/train_y_first/red_square_00/top_left/instructions/Slide16.png,conditions/schedules/train_y_first/red_square_00/top_left/instructions/Audio16.wav,99.9298104000045,99.91260383998743,16,"[12.869657600065693, 0.1439190999371931, 0.13322790001984686, 0.11963440000545233, 0.14394129998981953, 0.12730420008301735, 0.1447437999304384, 0.12477039999794215, 0.16027920006308705, 0.1548608000157401, 0.15416289994027466, 0.1382322000572458, 0.08148950000759214, 0.13846469996497035, 0.057339999941177666, 0.15594399999827147]","[0.02688219991978258, 0.01363820000551641, 0.00021079997532069683, 0.01328399998601526, 0.00018010009080171585, 0.013422099989838898, 0.024452999932691455, 0.027219800045713782, 0.02125069999601692, 0.03596889995969832, 0.02130840008612722, 0.13824040000326931, 0.00019449996761977673, 0.13847570004872978, 0.0221841000020504, 0.15595249994657934]",0,,,,,,,,,,,,,,,,,,,,,,,,,,,,,,,,,,,,,,,,,,,,A,train_y,red_square,top_left,2024-11-06_16h42.10.232,HideSeek_v1,2022.2.5,59.90244287787864,
,,,,,,,,,,,,2,0,2,0,,,,,,,,,,,,,,,,,,,,,,,,,,,,,,,,,,,,,,,,,17,0.7,0,0,99,1,30,0,conditions/schedules/train_y_first/red_square_00/top_left/inputTrain_1.1.xlsx,99,1,1,1,0,,,,,,,,,,,,,,,,,,,,,,,,,,,,A,train_y,red_square,top_left,2024-11-06_16h42.10.232,HideSeek_v1,2022.2.5,59.90244287787864,
,,,,,,,,,,,,3,0,3,0,0,0,0,0,,,,,,,,,,,,,,,,,,,,,,,,,,,conditions/schedules/train_y_first/red_square_00/top_left/instructions/Slide17.png,conditions/schedules/train_y_first/red_square_00/top_left/instructions/Audio17.wav,100.17812699999195,100.17940166000045,17,"[12.869657600065693, 0.1439190999371931, 0.13322790001984686, 0.11963440000545233, 0.14394129998981953, 0.12730420008301735, 0.1447437999304384, 0.12477039999794215, 0.16027920006308705, 0.1548608000157401, 0.15416289994027466, 0.1382322000572458, 0.08148950000759214, 0.13846469996497035, 0.057339999941177666, 0.15594399999827147, 0.06577190000098199]","[0.02688219991978258, 0.01363820000551641, 0.00021079997532069683, 0.01328399998601526, 0.00018010009080171585, 0.013422099989838898, 0.024452999932691455, 0.027219800045713782, 0.02125069999601692, 0.03596889995969832, 0.02130840008612722, 0.13824040000326931, 0.00019449996761977673, 0.13847570004872978, 0.0221841000020504, 0.15595249994657934, 0.06577979994472116]",0,,,,,,,,,,,,,,,,,,,,,,,,,,,,,,,,,,,,,,,,,,,,A,train_y,red_square,top_left,2024-11-06_16h42.10.232,HideSeek_v1,2022.2.5,59.90244287787864,
,,,,,,,,,,,,3,0,3,0,1,0,1,0,,,,,,,,,,,,,,,,,,,,,,,,,,,conditions/schedules/train_y_first/red_square_00/top_left/instructions/Slide18.png,conditions/schedules/train_y_first/red_square_00/top_left/instructions/Audio18.wav,100.29659449995961,100.27934863999253,18,"[12.869657600065693, 0.1439190999371931, 0.13322790001984686, 0.11963440000545233, 0.14394129998981953, 0.12730420008301735, 0.1447437999304384, 0.12477039999794215, 0.16027920006308705, 0.1548608000157401, 0.15416289994027466, 0.1382322000572458, 0.08148950000759214, 0.13846469996497035, 0.057339999941177666, 0.15594399999827147, 0.06577190000098199, 0.1392020999919623]","[0.02688219991978258, 0.01363820000551641, 0.00021079997532069683, 0.01328399998601526, 0.00018010009080171585, 0.013422099989838898, 0.024452999932691455, 0.027219800045713782, 0.02125069999601692, 0.03596889995969832, 0.02130840008612722, 0.13824040000326931, 0.00019449996761977673, 0.13847570004872978, 0.0221841000020504, 0.15595249994657934, 0.022718199994415045, 0.13920910004526377]",0,,,,,,,,,,,,,,,,,,,,,,,,,,,,,,,,,,,,,,,,,,,,A,train_y,red_square,top_left,2024-11-06_16h42.10.232,HideSeek_v1,2022.2.5,59.90244287787864,
,,,,,,,,,,,,3,0,3,0,2,0,2,0,,,,,,,,,,,,,,,,,,,,,,,,,,,conditions/schedules/train_y_first/red_square_00/top_left/instructions/Slide19.png,conditions/schedules/train_y_first/red_square_00/top_left/instructions/Audio19.wav,100.47975790000055,100.46264133997029,19,"[12.869657600065693, 0.1439190999371931, 0.13322790001984686, 0.11963440000545233, 0.14394129998981953, 0.12730420008301735, 0.1447437999304384, 0.12477039999794215, 0.16027920006308705, 0.1548608000157401, 0.15416289994027466, 0.1382322000572458, 0.08148950000759214, 0.13846469996497035, 0.057339999941177666, 0.15594399999827147, 0.06577190000098199, 0.1392020999919623, 0.1578676999779418]","[0.02688219991978258, 0.01363820000551641, 0.00021079997532069683, 0.01328399998601526, 0.00018010009080171585, 0.013422099989838898, 0.024452999932691455, 0.027219800045713782, 0.02125069999601692, 0.03596889995969832, 0.02130840008612722, 0.13824040000326931, 0.00019449996761977673, 0.13847570004872978, 0.0221841000020504, 0.15595249994657934, 0.022718199994415045, 0.00018789991736412048, 0.15787599992472678]",0,,,,,,,,,,,,,,,,,,,,,,,,,,,,,,,,,,,,,,,,,,,,A,train_y,red_square,top_left,2024-11-06_16h42.10.232,HideSeek_v1,2022.2.5,59.90244287787864,
,,,,,,,,,,,,3,0,3,0,3,0,3,0,,,,,,,,,,,,,,,,,,,,,,,,,,,conditions/schedules/train_y_first/red_square_00/top_left/instructions/Slide20.png,conditions/schedules/train_y_first/red_square_00/top_left/instructions/Audio20.wav,100.67933339998126,100.66300273999805,20,"[12.869657600065693, 0.1439190999371931, 0.13322790001984686, 0.11963440000545233, 0.14394129998981953, 0.12730420008301735, 0.1447437999304384, 0.12477039999794215, 0.16027920006308705, 0.1548608000157401, 0.15416289994027466, 0.1382322000572458, 0.08148950000759214, 0.13846469996497035, 0.057339999941177666, 0.15594399999827147, 0.06577190000098199, 0.1392020999919623, 0.1578676999779418, 0.1411846000701189]","[0.02688219991978258, 0.01363820000551641, 0.00021079997532069683, 0.01328399998601526, 0.00018010009080171585, 0.013422099989838898, 0.024452999932691455, 0.027219800045713782, 0.02125069999601692, 0.03596889995969832, 0.02130840008612722, 0.13824040000326931, 0.00019449996761977673, 0.13847570004872978, 0.0221841000020504, 0.15595249994657934, 0.022718199994415045, 0.00018789991736412048, 0.0001957000931724906, 0.14119420002680272]",0,,,,,,,,,,,,,,,,,,,,,,,,,,,,,,,,,,,,,,,,,,,,A,train_y,red_square,top_left,2024-11-06_16h42.10.232,HideSeek_v1,2022.2.5,59.90244287787864,
,,,,,,,,,,,,3,0,3,0,,,,,,,,,,,,,,,,,,,,,,,,,,,,,,,,,,,,,,,,,17,0.7,0,0,99,1,30,0,conditions/schedules/train_y_first/red_square_00/top_left/inputTrain_1.1.xlsx,99,1,1,1,0,,,,,,,,,,,,,,,,,,,,,,,,,,,,A,train_y,red_square,top_left,2024-11-06_16h42.10.232,HideSeek_v1,2022.2.5,59.90244287787864,
,,,,,,,,,,,,4,0,4,0,0,0,0,0,,,,,,,,,,,,,,,,,,,,,,,,,,,conditions/schedules/train_y_first/red_square_00/top_left/instructions/Slide21.png,conditions/schedules/train_y_first/red_square_00/top_left/instructions/Audio21.wav,100.93007999996189,100.91292786005653,21,"[12.869657600065693, 0.1439190999371931, 0.13322790001984686, 0.11963440000545233, 0.14394129998981953, 0.12730420008301735, 0.1447437999304384, 0.12477039999794215, 0.16027920006308705, 0.1548608000157401, 0.15416289994027466, 0.1382322000572458, 0.08148950000759214, 0.13846469996497035, 0.057339999941177666, 0.15594399999827147, 0.06577190000098199, 0.1392020999919623, 0.1578676999779418, 0.1411846000701189, 0.07658300001639873]","[0.02688219991978258, 0.01363820000551641, 0.00021079997532069683, 0.01328399998601526, 0.00018010009080171585, 0.013422099989838898, 0.024452999932691455, 0.027219800045713782, 0.02125069999601692, 0.03596889995969832, 0.02130840008612722, 0.13824040000326931, 0.00019449996761977673, 0.13847570004872978, 0.0221841000020504, 0.15595249994657934, 0.022718199994415045, 0.00018789991736412048, 0.0001957000931724906, 0.14119420002680272, 0.07659059995785356]",0,,,,,,,,,,,,,,,,,,,,,,,,,,,,,,,,,,,,,,,,,,,,A,train_y,red_square,top_left,2024-11-06_16h42.10.232,HideSeek_v1,2022.2.5,59.90244287787864,
,,,,,,,,,,,,4,0,4,0,,,,,,,,,,,,,,,,,,,,,,,,,,,,,,,,,,,,,,,,,17,0.7,0,0,99,1,30,0,conditions/schedules/train_y_first/red_square_00/top_left/inputTrain_1.1.xlsx,99,1,1,1,0,,,,,,,,,,,,,,,,,,,,,,,,,,,,A,train_y,red_square,top_left,2024-11-06_16h42.10.232,HideSeek_v1,2022.2.5,59.90244287787864,
,,,,,,,,,,,,5,0,5,0,0,0,0,0,,,,,,,,,,,,,,,,,,,,,,,,,,,conditions/schedules/train_y_first/red_square_00/top_left/instructions/Slide22.png,conditions/schedules/train_y_first/red_square_00/top_left/instructions/Audio22.wav,101.1131819000002,101.09622506006855,22,"[12.869657600065693, 0.1439190999371931, 0.13322790001984686, 0.11963440000545233, 0.14394129998981953, 0.12730420008301735, 0.1447437999304384, 0.12477039999794215, 0.16027920006308705, 0.1548608000157401, 0.15416289994027466, 0.1382322000572458, 0.08148950000759214, 0.13846469996497035, 0.057339999941177666, 0.15594399999827147, 0.06577190000098199, 0.1392020999919623, 0.1578676999779418, 0.1411846000701189, 0.07658300001639873, 0.0684368999209255]","[0.02688219991978258, 0.01363820000551641, 0.00021079997532069683, 0.01328399998601526, 0.00018010009080171585, 0.013422099989838898, 0.024452999932691455, 0.027219800045713782, 0.02125069999601692, 0.03596889995969832, 0.02130840008612722, 0.13824040000326931, 0.00019449996761977673, 0.13847570004872978, 0.0221841000020504, 0.15595249994657934, 0.022718199994415045, 0.00018789991736412048, 0.0001957000931724906, 0.14119420002680272, 0.07659059995785356, 0.06844579998869449]",0,,,,,,,,,,,,,,,,,,,,,,,,,,,,,,,,,,,,,,,,,,,,A,train_y,red_square,top_left,2024-11-06_16h42.10.232,HideSeek_v1,2022.2.5,59.90244287787864,
,,,,,,,,,,,,5,0,5,0,,,,,,,,,,,,,,,,,,,,,,,,,,,,,,,,,,,,,,,,,17,0.7,0,0,99,1,30,0,conditions/schedules/train_y_first/red_square_00/top_left/inputTrain_1.1.xlsx,99,1,1,1,0,,,,,,,,,,,,,,,,,,,,,,,,,,,,A,train_y,red_square,top_left,2024-11-06_16h42.10.232,HideSeek_v1,2022.2.5,59.90244287787864,
,,,,,,,,,,,,6,0,6,0,0,0,0,0,,,,,,,,,,,,,,,,,,,,,,,,,,,conditions/schedules/train_y_first/red_square_00/top_left/instructions/Slide23.png,conditions/schedules/train_y_first/red_square_00/top_left/instructions/Audio23.wav,101.29705519997515,101.2794623599737,23,"[12.869657600065693, 0.1439190999371931, 0.13322790001984686, 0.11963440000545233, 0.14394129998981953, 0.12730420008301735, 0.1447437999304384, 0.12477039999794215, 0.16027920006308705, 0.1548608000157401, 0.15416289994027466, 0.1382322000572458, 0.08148950000759214, 0.13846469996497035, 0.057339999941177666, 0.15594399999827147, 0.06577190000098199, 0.1392020999919623, 0.1578676999779418, 0.1411846000701189, 0.07658300001639873, 0.0684368999209255, 0.09345479996409267]","[0.02688219991978258, 0.01363820000551641, 0.00021079997532069683, 0.01328399998601526, 0.00018010009080171585, 0.013422099989838898, 0.024452999932691455, 0.027219800045713782, 0.02125069999601692, 0.03596889995969832, 0.02130840008612722, 0.13824040000326931, 0.00019449996761977673, 0.13847570004872978, 0.0221841000020504, 0.15595249994657934, 0.022718199994415045, 0.00018789991736412048, 0.0001957000931724906, 0.14119420002680272, 0.07659059995785356, 0.06844579998869449, 0.09346329991240054]",0,,,,,,,,,,,,,,,,,,,,,,,,,,,,,,,,,,,,,,,,,,,,A,train_y,red_square,top_left,2024-11-06_16h42.10.232,HideSeek_v1,2022.2.5,59.90244287787864,
,,,,,,,,,,,,6,0,6,0,1,0,1,0,,,,,,,,,,,,,,,,,,,,,,,,,,,conditions/schedules/train_y_first/red_square_00/top_left/instructions/Slide24.png,conditions/schedules/train_y_first/red_square_00/top_left/instructions/Audio24.wav,101.4296253999928,101.41261203993345,24,"[12.869657600065693, 0.1439190999371931, 0.13322790001984686, 0.11963440000545233, 0.14394129998981953, 0.12730420008301735, 0.1447437999304384, 0.12477039999794215, 0.16027920006308705, 0.1548608000157401, 0.15416289994027466, 0.1382322000572458, 0.08148950000759214, 0.13846469996497035, 0.057339999941177666, 0.15594399999827147, 0.06577190000098199, 0.1392020999919623, 0.1578676999779418, 0.1411846000701189, 0.07658300001639873, 0.0684368999209255, 0.09345479996409267, 0.14111989992670715]","[0.02688219991978258, 0.01363820000551641, 0.00021079997532069683, 0.01328399998601526, 0.00018010009080171585, 0.013422099989838898, 0.024452999932691455, 0.027219800045713782, 0.02125069999601692, 0.03596889995969832, 0.02130840008612722, 0.13824040000326931, 0.00019449996761977673, 0.13847570004872978, 0.0221841000020504, 0.15595249994657934, 0.022718199994415045, 0.00018789991736412048, 0.0001957000931724906, 0.14119420002680272, 0.07659059995785356, 0.06844579998869449, 0.00018879992421716452, 0.14112939999904484]",0,,,,,,,,,,,,,,,,,,,,,,,,,,,,,,,,,,,,,,,,,,,,A,train_y,red_square,top_left,2024-11-06_16h42.10.232,HideSeek_v1,2022.2.5,59.90244287787864,
,,,,,,,,,,,,6,0,6,0,2,0,2,0,,,,,,,,,,,,,,,,,,,,,,,,,,,conditions/schedules/train_y_first/red_square_00/top_left/instructions/Slide25.png,conditions/schedules/train_y_first/red_square_00/top_left/instructions/Audio25.wav,101.61313249997329,101.59693593996344,25,"[12.869657600065693, 0.1439190999371931, 0.13322790001984686, 0.11963440000545233, 0.14394129998981953, 0.12730420008301735, 0.1447437999304384, 0.12477039999794215, 0.16027920006308705, 0.1548608000157401, 0.15416289994027466, 0.1382322000572458, 0.08148950000759214, 0.13846469996497035, 0.057339999941177666, 0.15594399999827147, 0.06577190000098199, 0.1392020999919623, 0.1578676999779418, 0.1411846000701189, 0.07658300001639873, 0.0684368999209255, 0.09345479996409267, 0.14111989992670715, 0.12357900000642985]","[0.02688219991978258, 0.01363820000551641, 0.00021079997532069683, 0.01328399998601526, 0.00018010009080171585, 0.013422099989838898, 0.024452999932691455, 0.027219800045713782, 0.02125069999601692, 0.03596889995969832, 0.02130840008612722, 0.13824040000326931, 0.00019449996761977673, 0.13847570004872978, 0.0221841000020504, 0.15595249994657934, 0.022718199994415045, 0.00018789991736412048, 0.0001957000931724906, 0.14119420002680272, 0.07659059995785356, 0.06844579998869449, 0.00018879992421716452, 0.00018470000941306353, 0.12358739995397627]",0,,,,,,,,,,,,,,,,,,,,,,,,,,,,,,,,,,,,,,,,,,,,A,train_y,red_square,top_left,2024-11-06_16h42.10.232,HideSeek_v1,2022.2.5,59.90244287787864,
,,,,,,,,,,,,6,0,6,0,,,,,,,,,,,,,,,,,,,,,,,,,,,,,,,,,,,,,,,,,17,0.7,0,0,99,1,30,0,conditions/schedules/train_y_first/red_square_00/top_left/inputTrain_1.1.xlsx,99,1,1,1,0,,,,,,,,,,,,,,,,,,,,,,,,,,,,A,train_y,red_square,top_left,2024-11-06_16h42.10.232,HideSeek_v1,2022.2.5,59.90244287787864,
,,,,,,,,,,,,7,0,7,0,0,0,0,0,,,,,,,,,,,,,,,,,,,,,,,,,,,conditions/schedules/train_y_first/red_square_00/top_left/instructions/Slide26.png,conditions/schedules/train_y_first/red_square_00/top_left/instructions/Audio26.wav,101.84710040001664,101.82970015996835,26,"[12.869657600065693, 0.1439190999371931, 0.13322790001984686, 0.11963440000545233, 0.14394129998981953, 0.12730420008301735, 0.1447437999304384, 0.12477039999794215, 0.16027920006308705, 0.1548608000157401, 0.15416289994027466, 0.1382322000572458, 0.08148950000759214, 0.13846469996497035, 0.057339999941177666, 0.15594399999827147, 0.06577190000098199, 0.1392020999919623, 0.1578676999779418, 0.1411846000701189, 0.07658300001639873, 0.0684368999209255, 0.09345479996409267, 0.14111989992670715, 0.12357900000642985, 0.07762979995459318]","[0.02688219991978258, 0.01363820000551641, 0.00021079997532069683, 0.01328399998601526, 0.00018010009080171585, 0.013422099989838898, 0.024452999932691455, 0.027219800045713782, 0.02125069999601692, 0.03596889995969832, 0.02130840008612722, 0.13824040000326931, 0.00019449996761977673, 0.13847570004872978, 0.0221841000020504, 0.15595249994657934, 0.022718199994415045, 0.00018789991736412048, 0.0001957000931724906, 0.14119420002680272, 0.07659059995785356, 0.06844579998869449, 0.00018879992421716452, 0.00018470000941306353, 0.12358739995397627, 0.07763720001094043]",0,,,,,,,,,,,,,,,,,,,,,,,,,,,,,,,,,,,,,,,,,,,,A,train_y,red_square,top_left,2024-11-06_16h42.10.232,HideSeek_v1,2022.2.5,59.90244287787864,
,,,,,,,,,,,,7,0,7,0,,,,,,,,,,,,,,,,,,,,,,,,,,,,,,,,,,,,,,,,,17,0.7,0,0,99,1,30,0,conditions/schedules/train_y_first/red_square_00/top_left/inputTrain_1.1.xlsx,99,1,1,1,0,,,,,,,,,,,,,,,,,,,,,,,,,,,,A,train_y,red_square,top_left,2024-11-06_16h42.10.232,HideSeek_v1,2022.2.5,59.90244287787864,
,,,,,,,,,,,,8,0,8,0,0,0,0,0,,,,,,,,,,,,,,,,,,,,,,,,,,,conditions/schedules/train_y_first/red_square_00/top_left/instructions/Slide27.png,conditions/schedules/train_y_first/red_square_00/top_left/instructions/Audio27.wav,102.02989050000906,102.01291126002326,27,"[12.869657600065693, 0.1439190999371931, 0.13322790001984686, 0.11963440000545233, 0.14394129998981953, 0.12730420008301735, 0.1447437999304384, 0.12477039999794215, 0.16027920006308705, 0.1548608000157401, 0.15416289994027466, 0.1382322000572458, 0.08148950000759214, 0.13846469996497035, 0.057339999941177666, 0.15594399999827147, 0.06577190000098199, 0.1392020999919623, 0.1578676999779418, 0.1411846000701189, 0.07658300001639873, 0.0684368999209255, 0.09345479996409267, 0.14111989992670715, 0.12357900000642985, 0.07762979995459318, 0.07511930004693568]","[0.02688219991978258, 0.01363820000551641, 0.00021079997532069683, 0.01328399998601526, 0.00018010009080171585, 0.013422099989838898, 0.024452999932691455, 0.027219800045713782, 0.02125069999601692, 0.03596889995969832, 0.02130840008612722, 0.13824040000326931, 0.00019449996761977673, 0.13847570004872978, 0.0221841000020504, 0.15595249994657934, 0.022718199994415045, 0.00018789991736412048, 0.0001957000931724906, 0.14119420002680272, 0.07659059995785356, 0.06844579998869449, 0.00018879992421716452, 0.00018470000941306353, 0.12358739995397627, 0.07763720001094043, 0.07512599998153746]",0,,,,,,,,,,,,,,,,,,,,,,,,,,,,,,,,,,,,,,,,,,,,A,train_y,red_square,top_left,2024-11-06_16h42.10.232,HideSeek_v1,2022.2.5,59.90244287787864,
,,,,,,,,,,,,8,0,8,0,,,,,,,,,,,,,,,,,,,,,,,,,,,,,,,,,,,,,,,,,17,0.7,0,0,99,1,30,0,conditions/schedules/train_y_first/red_square_00/top_left/inputTrain_1.1.xlsx,99,1,1,1,0,,,,,,,,,,,,,,,,,,,,,,,,,,,,A,train_y,red_square,top_left,2024-11-06_16h42.10.232,HideSeek_v1,2022.2.5,59.90244287787864,
,,,,,,,,,,,,9,0,9,0,0,0,0,0,,,,,,,,,,,,,,,,,,,,,,,,,,,conditions/schedules/train_y_first/red_square_00/top_left/instructions/Slide28.png,conditions/schedules/train_y_first/red_square_00/top_left/instructions/Audio28.wav,102.19970019999892,102.19633396005958,28,"[12.869657600065693, 0.1439190999371931, 0.13322790001984686, 0.11963440000545233, 0.14394129998981953, 0.12730420008301735, 0.1447437999304384, 0.12477039999794215, 0.16027920006308705, 0.1548608000157401, 0.15416289994027466, 0.1382322000572458, 0.08148950000759214, 0.13846469996497035, 0.057339999941177666, 0.15594399999827147, 0.06577190000098199, 0.1392020999919623, 0.1578676999779418, 0.1411846000701189, 0.07658300001639873, 0.0684368999209255, 0.09345479996409267, 0.14111989992670715, 0.12357900000642985, 0.07762979995459318, 0.07511930004693568, 0.09430709993466735]","[0.02688219991978258, 0.01363820000551641, 0.00021079997532069683, 0.01328399998601526, 0.00018010009080171585, 0.013422099989838898, 0.024452999932691455, 0.027219800045713782, 0.02125069999601692, 0.03596889995969832, 0.02130840008612722, 0.13824040000326931, 0.00019449996761977673, 0.13847570004872978, 0.0221841000020504, 0.15595249994657934, 0.022718199994415045, 0.00018789991736412048, 0.0001957000931724906, 0.14119420002680272, 0.07659059995785356, 0.06844579998869449, 0.00018879992421716452, 0.00018470000941306353, 0.12358739995397627, 0.07763720001094043, 0.07512599998153746, 0.0943144999910146]",0,,,,,,,,,,,,,,,,,,,,,,,,,,,,,,,,,,,,,,,,,,,,A,train_y,red_square,top_left,2024-11-06_16h42.10.232,HideSeek_v1,2022.2.5,59.90244287787864,
,,,,,,,,,,,,9,0,9,0,1,0,1,0,,,,,,,,,,,,,,,,,,,,,,,,,,,conditions/schedules/train_y_first/red_square_00/top_left/instructions/Slide29.png,conditions/schedules/train_y_first/red_square_00/top_left/instructions/Audio29.wav,102.34478899999522,102.32926073995186,29,"[12.869657600065693, 0.1439190999371931, 0.13322790001984686, 0.11963440000545233, 0.14394129998981953, 0.12730420008301735, 0.1447437999304384, 0.12477039999794215, 0.16027920006308705, 0.1548608000157401, 0.15416289994027466, 0.1382322000572458, 0.08148950000759214, 0.13846469996497035, 0.057339999941177666, 0.15594399999827147, 0.06577190000098199, 0.1392020999919623, 0.1578676999779418, 0.1411846000701189, 0.07658300001639873, 0.0684368999209255, 0.09345479996409267, 0.14111989992670715, 0.12357900000642985, 0.07762979995459318, 0.07511930004693568, 0.09430709993466735, 0.11838289990555495]","[0.02688219991978258, 0.01363820000551641, 0.00021079997532069683, 0.01328399998601526, 0.00018010009080171585, 0.013422099989838898, 0.024452999932691455, 0.027219800045713782, 0.02125069999601692, 0.03596889995969832, 0.02130840008612722, 0.13824040000326931, 0.00019449996761977673, 0.13847570004872978, 0.0221841000020504, 0.15595249994657934, 0.022718199994415045, 0.00018789991736412048, 0.0001957000931724906, 0.14119420002680272, 0.07659059995785356, 0.06844579998869449, 0.00018879992421716452, 0.00018470000941306353, 0.12358739995397627, 0.07763720001094043, 0.07512599998153746, 0.00018429988995194435, 0.11839319998398423]",0,,,,,,,,,,,,,,,,,,,,,,,,,,,,,,,,,,,,,,,,,,,,A,train_y,red_square,top_left,2024-11-06_16h42.10.232,HideSeek_v1,2022.2.5,59.90244287787864,
,,,,,,,,,,,,9,0,9,0,2,0,2,0,,,,,,,,,,,,,,,,,,,,,,,,,,,conditions/schedules/train_y_first/red_square_00/top_left/instructions/Slide30.png,conditions/schedules/train_y_first/red_square_00/top_left/instructions/Audio30.wav,102.4968041999964,102.4797716600122,30,"[12.869657600065693, 0.1439190999371931, 0.13322790001984686, 0.11963440000545233, 0.14394129998981953, 0.12730420008301735, 0.1447437999304384, 0.12477039999794215, 0.16027920006308705, 0.1548608000157401, 0.15416289994027466, 0.1382322000572458, 0.08148950000759214, 0.13846469996497035, 0.057339999941177666, 0.15594399999827147, 0.06577190000098199, 0.1392020999919623, 0.1578676999779418, 0.1411846000701189, 0.07658300001639873, 0.0684368999209255, 0.09345479996409267, 0.14111989992670715, 0.12357900000642985, 0.07762979995459318, 0.07511930004693568, 0.09430709993466735, 0.11838289990555495, 0.1706828000023961]","[0.02688219991978258, 0.01363820000551641, 0.00021079997532069683, 0.01328399998601526, 0.00018010009080171585, 0.013422099989838898, 0.024452999932691455, 0.027219800045713782, 0.02125069999601692, 0.03596889995969832, 0.02130840008612722, 0.13824040000326931, 0.00019449996761977673, 0.13847570004872978, 0.0221841000020504, 0.15595249994657934, 0.022718199994415045, 0.00018789991736412048, 0.0001957000931724906, 0.14119420002680272, 0.07659059995785356, 0.06844579998869449, 0.00018879992421716452, 0.00018470000941306353, 0.12358739995397627, 0.07763720001094043, 0.07512599998153746, 0.00018429988995194435, 0.037150599993765354, 0.1706911000655964]",0,,,,,,,,,,,,,,,,,,,,,,,,,,,,,,,,,,,,,,,,,,,,A,train_y,red_square,top_left,2024-11-06_16h42.10.232,HideSeek_v1,2022.2.5,59.90244287787864,
,,,,,,,,,,,,9,0,9,0,3,0,3,0,,,,,,,,,,,,,,,,,,,,,,,,,,,conditions/schedules/train_y_first/red_square_00/top_left/instructions/Slide31.png,conditions/schedules/train_y_first/red_square_00/top_left/instructions/Audio31.wav,102.71418649994303,102.69612024001545,31,"[12.869657600065693, 0.1439190999371931, 0.13322790001984686, 0.11963440000545233, 0.14394129998981953, 0.12730420008301735, 0.1447437999304384, 0.12477039999794215, 0.16027920006308705, 0.1548608000157401, 0.15416289994027466, 0.1382322000572458, 0.08148950000759214, 0.13846469996497035, 0.057339999941177666, 0.15594399999827147, 0.06577190000098199, 0.1392020999919623, 0.1578676999779418, 0.1411846000701189, 0.07658300001639873, 0.0684368999209255, 0.09345479996409267, 0.14111989992670715, 0.12357900000642985, 0.07762979995459318, 0.07511930004693568, 0.09430709993466735, 0.11838289990555495, 0.1706828000023961, 0.11831440008245409]","[0.02688219991978258, 0.01363820000551641, 0.00021079997532069683, 0.01328399998601526, 0.00018010009080171585, 0.013422099989838898, 0.024452999932691455, 0.027219800045713782, 0.02125069999601692, 0.03596889995969832, 0.02130840008612722, 0.13824040000326931, 0.00019449996761977673, 0.13847570004872978, 0.0221841000020504, 0.15595249994657934, 0.022718199994415045, 0.00018789991736412048, 0.0001957000931724906, 0.14119420002680272, 0.07659059995785356, 0.06844579998869449, 0.00018879992421716452, 0.00018470000941306353, 0.12358739995397627, 0.07763720001094043, 0.07512599998153746, 0.00018429988995194435, 0.037150599993765354, 0.1706911000655964, 0.11832430004142225]",0,,,,,,,,,,,,,,,,,,,,,,,,,,,,,,,,,,,,,,,,,,,,A,train_y,red_square,top_left,2024-11-06_16h42.10.232,HideSeek_v1,2022.2.5,59.90244287787864,
,,,,,,,,,,,,9,0,9,0,,,,,,,,,,,,,,,,,,,,,,,,,,,,,,,,,,,,,,,,,17,0.7,0,0,99,1,30,0,conditions/schedules/train_y_first/red_square_00/top_left/inputTrain_1.1.xlsx,99,1,1,1,0,,,,,,,,,,,,,,,,,,,,,,,,,,,,A,train_y,red_square,top_left,2024-11-06_16h42.10.232,HideSeek_v1,2022.2.5,59.90244287787864,
1,2,9,2,7,0,-2,14,72,test_exp,train_1D_first_new,0,,,,,,,,,,,,,,,,,,,,,0,0,0,0,0,0,0,0,,,,,,,,,,,,,,,,,,,,,,,,,,,,,,,stimuli/alien_stimuli/14.png,102.98003659991082,102.98003659991082,102.98003659991082,102.98003659991082,102.98003659991082,0,0,return,0.9444242001045495,0,0,0,0,0.32,return,0.8468749000458047,,,,,,,,,,,A,train_y,red_square,top_left,2024-11-06_16h42.10.232,HideSeek_v1,2022.2.5,59.90244287787864,
1,2,9,2,7,0,-2,14,72,test_exp,train_1D_first_new,0,,,,,,,,,,,,,,,,,,,,,0,0,0,0,,,,,,,,,,,,,,,,,,,,,,,,,,,,,,,,,,,,,,,,,,,,,,,,,,,,103.86263180000242,104.980294900015,stimuli/alien_stimuli/14.png,14,2,1,,,,,A,train_y,red_square,top_left,2024-11-06_16h42.10.232,HideSeek_v1,2022.2.5,59.90244287787864,
2,4,6,7,2,3,-4,42,72,test_exp,untrained,0,,,,,,,,,,,,,,,,,,,,,0,1,1,1,0,0,0,0,,,,,,,,,,,,,,,,,,,,,,,,,,,,,,,stimuli/alien_stimuli/42.png,104.980294900015,104.980294900015,104.980294900015,104.980294900015,104.980294900015,0,0,return,0.21279090002644807,0,0,0,0.16,0.08,return,0.07872879994101822,,,,,,,,,,,A,train_y,red_square,top_left,2024-11-06_16h42.10.232,HideSeek_v1,2022.2.5,59.90244287787864,
2,4,6,7,2,3,-4,42,72,test_exp,untrained,0,,,,,,,,,,,,,,,,,,,,,0,1,1,1,,,,,,,,,,,,,,,,,,,,,,,,,,,,,,,,,,,,,,,,,,,,,,,,,,,,105.09591279993765,106.1452178999316,stimuli/alien_stimuli/14.png,14,2,2,,,,,A,train_y,red_square,top_left,2024-11-06_16h42.10.232,HideSeek_v1,2022.2.5,59.90244287787864,
3,1,6,4,5,3,-1,45,72,test_exp,untrained,0,,,,,,,,,,,,,,,,,,,,,0,2,2,2,0,0,0,0,,,,,,,,,,,,,,,,,,,,,,,,,,,,,,,stimuli/alien_stimuli/45.png,106.1452178999316,106.1452178999316,106.1452178999316,106.1452178999316,106.1452178999316,0,0,return,0.3791844999650493,0,0,0,-0.08,0.08,return,0.30456770001910627,,,,,,,,,,,A,train_y,red_square,top_left,2024-11-06_16h42.10.232,HideSeek_v1,2022.2.5,59.90244287787864,
3,1,6,4,5,3,-1,45,72,test_exp,untrained,0,,,,,,,,,,,,,,,,,,,,,0,2,2,2,,,,,,,,,,,,,,,,,,,,,,,,,,,,,,,,,,,,,,,,,,,,,,,,,,,,106.4965160000138,107.57969669997692,stimuli/alien_stimuli/14.png,14,2,3,,,,,A,train_y,red_square,top_left,2024-11-06_16h42.10.232,HideSeek_v1,2022.2.5,59.90244287787864,
4,0,5,0,4,0,-1,15,72,test_exp,train_1D_first_repeat,0,,,,,,,,,,,,,,,,,,,,,0,3,3,3,0,0,0,0,,,,,,,,,,,,,,,,,,,,,,,,,,,,,,,stimuli/alien_stimuli/15.png,107.57969669997692,107.57969669997692,107.57969669997692,107.57969669997692,107.57969669997692,0,0,return,0.21352850005496293,0,0,0,-0.16,0,return,0.10427320003509521,,,,,,,,,,,A,train_y,red_square,top_left,2024-11-06_16h42.10.232,HideSeek_v1,2022.2.5,59.90244287787864,
4,0,5,0,4,0,-1,15,72,test_exp,train_1D_first_repeat,0,,,,,,,,,,,,,,,,,,,,,0,3,3,3,,,,,,,,,,,,,,,,,,,,,,,,,,,,,,,,,,,,,,,,,,,,,,,,,,,,107.7290653999662,108.86311809998006,stimuli/alien_stimuli/14.png,14,2,4,,,,,A,train_y,red_square,top_left,2024-11-06_16h42.10.232,HideSeek_v1,2022.2.5,59.90244287787864,
5,4,9,9,4,5,-5,61,72,test_exp,untrained,0,,,,,,,,,,,,,,,,,,,,,0,4,4,4,0,0,0,0,,,,,,,,,,,,,,,,,,,,,,,,,,,,,,,stimuli/alien_stimuli/61.png,108.86311809998006,108.86311809998006,108.86311809998006,108.86311809998006,108.86311809998006,0,0,return,0.29647790000308305,0,0,0,0.16,0.32,return,0.13868610002100468,,,,,,,,,,,A,train_y,red_square,top_left,2024-11-06_16h42.10.232,HideSeek_v1,2022.2.5,59.90244287787864,
5,4,9,9,4,5,-5,61,72,test_exp,untrained,0,,,,,,,,,,,,,,,,,,,,,0,4,4,4,,,,,,,,,,,,,,,,,,,,,,,,,,,,,,,,,,,,,,,,,,,,,,,,,,,,109.04649869992863,110.11260410002433,stimuli/alien_stimuli/14.png,14,2,5,,,,,A,train_y,red_square,top_left,2024-11-06_16h42.10.232,HideSeek_v1,2022.2.5,59.90244287787864,
6,0,7,5,4,5,-3,63,72,test_exp,untrained,0,,,,,,,,,,,,,,,,,,,,,0,5,5,5,0,0,0,0,,,,,,,,,,,,,,,,,,,,,,,,,,,,,,,stimuli/alien_stimuli/63.png,110.11260410002433,110.11260410002433,110.11260410002433,110.11260410002433,110.11260410002433,0,0,return,0.21221179992426187,0,0,0,-0.16,0.16,return,0.12856939993798733,,,,,,,,,,,A,train_y,red_square,top_left,2024-11-06_16h42.10.232,HideSeek_v1,2022.2.5,59.90244287787864,
6,0,7,5,4,5,-3,63,72,test_exp,untrained,0,,,,,,,,,,,,,,,,,,,,,0,5,5,5,,,,,,,,,,,,,,,,,,,,,,,,,,,,,,,,,,,,,,,,,,,,,,,,,,,,110.27977839997038,111.36289979994763,stimuli/alien_stimuli/14.png,14,2,6,,,,,A,train_y,red_square,top_left,2024-11-06_16h42.10.232,HideSeek_v1,2022.2.5,59.90244287787864,
7,4,5,6,0,2,-5,31,72,test_exp,untrained,0,,,,,,,,,,,,,,,,,,,,,0,6,6,6,0,0,0,0,,,,,,,,,,,,,,,,,,,,,,,,,,,,,,,stimuli/alien_stimuli/31.png,111.36289979994763,111.36289979994763,111.36289979994763,111.36289979994763,111.36289979994763,0,0,return,0.2115851000417024,0,0,0,0.16,0,return,0.10053229995537549,,,,,,,,,,,A,train_y,red_square,top_left,2024-11-06_16h42.10.232,HideSeek_v1,2022.2.5,59.90244287787864,
7,4,5,6,0,2,-5,31,72,test_exp,untrained,0,,,,,,,,,,,,,,,,,,,,,0,6,6,6,,,,,,,,,,,,,,,,,,,,,,,,,,,,,,,,,,,,,,,,,,,,,,,,,,,,111.51324839994777,112.58022000000346,stimuli/alien_stimuli/14.png,14,2,7,,,,,A,train_y,red_square,top_left,2024-11-06_16h42.10.232,HideSeek_v1,2022.2.5,59.90244287787864,
8,2,6,5,3,3,-3,43,72,test_exp,train_2D_repeat,0,,,,,,,,,,,,,,,,,,,,,0,7,7,7,0,0,0,0,,,,,,,,,,,,,,,,,,,,,,,,,,,,,,,stimuli/alien_stimuli/43.png,112.58022000000346,112.58022000000346,112.58022000000346,112.58022000000346,112.58022000000346,0,0,return,0.17948289995547384,0,0,0,0,0.08,return,0.09708430001046509,,,,,,,,,,,A,train_y,red_square,top_left,2024-11-06_16h42.10.232,HideSeek_v1,2022.2.5,59.90244287787864,
8,2,6,5,3,3,-3,43,72,test_exp,train_2D_repeat,0,,,,,,,,,,,,,,,,,,,,,0,7,7,7,,,,,,,,,,,,,,,,,,,,,,,,,,,,,,,,,,,,,,,,,,,,,,,,,,,,112.71278439997695,113.81281249993481,stimuli/alien_stimuli/14.png,14,2,8,,,,,A,train_y,red_square,top_left,2024-11-06_16h42.10.232,HideSeek_v1,2022.2.5,59.90244287787864,
9,4,8,8,3,4,-5,51,72,test_exp,untrained,0,,,,,,,,,,,,,,,,,,,,,0,8,8,8,0,0,0,0,,,,,,,,,,,,,,,,,,,,,,,,,,,,,,,stimuli/alien_stimuli/51.png,113.81281249993481,113.81281249993481,113.81281249993481,113.81281249993481,113.81281249993481,0,0,return,0.29584080004133284,0,0,0,0.16,0.24,return,0.17479189997538924,,,,,,,,,,,A,train_y,red_square,top_left,2024-11-06_16h42.10.232,HideSeek_v1,2022.2.5,59.90244287787864,
9,4,8,8,3,4,-5,51,72,test_exp,untrained,0,,,,,,,,,,,,,,,,,,,,,0,8,8,8,,,,,,,,,,,,,,,,,,,,,,,,,,,,,,,,,,,,,,,,,,,,,,,,,,,,114.02924039994832,115.11336840002332,stimuli/alien_stimuli/14.png,14,2,9,,,,,A,train_y,red_square,top_left,2024-11-06_16h42.10.232,HideSeek_v1,2022.2.5,59.90244287787864,
10,1,5,2,0,1,-5,21,72,test_exp,train_2D_repeat,0,,,,,,,,,,,,,,,,,,,,,0,9,9,9,0,0,0,0,,,,,,,,,,,,,,,,,,,,,,,,,,,,,,,stimuli/alien_stimuli/21.png,115.11336840002332,115.11336840002332,115.11336840002332,115.11336840002332,115.11336840002332,0,0,return,0.21235970000270754,0,0,0,-0.08,0,return,0.11441769998054951,,,,,,,,,,,A,train_y,red_square,top_left,2024-11-06_16h42.10.232,HideSeek_v1,2022.2.5,59.90244287787864,
10,1,5,2,0,1,-5,21,72,test_exp,train_2D_repeat,0,,,,,,,,,,,,,,,,,,,,,0,9,9,9,,,,,,,,,,,,,,,,,,,,,,,,,,,,,,,,,,,,,,,,,,,,,,,,,,,,115.26262880000286,116.34701429994311,stimuli/alien_stimuli/14.png,14,2,10,,,,,A,train_y,red_square,top_left,2024-11-06_16h42.10.232,HideSeek_v1,2022.2.5,59.90244287787864,
11,3,5,7,3,4,-2,54,72,test_exp,train_2D_repeat,0,,,,,,,,,,,,,,,,,,,,,0,10,10,10,0,0,0,0,,,,,,,,,,,,,,,,,,,,,,,,,,,,,,,stimuli/alien_stimuli/54.png,116.34701429994311,116.34701429994311,116.34701429994311,116.34701429994311,116.34701429994311,0,0,return,0.21159540000371635,0,0,0,0.08,0,return,0.10800720006227493,,,,,,,,,,,A,train_y,red_square,top_left,2024-11-06_16h42.10.232,HideSeek_v1,2022.2.5,59.90244287787864,
11,3,5,7,3,4,-2,54,72,test_exp,train_2D_repeat,0,,,,,,,,,,,,,,,,,,,,,0,10,10,10,,,,,,,,,,,,,,,,,,,,,,,,,,,,,,,,,,,,,,,,,,,,,,,,,,,,116.49587969994172,117.59612629993353,stimuli/alien_stimuli/14.png,14,2,11,,,,,A,train_y,red_square,top_left,2024-11-06_16h42.10.232,HideSeek_v1,2022.2.5,59.90244287787864,
12,2,8,3,8,1,0,26,72,test_exp,train_1D_sec_new,0,,,,,,,,,,,,,,,,,,,,,0,11,11,11,0,0,0,0,,,,,,,,,,,,,,,,,,,,,,,,,,,,,,,stimuli/alien_stimuli/26.png,117.59612629993353,117.59612629993353,117.59612629993353,117.59612629993353,117.59612629993353,0,0,return,0.2290670000948012,0,0,0,0,0.24,return,0.11031559994444251,,,,,,,,,,,A,train_y,red_square,top_left,2024-11-06_16h42.10.232,HideSeek_v1,2022.2.5,59.90244287787864,
12,2,8,3,8,1,0,26,72,test_exp,train_1D_sec_new,0,,,,,,,,,,,,,,,,,,,,,0,11,11,11,,,,,,,,,,,,,,,,,,,,,,,,,,,,,,,,,,,,,,,,,,,,,,,,,,,,117.7464257000247,118.84687989996746,stimuli/alien_stimuli/14.png,14,2,12,,,,,A,train_y,red_square,top_left,2024-11-06_16h42.10.232,HideSeek_v1,2022.2.5,59.90244287787864,
13,1,7,1,3,0,-4,12,72,test_exp,train_1D_first_new,0,,,,,,,,,,,,,,,,,,,,,0,12,12,12,0,0,0,0,,,,,,,,,,,,,,,,,,,,,,,,,,,,,,,stimuli/alien_stimuli/12.png,118.84687989996746,118.84687989996746,118.84687989996746,118.84687989996746,118.84687989996746,0,0,return,0.22913160000462085,0,0,0,-0.08,0.16,return,0.1140548000112176,,,,,,,,,,,A,train_y,red_square,top_left,2024-11-06_16h42.10.232,HideSeek_v1,2022.2.5,59.90244287787864,
13,1,7,1,3,0,-4,12,72,test_exp,train_1D_first_new,0,,,,,,,,,,,,,,,,,,,,,0,12,12,12,,,,,,,,,,,,,,,,,,,,,,,,,,,,,,,,,,,,,,,,,,,,,,,,,,,,118.99582279997412,120.07990809995681,stimuli/alien_stimuli/14.png,14,2,13,,,,,A,train_y,red_square,top_left,2024-11-06_16h42.10.232,HideSeek_v1,2022.2.5,59.90244287787864,
14,2,8,5,8,3,0,46,72,test_exp,untrained_1D_sec_leftout,0,,,,,,,,,,,,,,,,,,,,,0,13,13,13,0,0,0,0,,,,,,,,,,,,,,,,,,,,,,,,,,,,,,,stimuli/alien_stimuli/46.png,120.07990809995681,120.07990809995681,120.07990809995681,120.07990809995681,120.07990809995681,0,0,return,0.26312829996459186,0,0,0,0,0.24,return,0.1608859000261873,,,,,,,,,,,A,train_y,red_square,top_left,2024-11-06_16h42.10.232,HideSeek_v1,2022.2.5,59.90244287787864,
14,2,8,5,8,3,0,46,72,test_exp,untrained_1D_sec_leftout,0,,,,,,,,,,,,,,,,,,,,,0,13,13,13,,,,,,,,,,,,,,,,,,,,,,,,,,,,,,,,,,,,,,,,,,,,,,,,,,,,120.27932089997921,121.36311729997396,stimuli/alien_stimuli/14.png,14,2,14,,,,,A,train_y,red_square,top_left,2024-11-06_16h42.10.232,HideSeek_v1,2022.2.5,59.90244287787864,
15,2,9,2,9,0,0,16,72,test_exp,train_1D_sec_repeat,0,,,,,,,,,,,,,,,,,,,,,0,14,14,14,0,0,0,0,,,,,,,,,,,,,,,,,,,,,,,,,,,,,,,stimuli/alien_stimuli/16.png,121.36311729997396,121.36311729997396,121.36311729997396,121.36311729997396,121.36311729997396,0,0,return,0.24570920004043728,1,0,1,0,0.32,return,0.1460986000020057,,,,,,,,,,,A,train_y,red_square,top_left,2024-11-06_16h42.10.232,HideSeek_v1,2022.2.5,59.90244287787864,
15,2,9,2,9,0,0,16,72,test_exp,train_1D_sec_repeat,0,,,,,,,,,,,,,,,,,,,,,0,14,14,14,,,,,,,,,,,,,,,,,,,,,,,,,,,,,,,,,,,,,,,,,,,,,,,,,,,,121.54575529997237,122.62960500002373,stimuli/alien_stimuli/14.png,14,2,15,,,,,A,train_y,red_square,top_left,2024-11-06_16h42.10.232,HideSeek_v1,2022.2.5,59.90244287787864,
16,1,9,3,8,2,-1,35,72,test_exp,untrained,0,,,,,,,,,,,,,,,,,,,,,0,15,15,15,0,0,0,0,,,,,,,,,,,,,,,,,,,,,,,,,,,,,,,stimuli/alien_stimuli/35.png,122.62960500002373,122.62960500002373,122.62960500002373,122.62960500002373,122.62960500002373,0,0,return,0.2964111000765115,1,0,0,-0.08,0.32,return,0.18797049997374415,,,,,,,,,,,A,train_y,red_square,top_left,2024-11-06_16h42.10.232,HideSeek_v1,2022.2.5,59.90244287787864,
16,1,9,3,8,2,-1,35,72,test_exp,untrained,0,,,,,,,,,,,,,,,,,,,,,0,15,15,15,,,,,,,,,,,,,,,,,,,,,,,,,,,,,,,,,,,,,,,,,,,,,,,,,,,,122.86220610002056,123.94659359997604,stimuli/alien_stimuli/14.png,14,2,16,,,,,A,train_y,red_square,top_left,2024-11-06_16h42.10.232,HideSeek_v1,2022.2.5,59.90244287787864,
17,3,7,8,3,5,-4,62,72,test_exp,untrained,0,,,,,,,,,,,,,,,,,,,,,0,16,16,16,0,0,0,0,,,,,,,,,,,,,,,,,,,,,,,,,,,,,,,stimuli/alien_stimuli/62.png,123.94659359997604,123.94659359997604,123.94659359997604,123.94659359997604,123.94659359997604,0,0,return,0.296534699969925,1,0,0,0.08,0.16,return,0.18547160003799945,,,,,,,,,,,A,train_y,red_square,top_left,2024-11-06_16h42.10.232,HideSeek_v1,2022.2.5,59.90244287787864,
17,3,7,8,3,5,-4,62,72,test_exp,untrained,0,,,,,,,,,,,,,,,,,,,,,0,16,16,16,,,,,,,,,,,,,,,,,,,,,,,,,,,,,,,,,,,,,,,,,,,,,,,,,,,,124.17892019997817,125.2629587999545,stimuli/alien_stimuli/14.png,14,2,17,,,,,A,train_y,red_square,top_left,2024-11-06_16h42.10.232,HideSeek_v1,2022.2.5,59.90244287787864,
18,3,9,7,5,4,-4,52,72,test_exp,untrained,1,,,,,,,,,,,,,,,,,,,,,0,17,17,17,0,0,0,0,,,,,,,,,,,,,,,,,,,,,,,,,,,,,,,stimuli/alien_stimuli/52.png,125.2629587999545,125.2629587999545,125.2629587999545,125.2629587999545,125.2629587999545,0,0,return,0.32942240010015666,1,0,0,0.08,0.32,return,0.2270097000291571,,,,,,,,,,,A,train_y,red_square,top_left,2024-11-06_16h42.10.232,HideSeek_v1,2022.2.5,59.90244287787864,
1,2,9,2,7,0,-2,14,72,test_exp,train_1D_first_new,0,,,,,,,,,,,,,,,,,,,,,0,17,17,17,,,,,0,0,0,0,,,,,,,,,,,,,,,,,,,,,,,,,,,,,,,,,,,,,,,,,,,,125.52934849995654,126.54618689999916,,,,,126.54618689999916,126.54618689999916,space,0.8415860999375582,A,train_y,red_square,top_left,2024-11-06_16h42.10.232,HideSeek_v1,2022.2.5,59.90244287787864,
2,4,6,7,2,3,-4,42,72,test_exp,untrained,0,,,,,,,,,,,,,,,,,,,,,0,17,17,17,,,,,0,1,1,1,,,,,,,,,,,,,,,,,,,,,,,,,,,,,,,,,,,,,,,,,,,,,,,,,,127.4129716999596,127.4129716999596,space,1.7330170000204816,A,train_y,red_square,top_left,2024-11-06_16h42.10.232,HideSeek_v1,2022.2.5,59.90244287787864,
3,1,6,4,5,3,-1,45,72,test_exp,untrained,0,,,,,,,,,,,,,,,,,,,,,0,17,17,17,,,,,0,2,2,2,,,,,,,,,,,,,,,,,,,,,,,,,,,,,,,,,,,,,,,,,,,,,,,,,,129.16247009998187,129.16247009998187,space,0.20990739995613694,A,train_y,red_square,top_left,2024-11-06_16h42.10.232,HideSeek_v1,2022.2.5,59.90244287787864,
4,0,5,0,4,0,-1,15,72,test_exp,train_1D_first_repeat,0,,,,,,,,,,,,,,,,,,,,,0,17,17,17,,,,,0,3,3,3,,,,,,,,,,,,,,,,,,,,,,,,,,,,,,,,,,,,,,,,,,,,,,,,,,129.39581439993344,129.39581439993344,space,12.430027999915183,A,train_y,red_square,top_left,2024-11-06_16h42.10.232,HideSeek_v1,2022.2.5,59.90244287787864,
,,,,,,,,,,,,,,,,,,,,,,,,,,,,,,,,,,,,,,,,,,,,,,,,,,,,,,,,,,,,,,,,,,,,,,,,,,,,,,,,,,,,,,,,,,,,,141.84582379995845,141.84582379995845,,,,,,,,,,,
