trialInstr,x_fixStart,y_fixStart,x_corrSteps,y_corrSteps,x_nrSteps,y_nrSteps,alienID,trialLength,version,trialTrain,praclen,beforeExpLoop.thisRepN,beforeExpLoop.thisTrialN,beforeExpLoop.thisN,beforeExpLoop.thisIndex,mini_instr_trials.thisRepN,mini_instr_trials.thisTrialN,mini_instr_trials.thisN,mini_instr_trials.thisIndex,instrLoop.thisRepN,instrLoop.thisTrialN,instrLoop.thisN,instrLoop.thisIndex,repeat_prac.thisRepN,repeat_prac.thisTrialN,repeat_prac.thisN,repeat_prac.thisIndex,trainLoop.thisRepN,trainLoop.thisTrialN,trainLoop.thisN,trainLoop.thisIndex,moveLoop_train.thisRepN,moveLoop_train.thisTrialN,moveLoop_train.thisN,moveLoop_train.thisIndex,start_all_time,url,slideStim,audioStim,slides.started,sounds.started,nextButton.numClicks,nextButton.timesOn,nextButton.timesOff,prev_but.numClicks,prev_but.timesOn,prev_but.timesOff,alienStim,instrFile,alienStim_instr,gridImage_instr.started,startPos_3.started,key_instr.started,alienImage_3.started,sounds_1.started,key_instr.keys,key_instr.rt,all_x,all_y,FBy_corrSteps,FBy_fixStart,FBx_corrSteps,FBx_fixStart,FBy_pathSize_check,FBx_pathSize_check,gridImage_9.started,alienImageFB_3.started,startPosFB_3.started,keyFB_3.started,pathLine_ydir_2.started,pathLine_xdir_2.started,alienFace_3.started,sounds_2.started,RTFB_instr,keyFB_3.keys,keyFB_3.rt,draw_alienStim,draw_alienID,test_x,nrepcount,perfthres,percthres,earlierperf,earlystop,nextPrac,fileidx,praclen,saveACC_train,pracFile,nextPrac_train,addNrep,fileidx_endr,repExp,showearly,gridImage_4.started,startPos.started,movePos.started,key_resp.started,alienImage.started,buttonPress_train,RTchoice_train,cumAcctrain,aCorr,saveACC_choice,corrAns,x_movePos_end,y_movePos_end,key_resp.keys,key_resp.rt,wLy_dir,wLx_dir,x_movePos,y_movePos,text_2.started,text_2.stopped,aft_x_corrPos,aft_y_corrPos,y_pathSize_check,x_pathSize_check,y_pathdirY,x_pathdirY,x_pathdirX,x_corrPos,y_corrPos,gridImage_6.started,alienImageFB_2.started,startPosFB_2.started,movePosFB_2.started,keyFB_2.started,pathLine_xdir.started,pathLine_ydir.started,alienFace.started,sounds_4.started,RT_FBtrain,keyFB_2.keys,keyFB_2.rt,saveACC_pre,ACC,within_saveACC_train,earlystop_wloop,cumAcctrain_check,participant,train_first,direction of x,starting corner,date,expName,psychopyVersion,frameRate,
,,,,,,,,,,,,0,0,0,0,0,0,0,0,,,,,,,,,,,,,,,,,start_all_time,testround,conditions/schedules/train_x_first/x_increasing_steps/top_left/instructions/Slide1.png,conditions/schedules/train_x_first/x_increasing_steps/top_left/instructions/Audio1.wav,37.14032180001959,37.077811069897145,1,[1.5384119999944232],[1.5384234000230208],0,,,,,,,,,,,,,,,,,,,,,,,,,,,,,,,,,,,,,,,,,,,,,,,,,,,,,,,,,,,,,,,,,,,,,,,,,,,,,,,,,,,,,,,,,,,,,,,,,A,train_x,x_increasing_steps,top_left,2024-10-29_20h19.10.720,HideSeek_v1,2022.2.5,60.02350520193826,
,,,,,,,,,,,,0,0,0,0,1,0,1,0,,,,,,,,,,,,,,,,,,,conditions/schedules/train_x_first/x_increasing_steps/top_left/instructions/Slide2.png,conditions/schedules/train_x_first/x_increasing_steps/top_left/instructions/Audio2.wav,38.699652099981904,38.69002344997716,2,"[1.5384119999944232, 0.4608952000271529]","[0.12685260002035648, 0.4609044000389986]",0,,,,,,,,,,,,,,,,,,,,,,,,,,,,,,,,,,,,,,,,,,,,,,,,,,,,,,,,,,,,,,,,,,,,,,,,,,,,,,,,,,,,,,,,,,,,,,,,,A,train_x,x_increasing_steps,top_left,2024-10-29_20h19.10.720,HideSeek_v1,2022.2.5,60.02350520193826,
,,,,,,,,,,,,0,0,0,0,2,0,2,0,,,,,,,,,,,,,,,,,,,conditions/schedules/train_x_first/x_increasing_steps/top_left/instructions/Slide3.png,conditions/schedules/train_x_first/x_increasing_steps/top_left/instructions/Audio3.wav,39.232327300007455,39.22286314997473,3,"[1.5384119999944232, 0.4608952000271529, 0.26947880000807345]","[0.12685260002035648, 0.00026519998209550977, 0.2694879000191577]",0,,,,,,,,,,,,,,,,,,,,,,,,,,,,,,,,,,,,,,,,,,,,,,,,,,,,,,,,,,,,,,,,,,,,,,,,,,,,,,,,,,,,,,,,,,,,,,,,,A,train_x,x_increasing_steps,top_left,2024-10-29_20h19.10.720,HideSeek_v1,2022.2.5,60.02350520193826,
,,,,,,,,,,,,0,0,0,0,3,0,3,0,,,,,,,,,,,,,,,,,,,conditions/schedules/train_x_first/x_increasing_steps/top_left/instructions/Slide4.png,conditions/schedules/train_x_first/x_increasing_steps/top_left/instructions/Audio4.wav,39.57438349997392,39.55978214999777,4,"[1.5384119999944232, 0.4608952000271529, 0.26947880000807345, 0.22030520002590492]","[0.12685260002035648, 0.00026519998209550977, 0.019268799980636686, 0.2203150999848731]",0,,,,,,,,,,,,,,,,,,,,,,,,,,,,,,,,,,,,,,,,,,,,,,,,,,,,,,,,,,,,,,,,,,,,,,,,,,,,,,,,,,,,,,,,,,,,,,,,,A,train_x,x_increasing_steps,top_left,2024-10-29_20h19.10.720,HideSeek_v1,2022.2.5,60.02350520193826,
,,,,,,,,,,,,0,0,0,0,4,0,4,0,,,,,,,,,,,,,,,,,,,conditions/schedules/train_x_first/x_increasing_steps/top_left/instructions/Slide5.png,conditions/schedules/train_x_first/x_increasing_steps/top_left/instructions/Audio5.wav,39.852869700000156,39.84084884000476,5,"[1.5384119999944232, 0.4608952000271529, 0.26947880000807345, 0.22030520002590492, 0.22372000000905246]","[0.12685260002035648, 0.00026519998209550977, 0.019268799980636686, 0.03972329996759072, 0.22372940002242103]",0,,,,,,,,,,,,,,,,,,,,,,,,,,,,,,,,,,,,,,,,,,,,,,,,,,,,,,,,,,,,,,,,,,,,,,,,,,,,,,,,,,,,,,,,,,,,,,,,,A,train_x,x_increasing_steps,top_left,2024-10-29_20h19.10.720,HideSeek_v1,2022.2.5,60.02350520193826,
,,,,,,,,,,,,0,0,0,0,5,0,5,0,,,,,,,,,,,,,,,,,,,conditions/schedules/train_x_first/x_increasing_steps/top_left/instructions/Slide6.png,conditions/schedules/train_x_first/x_increasing_steps/top_left/instructions/Audio6.wav,40.135986000008415,40.12316613998264,6,"[1.5384119999944232, 0.4608952000271529, 0.26947880000807345, 0.22030520002590492, 0.22372000000905246, 0.22307069995440543]","[0.12685260002035648, 0.00026519998209550977, 0.019268799980636686, 0.03972329996759072, 0.018585999961942434, 0.22308099997462705]",0,,,,,,,,,,,,,,,,,,,,,,,,,,,,,,,,,,,,,,,,,,,,,,,,,,,,,,,,,,,,,,,,,,,,,,,,,,,,,,,,,,,,,,,,,,,,,,,,,A,train_x,x_increasing_steps,top_left,2024-10-29_20h19.10.720,HideSeek_v1,2022.2.5,60.02350520193826,
,,,,,,,,,,,,0,0,0,0,6,0,6,0,,,,,,,,,,,,,,,,,,,conditions/schedules/train_x_first/x_increasing_steps/top_left/instructions/Slide7.png,conditions/schedules/train_x_first/x_increasing_steps/top_left/instructions/Audio7.wav,40.42691819998436,40.422870949987555,7,"[1.5384119999944232, 0.4608952000271529, 0.26947880000807345, 0.22030520002590492, 0.22372000000905246, 0.22307069995440543, 0.23403079999843612]","[0.12685260002035648, 0.00026519998209550977, 0.019268799980636686, 0.03972329996759072, 0.018585999961942434, 0.0003089999663643539, 0.2340392000041902]",0,,,,,,,,,,,,,,,,,,,,,,,,,,,,,,,,,,,,,,,,,,,,,,,,,,,,,,,,,,,,,,,,,,,,,,,,,,,,,,,,,,,,,,,,,,,,,,,,,A,train_x,x_increasing_steps,top_left,2024-10-29_20h19.10.720,HideSeek_v1,2022.2.5,60.02350520193826,
,,,,,,,,,,,,0,0,0,0,7,0,7,0,,,,,,,,,,,,,,,,,,,conditions/schedules/train_x_first/x_increasing_steps/top_left/instructions/Slide8.png,conditions/schedules/train_x_first/x_increasing_steps/top_left/instructions/Audio8.wav,40.72142630000599,40.707097540015816,8,"[1.5384119999944232, 0.4608952000271529, 0.26947880000807345, 0.22030520002590492, 0.22372000000905246, 0.22307069995440543, 0.23403079999843612, 0.25588920002337545]","[0.12685260002035648, 0.00026519998209550977, 0.019268799980636686, 0.03972329996759072, 0.018585999961942434, 0.0003089999663643539, 0.00027540000155568123, 0.2559002000489272]",0,,,,,,,,,,,,,,,,,,,,,,,,,,,,,,,,,,,,,,,,,,,,,,,,,,,,,,,,,,,,,,,,,,,,,,,,,,,,,,,,,,,,,,,,,,,,,,,,,A,train_x,x_increasing_steps,top_left,2024-10-29_20h19.10.720,HideSeek_v1,2022.2.5,60.02350520193826,
,,,,,,,,,,,,0,0,0,0,8,0,8,0,,,,,,,,,,,,,,,,,,,conditions/schedules/train_x_first/x_increasing_steps/top_left/instructions/Slide9.png,conditions/schedules/train_x_first/x_increasing_steps/top_left/instructions/Audio9.wav,41.04210710001644,41.024315839970946,9,"[1.5384119999944232, 0.4608952000271529, 0.26947880000807345, 0.22030520002590492, 0.22372000000905246, 0.22307069995440543, 0.23403079999843612, 0.25588920002337545, 0.3014567000209354]","[0.12685260002035648, 0.00026519998209550977, 0.019268799980636686, 0.03972329996759072, 0.018585999961942434, 0.0003089999663643539, 0.00027540000155568123, 0.019350500020664185, 0.30146550002973527]",0,,,,,,,,,,,,,,,,,,,,,,,,,,,,,,,,,,,,,,,,,,,,,,,,,,,,,,,,,,,,,,,,,,,,,,,,,,,,,,,,,,,,,,,,,,,,,,,,,A,train_x,x_increasing_steps,top_left,2024-10-29_20h19.10.720,HideSeek_v1,2022.2.5,60.02350520193826,
,,,,,,,,,,,,0,0,0,0,9,0,9,0,,,,,,,,,,,,,,,,,,,conditions/schedules/train_x_first/x_increasing_steps/top_left/instructions/Slide10.png,conditions/schedules/train_x_first/x_increasing_steps/top_left/instructions/Audio10.wav,41.38781119999476,41.37372072996222,10,"[1.5384119999944232, 0.4608952000271529, 0.26947880000807345, 0.22030520002590492, 0.22372000000905246, 0.22307069995440543, 0.23403079999843612, 0.25588920002337545, 0.3014567000209354, 0.35697540000546724]","[0.12685260002035648, 0.00026519998209550977, 0.019268799980636686, 0.03972329996759072, 0.018585999961942434, 0.0003089999663643539, 0.00027540000155568123, 0.019350500020664185, 0.03806799999438226, 0.35698779998347163]",0,,,,,,,,,,,,,,,,,,,,,,,,,,,,,,,,,,,,,,,,,,,,,,,,,,,,,,,,,,,,,,,,,,,,,,,,,,,,,,,,,,,,,,,,,,,,,,,,,A,train_x,x_increasing_steps,top_left,2024-10-29_20h19.10.720,HideSeek_v1,2022.2.5,60.02350520193826,
,,,,,,,,,,,,0,0,0,0,10,0,10,0,,,,,,,,,,,,,,,,,,,conditions/schedules/train_x_first/x_increasing_steps/top_left/instructions/Slide11.png,conditions/schedules/train_x_first/x_increasing_steps/top_left/instructions/Audio11.wav,41.807520299975295,41.789966539992015,11,"[1.5384119999944232, 0.4608952000271529, 0.26947880000807345, 0.22030520002590492, 0.22372000000905246, 0.22307069995440543, 0.23403079999843612, 0.25588920002337545, 0.3014567000209354, 0.35697540000546724, 0.5050423999782652]","[0.12685260002035648, 0.00026519998209550977, 0.019268799980636686, 0.03972329996759072, 0.018585999961942434, 0.0003089999663643539, 0.00027540000155568123, 0.019350500020664185, 0.03806799999438226, 0.01997790002496913, 0.5050519999931566]",0,,,,,,,,,,,,,,,,,,,,,,,,,,,,,,,,,,,,,,,,,,,,,,,,,,,,,,,,,,,,,,,,,,,,,,,,,,,,,,,,,,,,,,,,,,,,,,,,,A,train_x,x_increasing_steps,top_left,2024-10-29_20h19.10.720,HideSeek_v1,2022.2.5,60.02350520193826,
,,,,,,,,,,,,0,0,0,0,11,0,11,0,,,,,,,,,,,,,,,,,,,conditions/schedules/train_x_first/x_increasing_steps/top_left/instructions/Slide12.png,conditions/schedules/train_x_first/x_increasing_steps/top_left/instructions/Audio12.wav,42.3747435999685,42.35785754000535,12,"[1.5384119999944232, 0.4608952000271529, 0.26947880000807345, 0.22030520002590492, 0.22372000000905246, 0.22307069995440543, 0.23403079999843612, 0.25588920002337545, 0.3014567000209354, 0.35697540000546724, 0.5050423999782652, 0.5021182000054978]","[0.12685260002035648, 0.00026519998209550977, 0.019268799980636686, 0.03972329996759072, 0.018585999961942434, 0.0003089999663643539, 0.00027540000155568123, 0.019350500020664185, 0.03806799999438226, 0.01997790002496913, 0.06865689996629953, 0.5021268999553286]",0,,,,,,,,,,,,,,,,,,,,,,,,,,,,,,,,,,,,,,,,,,,,,,,,,,,,,,,,,,,,,,,,,,,,,,,,,,,,,,,,,,,,,,,,,,,,,,,,,A,train_x,x_increasing_steps,top_left,2024-10-29_20h19.10.720,HideSeek_v1,2022.2.5,60.02350520193826,
1,3,2,8,2,5,0,66,2,instr_dim1_1,,,0,0,0,0,,,,,0,0,0,0,,,,,,,,,,,,,,,,,,,,,,,,,stimuli/alien_stimuli/66.png,conditions/schedules/train_x_first/x_increasing_steps/top_left/inputInstr_1.xlsx,stimuli/alien_stimuli/66.png,42.96923799999058,42.96923799999058,42.96923799999058,42.96923799999058,42.95667796001071,return,0.8690928000141867,"[-0.16, -0.08, 0, 0.08, 0.16, 0.24, 0.32, 0.4, 0.48, 0.56]","[-0.4, -0.32, -0.24, -0.16, -0.08, 0, 0.08, 0.16, 0.24, 0.32]",2,2,8,3,0.0,0.4,44.10657100001117,44.10657100001117,44.10657100001117,44.10657100001117,44.10657100001117,44.10657100001117,44.10657100001117,43.97230037997942,0.7342044999822974,return,0.4578507000114769,stimuli/alien_stimuli/66.png,66,3,1,,,,,,,,,,,,,,,,,,,,,,,,,,,,,,,,,,,,,,,,,,,,,,,,,,,,,,,,,,,,,,A,train_x,x_increasing_steps,top_left,2024-10-29_20h19.10.720,HideSeek_v1,2022.2.5,60.02350520193826,
,,,,,,,,,,,30,0,0,0,0,,,,,,,,,,,,,,,,,,,,,,,,,,,,,,,,,,,,,,,,,,,,,,,,,,,,,,,,,,,,,,,,,,17,0.7,0,0,99,1,30,0,conditions/schedules/train_x_first/x_increasing_steps/top_left/inputTrain_1.1.xlsx,99,1,1,1,0,,,,,,,,,,,,,,,,,,,,,,,,,,,,,,,,,,,,,,,,,,,,,,,,A,train_x,x_increasing_steps,top_left,2024-10-29_20h19.10.720,HideSeek_v1,2022.2.5,60.02350520193826,
,,,,,,,,,,,,1,0,1,0,0,0,0,0,,,,,,,,,,,,,,,,,,,conditions/schedules/train_x_first/x_increasing_steps/top_left/instructions/Slide13.png,conditions/schedules/train_x_first/x_increasing_steps/top_left/instructions/Audio13.wav,44.73312839999562,44.72215598998009,13,"[1.5384119999944232, 0.4608952000271529, 0.26947880000807345, 0.22030520002590492, 0.22372000000905246, 0.22307069995440543, 0.23403079999843612, 0.25588920002337545, 0.3014567000209354, 0.35697540000546724, 0.5050423999782652, 0.5021182000054978, 1.0106057999655604]","[0.12685260002035648, 0.00026519998209550977, 0.019268799980636686, 0.03972329996759072, 0.018585999961942434, 0.0003089999663643539, 0.00027540000155568123, 0.019350500020664185, 0.03806799999438226, 0.01997790002496913, 0.06865689996629953, 0.5021268999553286, 1.0106213999679312]",0,,,,,,,,,,,,,,,,,,,,,,,,,,,,,,,,,,,,,,,,,,,,,,,,,,,,,,,,,,,,,,,,,,,,,,,,,,,,,,,,,,,,,,,,,,,,,,,,,A,train_x,x_increasing_steps,top_left,2024-10-29_20h19.10.720,HideSeek_v1,2022.2.5,60.02350520193826,
,,,,,,,,,,,,1,0,1,0,1,0,1,0,,,,,,,,,,,,,,,,,,,conditions/schedules/train_x_first/x_increasing_steps/top_left/instructions/Slide14.png,conditions/schedules/train_x_first/x_increasing_steps/top_left/instructions/Audio14.wav,45.81180670001777,45.80639984997106,14,"[1.5384119999944232, 0.4608952000271529, 0.26947880000807345, 0.22030520002590492, 0.22372000000905246, 0.22307069995440543, 0.23403079999843612, 0.25588920002337545, 0.3014567000209354, 0.35697540000546724, 0.5050423999782652, 0.5021182000054978, 1.0106057999655604, 0.8996704000164755]","[0.12685260002035648, 0.00026519998209550977, 0.019268799980636686, 0.03972329996759072, 0.018585999961942434, 0.0003089999663643539, 0.00027540000155568123, 0.019350500020664185, 0.03806799999438226, 0.01997790002496913, 0.06865689996629953, 0.5021268999553286, 0.06445830001030117, 0.8996805000351742]",0,,,,,,,,,,,,,,,,,,,,,,,,,,,,,,,,,,,,,,,,,,,,,,,,,,,,,,,,,,,,,,,,,,,,,,,,,,,,,,,,,,,,,,,,,,,,,,,,,A,train_x,x_increasing_steps,top_left,2024-10-29_20h19.10.720,HideSeek_v1,2022.2.5,60.02350520193826,
2,4,0,4,0,0,0,16,2,instr_dim1_1,,,1,0,1,0,,,,,0,0,0,0,,,,,,,,,,,,,,,,,,,,,,,,,stimuli/alien_stimuli/16.png,conditions/schedules/train_x_first/x_increasing_steps/top_left/inputInstr_1.xlsx,stimuli/alien_stimuli/16.png,46.85727089998545,46.85727089998545,46.85727089998545,46.85727089998545,46.79147726001683,return,1.8321891999803483,"[-0.16, -0.08, 0, 0.08, 0.16, 0.24, 0.32, 0.4, 0.48, 0.56]","[-0.4, -0.32, -0.24, -0.16, -0.08, 0, 0.08, 0.16, 0.24, 0.32]",0,0,4,4,0.0,0.0,48.923716699995566,48.923716699995566,48.923716699995566,48.923716699995566,48.923716699995566,48.923716699995566,48.923716699995566,48.82261177999899,0.8502138000330888,return,0.5962023999891244,stimuli/alien_stimuli/16.png,16,4,2,,,,,,,,,,,,,,,,,,,,,,,,,,,,,,,,,,,,,,,,,,,,,,,,,,,,,,,,,,,,,,A,train_x,x_increasing_steps,top_left,2024-10-29_20h19.10.720,HideSeek_v1,2022.2.5,60.02350520193826,
,,,,,,,,,,,30,1,0,1,0,,,,,,,,,,,,,,,,,,,,,,,,,,,,,,,,,,,,,,,,,,,,,,,,,,,,,,,,,,,,,,,,,,17,0.7,0,0,99,1,30,0,conditions/schedules/train_x_first/x_increasing_steps/top_left/inputTrain_1.1.xlsx,99,1,1,1,0,,,,,,,,,,,,,,,,,,,,,,,,,,,,,,,,,,,,,,,,,,,,,,,,A,train_x,x_increasing_steps,top_left,2024-10-29_20h19.10.720,HideSeek_v1,2022.2.5,60.02350520193826,
,,,,,,,,,,,,2,0,2,0,0,0,0,0,,,,,,,,,,,,,,,,,,,conditions/schedules/train_x_first/x_increasing_steps/top_left/instructions/Slide15.png,conditions/schedules/train_x_first/x_increasing_steps/top_left/instructions/Audio15.wav,49.710210799996275,49.70533480000449,15,"[1.5384119999944232, 0.4608952000271529, 0.26947880000807345, 0.22030520002590492, 0.22372000000905246, 0.22307069995440543, 0.23403079999843612, 0.25588920002337545, 0.3014567000209354, 0.35697540000546724, 0.5050423999782652, 0.5021182000054978, 1.0106057999655604, 0.8996704000164755, 10.835601300001144]","[0.12685260002035648, 0.00026519998209550977, 0.019268799980636686, 0.03972329996759072, 0.018585999961942434, 0.0003089999663643539, 0.00027540000155568123, 0.019350500020664185, 0.03806799999438226, 0.01997790002496913, 0.06865689996629953, 0.5021268999553286, 0.06445830001030117, 0.8996805000351742, 10.835610300011467]",0,,,,,,,,,,,,,,,,,,,,,,,,,,,,,,,,,,,,,,,,,,,,,,,,,,,,,,,,,,,,,,,,,,,,,,,,,,,,,,,,,,,,,,,,,,,,,,,,,A,train_x,x_increasing_steps,top_left,2024-10-29_20h19.10.720,HideSeek_v1,2022.2.5,60.02350520193826,
,,,,,,,,,,,,2,0,2,0,1,0,1,0,,,,,,,,,,,,,,,,,,,conditions/schedules/train_x_first/x_increasing_steps/top_left/instructions/Slide16.png,conditions/schedules/train_x_first/x_increasing_steps/top_left/instructions/Audio16.wav,60.63403349998407,60.62396215997869,16,"[1.5384119999944232, 0.4608952000271529, 0.26947880000807345, 0.22030520002590492, 0.22372000000905246, 0.22307069995440543, 0.23403079999843612, 0.25588920002337545, 0.3014567000209354, 0.35697540000546724, 0.5050423999782652, 0.5021182000054978, 1.0106057999655604, 0.8996704000164755, 10.835601300001144, 0.5630334000452422]","[0.12685260002035648, 0.00026519998209550977, 0.019268799980636686, 0.03972329996759072, 0.018585999961942434, 0.0003089999663643539, 0.00027540000155568123, 0.019350500020664185, 0.03806799999438226, 0.01997790002496913, 0.06865689996629953, 0.5021268999553286, 0.06445830001030117, 0.8996805000351742, 0.019641100021544844, 0.5630429000011645]",0,,,,,,,,,,,,,,,,,,,,,,,,,,,,,,,,,,,,,,,,,,,,,,,,,,,,,,,,,,,,,,,,,,,,,,,,,,,,,,,,,,,,,,,,,,,,,,,,,A,train_x,x_increasing_steps,top_left,2024-10-29_20h19.10.720,HideSeek_v1,2022.2.5,60.02350520193826,
,2,1,4,1,2,0,36,,train_dim1_1,1,30,2,0,2,0,,,,,,,,,0,0,0,0,0,0,0,0,0,0,0,0,,,,,,,,,,,,,stimuli/alien_stimuli/36.png,,,,,,,,,,,,,,,,,,,,,,,,,,,,,,,,,,,,,,,30,,,,,,,,61.30278679996263,61.30278679996263,61.30278679996263,61.30278679996263,61.30278679996263,right,1.3709174999967217,0,0,0,99,0.08,-0.32,right,1.262410799972713,,,,,,,,,,,,,,,,,,,,,,,,,,,,,,,,,A,train_x,x_increasing_steps,top_left,2024-10-29_20h19.10.720,HideSeek_v1,2022.2.5,60.02350520193826,
,2,1,4,1,2,0,36,,train_dim1_1,1,30,2,0,2,0,,,,,,,,,0,0,0,0,0,0,0,0,1,0,1,0,,,,,,,,,,,,,,,,,,,,,,,,,,,,,,,,,,,,,,,,,,,,,,,,,,,,30,,,,,,,,62.67367569997441,62.67367569997441,62.67367569997441,62.67367569997441,62.67367569997441,right,2.7401272999704815,0,0,0,99,0.16,-0.32,right,2.6454239999875426,,,,,,,,,,,,,,,,,,,,,,,,,,,,,,,,,A,train_x,x_increasing_steps,top_left,2024-10-29_20h19.10.720,HideSeek_v1,2022.2.5,60.02350520193826,
,2,1,4,1,2,0,36,,train_dim1_1,1,30,2,0,2,0,,,,,,,,,0,0,0,0,0,0,0,0,2,0,2,0,,,,,,,,,,,,,,,,,,,,,,,,,,,,,,,,,,,,,,,,,,,,,,,,,,,,30,,,,,,,,65.41676429996733,65.41676429996733,65.41676429996733,65.41676429996733,65.41676429996733,return,0.6577709999983199,1,0,0,1,0.16,-0.32,return,0.5690115999896079,0,2,0.16,-0.32,,,,,,,,,,,,,,,,,,,,,,,,,,,,,A,train_x,x_increasing_steps,top_left,2024-10-29_20h19.10.720,HideSeek_v1,2022.2.5,60.02350520193826,
,2,4,2,4,0,0,16,,train_dim1_1,2,30,2,0,2,0,,,,,,,,,0,0,0,0,0,1,1,1,0,0,0,0,,,,,,,,,,,,,stimuli/alien_stimuli/16.png,,,,,,,,,,,,,,,,,,,,,,,,,,,,,stimuli/alien_stimuli/36.png,36,2,3,,,,,,,30,,,,,,,,70.14037989999633,70.14037989999633,70.14037989999633,70.14037989999633,70.14037989999633,return,1.2365671999868937,2,0,0,1,0,-0.08,return,1.0404942000168376,0,2,0,-0.08,68.47291429998586,70.14037989999633,0.16,-0.32,0.0,0.16,-0.32,0.16,0.08,0.16,-0.32,67.70887069997843,67.70887069997843,67.70887069997843,67.70887069997843,67.70887069997843,67.70887069997843,67.70887069997843,67.70887069997843,67.65604868998635,0.9521411000168882,return,0.7447079000412486,,,,,,A,train_x,x_increasing_steps,top_left,2024-10-29_20h19.10.720,HideSeek_v1,2022.2.5,60.02350520193826,
,4,4,5,4,1,0,26,,train_dim1_1,3,30,2,0,2,0,,,,,,,,,0,0,0,0,0,2,2,2,0,0,0,0,,,,,,,,,,,,,stimuli/alien_stimuli/26.png,,,,,,,,,,,,,,,,,,,,,,,,,,,,,stimuli/alien_stimuli/16.png,16,2,4,,,,,,,30,,,,,,,,75.44374319998315,75.44374319998315,75.44374319998315,75.44374319998315,75.44374319998315,right,0.8710665999678895,2,0,0,99,0.24,-0.08,right,0.7386322999955155,,,,,73.8400400999817,75.44374319998315,0,-0.08,0.0,0.0,-0.08,0,0.0,0,-0.08,72.94851790001849,72.94851790001849,72.94851790001849,72.94851790001849,72.94851790001849,72.94851790001849,72.94851790001849,72.94851790001849,72.82321456999634,1.1179098999709822,return,0.8600291999755427,,,,,,A,train_x,x_increasing_steps,top_left,2024-10-29_20h19.10.720,HideSeek_v1,2022.2.5,60.02350520193826,
,4,4,5,4,1,0,26,,train_dim1_1,3,30,2,0,2,0,,,,,,,,,0,0,0,0,0,2,2,2,1,0,1,0,,,,,,,,,,,,,,,,,,,,,,,,,,,,,,,,,,,,,,,,,,,,,,,,,,,,30,,,,,,,,76.28953740000725,76.28953740000725,76.28953740000725,76.28953740000725,76.28953740000725,return,0.3073795000091195,3,0,0,1,0.24,-0.08,return,0.2097467000130564,0,3,0.24,-0.08,,,,,,,,,,,,,,,,,,,,,,,,,,,,,A,train_x,x_increasing_steps,top_left,2024-10-29_20h19.10.720,HideSeek_v1,2022.2.5,60.02350520193826,
,2,3,5,3,3,0,46,,train_dim1_1,4,30,2,0,2,0,,,,,,,,,0,0,0,0,0,3,3,3,0,0,0,0,,,,,,,,,,,,,stimuli/alien_stimuli/46.png,,,,,,,,,,,,,,,,,,,,,,,,,,,,,stimuli/alien_stimuli/26.png,26,4,5,,,,,,,30,,,,,,,,80.22341569996206,80.22341569996206,80.22341569996206,80.22341569996206,80.22341569996206,right,0.6549312000279315,3,0,0,99,0.08,-0.16,right,0.5245127999805845,,,,,78.62246849999065,80.22341569996206,0.24,-0.08,0.0,0.08,-0.08,0.24,0.2,0.24,-0.08,78.23069070000201,78.23069070000201,78.23069070000201,78.23069070000201,78.23069070000201,78.23069070000201,78.23069070000201,78.23069070000201,78.15534367997897,0.5868099000072107,return,0.3758581999572925,,,,,,A,train_x,x_increasing_steps,top_left,2024-10-29_20h19.10.720,HideSeek_v1,2022.2.5,60.02350520193826,
,2,3,5,3,3,0,46,,train_dim1_1,4,30,2,0,2,0,,,,,,,,,0,0,0,0,0,3,3,3,1,0,1,0,,,,,,,,,,,,,,,,,,,,,,,,,,,,,,,,,,,,,,,,,,,,,,,,,,,,30,,,,,,,,80.85293499997351,80.85293499997351,80.85293499997351,80.85293499997351,80.85293499997351,right,0.45755170000484213,3,0,0,99,0.16,-0.16,right,0.35845369996968657,,,,,,,,,,,,,,,,,,,,,,,,,,,,,,,,,A,train_x,x_increasing_steps,top_left,2024-10-29_20h19.10.720,HideSeek_v1,2022.2.5,60.02350520193826,
,2,3,5,3,3,0,46,,train_dim1_1,4,30,2,0,2,0,,,,,,,,,0,0,0,0,0,3,3,3,2,0,2,0,,,,,,,,,,,,,,,,,,,,,,,,,,,,,,,,,,,,,,,,,,,,,,,,,,,,30,,,,,,,,81.32033740001498,81.32033740001498,81.32033740001498,81.32033740001498,81.32033740001498,right,1.2901582999620587,3,0,0,99,0.24,-0.16,right,1.2048475000192411,,,,,,,,,,,,,,,,,,,,,,,,,,,,,,,,,A,train_x,x_increasing_steps,top_left,2024-10-29_20h19.10.720,HideSeek_v1,2022.2.5,60.02350520193826,
,2,3,5,3,3,0,46,,train_dim1_1,4,30,2,0,2,0,,,,,,,,,0,0,0,0,0,3,3,3,3,0,3,0,,,,,,,,,,,,,,,,,,,,,,,,,,,,,,,,,,,,,,,,,,,,,,,,,,,,30,,,,,,,,82.62309459998505,82.62309459998505,82.62309459998505,82.62309459998505,82.62309459998505,return,0.3566393000073731,4,0,0,1,0.24,-0.16,return,0.261907699983567,0,6,0.24,-0.16,,,,,,,,,,,,,,,,,,,,,,,,,,,,,A,train_x,x_increasing_steps,top_left,2024-10-29_20h19.10.720,HideSeek_v1,2022.2.5,60.02350520193826,
,0,2,5,2,5,0,66,,train_dim1_1,5,30,2,0,2,0,,,,,,,,,0,0,0,0,0,4,4,4,0,0,0,0,,,,,,,,,,,,,stimuli/alien_stimuli/66.png,,,,,,,,,,,,,,,,,,,,,,,,,,,,,stimuli/alien_stimuli/46.png,46,2,6,,,,,,,30,,,,,,,,87.06429499998922,87.06429499998922,87.06429499998922,87.06429499998922,87.06429499998922,right,0.618630800046958,4,0,0,99,-0.08,-0.24,right,0.4902068999945186,,,,,85.45653769996716,84.60727729997598,0.24,-0.16,0.0,0.24,-0.16,0.24,0.12,0.24,-0.16,84.60727729997598,84.60727729997598,84.60727729997598,84.60727729997598,84.60727729997598,84.60727729997598,84.60727729997598,84.60727729997598,84.52247776998556,1.019114900031127,return,0.8015623000101186,,,,,,A,train_x,x_increasing_steps,top_left,2024-10-29_20h19.10.720,HideSeek_v1,2022.2.5,60.02350520193826,
,0,2,5,2,5,0,66,,train_dim1_1,5,30,2,0,2,0,,,,,,,,,0,0,0,0,0,4,4,4,1,0,1,0,,,,,,,,,,,,,,,,,,,,,,,,,,,,,,,,,,,,,,,,,,,,,,,,,,,,30,,,,,,,,87.65723459998844,87.65723459998844,87.65723459998844,87.65723459998844,87.65723459998844,right,0.25829989998601377,4,0,0,99,0.0,-0.24,right,0.16052380000473931,,,,,,,,,,,,,,,,,,,,,,,,,,,,,,,,,A,train_x,x_increasing_steps,top_left,2024-10-29_20h19.10.720,HideSeek_v1,2022.2.5,60.02350520193826,
,0,2,5,2,5,0,66,,train_dim1_1,5,30,2,0,2,0,,,,,,,,,0,0,0,0,0,4,4,4,2,0,2,0,,,,,,,,,,,,,,,,,,,,,,,,,,,,,,,,,,,,,,,,,,,,,,,,,,,,30,,,,,,,,87.92334809998283,87.92334809998283,87.92334809998283,87.92334809998283,87.92334809998283,right,0.29069449997041374,4,0,0,99,0.08,-0.24,right,0.19802279997384176,,,,,,,,,,,,,,,,,,,,,,,,,,,,,,,,,A,train_x,x_increasing_steps,top_left,2024-10-29_20h19.10.720,HideSeek_v1,2022.2.5,60.02350520193826,
,0,2,5,2,5,0,66,,train_dim1_1,5,30,2,0,2,0,,,,,,,,,0,0,0,0,0,4,4,4,3,0,3,0,,,,,,,,,,,,,,,,,,,,,,,,,,,,,,,,,,,,,,,,,,,,,,,,,,,,30,,,,,,,,88.22164060000796,88.22164060000796,88.22164060000796,88.22164060000796,88.22164060000796,right,0.2743154999916442,4,0,0,99,0.16,-0.24,right,0.18468720000237226,,,,,,,,,,,,,,,,,,,,,,,,,,,,,,,,,A,train_x,x_increasing_steps,top_left,2024-10-29_20h19.10.720,HideSeek_v1,2022.2.5,60.02350520193826,
,0,2,5,2,5,0,66,,train_dim1_1,5,30,2,0,2,0,,,,,,,,,0,0,0,0,0,4,4,4,4,0,4,0,,,,,,,,,,,,,,,,,,,,,,,,,,,,,,,,,,,,,,,,,,,,,,,,,,,,30,,,,,,,,88.50640929996734,88.50640929996734,88.50640929996734,88.50640929996734,88.50640929996734,right,0.32572779996553436,4,0,0,99,0.24,-0.24,right,0.22085570002673194,,,,,,,,,,,,,,,,,,,,,,,,,,,,,,,,,A,train_x,x_increasing_steps,top_left,2024-10-29_20h19.10.720,HideSeek_v1,2022.2.5,60.02350520193826,
,0,2,5,2,5,0,66,,train_dim1_1,5,30,2,0,2,0,,,,,,,,,0,0,0,0,0,4,4,4,5,0,5,0,,,,,,,,,,,,,,,,,,,,,,,,,,,,,,,,,,,,,,,,,,,,,,,,,,,,30,,,,,,,,88.84255269996356,88.84255269996356,88.84255269996356,88.84255269996356,88.84255269996356,return,1.790823300019838,5,0,0,1,0.24,-0.24,return,1.6851458000019193,0,11,0.24,-0.24,,,,,,,,,,,,,,,,,,,,,,,,,,,,,A,train_x,x_increasing_steps,top_left,2024-10-29_20h19.10.720,HideSeek_v1,2022.2.5,60.02350520193826,
,0,0,1,0,1,0,26,,train_dim1_1,6,30,2,0,2,0,,,,,,,,,0,0,0,0,0,5,5,5,0,0,0,0,,,,,,,,,,,,,stimuli/alien_stimuli/26.png,,,,,,,,,,,,,,,,,,,,,,,,,,,,,stimuli/alien_stimuli/66.png,66,0,7,,,,,,,30,,,,,,,,95.20767049997812,95.20767049997812,95.20767049997812,95.20767049997812,95.20767049997812,right,1.2886528000235558,5,0,0,99,-0.08,-0.4,right,1.1551066999672912,,,,,93.60637559997849,95.20767049997812,0.24,-0.24,0.0,0.4,-0.24,0.24,0.039999999999999994,0.24,-0.24,92.26493780000601,92.26493780000601,92.26493780000601,92.26493780000601,92.26493780000601,92.26493780000601,92.26493780000601,92.26493780000601,92.17179707000614,1.5354327999521047,return,1.299784200033173,,,,,,A,train_x,x_increasing_steps,top_left,2024-10-29_20h19.10.720,HideSeek_v1,2022.2.5,60.02350520193826,
,0,0,1,0,1,0,26,,train_dim1_1,6,30,2,0,2,0,,,,,,,,,0,0,0,0,0,5,5,5,1,0,1,0,,,,,,,,,,,,,,,,,,,,,,,,,,,,,,,,,,,,,,,,,,,,,,,,,,,,30,,,,,,,,96.47258289996535,96.47258289996535,96.47258289996535,96.47258289996535,96.47258289996535,return,0.33954129996709526,6,0,0,1,-0.08,-0.4,return,0.24057470000116155,0,12,-0.08,-0.4,,,,,,,,,,,,,,,,,,,,,,,,,,,,,A,train_x,x_increasing_steps,top_left,2024-10-29_20h19.10.720,HideSeek_v1,2022.2.5,60.02350520193826,
,3,0,8,0,5,0,66,,train_dim1_1,7,30,2,0,2,0,,,,,,,,,0,0,0,0,0,6,6,6,0,0,0,0,,,,,,,,,,,,,stimuli/alien_stimuli/66.png,,,,,,,,,,,,,,,,,,,,,,,,,,,,,stimuli/alien_stimuli/26.png,26,0,8,,,,,,,30,,,,,,,,100.46225759998197,100.46225759998197,100.46225759998197,100.46225759998197,100.46225759998197,right,0.6052342999610119,6,0,0,99,0.16,-0.4,right,0.47660529997665435,,,,,98.85646189999534,100.46225759998197,-0.08,-0.4,0.0,0.08,-0.4,-0.08,-0.12,-0.08,-0.4,98.49008449999383,98.49008449999383,98.49008449999383,98.49008449999383,98.49008449999383,98.49008449999383,98.49008449999383,98.49008449999383,98.35579597000614,0.6014341000118293,return,0.33841189998202026,,,,,,A,train_x,x_increasing_steps,top_left,2024-10-29_20h19.10.720,HideSeek_v1,2022.2.5,60.02350520193826,
,3,0,8,0,5,0,66,,train_dim1_1,7,30,2,0,2,0,,,,,,,,,0,0,0,0,0,6,6,6,1,0,1,0,,,,,,,,,,,,,,,,,,,,,,,,,,,,,,,,,,,,,,,,,,,,,,,,,,,,30,,,,,,,,101.04209369997261,101.04209369997261,101.04209369997261,101.04209369997261,101.04209369997261,right,0.20526940003037453,6,0,0,99,0.24,-0.4,right,0.10284980002325028,,,,,,,,,,,,,,,,,,,,,,,,,,,,,,,,,A,train_x,x_increasing_steps,top_left,2024-10-29_20h19.10.720,HideSeek_v1,2022.2.5,60.02350520193826,
,3,0,8,0,5,0,66,,train_dim1_1,7,30,2,0,2,0,,,,,,,,,0,0,0,0,0,6,6,6,2,0,2,0,,,,,,,,,,,,,,,,,,,,,,,,,,,,,,,,,,,,,,,,,,,,,,,,,,,,30,,,,,,,,101.25622500001919,101.25622500001919,101.25622500001919,101.25622500001919,101.25622500001919,right,0.17491750000044703,6,0,0,99,0.32,-0.4,right,0.08213870000327006,,,,,,,,,,,,,,,,,,,,,,,,,,,,,,,,,A,train_x,x_increasing_steps,top_left,2024-10-29_20h19.10.720,HideSeek_v1,2022.2.5,60.02350520193826,
,3,0,8,0,5,0,66,,train_dim1_1,7,30,2,0,2,0,,,,,,,,,0,0,0,0,0,6,6,6,3,0,3,0,,,,,,,,,,,,,,,,,,,,,,,,,,,,,,,,,,,,,,,,,,,,,,,,,,,,30,,,,,,,,101.44599699997343,101.44599699997343,101.44599699997343,101.44599699997343,101.44599699997343,right,0.15724209998734295,6,0,0,99,0.4,-0.4,right,0.05070660001365468,,,,,,,,,,,,,,,,,,,,,,,,,,,,,,,,,A,train_x,x_increasing_steps,top_left,2024-10-29_20h19.10.720,HideSeek_v1,2022.2.5,60.02350520193826,
,3,0,8,0,5,0,66,,train_dim1_1,7,30,2,0,2,0,,,,,,,,,0,0,0,0,0,6,6,6,4,0,4,0,,,,,,,,,,,,,,,,,,,,,,,,,,,,,,,,,,,,,,,,,,,,,,,,,,,,30,,,,,,,,101.60430379997706,101.60430379997706,101.60430379997706,101.60430379997706,101.60430379997706,right,0.17465190001530573,6,0,0,99,0.48000000000000004,-0.4,right,0.07558389997575432,,,,,,,,,,,,,,,,,,,,,,,,,,,,,,,,,A,train_x,x_increasing_steps,top_left,2024-10-29_20h19.10.720,HideSeek_v1,2022.2.5,60.02350520193826,
,3,0,8,0,5,0,66,,train_dim1_1,7,30,2,0,2,0,,,,,,,,,0,0,0,0,0,6,6,6,5,0,5,0,,,,,,,,,,,,,,,,,,,,,,,,,,,,,,,,,,,,,,,,,,,,,,,,,,,,30,,,,,,,,101.7881747999927,101.7881747999927,101.7881747999927,101.7881747999927,101.7881747999927,left,0.9245532000204548,6,0,0,99,0.4,-0.4,left,0.8280347000109032,,,,,,,,,,,,,,,,,,,,,,,,,,,,,,,,,A,train_x,x_increasing_steps,top_left,2024-10-29_20h19.10.720,HideSeek_v1,2022.2.5,60.02350520193826,
,3,0,8,0,5,0,66,,train_dim1_1,7,30,2,0,2,0,,,,,,,,,0,0,0,0,0,6,6,6,6,0,6,0,,,,,,,,,,,,,,,,,,,,,,,,,,,,,,,,,,,,,,,,,,,,,,,,,,,,30,,,,,,,,102.72506640001666,102.72506640001666,102.72506640001666,102.72506640001666,102.72506640001666,left,0.1747357999556698,6,0,0,99,0.32,-0.4,left,0.07429879996925592,,,,,,,,,,,,,,,,,,,,,,,,,,,,,,,,,A,train_x,x_increasing_steps,top_left,2024-10-29_20h19.10.720,HideSeek_v1,2022.2.5,60.02350520193826,
,3,0,8,0,5,0,66,,train_dim1_1,7,30,2,0,2,0,,,,,,,,,0,0,0,0,0,6,6,6,7,0,7,0,,,,,,,,,,,,,,,,,,,,,,,,,,,,,,,,,,,,,,,,,,,,,,,,,,,,30,,,,,,,,102.90396149997832,102.90396149997832,102.90396149997832,102.90396149997832,102.90396149997832,left,0.1416138000204228,6,0,0,99,0.24,-0.4,left,0.04500859999097884,,,,,,,,,,,,,,,,,,,,,,,,,,,,,,,,,A,train_x,x_increasing_steps,top_left,2024-10-29_20h19.10.720,HideSeek_v1,2022.2.5,60.02350520193826,
,3,0,8,0,5,0,66,,train_dim1_1,7,30,2,0,2,0,,,,,,,,,0,0,0,0,0,6,6,6,8,0,8,0,,,,,,,,,,,,,,,,,,,,,,,,,,,,,,,,,,,,,,,,,,,,,,,,,,,,30,,,,,,,,103.05697430000873,103.05697430000873,103.05697430000873,103.05697430000873,103.05697430000873,left,0.15750690002460033,6,0,0,99,0.15999999999999998,-0.4,left,0.0634247999987565,,,,,,,,,,,,,,,,,,,,,,,,,,,,,,,,,A,train_x,x_increasing_steps,top_left,2024-10-29_20h19.10.720,HideSeek_v1,2022.2.5,60.02350520193826,
,3,0,8,0,5,0,66,,train_dim1_1,7,30,2,0,2,0,,,,,,,,,0,0,0,0,0,6,6,6,9,0,9,0,,,,,,,,,,,,,,,,,,,,,,,,,,,,,,,,,,,,,,,,,,,,,,,,,,,,30,,,,,,,,103.22131379996426,103.22131379996426,103.22131379996426,103.22131379996426,103.22131379996426,left,0.14116270001977682,6,0,0,99,0.07999999999999997,-0.4,left,0.05120849999366328,,,,,,,,,,,,,,,,,,,,,,,,,,,,,,,,,A,train_x,x_increasing_steps,top_left,2024-10-29_20h19.10.720,HideSeek_v1,2022.2.5,60.02350520193826,
,3,0,8,0,5,0,66,,train_dim1_1,7,30,2,0,2,0,,,,,,,,,0,0,0,0,0,6,6,6,10,0,10,0,,,,,,,,,,,,,,,,,,,,,,,,,,,,,,,,,,,,,,,,,,,,,,,,,,,,30,,,,,,,,103.37040499999421,103.37040499999421,103.37040499999421,103.37040499999421,103.37040499999421,right,0.47528429998783395,6,0,0,99,0.15999999999999998,-0.4,right,0.3780417999951169,,,,,,,,,,,,,,,,,,,,,,,,,,,,,,,,,A,train_x,x_increasing_steps,top_left,2024-10-29_20h19.10.720,HideSeek_v1,2022.2.5,60.02350520193826,
,3,0,8,0,5,0,66,,train_dim1_1,7,30,2,0,2,0,,,,,,,,,0,0,0,0,0,6,6,6,11,0,11,0,,,,,,,,,,,,,,,,,,,,,,,,,,,,,,,,,,,,,,,,,,,,,,,,,,,,30,,,,,,,,103.85660960001405,103.85660960001405,103.85660960001405,103.85660960001405,103.85660960001405,right,0.4070229000062682,6,0,0,99,0.24,-0.4,right,0.31245829997351393,,,,,,,,,,,,,,,,,,,,,,,,,,,,,,,,,A,train_x,x_increasing_steps,top_left,2024-10-29_20h19.10.720,HideSeek_v1,2022.2.5,60.02350520193826,
,3,0,8,0,5,0,66,,train_dim1_1,7,30,2,0,2,0,,,,,,,,,0,0,0,0,0,6,6,6,12,0,12,0,,,,,,,,,,,,,,,,,,,,,,,,,,,,,,,,,,,,,,,,,,,,,,,,,,,,30,,,,,,,,104.27389299997594,104.27389299997594,104.27389299997594,104.27389299997594,104.27389299997594,right,0.30925890000071377,6,0,0,99,0.32,-0.4,right,0.20073719997890294,,,,,,,,,,,,,,,,,,,,,,,,,,,,,,,,,A,train_x,x_increasing_steps,top_left,2024-10-29_20h19.10.720,HideSeek_v1,2022.2.5,60.02350520193826,
,3,0,8,0,5,0,66,,train_dim1_1,7,30,2,0,2,0,,,,,,,,,0,0,0,0,0,6,6,6,13,0,13,0,,,,,,,,,,,,,,,,,,,,,,,,,,,,,,,,,,,,,,,,,,,,,,,,,,,,30,,,,,,,,104.59200070000952,104.59200070000952,104.59200070000952,104.59200070000952,104.59200070000952,right,0.23831059999065474,6,0,0,99,0.4,-0.4,right,0.14644869999028742,,,,,,,,,,,,,,,,,,,,,,,,,,,,,,,,,A,train_x,x_increasing_steps,top_left,2024-10-29_20h19.10.720,HideSeek_v1,2022.2.5,60.02350520193826,
,3,0,8,0,5,0,66,,train_dim1_1,7,30,2,0,2,0,,,,,,,,,0,0,0,0,0,6,6,6,14,0,14,0,,,,,,,,,,,,,,,,,,,,,,,,,,,,,,,,,,,,,,,,,,,,,,,,,,,,30,,,,,,,,104.84087369998451,104.84087369998451,104.84087369998451,104.84087369998451,104.84087369998451,right,0.2739820000133477,6,0,0,99,0.48000000000000004,-0.4,right,0.16739719995530322,,,,,,,,,,,,,,,,,,,,,,,,,,,,,,,,,A,train_x,x_increasing_steps,top_left,2024-10-29_20h19.10.720,HideSeek_v1,2022.2.5,60.02350520193826,
,3,0,8,0,5,0,66,,train_dim1_1,7,30,2,0,2,0,,,,,,,,,0,0,0,0,0,6,6,6,15,0,15,0,,,,,,,,,,,,,,,,,,,,,,,,,,,,,,,,,,,,,,,,,,,,,,,,,,,,30,,,,,,,,105.12010120000923,105.12010120000923,105.12010120000923,105.12010120000923,105.12010120000923,return,1.1243273000000045,7,0,0,1,0.48000000000000004,-0.4,return,1.0371717999805696,0,17,0.48000000000000004,-0.4,,,,,,,,,,,,,,,,,,,,,,,,,,,,,A,train_x,x_increasing_steps,top_left,2024-10-29_20h19.10.720,HideSeek_v1,2022.2.5,60.02350520193826,
,0,4,2,4,2,0,36,,train_dim1_1,8,30,2,0,2,0,,,,,,,,,0,0,0,0,0,7,7,7,0,0,0,0,,,,,,,,,,,,,stimuli/alien_stimuli/36.png,,,,,,,,,,,,,,,,,,,,,,,,,,,,,stimuli/alien_stimuli/66.png,66,3,9,,,,,,,30,,,,,,,,110.25948599999538,110.25948599999538,110.25948599999538,110.25948599999538,110.25948599999538,right,0.7898449000203982,7,0,0,99,-0.08,-0.08,right,0.6635495999944396,,,,,108.65575009997701,110.25948599999538,0.48,-0.4,0.0,0.4,-0.4,0.48,0.27999999999999997,0.48,-0.4,107.88996780000161,107.88996780000161,107.88996780000161,107.88996780000161,107.88996780000161,107.88996780000161,107.88996780000161,107.88996780000161,107.78859856997732,0.9695686000050046,return,0.7401401000097394,,,,,,A,train_x,x_increasing_steps,top_left,2024-10-29_20h19.10.720,HideSeek_v1,2022.2.5,60.02350520193826,
,0,4,2,4,2,0,36,,train_dim1_1,8,30,2,0,2,0,,,,,,,,,0,0,0,0,0,7,7,7,1,0,1,0,,,,,,,,,,,,,,,,,,,,,,,,,,,,,,,,,,,,,,,,,,,,,,,,,,,,30,,,,,,,,111.02737470000284,111.02737470000284,111.02737470000284,111.02737470000284,111.02737470000284,right,0.38284490001387894,7,0,0,99,0.0,-0.08,right,0.2829761000466533,,,,,,,,,,,,,,,,,,,,,,,,,,,,,,,,,A,train_x,x_increasing_steps,top_left,2024-10-29_20h19.10.720,HideSeek_v1,2022.2.5,60.02350520193826,
,0,4,2,4,2,0,36,,train_dim1_1,8,30,2,0,2,0,,,,,,,,,0,0,0,0,0,7,7,7,2,0,2,0,,,,,,,,,,,,,,,,,,,,,,,,,,,,,,,,,,,,,,,,,,,,,,,,,,,,30,,,,,,,,111.42112630000338,111.42112630000338,111.42112630000338,111.42112630000338,111.42112630000338,return,0.3249837000039406,8,0,0,1,0.0,-0.08,return,0.2241554000065662,0,19,0.0,-0.08,,,,,,,,,,,,,,,,,,,,,,,,,,,,,A,train_x,x_increasing_steps,top_left,2024-10-29_20h19.10.720,HideSeek_v1,2022.2.5,60.02350520193826,
,1,0,4,0,3,0,46,,train_dim1_1,9,30,2,0,2,0,,,,,,,,,0,0,0,0,0,8,8,8,0,0,0,0,,,,,,,,,,,,,stimuli/alien_stimuli/46.png,,,,,,,,,,,,,,,,,,,,,,,,,,,,,stimuli/alien_stimuli/36.png,36,0,10,,,,,,,30,,,,,,,,115.57664149999619,115.57664149999619,115.57664149999619,115.57664149999619,115.57664149999619,right,1.7754156999872066,8,0,0,99,0.0,-0.4,right,1.6408535999944434,,,,,113.9727374999784,113.4249126999639,0,-0.08,0.0,0.16,-0.08,0,-0.08,0,-0.08,113.4249126999639,113.4249126999639,113.4249126999639,113.4249126999639,113.4249126999639,113.4249126999639,113.4249126999639,113.4249126999639,113.28851236996124,0.7706927999970503,return,0.5126887999940664,,,,,,A,train_x,x_increasing_steps,top_left,2024-10-29_20h19.10.720,HideSeek_v1,2022.2.5,60.02350520193826,
,1,0,4,0,3,0,46,,train_dim1_1,9,30,2,0,2,0,,,,,,,,,0,0,0,0,0,8,8,8,1,0,1,0,,,,,,,,,,,,,,,,,,,,,,,,,,,,,,,,,,,,,,,,,,,,,,,,,,,,30,,,,,,,,117.32271739997668,117.32271739997668,117.32271739997668,117.32271739997668,117.32271739997668,right,0.13616160000674427,8,0,0,99,0.08,-0.4,right,0.03759839996928349,,,,,,,,,,,,,,,,,,,,,,,,,,,,,,,,,A,train_x,x_increasing_steps,top_left,2024-10-29_20h19.10.720,HideSeek_v1,2022.2.5,60.02350520193826,
,1,0,4,0,3,0,46,,train_dim1_1,9,30,2,0,2,0,,,,,,,,,0,0,0,0,0,8,8,8,2,0,2,0,,,,,,,,,,,,,,,,,,,,,,,,,,,,,,,,,,,,,,,,,,,,,,,,,,,,30,,,,,,,,117.47433419997105,117.47433419997105,117.47433419997105,117.47433419997105,117.47433419997105,right,0.12548620003508404,8,0,0,99,0.16,-0.4,right,0.01786389999324456,,,,,,,,,,,,,,,,,,,,,,,,,,,,,,,,,A,train_x,x_increasing_steps,top_left,2024-10-29_20h19.10.720,HideSeek_v1,2022.2.5,60.02350520193826,
,1,0,4,0,3,0,46,,train_dim1_1,9,30,2,0,2,0,,,,,,,,,0,0,0,0,0,8,8,8,3,0,3,0,,,,,,,,,,,,,,,,,,,,,,,,,,,,,,,,,,,,,,,,,,,,,,,,,,,,30,,,,,,,,117.59860399999889,117.59860399999889,117.59860399999889,117.59860399999889,117.59860399999889,return,0.591544899973087,9,0,0,1,0.16,-0.4,return,0.5009641000069678,0,22,0.16,-0.4,,,,,,,,,,,,,,,,,,,,,,,,,,,,,A,train_x,x_increasing_steps,top_left,2024-10-29_20h19.10.720,HideSeek_v1,2022.2.5,60.02350520193826,
,0,3,0,3,0,0,16,,train_dim1_1,10,30,2,0,2,0,,,,,,,,,0,0,0,0,0,9,9,9,0,0,0,0,,,,,,,,,,,,,stimuli/alien_stimuli/16.png,,,,,,,,,,,,,,,,,,,,,,,,,,,,,stimuli/alien_stimuli/46.png,46,1,11,,,,,,,30,,,,,,,,126.8228399999789,126.8228399999789,126.8228399999789,126.8228399999789,126.8228399999789,return,1.7209621000220068,10,0,0,1,-0.16,-0.16,return,1.5815015000407584,0,22,-0.16,-0.16,125.20596419996582,126.8228399999789,0.16,-0.4,0.0,0.24,-0.4,0.16,0.04,0.16,-0.4,119.80398799997056,119.80398799997056,119.80398799997056,119.80398799997056,119.80398799997056,119.80398799997056,119.80398799997056,119.80398799997056,119.73844857001095,5.5691088999737985,return,5.359922500036191,,,,,,A,train_x,x_increasing_steps,top_left,2024-10-29_20h19.10.720,HideSeek_v1,2022.2.5,60.02350520193826,
,2,2,4,2,2,0,36,,train_dim1_1,11,30,2,0,2,0,,,,,,,,,0,0,0,0,0,10,10,10,0,0,0,0,,,,,,,,,,,,,stimuli/alien_stimuli/36.png,,,,,,,,,,,,,,,,,,,,,,,,,,,,,stimuli/alien_stimuli/16.png,16,0,12,,,,,,,30,,,,,,,,132.52757979999296,132.52757979999296,132.52757979999296,132.52757979999296,132.52757979999296,right,1.1874927000026219,10,0,0,99,0.08,-0.24,right,1.0440976000390947,,,,,130.90698109997902,130.12532089999877,-0.16,-0.16,0.0,0.0,-0.16,-0.16,-0.16,-0.16,-0.16,130.12532089999877,130.12532089999877,130.12532089999877,130.12532089999877,130.12532089999877,130.12532089999877,130.12532089999877,130.12532089999877,130.03844696998715,0.9551607000175864,return,0.7344625999685377,,,,,,A,train_x,x_increasing_steps,top_left,2024-10-29_20h19.10.720,HideSeek_v1,2022.2.5,60.02350520193826,
,2,2,4,2,2,0,36,,train_dim1_1,11,30,2,0,2,0,,,,,,,,,0,0,0,0,0,10,10,10,1,0,1,0,,,,,,,,,,,,,,,,,,,,,,,,,,,,,,,,,,,,,,,,,,,,,,,,,,,,30,,,,,,,,133.66992999997456,133.66992999997456,133.66992999997456,133.66992999997456,133.66992999997456,right,0.4074611999676563,10,0,0,99,0.16,-0.24,right,0.3081298000179231,,,,,,,,,,,,,,,,,,,,,,,,,,,,,,,,,A,train_x,x_increasing_steps,top_left,2024-10-29_20h19.10.720,HideSeek_v1,2022.2.5,60.02350520193826,
,2,2,4,2,2,0,36,,train_dim1_1,11,30,2,0,2,0,,,,,,,,,0,0,0,0,0,10,10,10,2,0,2,0,,,,,,,,,,,,,,,,,,,,,,,,,,,,,,,,,,,,,,,,,,,,,,,,,,,,30,,,,,,,,134.09635209996486,134.09635209996486,134.09635209996486,134.09635209996486,134.09635209996486,return,0.5080654000048526,11,0,0,1,0.16,-0.24,return,0.4094084999524057,0,24,0.16,-0.24,,,,,,,,,,,,,,,,,,,,,,,,,,,,,A,train_x,x_increasing_steps,top_left,2024-10-29_20h19.10.720,HideSeek_v1,2022.2.5,60.02350520193826,
,0,0,1,0,1,0,26,,train_dim1_1,12,30,2,0,2,0,,,,,,,,,0,0,0,0,0,11,11,11,0,0,0,0,,,,,,,,,,,,,stimuli/alien_stimuli/26.png,,,,,,,,,,,,,,,,,,,,,,,,,,,,,stimuli/alien_stimuli/36.png,36,2,13,,,,,,,30,,,,,,,,138.80929989996366,138.80929989996366,138.80929989996366,138.80929989996366,138.80929989996366,right,2.2028182999929413,11,0,0,99,-0.08,-0.4,right,2.0684909999836236,,,,,137.20507289998932,138.80929989996366,0.16,-0.24,0.0,0.16,-0.24,0.16,0.08,0.16,-0.24,136.26881500001764,136.26881500001764,136.26881500001764,136.26881500001764,136.26881500001764,136.26881500001764,136.26881500001764,136.26881500001764,136.15509518000763,1.1685755000216886,return,0.9115786000038497,,,,,,A,train_x,x_increasing_steps,top_left,2024-10-29_20h19.10.720,HideSeek_v1,2022.2.5,60.02350520193826,
,0,0,1,0,1,0,26,,train_dim1_1,12,30,2,0,2,0,,,,,,,,,0,0,0,0,0,11,11,11,1,0,1,0,,,,,,,,,,,,,,,,,,,,,,,,,,,,,,,,,,,,,,,,,,,,,,,,,,,,30,,,,,,,,140.98986649996368,140.98986649996368,140.98986649996368,140.98986649996368,140.98986649996368,return,0.28940250002779067,12,0,0,1,-0.08,-0.4,return,0.19585750001715496,0,25,-0.08,-0.4,,,,,,,,,,,,,,,,,,,,,,,,,,,,,A,train_x,x_increasing_steps,top_left,2024-10-29_20h19.10.720,HideSeek_v1,2022.2.5,60.02350520193826,
,0,4,3,4,3,0,46,,train_dim1_1,13,30,2,0,2,0,,,,,,,,,0,0,0,0,0,12,12,12,0,0,0,0,,,,,,,,,,,,,stimuli/alien_stimuli/46.png,,,,,,,,,,,,,,,,,,,,,,,,,,,,,stimuli/alien_stimuli/26.png,26,0,14,,,,,,,30,,,,,,,,145.22722220001742,145.22722220001742,145.22722220001742,145.22722220001742,145.22722220001742,right,0.6718622000189498,12,0,0,99,-0.08,-0.08,right,0.5337932999827899,,,,,143.62255259999074,145.22722220001742,-0.08,-0.4,0.0,0.08,-0.4,-0.08,-0.12,-0.08,-0.4,142.90615419996902,142.90615419996902,142.90615419996902,142.90615419996902,142.90615419996902,142.90615419996902,142.90615419996902,142.90615419996902,142.82169956998553,0.9014016999863088,return,0.6787801000173204,,,,,,A,train_x,x_increasing_steps,top_left,2024-10-29_20h19.10.720,HideSeek_v1,2022.2.5,60.02350520193826,
,0,4,3,4,3,0,46,,train_dim1_1,13,30,2,0,2,0,,,,,,,,,0,0,0,0,0,12,12,12,1,0,1,0,,,,,,,,,,,,,,,,,,,,,,,,,,,,,,,,,,,,,,,,,,,,,,,,,,,,30,,,,,,,,145.86313800001517,145.86313800001517,145.86313800001517,145.86313800001517,145.86313800001517,right,1.240977599984035,12,0,0,99,0.0,-0.08,right,1.1588475999888033,,,,,,,,,,,,,,,,,,,,,,,,,,,,,,,,,A,train_x,x_increasing_steps,top_left,2024-10-29_20h19.10.720,HideSeek_v1,2022.2.5,60.02350520193826,
,0,4,3,4,3,0,46,,train_dim1_1,13,30,2,0,2,0,,,,,,,,,0,0,0,0,0,12,12,12,2,0,2,0,,,,,,,,,,,,,,,,,,,,,,,,,,,,,,,,,,,,,,,,,,,,,,,,,,,,30,,,,,,,,147.11616570001934,147.11616570001934,147.11616570001934,147.11616570001934,147.11616570001934,right,0.3251069000107236,12,0,0,99,0.08,-0.08,right,0.2244918000069447,,,,,,,,,,,,,,,,,,,,,,,,,,,,,,,,,A,train_x,x_increasing_steps,top_left,2024-10-29_20h19.10.720,HideSeek_v1,2022.2.5,60.02350520193826,
,0,4,3,4,3,0,46,,train_dim1_1,13,30,2,0,2,0,,,,,,,,,0,0,0,0,0,12,12,12,3,0,3,0,,,,,,,,,,,,,,,,,,,,,,,,,,,,,,,,,,,,,,,,,,,,,,,,,,,,30,,,,,,,,147.44853479997255,147.44853479997255,147.44853479997255,147.44853479997255,147.44853479997255,return,0.2411089999950491,13,0,0,1,0.08,-0.08,return,0.14729799999622628,0,28,0.08,-0.08,,,,,,,,,,,,,,,,,,,,,,,,,,,,,A,train_x,x_increasing_steps,top_left,2024-10-29_20h19.10.720,HideSeek_v1,2022.2.5,60.02350520193826,
,4,3,4,3,0,0,16,,train_dim1_1,14,30,2,0,2,0,,,,,,,,,0,0,0,0,0,13,13,13,0,0,0,0,,,,,,,,,,,,,stimuli/alien_stimuli/16.png,,,,,,,,,,,,,,,,,,,,,,,,,,,,,stimuli/alien_stimuli/46.png,46,0,15,,,,,,,30,,,,,,,,151.86105040000984,151.86105040000984,151.86105040000984,151.86105040000984,151.86105040000984,return,1.0875625000335276,14,0,0,1,0.16,-0.16,return,0.9574884999892674,0,28,0.16,-0.16,150.25571930001024,151.86105040000984,0.08,-0.08,0.0,0.24,-0.08,0.08,-0.04,0.08,-0.08,149.3705292000086,149.3705292000086,149.3705292000086,149.3705292000086,149.3705292000086,149.3705292000086,149.3705292000086,149.3705292000086,149.28789029998006,1.1194271000567824,return,0.8567374999984168,,,,,,A,train_x,x_increasing_steps,top_left,2024-10-29_20h19.10.720,HideSeek_v1,2022.2.5,60.02350520193826,
,4,2,9,2,5,0,66,,train_dim1_1,15,30,2,0,2,0,,,,,,,,,0,0,0,0,0,14,14,14,0,0,0,0,,,,,,,,,,,,,stimuli/alien_stimuli/66.png,,,,,,,,,,,,,,,,,,,,,,,,,,,,,stimuli/alien_stimuli/16.png,16,4,16,,,,,,,30,,,,,,,,156.74572189996252,156.74572189996252,156.74572189996252,156.74572189996252,156.74572189996252,right,0.7880730000324547,14,0,0,99,0.24,-0.24,right,0.6074608000344597,,,,,155.08893239998724,154.54861850000452,0.16,-0.16,0.0,0.0,-0.16,0.16,0.16,0.16,-0.16,154.54861850000452,154.54861850000452,154.54861850000452,154.54861850000452,154.54861850000452,154.54861850000452,154.54861850000452,154.54861850000452,154.45484317000376,0.7193279999773949,return,0.499006699945312,,,,,,A,train_x,x_increasing_steps,top_left,2024-10-29_20h19.10.720,HideSeek_v1,2022.2.5,60.02350520193826,
,4,2,9,2,5,0,66,,train_dim1_1,15,30,2,0,2,0,,,,,,,,,0,0,0,0,0,14,14,14,1,0,1,0,,,,,,,,,,,,,,,,,,,,,,,,,,,,,,,,,,,,,,,,,,,,,,,,,,,,30,,,,,,,,157.4600216000108,157.4600216000108,157.4600216000108,157.4600216000108,157.4600216000108,right,0.15764589997706935,14,0,0,99,0.32,-0.24,right,0.06120050000026822,,,,,,,,,,,,,,,,,,,,,,,,,,,,,,,,,A,train_x,x_increasing_steps,top_left,2024-10-29_20h19.10.720,HideSeek_v1,2022.2.5,60.02350520193826,
,4,2,9,2,5,0,66,,train_dim1_1,15,30,2,0,2,0,,,,,,,,,0,0,0,0,0,14,14,14,2,0,2,0,,,,,,,,,,,,,,,,,,,,,,,,,,,,,,,,,,,,,,,,,,,,,,,,,,,,30,,,,,,,,157.62231349997455,157.62231349997455,157.62231349997455,157.62231349997455,157.62231349997455,right,0.17473280004924163,14,0,0,99,0.4,-0.24,right,0.08058279997203499,,,,,,,,,,,,,,,,,,,,,,,,,,,,,,,,,A,train_x,x_increasing_steps,top_left,2024-10-29_20h19.10.720,HideSeek_v1,2022.2.5,60.02350520193826,
,4,2,9,2,5,0,66,,train_dim1_1,15,30,2,0,2,0,,,,,,,,,0,0,0,0,0,14,14,14,3,0,3,0,,,,,,,,,,,,,,,,,,,,,,,,,,,,,,,,,,,,,,,,,,,,,,,,,,,,30,,,,,,,,157.80556159996195,157.80556159996195,157.80556159996195,157.80556159996195,157.80556159996195,right,0.17412320000585169,14,0,0,99,0.48000000000000004,-0.24,right,0.06992249999893829,,,,,,,,,,,,,,,,,,,,,,,,,,,,,,,,,A,train_x,x_increasing_steps,top_left,2024-10-29_20h19.10.720,HideSeek_v1,2022.2.5,60.02350520193826,
,4,2,9,2,5,0,66,,train_dim1_1,15,30,2,0,2,0,,,,,,,,,0,0,0,0,0,14,14,14,4,0,4,0,,,,,,,,,,,,,,,,,,,,,,,,,,,,,,,,,,,,,,,,,,,,,,,,,,,,30,,,,,,,,157.98728870000923,157.98728870000923,157.98728870000923,157.98728870000923,157.98728870000923,right,0.1410417000297457,14,0,0,99,0.56,-0.24,right,0.04408520000288263,,,,,,,,,,,,,,,,,,,,,,,,,,,,,,,,,A,train_x,x_increasing_steps,top_left,2024-10-29_20h19.10.720,HideSeek_v1,2022.2.5,60.02350520193826,
,4,2,9,2,5,0,66,,train_dim1_1,15,30,2,0,2,0,,,,,,,,,0,0,0,0,0,14,14,14,5,0,5,0,,,,,,,,,,,,,,,,,,,,,,,,,,,,,,,,,,,,,,,,,,,,,,,,,,,,30,,,,,,,,158.13450099999318,158.13450099999318,158.13450099999318,158.13450099999318,158.13450099999318,return,0.3581032999791205,15,0,0,1,0.56,-0.24,return,0.2566759999608621,0,33,0.56,-0.24,,,,,,,,,,,,,,,,,,,,,,,,,,,,,A,train_x,x_increasing_steps,top_left,2024-10-29_20h19.10.720,HideSeek_v1,2022.2.5,60.02350520193826,
,3,3,6,3,3,0,46,,train_dim1_1,16,30,2,0,2,0,,,,,,,,,0,0,0,0,0,15,15,15,0,0,0,0,,,,,,,,,,,,,stimuli/alien_stimuli/46.png,,,,,,,,,,,,,,,,,,,,,,,,,,,,,stimuli/alien_stimuli/66.png,66,4,17,,,,,,,30,,,,,,,,163.78199260000838,163.78199260000838,163.78199260000838,163.78199260000838,163.78199260000838,right,0.7719213000382297,15,0,0,99,0.16,-0.16,right,0.5648801000206731,,,,,162.1051732999622,160.21298899996327,0.56,-0.24,0.0,0.4,-0.24,0.56,0.36000000000000004,0.56,-0.24,160.21298899996327,160.21298899996327,160.21298899996327,160.21298899996327,160.21298899996327,160.21298899996327,160.21298899996327,160.21298899996327,160.0709490899637,2.1541795000084676,return,1.8591343999723904,,,,,,A,train_x,x_increasing_steps,top_left,2024-10-29_20h19.10.720,HideSeek_v1,2022.2.5,60.02350520193826,
,3,3,6,3,3,0,46,,train_dim1_1,16,30,2,0,2,0,,,,,,,,,0,0,0,0,0,15,15,15,1,0,1,0,,,,,,,,,,,,,,,,,,,,,,,,,,,,,,,,,,,,,,,,,,,,,,,,,,,,30,,,,,,,,164.44803590001538,164.44803590001538,164.44803590001538,164.44803590001538,164.44803590001538,right,0.5912943999865092,15,0,0,99,0.24,-0.16,right,0.5002673999988474,,,,,,,,,,,,,,,,,,,,,,,,,,,,,,,,,A,train_x,x_increasing_steps,top_left,2024-10-29_20h19.10.720,HideSeek_v1,2022.2.5,60.02350520193826,
,3,3,6,3,3,0,46,,train_dim1_1,16,30,2,0,2,0,,,,,,,,,0,0,0,0,0,15,15,15,2,0,2,0,,,,,,,,,,,,,,,,,,,,,,,,,,,,,,,,,,,,,,,,,,,,,,,,,,,,30,,,,,,,,165.04691679996904,165.04691679996904,165.04691679996904,165.04691679996904,165.04691679996904,right,0.24384109996026382,15,0,0,99,0.32,-0.16,right,0.1616069000447169,,,,,,,,,,,,,,,,,,,,,,,,,,,,,,,,,A,train_x,x_increasing_steps,top_left,2024-10-29_20h19.10.720,HideSeek_v1,2022.2.5,60.02350520193826,
,3,3,6,3,3,0,46,,train_dim1_1,16,30,2,0,2,0,,,,,,,,,0,0,0,0,0,15,15,15,3,0,3,0,,,,,,,,,,,,,,,,,,,,,,,,,,,,,,,,,,,,,,,,,,,,,,,,,,,,30,,,,,,,,165.30138079996686,165.30138079996686,165.30138079996686,165.30138079996686,165.30138079996686,return,0.2379017000203021,16,0,0,1,0.32,-0.16,return,0.15336039994144812,0,36,0.32,-0.16,,,,,,,,,,,,,,,,,,,,,,,,,,,,,A,train_x,x_increasing_steps,top_left,2024-10-29_20h19.10.720,HideSeek_v1,2022.2.5,60.02350520193826,
,2,4,3,4,1,0,26,,train_dim1_1,17,30,2,0,2,0,,,,,,,,,0,0,0,0,0,16,16,16,0,0,0,0,,,,,,,,,,,,,stimuli/alien_stimuli/26.png,,,,,,,,,,,,,,,,,,,,,,,,,,,,,stimuli/alien_stimuli/46.png,46,3,18,,,,,,,30,,,,,,,,169.37639689998468,169.37639689998468,169.37639689998468,169.37639689998468,169.37639689998468,right,0.5878155999816954,16,0,0,99,0.08,-0.08,right,0.46081000001868233,,,,,167.7720043999725,169.37639689998468,0.32,-0.16,0.0,0.24,-0.16,0.32,0.2,0.32,-0.16,167.1940520000062,167.1940520000062,167.1940520000062,167.1940520000062,167.1940520000062,167.1940520000062,167.1940520000062,167.1940520000062,167.1215541899612,0.7854817999759689,return,0.5535791000002064,,,,,,A,train_x,x_increasing_steps,top_left,2024-10-29_20h19.10.720,HideSeek_v1,2022.2.5,60.02350520193826,
,2,4,3,4,1,0,26,,train_dim1_1,17,30,2,0,2,0,,,,,,,,,0,0,0,0,0,16,16,16,1,0,1,0,,,,,,,,,,,,,,,,,,,,,,,,,,,,,,,,,,,,,,,,,,,,,,,,,,,,30,,,,,,,,169.94149980001384,169.94149980001384,169.94149980001384,169.94149980001384,169.94149980001384,return,0.3736229999922216,17,0,0,1,0.08,-0.08,return,0.2696589000406675,0,37,0.08,-0.08,,,,,,,,,,,,,,,,,,,,,,,,,,,,,A,train_x,x_increasing_steps,top_left,2024-10-29_20h19.10.720,HideSeek_v1,2022.2.5,60.02350520193826,
,2,1,7,1,5,0,66,,train_dim1_1,18,30,2,0,2,0,,,,,,,,,0,0,0,0,0,17,17,17,0,0,0,0,,,,,,,,,,,,,stimuli/alien_stimuli/66.png,,,,,,,,,,,,,,,,,,,,,,,,,,,,,stimuli/alien_stimuli/26.png,26,2,19,,,,,,,30,,,,,,,,173.95727569999872,173.95727569999872,173.95727569999872,173.95727569999872,173.95727569999872,right,0.55455569998594,17,0,0,99,0.08,-0.32,right,0.4193741999915801,,,,,172.35527719999664,173.95727569999872,0.08,-0.08,0.0,0.08,-0.08,0.08,0.04,0.08,-0.08,171.94613090000348,171.94613090000348,171.94613090000348,171.94613090000348,171.94613090000348,171.94613090000348,171.94613090000348,171.94613090000348,171.87140638000565,0.601457099954132,return,0.38880860002245754,,,,,,A,train_x,x_increasing_steps,top_left,2024-10-29_20h19.10.720,HideSeek_v1,2022.2.5,60.02350520193826,
,2,1,7,1,5,0,66,,train_dim1_1,18,30,2,0,2,0,,,,,,,,,0,0,0,0,0,17,17,17,1,0,1,0,,,,,,,,,,,,,,,,,,,,,,,,,,,,,,,,,,,,,,,,,,,,,,,,,,,,30,,,,,,,,174.49401510000462,174.49401510000462,174.49401510000462,174.49401510000462,174.49401510000462,right,0.17376039997907355,17,0,0,99,0.16,-0.32,right,0.07237650000024587,,,,,,,,,,,,,,,,,,,,,,,,,,,,,,,,,A,train_x,x_increasing_steps,top_left,2024-10-29_20h19.10.720,HideSeek_v1,2022.2.5,60.02350520193826,
,2,1,7,1,5,0,66,,train_dim1_1,18,30,2,0,2,0,,,,,,,,,0,0,0,0,0,17,17,17,2,0,2,0,,,,,,,,,,,,,,,,,,,,,,,,,,,,,,,,,,,,,,,,,,,,,,,,,,,,30,,,,,,,,174.67343620001338,174.67343620001338,174.67343620001338,174.67343620001338,174.67343620001338,right,0.19091170001775026,17,0,0,99,0.24,-0.32,right,0.08556749997660518,,,,,,,,,,,,,,,,,,,,,,,,,,,,,,,,,A,train_x,x_increasing_steps,top_left,2024-10-29_20h19.10.720,HideSeek_v1,2022.2.5,60.02350520193826,
,2,1,7,1,5,0,66,,train_dim1_1,18,30,2,0,2,0,,,,,,,,,0,0,0,0,0,17,17,17,3,0,3,0,,,,,,,,,,,,,,,,,,,,,,,,,,,,,,,,,,,,,,,,,,,,,,,,,,,,30,,,,,,,,174.86953289998928,174.86953289998928,174.86953289998928,174.86953289998928,174.86953289998928,right,0.19081579998601228,17,0,0,99,0.32,-0.32,right,0.09173609997378662,,,,,,,,,,,,,,,,,,,,,,,,,,,,,,,,,A,train_x,x_increasing_steps,top_left,2024-10-29_20h19.10.720,HideSeek_v1,2022.2.5,60.02350520193826,
,2,1,7,1,5,0,66,,train_dim1_1,18,30,2,0,2,0,,,,,,,,,0,0,0,0,0,17,17,17,4,0,4,0,,,,,,,,,,,,,,,,,,,,,,,,,,,,,,,,,,,,,,,,,,,,,,,,,,,,30,,,,,,,,175.0697720000171,175.0697720000171,175.0697720000171,175.0697720000171,175.0697720000171,right,0.17480079998495057,17,0,0,99,0.4,-0.32,right,0.08385520003503188,,,,,,,,,,,,,,,,,,,,,,,,,,,,,,,,,A,train_x,x_increasing_steps,top_left,2024-10-29_20h19.10.720,HideSeek_v1,2022.2.5,60.02350520193826,
,2,1,7,1,5,0,66,,train_dim1_1,18,30,2,0,2,0,,,,,,,,,0,0,0,0,0,17,17,17,5,0,5,0,,,,,,,,,,,,,,,,,,,,,,,,,,,,,,,,,,,,,,,,,,,,,,,,,,,,30,,,,,,,,175.25325459998567,175.25325459998567,175.25325459998567,175.25325459998567,175.25325459998567,return,0.29143389995442703,18,0,0,1,0.4,-0.32,return,0.1899268999695778,0,42,0.4,-0.32,,,,,,,,,,,,,,,,,,,,,,,,,,,,,A,train_x,x_increasing_steps,top_left,2024-10-29_20h19.10.720,HideSeek_v1,2022.2.5,60.02350520193826,
,0,3,2,3,2,0,36,,train_dim1_1,19,30,2,0,2,0,,,,,,,,,0,0,0,0,0,18,18,18,0,0,0,0,,,,,,,,,,,,,stimuli/alien_stimuli/36.png,,,,,,,,,,,,,,,,,,,,,,,,,,,,,stimuli/alien_stimuli/66.png,66,2,20,,,,,,,30,,,,,,,,179.30607519997284,179.30607519997284,179.30607519997284,179.30607519997284,179.30607519997284,right,0.8036219999776222,18,0,0,99,-0.08,-0.16,right,0.6775540999951772,,,,,177.70525920001091,177.17624860000797,0.4,-0.32,0.0,0.4,-0.32,0.4,0.2,0.4,-0.32,177.17624860000797,177.17624860000797,177.17624860000797,177.17624860000797,177.17624860000797,177.17624860000797,177.17624860000797,177.17624860000797,177.08782986999142,0.7028229999705218,return,0.4912950999569148,,,,,,A,train_x,x_increasing_steps,top_left,2024-10-29_20h19.10.720,HideSeek_v1,2022.2.5,60.02350520193826,
,0,3,2,3,2,0,36,,train_dim1_1,19,30,2,0,2,0,,,,,,,,,0,0,0,0,0,18,18,18,1,0,1,0,,,,,,,,,,,,,,,,,,,,,,,,,,,,,,,,,,,,,,,,,,,,,,,,,,,,30,,,,,,,,180.08302690001437,180.08302690001437,180.08302690001437,180.08302690001437,180.08302690001437,right,0.3240567999891937,18,0,0,99,0.0,-0.16,right,0.23356950003653765,,,,,,,,,,,,,,,,,,,,,,,,,,,,,,,,,A,train_x,x_increasing_steps,top_left,2024-10-29_20h19.10.720,HideSeek_v1,2022.2.5,60.02350520193826,
,0,3,2,3,2,0,36,,train_dim1_1,19,30,2,0,2,0,,,,,,,,,0,0,0,0,0,18,18,18,2,0,2,0,,,,,,,,,,,,,,,,,,,,,,,,,,,,,,,,,,,,,,,,,,,,,,,,,,,,30,,,,,,,,180.41059899999527,180.41059899999527,180.41059899999527,180.41059899999527,180.41059899999527,return,0.8745876000029966,19,0,0,1,0.0,-0.16,return,0.7915266000200063,0,44,0.0,-0.16,,,,,,,,,,,,,,,,,,,,,,,,,,,,,A,train_x,x_increasing_steps,top_left,2024-10-29_20h19.10.720,HideSeek_v1,2022.2.5,60.02350520193826,
,0,1,0,1,0,0,16,,train_dim1_1,20,30,2,0,2,0,,,,,,,,,0,0,0,0,0,19,19,19,0,0,0,0,,,,,,,,,,,,,stimuli/alien_stimuli/16.png,,,,,,,,,,,,,,,,,,,,,,,,,,,,,stimuli/alien_stimuli/36.png,36,0,21,,,,,,,30,,,,,,,,196.48383019998437,196.48383019998437,196.48383019998437,196.48383019998437,196.48383019998437,return,1.0535063000279479,20,0,0,1,-0.16,-0.32,return,0.9391470000264235,0,44,-0.16,-0.32,194.88785830000415,182.95987159997458,0,-0.16,0.0,0.16,-0.16,0,-0.08,0,-0.16,182.95987159997458,182.95987159997458,182.95987159997458,182.95987159997458,182.95987159997458,182.95987159997458,182.95987159997458,182.95987159997458,182.88746980001451,12.1361334999674,return,11.896248500037473,,,,,,A,train_x,x_increasing_steps,top_left,2024-10-29_20h19.10.720,HideSeek_v1,2022.2.5,60.02350520193826,
,4,2,6,2,2,0,36,,train_dim1_1,21,30,2,0,2,0,,,,,,,,,0,0,0,0,0,20,20,20,0,0,0,0,,,,,,,,,,,,,stimuli/alien_stimuli/36.png,,,,,,,,,,,,,,,,,,,,,,,,,,,,,stimuli/alien_stimuli/16.png,16,0,22,,,,,,,30,,,,,,,,203.94086069997866,203.94086069997866,203.94086069997866,203.94086069997866,203.94086069997866,right,0.9036319000297226,20,0,0,99,0.24,-0.24,right,0.7744614999974146,,,,,202.33804409997538,203.94086069997866,-0.16,-0.32,0.0,0.0,-0.32,-0.16,-0.16,-0.16,-0.32,199.15366909996374,199.15366909996374,199.15366909996374,199.15366909996374,199.15366909996374,199.15366909996374,199.15366909996374,199.15366909996374,199.08738628997818,3.387056899955496,return,3.164738900028169,,,,,,A,train_x,x_increasing_steps,top_left,2024-10-29_20h19.10.720,HideSeek_v1,2022.2.5,60.02350520193826,
,4,2,6,2,2,0,36,,train_dim1_1,21,30,2,0,2,0,,,,,,,,,0,0,0,0,0,20,20,20,1,0,1,0,,,,,,,,,,,,,,,,,,,,,,,,,,,,,,,,,,,,,,,,,,,,,,,,,,,,30,,,,,,,,204.8160332000116,204.8160332000116,204.8160332000116,204.8160332000116,204.8160332000116,right,0.49103169998852536,20,0,0,99,0.32,-0.24,right,0.3997096000239253,,,,,,,,,,,,,,,,,,,,,,,,,,,,,,,,,A,train_x,x_increasing_steps,top_left,2024-10-29_20h19.10.720,HideSeek_v1,2022.2.5,60.02350520193826,
,4,2,6,2,2,0,36,,train_dim1_1,21,30,2,0,2,0,,,,,,,,,0,0,0,0,0,20,20,20,2,0,2,0,,,,,,,,,,,,,,,,,,,,,,,,,,,,,,,,,,,,,,,,,,,,,,,,,,,,30,,,,,,,,205.32220260001486,205.32220260001486,205.32220260001486,205.32220260001486,205.32220260001486,return,0.490691400016658,21,0,0,1,0.32,-0.24,return,0.3961029999773018,0,46,0.32,-0.24,,,,,,,,,,,,,,,,,,,,,,,,,,,,,A,train_x,x_increasing_steps,top_left,2024-10-29_20h19.10.720,HideSeek_v1,2022.2.5,60.02350520193826,
,1,0,2,0,1,0,26,,train_dim1_1,22,30,2,0,2,0,,,,,,,,,0,0,0,0,0,21,21,21,0,0,0,0,,,,,,,,,,,,,stimuli/alien_stimuli/26.png,,,,,,,,,,,,,,,,,,,,,,,,,,,,,stimuli/alien_stimuli/36.png,36,4,23,,,,,,,30,,,,,,,,209.7051226000185,209.7051226000185,209.7051226000185,209.7051226000185,209.7051226000185,right,0.8373601000057533,21,0,0,99,0.0,-0.4,right,0.7070221000467427,,,,,208.10465009999461,209.7051226000185,0.32,-0.24,0.0,0.16,-0.24,0.32,0.24,0.32,-0.24,207.4395732000121,207.4395732000121,207.4395732000121,207.4395732000121,207.4395732000121,207.4395732000121,207.4395732000121,207.4395732000121,207.35439007001116,0.8523730000015348,return,0.6296742000267841,,,,,,A,train_x,x_increasing_steps,top_left,2024-10-29_20h19.10.720,HideSeek_v1,2022.2.5,60.02350520193826,
,1,0,2,0,1,0,26,,train_dim1_1,22,30,2,0,2,0,,,,,,,,,0,0,0,0,0,21,21,21,1,0,1,0,,,,,,,,,,,,,,,,,,,,,,,,,,,,,,,,,,,,,,,,,,,,,,,,,,,,30,,,,,,,,210.52218829997582,210.52218829997582,210.52218829997582,210.52218829997582,210.52218829997582,return,0.25802699994528666,22,0,0,1,0.0,-0.4,return,0.15239899995503947,0,47,0.0,-0.4,,,,,,,,,,,,,,,,,,,,,,,,,,,,,A,train_x,x_increasing_steps,top_left,2024-10-29_20h19.10.720,HideSeek_v1,2022.2.5,60.02350520193826,
,2,1,7,1,5,0,66,,train_dim1_1,23,30,2,0,2,0,,,,,,,,,0,0,0,0,0,22,22,22,0,0,0,0,,,,,,,,,,,,,stimuli/alien_stimuli/66.png,,,,,,,,,,,,,,,,,,,,,,,,,,,,,stimuli/alien_stimuli/26.png,26,1,24,,,,,,,30,,,,,,,,214.95307779998984,214.95307779998984,214.95307779998984,214.95307779998984,214.95307779998984,right,1.2530496999970637,22,0,0,99,0.08,-0.32,right,1.0778954999987036,,,,,213.30445860000327,214.95307779998984,0,-0.4,0.0,0.08,-0.4,0,-0.04,0,-0.4,212.4058970999904,212.4058970999904,212.4058970999904,212.4058970999904,212.4058970999904,212.4058970999904,212.4058970999904,212.4058970999904,212.32058896996898,1.0876013999804854,return,0.8840298999566585,,,,,,A,train_x,x_increasing_steps,top_left,2024-10-29_20h19.10.720,HideSeek_v1,2022.2.5,60.02350520193826,
,2,1,7,1,5,0,66,,train_dim1_1,23,30,2,0,2,0,,,,,,,,,0,0,0,0,0,22,22,22,1,0,1,0,,,,,,,,,,,,,,,,,,,,,,,,,,,,,,,,,,,,,,,,,,,,,,,,,,,,30,,,,,,,,216.1384438999812,216.1384438999812,216.1384438999812,216.1384438999812,216.1384438999812,right,0.2743439000332728,22,0,0,99,0.16,-0.32,right,0.17532900004880503,,,,,,,,,,,,,,,,,,,,,,,,,,,,,,,,,A,train_x,x_increasing_steps,top_left,2024-10-29_20h19.10.720,HideSeek_v1,2022.2.5,60.02350520193826,
,2,1,7,1,5,0,66,,train_dim1_1,23,30,2,0,2,0,,,,,,,,,0,0,0,0,0,22,22,22,2,0,2,0,,,,,,,,,,,,,,,,,,,,,,,,,,,,,,,,,,,,,,,,,,,,,,,,,,,,30,,,,,,,,216.41958649997832,216.41958649997832,216.41958649997832,216.41958649997832,216.41958649997832,right,0.22479770000791177,22,0,0,99,0.24,-0.32,right,0.12102040002355352,,,,,,,,,,,,,,,,,,,,,,,,,,,,,,,,,A,train_x,x_increasing_steps,top_left,2024-10-29_20h19.10.720,HideSeek_v1,2022.2.5,60.02350520193826,
,2,1,7,1,5,0,66,,train_dim1_1,23,30,2,0,2,0,,,,,,,,,0,0,0,0,0,22,22,22,3,0,3,0,,,,,,,,,,,,,,,,,,,,,,,,,,,,,,,,,,,,,,,,,,,,,,,,,,,,30,,,,,,,,216.6573192999931,216.6573192999931,216.6573192999931,216.6573192999931,216.6573192999931,right,0.17448779998812824,22,0,0,99,0.32,-0.32,right,0.07688809995306656,,,,,,,,,,,,,,,,,,,,,,,,,,,,,,,,,A,train_x,x_increasing_steps,top_left,2024-10-29_20h19.10.720,HideSeek_v1,2022.2.5,60.02350520193826,
,2,1,7,1,5,0,66,,train_dim1_1,23,30,2,0,2,0,,,,,,,,,0,0,0,0,0,22,22,22,4,0,4,0,,,,,,,,,,,,,,,,,,,,,,,,,,,,,,,,,,,,,,,,,,,,,,,,,,,,30,,,,,,,,216.8343902999768,216.8343902999768,216.8343902999768,216.8343902999768,216.8343902999768,right,0.1912410000222735,22,0,0,99,0.4,-0.32,right,0.0987332999939099,,,,,,,,,,,,,,,,,,,,,,,,,,,,,,,,,A,train_x,x_increasing_steps,top_left,2024-10-29_20h19.10.720,HideSeek_v1,2022.2.5,60.02350520193826,
,2,1,7,1,5,0,66,,train_dim1_1,23,30,2,0,2,0,,,,,,,,,0,0,0,0,0,22,22,22,5,0,5,0,,,,,,,,,,,,,,,,,,,,,,,,,,,,,,,,,,,,,,,,,,,,,,,,,,,,30,,,,,,,,217.03809029998956,217.03809029998956,217.03809029998956,217.03809029998956,217.03809029998956,return,0.32440770004177466,23,0,0,1,0.4,-0.32,return,0.2244537000078708,0,52,0.4,-0.32,,,,,,,,,,,,,,,,,,,,,,,,,,,,,A,train_x,x_increasing_steps,top_left,2024-10-29_20h19.10.720,HideSeek_v1,2022.2.5,60.02350520193826,
,4,4,7,4,3,0,46,,train_dim1_1,24,30,2,0,2,0,,,,,,,,,0,0,0,0,0,23,23,23,0,0,0,0,,,,,,,,,,,,,stimuli/alien_stimuli/46.png,,,,,,,,,,,,,,,,,,,,,,,,,,,,,stimuli/alien_stimuli/66.png,66,2,25,,,,,,,30,,,,,,,,223.8355537999887,223.8355537999887,223.8355537999887,223.8355537999887,223.8355537999887,right,3.1386116000358015,23,0,0,99,0.24,-0.08,right,2.9891444999957457,,,,,222.22104869998293,223.8355537999887,0.4,-0.32,0.0,0.4,-0.32,0.4,0.2,0.4,-0.32,218.9934634999954,218.9934634999954,218.9934634999954,218.9934634999954,218.9934634999954,218.9934634999954,218.9934634999954,218.9934634999954,218.90412477001667,3.419010400015395,return,3.2098213999997824,,,,,,A,train_x,x_increasing_steps,top_left,2024-10-29_20h19.10.720,HideSeek_v1,2022.2.5,60.02350520193826,
,4,4,7,4,3,0,46,,train_dim1_1,24,30,2,0,2,0,,,,,,,,,0,0,0,0,0,23,23,23,1,0,1,0,,,,,,,,,,,,,,,,,,,,,,,,,,,,,,,,,,,,,,,,,,,,,,,,,,,,30,,,,,,,,226.93289920000825,226.93289920000825,226.93289920000825,226.93289920000825,226.93289920000825,right,0.3231511000194587,23,0,0,99,0.32,-0.08,right,0.2369007999659516,,,,,,,,,,,,,,,,,,,,,,,,,,,,,,,,,A,train_x,x_increasing_steps,top_left,2024-10-29_20h19.10.720,HideSeek_v1,2022.2.5,60.02350520193826,
,4,4,7,4,3,0,46,,train_dim1_1,24,30,2,0,2,0,,,,,,,,,0,0,0,0,0,23,23,23,2,0,2,0,,,,,,,,,,,,,,,,,,,,,,,,,,,,,,,,,,,,,,,,,,,,,,,,,,,,30,,,,,,,,227.26073749997886,227.26073749997886,227.26073749997886,227.26073749997886,227.26073749997886,right,0.2581200000131503,23,0,0,99,0.4,-0.08,right,0.1698449999676086,,,,,,,,,,,,,,,,,,,,,,,,,,,,,,,,,A,train_x,x_increasing_steps,top_left,2024-10-29_20h19.10.720,HideSeek_v1,2022.2.5,60.02350520193826,
,4,4,7,4,3,0,46,,train_dim1_1,24,30,2,0,2,0,,,,,,,,,0,0,0,0,0,23,23,23,3,0,3,0,,,,,,,,,,,,,,,,,,,,,,,,,,,,,,,,,,,,,,,,,,,,,,,,,,,,30,,,,,,,,227.5294660999789,227.5294660999789,227.5294660999789,227.5294660999789,227.5294660999789,return,0.50780040002428,24,0,0,1,0.4,-0.08,return,0.4119213000521995,0,55,0.4,-0.08,,,,,,,,,,,,,,,,,,,,,,,,,,,,,A,train_x,x_increasing_steps,top_left,2024-10-29_20h19.10.720,HideSeek_v1,2022.2.5,60.02350520193826,
,3,0,3,0,0,0,16,,train_dim1_1,25,30,2,0,2,0,,,,,,,,,0,0,0,0,0,24,24,24,0,0,0,0,,,,,,,,,,,,,stimuli/alien_stimuli/16.png,,,,,,,,,,,,,,,,,,,,,,,,,,,,,stimuli/alien_stimuli/46.png,46,4,26,,,,,,,30,,,,,,,,232.53879560000496,232.53879560000496,232.53879560000496,232.53879560000496,232.53879560000496,return,1.9875873000128195,25,0,0,1,0.08,-0.4,return,1.8617991000064649,0,55,0.08,-0.4,230.93759719998343,232.53879560000496,0.4,-0.08,0.0,0.24,-0.08,0.4,0.28,0.4,-0.08,229.65616189996945,229.65616189996945,229.65616189996945,229.65616189996945,229.65616189996945,229.65616189996945,229.65616189996945,229.65616189996945,229.58761556998945,1.4518378999782726,return,1.2549344999715686,,,,,,A,train_x,x_increasing_steps,top_left,2024-10-29_20h19.10.720,HideSeek_v1,2022.2.5,60.02350520193826,
,1,1,6,1,5,0,66,,train_dim1_1,26,30,2,0,2,0,,,,,,,,,0,0,0,0,0,25,25,25,0,0,0,0,,,,,,,,,,,,,stimuli/alien_stimuli/66.png,,,,,,,,,,,,,,,,,,,,,,,,,,,,,stimuli/alien_stimuli/16.png,16,3,27,,,,,,,30,,,,,,,,252.64926149998792,252.64926149998792,252.64926149998792,252.64926149998792,252.64926149998792,right,6.737452200031839,25,0,0,99,0.0,-0.32,right,6.591674299968872,,,,,251.03768690000288,252.64926149998792,0.08,-0.4,0.0,0.0,-0.4,0.08,0.08,0.08,-0.4,236.11942439997802,236.11942439997802,236.11942439997802,236.11942439997802,236.11942439997802,236.11942439997802,236.11942439997802,236.11942439997802,236.03714247000755,15.10194549994776,return,14.896145900012925,,,,,,A,train_x,x_increasing_steps,top_left,2024-10-29_20h19.10.720,HideSeek_v1,2022.2.5,60.02350520193826,
,1,1,6,1,5,0,66,,train_dim1_1,26,30,2,0,2,0,,,,,,,,,0,0,0,0,0,25,25,25,1,0,1,0,,,,,,,,,,,,,,,,,,,,,,,,,,,,,,,,,,,,,,,,,,,,,,,,,,,,30,,,,,,,,259.3567301000003,259.3567301000003,259.3567301000003,259.3567301000003,259.3567301000003,right,0.20756729994900525,25,0,0,99,0.08,-0.32,right,0.10211229999549687,,,,,,,,,,,,,,,,,,,,,,,,,,,,,,,,,A,train_x,x_increasing_steps,top_left,2024-10-29_20h19.10.720,HideSeek_v1,2022.2.5,60.02350520193826,
,1,1,6,1,5,0,66,,train_dim1_1,26,30,2,0,2,0,,,,,,,,,0,0,0,0,0,25,25,25,2,0,2,0,,,,,,,,,,,,,,,,,,,,,,,,,,,,,,,,,,,,,,,,,,,,,,,,,,,,30,,,,,,,,259.58766379998997,259.58766379998997,259.58766379998997,259.58766379998997,259.58766379998997,right,0.15900089999195188,25,0,0,99,0.16,-0.32,right,0.05106530000921339,,,,,,,,,,,,,,,,,,,,,,,,,,,,,,,,,A,train_x,x_increasing_steps,top_left,2024-10-29_20h19.10.720,HideSeek_v1,2022.2.5,60.02350520193826,
,1,1,6,1,5,0,66,,train_dim1_1,26,30,2,0,2,0,,,,,,,,,0,0,0,0,0,25,25,25,3,0,3,0,,,,,,,,,,,,,,,,,,,,,,,,,,,,,,,,,,,,,,,,,,,,,,,,,,,,30,,,,,,,,259.73248619999504,259.73248619999504,259.73248619999504,259.73248619999504,259.73248619999504,right,0.19116359995678067,25,0,0,99,0.24,-0.32,right,0.09544639999512583,,,,,,,,,,,,,,,,,,,,,,,,,,,,,,,,,A,train_x,x_increasing_steps,top_left,2024-10-29_20h19.10.720,HideSeek_v1,2022.2.5,60.02350520193826,
,1,1,6,1,5,0,66,,train_dim1_1,26,30,2,0,2,0,,,,,,,,,0,0,0,0,0,25,25,25,4,0,4,0,,,,,,,,,,,,,,,,,,,,,,,,,,,,,,,,,,,,,,,,,,,,,,,,,,,,30,,,,,,,,259.9417647999944,259.9417647999944,259.9417647999944,259.9417647999944,259.9417647999944,right,0.19248079997487366,25,0,0,99,0.32,-0.32,right,0.09099019999848679,,,,,,,,,,,,,,,,,,,,,,,,,,,,,,,,,A,train_x,x_increasing_steps,top_left,2024-10-29_20h19.10.720,HideSeek_v1,2022.2.5,60.02350520193826,
,1,1,6,1,5,0,66,,train_dim1_1,26,30,2,0,2,0,,,,,,,,,0,0,0,0,0,25,25,25,5,0,5,0,,,,,,,,,,,,,,,,,,,,,,,,,,,,,,,,,,,,,,,,,,,,,,,,,,,,30,,,,,,,,260.1323214999866,260.1323214999866,260.1323214999866,260.1323214999866,260.1323214999866,return,0.5246395000140183,26,0,0,1,0.32,-0.32,return,0.44201599998632446,0,60,0.32,-0.32,,,,,,,,,,,,,,,,,,,,,,,,,,,,,A,train_x,x_increasing_steps,top_left,2024-10-29_20h19.10.720,HideSeek_v1,2022.2.5,60.02350520193826,
,0,1,2,1,2,0,36,,train_dim1_1,27,30,2,0,2,0,,,,,,,,,0,0,0,0,0,26,26,26,0,0,0,0,,,,,,,,,,,,,stimuli/alien_stimuli/36.png,,,,,,,,,,,,,,,,,,,,,,,,,,,,,stimuli/alien_stimuli/66.png,66,1,28,,,,,,,30,,,,,,,,269.78780910000205,269.78780910000205,269.78780910000205,269.78780910000205,269.78780910000205,right,0.9543602999765426,26,0,0,99,-0.08,-0.32,right,0.8331075999885798,,,,,268.18758319999324,269.78780910000205,0.32,-0.32,0.0,0.4,-0.32,0.32,0.12,0.32,-0.32,262.3296465000021,262.3296465000021,262.3296465000021,262.3296465000021,262.3296465000021,262.3296465000021,262.3296465000021,262.3296465000021,262.22097756998267,6.069992400007322,return,5.829044800018892,,,,,,A,train_x,x_increasing_steps,top_left,2024-10-29_20h19.10.720,HideSeek_v1,2022.2.5,60.02350520193826,
,0,1,2,1,2,0,36,,train_dim1_1,27,30,2,0,2,0,,,,,,,,,0,0,0,0,0,26,26,26,1,0,1,0,,,,,,,,,,,,,,,,,,,,,,,,,,,,,,,,,,,,,,,,,,,,,,,,,,,,30,,,,,,,,270.7146975999931,270.7146975999931,270.7146975999931,270.7146975999931,270.7146975999931,right,0.29146129998844117,26,0,0,99,0.0,-0.32,right,0.2003649999969639,,,,,,,,,,,,,,,,,,,,,,,,,,,,,,,,,A,train_x,x_increasing_steps,top_left,2024-10-29_20h19.10.720,HideSeek_v1,2022.2.5,60.02350520193826,
,0,1,2,1,2,0,36,,train_dim1_1,27,30,2,0,2,0,,,,,,,,,0,0,0,0,0,26,26,26,2,0,2,0,,,,,,,,,,,,,,,,,,,,,,,,,,,,,,,,,,,,,,,,,,,,,,,,,,,,30,,,,,,,,271.0118597999681,271.0118597999681,271.0118597999681,271.0118597999681,271.0118597999681,return,1.4904635999700986,27,0,0,1,0.0,-0.32,return,1.410209699999541,0,62,0.0,-0.32,,,,,,,,,,,,,,,,,,,,,,,,,,,,,A,train_x,x_increasing_steps,top_left,2024-10-29_20h19.10.720,HideSeek_v1,2022.2.5,60.02350520193826,
,3,1,4,1,1,0,26,,train_dim1_1,28,30,2,0,2,0,,,,,,,,,0,0,0,0,0,27,27,27,0,0,0,0,,,,,,,,,,,,,stimuli/alien_stimuli/26.png,,,,,,,,,,,,,,,,,,,,,,,,,,,,,stimuli/alien_stimuli/36.png,36,0,29,,,,,,,30,,,,,,,,279.83801549999043,279.83801549999043,279.83801549999043,279.83801549999043,279.83801549999043,right,1.870370999968145,27,0,0,99,0.16,-0.32,right,1.736466600035783,,,,,278.23743149999063,279.83801549999043,0,-0.32,0.0,0.16,-0.32,0,-0.08,0,-0.32,274.1310871000169,274.1310871000169,274.1310871000169,274.1310871000169,274.1310871000169,274.1310871000169,274.1310871000169,274.1310871000169,274.053524970013,4.285395699960645,return,4.068305899971165,,,,,,A,train_x,x_increasing_steps,top_left,2024-10-29_20h19.10.720,HideSeek_v1,2022.2.5,60.02350520193826,
,3,1,4,1,1,0,26,,train_dim1_1,28,30,2,0,2,0,,,,,,,,,0,0,0,0,0,27,27,27,1,0,1,0,,,,,,,,,,,,,,,,,,,,,,,,,,,,,,,,,,,,,,,,,,,,,,,,,,,,30,,,,,,,,281.68799529998796,281.68799529998796,281.68799529998796,281.68799529998796,281.68799529998796,return,0.2740877000032924,28,0,0,1,0.16,-0.32,return,0.17320329998619854,0,63,0.16,-0.32,,,,,,,,,,,,,,,,,,,,,,,,,,,,,A,train_x,x_increasing_steps,top_left,2024-10-29_20h19.10.720,HideSeek_v1,2022.2.5,60.02350520193826,
,4,0,7,0,3,0,46,,train_dim1_1,29,30,2,0,2,0,,,,,,,,,0,0,0,0,0,28,28,28,0,0,0,0,,,,,,,,,,,,,stimuli/alien_stimuli/46.png,,,,,,,,,,,,,,,,,,,,,,,,,,,,,stimuli/alien_stimuli/26.png,26,3,30,,,,,,,30,,,,,,,,285.7738115999964,285.7738115999964,285.7738115999964,285.7738115999964,285.7738115999964,right,1.105054999992717,28,0,0,99,0.24,-0.4,right,0.9699066000175662,,,,,284.1707821000018,285.7738115999964,0.16,-0.32,0.0,0.08,-0.32,0.16,0.12,0.16,-0.32,283.582375900005,283.582375900005,283.582375900005,283.582375900005,283.582375900005,283.582375900005,283.582375900005,283.582375900005,283.50333237001325,0.7683122000307776,return,0.5539527999935672,,,,,,A,train_x,x_increasing_steps,top_left,2024-10-29_20h19.10.720,HideSeek_v1,2022.2.5,60.02350520193826,
,4,0,7,0,3,0,46,,train_dim1_1,29,30,2,0,2,0,,,,,,,,,0,0,0,0,0,28,28,28,1,0,1,0,,,,,,,,,,,,,,,,,,,,,,,,,,,,,,,,,,,,,,,,,,,,,,,,,,,,30,,,,,,,,286.8428649000125,286.8428649000125,286.8428649000125,286.8428649000125,286.8428649000125,right,1.0741522000171244,28,0,0,99,0.32,-0.4,right,0.9880591999972239,,,,,,,,,,,,,,,,,,,,,,,,,,,,,,,,,A,train_x,x_increasing_steps,top_left,2024-10-29_20h19.10.720,HideSeek_v1,2022.2.5,60.02350520193826,
,4,0,7,0,3,0,46,,train_dim1_1,29,30,2,0,2,0,,,,,,,,,0,0,0,0,0,28,28,28,2,0,2,0,,,,,,,,,,,,,,,,,,,,,,,,,,,,,,,,,,,,,,,,,,,,,,,,,,,,30,,,,,,,,287.9255097999703,287.9255097999703,287.9255097999703,287.9255097999703,287.9255097999703,right,0.12544450000859797,28,0,0,99,0.4,-0.4,right,0.040442599973175675,,,,,,,,,,,,,,,,,,,,,,,,,,,,,,,,,A,train_x,x_increasing_steps,top_left,2024-10-29_20h19.10.720,HideSeek_v1,2022.2.5,60.02350520193826,
,4,0,7,0,3,0,46,,train_dim1_1,29,30,2,0,2,0,,,,,,,,,0,0,0,0,0,28,28,28,3,0,3,0,,,,,,,,,,,,,,,,,,,,,,,,,,,,,,,,,,,,,,,,,,,,,,,,,,,,30,,,,,,,,288.0590175999678,288.0590175999678,288.0590175999678,288.0590175999678,288.0590175999678,return,0.3402197000104934,29,0,0,1,0.4,-0.4,return,0.25128000002587214,0,66,0.4,-0.4,,,,,,,,,,,,,,,,,,,,,,,,,,,,,A,train_x,x_increasing_steps,top_left,2024-10-29_20h19.10.720,HideSeek_v1,2022.2.5,60.02350520193826,
,2,2,2,2,0,0,16,,train_dim1_1,30,30,2,0,2,0,,,,,,,,,0,0,0,0,0,29,29,29,0,0,0,0,,,,,,,,,,,,,stimuli/alien_stimuli/16.png,,,,,,,,,,,,,,,,,,,,,,,,,,,,,stimuli/alien_stimuli/46.png,46,4,31,,,,,,,30,,,,,,,,292.60098099999595,292.60098099999595,292.60098099999595,292.60098099999595,292.60098099999595,return,0.7871136000030674,30,0,0,1,0,-0.24,return,0.6628643999574706,0,66,0,-0.24,291.0039376000059,292.60098099999595,0.4,-0.4,0.0,0.24,-0.4,0.4,0.28,0.4,-0.4,290.02124600001844,290.02124600001844,290.02124600001844,290.02124600001844,290.02124600001844,290.02124600001844,290.02124600001844,290.02124600001844,289.9373297600076,1.1510585999931209,return,0.9433401999995112,,,,,,A,train_x,x_increasing_steps,top_left,2024-10-29_20h19.10.720,HideSeek_v1,2022.2.5,60.02350520193826,
,,,,,,,,,,,30,2,0,2,0,,,,,,,,,,,,,,,,,,,,,,,,,,,,,,,,,,,,,,,,,,,,,,,,,,,,,,,,,,,,,,stimuli/alien_stimuli/16.png,16,2,32,17,0.7,1.25,1,1,1,30,0,conditions/schedules/train_x_first/x_increasing_steps/top_left/inputTrain_2.1.xlsx,99,1,2,1,0,,,,,,,,,,,1,,,,,,,,,295.63717319996795,297.18769240000984,0,-0.24,0.0,0.0,-0.24,0,0.0,0,-0.24,294.9730617000023,294.9730617000023,294.9730617000023,294.9730617000023,294.9730617000023,294.9730617000023,294.9730617000023,294.9730617000023,294.9033572699933,0.8357252000132576,return,0.6446288999868557,0,1.25,0,1,30,A,train_x,x_increasing_steps,top_left,2024-10-29_20h19.10.720,HideSeek_v1,2022.2.5,60.02350520193826,
,,,,,,,,,,,,3,0,3,0,0,0,0,0,,,,,,,,,,,,,,,,,,,conditions/schedules/train_x_first/x_increasing_steps/top_left/instructions/Slide17.png,conditions/schedules/train_x_first/x_increasing_steps/top_left/instructions/Audio17.wav,297.18769240000984,297.1715118300112,17,"[1.5384119999944232, 0.4608952000271529, 0.26947880000807345, 0.22030520002590492, 0.22372000000905246, 0.22307069995440543, 0.23403079999843612, 0.25588920002337545, 0.3014567000209354, 0.35697540000546724, 0.5050423999782652, 0.5021182000054978, 1.0106057999655604, 0.8996704000164755, 10.835601300001144, 0.5630334000452422, 3.6871727000107057]","[0.12685260002035648, 0.00026519998209550977, 0.019268799980636686, 0.03972329996759072, 0.018585999961942434, 0.0003089999663643539, 0.00027540000155568123, 0.019350500020664185, 0.03806799999438226, 0.01997790002496913, 0.06865689996629953, 0.5021268999553286, 0.06445830001030117, 0.8996805000351742, 0.019641100021544844, 0.5630429000011645, 3.687183299975004]",0,,,,,,,,,,,,,,,,,,,,,,,,,,,,,,,,,,,,,,,,,,,,,,,,,,,,,,,,,,,,,,,,,,,,,,,,,,,,,,,,,,,,,,,,,,,,,,,,,A,train_x,x_increasing_steps,top_left,2024-10-29_20h19.10.720,HideSeek_v1,2022.2.5,60.02350520193826,
,,,,,,,,,,,,3,0,3,0,1,0,1,0,,,,,,,,,,,,,,,,,,,conditions/schedules/train_x_first/x_increasing_steps/top_left/instructions/Slide18.png,conditions/schedules/train_x_first/x_increasing_steps/top_left/instructions/Audio18.wav,300.94000489998143,300.92064184001646,18,"[1.5384119999944232, 0.4608952000271529, 0.26947880000807345, 0.22030520002590492, 0.22372000000905246, 0.22307069995440543, 0.23403079999843612, 0.25588920002337545, 0.3014567000209354, 0.35697540000546724, 0.5050423999782652, 0.5021182000054978, 1.0106057999655604, 0.8996704000164755, 10.835601300001144, 0.5630334000452422, 3.6871727000107057, 1.0865798000013456]","[0.12685260002035648, 0.00026519998209550977, 0.019268799980636686, 0.03972329996759072, 0.018585999961942434, 0.0003089999663643539, 0.00027540000155568123, 0.019350500020664185, 0.03806799999438226, 0.01997790002496913, 0.06865689996629953, 0.5021268999553286, 0.06445830001030117, 0.8996805000351742, 0.019641100021544844, 0.5630429000011645, 3.687183299975004, 1.0865884000086226]",0,,,,,,,,,,,,,,,,,,,,,,,,,,,,,,,,,,,,,,,,,,,,,,,,,,,,,,,,,,,,,,,,,,,,,,,,,,,,,,,,,,,,,,,,,,,,,,,,,A,train_x,x_increasing_steps,top_left,2024-10-29_20h19.10.720,HideSeek_v1,2022.2.5,60.02350520193826,
,,,,,,,,,,,,3,0,3,0,2,0,2,0,,,,,,,,,,,,,,,,,,,conditions/schedules/train_x_first/x_increasing_steps/top_left/instructions/Slide19.png,conditions/schedules/train_x_first/x_increasing_steps/top_left/instructions/Audio19.wav,302.06725829996867,302.05415442999805,19,"[1.5384119999944232, 0.4608952000271529, 0.26947880000807345, 0.22030520002590492, 0.22372000000905246, 0.22307069995440543, 0.23403079999843612, 0.25588920002337545, 0.3014567000209354, 0.35697540000546724, 0.5050423999782652, 0.5021182000054978, 1.0106057999655604, 0.8996704000164755, 10.835601300001144, 0.5630334000452422, 3.6871727000107057, 1.0865798000013456, 2.473933900007978]","[0.12685260002035648, 0.00026519998209550977, 0.019268799980636686, 0.03972329996759072, 0.018585999961942434, 0.0003089999663643539, 0.00027540000155568123, 0.019350500020664185, 0.03806799999438226, 0.01997790002496913, 0.06865689996629953, 0.5021268999553286, 0.06445830001030117, 0.8996805000351742, 0.019641100021544844, 0.5630429000011645, 3.687183299975004, 0.0580688999616541, 2.4739422000129707]",0,,,,,,,,,,,,,,,,,,,,,,,,,,,,,,,,,,,,,,,,,,,,,,,,,,,,,,,,,,,,,,,,,,,,,,,,,,,,,,,,,,,,,,,,,,,,,,,,,A,train_x,x_increasing_steps,top_left,2024-10-29_20h19.10.720,HideSeek_v1,2022.2.5,60.02350520193826,
,,,,,,,,,,,,3,0,3,0,3,0,3,0,,,,,,,,,,,,,,,,,,,conditions/schedules/train_x_first/x_increasing_steps/top_left/instructions/Slide20.png,conditions/schedules/train_x_first/x_increasing_steps/top_left/instructions/Audio20.wav,304.60430880001513,304.5871256400016,20,"[1.5384119999944232, 0.4608952000271529, 0.26947880000807345, 0.22030520002590492, 0.22372000000905246, 0.22307069995440543, 0.23403079999843612, 0.25588920002337545, 0.3014567000209354, 0.35697540000546724, 0.5050423999782652, 0.5021182000054978, 1.0106057999655604, 0.8996704000164755, 10.835601300001144, 0.5630334000452422, 3.6871727000107057, 1.0865798000013456, 2.473933900007978, 3.3544335999758914]","[0.12685260002035648, 0.00026519998209550977, 0.019268799980636686, 0.03972329996759072, 0.018585999961942434, 0.0003089999663643539, 0.00027540000155568123, 0.019350500020664185, 0.03806799999438226, 0.01997790002496913, 0.06865689996629953, 0.5021268999553286, 0.06445830001030117, 0.8996805000351742, 0.019641100021544844, 0.5630429000011645, 3.687183299975004, 0.0580688999616541, 0.020199699967633933, 3.354441699979361]",0,,,,,,,,,,,,,,,,,,,,,,,,,,,,,,,,,,,,,,,,,,,,,,,,,,,,,,,,,,,,,,,,,,,,,,,,,,,,,,,,,,,,,,,,,,,,,,,,,A,train_x,x_increasing_steps,top_left,2024-10-29_20h19.10.720,HideSeek_v1,2022.2.5,60.02350520193826,
,,,,,,,,,,,,,,,,,,,,,,,,,,,,,,,,,,,,,,,,,,,,,,,,stimuli/alien_stimuli/66.png,conditions/schedules/train_x_first/x_increasing_steps/top_left/inputInstr_1.xlsx,stimuli/alien_stimuli/66.png,308.087913699972,308.087913699972,308.087913699972,308.087913699972,308.0377089599613,,,,,,,,,,,,,,,,,,,,,,,,,,,,,,,,,,,,,,,,,,,,,,,,,,,,,,,,,,,,,,,,,,,,,,,,,,,,,,,,,,,,,,,,,,,,,,,
