beforeExpLoop.thisRepN,beforeExpLoop.thisTrialN,beforeExpLoop.thisN,beforeExpLoop.thisIndex,mini_instr_trials.thisRepN,mini_instr_trials.thisTrialN,mini_instr_trials.thisN,mini_instr_trials.thisIndex,instrLoop.thisRepN,instrLoop.thisTrialN,instrLoop.thisN,instrLoop.thisIndex,repeat_prac.thisRepN,repeat_prac.thisTrialN,repeat_prac.thisN,repeat_prac.thisIndex,trainLoop.thisRepN,trainLoop.thisTrialN,trainLoop.thisN,trainLoop.thisIndex,start_all_time,url,slideStim,audioStim,slides.started,sounds.started,nextButton.numClicks,nextButton.timesOn,nextButton.timesOff,prev_but.numClicks,prev_but.timesOn,prev_but.timesOff,perfthres,percthres,earlierperf,earlystop,nextPrac,fileidx,praclen,saveACC_train,pracFile,nextPrac_train,addNrep,fileidx_endr,repExp,showearly,participant,train_first,direction of x,starting corner,date,expName,psychopyVersion,frameRate,
0,0,0,0,0,0,0,0,,,,,,,,,,,,,start_all_time,testround,conditions/schedules/train_y_first/x_increasing_steps/top_left/instructions/Slide1.png,conditions/schedules/train_y_first/x_increasing_steps/top_left/instructions/Audio1.wav,34.99878209998133,34.9379786801408,1,[2.156699799990747],[2.1567070999881253],0,,,,,,,,,,,,,,,,,A,train_y,x_increasing_steps,top_left,2024-10-29_18h08.44.275,HideSeek_v1,2022.2.5,59.848774122612674,
0,0,0,0,1,0,1,0,,,,,,,,,,,,,,,conditions/schedules/train_y_first/x_increasing_steps/top_left/instructions/Slide2.png,conditions/schedules/train_y_first/x_increasing_steps/top_left/instructions/Audio2.wav,37.182316399994306,37.16475519997766,2,"[2.156699799990747, 0.3430309999966994]","[0.060790799965616316, 0.343038399994839]",0,,,,,,,,,,,,,,,,,A,train_y,x_increasing_steps,top_left,2024-10-29_18h08.44.275,HideSeek_v1,2022.2.5,59.848774122612674,
0,0,0,0,2,0,2,0,,,,,,,,,,,,,,,conditions/schedules/train_y_first/x_increasing_steps/top_left/instructions/Slide3.png,conditions/schedules/train_y_first/x_increasing_steps/top_left/instructions/Audio3.wav,37.58120809996035,37.58179819997167,3,"[2.156699799990747, 0.3430309999966994, 0.3172010999987833]","[0.060790799965616316, 0.05013510002754629, 0.3172111000167206]",0,,,,,,,,,,,,,,,,,A,train_y,x_increasing_steps,top_left,2024-10-29_18h08.44.275,HideSeek_v1,2022.2.5,59.848774122612674,
0,0,0,0,3,0,3,0,,,,,,,,,,,,,,,conditions/schedules/train_y_first/x_increasing_steps/top_left/instructions/Slide4.png,conditions/schedules/train_y_first/x_increasing_steps/top_left/instructions/Audio4.wav,37.96561319998,37.94856667997083,4,"[2.156699799990747, 0.3430309999966994, 0.3172010999987833, 0.24030379997566342]","[0.060790799965616316, 0.05013510002754629, 0.040586099959909916, 0.24031449999893084]",0,,,,,,,,,,,,,,,,,A,train_y,x_increasing_steps,top_left,2024-10-29_18h08.44.275,HideSeek_v1,2022.2.5,59.848774122612674,
0,0,0,0,4,0,4,0,,,,,,,,,,,,,,,conditions/schedules/train_y_first/x_increasing_steps/top_left/instructions/Slide5.png,conditions/schedules/train_y_first/x_increasing_steps/top_left/instructions/Audio5.wav,38.25090230000205,38.248591379972645,5,"[2.156699799990747, 0.3430309999966994, 0.3172010999987833, 0.24030379997566342, 0.2636276999837719]","[0.060790799965616316, 0.05013510002754629, 0.040586099959909916, 0.015426999947521836, 0.2636350999819115]",0,,,,,,,,,,,,,,,,,A,train_y,x_increasing_steps,top_left,2024-10-29_18h08.44.275,HideSeek_v1,2022.2.5,59.848774122612674,
0,0,0,0,5,0,5,0,,,,,,,,,,,,,,,conditions/schedules/train_y_first/x_increasing_steps/top_left/instructions/Slide6.png,conditions/schedules/train_y_first/x_increasing_steps/top_left/instructions/Audio6.wav,38.56748609995702,38.565219279972375,6,"[2.156699799990747, 0.3430309999966994, 0.3172010999987833, 0.24030379997566342, 0.2636276999837719, 0.24638969998341054]","[0.060790799965616316, 0.05013510002754629, 0.040586099959909916, 0.015426999947521836, 0.01533750002272427, 0.2463955999701284]",0,,,,,,,,,,,,,,,,,A,train_y,x_increasing_steps,top_left,2024-10-29_18h08.44.275,HideSeek_v1,2022.2.5,59.848774122612674,
0,0,0,0,6,0,6,0,,,,,,,,,,,,,,,conditions/schedules/train_y_first/x_increasing_steps/top_left/instructions/Slide7.png,conditions/schedules/train_y_first/x_increasing_steps/top_left/instructions/Audio7.wav,38.86625149997417,38.86482437998057,7,"[2.156699799990747, 0.3430309999966994, 0.3172010999987833, 0.24030379997566342, 0.2636276999837719, 0.24638969998341054, 0.24752999999327585]","[0.060790799965616316, 0.05013510002754629, 0.040586099959909916, 0.015426999947521836, 0.01533750002272427, 0.047489300020970404, 0.24753699998836964]",0,,,,,,,,,,,,,,,,,A,train_y,x_increasing_steps,top_left,2024-10-29_18h08.44.275,HideSeek_v1,2022.2.5,59.848774122612674,
0,0,0,0,7,0,7,0,,,,,,,,,,,,,,,conditions/schedules/train_y_first/x_increasing_steps/top_left/instructions/Slide8.png,conditions/schedules/train_y_first/x_increasing_steps/top_left/instructions/Audio8.wav,39.16676849999931,39.164800579962325,8,"[2.156699799990747, 0.3430309999966994, 0.3172010999987833, 0.24030379997566342, 0.2636276999837719, 0.24638969998341054, 0.24752999999327585, 0.23132979997899383]","[0.060790799965616316, 0.05013510002754629, 0.040586099959909916, 0.015426999947521836, 0.01533750002272427, 0.047489300020970404, 0.015424399985931814, 0.23133749997941777]",0,,,,,,,,,,,,,,,,,A,train_y,x_increasing_steps,top_left,2024-10-29_18h08.44.275,HideSeek_v1,2022.2.5,59.848774122612674,
0,0,0,0,8,0,8,0,,,,,,,,,,,,,,,conditions/schedules/train_y_first/x_increasing_steps/top_left/instructions/Slide9.png,conditions/schedules/train_y_first/x_increasing_steps/top_left/instructions/Audio9.wav,39.45319649996236,39.44880237996113,9,"[2.156699799990747, 0.3430309999966994, 0.3172010999987833, 0.24030379997566342, 0.2636276999837719, 0.24638969998341054, 0.24752999999327585, 0.23132979997899383, 0.18071000004420057]","[0.060790799965616316, 0.05013510002754629, 0.040586099959909916, 0.015426999947521836, 0.01533750002272427, 0.047489300020970404, 0.015424399985931814, 0.017066300031729043, 0.18071849999250844]",0,,,,,,,,,,,,,,,,,A,train_y,x_increasing_steps,top_left,2024-10-29_18h08.44.275,HideSeek_v1,2022.2.5,59.848774122612674,
0,0,0,0,9,0,9,0,,,,,,,,,,,,,,,conditions/schedules/train_y_first/x_increasing_steps/top_left/instructions/Slide10.png,conditions/schedules/train_y_first/x_increasing_steps/top_left/instructions/Audio10.wav,39.682529799989425,39.666485559975264,10,"[2.156699799990747, 0.3430309999966994, 0.3172010999987833, 0.24030379997566342, 0.2636276999837719, 0.24638969998341054, 0.24752999999327585, 0.23132979997899383, 0.18071000004420057, 0.2072875999729149]","[0.060790799965616316, 0.05013510002754629, 0.040586099959909916, 0.015426999947521836, 0.01533750002272427, 0.047489300020970404, 0.015424399985931814, 0.017066300031729043, 0.04174129996681586, 0.2072945999680087]",0,,,,,,,,,,,,,,,,,A,train_y,x_increasing_steps,top_left,2024-10-29_18h08.44.275,HideSeek_v1,2022.2.5,59.848774122612674,
0,0,0,0,10,0,10,0,,,,,,,,,,,,,,,conditions/schedules/train_y_first/x_increasing_steps/top_left/instructions/Slide11.png,conditions/schedules/train_y_first/x_increasing_steps/top_left/instructions/Audio11.wav,39.93255019997014,39.915212660003455,11,"[2.156699799990747, 0.3430309999966994, 0.3172010999987833, 0.24030379997566342, 0.2636276999837719, 0.24638969998341054, 0.24752999999327585, 0.23132979997899383, 0.18071000004420057, 0.2072875999729149, 0.1875859000138007]","[0.060790799965616316, 0.05013510002754629, 0.040586099959909916, 0.015426999947521836, 0.01533750002272427, 0.047489300020970404, 0.015424399985931814, 0.017066300031729043, 0.04174129996681586, 0.02125240000896156, 0.18759360001422465]",0,,,,,,,,,,,,,,,,,A,train_y,x_increasing_steps,top_left,2024-10-29_18h08.44.275,HideSeek_v1,2022.2.5,59.848774122612674,
0,0,0,0,11,0,11,0,,,,,,,,,,,,,,,conditions/schedules/train_y_first/x_increasing_steps/top_left/instructions/Slide12.png,conditions/schedules/train_y_first/x_increasing_steps/top_left/instructions/Audio12.wav,40.16908479999984,40.16518267996144,12,"[2.156699799990747, 0.3430309999966994, 0.3172010999987833, 0.24030379997566342, 0.2636276999837719, 0.24638969998341054, 0.24752999999327585, 0.23132979997899383, 0.18071000004420057, 0.2072875999729149, 0.1875859000138007, 0.16380400001071393]","[0.060790799965616316, 0.05013510002754629, 0.040586099959909916, 0.015426999947521836, 0.01533750002272427, 0.047489300020970404, 0.015424399985931814, 0.017066300031729043, 0.04174129996681586, 0.02125240000896156, 0.016342399991117418, 0.16381190001266077]",0,,,,,,,,,,,,,,,,,A,train_y,x_increasing_steps,top_left,2024-10-29_18h08.44.275,HideSeek_v1,2022.2.5,59.848774122612674,
0,0,0,0,,,,,,,,,,,,,,,,,,,,,,,,,,,,,17,0.7,0,0,99,1,30,0,conditions/inputTrain_1.1.xlsx,99,1,1,1,0,A,train_y,x_increasing_steps,top_left,2024-10-29_18h08.44.275,HideSeek_v1,2022.2.5,59.848774122612674,
1,0,1,0,0,0,0,0,,,,,,,,,,,,,,,conditions/schedules/train_y_first/x_increasing_steps/top_left/instructions/Slide13.png,conditions/schedules/train_y_first/x_increasing_steps/top_left/instructions/Audio13.wav,40.48435599997174,40.48197630001232,13,"[2.156699799990747, 0.3430309999966994, 0.3172010999987833, 0.24030379997566342, 0.2636276999837719, 0.24638969998341054, 0.24752999999327585, 0.23132979997899383, 0.18071000004420057, 0.2072875999729149, 0.1875859000138007, 0.16380400001071393, 0.081730600039009]","[0.060790799965616316, 0.05013510002754629, 0.040586099959909916, 0.015426999947521836, 0.01533750002272427, 0.047489300020970404, 0.015424399985931814, 0.017066300031729043, 0.04174129996681586, 0.02125240000896156, 0.016342399991117418, 0.16381190001266077, 0.08173810003791004]",0,,,,,,,,,,,,,,,,,A,train_y,x_increasing_steps,top_left,2024-10-29_18h08.44.275,HideSeek_v1,2022.2.5,59.848774122612674,
1,0,1,0,1,0,1,0,,,,,,,,,,,,,,,conditions/schedules/train_y_first/x_increasing_steps/top_left/instructions/Slide14.png,conditions/schedules/train_y_first/x_increasing_steps/top_left/instructions/Audio14.wav,40.631894499994814,40.61509727996309,14,"[2.156699799990747, 0.3430309999966994, 0.3172010999987833, 0.24030379997566342, 0.2636276999837719, 0.24638969998341054, 0.24752999999327585, 0.23132979997899383, 0.18071000004420057, 0.2072875999729149, 0.1875859000138007, 0.16380400001071393, 0.081730600039009, 0.19344170001568273]","[0.060790799965616316, 0.05013510002754629, 0.040586099959909916, 0.015426999947521836, 0.01533750002272427, 0.047489300020970404, 0.015424399985931814, 0.017066300031729043, 0.04174129996681586, 0.02125240000896156, 0.016342399991117418, 0.16381190001266077, 0.02537540002958849, 0.19345160003285855]",0,,,,,,,,,,,,,,,,,A,train_y,x_increasing_steps,top_left,2024-10-29_18h08.44.275,HideSeek_v1,2022.2.5,59.848774122612674,
1,0,1,0,,,,,,,,,,,,,,,,,,,,,,,,,,,,,17,0.7,0,0,99,1,30,0,conditions/inputTrain_1.1.xlsx,99,1,1,1,0,A,train_y,x_increasing_steps,top_left,2024-10-29_18h08.44.275,HideSeek_v1,2022.2.5,59.848774122612674,
2,0,2,0,0,0,0,0,,,,,,,,,,,,,,,conditions/schedules/train_y_first/x_increasing_steps/top_left/instructions/Slide15.png,conditions/schedules/train_y_first/x_increasing_steps/top_left/instructions/Audio15.wav,40.950362399977166,40.93169665996684,15,"[2.156699799990747, 0.3430309999966994, 0.3172010999987833, 0.24030379997566342, 0.2636276999837719, 0.24638969998341054, 0.24752999999327585, 0.23132979997899383, 0.18071000004420057, 0.2072875999729149, 0.1875859000138007, 0.16380400001071393, 0.081730600039009, 0.19344170001568273, 0.11612959997728467]","[0.060790799965616316, 0.05013510002754629, 0.040586099959909916, 0.015426999947521836, 0.01533750002272427, 0.047489300020970404, 0.015424399985931814, 0.017066300031729043, 0.04174129996681586, 0.02125240000896156, 0.016342399991117418, 0.16381190001266077, 0.02537540002958849, 0.19345160003285855, 0.11613859998760745]",0,,,,,,,,,,,,,,,,,A,train_y,x_increasing_steps,top_left,2024-10-29_18h08.44.275,HideSeek_v1,2022.2.5,59.848774122612674,
2,0,2,0,1,0,1,0,,,,,,,,,,,,,,,conditions/schedules/train_y_first/x_increasing_steps/top_left/instructions/Slide16.png,conditions/schedules/train_y_first/x_increasing_steps/top_left/instructions/Audio16.wav,41.13389349996578,41.112324679980524,16,"[2.156699799990747, 0.3430309999966994, 0.3172010999987833, 0.24030379997566342, 0.2636276999837719, 0.24638969998341054, 0.24752999999327585, 0.23132979997899383, 0.18071000004420057, 0.2072875999729149, 0.1875859000138007, 0.16380400001071393, 0.081730600039009, 0.19344170001568273, 0.11612959997728467, 0.12381329998606816]","[0.060790799965616316, 0.05013510002754629, 0.040586099959909916, 0.015426999947521836, 0.01533750002272427, 0.047489300020970404, 0.015424399985931814, 0.017066300031729043, 0.04174129996681586, 0.02125240000896156, 0.016342399991117418, 0.16381190001266077, 0.02537540002958849, 0.19345160003285855, 0.00028789998032152653, 0.1238203999819234]",0,,,,,,,,,,,,,,,,,A,train_y,x_increasing_steps,top_left,2024-10-29_18h08.44.275,HideSeek_v1,2022.2.5,59.848774122612674,
2,0,2,0,,,,,,,,,,,,,,,,,,,,,,,,,,,,,17,0.7,0,0,99,1,30,0,conditions/inputTrain_1.1.xlsx,99,1,1,1,0,A,train_y,x_increasing_steps,top_left,2024-10-29_18h08.44.275,HideSeek_v1,2022.2.5,59.848774122612674,
3,0,3,0,0,0,0,0,,,,,,,,,,,,,,,conditions/schedules/train_y_first/x_increasing_steps/top_left/instructions/Slide17.png,conditions/schedules/train_y_first/x_increasing_steps/top_left/instructions/Audio17.wav,41.498691399989184,41.480921900016256,17,"[2.156699799990747, 0.3430309999966994, 0.3172010999987833, 0.24030379997566342, 0.2636276999837719, 0.24638969998341054, 0.24752999999327585, 0.23132979997899383, 0.18071000004420057, 0.2072875999729149, 0.1875859000138007, 0.16380400001071393, 0.081730600039009, 0.19344170001568273, 0.11612959997728467, 0.12381329998606816, 0.16034130001207814]","[0.060790799965616316, 0.05013510002754629, 0.040586099959909916, 0.015426999947521836, 0.01533750002272427, 0.047489300020970404, 0.015424399985931814, 0.017066300031729043, 0.04174129996681586, 0.02125240000896156, 0.016342399991117418, 0.16381190001266077, 0.02537540002958849, 0.19345160003285855, 0.00028789998032152653, 0.04389959998661652, 0.16034880001097918]",0,,,,,,,,,,,,,,,,,A,train_y,x_increasing_steps,top_left,2024-10-29_18h08.44.275,HideSeek_v1,2022.2.5,59.848774122612674,
3,0,3,0,1,0,1,0,,,,,,,,,,,,,,,conditions/schedules/train_y_first/x_increasing_steps/top_left/instructions/Slide18.png,conditions/schedules/train_y_first/x_increasing_steps/top_left/instructions/Audio18.wav,41.703127999964636,41.698313479963694,18,"[2.156699799990747, 0.3430309999966994, 0.3172010999987833, 0.24030379997566342, 0.2636276999837719, 0.24638969998341054, 0.24752999999327585, 0.23132979997899383, 0.18071000004420057, 0.2072875999729149, 0.1875859000138007, 0.16380400001071393, 0.081730600039009, 0.19344170001568273, 0.11612959997728467, 0.12381329998606816, 0.16034130001207814, 0.14789480000035837]","[0.060790799965616316, 0.05013510002754629, 0.040586099959909916, 0.015426999947521836, 0.01533750002272427, 0.047489300020970404, 0.015424399985931814, 0.017066300031729043, 0.04174129996681586, 0.02125240000896156, 0.016342399991117418, 0.16381190001266077, 0.02537540002958849, 0.19345160003285855, 0.00028789998032152653, 0.04389959998661652, 0.017907400033436716, 0.1479022999992594]",0,,,,,,,,,,,,,,,,,A,train_y,x_increasing_steps,top_left,2024-10-29_18h08.44.275,HideSeek_v1,2022.2.5,59.848774122612674,
3,0,3,0,2,0,2,0,,,,,,,,,,,,,,,conditions/schedules/train_y_first/x_increasing_steps/top_left/instructions/Slide19.png,conditions/schedules/train_y_first/x_increasing_steps/top_left/instructions/Audio19.wav,41.9034912000061,41.89855717996834,19,"[2.156699799990747, 0.3430309999966994, 0.3172010999987833, 0.24030379997566342, 0.2636276999837719, 0.24638969998341054, 0.24752999999327585, 0.23132979997899383, 0.18071000004420057, 0.2072875999729149, 0.1875859000138007, 0.16380400001071393, 0.081730600039009, 0.19344170001568273, 0.11612959997728467, 0.12381329998606816, 0.16034130001207814, 0.14789480000035837, 0.14626309997402132]","[0.060790799965616316, 0.05013510002754629, 0.040586099959909916, 0.015426999947521836, 0.01533750002272427, 0.047489300020970404, 0.015424399985931814, 0.017066300031729043, 0.04174129996681586, 0.02125240000896156, 0.016342399991117418, 0.16381190001266077, 0.02537540002958849, 0.19345160003285855, 0.00028789998032152653, 0.04389959998661652, 0.017907400033436716, 0.016182999999728054, 0.14627119997749105]",0,,,,,,,,,,,,,,,,,A,train_y,x_increasing_steps,top_left,2024-10-29_18h08.44.275,HideSeek_v1,2022.2.5,59.848774122612674,
3,0,3,0,3,0,3,0,,,,,,,,,,,,,,,conditions/schedules/train_y_first/x_increasing_steps/top_left/instructions/Slide20.png,conditions/schedules/train_y_first/x_increasing_steps/top_left/instructions/Audio20.wav,42.11558619997231,42.099494480015714,20,"[2.156699799990747, 0.3430309999966994, 0.3172010999987833, 0.24030379997566342, 0.2636276999837719, 0.24638969998341054, 0.24752999999327585, 0.23132979997899383, 0.18071000004420057, 0.2072875999729149, 0.1875859000138007, 0.16380400001071393, 0.081730600039009, 0.19344170001568273, 0.11612959997728467, 0.12381329998606816, 0.16034130001207814, 0.14789480000035837, 0.14626309997402132, 0.14060599997173995]","[0.060790799965616316, 0.05013510002754629, 0.040586099959909916, 0.015426999947521836, 0.01533750002272427, 0.047489300020970404, 0.015424399985931814, 0.017066300031729043, 0.04174129996681586, 0.02125240000896156, 0.016342399991117418, 0.16381190001266077, 0.02537540002958849, 0.19345160003285855, 0.00028789998032152653, 0.04389959998661652, 0.017907400033436716, 0.016182999999728054, 0.023571099969558418, 0.14061279996531084]",0,,,,,,,,,,,,,,,,,A,train_y,x_increasing_steps,top_left,2024-10-29_18h08.44.275,HideSeek_v1,2022.2.5,59.848774122612674,
3,0,3,0,,,,,,,,,,,,,,,,,,,,,,,,,,,,,17,0.7,0,0,99,1,30,0,conditions/inputTrain_1.1.xlsx,99,1,1,1,0,A,train_y,x_increasing_steps,top_left,2024-10-29_18h08.44.275,HideSeek_v1,2022.2.5,59.848774122612674,
4,0,4,0,0,0,0,0,,,,,,,,,,,,,,,conditions/schedules/train_y_first/x_increasing_steps/top_left/instructions/Slide21.png,conditions/schedules/train_y_first/x_increasing_steps/top_left/instructions/Audio21.wav,42.38314140000148,42.36535995997256,21,"[2.156699799990747, 0.3430309999966994, 0.3172010999987833, 0.24030379997566342, 0.2636276999837719, 0.24638969998341054, 0.24752999999327585, 0.23132979997899383, 0.18071000004420057, 0.2072875999729149, 0.1875859000138007, 0.16380400001071393, 0.081730600039009, 0.19344170001568273, 0.11612959997728467, 0.12381329998606816, 0.16034130001207814, 0.14789480000035837, 0.14626309997402132, 0.14060599997173995, 0.06679159996565431]","[0.060790799965616316, 0.05013510002754629, 0.040586099959909916, 0.015426999947521836, 0.01533750002272427, 0.047489300020970404, 0.015424399985931814, 0.017066300031729043, 0.04174129996681586, 0.02125240000896156, 0.016342399991117418, 0.16381190001266077, 0.02537540002958849, 0.19345160003285855, 0.00028789998032152653, 0.04389959998661652, 0.017907400033436716, 0.016182999999728054, 0.023571099969558418, 0.14061279996531084, 0.06680410000262782]",0,,,,,,,,,,,,,,,,,A,train_y,x_increasing_steps,top_left,2024-10-29_18h08.44.275,HideSeek_v1,2022.2.5,59.848774122612674,
4,0,4,0,,,,,,,,,,,,,,,,,,,,,,,,,,,,,17,0.7,0,0,99,1,30,0,conditions/inputTrain_1.1.xlsx,99,1,1,1,0,A,train_y,x_increasing_steps,top_left,2024-10-29_18h08.44.275,HideSeek_v1,2022.2.5,59.848774122612674,
5,0,5,0,0,0,0,0,,,,,,,,,,,,,,,conditions/schedules/train_y_first/x_increasing_steps/top_left/instructions/Slide22.png,conditions/schedules/train_y_first/x_increasing_steps/top_left/instructions/Audio22.wav,42.59868309996091,42.58899789996212,22,"[2.156699799990747, 0.3430309999966994, 0.3172010999987833, 0.24030379997566342, 0.2636276999837719, 0.24638969998341054, 0.24752999999327585, 0.23132979997899383, 0.18071000004420057, 0.2072875999729149, 0.1875859000138007, 0.16380400001071393, 0.081730600039009, 0.19344170001568273, 0.11612959997728467, 0.12381329998606816, 0.16034130001207814, 0.14789480000035837, 0.14626309997402132, 0.14060599997173995, 0.06679159996565431, 0.042858999979216605]","[0.060790799965616316, 0.05013510002754629, 0.040586099959909916, 0.015426999947521836, 0.01533750002272427, 0.047489300020970404, 0.015424399985931814, 0.017066300031729043, 0.04174129996681586, 0.02125240000896156, 0.016342399991117418, 0.16381190001266077, 0.02537540002958849, 0.19345160003285855, 0.00028789998032152653, 0.04389959998661652, 0.017907400033436716, 0.016182999999728054, 0.023571099969558418, 0.14061279996531084, 0.06680410000262782, 0.04286589997354895]",0,,,,,,,,,,,,,,,,,A,train_y,x_increasing_steps,top_left,2024-10-29_18h08.44.275,HideSeek_v1,2022.2.5,59.848774122612674,
5,0,5,0,,,,,,,,,,,,,,,,,,,,,,,,,,,,,17,0.7,0,0,99,1,30,0,conditions/inputTrain_1.1.xlsx,99,1,1,1,0,A,train_y,x_increasing_steps,top_left,2024-10-29_18h08.44.275,HideSeek_v1,2022.2.5,59.848774122612674,
6,0,6,0,0,0,0,0,,,,,,,,,,,,,,,conditions/schedules/train_y_first/x_increasing_steps/top_left/instructions/Slide23.png,conditions/schedules/train_y_first/x_increasing_steps/top_left/instructions/Audio23.wav,42.832133599964436,42.78121529996861,23,"[2.156699799990747, 0.3430309999966994, 0.3172010999987833, 0.24030379997566342, 0.2636276999837719, 0.24638969998341054, 0.24752999999327585, 0.23132979997899383, 0.18071000004420057, 0.2072875999729149, 0.1875859000138007, 0.16380400001071393, 0.081730600039009, 0.19344170001568273, 0.11612959997728467, 0.12381329998606816, 0.16034130001207814, 0.14789480000035837, 0.14626309997402132, 0.14060599997173995, 0.06679159996565431, 0.042858999979216605, 0.06254469999112189]","[0.060790799965616316, 0.05013510002754629, 0.040586099959909916, 0.015426999947521836, 0.01533750002272427, 0.047489300020970404, 0.015424399985931814, 0.017066300031729043, 0.04174129996681586, 0.02125240000896156, 0.016342399991117418, 0.16381190001266077, 0.02537540002958849, 0.19345160003285855, 0.00028789998032152653, 0.04389959998661652, 0.017907400033436716, 0.016182999999728054, 0.023571099969558418, 0.14061279996531084, 0.06680410000262782, 0.04286589997354895, 0.06255159998545423]",0,,,,,,,,,,,,,,,,,A,train_y,x_increasing_steps,top_left,2024-10-29_18h08.44.275,HideSeek_v1,2022.2.5,59.848774122612674,
6,0,6,0,1,0,1,0,,,,,,,,,,,,,,,conditions/schedules/train_y_first/x_increasing_steps/top_left/instructions/Slide24.png,conditions/schedules/train_y_first/x_increasing_steps/top_left/instructions/Audio24.wav,42.91550569998799,42.89848047996639,24,"[2.156699799990747, 0.3430309999966994, 0.3172010999987833, 0.24030379997566342, 0.2636276999837719, 0.24638969998341054, 0.24752999999327585, 0.23132979997899383, 0.18071000004420057, 0.2072875999729149, 0.1875859000138007, 0.16380400001071393, 0.081730600039009, 0.19344170001568273, 0.11612959997728467, 0.12381329998606816, 0.16034130001207814, 0.14789480000035837, 0.14626309997402132, 0.14060599997173995, 0.06679159996565431, 0.042858999979216605, 0.06254469999112189, 0.1325834000017494]","[0.060790799965616316, 0.05013510002754629, 0.040586099959909916, 0.015426999947521836, 0.01533750002272427, 0.047489300020970404, 0.015424399985931814, 0.017066300031729043, 0.04174129996681586, 0.02125240000896156, 0.016342399991117418, 0.16381190001266077, 0.02537540002958849, 0.19345160003285855, 0.00028789998032152653, 0.04389959998661652, 0.017907400033436716, 0.016182999999728054, 0.023571099969558418, 0.14061279996531084, 0.06680410000262782, 0.04286589997354895, 0.00020160002168267965, 0.13258989999303594]",0,,,,,,,,,,,,,,,,,A,train_y,x_increasing_steps,top_left,2024-10-29_18h08.44.275,HideSeek_v1,2022.2.5,59.848774122612674,
6,0,6,0,2,0,2,0,,,,,,,,,,,,,,,conditions/schedules/train_y_first/x_increasing_steps/top_left/instructions/Slide25.png,conditions/schedules/train_y_first/x_increasing_steps/top_left/instructions/Audio25.wav,43.098845099972095,43.08887357999338,25,"[2.156699799990747, 0.3430309999966994, 0.3172010999987833, 0.24030379997566342, 0.2636276999837719, 0.24638969998341054, 0.24752999999327585, 0.23132979997899383, 0.18071000004420057, 0.2072875999729149, 0.1875859000138007, 0.16380400001071393, 0.081730600039009, 0.19344170001568273, 0.11612959997728467, 0.12381329998606816, 0.16034130001207814, 0.14789480000035837, 0.14626309997402132, 0.14060599997173995, 0.06679159996565431, 0.042858999979216605, 0.06254469999112189, 0.1325834000017494, 0.17145919997710735]","[0.060790799965616316, 0.05013510002754629, 0.040586099959909916, 0.015426999947521836, 0.01533750002272427, 0.047489300020970404, 0.015424399985931814, 0.017066300031729043, 0.04174129996681586, 0.02125240000896156, 0.016342399991117418, 0.16381190001266077, 0.02537540002958849, 0.19345160003285855, 0.00028789998032152653, 0.04389959998661652, 0.017907400033436716, 0.016182999999728054, 0.023571099969558418, 0.14061279996531084, 0.06680410000262782, 0.04286589997354895, 0.00020160002168267965, 0.0001962999813258648, 0.17146729998057708]",0,,,,,,,,,,,,,,,,,A,train_y,x_increasing_steps,top_left,2024-10-29_18h08.44.275,HideSeek_v1,2022.2.5,59.848774122612674,
6,0,6,0,,,,,,,,,,,,,,,,,,,,,,,,,,,,,17,0.7,0,0,99,1,30,0,conditions/inputTrain_1.1.xlsx,99,1,1,1,0,A,train_y,x_increasing_steps,top_left,2024-10-29_18h08.44.275,HideSeek_v1,2022.2.5,59.848774122612674,
7,0,7,0,0,0,0,0,,,,,,,,,,,,,,,conditions/schedules/train_y_first/x_increasing_steps/top_left/instructions/Slide26.png,conditions/schedules/train_y_first/x_increasing_steps/top_left/instructions/Audio26.wav,43.384748000011314,43.38113536001183,26,"[2.156699799990747, 0.3430309999966994, 0.3172010999987833, 0.24030379997566342, 0.2636276999837719, 0.24638969998341054, 0.24752999999327585, 0.23132979997899383, 0.18071000004420057, 0.2072875999729149, 0.1875859000138007, 0.16380400001071393, 0.081730600039009, 0.19344170001568273, 0.11612959997728467, 0.12381329998606816, 0.16034130001207814, 0.14789480000035837, 0.14626309997402132, 0.14060599997173995, 0.06679159996565431, 0.042858999979216605, 0.06254469999112189, 0.1325834000017494, 0.17145919997710735, 0.1300895999884233]","[0.060790799965616316, 0.05013510002754629, 0.040586099959909916, 0.015426999947521836, 0.01533750002272427, 0.047489300020970404, 0.015424399985931814, 0.017066300031729043, 0.04174129996681586, 0.02125240000896156, 0.016342399991117418, 0.16381190001266077, 0.02537540002958849, 0.19345160003285855, 0.00028789998032152653, 0.04389959998661652, 0.017907400033436716, 0.016182999999728054, 0.023571099969558418, 0.14061279996531084, 0.06680410000262782, 0.04286589997354895, 0.00020160002168267965, 0.0001962999813258648, 0.17146729998057708, 0.1301005000132136]",0,,,,,,,,,,,,,,,,,A,train_y,x_increasing_steps,top_left,2024-10-29_18h08.44.275,HideSeek_v1,2022.2.5,59.848774122612674,
7,0,7,0,,,,,,,,,,,,,,,,,,,,,,,,,,,,,17,0.7,0,0,99,1,30,0,conditions/inputTrain_1.1.xlsx,99,1,1,1,0,A,train_y,x_increasing_steps,top_left,2024-10-29_18h08.44.275,HideSeek_v1,2022.2.5,59.848774122612674,
8,0,8,0,0,0,0,0,,,,,,,,,,,,,,,conditions/schedules/train_y_first/x_increasing_steps/top_left/instructions/Slide27.png,conditions/schedules/train_y_first/x_increasing_steps/top_left/instructions/Audio27.wav,43.649039299984,43.63089786000783,27,"[2.156699799990747, 0.3430309999966994, 0.3172010999987833, 0.24030379997566342, 0.2636276999837719, 0.24638969998341054, 0.24752999999327585, 0.23132979997899383, 0.18071000004420057, 0.2072875999729149, 0.1875859000138007, 0.16380400001071393, 0.081730600039009, 0.19344170001568273, 0.11612959997728467, 0.12381329998606816, 0.16034130001207814, 0.14789480000035837, 0.14626309997402132, 0.14060599997173995, 0.06679159996565431, 0.042858999979216605, 0.06254469999112189, 0.1325834000017494, 0.17145919997710735, 0.1300895999884233, 0.14165040000807494]","[0.060790799965616316, 0.05013510002754629, 0.040586099959909916, 0.015426999947521836, 0.01533750002272427, 0.047489300020970404, 0.015424399985931814, 0.017066300031729043, 0.04174129996681586, 0.02125240000896156, 0.016342399991117418, 0.16381190001266077, 0.02537540002958849, 0.19345160003285855, 0.00028789998032152653, 0.04389959998661652, 0.017907400033436716, 0.016182999999728054, 0.023571099969558418, 0.14061279996531084, 0.06680410000262782, 0.04286589997354895, 0.00020160002168267965, 0.0001962999813258648, 0.17146729998057708, 0.1301005000132136, 0.14165790000697598]",0,,,,,,,,,,,,,,,,,A,train_y,x_increasing_steps,top_left,2024-10-29_18h08.44.275,HideSeek_v1,2022.2.5,59.848774122612674,
8,0,8,0,,,,,,,,,,,,,,,,,,,,,,,,,,,,,17,0.7,0,0,99,1,30,0,conditions/inputTrain_1.1.xlsx,99,1,1,1,0,A,train_y,x_increasing_steps,top_left,2024-10-29_18h08.44.275,HideSeek_v1,2022.2.5,59.848774122612674,
9,0,9,0,0,0,0,0,,,,,,,,,,,,,,,conditions/schedules/train_y_first/x_increasing_steps/top_left/instructions/Slide28.png,conditions/schedules/train_y_first/x_increasing_steps/top_left/instructions/Audio28.wav,43.9538558999775,43.94769782001386,28,"[2.156699799990747, 0.3430309999966994, 0.3172010999987833, 0.24030379997566342, 0.2636276999837719, 0.24638969998341054, 0.24752999999327585, 0.23132979997899383, 0.18071000004420057, 0.2072875999729149, 0.1875859000138007, 0.16380400001071393, 0.081730600039009, 0.19344170001568273, 0.11612959997728467, 0.12381329998606816, 0.16034130001207814, 0.14789480000035837, 0.14626309997402132, 0.14060599997173995, 0.06679159996565431, 0.042858999979216605, 0.06254469999112189, 0.1325834000017494, 0.17145919997710735, 0.1300895999884233, 0.14165040000807494, 0.13203750003594905]","[0.060790799965616316, 0.05013510002754629, 0.040586099959909916, 0.015426999947521836, 0.01533750002272427, 0.047489300020970404, 0.015424399985931814, 0.017066300031729043, 0.04174129996681586, 0.02125240000896156, 0.016342399991117418, 0.16381190001266077, 0.02537540002958849, 0.19345160003285855, 0.00028789998032152653, 0.04389959998661652, 0.017907400033436716, 0.016182999999728054, 0.023571099969558418, 0.14061279996531084, 0.06680410000262782, 0.04286589997354895, 0.00020160002168267965, 0.0001962999813258648, 0.17146729998057708, 0.1301005000132136, 0.14165790000697598, 0.13204619998577982]",0,,,,,,,,,,,,,,,,,A,train_y,x_increasing_steps,top_left,2024-10-29_18h08.44.275,HideSeek_v1,2022.2.5,59.848774122612674,
9,0,9,0,1,0,1,0,,,,,,,,,,,,,,,conditions/schedules/train_y_first/x_increasing_steps/top_left/instructions/Slide29.png,conditions/schedules/train_y_first/x_increasing_steps/top_left/instructions/Audio29.wav,44.14875409996603,44.13206508000149,29,"[2.156699799990747, 0.3430309999966994, 0.3172010999987833, 0.24030379997566342, 0.2636276999837719, 0.24638969998341054, 0.24752999999327585, 0.23132979997899383, 0.18071000004420057, 0.2072875999729149, 0.1875859000138007, 0.16380400001071393, 0.081730600039009, 0.19344170001568273, 0.11612959997728467, 0.12381329998606816, 0.16034130001207814, 0.14789480000035837, 0.14626309997402132, 0.14060599997173995, 0.06679159996565431, 0.042858999979216605, 0.06254469999112189, 0.1325834000017494, 0.17145919997710735, 0.1300895999884233, 0.14165040000807494, 0.13203750003594905, 0.390597700024955]","[0.060790799965616316, 0.05013510002754629, 0.040586099959909916, 0.015426999947521836, 0.01533750002272427, 0.047489300020970404, 0.015424399985931814, 0.017066300031729043, 0.04174129996681586, 0.02125240000896156, 0.016342399991117418, 0.16381190001266077, 0.02537540002958849, 0.19345160003285855, 0.00028789998032152653, 0.04389959998661652, 0.017907400033436716, 0.016182999999728054, 0.023571099969558418, 0.14061279996531084, 0.06680410000262782, 0.04286589997354895, 0.00020160002168267965, 0.0001962999813258648, 0.17146729998057708, 0.1301005000132136, 0.14165790000697598, 0.03999050002312288, 0.39060630003223196]",0,,,,,,,,,,,,,,,,,A,train_y,x_increasing_steps,top_left,2024-10-29_18h08.44.275,HideSeek_v1,2022.2.5,59.848774122612674,
9,0,9,0,2,0,2,0,,,,,,,,,,,,,,,conditions/schedules/train_y_first/x_increasing_steps/top_left/instructions/Slide30.png,conditions/schedules/train_y_first/x_increasing_steps/top_left/instructions/Audio30.wav,44.57235390000278,44.565218460012694,30,"[2.156699799990747, 0.3430309999966994, 0.3172010999987833, 0.24030379997566342, 0.2636276999837719, 0.24638969998341054, 0.24752999999327585, 0.23132979997899383, 0.18071000004420057, 0.2072875999729149, 0.1875859000138007, 0.16380400001071393, 0.081730600039009, 0.19344170001568273, 0.11612959997728467, 0.12381329998606816, 0.16034130001207814, 0.14789480000035837, 0.14626309997402132, 0.14060599997173995, 0.06679159996565431, 0.042858999979216605, 0.06254469999112189, 0.1325834000017494, 0.17145919997710735, 0.1300895999884233, 0.14165040000807494, 0.13203750003594905, 0.390597700024955, 0.34603419998893514]","[0.060790799965616316, 0.05013510002754629, 0.040586099959909916, 0.015426999947521836, 0.01533750002272427, 0.047489300020970404, 0.015424399985931814, 0.017066300031729043, 0.04174129996681586, 0.02125240000896156, 0.016342399991117418, 0.16381190001266077, 0.02537540002958849, 0.19345160003285855, 0.00028789998032152653, 0.04389959998661652, 0.017907400033436716, 0.016182999999728054, 0.023571099969558418, 0.14061279996531084, 0.06680410000262782, 0.04286589997354895, 0.00020160002168267965, 0.0001962999813258648, 0.17146729998057708, 0.1301005000132136, 0.14165790000697598, 0.03999050002312288, 0.060162900015711784, 0.346042099990882]",0,,,,,,,,,,,,,,,,,A,train_y,x_increasing_steps,top_left,2024-10-29_18h08.44.275,HideSeek_v1,2022.2.5,59.848774122612674,
9,0,9,0,3,0,3,0,,,,,,,,,,,,,,,conditions/schedules/train_y_first/x_increasing_steps/top_left/instructions/Slide31.png,conditions/schedules/train_y_first/x_increasing_steps/top_left/instructions/Audio31.wav,44.98235060001025,44.96662287997315,31,"[2.156699799990747, 0.3430309999966994, 0.3172010999987833, 0.24030379997566342, 0.2636276999837719, 0.24638969998341054, 0.24752999999327585, 0.23132979997899383, 0.18071000004420057, 0.2072875999729149, 0.1875859000138007, 0.16380400001071393, 0.081730600039009, 0.19344170001568273, 0.11612959997728467, 0.12381329998606816, 0.16034130001207814, 0.14789480000035837, 0.14626309997402132, 0.14060599997173995, 0.06679159996565431, 0.042858999979216605, 0.06254469999112189, 0.1325834000017494, 0.17145919997710735, 0.1300895999884233, 0.14165040000807494, 0.13203750003594905, 0.390597700024955, 0.34603419998893514, 0.30540660000406206]","[0.060790799965616316, 0.05013510002754629, 0.040586099959909916, 0.015426999947521836, 0.01533750002272427, 0.047489300020970404, 0.015424399985931814, 0.017066300031729043, 0.04174129996681586, 0.02125240000896156, 0.016342399991117418, 0.16381190001266077, 0.02537540002958849, 0.19345160003285855, 0.00028789998032152653, 0.04389959998661652, 0.017907400033436716, 0.016182999999728054, 0.023571099969558418, 0.14061279996531084, 0.06680410000262782, 0.04286589997354895, 0.00020160002168267965, 0.0001962999813258648, 0.17146729998057708, 0.1301005000132136, 0.14165790000697598, 0.03999050002312288, 0.060162900015711784, 0.03782929998124018, 0.3054124999907799]",0,,,,,,,,,,,,,,,,,A,train_y,x_increasing_steps,top_left,2024-10-29_18h08.44.275,HideSeek_v1,2022.2.5,59.848774122612674,
9,0,9,0,,,,,,,,,,,,,,,,,,,,,,,,,,,,,17,0.7,0,0,99,1,30,0,conditions/inputTrain_1.1.xlsx,99,1,1,1,0,A,train_y,x_increasing_steps,top_left,2024-10-29_18h08.44.275,HideSeek_v1,2022.2.5,59.848774122612674,
