trialTrain,x_fixStart,y_fixStart,x_corrSteps,y_corrSteps,x_nrSteps,y_nrSteps,alienID,testlen,version,trial_label,beforeExpLoop.thisRepN,beforeExpLoop.thisTrialN,beforeExpLoop.thisN,beforeExpLoop.thisIndex,mini_instr_trials.thisRepN,mini_instr_trials.thisTrialN,mini_instr_trials.thisN,mini_instr_trials.thisIndex,instrLoop.thisRepN,instrLoop.thisTrialN,instrLoop.thisN,instrLoop.thisIndex,repeat_prac.thisRepN,repeat_prac.thisTrialN,repeat_prac.thisN,repeat_prac.thisIndex,trainLoop.thisRepN,trainLoop.thisTrialN,trainLoop.thisN,trainLoop.thisIndex,experiment.thisRepN,experiment.thisTrialN,experiment.thisN,experiment.thisIndex,moveLoop_test.thisRepN,moveLoop_test.thisTrialN,moveLoop_test.thisN,moveLoop_test.thisIndex,mini_instr2_trials.thisRepN,mini_instr2_trials.thisTrialN,mini_instr2_trials.thisN,mini_instr2_trials.thisIndex,start_all_time,url,slideStim,audioStim,slides.started,sounds.started,nextButton.numClicks,nextButton.timesOn,nextButton.timesOff,prev_but.numClicks,prev_but.timesOn,prev_but.timesOff,perfthres,percthres,earlierperf,earlystop,nextPrac,fileidx,praclen,saveACC_train,pracFile,nextPrac_train,addNrep,fileidx_endr,repExp,showearly,alienStim,gridImage_3.started,alienImage_test.started,startPos_test.started,movePos_test.started,key_resp_test.started,wLy_dir_test,wLx_dir_test,buttonPress_test,RTchoice_test,cumAcctest,saveACC_choice,corrAns_test,x_movePos_end,y_movePos_end,key_resp_test.keys,key_resp_test.rt,fixation_text.started,fixation_text.stopped,draw_alienStim,draw_alienID,test_x,nrepcount,total_time,end_all_time,key_resp_3.keys,slides_2.started,sounds_3.started,nextButton_2.numClicks,nextButton_2.timesOn,nextButton_2.timesOff,prev_but_2.numClicks,prev_but_2.timesOn,prev_but_2.timesOff,bye.started,participant,train_first,direction of x,starting corner,date,expName,psychopyVersion,frameRate,
,,,,,,,,,,,0,0,0,0,0,0,0,0,,,,,,,,,,,,,,,,,,,,,,,,,start_all_time,testround,conditions/schedules/train_y_first/x_increasing_steps/bottom_left/instructions/Slide1.png,conditions/schedules/train_y_first/x_increasing_steps/bottom_left/instructions/Audio1.wav,36.878056200104766,36.76163101922721,1,[3.268592400010675],[3.2686000999528915],0,,,,,,,,,,,,,,,,,,,,,,,,,,,,,,,,,,,,,,,,,,,,,,,,,,,,A,train_y,x_increasing_steps,bottom_left,2024-10-23_13h38.11.441,HideSeek_v1,2022.2.5,60.12639769574179,
,,,,,,,,,,,0,0,0,0,1,0,1,0,,,,,,,,,,,,,,,,,,,,,,,,,,,conditions/schedules/train_y_first/x_increasing_steps/bottom_left/instructions/Slide2.png,conditions/schedules/train_y_first/x_increasing_steps/bottom_left/instructions/Audio2.wav,40.12343300005887,40.11215755005833,2,"[3.268592400010675, 0.770322100026533]","[0.12031110003590584, 0.770328399958089]",0,,,,,,,,,,,,,,,,,,,,,,,,,,,,,,,,,,,,,,,,,,,,,,,,,,,,A,train_y,x_increasing_steps,bottom_left,2024-10-23_13h38.11.441,HideSeek_v1,2022.2.5,60.12639769574179,
,,,,,,,,,,,0,0,0,0,2,0,2,0,,,,,,,,,,,,,,,,,,,,,,,,,,,conditions/schedules/train_y_first/x_increasing_steps/bottom_left/instructions/Slide3.png,conditions/schedules/train_y_first/x_increasing_steps/bottom_left/instructions/Audio3.wav,40.94206790009048,40.92798641000409,3,"[3.268592400010675, 0.770322100026533, 0.48515119997318834]","[0.12031110003590584, 0.15226449992042035, 0.48515839991159737]",0,,,,,,,,,,,,,,,,,,,,,,,,,,,,,,,,,,,,,,,,,,,,,,,,,,,,A,train_y,x_increasing_steps,bottom_left,2024-10-23_13h38.11.441,HideSeek_v1,2022.2.5,60.12639769574179,
,,,,,,,,,,,0,0,0,0,3,0,3,0,,,,,,,,,,,,,,,,,,,,,,,,,,,conditions/schedules/train_y_first/x_increasing_steps/bottom_left/instructions/Slide4.png,conditions/schedules/train_y_first/x_increasing_steps/bottom_left/instructions/Audio4.wav,41.474382400047034,41.460880310065114,4,"[3.268592400010675, 0.770322100026533, 0.48515119997318834, 0.46908349997829646]","[0.12031110003590584, 0.15226449992042035, 0.16853859997354448, 0.469090300030075]",0,,,,,,,,,,,,,,,,,,,,,,,,,,,,,,,,,,,,,,,,,,,,,,,,,,,,A,train_y,x_increasing_steps,bottom_left,2024-10-23_13h38.11.441,HideSeek_v1,2022.2.5,60.12639769574179,
,,,,,,,,,,,0,0,0,0,4,0,4,0,,,,,,,,,,,,,,,,,,,,,,,,,,,conditions/schedules/train_y_first/x_increasing_steps/bottom_left/instructions/Slide5.png,conditions/schedules/train_y_first/x_increasing_steps/bottom_left/instructions/Audio5.wav,41.99399010010529,41.977854810096325,5,"[3.268592400010675, 0.770322100026533, 0.48515119997318834, 0.46908349997829646, 0.8745405999943614]","[0.12031110003590584, 0.15226449992042035, 0.16853859997354448, 0.1577991999220103, 0.8745469999266788]",0,,,,,,,,,,,,,,,,,,,,,,,,,,,,,,,,,,,,,,,,,,,,,,,,,,,,A,train_y,x_increasing_steps,bottom_left,2024-10-23_13h38.11.441,HideSeek_v1,2022.2.5,60.12639769574179,
,,,,,,,,,,,0,0,0,0,5,0,5,0,,,,,,,,,,,,,,,,,,,,,,,,,,,conditions/schedules/train_y_first/x_increasing_steps/bottom_left/instructions/Slide6.png,conditions/schedules/train_y_first/x_increasing_steps/bottom_left/instructions/Audio6.wav,42.89965970010962,42.89447230999358,6,"[3.268592400010675, 0.770322100026533, 0.48515119997318834, 0.46908349997829646, 0.8745405999943614, 0.8604201000416651]","[0.12031110003590584, 0.15226449992042035, 0.16853859997354448, 0.1577991999220103, 0.17546739999670535, 0.8604257000843063]",0,,,,,,,,,,,,,,,,,,,,,,,,,,,,,,,,,,,,,,,,,,,,,,,,,,,,A,train_y,x_increasing_steps,bottom_left,2024-10-23_13h38.11.441,HideSeek_v1,2022.2.5,60.12639769574179,
,,,,,,,,,,,0,0,0,0,6,0,6,0,,,,,,,,,,,,,,,,,,,,,,,,,,,conditions/schedules/train_y_first/x_increasing_steps/bottom_left/instructions/Slide7.png,conditions/schedules/train_y_first/x_increasing_steps/bottom_left/instructions/Audio7.wav,43.80213250010274,43.79441121001728,7,"[3.268592400010675, 0.770322100026533, 0.48515119997318834, 0.46908349997829646, 0.8745405999943614, 0.8604201000416651, 0.6903856999706477]","[0.12031110003590584, 0.15226449992042035, 0.16853859997354448, 0.1577991999220103, 0.17546739999670535, 0.17023709998466074, 0.6903914000140503]",0,,,,,,,,,,,,,,,,,,,,,,,,,,,,,,,,,,,,,,,,,,,,,,,,,,,,A,train_y,x_increasing_steps,bottom_left,2024-10-23_13h38.11.441,HideSeek_v1,2022.2.5,60.12639769574179,
,,,,,,,,,,,0,0,0,0,7,0,7,0,,,,,,,,,,,,,,,,,,,,,,,,,,,conditions/schedules/train_y_first/x_increasing_steps/bottom_left/instructions/Slide8.png,conditions/schedules/train_y_first/x_increasing_steps/bottom_left/instructions/Audio8.wav,44.53266080003232,44.527808210020886,8,"[3.268592400010675, 0.770322100026533, 0.48515119997318834, 0.46908349997829646, 0.8745405999943614, 0.8604201000416651, 0.6903856999706477, 0.5761315000709146]","[0.12031110003590584, 0.15226449992042035, 0.16853859997354448, 0.1577991999220103, 0.17546739999670535, 0.17023709998466074, 0.15993920003529638, 0.5761389000108466]",0,,,,,,,,,,,,,,,,,,,,,,,,,,,,,,,,,,,,,,,,,,,,,,,,,,,,A,train_y,x_increasing_steps,bottom_left,2024-10-23_13h38.11.441,HideSeek_v1,2022.2.5,60.12639769574179,
,,,,,,,,,,,0,0,0,0,8,0,8,0,,,,,,,,,,,,,,,,,,,,,,,,,,,conditions/schedules/train_y_first/x_increasing_steps/bottom_left/instructions/Slide9.png,conditions/schedules/train_y_first/x_increasing_steps/bottom_left/instructions/Audio9.wav,45.17799640004523,45.17733215005137,9,"[3.268592400010675, 0.770322100026533, 0.48515119997318834, 0.46908349997829646, 0.8745405999943614, 0.8604201000416651, 0.6903856999706477, 0.5761315000709146, 0.46501200005877763]","[0.12031110003590584, 0.15226449992042035, 0.16853859997354448, 0.1577991999220103, 0.17546739999670535, 0.17023709998466074, 0.15993920003529638, 0.131582299945876, 0.46502040000632405]",0,,,,,,,,,,,,,,,,,,,,,,,,,,,,,,,,,,,,,,,,,,,,,,,,,,,,A,train_y,x_increasing_steps,bottom_left,2024-10-23_13h38.11.441,HideSeek_v1,2022.2.5,60.12639769574179,
,,,,,,,,,,,0,0,0,0,9,0,9,0,,,,,,,,,,,,,,,,,,,,,,,,,,,conditions/schedules/train_y_first/x_increasing_steps/bottom_left/instructions/Slide10.png,conditions/schedules/train_y_first/x_increasing_steps/bottom_left/instructions/Audio10.wav,45.673304600059055,45.661285540065734,10,"[3.268592400010675, 0.770322100026533, 0.48515119997318834, 0.46908349997829646, 0.8745405999943614, 0.8604201000416651, 0.6903856999706477, 0.5761315000709146, 0.46501200005877763, 1.420696199988015]","[0.12031110003590584, 0.15226449992042035, 0.16853859997354448, 0.1577991999220103, 0.17546739999670535, 0.17023709998466074, 0.15993920003529638, 0.131582299945876, 0.16993159998673946, 1.4207039000466466]",0,,,,,,,,,,,,,,,,,,,,,,,,,,,,,,,,,,,,,,,,,,,,,,,,,,,,A,train_y,x_increasing_steps,bottom_left,2024-10-23_13h38.11.441,HideSeek_v1,2022.2.5,60.12639769574179,
,,,,,,,,,,,0,0,0,0,10,0,10,0,,,,,,,,,,,,,,,,,,,,,,,,,,,conditions/schedules/train_y_first/x_increasing_steps/bottom_left/instructions/Slide11.png,conditions/schedules/train_y_first/x_increasing_steps/bottom_left/instructions/Audio11.wav,47.12990370008629,47.12856781007722,11,"[3.268592400010675, 0.770322100026533, 0.48515119997318834, 0.46908349997829646, 0.8745405999943614, 0.8604201000416651, 0.6903856999706477, 0.5761315000709146, 0.46501200005877763, 1.420696199988015, 4.530058000003919]","[0.12031110003590584, 0.15226449992042035, 0.16853859997354448, 0.1577991999220103, 0.17546739999670535, 0.17023709998466074, 0.15993920003529638, 0.131582299945876, 0.16993159998673946, 0.16292879998218268, 4.5300641999347135]",0,,,,,,,,,,,,,,,,,,,,,,,,,,,,,,,,,,,,,,,,,,,,,,,,,,,,A,train_y,x_increasing_steps,bottom_left,2024-10-23_13h38.11.441,HideSeek_v1,2022.2.5,60.12639769574179,
,,,,,,,,,,,0,0,0,0,11,0,11,0,,,,,,,,,,,,,,,,,,,,,,,,,,,conditions/schedules/train_y_first/x_increasing_steps/bottom_left/instructions/Slide12.png,conditions/schedules/train_y_first/x_increasing_steps/bottom_left/instructions/Audio12.wav,51.70788810006343,51.693804610078224,12,"[3.268592400010675, 0.770322100026533, 0.48515119997318834, 0.46908349997829646, 0.8745405999943614, 0.8604201000416651, 0.6903856999706477, 0.5761315000709146, 0.46501200005877763, 1.420696199988015, 4.530058000003919, 5.6848815000848845]","[0.12031110003590584, 0.15226449992042035, 0.16853859997354448, 0.1577991999220103, 0.17546739999670535, 0.17023709998466074, 0.15993920003529638, 0.131582299945876, 0.16993159998673946, 0.16292879998218268, 0.15098380006384104, 5.684888100018725]",0,,,,,,,,,,,,,,,,,,,,,,,,,,,,,,,,,,,,,,,,,,,,,,,,,,,,A,train_y,x_increasing_steps,bottom_left,2024-10-23_13h38.11.441,HideSeek_v1,2022.2.5,60.12639769574179,
,,,,,,,,,,,0,0,0,0,,,,,,,,,,,,,,,,,,,,,,,,,,,,,,,,,,,,,,,,,17,0.7,0,0,99,1,30,0,conditions/inputTrain_1.1.xlsx,99,1,1,1,0,,,,,,,,,,,,,,,,,,,,,,,,,,,,,,,,,,,,A,train_y,x_increasing_steps,bottom_left,2024-10-23_13h38.11.441,HideSeek_v1,2022.2.5,60.12639769574179,
,,,,,,,,,,,1,0,1,0,0,0,0,0,,,,,,,,,,,,,,,,,,,,,,,,,,,conditions/schedules/train_y_first/x_increasing_steps/bottom_left/instructions/Slide13.png,conditions/schedules/train_y_first/x_increasing_steps/bottom_left/instructions/Audio13.wav,57.532898000092246,57.52755062999204,13,"[3.268592400010675, 0.770322100026533, 0.48515119997318834, 0.46908349997829646, 0.8745405999943614, 0.8604201000416651, 0.6903856999706477, 0.5761315000709146, 0.46501200005877763, 1.420696199988015, 4.530058000003919, 5.6848815000848845, 4.926612399984151]","[0.12031110003590584, 0.15226449992042035, 0.16853859997354448, 0.1577991999220103, 0.17546739999670535, 0.17023709998466074, 0.15993920003529638, 0.131582299945876, 0.16993159998673946, 0.16292879998218268, 0.15098380006384104, 0.07618670002557337, 4.92661920003593]",0,,,,,,,,,,,,,,,,,,,,,,,,,,,,,,,,,,,,,,,,,,,,,,,,,,,,A,train_y,x_increasing_steps,bottom_left,2024-10-23_13h38.11.441,HideSeek_v1,2022.2.5,60.12639769574179,
,,,,,,,,,,,1,0,1,0,1,0,1,0,,,,,,,,,,,,,,,,,,,,,,,,,,,conditions/schedules/train_y_first/x_increasing_steps/bottom_left/instructions/Slide14.png,conditions/schedules/train_y_first/x_increasing_steps/bottom_left/instructions/Audio14.wav,62.520640500006266,62.511460980004635,14,"[3.268592400010675, 0.770322100026533, 0.48515119997318834, 0.46908349997829646, 0.8745405999943614, 0.8604201000416651, 0.6903856999706477, 0.5761315000709146, 0.46501200005877763, 1.420696199988015, 4.530058000003919, 5.6848815000848845, 4.926612399984151, 1.922809400013648]","[0.12031110003590584, 0.15226449992042035, 0.16853859997354448, 0.1577991999220103, 0.17546739999670535, 0.17023709998466074, 0.15993920003529638, 0.131582299945876, 0.16993159998673946, 0.16292879998218268, 0.15098380006384104, 0.07618670002557337, 0.13831119996029884, 1.9228153999429196]",0,,,,,,,,,,,,,,,,,,,,,,,,,,,,,,,,,,,,,,,,,,,,,,,,,,,,A,train_y,x_increasing_steps,bottom_left,2024-10-23_13h38.11.441,HideSeek_v1,2022.2.5,60.12639769574179,
,,,,,,,,,,,1,0,1,0,,,,,,,,,,,,,,,,,,,,,,,,,,,,,,,,,,,,,,,,,17,0.7,0,0,99,1,30,0,conditions/inputTrain_1.1.xlsx,99,1,1,1,0,,,,,,,,,,,,,,,,,,,,,,,,,,,,,,,,,,,,A,train_y,x_increasing_steps,bottom_left,2024-10-23_13h38.11.441,HideSeek_v1,2022.2.5,60.12639769574179,
,,,,,,,,,,,2,0,2,0,0,0,0,0,,,,,,,,,,,,,,,,,,,,,,,,,,,conditions/schedules/train_y_first/x_increasing_steps/bottom_left/instructions/Slide15.png,conditions/schedules/train_y_first/x_increasing_steps/bottom_left/instructions/Audio15.wav,64.57280980003998,64.56136076003314,15,"[3.268592400010675, 0.770322100026533, 0.48515119997318834, 0.46908349997829646, 0.8745405999943614, 0.8604201000416651, 0.6903856999706477, 0.5761315000709146, 0.46501200005877763, 1.420696199988015, 4.530058000003919, 5.6848815000848845, 4.926612399984151, 1.922809400013648, 3.5211580999894068]","[0.12031110003590584, 0.15226449992042035, 0.16853859997354448, 0.1577991999220103, 0.17546739999670535, 0.17023709998466074, 0.15993920003529638, 0.131582299945876, 0.16993159998673946, 0.16292879998218268, 0.15098380006384104, 0.07618670002557337, 0.13831119996029884, 0.08717319997958839, 3.521164699923247]",0,,,,,,,,,,,,,,,,,,,,,,,,,,,,,,,,,,,,,,,,,,,,,,,,,,,,A,train_y,x_increasing_steps,bottom_left,2024-10-23_13h38.11.441,HideSeek_v1,2022.2.5,60.12639769574179,
,,,,,,,,,,,2,0,2,0,1,0,1,0,,,,,,,,,,,,,,,,,,,,,,,,,,,conditions/schedules/train_y_first/x_increasing_steps/bottom_left/instructions/Slide16.png,conditions/schedules/train_y_first/x_increasing_steps/bottom_left/instructions/Audio16.wav,68.16072380007245,68.16157025005668,16,"[3.268592400010675, 0.770322100026533, 0.48515119997318834, 0.46908349997829646, 0.8745405999943614, 0.8604201000416651, 0.6903856999706477, 0.5761315000709146, 0.46501200005877763, 1.420696199988015, 4.530058000003919, 5.6848815000848845, 4.926612399984151, 1.922809400013648, 3.5211580999894068, 0.9828849999466911]","[0.12031110003590584, 0.15226449992042035, 0.16853859997354448, 0.1577991999220103, 0.17546739999670535, 0.17023709998466074, 0.15993920003529638, 0.131582299945876, 0.16993159998673946, 0.16292879998218268, 0.15098380006384104, 0.07618670002557337, 0.13831119996029884, 0.08717319997958839, 0.13198189996182919, 0.9828917999984697]",0,,,,,,,,,,,,,,,,,,,,,,,,,,,,,,,,,,,,,,,,,,,,,,,,,,,,A,train_y,x_increasing_steps,bottom_left,2024-10-23_13h38.11.441,HideSeek_v1,2022.2.5,60.12639769574179,
,,,,,,,,,,,2,0,2,0,,,,,,,,,,,,,,,,,,,,,,,,,,,,,,,,,,,,,,,,,17,0.7,0,0,99,1,30,0,conditions/inputTrain_1.1.xlsx,99,1,1,1,0,,,,,,,,,,,,,,,,,,,,,,,,,,,,,,,,,,,,A,train_y,x_increasing_steps,bottom_left,2024-10-23_13h38.11.441,HideSeek_v1,2022.2.5,60.12639769574179,
,,,,,,,,,,,3,0,3,0,0,0,0,0,,,,,,,,,,,,,,,,,,,,,,,,,,,conditions/schedules/train_y_first/x_increasing_steps/bottom_left/instructions/Slide17.png,conditions/schedules/train_y_first/x_increasing_steps/bottom_left/instructions/Audio17.wav,69.24416140001267,69.24503328998108,17,"[3.268592400010675, 0.770322100026533, 0.48515119997318834, 0.46908349997829646, 0.8745405999943614, 0.8604201000416651, 0.6903856999706477, 0.5761315000709146, 0.46501200005877763, 1.420696199988015, 4.530058000003919, 5.6848815000848845, 4.926612399984151, 1.922809400013648, 3.5211580999894068, 0.9828849999466911, 0.9991254999767989]","[0.12031110003590584, 0.15226449992042035, 0.16853859997354448, 0.1577991999220103, 0.17546739999670535, 0.17023709998466074, 0.15993920003529638, 0.131582299945876, 0.16993159998673946, 0.16292879998218268, 0.15098380006384104, 0.07618670002557337, 0.13831119996029884, 0.08717319997958839, 0.13198189996182919, 0.11570449999999255, 0.9991327000316232]",0,,,,,,,,,,,,,,,,,,,,,,,,,,,,,,,,,,,,,,,,,,,,,,,,,,,,A,train_y,x_increasing_steps,bottom_left,2024-10-23_13h38.11.441,HideSeek_v1,2022.2.5,60.12639769574179,
,,,,,,,,,,,3,0,3,0,1,0,1,0,,,,,,,,,,,,,,,,,,,,,,,,,,,conditions/schedules/train_y_first/x_increasing_steps/bottom_left/instructions/Slide18.png,conditions/schedules/train_y_first/x_increasing_steps/bottom_left/instructions/Audio18.wav,70.29197900008876,70.29428658001125,18,"[3.268592400010675, 0.770322100026533, 0.48515119997318834, 0.46908349997829646, 0.8745405999943614, 0.8604201000416651, 0.6903856999706477, 0.5761315000709146, 0.46501200005877763, 1.420696199988015, 4.530058000003919, 5.6848815000848845, 4.926612399984151, 1.922809400013648, 3.5211580999894068, 0.9828849999466911, 0.9991254999767989, 2.218202800024301]","[0.12031110003590584, 0.15226449992042035, 0.16853859997354448, 0.1577991999220103, 0.17546739999670535, 0.17023709998466074, 0.15993920003529638, 0.131582299945876, 0.16993159998673946, 0.16292879998218268, 0.15098380006384104, 0.07618670002557337, 0.13831119996029884, 0.08717319997958839, 0.13198189996182919, 0.11570449999999255, 0.1501196000026539, 2.2182103000814095]",0,,,,,,,,,,,,,,,,,,,,,,,,,,,,,,,,,,,,,,,,,,,,,,,,,,,,A,train_y,x_increasing_steps,bottom_left,2024-10-23_13h38.11.441,HideSeek_v1,2022.2.5,60.12639769574179,
,,,,,,,,,,,3,0,3,0,2,0,2,0,,,,,,,,,,,,,,,,,,,,,,,,,,,conditions/schedules/train_y_first/x_increasing_steps/bottom_left/instructions/Slide19.png,conditions/schedules/train_y_first/x_increasing_steps/bottom_left/instructions/Audio19.wav,72.56668810010888,72.56140767999459,19,"[3.268592400010675, 0.770322100026533, 0.48515119997318834, 0.46908349997829646, 0.8745405999943614, 0.8604201000416651, 0.6903856999706477, 0.5761315000709146, 0.46501200005877763, 1.420696199988015, 4.530058000003919, 5.6848815000848845, 4.926612399984151, 1.922809400013648, 3.5211580999894068, 0.9828849999466911, 0.9991254999767989, 2.218202800024301, 6.5596221999730915]","[0.12031110003590584, 0.15226449992042035, 0.16853859997354448, 0.1577991999220103, 0.17546739999670535, 0.17023709998466074, 0.15993920003529638, 0.131582299945876, 0.16993159998673946, 0.16292879998218268, 0.15098380006384104, 0.07618670002557337, 0.13831119996029884, 0.08717319997958839, 0.13198189996182919, 0.11570449999999255, 0.1501196000026539, 0.14213199994992465, 6.559629299910739]",0,,,,,,,,,,,,,,,,,,,,,,,,,,,,,,,,,,,,,,,,,,,,,,,,,,,,A,train_y,x_increasing_steps,bottom_left,2024-10-23_13h38.11.441,HideSeek_v1,2022.2.5,60.12639769574179,
,,,,,,,,,,,3,0,3,0,3,0,3,0,,,,,,,,,,,,,,,,,,,,,,,,,,,conditions/schedules/train_y_first/x_increasing_steps/bottom_left/instructions/Slide20.png,conditions/schedules/train_y_first/x_increasing_steps/bottom_left/instructions/Audio20.wav,79.18219780002255,79.17843288003932,20,"[3.268592400010675, 0.770322100026533, 0.48515119997318834, 0.46908349997829646, 0.8745405999943614, 0.8604201000416651, 0.6903856999706477, 0.5761315000709146, 0.46501200005877763, 1.420696199988015, 4.530058000003919, 5.6848815000848845, 4.926612399984151, 1.922809400013648, 3.5211580999894068, 0.9828849999466911, 0.9991254999767989, 2.218202800024301, 6.5596221999730915, 0.9771361999446526]","[0.12031110003590584, 0.15226449992042035, 0.16853859997354448, 0.1577991999220103, 0.17546739999670535, 0.17023709998466074, 0.15993920003529638, 0.131582299945876, 0.16993159998673946, 0.16292879998218268, 0.15098380006384104, 0.07618670002557337, 0.13831119996029884, 0.08717319997958839, 0.13198189996182919, 0.11570449999999255, 0.1501196000026539, 0.14213199994992465, 0.16026929998770356, 0.9771430999971926]",0,,,,,,,,,,,,,,,,,,,,,,,,,,,,,,,,,,,,,,,,,,,,,,,,,,,,A,train_y,x_increasing_steps,bottom_left,2024-10-23_13h38.11.441,HideSeek_v1,2022.2.5,60.12639769574179,
,,,,,,,,,,,3,0,3,0,,,,,,,,,,,,,,,,,,,,,,,,,,,,,,,,,,,,,,,,,17,0.7,0,0,99,1,30,0,conditions/inputTrain_1.1.xlsx,99,1,1,1,0,,,,,,,,,,,,,,,,,,,,,,,,,,,,,,,,,,,,A,train_y,x_increasing_steps,bottom_left,2024-10-23_13h38.11.441,HideSeek_v1,2022.2.5,60.12639769574179,
,,,,,,,,,,,4,0,4,0,0,0,0,0,,,,,,,,,,,,,,,,,,,,,,,,,,,conditions/schedules/train_y_first/x_increasing_steps/bottom_left/instructions/Slide21.png,conditions/schedules/train_y_first/x_increasing_steps/bottom_left/instructions/Audio21.wav,80.27682810008992,80.27792026000098,21,"[3.268592400010675, 0.770322100026533, 0.48515119997318834, 0.46908349997829646, 0.8745405999943614, 0.8604201000416651, 0.6903856999706477, 0.5761315000709146, 0.46501200005877763, 1.420696199988015, 4.530058000003919, 5.6848815000848845, 4.926612399984151, 1.922809400013648, 3.5211580999894068, 0.9828849999466911, 0.9991254999767989, 2.218202800024301, 6.5596221999730915, 0.9771361999446526, 0.582327299984172]","[0.12031110003590584, 0.15226449992042035, 0.16853859997354448, 0.1577991999220103, 0.17546739999670535, 0.17023709998466074, 0.15993920003529638, 0.131582299945876, 0.16993159998673946, 0.16292879998218268, 0.15098380006384104, 0.07618670002557337, 0.13831119996029884, 0.08717319997958839, 0.13198189996182919, 0.11570449999999255, 0.1501196000026539, 0.14213199994992465, 0.16026929998770356, 0.08202450000680983, 0.5823339999187738]",0,,,,,,,,,,,,,,,,,,,,,,,,,,,,,,,,,,,,,,,,,,,,,,,,,,,,A,train_y,x_increasing_steps,bottom_left,2024-10-23_13h38.11.441,HideSeek_v1,2022.2.5,60.12639769574179,
,,,,,,,,,,,4,0,4,0,,,,,,,,,,,,,,,,,,,,,,,,,,,,,,,,,,,,,,,,,17,0.7,0,0,99,1,30,0,conditions/inputTrain_1.1.xlsx,99,1,1,1,0,,,,,,,,,,,,,,,,,,,,,,,,,,,,,,,,,,,,A,train_y,x_increasing_steps,bottom_left,2024-10-23_13h38.11.441,HideSeek_v1,2022.2.5,60.12639769574179,
,,,,,,,,,,,5,0,5,0,0,0,0,0,,,,,,,,,,,,,,,,,,,,,,,,,,,conditions/schedules/train_y_first/x_increasing_steps/bottom_left/instructions/Slide22.png,conditions/schedules/train_y_first/x_increasing_steps/bottom_left/instructions/Audio22.wav,80.98232480010483,80.97748806003948,22,"[3.268592400010675, 0.770322100026533, 0.48515119997318834, 0.46908349997829646, 0.8745405999943614, 0.8604201000416651, 0.6903856999706477, 0.5761315000709146, 0.46501200005877763, 1.420696199988015, 4.530058000003919, 5.6848815000848845, 4.926612399984151, 1.922809400013648, 3.5211580999894068, 0.9828849999466911, 0.9991254999767989, 2.218202800024301, 6.5596221999730915, 0.9771361999446526, 0.582327299984172, 1.3599654999561608]","[0.12031110003590584, 0.15226449992042035, 0.16853859997354448, 0.1577991999220103, 0.17546739999670535, 0.17023709998466074, 0.15993920003529638, 0.131582299945876, 0.16993159998673946, 0.16292879998218268, 0.15098380006384104, 0.07618670002557337, 0.13831119996029884, 0.08717319997958839, 0.13198189996182919, 0.11570449999999255, 0.1501196000026539, 0.14213199994992465, 0.16026929998770356, 0.08202450000680983, 0.07830559997819364, 1.3599727000109851]",0,,,,,,,,,,,,,,,,,,,,,,,,,,,,,,,,,,,,,,,,,,,,,,,,,,,,A,train_y,x_increasing_steps,bottom_left,2024-10-23_13h38.11.441,HideSeek_v1,2022.2.5,60.12639769574179,
,,,,,,,,,,,5,0,5,0,,,,,,,,,,,,,,,,,,,,,,,,,,,,,,,,,,,,,,,,,17,0.7,0,0,99,1,30,0,conditions/inputTrain_1.1.xlsx,99,1,1,1,0,,,,,,,,,,,,,,,,,,,,,,,,,,,,,,,,,,,,A,train_y,x_increasing_steps,bottom_left,2024-10-23_13h38.11.441,HideSeek_v1,2022.2.5,60.12639769574179,
,,,,,,,,,,,6,0,6,0,0,0,0,0,,,,,,,,,,,,,,,,,,,,,,,,,,,conditions/schedules/train_y_first/x_increasing_steps/bottom_left/instructions/Slide23.png,conditions/schedules/train_y_first/x_increasing_steps/bottom_left/instructions/Audio23.wav,82.45121980004478,82.44370878997725,23,"[3.268592400010675, 0.770322100026533, 0.48515119997318834, 0.46908349997829646, 0.8745405999943614, 0.8604201000416651, 0.6903856999706477, 0.5761315000709146, 0.46501200005877763, 1.420696199988015, 4.530058000003919, 5.6848815000848845, 4.926612399984151, 1.922809400013648, 3.5211580999894068, 0.9828849999466911, 0.9991254999767989, 2.218202800024301, 6.5596221999730915, 0.9771361999446526, 0.582327299984172, 1.3599654999561608, 7.0741562999319285]","[0.12031110003590584, 0.15226449992042035, 0.16853859997354448, 0.1577991999220103, 0.17546739999670535, 0.17023709998466074, 0.15993920003529638, 0.131582299945876, 0.16993159998673946, 0.16292879998218268, 0.15098380006384104, 0.07618670002557337, 0.13831119996029884, 0.08717319997958839, 0.13198189996182919, 0.11570449999999255, 0.1501196000026539, 0.14213199994992465, 0.16026929998770356, 0.08202450000680983, 0.07830559997819364, 0.10749909991864115, 7.074162799981423]",0,,,,,,,,,,,,,,,,,,,,,,,,,,,,,,,,,,,,,,,,,,,,,,,,,,,,A,train_y,x_increasing_steps,bottom_left,2024-10-23_13h38.11.441,HideSeek_v1,2022.2.5,60.12639769574179,
,,,,,,,,,,,6,0,6,0,1,0,1,0,,,,,,,,,,,,,,,,,,,,,,,,,,,conditions/schedules/train_y_first/x_increasing_steps/bottom_left/instructions/Slide24.png,conditions/schedules/train_y_first/x_increasing_steps/bottom_left/instructions/Audio24.wav,89.5791431000689,89.57749518002383,24,"[3.268592400010675, 0.770322100026533, 0.48515119997318834, 0.46908349997829646, 0.8745405999943614, 0.8604201000416651, 0.6903856999706477, 0.5761315000709146, 0.46501200005877763, 1.420696199988015, 4.530058000003919, 5.6848815000848845, 4.926612399984151, 1.922809400013648, 3.5211580999894068, 0.9828849999466911, 0.9991254999767989, 2.218202800024301, 6.5596221999730915, 0.9771361999446526, 0.582327299984172, 1.3599654999561608, 7.0741562999319285, 2.080320999957621]","[0.12031110003590584, 0.15226449992042035, 0.16853859997354448, 0.1577991999220103, 0.17546739999670535, 0.17023709998466074, 0.15993920003529638, 0.131582299945876, 0.16993159998673946, 0.16292879998218268, 0.15098380006384104, 0.07618670002557337, 0.13831119996029884, 0.08717319997958839, 0.13198189996182919, 0.11570449999999255, 0.1501196000026539, 0.14213199994992465, 0.16026929998770356, 0.08202450000680983, 0.07830559997819364, 0.10749909991864115, 0.08010129991453141, 2.0803277998929843]",0,,,,,,,,,,,,,,,,,,,,,,,,,,,,,,,,,,,,,,,,,,,,,,,,,,,,A,train_y,x_increasing_steps,bottom_left,2024-10-23_13h38.11.441,HideSeek_v1,2022.2.5,60.12639769574179,
,,,,,,,,,,,6,0,6,0,2,0,2,0,,,,,,,,,,,,,,,,,,,,,,,,,,,conditions/schedules/train_y_first/x_increasing_steps/bottom_left/instructions/Slide25.png,conditions/schedules/train_y_first/x_increasing_steps/bottom_left/instructions/Audio25.wav,91.71451370010618,91.71068918001838,25,"[3.268592400010675, 0.770322100026533, 0.48515119997318834, 0.46908349997829646, 0.8745405999943614, 0.8604201000416651, 0.6903856999706477, 0.5761315000709146, 0.46501200005877763, 1.420696199988015, 4.530058000003919, 5.6848815000848845, 4.926612399984151, 1.922809400013648, 3.5211580999894068, 0.9828849999466911, 0.9991254999767989, 2.218202800024301, 6.5596221999730915, 0.9771361999446526, 0.582327299984172, 1.3599654999561608, 7.0741562999319285, 2.080320999957621, 2.3446442000567913]","[0.12031110003590584, 0.15226449992042035, 0.16853859997354448, 0.1577991999220103, 0.17546739999670535, 0.17023709998466074, 0.15993920003529638, 0.131582299945876, 0.16993159998673946, 0.16292879998218268, 0.15098380006384104, 0.07618670002557337, 0.13831119996029884, 0.08717319997958839, 0.13198189996182919, 0.11570449999999255, 0.1501196000026539, 0.14213199994992465, 0.16026929998770356, 0.08202450000680983, 0.07830559997819364, 0.10749909991864115, 0.08010129991453141, 0.014027800061739981, 2.3446511999936774]",0,,,,,,,,,,,,,,,,,,,,,,,,,,,,,,,,,,,,,,,,,,,,,,,,,,,,A,train_y,x_increasing_steps,bottom_left,2024-10-23_13h38.11.441,HideSeek_v1,2022.2.5,60.12639769574179,
,,,,,,,,,,,6,0,6,0,,,,,,,,,,,,,,,,,,,,,,,,,,,,,,,,,,,,,,,,,17,0.7,0,0,99,1,30,0,conditions/inputTrain_1.1.xlsx,99,1,1,1,0,,,,,,,,,,,,,,,,,,,,,,,,,,,,,,,,,,,,A,train_y,x_increasing_steps,bottom_left,2024-10-23_13h38.11.441,HideSeek_v1,2022.2.5,60.12639769574179,
,,,,,,,,,,,7,0,7,0,0,0,0,0,,,,,,,,,,,,,,,,,,,,,,,,,,,conditions/schedules/train_y_first/x_increasing_steps/bottom_left/instructions/Slide26.png,conditions/schedules/train_y_first/x_increasing_steps/bottom_left/instructions/Audio26.wav,94.17620980006177,94.16122699002736,26,"[3.268592400010675, 0.770322100026533, 0.48515119997318834, 0.46908349997829646, 0.8745405999943614, 0.8604201000416651, 0.6903856999706477, 0.5761315000709146, 0.46501200005877763, 1.420696199988015, 4.530058000003919, 5.6848815000848845, 4.926612399984151, 1.922809400013648, 3.5211580999894068, 0.9828849999466911, 0.9991254999767989, 2.218202800024301, 6.5596221999730915, 0.9771361999446526, 0.582327299984172, 1.3599654999561608, 7.0741562999319285, 2.080320999957621, 2.3446442000567913, 0.46803659992292523]","[0.12031110003590584, 0.15226449992042035, 0.16853859997354448, 0.1577991999220103, 0.17546739999670535, 0.17023709998466074, 0.15993920003529638, 0.131582299945876, 0.16993159998673946, 0.16292879998218268, 0.15098380006384104, 0.07618670002557337, 0.13831119996029884, 0.08717319997958839, 0.13198189996182919, 0.11570449999999255, 0.1501196000026539, 0.14213199994992465, 0.16026929998770356, 0.08202450000680983, 0.07830559997819364, 0.10749909991864115, 0.08010129991453141, 0.014027800061739981, 2.3446511999936774, 0.4680445999838412]",0,,,,,,,,,,,,,,,,,,,,,,,,,,,,,,,,,,,,,,,,,,,,,,,,,,,,A,train_y,x_increasing_steps,bottom_left,2024-10-23_13h38.11.441,HideSeek_v1,2022.2.5,60.12639769574179,
,,,,,,,,,,,7,0,7,0,,,,,,,,,,,,,,,,,,,,,,,,,,,,,,,,,,,,,,,,,17,0.7,0,0,99,1,30,0,conditions/inputTrain_1.1.xlsx,99,1,1,1,0,,,,,,,,,,,,,,,,,,,,,,,,,,,,,,,,,,,,A,train_y,x_increasing_steps,bottom_left,2024-10-23_13h38.11.441,HideSeek_v1,2022.2.5,60.12639769574179,
,,,,,,,,,,,8,0,8,0,0,0,0,0,,,,,,,,,,,,,,,,,,,,,,,,,,,conditions/schedules/train_y_first/x_increasing_steps/bottom_left/instructions/Slide27.png,conditions/schedules/train_y_first/x_increasing_steps/bottom_left/instructions/Audio27.wav,94.76658330007922,94.76107516002376,27,"[3.268592400010675, 0.770322100026533, 0.48515119997318834, 0.46908349997829646, 0.8745405999943614, 0.8604201000416651, 0.6903856999706477, 0.5761315000709146, 0.46501200005877763, 1.420696199988015, 4.530058000003919, 5.6848815000848845, 4.926612399984151, 1.922809400013648, 3.5211580999894068, 0.9828849999466911, 0.9991254999767989, 2.218202800024301, 6.5596221999730915, 0.9771361999446526, 0.582327299984172, 1.3599654999561608, 7.0741562999319285, 2.080320999957621, 2.3446442000567913, 0.46803659992292523, 0.9591971000190824]","[0.12031110003590584, 0.15226449992042035, 0.16853859997354448, 0.1577991999220103, 0.17546739999670535, 0.17023709998466074, 0.15993920003529638, 0.131582299945876, 0.16993159998673946, 0.16292879998218268, 0.15098380006384104, 0.07618670002557337, 0.13831119996029884, 0.08717319997958839, 0.13198189996182919, 0.11570449999999255, 0.1501196000026539, 0.14213199994992465, 0.16026929998770356, 0.08202450000680983, 0.07830559997819364, 0.10749909991864115, 0.08010129991453141, 0.014027800061739981, 2.3446511999936774, 0.014329300029203296, 0.9592036000685766]",0,,,,,,,,,,,,,,,,,,,,,,,,,,,,,,,,,,,,,,,,,,,,,,,,,,,,A,train_y,x_increasing_steps,bottom_left,2024-10-23_13h38.11.441,HideSeek_v1,2022.2.5,60.12639769574179,
,,,,,,,,,,,8,0,8,0,,,,,,,,,,,,,,,,,,,,,,,,,,,,,,,,,,,,,,,,,17,0.7,0,0,99,1,30,0,conditions/inputTrain_1.1.xlsx,99,1,1,1,0,,,,,,,,,,,,,,,,,,,,,,,,,,,,,,,,,,,,A,train_y,x_increasing_steps,bottom_left,2024-10-23_13h38.11.441,HideSeek_v1,2022.2.5,60.12639769574179,
,,,,,,,,,,,9,0,9,0,0,0,0,0,,,,,,,,,,,,,,,,,,,,,,,,,,,conditions/schedules/train_y_first/x_increasing_steps/bottom_left/instructions/Slide28.png,conditions/schedules/train_y_first/x_increasing_steps/bottom_left/instructions/Audio28.wav,95.84135350002907,95.82748249007855,28,"[3.268592400010675, 0.770322100026533, 0.48515119997318834, 0.46908349997829646, 0.8745405999943614, 0.8604201000416651, 0.6903856999706477, 0.5761315000709146, 0.46501200005877763, 1.420696199988015, 4.530058000003919, 5.6848815000848845, 4.926612399984151, 1.922809400013648, 3.5211580999894068, 0.9828849999466911, 0.9991254999767989, 2.218202800024301, 6.5596221999730915, 0.9771361999446526, 0.582327299984172, 1.3599654999561608, 7.0741562999319285, 2.080320999957621, 2.3446442000567913, 0.46803659992292523, 0.9591971000190824, 2.919584700022824]","[0.12031110003590584, 0.15226449992042035, 0.16853859997354448, 0.1577991999220103, 0.17546739999670535, 0.17023709998466074, 0.15993920003529638, 0.131582299945876, 0.16993159998673946, 0.16292879998218268, 0.15098380006384104, 0.07618670002557337, 0.13831119996029884, 0.08717319997958839, 0.13198189996182919, 0.11570449999999255, 0.1501196000026539, 0.14213199994992465, 0.16026929998770356, 0.08202450000680983, 0.07830559997819364, 0.10749909991864115, 0.08010129991453141, 0.014027800061739981, 2.3446511999936774, 0.014329300029203296, 0.9592036000685766, 2.9195908000692725]",0,,,,,,,,,,,,,,,,,,,,,,,,,,,,,,,,,,,,,,,,,,,,,,,,,,,,A,train_y,x_increasing_steps,bottom_left,2024-10-23_13h38.11.441,HideSeek_v1,2022.2.5,60.12639769574179,
,,,,,,,,,,,9,0,9,0,1,0,1,0,,,,,,,,,,,,,,,,,,,,,,,,,,,conditions/schedules/train_y_first/x_increasing_steps/bottom_left/instructions/Slide29.png,conditions/schedules/train_y_first/x_increasing_steps/bottom_left/instructions/Audio29.wav,98.81820010009687,98.8106909800088,29,"[3.268592400010675, 0.770322100026533, 0.48515119997318834, 0.46908349997829646, 0.8745405999943614, 0.8604201000416651, 0.6903856999706477, 0.5761315000709146, 0.46501200005877763, 1.420696199988015, 4.530058000003919, 5.6848815000848845, 4.926612399984151, 1.922809400013648, 3.5211580999894068, 0.9828849999466911, 0.9991254999767989, 2.218202800024301, 6.5596221999730915, 0.9771361999446526, 0.582327299984172, 1.3599654999561608, 7.0741562999319285, 2.080320999957621, 2.3446442000567913, 0.46803659992292523, 0.9591971000190824, 2.919584700022824, 1.0910833000671118]","[0.12031110003590584, 0.15226449992042035, 0.16853859997354448, 0.1577991999220103, 0.17546739999670535, 0.17023709998466074, 0.15993920003529638, 0.131582299945876, 0.16993159998673946, 0.16292879998218268, 0.15098380006384104, 0.07618670002557337, 0.13831119996029884, 0.08717319997958839, 0.13198189996182919, 0.11570449999999255, 0.1501196000026539, 0.14213199994992465, 0.16026929998770356, 0.08202450000680983, 0.07830559997819364, 0.10749909991864115, 0.08010129991453141, 0.014027800061739981, 2.3446511999936774, 0.014329300029203296, 0.9592036000685766, 0.12019859999418259, 1.091090100002475]",0,,,,,,,,,,,,,,,,,,,,,,,,,,,,,,,,,,,,,,,,,,,,,,,,,,,,A,train_y,x_increasing_steps,bottom_left,2024-10-23_13h38.11.441,HideSeek_v1,2022.2.5,60.12639769574179,
,,,,,,,,,,,9,0,9,0,2,0,2,0,,,,,,,,,,,,,,,,,,,,,,,,,,,conditions/schedules/train_y_first/x_increasing_steps/bottom_left/instructions/Slide30.png,conditions/schedules/train_y_first/x_increasing_steps/bottom_left/instructions/Audio30.wav,99.97025350003969,99.96153218003455,30,"[3.268592400010675, 0.770322100026533, 0.48515119997318834, 0.46908349997829646, 0.8745405999943614, 0.8604201000416651, 0.6903856999706477, 0.5761315000709146, 0.46501200005877763, 1.420696199988015, 4.530058000003919, 5.6848815000848845, 4.926612399984151, 1.922809400013648, 3.5211580999894068, 0.9828849999466911, 0.9991254999767989, 2.218202800024301, 6.5596221999730915, 0.9771361999446526, 0.582327299984172, 1.3599654999561608, 7.0741562999319285, 2.080320999957621, 2.3446442000567913, 0.46803659992292523, 0.9591971000190824, 2.919584700022824, 1.0910833000671118, 0.6054735000943765]","[0.12031110003590584, 0.15226449992042035, 0.16853859997354448, 0.1577991999220103, 0.17546739999670535, 0.17023709998466074, 0.15993920003529638, 0.131582299945876, 0.16993159998673946, 0.16292879998218268, 0.15098380006384104, 0.07618670002557337, 0.13831119996029884, 0.08717319997958839, 0.13198189996182919, 0.11570449999999255, 0.1501196000026539, 0.14213199994992465, 0.16026929998770356, 0.08202450000680983, 0.07830559997819364, 0.10749909991864115, 0.08010129991453141, 0.014027800061739981, 2.3446511999936774, 0.014329300029203296, 0.9592036000685766, 0.12019859999418259, 0.054303100099787116, 0.6054809000343084]",0,,,,,,,,,,,,,,,,,,,,,,,,,,,,,,,,,,,,,,,,,,,,,,,,,,,,A,train_y,x_increasing_steps,bottom_left,2024-10-23_13h38.11.441,HideSeek_v1,2022.2.5,60.12639769574179,
,,,,,,,,,,,9,0,9,0,3,0,3,0,,,,,,,,,,,,,,,,,,,,,,,,,,,conditions/schedules/train_y_first/x_increasing_steps/bottom_left/instructions/Slide31.png,conditions/schedules/train_y_first/x_increasing_steps/bottom_left/instructions/Audio31.wav,100.63242710009217,100.62798188005108,31,"[3.268592400010675, 0.770322100026533, 0.48515119997318834, 0.46908349997829646, 0.8745405999943614, 0.8604201000416651, 0.6903856999706477, 0.5761315000709146, 0.46501200005877763, 1.420696199988015, 4.530058000003919, 5.6848815000848845, 4.926612399984151, 1.922809400013648, 3.5211580999894068, 0.9828849999466911, 0.9991254999767989, 2.218202800024301, 6.5596221999730915, 0.9771361999446526, 0.582327299984172, 1.3599654999561608, 7.0741562999319285, 2.080320999957621, 2.3446442000567913, 0.46803659992292523, 0.9591971000190824, 2.919584700022824, 1.0910833000671118, 0.6054735000943765, 4.24458549998235]","[0.12031110003590584, 0.15226449992042035, 0.16853859997354448, 0.1577991999220103, 0.17546739999670535, 0.17023709998466074, 0.15993920003529638, 0.131582299945876, 0.16993159998673946, 0.16292879998218268, 0.15098380006384104, 0.07618670002557337, 0.13831119996029884, 0.08717319997958839, 0.13198189996182919, 0.11570449999999255, 0.1501196000026539, 0.14213199994992465, 0.16026929998770356, 0.08202450000680983, 0.07830559997819364, 0.10749909991864115, 0.08010129991453141, 0.014027800061739981, 2.3446511999936774, 0.014329300029203296, 0.9592036000685766, 0.12019859999418259, 0.054303100099787116, 0.0933182000881061, 4.244592500035651]",0,,,,,,,,,,,,,,,,,,,,,,,,,,,,,,,,,,,,,,,,,,,,,,,,,,,,A,train_y,x_increasing_steps,bottom_left,2024-10-23_13h38.11.441,HideSeek_v1,2022.2.5,60.12639769574179,
,,,,,,,,,,,9,0,9,0,,,,,,,,,,,,,,,,,,,,,,,,,,,,,,,,,,,,,,,,,17,0.7,0,0,99,1,30,0,conditions/inputTrain_1.1.xlsx,99,1,1,1,0,,,,,,,,,,,,,,,,,,,,,,,,,,,,,,,,,,,,A,train_y,x_increasing_steps,bottom_left,2024-10-23_13h38.11.441,HideSeek_v1,2022.2.5,60.12639769574179,
1,3,3,7,4,4,1,22,72,test_exp,untrained,,,,,,,,,,,,,,,,,,,,,0,0,0,0,0,0,0,0,,,,,,,,,,,,,,,,,,,,,,,,,,,,,,,stimuli/alien_stimuli/22.png,105.03130520007107,105.03130520007107,105.03130520007107,105.03130520007107,105.03130520007107,0,0,return,2.7949935999931768,0,0,0,0.08,-0.16,return,2.712803400005214,,,,,,,,,,,,,,,,,,,A,train_y,x_increasing_steps,bottom_left,2024-10-23_13h38.11.441,HideSeek_v1,2022.2.5,60.12639769574179,
1,3,3,7,4,4,1,22,72,test_exp,untrained,,,,,,,,,,,,,,,,,,,,,0,0,0,0,,,,,,,,,,,,,,,,,,,,,,,,,,,,,,,,,,,,,,,,,,,,,,,,,,,,107.77969630004372,108.9127800000133,stimuli/alien_stimuli/22.png,22,3,1,,,,,,,,,,,,,A,train_y,x_increasing_steps,bottom_left,2024-10-23_13h38.11.441,HideSeek_v1,2022.2.5,60.12639769574179,
2,0,1,0,3,0,2,63,72,test_exp,untrained_1D_first_leftout,,,,,,,,,,,,,,,,,,,,,0,1,1,1,0,0,0,0,,,,,,,,,,,,,,,,,,,,,,,,,,,,,,,stimuli/alien_stimuli/63.png,108.9127800000133,108.9127800000133,108.9127800000133,108.9127800000133,108.9127800000133,0,0,return,0.4295694000320509,0,0,0,-0.16,-0.32,return,0.2737718999851495,,,,,,,,,,,,,,,,,,,A,train_y,x_increasing_steps,bottom_left,2024-10-23_13h38.11.441,HideSeek_v1,2022.2.5,60.12639769574179,
2,0,1,0,3,0,2,63,72,test_exp,untrained_1D_first_leftout,,,,,,,,,,,,,,,,,,,,,0,1,1,1,,,,,,,,,,,,,,,,,,,,,,,,,,,,,,,,,,,,,,,,,,,,,,,,,,,,109.22721540008206,110.32383880007546,stimuli/alien_stimuli/63.png,63,0,2,,,,,,,,,,,,,A,train_y,x_increasing_steps,bottom_left,2024-10-23_13h38.11.441,HideSeek_v1,2022.2.5,60.12639769574179,
3,3,1,6,4,3,3,34,72,test_exp,train_2D_new,,,,,,,,,,,,,,,,,,,,,0,2,2,2,0,0,0,0,,,,,,,,,,,,,,,,,,,,,,,,,,,,,,,stimuli/alien_stimuli/34.png,110.32383880007546,110.32383880007546,110.32383880007546,110.32383880007546,110.32383880007546,0,0,return,0.33087519998662174,0,0,0,0.08,-0.32,return,0.20256430003792048,,,,,,,,,,,,,,,,,,,A,train_y,x_increasing_steps,bottom_left,2024-10-23_13h38.11.441,HideSeek_v1,2022.2.5,60.12639769574179,
3,3,1,6,4,3,3,34,72,test_exp,train_2D_new,,,,,,,,,,,,,,,,,,,,,0,2,2,2,,,,,,,,,,,,,,,,,,,,,,,,,,,,,,,,,,,,,,,,,,,,,,,,,,,,110.5609743000241,111.62463090009987,stimuli/alien_stimuli/34.png,34,3,3,,,,,,,,,,,,,A,train_y,x_increasing_steps,bottom_left,2024-10-23_13h38.11.441,HideSeek_v1,2022.2.5,60.12639769574179,
4,3,4,4,5,1,1,52,72,test_exp,untrained,,,,,,,,,,,,,,,,,,,,,0,3,3,3,0,0,0,0,,,,,,,,,,,,,,,,,,,,,,,,,,,,,,,stimuli/alien_stimuli/52.png,111.62463090009987,111.62463090009987,111.62463090009987,111.62463090009987,111.62463090009987,0,0,return,0.2461824999190867,0,0,0,0.08,-0.08,return,0.14988619997166097,,,,,,,,,,,,,,,,,,,A,train_y,x_increasing_steps,bottom_left,2024-10-23_13h38.11.441,HideSeek_v1,2022.2.5,60.12639769574179,
4,3,4,4,5,1,1,52,72,test_exp,untrained,,,,,,,,,,,,,,,,,,,,,0,3,3,3,,,,,,,,,,,,,,,,,,,,,,,,,,,,,,,,,,,,,,,,,,,,,,,,,,,,111.81023460009601,112.86427430005278,stimuli/alien_stimuli/52.png,52,3,4,,,,,,,,,,,,,A,train_y,x_increasing_steps,bottom_left,2024-10-23_13h38.11.441,HideSeek_v1,2022.2.5,60.12639769574179,
5,2,0,5,4,3,4,35,72,test_exp,untrained,,,,,,,,,,,,,,,,,,,,,0,4,4,4,0,0,0,0,,,,,,,,,,,,,,,,,,,,,,,,,,,,,,,stimuli/alien_stimuli/35.png,112.86427430005278,112.86427430005278,112.86427430005278,112.86427430005278,112.86427430005278,0,0,return,0.14656369993463159,0,0,0,0,-0.4,return,0.05049319996032864,,,,,,,,,,,,,,,,,,,A,train_y,x_increasing_steps,bottom_left,2024-10-23_13h38.11.441,HideSeek_v1,2022.2.5,60.12639769574179,
5,2,0,5,4,3,4,35,72,test_exp,untrained,,,,,,,,,,,,,,,,,,,,,0,4,4,4,,,,,,,,,,,,,,,,,,,,,,,,,,,,,,,,,,,,,,,,,,,,,,,,,,,,112.96058430010453,114.02294170006644,stimuli/alien_stimuli/35.png,35,2,5,,,,,,,,,,,,,A,train_y,x_increasing_steps,bottom_left,2024-10-23_13h38.11.441,HideSeek_v1,2022.2.5,60.12639769574179,
6,4,1,6,5,2,4,45,72,test_exp,train_2D_repeat,,,,,,,,,,,,,,,,,,,,,0,5,5,5,0,0,0,0,,,,,,,,,,,,,,,,,,,,,,,,,,,,,,,stimuli/alien_stimuli/45.png,114.02294170006644,114.02294170006644,114.02294170006644,114.02294170006644,114.02294170006644,0,0,return,0.1971708000637591,0,0,0,0.16,-0.32,return,0.10377709998283535,,,,,,,,,,,,,,,,,,,A,train_y,x_increasing_steps,bottom_left,2024-10-23_13h38.11.441,HideSeek_v1,2022.2.5,60.12639769574179,
6,4,1,6,5,2,4,45,72,test_exp,train_2D_repeat,,,,,,,,,,,,,,,,,,,,,0,5,5,5,,,,,,,,,,,,,,,,,,,,,,,,,,,,,,,,,,,,,,,,,,,,,,,,,,,,114.1609358000569,115.22363220003899,stimuli/alien_stimuli/45.png,45,4,6,,,,,,,,,,,,,A,train_y,x_increasing_steps,bottom_left,2024-10-23_13h38.11.441,HideSeek_v1,2022.2.5,60.12639769574179,
7,3,0,4,0,1,0,51,72,test_exp,train_1D_sec_new,,,,,,,,,,,,,,,,,,,,,0,6,6,6,0,0,0,0,,,,,,,,,,,,,,,,,,,,,,,,,,,,,,,stimuli/alien_stimuli/51.png,115.22363220003899,115.22363220003899,115.22363220003899,115.22363220003899,115.22363220003899,0,0,return,0.12983280001208186,0,0,0,0.08,-0.4,return,0.010875999927520752,,,,,,,,,,,,,,,,,,,A,train_y,x_increasing_steps,bottom_left,2024-10-23_13h38.11.441,HideSeek_v1,2022.2.5,60.12639769574179,
7,3,0,4,0,1,0,51,72,test_exp,train_1D_sec_new,,,,,,,,,,,,,,,,,,,,,0,6,6,6,,,,,,,,,,,,,,,,,,,,,,,,,,,,,,,,,,,,,,,,,,,,,,,,,,,,115.29413010005374,116.35632560006343,stimuli/alien_stimuli/51.png,51,3,7,,,,,,,,,,,,,A,train_y,x_increasing_steps,bottom_left,2024-10-23_13h38.11.441,HideSeek_v1,2022.2.5,60.12639769574179,
8,3,2,7,2,4,0,21,72,test_exp,train_1D_sec_repeat,,,,,,,,,,,,,,,,,,,,,0,7,7,7,0,0,0,0,,,,,,,,,,,,,,,,,,,,,,,,,,,,,,,stimuli/alien_stimuli/21.png,116.35632560006343,116.35632560006343,116.35632560006343,116.35632560006343,116.35632560006343,0,0,return,0.2471498999511823,0,0,0,0.08,-0.24,return,0.15250109997577965,,,,,,,,,,,,,,,,,,,A,train_y,x_increasing_steps,bottom_left,2024-10-23_13h38.11.441,HideSeek_v1,2022.2.5,60.12639769574179,
8,3,2,7,2,4,0,21,72,test_exp,train_1D_sec_repeat,,,,,,,,,,,,,,,,,,,,,0,7,7,7,,,,,,,,,,,,,,,,,,,,,,,,,,,,,,,,,,,,,,,,,,,,,,,,,,,,116.543720100075,117.5969383000629,stimuli/alien_stimuli/21.png,21,3,8,,,,,,,,,,,,,A,train_y,x_increasing_steps,bottom_left,2024-10-23_13h38.11.441,HideSeek_v1,2022.2.5,60.12639769574179,
9,0,3,2,6,2,3,44,72,test_exp,untrained,,,,,,,,,,,,,,,,,,,,,0,8,8,8,0,0,0,0,,,,,,,,,,,,,,,,,,,,,,,,,,,,,,,stimuli/alien_stimuli/44.png,117.5969383000629,117.5969383000629,117.5969383000629,117.5969383000629,117.5969383000629,0,0,return,0.11276149994228035,0,0,0,-0.16,-0.16,return,0.0015946000348776579,,,,,,,,,,,,,,,,,,,A,train_y,x_increasing_steps,bottom_left,2024-10-23_13h38.11.441,HideSeek_v1,2022.2.5,60.12639769574179,
9,0,3,2,6,2,3,44,72,test_exp,untrained,,,,,,,,,,,,,,,,,,,,,0,8,8,8,,,,,,,,,,,,,,,,,,,,,,,,,,,,,,,,,,,,,,,,,,,,,,,,,,,,117.66070570005104,118.73479730007239,stimuli/alien_stimuli/44.png,44,0,9,,,,,,,,,,,,,A,train_y,x_increasing_steps,bottom_left,2024-10-23_13h38.11.441,HideSeek_v1,2022.2.5,60.12639769574179,
10,2,1,7,6,5,5,16,72,test_exp,untrained,,,,,,,,,,,,,,,,,,,,,0,9,9,9,0,0,0,0,,,,,,,,,,,,,,,,,,,,,,,,,,,,,,,stimuli/alien_stimuli/16.png,118.73479730007239,118.73479730007239,118.73479730007239,118.73479730007239,118.73479730007239,0,0,return,0.1957808000734076,0,0,0,0,-0.32,return,0.08050959999673069,,,,,,,,,,,,,,,,,,,A,train_y,x_increasing_steps,bottom_left,2024-10-23_13h38.11.441,HideSeek_v1,2022.2.5,60.12639769574179,
10,2,1,7,6,5,5,16,72,test_exp,untrained,,,,,,,,,,,,,,,,,,,,,0,9,9,9,,,,,,,,,,,,,,,,,,,,,,,,,,,,,,,,,,,,,,,,,,,,,,,,,,,,118.85999810008798,119.9280878000427,stimuli/alien_stimuli/16.png,16,2,10,,,,,,,,,,,,,A,train_y,x_increasing_steps,bottom_left,2024-10-23_13h38.11.441,HideSeek_v1,2022.2.5,60.12639769574179,
11,2,2,2,5,0,3,64,72,test_exp,train_1D_first_repeat,,,,,,,,,,,,,,,,,,,,,0,10,10,10,0,0,0,0,,,,,,,,,,,,,,,,,,,,,,,,,,,,,,,stimuli/alien_stimuli/64.png,119.9280878000427,119.9280878000427,119.9280878000427,119.9280878000427,119.9280878000427,0,0,return,0.22919220000039786,0,0,0,0,-0.24,return,0.13321310002356768,,,,,,,,,,,,,,,,,,,A,train_y,x_increasing_steps,bottom_left,2024-10-23_13h38.11.441,HideSeek_v1,2022.2.5,60.12639769574179,
11,2,2,2,5,0,3,64,72,test_exp,train_1D_first_repeat,,,,,,,,,,,,,,,,,,,,,0,10,10,10,,,,,,,,,,,,,,,,,,,,,,,,,,,,,,,,,,,,,,,,,,,,,,,,,,,,120.09359850001056,121.16014550009277,stimuli/alien_stimuli/64.png,64,2,11,,,,,,,,,,,,,A,train_y,x_increasing_steps,bottom_left,2024-10-23_13h38.11.441,HideSeek_v1,2022.2.5,60.12639769574179,
12,0,2,5,2,5,0,11,72,test_exp,train_1D_sec_new,,,,,,,,,,,,,,,,,,,,,0,11,11,11,0,0,0,0,,,,,,,,,,,,,,,,,,,,,,,,,,,,,,,stimuli/alien_stimuli/11.png,121.16014550009277,121.16014550009277,121.16014550009277,121.16014550009277,121.16014550009277,0,0,return,0.2791865000035614,0,0,0,-0.16,-0.24,return,0.17126390000339597,,,,,,,,,,,,,,,,,,,A,train_y,x_increasing_steps,bottom_left,2024-10-23_13h38.11.441,HideSeek_v1,2022.2.5,60.12639769574179,
12,0,2,5,2,5,0,11,72,test_exp,train_1D_sec_new,,,,,,,,,,,,,,,,,,,,,0,11,11,11,,,,,,,,,,,,,,,,,,,,,,,,,,,,,,,,,,,,,,,,,,,,,,,,,,,,121.37684300006367,122.43623580003623,stimuli/alien_stimuli/11.png,11,0,12,,,,,,,,,,,,,A,train_y,x_increasing_steps,bottom_left,2024-10-23_13h38.11.441,HideSeek_v1,2022.2.5,60.12639769574179,
13,2,2,2,2,0,0,61,72,test_exp,untrained,,,,,,,,,,,,,,,,,,,,,0,12,12,12,0,0,0,0,,,,,,,,,,,,,,,,,,,,,,,,,,,,,,,stimuli/alien_stimuli/61.png,122.43623580003623,122.43623580003623,122.43623580003623,122.43623580003623,122.43623580003623,0,0,return,0.2802073999773711,1,0,1,0,-0.24,return,0.18814149999525398,,,,,,,,,,,,,,,,,,,A,train_y,x_increasing_steps,bottom_left,2024-10-23_13h38.11.441,HideSeek_v1,2022.2.5,60.12639769574179,
13,2,2,2,2,0,0,61,72,test_exp,untrained,,,,,,,,,,,,,,,,,,,,,0,12,12,12,,,,,,,,,,,,,,,,,,,,,,,,,,,,,,,,,,,,,,,,,,,,,,,,,,,,122.66049949999433,123.69759049999993,stimuli/alien_stimuli/61.png,61,2,13,,,,,,,,,,,,,A,train_y,x_increasing_steps,bottom_left,2024-10-23_13h38.11.441,HideSeek_v1,2022.2.5,60.12639769574179,
14,3,3,3,8,0,5,66,72,test_exp,train_1D_first_repeat,,,,,,,,,,,,,,,,,,,,,0,13,13,13,0,0,0,0,,,,,,,,,,,,,,,,,,,,,,,,,,,,,,,stimuli/alien_stimuli/66.png,123.69759049999993,123.69759049999993,123.69759049999993,123.69759049999993,123.69759049999993,0,0,return,0.16399329993873835,1,0,0,0.08,-0.16,return,0.09676800004672259,,,,,,,,,,,,,,,,,,,A,train_y,x_increasing_steps,bottom_left,2024-10-23_13h38.11.441,HideSeek_v1,2022.2.5,60.12639769574179,
14,3,3,3,8,0,5,66,72,test_exp,train_1D_first_repeat,,,,,,,,,,,,,,,,,,,,,0,13,13,13,,,,,,,,,,,,,,,,,,,,,,,,,,,,,,,,,,,,,,,,,,,,,,,,,,,,123.82842220005114,124.91116030002013,stimuli/alien_stimuli/66.png,66,3,14,,,,,,,,,,,,,A,train_y,x_increasing_steps,bottom_left,2024-10-23_13h38.11.441,HideSeek_v1,2022.2.5,60.12639769574179,
15,4,3,9,7,5,4,15,72,test_exp,untrained,,,,,,,,,,,,,,,,,,,,,0,14,14,14,0,0,0,0,,,,,,,,,,,,,,,,,,,,,,,,,,,,,,,stimuli/alien_stimuli/15.png,124.91116030002013,124.91116030002013,124.91116030002013,124.91116030002013,124.91116030002013,0,0,return,0.36265290004666895,1,0,0,0.16,-0.16,return,0.26016589999198914,,,,,,,,,,,,,,,,,,,A,train_y,x_increasing_steps,bottom_left,2024-10-23_13h38.11.441,HideSeek_v1,2022.2.5,60.12639769574179,
15,4,3,9,7,5,4,15,72,test_exp,untrained,,,,,,,,,,,,,,,,,,,,,0,14,14,14,,,,,,,,,,,,,,,,,,,,,,,,,,,,,,,,,,,,,,,,,,,,,,,,,,,,125.21024540008511,126.27231030003168,stimuli/alien_stimuli/15.png,15,4,15,,,,,,,,,,,,,A,train_y,x_increasing_steps,bottom_left,2024-10-23_13h38.11.441,HideSeek_v1,2022.2.5,60.12639769574179,
16,1,4,2,7,1,3,54,72,test_exp,untrained,,,,,,,,,,,,,,,,,,,,,0,15,15,15,0,0,0,0,,,,,,,,,,,,,,,,,,,,,,,,,,,,,,,stimuli/alien_stimuli/54.png,126.27231030003168,126.27231030003168,126.27231030003168,126.27231030003168,126.27231030003168,0,0,return,0.26223609992302954,1,0,0,-0.08,-0.08,return,0.1697153999703005,,,,,,,,,,,,,,,,,,,A,train_y,x_increasing_steps,bottom_left,2024-10-23_13h38.11.441,HideSeek_v1,2022.2.5,60.12639769574179,
16,1,4,2,7,1,3,54,72,test_exp,untrained,,,,,,,,,,,,,,,,,,,,,0,15,15,15,,,,,,,,,,,,,,,,,,,,,,,,,,,,,,,,,,,,,,,,,,,,,,,,,,,,126.4777304000454,127.5666140000103,stimuli/alien_stimuli/54.png,54,1,16,,,,,,,,,,,,,A,train_y,x_increasing_steps,bottom_left,2024-10-23_13h38.11.441,HideSeek_v1,2022.2.5,60.12639769574179,
17,2,3,7,5,5,2,13,72,test_exp,untrained,,,,,,,,,,,,,,,,,,,,,0,16,16,16,0,0,0,0,,,,,,,,,,,,,,,,,,,,,,,,,,,,,,,stimuli/alien_stimuli/13.png,127.5666140000103,127.5666140000103,127.5666140000103,127.5666140000103,127.5666140000103,0,0,return,0.22923609998542815,1,0,0,0,-0.16,return,0.11817669996526092,,,,,,,,,,,,,,,,,,,A,train_y,x_increasing_steps,bottom_left,2024-10-23_13h38.11.441,HideSeek_v1,2022.2.5,60.12639769574179,
17,2,3,7,5,5,2,13,72,test_exp,untrained,,,,,,,,,,,,,,,,,,,,,0,16,16,16,,,,,,,,,,,,,,,,,,,,,,,,,,,,,,,,,,,,,,,,,,,,,,,,,,,,127.7271413000999,128.78773130010813,stimuli/alien_stimuli/13.png,13,2,17,,,,,,,,,,,,,A,train_y,x_increasing_steps,bottom_left,2024-10-23_13h38.11.441,HideSeek_v1,2022.2.5,60.12639769574179,
18,4,1,7,2,3,1,32,72,test_exp,untrained,,,,,,,,,,,,,,,,,,,,,0,17,17,17,0,0,0,0,,,,,,,,,,,,,,,,,,,,,,,,,,,,,,,stimuli/alien_stimuli/32.png,128.78773130010813,128.78773130010813,128.78773130010813,128.78773130010813,128.78773130010813,0,0,return,0.5966597999213263,1,0,0,0.16,-0.32,return,0.5006930000381544,,,,,,,,,,,,,,,,,,,A,train_y,x_increasing_steps,bottom_left,2024-10-23_13h38.11.441,HideSeek_v1,2022.2.5,60.12639769574179,
18,4,1,7,2,3,1,32,72,test_exp,untrained,,,,,,,,,,,,,,,,,,,,,0,17,17,17,,,,,,,,,,,,,,,,,,,,,,,,,,,,,,,,,,,,,,,,,,,,,,,,,,,,129.32735310005955,130.38739270006772,stimuli/alien_stimuli/32.png,32,4,18,,,,,,,,,,,,,A,train_y,x_increasing_steps,bottom_left,2024-10-23_13h38.11.441,HideSeek_v1,2022.2.5,60.12639769574179,
19,1,1,5,4,4,3,24,72,test_exp,untrained,,,,,,,,,,,,,,,,,,,,,0,18,18,18,0,0,0,0,,,,,,,,,,,,,,,,,,,,,,,,,,,,,,,stimuli/alien_stimuli/24.png,130.38739270006772,130.38739270006772,130.38739270006772,130.38739270006772,130.38739270006772,0,0,return,0.4138840000377968,1,0,0,-0.08,-0.32,return,0.321692300029099,,,,,,,,,,,,,,,,,,,A,train_y,x_increasing_steps,bottom_left,2024-10-23_13h38.11.441,HideSeek_v1,2022.2.5,60.12639769574179,
19,1,1,5,4,4,3,24,72,test_exp,untrained,,,,,,,,,,,,,,,,,,,,,0,18,18,18,,,,,,,,,,,,,,,,,,,,,,,,,,,,,,,,,,,,,,,,,,,,,,,,,,,,130.74420760001522,131.80164810002316,stimuli/alien_stimuli/24.png,24,1,19,,,,,,,,,,,,,A,train_y,x_increasing_steps,bottom_left,2024-10-23_13h38.11.441,HideSeek_v1,2022.2.5,60.12639769574179,
20,1,2,1,6,0,4,65,72,test_exp,train_1D_first_new,,,,,,,,,,,,,,,,,,,,,0,19,19,19,0,0,0,0,,,,,,,,,,,,,,,,,,,,,,,,,,,,,,,stimuli/alien_stimuli/65.png,131.80164810002316,131.80164810002316,131.80164810002316,131.80164810002316,131.80164810002316,0,0,return,0.5469587000552565,1,0,0,-0.08,-0.24,return,0.4466964000603184,,,,,,,,,,,,,,,,,,,A,train_y,x_increasing_steps,bottom_left,2024-10-23_13h38.11.441,HideSeek_v1,2022.2.5,60.12639769574179,
20,1,2,1,6,0,4,65,72,test_exp,train_1D_first_new,,,,,,,,,,,,,,,,,,,,,0,19,19,19,,,,,,,,,,,,,,,,,,,,,,,,,,,,,,,,,,,,,,,,,,,,,,,,,,,,132.29529850010294,133.37704430008307,stimuli/alien_stimuli/65.png,65,1,20,,,,,,,,,,,,,A,train_y,x_increasing_steps,bottom_left,2024-10-23_13h38.11.441,HideSeek_v1,2022.2.5,60.12639769574179,
21,0,2,3,2,3,0,31,72,test_exp,train_1D_sec_repeat,,,,,,,,,,,,,,,,,,,,,0,20,20,20,0,0,0,0,,,,,,,,,,,,,,,,,,,,,,,,,,,,,,,stimuli/alien_stimuli/31.png,133.37704430008307,133.37704430008307,133.37704430008307,133.37704430008307,133.37704430008307,0,0,return,0.4303568999748677,1,0,0,-0.16,-0.24,return,0.31823109998367727,,,,,,,,,,,,,,,,,,,A,train_y,x_increasing_steps,bottom_left,2024-10-23_13h38.11.441,HideSeek_v1,2022.2.5,60.12639769574179,
21,0,2,3,2,3,0,31,72,test_exp,train_1D_sec_repeat,,,,,,,,,,,,,,,,,,,,,0,20,20,20,,,,,,,,,,,,,,,,,,,,,,,,,,,,,,,,,,,,,,,,,,,,,,,,,,,,133.74293690000195,134.7979221000569,stimuli/alien_stimuli/31.png,31,0,21,,,,,,,,,,,,,A,train_y,x_increasing_steps,bottom_left,2024-10-23_13h38.11.441,HideSeek_v1,2022.2.5,60.12639769574179,
22,2,4,4,6,2,2,43,72,test_exp,untrained,,,,,,,,,,,,,,,,,,,,,0,21,21,21,0,0,0,0,,,,,,,,,,,,,,,,,,,,,,,,,,,,,,,stimuli/alien_stimuli/43.png,134.7979221000569,134.7979221000569,134.7979221000569,134.7979221000569,134.7979221000569,0,0,return,0.2970752000110224,1,0,0,0,-0.08,return,0.19899149995762855,,,,,,,,,,,,,,,,,,,A,train_y,x_increasing_steps,bottom_left,2024-10-23_13h38.11.441,HideSeek_v1,2022.2.5,60.12639769574179,
22,2,4,4,6,2,2,43,72,test_exp,untrained,,,,,,,,,,,,,,,,,,,,,0,21,21,21,,,,,,,,,,,,,,,,,,,,,,,,,,,,,,,,,,,,,,,,,,,,,,,,,,,,135.04359060002025,136.10105709999334,stimuli/alien_stimuli/43.png,43,2,22,,,,,,,,,,,,,A,train_y,x_increasing_steps,bottom_left,2024-10-23_13h38.11.441,HideSeek_v1,2022.2.5,60.12639769574179,
23,2,0,2,1,0,1,62,72,test_exp,train_1D_first_repeat,,,,,,,,,,,,,,,,,,,,,0,22,22,22,0,0,0,0,,,,,,,,,,,,,,,,,,,,,,,,,,,,,,,stimuli/alien_stimuli/62.png,136.10105709999334,136.10105709999334,136.10105709999334,136.10105709999334,136.10105709999334,0,0,return,0.4464063999475911,1,0,0,0,-0.4,return,0.35165550000965595,,,,,,,,,,,,,,,,,,,A,train_y,x_increasing_steps,bottom_left,2024-10-23_13h38.11.441,HideSeek_v1,2022.2.5,60.12639769574179,
23,2,0,2,1,0,1,62,72,test_exp,train_1D_first_repeat,,,,,,,,,,,,,,,,,,,,,0,22,22,22,,,,,,,,,,,,,,,,,,,,,,,,,,,,,,,,,,,,,,,,,,,,,,,,,,,,136.49418900010642,137.54785460000858,stimuli/alien_stimuli/62.png,62,2,23,,,,,,,,,,,,,A,train_y,x_increasing_steps,bottom_left,2024-10-23_13h38.11.441,HideSeek_v1,2022.2.5,60.12639769574179,
24,4,4,8,9,4,5,26,72,test_exp,untrained,,,,,,,,,,,,,,,,,,,,,0,23,23,23,0,0,0,0,,,,,,,,,,,,,,,,,,,,,,,,,,,,,,,stimuli/alien_stimuli/26.png,137.54785460000858,137.54785460000858,137.54785460000858,137.54785460000858,137.54785460000858,0,0,return,0.3462891000090167,1,0,0,0.16,-0.08,return,0.26195049996022135,,,,,,,,,,,,,,,,,,,A,train_y,x_increasing_steps,bottom_left,2024-10-23_13h38.11.441,HideSeek_v1,2022.2.5,60.12639769574179,
24,4,4,8,9,4,5,26,72,test_exp,untrained,,,,,,,,,,,,,,,,,,,,,0,23,23,23,,,,,,,,,,,,,,,,,,,,,,,,,,,,,,,,,,,,,,,,,,,,,,,,,,,,137.84284719999414,138.89538680005353,stimuli/alien_stimuli/26.png,26,4,24,,,,,,,,,,,,,A,train_y,x_increasing_steps,bottom_left,2024-10-23_13h38.11.441,HideSeek_v1,2022.2.5,60.12639769574179,
25,0,4,1,8,1,4,55,72,test_exp,untrained,,,,,,,,,,,,,,,,,,,,,0,24,24,24,0,0,0,0,,,,,,,,,,,,,,,,,,,,,,,,,,,,,,,stimuli/alien_stimuli/55.png,138.89538680005353,138.89538680005353,138.89538680005353,138.89538680005353,138.89538680005353,0,0,return,0.36330500000622123,1,0,0,-0.16,-0.08,return,0.27930880000349134,,,,,,,,,,,,,,,,,,,A,train_y,x_increasing_steps,bottom_left,2024-10-23_13h38.11.441,HideSeek_v1,2022.2.5,60.12639769574179,
25,0,4,1,8,1,4,55,72,test_exp,untrained,,,,,,,,,,,,,,,,,,,,,0,24,24,24,,,,,,,,,,,,,,,,,,,,,,,,,,,,,,,,,,,,,,,,,,,,,,,,,,,,139.21046700002626,140.27687580010388,stimuli/alien_stimuli/55.png,55,0,25,,,,,,,,,,,,,A,train_y,x_increasing_steps,bottom_left,2024-10-23_13h38.11.441,HideSeek_v1,2022.2.5,60.12639769574179,
26,0,1,3,3,3,2,33,72,test_exp,untrained,,,,,,,,,,,,,,,,,,,,,0,25,25,25,0,0,0,0,,,,,,,,,,,,,,,,,,,,,,,,,,,,,,,stimuli/alien_stimuli/33.png,140.27687580010388,140.27687580010388,140.27687580010388,140.27687580010388,140.27687580010388,0,0,return,2.330926400027238,1,0,0,-0.16,-0.32,return,2.2331071000080556,,,,,,,,,,,,,,,,,,,A,train_y,x_increasing_steps,bottom_left,2024-10-23_13h38.11.441,HideSeek_v1,2022.2.5,60.12639769574179,
26,0,1,3,3,3,2,33,72,test_exp,untrained,,,,,,,,,,,,,,,,,,,,,0,25,25,25,,,,,,,,,,,,,,,,,,,,,,,,,,,,,,,,,,,,,,,,,,,,,,,,,,,,142.5449066000292,143.60923729999922,stimuli/alien_stimuli/33.png,33,0,26,,,,,,,,,,,,,A,train_y,x_increasing_steps,bottom_left,2024-10-23_13h38.11.441,HideSeek_v1,2022.2.5,60.12639769574179,
27,2,4,6,8,4,4,25,72,test_exp,untrained,,,,,,,,,,,,,,,,,,,,,0,26,26,26,0,0,0,0,,,,,,,,,,,,,,,,,,,,,,,,,,,,,,,stimuli/alien_stimuli/25.png,143.60923729999922,143.60923729999922,143.60923729999922,143.60923729999922,143.60923729999922,0,0,return,0.3972772000124678,1,0,0,0,-0.08,return,0.31397400004789233,,,,,,,,,,,,,,,,,,,A,train_y,x_increasing_steps,bottom_left,2024-10-23_13h38.11.441,HideSeek_v1,2022.2.5,60.12639769574179,
27,2,4,6,8,4,4,25,72,test_exp,untrained,,,,,,,,,,,,,,,,,,,,,0,26,26,26,,,,,,,,,,,,,,,,,,,,,,,,,,,,,,,,,,,,,,,,,,,,,,,,,,,,143.9595668000402,145.02666570001747,stimuli/alien_stimuli/25.png,25,2,27,,,,,,,,,,,,,A,train_y,x_increasing_steps,bottom_left,2024-10-23_13h38.11.441,HideSeek_v1,2022.2.5,60.12639769574179,
28,1,2,2,4,1,2,53,72,test_exp,untrained,,,,,,,,,,,,,,,,,,,,,0,27,27,27,0,0,0,0,,,,,,,,,,,,,,,,,,,,,,,,,,,,,,,stimuli/alien_stimuli/53.png,145.02666570001747,145.02666570001747,145.02666570001747,145.02666570001747,145.02666570001747,0,0,return,0.2128044000128284,1,0,0,-0.08,-0.24,return,0.11381010001059622,,,,,,,,,,,,,,,,,,,A,train_y,x_increasing_steps,bottom_left,2024-10-23_13h38.11.441,HideSeek_v1,2022.2.5,60.12639769574179,
28,1,2,2,4,1,2,53,72,test_exp,untrained,,,,,,,,,,,,,,,,,,,,,0,27,27,27,,,,,,,,,,,,,,,,,,,,,,,,,,,,,,,,,,,,,,,,,,,,,,,,,,,,145.17699680000078,146.22873830003664,stimuli/alien_stimuli/53.png,53,1,28,,,,,,,,,,,,,A,train_y,x_increasing_steps,bottom_left,2024-10-23_13h38.11.441,HideSeek_v1,2022.2.5,60.12639769574179,
29,3,0,7,2,4,2,23,72,test_exp,train_2D_new,,,,,,,,,,,,,,,,,,,,,0,28,28,28,0,0,0,0,,,,,,,,,,,,,,,,,,,,,,,,,,,,,,,stimuli/alien_stimuli/23.png,146.22873830003664,146.22873830003664,146.22873830003664,146.22873830003664,146.22873830003664,0,0,return,0.18032160005532205,1,0,0,0.08,-0.4,return,0.08533149992581457,,,,,,,,,,,,,,,,,,,A,train_y,x_increasing_steps,bottom_left,2024-10-23_13h38.11.441,HideSeek_v1,2022.2.5,60.12639769574179,
29,3,0,7,2,4,2,23,72,test_exp,train_2D_new,,,,,,,,,,,,,,,,,,,,,0,28,28,28,,,,,,,,,,,,,,,,,,,,,,,,,,,,,,,,,,,,,,,,,,,,,,,,,,,,146.36030140006915,147.41749690007418,stimuli/alien_stimuli/23.png,23,3,29,,,,,,,,,,,,,A,train_y,x_increasing_steps,bottom_left,2024-10-23_13h38.11.441,HideSeek_v1,2022.2.5,60.12639769574179,
30,4,2,6,7,2,5,46,72,test_exp,untrained,,,,,,,,,,,,,,,,,,,,,0,29,29,29,0,0,0,0,,,,,,,,,,,,,,,,,,,,,,,,,,,,,,,stimuli/alien_stimuli/46.png,147.41749690007418,147.41749690007418,147.41749690007418,147.41749690007418,147.41749690007418,0,0,return,0.11291859997436404,1,0,0,0.16,-0.24,return,0.0036995999980717897,,,,,,,,,,,,,,,,,,,A,train_y,x_increasing_steps,bottom_left,2024-10-23_13h38.11.441,HideSeek_v1,2022.2.5,60.12639769574179,
30,4,2,6,7,2,5,46,72,test_exp,untrained,,,,,,,,,,,,,,,,,,,,,0,29,29,29,,,,,,,,,,,,,,,,,,,,,,,,,,,,,,,,,,,,,,,,,,,,,,,,,,,,147.47667960007675,148.54053840006236,stimuli/alien_stimuli/46.png,46,4,30,,,,,,,,,,,,,A,train_y,x_increasing_steps,bottom_left,2024-10-23_13h38.11.441,HideSeek_v1,2022.2.5,60.12639769574179,
31,0,3,5,6,5,3,14,72,test_exp,untrained,,,,,,,,,,,,,,,,,,,,,0,30,30,30,0,0,0,0,,,,,,,,,,,,,,,,,,,,,,,,,,,,,,,stimuli/alien_stimuli/14.png,148.54053840006236,148.54053840006236,148.54053840006236,148.54053840006236,148.54053840006236,0,0,return,0.1640925999963656,1,0,0,-0.16,-0.16,return,0.05566799989901483,,,,,,,,,,,,,,,,,,,A,train_y,x_increasing_steps,bottom_left,2024-10-23_13h38.11.441,HideSeek_v1,2022.2.5,60.12639769574179,
31,0,3,5,6,5,3,14,72,test_exp,untrained,,,,,,,,,,,,,,,,,,,,,0,30,30,30,,,,,,,,,,,,,,,,,,,,,,,,,,,,,,,,,,,,,,,,,,,,,,,,,,,,148.64366669999436,149.70993610005826,stimuli/alien_stimuli/14.png,14,0,31,,,,,,,,,,,,,A,train_y,x_increasing_steps,bottom_left,2024-10-23_13h38.11.441,HideSeek_v1,2022.2.5,60.12639769574179,
32,1,1,2,6,1,5,56,72,test_exp,train_2D_new,,,,,,,,,,,,,,,,,,,,,0,31,31,31,0,0,0,0,,,,,,,,,,,,,,,,,,,,,,,,,,,,,,,stimuli/alien_stimuli/56.png,149.70993610005826,149.70993610005826,149.70993610005826,149.70993610005826,149.70993610005826,0,0,return,0.19684099999722093,1,0,0,-0.08,-0.32,return,0.09583800006657839,,,,,,,,,,,,,,,,,,,A,train_y,x_increasing_steps,bottom_left,2024-10-23_13h38.11.441,HideSeek_v1,2022.2.5,60.12639769574179,
32,1,1,2,6,1,5,56,72,test_exp,train_2D_new,,,,,,,,,,,,,,,,,,,,,0,31,31,31,,,,,,,,,,,,,,,,,,,,,,,,,,,,,,,,,,,,,,,,,,,,,,,,,,,,149.84329470002558,150.89259639999364,stimuli/alien_stimuli/56.png,56,1,32,,,,,,,,,,,,,A,train_y,x_increasing_steps,bottom_left,2024-10-23_13h38.11.441,HideSeek_v1,2022.2.5,60.12639769574179,
33,2,2,4,3,2,1,42,72,test_exp,untrained,,,,,,,,,,,,,,,,,,,,,0,32,32,32,0,0,0,0,,,,,,,,,,,,,,,,,,,,,,,,,,,,,,,stimuli/alien_stimuli/42.png,150.89259639999364,150.89259639999364,150.89259639999364,150.89259639999364,150.89259639999364,0,0,return,0.11295260000042617,1,0,0,0,-0.24,return,0.024636900052428246,,,,,,,,,,,,,,,,,,,A,train_y,x_increasing_steps,bottom_left,2024-10-23_13h38.11.441,HideSeek_v1,2022.2.5,60.12639769574179,
33,2,2,4,3,2,1,42,72,test_exp,untrained,,,,,,,,,,,,,,,,,,,,,0,32,32,32,,,,,,,,,,,,,,,,,,,,,,,,,,,,,,,,,,,,,,,,,,,,,,,,,,,,150.96027690009214,152.0207470000023,stimuli/alien_stimuli/42.png,42,2,33,,,,,,,,,,,,,A,train_y,x_increasing_steps,bottom_left,2024-10-23_13h38.11.441,HideSeek_v1,2022.2.5,60.12639769574179,
34,4,4,7,9,3,5,36,72,test_exp,untrained,,,,,,,,,,,,,,,,,,,,,0,33,33,33,0,0,0,0,,,,,,,,,,,,,,,,,,,,,,,,,,,,,,,stimuli/alien_stimuli/36.png,152.0207470000023,152.0207470000023,152.0207470000023,152.0207470000023,152.0207470000023,0,0,return,0.21292770002037287,1,0,0,0.16,-0.08,return,0.11356299999170005,,,,,,,,,,,,,,,,,,,A,train_y,x_increasing_steps,bottom_left,2024-10-23_13h38.11.441,HideSeek_v1,2022.2.5,60.12639769574179,
34,4,4,7,9,3,5,36,72,test_exp,untrained,,,,,,,,,,,,,,,,,,,,,0,33,33,33,,,,,,,,,,,,,,,,,,,,,,,,,,,,,,,,,,,,,,,,,,,,,,,,,,,,152.1767450000625,153.25708250002936,stimuli/alien_stimuli/36.png,36,4,34,,,,,,,,,,,,,A,train_y,x_increasing_steps,bottom_left,2024-10-23_13h38.11.441,HideSeek_v1,2022.2.5,60.12639769574179,
35,0,0,5,1,5,1,12,72,test_exp,train_2D_repeat,,,,,,,,,,,,,,,,,,,,,0,34,34,34,0,0,0,0,,,,,,,,,,,,,,,,,,,,,,,,,,,,,,,stimuli/alien_stimuli/12.png,153.25708250002936,153.25708250002936,153.25708250002936,153.25708250002936,153.25708250002936,0,0,return,0.1478510000742972,1,0,0,-0.16,-0.4,return,0.013283299980685115,,,,,,,,,,,,,,,,,,,A,train_y,x_increasing_steps,bottom_left,2024-10-23_13h38.11.441,HideSeek_v1,2022.2.5,60.12639769574179,
35,0,0,5,1,5,1,12,72,test_exp,train_2D_repeat,,,,,,,,,,,,,,,,,,,,,0,34,34,34,,,,,,,,,,,,,,,,,,,,,,,,,,,,,,,,,,,,,,,,,,,,,,,,,,,,153.32703720009886,154.38910620007664,stimuli/alien_stimuli/12.png,12,0,35,,,,,,,,,,,,,A,train_y,x_increasing_steps,bottom_left,2024-10-23_13h38.11.441,HideSeek_v1,2022.2.5,60.12639769574179,
36,3,1,5,1,2,0,41,72,test_exp,untrained_1D_sec_leftout,,,,,,,,,,,,,,,,,,,,,0,35,35,35,0,0,0,0,,,,,,,,,,,,,,,,,,,,,,,,,,,,,,,stimuli/alien_stimuli/41.png,154.38910620007664,154.38910620007664,154.38910620007664,154.38910620007664,154.38910620007664,0,0,return,0.17895820003468543,1,0,0,0.08,-0.32,return,0.0803584000095725,,,,,,,,,,,,,,,,,,,A,train_y,x_increasing_steps,bottom_left,2024-10-23_13h38.11.441,HideSeek_v1,2022.2.5,60.12639769574179,
36,3,1,5,1,2,0,41,72,test_exp,untrained_1D_sec_leftout,,,,,,,,,,,,,,,,,,,,,0,35,35,35,,,,,,,,,,,,,,,,,,,,,,,,,,,,,,,,,,,,,,,,,,,,,,,,,,,,154.51026660006028,155.5610152001027,stimuli/alien_stimuli/41.png,41,3,36,,,,,,,,,,,,,A,train_y,x_increasing_steps,bottom_left,2024-10-23_13h38.11.441,HideSeek_v1,2022.2.5,60.12639769574179,
37,2,1,3,5,1,4,55,72,test_exp,untrained,,,,,,,,,,,,,,,,,,,,,0,36,36,36,0,0,0,0,,,,,,,,,,,,,,,,,,,,,,,,,,,,,,,stimuli/alien_stimuli/55.png,155.5610152001027,155.5610152001027,155.5610152001027,155.5610152001027,155.5610152001027,0,0,return,0.34696919994894415,1,0,0,0,-0.32,return,0.253569999942556,,,,,,,,,,,,,,,,,,,A,train_y,x_increasing_steps,bottom_left,2024-10-23_13h38.11.441,HideSeek_v1,2022.2.5,60.12639769574179,
37,2,1,3,5,1,4,55,72,test_exp,untrained,,,,,,,,,,,,,,,,,,,,,0,36,36,36,,,,,,,,,,,,,,,,,,,,,,,,,,,,,,,,,,,,,,,,,,,,,,,,,,,,155.85981080005877,156.91782940004487,stimuli/alien_stimuli/55.png,55,2,37,,,,,,,,,,,,,A,train_y,x_increasing_steps,bottom_left,2024-10-23_13h38.11.441,HideSeek_v1,2022.2.5,60.12639769574179,
38,0,2,0,4,0,2,63,72,test_exp,untrained_1D_first_leftout,,,,,,,,,,,,,,,,,,,,,0,37,37,37,0,0,0,0,,,,,,,,,,,,,,,,,,,,,,,,,,,,,,,stimuli/alien_stimuli/63.png,156.91782940004487,156.91782940004487,156.91782940004487,156.91782940004487,156.91782940004487,0,0,return,0.746896900003776,1,0,0,-0.16,-0.24,return,0.6491050000768155,,,,,,,,,,,,,,,,,,,A,train_y,x_increasing_steps,bottom_left,2024-10-23_13h38.11.441,HideSeek_v1,2022.2.5,60.12639769574179,
38,0,2,0,4,0,2,63,72,test_exp,untrained_1D_first_leftout,,,,,,,,,,,,,,,,,,,,,0,37,37,37,,,,,,,,,,,,,,,,,,,,,,,,,,,,,,,,,,,,,,,,,,,,,,,,,,,,157.61092550004832,158.6785719000036,stimuli/alien_stimuli/63.png,63,0,38,,,,,,,,,,,,,A,train_y,x_increasing_steps,bottom_left,2024-10-23_13h38.11.441,HideSeek_v1,2022.2.5,60.12639769574179,
39,2,3,4,5,2,2,43,72,test_exp,untrained,,,,,,,,,,,,,,,,,,,,,0,38,38,38,0,0,0,0,,,,,,,,,,,,,,,,,,,,,,,,,,,,,,,stimuli/alien_stimuli/43.png,158.6785719000036,158.6785719000036,158.6785719000036,158.6785719000036,158.6785719000036,0,0,return,1.146955999894999,1,0,0,0,-0.16,return,1.0579469000222161,,,,,,,,,,,,,,,,,,,A,train_y,x_increasing_steps,bottom_left,2024-10-23_13h38.11.441,HideSeek_v1,2022.2.5,60.12639769574179,
39,2,3,4,5,2,2,43,72,test_exp,untrained,,,,,,,,,,,,,,,,,,,,,0,38,38,38,,,,,,,,,,,,,,,,,,,,,,,,,,,,,,,,,,,,,,,,,,,,,,,,,,,,159.7764121000655,160.82760800002143,stimuli/alien_stimuli/43.png,43,2,39,,,,,,,,,,,,,A,train_y,x_increasing_steps,bottom_left,2024-10-23_13h38.11.441,HideSeek_v1,2022.2.5,60.12639769574179,
40,1,3,4,8,3,5,36,72,test_exp,untrained,,,,,,,,,,,,,,,,,,,,,0,39,39,39,0,0,0,0,,,,,,,,,,,,,,,,,,,,,,,,,,,,,,,stimuli/alien_stimuli/36.png,160.82760800002143,160.82760800002143,160.82760800002143,160.82760800002143,160.82760800002143,0,0,return,0.3971669999882579,1,0,0,-0.08,-0.16,return,0.3007904998958111,,,,,,,,,,,,,,,,,,,A,train_y,x_increasing_steps,bottom_left,2024-10-23_13h38.11.441,HideSeek_v1,2022.2.5,60.12639769574179,
40,1,3,4,8,3,5,36,72,test_exp,untrained,,,,,,,,,,,,,,,,,,,,,0,39,39,39,,,,,,,,,,,,,,,,,,,,,,,,,,,,,,,,,,,,,,,,,,,,,,,,,,,,161.1762498000171,162.2286807000637,stimuli/alien_stimuli/36.png,36,1,40,,,,,,,,,,,,,A,train_y,x_increasing_steps,bottom_left,2024-10-23_13h38.11.441,HideSeek_v1,2022.2.5,60.12639769574179,
41,1,4,5,7,4,3,24,72,test_exp,untrained,,,,,,,,,,,,,,,,,,,,,0,40,40,40,0,0,0,0,,,,,,,,,,,,,,,,,,,,,,,,,,,,,,,stimuli/alien_stimuli/24.png,162.2286807000637,162.2286807000637,162.2286807000637,162.2286807000637,162.2286807000637,0,0,return,0.1800711000105366,1,0,0,-0.08,-0.08,return,0.08459380001295358,,,,,,,,,,,,,,,,,,,A,train_y,x_increasing_steps,bottom_left,2024-10-23_13h38.11.441,HideSeek_v1,2022.2.5,60.12639769574179,
41,1,4,5,7,4,3,24,72,test_exp,untrained,,,,,,,,,,,,,,,,,,,,,0,40,40,40,,,,,,,,,,,,,,,,,,,,,,,,,,,,,,,,,,,,,,,,,,,,,,,,,,,,162.35938830010127,163.3935150000034,stimuli/alien_stimuli/24.png,24,1,41,,,,,,,,,,,,,A,train_y,x_increasing_steps,bottom_left,2024-10-23_13h38.11.441,HideSeek_v1,2022.2.5,60.12639769574179,
42,4,3,8,4,4,1,22,72,test_exp,untrained,,,,,,,,,,,,,,,,,,,,,0,41,41,41,0,0,0,0,,,,,,,,,,,,,,,,,,,,,,,,,,,,,,,stimuli/alien_stimuli/22.png,163.3935150000034,163.3935150000034,163.3935150000034,163.3935150000034,163.3935150000034,0,0,return,0.19690650003030896,1,0,0,0.16,-0.16,return,0.13404760009143502,,,,,,,,,,,,,,,,,,,A,train_y,x_increasing_steps,bottom_left,2024-10-23_13h38.11.441,HideSeek_v1,2022.2.5,60.12639769574179,
42,4,3,8,4,4,1,22,72,test_exp,untrained,,,,,,,,,,,,,,,,,,,,,0,41,41,41,,,,,,,,,,,,,,,,,,,,,,,,,,,,,,,,,,,,,,,,,,,,,,,,,,,,163.55968310008757,164.61528790008742,stimuli/alien_stimuli/22.png,22,4,42,,,,,,,,,,,,,A,train_y,x_increasing_steps,bottom_left,2024-10-23_13h38.11.441,HideSeek_v1,2022.2.5,60.12639769574179,
43,4,3,9,3,5,0,11,72,test_exp,train_1D_sec_repeat,,,,,,,,,,,,,,,,,,,,,0,42,42,42,0,0,0,0,,,,,,,,,,,,,,,,,,,,,,,,,,,,,,,stimuli/alien_stimuli/11.png,164.61528790008742,164.61528790008742,164.61528790008742,164.61528790008742,164.61528790008742,0,0,return,0.329220800078474,1,0,0,0.16,-0.16,return,0.23459099989850074,,,,,,,,,,,,,,,,,,,A,train_y,x_increasing_steps,bottom_left,2024-10-23_13h38.11.441,HideSeek_v1,2022.2.5,60.12639769574179,
43,4,3,9,3,5,0,11,72,test_exp,train_1D_sec_repeat,,,,,,,,,,,,,,,,,,,,,0,42,42,42,,,,,,,,,,,,,,,,,,,,,,,,,,,,,,,,,,,,,,,,,,,,,,,,,,,,164.8933807000285,165.94966260006186,stimuli/alien_stimuli/11.png,11,4,43,,,,,,,,,,,,,A,train_y,x_increasing_steps,bottom_left,2024-10-23_13h38.11.441,HideSeek_v1,2022.2.5,60.12639769574179,
44,4,4,4,8,0,4,65,72,test_exp,train_1D_first_repeat,,,,,,,,,,,,,,,,,,,,,0,43,43,43,0,0,0,0,,,,,,,,,,,,,,,,,,,,,,,,,,,,,,,stimuli/alien_stimuli/65.png,165.94966260006186,165.94966260006186,165.94966260006186,165.94966260006186,165.94966260006186,0,0,return,0.13010949990712106,1,0,0,0.16,-0.08,return,0.03350110002793372,,,,,,,,,,,,,,,,,,,A,train_y,x_increasing_steps,bottom_left,2024-10-23_13h38.11.441,HideSeek_v1,2022.2.5,60.12639769574179,
44,4,4,4,8,0,4,65,72,test_exp,train_1D_first_repeat,,,,,,,,,,,,,,,,,,,,,0,43,43,43,,,,,,,,,,,,,,,,,,,,,,,,,,,,,,,,,,,,,,,,,,,,,,,,,,,,166.02661900001112,167.0764808000531,stimuli/alien_stimuli/65.png,65,4,44,,,,,,,,,,,,,A,train_y,x_increasing_steps,bottom_left,2024-10-23_13h38.11.441,HideSeek_v1,2022.2.5,60.12639769574179,
45,4,0,6,3,2,3,44,72,test_exp,untrained,,,,,,,,,,,,,,,,,,,,,0,44,44,44,0,0,0,0,,,,,,,,,,,,,,,,,,,,,,,,,,,,,,,stimuli/alien_stimuli/44.png,167.0764808000531,167.0764808000531,167.0764808000531,167.0764808000531,167.0764808000531,0,0,return,0.12887429993133992,1,0,0,0.16,-0.4,return,0.046426799963228405,,,,,,,,,,,,,,,,,,,A,train_y,x_increasing_steps,bottom_left,2024-10-23_13h38.11.441,HideSeek_v1,2022.2.5,60.12639769574179,
45,4,0,6,3,2,3,44,72,test_exp,untrained,,,,,,,,,,,,,,,,,,,,,0,44,44,44,,,,,,,,,,,,,,,,,,,,,,,,,,,,,,,,,,,,,,,,,,,,,,,,,,,,167.15964610001538,168.21157720009796,stimuli/alien_stimuli/44.png,44,4,45,,,,,,,,,,,,,A,train_y,x_increasing_steps,bottom_left,2024-10-23_13h38.11.441,HideSeek_v1,2022.2.5,60.12639769574179,
46,2,0,6,5,4,5,26,72,test_exp,untrained,,,,,,,,,,,,,,,,,,,,,0,45,45,45,0,0,0,0,,,,,,,,,,,,,,,,,,,,,,,,,,,,,,,stimuli/alien_stimuli/26.png,168.21157720009796,168.21157720009796,168.21157720009796,168.21157720009796,168.21157720009796,0,0,return,0.4303081000689417,1,0,0,0,-0.4,return,0.3365641999989748,,,,,,,,,,,,,,,,,,,A,train_y,x_increasing_steps,bottom_left,2024-10-23_13h38.11.441,HideSeek_v1,2022.2.5,60.12639769574179,
46,2,0,6,5,4,5,26,72,test_exp,untrained,,,,,,,,,,,,,,,,,,,,,0,45,45,45,,,,,,,,,,,,,,,,,,,,,,,,,,,,,,,,,,,,,,,,,,,,,,,,,,,,168.59341970004607,169.64403590001166,stimuli/alien_stimuli/26.png,26,2,46,,,,,,,,,,,,,A,train_y,x_increasing_steps,bottom_left,2024-10-23_13h38.11.441,HideSeek_v1,2022.2.5,60.12639769574179,
47,0,0,3,2,3,2,33,72,test_exp,untrained,,,,,,,,,,,,,,,,,,,,,0,46,46,46,0,0,0,0,,,,,,,,,,,,,,,,,,,,,,,,,,,,,,,stimuli/alien_stimuli/33.png,169.64403590001166,169.64403590001166,169.64403590001166,169.64403590001166,169.64403590001166,0,0,return,0.14658409997355193,1,0,0,-0.16,-0.4,return,0.057792400009930134,,,,,,,,,,,,,,,,,,,A,train_y,x_increasing_steps,bottom_left,2024-10-23_13h38.11.441,HideSeek_v1,2022.2.5,60.12639769574179,
47,0,0,3,2,3,2,33,72,test_exp,untrained,,,,,,,,,,,,,,,,,,,,,0,46,46,46,,,,,,,,,,,,,,,,,,,,,,,,,,,,,,,,,,,,,,,,,,,,,,,,,,,,169.7435104000615,170.79434400005266,stimuli/alien_stimuli/33.png,33,0,47,,,,,,,,,,,,,A,train_y,x_increasing_steps,bottom_left,2024-10-23_13h38.11.441,HideSeek_v1,2022.2.5,60.12639769574179,
48,3,3,7,7,4,4,25,72,test_exp,untrained,,,,,,,,,,,,,,,,,,,,,0,47,47,47,0,0,0,0,,,,,,,,,,,,,,,,,,,,,,,,,,,,,,,stimuli/alien_stimuli/25.png,170.79434400005266,170.79434400005266,170.79434400005266,170.79434400005266,170.79434400005266,0,0,return,0.22956280002836138,1,0,0,0.08,-0.16,return,0.13973590009845793,,,,,,,,,,,,,,,,,,,A,train_y,x_increasing_steps,bottom_left,2024-10-23_13h38.11.441,HideSeek_v1,2022.2.5,60.12639769574179,
48,3,3,7,7,4,4,25,72,test_exp,untrained,,,,,,,,,,,,,,,,,,,,,0,47,47,47,,,,,,,,,,,,,,,,,,,,,,,,,,,,,,,,,,,,,,,,,,,,,,,,,,,,170.9762226000894,172.03413260006346,stimuli/alien_stimuli/25.png,25,3,48,,,,,,,,,,,,,A,train_y,x_increasing_steps,bottom_left,2024-10-23_13h38.11.441,HideSeek_v1,2022.2.5,60.12639769574179,
49,4,1,9,3,5,2,13,72,test_exp,untrained,,,,,,,,,,,,,,,,,,,,,0,48,48,48,0,0,0,0,,,,,,,,,,,,,,,,,,,,,,,,,,,,,,,stimuli/alien_stimuli/13.png,172.03413260006346,172.03413260006346,172.03413260006346,172.03413260006346,172.03413260006346,0,0,return,0.2131089000031352,1,0,0,0.16,-0.32,return,0.11663750000298023,,,,,,,,,,,,,,,,,,,A,train_y,x_increasing_steps,bottom_left,2024-10-23_13h38.11.441,HideSeek_v1,2022.2.5,60.12639769574179,
49,4,1,9,3,5,2,13,72,test_exp,untrained,,,,,,,,,,,,,,,,,,,,,0,48,48,48,,,,,,,,,,,,,,,,,,,,,,,,,,,,,,,,,,,,,,,,,,,,,,,,,,,,172.19348970009014,173.22530350007582,stimuli/alien_stimuli/13.png,13,4,49,,,,,,,,,,,,,A,train_y,x_increasing_steps,bottom_left,2024-10-23_13h38.11.441,HideSeek_v1,2022.2.5,60.12639769574179,
50,4,4,9,9,5,5,16,72,test_exp,untrained,,,,,,,,,,,,,,,,,,,,,0,49,49,49,0,0,0,0,,,,,,,,,,,,,,,,,,,,,,,,,,,,,,,stimuli/alien_stimuli/16.png,173.22530350007582,173.22530350007582,173.22530350007582,173.22530350007582,173.22530350007582,0,0,return,0.1470186000224203,1,0,0,0.16,-0.08,return,0.07551959995180368,,,,,,,,,,,,,,,,,,,A,train_y,x_increasing_steps,bottom_left,2024-10-23_13h38.11.441,HideSeek_v1,2022.2.5,60.12639769574179,
50,4,4,9,9,5,5,16,72,test_exp,untrained,,,,,,,,,,,,,,,,,,,,,0,49,49,49,,,,,,,,,,,,,,,,,,,,,,,,,,,,,,,,,,,,,,,,,,,,,,,,,,,,173.34278180007823,174.39616620005108,stimuli/alien_stimuli/16.png,16,4,50,,,,,,,,,,,,,A,train_y,x_increasing_steps,bottom_left,2024-10-23_13h38.11.441,HideSeek_v1,2022.2.5,60.12639769574179,
51,2,3,3,8,1,5,56,72,test_exp,train_2D_repeat,,,,,,,,,,,,,,,,,,,,,0,50,50,50,0,0,0,0,,,,,,,,,,,,,,,,,,,,,,,,,,,,,,,stimuli/alien_stimuli/56.png,174.39616620005108,174.39616620005108,174.39616620005108,174.39616620005108,174.39616620005108,0,0,return,0.16274299996439368,1,0,0,0,-0.16,return,0.07412509992718697,,,,,,,,,,,,,,,,,,,A,train_y,x_increasing_steps,bottom_left,2024-10-23_13h38.11.441,HideSeek_v1,2022.2.5,60.12639769574179,
51,2,3,3,8,1,5,56,72,test_exp,train_2D_repeat,,,,,,,,,,,,,,,,,,,,,0,50,50,50,,,,,,,,,,,,,,,,,,,,,,,,,,,,,,,,,,,,,,,,,,,,,,,,,,,,174.51002010004595,175.5402252000058,stimuli/alien_stimuli/56.png,56,2,51,,,,,,,,,,,,,A,train_y,x_increasing_steps,bottom_left,2024-10-23_13h38.11.441,HideSeek_v1,2022.2.5,60.12639769574179,
52,3,3,4,5,1,2,53,72,test_exp,untrained,,,,,,,,,,,,,,,,,,,,,0,51,51,51,0,0,0,0,,,,,,,,,,,,,,,,,,,,,,,,,,,,,,,stimuli/alien_stimuli/53.png,175.5402252000058,175.5402252000058,175.5402252000058,175.5402252000058,175.5402252000058,0,0,return,0.21321690001059324,1,0,0,0.08,-0.16,return,0.14543460006825626,,,,,,,,,,,,,,,,,,,A,train_y,x_increasing_steps,bottom_left,2024-10-23_13h38.11.441,HideSeek_v1,2022.2.5,60.12639769574179,
52,3,3,4,5,1,2,53,72,test_exp,untrained,,,,,,,,,,,,,,,,,,,,,0,51,51,51,,,,,,,,,,,,,,,,,,,,,,,,,,,,,,,,,,,,,,,,,,,,,,,,,,,,175.7263392000459,176.7932953001,stimuli/alien_stimuli/53.png,53,3,52,,,,,,,,,,,,,A,train_y,x_increasing_steps,bottom_left,2024-10-23_13h38.11.441,HideSeek_v1,2022.2.5,60.12639769574179,
53,4,3,4,6,0,3,64,72,test_exp,train_1D_first_new,,,,,,,,,,,,,,,,,,,,,0,52,52,52,0,0,0,0,,,,,,,,,,,,,,,,,,,,,,,,,,,,,,,stimuli/alien_stimuli/64.png,176.7932953001,176.7932953001,176.7932953001,176.7932953001,176.7932953001,0,0,return,0.24588980001863092,1,0,0,0.16,-0.16,return,0.1353290000697598,,,,,,,,,,,,,,,,,,,A,train_y,x_increasing_steps,bottom_left,2024-10-23_13h38.11.441,HideSeek_v1,2022.2.5,60.12639769574179,
53,4,3,4,6,0,3,64,72,test_exp,train_1D_first_new,,,,,,,,,,,,,,,,,,,,,0,52,52,52,,,,,,,,,,,,,,,,,,,,,,,,,,,,,,,,,,,,,,,,,,,,,,,,,,,,176.9769113000948,178.03085860004649,stimuli/alien_stimuli/64.png,64,4,53,,,,,,,,,,,,,A,train_y,x_increasing_steps,bottom_left,2024-10-23_13h38.11.441,HideSeek_v1,2022.2.5,60.12639769574179,
54,0,0,3,4,3,4,35,72,test_exp,untrained,,,,,,,,,,,,,,,,,,,,,0,53,53,53,0,0,0,0,,,,,,,,,,,,,,,,,,,,,,,,,,,,,,,stimuli/alien_stimuli/35.png,178.03085860004649,178.03085860004649,178.03085860004649,178.03085860004649,178.03085860004649,0,0,return,0.11390070000197738,1,0,0,-0.16,-0.4,return,0.025157799944281578,,,,,,,,,,,,,,,,,,,A,train_y,x_increasing_steps,bottom_left,2024-10-23_13h38.11.441,HideSeek_v1,2022.2.5,60.12639769574179,
54,0,0,3,4,3,4,35,72,test_exp,untrained,,,,,,,,,,,,,,,,,,,,,0,53,53,53,,,,,,,,,,,,,,,,,,,,,,,,,,,,,,,,,,,,,,,,,,,,,,,,,,,,178.09314480004832,179.14158960001078,stimuli/alien_stimuli/35.png,35,0,54,,,,,,,,,,,,,A,train_y,x_increasing_steps,bottom_left,2024-10-23_13h38.11.441,HideSeek_v1,2022.2.5,60.12639769574179,
55,3,2,5,6,2,4,45,72,test_exp,train_2D_new,,,,,,,,,,,,,,,,,,,,,0,54,54,54,0,0,0,0,,,,,,,,,,,,,,,,,,,,,,,,,,,,,,,stimuli/alien_stimuli/45.png,179.14158960001078,179.14158960001078,179.14158960001078,179.14158960001078,179.14158960001078,0,0,return,0.23013229994103312,1,0,0,0.08,-0.24,return,0.15209310001228005,,,,,,,,,,,,,,,,,,,A,train_y,x_increasing_steps,bottom_left,2024-10-23_13h38.11.441,HideSeek_v1,2022.2.5,60.12639769574179,
55,3,2,5,6,2,4,45,72,test_exp,train_2D_new,,,,,,,,,,,,,,,,,,,,,0,54,54,54,,,,,,,,,,,,,,,,,,,,,,,,,,,,,,,,,,,,,,,,,,,,,,,,,,,,179.32634140003938,180.36025900009554,stimuli/alien_stimuli/45.png,45,3,55,,,,,,,,,,,,,A,train_y,x_increasing_steps,bottom_left,2024-10-23_13h38.11.441,HideSeek_v1,2022.2.5,60.12639769574179,
56,0,3,2,8,2,5,46,72,test_exp,untrained,,,,,,,,,,,,,,,,,,,,,0,55,55,55,0,0,0,0,,,,,,,,,,,,,,,,,,,,,,,,,,,,,,,stimuli/alien_stimuli/46.png,180.36025900009554,180.36025900009554,180.36025900009554,180.36025900009554,180.36025900009554,0,0,return,0.09618670004419982,1,0,0,-0.16,-0.16,return,0.005537000019103289,,,,,,,,,,,,,,,,,,,A,train_y,x_increasing_steps,bottom_left,2024-10-23_13h38.11.441,HideSeek_v1,2022.2.5,60.12639769574179,
56,0,3,2,8,2,5,46,72,test_exp,untrained,,,,,,,,,,,,,,,,,,,,,0,55,55,55,,,,,,,,,,,,,,,,,,,,,,,,,,,,,,,,,,,,,,,,,,,,,,,,,,,,180.42644830001518,181.47742520004977,stimuli/alien_stimuli/46.png,46,0,56,,,,,,,,,,,,,A,train_y,x_increasing_steps,bottom_left,2024-10-23_13h38.11.441,HideSeek_v1,2022.2.5,60.12639769574179,
57,2,0,5,1,3,1,32,72,test_exp,untrained,,,,,,,,,,,,,,,,,,,,,0,56,56,56,0,0,0,0,,,,,,,,,,,,,,,,,,,,,,,,,,,,,,,stimuli/alien_stimuli/32.png,181.47742520004977,181.47742520004977,181.47742520004977,181.47742520004977,181.47742520004977,0,0,return,0.2143816000316292,1,0,0,0,-0.4,return,0.12456779996864498,,,,,,,,,,,,,,,,,,,A,train_y,x_increasing_steps,bottom_left,2024-10-23_13h38.11.441,HideSeek_v1,2022.2.5,60.12639769574179,
57,2,0,5,1,3,1,32,72,test_exp,untrained,,,,,,,,,,,,,,,,,,,,,0,56,56,56,,,,,,,,,,,,,,,,,,,,,,,,,,,,,,,,,,,,,,,,,,,,,,,,,,,,181.64377030008473,182.6995753000956,stimuli/alien_stimuli/32.png,32,2,57,,,,,,,,,,,,,A,train_y,x_increasing_steps,bottom_left,2024-10-23_13h38.11.441,HideSeek_v1,2022.2.5,60.12639769574179,
58,4,2,4,2,0,0,61,72,test_exp,untrained,,,,,,,,,,,,,,,,,,,,,0,57,57,57,0,0,0,0,,,,,,,,,,,,,,,,,,,,,,,,,,,,,,,stimuli/alien_stimuli/61.png,182.6995753000956,182.6995753000956,182.6995753000956,182.6995753000956,182.6995753000956,0,0,return,0.2130777999991551,2,0,1,0.16,-0.24,return,0.12145360000431538,,,,,,,,,,,,,,,,,,,A,train_y,x_increasing_steps,bottom_left,2024-10-23_13h38.11.441,HideSeek_v1,2022.2.5,60.12639769574179,
58,4,2,4,2,0,0,61,72,test_exp,untrained,,,,,,,,,,,,,,,,,,,,,0,57,57,57,,,,,,,,,,,,,,,,,,,,,,,,,,,,,,,,,,,,,,,,,,,,,,,,,,,,182.85917310009245,183.92241510003805,stimuli/alien_stimuli/61.png,61,4,58,,,,,,,,,,,,,A,train_y,x_increasing_steps,bottom_left,2024-10-23_13h38.11.441,HideSeek_v1,2022.2.5,60.12639769574179,
59,1,0,3,1,2,1,42,72,test_exp,untrained,,,,,,,,,,,,,,,,,,,,,0,58,58,58,0,0,0,0,,,,,,,,,,,,,,,,,,,,,,,,,,,,,,,stimuli/alien_stimuli/42.png,183.92241510003805,183.92241510003805,183.92241510003805,183.92241510003805,183.92241510003805,0,0,return,0.22908369998913258,2,0,0,-0.08,-0.4,return,0.12631970003712922,,,,,,,,,,,,,,,,,,,A,train_y,x_increasing_steps,bottom_left,2024-10-23_13h38.11.441,HideSeek_v1,2022.2.5,60.12639769574179,
59,1,0,3,1,2,1,42,72,test_exp,untrained,,,,,,,,,,,,,,,,,,,,,0,58,58,58,,,,,,,,,,,,,,,,,,,,,,,,,,,,,,,,,,,,,,,,,,,,,,,,,,,,184.0935958001064,185.1503868000582,stimuli/alien_stimuli/42.png,42,1,59,,,,,,,,,,,,,A,train_y,x_increasing_steps,bottom_left,2024-10-23_13h38.11.441,HideSeek_v1,2022.2.5,60.12639769574179,
60,3,4,7,4,4,0,21,72,test_exp,train_1D_sec_new,,,,,,,,,,,,,,,,,,,,,0,59,59,59,0,0,0,0,,,,,,,,,,,,,,,,,,,,,,,,,,,,,,,stimuli/alien_stimuli/21.png,185.1503868000582,185.1503868000582,185.1503868000582,185.1503868000582,185.1503868000582,0,0,return,0.1127062999876216,2,0,0,0.08,-0.08,return,0.001331400009803474,,,,,,,,,,,,,,,,,,,A,train_y,x_increasing_steps,bottom_left,2024-10-23_13h38.11.441,HideSeek_v1,2022.2.5,60.12639769574179,
60,3,4,7,4,4,0,21,72,test_exp,train_1D_sec_new,,,,,,,,,,,,,,,,,,,,,0,59,59,59,,,,,,,,,,,,,,,,,,,,,,,,,,,,,,,,,,,,,,,,,,,,,,,,,,,,185.21065330004785,186.26955540000927,stimuli/alien_stimuli/21.png,21,3,60,,,,,,,,,,,,,A,train_y,x_increasing_steps,bottom_left,2024-10-23_13h38.11.441,HideSeek_v1,2022.2.5,60.12639769574179,
61,3,1,3,6,0,5,66,72,test_exp,train_1D_first_new,,,,,,,,,,,,,,,,,,,,,0,60,60,60,0,0,0,0,,,,,,,,,,,,,,,,,,,,,,,,,,,,,,,stimuli/alien_stimuli/66.png,186.26955540000927,186.26955540000927,186.26955540000927,186.26955540000927,186.26955540000927,0,0,return,0.22920379997231066,2,0,0,0.08,-0.32,return,0.14013129996601492,,,,,,,,,,,,,,,,,,,A,train_y,x_increasing_steps,bottom_left,2024-10-23_13h38.11.441,HideSeek_v1,2022.2.5,60.12639769574179,
61,3,1,3,6,0,5,66,72,test_exp,train_1D_first_new,,,,,,,,,,,,,,,,,,,,,0,60,60,60,,,,,,,,,,,,,,,,,,,,,,,,,,,,,,,,,,,,,,,,,,,,,,,,,,,,186.44295260007493,187.49755620001815,stimuli/alien_stimuli/66.png,66,3,61,,,,,,,,,,,,,A,train_y,x_increasing_steps,bottom_left,2024-10-23_13h38.11.441,HideSeek_v1,2022.2.5,60.12639769574179,
62,2,4,6,6,4,2,23,72,test_exp,train_2D_repeat,,,,,,,,,,,,,,,,,,,,,0,61,61,61,0,0,0,0,,,,,,,,,,,,,,,,,,,,,,,,,,,,,,,stimuli/alien_stimuli/23.png,187.49755620001815,187.49755620001815,187.49755620001815,187.49755620001815,187.49755620001815,0,0,return,0.14675489999353886,2,0,0,0,-0.08,return,0.04810919996816665,,,,,,,,,,,,,,,,,,,A,train_y,x_increasing_steps,bottom_left,2024-10-23_13h38.11.441,HideSeek_v1,2022.2.5,60.12639769574179,
62,2,4,6,6,4,2,23,72,test_exp,train_2D_repeat,,,,,,,,,,,,,,,,,,,,,0,61,61,61,,,,,,,,,,,,,,,,,,,,,,,,,,,,,,,,,,,,,,,,,,,,,,,,,,,,187.59316800010856,188.64467520010658,stimuli/alien_stimuli/23.png,23,2,62,,,,,,,,,,,,,A,train_y,x_increasing_steps,bottom_left,2024-10-23_13h38.11.441,HideSeek_v1,2022.2.5,60.12639769574179,
63,2,4,3,4,1,0,51,72,test_exp,train_1D_sec_repeat,,,,,,,,,,,,,,,,,,,,,0,62,62,62,0,0,0,0,,,,,,,,,,,,,,,,,,,,,,,,,,,,,,,stimuli/alien_stimuli/51.png,188.64467520010658,188.64467520010658,188.64467520010658,188.64467520010658,188.64467520010658,0,0,return,0.1130500000435859,2,0,0,0,-0.08,return,0.007207500049844384,,,,,,,,,,,,,,,,,,,A,train_y,x_increasing_steps,bottom_left,2024-10-23_13h38.11.441,HideSeek_v1,2022.2.5,60.12639769574179,
63,2,4,3,4,1,0,51,72,test_exp,train_1D_sec_repeat,,,,,,,,,,,,,,,,,,,,,0,62,62,62,,,,,,,,,,,,,,,,,,,,,,,,,,,,,,,,,,,,,,,,,,,,,,,,,,,,188.71033970010467,189.75614510010928,stimuli/alien_stimuli/51.png,51,2,63,,,,,,,,,,,,,A,train_y,x_increasing_steps,bottom_left,2024-10-23_13h38.11.441,HideSeek_v1,2022.2.5,60.12639769574179,
64,0,1,1,4,1,3,54,72,test_exp,untrained,,,,,,,,,,,,,,,,,,,,,0,63,63,63,0,0,0,0,,,,,,,,,,,,,,,,,,,,,,,,,,,,,,,stimuli/alien_stimuli/54.png,189.75614510010928,189.75614510010928,189.75614510010928,189.75614510010928,189.75614510010928,0,0,return,0.11341240000911057,2,0,0,-0.16,-0.32,return,0.04339960007928312,,,,,,,,,,,,,,,,,,,A,train_y,x_increasing_steps,bottom_left,2024-10-23_13h38.11.441,HideSeek_v1,2022.2.5,60.12639769574179,
64,0,1,1,4,1,3,54,72,test_exp,untrained,,,,,,,,,,,,,,,,,,,,,0,63,63,63,,,,,,,,,,,,,,,,,,,,,,,,,,,,,,,,,,,,,,,,,,,,,,,,,,,,189.84273510007188,190.89667990000453,stimuli/alien_stimuli/54.png,54,0,64,,,,,,,,,,,,,A,train_y,x_increasing_steps,bottom_left,2024-10-23_13h38.11.441,HideSeek_v1,2022.2.5,60.12639769574179,
65,0,2,5,6,5,4,15,72,test_exp,untrained,,,,,,,,,,,,,,,,,,,,,0,64,64,64,0,0,0,0,,,,,,,,,,,,,,,,,,,,,,,,,,,,,,,stimuli/alien_stimuli/15.png,190.89667990000453,190.89667990000453,190.89667990000453,190.89667990000453,190.89667990000453,0,0,return,0.2137636000989005,2,0,0,-0.16,-0.24,return,0.12508549995254725,,,,,,,,,,,,,,,,,,,A,train_y,x_increasing_steps,bottom_left,2024-10-23_13h38.11.441,HideSeek_v1,2022.2.5,60.12639769574179,
65,0,2,5,6,5,4,15,72,test_exp,untrained,,,,,,,,,,,,,,,,,,,,,0,64,64,64,,,,,,,,,,,,,,,,,,,,,,,,,,,,,,,,,,,,,,,,,,,,,,,,,,,,191.059928300092,192.11368650000077,stimuli/alien_stimuli/15.png,15,0,65,,,,,,,,,,,,,A,train_y,x_increasing_steps,bottom_left,2024-10-23_13h38.11.441,HideSeek_v1,2022.2.5,60.12639769574179,
66,0,4,3,7,3,3,34,72,test_exp,train_2D_repeat,,,,,,,,,,,,,,,,,,,,,0,65,65,65,0,0,0,0,,,,,,,,,,,,,,,,,,,,,,,,,,,,,,,stimuli/alien_stimuli/34.png,192.11368650000077,192.11368650000077,192.11368650000077,192.11368650000077,192.11368650000077,0,0,return,0.36348759999964386,2,0,0,-0.16,-0.08,return,0.27264340000692755,,,,,,,,,,,,,,,,,,,A,train_y,x_increasing_steps,bottom_left,2024-10-23_13h38.11.441,HideSeek_v1,2022.2.5,60.12639769574179,
66,0,4,3,7,3,3,34,72,test_exp,train_2D_repeat,,,,,,,,,,,,,,,,,,,,,0,65,65,65,,,,,,,,,,,,,,,,,,,,,,,,,,,,,,,,,,,,,,,,,,,,,,,,,,,,192.42667410010472,193.47265190002508,stimuli/alien_stimuli/34.png,34,0,66,,,,,,,,,,,,,A,train_y,x_increasing_steps,bottom_left,2024-10-23_13h38.11.441,HideSeek_v1,2022.2.5,60.12639769574179,
67,2,4,3,5,1,1,52,72,test_exp,untrained,,,,,,,,,,,,,,,,,,,,,0,66,66,66,0,0,0,0,,,,,,,,,,,,,,,,,,,,,,,,,,,,,,,stimuli/alien_stimuli/52.png,193.47265190002508,193.47265190002508,193.47265190002508,193.47265190002508,193.47265190002508,0,0,return,0.145979700027965,2,0,0,0,-0.08,return,0.06160200003068894,,,,,,,,,,,,,,,,,,,A,train_y,x_increasing_steps,bottom_left,2024-10-23_13h38.11.441,HideSeek_v1,2022.2.5,60.12639769574179,
67,2,4,3,5,1,1,52,72,test_exp,untrained,,,,,,,,,,,,,,,,,,,,,0,66,66,66,,,,,,,,,,,,,,,,,,,,,,,,,,,,,,,,,,,,,,,,,,,,,,,,,,,,193.57584250008222,194.6277878000401,stimuli/alien_stimuli/52.png,52,2,67,,,,,,,,,,,,,A,train_y,x_increasing_steps,bottom_left,2024-10-23_13h38.11.441,HideSeek_v1,2022.2.5,60.12639769574179,
68,2,1,5,1,3,0,31,72,test_exp,train_1D_sec_new,,,,,,,,,,,,,,,,,,,,,0,67,67,67,0,0,0,0,,,,,,,,,,,,,,,,,,,,,,,,,,,,,,,stimuli/alien_stimuli/31.png,194.6277878000401,194.6277878000401,194.6277878000401,194.6277878000401,194.6277878000401,0,0,return,0.19614539993926883,2,0,0,0,-0.32,return,0.10937189997639507,,,,,,,,,,,,,,,,,,,A,train_y,x_increasing_steps,bottom_left,2024-10-23_13h38.11.441,HideSeek_v1,2022.2.5,60.12639769574179,
68,2,1,5,1,3,0,31,72,test_exp,train_1D_sec_new,,,,,,,,,,,,,,,,,,,,,0,67,67,67,,,,,,,,,,,,,,,,,,,,,,,,,,,,,,,,,,,,,,,,,,,,,,,,,,,,194.77621050004382,195.82690630003344,stimuli/alien_stimuli/31.png,31,2,68,,,,,,,,,,,,,A,train_y,x_increasing_steps,bottom_left,2024-10-23_13h38.11.441,HideSeek_v1,2022.2.5,60.12639769574179,
69,2,3,7,6,5,3,14,72,test_exp,untrained,,,,,,,,,,,,,,,,,,,,,0,68,68,68,0,0,0,0,,,,,,,,,,,,,,,,,,,,,,,,,,,,,,,stimuli/alien_stimuli/14.png,195.82690630003344,195.82690630003344,195.82690630003344,195.82690630003344,195.82690630003344,0,0,return,0.3131184000521898,2,0,0,0,-0.16,return,0.22206669999286532,,,,,,,,,,,,,,,,,,,A,train_y,x_increasing_steps,bottom_left,2024-10-23_13h38.11.441,HideSeek_v1,2022.2.5,60.12639769574179,
69,2,3,7,6,5,3,14,72,test_exp,untrained,,,,,,,,,,,,,,,,,,,,,0,68,68,68,,,,,,,,,,,,,,,,,,,,,,,,,,,,,,,,,,,,,,,,,,,,,,,,,,,,196.09284820000175,197.13063670007978,stimuli/alien_stimuli/14.png,14,2,69,,,,,,,,,,,,,A,train_y,x_increasing_steps,bottom_left,2024-10-23_13h38.11.441,HideSeek_v1,2022.2.5,60.12639769574179,
70,1,1,6,2,5,1,12,72,test_exp,train_2D_new,,,,,,,,,,,,,,,,,,,,,0,69,69,69,0,0,0,0,,,,,,,,,,,,,,,,,,,,,,,,,,,,,,,stimuli/alien_stimuli/12.png,197.13063670007978,197.13063670007978,197.13063670007978,197.13063670007978,197.13063670007978,0,0,return,0.512451000045985,2,0,0,-0.08,-0.32,return,0.43424629990477115,,,,,,,,,,,,,,,,,,,A,train_y,x_increasing_steps,bottom_left,2024-10-23_13h38.11.441,HideSeek_v1,2022.2.5,60.12639769574179,
70,1,1,6,2,5,1,12,72,test_exp,train_2D_new,,,,,,,,,,,,,,,,,,,,,0,69,69,69,,,,,,,,,,,,,,,,,,,,,,,,,,,,,,,,,,,,,,,,,,,,,,,,,,,,197.6094612000743,198.6704867000226,stimuli/alien_stimuli/12.png,12,1,70,,,,,,,,,,,,,A,train_y,x_increasing_steps,bottom_left,2024-10-23_13h38.11.441,HideSeek_v1,2022.2.5,60.12639769574179,
71,0,4,0,5,0,1,62,72,test_exp,train_1D_first_new,,,,,,,,,,,,,,,,,,,,,0,70,70,70,0,0,0,0,,,,,,,,,,,,,,,,,,,,,,,,,,,,,,,stimuli/alien_stimuli/62.png,198.6704867000226,198.6704867000226,198.6704867000226,198.6704867000226,198.6704867000226,0,0,return,0.8797768000513315,2,0,0,-0.16,-0.08,return,0.780676000053063,,,,,,,,,,,,,,,,,,,A,train_y,x_increasing_steps,bottom_left,2024-10-23_13h38.11.441,HideSeek_v1,2022.2.5,60.12639769574179,
71,0,4,0,5,0,1,62,72,test_exp,train_1D_first_new,,,,,,,,,,,,,,,,,,,,,0,70,70,70,,,,,,,,,,,,,,,,,,,,,,,,,,,,,,,,,,,,,,,,,,,,,,,,,,,,199.49253070005216,200.5593591000652,stimuli/alien_stimuli/62.png,62,0,71,,,,,,,,,,,,,A,train_y,x_increasing_steps,bottom_left,2024-10-23_13h38.11.441,HideSeek_v1,2022.2.5,60.12639769574179,
72,1,4,3,4,2,0,41,72,test_exp,untrained_1D_sec_leftout,,,,,,,,,,,,,,,,,,,,,0,71,71,71,0,0,0,0,,,,,,,,,,,,,,,,,,,,,,,,,,,,,,,stimuli/alien_stimuli/41.png,200.5593591000652,200.5593591000652,200.5593591000652,200.5593591000652,200.5593591000652,0,0,return,0.42986649996601045,2,0,0,-0.08,-0.08,return,0.3267584000714123,,,,,,,,,,,,,,,,,,,A,train_y,x_increasing_steps,bottom_left,2024-10-23_13h38.11.441,HideSeek_v1,2022.2.5,60.12639769574179,
72,1,4,3,4,2,0,41,72,test_exp,untrained_1D_sec_leftout,,,,,,,,,,,,,,,,,,,,,0,71,71,71,,,,,,,,,,,,,,,,,,,,,,,,,,,,,,,,,,,,,,,,,,,,,,,,,,,,200.92611310002394,202.00061530002858,stimuli/alien_stimuli/41.png,41,1,72,,,,,,,,,,,,,A,train_y,x_increasing_steps,bottom_left,2024-10-23_13h38.11.441,HideSeek_v1,2022.2.5,60.12639769574179,
,,,,,,,,,,,,,,,,,,,,,,,,,,,,,,,,,,,,,,,,,,,,,,,,,,,,,,,,,,,,,,,,,,,,,,,,,,,,,,,,,,,,,,,,,,,,165.22863679996226,end_all_time,None,,,,,,,,,,A,train_y,x_increasing_steps,bottom_left,2024-10-23_13h38.11.441,HideSeek_v1,2022.2.5,60.12639769574179,
,,,,,,,,,,,,,,,,,,,,,,,,,,,,,,,,,,,,,,,0,0,0,0,,,conditions/schedules/train_y_first/x_increasing_steps/bottom_left/instructions/Slide32.png,conditions/schedules/train_y_first/x_increasing_steps/bottom_left/instructions/Audio31.wav,,,,,,,,,,,,,,,,,,,,,,,,,,,,,,,,,,,,,,,,,,,,,,,,,202.00061530002858,201.9922265500063,1,[10.358916400000453],[10.358922999934293],0,,,,A,train_y,x_increasing_steps,bottom_left,2024-10-23_13h38.11.441,HideSeek_v1,2022.2.5,60.12639769574179,
,,,,,,,,,,,,,,,,,,,,,,,,,,,,,,,,,,,,,,,1,0,1,0,,,conditions/schedules/train_y_first/x_increasing_steps/bottom_left/instructions/Slide32.png,conditions/schedules/train_y_first/x_increasing_steps/bottom_left/instructions/Audio31.wav,,,,,,,,,,,,,,,,,,,,,,,,,,,,,,,,,,,,,,,,,,,,,,,,,212.39870050002355,212.3932063100161,2,"[10.358916400000453, 17.276710900012404]","[0.05914999998640269, 17.27671859995462]",0,,,,A,train_y,x_increasing_steps,bottom_left,2024-10-23_13h38.11.441,HideSeek_v1,2022.2.5,60.12639769574179,
,,,,,,,,,,,,,,,,,,,,,,,,,,,,,,,,,,,,,,,2,0,2,0,,,conditions/schedules/train_y_first/x_increasing_steps/bottom_left/instructions/Slide32.png,conditions/schedules/train_y_first/x_increasing_steps/bottom_left/instructions/Audio31.wav,,,,,,,,,,,,,,,,,,,,,,,,,,,,,,,,,,,,,,,,,,,,,,,,,229.73007790010888,229.726230280078,3,"[10.358916400000453, 17.276710900012404, 2.809733600006439]","[0.05914999998640269, 0.05955200002063066, 2.8097393999341875]",0,,,,A,train_y,x_increasing_steps,bottom_left,2024-10-23_13h38.11.441,HideSeek_v1,2022.2.5,60.12639769574179,
,,,,,,,,,,,,,,,,,,,,,,,,,,,,,,,,,,,,,,,,,,,,,,,,,,,,,,,,,,,,,,,,,,,,,,,,,,,,,,,,,,,,,,,,,,,,198.8173057999229,end_all_time,,,,,,,,,,232.60416600003373,,,,,,,,,
