trialTrain,x_fixStart,y_fixStart,x_corrSteps,y_corrSteps,x_nrSteps,y_nrSteps,alienID,testlen,version,trial_label,beforeExpLoop.thisRepN,beforeExpLoop.thisTrialN,beforeExpLoop.thisN,beforeExpLoop.thisIndex,mini_instr_trials.thisRepN,mini_instr_trials.thisTrialN,mini_instr_trials.thisN,mini_instr_trials.thisIndex,instrLoop.thisRepN,instrLoop.thisTrialN,instrLoop.thisN,instrLoop.thisIndex,repeat_prac.thisRepN,repeat_prac.thisTrialN,repeat_prac.thisN,repeat_prac.thisIndex,trainLoop.thisRepN,trainLoop.thisTrialN,trainLoop.thisN,trainLoop.thisIndex,experiment.thisRepN,experiment.thisTrialN,experiment.thisN,experiment.thisIndex,moveLoop_test.thisRepN,moveLoop_test.thisTrialN,moveLoop_test.thisN,moveLoop_test.thisIndex,mini_instr2_trials.thisRepN,mini_instr2_trials.thisTrialN,mini_instr2_trials.thisN,mini_instr2_trials.thisIndex,start_all_time,url,slideStim,audioStim,slides.started,sounds.started,nextButton.numClicks,nextButton.timesOn,nextButton.timesOff,prev_but.numClicks,prev_but.timesOn,prev_but.timesOff,perfthres,percthres,earlierperf,earlystop,nextPrac,fileidx,praclen,saveACC_train,pracFile,nextPrac_train,addNrep,fileidx_endr,repExp,showearly,alienStim,gridImage_3.started,alienImage_test.started,startPos_test.started,movePos_test.started,key_resp_test.started,wLy_dir_test,wLx_dir_test,buttonPress_test,RTchoice_test,cumAcctest,saveACC_choice,corrAns_test,x_movePos_end,y_movePos_end,key_resp_test.keys,key_resp_test.rt,fixation_text.started,fixation_text.stopped,draw_alienStim,draw_alienID,test_x,nrepcount,total_time,end_all_time,key_resp_3.keys,slides_2.started,sounds_3.started,nextButton_2.numClicks,nextButton_2.timesOn,nextButton_2.timesOff,prev_but_2.numClicks,prev_but_2.timesOn,prev_but_2.timesOff,participant,train_first,direction of x,starting corner,date,expName,psychopyVersion,frameRate,
,,,,,,,,,,,0,0,0,0,0,0,0,0,,,,,,,,,,,,,,,,,,,,,,,,,start_all_time,testround,conditions/schedules/train_x_first/x_decreasing_steps/top_left/instructions/Slide1.png,conditions/schedules/train_x_first/x_decreasing_steps/top_left/instructions/Audio1.wav,35.14204309997149,35.07294883873546,1,[2.9574287000577897],[2.957438400015235],0,,,,,,,,,,,,,,,,,,,,,,,,,,,,,,,,,,,,,,,,,,,,,,,,,,,A,train_x,x_decreasing_steps,top_left,2024-10-23_13h46.10.903,HideSeek_v1,2022.2.5,60.47009453236554,
,,,,,,,,,,,0,0,0,0,1,0,1,0,,,,,,,,,,,,,,,,,,,,,,,,,,,conditions/schedules/train_x_first/x_decreasing_steps/top_left/instructions/Slide2.png,conditions/schedules/train_x_first/x_decreasing_steps/top_left/instructions/Audio2.wav,38.14270349999424,38.12681407994823,2,"[2.9574287000577897, 0.17829399998299778]","[2.957438400015235, 0.17830010002944618]",0,,,,,,,,,,,,,,,,,,,,,,,,,,,,,,,,,,,,,,,,,,,,,,,,,,,A,train_x,x_decreasing_steps,top_left,2024-10-23_13h46.10.903,HideSeek_v1,2022.2.5,60.47009453236554,
,,,,,,,,,,,0,0,0,0,2,0,2,0,,,,,,,,,,,,,,,,,,,,,,,,,,,conditions/schedules/train_x_first/x_decreasing_steps/top_left/instructions/Slide3.png,conditions/schedules/train_x_first/x_decreasing_steps/top_left/instructions/Audio3.wav,38.35988440003712,38.359915760019796,3,"[2.9574287000577897, 0.17829399998299778, 0.21566729992628098]","[2.957438400015235, 0.014481399906799197, 0.21567740000318736]",0,,,,,,,,,,,,,,,,,,,,,,,,,,,,,,,,,,,,,,,,,,,,,,,,,,,A,train_x,x_decreasing_steps,top_left,2024-10-23_13h46.10.903,HideSeek_v1,2022.2.5,60.47009453236554,
,,,,,,,,,,,0,0,0,0,3,0,3,0,,,,,,,,,,,,,,,,,,,,,,,,,,,conditions/schedules/train_x_first/x_decreasing_steps/top_left/instructions/Slide4.png,conditions/schedules/train_x_first/x_decreasing_steps/top_left/instructions/Audio4.wav,38.642789100063965,38.62764015994035,4,"[2.9574287000577897, 0.17829399998299778, 0.21566729992628098, 0.13886899990029633]","[2.957438400015235, 0.014481399906799197, 0.21567740000318736, 0.13887709996197373]",0,,,,,,,,,,,,,,,,,,,,,,,,,,,,,,,,,,,,,,,,,,,,,,,,,,,A,train_x,x_decreasing_steps,top_left,2024-10-23_13h46.10.903,HideSeek_v1,2022.2.5,60.47009453236554,
,,,,,,,,,,,0,0,0,0,4,0,4,0,,,,,,,,,,,,,,,,,,,,,,,,,,,conditions/schedules/train_x_first/x_decreasing_steps/top_left/instructions/Slide5.png,conditions/schedules/train_x_first/x_decreasing_steps/top_left/instructions/Audio5.wav,38.82436339999549,38.82367195994593,5,"[2.9574287000577897, 0.17829399998299778, 0.21566729992628098, 0.13886899990029633, 0.11860120005439967]","[2.957438400015235, 0.014481399906799197, 0.21567740000318736, 0.13887709996197373, 0.11861040000803769]",0,,,,,,,,,,,,,,,,,,,,,,,,,,,,,,,,,,,,,,,,,,,,,,,,,,,A,train_x,x_decreasing_steps,top_left,2024-10-23_13h46.10.903,HideSeek_v1,2022.2.5,60.47009453236554,
,,,,,,,,,,,0,0,0,0,5,0,5,0,,,,,,,,,,,,,,,,,,,,,,,,,,,conditions/schedules/train_x_first/x_decreasing_steps/top_left/instructions/Slide6.png,conditions/schedules/train_x_first/x_decreasing_steps/top_left/instructions/Audio6.wav,38.99055760004558,38.99313026005402,6,"[2.9574287000577897, 0.17829399998299778, 0.21566729992628098, 0.13886899990029633, 0.11860120005439967, 0.649534699972719]","[2.957438400015235, 0.014481399906799197, 0.21567740000318736, 0.13887709996197373, 0.014147899928502738, 0.6495402000145987]",0,,,,,,,,,,,,,,,,,,,,,,,,,,,,,,,,,,,,,,,,,,,,,,,,,,,A,train_x,x_decreasing_steps,top_left,2024-10-23_13h46.10.903,HideSeek_v1,2022.2.5,60.47009453236554,
,,,,,,,,,,,0,0,0,0,6,0,6,0,,,,,,,,,,,,,,,,,,,,,,,,,,,conditions/schedules/train_x_first/x_decreasing_steps/top_left/instructions/Slide7.png,conditions/schedules/train_x_first/x_decreasing_steps/top_left/instructions/Audio7.wav,39.68980890000239,39.6759437200264,7,"[2.9574287000577897, 0.17829399998299778, 0.21566729992628098, 0.13886899990029633, 0.11860120005439967, 0.649534699972719, 0.15055230003781617]","[2.957438400015235, 0.014481399906799197, 0.21567740000318736, 0.13887709996197373, 0.014147899928502738, 0.0002452000044286251, 0.1505588999716565]",0,,,,,,,,,,,,,,,,,,,,,,,,,,,,,,,,,,,,,,,,,,,,,,,,,,,A,train_x,x_decreasing_steps,top_left,2024-10-23_13h46.10.903,HideSeek_v1,2022.2.5,60.47009453236554,
,,,,,,,,,,,0,0,0,0,7,0,7,0,,,,,,,,,,,,,,,,,,,,,,,,,,,conditions/schedules/train_x_first/x_decreasing_steps/top_left/instructions/Slide8.png,conditions/schedules/train_x_first/x_decreasing_steps/top_left/instructions/Audio8.wav,39.893250999972224,39.87602432001149,8,"[2.9574287000577897, 0.17829399998299778, 0.21566729992628098, 0.13886899990029633, 0.11860120005439967, 0.649534699972719, 0.15055230003781617, 0.10447569994721562]","[2.957438400015235, 0.014481399906799197, 0.21567740000318736, 0.13887709996197373, 0.014147899928502738, 0.0002452000044286251, 0.1505588999716565, 0.10448169999290258]",0,,,,,,,,,,,,,,,,,,,,,,,,,,,,,,,,,,,,,,,,,,,,,,,,,,,A,train_x,x_decreasing_steps,top_left,2024-10-23_13h46.10.903,HideSeek_v1,2022.2.5,60.47009453236554,
,,,,,,,,,,,0,0,0,0,8,0,8,0,,,,,,,,,,,,,,,,,,,,,,,,,,,conditions/schedules/train_x_first/x_decreasing_steps/top_left/instructions/Slide9.png,conditions/schedules/train_x_first/x_decreasing_steps/top_left/instructions/Audio9.wav,40.04133689997252,40.027452819969035,9,"[2.9574287000577897, 0.17829399998299778, 0.21566729992628098, 0.13886899990029633, 0.11860120005439967, 0.649534699972719, 0.15055230003781617, 0.10447569994721562, 0.38457009999547154]","[2.957438400015235, 0.014481399906799197, 0.21567740000318736, 0.13887709996197373, 0.014147899928502738, 0.0002452000044286251, 0.1505588999716565, 0.00022629997693002224, 0.38457760005258024]",0,,,,,,,,,,,,,,,,,,,,,,,,,,,,,,,,,,,,,,,,,,,,,,,,,,,A,train_x,x_decreasing_steps,top_left,2024-10-23_13h46.10.903,HideSeek_v1,2022.2.5,60.47009453236554,
,,,,,,,,,,,0,0,0,0,9,0,9,0,,,,,,,,,,,,,,,,,,,,,,,,,,,conditions/schedules/train_x_first/x_decreasing_steps/top_left/instructions/Slide10.png,conditions/schedules/train_x_first/x_decreasing_steps/top_left/instructions/Audio10.wav,40.46055560000241,40.45938851997489,10,"[2.9574287000577897, 0.17829399998299778, 0.21566729992628098, 0.13886899990029633, 0.11860120005439967, 0.649534699972719, 0.15055230003781617, 0.10447569994721562, 0.38457009999547154, 1.079923199955374]","[2.957438400015235, 0.014481399906799197, 0.21567740000318736, 0.13887709996197373, 0.014147899928502738, 0.0002452000044286251, 0.1505588999716565, 0.00022629997693002224, 0.00019319995772093534, 1.079930100007914]",0,,,,,,,,,,,,,,,,,,,,,,,,,,,,,,,,,,,,,,,,,,,,,,,,,,,A,train_x,x_decreasing_steps,top_left,2024-10-23_13h46.10.903,HideSeek_v1,2022.2.5,60.47009453236554,
,,,,,,,,,,,0,0,0,0,10,0,10,0,,,,,,,,,,,,,,,,,,,,,,,,,,,conditions/schedules/train_x_first/x_decreasing_steps/top_left/instructions/Slide11.png,conditions/schedules/train_x_first/x_decreasing_steps/top_left/instructions/Audio11.wav,41.625432900036685,41.609102999966126,11,"[2.9574287000577897, 0.17829399998299778, 0.21566729992628098, 0.13886899990029633, 0.11860120005439967, 0.649534699972719, 0.15055230003781617, 0.10447569994721562, 0.38457009999547154, 1.079923199955374, 5.738681499962695]","[2.957438400015235, 0.014481399906799197, 0.21567740000318736, 0.13887709996197373, 0.014147899928502738, 0.0002452000044286251, 0.1505588999716565, 0.00022629997693002224, 0.00019319995772093534, 1.079930100007914, 5.7386883000144735]",0,,,,,,,,,,,,,,,,,,,,,,,,,,,,,,,,,,,,,,,,,,,,,,,,,,,A,train_x,x_decreasing_steps,top_left,2024-10-23_13h46.10.903,HideSeek_v1,2022.2.5,60.47009453236554,
,,,,,,,,,,,0,0,0,0,11,0,11,0,,,,,,,,,,,,,,,,,,,,,,,,,,,conditions/schedules/train_x_first/x_decreasing_steps/top_left/instructions/Slide12.png,conditions/schedules/train_x_first/x_decreasing_steps/top_left/instructions/Audio12.wav,47.41174890007824,47.40875725997612,12,"[2.9574287000577897, 0.17829399998299778, 0.21566729992628098, 0.13886899990029633, 0.11860120005439967, 0.649534699972719, 0.15055230003781617, 0.10447569994721562, 0.38457009999547154, 1.079923199955374, 5.738681499962695, 4.444607299985364]","[2.957438400015235, 0.014481399906799197, 0.21567740000318736, 0.13887709996197373, 0.014147899928502738, 0.0002452000044286251, 0.1505588999716565, 0.00022629997693002224, 0.00019319995772093534, 1.079930100007914, 0.043976099928840995, 4.444613999919966]",0,,,,,,,,,,,,,,,,,,,,,,,,,,,,,,,,,,,,,,,,,,,,,,,,,,,A,train_x,x_decreasing_steps,top_left,2024-10-23_13h46.10.903,HideSeek_v1,2022.2.5,60.47009453236554,
,,,,,,,,,,,0,0,0,0,,,,,,,,,,,,,,,,,,,,,,,,,,,,,,,,,,,,,,,,,17,0.7,0,0,99,1,30,0,conditions/inputTrain_1.1.xlsx,99,1,1,1,0,,,,,,,,,,,,,,,,,,,,,,,,,,,,,,,,,,,A,train_x,x_decreasing_steps,top_left,2024-10-23_13h46.10.903,HideSeek_v1,2022.2.5,60.47009453236554,
,,,,,,,,,,,1,0,1,0,0,0,0,0,,,,,,,,,,,,,,,,,,,,,,,,,,,conditions/schedules/train_x_first/x_decreasing_steps/top_left/instructions/Slide13.png,conditions/schedules/train_x_first/x_decreasing_steps/top_left/instructions/Audio13.wav,51.96916580002289,51.95948357997695,13,"[2.9574287000577897, 0.17829399998299778, 0.21566729992628098, 0.13886899990029633, 0.11860120005439967, 0.649534699972719, 0.15055230003781617, 0.10447569994721562, 0.38457009999547154, 1.079923199955374, 5.738681499962695, 4.444607299985364, 2.3891169999260455]","[2.957438400015235, 0.014481399906799197, 0.21567740000318736, 0.13887709996197373, 0.014147899928502738, 0.0002452000044286251, 0.1505588999716565, 0.00022629997693002224, 0.00019319995772093534, 1.079930100007914, 0.043976099928840995, 0.015104699996300042, 2.389123599976301]",0,,,,,,,,,,,,,,,,,,,,,,,,,,,,,,,,,,,,,,,,,,,,,,,,,,,A,train_x,x_decreasing_steps,top_left,2024-10-23_13h46.10.903,HideSeek_v1,2022.2.5,60.47009453236554,
,,,,,,,,,,,1,0,1,0,1,0,1,0,,,,,,,,,,,,,,,,,,,,,,,,,,,conditions/schedules/train_x_first/x_decreasing_steps/top_left/instructions/Slide14.png,conditions/schedules/train_x_first/x_decreasing_steps/top_left/instructions/Audio14.wav,54.44452430005185,54.44360703995917,14,"[2.9574287000577897, 0.17829399998299778, 0.21566729992628098, 0.13886899990029633, 0.11860120005439967, 0.649534699972719, 0.15055230003781617, 0.10447569994721562, 0.38457009999547154, 1.079923199955374, 5.738681499962695, 4.444607299985364, 2.3891169999260455, 1.7457868000492454]","[2.957438400015235, 0.014481399906799197, 0.21567740000318736, 0.13887709996197373, 0.014147899928502738, 0.0002452000044286251, 0.1505588999716565, 0.00022629997693002224, 0.00019319995772093534, 1.079930100007914, 0.043976099928840995, 0.015104699996300042, 0.04484860005322844, 1.7457976000150666]",0,,,,,,,,,,,,,,,,,,,,,,,,,,,,,,,,,,,,,,,,,,,,,,,,,,,A,train_x,x_decreasing_steps,top_left,2024-10-23_13h46.10.903,HideSeek_v1,2022.2.5,60.47009453236554,
,,,,,,,,,,,1,0,1,0,,,,,,,,,,,,,,,,,,,,,,,,,,,,,,,,,,,,,,,,,17,0.7,0,0,99,1,30,0,conditions/inputTrain_1.1.xlsx,99,1,1,1,0,,,,,,,,,,,,,,,,,,,,,,,,,,,,,,,,,,,A,train_x,x_decreasing_steps,top_left,2024-10-23_13h46.10.903,HideSeek_v1,2022.2.5,60.47009453236554,
,,,,,,,,,,,2,0,2,0,0,0,0,0,,,,,,,,,,,,,,,,,,,,,,,,,,,conditions/schedules/train_x_first/x_decreasing_steps/top_left/instructions/Slide15.png,conditions/schedules/train_x_first/x_decreasing_steps/top_left/instructions/Audio15.wav,56.34203569998499,56.326397159916816,15,"[2.9574287000577897, 0.17829399998299778, 0.21566729992628098, 0.13886899990029633, 0.11860120005439967, 0.649534699972719, 0.15055230003781617, 0.10447569994721562, 0.38457009999547154, 1.079923199955374, 5.738681499962695, 4.444607299985364, 2.3891169999260455, 1.7457868000492454, 1.1926894000498578]","[2.957438400015235, 0.014481399906799197, 0.21567740000318736, 0.13887709996197373, 0.014147899928502738, 0.0002452000044286251, 0.1505588999716565, 0.00022629997693002224, 0.00019319995772093534, 1.079930100007914, 0.043976099928840995, 0.015104699996300042, 0.04484860005322844, 1.7457976000150666, 1.1926963001023978]",0,,,,,,,,,,,,,,,,,,,,,,,,,,,,,,,,,,,,,,,,,,,,,,,,,,,A,train_x,x_decreasing_steps,top_left,2024-10-23_13h46.10.903,HideSeek_v1,2022.2.5,60.47009453236554,
,,,,,,,,,,,2,0,2,0,1,0,1,0,,,,,,,,,,,,,,,,,,,,,,,,,,,conditions/schedules/train_x_first/x_decreasing_steps/top_left/instructions/Slide16.png,conditions/schedules/train_x_first/x_decreasing_steps/top_left/instructions/Audio16.wav,57.575817100005224,57.57624966001604,16,"[2.9574287000577897, 0.17829399998299778, 0.21566729992628098, 0.13886899990029633, 0.11860120005439967, 0.649534699972719, 0.15055230003781617, 0.10447569994721562, 0.38457009999547154, 1.079923199955374, 5.738681499962695, 4.444607299985364, 2.3891169999260455, 1.7457868000492454, 1.1926894000498578, 2.482321499963291]","[2.957438400015235, 0.014481399906799197, 0.21567740000318736, 0.13887709996197373, 0.014147899928502738, 0.0002452000044286251, 0.1505588999716565, 0.00022629997693002224, 0.00019319995772093534, 1.079930100007914, 0.043976099928840995, 0.015104699996300042, 0.04484860005322844, 1.7457976000150666, 0.14779299998190254, 2.4823290000203997]",0,,,,,,,,,,,,,,,,,,,,,,,,,,,,,,,,,,,,,,,,,,,,,,,,,,,A,train_x,x_decreasing_steps,top_left,2024-10-23_13h46.10.903,HideSeek_v1,2022.2.5,60.47009453236554,
,,,,,,,,,,,2,0,2,0,,,,,,,,,,,,,,,,,,,,,,,,,,,,,,,,,,,,,,,,,17,0.7,0,0,99,1,30,0,conditions/inputTrain_1.1.xlsx,99,1,1,1,0,,,,,,,,,,,,,,,,,,,,,,,,,,,,,,,,,,,A,train_x,x_decreasing_steps,top_left,2024-10-23_13h46.10.903,HideSeek_v1,2022.2.5,60.47009453236554,
,,,,,,,,,,,3,0,3,0,0,0,0,0,,,,,,,,,,,,,,,,,,,,,,,,,,,conditions/schedules/train_x_first/x_decreasing_steps/top_left/instructions/Slide17.png,conditions/schedules/train_x_first/x_decreasing_steps/top_left/instructions/Audio17.wav,60.18488630000502,60.17709981992375,17,"[2.9574287000577897, 0.17829399998299778, 0.21566729992628098, 0.13886899990029633, 0.11860120005439967, 0.649534699972719, 0.15055230003781617, 0.10447569994721562, 0.38457009999547154, 1.079923199955374, 5.738681499962695, 4.444607299985364, 2.3891169999260455, 1.7457868000492454, 1.1926894000498578, 2.482321499963291, 0.9396038000704721]","[2.957438400015235, 0.014481399906799197, 0.21567740000318736, 0.13887709996197373, 0.014147899928502738, 0.0002452000044286251, 0.1505588999716565, 0.00022629997693002224, 0.00019319995772093534, 1.079930100007914, 0.043976099928840995, 0.015104699996300042, 0.04484860005322844, 1.7457976000150666, 0.14779299998190254, 0.013844700064510107, 0.9396102000027895]",0,,,,,,,,,,,,,,,,,,,,,,,,,,,,,,,,,,,,,,,,,,,,,,,,,,,A,train_x,x_decreasing_steps,top_left,2024-10-23_13h46.10.903,HideSeek_v1,2022.2.5,60.47009453236554,
,,,,,,,,,,,3,0,3,0,1,0,1,0,,,,,,,,,,,,,,,,,,,,,,,,,,,conditions/schedules/train_x_first/x_decreasing_steps/top_left/instructions/Slide18.png,conditions/schedules/train_x_first/x_decreasing_steps/top_left/instructions/Audio18.wav,61.1717141000554,61.16045021997997,18,"[2.9574287000577897, 0.17829399998299778, 0.21566729992628098, 0.13886899990029633, 0.11860120005439967, 0.649534699972719, 0.15055230003781617, 0.10447569994721562, 0.38457009999547154, 1.079923199955374, 5.738681499962695, 4.444607299985364, 2.3891169999260455, 1.7457868000492454, 1.1926894000498578, 2.482321499963291, 0.9396038000704721, 2.085021900013089]","[2.957438400015235, 0.014481399906799197, 0.21567740000318736, 0.13887709996197373, 0.014147899928502738, 0.0002452000044286251, 0.1505588999716565, 0.00022629997693002224, 0.00019319995772093534, 1.079930100007914, 0.043976099928840995, 0.015104699996300042, 0.04484860005322844, 1.7457976000150666, 0.14779299998190254, 0.013844700064510107, 0.21807750000152737, 2.085028500063345]",0,,,,,,,,,,,,,,,,,,,,,,,,,,,,,,,,,,,,,,,,,,,,,,,,,,,A,train_x,x_decreasing_steps,top_left,2024-10-23_13h46.10.903,HideSeek_v1,2022.2.5,60.47009453236554,
,,,,,,,,,,,3,0,3,0,2,0,2,0,,,,,,,,,,,,,,,,,,,,,,,,,,,conditions/schedules/train_x_first/x_decreasing_steps/top_left/instructions/Slide19.png,conditions/schedules/train_x_first/x_decreasing_steps/top_left/instructions/Audio19.wav,63.300444600055926,63.292612420034125,19,"[2.9574287000577897, 0.17829399998299778, 0.21566729992628098, 0.13886899990029633, 0.11860120005439967, 0.649534699972719, 0.15055230003781617, 0.10447569994721562, 0.38457009999547154, 1.079923199955374, 5.738681499962695, 4.444607299985364, 2.3891169999260455, 1.7457868000492454, 1.1926894000498578, 2.482321499963291, 0.9396038000704721, 2.085021900013089, 4.672587699955329]","[2.957438400015235, 0.014481399906799197, 0.21567740000318736, 0.13887709996197373, 0.014147899928502738, 0.0002452000044286251, 0.1505588999716565, 0.00022629997693002224, 0.00019319995772093534, 1.079930100007914, 0.043976099928840995, 0.015104699996300042, 0.04484860005322844, 1.7457976000150666, 0.14779299998190254, 0.013844700064510107, 0.21807750000152737, 0.07220779999624938, 4.672595800017007]",0,,,,,,,,,,,,,,,,,,,,,,,,,,,,,,,,,,,,,,,,,,,,,,,,,,,A,train_x,x_decreasing_steps,top_left,2024-10-23_13h46.10.903,HideSeek_v1,2022.2.5,60.47009453236554,
,,,,,,,,,,,3,0,3,0,3,0,3,0,,,,,,,,,,,,,,,,,,,,,,,,,,,conditions/schedules/train_x_first/x_decreasing_steps/top_left/instructions/Slide20.png,conditions/schedules/train_x_first/x_decreasing_steps/top_left/instructions/Audio20.wav,68.03093530004844,68.02556305998006,20,"[2.9574287000577897, 0.17829399998299778, 0.21566729992628098, 0.13886899990029633, 0.11860120005439967, 0.649534699972719, 0.15055230003781617, 0.10447569994721562, 0.38457009999547154, 1.079923199955374, 5.738681499962695, 4.444607299985364, 2.3891169999260455, 1.7457868000492454, 1.1926894000498578, 2.482321499963291, 0.9396038000704721, 2.085021900013089, 4.672587699955329, 2.9603360999608412]","[2.957438400015235, 0.014481399906799197, 0.21567740000318736, 0.13887709996197373, 0.014147899928502738, 0.0002452000044286251, 0.1505588999716565, 0.00022629997693002224, 0.00019319995772093534, 1.079930100007914, 0.043976099928840995, 0.015104699996300042, 0.04484860005322844, 1.7457976000150666, 0.14779299998190254, 0.013844700064510107, 0.21807750000152737, 0.07220779999624938, 0.014819300035014749, 2.960344100021757]",0,,,,,,,,,,,,,,,,,,,,,,,,,,,,,,,,,,,,,,,,,,,,,,,,,,,A,train_x,x_decreasing_steps,top_left,2024-10-23_13h46.10.903,HideSeek_v1,2022.2.5,60.47009453236554,
,,,,,,,,,,,3,0,3,0,,,,,,,,,,,,,,,,,,,,,,,,,,,,,,,,,,,,,,,,,17,0.7,0,0,99,1,30,0,conditions/inputTrain_1.1.xlsx,99,1,1,1,0,,,,,,,,,,,,,,,,,,,,,,,,,,,,,,,,,,,A,train_x,x_decreasing_steps,top_left,2024-10-23_13h46.10.903,HideSeek_v1,2022.2.5,60.47009453236554,
,,,,,,,,,,,4,0,4,0,0,0,0,0,,,,,,,,,,,,,,,,,,,,,,,,,,,conditions/schedules/train_x_first/x_decreasing_steps/top_left/instructions/Slide21.png,conditions/schedules/train_x_first/x_decreasing_steps/top_left/instructions/Audio21.wav,71.14094010007102,71.14266030001454,21,"[2.9574287000577897, 0.17829399998299778, 0.21566729992628098, 0.13886899990029633, 0.11860120005439967, 0.649534699972719, 0.15055230003781617, 0.10447569994721562, 0.38457009999547154, 1.079923199955374, 5.738681499962695, 4.444607299985364, 2.3891169999260455, 1.7457868000492454, 1.1926894000498578, 2.482321499963291, 0.9396038000704721, 2.085021900013089, 4.672587699955329, 2.9603360999608412, 5.915605499991216]","[2.957438400015235, 0.014481399906799197, 0.21567740000318736, 0.13887709996197373, 0.014147899928502738, 0.0002452000044286251, 0.1505588999716565, 0.00022629997693002224, 0.00019319995772093534, 1.079930100007914, 0.043976099928840995, 0.015104699996300042, 0.04484860005322844, 1.7457976000150666, 0.14779299998190254, 0.013844700064510107, 0.21807750000152737, 0.07220779999624938, 0.014819300035014749, 0.014191200025379658, 5.915612900047563]",0,,,,,,,,,,,,,,,,,,,,,,,,,,,,,,,,,,,,,,,,,,,,,,,,,,,A,train_x,x_decreasing_steps,top_left,2024-10-23_13h46.10.903,HideSeek_v1,2022.2.5,60.47009453236554,
,,,,,,,,,,,4,0,4,0,,,,,,,,,,,,,,,,,,,,,,,,,,,,,,,,,,,,,,,,,17,0.7,0,0,99,1,30,0,conditions/inputTrain_1.1.xlsx,99,1,1,1,0,,,,,,,,,,,,,,,,,,,,,,,,,,,,,,,,,,,A,train_x,x_decreasing_steps,top_left,2024-10-23_13h46.10.903,HideSeek_v1,2022.2.5,60.47009453236554,
,,,,,,,,,,,5,0,5,0,0,0,0,0,,,,,,,,,,,,,,,,,,,,,,,,,,,conditions/schedules/train_x_first/x_decreasing_steps/top_left/instructions/Slide22.png,conditions/schedules/train_x_first/x_decreasing_steps/top_left/instructions/Audio22.wav,77.1912910999963,77.19268885996426,22,"[2.9574287000577897, 0.17829399998299778, 0.21566729992628098, 0.13886899990029633, 0.11860120005439967, 0.649534699972719, 0.15055230003781617, 0.10447569994721562, 0.38457009999547154, 1.079923199955374, 5.738681499962695, 4.444607299985364, 2.3891169999260455, 1.7457868000492454, 1.1926894000498578, 2.482321499963291, 0.9396038000704721, 2.085021900013089, 4.672587699955329, 2.9603360999608412, 5.915605499991216, 3.299084599944763]","[2.957438400015235, 0.014481399906799197, 0.21567740000318736, 0.13887709996197373, 0.014147899928502738, 0.0002452000044286251, 0.1505588999716565, 0.00022629997693002224, 0.00019319995772093534, 1.079930100007914, 0.043976099928840995, 0.015104699996300042, 0.04484860005322844, 1.7457976000150666, 0.14779299998190254, 0.013844700064510107, 0.21807750000152737, 0.07220779999624938, 0.014819300035014749, 0.014191200025379658, 0.014302999945357442, 3.299091699998826]",0,,,,,,,,,,,,,,,,,,,,,,,,,,,,,,,,,,,,,,,,,,,,,,,,,,,A,train_x,x_decreasing_steps,top_left,2024-10-23_13h46.10.903,HideSeek_v1,2022.2.5,60.47009453236554,
,,,,,,,,,,,5,0,5,0,,,,,,,,,,,,,,,,,,,,,,,,,,,,,,,,,,,,,,,,,17,0.7,0,0,99,1,30,0,conditions/inputTrain_1.1.xlsx,99,1,1,1,0,,,,,,,,,,,,,,,,,,,,,,,,,,,,,,,,,,,A,train_x,x_decreasing_steps,top_left,2024-10-23_13h46.10.903,HideSeek_v1,2022.2.5,60.47009453236554,
,,,,,,,,,,,6,0,6,0,0,0,0,0,,,,,,,,,,,,,,,,,,,,,,,,,,,conditions/schedules/train_x_first/x_decreasing_steps/top_left/instructions/Slide23.png,conditions/schedules/train_x_first/x_decreasing_steps/top_left/instructions/Audio23.wav,80.62608670000918,80.60970181999728,23,"[2.9574287000577897, 0.17829399998299778, 0.21566729992628098, 0.13886899990029633, 0.11860120005439967, 0.649534699972719, 0.15055230003781617, 0.10447569994721562, 0.38457009999547154, 1.079923199955374, 5.738681499962695, 4.444607299985364, 2.3891169999260455, 1.7457868000492454, 1.1926894000498578, 2.482321499963291, 0.9396038000704721, 2.085021900013089, 4.672587699955329, 2.9603360999608412, 5.915605499991216, 3.299084599944763, 3.1692842999473214]","[2.957438400015235, 0.014481399906799197, 0.21567740000318736, 0.13887709996197373, 0.014147899928502738, 0.0002452000044286251, 0.1505588999716565, 0.00022629997693002224, 0.00019319995772093534, 1.079930100007914, 0.043976099928840995, 0.015104699996300042, 0.04484860005322844, 1.7457976000150666, 0.14779299998190254, 0.013844700064510107, 0.21807750000152737, 0.07220779999624938, 0.014819300035014749, 0.014191200025379658, 0.014302999945357442, 3.299091699998826, 3.1692919000051916]",0,,,,,,,,,,,,,,,,,,,,,,,,,,,,,,,,,,,,,,,,,,,,,,,,,,,A,train_x,x_decreasing_steps,top_left,2024-10-23_13h46.10.903,HideSeek_v1,2022.2.5,60.47009453236554,
,,,,,,,,,,,6,0,6,0,1,0,1,0,,,,,,,,,,,,,,,,,,,,,,,,,,,conditions/schedules/train_x_first/x_decreasing_steps/top_left/instructions/Slide24.png,conditions/schedules/train_x_first/x_decreasing_steps/top_left/instructions/Audio24.wav,83.85428520001005,83.8423143599881,24,"[2.9574287000577897, 0.17829399998299778, 0.21566729992628098, 0.13886899990029633, 0.11860120005439967, 0.649534699972719, 0.15055230003781617, 0.10447569994721562, 0.38457009999547154, 1.079923199955374, 5.738681499962695, 4.444607299985364, 2.3891169999260455, 1.7457868000492454, 1.1926894000498578, 2.482321499963291, 0.9396038000704721, 2.085021900013089, 4.672587699955329, 2.9603360999608412, 5.915605499991216, 3.299084599944763, 3.1692842999473214, 1.9194669000571594]","[2.957438400015235, 0.014481399906799197, 0.21567740000318736, 0.13887709996197373, 0.014147899928502738, 0.0002452000044286251, 0.1505588999716565, 0.00022629997693002224, 0.00019319995772093534, 1.079930100007914, 0.043976099928840995, 0.015104699996300042, 0.04484860005322844, 1.7457976000150666, 0.14779299998190254, 0.013844700064510107, 0.21807750000152737, 0.07220779999624938, 0.014819300035014749, 0.014191200025379658, 0.014302999945357442, 3.299091699998826, 0.15270320000126958, 1.9194735999917611]",0,,,,,,,,,,,,,,,,,,,,,,,,,,,,,,,,,,,,,,,,,,,,,,,,,,,A,train_x,x_decreasing_steps,top_left,2024-10-23_13h46.10.903,HideSeek_v1,2022.2.5,60.47009453236554,
,,,,,,,,,,,6,0,6,0,2,0,2,0,,,,,,,,,,,,,,,,,,,,,,,,,,,conditions/schedules/train_x_first/x_decreasing_steps/top_left/instructions/Slide25.png,conditions/schedules/train_x_first/x_decreasing_steps/top_left/instructions/Audio25.wav,85.83281040005386,85.82593106003479,25,"[2.9574287000577897, 0.17829399998299778, 0.21566729992628098, 0.13886899990029633, 0.11860120005439967, 0.649534699972719, 0.15055230003781617, 0.10447569994721562, 0.38457009999547154, 1.079923199955374, 5.738681499962695, 4.444607299985364, 2.3891169999260455, 1.7457868000492454, 1.1926894000498578, 2.482321499963291, 0.9396038000704721, 2.085021900013089, 4.672587699955329, 2.9603360999608412, 5.915605499991216, 3.299084599944763, 3.1692842999473214, 1.9194669000571594, 2.0408350999932736]","[2.957438400015235, 0.014481399906799197, 0.21567740000318736, 0.13887709996197373, 0.014147899928502738, 0.0002452000044286251, 0.1505588999716565, 0.00022629997693002224, 0.00019319995772093534, 1.079930100007914, 0.043976099928840995, 0.015104699996300042, 0.04484860005322844, 1.7457976000150666, 0.14779299998190254, 0.013844700064510107, 0.21807750000152737, 0.07220779999624938, 0.014819300035014749, 0.014191200025379658, 0.014302999945357442, 3.299091699998826, 0.15270320000126958, 0.14087060000747442, 2.040841000038199]",0,,,,,,,,,,,,,,,,,,,,,,,,,,,,,,,,,,,,,,,,,,,,,,,,,,,A,train_x,x_decreasing_steps,top_left,2024-10-23_13h46.10.903,HideSeek_v1,2022.2.5,60.47009453236554,
,,,,,,,,,,,6,0,6,0,,,,,,,,,,,,,,,,,,,,,,,,,,,,,,,,,,,,,,,,,17,0.7,0,0,99,1,30,0,conditions/inputTrain_1.1.xlsx,99,1,1,1,0,,,,,,,,,,,,,,,,,,,,,,,,,,,,,,,,,,,A,train_x,x_decreasing_steps,top_left,2024-10-23_13h46.10.903,HideSeek_v1,2022.2.5,60.47009453236554,
,,,,,,,,,,,7,0,7,0,0,0,0,0,,,,,,,,,,,,,,,,,,,,,,,,,,,conditions/schedules/train_x_first/x_decreasing_steps/top_left/instructions/Slide26.png,conditions/schedules/train_x_first/x_decreasing_steps/top_left/instructions/Audio26.wav,87.98505440005101,87.9761327799759,26,"[2.9574287000577897, 0.17829399998299778, 0.21566729992628098, 0.13886899990029633, 0.11860120005439967, 0.649534699972719, 0.15055230003781617, 0.10447569994721562, 0.38457009999547154, 1.079923199955374, 5.738681499962695, 4.444607299985364, 2.3891169999260455, 1.7457868000492454, 1.1926894000498578, 2.482321499963291, 0.9396038000704721, 2.085021900013089, 4.672587699955329, 2.9603360999608412, 5.915605499991216, 3.299084599944763, 3.1692842999473214, 1.9194669000571594, 2.0408350999932736, 0.637990599963814]","[2.957438400015235, 0.014481399906799197, 0.21567740000318736, 0.13887709996197373, 0.014147899928502738, 0.0002452000044286251, 0.1505588999716565, 0.00022629997693002224, 0.00019319995772093534, 1.079930100007914, 0.043976099928840995, 0.015104699996300042, 0.04484860005322844, 1.7457976000150666, 0.14779299998190254, 0.013844700064510107, 0.21807750000152737, 0.07220779999624938, 0.014819300035014749, 0.014191200025379658, 0.014302999945357442, 3.299091699998826, 0.15270320000126958, 0.14087060000747442, 0.07170970004517585, 0.6379992000292987]",0,,,,,,,,,,,,,,,,,,,,,,,,,,,,,,,,,,,,,,,,,,,,,,,,,,,A,train_x,x_decreasing_steps,top_left,2024-10-23_13h46.10.903,HideSeek_v1,2022.2.5,60.47009453236554,
,,,,,,,,,,,7,0,7,0,,,,,,,,,,,,,,,,,,,,,,,,,,,,,,,,,,,,,,,,,17,0.7,0,0,99,1,30,0,conditions/inputTrain_1.1.xlsx,99,1,1,1,0,,,,,,,,,,,,,,,,,,,,,,,,,,,,,,,,,,,A,train_x,x_decreasing_steps,top_left,2024-10-23_13h46.10.903,HideSeek_v1,2022.2.5,60.47009453236554,
,,,,,,,,,,,8,0,8,0,0,0,0,0,,,,,,,,,,,,,,,,,,,,,,,,,,,conditions/schedules/train_x_first/x_decreasing_steps/top_left/instructions/Slide27.png,conditions/schedules/train_x_first/x_decreasing_steps/top_left/instructions/Audio27.wav,88.76815630006604,88.74261481994763,27,"[2.9574287000577897, 0.17829399998299778, 0.21566729992628098, 0.13886899990029633, 0.11860120005439967, 0.649534699972719, 0.15055230003781617, 0.10447569994721562, 0.38457009999547154, 1.079923199955374, 5.738681499962695, 4.444607299985364, 2.3891169999260455, 1.7457868000492454, 1.1926894000498578, 2.482321499963291, 0.9396038000704721, 2.085021900013089, 4.672587699955329, 2.9603360999608412, 5.915605499991216, 3.299084599944763, 3.1692842999473214, 1.9194669000571594, 2.0408350999932736, 0.637990599963814, 0.536925199907273]","[2.957438400015235, 0.014481399906799197, 0.21567740000318736, 0.13887709996197373, 0.014147899928502738, 0.0002452000044286251, 0.1505588999716565, 0.00022629997693002224, 0.00019319995772093534, 1.079930100007914, 0.043976099928840995, 0.015104699996300042, 0.04484860005322844, 1.7457976000150666, 0.14779299998190254, 0.013844700064510107, 0.21807750000152737, 0.07220779999624938, 0.014819300035014749, 0.014191200025379658, 0.014302999945357442, 3.299091699998826, 0.15270320000126958, 0.14087060000747442, 0.07170970004517585, 0.00021520000882446766, 0.5369316999567673]",0,,,,,,,,,,,,,,,,,,,,,,,,,,,,,,,,,,,,,,,,,,,,,,,,,,,A,train_x,x_decreasing_steps,top_left,2024-10-23_13h46.10.903,HideSeek_v1,2022.2.5,60.47009453236554,
,,,,,,,,,,,8,0,8,0,,,,,,,,,,,,,,,,,,,,,,,,,,,,,,,,,,,,,,,,,17,0.7,0,0,99,1,30,0,conditions/inputTrain_1.1.xlsx,99,1,1,1,0,,,,,,,,,,,,,,,,,,,,,,,,,,,,,,,,,,,A,train_x,x_decreasing_steps,top_left,2024-10-23_13h46.10.903,HideSeek_v1,2022.2.5,60.47009453236554,
,,,,,,,,,,,9,0,9,0,0,0,0,0,,,,,,,,,,,,,,,,,,,,,,,,,,,conditions/schedules/train_x_first/x_decreasing_steps/top_left/instructions/Slide28.png,conditions/schedules/train_x_first/x_decreasing_steps/top_left/instructions/Audio28.wav,89.40636590006761,89.4088722200133,27,"[2.9574287000577897, 0.17829399998299778, 0.21566729992628098, 0.13886899990029633, 0.11860120005439967, 0.649534699972719, 0.15055230003781617, 0.10447569994721562, 0.38457009999547154, 1.079923199955374, 5.738681499962695, 4.444607299985364, 2.3891169999260455, 1.7457868000492454, 1.1926894000498578, 2.482321499963291, 0.9396038000704721, 2.085021900013089, 4.672587699955329, 2.9603360999608412, 5.915605499991216, 3.299084599944763, 3.1692842999473214, 1.9194669000571594, 2.0408350999932736, 0.637990599963814, 0.536925199907273]","[2.957438400015235, 0.014481399906799197, 0.21567740000318736, 0.13887709996197373, 0.014147899928502738, 0.0002452000044286251, 0.1505588999716565, 0.00022629997693002224, 0.00019319995772093534, 1.079930100007914, 0.043976099928840995, 0.015104699996300042, 0.04484860005322844, 1.7457976000150666, 0.14779299998190254, 0.013844700064510107, 0.21807750000152737, 0.07220779999624938, 0.014819300035014749, 0.014191200025379658, 0.014302999945357442, 3.299091699998826, 0.15270320000126958, 0.14087060000747442, 0.07170970004517585, 0.00021520000882446766, 0.1676125000230968]",1,[5.566907299915329],[5.566925099934451],,,,,,,,,,,,,,,,,,,,,,,,,,,,,,,,,,,,,,,,,,,,,,,,,A,train_x,x_decreasing_steps,top_left,2024-10-23_13h46.10.903,HideSeek_v1,2022.2.5,60.47009453236554,
,,,,,,,,,,,9,0,9,0,1,0,1,0,,,,,,,,,,,,,,,,,,,,,,,,,,,conditions/schedules/train_x_first/x_decreasing_steps/top_left/instructions/Slide27.png,conditions/schedules/train_x_first/x_decreasing_steps/top_left/instructions/Audio27.wav,95.01770890003536,95.00894121999154,27,"[2.9574287000577897, 0.17829399998299778, 0.21566729992628098, 0.13886899990029633, 0.11860120005439967, 0.649534699972719, 0.15055230003781617, 0.10447569994721562, 0.38457009999547154, 1.079923199955374, 5.738681499962695, 4.444607299985364, 2.3891169999260455, 1.7457868000492454, 1.1926894000498578, 2.482321499963291, 0.9396038000704721, 2.085021900013089, 4.672587699955329, 2.9603360999608412, 5.915605499991216, 3.299084599944763, 3.1692842999473214, 1.9194669000571594, 2.0408350999932736, 0.637990599963814, 0.536925199907273]","[2.957438400015235, 0.014481399906799197, 0.21567740000318736, 0.13887709996197373, 0.014147899928502738, 0.0002452000044286251, 0.1505588999716565, 0.00022629997693002224, 0.00019319995772093534, 1.079930100007914, 0.043976099928840995, 0.015104699996300042, 0.04484860005322844, 1.7457976000150666, 0.14779299998190254, 0.013844700064510107, 0.21807750000152737, 0.07220779999624938, 0.014819300035014749, 0.014191200025379658, 0.014302999945357442, 3.299091699998826, 0.15270320000126958, 0.14087060000747442, 0.07170970004517585, 0.00021520000882446766, 0.1676125000230968]",2,"[5.566907299915329, 0.6727371000451967]","[0.07106240000575781, 0.6727441999828443]",,,,,,,,,,,,,,,,,,,,,,,,,,,,,,,,,,,,,,,,,,,,,,,,,A,train_x,x_decreasing_steps,top_left,2024-10-23_13h46.10.903,HideSeek_v1,2022.2.5,60.47009453236554,
,,,,,,,,,,,9,0,9,0,2,0,2,0,,,,,,,,,,,,,,,,,,,,,,,,,,,conditions/schedules/train_x_first/x_decreasing_steps/top_left/instructions/Slide26.png,conditions/schedules/train_x_first/x_decreasing_steps/top_left/instructions/Audio26.wav,95.73521750001237,95.72554481994594,27,"[2.9574287000577897, 0.17829399998299778, 0.21566729992628098, 0.13886899990029633, 0.11860120005439967, 0.649534699972719, 0.15055230003781617, 0.10447569994721562, 0.38457009999547154, 1.079923199955374, 5.738681499962695, 4.444607299985364, 2.3891169999260455, 1.7457868000492454, 1.1926894000498578, 2.482321499963291, 0.9396038000704721, 2.085021900013089, 4.672587699955329, 2.9603360999608412, 5.915605499991216, 3.299084599944763, 3.1692842999473214, 1.9194669000571594, 2.0408350999932736, 0.637990599963814, 0.536925199907273]","[2.957438400015235, 0.014481399906799197, 0.21567740000318736, 0.13887709996197373, 0.014147899928502738, 0.0002452000044286251, 0.1505588999716565, 0.00022629997693002224, 0.00019319995772093534, 1.079930100007914, 0.043976099928840995, 0.015104699996300042, 0.04484860005322844, 1.7457976000150666, 0.14779299998190254, 0.013844700064510107, 0.21807750000152737, 0.07220779999624938, 0.014819300035014749, 0.014191200025379658, 0.014302999945357442, 3.299091699998826, 0.15270320000126958, 0.14087060000747442, 0.07170970004517585, 0.00021520000882446766, 0.1676125000230968]",3,"[5.566907299915329, 0.6727371000451967, 0.6042633999604732]","[0.07106240000575781, 0.03704730002209544, 0.6042702000122517]",,,,,,,,,,,,,,,,,,,,,,,,,,,,,,,,,,,,,,,,,,,,,,,,,A,train_x,x_decreasing_steps,top_left,2024-10-23_13h46.10.903,HideSeek_v1,2022.2.5,60.47009453236554,
,,,,,,,,,,,9,0,9,0,3,0,3,0,,,,,,,,,,,,,,,,,,,,,,,,,,,conditions/schedules/train_x_first/x_decreasing_steps/top_left/instructions/Slide25.png,conditions/schedules/train_x_first/x_decreasing_steps/top_left/instructions/Audio25.wav,96.39164430007804,96.37568922002102,28,"[2.9574287000577897, 0.17829399998299778, 0.21566729992628098, 0.13886899990029633, 0.11860120005439967, 0.649534699972719, 0.15055230003781617, 0.10447569994721562, 0.38457009999547154, 1.079923199955374, 5.738681499962695, 4.444607299985364, 2.3891169999260455, 1.7457868000492454, 1.1926894000498578, 2.482321499963291, 0.9396038000704721, 2.085021900013089, 4.672587699955329, 2.9603360999608412, 5.915605499991216, 3.299084599944763, 3.1692842999473214, 1.9194669000571594, 2.0408350999932736, 0.637990599963814, 0.536925199907273, 2.706163899973035]","[2.957438400015235, 0.014481399906799197, 0.21567740000318736, 0.13887709996197373, 0.014147899928502738, 0.0002452000044286251, 0.1505588999716565, 0.00022629997693002224, 0.00019319995772093534, 1.079930100007914, 0.043976099928840995, 0.015104699996300042, 0.04484860005322844, 1.7457976000150666, 0.14779299998190254, 0.013844700064510107, 0.21807750000152737, 0.07220779999624938, 0.014819300035014749, 0.014191200025379658, 0.014302999945357442, 3.299091699998826, 0.15270320000126958, 0.14087060000747442, 0.07170970004517585, 0.00021520000882446766, 0.1676125000230968, 2.7061700000194833]",3,"[5.566907299915329, 0.6727371000451967, 0.6042633999604732]","[0.07106240000575781, 0.03704730002209544, 0.03872119996231049]",,,,,,,,,,,,,,,,,,,,,,,,,,,,,,,,,,,,,,,,,,,,,,,,,A,train_x,x_decreasing_steps,top_left,2024-10-23_13h46.10.903,HideSeek_v1,2022.2.5,60.47009453236554,
,,,,,,,,,,,9,0,9,0,4,0,4,0,,,,,,,,,,,,,,,,,,,,,,,,,,,conditions/schedules/train_x_first/x_decreasing_steps/top_left/instructions/Slide26.png,conditions/schedules/train_x_first/x_decreasing_steps/top_left/instructions/Audio26.wav,99.13464880001266,99.12622101999587,29,"[2.9574287000577897, 0.17829399998299778, 0.21566729992628098, 0.13886899990029633, 0.11860120005439967, 0.649534699972719, 0.15055230003781617, 0.10447569994721562, 0.38457009999547154, 1.079923199955374, 5.738681499962695, 4.444607299985364, 2.3891169999260455, 1.7457868000492454, 1.1926894000498578, 2.482321499963291, 0.9396038000704721, 2.085021900013089, 4.672587699955329, 2.9603360999608412, 5.915605499991216, 3.299084599944763, 3.1692842999473214, 1.9194669000571594, 2.0408350999932736, 0.637990599963814, 0.536925199907273, 2.706163899973035, 1.2876791000599042]","[2.957438400015235, 0.014481399906799197, 0.21567740000318736, 0.13887709996197373, 0.014147899928502738, 0.0002452000044286251, 0.1505588999716565, 0.00022629997693002224, 0.00019319995772093534, 1.079930100007914, 0.043976099928840995, 0.015104699996300042, 0.04484860005322844, 1.7457976000150666, 0.14779299998190254, 0.013844700064510107, 0.21807750000152737, 0.07220779999624938, 0.014819300035014749, 0.014191200025379658, 0.014302999945357442, 3.299091699998826, 0.15270320000126958, 0.14087060000747442, 0.07170970004517585, 0.00021520000882446766, 0.1676125000230968, 0.08966569998301566, 1.2876871000044048]",3,"[5.566907299915329, 0.6727371000451967, 0.6042633999604732]","[0.07106240000575781, 0.03704730002209544, 0.03872119996231049]",,,,,,,,,,,,,,,,,,,,,,,,,,,,,,,,,,,,,,,,,,,,,,,,,A,train_x,x_decreasing_steps,top_left,2024-10-23_13h46.10.903,HideSeek_v1,2022.2.5,60.47009453236554,
,,,,,,,,,,,9,0,9,0,5,0,5,0,,,,,,,,,,,,,,,,,,,,,,,,,,,conditions/schedules/train_x_first/x_decreasing_steps/top_left/instructions/Slide27.png,conditions/schedules/train_x_first/x_decreasing_steps/top_left/instructions/Audio27.wav,100.46644250000827,100.45863232003758,30,"[2.9574287000577897, 0.17829399998299778, 0.21566729992628098, 0.13886899990029633, 0.11860120005439967, 0.649534699972719, 0.15055230003781617, 0.10447569994721562, 0.38457009999547154, 1.079923199955374, 5.738681499962695, 4.444607299985364, 2.3891169999260455, 1.7457868000492454, 1.1926894000498578, 2.482321499963291, 0.9396038000704721, 2.085021900013089, 4.672587699955329, 2.9603360999608412, 5.915605499991216, 3.299084599944763, 3.1692842999473214, 1.9194669000571594, 2.0408350999932736, 0.637990599963814, 0.536925199907273, 2.706163899973035, 1.2876791000599042, 0.7907787000294775]","[2.957438400015235, 0.014481399906799197, 0.21567740000318736, 0.13887709996197373, 0.014147899928502738, 0.0002452000044286251, 0.1505588999716565, 0.00022629997693002224, 0.00019319995772093534, 1.079930100007914, 0.043976099928840995, 0.015104699996300042, 0.04484860005322844, 1.7457976000150666, 0.14779299998190254, 0.013844700064510107, 0.21807750000152737, 0.07220779999624938, 0.014819300035014749, 0.014191200025379658, 0.014302999945357442, 3.299091699998826, 0.15270320000126958, 0.14087060000747442, 0.07170970004517585, 0.00021520000882446766, 0.1676125000230968, 0.08966569998301566, 0.10805780009832233, 0.7907858000835404]",3,"[5.566907299915329, 0.6727371000451967, 0.6042633999604732]","[0.07106240000575781, 0.03704730002209544, 0.03872119996231049]",,,,,,,,,,,,,,,,,,,,,,,,,,,,,,,,,,,,,,,,,,,,,,,,,A,train_x,x_decreasing_steps,top_left,2024-10-23_13h46.10.903,HideSeek_v1,2022.2.5,60.47009453236554,
,,,,,,,,,,,9,0,9,0,6,0,6,0,,,,,,,,,,,,,,,,,,,,,,,,,,,conditions/schedules/train_x_first/x_decreasing_steps/top_left/instructions/Slide28.png,conditions/schedules/train_x_first/x_decreasing_steps/top_left/instructions/Audio28.wav,101.29595230007544,101.29236812003656,31,"[2.9574287000577897, 0.17829399998299778, 0.21566729992628098, 0.13886899990029633, 0.11860120005439967, 0.649534699972719, 0.15055230003781617, 0.10447569994721562, 0.38457009999547154, 1.079923199955374, 5.738681499962695, 4.444607299985364, 2.3891169999260455, 1.7457868000492454, 1.1926894000498578, 2.482321499963291, 0.9396038000704721, 2.085021900013089, 4.672587699955329, 2.9603360999608412, 5.915605499991216, 3.299084599944763, 3.1692842999473214, 1.9194669000571594, 2.0408350999932736, 0.637990599963814, 0.536925199907273, 2.706163899973035, 1.2876791000599042, 0.7907787000294775, 1.4606070999288931]","[2.957438400015235, 0.014481399906799197, 0.21567740000318736, 0.13887709996197373, 0.014147899928502738, 0.0002452000044286251, 0.1505588999716565, 0.00022629997693002224, 0.00019319995772093534, 1.079930100007914, 0.043976099928840995, 0.015104699996300042, 0.04484860005322844, 1.7457976000150666, 0.14779299998190254, 0.013844700064510107, 0.21807750000152737, 0.07220779999624938, 0.014819300035014749, 0.014191200025379658, 0.014302999945357442, 3.299091699998826, 0.15270320000126958, 0.14087060000747442, 0.07170970004517585, 0.00021520000882446766, 0.1676125000230968, 0.08966569998301566, 0.10805780009832233, 0.1096914999652654, 1.4606136999791488]",3,"[5.566907299915329, 0.6727371000451967, 0.6042633999604732]","[0.07106240000575781, 0.03704730002209544, 0.03872119996231049]",,,,,,,,,,,,,,,,,,,,,,,,,,,,,,,,,,,,,,,,,,,,,,,,,A,train_x,x_decreasing_steps,top_left,2024-10-23_13h46.10.903,HideSeek_v1,2022.2.5,60.47009453236554,
,,,,,,,,,,,9,0,9,0,7,0,7,0,,,,,,,,,,,,,,,,,,,,,,,,,,,conditions/schedules/train_x_first/x_decreasing_steps/top_left/instructions/Slide29.png,conditions/schedules/train_x_first/x_decreasing_steps/top_left/instructions/Audio29.wav,102.81488189997617,102.80908985997085,32,"[2.9574287000577897, 0.17829399998299778, 0.21566729992628098, 0.13886899990029633, 0.11860120005439967, 0.649534699972719, 0.15055230003781617, 0.10447569994721562, 0.38457009999547154, 1.079923199955374, 5.738681499962695, 4.444607299985364, 2.3891169999260455, 1.7457868000492454, 1.1926894000498578, 2.482321499963291, 0.9396038000704721, 2.085021900013089, 4.672587699955329, 2.9603360999608412, 5.915605499991216, 3.299084599944763, 3.1692842999473214, 1.9194669000571594, 2.0408350999932736, 0.637990599963814, 0.536925199907273, 2.706163899973035, 1.2876791000599042, 0.7907787000294775, 1.4606070999288931, 4.9211142000276595]","[2.957438400015235, 0.014481399906799197, 0.21567740000318736, 0.13887709996197373, 0.014147899928502738, 0.0002452000044286251, 0.1505588999716565, 0.00022629997693002224, 0.00019319995772093534, 1.079930100007914, 0.043976099928840995, 0.015104699996300042, 0.04484860005322844, 1.7457976000150666, 0.14779299998190254, 0.013844700064510107, 0.21807750000152737, 0.07220779999624938, 0.014819300035014749, 0.014191200025379658, 0.014302999945357442, 3.299091699998826, 0.15270320000126958, 0.14087060000747442, 0.07170970004517585, 0.00021520000882446766, 0.1676125000230968, 0.08966569998301566, 0.10805780009832233, 0.1096914999652654, 0.04140850005205721, 4.92112149996683]",3,"[5.566907299915329, 0.6727371000451967, 0.6042633999604732]","[0.07106240000575781, 0.03704730002209544, 0.03872119996231049]",,,,,,,,,,,,,,,,,,,,,,,,,,,,,,,,,,,,,,,,,,,,,,,,,A,train_x,x_decreasing_steps,top_left,2024-10-23_13h46.10.903,HideSeek_v1,2022.2.5,60.47009453236554,
,,,,,,,,,,,9,0,9,0,8,0,8,0,,,,,,,,,,,,,,,,,,,,,,,,,,,conditions/schedules/train_x_first/x_decreasing_steps/top_left/instructions/Slide30.png,conditions/schedules/train_x_first/x_decreasing_steps/top_left/instructions/Audio30.wav,107.77574660000391,107.77192482001847,32,"[2.9574287000577897, 0.17829399998299778, 0.21566729992628098, 0.13886899990029633, 0.11860120005439967, 0.649534699972719, 0.15055230003781617, 0.10447569994721562, 0.38457009999547154, 1.079923199955374, 5.738681499962695, 4.444607299985364, 2.3891169999260455, 1.7457868000492454, 1.1926894000498578, 2.482321499963291, 0.9396038000704721, 2.085021900013089, 4.672587699955329, 2.9603360999608412, 5.915605499991216, 3.299084599944763, 3.1692842999473214, 1.9194669000571594, 2.0408350999932736, 0.637990599963814, 0.536925199907273, 2.706163899973035, 1.2876791000599042, 0.7907787000294775, 1.4606070999288931, 4.9211142000276595]","[2.957438400015235, 0.014481399906799197, 0.21567740000318736, 0.13887709996197373, 0.014147899928502738, 0.0002452000044286251, 0.1505588999716565, 0.00022629997693002224, 0.00019319995772093534, 1.079930100007914, 0.043976099928840995, 0.015104699996300042, 0.04484860005322844, 1.7457976000150666, 0.14779299998190254, 0.013844700064510107, 0.21807750000152737, 0.07220779999624938, 0.014819300035014749, 0.014191200025379658, 0.014302999945357442, 3.299091699998826, 0.15270320000126958, 0.14087060000747442, 0.07170970004517585, 0.00021520000882446766, 0.1676125000230968, 0.08966569998301566, 0.10805780009832233, 0.1096914999652654, 0.04140850005205721, 0.06284930009860545]",4,"[5.566907299915329, 0.6727371000451967, 0.6042633999604732, 10.180698200012557]","[0.07106240000575781, 0.03704730002209544, 0.03872119996231049, 10.18070460006129]",,,,,,,,,,,,,,,,,,,,,,,,,,,,,,,,,,,,,,,,,,,,,,,,,A,train_x,x_decreasing_steps,top_left,2024-10-23_13h46.10.903,HideSeek_v1,2022.2.5,60.47009453236554,
,,,,,,,,,,,9,0,9,0,9,0,9,0,,,,,,,,,,,,,,,,,,,,,,,,,,,conditions/schedules/train_x_first/x_decreasing_steps/top_left/instructions/Slide29.png,conditions/schedules/train_x_first/x_decreasing_steps/top_left/instructions/Audio29.wav,117.9999718000181,117.9926079199533,33,"[2.9574287000577897, 0.17829399998299778, 0.21566729992628098, 0.13886899990029633, 0.11860120005439967, 0.649534699972719, 0.15055230003781617, 0.10447569994721562, 0.38457009999547154, 1.079923199955374, 5.738681499962695, 4.444607299985364, 2.3891169999260455, 1.7457868000492454, 1.1926894000498578, 2.482321499963291, 0.9396038000704721, 2.085021900013089, 4.672587699955329, 2.9603360999608412, 5.915605499991216, 3.299084599944763, 3.1692842999473214, 1.9194669000571594, 2.0408350999932736, 0.637990599963814, 0.536925199907273, 2.706163899973035, 1.2876791000599042, 0.7907787000294775, 1.4606070999288931, 4.9211142000276595, 11.32447770005092]","[2.957438400015235, 0.014481399906799197, 0.21567740000318736, 0.13887709996197373, 0.014147899928502738, 0.0002452000044286251, 0.1505588999716565, 0.00022629997693002224, 0.00019319995772093534, 1.079930100007914, 0.043976099928840995, 0.015104699996300042, 0.04484860005322844, 1.7457976000150666, 0.14779299998190254, 0.013844700064510107, 0.21807750000152737, 0.07220779999624938, 0.014819300035014749, 0.014191200025379658, 0.014302999945357442, 3.299091699998826, 0.15270320000126958, 0.14087060000747442, 0.07170970004517585, 0.00021520000882446766, 0.1676125000230968, 0.08966569998301566, 0.10805780009832233, 0.1096914999652654, 0.04140850005205721, 0.06284930009860545, 11.324483899981715]",4,"[5.566907299915329, 0.6727371000451967, 0.6042633999604732, 10.180698200012557]","[0.07106240000575781, 0.03704730002209544, 0.03872119996231049, 0.038712200010195374]",,,,,,,,,,,,,,,,,,,,,,,,,,,,,,,,,,,,,,,,,,,,,,,,,A,train_x,x_decreasing_steps,top_left,2024-10-23_13h46.10.903,HideSeek_v1,2022.2.5,60.47009453236554,
,,,,,,,,,,,9,0,9,0,10,0,10,0,,,,,,,,,,,,,,,,,,,,,,,,,,,conditions/schedules/train_x_first/x_decreasing_steps/top_left/instructions/Slide30.png,conditions/schedules/train_x_first/x_decreasing_steps/top_left/instructions/Audio30.wav,129.35540430003311,129.34191418003758,34,"[2.9574287000577897, 0.17829399998299778, 0.21566729992628098, 0.13886899990029633, 0.11860120005439967, 0.649534699972719, 0.15055230003781617, 0.10447569994721562, 0.38457009999547154, 1.079923199955374, 5.738681499962695, 4.444607299985364, 2.3891169999260455, 1.7457868000492454, 1.1926894000498578, 2.482321499963291, 0.9396038000704721, 2.085021900013089, 4.672587699955329, 2.9603360999608412, 5.915605499991216, 3.299084599944763, 3.1692842999473214, 1.9194669000571594, 2.0408350999932736, 0.637990599963814, 0.536925199907273, 2.706163899973035, 1.2876791000599042, 0.7907787000294775, 1.4606070999288931, 4.9211142000276595, 11.32447770005092, 1.0017082000849769]","[2.957438400015235, 0.014481399906799197, 0.21567740000318736, 0.13887709996197373, 0.014147899928502738, 0.0002452000044286251, 0.1505588999716565, 0.00022629997693002224, 0.00019319995772093534, 1.079930100007914, 0.043976099928840995, 0.015104699996300042, 0.04484860005322844, 1.7457976000150666, 0.14779299998190254, 0.013844700064510107, 0.21807750000152737, 0.07220779999624938, 0.014819300035014749, 0.014191200025379658, 0.014302999945357442, 3.299091699998826, 0.15270320000126958, 0.14087060000747442, 0.07170970004517585, 0.00021520000882446766, 0.1676125000230968, 0.08966569998301566, 0.10805780009832233, 0.1096914999652654, 0.04140850005205721, 0.06284930009860545, 0.1150433000875637, 1.0017162000294775]",4,"[5.566907299915329, 0.6727371000451967, 0.6042633999604732, 10.180698200012557]","[0.07106240000575781, 0.03704730002209544, 0.03872119996231049, 0.038712200010195374]",,,,,,,,,,,,,,,,,,,,,,,,,,,,,,,,,,,,,,,,,,,,,,,,,A,train_x,x_decreasing_steps,top_left,2024-10-23_13h46.10.903,HideSeek_v1,2022.2.5,60.47009453236554,
,,,,,,,,,,,9,0,9,0,11,0,11,0,,,,,,,,,,,,,,,,,,,,,,,,,,,conditions/schedules/train_x_first/x_decreasing_steps/top_left/instructions/Slide31.png,conditions/schedules/train_x_first/x_decreasing_steps/top_left/instructions/Audio31.wav,130.41500989999622,130.40853606003802,35,"[2.9574287000577897, 0.17829399998299778, 0.21566729992628098, 0.13886899990029633, 0.11860120005439967, 0.649534699972719, 0.15055230003781617, 0.10447569994721562, 0.38457009999547154, 1.079923199955374, 5.738681499962695, 4.444607299985364, 2.3891169999260455, 1.7457868000492454, 1.1926894000498578, 2.482321499963291, 0.9396038000704721, 2.085021900013089, 4.672587699955329, 2.9603360999608412, 5.915605499991216, 3.299084599944763, 3.1692842999473214, 1.9194669000571594, 2.0408350999932736, 0.637990599963814, 0.536925199907273, 2.706163899973035, 1.2876791000599042, 0.7907787000294775, 1.4606070999288931, 4.9211142000276595, 11.32447770005092, 1.0017082000849769, 3.038475100067444]","[2.957438400015235, 0.014481399906799197, 0.21567740000318736, 0.13887709996197373, 0.014147899928502738, 0.0002452000044286251, 0.1505588999716565, 0.00022629997693002224, 0.00019319995772093534, 1.079930100007914, 0.043976099928840995, 0.015104699996300042, 0.04484860005322844, 1.7457976000150666, 0.14779299998190254, 0.013844700064510107, 0.21807750000152737, 0.07220779999624938, 0.014819300035014749, 0.014191200025379658, 0.014302999945357442, 3.299091699998826, 0.15270320000126958, 0.14087060000747442, 0.07170970004517585, 0.00021520000882446766, 0.1676125000230968, 0.08966569998301566, 0.10805780009832233, 0.1096914999652654, 0.04140850005205721, 0.06284930009860545, 0.1150433000875637, 0.09151759999804199, 3.0384810001123697]",4,"[5.566907299915329, 0.6727371000451967, 0.6042633999604732, 10.180698200012557]","[0.07106240000575781, 0.03704730002209544, 0.03872119996231049, 0.038712200010195374]",,,,,,,,,,,,,,,,,,,,,,,,,,,,,,,,,,,,,,,,,,,,,,,,,A,train_x,x_decreasing_steps,top_left,2024-10-23_13h46.10.903,HideSeek_v1,2022.2.5,60.47009453236554,
,,,,,,,,,,,9,0,9,0,,,,,,,,,,,,,,,,,,,,,,,,,,,,,,,,,,,,,,,,,17,0.7,0,0,99,1,30,0,conditions/inputTrain_1.1.xlsx,99,1,1,1,0,,,,,,,,,,,,,,,,,,,,,,,,,,,,,,,,,,,A,train_x,x_decreasing_steps,top_left,2024-10-23_13h46.10.903,HideSeek_v1,2022.2.5,60.47009453236554,
1,3,3,7,4,4,1,22,72,test_exp,untrained,,,,,,,,,,,,,,,,,,,,,0,0,0,0,0,0,0,0,,,,,,,,,,,,,,,,,,,,,,,,,,,,,,,stimuli/alien_stimuli/22.png,133.60790369997267,133.60790369997267,133.60790369997267,133.60790369997267,133.60790369997267,0,0,return,1.047381900018081,0,0,0,0.08,-0.16,return,0.9393379000248387,,,,,,,,,,,,,,,,,,A,train_x,x_decreasing_steps,top_left,2024-10-23_13h46.10.903,HideSeek_v1,2022.2.5,60.47009453236554,
1,3,3,7,4,4,1,22,72,test_exp,untrained,,,,,,,,,,,,,,,,,,,,,0,0,0,0,,,,,,,,,,,,,,,,,,,,,,,,,,,,,,,,,,,,,,,,,,,,,,,,,,,,134.59161980007775,135.65789699996822,stimuli/alien_stimuli/22.png,22,3,1,,,,,,,,,,,,A,train_x,x_decreasing_steps,top_left,2024-10-23_13h46.10.903,HideSeek_v1,2022.2.5,60.47009453236554,
2,0,1,0,3,0,2,63,72,test_exp,untrained_1D_first_leftout,,,,,,,,,,,,,,,,,,,,,0,1,1,1,0,0,0,0,,,,,,,,,,,,,,,,,,,,,,,,,,,,,,,stimuli/alien_stimuli/63.png,135.65789699996822,135.65789699996822,135.65789699996822,135.65789699996822,135.65789699996822,0,0,return,0.14612149994354695,0,0,0,-0.16,-0.32,return,0.03509259992279112,,,,,,,,,,,,,,,,,,A,train_x,x_decreasing_steps,top_left,2024-10-23_13h46.10.903,HideSeek_v1,2022.2.5,60.47009453236554,
2,0,1,0,3,0,2,63,72,test_exp,untrained_1D_first_leftout,,,,,,,,,,,,,,,,,,,,,0,1,1,1,,,,,,,,,,,,,,,,,,,,,,,,,,,,,,,,,,,,,,,,,,,,,,,,,,,,135.74088180006947,136.80323900002986,stimuli/alien_stimuli/63.png,63,0,2,,,,,,,,,,,,A,train_x,x_decreasing_steps,top_left,2024-10-23_13h46.10.903,HideSeek_v1,2022.2.5,60.47009453236554,
3,3,1,6,4,3,3,34,72,test_exp,train_2D_new,,,,,,,,,,,,,,,,,,,,,0,2,2,2,0,0,0,0,,,,,,,,,,,,,,,,,,,,,,,,,,,,,,,stimuli/alien_stimuli/34.png,136.80323900002986,136.80323900002986,136.80323900002986,136.80323900002986,136.80323900002986,0,0,return,0.2962103000609204,0,0,0,0.08,-0.32,return,0.19042820006143302,,,,,,,,,,,,,,,,,,A,train_x,x_decreasing_steps,top_left,2024-10-23_13h46.10.903,HideSeek_v1,2022.2.5,60.47009453236554,
3,3,1,6,4,3,3,34,72,test_exp,train_2D_new,,,,,,,,,,,,,,,,,,,,,0,2,2,2,,,,,,,,,,,,,,,,,,,,,,,,,,,,,,,,,,,,,,,,,,,,,,,,,,,,137.04153990000486,138.10682530002668,stimuli/alien_stimuli/34.png,34,3,3,,,,,,,,,,,,A,train_x,x_decreasing_steps,top_left,2024-10-23_13h46.10.903,HideSeek_v1,2022.2.5,60.47009453236554,
4,3,4,4,5,1,1,52,72,test_exp,untrained,,,,,,,,,,,,,,,,,,,,,0,3,3,3,0,0,0,0,,,,,,,,,,,,,,,,,,,,,,,,,,,,,,,stimuli/alien_stimuli/52.png,138.10682530002668,138.10682530002668,138.10682530002668,138.10682530002668,138.10682530002668,0,0,return,0.1295021999394521,0,0,0,0.08,-0.08,return,0.007907700026407838,,,,,,,,,,,,,,,,,,A,train_x,x_decreasing_steps,top_left,2024-10-23_13h46.10.903,HideSeek_v1,2022.2.5,60.47009453236554,
4,3,4,4,5,1,1,52,72,test_exp,untrained,,,,,,,,,,,,,,,,,,,,,0,3,3,3,,,,,,,,,,,,,,,,,,,,,,,,,,,,,,,,,,,,,,,,,,,,,,,,,,,,138.17577560001519,139.24144220002927,stimuli/alien_stimuli/52.png,52,3,4,,,,,,,,,,,,A,train_x,x_decreasing_steps,top_left,2024-10-23_13h46.10.903,HideSeek_v1,2022.2.5,60.47009453236554,
5,2,0,5,4,3,4,35,72,test_exp,untrained,,,,,,,,,,,,,,,,,,,,,0,4,4,4,0,0,0,0,,,,,,,,,,,,,,,,,,,,,,,,,,,,,,,stimuli/alien_stimuli/35.png,139.24144220002927,139.24144220002927,139.24144220002927,139.24144220002927,139.24144220002927,0,0,return,0.1459185000276193,0,0,0,0,-0.4,return,0.05105600005481392,,,,,,,,,,,,,,,,,,A,train_x,x_decreasing_steps,top_left,2024-10-23_13h46.10.903,HideSeek_v1,2022.2.5,60.47009453236554,
5,2,0,5,4,3,4,35,72,test_exp,untrained,,,,,,,,,,,,,,,,,,,,,0,4,4,4,,,,,,,,,,,,,,,,,,,,,,,,,,,,,,,,,,,,,,,,,,,,,,,,,,,,139.34114709997084,140.39202849997673,stimuli/alien_stimuli/35.png,35,2,5,,,,,,,,,,,,A,train_x,x_decreasing_steps,top_left,2024-10-23_13h46.10.903,HideSeek_v1,2022.2.5,60.47009453236554,
6,4,1,6,5,2,4,45,72,test_exp,train_2D_repeat,,,,,,,,,,,,,,,,,,,,,0,5,5,5,0,0,0,0,,,,,,,,,,,,,,,,,,,,,,,,,,,,,,,stimuli/alien_stimuli/45.png,140.39202849997673,140.39202849997673,140.39202849997673,140.39202849997673,140.39202849997673,0,0,return,0.2642640999983996,0,0,0,0.16,-0.32,return,0.16996029997244477,,,,,,,,,,,,,,,,,,A,train_x,x_decreasing_steps,top_left,2024-10-23_13h46.10.903,HideSeek_v1,2022.2.5,60.47009453236554,
6,4,1,6,5,2,4,45,72,test_exp,train_2D_repeat,,,,,,,,,,,,,,,,,,,,,0,5,5,5,,,,,,,,,,,,,,,,,,,,,,,,,,,,,,,,,,,,,,,,,,,,,,,,,,,,140.60749680001754,141.6614701000508,stimuli/alien_stimuli/45.png,45,4,6,,,,,,,,,,,,A,train_x,x_decreasing_steps,top_left,2024-10-23_13h46.10.903,HideSeek_v1,2022.2.5,60.47009453236554,
7,3,0,4,0,1,0,51,72,test_exp,train_1D_sec_new,,,,,,,,,,,,,,,,,,,,,0,6,6,6,0,0,0,0,,,,,,,,,,,,,,,,,,,,,,,,,,,,,,,stimuli/alien_stimuli/51.png,141.6614701000508,141.6614701000508,141.6614701000508,141.6614701000508,141.6614701000508,0,0,return,0.19464929995592684,0,0,0,0.08,-0.4,return,0.10727069992572069,,,,,,,,,,,,,,,,,,A,train_x,x_decreasing_steps,top_left,2024-10-23_13h46.10.903,HideSeek_v1,2022.2.5,60.47009453236554,
7,3,0,4,0,1,0,51,72,test_exp,train_1D_sec_new,,,,,,,,,,,,,,,,,,,,,0,6,6,6,,,,,,,,,,,,,,,,,,,,,,,,,,,,,,,,,,,,,,,,,,,,,,,,,,,,141.80768239998724,142.86077640007716,stimuli/alien_stimuli/51.png,51,3,7,,,,,,,,,,,,A,train_x,x_decreasing_steps,top_left,2024-10-23_13h46.10.903,HideSeek_v1,2022.2.5,60.47009453236554,
8,3,2,7,2,4,0,21,72,test_exp,train_1D_sec_repeat,,,,,,,,,,,,,,,,,,,,,0,7,7,7,0,0,0,0,,,,,,,,,,,,,,,,,,,,,,,,,,,,,,,stimuli/alien_stimuli/21.png,142.86077640007716,142.86077640007716,142.86077640007716,142.86077640007716,142.86077640007716,0,0,return,0.11353249999228865,0,0,0,0.08,-0.24,return,0.008753799949772656,,,,,,,,,,,,,,,,,,A,train_x,x_decreasing_steps,top_left,2024-10-23_13h46.10.903,HideSeek_v1,2022.2.5,60.47009453236554,
8,3,2,7,2,4,0,21,72,test_exp,train_1D_sec_repeat,,,,,,,,,,,,,,,,,,,,,0,7,7,7,,,,,,,,,,,,,,,,,,,,,,,,,,,,,,,,,,,,,,,,,,,,,,,,,,,,142.9240191000281,143.97221909998916,stimuli/alien_stimuli/21.png,21,3,8,,,,,,,,,,,,A,train_x,x_decreasing_steps,top_left,2024-10-23_13h46.10.903,HideSeek_v1,2022.2.5,60.47009453236554,
9,0,3,2,6,2,3,44,72,test_exp,untrained,,,,,,,,,,,,,,,,,,,,,0,8,8,8,0,0,0,0,,,,,,,,,,,,,,,,,,,,,,,,,,,,,,,stimuli/alien_stimuli/44.png,143.97221909998916,143.97221909998916,143.97221909998916,143.97221909998916,143.97221909998916,0,0,return,0.19624479999765754,0,0,0,-0.16,-0.16,return,0.11201169993728399,,,,,,,,,,,,,,,,,,A,train_x,x_decreasing_steps,top_left,2024-10-23_13h46.10.903,HideSeek_v1,2022.2.5,60.47009453236554,
9,0,3,2,6,2,3,44,72,test_exp,untrained,,,,,,,,,,,,,,,,,,,,,0,8,8,8,,,,,,,,,,,,,,,,,,,,,,,,,,,,,,,,,,,,,,,,,,,,,,,,,,,,144.12413350003771,145.17733630002476,stimuli/alien_stimuli/44.png,44,0,9,,,,,,,,,,,,A,train_x,x_decreasing_steps,top_left,2024-10-23_13h46.10.903,HideSeek_v1,2022.2.5,60.47009453236554,
10,2,1,7,6,5,5,16,72,test_exp,untrained,,,,,,,,,,,,,,,,,,,,,0,9,9,9,0,0,0,0,,,,,,,,,,,,,,,,,,,,,,,,,,,,,,,stimuli/alien_stimuli/16.png,145.17733630002476,145.17733630002476,145.17733630002476,145.17733630002476,145.17733630002476,0,0,return,0.24695419997442514,0,0,0,0,-0.32,return,0.1600620000390336,,,,,,,,,,,,,,,,,,A,train_x,x_decreasing_steps,top_left,2024-10-23_13h46.10.903,HideSeek_v1,2022.2.5,60.47009453236554,
10,2,1,7,6,5,5,16,72,test_exp,untrained,,,,,,,,,,,,,,,,,,,,,0,9,9,9,,,,,,,,,,,,,,,,,,,,,,,,,,,,,,,,,,,,,,,,,,,,,,,,,,,,145.37458850000985,146.43739700003061,stimuli/alien_stimuli/16.png,16,2,10,,,,,,,,,,,,A,train_x,x_decreasing_steps,top_left,2024-10-23_13h46.10.903,HideSeek_v1,2022.2.5,60.47009453236554,
11,2,2,2,5,0,3,64,72,test_exp,train_1D_first_repeat,,,,,,,,,,,,,,,,,,,,,0,10,10,10,0,0,0,0,,,,,,,,,,,,,,,,,,,,,,,,,,,,,,,stimuli/alien_stimuli/64.png,146.43739700003061,146.43739700003061,146.43739700003061,146.43739700003061,146.43739700003061,0,0,return,0.21278359997086227,0,0,0,0,-0.24,return,0.11899660003837198,,,,,,,,,,,,,,,,,,A,train_x,x_decreasing_steps,top_left,2024-10-23_13h46.10.903,HideSeek_v1,2022.2.5,60.47009453236554,
11,2,2,2,5,0,3,64,72,test_exp,train_1D_first_repeat,,,,,,,,,,,,,,,,,,,,,0,10,10,10,,,,,,,,,,,,,,,,,,,,,,,,,,,,,,,,,,,,,,,,,,,,,,,,,,,,146.59112310002092,147.64343409996945,stimuli/alien_stimuli/64.png,64,2,11,,,,,,,,,,,,A,train_x,x_decreasing_steps,top_left,2024-10-23_13h46.10.903,HideSeek_v1,2022.2.5,60.47009453236554,
12,0,2,5,2,5,0,11,72,test_exp,train_1D_sec_new,,,,,,,,,,,,,,,,,,,,,0,11,11,11,0,0,0,0,,,,,,,,,,,,,,,,,,,,,,,,,,,,,,,stimuli/alien_stimuli/11.png,147.64343409996945,147.64343409996945,147.64343409996945,147.64343409996945,147.64343409996945,0,0,return,0.1809297000290826,0,0,0,-0.16,-0.24,return,0.09277220000512898,,,,,,,,,,,,,,,,,,A,train_x,x_decreasing_steps,top_left,2024-10-23_13h46.10.903,HideSeek_v1,2022.2.5,60.47009453236554,
12,0,2,5,2,5,0,11,72,test_exp,train_1D_sec_new,,,,,,,,,,,,,,,,,,,,,0,11,11,11,,,,,,,,,,,,,,,,,,,,,,,,,,,,,,,,,,,,,,,,,,,,,,,,,,,,147.7752302000299,148.84510330006015,stimuli/alien_stimuli/11.png,11,0,12,,,,,,,,,,,,A,train_x,x_decreasing_steps,top_left,2024-10-23_13h46.10.903,HideSeek_v1,2022.2.5,60.47009453236554,
13,2,2,2,2,0,0,61,72,test_exp,untrained,,,,,,,,,,,,,,,,,,,,,0,12,12,12,0,0,0,0,,,,,,,,,,,,,,,,,,,,,,,,,,,,,,,stimuli/alien_stimuli/61.png,148.84510330006015,148.84510330006015,148.84510330006015,148.84510330006015,148.84510330006015,0,0,return,0.6630998000036925,1,0,1,0,-0.24,return,0.5745185000123456,,,,,,,,,,,,,,,,,,A,train_x,x_decreasing_steps,top_left,2024-10-23_13h46.10.903,HideSeek_v1,2022.2.5,60.47009453236554,
13,2,2,2,2,0,0,61,72,test_exp,untrained,,,,,,,,,,,,,,,,,,,,,0,12,12,12,,,,,,,,,,,,,,,,,,,,,,,,,,,,,,,,,,,,,,,,,,,,,,,,,,,,149.45760219998192,150.49289830005728,stimuli/alien_stimuli/61.png,61,2,13,,,,,,,,,,,,A,train_x,x_decreasing_steps,top_left,2024-10-23_13h46.10.903,HideSeek_v1,2022.2.5,60.47009453236554,
14,3,3,3,8,0,5,66,72,test_exp,train_1D_first_repeat,,,,,,,,,,,,,,,,,,,,,0,13,13,13,0,0,0,0,,,,,,,,,,,,,,,,,,,,,,,,,,,,,,,stimuli/alien_stimuli/66.png,150.49289830005728,150.49289830005728,150.49289830005728,150.49289830005728,150.49289830005728,0,0,return,0.1799800000153482,1,0,0,0.08,-0.16,return,0.10034989996347576,,,,,,,,,,,,,,,,,,A,train_x,x_decreasing_steps,top_left,2024-10-23_13h46.10.903,HideSeek_v1,2022.2.5,60.47009453236554,
14,3,3,3,8,0,5,66,72,test_exp,train_1D_first_repeat,,,,,,,,,,,,,,,,,,,,,0,13,13,13,,,,,,,,,,,,,,,,,,,,,,,,,,,,,,,,,,,,,,,,,,,,,,,,,,,,150.6418025000021,151.71060700004455,stimuli/alien_stimuli/66.png,66,3,14,,,,,,,,,,,,A,train_x,x_decreasing_steps,top_left,2024-10-23_13h46.10.903,HideSeek_v1,2022.2.5,60.47009453236554,
15,4,3,9,7,5,4,15,72,test_exp,untrained,,,,,,,,,,,,,,,,,,,,,0,14,14,14,0,0,0,0,,,,,,,,,,,,,,,,,,,,,,,,,,,,,,,stimuli/alien_stimuli/15.png,151.71060700004455,151.71060700004455,151.71060700004455,151.71060700004455,151.71060700004455,0,0,return,5.646360900020227,1,0,0,0.16,-0.16,return,5.5568643000442535,,,,,,,,,,,,,,,,,,A,train_x,x_decreasing_steps,top_left,2024-10-23_13h46.10.903,HideSeek_v1,2022.2.5,60.47009453236554,
15,4,3,9,7,5,4,15,72,test_exp,untrained,,,,,,,,,,,,,,,,,,,,,0,14,14,14,,,,,,,,,,,,,,,,,,,,,,,,,,,,,,,,,,,,,,,,,,,,,,,,,,,,157.30759750003926,158.3583572000498,stimuli/alien_stimuli/15.png,15,4,15,,,,,,,,,,,,A,train_x,x_decreasing_steps,top_left,2024-10-23_13h46.10.903,HideSeek_v1,2022.2.5,60.47009453236554,
16,1,4,2,7,1,3,54,72,test_exp,untrained,,,,,,,,,,,,,,,,,,,,,0,15,15,15,0,0,0,0,,,,,,,,,,,,,,,,,,,,,,,,,,,,,,,stimuli/alien_stimuli/54.png,158.3583572000498,158.3583572000498,158.3583572000498,158.3583572000498,158.3583572000498,0,0,return,0.17980100004933774,1,0,0,-0.08,-0.08,return,0.08599749999120831,,,,,,,,,,,,,,,,,,A,train_x,x_decreasing_steps,top_left,2024-10-23_13h46.10.903,HideSeek_v1,2022.2.5,60.47009453236554,
16,1,4,2,7,1,3,54,72,test_exp,untrained,,,,,,,,,,,,,,,,,,,,,0,15,15,15,,,,,,,,,,,,,,,,,,,,,,,,,,,,,,,,,,,,,,,,,,,,,,,,,,,,158.49113510001916,159.54437100002542,stimuli/alien_stimuli/54.png,54,1,16,,,,,,,,,,,,A,train_x,x_decreasing_steps,top_left,2024-10-23_13h46.10.903,HideSeek_v1,2022.2.5,60.47009453236554,
17,2,3,7,5,5,2,13,72,test_exp,untrained,,,,,,,,,,,,,,,,,,,,,0,16,16,16,0,0,0,0,,,,,,,,,,,,,,,,,,,,,,,,,,,,,,,stimuli/alien_stimuli/13.png,159.54437100002542,159.54437100002542,159.54437100002542,159.54437100002542,159.54437100002542,0,0,return,0.17997359996661544,1,0,0,0,-0.16,return,0.08822500007227063,,,,,,,,,,,,,,,,,,A,train_x,x_decreasing_steps,top_left,2024-10-23_13h46.10.903,HideSeek_v1,2022.2.5,60.47009453236554,
17,2,3,7,5,5,2,13,72,test_exp,untrained,,,,,,,,,,,,,,,,,,,,,0,16,16,16,,,,,,,,,,,,,,,,,,,,,,,,,,,,,,,,,,,,,,,,,,,,,,,,,,,,159.6744109999854,160.72436140000354,stimuli/alien_stimuli/13.png,13,2,17,,,,,,,,,,,,A,train_x,x_decreasing_steps,top_left,2024-10-23_13h46.10.903,HideSeek_v1,2022.2.5,60.47009453236554,
18,4,1,7,2,3,1,32,72,test_exp,untrained,,,,,,,,,,,,,,,,,,,,,0,17,17,17,0,0,0,0,,,,,,,,,,,,,,,,,,,,,,,,,,,,,,,stimuli/alien_stimuli/32.png,160.72436140000354,160.72436140000354,160.72436140000354,160.72436140000354,160.72436140000354,0,0,return,0.14667550008744001,1,0,0,0.16,-0.32,return,0.052172299940139055,,,,,,,,,,,,,,,,,,A,train_x,x_decreasing_steps,top_left,2024-10-23_13h46.10.903,HideSeek_v1,2022.2.5,60.47009453236554,
18,4,1,7,2,3,1,32,72,test_exp,untrained,,,,,,,,,,,,,,,,,,,,,0,17,17,17,,,,,,,,,,,,,,,,,,,,,,,,,,,,,,,,,,,,,,,,,,,,,,,,,,,,160.82460320007522,161.87453260004986,stimuli/alien_stimuli/32.png,32,4,18,,,,,,,,,,,,A,train_x,x_decreasing_steps,top_left,2024-10-23_13h46.10.903,HideSeek_v1,2022.2.5,60.47009453236554,
19,1,1,5,4,4,3,24,72,test_exp,untrained,,,,,,,,,,,,,,,,,,,,,0,18,18,18,0,0,0,0,,,,,,,,,,,,,,,,,,,,,,,,,,,,,,,stimuli/alien_stimuli/24.png,161.87453260004986,161.87453260004986,161.87453260004986,161.87453260004986,161.87453260004986,0,0,return,0.36293340008705854,1,0,0,-0.08,-0.32,return,0.27145240001846105,,,,,,,,,,,,,,,,,,A,train_x,x_decreasing_steps,top_left,2024-10-23_13h46.10.903,HideSeek_v1,2022.2.5,60.47009453236554,
19,1,1,5,4,4,3,24,72,test_exp,untrained,,,,,,,,,,,,,,,,,,,,,0,18,18,18,,,,,,,,,,,,,,,,,,,,,,,,,,,,,,,,,,,,,,,,,,,,,,,,,,,,162.1912347000325,163.24609490006696,stimuli/alien_stimuli/24.png,24,1,19,,,,,,,,,,,,A,train_x,x_decreasing_steps,top_left,2024-10-23_13h46.10.903,HideSeek_v1,2022.2.5,60.47009453236554,
20,1,2,1,6,0,4,65,72,test_exp,train_1D_first_new,,,,,,,,,,,,,,,,,,,,,0,19,19,19,0,0,0,0,,,,,,,,,,,,,,,,,,,,,,,,,,,,,,,stimuli/alien_stimuli/65.png,163.24609490006696,163.24609490006696,163.24609490006696,163.24609490006696,163.24609490006696,0,0,return,0.2640203000046313,1,0,0,-0.08,-0.24,return,0.1709635000443086,,,,,,,,,,,,,,,,,,A,train_x,x_decreasing_steps,top_left,2024-10-23_13h46.10.903,HideSeek_v1,2022.2.5,60.47009453236554,
20,1,2,1,6,0,4,65,72,test_exp,train_1D_first_new,,,,,,,,,,,,,,,,,,,,,0,19,19,19,,,,,,,,,,,,,,,,,,,,,,,,,,,,,,,,,,,,,,,,,,,,,,,,,,,,163.45769599999767,164.508135400014,stimuli/alien_stimuli/65.png,65,1,20,,,,,,,,,,,,A,train_x,x_decreasing_steps,top_left,2024-10-23_13h46.10.903,HideSeek_v1,2022.2.5,60.47009453236554,
21,0,2,3,2,3,0,31,72,test_exp,train_1D_sec_repeat,,,,,,,,,,,,,,,,,,,,,0,20,20,20,0,0,0,0,,,,,,,,,,,,,,,,,,,,,,,,,,,,,,,stimuli/alien_stimuli/31.png,164.508135400014,164.508135400014,164.508135400014,164.508135400014,164.508135400014,0,0,return,0.2620890000835061,1,0,0,-0.16,-0.24,return,0.1683620000258088,,,,,,,,,,,,,,,,,,A,train_x,x_decreasing_steps,top_left,2024-10-23_13h46.10.903,HideSeek_v1,2022.2.5,60.47009453236554,
21,0,2,3,2,3,0,31,72,test_exp,train_1D_sec_repeat,,,,,,,,,,,,,,,,,,,,,0,20,20,20,,,,,,,,,,,,,,,,,,,,,,,,,,,,,,,,,,,,,,,,,,,,,,,,,,,,164.72421800007578,165.7705019999994,stimuli/alien_stimuli/31.png,31,0,21,,,,,,,,,,,,A,train_x,x_decreasing_steps,top_left,2024-10-23_13h46.10.903,HideSeek_v1,2022.2.5,60.47009453236554,
22,2,4,4,6,2,2,43,72,test_exp,untrained,,,,,,,,,,,,,,,,,,,,,0,21,21,21,0,0,0,0,,,,,,,,,,,,,,,,,,,,,,,,,,,,,,,stimuli/alien_stimuli/43.png,165.7705019999994,165.7705019999994,165.7705019999994,165.7705019999994,165.7705019999994,0,0,return,0.14578560006339103,1,0,0,0,-0.08,return,0.07182889990508556,,,,,,,,,,,,,,,,,,A,train_x,x_decreasing_steps,top_left,2024-10-23_13h46.10.903,HideSeek_v1,2022.2.5,60.47009453236554,
22,2,4,4,6,2,2,43,72,test_exp,untrained,,,,,,,,,,,,,,,,,,,,,0,21,21,21,,,,,,,,,,,,,,,,,,,,,,,,,,,,,,,,,,,,,,,,,,,,,,,,,,,,165.87420329998713,166.93380220001563,stimuli/alien_stimuli/43.png,43,2,22,,,,,,,,,,,,A,train_x,x_decreasing_steps,top_left,2024-10-23_13h46.10.903,HideSeek_v1,2022.2.5,60.47009453236554,
23,2,0,2,1,0,1,62,72,test_exp,train_1D_first_repeat,,,,,,,,,,,,,,,,,,,,,0,22,22,22,0,0,0,0,,,,,,,,,,,,,,,,,,,,,,,,,,,,,,,stimuli/alien_stimuli/62.png,166.93380220001563,166.93380220001563,166.93380220001563,166.93380220001563,166.93380220001563,0,0,return,0.17973069997970015,1,0,0,0,-0.4,return,0.09056379995308816,,,,,,,,,,,,,,,,,,A,train_x,x_decreasing_steps,top_left,2024-10-23_13h46.10.903,HideSeek_v1,2022.2.5,60.47009453236554,
23,2,0,2,1,0,1,62,72,test_exp,train_1D_first_repeat,,,,,,,,,,,,,,,,,,,,,0,22,22,22,,,,,,,,,,,,,,,,,,,,,,,,,,,,,,,,,,,,,,,,,,,,,,,,,,,,167.0576640999643,168.1119122999953,stimuli/alien_stimuli/62.png,62,2,23,,,,,,,,,,,,A,train_x,x_decreasing_steps,top_left,2024-10-23_13h46.10.903,HideSeek_v1,2022.2.5,60.47009453236554,
24,4,4,8,9,4,5,26,72,test_exp,untrained,,,,,,,,,,,,,,,,,,,,,0,23,23,23,0,0,0,0,,,,,,,,,,,,,,,,,,,,,,,,,,,,,,,stimuli/alien_stimuli/26.png,168.1119122999953,168.1119122999953,168.1119122999953,168.1119122999953,168.1119122999953,0,0,return,0.1967972000129521,1,0,0,0.16,-0.08,return,0.10357429995201528,,,,,,,,,,,,,,,,,,A,train_x,x_decreasing_steps,top_left,2024-10-23_13h46.10.903,HideSeek_v1,2022.2.5,60.47009453236554,
24,4,4,8,9,4,5,26,72,test_exp,untrained,,,,,,,,,,,,,,,,,,,,,0,23,23,23,,,,,,,,,,,,,,,,,,,,,,,,,,,,,,,,,,,,,,,,,,,,,,,,,,,,168.2569832999725,169.30712220002897,stimuli/alien_stimuli/26.png,26,4,24,,,,,,,,,,,,A,train_x,x_decreasing_steps,top_left,2024-10-23_13h46.10.903,HideSeek_v1,2022.2.5,60.47009453236554,
25,0,4,1,8,1,4,55,72,test_exp,untrained,,,,,,,,,,,,,,,,,,,,,0,24,24,24,0,0,0,0,,,,,,,,,,,,,,,,,,,,,,,,,,,,,,,stimuli/alien_stimuli/55.png,169.30712220002897,169.30712220002897,169.30712220002897,169.30712220002897,169.30712220002897,0,0,return,0.21308140002656728,1,0,0,-0.16,-0.08,return,0.12211430002935231,,,,,,,,,,,,,,,,,,A,train_x,x_decreasing_steps,top_left,2024-10-23_13h46.10.903,HideSeek_v1,2022.2.5,60.47009453236554,
25,0,4,1,8,1,4,55,72,test_exp,untrained,,,,,,,,,,,,,,,,,,,,,0,24,24,24,,,,,,,,,,,,,,,,,,,,,,,,,,,,,,,,,,,,,,,,,,,,,,,,,,,,169.47421260003466,170.52629559999332,stimuli/alien_stimuli/55.png,55,0,25,,,,,,,,,,,,A,train_x,x_decreasing_steps,top_left,2024-10-23_13h46.10.903,HideSeek_v1,2022.2.5,60.47009453236554,
26,0,1,3,3,3,2,33,72,test_exp,untrained,,,,,,,,,,,,,,,,,,,,,0,25,25,25,0,0,0,0,,,,,,,,,,,,,,,,,,,,,,,,,,,,,,,stimuli/alien_stimuli/33.png,170.52629559999332,170.52629559999332,170.52629559999332,170.52629559999332,170.52629559999332,0,0,return,0.129765999969095,1,0,0,-0.16,-0.32,return,0.04618040006607771,,,,,,,,,,,,,,,,,,A,train_x,x_decreasing_steps,top_left,2024-10-23_13h46.10.903,HideSeek_v1,2022.2.5,60.47009453236554,
26,0,1,3,3,3,2,33,72,test_exp,untrained,,,,,,,,,,,,,,,,,,,,,0,25,25,25,,,,,,,,,,,,,,,,,,,,,,,,,,,,,,,,,,,,,,,,,,,,,,,,,,,,170.60767250007484,171.66087769996375,stimuli/alien_stimuli/33.png,33,0,26,,,,,,,,,,,,A,train_x,x_decreasing_steps,top_left,2024-10-23_13h46.10.903,HideSeek_v1,2022.2.5,60.47009453236554,
27,2,4,6,8,4,4,25,72,test_exp,untrained,,,,,,,,,,,,,,,,,,,,,0,26,26,26,0,0,0,0,,,,,,,,,,,,,,,,,,,,,,,,,,,,,,,stimuli/alien_stimuli/25.png,171.66087769996375,171.66087769996375,171.66087769996375,171.66087769996375,171.66087769996375,0,0,return,0.5134360999800265,1,0,0,0,-0.08,return,0.4193885999266058,,,,,,,,,,,,,,,,,,A,train_x,x_decreasing_steps,top_left,2024-10-23_13h46.10.903,HideSeek_v1,2022.2.5,60.47009453236554,
27,2,4,6,8,4,4,25,72,test_exp,untrained,,,,,,,,,,,,,,,,,,,,,0,26,26,26,,,,,,,,,,,,,,,,,,,,,,,,,,,,,,,,,,,,,,,,,,,,,,,,,,,,172.12463219999336,173.17493610002566,stimuli/alien_stimuli/25.png,25,2,27,,,,,,,,,,,,A,train_x,x_decreasing_steps,top_left,2024-10-23_13h46.10.903,HideSeek_v1,2022.2.5,60.47009453236554,
28,1,2,2,4,1,2,53,72,test_exp,untrained,,,,,,,,,,,,,,,,,,,,,0,27,27,27,0,0,0,0,,,,,,,,,,,,,,,,,,,,,,,,,,,,,,,stimuli/alien_stimuli/53.png,173.17493610002566,173.17493610002566,173.17493610002566,173.17493610002566,173.17493610002566,0,0,return,0.34598209999967366,1,0,0,-0.08,-0.24,return,0.2637939000269398,,,,,,,,,,,,,,,,,,A,train_x,x_decreasing_steps,top_left,2024-10-23_13h46.10.903,HideSeek_v1,2022.2.5,60.47009453236554,
28,1,2,2,4,1,2,53,72,test_exp,untrained,,,,,,,,,,,,,,,,,,,,,0,27,27,27,,,,,,,,,,,,,,,,,,,,,,,,,,,,,,,,,,,,,,,,,,,,,,,,,,,,173.47417269996367,174.524847600027,stimuli/alien_stimuli/53.png,53,1,28,,,,,,,,,,,,A,train_x,x_decreasing_steps,top_left,2024-10-23_13h46.10.903,HideSeek_v1,2022.2.5,60.47009453236554,
29,3,0,7,2,4,2,23,72,test_exp,train_2D_new,,,,,,,,,,,,,,,,,,,,,0,28,28,28,0,0,0,0,,,,,,,,,,,,,,,,,,,,,,,,,,,,,,,stimuli/alien_stimuli/23.png,174.524847600027,174.524847600027,174.524847600027,174.524847600027,174.524847600027,0,0,return,0.3804159000283107,1,0,0,0.08,-0.4,return,0.2982670000055805,,,,,,,,,,,,,,,,,,A,train_x,x_decreasing_steps,top_left,2024-10-23_13h46.10.903,HideSeek_v1,2022.2.5,60.47009453236554,
29,3,0,7,2,4,2,23,72,test_exp,train_2D_new,,,,,,,,,,,,,,,,,,,,,0,28,28,28,,,,,,,,,,,,,,,,,,,,,,,,,,,,,,,,,,,,,,,,,,,,,,,,,,,,174.8577580000274,175.9091233999934,stimuli/alien_stimuli/23.png,23,3,29,,,,,,,,,,,,A,train_x,x_decreasing_steps,top_left,2024-10-23_13h46.10.903,HideSeek_v1,2022.2.5,60.47009453236554,
30,4,2,6,7,2,5,46,72,test_exp,untrained,,,,,,,,,,,,,,,,,,,,,0,29,29,29,0,0,0,0,,,,,,,,,,,,,,,,,,,,,,,,,,,,,,,stimuli/alien_stimuli/46.png,175.9091233999934,175.9091233999934,175.9091233999934,175.9091233999934,175.9091233999934,0,0,return,0.12949510000180453,1,0,0,0.16,-0.24,return,0.033031599945388734,,,,,,,,,,,,,,,,,,A,train_x,x_decreasing_steps,top_left,2024-10-23_13h46.10.903,HideSeek_v1,2022.2.5,60.47009453236554,
30,4,2,6,7,2,5,46,72,test_exp,untrained,,,,,,,,,,,,,,,,,,,,,0,29,29,29,,,,,,,,,,,,,,,,,,,,,,,,,,,,,,,,,,,,,,,,,,,,,,,,,,,,175.9907389000291,177.07396459998563,stimuli/alien_stimuli/46.png,46,4,30,,,,,,,,,,,,A,train_x,x_decreasing_steps,top_left,2024-10-23_13h46.10.903,HideSeek_v1,2022.2.5,60.47009453236554,
31,0,3,5,6,5,3,14,72,test_exp,untrained,,,,,,,,,,,,,,,,,,,,,0,30,30,30,0,0,0,0,,,,,,,,,,,,,,,,,,,,,,,,,,,,,,,stimuli/alien_stimuli/14.png,177.07396459998563,177.07396459998563,177.07396459998563,177.07396459998563,177.07396459998563,0,0,return,0.21289680001791567,1,0,0,-0.16,-0.16,return,0.0903327000560239,,,,,,,,,,,,,,,,,,A,train_x,x_decreasing_steps,top_left,2024-10-23_13h46.10.903,HideSeek_v1,2022.2.5,60.47009453236554,
31,0,3,5,6,5,3,14,72,test_exp,untrained,,,,,,,,,,,,,,,,,,,,,0,30,30,30,,,,,,,,,,,,,,,,,,,,,,,,,,,,,,,,,,,,,,,,,,,,,,,,,,,,177.20737209997606,178.27465360006317,stimuli/alien_stimuli/14.png,14,0,31,,,,,,,,,,,,A,train_x,x_decreasing_steps,top_left,2024-10-23_13h46.10.903,HideSeek_v1,2022.2.5,60.47009453236554,
32,1,1,2,6,1,5,56,72,test_exp,train_2D_new,,,,,,,,,,,,,,,,,,,,,0,31,31,31,0,0,0,0,,,,,,,,,,,,,,,,,,,,,,,,,,,,,,,stimuli/alien_stimuli/56.png,178.27465360006317,178.27465360006317,178.27465360006317,178.27465360006317,178.27465360006317,0,0,return,0.14651009999215603,1,0,0,-0.08,-0.32,return,0.04563499998766929,,,,,,,,,,,,,,,,,,A,train_x,x_decreasing_steps,top_left,2024-10-23_13h46.10.903,HideSeek_v1,2022.2.5,60.47009453236554,
32,1,1,2,6,1,5,56,72,test_exp,train_2D_new,,,,,,,,,,,,,,,,,,,,,0,31,31,31,,,,,,,,,,,,,,,,,,,,,,,,,,,,,,,,,,,,,,,,,,,,,,,,,,,,178.35765540006105,179.40633959998377,stimuli/alien_stimuli/56.png,56,1,32,,,,,,,,,,,,A,train_x,x_decreasing_steps,top_left,2024-10-23_13h46.10.903,HideSeek_v1,2022.2.5,60.47009453236554,
33,2,2,4,3,2,1,42,72,test_exp,untrained,,,,,,,,,,,,,,,,,,,,,0,32,32,32,0,0,0,0,,,,,,,,,,,,,,,,,,,,,,,,,,,,,,,stimuli/alien_stimuli/42.png,179.40633959998377,179.40633959998377,179.40633959998377,179.40633959998377,179.40633959998377,0,0,return,0.19678559992462397,1,0,0,0,-0.24,return,0.10921689996030182,,,,,,,,,,,,,,,,,,A,train_x,x_decreasing_steps,top_left,2024-10-23_13h46.10.903,HideSeek_v1,2022.2.5,60.47009453236554,
33,2,2,4,3,2,1,42,72,test_exp,untrained,,,,,,,,,,,,,,,,,,,,,0,32,32,32,,,,,,,,,,,,,,,,,,,,,,,,,,,,,,,,,,,,,,,,,,,,,,,,,,,,179.55776830005925,180.60900260007475,stimuli/alien_stimuli/42.png,42,2,33,,,,,,,,,,,,A,train_x,x_decreasing_steps,top_left,2024-10-23_13h46.10.903,HideSeek_v1,2022.2.5,60.47009453236554,
34,4,4,7,9,3,5,36,72,test_exp,untrained,,,,,,,,,,,,,,,,,,,,,0,33,33,33,0,0,0,0,,,,,,,,,,,,,,,,,,,,,,,,,,,,,,,stimuli/alien_stimuli/36.png,180.60900260007475,180.60900260007475,180.60900260007475,180.60900260007475,180.60900260007475,0,0,return,0.39625500002875924,1,0,0,0.16,-0.08,return,0.31567220005672425,,,,,,,,,,,,,,,,,,A,train_x,x_decreasing_steps,top_left,2024-10-23_13h46.10.903,HideSeek_v1,2022.2.5,60.47009453236554,
34,4,4,7,9,3,5,36,72,test_exp,untrained,,,,,,,,,,,,,,,,,,,,,0,33,33,33,,,,,,,,,,,,,,,,,,,,,,,,,,,,,,,,,,,,,,,,,,,,,,,,,,,,180.9575108999852,182.01134970004205,stimuli/alien_stimuli/36.png,36,4,34,,,,,,,,,,,,A,train_x,x_decreasing_steps,top_left,2024-10-23_13h46.10.903,HideSeek_v1,2022.2.5,60.47009453236554,
35,0,0,5,1,5,1,12,72,test_exp,train_2D_repeat,,,,,,,,,,,,,,,,,,,,,0,34,34,34,0,0,0,0,,,,,,,,,,,,,,,,,,,,,,,,,,,,,,,stimuli/alien_stimuli/12.png,182.01134970004205,182.01134970004205,182.01134970004205,182.01134970004205,182.01134970004205,0,0,return,0.38008480006828904,1,0,0,-0.16,-0.4,return,0.29507650004234165,,,,,,,,,,,,,,,,,,A,train_x,x_decreasing_steps,top_left,2024-10-23_13h46.10.903,HideSeek_v1,2022.2.5,60.47009453236554,
35,0,0,5,1,5,1,12,72,test_exp,train_2D_repeat,,,,,,,,,,,,,,,,,,,,,0,34,34,34,,,,,,,,,,,,,,,,,,,,,,,,,,,,,,,,,,,,,,,,,,,,,,,,,,,,182.34110359998886,183.39216889999807,stimuli/alien_stimuli/12.png,12,0,35,,,,,,,,,,,,A,train_x,x_decreasing_steps,top_left,2024-10-23_13h46.10.903,HideSeek_v1,2022.2.5,60.47009453236554,
36,3,1,5,1,2,0,41,72,test_exp,untrained_1D_sec_leftout,,,,,,,,,,,,,,,,,,,,,0,35,35,35,0,0,0,0,,,,,,,,,,,,,,,,,,,,,,,,,,,,,,,stimuli/alien_stimuli/41.png,183.39216889999807,183.39216889999807,183.39216889999807,183.39216889999807,183.39216889999807,0,0,return,9.096337600029074,1,0,0,0.08,-0.32,return,9.004795299959369,,,,,,,,,,,,,,,,,,A,train_x,x_decreasing_steps,top_left,2024-10-23_13h46.10.903,HideSeek_v1,2022.2.5,60.47009453236554,
36,3,1,5,1,2,0,41,72,test_exp,untrained_1D_sec_leftout,,,,,,,,,,,,,,,,,,,,,0,35,35,35,,,,,,,,,,,,,,,,,,,,,,,,,,,,,,,,,,,,,,,,,,,,,,,,,,,,192.44093669997528,193.4879229000071,stimuli/alien_stimuli/41.png,41,3,36,,,,,,,,,,,,A,train_x,x_decreasing_steps,top_left,2024-10-23_13h46.10.903,HideSeek_v1,2022.2.5,60.47009453236554,
37,2,1,3,5,1,4,55,72,test_exp,untrained,,,,,,,,,,,,,,,,,,,,,0,36,36,36,0,0,0,0,,,,,,,,,,,,,,,,,,,,,,,,,,,,,,,stimuli/alien_stimuli/55.png,193.4879229000071,193.4879229000071,193.4879229000071,193.4879229000071,193.4879229000071,0,0,return,0.46341189998202026,1,0,0,0,-0.32,return,0.3729399999137968,,,,,,,,,,,,,,,,,,A,train_x,x_decreasing_steps,top_left,2024-10-23_13h46.10.903,HideSeek_v1,2022.2.5,60.47009453236554,
37,2,1,3,5,1,4,55,72,test_exp,untrained,,,,,,,,,,,,,,,,,,,,,0,36,36,36,,,,,,,,,,,,,,,,,,,,,,,,,,,,,,,,,,,,,,,,,,,,,,,,,,,,193.90768870001193,194.96250799996778,stimuli/alien_stimuli/55.png,55,2,37,,,,,,,,,,,,A,train_x,x_decreasing_steps,top_left,2024-10-23_13h46.10.903,HideSeek_v1,2022.2.5,60.47009453236554,
38,0,2,0,4,0,2,63,72,test_exp,untrained_1D_first_leftout,,,,,,,,,,,,,,,,,,,,,0,37,37,37,0,0,0,0,,,,,,,,,,,,,,,,,,,,,,,,,,,,,,,stimuli/alien_stimuli/63.png,194.96250799996778,194.96250799996778,194.96250799996778,194.96250799996778,194.96250799996778,0,0,return,0.7630561999976635,1,0,0,-0.16,-0.24,return,0.6724432999035344,,,,,,,,,,,,,,,,,,A,train_x,x_decreasing_steps,top_left,2024-10-23_13h46.10.903,HideSeek_v1,2022.2.5,60.47009453236554,
38,0,2,0,4,0,2,63,72,test_exp,untrained_1D_first_leftout,,,,,,,,,,,,,,,,,,,,,0,37,37,37,,,,,,,,,,,,,,,,,,,,,,,,,,,,,,,,,,,,,,,,,,,,,,,,,,,,195.67413200007286,196.72262500005309,stimuli/alien_stimuli/63.png,63,0,38,,,,,,,,,,,,A,train_x,x_decreasing_steps,top_left,2024-10-23_13h46.10.903,HideSeek_v1,2022.2.5,60.47009453236554,
39,2,3,4,5,2,2,43,72,test_exp,untrained,,,,,,,,,,,,,,,,,,,,,0,38,38,38,0,0,0,0,,,,,,,,,,,,,,,,,,,,,,,,,,,,,,,stimuli/alien_stimuli/43.png,196.72262500005309,196.72262500005309,196.72262500005309,196.72262500005309,196.72262500005309,0,0,return,0.6135040000081062,1,0,0,0,-0.16,return,0.5199476999696344,,,,,,,,,,,,,,,,,,A,train_x,x_decreasing_steps,top_left,2024-10-23_13h46.10.903,HideSeek_v1,2022.2.5,60.47009453236554,
39,2,3,4,5,2,2,43,72,test_exp,untrained,,,,,,,,,,,,,,,,,,,,,0,38,38,38,,,,,,,,,,,,,,,,,,,,,,,,,,,,,,,,,,,,,,,,,,,,,,,,,,,,197.29034740000498,198.3410734999925,stimuli/alien_stimuli/43.png,43,2,39,,,,,,,,,,,,A,train_x,x_decreasing_steps,top_left,2024-10-23_13h46.10.903,HideSeek_v1,2022.2.5,60.47009453236554,
40,1,3,4,8,3,5,36,72,test_exp,untrained,,,,,,,,,,,,,,,,,,,,,0,39,39,39,0,0,0,0,,,,,,,,,,,,,,,,,,,,,,,,,,,,,,,stimuli/alien_stimuli/36.png,198.3410734999925,198.3410734999925,198.3410734999925,198.3410734999925,198.3410734999925,0,0,return,1.5627448000013828,1,0,0,-0.08,-0.16,return,1.4709927999647334,,,,,,,,,,,,,,,,,,A,train_x,x_decreasing_steps,top_left,2024-10-23_13h46.10.903,HideSeek_v1,2022.2.5,60.47009453236554,
40,1,3,4,8,3,5,36,72,test_exp,untrained,,,,,,,,,,,,,,,,,,,,,0,39,39,39,,,,,,,,,,,,,,,,,,,,,,,,,,,,,,,,,,,,,,,,,,,,,,,,,,,,199.85738830000628,200.9240002000006,stimuli/alien_stimuli/36.png,36,1,40,,,,,,,,,,,,A,train_x,x_decreasing_steps,top_left,2024-10-23_13h46.10.903,HideSeek_v1,2022.2.5,60.47009453236554,
41,1,4,5,7,4,3,24,72,test_exp,untrained,,,,,,,,,,,,,,,,,,,,,0,40,40,40,0,0,0,0,,,,,,,,,,,,,,,,,,,,,,,,,,,,,,,stimuli/alien_stimuli/24.png,200.9240002000006,200.9240002000006,200.9240002000006,200.9240002000006,200.9240002000006,0,0,return,0.49728050001431257,1,0,0,-0.08,-0.08,return,0.3944104000693187,,,,,,,,,,,,,,,,,,A,train_x,x_decreasing_steps,top_left,2024-10-23_13h46.10.903,HideSeek_v1,2022.2.5,60.47009453236554,
41,1,4,5,7,4,3,24,72,test_exp,untrained,,,,,,,,,,,,,,,,,,,,,0,40,40,40,,,,,,,,,,,,,,,,,,,,,,,,,,,,,,,,,,,,,,,,,,,,,,,,,,,,201.35724729998037,202.38766120001674,stimuli/alien_stimuli/24.png,24,1,41,,,,,,,,,,,,A,train_x,x_decreasing_steps,top_left,2024-10-23_13h46.10.903,HideSeek_v1,2022.2.5,60.47009453236554,
42,4,3,8,4,4,1,22,72,test_exp,untrained,,,,,,,,,,,,,,,,,,,,,0,41,41,41,0,0,0,0,,,,,,,,,,,,,,,,,,,,,,,,,,,,,,,stimuli/alien_stimuli/22.png,202.38766120001674,202.38766120001674,202.38766120001674,202.38766120001674,202.38766120001674,0,0,return,0.09761969989631325,1,0,0,0.16,-0.16,return,0.031255099922418594,,,,,,,,,,,,,,,,,,A,train_x,x_decreasing_steps,top_left,2024-10-23_13h46.10.903,HideSeek_v1,2022.2.5,60.47009453236554,
42,4,3,8,4,4,1,22,72,test_exp,untrained,,,,,,,,,,,,,,,,,,,,,0,41,41,41,,,,,,,,,,,,,,,,,,,,,,,,,,,,,,,,,,,,,,,,,,,,,,,,,,,,202.45735869999044,203.51272760005668,stimuli/alien_stimuli/22.png,22,4,42,,,,,,,,,,,,A,train_x,x_decreasing_steps,top_left,2024-10-23_13h46.10.903,HideSeek_v1,2022.2.5,60.47009453236554,
43,4,3,9,3,5,0,11,72,test_exp,train_1D_sec_repeat,,,,,,,,,,,,,,,,,,,,,0,42,42,42,0,0,0,0,,,,,,,,,,,,,,,,,,,,,,,,,,,,,,,stimuli/alien_stimuli/11.png,203.51272760005668,203.51272760005668,203.51272760005668,203.51272760005668,203.51272760005668,0,0,return,0.42996630002744496,1,0,0,0.16,-0.16,return,0.34390460001304746,,,,,,,,,,,,,,,,,,A,train_x,x_decreasing_steps,top_left,2024-10-23_13h46.10.903,HideSeek_v1,2022.2.5,60.47009453236554,
43,4,3,9,3,5,0,11,72,test_exp,train_1D_sec_repeat,,,,,,,,,,,,,,,,,,,,,0,42,42,42,,,,,,,,,,,,,,,,,,,,,,,,,,,,,,,,,,,,,,,,,,,,,,,,,,,,203.89113320002798,204.95076759997755,stimuli/alien_stimuli/11.png,11,4,43,,,,,,,,,,,,A,train_x,x_decreasing_steps,top_left,2024-10-23_13h46.10.903,HideSeek_v1,2022.2.5,60.47009453236554,
44,4,4,4,8,0,4,65,72,test_exp,train_1D_first_repeat,,,,,,,,,,,,,,,,,,,,,0,43,43,43,0,0,0,0,,,,,,,,,,,,,,,,,,,,,,,,,,,,,,,stimuli/alien_stimuli/65.png,204.95076759997755,204.95076759997755,204.95076759997755,204.95076759997755,204.95076759997755,0,0,return,0.24675479996949434,1,0,0,0.16,-0.08,return,0.15241039998363703,,,,,,,,,,,,,,,,,,A,train_x,x_decreasing_steps,top_left,2024-10-23_13h46.10.903,HideSeek_v1,2022.2.5,60.47009453236554,
44,4,4,4,8,0,4,65,72,test_exp,train_1D_first_repeat,,,,,,,,,,,,,,,,,,,,,0,43,43,43,,,,,,,,,,,,,,,,,,,,,,,,,,,,,,,,,,,,,,,,,,,,,,,,,,,,205.14158659998793,206.19653050007764,stimuli/alien_stimuli/65.png,65,4,44,,,,,,,,,,,,A,train_x,x_decreasing_steps,top_left,2024-10-23_13h46.10.903,HideSeek_v1,2022.2.5,60.47009453236554,
45,4,0,6,3,2,3,44,72,test_exp,untrained,,,,,,,,,,,,,,,,,,,,,0,44,44,44,0,0,0,0,,,,,,,,,,,,,,,,,,,,,,,,,,,,,,,stimuli/alien_stimuli/44.png,206.19653050007764,206.19653050007764,206.19653050007764,206.19653050007764,206.19653050007764,0,0,return,0.34641670004930347,1,0,0,0.16,-0.4,return,0.2494359000120312,,,,,,,,,,,,,,,,,,A,train_x,x_decreasing_steps,top_left,2024-10-23_13h46.10.903,HideSeek_v1,2022.2.5,60.47009453236554,
45,4,0,6,3,2,3,44,72,test_exp,untrained,,,,,,,,,,,,,,,,,,,,,0,44,44,44,,,,,,,,,,,,,,,,,,,,,,,,,,,,,,,,,,,,,,,,,,,,,,,,,,,,206.49113019998185,207.54778999998234,stimuli/alien_stimuli/44.png,44,4,45,,,,,,,,,,,,A,train_x,x_decreasing_steps,top_left,2024-10-23_13h46.10.903,HideSeek_v1,2022.2.5,60.47009453236554,
46,2,0,6,5,4,5,26,72,test_exp,untrained,,,,,,,,,,,,,,,,,,,,,0,45,45,45,0,0,0,0,,,,,,,,,,,,,,,,,,,,,,,,,,,,,,,stimuli/alien_stimuli/26.png,207.54778999998234,207.54778999998234,207.54778999998234,207.54778999998234,207.54778999998234,0,0,return,0.19598949991632253,1,0,0,0,-0.4,return,0.10069569991901517,,,,,,,,,,,,,,,,,,A,train_x,x_decreasing_steps,top_left,2024-10-23_13h46.10.903,HideSeek_v1,2022.2.5,60.47009453236554,
46,2,0,6,5,4,5,26,72,test_exp,untrained,,,,,,,,,,,,,,,,,,,,,0,45,45,45,,,,,,,,,,,,,,,,,,,,,,,,,,,,,,,,,,,,,,,,,,,,,,,,,,,,207.69049309997354,208.7474565000739,stimuli/alien_stimuli/26.png,26,2,46,,,,,,,,,,,,A,train_x,x_decreasing_steps,top_left,2024-10-23_13h46.10.903,HideSeek_v1,2022.2.5,60.47009453236554,
47,0,0,3,2,3,2,33,72,test_exp,untrained,,,,,,,,,,,,,,,,,,,,,0,46,46,46,0,0,0,0,,,,,,,,,,,,,,,,,,,,,,,,,,,,,,,stimuli/alien_stimuli/33.png,208.7474565000739,208.7474565000739,208.7474565000739,208.7474565000739,208.7474565000739,0,0,return,0.26380250009242445,1,0,0,-0.16,-0.4,return,0.1620083999587223,,,,,,,,,,,,,,,,,,A,train_x,x_decreasing_steps,top_left,2024-10-23_13h46.10.903,HideSeek_v1,2022.2.5,60.47009453236554,
47,0,0,3,2,3,2,33,72,test_exp,untrained,,,,,,,,,,,,,,,,,,,,,0,46,46,46,,,,,,,,,,,,,,,,,,,,,,,,,,,,,,,,,,,,,,,,,,,,,,,,,,,,208.9570266000228,210.01143279997632,stimuli/alien_stimuli/33.png,33,0,47,,,,,,,,,,,,A,train_x,x_decreasing_steps,top_left,2024-10-23_13h46.10.903,HideSeek_v1,2022.2.5,60.47009453236554,
48,3,3,7,7,4,4,25,72,test_exp,untrained,,,,,,,,,,,,,,,,,,,,,0,47,47,47,0,0,0,0,,,,,,,,,,,,,,,,,,,,,,,,,,,,,,,stimuli/alien_stimuli/25.png,210.01143279997632,210.01143279997632,210.01143279997632,210.01143279997632,210.01143279997632,0,0,return,0.2138727999990806,1,0,0,0.08,-0.16,return,0.1256153000285849,,,,,,,,,,,,,,,,,,A,train_x,x_decreasing_steps,top_left,2024-10-23_13h46.10.903,HideSeek_v1,2022.2.5,60.47009453236554,
48,3,3,7,7,4,4,25,72,test_exp,untrained,,,,,,,,,,,,,,,,,,,,,0,47,47,47,,,,,,,,,,,,,,,,,,,,,,,,,,,,,,,,,,,,,,,,,,,,,,,,,,,,210.17329599999357,211.23839630000293,stimuli/alien_stimuli/25.png,25,3,48,,,,,,,,,,,,A,train_x,x_decreasing_steps,top_left,2024-10-23_13h46.10.903,HideSeek_v1,2022.2.5,60.47009453236554,
49,4,1,9,3,5,2,13,72,test_exp,untrained,,,,,,,,,,,,,,,,,,,,,0,48,48,48,0,0,0,0,,,,,,,,,,,,,,,,,,,,,,,,,,,,,,,stimuli/alien_stimuli/13.png,211.23839630000293,211.23839630000293,211.23839630000293,211.23839630000293,211.23839630000293,0,0,return,0.2462144000455737,1,0,0,0.16,-0.32,return,0.1411470000166446,,,,,,,,,,,,,,,,,,A,train_x,x_decreasing_steps,top_left,2024-10-23_13h46.10.903,HideSeek_v1,2022.2.5,60.47009453236554,
49,4,1,9,3,5,2,13,72,test_exp,untrained,,,,,,,,,,,,,,,,,,,,,0,48,48,48,,,,,,,,,,,,,,,,,,,,,,,,,,,,,,,,,,,,,,,,,,,,,,,,,,,,211.42453920003027,212.49166469997726,stimuli/alien_stimuli/13.png,13,4,49,,,,,,,,,,,,A,train_x,x_decreasing_steps,top_left,2024-10-23_13h46.10.903,HideSeek_v1,2022.2.5,60.47009453236554,
50,4,4,9,9,5,5,16,72,test_exp,untrained,,,,,,,,,,,,,,,,,,,,,0,49,49,49,0,0,0,0,,,,,,,,,,,,,,,,,,,,,,,,,,,,,,,stimuli/alien_stimuli/16.png,212.49166469997726,212.49166469997726,212.49166469997726,212.49166469997726,212.49166469997726,0,0,return,0.1300075000617653,1,0,0,0.16,-0.08,return,0.047315699979662895,,,,,,,,,,,,,,,,,,A,train_x,x_decreasing_steps,top_left,2024-10-23_13h46.10.903,HideSeek_v1,2022.2.5,60.47009453236554,
50,4,4,9,9,5,5,16,72,test_exp,untrained,,,,,,,,,,,,,,,,,,,,,0,49,49,49,,,,,,,,,,,,,,,,,,,,,,,,,,,,,,,,,,,,,,,,,,,,,,,,,,,,212.57379709999077,213.62857810000423,stimuli/alien_stimuli/16.png,16,4,50,,,,,,,,,,,,A,train_x,x_decreasing_steps,top_left,2024-10-23_13h46.10.903,HideSeek_v1,2022.2.5,60.47009453236554,
51,2,3,3,8,1,5,56,72,test_exp,train_2D_repeat,,,,,,,,,,,,,,,,,,,,,0,50,50,50,0,0,0,0,,,,,,,,,,,,,,,,,,,,,,,,,,,,,,,stimuli/alien_stimuli/56.png,213.62857810000423,213.62857810000423,213.62857810000423,213.62857810000423,213.62857810000423,0,0,return,0.12968559993896633,1,0,0,0,-0.16,return,0.035975400009192526,,,,,,,,,,,,,,,,,,A,train_x,x_decreasing_steps,top_left,2024-10-23_13h46.10.903,HideSeek_v1,2022.2.5,60.47009453236554,
51,2,3,3,8,1,5,56,72,test_exp,train_2D_repeat,,,,,,,,,,,,,,,,,,,,,0,50,50,50,,,,,,,,,,,,,,,,,,,,,,,,,,,,,,,,,,,,,,,,,,,,,,,,,,,,213.70704280002974,214.73773699998856,stimuli/alien_stimuli/56.png,56,2,51,,,,,,,,,,,,A,train_x,x_decreasing_steps,top_left,2024-10-23_13h46.10.903,HideSeek_v1,2022.2.5,60.47009453236554,
52,3,3,4,5,1,2,53,72,test_exp,untrained,,,,,,,,,,,,,,,,,,,,,0,51,51,51,0,0,0,0,,,,,,,,,,,,,,,,,,,,,,,,,,,,,,,stimuli/alien_stimuli/53.png,214.73773699998856,214.73773699998856,214.73773699998856,214.73773699998856,214.73773699998856,0,0,return,0.24690060003194958,1,0,0,0.08,-0.16,return,0.17422309995163232,,,,,,,,,,,,,,,,,,A,train_x,x_decreasing_steps,top_left,2024-10-23_13h46.10.903,HideSeek_v1,2022.2.5,60.47009453236554,
52,3,3,4,5,1,2,53,72,test_exp,untrained,,,,,,,,,,,,,,,,,,,,,0,51,51,51,,,,,,,,,,,,,,,,,,,,,,,,,,,,,,,,,,,,,,,,,,,,,,,,,,,,214.95745600003283,216.01618110004347,stimuli/alien_stimuli/53.png,53,3,52,,,,,,,,,,,,A,train_x,x_decreasing_steps,top_left,2024-10-23_13h46.10.903,HideSeek_v1,2022.2.5,60.47009453236554,
53,4,3,4,6,0,3,64,72,test_exp,train_1D_first_new,,,,,,,,,,,,,,,,,,,,,0,52,52,52,0,0,0,0,,,,,,,,,,,,,,,,,,,,,,,,,,,,,,,stimuli/alien_stimuli/64.png,216.01618110004347,216.01618110004347,216.01618110004347,216.01618110004347,216.01618110004347,0,0,return,0.14598809997551143,1,0,0,0.16,-0.16,return,0.05265299999155104,,,,,,,,,,,,,,,,,,A,train_x,x_decreasing_steps,top_left,2024-10-23_13h46.10.903,HideSeek_v1,2022.2.5,60.47009453236554,
53,4,3,4,6,0,3,64,72,test_exp,train_1D_first_new,,,,,,,,,,,,,,,,,,,,,0,52,52,52,,,,,,,,,,,,,,,,,,,,,,,,,,,,,,,,,,,,,,,,,,,,,,,,,,,,216.1068594000535,217.1603463999927,stimuli/alien_stimuli/64.png,64,4,53,,,,,,,,,,,,A,train_x,x_decreasing_steps,top_left,2024-10-23_13h46.10.903,HideSeek_v1,2022.2.5,60.47009453236554,
54,0,0,3,4,3,4,35,72,test_exp,untrained,,,,,,,,,,,,,,,,,,,,,0,53,53,53,0,0,0,0,,,,,,,,,,,,,,,,,,,,,,,,,,,,,,,stimuli/alien_stimuli/35.png,217.1603463999927,217.1603463999927,217.1603463999927,217.1603463999927,217.1603463999927,0,0,return,0.16296730004251003,1,0,0,-0.16,-0.4,return,0.0712305000051856,,,,,,,,,,,,,,,,,,A,train_x,x_decreasing_steps,top_left,2024-10-23_13h46.10.903,HideSeek_v1,2022.2.5,60.47009453236554,
54,0,0,3,4,3,4,35,72,test_exp,untrained,,,,,,,,,,,,,,,,,,,,,0,53,53,53,,,,,,,,,,,,,,,,,,,,,,,,,,,,,,,,,,,,,,,,,,,,,,,,,,,,217.27397009998094,218.32089710002765,stimuli/alien_stimuli/35.png,35,0,54,,,,,,,,,,,,A,train_x,x_decreasing_steps,top_left,2024-10-23_13h46.10.903,HideSeek_v1,2022.2.5,60.47009453236554,
55,3,2,5,6,2,4,45,72,test_exp,train_2D_new,,,,,,,,,,,,,,,,,,,,,0,54,54,54,0,0,0,0,,,,,,,,,,,,,,,,,,,,,,,,,,,,,,,stimuli/alien_stimuli/45.png,218.32089710002765,218.32089710002765,218.32089710002765,218.32089710002765,218.32089710002765,0,0,return,0.16288680001161993,1,0,0,0.08,-0.24,return,0.07144870003685355,,,,,,,,,,,,,,,,,,A,train_x,x_decreasing_steps,top_left,2024-10-23_13h46.10.903,HideSeek_v1,2022.2.5,60.47009453236554,
55,3,2,5,6,2,4,45,72,test_exp,train_2D_new,,,,,,,,,,,,,,,,,,,,,0,54,54,54,,,,,,,,,,,,,,,,,,,,,,,,,,,,,,,,,,,,,,,,,,,,,,,,,,,,218.4403025000356,219.47111479996238,stimuli/alien_stimuli/45.png,45,3,55,,,,,,,,,,,,A,train_x,x_decreasing_steps,top_left,2024-10-23_13h46.10.903,HideSeek_v1,2022.2.5,60.47009453236554,
56,0,3,2,8,2,5,46,72,test_exp,untrained,,,,,,,,,,,,,,,,,,,,,0,55,55,55,0,0,0,0,,,,,,,,,,,,,,,,,,,,,,,,,,,,,,,stimuli/alien_stimuli/46.png,219.47111479996238,219.47111479996238,219.47111479996238,219.47111479996238,219.47111479996238,0,0,return,0.19585230003576726,1,0,0,-0.16,-0.16,return,0.1267087000887841,,,,,,,,,,,,,,,,,,A,train_x,x_decreasing_steps,top_left,2024-10-23_13h46.10.903,HideSeek_v1,2022.2.5,60.47009453236554,
56,0,3,2,8,2,5,46,72,test_exp,untrained,,,,,,,,,,,,,,,,,,,,,0,55,55,55,,,,,,,,,,,,,,,,,,,,,,,,,,,,,,,,,,,,,,,,,,,,,,,,,,,,219.64058380003553,220.69213290000334,stimuli/alien_stimuli/46.png,46,0,56,,,,,,,,,,,,A,train_x,x_decreasing_steps,top_left,2024-10-23_13h46.10.903,HideSeek_v1,2022.2.5,60.47009453236554,
57,2,0,5,1,3,1,32,72,test_exp,untrained,,,,,,,,,,,,,,,,,,,,,0,56,56,56,0,0,0,0,,,,,,,,,,,,,,,,,,,,,,,,,,,,,,,stimuli/alien_stimuli/32.png,220.69213290000334,220.69213290000334,220.69213290000334,220.69213290000334,220.69213290000334,0,0,return,0.16292389994487166,1,0,0,0,-0.4,return,0.06608139991294593,,,,,,,,,,,,,,,,,,A,train_x,x_decreasing_steps,top_left,2024-10-23_13h46.10.903,HideSeek_v1,2022.2.5,60.47009453236554,
57,2,0,5,1,3,1,32,72,test_exp,untrained,,,,,,,,,,,,,,,,,,,,,0,56,56,56,,,,,,,,,,,,,,,,,,,,,,,,,,,,,,,,,,,,,,,,,,,,,,,,,,,,220.8068748000078,221.8593512000516,stimuli/alien_stimuli/32.png,32,2,57,,,,,,,,,,,,A,train_x,x_decreasing_steps,top_left,2024-10-23_13h46.10.903,HideSeek_v1,2022.2.5,60.47009453236554,
58,4,2,4,2,0,0,61,72,test_exp,untrained,,,,,,,,,,,,,,,,,,,,,0,57,57,57,0,0,0,0,,,,,,,,,,,,,,,,,,,,,,,,,,,,,,,stimuli/alien_stimuli/61.png,221.8593512000516,221.8593512000516,221.8593512000516,221.8593512000516,221.8593512000516,0,0,return,0.14653599995654076,2,0,1,0.16,-0.24,return,0.05765109998174012,,,,,,,,,,,,,,,,,,A,train_x,x_decreasing_steps,top_left,2024-10-23_13h46.10.903,HideSeek_v1,2022.2.5,60.47009453236554,
58,4,2,4,2,0,0,61,72,test_exp,untrained,,,,,,,,,,,,,,,,,,,,,0,57,57,57,,,,,,,,,,,,,,,,,,,,,,,,,,,,,,,,,,,,,,,,,,,,,,,,,,,,221.95701570005622,223.01092560007237,stimuli/alien_stimuli/61.png,61,4,58,,,,,,,,,,,,A,train_x,x_decreasing_steps,top_left,2024-10-23_13h46.10.903,HideSeek_v1,2022.2.5,60.47009453236554,
59,1,0,3,1,2,1,42,72,test_exp,untrained,,,,,,,,,,,,,,,,,,,,,0,58,58,58,0,0,0,0,,,,,,,,,,,,,,,,,,,,,,,,,,,,,,,stimuli/alien_stimuli/42.png,223.01092560007237,223.01092560007237,223.01092560007237,223.01092560007237,223.01092560007237,0,0,return,0.19723470008466393,2,0,0,-0.08,-0.4,return,0.10818859993014485,,,,,,,,,,,,,,,,,,A,train_x,x_decreasing_steps,top_left,2024-10-23_13h46.10.903,HideSeek_v1,2022.2.5,60.47009453236554,
59,1,0,3,1,2,1,42,72,test_exp,untrained,,,,,,,,,,,,,,,,,,,,,0,58,58,58,,,,,,,,,,,,,,,,,,,,,,,,,,,,,,,,,,,,,,,,,,,,,,,,,,,,223.1573387000244,224.210858299979,stimuli/alien_stimuli/42.png,42,1,59,,,,,,,,,,,,A,train_x,x_decreasing_steps,top_left,2024-10-23_13h46.10.903,HideSeek_v1,2022.2.5,60.47009453236554,
60,3,4,7,4,4,0,21,72,test_exp,train_1D_sec_new,,,,,,,,,,,,,,,,,,,,,0,59,59,59,0,0,0,0,,,,,,,,,,,,,,,,,,,,,,,,,,,,,,,stimuli/alien_stimuli/21.png,224.210858299979,224.210858299979,224.210858299979,224.210858299979,224.210858299979,0,0,return,0.213055600062944,2,0,0,0.08,-0.08,return,0.12794189993292093,,,,,,,,,,,,,,,,,,A,train_x,x_decreasing_steps,top_left,2024-10-23_13h46.10.903,HideSeek_v1,2022.2.5,60.47009453236554,
60,3,4,7,4,4,0,21,72,test_exp,train_1D_sec_new,,,,,,,,,,,,,,,,,,,,,0,59,59,59,,,,,,,,,,,,,,,,,,,,,,,,,,,,,,,,,,,,,,,,,,,,,,,,,,,,224.3736046999693,225.42947780003306,stimuli/alien_stimuli/21.png,21,3,60,,,,,,,,,,,,A,train_x,x_decreasing_steps,top_left,2024-10-23_13h46.10.903,HideSeek_v1,2022.2.5,60.47009453236554,
61,3,1,3,6,0,5,66,72,test_exp,train_1D_first_new,,,,,,,,,,,,,,,,,,,,,0,60,60,60,0,0,0,0,,,,,,,,,,,,,,,,,,,,,,,,,,,,,,,stimuli/alien_stimuli/66.png,225.42947780003306,225.42947780003306,225.42947780003306,225.42947780003306,225.42947780003306,0,0,return,0.22977940004784614,2,0,0,0.08,-0.32,return,0.13218229997437447,,,,,,,,,,,,,,,,,,A,train_x,x_decreasing_steps,top_left,2024-10-23_13h46.10.903,HideSeek_v1,2022.2.5,60.47009453236554,
61,3,1,3,6,0,5,66,72,test_exp,train_1D_first_new,,,,,,,,,,,,,,,,,,,,,0,60,60,60,,,,,,,,,,,,,,,,,,,,,,,,,,,,,,,,,,,,,,,,,,,,,,,,,,,,225.6071919000242,226.662909100065,stimuli/alien_stimuli/66.png,66,3,61,,,,,,,,,,,,A,train_x,x_decreasing_steps,top_left,2024-10-23_13h46.10.903,HideSeek_v1,2022.2.5,60.47009453236554,
62,2,4,6,6,4,2,23,72,test_exp,train_2D_repeat,,,,,,,,,,,,,,,,,,,,,0,61,61,61,0,0,0,0,,,,,,,,,,,,,,,,,,,,,,,,,,,,,,,stimuli/alien_stimuli/23.png,226.662909100065,226.662909100065,226.662909100065,226.662909100065,226.662909100065,0,0,return,0.14680970006156713,2,0,0,0,-0.08,return,0.05273330002091825,,,,,,,,,,,,,,,,,,A,train_x,x_decreasing_steps,top_left,2024-10-23_13h46.10.903,HideSeek_v1,2022.2.5,60.47009453236554,
62,2,4,6,6,4,2,23,72,test_exp,train_2D_repeat,,,,,,,,,,,,,,,,,,,,,0,61,61,61,,,,,,,,,,,,,,,,,,,,,,,,,,,,,,,,,,,,,,,,,,,,,,,,,,,,226.75654800003394,227.81317199999467,stimuli/alien_stimuli/23.png,23,2,62,,,,,,,,,,,,A,train_x,x_decreasing_steps,top_left,2024-10-23_13h46.10.903,HideSeek_v1,2022.2.5,60.47009453236554,
63,2,4,3,4,1,0,51,72,test_exp,train_1D_sec_repeat,,,,,,,,,,,,,,,,,,,,,0,62,62,62,0,0,0,0,,,,,,,,,,,,,,,,,,,,,,,,,,,,,,,stimuli/alien_stimuli/51.png,227.81317199999467,227.81317199999467,227.81317199999467,227.81317199999467,227.81317199999467,0,0,return,0.6626675999723375,2,0,0,0,-0.08,return,0.5778845999157056,,,,,,,,,,,,,,,,,,A,train_x,x_decreasing_steps,top_left,2024-10-23_13h46.10.903,HideSeek_v1,2022.2.5,60.47009453236554,
63,2,4,3,4,1,0,51,72,test_exp,train_1D_sec_repeat,,,,,,,,,,,,,,,,,,,,,0,62,62,62,,,,,,,,,,,,,,,,,,,,,,,,,,,,,,,,,,,,,,,,,,,,,,,,,,,,228.42351320001762,229.4552177999867,stimuli/alien_stimuli/51.png,51,2,63,,,,,,,,,,,,A,train_x,x_decreasing_steps,top_left,2024-10-23_13h46.10.903,HideSeek_v1,2022.2.5,60.47009453236554,
