trialInstr,x_fixStart,y_fixStart,x_corrSteps,y_corrSteps,x_nrSteps,y_nrSteps,alienID,trialLength,version,trialTrain,praclen,beforeExpLoop.thisRepN,beforeExpLoop.thisTrialN,beforeExpLoop.thisN,beforeExpLoop.thisIndex,mini_instr_trials.thisRepN,mini_instr_trials.thisTrialN,mini_instr_trials.thisN,mini_instr_trials.thisIndex,instrLoop.thisRepN,instrLoop.thisTrialN,instrLoop.thisN,instrLoop.thisIndex,repeat_prac.thisRepN,repeat_prac.thisTrialN,repeat_prac.thisN,repeat_prac.thisIndex,trainLoop.thisRepN,trainLoop.thisTrialN,trainLoop.thisN,trainLoop.thisIndex,moveLoop_train.thisRepN,moveLoop_train.thisTrialN,moveLoop_train.thisN,moveLoop_train.thisIndex,start_all_time,url,slideStim,audioStim,slides.started,sounds.started,nextButton.numClicks,nextButton.timesOn,nextButton.timesOff,prev_but.numClicks,prev_but.timesOn,prev_but.timesOff,alienStim,instrFile,alienStim_instr,gridImage_instr.started,startPos_3.started,key_instr.started,alienImage_3.started,sounds_1.started,key_instr.keys,key_instr.rt,all_x,all_y,FBy_corrSteps,FBy_fixStart,FBx_corrSteps,FBx_fixStart,FBy_pathSize_check,FBx_pathSize_check,gridImage_9.started,alienImageFB_3.started,startPosFB_3.started,keyFB_3.started,pathLine_ydir_2.started,pathLine_xdir_2.started,alienFace_3.started,sounds_2.started,RTFB_instr,keyFB_3.keys,keyFB_3.rt,draw_alienStim,draw_alienID,test_x,nrepcount,perfthres,percthres,earlierperf,earlystop,nextPrac,fileidx,praclen,saveACC_train,pracFile,nextPrac_train,addNrep,fileidx_endr,repExp,showearly,gridImage_4.started,startPos.started,movePos.started,key_resp.started,alienImage.started,buttonPress_train,RTchoice_train,cumAcctrain,aCorr,saveACC_choice,corrAns,x_movePos_end,y_movePos_end,key_resp.keys,key_resp.rt,wLy_dir,wLx_dir,x_movePos,y_movePos,text_2.started,text_2.stopped,aft_x_corrPos,aft_y_corrPos,y_pathSize_check,x_pathSize_check,y_pathdirY,x_pathdirY,x_pathdirX,x_corrPos,y_corrPos,gridImage_6.started,alienImageFB_2.started,startPosFB_2.started,movePosFB_2.started,keyFB_2.started,pathLine_xdir.started,pathLine_ydir.started,alienFace.started,sounds_4.started,RT_FBtrain,keyFB_2.keys,keyFB_2.rt,saveACC_pre,ACC,within_saveACC_train,earlystop_wloop,cumAcctrain_check,participant,train_first,direction of x,starting corner,date,expName,psychopyVersion,frameRate,
,,,,,,,,,,,,0,0,0,0,0,0,0,0,,,,,,,,,,,,,,,,,start_all_time,testround,conditions/schedules/train_x_first/x_increasing_steps/top_left/instructions/Slide1.png,conditions/schedules/train_x_first/x_increasing_steps/top_left/instructions/Audio1.wav,27.594330699997954,27.469906669505875,1,[3.6358805000199936],[3.6358907999820076],0,,,,,,,,,,,,,,,,,,,,,,,,,,,,,,,,,,,,,,,,,,,,,,,,,,,,,,,,,,,,,,,,,,,,,,,,,,,,,,,,,,,,,,,,,,,,,,,,,A,train_x,x_increasing_steps,top_left,2024-10-29_23h16.13.373,HideSeek_v1,2022.2.5,59.74429442025522,
,,,,,,,,,,,,0,0,0,0,1,0,1,0,,,,,,,,,,,,,,,,,,,conditions/schedules/train_x_first/x_increasing_steps/top_left/instructions/Slide2.png,conditions/schedules/train_x_first/x_increasing_steps/top_left/instructions/Audio2.wav,31.177146999980323,31.160894639999608,2,"[3.6358805000199936, 1.3205813000095077]","[0.15282900002785027, 1.3205890000099316]",0,,,,,,,,,,,,,,,,,,,,,,,,,,,,,,,,,,,,,,,,,,,,,,,,,,,,,,,,,,,,,,,,,,,,,,,,,,,,,,,,,,,,,,,,,,,,,,,,,A,train_x,x_increasing_steps,top_left,2024-10-29_23h16.13.373,HideSeek_v1,2022.2.5,59.74429442025522,
,,,,,,,,,,,,0,0,0,0,2,0,2,0,,,,,,,,,,,,,,,,,,,conditions/schedules/train_x_first/x_increasing_steps/top_left/instructions/Slide3.png,conditions/schedules/train_x_first/x_increasing_steps/top_left/instructions/Audio3.wav,32.5462537999847,32.544225439988075,3,"[3.6358805000199936, 1.3205813000095077, 0.41335970000363886]","[0.15282900002785027, 0.14610610000090674, 0.4133651999873109]",0,,,,,,,,,,,,,,,,,,,,,,,,,,,,,,,,,,,,,,,,,,,,,,,,,,,,,,,,,,,,,,,,,,,,,,,,,,,,,,,,,,,,,,,,,,,,,,,,,A,train_x,x_increasing_steps,top_left,2024-10-29_23h16.13.373,HideSeek_v1,2022.2.5,59.74429442025522,
,,,,,,,,,,,,0,0,0,0,3,0,3,0,,,,,,,,,,,,,,,,,,,conditions/schedules/train_x_first/x_increasing_steps/top_left/instructions/Slide4.png,conditions/schedules/train_x_first/x_increasing_steps/top_left/instructions/Audio4.wav,33.07713320001494,32.99439482997405,4,"[3.6358805000199936, 1.3205813000095077, 0.41335970000363886, 0.4367087999708019]","[0.15282900002785027, 0.14610610000090674, 0.15291840001009405, 0.43671529996208847]",0,,,,,,,,,,,,,,,,,,,,,,,,,,,,,,,,,,,,,,,,,,,,,,,,,,,,,,,,,,,,,,,,,,,,,,,,,,,,,,,,,,,,,,,,,,,,,,,,,A,train_x,x_increasing_steps,top_left,2024-10-29_23h16.13.373,HideSeek_v1,2022.2.5,59.74429442025522,
,,,,,,,,,,,,0,0,0,0,4,0,4,0,,,,,,,,,,,,,,,,,,,conditions/schedules/train_x_first/x_increasing_steps/top_left/instructions/Slide5.png,conditions/schedules/train_x_first/x_increasing_steps/top_left/instructions/Audio5.wav,33.481796899985056,33.47754353000783,5,"[3.6358805000199936, 1.3205813000095077, 0.41335970000363886, 0.4367087999708019, 0.3936929000192322]","[0.15282900002785027, 0.14610610000090674, 0.15291840001009405, 0.1596821999992244, 0.393699900014326]",0,,,,,,,,,,,,,,,,,,,,,,,,,,,,,,,,,,,,,,,,,,,,,,,,,,,,,,,,,,,,,,,,,,,,,,,,,,,,,,,,,,,,,,,,,,,,,,,,,A,train_x,x_increasing_steps,top_left,2024-10-29_23h16.13.373,HideSeek_v1,2022.2.5,59.74429442025522,
,,,,,,,,,,,,0,0,0,0,5,0,5,0,,,,,,,,,,,,,,,,,,,conditions/schedules/train_x_first/x_increasing_steps/top_left/instructions/Slide6.png,conditions/schedules/train_x_first/x_increasing_steps/top_left/instructions/Audio6.wav,33.91648950002855,33.91059683002532,6,"[3.6358805000199936, 1.3205813000095077, 0.41335970000363886, 0.4367087999708019, 0.3936929000192322, 0.35992720001377165]","[0.15282900002785027, 0.14610610000090674, 0.15291840001009405, 0.1596821999992244, 0.17551720002666116, 0.3599349000141956]",0,,,,,,,,,,,,,,,,,,,,,,,,,,,,,,,,,,,,,,,,,,,,,,,,,,,,,,,,,,,,,,,,,,,,,,,,,,,,,,,,,,,,,,,,,,,,,,,,,A,train_x,x_increasing_steps,top_left,2024-10-29_23h16.13.373,HideSeek_v1,2022.2.5,59.74429442025522,
,,,,,,,,,,,,0,0,0,0,6,0,6,0,,,,,,,,,,,,,,,,,,,conditions/schedules/train_x_first/x_increasing_steps/top_left/instructions/Slide7.png,conditions/schedules/train_x_first/x_increasing_steps/top_left/instructions/Audio7.wav,34.314997699984815,34.311036130017605,7,"[3.6358805000199936, 1.3205813000095077, 0.41335970000363886, 0.4367087999708019, 0.3936929000192322, 0.35992720001377165, 0.3771625999943353]","[0.15282900002785027, 0.14610610000090674, 0.15291840001009405, 0.1596821999992244, 0.17551720002666116, 0.1603781000012532, 0.3771691999863833]",0,,,,,,,,,,,,,,,,,,,,,,,,,,,,,,,,,,,,,,,,,,,,,,,,,,,,,,,,,,,,,,,,,,,,,,,,,,,,,,,,,,,,,,,,,,,,,,,,,A,train_x,x_increasing_steps,top_left,2024-10-29_23h16.13.373,HideSeek_v1,2022.2.5,59.74429442025522,
,,,,,,,,,,,,0,0,0,0,7,0,7,0,,,,,,,,,,,,,,,,,,,conditions/schedules/train_x_first/x_increasing_steps/top_left/instructions/Slide8.png,conditions/schedules/train_x_first/x_increasing_steps/top_left/instructions/Audio8.wav,34.73318179999478,34.72727593000746,8,"[3.6358805000199936, 1.3205813000095077, 0.41335970000363886, 0.4367087999708019, 0.3936929000192322, 0.35992720001377165, 0.3771625999943353, 0.3757622999837622]","[0.15282900002785027, 0.14610610000090674, 0.15291840001009405, 0.1596821999992244, 0.17551720002666116, 0.1603781000012532, 0.15898870001547039, 0.37577019998570904]",0,,,,,,,,,,,,,,,,,,,,,,,,,,,,,,,,,,,,,,,,,,,,,,,,,,,,,,,,,,,,,,,,,,,,,,,,,,,,,,,,,,,,,,,,,,,,,,,,,A,train_x,x_increasing_steps,top_left,2024-10-29_23h16.13.373,HideSeek_v1,2022.2.5,59.74429442025522,
,,,,,,,,,,,,0,0,0,0,8,0,8,0,,,,,,,,,,,,,,,,,,,conditions/schedules/train_x_first/x_increasing_steps/top_left/instructions/Slide9.png,conditions/schedules/train_x_first/x_increasing_steps/top_left/instructions/Audio9.wav,35.149256100005005,35.14375152998837,9,"[3.6358805000199936, 1.3205813000095077, 0.41335970000363886, 0.4367087999708019, 0.3936929000192322, 0.35992720001377165, 0.3771625999943353, 0.3757622999837622, 0.3935524999978952]","[0.15282900002785027, 0.14610610000090674, 0.15291840001009405, 0.1596821999992244, 0.17551720002666116, 0.1603781000012532, 0.15898870001547039, 0.17620459996396676, 0.39355939999222755]",0,,,,,,,,,,,,,,,,,,,,,,,,,,,,,,,,,,,,,,,,,,,,,,,,,,,,,,,,,,,,,,,,,,,,,,,,,,,,,,,,,,,,,,,,,,,,,,,,,A,train_x,x_increasing_steps,top_left,2024-10-29_23h16.13.373,HideSeek_v1,2022.2.5,59.74429442025522,
,,,,,,,,,,,,0,0,0,0,9,0,9,0,,,,,,,,,,,,,,,,,,,conditions/schedules/train_x_first/x_increasing_steps/top_left/instructions/Slide10.png,conditions/schedules/train_x_first/x_increasing_steps/top_left/instructions/Audio10.wav,35.57689500000561,35.56071232001996,10,"[3.6358805000199936, 1.3205813000095077, 0.41335970000363886, 0.4367087999708019, 0.3936929000192322, 0.35992720001377165, 0.3771625999943353, 0.3757622999837622, 0.3935524999978952, 0.788531799975317]","[0.15282900002785027, 0.14610610000090674, 0.15291840001009405, 0.1596821999992244, 0.17551720002666116, 0.1603781000012532, 0.15898870001547039, 0.17620459996396676, 0.1873151999898255, 0.7885391999734566]",0,,,,,,,,,,,,,,,,,,,,,,,,,,,,,,,,,,,,,,,,,,,,,,,,,,,,,,,,,,,,,,,,,,,,,,,,,,,,,,,,,,,,,,,,,,,,,,,,,A,train_x,x_increasing_steps,top_left,2024-10-29_23h16.13.373,HideSeek_v1,2022.2.5,59.74429442025522,
,,,,,,,,,,,,0,0,0,0,10,0,10,0,,,,,,,,,,,,,,,,,,,conditions/schedules/train_x_first/x_increasing_steps/top_left/instructions/Slide11.png,conditions/schedules/train_x_first/x_increasing_steps/top_left/instructions/Audio11.wav,36.41043210000498,36.39413312998368,11,"[3.6358805000199936, 1.3205813000095077, 0.41335970000363886, 0.4367087999708019, 0.3936929000192322, 0.35992720001377165, 0.3771625999943353, 0.3757622999837622, 0.3935524999978952, 0.788531799975317, 0.5081176999956369]","[0.15282900002785027, 0.14610610000090674, 0.15291840001009405, 0.1596821999992244, 0.17551720002666116, 0.1603781000012532, 0.15898870001547039, 0.17620459996396676, 0.1873151999898255, 0.15747999999439344, 0.5081241999869235]",0,,,,,,,,,,,,,,,,,,,,,,,,,,,,,,,,,,,,,,,,,,,,,,,,,,,,,,,,,,,,,,,,,,,,,,,,,,,,,,,,,,,,,,,,,,,,,,,,,A,train_x,x_increasing_steps,top_left,2024-10-29_23h16.13.373,HideSeek_v1,2022.2.5,59.74429442025522,
,,,,,,,,,,,,0,0,0,0,11,0,11,0,,,,,,,,,,,,,,,,,,,conditions/schedules/train_x_first/x_increasing_steps/top_left/instructions/Slide12.png,conditions/schedules/train_x_first/x_increasing_steps/top_left/instructions/Audio12.wav,36.960559999977704,36.944043129985225,12,"[3.6358805000199936, 1.3205813000095077, 0.41335970000363886, 0.4367087999708019, 0.3936929000192322, 0.35992720001377165, 0.3771625999943353, 0.3757622999837622, 0.3935524999978952, 0.788531799975317, 0.5081176999956369, 0.4727729999576695]","[0.15282900002785027, 0.14610610000090674, 0.15291840001009405, 0.1596821999992244, 0.17551720002666116, 0.1603781000012532, 0.15898870001547039, 0.17620459996396676, 0.1873151999898255, 0.15747999999439344, 0.1727623000042513, 0.47277990001020953]",0,,,,,,,,,,,,,,,,,,,,,,,,,,,,,,,,,,,,,,,,,,,,,,,,,,,,,,,,,,,,,,,,,,,,,,,,,,,,,,,,,,,,,,,,,,,,,,,,,A,train_x,x_increasing_steps,top_left,2024-10-29_23h16.13.373,HideSeek_v1,2022.2.5,59.74429442025522,
1,3,2,8,2,5,0,66,2,instr_dim1_1,,,0,0,0,0,,,,,0,0,0,0,,,,,,,,,,,,,,,,,,,,,,,,,stimuli/alien_stimuli/66.png,conditions/schedules/train_x_first/x_increasing_steps/top_left/inputInstr_1.xlsx,stimuli/alien_stimuli/66.png,37.49333090003347,37.49333090003347,37.49333090003347,37.49333090003347,37.47713993999641,return,1.3795522999716923,"[-0.16, -0.08, 0, 0.08, 0.16, 0.24, 0.32, 0.4, 0.48, 0.56]","[-0.4, -0.32, -0.24, -0.16, -0.08, 0, 0.08, 0.16, 0.24, 0.32]",2,2,8,3,0.0,0.4,38.99668009998277,38.99668009998277,38.99668009998277,38.99668009998277,38.99668009998277,38.99668009998277,38.99668009998277,38.977185660006946,0.3846344000194222,return,0.2632564000086859,stimuli/alien_stimuli/66.png,66,3,1,,,,,,,,,,,,,,,,,,,,,,,,,,,,,,,,,,,,,,,,,,,,,,,,,,,,,,,,,,,,,,A,train_x,x_increasing_steps,top_left,2024-10-29_23h16.13.373,HideSeek_v1,2022.2.5,59.74429442025522,
,,,,,,,,,,,30,0,0,0,0,,,,,,,,,,,,,,,,,,,,,,,,,,,,,,,,,,,,,,,,,,,,,,,,,,,,,,,,,,,,,,,,,,17,0.7,0,0,99,1,30,0,conditions/schedules/train_x_first/x_increasing_steps/top_left/inputTrain_1.1.xlsx,99,1,1,1,0,,,,,,,,,,,,,,,,,,,,,,,,,,,,,,,,,,,,,,,,,,,,,,,,A,train_x,x_increasing_steps,top_left,2024-10-29_23h16.13.373,HideSeek_v1,2022.2.5,59.74429442025522,
,,,,,,,,,,,,1,0,1,0,0,0,0,0,,,,,,,,,,,,,,,,,,,conditions/schedules/train_x_first/x_increasing_steps/top_left/instructions/Slide13.png,conditions/schedules/train_x_first/x_increasing_steps/top_left/instructions/Audio13.wav,39.37855480000144,39.37766326997662,13,"[3.6358805000199936, 1.3205813000095077, 0.41335970000363886, 0.4367087999708019, 0.3936929000192322, 0.35992720001377165, 0.3771625999943353, 0.3757622999837622, 0.3935524999978952, 0.788531799975317, 0.5081176999956369, 0.4727729999576695, 0.8147674000356346]","[0.15282900002785027, 0.14610610000090674, 0.15291840001009405, 0.1596821999992244, 0.17551720002666116, 0.1603781000012532, 0.15898870001547039, 0.17620459996396676, 0.1873151999898255, 0.15747999999439344, 0.1727623000042513, 0.47277990001020953, 0.8147742000292055]",0,,,,,,,,,,,,,,,,,,,,,,,,,,,,,,,,,,,,,,,,,,,,,,,,,,,,,,,,,,,,,,,,,,,,,,,,,,,,,,,,,,,,,,,,,,,,,,,,,A,train_x,x_increasing_steps,top_left,2024-10-29_23h16.13.373,HideSeek_v1,2022.2.5,59.74429442025522,
,,,,,,,,,,,,1,0,1,0,1,0,1,0,,,,,,,,,,,,,,,,,,,conditions/schedules/train_x_first/x_increasing_steps/top_left/instructions/Slide14.png,conditions/schedules/train_x_first/x_increasing_steps/top_left/instructions/Audio14.wav,40.236094399995636,40.22736632999732,14,"[3.6358805000199936, 1.3205813000095077, 0.41335970000363886, 0.4367087999708019, 0.3936929000192322, 0.35992720001377165, 0.3771625999943353, 0.3757622999837622, 0.3935524999978952, 0.788531799975317, 0.5081176999956369, 0.4727729999576695, 0.8147674000356346, 0.8065723999752663]","[0.15282900002785027, 0.14610610000090674, 0.15291840001009405, 0.1596821999992244, 0.17551720002666116, 0.1603781000012532, 0.15898870001547039, 0.17620459996396676, 0.1873151999898255, 0.15747999999439344, 0.1727623000042513, 0.47277990001020953, 0.0561516999732703, 0.8065779999596998]",0,,,,,,,,,,,,,,,,,,,,,,,,,,,,,,,,,,,,,,,,,,,,,,,,,,,,,,,,,,,,,,,,,,,,,,,,,,,,,,,,,,,,,,,,,,,,,,,,,A,train_x,x_increasing_steps,top_left,2024-10-29_23h16.13.373,HideSeek_v1,2022.2.5,59.74429442025522,
2,4,0,4,0,0,0,16,2,instr_dim1_1,,,1,0,1,0,,,,,0,0,0,0,,,,,,,,,,,,,,,,,,,,,,,,,stimuli/alien_stimuli/16.png,conditions/schedules/train_x_first/x_increasing_steps/top_left/inputInstr_1.xlsx,stimuli/alien_stimuli/16.png,41.17725509998854,41.17725509998854,41.17725509998854,41.17725509998854,41.09390114000998,return,0.5511355999624357,"[-0.16, -0.08, 0, 0.08, 0.16, 0.24, 0.32, 0.4, 0.48, 0.56]","[-0.4, -0.32, -0.24, -0.16, -0.08, 0, 0.08, 0.16, 0.24, 0.32]",0,0,4,4,0.0,0.0,41.89415670000017,41.89415670000017,41.89415670000017,41.89415670000017,41.89415670000017,41.89415670000017,41.89415670000017,41.84396186001832,0.5007307000341825,return,0.33807310002157465,stimuli/alien_stimuli/16.png,16,4,2,,,,,,,,,,,,,,,,,,,,,,,,,,,,,,,,,,,,,,,,,,,,,,,,,,,,,,,,,,,,,,A,train_x,x_increasing_steps,top_left,2024-10-29_23h16.13.373,HideSeek_v1,2022.2.5,59.74429442025522,
,,,,,,,,,,,30,1,0,1,0,,,,,,,,,,,,,,,,,,,,,,,,,,,,,,,,,,,,,,,,,,,,,,,,,,,,,,,,,,,,,,,,,,17,0.7,0,0,99,1,30,0,conditions/schedules/train_x_first/x_increasing_steps/top_left/inputTrain_1.1.xlsx,99,1,1,1,0,,,,,,,,,,,,,,,,,,,,,,,,,,,,,,,,,,,,,,,,,,,,,,,,A,train_x,x_increasing_steps,top_left,2024-10-29_23h16.13.373,HideSeek_v1,2022.2.5,59.74429442025522,
,,,,,,,,,,,,2,0,2,0,0,0,0,0,,,,,,,,,,,,,,,,,,,conditions/schedules/train_x_first/x_increasing_steps/top_left/instructions/Slide15.png,conditions/schedules/train_x_first/x_increasing_steps/top_left/instructions/Audio15.wav,42.37937440001406,42.37724847999635,15,"[3.6358805000199936, 1.3205813000095077, 0.41335970000363886, 0.4367087999708019, 0.3936929000192322, 0.35992720001377165, 0.3771625999943353, 0.3757622999837622, 0.3935524999978952, 0.788531799975317, 0.5081176999956369, 0.4727729999576695, 0.8147674000356346, 0.8065723999752663, 1.032067799998913]","[0.15282900002785027, 0.14610610000090674, 0.15291840001009405, 0.1596821999992244, 0.17551720002666116, 0.1603781000012532, 0.15898870001547039, 0.17620459996396676, 0.1873151999898255, 0.15747999999439344, 0.1727623000042513, 0.47277990001020953, 0.0561516999732703, 0.8065779999596998, 1.0320769000099972]",0,,,,,,,,,,,,,,,,,,,,,,,,,,,,,,,,,,,,,,,,,,,,,,,,,,,,,,,,,,,,,,,,,,,,,,,,,,,,,,,,,,,,,,,,,,,,,,,,,A,train_x,x_increasing_steps,top_left,2024-10-29_23h16.13.373,HideSeek_v1,2022.2.5,59.74429442025522,
,,,,,,,,,,,,2,0,2,0,1,0,1,0,,,,,,,,,,,,,,,,,,,conditions/schedules/train_x_first/x_increasing_steps/top_left/instructions/Slide16.png,conditions/schedules/train_x_first/x_increasing_steps/top_left/instructions/Audio16.wav,43.45246479997877,43.44384282997344,16,"[3.6358805000199936, 1.3205813000095077, 0.41335970000363886, 0.4367087999708019, 0.3936929000192322, 0.35992720001377165, 0.3771625999943353, 0.3757622999837622, 0.3935524999978952, 0.788531799975317, 0.5081176999956369, 0.4727729999576695, 0.8147674000356346, 0.8065723999752663, 1.032067799998913, 0.6738818999729119]","[0.15282900002785027, 0.14610610000090674, 0.15291840001009405, 0.1596821999992244, 0.17551720002666116, 0.1603781000012532, 0.15898870001547039, 0.17620459996396676, 0.1873151999898255, 0.15747999999439344, 0.1727623000042513, 0.47277990001020953, 0.0561516999732703, 0.8065779999596998, 0.10651979997055605, 0.6738876999588683]",0,,,,,,,,,,,,,,,,,,,,,,,,,,,,,,,,,,,,,,,,,,,,,,,,,,,,,,,,,,,,,,,,,,,,,,,,,,,,,,,,,,,,,,,,,,,,,,,,,A,train_x,x_increasing_steps,top_left,2024-10-29_23h16.13.373,HideSeek_v1,2022.2.5,59.74429442025522,
,2,1,4,1,2,0,36,,train_dim1_1,1,30,2,0,2,0,,,,,,,,,0,0,0,0,0,0,0,0,0,0,0,0,,,,,,,,,,,,,stimuli/alien_stimuli/36.png,,,,,,,,,,,,,,,,,,,,,,,,,,,,,,,,,,,,,,,30,,,,,,,,44.19348539999919,44.19348539999919,44.19348539999919,44.19348539999919,44.19348539999919,right,1.221580300014466,0,0,0,99,0.08,-0.32,right,1.146482699958142,,,,,,,,,,,,,,,,,,,,,,,,,,,,,,,,,A,train_x,x_increasing_steps,top_left,2024-10-29_23h16.13.373,HideSeek_v1,2022.2.5,59.74429442025522,
,2,1,4,1,2,0,36,,train_dim1_1,1,30,2,0,2,0,,,,,,,,,0,0,0,0,0,0,0,0,1,0,1,0,,,,,,,,,,,,,,,,,,,,,,,,,,,,,,,,,,,,,,,,,,,,,,,,,,,,30,,,,,,,,45.41359609999927,45.41359609999927,45.41359609999927,45.41359609999927,45.41359609999927,right,0.17759769997792318,0,0,0,99,0.16,-0.32,right,0.10046029998920858,,,,,,,,,,,,,,,,,,,,,,,,,,,,,,,,,A,train_x,x_increasing_steps,top_left,2024-10-29_23h16.13.373,HideSeek_v1,2022.2.5,59.74429442025522,
,2,1,4,1,2,0,36,,train_dim1_1,1,30,2,0,2,0,,,,,,,,,0,0,0,0,0,0,0,0,2,0,2,0,,,,,,,,,,,,,,,,,,,,,,,,,,,,,,,,,,,,,,,,,,,,,,,,,,,,30,,,,,,,,45.59531320002861,45.59531320002861,45.59531320002861,45.59531320002861,45.59531320002861,return,0.31093480001436546,1,0,0,1,0.16,-0.32,return,0.2470162999816239,0,2,0.16,-0.32,,,,,,,,,,,,,,,,,,,,,,,,,,,,,A,train_x,x_increasing_steps,top_left,2024-10-29_23h16.13.373,HideSeek_v1,2022.2.5,59.74429442025522,
,2,4,2,4,0,0,16,,train_dim1_1,2,30,2,0,2,0,,,,,,,,,0,0,0,0,0,1,1,1,0,0,0,0,,,,,,,,,,,,,stimuli/alien_stimuli/16.png,,,,,,,,,,,,,,,,,,,,,,,,,,,,,stimuli/alien_stimuli/36.png,36,2,3,,,,,,,30,,,,,,,,49.53901040001074,49.53901040001074,49.53901040001074,49.53901040001074,49.53901040001074,return,1.091637899982743,2,0,0,1,0,-0.08,return,0.9892457000096329,0,2,0,-0.08,47.97682610002812,49.53901040001074,0.16,-0.32,0.0,0.16,-0.32,0.16,0.08,0.16,-0.32,47.457748399989214,47.457748399989214,47.457748399989214,47.457748399989214,47.457748399989214,47.457748399989214,47.457748399989214,47.457748399989214,47.44394224998541,0.6020225000102073,return,0.5007859999896027,,,,,,A,train_x,x_increasing_steps,top_left,2024-10-29_23h16.13.373,HideSeek_v1,2022.2.5,59.74429442025522,
,4,4,5,4,1,0,26,,train_dim1_1,3,30,2,0,2,0,,,,,,,,,0,0,0,0,0,2,2,2,0,0,0,0,,,,,,,,,,,,,stimuli/alien_stimuli/26.png,,,,,,,,,,,,,,,,,,,,,,,,,,,,,stimuli/alien_stimuli/16.png,16,2,4,,,,,,,30,,,,,,,,54.15180480002891,54.15180480002891,54.15180480002891,54.15180480002891,54.15180480002891,right,0.9583518000436015,2,0,0,99,0.24,-0.08,right,0.8199767000041902,,,,,52.54363590001594,54.15180480002891,0,-0.08,0.0,0.0,-0.08,0,0.0,0,-0.08,52.2513758999994,52.2513758999994,52.2513758999994,52.2513758999994,52.2513758999994,52.2513758999994,52.2513758999994,52.2513758999994,52.143934149993584,0.46870209998451173,return,0.2725533999619074,,,,,,A,train_x,x_increasing_steps,top_left,2024-10-29_23h16.13.373,HideSeek_v1,2022.2.5,59.74429442025522,
,4,4,5,4,1,0,26,,train_dim1_1,3,30,2,0,2,0,,,,,,,,,0,0,0,0,0,2,2,2,1,0,1,0,,,,,,,,,,,,,,,,,,,,,,,,,,,,,,,,,,,,,,,,,,,,,,,,,,,,30,,,,,,,,55.05108750000363,55.05108750000363,55.05108750000363,55.05108750000363,55.05108750000363,return,0.27743840002221987,3,0,0,1,0.24,-0.08,return,0.1960331000154838,0,3,0.24,-0.08,,,,,,,,,,,,,,,,,,,,,,,,,,,,,A,train_x,x_increasing_steps,top_left,2024-10-29_23h16.13.373,HideSeek_v1,2022.2.5,59.74429442025522,
,2,3,5,3,3,0,46,,train_dim1_1,4,30,2,0,2,0,,,,,,,,,0,0,0,0,0,3,3,3,0,0,0,0,,,,,,,,,,,,,stimuli/alien_stimuli/46.png,,,,,,,,,,,,,,,,,,,,,,,,,,,,,stimuli/alien_stimuli/26.png,26,4,5,,,,,,,30,,,,,,,,58.82748089998495,58.82748089998495,58.82748089998495,58.82748089998495,58.82748089998495,right,0.9413592999917455,3,0,0,99,0.08,-0.16,right,0.8416327000013553,,,,,57.26050360000227,58.82748089998495,0.24,-0.08,0.0,0.08,-0.08,0.24,0.2,0.24,-0.08,56.91465649998281,56.91465649998281,56.91465649998281,56.91465649998281,56.91465649998281,56.91465649998281,56.91465649998281,56.91465649998281,56.86033424997004,0.46868270001141354,return,0.32100270001683384,,,,,,A,train_x,x_increasing_steps,top_left,2024-10-29_23h16.13.373,HideSeek_v1,2022.2.5,59.74429442025522,
,2,3,5,3,3,0,46,,train_dim1_1,4,30,2,0,2,0,,,,,,,,,0,0,0,0,0,3,3,3,1,0,1,0,,,,,,,,,,,,,,,,,,,,,,,,,,,,,,,,,,,,,,,,,,,,,,,,,,,,30,,,,,,,,59.74694969999837,59.74694969999837,59.74694969999837,59.74694969999837,59.74694969999837,right,0.26037400000495836,3,0,0,99,0.16,-0.16,right,0.1820880000013858,,,,,,,,,,,,,,,,,,,,,,,,,,,,,,,,,A,train_x,x_increasing_steps,top_left,2024-10-29_23h16.13.373,HideSeek_v1,2022.2.5,59.74429442025522,
,2,3,5,3,3,0,46,,train_dim1_1,4,30,2,0,2,0,,,,,,,,,0,0,0,0,0,3,3,3,2,0,2,0,,,,,,,,,,,,,,,,,,,,,,,,,,,,,,,,,,,,,,,,,,,,,,,,,,,,30,,,,,,,,60.013260299980175,60.013260299980175,60.013260299980175,60.013260299980175,60.013260299980175,right,0.1780358999967575,3,0,0,99,0.24,-0.16,right,0.10354060004465282,,,,,,,,,,,,,,,,,,,,,,,,,,,,,,,,,A,train_x,x_increasing_steps,top_left,2024-10-29_23h16.13.373,HideSeek_v1,2022.2.5,59.74429442025522,
,2,3,5,3,3,0,46,,train_dim1_1,4,30,2,0,2,0,,,,,,,,,0,0,0,0,0,3,3,3,3,0,3,0,,,,,,,,,,,,,,,,,,,,,,,,,,,,,,,,,,,,,,,,,,,,,,,,,,,,30,,,,,,,,60.19384969997918,60.19384969997918,60.19384969997918,60.19384969997918,60.19384969997918,return,0.27750080003170297,4,0,0,1,0.24,-0.16,return,0.20969579997472465,0,6,0.24,-0.16,,,,,,,,,,,,,,,,,,,,,,,,,,,,,A,train_x,x_increasing_steps,top_left,2024-10-29_23h16.13.373,HideSeek_v1,2022.2.5,59.74429442025522,
,0,2,5,2,5,0,66,,train_dim1_1,5,30,2,0,2,0,,,,,,,,,0,0,0,0,0,4,4,4,0,0,0,0,,,,,,,,,,,,,stimuli/alien_stimuli/66.png,,,,,,,,,,,,,,,,,,,,,,,,,,,,,stimuli/alien_stimuli/46.png,46,2,6,,,,,,,30,,,,,,,,64.52813039999455,64.52813039999455,64.52813039999455,64.52813039999455,64.52813039999455,right,0.7922262999927625,4,0,0,99,-0.08,-0.24,right,0.6932903000270016,,,,,62.96042120002676,64.52813039999455,0.24,-0.16,0.0,0.24,-0.16,0.24,0.12,0.24,-0.16,62.09402980003506,62.09402980003506,62.09402980003506,62.09402980003506,62.09402980003506,62.09402980003506,62.09402980003506,62.09402980003506,62.010300649970304,1.0188932999735698,return,0.8486763999680988,,,,,,A,train_x,x_increasing_steps,top_left,2024-10-29_23h16.13.373,HideSeek_v1,2022.2.5,59.74429442025522,
,0,2,5,2,5,0,66,,train_dim1_1,5,30,2,0,2,0,,,,,,,,,0,0,0,0,0,4,4,4,1,0,1,0,,,,,,,,,,,,,,,,,,,,,,,,,,,,,,,,,,,,,,,,,,,,,,,,,,,,30,,,,,,,,65.30437660001917,65.30437660001917,65.30437660001917,65.30437660001917,65.30437660001917,right,0.27688990003662184,4,0,0,99,0.0,-0.24,right,0.20044109999435022,,,,,,,,,,,,,,,,,,,,,,,,,,,,,,,,,A,train_x,x_increasing_steps,top_left,2024-10-29_23h16.13.373,HideSeek_v1,2022.2.5,59.74429442025522,
,0,2,5,2,5,0,66,,train_dim1_1,5,30,2,0,2,0,,,,,,,,,0,0,0,0,0,4,4,4,2,0,2,0,,,,,,,,,,,,,,,,,,,,,,,,,,,,,,,,,,,,,,,,,,,,,,,,,,,,30,,,,,,,,65.58452209999086,65.58452209999086,65.58452209999086,65.58452209999086,65.58452209999086,right,0.24481080000987276,4,0,0,99,0.08,-0.24,right,0.17271999997319654,,,,,,,,,,,,,,,,,,,,,,,,,,,,,,,,,A,train_x,x_increasing_steps,top_left,2024-10-29_23h16.13.373,HideSeek_v1,2022.2.5,59.74429442025522,
,0,2,5,2,5,0,66,,train_dim1_1,5,30,2,0,2,0,,,,,,,,,0,0,0,0,0,4,4,4,3,0,3,0,,,,,,,,,,,,,,,,,,,,,,,,,,,,,,,,,,,,,,,,,,,,,,,,,,,,30,,,,,,,,65.83377989998553,65.83377989998553,65.83377989998553,65.83377989998553,65.83377989998553,right,0.2440873999730684,4,0,0,99,0.16,-0.24,right,0.16088929999386892,,,,,,,,,,,,,,,,,,,,,,,,,,,,,,,,,A,train_x,x_increasing_steps,top_left,2024-10-29_23h16.13.373,HideSeek_v1,2022.2.5,59.74429442025522,
,0,2,5,2,5,0,66,,train_dim1_1,5,30,2,0,2,0,,,,,,,,,0,0,0,0,0,4,4,4,4,0,4,0,,,,,,,,,,,,,,,,,,,,,,,,,,,,,,,,,,,,,,,,,,,,,,,,,,,,30,,,,,,,,66.0869794000173,66.0869794000173,66.0869794000173,66.0869794000173,66.0869794000173,right,0.25964720000047237,4,0,0,99,0.24,-0.24,right,0.17751959996530786,,,,,,,,,,,,,,,,,,,,,,,,,,,,,,,,,A,train_x,x_increasing_steps,top_left,2024-10-29_23h16.13.373,HideSeek_v1,2022.2.5,59.74429442025522,
,0,2,5,2,5,0,66,,train_dim1_1,5,30,2,0,2,0,,,,,,,,,0,0,0,0,0,4,4,4,5,0,5,0,,,,,,,,,,,,,,,,,,,,,,,,,,,,,,,,,,,,,,,,,,,,,,,,,,,,30,,,,,,,,66.36029450001661,66.36029450001661,66.36029450001661,66.36029450001661,66.36029450001661,return,1.0945094000198878,5,0,0,1,0.24,-0.24,return,1.016449199989438,0,11,0.24,-0.24,,,,,,,,,,,,,,,,,,,,,,,,,,,,,A,train_x,x_increasing_steps,top_left,2024-10-29_23h16.13.373,HideSeek_v1,2022.2.5,59.74429442025522,
,0,0,1,0,1,0,26,,train_dim1_1,6,30,2,0,2,0,,,,,,,,,0,0,0,0,0,5,5,5,0,0,0,0,,,,,,,,,,,,,stimuli/alien_stimuli/26.png,,,,,,,,,,,,,,,,,,,,,,,,,,,,,stimuli/alien_stimuli/66.png,66,0,7,,,,,,,30,,,,,,,,71.4100705999881,71.4100705999881,71.4100705999881,71.4100705999881,71.4100705999881,right,0.7415248999604955,5,0,0,99,-0.08,-0.4,right,0.6134718999965116,,,,,69.81004319997737,71.4100705999881,0.24,-0.24,0.0,0.4,-0.24,0.24,0.039999999999999994,0.24,-0.24,69.11033950001001,69.11033950001001,69.11033950001001,69.11033950001001,69.11033950001001,69.11033950001001,69.11033950001001,69.11033950001001,68.97681454999838,0.902085299952887,return,0.6734039000002667,,,,,,A,train_x,x_increasing_steps,top_left,2024-10-29_23h16.13.373,HideSeek_v1,2022.2.5,59.74429442025522,
,0,0,1,0,1,0,26,,train_dim1_1,6,30,2,0,2,0,,,,,,,,,0,0,0,0,0,5,5,5,1,0,1,0,,,,,,,,,,,,,,,,,,,,,,,,,,,,,,,,,,,,,,,,,,,,,,,,,,,,30,,,,,,,,72.11097620002693,72.11097620002693,72.11097620002693,72.11097620002693,72.11097620002693,return,0.7940840999945067,6,0,0,1,-0.08,-0.4,return,0.7092564000049606,0,12,-0.08,-0.4,,,,,,,,,,,,,,,,,,,,,,,,,,,,,A,train_x,x_increasing_steps,top_left,2024-10-29_23h16.13.373,HideSeek_v1,2022.2.5,59.74429442025522,
,3,0,8,0,5,0,66,,train_dim1_1,7,30,2,0,2,0,,,,,,,,,0,0,0,0,0,6,6,6,0,0,0,0,,,,,,,,,,,,,stimuli/alien_stimuli/66.png,,,,,,,,,,,,,,,,,,,,,,,,,,,,,stimuli/alien_stimuli/26.png,26,0,8,,,,,,,30,,,,,,,,76.70617309998488,76.70617309998488,76.70617309998488,76.70617309998488,76.70617309998488,right,0.7417382000130601,6,0,0,99,0.16,-0.4,right,0.6389835000154562,,,,,75.14343410002766,76.70617309998488,-0.08,-0.4,0.0,0.08,-0.4,-0.08,-0.12,-0.08,-0.4,74.50641480000922,74.50641480000922,74.50641480000922,74.50641480000922,74.50641480000922,74.50641480000922,74.50641480000922,74.50641480000922,74.42715745000169,0.7846766999573447,return,0.6186277000233531,,,,,,A,train_x,x_increasing_steps,top_left,2024-10-29_23h16.13.373,HideSeek_v1,2022.2.5,59.74429442025522,
,3,0,8,0,5,0,66,,train_dim1_1,7,30,2,0,2,0,,,,,,,,,0,0,0,0,0,6,6,6,1,0,1,0,,,,,,,,,,,,,,,,,,,,,,,,,,,,,,,,,,,,,,,,,,,,,,,,,,,,30,,,,,,,,77.43342800001847,77.43342800001847,77.43342800001847,77.43342800001847,77.43342800001847,right,0.31073580001248047,6,0,0,99,0.24,-0.4,right,0.23664239997742698,,,,,,,,,,,,,,,,,,,,,,,,,,,,,,,,,A,train_x,x_increasing_steps,top_left,2024-10-29_23h16.13.373,HideSeek_v1,2022.2.5,59.74429442025522,
,3,0,8,0,5,0,66,,train_dim1_1,7,30,2,0,2,0,,,,,,,,,0,0,0,0,0,6,6,6,2,0,2,0,,,,,,,,,,,,,,,,,,,,,,,,,,,,,,,,,,,,,,,,,,,,,,,,,,,,30,,,,,,,,77.75010360003216,77.75010360003216,77.75010360003216,77.75010360003216,77.75010360003216,right,0.21051760000409558,6,0,0,99,0.32,-0.4,right,0.14373160002287477,,,,,,,,,,,,,,,,,,,,,,,,,,,,,,,,,A,train_x,x_increasing_steps,top_left,2024-10-29_23h16.13.373,HideSeek_v1,2022.2.5,59.74429442025522,
,3,0,8,0,5,0,66,,train_dim1_1,7,30,2,0,2,0,,,,,,,,,0,0,0,0,0,6,6,6,3,0,3,0,,,,,,,,,,,,,,,,,,,,,,,,,,,,,,,,,,,,,,,,,,,,,,,,,,,,30,,,,,,,,77.96550230000867,77.96550230000867,77.96550230000867,77.96550230000867,77.96550230000867,right,0.29407579998951405,6,0,0,99,0.4,-0.4,right,0.22620770003413782,,,,,,,,,,,,,,,,,,,,,,,,,,,,,,,,,A,train_x,x_increasing_steps,top_left,2024-10-29_23h16.13.373,HideSeek_v1,2022.2.5,59.74429442025522,
,3,0,8,0,5,0,66,,train_dim1_1,7,30,2,0,2,0,,,,,,,,,0,0,0,0,0,6,6,6,4,0,4,0,,,,,,,,,,,,,,,,,,,,,,,,,,,,,,,,,,,,,,,,,,,,,,,,,,,,30,,,,,,,,78.2670255000121,78.2670255000121,78.2670255000121,78.2670255000121,78.2670255000121,right,0.27686349995201454,6,0,0,99,0.48000000000000004,-0.4,right,0.20426510000834242,,,,,,,,,,,,,,,,,,,,,,,,,,,,,,,,,A,train_x,x_increasing_steps,top_left,2024-10-29_23h16.13.373,HideSeek_v1,2022.2.5,59.74429442025522,
,3,0,8,0,5,0,66,,train_dim1_1,7,30,2,0,2,0,,,,,,,,,0,0,0,0,0,6,6,6,5,0,5,0,,,,,,,,,,,,,,,,,,,,,,,,,,,,,,,,,,,,,,,,,,,,,,,,,,,,30,,,,,,,,78.54744460002985,78.54744460002985,78.54744460002985,78.54744460002985,78.54744460002985,return,0.34504710003966466,7,0,0,1,0.48000000000000004,-0.4,return,0.27946530003100634,0,17,0.48000000000000004,-0.4,,,,,,,,,,,,,,,,,,,,,,,,,,,,,A,train_x,x_increasing_steps,top_left,2024-10-29_23h16.13.373,HideSeek_v1,2022.2.5,59.74429442025522,
,0,4,2,4,2,0,36,,train_dim1_1,8,30,2,0,2,0,,,,,,,,,0,0,0,0,0,7,7,7,0,0,0,0,,,,,,,,,,,,,stimuli/alien_stimuli/36.png,,,,,,,,,,,,,,,,,,,,,,,,,,,,,stimuli/alien_stimuli/66.png,66,3,9,,,,,,,30,,,,,,,,82.81707140000071,82.81707140000071,82.81707140000071,82.81707140000071,82.81707140000071,right,1.3758039000094868,7,0,0,99,-0.08,-0.08,right,1.2895833000075072,,,,,81.26005089998944,82.81707140000071,0.48,-0.4,0.0,0.4,-0.4,0.48,0.27999999999999997,0.48,-0.4,80.5040998000186,80.5040998000186,80.5040998000186,80.5040998000186,80.5040998000186,80.5040998000186,80.5040998000186,80.5040998000186,80.44375766001176,0.9015014000469819,return,0.7290693999966606,,,,,,A,train_x,x_increasing_steps,top_left,2024-10-29_23h16.13.373,HideSeek_v1,2022.2.5,59.74429442025522,
,0,4,2,4,2,0,36,,train_dim1_1,8,30,2,0,2,0,,,,,,,,,0,0,0,0,0,7,7,7,1,0,1,0,,,,,,,,,,,,,,,,,,,,,,,,,,,,,,,,,,,,,,,,,,,,,,,,,,,,30,,,,,,,,84.17943120002747,84.17943120002747,84.17943120002747,84.17943120002747,84.17943120002747,right,0.5436083000386134,7,0,0,99,0.0,-0.08,right,0.4766358000342734,,,,,,,,,,,,,,,,,,,,,,,,,,,,,,,,,A,train_x,x_increasing_steps,top_left,2024-10-29_23h16.13.373,HideSeek_v1,2022.2.5,59.74429442025522,
,0,4,2,4,2,0,36,,train_dim1_1,8,30,2,0,2,0,,,,,,,,,0,0,0,0,0,7,7,7,2,0,2,0,,,,,,,,,,,,,,,,,,,,,,,,,,,,,,,,,,,,,,,,,,,,,,,,,,,,30,,,,,,,,84.73048889997881,84.73048889997881,84.73048889997881,84.73048889997881,84.73048889997881,return,0.31150890002027154,8,0,0,1,0.0,-0.08,return,0.23474350001197308,0,19,0.0,-0.08,,,,,,,,,,,,,,,,,,,,,,,,,,,,,A,train_x,x_increasing_steps,top_left,2024-10-29_23h16.13.373,HideSeek_v1,2022.2.5,59.74429442025522,
,1,0,4,0,3,0,46,,train_dim1_1,9,30,2,0,2,0,,,,,,,,,0,0,0,0,0,8,8,8,0,0,0,0,,,,,,,,,,,,,stimuli/alien_stimuli/46.png,,,,,,,,,,,,,,,,,,,,,,,,,,,,,stimuli/alien_stimuli/36.png,36,0,10,,,,,,,30,,,,,,,,88.67762580001727,88.67762580001727,88.67762580001727,88.67762580001727,88.67762580001727,right,0.7242009000037797,8,0,0,99,0.0,-0.4,right,0.6231905000167899,,,,,87.11035049997736,88.67762580001727,0,-0.08,0.0,0.16,-0.08,0,-0.08,0,-0.08,86.62450909998734,86.62450909998734,86.62450909998734,86.62450909998734,86.62450909998734,86.62450909998734,86.62450909998734,86.62450909998734,86.57678985001985,0.6022386000258848,return,0.46129910001764074,,,,,,A,train_x,x_increasing_steps,top_left,2024-10-29_23h16.13.373,HideSeek_v1,2022.2.5,59.74429442025522,
,1,0,4,0,3,0,46,,train_dim1_1,9,30,2,0,2,0,,,,,,,,,0,0,0,0,0,8,8,8,1,0,1,0,,,,,,,,,,,,,,,,,,,,,,,,,,,,,,,,,,,,,,,,,,,,,,,,,,,,30,,,,,,,,89.3744796999963,89.3744796999963,89.3744796999963,89.3744796999963,89.3744796999963,right,0.3606673999456689,8,0,0,99,0.08,-0.4,right,0.3027625999529846,,,,,,,,,,,,,,,,,,,,,,,,,,,,,,,,,A,train_x,x_increasing_steps,top_left,2024-10-29_23h16.13.373,HideSeek_v1,2022.2.5,59.74429442025522,
,1,0,4,0,3,0,46,,train_dim1_1,9,30,2,0,2,0,,,,,,,,,0,0,0,0,0,8,8,8,2,0,2,0,,,,,,,,,,,,,,,,,,,,,,,,,,,,,,,,,,,,,,,,,,,,,,,,,,,,30,,,,,,,,89.7425077999942,89.7425077999942,89.7425077999942,89.7425077999942,89.7425077999942,right,0.31093420000979677,8,0,0,99,0.16,-0.4,right,0.23767270002281293,,,,,,,,,,,,,,,,,,,,,,,,,,,,,,,,,A,train_x,x_increasing_steps,top_left,2024-10-29_23h16.13.373,HideSeek_v1,2022.2.5,59.74429442025522,
,1,0,4,0,3,0,46,,train_dim1_1,9,30,2,0,2,0,,,,,,,,,0,0,0,0,0,8,8,8,3,0,3,0,,,,,,,,,,,,,,,,,,,,,,,,,,,,,,,,,,,,,,,,,,,,,,,,,,,,30,,,,,,,,90.05942910001613,90.05942910001613,90.05942910001613,90.05942910001613,90.05942910001613,return,0.3280825999681838,9,0,0,1,0.16,-0.4,return,0.26335680001648143,0,22,0.16,-0.4,,,,,,,,,,,,,,,,,,,,,,,,,,,,,A,train_x,x_increasing_steps,top_left,2024-10-29_23h16.13.373,HideSeek_v1,2022.2.5,59.74429442025522,
,0,3,0,3,0,0,16,,train_dim1_1,10,30,2,0,2,0,,,,,,,,,0,0,0,0,0,9,9,9,0,0,0,0,,,,,,,,,,,,,stimuli/alien_stimuli/16.png,,,,,,,,,,,,,,,,,,,,,,,,,,,,,stimuli/alien_stimuli/46.png,46,1,11,,,,,,,30,,,,,,,,93.80963550001616,93.80963550001616,93.80963550001616,93.80963550001616,93.80963550001616,return,1.0256350000272505,10,0,0,1,-0.16,-0.16,return,0.9240110999671742,0,22,-0.16,-0.16,92.24334390001604,93.80963550001616,0.16,-0.4,0.0,0.24,-0.4,0.16,0.04,0.16,-0.4,91.95314480003435,91.95314480003435,91.95314480003435,91.95314480003435,91.95314480003435,91.95314480003435,91.95314480003435,91.95314480003435,91.91020543999038,0.3850423999829218,return,0.2656764999846928,,,,,,A,train_x,x_increasing_steps,top_left,2024-10-29_23h16.13.373,HideSeek_v1,2022.2.5,59.74429442025522,
,2,2,4,2,2,0,36,,train_dim1_1,11,30,2,0,2,0,,,,,,,,,0,0,0,0,0,10,10,10,0,0,0,0,,,,,,,,,,,,,stimuli/alien_stimuli/36.png,,,,,,,,,,,,,,,,,,,,,,,,,,,,,stimuli/alien_stimuli/16.png,16,0,12,,,,,,,30,,,,,,,,98.35174690000713,98.35174690000713,98.35174690000713,98.35174690000713,98.35174690000713,right,1.0254126000218093,10,0,0,99,0.08,-0.24,right,0.9257133000064641,,,,,96.7931535000098,98.35174690000713,-0.16,-0.16,0.0,0.0,-0.16,-0.16,-0.16,-0.16,-0.16,96.38734349998413,96.38734349998413,96.38734349998413,96.38734349998413,96.38734349998413,96.38734349998413,96.38734349998413,96.38734349998413,96.34350854996592,0.5182739999727346,return,0.3860905999899842,,,,,,A,train_x,x_increasing_steps,top_left,2024-10-29_23h16.13.373,HideSeek_v1,2022.2.5,59.74429442025522,
,2,2,4,2,2,0,36,,train_dim1_1,11,30,2,0,2,0,,,,,,,,,0,0,0,0,0,10,10,10,1,0,1,0,,,,,,,,,,,,,,,,,,,,,,,,,,,,,,,,,,,,,,,,,,,,,,,,,,,,30,,,,,,,,99.37091840000357,99.37091840000357,99.37091840000357,99.37091840000357,99.37091840000357,right,0.3271984000457451,10,0,0,99,0.16,-0.24,right,0.24875680002151057,,,,,,,,,,,,,,,,,,,,,,,,,,,,,,,,,A,train_x,x_increasing_steps,top_left,2024-10-29_23h16.13.373,HideSeek_v1,2022.2.5,59.74429442025522,
,2,2,4,2,2,0,36,,train_dim1_1,11,30,2,0,2,0,,,,,,,,,0,0,0,0,0,10,10,10,2,0,2,0,,,,,,,,,,,,,,,,,,,,,,,,,,,,,,,,,,,,,,,,,,,,,,,,,,,,30,,,,,,,,99.69166429998586,99.69166429998586,99.69166429998586,99.69166429998586,99.69166429998586,return,0.2773942000349052,11,0,0,1,0.16,-0.24,return,0.2117998999892734,0,24,0.16,-0.24,,,,,,,,,,,,,,,,,,,,,,,,,,,,,A,train_x,x_increasing_steps,top_left,2024-10-29_23h16.13.373,HideSeek_v1,2022.2.5,59.74429442025522,
,0,0,1,0,1,0,26,,train_dim1_1,12,30,2,0,2,0,,,,,,,,,0,0,0,0,0,11,11,11,0,0,0,0,,,,,,,,,,,,,stimuli/alien_stimuli/26.png,,,,,,,,,,,,,,,,,,,,,,,,,,,,,stimuli/alien_stimuli/36.png,36,2,13,,,,,,,30,,,,,,,,104.54932869999902,104.54932869999902,104.54932869999902,104.54932869999902,104.54932869999902,right,1.0918107000179589,11,0,0,99,-0.08,-0.4,right,0.9950763999950141,,,,,102.99314069998218,104.54932869999902,0.16,-0.24,0.0,0.16,-0.24,0.16,0.08,0.16,-0.24,101.55050429998664,101.55050429998664,101.55050429998664,101.55050429998664,101.55050429998664,101.55050429998664,101.55050429998664,101.55050429998664,101.50987424998311,1.5517684000078589,return,1.4168839000049047,,,,,,A,train_x,x_increasing_steps,top_left,2024-10-29_23h16.13.373,HideSeek_v1,2022.2.5,59.74429442025522,
,0,0,1,0,1,0,26,,train_dim1_1,12,30,2,0,2,0,,,,,,,,,0,0,0,0,0,11,11,11,1,0,1,0,,,,,,,,,,,,,,,,,,,,,,,,,,,,,,,,,,,,,,,,,,,,,,,,,,,,30,,,,,,,,105.63213400001405,105.63213400001405,105.63213400001405,105.63213400001405,105.63213400001405,return,0.3272432999801822,12,0,0,1,-0.08,-0.4,return,0.25893049995647743,0,25,-0.08,-0.4,,,,,,,,,,,,,,,,,,,,,,,,,,,,,A,train_x,x_increasing_steps,top_left,2024-10-29_23h16.13.373,HideSeek_v1,2022.2.5,59.74429442025522,
,0,4,3,4,3,0,46,,train_dim1_1,13,30,2,0,2,0,,,,,,,,,0,0,0,0,0,12,12,12,0,0,0,0,,,,,,,,,,,,,stimuli/alien_stimuli/46.png,,,,,,,,,,,,,,,,,,,,,,,,,,,,,stimuli/alien_stimuli/26.png,26,0,14,,,,,,,30,,,,,,,,109.8508967999951,109.8508967999951,109.8508967999951,109.8508967999951,109.8508967999951,right,0.5914895000169054,12,0,0,99,-0.08,-0.08,right,0.4951716999639757,,,,,108.29269770003157,109.8508967999951,-0.08,-0.4,0.0,0.08,-0.4,-0.08,-0.12,-0.08,-0.4,107.5233432999812,107.5233432999812,107.5233432999812,107.5233432999812,107.5233432999812,107.5233432999812,107.5233432999812,107.5233432999812,107.47662874000379,0.8681754000135697,return,0.7374428000184707,,,,,,A,train_x,x_increasing_steps,top_left,2024-10-29_23h16.13.373,HideSeek_v1,2022.2.5,59.74429442025522,
,0,4,3,4,3,0,46,,train_dim1_1,13,30,2,0,2,0,,,,,,,,,0,0,0,0,0,12,12,12,1,0,1,0,,,,,,,,,,,,,,,,,,,,,,,,,,,,,,,,,,,,,,,,,,,,,,,,,,,,30,,,,,,,,110.42676449997816,110.42676449997816,110.42676449997816,110.42676449997816,110.42676449997816,right,0.31029939994914457,12,0,0,99,0.0,-0.08,right,0.2479707999737002,,,,,,,,,,,,,,,,,,,,,,,,,,,,,,,,,A,train_x,x_increasing_steps,top_left,2024-10-29_23h16.13.373,HideSeek_v1,2022.2.5,59.74429442025522,
,0,4,3,4,3,0,46,,train_dim1_1,13,30,2,0,2,0,,,,,,,,,0,0,0,0,0,12,12,12,2,0,2,0,,,,,,,,,,,,,,,,,,,,,,,,,,,,,,,,,,,,,,,,,,,,,,,,,,,,30,,,,,,,,110.75258349999785,110.75258349999785,110.75258349999785,110.75258349999785,110.75258349999785,right,0.24425930000143126,12,0,0,99,0.08,-0.08,right,0.169459700002335,,,,,,,,,,,,,,,,,,,,,,,,,,,,,,,,,A,train_x,x_increasing_steps,top_left,2024-10-29_23h16.13.373,HideSeek_v1,2022.2.5,59.74429442025522,
,0,4,3,4,3,0,46,,train_dim1_1,13,30,2,0,2,0,,,,,,,,,0,0,0,0,0,12,12,12,3,0,3,0,,,,,,,,,,,,,,,,,,,,,,,,,,,,,,,,,,,,,,,,,,,,,,,,,,,,30,,,,,,,,110.99098900001263,110.99098900001263,110.99098900001263,110.99098900001263,110.99098900001263,return,0.3446532000089064,13,0,0,1,0.08,-0.08,return,0.2748358999961056,0,28,0.08,-0.08,,,,,,,,,,,,,,,,,,,,,,,,,,,,,A,train_x,x_increasing_steps,top_left,2024-10-29_23h16.13.373,HideSeek_v1,2022.2.5,59.74429442025522,
,4,3,4,3,0,0,16,,train_dim1_1,14,30,2,0,2,0,,,,,,,,,0,0,0,0,0,13,13,13,0,0,0,0,,,,,,,,,,,,,stimuli/alien_stimuli/16.png,,,,,,,,,,,,,,,,,,,,,,,,,,,,,stimuli/alien_stimuli/46.png,46,0,15,,,,,,,30,,,,,,,,115.23369359999197,115.23369359999197,115.23369359999197,115.23369359999197,115.23369359999197,right,0.6080972999916412,13,0,0,99,0.24,-0.16,right,0.5134077000548132,,,,,113.67622359999223,115.23369359999197,0.08,-0.08,0.0,0.24,-0.08,0.08,-0.04,0.08,-0.08,112.9137893000152,112.9137893000152,112.9137893000152,112.9137893000152,112.9137893000152,112.9137893000152,112.9137893000152,112.9137893000152,112.85999974000732,0.8692882999894209,return,0.7455733999959193,,,,,,A,train_x,x_increasing_steps,top_left,2024-10-29_23h16.13.373,HideSeek_v1,2022.2.5,59.74429442025522,
,4,3,4,3,0,0,16,,train_dim1_1,14,30,2,0,2,0,,,,,,,,,0,0,0,0,0,13,13,13,1,0,1,0,,,,,,,,,,,,,,,,,,,,,,,,,,,,,,,,,,,,,,,,,,,,,,,,,,,,30,,,,,,,,115.8304995999788,115.8304995999788,115.8304995999788,115.8304995999788,115.8304995999788,left,0.893780299986247,13,0,0,99,0.15999999999999998,-0.16,left,0.8253888000035658,,,,,,,,,,,,,,,,,,,,,,,,,,,,,,,,,A,train_x,x_increasing_steps,top_left,2024-10-29_23h16.13.373,HideSeek_v1,2022.2.5,59.74429442025522,
,4,3,4,3,0,0,16,,train_dim1_1,14,30,2,0,2,0,,,,,,,,,0,0,0,0,0,13,13,13,2,0,2,0,,,,,,,,,,,,,,,,,,,,,,,,,,,,,,,,,,,,,,,,,,,,,,,,,,,,30,,,,,,,,116.72767150000436,116.72767150000436,116.72767150000436,116.72767150000436,116.72767150000436,return,0.31071419996442273,14,0,0,1,0.15999999999999998,-0.16,return,0.24609879998024553,0,28,0.15999999999999998,-0.16,,,,,,,,,,,,,,,,,,,,,,,,,,,,,A,train_x,x_increasing_steps,top_left,2024-10-29_23h16.13.373,HideSeek_v1,2022.2.5,59.74429442025522,
,4,2,9,2,5,0,66,,train_dim1_1,15,30,2,0,2,0,,,,,,,,,0,0,0,0,0,14,14,14,0,0,0,0,,,,,,,,,,,,,stimuli/alien_stimuli/66.png,,,,,,,,,,,,,,,,,,,,,,,,,,,,,stimuli/alien_stimuli/16.png,16,4,16,,,,,,,30,,,,,,,,120.94301480002468,120.94301480002468,120.94301480002468,120.94301480002468,120.94301480002468,right,0.6254933000309393,14,0,0,99,0.24,-0.24,right,0.5343138999887742,,,,,119.37620880000759,120.94301480002468,0.16,-0.16,0.0,0.0,-0.16,0.16,0.16,0.16,-0.16,118.61928530002479,118.61928530002479,118.61928530002479,118.61928530002479,118.61928530002479,118.61928530002479,118.61928530002479,118.61928530002479,118.57670714997221,0.8686364000313915,return,0.7387267000158317,,,,,,A,train_x,x_increasing_steps,top_left,2024-10-29_23h16.13.373,HideSeek_v1,2022.2.5,59.74429442025522,
,4,2,9,2,5,0,66,,train_dim1_1,15,30,2,0,2,0,,,,,,,,,0,0,0,0,0,14,14,14,1,0,1,0,,,,,,,,,,,,,,,,,,,,,,,,,,,,,,,,,,,,,,,,,,,,,,,,,,,,30,,,,,,,,121.54552739998326,121.54552739998326,121.54552739998326,121.54552739998326,121.54552739998326,right,0.3273465000092983,14,0,0,99,0.32,-0.24,right,0.2632015999988653,,,,,,,,,,,,,,,,,,,,,,,,,,,,,,,,,A,train_x,x_increasing_steps,top_left,2024-10-29_23h16.13.373,HideSeek_v1,2022.2.5,59.74429442025522,
,4,2,9,2,5,0,66,,train_dim1_1,15,30,2,0,2,0,,,,,,,,,0,0,0,0,0,14,14,14,2,0,2,0,,,,,,,,,,,,,,,,,,,,,,,,,,,,,,,,,,,,,,,,,,,,,,,,,,,,30,,,,,,,,121.87950809998438,121.87950809998438,121.87950809998438,121.87950809998438,121.87950809998438,right,0.3609203000087291,14,0,0,99,0.4,-0.24,right,0.28211240004748106,,,,,,,,,,,,,,,,,,,,,,,,,,,,,,,,,A,train_x,x_increasing_steps,top_left,2024-10-29_23h16.13.373,HideSeek_v1,2022.2.5,59.74429442025522,
,4,2,9,2,5,0,66,,train_dim1_1,15,30,2,0,2,0,,,,,,,,,0,0,0,0,0,14,14,14,3,0,3,0,,,,,,,,,,,,,,,,,,,,,,,,,,,,,,,,,,,,,,,,,,,,,,,,,,,,30,,,,,,,,122.24589900003048,122.24589900003048,122.24589900003048,122.24589900003048,122.24589900003048,right,0.3275714000337757,14,0,0,99,0.48000000000000004,-0.24,right,0.25481409998610616,,,,,,,,,,,,,,,,,,,,,,,,,,,,,,,,,A,train_x,x_increasing_steps,top_left,2024-10-29_23h16.13.373,HideSeek_v1,2022.2.5,59.74429442025522,
,4,2,9,2,5,0,66,,train_dim1_1,15,30,2,0,2,0,,,,,,,,,0,0,0,0,0,14,14,14,4,0,4,0,,,,,,,,,,,,,,,,,,,,,,,,,,,,,,,,,,,,,,,,,,,,,,,,,,,,30,,,,,,,,122.57724030001555,122.57724030001555,122.57724030001555,122.57724030001555,122.57724030001555,right,0.27790980000281706,14,0,0,99,0.56,-0.24,right,0.21395060000941157,,,,,,,,,,,,,,,,,,,,,,,,,,,,,,,,,A,train_x,x_increasing_steps,top_left,2024-10-29_23h16.13.373,HideSeek_v1,2022.2.5,59.74429442025522,
,4,2,9,2,5,0,66,,train_dim1_1,15,30,2,0,2,0,,,,,,,,,0,0,0,0,0,14,14,14,5,0,5,0,,,,,,,,,,,,,,,,,,,,,,,,,,,,,,,,,,,,,,,,,,,,,,,,,,,,30,,,,,,,,122.8611592000234,122.8611592000234,122.8611592000234,122.8611592000234,122.8611592000234,return,0.3111178000108339,15,0,0,1,0.56,-0.24,return,0.2342631000210531,0,33,0.56,-0.24,,,,,,,,,,,,,,,,,,,,,,,,,,,,,A,train_x,x_increasing_steps,top_left,2024-10-29_23h16.13.373,HideSeek_v1,2022.2.5,59.74429442025522,
,3,3,6,3,3,0,46,,train_dim1_1,16,30,2,0,2,0,,,,,,,,,0,0,0,0,0,15,15,15,0,0,0,0,,,,,,,,,,,,,stimuli/alien_stimuli/46.png,,,,,,,,,,,,,,,,,,,,,,,,,,,,,stimuli/alien_stimuli/66.png,66,4,17,,,,,,,30,,,,,,,,126.68165360001149,126.68165360001149,126.68165360001149,126.68165360001149,126.68165360001149,right,0.5417315000086091,15,0,0,99,0.16,-0.16,right,0.45869690005201846,,,,,125.12633529998129,126.68165360001149,0.56,-0.24,0.0,0.4,-0.24,0.56,0.36000000000000004,0.56,-0.24,124.75573279999662,124.75573279999662,124.75573279999662,124.75573279999662,124.75573279999662,124.75573279999662,124.75573279999662,124.75573279999662,124.70984234998468,0.48506279999855906,return,0.3415231999824755,,,,,,A,train_x,x_increasing_steps,top_left,2024-10-29_23h16.13.373,HideSeek_v1,2022.2.5,59.74429442025522,
,3,3,6,3,3,0,46,,train_dim1_1,16,30,2,0,2,0,,,,,,,,,0,0,0,0,0,15,15,15,1,0,1,0,,,,,,,,,,,,,,,,,,,,,,,,,,,,,,,,,,,,,,,,,,,,,,,,,,,,30,,,,,,,,127.20744889997877,127.20744889997877,127.20744889997877,127.20744889997877,127.20744889997877,right,0.42718939995393157,15,0,0,99,0.24,-0.16,right,0.36645460000727326,,,,,,,,,,,,,,,,,,,,,,,,,,,,,,,,,A,train_x,x_increasing_steps,top_left,2024-10-29_23h16.13.373,HideSeek_v1,2022.2.5,59.74429442025522,
,3,3,6,3,3,0,46,,train_dim1_1,16,30,2,0,2,0,,,,,,,,,0,0,0,0,0,15,15,15,2,0,2,0,,,,,,,,,,,,,,,,,,,,,,,,,,,,,,,,,,,,,,,,,,,,,,,,,,,,30,,,,,,,,127.64274219999788,127.64274219999788,127.64274219999788,127.64274219999788,127.64274219999788,right,0.29374059999827296,15,0,0,99,0.32,-0.16,right,0.23172330000670627,,,,,,,,,,,,,,,,,,,,,,,,,,,,,,,,,A,train_x,x_increasing_steps,top_left,2024-10-29_23h16.13.373,HideSeek_v1,2022.2.5,59.74429442025522,
,3,3,6,3,3,0,46,,train_dim1_1,16,30,2,0,2,0,,,,,,,,,0,0,0,0,0,15,15,15,3,0,3,0,,,,,,,,,,,,,,,,,,,,,,,,,,,,,,,,,,,,,,,,,,,,,,,,,,,,30,,,,,,,,127.93996580003295,127.93996580003295,127.93996580003295,127.93996580003295,127.93996580003295,return,0.29451889998745173,16,0,0,1,0.32,-0.16,return,0.22336589999031276,0,36,0.32,-0.16,,,,,,,,,,,,,,,,,,,,,,,,,,,,,A,train_x,x_increasing_steps,top_left,2024-10-29_23h16.13.373,HideSeek_v1,2022.2.5,59.74429442025522,
,2,4,3,4,1,0,26,,train_dim1_1,17,30,2,0,2,0,,,,,,,,,0,0,0,0,0,16,16,16,0,0,0,0,,,,,,,,,,,,,stimuli/alien_stimuli/26.png,,,,,,,,,,,,,,,,,,,,,,,,,,,,,stimuli/alien_stimuli/46.png,46,3,18,,,,,,,30,,,,,,,,131.77612699999008,131.77612699999008,131.77612699999008,131.77612699999008,131.77612699999008,right,0.7583424999611452,16,0,0,99,0.08,-0.08,right,0.6535391999641433,,,,,130.2092048000195,131.77612699999008,0.32,-0.16,0.0,0.24,-0.16,0.32,0.2,0.32,-0.16,129.82168569997884,129.82168569997884,129.82168569997884,129.82168569997884,129.82168569997884,129.82168569997884,129.82168569997884,129.82168569997884,129.7764850499807,0.5016636999789625,return,0.36438829998951405,,,,,,A,train_x,x_increasing_steps,top_left,2024-10-29_23h16.13.373,HideSeek_v1,2022.2.5,59.74429442025522,
,2,4,3,4,1,0,26,,train_dim1_1,17,30,2,0,2,0,,,,,,,,,0,0,0,0,0,16,16,16,1,0,1,0,,,,,,,,,,,,,,,,,,,,,,,,,,,,,,,,,,,,,,,,,,,,,,,,,,,,30,,,,,,,,132.51399180002045,132.51399180002045,132.51399180002045,132.51399180002045,132.51399180002045,return,0.24388399999588728,17,0,0,1,0.08,-0.08,return,0.17750140000134706,0,37,0.08,-0.08,,,,,,,,,,,,,,,,,,,,,,,,,,,,,A,train_x,x_increasing_steps,top_left,2024-10-29_23h16.13.373,HideSeek_v1,2022.2.5,59.74429442025522,
,2,1,7,1,5,0,66,,train_dim1_1,18,30,2,0,2,0,,,,,,,,,0,0,0,0,0,17,17,17,0,0,0,0,,,,,,,,,,,,,stimuli/alien_stimuli/66.png,,,,,,,,,,,,,,,,,,,,,,,,,,,,,stimuli/alien_stimuli/26.png,26,2,19,,,,,,,30,,,,,,,,136.43813939997926,136.43813939997926,136.43813939997926,136.43813939997926,136.43813939997926,right,0.9758988000103272,17,0,0,99,0.08,-0.32,right,0.8819289000239223,,,,,134.87613180000335,136.43813939997926,0.08,-0.08,0.0,0.08,-0.08,0.08,0.04,0.08,-0.08,134.33163989998866,134.33163989998866,134.33163989998866,134.33163989998866,134.33163989998866,134.33163989998866,134.33163989998866,134.33163989998866,134.292527350015,0.652278000023216,return,0.5205748999724165,,,,,,A,train_x,x_increasing_steps,top_left,2024-10-29_23h16.13.373,HideSeek_v1,2022.2.5,59.74429442025522,
,2,1,7,1,5,0,66,,train_dim1_1,18,30,2,0,2,0,,,,,,,,,0,0,0,0,0,17,17,17,1,0,1,0,,,,,,,,,,,,,,,,,,,,,,,,,,,,,,,,,,,,,,,,,,,,,,,,,,,,30,,,,,,,,137.399320800032,137.399320800032,137.399320800032,137.399320800032,137.399320800032,right,0.31069499999284744,17,0,0,99,0.16,-0.32,right,0.2299430000130087,,,,,,,,,,,,,,,,,,,,,,,,,,,,,,,,,A,train_x,x_increasing_steps,top_left,2024-10-29_23h16.13.373,HideSeek_v1,2022.2.5,59.74429442025522,
,2,1,7,1,5,0,66,,train_dim1_1,18,30,2,0,2,0,,,,,,,,,0,0,0,0,0,17,17,17,2,0,2,0,,,,,,,,,,,,,,,,,,,,,,,,,,,,,,,,,,,,,,,,,,,,,,,,,,,,30,,,,,,,,137.71022880001692,137.71022880001692,137.71022880001692,137.71022880001692,137.71022880001692,right,0.27772359998198226,17,0,0,99,0.24,-0.32,right,0.21447589999297634,,,,,,,,,,,,,,,,,,,,,,,,,,,,,,,,,A,train_x,x_increasing_steps,top_left,2024-10-29_23h16.13.373,HideSeek_v1,2022.2.5,59.74429442025522,
,2,1,7,1,5,0,66,,train_dim1_1,18,30,2,0,2,0,,,,,,,,,0,0,0,0,0,17,17,17,3,0,3,0,,,,,,,,,,,,,,,,,,,,,,,,,,,,,,,,,,,,,,,,,,,,,,,,,,,,30,,,,,,,,137.99602289998438,137.99602289998438,137.99602289998438,137.99602289998438,137.99602289998438,right,0.29416709998622537,17,0,0,99,0.32,-0.32,right,0.21949139999924228,,,,,,,,,,,,,,,,,,,,,,,,,,,,,,,,,A,train_x,x_increasing_steps,top_left,2024-10-29_23h16.13.373,HideSeek_v1,2022.2.5,59.74429442025522,
,2,1,7,1,5,0,66,,train_dim1_1,18,30,2,0,2,0,,,,,,,,,0,0,0,0,0,17,17,17,4,0,4,0,,,,,,,,,,,,,,,,,,,,,,,,,,,,,,,,,,,,,,,,,,,,,,,,,,,,30,,,,,,,,138.29447060002713,138.29447060002713,138.29447060002713,138.29447060002713,138.29447060002713,right,0.29368220001924783,17,0,0,99,0.4,-0.32,right,0.2196510000503622,,,,,,,,,,,,,,,,,,,,,,,,,,,,,,,,,A,train_x,x_increasing_steps,top_left,2024-10-29_23h16.13.373,HideSeek_v1,2022.2.5,59.74429442025522,
,2,1,7,1,5,0,66,,train_dim1_1,18,30,2,0,2,0,,,,,,,,,0,0,0,0,0,17,17,17,5,0,5,0,,,,,,,,,,,,,,,,,,,,,,,,,,,,,,,,,,,,,,,,,,,,,,,,,,,,30,,,,,,,,138.59281270002248,138.59281270002248,138.59281270002248,138.59281270002248,138.59281270002248,return,0.3278639999916777,18,0,0,1,0.4,-0.32,return,0.2664319000323303,0,42,0.4,-0.32,,,,,,,,,,,,,,,,,,,,,,,,,,,,,A,train_x,x_increasing_steps,top_left,2024-10-29_23h16.13.373,HideSeek_v1,2022.2.5,59.74429442025522,
,0,3,2,3,2,0,36,,train_dim1_1,19,30,2,0,2,0,,,,,,,,,0,0,0,0,0,18,18,18,0,0,0,0,,,,,,,,,,,,,stimuli/alien_stimuli/36.png,,,,,,,,,,,,,,,,,,,,,,,,,,,,,stimuli/alien_stimuli/66.png,66,2,20,,,,,,,30,,,,,,,,144.4816488000215,144.4816488000215,144.4816488000215,144.4816488000215,144.4816488000215,right,0.8249202000442892,18,0,0,99,-0.08,-0.16,right,0.737990900001023,,,,,142.92586860002484,144.4816488000215,0.4,-0.32,0.0,0.4,-0.32,0.4,0.2,0.4,-0.32,140.5025582999806,140.5025582999806,140.5025582999806,140.5025582999806,140.5025582999806,140.5025582999806,140.5025582999806,140.5025582999806,140.45945984998252,2.5352068999782205,return,2.399392799998168,,,,,,A,train_x,x_increasing_steps,top_left,2024-10-29_23h16.13.373,HideSeek_v1,2022.2.5,59.74429442025522,
,0,3,2,3,2,0,36,,train_dim1_1,19,30,2,0,2,0,,,,,,,,,0,0,0,0,0,18,18,18,1,0,1,0,,,,,,,,,,,,,,,,,,,,,,,,,,,,,,,,,,,,,,,,,,,,,,,,,,,,30,,,,,,,,145.2935712999897,145.2935712999897,145.2935712999897,145.2935712999897,145.2935712999897,right,0.26073989999713376,18,0,0,99,0.0,-0.16,right,0.1928545999689959,,,,,,,,,,,,,,,,,,,,,,,,,,,,,,,,,A,train_x,x_increasing_steps,top_left,2024-10-29_23h16.13.373,HideSeek_v1,2022.2.5,59.74429442025522,
,0,3,2,3,2,0,36,,train_dim1_1,19,30,2,0,2,0,,,,,,,,,0,0,0,0,0,18,18,18,2,0,2,0,,,,,,,,,,,,,,,,,,,,,,,,,,,,,,,,,,,,,,,,,,,,,,,,,,,,30,,,,,,,,145.5589654999785,145.5589654999785,145.5589654999785,145.5589654999785,145.5589654999785,return,0.2773538999608718,19,0,0,1,0.0,-0.16,return,0.2075106999836862,0,44,0.0,-0.16,,,,,,,,,,,,,,,,,,,,,,,,,,,,,A,train_x,x_increasing_steps,top_left,2024-10-29_23h16.13.373,HideSeek_v1,2022.2.5,59.74429442025522,
,0,1,0,1,0,0,16,,train_dim1_1,20,30,2,0,2,0,,,,,,,,,0,0,0,0,0,19,19,19,0,0,0,0,,,,,,,,,,,,,stimuli/alien_stimuli/16.png,,,,,,,,,,,,,,,,,,,,,,,,,,,,,stimuli/alien_stimuli/36.png,36,0,21,,,,,,,30,,,,,,,,149.29764489998342,149.29764489998342,149.29764489998342,149.29764489998342,149.29764489998342,right,0.9582648000214249,19,0,0,99,-0.08,-0.32,right,0.8751913000014611,,,,,147.7427621000097,149.29764489998342,0,-0.16,0.0,0.16,-0.16,0,-0.08,0,-0.16,147.4119228000054,147.4119228000054,147.4119228000054,147.4119228000054,147.4119228000054,147.4119228000054,147.4119228000054,147.4119228000054,147.3592003399739,0.4356856000376865,return,0.2995504999998957,,,,,,A,train_x,x_increasing_steps,top_left,2024-10-29_23h16.13.373,HideSeek_v1,2022.2.5,59.74429442025522,
,0,1,0,1,0,0,16,,train_dim1_1,20,30,2,0,2,0,,,,,,,,,0,0,0,0,0,19,19,19,1,0,1,0,,,,,,,,,,,,,,,,,,,,,,,,,,,,,,,,,,,,,,,,,,,,,,,,,,,,30,,,,,,,,150.24730839999393,150.24730839999393,150.24730839999393,150.24730839999393,150.24730839999393,left,0.7766961000161245,19,0,0,99,-0.16,-0.32,left,0.702926900004968,,,,,,,,,,,,,,,,,,,,,,,,,,,,,,,,,A,train_x,x_increasing_steps,top_left,2024-10-29_23h16.13.373,HideSeek_v1,2022.2.5,59.74429442025522,
,0,1,0,1,0,0,16,,train_dim1_1,20,30,2,0,2,0,,,,,,,,,0,0,0,0,0,19,19,19,2,0,2,0,,,,,,,,,,,,,,,,,,,,,,,,,,,,,,,,,,,,,,,,,,,,,,,,,,,,30,,,,,,,,151.02775730000576,151.02775730000576,151.02775730000576,151.02775730000576,151.02775730000576,return,0.4779718999634497,20,0,0,1,-0.16,-0.32,return,0.40672309999354184,0,44,-0.16,-0.32,,,,,,,,,,,,,,,,,,,,,,,,,,,,,A,train_x,x_increasing_steps,top_left,2024-10-29_23h16.13.373,HideSeek_v1,2022.2.5,59.74429442025522,
,4,2,6,2,2,0,36,,train_dim1_1,21,30,2,0,2,0,,,,,,,,,0,0,0,0,0,20,20,20,0,0,0,0,,,,,,,,,,,,,stimuli/alien_stimuli/36.png,,,,,,,,,,,,,,,,,,,,,,,,,,,,,stimuli/alien_stimuli/16.png,16,0,22,,,,,,,30,,,,,,,,155.4654510000255,155.4654510000255,155.4654510000255,155.4654510000255,155.4654510000255,right,0.6422349000349641,20,0,0,99,0.24,-0.24,right,0.5499047000193968,,,,,153.90934830001788,155.4654510000255,-0.16,-0.32,0.0,0.0,-0.32,-0.16,-0.16,-0.16,-0.32,153.09274390002247,153.09274390002247,153.09274390002247,153.09274390002247,153.09274390002247,153.09274390002247,153.09274390002247,153.09274390002247,153.0594061599928,0.9353351999889128,return,0.7873364000115544,,,,,,A,train_x,x_increasing_steps,top_left,2024-10-29_23h16.13.373,HideSeek_v1,2022.2.5,59.74429442025522,
,4,2,6,2,2,0,36,,train_dim1_1,21,30,2,0,2,0,,,,,,,,,0,0,0,0,0,20,20,20,1,0,1,0,,,,,,,,,,,,,,,,,,,,,,,,,,,,,,,,,,,,,,,,,,,,,,,,,,,,30,,,,,,,,156.09253110003192,156.09253110003192,156.09253110003192,156.09253110003192,156.09253110003192,right,0.3604046999826096,20,0,0,99,0.32,-0.24,right,0.2941795000224374,,,,,,,,,,,,,,,,,,,,,,,,,,,,,,,,,A,train_x,x_increasing_steps,top_left,2024-10-29_23h16.13.373,HideSeek_v1,2022.2.5,59.74429442025522,
,4,2,6,2,2,0,36,,train_dim1_1,21,30,2,0,2,0,,,,,,,,,0,0,0,0,0,20,20,20,2,0,2,0,,,,,,,,,,,,,,,,,,,,,,,,,,,,,,,,,,,,,,,,,,,,,,,,,,,,30,,,,,,,,156.45871410000836,156.45871410000836,156.45871410000836,156.45871410000836,156.45871410000836,return,0.32809680001810193,21,0,0,1,0.32,-0.24,return,0.26072370004840195,0,46,0.32,-0.24,,,,,,,,,,,,,,,,,,,,,,,,,,,,,A,train_x,x_increasing_steps,top_left,2024-10-29_23h16.13.373,HideSeek_v1,2022.2.5,59.74429442025522,
,1,0,2,0,1,0,26,,train_dim1_1,22,30,2,0,2,0,,,,,,,,,0,0,0,0,0,21,21,21,0,0,0,0,,,,,,,,,,,,,stimuli/alien_stimuli/26.png,,,,,,,,,,,,,,,,,,,,,,,,,,,,,stimuli/alien_stimuli/36.png,36,4,23,,,,,,,30,,,,,,,,160.55968930001836,160.55968930001836,160.55968930001836,160.55968930001836,160.55968930001836,right,0.6418064999743365,21,0,0,99,0.0,-0.4,right,0.5481688000145368,,,,,158.9926416000235,160.55968930001836,0.32,-0.24,0.0,0.16,-0.24,0.32,0.24,0.32,-0.24,158.36596309999004,158.36596309999004,158.36596309999004,158.36596309999004,158.36596309999004,158.36596309999004,158.36596309999004,158.36596309999004,158.32593135000207,0.7351526999846101,return,0.608066399989184,,,,,,A,train_x,x_increasing_steps,top_left,2024-10-29_23h16.13.373,HideSeek_v1,2022.2.5,59.74429442025522,
,1,0,2,0,1,0,26,,train_dim1_1,22,30,2,0,2,0,,,,,,,,,0,0,0,0,0,21,21,21,1,0,1,0,,,,,,,,,,,,,,,,,,,,,,,,,,,,,,,,,,,,,,,,,,,,,,,,,,,,30,,,,,,,,161.17876600002637,161.17876600002637,161.17876600002637,161.17876600002637,161.17876600002637,return,0.2933556000352837,22,0,0,1,0.0,-0.4,return,0.2153184000053443,0,47,0.0,-0.4,,,,,,,,,,,,,,,,,,,,,,,,,,,,,A,train_x,x_increasing_steps,top_left,2024-10-29_23h16.13.373,HideSeek_v1,2022.2.5,59.74429442025522,
,2,1,7,1,5,0,66,,train_dim1_1,23,30,2,0,2,0,,,,,,,,,0,0,0,0,0,22,22,22,0,0,0,0,,,,,,,,,,,,,stimuli/alien_stimuli/66.png,,,,,,,,,,,,,,,,,,,,,,,,,,,,,stimuli/alien_stimuli/26.png,26,1,24,,,,,,,30,,,,,,,,165.34227309998823,165.34227309998823,165.34227309998823,165.34227309998823,165.34227309998823,right,0.9420646999496967,22,0,0,99,0.08,-0.32,right,0.8487760999705642,,,,,163.77604969998356,165.34227309998823,0,-0.4,0.0,0.08,-0.4,0,-0.04,0,-0.4,163.0458978000097,163.0458978000097,163.0458978000097,163.0458978000097,163.0458978000097,163.0458978000097,163.0458978000097,163.0458978000097,163.00907415000256,0.8355271000182256,return,0.6972155999974348,,,,,,A,train_x,x_increasing_steps,top_left,2024-10-29_23h16.13.373,HideSeek_v1,2022.2.5,59.74429442025522,
,2,1,7,1,5,0,66,,train_dim1_1,23,30,2,0,2,0,,,,,,,,,0,0,0,0,0,22,22,22,1,0,1,0,,,,,,,,,,,,,,,,,,,,,,,,,,,,,,,,,,,,,,,,,,,,,,,,,,,,30,,,,,,,,166.2641221000231,166.2641221000231,166.2641221000231,166.2641221000231,166.2641221000231,right,0.30997679999563843,22,0,0,99,0.16,-0.32,right,0.23069389996817335,,,,,,,,,,,,,,,,,,,,,,,,,,,,,,,,,A,train_x,x_increasing_steps,top_left,2024-10-29_23h16.13.373,HideSeek_v1,2022.2.5,59.74429442025522,
,2,1,7,1,5,0,66,,train_dim1_1,23,30,2,0,2,0,,,,,,,,,0,0,0,0,0,22,22,22,2,0,2,0,,,,,,,,,,,,,,,,,,,,,,,,,,,,,,,,,,,,,,,,,,,,,,,,,,,,30,,,,,,,,166.57711090001976,166.57711090001976,166.57711090001976,166.57711090001976,166.57711090001976,right,0.29445839999243617,22,0,0,99,0.24,-0.32,right,0.21798740001395345,,,,,,,,,,,,,,,,,,,,,,,,,,,,,,,,,A,train_x,x_increasing_steps,top_left,2024-10-29_23h16.13.373,HideSeek_v1,2022.2.5,59.74429442025522,
,2,1,7,1,5,0,66,,train_dim1_1,23,30,2,0,2,0,,,,,,,,,0,0,0,0,0,22,22,22,3,0,3,0,,,,,,,,,,,,,,,,,,,,,,,,,,,,,,,,,,,,,,,,,,,,,,,,,,,,30,,,,,,,,166.87680430000182,166.87680430000182,166.87680430000182,166.87680430000182,166.87680430000182,right,0.2613882999867201,22,0,0,99,0.32,-0.32,right,0.18761470000026748,,,,,,,,,,,,,,,,,,,,,,,,,,,,,,,,,A,train_x,x_increasing_steps,top_left,2024-10-29_23h16.13.373,HideSeek_v1,2022.2.5,59.74429442025522,
,2,1,7,1,5,0,66,,train_dim1_1,23,30,2,0,2,0,,,,,,,,,0,0,0,0,0,22,22,22,4,0,4,0,,,,,,,,,,,,,,,,,,,,,,,,,,,,,,,,,,,,,,,,,,,,,,,,,,,,30,,,,,,,,167.14206129999366,167.14206129999366,167.14206129999366,167.14206129999366,167.14206129999366,right,0.22805569996125996,22,0,0,99,0.4,-0.32,right,0.1659362000063993,,,,,,,,,,,,,,,,,,,,,,,,,,,,,,,,,A,train_x,x_increasing_steps,top_left,2024-10-29_23h16.13.373,HideSeek_v1,2022.2.5,59.74429442025522,
,2,1,7,1,5,0,66,,train_dim1_1,23,30,2,0,2,0,,,,,,,,,0,0,0,0,0,22,22,22,5,0,5,0,,,,,,,,,,,,,,,,,,,,,,,,,,,,,,,,,,,,,,,,,,,,,,,,,,,,30,,,,,,,,167.37783700000728,167.37783700000728,167.37783700000728,167.37783700000728,167.37783700000728,return,0.4276436000363901,23,0,0,1,0.4,-0.32,return,0.35854099999414757,0,52,0.4,-0.32,,,,,,,,,,,,,,,,,,,,,,,,,,,,,A,train_x,x_increasing_steps,top_left,2024-10-29_23h16.13.373,HideSeek_v1,2022.2.5,59.74429442025522,
,4,4,7,4,3,0,46,,train_dim1_1,24,30,2,0,2,0,,,,,,,,,0,0,0,0,0,23,23,23,0,0,0,0,,,,,,,,,,,,,stimuli/alien_stimuli/46.png,,,,,,,,,,,,,,,,,,,,,,,,,,,,,stimuli/alien_stimuli/66.png,66,2,25,,,,,,,30,,,,,,,,171.5318337000208,171.5318337000208,171.5318337000208,171.5318337000208,171.5318337000208,right,0.5585127999656834,23,0,0,99,0.24,-0.08,right,0.4723022999824025,,,,,169.9753279000288,171.5318337000208,0.4,-0.32,0.0,0.4,-0.32,0.4,0.2,0.4,-0.32,169.39244780002628,169.39244780002628,169.39244780002628,169.39244780002628,169.39244780002628,169.39244780002628,169.39244780002628,169.39244780002628,169.34240094997222,0.7024576999829151,return,0.5648736000293866,,,,,,A,train_x,x_increasing_steps,top_left,2024-10-29_23h16.13.373,HideSeek_v1,2022.2.5,59.74429442025522,
,4,4,7,4,3,0,46,,train_dim1_1,24,30,2,0,2,0,,,,,,,,,0,0,0,0,0,23,23,23,1,0,1,0,,,,,,,,,,,,,,,,,,,,,,,,,,,,,,,,,,,,,,,,,,,,,,,,,,,,30,,,,,,,,172.0738793000346,172.0738793000346,172.0738793000346,172.0738793000346,172.0738793000346,right,0.3773749999818392,23,0,0,99,0.32,-0.08,right,0.3031866999808699,,,,,,,,,,,,,,,,,,,,,,,,,,,,,,,,,A,train_x,x_increasing_steps,top_left,2024-10-29_23h16.13.373,HideSeek_v1,2022.2.5,59.74429442025522,
,4,4,7,4,3,0,46,,train_dim1_1,24,30,2,0,2,0,,,,,,,,,0,0,0,0,0,23,23,23,2,0,2,0,,,,,,,,,,,,,,,,,,,,,,,,,,,,,,,,,,,,,,,,,,,,,,,,,,,,30,,,,,,,,172.45538950001355,172.45538950001355,172.45538950001355,172.45538950001355,172.45538950001355,right,0.32810300000710413,23,0,0,99,0.4,-0.08,right,0.2639725000481121,,,,,,,,,,,,,,,,,,,,,,,,,,,,,,,,,A,train_x,x_increasing_steps,top_left,2024-10-29_23h16.13.373,HideSeek_v1,2022.2.5,59.74429442025522,
,4,4,7,4,3,0,46,,train_dim1_1,24,30,2,0,2,0,,,,,,,,,0,0,0,0,0,23,23,23,3,0,3,0,,,,,,,,,,,,,,,,,,,,,,,,,,,,,,,,,,,,,,,,,,,,,,,,,,,,30,,,,,,,,172.79018660000293,172.79018660000293,172.79018660000293,172.79018660000293,172.79018660000293,return,0.3942953000077978,24,0,0,1,0.4,-0.08,return,0.322513599996455,0,55,0.4,-0.08,,,,,,,,,,,,,,,,,,,,,,,,,,,,,A,train_x,x_increasing_steps,top_left,2024-10-29_23h16.13.373,HideSeek_v1,2022.2.5,59.74429442025522,
,3,0,3,0,0,0,16,,train_dim1_1,25,30,2,0,2,0,,,,,,,,,0,0,0,0,0,24,24,24,0,0,0,0,,,,,,,,,,,,,stimuli/alien_stimuli/16.png,,,,,,,,,,,,,,,,,,,,,,,,,,,,,stimuli/alien_stimuli/46.png,46,4,26,,,,,,,30,,,,,,,,176.7974472999922,176.7974472999922,176.7974472999922,176.7974472999922,176.7974472999922,return,0.8249397000181489,25,0,0,1,0.08,-0.4,return,0.7185706999734975,0,55,0.08,-0.4,175.22552610002458,176.7974472999922,0.4,-0.08,0.0,0.24,-0.08,0.4,0.28,0.4,-0.08,174.76850170001853,174.76850170001853,174.76850170001853,174.76850170001853,174.76850170001853,174.76850170001853,174.76850170001853,174.76850170001853,174.72580524999648,0.568703800032381,return,0.4383533999789506,,,,,,A,train_x,x_increasing_steps,top_left,2024-10-29_23h16.13.373,HideSeek_v1,2022.2.5,59.74429442025522,
,1,1,6,1,5,0,66,,train_dim1_1,26,30,2,0,2,0,,,,,,,,,0,0,0,0,0,25,25,25,0,0,0,0,,,,,,,,,,,,,stimuli/alien_stimuli/66.png,,,,,,,,,,,,,,,,,,,,,,,,,,,,,stimuli/alien_stimuli/16.png,16,3,27,,,,,,,30,,,,,,,,181.04256959998747,181.04256959998747,181.04256959998747,181.04256959998747,181.04256959998747,right,3.9580842000432312,25,0,0,99,0.0,-0.32,right,3.8612276000203565,,,,,179.47556629998144,181.04256959998747,0.08,-0.4,0.0,0.0,-0.4,0.08,0.08,0.08,-0.4,179.19223580003018,179.19223580003018,179.19223580003018,179.19223580003018,179.19223580003018,179.19223580003018,179.19223580003018,179.19223580003018,179.1421602599672,0.4186418000026606,return,0.2590906000114046,,,,,,A,train_x,x_increasing_steps,top_left,2024-10-29_23h16.13.373,HideSeek_v1,2022.2.5,59.74429442025522,
,1,1,6,1,5,0,66,,train_dim1_1,26,30,2,0,2,0,,,,,,,,,0,0,0,0,0,25,25,25,1,0,1,0,,,,,,,,,,,,,,,,,,,,,,,,,,,,,,,,,,,,,,,,,,,,,,,,,,,,30,,,,,,,,184.97978500003228,184.97978500003228,184.97978500003228,184.97978500003228,184.97978500003228,right,0.27759640000294894,25,0,0,99,0.08,-0.32,right,0.2032743000308983,,,,,,,,,,,,,,,,,,,,,,,,,,,,,,,,,A,train_x,x_increasing_steps,top_left,2024-10-29_23h16.13.373,HideSeek_v1,2022.2.5,59.74429442025522,
,1,1,6,1,5,0,66,,train_dim1_1,26,30,2,0,2,0,,,,,,,,,0,0,0,0,0,25,25,25,2,0,2,0,,,,,,,,,,,,,,,,,,,,,,,,,,,,,,,,,,,,,,,,,,,,,,,,,,,,30,,,,,,,,185.26394780003466,185.26394780003466,185.26394780003466,185.26394780003466,185.26394780003466,right,0.3113415999687277,25,0,0,99,0.16,-0.32,right,0.24258479999843985,,,,,,,,,,,,,,,,,,,,,,,,,,,,,,,,,A,train_x,x_increasing_steps,top_left,2024-10-29_23h16.13.373,HideSeek_v1,2022.2.5,59.74429442025522,
,1,1,6,1,5,0,66,,train_dim1_1,26,30,2,0,2,0,,,,,,,,,0,0,0,0,0,25,25,25,3,0,3,0,,,,,,,,,,,,,,,,,,,,,,,,,,,,,,,,,,,,,,,,,,,,,,,,,,,,30,,,,,,,,185.6052807000233,185.6052807000233,185.6052807000233,185.6052807000233,185.6052807000233,right,0.328236699977424,25,0,0,99,0.24,-0.32,right,0.22362419997807592,,,,,,,,,,,,,,,,,,,,,,,,,,,,,,,,,A,train_x,x_increasing_steps,top_left,2024-10-29_23h16.13.373,HideSeek_v1,2022.2.5,59.74429442025522,
,1,1,6,1,5,0,66,,train_dim1_1,26,30,2,0,2,0,,,,,,,,,0,0,0,0,0,25,25,25,4,0,4,0,,,,,,,,,,,,,,,,,,,,,,,,,,,,,,,,,,,,,,,,,,,,,,,,,,,,30,,,,,,,,185.92550529999426,185.92550529999426,185.92550529999426,185.92550529999426,185.92550529999426,right,0.3279084000387229,25,0,0,99,0.32,-0.32,right,0.24429760000202805,,,,,,,,,,,,,,,,,,,,,,,,,,,,,,,,,A,train_x,x_increasing_steps,top_left,2024-10-29_23h16.13.373,HideSeek_v1,2022.2.5,59.74429442025522,
,1,1,6,1,5,0,66,,train_dim1_1,26,30,2,0,2,0,,,,,,,,,0,0,0,0,0,25,25,25,5,0,5,0,,,,,,,,,,,,,,,,,,,,,,,,,,,,,,,,,,,,,,,,,,,,,,,,,,,,30,,,,,,,,186.24799790000543,186.24799790000543,186.24799790000543,186.24799790000543,186.24799790000543,return,0.6274103000178002,26,0,0,1,0.32,-0.32,return,0.547629400040023,0,60,0.32,-0.32,,,,,,,,,,,,,,,,,,,,,,,,,,,,,A,train_x,x_increasing_steps,top_left,2024-10-29_23h16.13.373,HideSeek_v1,2022.2.5,59.74429442025522,
,0,1,2,1,2,0,36,,train_dim1_1,27,30,2,0,2,0,,,,,,,,,0,0,0,0,0,26,26,26,0,0,0,0,,,,,,,,,,,,,stimuli/alien_stimuli/36.png,,,,,,,,,,,,,,,,,,,,,,,,,,,,,stimuli/alien_stimuli/66.png,66,1,28,,,,,,,30,,,,,,,,197.5754971000133,197.5754971000133,197.5754971000133,197.5754971000133,197.5754971000133,right,0.6582356999861076,26,0,0,99,-0.08,-0.32,right,0.5531652999925427,,,,,196.00865109998267,197.5754971000133,0.32,-0.32,0.0,0.4,-0.32,0.32,0.12,0.32,-0.32,188.46151490003103,188.46151490003103,188.46151490003103,188.46151490003103,188.46151490003103,188.46151490003103,188.46151490003103,188.46151490003103,188.40917835000437,7.669410999980755,return,7.530646400002297,,,,,,A,train_x,x_increasing_steps,top_left,2024-10-29_23h16.13.373,HideSeek_v1,2022.2.5,59.74429442025522,
,0,1,2,1,2,0,36,,train_dim1_1,27,30,2,0,2,0,,,,,,,,,0,0,0,0,0,26,26,26,1,0,1,0,,,,,,,,,,,,,,,,,,,,,,,,,,,,,,,,,,,,,,,,,,,,,,,,,,,,30,,,,,,,,198.20936700003222,198.20936700003222,198.20936700003222,198.20936700003222,198.20936700003222,right,0.3435238000238314,26,0,0,99,0.0,-0.32,right,0.27869760000612587,,,,,,,,,,,,,,,,,,,,,,,,,,,,,,,,,A,train_x,x_increasing_steps,top_left,2024-10-29_23h16.13.373,HideSeek_v1,2022.2.5,59.74429442025522,
,0,1,2,1,2,0,36,,train_dim1_1,27,30,2,0,2,0,,,,,,,,,0,0,0,0,0,26,26,26,2,0,2,0,,,,,,,,,,,,,,,,,,,,,,,,,,,,,,,,,,,,,,,,,,,,,,,,,,,,30,,,,,,,,198.56262580002658,198.56262580002658,198.56262580002658,198.56262580002658,198.56262580002658,return,1.1439196999999695,27,0,0,1,0.0,-0.32,return,1.0707924000453204,0,62,0.0,-0.32,,,,,,,,,,,,,,,,,,,,,,,,,,,,,A,train_x,x_increasing_steps,top_left,2024-10-29_23h16.13.373,HideSeek_v1,2022.2.5,59.74429442025522,
,3,1,4,1,1,0,26,,train_dim1_1,28,30,2,0,2,0,,,,,,,,,0,0,0,0,0,27,27,27,0,0,0,0,,,,,,,,,,,,,stimuli/alien_stimuli/26.png,,,,,,,,,,,,,,,,,,,,,,,,,,,,,stimuli/alien_stimuli/36.png,36,0,29,,,,,,,30,,,,,,,,204.94853220001096,204.94853220001096,204.94853220001096,204.94853220001096,204.94853220001096,right,2.725469400000293,27,0,0,99,0.16,-0.32,right,2.6352989000151865,,,,,203.39194619999034,204.94853220001096,0,-0.32,0.0,0.16,-0.32,0,-0.08,0,-0.32,201.32006370002637,201.32006370002637,201.32006370002637,201.32006370002637,201.32006370002637,201.32006370002637,201.32006370002637,201.32006370002637,201.27555116998263,2.2183147000032477,return,2.0432972999988124,,,,,,A,train_x,x_increasing_steps,top_left,2024-10-29_23h16.13.373,HideSeek_v1,2022.2.5,59.74429442025522,
,3,1,4,1,1,0,26,,train_dim1_1,28,30,2,0,2,0,,,,,,,,,0,0,0,0,0,27,27,27,1,0,1,0,,,,,,,,,,,,,,,,,,,,,,,,,,,,,,,,,,,,,,,,,,,,,,,,,,,,30,,,,,,,,207.66483630001312,207.66483630001312,207.66483630001312,207.66483630001312,207.66483630001312,return,0.7604457000270486,28,0,0,1,0.16,-0.32,return,0.6810696999891661,0,63,0.16,-0.32,,,,,,,,,,,,,,,,,,,,,,,,,,,,,A,train_x,x_increasing_steps,top_left,2024-10-29_23h16.13.373,HideSeek_v1,2022.2.5,59.74429442025522,
,4,0,7,0,3,0,46,,train_dim1_1,29,30,2,0,2,0,,,,,,,,,0,0,0,0,0,28,28,28,0,0,0,0,,,,,,,,,,,,,stimuli/alien_stimuli/46.png,,,,,,,,,,,,,,,,,,,,,,,,,,,,,stimuli/alien_stimuli/26.png,26,3,30,,,,,,,30,,,,,,,,213.93366660003085,213.93366660003085,213.93366660003085,213.93366660003085,213.93366660003085,right,1.9252235000021756,28,0,0,99,0.24,-0.4,right,1.8377513000159524,,,,,212.37531179998768,213.93366660003085,0.16,-0.32,0.0,0.08,-0.32,0.16,0.12,0.16,-0.32,210.0146721000201,210.0146721000201,210.0146721000201,210.0146721000201,210.0146721000201,210.0146721000201,210.0146721000201,210.0146721000201,209.97565726001048,2.486713399994187,return,2.3457641000277363,,,,,,A,train_x,x_increasing_steps,top_left,2024-10-29_23h16.13.373,HideSeek_v1,2022.2.5,59.74429442025522,
,4,0,7,0,3,0,46,,train_dim1_1,29,30,2,0,2,0,,,,,,,,,0,0,0,0,0,28,28,28,1,0,1,0,,,,,,,,,,,,,,,,,,,,,,,,,,,,,,,,,,,,,,,,,,,,,,,,,,,,30,,,,,,,,215.84661060001235,215.84661060001235,215.84661060001235,215.84661060001235,215.84661060001235,right,0.9603843000368215,28,0,0,99,0.32,-0.4,right,0.8893137999693863,,,,,,,,,,,,,,,,,,,,,,,,,,,,,,,,,A,train_x,x_increasing_steps,top_left,2024-10-29_23h16.13.373,HideSeek_v1,2022.2.5,59.74429442025522,
,4,0,7,0,3,0,46,,train_dim1_1,29,30,2,0,2,0,,,,,,,,,0,0,0,0,0,28,28,28,2,0,2,0,,,,,,,,,,,,,,,,,,,,,,,,,,,,,,,,,,,,,,,,,,,,,,,,,,,,30,,,,,,,,216.81016120000277,216.81016120000277,216.81016120000277,216.81016120000277,216.81016120000277,right,0.2441252000280656,28,0,0,99,0.4,-0.4,right,0.16843099996913224,,,,,,,,,,,,,,,,,,,,,,,,,,,,,,,,,A,train_x,x_increasing_steps,top_left,2024-10-29_23h16.13.373,HideSeek_v1,2022.2.5,59.74429442025522,
,4,0,7,0,3,0,46,,train_dim1_1,29,30,2,0,2,0,,,,,,,,,0,0,0,0,0,28,28,28,3,0,3,0,,,,,,,,,,,,,,,,,,,,,,,,,,,,,,,,,,,,,,,,,,,,,,,,,,,,30,,,,,,,,217.05948210001225,217.05948210001225,217.05948210001225,217.05948210001225,217.05948210001225,return,0.6441800000029616,29,0,0,1,0.4,-0.4,return,0.5820315000019036,0,66,0.4,-0.4,,,,,,,,,,,,,,,,,,,,,,,,,,,,,A,train_x,x_increasing_steps,top_left,2024-10-29_23h16.13.373,HideSeek_v1,2022.2.5,59.74429442025522,
,2,2,2,2,0,0,16,,train_dim1_1,30,30,2,0,2,0,,,,,,,,,0,0,0,0,0,29,29,29,0,0,0,0,,,,,,,,,,,,,stimuli/alien_stimuli/16.png,,,,,,,,,,,,,,,,,,,,,,,,,,,,,stimuli/alien_stimuli/46.png,46,4,31,,,,,,,30,,,,,,,,222.6515633999952,222.6515633999952,222.6515633999952,222.6515633999952,222.6515633999952,return,1.2261570999980904,30,0,0,1,0,-0.24,return,1.1329517999547534,0,66,0,-0.24,221.09202590002678,222.6515633999952,0.4,-0.4,0.0,0.24,-0.4,0.4,0.28,0.4,-0.4,219.2843978999881,219.2843978999881,219.2843978999881,219.2843978999881,219.2843978999881,219.2843978999881,219.2843978999881,219.2843978999881,219.2420389499748,1.9186802000040188,return,1.7789952000021003,,,,,,A,train_x,x_increasing_steps,top_left,2024-10-29_23h16.13.373,HideSeek_v1,2022.2.5,59.74429442025522,
,,,,,,,,,,,30,2,0,2,0,,,,,,,,,,,,,,,,,,,,,,,,,,,,,,,,,,,,,,,,,,,,,,,,,,,,,,,,,,,,,,stimuli/alien_stimuli/16.png,16,2,32,17,0.7,1.25,1,1,1,30,0,conditions/schedules/train_x_first/x_increasing_steps/top_left/inputTrain_2.1.xlsx,99,1,2,1,0,,,,,,,,,,,1,,,,,,,,,225.95853509998415,227.50238710001577,0,-0.24,0.0,0.0,-0.24,0,0.0,0,-0.24,225.43948980001733,225.43948980001733,225.43948980001733,225.43948980001733,225.43948980001733,225.43948980001733,225.43948980001733,225.43948980001733,225.39215914998204,0.6348615000024438,return,0.497700400010217,0,1.25,0,1,30,A,train_x,x_increasing_steps,top_left,2024-10-29_23h16.13.373,HideSeek_v1,2022.2.5,59.74429442025522,
,,,,,,,,,,,,3,0,3,0,0,0,0,0,,,,,,,,,,,,,,,,,,,conditions/schedules/train_x_first/x_increasing_steps/top_left/instructions/Slide17.png,conditions/schedules/train_x_first/x_increasing_steps/top_left/instructions/Audio17.wav,227.50238710001577,227.49177392998243,17,"[3.6358805000199936, 1.3205813000095077, 0.41335970000363886, 0.4367087999708019, 0.3936929000192322, 0.35992720001377165, 0.3771625999943353, 0.3757622999837622, 0.3935524999978952, 0.788531799975317, 0.5081176999956369, 0.4727729999576695, 0.8147674000356346, 0.8065723999752663, 1.032067799998913, 0.6738818999729119, 2.0057808000128716]","[0.15282900002785027, 0.14610610000090674, 0.15291840001009405, 0.1596821999992244, 0.17551720002666116, 0.1603781000012532, 0.15898870001547039, 0.17620459996396676, 0.1873151999898255, 0.15747999999439344, 0.1727623000042513, 0.47277990001020953, 0.0561516999732703, 0.8065779999596998, 0.10651979997055605, 0.6738876999588683, 2.005787500005681]",0,,,,,,,,,,,,,,,,,,,,,,,,,,,,,,,,,,,,,,,,,,,,,,,,,,,,,,,,,,,,,,,,,,,,,,,,,,,,,,,,,,,,,,,,,,,,,,,,,A,train_x,x_increasing_steps,top_left,2024-10-29_23h16.13.373,HideSeek_v1,2022.2.5,59.74429442025522,
,,,,,,,,,,,,3,0,3,0,1,0,1,0,,,,,,,,,,,,,,,,,,,conditions/schedules/train_x_first/x_increasing_steps/top_left/instructions/Slide18.png,conditions/schedules/train_x_first/x_increasing_steps/top_left/instructions/Audio18.wav,229.5555136000039,229.55847353998107,18,"[3.6358805000199936, 1.3205813000095077, 0.41335970000363886, 0.4367087999708019, 0.3936929000192322, 0.35992720001377165, 0.3771625999943353, 0.3757622999837622, 0.3935524999978952, 0.788531799975317, 0.5081176999956369, 0.4727729999576695, 0.8147674000356346, 0.8065723999752663, 1.032067799998913, 0.6738818999729119, 2.0057808000128716, 0.5171702000079677]","[0.15282900002785027, 0.14610610000090674, 0.15291840001009405, 0.1596821999992244, 0.17551720002666116, 0.1603781000012532, 0.15898870001547039, 0.17620459996396676, 0.1873151999898255, 0.15747999999439344, 0.1727623000042513, 0.47277990001020953, 0.0561516999732703, 0.8065779999596998, 0.10651979997055605, 0.6738876999588683, 0.08347420004429296, 0.5171760000521317]",0,,,,,,,,,,,,,,,,,,,,,,,,,,,,,,,,,,,,,,,,,,,,,,,,,,,,,,,,,,,,,,,,,,,,,,,,,,,,,,,,,,,,,,,,,,,,,,,,,A,train_x,x_increasing_steps,top_left,2024-10-29_23h16.13.373,HideSeek_v1,2022.2.5,59.74429442025522,
,,,,,,,,,,,,3,0,3,0,2,0,2,0,,,,,,,,,,,,,,,,,,,conditions/schedules/train_x_first/x_increasing_steps/top_left/instructions/Slide19.png,conditions/schedules/train_x_first/x_increasing_steps/top_left/instructions/Audio19.wav,230.1086146000307,230.09187201997264,19,"[3.6358805000199936, 1.3205813000095077, 0.41335970000363886, 0.4367087999708019, 0.3936929000192322, 0.35992720001377165, 0.3771625999943353, 0.3757622999837622, 0.3935524999978952, 0.788531799975317, 0.5081176999956369, 0.4727729999576695, 0.8147674000356346, 0.8065723999752663, 1.032067799998913, 0.6738818999729119, 2.0057808000128716, 0.5171702000079677, 0.46904639998683706]","[0.15282900002785027, 0.14610610000090674, 0.15291840001009405, 0.1596821999992244, 0.17551720002666116, 0.1603781000012532, 0.15898870001547039, 0.17620459996396676, 0.1873151999898255, 0.15747999999439344, 0.1727623000042513, 0.47277990001020953, 0.0561516999732703, 0.8065779999596998, 0.10651979997055605, 0.6738876999588683, 0.08347420004429296, 0.13545719999819994, 0.46905199997127056]",0,,,,,,,,,,,,,,,,,,,,,,,,,,,,,,,,,,,,,,,,,,,,,,,,,,,,,,,,,,,,,,,,,,,,,,,,,,,,,,,,,,,,,,,,,,,,,,,,,A,train_x,x_increasing_steps,top_left,2024-10-29_23h16.13.373,HideSeek_v1,2022.2.5,59.74429442025522,
,,,,,,,,,,,,3,0,3,0,3,0,3,0,,,,,,,,,,,,,,,,,,,conditions/schedules/train_x_first/x_increasing_steps/top_left/instructions/Slide20.png,conditions/schedules/train_x_first/x_increasing_steps/top_left/instructions/Audio20.wav,230.6265031999792,230.62526474000188,20,"[3.6358805000199936, 1.3205813000095077, 0.41335970000363886, 0.4367087999708019, 0.3936929000192322, 0.35992720001377165, 0.3771625999943353, 0.3757622999837622, 0.3935524999978952, 0.788531799975317, 0.5081176999956369, 0.4727729999576695, 0.8147674000356346, 0.8065723999752663, 1.032067799998913, 0.6738818999729119, 2.0057808000128716, 0.5171702000079677, 0.46904639998683706, 0.5968270000303164]","[0.15282900002785027, 0.14610610000090674, 0.15291840001009405, 0.1596821999992244, 0.17551720002666116, 0.1603781000012532, 0.15898870001547039, 0.17620459996396676, 0.1873151999898255, 0.15747999999439344, 0.1727623000042513, 0.47277990001020953, 0.0561516999732703, 0.8065779999596998, 0.10651979997055605, 0.6738876999588683, 0.08347420004429296, 0.13545719999819994, 0.11282330000540242, 0.5968338000238873]",0,,,,,,,,,,,,,,,,,,,,,,,,,,,,,,,,,,,,,,,,,,,,,,,,,,,,,,,,,,,,,,,,,,,,,,,,,,,,,,,,,,,,,,,,,,,,,,,,,A,train_x,x_increasing_steps,top_left,2024-10-29_23h16.13.373,HideSeek_v1,2022.2.5,59.74429442025522,
1,3,2,8,2,5,0,66,2,instr_dim1_1,,,3,0,3,0,,,,,0,0,0,0,,,,,,,,,,,,,,,,,,,,,,,,,stimuli/alien_stimuli/66.png,conditions/schedules/train_x_first/x_increasing_steps/top_left/inputInstr_1.xlsx,stimuli/alien_stimuli/66.png,231.32549439999275,231.32549439999275,231.32549439999275,231.32549439999275,231.27541634001537,return,6.229770600039046,"[-0.16, -0.08, 0, 0.08, 0.16, 0.24, 0.32, 0.4, 0.48, 0.56]","[-0.4, -0.32, -0.24, -0.16, -0.08, 0, 0.08, 0.16, 0.24, 0.32]",2,2,8,3,0.0,0.4,237.7255906999926,237.7255906999926,237.7255906999926,237.7255906999926,237.7255906999926,237.7255906999926,237.7255906999926,237.65841585999587,0.4343232000246644,return,0.25138510001124814,stimuli/alien_stimuli/66.png,66,3,1,,,,,,,,,,,,,,,,,,,,,,,,,,,,,,,,,,,,,,,,,,,,,,,,,,,,,,,,,,,,,,A,train_x,x_increasing_steps,top_left,2024-10-29_23h16.13.373,HideSeek_v1,2022.2.5,59.74429442025522,
,,,,,,,,,,,30,3,0,3,0,,,,,,,,,,,,,,,,,,,,,,,,,,,,,,,,,,,,,,,,,,,,,,,,,,,,,,,,,,,,,,,,,,17,0.7,1.25,1,99,2,30,0,conditions/schedules/train_x_first/x_increasing_steps/top_left/inputTrain_2.1.xlsx,99,1,2,1,0,,,,,,,,,,,,,,,,,,,,,,,,,,,,,,,,,,,,,,,,,,,,,,,,A,train_x,x_increasing_steps,top_left,2024-10-29_23h16.13.373,HideSeek_v1,2022.2.5,59.74429442025522,
,,,,,,,,,,,,4,0,4,0,0,0,0,0,,,,,,,,,,,,,,,,,,,conditions/schedules/train_x_first/x_increasing_steps/top_left/instructions/Slide21.png,conditions/schedules/train_x_first/x_increasing_steps/top_left/instructions/Audio21.wav,238.11283850000473,238.10881366998655,21,"[3.6358805000199936, 1.3205813000095077, 0.41335970000363886, 0.4367087999708019, 0.3936929000192322, 0.35992720001377165, 0.3771625999943353, 0.3757622999837622, 0.3935524999978952, 0.788531799975317, 0.5081176999956369, 0.4727729999576695, 0.8147674000356346, 0.8065723999752663, 1.032067799998913, 0.6738818999729119, 2.0057808000128716, 0.5171702000079677, 0.46904639998683706, 0.5968270000303164, 1.6601074000354856]","[0.15282900002785027, 0.14610610000090674, 0.15291840001009405, 0.1596821999992244, 0.17551720002666116, 0.1603781000012532, 0.15898870001547039, 0.17620459996396676, 0.1873151999898255, 0.15747999999439344, 0.1727623000042513, 0.47277990001020953, 0.0561516999732703, 0.8065779999596998, 0.10651979997055605, 0.6738876999588683, 0.08347420004429296, 0.13545719999819994, 0.11282330000540242, 0.5968338000238873, 1.660113400022965]",0,,,,,,,,,,,,,,,,,,,,,,,,,,,,,,,,,,,,,,,,,,,,,,,,,,,,,,,,,,,,,,,,,,,,,,,,,,,,,,,,,,,,,,,,,,,,,,,,,A,train_x,x_increasing_steps,top_left,2024-10-29_23h16.13.373,HideSeek_v1,2022.2.5,59.74429442025522,
2,4,0,4,0,0,0,16,2,instr_dim1_1,,,4,0,4,0,,,,,0,0,0,0,,,,,,,,,,,,,,,,,,,,,,,,,stimuli/alien_stimuli/16.png,conditions/schedules/train_x_first/x_increasing_steps/top_left/inputInstr_1.xlsx,stimuli/alien_stimuli/16.png,239.85851639998145,239.85851639998145,239.85851639998145,239.85851639998145,239.8251452399767,return,0.753397100022994,"[-0.16, -0.08, 0, 0.08, 0.16, 0.24, 0.32, 0.4, 0.48, 0.56]","[-0.4, -0.32, -0.24, -0.16, -0.08, 0, 0.08, 0.16, 0.24, 0.32]",0,0,4,4,0.0,0.0,240.775480900018,240.775480900018,240.775480900018,240.775480900018,240.775480900018,240.775480900018,240.775480900018,240.725255359977,0.4175044000148773,return,0.25716099998680875,stimuli/alien_stimuli/16.png,16,4,2,,,,,,,,,,,,,,,,,,,,,,,,,,,,,,,,,,,,,,,,,,,,,,,,,,,,,,,,,,,,,,A,train_x,x_increasing_steps,top_left,2024-10-29_23h16.13.373,HideSeek_v1,2022.2.5,59.74429442025522,
,,,,,,,,,,,30,4,0,4,0,,,,,,,,,,,,,,,,,,,,,,,,,,,,,,,,,,,,,,,,,,,,,,,,,,,,,,,,,,,,,,,,,,17,0.7,1.25,1,99,2,30,0,conditions/schedules/train_x_first/x_increasing_steps/top_left/inputTrain_2.1.xlsx,99,1,2,1,0,,,,,,,,,,,,,,,,,,,,,,,,,,,,,,,,,,,,,,,,,,,,,,,,A,train_x,x_increasing_steps,top_left,2024-10-29_23h16.13.373,HideSeek_v1,2022.2.5,59.74429442025522,
,,,,,,,,,,,,5,0,5,0,0,0,0,0,,,,,,,,,,,,,,,,,,,conditions/schedules/train_x_first/x_increasing_steps/top_left/instructions/Slide22.png,conditions/schedules/train_x_first/x_increasing_steps/top_left/instructions/Audio22.wav,241.17202769999858,241.1587016699952,22,"[3.6358805000199936, 1.3205813000095077, 0.41335970000363886, 0.4367087999708019, 0.3936929000192322, 0.35992720001377165, 0.3771625999943353, 0.3757622999837622, 0.3935524999978952, 0.788531799975317, 0.5081176999956369, 0.4727729999576695, 0.8147674000356346, 0.8065723999752663, 1.032067799998913, 0.6738818999729119, 2.0057808000128716, 0.5171702000079677, 0.46904639998683706, 0.5968270000303164, 1.6601074000354856, 0.8009850999806076]","[0.15282900002785027, 0.14610610000090674, 0.15291840001009405, 0.1596821999992244, 0.17551720002666116, 0.1603781000012532, 0.15898870001547039, 0.17620459996396676, 0.1873151999898255, 0.15747999999439344, 0.1727623000042513, 0.47277990001020953, 0.0561516999732703, 0.8065779999596998, 0.10651979997055605, 0.6738876999588683, 0.08347420004429296, 0.13545719999819994, 0.11282330000540242, 0.5968338000238873, 1.660113400022965, 0.8009906000224873]",0,,,,,,,,,,,,,,,,,,,,,,,,,,,,,,,,,,,,,,,,,,,,,,,,,,,,,,,,,,,,,,,,,,,,,,,,,,,,,,,,,,,,,,,,,,,,,,,,,A,train_x,x_increasing_steps,top_left,2024-10-29_23h16.13.373,HideSeek_v1,2022.2.5,59.74429442025522,
,,,,,,,,,,,,,,,,,,,,,,,,,,,,,,,,,,,,,,,,,,,,,,,,stimuli/alien_stimuli/15.png,,,,,,,,,,,,,,,,,,,,,,,,,,,,,,,,,,,,,,,,,,,,,,,242.03612250002334,242.03612250002334,242.03612250002334,242.03612250002334,242.03612250002334,,,,,,,,,,,,,,,,,,,,,,,,,,,,,,,,,,,,,,,,,,,,,,,,,,,
