trialInstr,x_fixStart,y_fixStart,x_corrSteps,y_corrSteps,x_nrSteps,y_nrSteps,alienID,trialLength,version,trialTrain,praclen,beforeExpLoop.thisRepN,beforeExpLoop.thisTrialN,beforeExpLoop.thisN,beforeExpLoop.thisIndex,mini_instr_trials.thisRepN,mini_instr_trials.thisTrialN,mini_instr_trials.thisN,mini_instr_trials.thisIndex,instrLoop.thisRepN,instrLoop.thisTrialN,instrLoop.thisN,instrLoop.thisIndex,repeat_prac.thisRepN,repeat_prac.thisTrialN,repeat_prac.thisN,repeat_prac.thisIndex,trainLoop.thisRepN,trainLoop.thisTrialN,trainLoop.thisN,trainLoop.thisIndex,moveLoop_train.thisRepN,moveLoop_train.thisTrialN,moveLoop_train.thisN,moveLoop_train.thisIndex,experiment.thisRepN,experiment.thisTrialN,experiment.thisN,experiment.thisIndex,testlen,trial_label,moveLoop_test.thisRepN,moveLoop_test.thisTrialN,moveLoop_test.thisN,moveLoop_test.thisIndex,start_all_time,url,slideStim,audioStim,slides.started,sounds.started,nextButton.numClicks,nextButton.timesOn,nextButton.timesOff,prev_but.numClicks,prev_but.timesOn,prev_but.timesOff,alienStim,instrFile,alienStim_instr,gridImage_instr.started,startPos_3.started,key_instr.started,alienImage_3.started,sounds_1.started,key_instr.keys,key_instr.rt,all_x,all_y,FBy_corrSteps,FBy_fixStart,FBx_corrSteps,FBx_fixStart,FBy_pathSize_check,FBx_pathSize_check,gridImage_9.started,alienImageFB_3.started,startPosFB_3.started,keyFB_3.started,pathLine_ydir_2.started,pathLine_xdir_2.started,alienFace_3.started,sounds_2.started,RTFB_instr,keyFB_3.keys,keyFB_3.rt,draw_alienStim,draw_alienID,test_x,nrepcount,perfthres,percthres,earlierperf,earlystop,nextPrac,fileidx,praclen,saveACC_train,pracFile,nextPrac_train,addNrep,fileidx_endr,repExp,showearly,gridImage_4.started,startPos.started,movePos.started,key_resp.started,alienImage.started,buttonPress_train,RTchoice_train,cumAcctrain,aCorr,saveACC_choice,corrAns,x_movePos_end,y_movePos_end,key_resp.keys,key_resp.rt,wLy_dir,wLx_dir,x_movePos,y_movePos,text_2.started,text_2.stopped,aft_x_corrPos,aft_y_corrPos,y_pathSize_check,x_pathSize_check,y_pathdirY,x_pathdirY,x_pathdirX,x_corrPos,y_corrPos,gridImage_6.started,alienImageFB_2.started,startPosFB_2.started,movePosFB_2.started,keyFB_2.started,pathLine_xdir.started,pathLine_ydir.started,alienFace.started,sounds_4.started,RT_FBtrain,keyFB_2.keys,keyFB_2.rt,saveACC_pre,ACC,within_saveACC_train,earlystop_wloop,cumAcctrain_check,gridImage_3.started,alienImage_test.started,startPos_test.started,movePos_test.started,key_resp_test.started,participant,train_first,direction of x,starting corner,date,expName,psychopyVersion,frameRate,
,,,,,,,,,,,,0,0,0,0,0,0,0,0,,,,,,,,,,,,,,,,,,,,,,,,,,,start_all_time,testround,conditions/schedules/train_x_first/x_increasing_steps/top_left/instructions/Slide1.png,conditions/schedules/train_x_first/x_increasing_steps/top_left/instructions/Audio1.wav,39.526175100007094,39.473014599812444,1,[4.644008600036614],[4.64401769998949],0,,,,,,,,,,,,,,,,,,,,,,,,,,,,,,,,,,,,,,,,,,,,,,,,,,,,,,,,,,,,,,,,,,,,,,,,,,,,,,,,,,,,,,,,,,,,,,,,,,,,,,A,train_x,x_increasing_steps,top_left,2024-10-29_23h27.35.844,HideSeek_v1,2022.2.5,60.44560498012444,
,,,,,,,,,,,,0,0,0,0,1,0,1,0,,,,,,,,,,,,,,,,,,,,,,,,,,,,,conditions/schedules/train_x_first/x_increasing_steps/top_left/instructions/Slide2.png,conditions/schedules/train_x_first/x_increasing_steps/top_left/instructions/Audio2.wav,44.189659199968446,44.17272799996426,2,"[4.644008600036614, 0.3743260999908671]","[0.14003739994950593, 0.3743326999829151]",0,,,,,,,,,,,,,,,,,,,,,,,,,,,,,,,,,,,,,,,,,,,,,,,,,,,,,,,,,,,,,,,,,,,,,,,,,,,,,,,,,,,,,,,,,,,,,,,,,,,,,,A,train_x,x_increasing_steps,top_left,2024-10-29_23h27.35.844,HideSeek_v1,2022.2.5,60.44560498012444,
,,,,,,,,,,,,0,0,0,0,2,0,2,0,,,,,,,,,,,,,,,,,,,,,,,,,,,,,conditions/schedules/train_x_first/x_increasing_steps/top_left/instructions/Slide3.png,conditions/schedules/train_x_first/x_increasing_steps/top_left/instructions/Audio3.wav,44.60916549997637,44.6066993999877,3,"[4.644008600036614, 0.3743260999908671, 0.39635190000990406]","[0.14003739994950593, 0.1639331000042148, 0.3963590000057593]",0,,,,,,,,,,,,,,,,,,,,,,,,,,,,,,,,,,,,,,,,,,,,,,,,,,,,,,,,,,,,,,,,,,,,,,,,,,,,,,,,,,,,,,,,,,,,,,,,,,,,,,A,train_x,x_increasing_steps,top_left,2024-10-29_23h27.35.844,HideSeek_v1,2022.2.5,60.44560498012444,
,,,,,,,,,,,,0,0,0,0,3,0,3,0,,,,,,,,,,,,,,,,,,,,,,,,,,,,,conditions/schedules/train_x_first/x_increasing_steps/top_left/instructions/Slide4.png,conditions/schedules/train_x_first/x_increasing_steps/top_left/instructions/Audio4.wav,45.06139930000063,45.056411799963094,4,"[4.644008600036614, 0.3743260999908671, 0.39635190000990406, 0.37714880000567064]","[0.14003739994950593, 0.1639331000042148, 0.12865879997843876, 0.3771552999969572]",0,,,,,,,,,,,,,,,,,,,,,,,,,,,,,,,,,,,,,,,,,,,,,,,,,,,,,,,,,,,,,,,,,,,,,,,,,,,,,,,,,,,,,,,,,,,,,,,,,,,,,,A,train_x,x_increasing_steps,top_left,2024-10-29_23h27.35.844,HideSeek_v1,2022.2.5,60.44560498012444,
,,,,,,,,,,,,0,0,0,0,4,0,4,0,,,,,,,,,,,,,,,,,,,,,,,,,,,,,conditions/schedules/train_x_first/x_increasing_steps/top_left/instructions/Slide5.png,conditions/schedules/train_x_first/x_increasing_steps/top_left/instructions/Audio5.wav,45.48991850001039,45.4730034999724,5,"[4.644008600036614, 0.3743260999908671, 0.39635190000990406, 0.37714880000567064, 0.48543589998735115]","[0.14003739994950593, 0.1639331000042148, 0.12865879997843876, 0.15204760001506656, 0.4854423999786377]",0,,,,,,,,,,,,,,,,,,,,,,,,,,,,,,,,,,,,,,,,,,,,,,,,,,,,,,,,,,,,,,,,,,,,,,,,,,,,,,,,,,,,,,,,,,,,,,,,,,,,,,A,train_x,x_increasing_steps,top_left,2024-10-29_23h27.35.844,HideSeek_v1,2022.2.5,60.44560498012444,
,,,,,,,,,,,,0,0,0,0,5,0,5,0,,,,,,,,,,,,,,,,,,,,,,,,,,,,,conditions/schedules/train_x_first/x_increasing_steps/top_left/instructions/Slide6.png,conditions/schedules/train_x_first/x_increasing_steps/top_left/instructions/Audio6.wav,46.00906529999338,46.00667269999976,6,"[4.644008600036614, 0.3743260999908671, 0.39635190000990406, 0.37714880000567064, 0.48543589998735115, 0.37962809996679425]","[0.14003739994950593, 0.1639331000042148, 0.12865879997843876, 0.15204760001506656, 0.16213889996288344, 0.3796407000045292]",0,,,,,,,,,,,,,,,,,,,,,,,,,,,,,,,,,,,,,,,,,,,,,,,,,,,,,,,,,,,,,,,,,,,,,,,,,,,,,,,,,,,,,,,,,,,,,,,,,,,,,,A,train_x,x_increasing_steps,top_left,2024-10-29_23h27.35.844,HideSeek_v1,2022.2.5,60.44560498012444,
,,,,,,,,,,,,0,0,0,0,6,0,6,0,,,,,,,,,,,,,,,,,,,,,,,,,,,,,conditions/schedules/train_x_first/x_increasing_steps/top_left/instructions/Slide7.png,conditions/schedules/train_x_first/x_increasing_steps/top_left/instructions/Audio7.wav,46.42683519999264,46.423509899998315,7,"[4.644008600036614, 0.3743260999908671, 0.39635190000990406, 0.37714880000567064, 0.48543589998735115, 0.37962809996679425, 0.41163279995089397]","[0.14003739994950593, 0.1639331000042148, 0.12865879997843876, 0.15204760001506656, 0.16213889996288344, 0.1779988999478519, 0.4116394000011496]",0,,,,,,,,,,,,,,,,,,,,,,,,,,,,,,,,,,,,,,,,,,,,,,,,,,,,,,,,,,,,,,,,,,,,,,,,,,,,,,,,,,,,,,,,,,,,,,,,,,,,,,A,train_x,x_increasing_steps,top_left,2024-10-29_23h27.35.844,HideSeek_v1,2022.2.5,60.44560498012444,
,,,,,,,,,,,,0,0,0,0,7,0,7,0,,,,,,,,,,,,,,,,,,,,,,,,,,,,,conditions/schedules/train_x_first/x_increasing_steps/top_left/instructions/Slide8.png,conditions/schedules/train_x_first/x_increasing_steps/top_left/instructions/Audio8.wav,46.889913899998646,46.87334389996831,8,"[4.644008600036614, 0.3743260999908671, 0.39635190000990406, 0.37714880000567064, 0.48543589998735115, 0.37962809996679425, 0.41163279995089397, 0.45220970001537353]","[0.14003739994950593, 0.1639331000042148, 0.12865879997843876, 0.15204760001506656, 0.16213889996288344, 0.1779988999478519, 0.15157809999072924, 0.45221529999980703]",0,,,,,,,,,,,,,,,,,,,,,,,,,,,,,,,,,,,,,,,,,,,,,,,,,,,,,,,,,,,,,,,,,,,,,,,,,,,,,,,,,,,,,,,,,,,,,,,,,,,,,,A,train_x,x_increasing_steps,top_left,2024-10-29_23h27.35.844,HideSeek_v1,2022.2.5,60.44560498012444,
,,,,,,,,,,,,0,0,0,0,8,0,8,0,,,,,,,,,,,,,,,,,,,,,,,,,,,,,conditions/schedules/train_x_first/x_increasing_steps/top_left/instructions/Slide9.png,conditions/schedules/train_x_first/x_increasing_steps/top_left/instructions/Audio9.wav,47.3780231999699,47.3734230999893,9,"[4.644008600036614, 0.3743260999908671, 0.39635190000990406, 0.37714880000567064, 0.48543589998735115, 0.37962809996679425, 0.41163279995089397, 0.45220970001537353, 1.1445273999706842]","[0.14003739994950593, 0.1639331000042148, 0.12865879997843876, 0.15204760001506656, 0.16213889996288344, 0.1779988999478519, 0.15157809999072924, 0.1603078999905847, 1.1445337999612093]",0,,,,,,,,,,,,,,,,,,,,,,,,,,,,,,,,,,,,,,,,,,,,,,,,,,,,,,,,,,,,,,,,,,,,,,,,,,,,,,,,,,,,,,,,,,,,,,,,,,,,,,A,train_x,x_increasing_steps,top_left,2024-10-29_23h27.35.844,HideSeek_v1,2022.2.5,60.44560498012444,
,,,,,,,,,,,,0,0,0,0,9,0,9,0,,,,,,,,,,,,,,,,,,,,,,,,,,,,,conditions/schedules/train_x_first/x_increasing_steps/top_left/instructions/Slide10.png,conditions/schedules/train_x_first/x_increasing_steps/top_left/instructions/Audio10.wav,48.55674430000363,48.54008949998533,10,"[4.644008600036614, 0.3743260999908671, 0.39635190000990406, 0.37714880000567064, 0.48543589998735115, 0.37962809996679425, 0.41163279995089397, 0.45220970001537353, 1.1445273999706842, 0.7237837999709882]","[0.14003739994950593, 0.1639331000042148, 0.12865879997843876, 0.15204760001506656, 0.16213889996288344, 0.1779988999478519, 0.15157809999072924, 0.1603078999905847, 0.1717153000063263, 0.7237904999637976]",0,,,,,,,,,,,,,,,,,,,,,,,,,,,,,,,,,,,,,,,,,,,,,,,,,,,,,,,,,,,,,,,,,,,,,,,,,,,,,,,,,,,,,,,,,,,,,,,,,,,,,,A,train_x,x_increasing_steps,top_left,2024-10-29_23h27.35.844,HideSeek_v1,2022.2.5,60.44560498012444,
,,,,,,,,,,,,0,0,0,0,10,0,10,0,,,,,,,,,,,,,,,,,,,,,,,,,,,,,conditions/schedules/train_x_first/x_increasing_steps/top_left/instructions/Slide11.png,conditions/schedules/train_x_first/x_increasing_steps/top_left/instructions/Audio11.wav,49.32339749997482,49.30647749995696,11,"[4.644008600036614, 0.3743260999908671, 0.39635190000990406, 0.37714880000567064, 0.48543589998735115, 0.37962809996679425, 0.41163279995089397, 0.45220970001537353, 1.1445273999706842, 0.7237837999709882, 0.6556941000162624]","[0.14003739994950593, 0.1639331000042148, 0.12865879997843876, 0.15204760001506656, 0.16213889996288344, 0.1779988999478519, 0.15157809999072924, 0.1603078999905847, 0.1717153000063263, 0.15542990004178137, 0.6557009000098333]",0,,,,,,,,,,,,,,,,,,,,,,,,,,,,,,,,,,,,,,,,,,,,,,,,,,,,,,,,,,,,,,,,,,,,,,,,,,,,,,,,,,,,,,,,,,,,,,,,,,,,,,A,train_x,x_increasing_steps,top_left,2024-10-29_23h27.35.844,HideSeek_v1,2022.2.5,60.44560498012444,
,,,,,,,,,,,,0,0,0,0,11,0,11,0,,,,,,,,,,,,,,,,,,,,,,,,,,,,,conditions/schedules/train_x_first/x_increasing_steps/top_left/instructions/Slide12.png,conditions/schedules/train_x_first/x_increasing_steps/top_left/instructions/Audio12.wav,50.023683100007474,50.0066356000083,12,"[4.644008600036614, 0.3743260999908671, 0.39635190000990406, 0.37714880000567064, 0.48543589998735115, 0.37962809996679425, 0.41163279995089397, 0.45220970001537353, 1.1445273999706842, 0.7237837999709882, 0.6556941000162624, 0.6399773000157438]","[0.14003739994950593, 0.1639331000042148, 0.12865879997843876, 0.15204760001506656, 0.16213889996288344, 0.1779988999478519, 0.15157809999072924, 0.1603078999905847, 0.1717153000063263, 0.15542990004178137, 0.17367629997897893, 0.6399841000093147]",0,,,,,,,,,,,,,,,,,,,,,,,,,,,,,,,,,,,,,,,,,,,,,,,,,,,,,,,,,,,,,,,,,,,,,,,,,,,,,,,,,,,,,,,,,,,,,,,,,,,,,,A,train_x,x_increasing_steps,top_left,2024-10-29_23h27.35.844,HideSeek_v1,2022.2.5,60.44560498012444,
1,3,2,8,2,5,0,66,2,instr_dim1_1,,,0,0,0,0,,,,,0,0,0,0,,,,,,,,,,,,,,,,,,,,,,,,,,,,,,,,,,,stimuli/alien_stimuli/66.png,conditions/schedules/train_x_first/x_increasing_steps/top_left/inputInstr_1.xlsx,stimuli/alien_stimuli/66.png,50.72327670000959,50.72327670000959,50.72327670000959,50.72327670000959,50.70646459998097,return,1.4435516000376083,"[-0.16, -0.08, 0, 0.08, 0.16, 0.24, 0.32, 0.4, 0.48, 0.56]","[-0.4, -0.32, -0.24, -0.16, -0.08, 0, 0.08, 0.16, 0.24, 0.32]",2,2,8,3,0.0,0.4,52.30658099998254,52.30658099998254,52.30658099998254,52.30658099998254,52.30658099998254,52.30658099998254,52.30658099998254,52.2730595999863,0.4345780999865383,return,0.29548650002107024,stimuli/alien_stimuli/66.png,66,3,1,,,,,,,,,,,,,,,,,,,,,,,,,,,,,,,,,,,,,,,,,,,,,,,,,,,,,,,,,,,,,,,,,,,A,train_x,x_increasing_steps,top_left,2024-10-29_23h27.35.844,HideSeek_v1,2022.2.5,60.44560498012444,
,,,,,,,,,,,30,0,0,0,0,,,,,,,,,,,,,,,,,,,,,,,,,,,,,,,,,,,,,,,,,,,,,,,,,,,,,,,,,,,,,,,,,,,,,,,,,,,,17,0.7,0,0,99,1,30,0,conditions/schedules/train_x_first/x_increasing_steps/top_left/inputTrain_1.1.xlsx,99,1,1,1,0,,,,,,,,,,,,,,,,,,,,,,,,,,,,,,,,,,,,,,,,,,,,,,,,,,,,,A,train_x,x_increasing_steps,top_left,2024-10-29_23h27.35.844,HideSeek_v1,2022.2.5,60.44560498012444,
,,,,,,,,,,,,1,0,1,0,0,0,0,0,,,,,,,,,,,,,,,,,,,,,,,,,,,,,conditions/schedules/train_x_first/x_increasing_steps/top_left/instructions/Slide13.png,conditions/schedules/train_x_first/x_increasing_steps/top_left/instructions/Audio13.wav,52.71726349997334,52.70668119996553,13,"[4.644008600036614, 0.3743260999908671, 0.39635190000990406, 0.37714880000567064, 0.48543589998735115, 0.37962809996679425, 0.41163279995089397, 0.45220970001537353, 1.1445273999706842, 0.7237837999709882, 0.6556941000162624, 0.6399773000157438, 0.8884019000106491]","[0.14003739994950593, 0.1639331000042148, 0.12865879997843876, 0.15204760001506656, 0.16213889996288344, 0.1779988999478519, 0.15157809999072924, 0.1603078999905847, 0.1717153000063263, 0.15542990004178137, 0.17367629997897893, 0.6399841000093147, 0.8884101000148803]",0,,,,,,,,,,,,,,,,,,,,,,,,,,,,,,,,,,,,,,,,,,,,,,,,,,,,,,,,,,,,,,,,,,,,,,,,,,,,,,,,,,,,,,,,,,,,,,,,,,,,,,A,train_x,x_increasing_steps,top_left,2024-10-29_23h27.35.844,HideSeek_v1,2022.2.5,60.44560498012444,
,,,,,,,,,,,,1,0,1,0,1,0,1,0,,,,,,,,,,,,,,,,,,,,,,,,,,,,,conditions/schedules/train_x_first/x_increasing_steps/top_left/instructions/Slide14.png,conditions/schedules/train_x_first/x_increasing_steps/top_left/instructions/Audio14.wav,53.650835899985395,53.639748799969674,14,"[4.644008600036614, 0.3743260999908671, 0.39635190000990406, 0.37714880000567064, 0.48543589998735115, 0.37962809996679425, 0.41163279995089397, 0.45220970001537353, 1.1445273999706842, 0.7237837999709882, 0.6556941000162624, 0.6399773000157438, 0.8884019000106491, 0.5702399000292644]","[0.14003739994950593, 0.1639331000042148, 0.12865879997843876, 0.15204760001506656, 0.16213889996288344, 0.1779988999478519, 0.15157809999072924, 0.1603078999905847, 0.1717153000063263, 0.15542990004178137, 0.17367629997897893, 0.6399841000093147, 0.17017350002424791, 0.570245300012175]",0,,,,,,,,,,,,,,,,,,,,,,,,,,,,,,,,,,,,,,,,,,,,,,,,,,,,,,,,,,,,,,,,,,,,,,,,,,,,,,,,,,,,,,,,,,,,,,,,,,,,,,A,train_x,x_increasing_steps,top_left,2024-10-29_23h27.35.844,HideSeek_v1,2022.2.5,60.44560498012444,
2,4,0,4,0,0,0,16,2,instr_dim1_1,,,1,0,1,0,,,,,0,0,0,0,,,,,,,,,,,,,,,,,,,,,,,,,,,,,,,,,,,stimuli/alien_stimuli/16.png,conditions/schedules/train_x_first/x_increasing_steps/top_left/inputInstr_1.xlsx,stimuli/alien_stimuli/16.png,54.30626260000281,54.30626260000281,54.30626260000281,54.30626260000281,54.272768599959086,return,0.6267351999995299,"[-0.16, -0.08, 0, 0.08, 0.16, 0.24, 0.32, 0.4, 0.48, 0.56]","[-0.4, -0.32, -0.24, -0.16, -0.08, 0, 0.08, 0.16, 0.24, 0.32]",0,0,4,4,0.0,0.0,55.106829900003504,55.106829900003504,55.106829900003504,55.106829900003504,55.106829900003504,55.106829900003504,55.106829900003504,55.0395375999622,0.4675678000203334,return,0.2901150000398047,stimuli/alien_stimuli/16.png,16,4,2,,,,,,,,,,,,,,,,,,,,,,,,,,,,,,,,,,,,,,,,,,,,,,,,,,,,,,,,,,,,,,,,,,,A,train_x,x_increasing_steps,top_left,2024-10-29_23h27.35.844,HideSeek_v1,2022.2.5,60.44560498012444,
,,,,,,,,,,,30,1,0,1,0,,,,,,,,,,,,,,,,,,,,,,,,,,,,,,,,,,,,,,,,,,,,,,,,,,,,,,,,,,,,,,,,,,,,,,,,,,,,17,0.7,0,0,99,1,30,0,conditions/schedules/train_x_first/x_increasing_steps/top_left/inputTrain_1.1.xlsx,99,1,1,1,0,,,,,,,,,,,,,,,,,,,,,,,,,,,,,,,,,,,,,,,,,,,,,,,,,,,,,A,train_x,x_increasing_steps,top_left,2024-10-29_23h27.35.844,HideSeek_v1,2022.2.5,60.44560498012444,
,,,,,,,,,,,,2,0,2,0,0,0,0,0,,,,,,,,,,,,,,,,,,,,,,,,,,,,,conditions/schedules/train_x_first/x_increasing_steps/top_left/instructions/Slide15.png,conditions/schedules/train_x_first/x_increasing_steps/top_left/instructions/Audio15.wav,55.532603200001176,55.5229486999975,15,"[4.644008600036614, 0.3743260999908671, 0.39635190000990406, 0.37714880000567064, 0.48543589998735115, 0.37962809996679425, 0.41163279995089397, 0.45220970001537353, 1.1445273999706842, 0.7237837999709882, 0.6556941000162624, 0.6399773000157438, 0.8884019000106491, 0.5702399000292644, 0.8402631999924779]","[0.14003739994950593, 0.1639331000042148, 0.12865879997843876, 0.15204760001506656, 0.16213889996288344, 0.1779988999478519, 0.15157809999072924, 0.1603078999905847, 0.1717153000063263, 0.15542990004178137, 0.17367629997897893, 0.6399841000093147, 0.17017350002424791, 0.570245300012175, 0.8402709999936633]",0,,,,,,,,,,,,,,,,,,,,,,,,,,,,,,,,,,,,,,,,,,,,,,,,,,,,,,,,,,,,,,,,,,,,,,,,,,,,,,,,,,,,,,,,,,,,,,,,,,,,,,A,train_x,x_increasing_steps,top_left,2024-10-29_23h27.35.844,HideSeek_v1,2022.2.5,60.44560498012444,
,,,,,,,,,,,,2,0,2,0,1,0,1,0,,,,,,,,,,,,,,,,,,,,,,,,,,,,,conditions/schedules/train_x_first/x_increasing_steps/top_left/instructions/Slide16.png,conditions/schedules/train_x_first/x_increasing_steps/top_left/instructions/Audio16.wav,56.41880260000471,56.40626259998535,16,"[4.644008600036614, 0.3743260999908671, 0.39635190000990406, 0.37714880000567064, 0.48543589998735115, 0.37962809996679425, 0.41163279995089397, 0.45220970001537353, 1.1445273999706842, 0.7237837999709882, 0.6556941000162624, 0.6399773000157438, 0.8884019000106491, 0.5702399000292644, 0.8402631999924779, 0.4707971000461839]","[0.14003739994950593, 0.1639331000042148, 0.12865879997843876, 0.15204760001506656, 0.16213889996288344, 0.1779988999478519, 0.15157809999072924, 0.1603078999905847, 0.1717153000063263, 0.15542990004178137, 0.17367629997897893, 0.6399841000093147, 0.17017350002424791, 0.570245300012175, 0.16953720001038164, 0.47080440004356205]",0,,,,,,,,,,,,,,,,,,,,,,,,,,,,,,,,,,,,,,,,,,,,,,,,,,,,,,,,,,,,,,,,,,,,,,,,,,,,,,,,,,,,,,,,,,,,,,,,,,,,,,A,train_x,x_increasing_steps,top_left,2024-10-29_23h27.35.844,HideSeek_v1,2022.2.5,60.44560498012444,
,2,1,4,1,2,0,36,,train_dim1_1,1,30,2,0,2,0,,,,,,,,,0,0,0,0,0,0,0,0,0,0,0,0,,,,,,,,,,,,,,,,,,,,,,,stimuli/alien_stimuli/36.png,,,,,,,,,,,,,,,,,,,,,,,,,,,,,,,,,,,,,,,30,,,,,,,,56.95636640000157,56.95636640000157,56.95636640000157,56.95636640000157,56.95636640000157,right,1.2060078000067733,0,0,0,99,0.08,-0.32,right,1.1184796000015922,,,,,,,,,,,,,,,,,,,,,,,,,,,,,,,,,,,,,,A,train_x,x_increasing_steps,top_left,2024-10-29_23h27.35.844,HideSeek_v1,2022.2.5,60.44560498012444,
,2,1,4,1,2,0,36,,train_dim1_1,1,30,2,0,2,0,,,,,,,,,0,0,0,0,0,0,0,0,1,0,1,0,,,,,,,,,,,,,,,,,,,,,,,,,,,,,,,,,,,,,,,,,,,,,,,,,,,,,,,,,,,,,,30,,,,,,,,58.16015710000647,58.16015710000647,58.16015710000647,58.16015710000647,58.16015710000647,right,1.093843700014986,0,0,0,99,0.16,-0.32,right,1.0238711000420153,,,,,,,,,,,,,,,,,,,,,,,,,,,,,,,,,,,,,,A,train_x,x_increasing_steps,top_left,2024-10-29_23h27.35.844,HideSeek_v1,2022.2.5,60.44560498012444,
,2,1,4,1,2,0,36,,train_dim1_1,1,30,2,0,2,0,,,,,,,,,0,0,0,0,0,0,0,0,2,0,2,0,,,,,,,,,,,,,,,,,,,,,,,,,,,,,,,,,,,,,,,,,,,,,,,,,,,,,,,,,,,,,,30,,,,,,,,59.26083619997371,59.26083619997371,59.26083619997371,59.26083619997371,59.26083619997371,return,2.4940994000062346,1,0,0,1,0.16,-0.32,return,2.4230695000151172,0,2,0.16,-0.32,,,,,,,,,,,,,,,,,,,,,,,,,,,,,,,,,,A,train_x,x_increasing_steps,top_left,2024-10-29_23h27.35.844,HideSeek_v1,2022.2.5,60.44560498012444,
,2,4,2,4,0,0,16,,train_dim1_1,2,30,2,0,2,0,,,,,,,,,0,0,0,0,0,1,1,1,0,0,0,0,,,,,,,,,,,,,,,,,,,,,,,stimuli/alien_stimuli/16.png,,,,,,,,,,,,,,,,,,,,,,,,,,,,,stimuli/alien_stimuli/36.png,36,2,3,,,,,,,30,,,,,,,,74.29651600000216,74.29651600000216,74.29651600000216,74.29651600000216,74.29651600000216,return,1.2588938999688253,2,0,0,1,0,-0.08,return,1.1153296999982558,0,2,0,-0.08,72.68965869996464,74.29651600000216,0.16,-0.32,0.0,0.16,-0.32,0.16,0.08,0.16,-0.32,63.30634519999148,63.30634519999148,63.30634519999148,63.30634519999148,63.30634519999148,63.30634519999148,63.30634519999148,63.30634519999148,63.28961030000937,9.469281400030013,return,9.35413220000919,,,,,,,,,,,A,train_x,x_increasing_steps,top_left,2024-10-29_23h27.35.844,HideSeek_v1,2022.2.5,60.44560498012444,
,4,4,5,4,1,0,26,,train_dim1_1,3,30,2,0,2,0,,,,,,,,,0,0,0,0,0,2,2,2,0,0,0,0,,,,,,,,,,,,,,,,,,,,,,,stimuli/alien_stimuli/26.png,,,,,,,,,,,,,,,,,,,,,,,,,,,,,stimuli/alien_stimuli/16.png,16,2,4,,,,,,,30,,,,,,,,79.11618559999624,79.11618559999624,79.11618559999624,79.11618559999624,79.11618559999624,right,0.7747749999980442,2,0,0,99,0.24,-0.08,right,0.6442314999876544,,,,,77.52292099996703,79.11618559999624,0,-0.08,0.0,0.0,-0.08,0,0.0,0,-0.08,77.1055231000064,77.1055231000064,77.1055231000064,77.1055231000064,77.1055231000064,77.1055231000064,77.1055231000064,77.1055231000064,77.02308859999175,0.5680125000071712,return,0.3908471000031568,,,,,,,,,,,A,train_x,x_increasing_steps,top_left,2024-10-29_23h27.35.844,HideSeek_v1,2022.2.5,60.44560498012444,
,4,4,5,4,1,0,26,,train_dim1_1,3,30,2,0,2,0,,,,,,,,,0,0,0,0,0,2,2,2,1,0,1,0,,,,,,,,,,,,,,,,,,,,,,,,,,,,,,,,,,,,,,,,,,,,,,,,,,,,,,,,,,,,,,30,,,,,,,,79.84813589998521,79.84813589998521,79.84813589998521,79.84813589998521,79.84813589998521,return,0.27734910004073754,3,0,0,1,0.24,-0.08,return,0.20519539999077097,0,3,0.24,-0.08,,,,,,,,,,,,,,,,,,,,,,,,,,,,,,,,,,A,train_x,x_increasing_steps,top_left,2024-10-29_23h27.35.844,HideSeek_v1,2022.2.5,60.44560498012444,
,2,3,5,3,3,0,46,,train_dim1_1,4,30,2,0,2,0,,,,,,,,,0,0,0,0,0,3,3,3,0,0,0,0,,,,,,,,,,,,,,,,,,,,,,,stimuli/alien_stimuli/46.png,,,,,,,,,,,,,,,,,,,,,,,,,,,,,stimuli/alien_stimuli/26.png,26,4,5,,,,,,,30,,,,,,,,84.0153553999844,84.0153553999844,84.0153553999844,84.0153553999844,84.0153553999844,right,2.7250745000201277,3,0,0,99,0.08,-0.16,right,2.6263654000358656,,,,,82.45589360001031,84.0153553999844,0.24,-0.08,0.0,0.08,-0.08,0.24,0.2,0.24,-0.08,81.73700409999583,81.73700409999583,81.73700409999583,81.73700409999583,81.73700409999583,81.73700409999583,81.73700409999583,81.73700409999583,81.65635450000991,0.8681014000321738,return,0.6983326000045054,,,,,,,,,,,A,train_x,x_increasing_steps,top_left,2024-10-29_23h27.35.844,HideSeek_v1,2022.2.5,60.44560498012444,
,2,3,5,3,3,0,46,,train_dim1_1,4,30,2,0,2,0,,,,,,,,,0,0,0,0,0,3,3,3,1,0,1,0,,,,,,,,,,,,,,,,,,,,,,,,,,,,,,,,,,,,,,,,,,,,,,,,,,,,,,,,,,,,,,30,,,,,,,,86.7283432999975,86.7283432999975,86.7283432999975,86.7283432999975,86.7283432999975,right,0.7607260000077076,3,0,0,99,0.16,-0.16,right,0.6946314999950118,,,,,,,,,,,,,,,,,,,,,,,,,,,,,,,,,,,,,,A,train_x,x_increasing_steps,top_left,2024-10-29_23h27.35.844,HideSeek_v1,2022.2.5,60.44560498012444,
,2,3,5,3,3,0,46,,train_dim1_1,4,30,2,0,2,0,,,,,,,,,0,0,0,0,0,3,3,3,2,0,2,0,,,,,,,,,,,,,,,,,,,,,,,,,,,,,,,,,,,,,,,,,,,,,,,,,,,,,,,,,,,,,,30,,,,,,,,87.49023200001102,87.49023200001102,87.49023200001102,87.49023200001102,87.49023200001102,right,0.344376299995929,3,0,0,99,0.24,-0.16,right,0.2793546000029892,,,,,,,,,,,,,,,,,,,,,,,,,,,,,,,,,,,,,,A,train_x,x_increasing_steps,top_left,2024-10-29_23h27.35.844,HideSeek_v1,2022.2.5,60.44560498012444,
,2,3,5,3,3,0,46,,train_dim1_1,4,30,2,0,2,0,,,,,,,,,0,0,0,0,0,3,3,3,3,0,3,0,,,,,,,,,,,,,,,,,,,,,,,,,,,,,,,,,,,,,,,,,,,,,,,,,,,,,,,,,,,,,,30,,,,,,,,87.84140699997079,87.84140699997079,87.84140699997079,87.84140699997079,87.84140699997079,return,0.5777348999981768,4,0,0,1,0.24,-0.16,return,0.5079036999959499,0,6,0.24,-0.16,,,,,,,,,,,,,,,,,,,,,,,,,,,,,,,,,,A,train_x,x_increasing_steps,top_left,2024-10-29_23h27.35.844,HideSeek_v1,2022.2.5,60.44560498012444,
,0,2,5,2,5,0,66,,train_dim1_1,5,30,2,0,2,0,,,,,,,,,0,0,0,0,0,4,4,4,0,0,0,0,,,,,,,,,,,,,,,,,,,,,,,stimuli/alien_stimuli/66.png,,,,,,,,,,,,,,,,,,,,,,,,,,,,,stimuli/alien_stimuli/46.png,46,2,6,,,,,,,30,,,,,,,,93.07281280000461,93.07281280000461,93.07281280000461,93.07281280000461,93.07281280000461,right,3.5583259999984875,4,0,0,99,-0.08,-0.24,right,3.464908799971454,,,,,91.50629230000777,93.07281280000461,0.24,-0.16,0.0,0.24,-0.16,0.24,0.12,0.24,-0.16,90.00485749996733,90.00485749996733,90.00485749996733,90.00485749996733,90.00485749996733,90.00485749996733,90.00485749996733,90.00485749996733,89.95626159998938,1.6192073000129312,return,1.4785023999866098,,,,,,,,,,,A,train_x,x_increasing_steps,top_left,2024-10-29_23h27.35.844,HideSeek_v1,2022.2.5,60.44560498012444,
,0,2,5,2,5,0,66,,train_dim1_1,5,30,2,0,2,0,,,,,,,,,0,0,0,0,0,4,4,4,1,0,1,0,,,,,,,,,,,,,,,,,,,,,,,,,,,,,,,,,,,,,,,,,,,,,,,,,,,,,,,,,,,,,,30,,,,,,,,96.640237399959,96.640237399959,96.640237399959,96.640237399959,96.640237399959,right,0.3604001000057906,4,0,0,99,0.0,-0.24,right,0.2561340000247583,,,,,,,,,,,,,,,,,,,,,,,,,,,,,,,,,,,,,,A,train_x,x_increasing_steps,top_left,2024-10-29_23h27.35.844,HideSeek_v1,2022.2.5,60.44560498012444,
,0,2,5,2,5,0,66,,train_dim1_1,5,30,2,0,2,0,,,,,,,,,0,0,0,0,0,4,4,4,2,0,2,0,,,,,,,,,,,,,,,,,,,,,,,,,,,,,,,,,,,,,,,,,,,,,,,,,,,,,,,,,,,,,,30,,,,,,,,96.97966329997871,96.97966329997871,96.97966329997871,96.97966329997871,96.97966329997871,right,0.34395400003995746,4,0,0,99,0.08,-0.24,right,0.26609709998592734,,,,,,,,,,,,,,,,,,,,,,,,,,,,,,,,,,,,,,A,train_x,x_increasing_steps,top_left,2024-10-29_23h27.35.844,HideSeek_v1,2022.2.5,60.44560498012444,
,0,2,5,2,5,0,66,,train_dim1_1,5,30,2,0,2,0,,,,,,,,,0,0,0,0,0,4,4,4,3,0,3,0,,,,,,,,,,,,,,,,,,,,,,,,,,,,,,,,,,,,,,,,,,,,,,,,,,,,,,,,,,,,,,30,,,,,,,,97.3301441000076,97.3301441000076,97.3301441000076,97.3301441000076,97.3301441000076,right,0.31085420004092157,4,0,0,99,0.16,-0.24,right,0.23016989999450743,,,,,,,,,,,,,,,,,,,,,,,,,,,,,,,,,,,,,,A,train_x,x_increasing_steps,top_left,2024-10-29_23h27.35.844,HideSeek_v1,2022.2.5,60.44560498012444,
,0,2,5,2,5,0,66,,train_dim1_1,5,30,2,0,2,0,,,,,,,,,0,0,0,0,0,4,4,4,4,0,4,0,,,,,,,,,,,,,,,,,,,,,,,,,,,,,,,,,,,,,,,,,,,,,,,,,,,,,,,,,,,,,,30,,,,,,,,97.6456315999967,97.6456315999967,97.6456315999967,97.6456315999967,97.6456315999967,right,0.2943832000019029,4,0,0,99,0.24,-0.24,right,0.2113703999784775,,,,,,,,,,,,,,,,,,,,,,,,,,,,,,,,,,,,,,A,train_x,x_increasing_steps,top_left,2024-10-29_23h27.35.844,HideSeek_v1,2022.2.5,60.44560498012444,
,0,2,5,2,5,0,66,,train_dim1_1,5,30,2,0,2,0,,,,,,,,,0,0,0,0,0,4,4,4,5,0,5,0,,,,,,,,,,,,,,,,,,,,,,,,,,,,,,,,,,,,,,,,,,,,,,,,,,,,,,,,,,,,,,30,,,,,,,,97.94357840000885,97.94357840000885,97.94357840000885,97.94357840000885,97.94357840000885,return,0.2941477000131272,5,0,0,1,0.24,-0.24,return,0.2229053999762982,0,11,0.24,-0.24,,,,,,,,,,,,,,,,,,,,,,,,,,,,,,,,,,A,train_x,x_increasing_steps,top_left,2024-10-29_23h27.35.844,HideSeek_v1,2022.2.5,60.44560498012444,
,0,0,1,0,1,0,26,,train_dim1_1,6,30,2,0,2,0,,,,,,,,,0,0,0,0,0,5,5,5,0,0,0,0,,,,,,,,,,,,,,,,,,,,,,,stimuli/alien_stimuli/26.png,,,,,,,,,,,,,,,,,,,,,,,,,,,,,stimuli/alien_stimuli/66.png,66,0,7,,,,,,,30,,,,,,,,102.33919259998947,102.33919259998947,102.33919259998947,102.33919259998947,102.33919259998947,right,1.04144359997008,5,0,0,99,-0.08,-0.4,right,0.945679199998267,,,,,100.77297160000307,102.33919259998947,0.24,-0.24,0.0,0.4,-0.24,0.24,0.039999999999999994,0.24,-0.24,99.83967640000628,99.83967640000628,99.83967640000628,99.83967640000628,99.83967640000628,99.83967640000628,99.83967640000628,99.83967640000628,99.77239369999734,1.0687996000051498,return,0.9045081000076607,,,,,,,,,,,A,train_x,x_increasing_steps,top_left,2024-10-29_23h27.35.844,HideSeek_v1,2022.2.5,60.44560498012444,
,0,0,1,0,1,0,26,,train_dim1_1,6,30,2,0,2,0,,,,,,,,,0,0,0,0,0,5,5,5,1,0,1,0,,,,,,,,,,,,,,,,,,,,,,,,,,,,,,,,,,,,,,,,,,,,,,,,,,,,,,,,,,,,,,30,,,,,,,,103.36068689997774,103.36068689997774,103.36068689997774,103.36068689997774,103.36068689997774,return,0.31063830002676696,6,0,0,1,-0.08,-0.4,return,0.24322699999902397,0,12,-0.08,-0.4,,,,,,,,,,,,,,,,,,,,,,,,,,,,,,,,,,A,train_x,x_increasing_steps,top_left,2024-10-29_23h27.35.844,HideSeek_v1,2022.2.5,60.44560498012444,
,3,0,8,0,5,0,66,,train_dim1_1,7,30,2,0,2,0,,,,,,,,,0,0,0,0,0,6,6,6,0,0,0,0,,,,,,,,,,,,,,,,,,,,,,,stimuli/alien_stimuli/66.png,,,,,,,,,,,,,,,,,,,,,,,,,,,,,stimuli/alien_stimuli/26.png,26,0,8,,,,,,,30,,,,,,,,107.42296150000766,107.42296150000766,107.42296150000766,107.42296150000766,107.42296150000766,right,1.423234699992463,6,0,0,99,0.16,-0.4,right,1.3028885000385344,,,,,105.83904900000198,107.42296150000766,-0.08,-0.4,0.0,0.08,-0.4,-0.08,-0.12,-0.08,-0.4,105.27274159999797,105.27274159999797,105.27274159999797,105.27274159999797,105.27274159999797,105.27274159999797,105.27274159999797,105.27274159999797,105.20619430000079,0.7014788000378758,return,0.5361080000293441,,,,,,,,,,,A,train_x,x_increasing_steps,top_left,2024-10-29_23h27.35.844,HideSeek_v1,2022.2.5,60.44560498012444,
,3,0,8,0,5,0,66,,train_dim1_1,7,30,2,0,2,0,,,,,,,,,0,0,0,0,0,6,6,6,1,0,1,0,,,,,,,,,,,,,,,,,,,,,,,,,,,,,,,,,,,,,,,,,,,,,,,,,,,,,,,,,,,,,,30,,,,,,,,108.82270530000096,108.82270530000096,108.82270530000096,108.82270530000096,108.82270530000096,right,0.3442524000420235,6,0,0,99,0.24,-0.4,right,0.25608200003625825,,,,,,,,,,,,,,,,,,,,,,,,,,,,,,,,,,,,,,A,train_x,x_increasing_steps,top_left,2024-10-29_23h27.35.844,HideSeek_v1,2022.2.5,60.44560498012444,
,3,0,8,0,5,0,66,,train_dim1_1,7,30,2,0,2,0,,,,,,,,,0,0,0,0,0,6,6,6,2,0,2,0,,,,,,,,,,,,,,,,,,,,,,,,,,,,,,,,,,,,,,,,,,,,,,,,,,,,,,,,,,,,,,30,,,,,,,,109.1618407999631,109.1618407999631,109.1618407999631,109.1618407999631,109.1618407999631,right,0.2941285000415519,6,0,0,99,0.32,-0.4,right,0.22856200003298,,,,,,,,,,,,,,,,,,,,,,,,,,,,,,,,,,,,,,A,train_x,x_increasing_steps,top_left,2024-10-29_23h27.35.844,HideSeek_v1,2022.2.5,60.44560498012444,
,3,0,8,0,5,0,66,,train_dim1_1,7,30,2,0,2,0,,,,,,,,,0,0,0,0,0,6,6,6,3,0,3,0,,,,,,,,,,,,,,,,,,,,,,,,,,,,,,,,,,,,,,,,,,,,,,,,,,,,,,,,,,,,,,30,,,,,,,,109.4626288000145,109.4626288000145,109.4626288000145,109.4626288000145,109.4626288000145,right,0.36086239997530356,6,0,0,99,0.4,-0.4,right,0.28031450003618374,,,,,,,,,,,,,,,,,,,,,,,,,,,,,,,,,,,,,,A,train_x,x_increasing_steps,top_left,2024-10-29_23h27.35.844,HideSeek_v1,2022.2.5,60.44560498012444,
,3,0,8,0,5,0,66,,train_dim1_1,7,30,2,0,2,0,,,,,,,,,0,0,0,0,0,6,6,6,4,0,4,0,,,,,,,,,,,,,,,,,,,,,,,,,,,,,,,,,,,,,,,,,,,,,,,,,,,,,,,,,,,,,,30,,,,,,,,109.829782899993,109.829782899993,109.829782899993,109.829782899993,109.829782899993,right,0.31098910002037883,6,0,0,99,0.48000000000000004,-0.4,right,0.24138349998975173,,,,,,,,,,,,,,,,,,,,,,,,,,,,,,,,,,,,,,A,train_x,x_increasing_steps,top_left,2024-10-29_23h27.35.844,HideSeek_v1,2022.2.5,60.44560498012444,
,3,0,8,0,5,0,66,,train_dim1_1,7,30,2,0,2,0,,,,,,,,,0,0,0,0,0,6,6,6,5,0,5,0,,,,,,,,,,,,,,,,,,,,,,,,,,,,,,,,,,,,,,,,,,,,,,,,,,,,,,,,,,,,,,30,,,,,,,,110.14438319997862,110.14438319997862,110.14438319997862,110.14438319997862,110.14438319997862,return,0.36083940003300086,7,0,0,1,0.48000000000000004,-0.4,return,0.2809690000140108,0,17,0.48000000000000004,-0.4,,,,,,,,,,,,,,,,,,,,,,,,,,,,,,,,,,A,train_x,x_increasing_steps,top_left,2024-10-29_23h27.35.844,HideSeek_v1,2022.2.5,60.44560498012444,
,0,4,2,4,2,0,36,,train_dim1_1,8,30,2,0,2,0,,,,,,,,,0,0,0,0,0,7,7,7,0,0,0,0,,,,,,,,,,,,,,,,,,,,,,,stimuli/alien_stimuli/36.png,,,,,,,,,,,,,,,,,,,,,,,,,,,,,stimuli/alien_stimuli/66.png,66,3,9,,,,,,,30,,,,,,,,115.25565850001294,115.25565850001294,115.25565850001294,115.25565850001294,115.25565850001294,right,0.8083383999764919,7,0,0,99,-0.08,-0.08,right,0.7122063999995589,,,,,113.68915009999182,115.25565850001294,0.48,-0.4,0.0,0.4,-0.4,0.48,0.27999999999999997,0.48,-0.4,112.11417730001267,112.11417730001267,112.11417730001267,112.11417730001267,112.11417730001267,112.11417730001267,112.11417730001267,112.11417730001267,112.055746299983,1.7183881999808364,return,1.5537147999857552,,,,,,,,,,,A,train_x,x_increasing_steps,top_left,2024-10-29_23h27.35.844,HideSeek_v1,2022.2.5,60.44560498012444,
,0,4,2,4,2,0,36,,train_dim1_1,8,30,2,0,2,0,,,,,,,,,0,0,0,0,0,7,7,7,1,0,1,0,,,,,,,,,,,,,,,,,,,,,,,,,,,,,,,,,,,,,,,,,,,,,,,,,,,,,,,,,,,,,,30,,,,,,,,116.04211839998607,116.04211839998607,116.04211839998607,116.04211839998607,116.04211839998607,right,0.34414210001705214,7,0,0,99,0.0,-0.08,right,0.2799193999962881,,,,,,,,,,,,,,,,,,,,,,,,,,,,,,,,,,,,,,A,train_x,x_increasing_steps,top_left,2024-10-29_23h27.35.844,HideSeek_v1,2022.2.5,60.44560498012444,
,0,4,2,4,2,0,36,,train_dim1_1,8,30,2,0,2,0,,,,,,,,,0,0,0,0,0,7,7,7,2,0,2,0,,,,,,,,,,,,,,,,,,,,,,,,,,,,,,,,,,,,,,,,,,,,,,,,,,,,,,,,,,,,,,30,,,,,,,,116.39164629997686,116.39164629997686,116.39164629997686,116.39164629997686,116.39164629997686,return,0.24428939999779686,8,0,0,1,0.0,-0.08,return,0.17469179996987805,0,19,0.0,-0.08,,,,,,,,,,,,,,,,,,,,,,,,,,,,,,,,,,A,train_x,x_increasing_steps,top_left,2024-10-29_23h27.35.844,HideSeek_v1,2022.2.5,60.44560498012444,
,1,0,4,0,3,0,46,,train_dim1_1,9,30,2,0,2,0,,,,,,,,,0,0,0,0,0,8,8,8,0,0,0,0,,,,,,,,,,,,,,,,,,,,,,,stimuli/alien_stimuli/46.png,,,,,,,,,,,,,,,,,,,,,,,,,,,,,stimuli/alien_stimuli/36.png,36,0,10,,,,,,,30,,,,,,,,120.87837990000844,120.87837990000844,120.87837990000844,120.87837990000844,120.87837990000844,right,0.9245183999883011,8,0,0,99,0.0,-0.4,right,0.8370010000071488,,,,,119.32223809999414,120.87837990000844,0,-0.08,0.0,0.16,-0.08,0,-0.08,0,-0.08,118.25046670000302,118.25046670000302,118.25046670000302,118.25046670000302,118.25046670000302,118.25046670000302,118.25046670000302,118.25046670000302,118.17292109996197,1.218107599997893,return,1.043887099949643,,,,,,,,,,,A,train_x,x_increasing_steps,top_left,2024-10-29_23h27.35.844,HideSeek_v1,2022.2.5,60.44560498012444,
,1,0,4,0,3,0,46,,train_dim1_1,9,30,2,0,2,0,,,,,,,,,0,0,0,0,0,8,8,8,1,0,1,0,,,,,,,,,,,,,,,,,,,,,,,,,,,,,,,,,,,,,,,,,,,,,,,,,,,,,,,,,,,,,,30,,,,,,,,121.78863069997169,121.78863069997169,121.78863069997169,121.78863069997169,121.78863069997169,right,0.3278466000338085,8,0,0,99,0.08,-0.4,right,0.253006600018125,,,,,,,,,,,,,,,,,,,,,,,,,,,,,,,,,,,,,,A,train_x,x_increasing_steps,top_left,2024-10-29_23h27.35.844,HideSeek_v1,2022.2.5,60.44560498012444,
,1,0,4,0,3,0,46,,train_dim1_1,9,30,2,0,2,0,,,,,,,,,0,0,0,0,0,8,8,8,2,0,2,0,,,,,,,,,,,,,,,,,,,,,,,,,,,,,,,,,,,,,,,,,,,,,,,,,,,,,,,,,,,,,,30,,,,,,,,122.12182659999235,122.12182659999235,122.12182659999235,122.12182659999235,122.12182659999235,right,0.2939129999722354,8,0,0,99,0.16,-0.4,right,0.23127770004794002,,,,,,,,,,,,,,,,,,,,,,,,,,,,,,,,,,,,,,A,train_x,x_increasing_steps,top_left,2024-10-29_23h27.35.844,HideSeek_v1,2022.2.5,60.44560498012444,
,1,0,4,0,3,0,46,,train_dim1_1,9,30,2,0,2,0,,,,,,,,,0,0,0,0,0,8,8,8,3,0,3,0,,,,,,,,,,,,,,,,,,,,,,,,,,,,,,,,,,,,,,,,,,,,,,,,,,,,,,,,,,,,,,30,,,,,,,,122.42310409998754,122.42310409998754,122.42310409998754,122.42310409998754,122.42310409998754,return,0.3277121999999508,9,0,0,1,0.16,-0.4,return,0.2590302000171505,0,22,0.16,-0.4,,,,,,,,,,,,,,,,,,,,,,,,,,,,,,,,,,A,train_x,x_increasing_steps,top_left,2024-10-29_23h27.35.844,HideSeek_v1,2022.2.5,60.44560498012444,
,0,3,0,3,0,0,16,,train_dim1_1,10,30,2,0,2,0,,,,,,,,,0,0,0,0,0,9,9,9,0,0,0,0,,,,,,,,,,,,,,,,,,,,,,,stimuli/alien_stimuli/16.png,,,,,,,,,,,,,,,,,,,,,,,,,,,,,stimuli/alien_stimuli/46.png,46,1,11,,,,,,,30,,,,,,,,132.54937650001375,132.54937650001375,132.54937650001375,132.54937650001375,132.54937650001375,return,1.0759082000004128,10,0,0,1,-0.16,-0.16,return,0.9751638000016101,0,22,-0.16,-0.16,130.98878789995797,132.54937650001375,0.16,-0.4,0.0,0.24,-0.4,0.16,0.04,0.16,-0.4,124.3272649999708,124.3272649999708,124.3272649999708,124.3272649999708,124.3272649999708,124.3272649999708,124.3272649999708,124.3272649999708,124.27228359999135,6.7682391999987885,return,6.633179600001313,,,,,,,,,,,A,train_x,x_increasing_steps,top_left,2024-10-29_23h27.35.844,HideSeek_v1,2022.2.5,60.44560498012444,
,2,2,4,2,2,0,36,,train_dim1_1,11,30,2,0,2,0,,,,,,,,,0,0,0,0,0,10,10,10,0,0,0,0,,,,,,,,,,,,,,,,,,,,,,,stimuli/alien_stimuli/36.png,,,,,,,,,,,,,,,,,,,,,,,,,,,,,stimuli/alien_stimuli/16.png,16,0,12,,,,,,,30,,,,,,,,139.37487559998408,139.37487559998408,139.37487559998408,139.37487559998408,139.37487559998408,right,0.6925624000141397,10,0,0,99,0.08,-0.24,right,0.5694732000119984,,,,,137.7888686999795,139.37487559998408,-0.16,-0.16,0.0,0.0,-0.16,-0.16,-0.16,-0.16,-0.16,135.19907219999004,135.19907219999004,135.19907219999004,135.19907219999004,135.19907219999004,135.19907219999004,135.19907219999004,135.19907219999004,135.13893300000927,2.7181876999675296,return,2.5677369000040926,,,,,,,,,,,A,train_x,x_increasing_steps,top_left,2024-10-29_23h27.35.844,HideSeek_v1,2022.2.5,60.44560498012444,
,2,2,4,2,2,0,36,,train_dim1_1,11,30,2,0,2,0,,,,,,,,,0,0,0,0,0,10,10,10,1,0,1,0,,,,,,,,,,,,,,,,,,,,,,,,,,,,,,,,,,,,,,,,,,,,,,,,,,,,,,,,,,,,,,30,,,,,,,,140.02294339996297,140.02294339996297,140.02294339996297,140.02294339996297,140.02294339996297,right,0.34376889996929094,10,0,0,99,0.16,-0.24,right,0.27933669998310506,,,,,,,,,,,,,,,,,,,,,,,,,,,,,,,,,,,,,,A,train_x,x_increasing_steps,top_left,2024-10-29_23h27.35.844,HideSeek_v1,2022.2.5,60.44560498012444,
,2,2,4,2,2,0,36,,train_dim1_1,11,30,2,0,2,0,,,,,,,,,0,0,0,0,0,10,10,10,2,0,2,0,,,,,,,,,,,,,,,,,,,,,,,,,,,,,,,,,,,,,,,,,,,,,,,,,,,,,,,,,,,,,,30,,,,,,,,140.37290439999197,140.37290439999197,140.37290439999197,140.37290439999197,140.37290439999197,return,0.2275688999798149,11,0,0,1,0.16,-0.24,return,0.16325580002740026,0,24,0.16,-0.24,,,,,,,,,,,,,,,,,,,,,,,,,,,,,,,,,,A,train_x,x_increasing_steps,top_left,2024-10-29_23h27.35.844,HideSeek_v1,2022.2.5,60.44560498012444,
,0,0,1,0,1,0,26,,train_dim1_1,12,30,2,0,2,0,,,,,,,,,0,0,0,0,0,11,11,11,0,0,0,0,,,,,,,,,,,,,,,,,,,,,,,stimuli/alien_stimuli/26.png,,,,,,,,,,,,,,,,,,,,,,,,,,,,,stimuli/alien_stimuli/36.png,36,2,13,,,,,,,30,,,,,,,,144.4129008000018,144.4129008000018,144.4129008000018,144.4129008000018,144.4129008000018,right,0.8080446999520063,11,0,0,99,-0.08,-0.4,right,0.7171972000505775,,,,,142.8556316999602,144.4129008000018,0.16,-0.24,0.0,0.16,-0.24,0.16,0.08,0.16,-0.24,142.18367309996393,142.18367309996393,142.18367309996393,142.18367309996393,142.18367309996393,142.18367309996393,142.18367309996393,142.18367309996393,142.1392702999583,0.7845748999970965,return,0.6435754999984056,,,,,,,,,,,A,train_x,x_increasing_steps,top_left,2024-10-29_23h27.35.844,HideSeek_v1,2022.2.5,60.44560498012444,
,0,0,1,0,1,0,26,,train_dim1_1,12,30,2,0,2,0,,,,,,,,,0,0,0,0,0,11,11,11,1,0,1,0,,,,,,,,,,,,,,,,,,,,,,,,,,,,,,,,,,,,,,,,,,,,,,,,,,,,,,,,,,,,,,30,,,,,,,,145.21252860000823,145.21252860000823,145.21252860000823,145.21252860000823,145.21252860000823,return,0.24401939997915179,12,0,0,1,-0.08,-0.4,return,0.17172290000598878,0,25,-0.08,-0.4,,,,,,,,,,,,,,,,,,,,,,,,,,,,,,,,,,A,train_x,x_increasing_steps,top_left,2024-10-29_23h27.35.844,HideSeek_v1,2022.2.5,60.44560498012444,
,0,4,3,4,3,0,46,,train_dim1_1,13,30,2,0,2,0,,,,,,,,,0,0,0,0,0,12,12,12,0,0,0,0,,,,,,,,,,,,,,,,,,,,,,,stimuli/alien_stimuli/46.png,,,,,,,,,,,,,,,,,,,,,,,,,,,,,stimuli/alien_stimuli/26.png,26,0,14,,,,,,,30,,,,,,,,149.16549749998376,149.16549749998376,149.16549749998376,149.16549749998376,149.16549749998376,right,0.9085999999660999,12,0,0,99,-0.08,-0.08,right,0.8198668999830261,,,,,147.60566739999922,149.16549749998376,-0.08,-0.4,0.0,0.08,-0.4,-0.08,-0.12,-0.08,-0.4,147.06340559996897,147.06340559996897,147.06340559996897,147.06340559996897,147.06340559996897,147.06340559996897,147.06340559996897,147.06340559996897,146.98878210000112,0.685279699973762,return,0.5185929999570362,,,,,,,,,,,A,train_x,x_increasing_steps,top_left,2024-10-29_23h27.35.844,HideSeek_v1,2022.2.5,60.44560498012444,
,0,4,3,4,3,0,46,,train_dim1_1,13,30,2,0,2,0,,,,,,,,,0,0,0,0,0,12,12,12,1,0,1,0,,,,,,,,,,,,,,,,,,,,,,,,,,,,,,,,,,,,,,,,,,,,,,,,,,,,,,,,,,,,,,30,,,,,,,,150.05867509997915,150.05867509997915,150.05867509997915,150.05867509997915,150.05867509997915,right,0.37637630000244826,12,0,0,99,0.0,-0.08,right,0.3021258999942802,,,,,,,,,,,,,,,,,,,,,,,,,,,,,,,,,,,,,,A,train_x,x_increasing_steps,top_left,2024-10-29_23h27.35.844,HideSeek_v1,2022.2.5,60.44560498012444,
,0,4,3,4,3,0,46,,train_dim1_1,13,30,2,0,2,0,,,,,,,,,0,0,0,0,0,12,12,12,2,0,2,0,,,,,,,,,,,,,,,,,,,,,,,,,,,,,,,,,,,,,,,,,,,,,,,,,,,,,,,,,,,,,,30,,,,,,,,150.43881749996217,150.43881749996217,150.43881749996217,150.43881749996217,150.43881749996217,right,0.3108396999887191,12,0,0,99,0.08,-0.08,right,0.2498895000317134,,,,,,,,,,,,,,,,,,,,,,,,,,,,,,,,,,,,,,A,train_x,x_increasing_steps,top_left,2024-10-29_23h27.35.844,HideSeek_v1,2022.2.5,60.44560498012444,
,0,4,3,4,3,0,46,,train_dim1_1,13,30,2,0,2,0,,,,,,,,,0,0,0,0,0,12,12,12,3,0,3,0,,,,,,,,,,,,,,,,,,,,,,,,,,,,,,,,,,,,,,,,,,,,,,,,,,,,,,,,,,,,,,30,,,,,,,,150.75741979997838,150.75741979997838,150.75741979997838,150.75741979997838,150.75741979997838,return,0.2774892000015825,13,0,0,1,0.08,-0.08,return,0.20701350003946573,0,28,0.08,-0.08,,,,,,,,,,,,,,,,,,,,,,,,,,,,,,,,,,A,train_x,x_increasing_steps,top_left,2024-10-29_23h27.35.844,HideSeek_v1,2022.2.5,60.44560498012444,
,4,3,4,3,0,0,16,,train_dim1_1,14,30,2,0,2,0,,,,,,,,,0,0,0,0,0,13,13,13,0,0,0,0,,,,,,,,,,,,,,,,,,,,,,,stimuli/alien_stimuli/16.png,,,,,,,,,,,,,,,,,,,,,,,,,,,,,stimuli/alien_stimuli/46.png,46,0,15,,,,,,,30,,,,,,,,155.41705330001423,155.41705330001423,155.41705330001423,155.41705330001423,155.41705330001423,return,0.8077939000213519,14,0,0,1,0.16,-0.16,return,0.7072695000097156,0,28,0.16,-0.16,153.85528109996812,155.41705330001423,0.08,-0.08,0.0,0.24,-0.08,0.08,-0.04,0.08,-0.08,152.6099156999844,152.6099156999844,152.6099156999844,152.6099156999844,152.6099156999844,152.6099156999844,152.6099156999844,152.6099156999844,152.55519849997947,1.3522325999801978,return,1.2255333000211976,,,,,,,,,,,A,train_x,x_increasing_steps,top_left,2024-10-29_23h27.35.844,HideSeek_v1,2022.2.5,60.44560498012444,
,4,2,9,2,5,0,66,,train_dim1_1,15,30,2,0,2,0,,,,,,,,,0,0,0,0,0,14,14,14,0,0,0,0,,,,,,,,,,,,,,,,,,,,,,,stimuli/alien_stimuli/66.png,,,,,,,,,,,,,,,,,,,,,,,,,,,,,stimuli/alien_stimuli/16.png,16,4,16,,,,,,,30,,,,,,,,160.35537209996255,160.35537209996255,160.35537209996255,160.35537209996255,160.35537209996255,right,1.0916183999506757,14,0,0,99,0.24,-0.24,right,0.9558109000208788,,,,,158.75559149996843,160.35537209996255,0.16,-0.16,0.0,0.0,-0.16,0.16,0.16,0.16,-0.16,157.7911504000076,157.7911504000076,157.7911504000076,157.7911504000076,157.7911504000076,157.7911504000076,157.7911504000076,157.7911504000076,157.73879399997531,1.0851980000152253,return,0.9448524000472389,,,,,,,,,,,A,train_x,x_increasing_steps,top_left,2024-10-29_23h27.35.844,HideSeek_v1,2022.2.5,60.44560498012444,
,4,2,9,2,5,0,66,,train_dim1_1,15,30,2,0,2,0,,,,,,,,,0,0,0,0,0,14,14,14,1,0,1,0,,,,,,,,,,,,,,,,,,,,,,,,,,,,,,,,,,,,,,,,,,,,,,,,,,,,,,,,,,,,,,30,,,,,,,,161.39395890000742,161.39395890000742,161.39395890000742,161.39395890000742,161.39395890000742,right,0.31030139996437356,14,0,0,99,0.32,-0.24,right,0.2386934999958612,,,,,,,,,,,,,,,,,,,,,,,,,,,,,,,,,,,,,,A,train_x,x_increasing_steps,top_left,2024-10-29_23h27.35.844,HideSeek_v1,2022.2.5,60.44560498012444,
,4,2,9,2,5,0,66,,train_dim1_1,15,30,2,0,2,0,,,,,,,,,0,0,0,0,0,14,14,14,2,0,2,0,,,,,,,,,,,,,,,,,,,,,,,,,,,,,,,,,,,,,,,,,,,,,,,,,,,,,,,,,,,,,,30,,,,,,,,161.7101871999912,161.7101871999912,161.7101871999912,161.7101871999912,161.7101871999912,right,0.2944407999748364,14,0,0,99,0.4,-0.24,right,0.21954610000830144,,,,,,,,,,,,,,,,,,,,,,,,,,,,,,,,,,,,,,A,train_x,x_increasing_steps,top_left,2024-10-29_23h27.35.844,HideSeek_v1,2022.2.5,60.44560498012444,
,4,2,9,2,5,0,66,,train_dim1_1,15,30,2,0,2,0,,,,,,,,,0,0,0,0,0,14,14,14,3,0,3,0,,,,,,,,,,,,,,,,,,,,,,,,,,,,,,,,,,,,,,,,,,,,,,,,,,,,,,,,,,,,,,30,,,,,,,,162.01035639998736,162.01035639998736,162.01035639998736,162.01035639998736,162.01035639998736,right,0.3109800999518484,14,0,0,99,0.48000000000000004,-0.24,right,0.24121010000817478,,,,,,,,,,,,,,,,,,,,,,,,,,,,,,,,,,,,,,A,train_x,x_increasing_steps,top_left,2024-10-29_23h27.35.844,HideSeek_v1,2022.2.5,60.44560498012444,
,4,2,9,2,5,0,66,,train_dim1_1,15,30,2,0,2,0,,,,,,,,,0,0,0,0,0,14,14,14,4,0,4,0,,,,,,,,,,,,,,,,,,,,,,,,,,,,,,,,,,,,,,,,,,,,,,,,,,,,,,,,,,,,,,30,,,,,,,,162.32817409996642,162.32817409996642,162.32817409996642,162.32817409996642,162.32817409996642,right,0.2609278000309132,14,0,0,99,0.56,-0.24,right,0.18857980001484975,,,,,,,,,,,,,,,,,,,,,,,,,,,,,,,,,,,,,,A,train_x,x_increasing_steps,top_left,2024-10-29_23h27.35.844,HideSeek_v1,2022.2.5,60.44560498012444,
,4,2,9,2,5,0,66,,train_dim1_1,15,30,2,0,2,0,,,,,,,,,0,0,0,0,0,14,14,14,5,0,5,0,,,,,,,,,,,,,,,,,,,,,,,,,,,,,,,,,,,,,,,,,,,,,,,,,,,,,,,,,,,,,,30,,,,,,,,162.59336669999175,162.59336669999175,162.59336669999175,162.59336669999175,162.59336669999175,return,0.2770415999693796,15,0,0,1,0.56,-0.24,return,0.19910089997574687,0,33,0.56,-0.24,,,,,,,,,,,,,,,,,,,,,,,,,,,,,,,,,,A,train_x,x_increasing_steps,top_left,2024-10-29_23h27.35.844,HideSeek_v1,2022.2.5,60.44560498012444,
,3,3,6,3,3,0,46,,train_dim1_1,16,30,2,0,2,0,,,,,,,,,0,0,0,0,0,15,15,15,0,0,0,0,,,,,,,,,,,,,,,,,,,,,,,stimuli/alien_stimuli/46.png,,,,,,,,,,,,,,,,,,,,,,,,,,,,,stimuli/alien_stimuli/66.png,66,4,17,,,,,,,30,,,,,,,,166.93141520000063,166.93141520000063,166.93141520000063,166.93141520000063,166.93141520000063,right,1.0247424999834038,15,0,0,99,0.16,-0.16,right,0.9273065999732353,,,,,165.3715666999924,166.93141520000063,0.56,-0.24,0.0,0.4,-0.24,0.56,0.36000000000000004,0.56,-0.24,164.4776039000135,164.4776039000135,164.4776039000135,164.4776039000135,164.4776039000135,164.4776039000135,164.4776039000135,164.4776039000135,164.40542429997004,1.0351519000250846,return,0.8748544999980368,,,,,,,,,,,A,train_x,x_increasing_steps,top_left,2024-10-29_23h27.35.844,HideSeek_v1,2022.2.5,60.44560498012444,
,3,3,6,3,3,0,46,,train_dim1_1,16,30,2,0,2,0,,,,,,,,,0,0,0,0,0,15,15,15,1,0,1,0,,,,,,,,,,,,,,,,,,,,,,,,,,,,,,,,,,,,,,,,,,,,,,,,,,,,,,,,,,,,,,30,,,,,,,,167.93765089998487,167.93765089998487,167.93765089998487,167.93765089998487,167.93765089998487,right,0.3107274000067264,15,0,0,99,0.24,-0.16,right,0.2508662000182085,,,,,,,,,,,,,,,,,,,,,,,,,,,,,,,,,,,,,,A,train_x,x_increasing_steps,top_left,2024-10-29_23h27.35.844,HideSeek_v1,2022.2.5,60.44560498012444,
,3,3,6,3,3,0,46,,train_dim1_1,16,30,2,0,2,0,,,,,,,,,0,0,0,0,0,15,15,15,2,0,2,0,,,,,,,,,,,,,,,,,,,,,,,,,,,,,,,,,,,,,,,,,,,,,,,,,,,,,,,,,,,,,,30,,,,,,,,168.25473310000962,168.25473310000962,168.25473310000962,168.25473310000962,168.25473310000962,right,0.2608361999737099,15,0,0,99,0.32,-0.16,right,0.19417220004834235,,,,,,,,,,,,,,,,,,,,,,,,,,,,,,,,,,,,,,A,train_x,x_increasing_steps,top_left,2024-10-29_23h27.35.844,HideSeek_v1,2022.2.5,60.44560498012444,
,3,3,6,3,3,0,46,,train_dim1_1,16,30,2,0,2,0,,,,,,,,,0,0,0,0,0,15,15,15,3,0,3,0,,,,,,,,,,,,,,,,,,,,,,,,,,,,,,,,,,,,,,,,,,,,,,,,,,,,,,,,,,,,,,30,,,,,,,,168.52313240000512,168.52313240000512,168.52313240000512,168.52313240000512,168.52313240000512,return,0.261525200039614,16,0,0,1,0.32,-0.16,return,0.19713649997720495,0,36,0.32,-0.16,,,,,,,,,,,,,,,,,,,,,,,,,,,,,,,,,,A,train_x,x_increasing_steps,top_left,2024-10-29_23h27.35.844,HideSeek_v1,2022.2.5,60.44560498012444,
,2,4,3,4,1,0,26,,train_dim1_1,17,30,2,0,2,0,,,,,,,,,0,0,0,0,0,16,16,16,0,0,0,0,,,,,,,,,,,,,,,,,,,,,,,stimuli/alien_stimuli/26.png,,,,,,,,,,,,,,,,,,,,,,,,,,,,,stimuli/alien_stimuli/46.png,46,3,18,,,,,,,30,,,,,,,,172.58127079997212,172.58127079997212,172.58127079997212,172.58127079997212,172.58127079997212,right,1.5754018000443466,16,0,0,99,0.08,-0.08,right,1.4805038000340573,,,,,171.02169879997382,172.58127079997212,0.32,-0.16,0.0,0.24,-0.16,0.32,0.2,0.32,-0.16,170.3605857999646,170.3605857999646,170.3605857999646,170.3605857999646,170.3605857999646,170.3605857999646,170.3605857999646,170.3605857999646,170.3054206999834,0.7688574999920093,return,0.6430568000068888,,,,,,,,,,,A,train_x,x_increasing_steps,top_left,2024-10-29_23h27.35.844,HideSeek_v1,2022.2.5,60.44560498012444,
,2,4,3,4,1,0,26,,train_dim1_1,17,30,2,0,2,0,,,,,,,,,0,0,0,0,0,16,16,16,1,0,1,0,,,,,,,,,,,,,,,,,,,,,,,,,,,,,,,,,,,,,,,,,,,,,,,,,,,,,,,,,,,,,,30,,,,,,,,174.14727419998962,174.14727419998962,174.14727419998962,174.14727419998962,174.14727419998962,return,0.26037660002475604,17,0,0,1,0.08,-0.08,return,0.18700819998048246,0,37,0.08,-0.08,,,,,,,,,,,,,,,,,,,,,,,,,,,,,,,,,,A,train_x,x_increasing_steps,top_left,2024-10-29_23h27.35.844,HideSeek_v1,2022.2.5,60.44560498012444,
,2,1,7,1,5,0,66,,train_dim1_1,18,30,2,0,2,0,,,,,,,,,0,0,0,0,0,17,17,17,0,0,0,0,,,,,,,,,,,,,,,,,,,,,,,stimuli/alien_stimuli/66.png,,,,,,,,,,,,,,,,,,,,,,,,,,,,,stimuli/alien_stimuli/26.png,26,2,19,,,,,,,30,,,,,,,,178.6399962999858,178.6399962999858,178.6399962999858,178.6399962999858,178.6399962999858,right,1.091489099955652,17,0,0,99,0.08,-0.32,right,0.9901373999891803,,,,,177.0719409000012,178.6399962999858,0.08,-0.08,0.0,0.08,-0.08,0.08,0.04,0.08,-0.08,175.9859373999643,175.9859373999643,175.9859373999643,175.9859373999643,175.9859373999643,175.9859373999643,175.9859373999643,175.9859373999643,175.93885319997207,1.2016932000406086,return,1.05912960000569,,,,,,,,,,,A,train_x,x_increasing_steps,top_left,2024-10-29_23h27.35.844,HideSeek_v1,2022.2.5,60.44560498012444,
,2,1,7,1,5,0,66,,train_dim1_1,18,30,2,0,2,0,,,,,,,,,0,0,0,0,0,17,17,17,1,0,1,0,,,,,,,,,,,,,,,,,,,,,,,,,,,,,,,,,,,,,,,,,,,,,,,,,,,,,,,,,,,,,,30,,,,,,,,179.71283019997645,179.71283019997645,179.71283019997645,179.71283019997645,179.71283019997645,right,0.42712499998742715,17,0,0,99,0.16,-0.32,right,0.3438651000033133,,,,,,,,,,,,,,,,,,,,,,,,,,,,,,,,,,,,,,A,train_x,x_increasing_steps,top_left,2024-10-29_23h27.35.844,HideSeek_v1,2022.2.5,60.44560498012444,
,2,1,7,1,5,0,66,,train_dim1_1,18,30,2,0,2,0,,,,,,,,,0,0,0,0,0,17,17,17,2,0,2,0,,,,,,,,,,,,,,,,,,,,,,,,,,,,,,,,,,,,,,,,,,,,,,,,,,,,,,,,,,,,,,30,,,,,,,,180.15509559999919,180.15509559999919,180.15509559999919,180.15509559999919,180.15509559999919,right,0.4106775000109337,17,0,0,99,0.24,-0.32,right,0.3319864999502897,,,,,,,,,,,,,,,,,,,,,,,,,,,,,,,,,,,,,,A,train_x,x_increasing_steps,top_left,2024-10-29_23h27.35.844,HideSeek_v1,2022.2.5,60.44560498012444,
,2,1,7,1,5,0,66,,train_dim1_1,18,30,2,0,2,0,,,,,,,,,0,0,0,0,0,17,17,17,3,0,3,0,,,,,,,,,,,,,,,,,,,,,,,,,,,,,,,,,,,,,,,,,,,,,,,,,,,,,,,,,,,,,,30,,,,,,,,180.55952579999575,180.55952579999575,180.55952579999575,180.55952579999575,180.55952579999575,right,0.4114829999743961,17,0,0,99,0.32,-0.32,right,0.34280019998550415,,,,,,,,,,,,,,,,,,,,,,,,,,,,,,,,,,,,,,A,train_x,x_increasing_steps,top_left,2024-10-29_23h27.35.844,HideSeek_v1,2022.2.5,60.44560498012444,
,2,1,7,1,5,0,66,,train_dim1_1,18,30,2,0,2,0,,,,,,,,,0,0,0,0,0,17,17,17,4,0,4,0,,,,,,,,,,,,,,,,,,,,,,,,,,,,,,,,,,,,,,,,,,,,,,,,,,,,,,,,,,,,,,30,,,,,,,,180.97960389999207,180.97960389999207,180.97960389999207,180.97960389999207,180.97960389999207,right,0.47748040000442415,17,0,0,99,0.4,-0.32,right,0.40309229999547824,,,,,,,,,,,,,,,,,,,,,,,,,,,,,,,,,,,,,,A,train_x,x_increasing_steps,top_left,2024-10-29_23h27.35.844,HideSeek_v1,2022.2.5,60.44560498012444,
,2,1,7,1,5,0,66,,train_dim1_1,18,30,2,0,2,0,,,,,,,,,0,0,0,0,0,17,17,17,5,0,5,0,,,,,,,,,,,,,,,,,,,,,,,,,,,,,,,,,,,,,,,,,,,,,,,,,,,,,,,,,,,,,,30,,,,,,,,181.46020460000727,181.46020460000727,181.46020460000727,181.46020460000727,181.46020460000727,return,0.4614437000127509,18,0,0,1,0.4,-0.32,return,0.38636740000220016,0,42,0.4,-0.32,,,,,,,,,,,,,,,,,,,,,,,,,,,,,,,,,,A,train_x,x_increasing_steps,top_left,2024-10-29_23h27.35.844,HideSeek_v1,2022.2.5,60.44560498012444,
,0,3,2,3,2,0,36,,train_dim1_1,19,30,2,0,2,0,,,,,,,,,0,0,0,0,0,18,18,18,0,0,0,0,,,,,,,,,,,,,,,,,,,,,,,stimuli/alien_stimuli/36.png,,,,,,,,,,,,,,,,,,,,,,,,,,,,,stimuli/alien_stimuli/66.png,66,2,20,,,,,,,30,,,,,,,,186.29972389998147,186.29972389998147,186.29972389998147,186.29972389998147,186.29972389998147,right,1.3257196000195108,18,0,0,99,-0.08,-0.16,right,1.2079118000110611,,,,,184.72184449998895,186.29972389998147,0.4,-0.32,0.0,0.4,-0.32,0.4,0.2,0.4,-0.32,183.52324519999092,183.52324519999092,183.52324519999092,183.52324519999092,183.52324519999092,183.52324519999092,183.52324519999092,183.52324519999092,183.45469869996305,1.3362919999635778,return,1.181165600020904,,,,,,,,,,,A,train_x,x_increasing_steps,top_left,2024-10-29_23h27.35.844,HideSeek_v1,2022.2.5,60.44560498012444,
,0,3,2,3,2,0,36,,train_dim1_1,19,30,2,0,2,0,,,,,,,,,0,0,0,0,0,18,18,18,1,0,1,0,,,,,,,,,,,,,,,,,,,,,,,,,,,,,,,,,,,,,,,,,,,,,,,,,,,,,,,,,,,,,,30,,,,,,,,187.59350119996816,187.59350119996816,187.59350119996816,187.59350119996816,187.59350119996816,right,0.4269472999731079,18,0,0,99,0.0,-0.16,right,0.3514551999978721,,,,,,,,,,,,,,,,,,,,,,,,,,,,,,,,,,,,,,A,train_x,x_increasing_steps,top_left,2024-10-29_23h27.35.844,HideSeek_v1,2022.2.5,60.44560498012444,
,0,3,2,3,2,0,36,,train_dim1_1,19,30,2,0,2,0,,,,,,,,,0,0,0,0,0,18,18,18,2,0,2,0,,,,,,,,,,,,,,,,,,,,,,,,,,,,,,,,,,,,,,,,,,,,,,,,,,,,,,,,,,,,,,30,,,,,,,,188.0227399999858,188.0227399999858,188.0227399999858,188.0227399999858,188.0227399999858,return,0.37782350002089515,19,0,0,1,0.0,-0.16,return,0.31658089999109507,0,44,0.0,-0.16,,,,,,,,,,,,,,,,,,,,,,,,,,,,,,,,,,A,train_x,x_increasing_steps,top_left,2024-10-29_23h27.35.844,HideSeek_v1,2022.2.5,60.44560498012444,
,0,1,0,1,0,0,16,,train_dim1_1,20,30,2,0,2,0,,,,,,,,,0,0,0,0,0,19,19,19,0,0,0,0,,,,,,,,,,,,,,,,,,,,,,,stimuli/alien_stimuli/16.png,,,,,,,,,,,,,,,,,,,,,,,,,,,,,stimuli/alien_stimuli/36.png,36,0,21,,,,,,,30,,,,,,,,198.73068360000616,198.73068360000616,198.73068360000616,198.73068360000616,198.73068360000616,return,2.2416398999630474,20,0,0,1,-0.16,-0.32,return,2.158348399971146,0,44,-0.16,-0.32,197.17176549998112,198.73068360000616,0,-0.16,0.0,0.16,-0.16,0,-0.08,0,-0.16,189.98954879998928,189.98954879998928,189.98954879998928,189.98954879998928,189.98954879998928,189.98954879998928,189.98954879998928,189.98954879998928,189.9216893999721,7.302097100007813,return,7.15857029997278,,,,,,,,,,,A,train_x,x_increasing_steps,top_left,2024-10-29_23h27.35.844,HideSeek_v1,2022.2.5,60.44560498012444,
,4,2,6,2,2,0,36,,train_dim1_1,21,30,2,0,2,0,,,,,,,,,0,0,0,0,0,20,20,20,0,0,0,0,,,,,,,,,,,,,,,,,,,,,,,stimuli/alien_stimuli/36.png,,,,,,,,,,,,,,,,,,,,,,,,,,,,,stimuli/alien_stimuli/16.png,16,0,22,,,,,,,30,,,,,,,,205.52766359999077,205.52766359999077,205.52766359999077,205.52766359999077,205.52766359999077,right,0.9754157999996096,20,0,0,99,0.24,-0.24,right,0.8936071999487467,,,,,203.97131389996503,205.52766359999077,-0.16,-0.32,0.0,0.0,-0.32,-0.16,-0.16,-0.16,-0.32,202.53198639996117,202.53198639996117,202.53198639996117,202.53198639996117,202.53198639996117,202.53198639996117,202.53198639996117,202.53198639996117,202.48858479995397,1.551364700018894,return,1.411024599976372,,,,,,,,,,,A,train_x,x_increasing_steps,top_left,2024-10-29_23h27.35.844,HideSeek_v1,2022.2.5,60.44560498012444,
,4,2,6,2,2,0,36,,train_dim1_1,21,30,2,0,2,0,,,,,,,,,0,0,0,0,0,20,20,20,1,0,1,0,,,,,,,,,,,,,,,,,,,,,,,,,,,,,,,,,,,,,,,,,,,,,,,,,,,,,,,,,,,,,,30,,,,,,,,206.48754860000918,206.48754860000918,206.48754860000918,206.48754860000918,206.48754860000918,right,0.3780644999933429,20,0,0,99,0.32,-0.24,right,0.3098724000155926,,,,,,,,,,,,,,,,,,,,,,,,,,,,,,,,,,,,,,A,train_x,x_increasing_steps,top_left,2024-10-29_23h27.35.844,HideSeek_v1,2022.2.5,60.44560498012444,
,4,2,6,2,2,0,36,,train_dim1_1,21,30,2,0,2,0,,,,,,,,,0,0,0,0,0,20,20,20,2,0,2,0,,,,,,,,,,,,,,,,,,,,,,,,,,,,,,,,,,,,,,,,,,,,,,,,,,,,,,,,,,,,,,30,,,,,,,,206.87391779996688,206.87391779996688,206.87391779996688,206.87391779996688,206.87391779996688,return,0.3268421000102535,21,0,0,1,0.32,-0.24,return,0.25846420001471415,0,46,0.32,-0.24,,,,,,,,,,,,,,,,,,,,,,,,,,,,,,,,,,A,train_x,x_increasing_steps,top_left,2024-10-29_23h27.35.844,HideSeek_v1,2022.2.5,60.44560498012444,
,1,0,2,0,1,0,26,,train_dim1_1,22,30,2,0,2,0,,,,,,,,,0,0,0,0,0,21,21,21,0,0,0,0,,,,,,,,,,,,,,,,,,,,,,,stimuli/alien_stimuli/26.png,,,,,,,,,,,,,,,,,,,,,,,,,,,,,stimuli/alien_stimuli/36.png,36,4,23,,,,,,,30,,,,,,,,211.57808760000626,211.57808760000626,211.57808760000626,211.57808760000626,211.57808760000626,right,0.7097861000220291,21,0,0,99,0.0,-0.4,right,0.6125134999747388,,,,,210.02164930000436,211.57808760000626,0.32,-0.24,0.0,0.16,-0.24,0.32,0.24,0.32,-0.24,208.78068329999223,208.78068329999223,208.78068329999223,208.78068329999223,208.78068329999223,208.78068329999223,208.78068329999223,208.78068329999223,208.7378194000048,1.3520803000428714,return,1.2096531999995932,,,,,,,,,,,A,train_x,x_increasing_steps,top_left,2024-10-29_23h27.35.844,HideSeek_v1,2022.2.5,60.44560498012444,
,1,0,2,0,1,0,26,,train_dim1_1,22,30,2,0,2,0,,,,,,,,,0,0,0,0,0,21,21,21,1,0,1,0,,,,,,,,,,,,,,,,,,,,,,,,,,,,,,,,,,,,,,,,,,,,,,,,,,,,,,,,,,,,,,30,,,,,,,,212.2771316000144,212.2771316000144,212.2771316000144,212.2771316000144,212.2771316000144,return,0.3433320999611169,22,0,0,1,0.0,-0.4,return,0.2654880000045523,0,47,0.0,-0.4,,,,,,,,,,,,,,,,,,,,,,,,,,,,,,,,,,A,train_x,x_increasing_steps,top_left,2024-10-29_23h27.35.844,HideSeek_v1,2022.2.5,60.44560498012444,
,2,1,7,1,5,0,66,,train_dim1_1,23,30,2,0,2,0,,,,,,,,,0,0,0,0,0,22,22,22,0,0,0,0,,,,,,,,,,,,,,,,,,,,,,,stimuli/alien_stimuli/66.png,,,,,,,,,,,,,,,,,,,,,,,,,,,,,stimuli/alien_stimuli/26.png,26,1,24,,,,,,,30,,,,,,,,216.1961605999968,216.1961605999968,216.1961605999968,216.1961605999968,216.1961605999968,right,0.8915447000181302,22,0,0,99,0.08,-0.32,right,0.7766941000008956,,,,,214.6218864999828,216.1961605999968,0,-0.4,0.0,0.08,-0.4,0,-0.04,0,-0.4,214.20518489996903,214.20518489996903,214.20518489996903,214.20518489996903,214.20518489996903,214.20518489996903,214.20518489996903,214.20518489996903,214.15495029996964,0.5356442999909632,return,0.38968610001029447,,,,,,,,,,,A,train_x,x_increasing_steps,top_left,2024-10-29_23h27.35.844,HideSeek_v1,2022.2.5,60.44560498012444,
,2,1,7,1,5,0,66,,train_dim1_1,23,30,2,0,2,0,,,,,,,,,0,0,0,0,0,22,22,22,1,0,1,0,,,,,,,,,,,,,,,,,,,,,,,,,,,,,,,,,,,,,,,,,,,,,,,,,,,,,,,,,,,,,,30,,,,,,,,217.0582912999671,217.0582912999671,217.0582912999671,217.0582912999671,217.0582912999671,right,0.31071550003252923,22,0,0,99,0.16,-0.32,right,0.23074769997037947,,,,,,,,,,,,,,,,,,,,,,,,,,,,,,,,,,,,,,A,train_x,x_increasing_steps,top_left,2024-10-29_23h27.35.844,HideSeek_v1,2022.2.5,60.44560498012444,
,2,1,7,1,5,0,66,,train_dim1_1,23,30,2,0,2,0,,,,,,,,,0,0,0,0,0,22,22,22,2,0,2,0,,,,,,,,,,,,,,,,,,,,,,,,,,,,,,,,,,,,,,,,,,,,,,,,,,,,,,,,,,,,,,30,,,,,,,,217.37374710000586,217.37374710000586,217.37374710000586,217.37374710000586,217.37374710000586,right,0.2938057000283152,22,0,0,99,0.24,-0.32,right,0.2283045999938622,,,,,,,,,,,,,,,,,,,,,,,,,,,,,,,,,,,,,,A,train_x,x_increasing_steps,top_left,2024-10-29_23h27.35.844,HideSeek_v1,2022.2.5,60.44560498012444,
,2,1,7,1,5,0,66,,train_dim1_1,23,30,2,0,2,0,,,,,,,,,0,0,0,0,0,22,22,22,3,0,3,0,,,,,,,,,,,,,,,,,,,,,,,,,,,,,,,,,,,,,,,,,,,,,,,,,,,,,,,,,,,,,,30,,,,,,,,217.67491549998522,217.67491549998522,217.67491549998522,217.67491549998522,217.67491549998522,right,0.2941901999874972,22,0,0,99,0.32,-0.32,right,0.2183223000029102,,,,,,,,,,,,,,,,,,,,,,,,,,,,,,,,,,,,,,A,train_x,x_increasing_steps,top_left,2024-10-29_23h27.35.844,HideSeek_v1,2022.2.5,60.44560498012444,
,2,1,7,1,5,0,66,,train_dim1_1,23,30,2,0,2,0,,,,,,,,,0,0,0,0,0,22,22,22,4,0,4,0,,,,,,,,,,,,,,,,,,,,,,,,,,,,,,,,,,,,,,,,,,,,,,,,,,,,,,,,,,,,,,30,,,,,,,,217.97173499997007,217.97173499997007,217.97173499997007,217.97173499997007,217.97173499997007,right,0.2946624999749474,22,0,0,99,0.4,-0.32,right,0.2194088000105694,,,,,,,,,,,,,,,,,,,,,,,,,,,,,,,,,,,,,,A,train_x,x_increasing_steps,top_left,2024-10-29_23h27.35.844,HideSeek_v1,2022.2.5,60.44560498012444,
,2,1,7,1,5,0,66,,train_dim1_1,23,30,2,0,2,0,,,,,,,,,0,0,0,0,0,22,22,22,5,0,5,0,,,,,,,,,,,,,,,,,,,,,,,,,,,,,,,,,,,,,,,,,,,,,,,,,,,,,,,,,,,,,,30,,,,,,,,218.2735044999863,218.2735044999863,218.2735044999863,218.2735044999863,218.2735044999863,return,0.27730549999978393,23,0,0,1,0.4,-0.32,return,0.20413179998286068,0,52,0.4,-0.32,,,,,,,,,,,,,,,,,,,,,,,,,,,,,,,,,,A,train_x,x_increasing_steps,top_left,2024-10-29_23h27.35.844,HideSeek_v1,2022.2.5,60.44560498012444,
,4,4,7,4,3,0,46,,train_dim1_1,24,30,2,0,2,0,,,,,,,,,0,0,0,0,0,23,23,23,0,0,0,0,,,,,,,,,,,,,,,,,,,,,,,stimuli/alien_stimuli/46.png,,,,,,,,,,,,,,,,,,,,,,,,,,,,,stimuli/alien_stimuli/66.png,66,2,25,,,,,,,30,,,,,,,,222.4757857999648,222.4757857999648,222.4757857999648,222.4757857999648,222.4757857999648,right,2.9748012000345625,23,0,0,99,0.24,-0.08,right,2.8812568000284955,,,,,220.92126530001406,222.4757857999648,0.4,-0.32,0.0,0.4,-0.32,0.4,0.2,0.4,-0.32,220.1349650999764,220.1349650999764,220.1349650999764,220.1349650999764,220.1349650999764,220.1349650999764,220.1349650999764,220.1349650999764,220.0878354999877,0.902119499980472,return,0.7679480999941006,,,,,,,,,,,A,train_x,x_increasing_steps,top_left,2024-10-29_23h27.35.844,HideSeek_v1,2022.2.5,60.44560498012444,
,4,4,7,4,3,0,46,,train_dim1_1,24,30,2,0,2,0,,,,,,,,,0,0,0,0,0,23,23,23,1,0,1,0,,,,,,,,,,,,,,,,,,,,,,,,,,,,,,,,,,,,,,,,,,,,,,,,,,,,,,,,,,,,,,30,,,,,,,,225.44329510000534,225.44329510000534,225.44329510000534,225.44329510000534,225.44329510000534,right,0.29423430003225803,23,0,0,99,0.32,-0.08,right,0.21238879999145865,,,,,,,,,,,,,,,,,,,,,,,,,,,,,,,,,,,,,,A,train_x,x_increasing_steps,top_left,2024-10-29_23h27.35.844,HideSeek_v1,2022.2.5,60.44560498012444,
,4,4,7,4,3,0,46,,train_dim1_1,24,30,2,0,2,0,,,,,,,,,0,0,0,0,0,23,23,23,2,0,2,0,,,,,,,,,,,,,,,,,,,,,,,,,,,,,,,,,,,,,,,,,,,,,,,,,,,,,,,,,,,,,,30,,,,,,,,225.73560049996013,225.73560049996013,225.73560049996013,225.73560049996013,225.73560049996013,right,0.29371110000647604,23,0,0,99,0.4,-0.08,right,0.22514530003536493,,,,,,,,,,,,,,,,,,,,,,,,,,,,,,,,,,,,,,A,train_x,x_increasing_steps,top_left,2024-10-29_23h27.35.844,HideSeek_v1,2022.2.5,60.44560498012444,
,4,4,7,4,3,0,46,,train_dim1_1,24,30,2,0,2,0,,,,,,,,,0,0,0,0,0,23,23,23,3,0,3,0,,,,,,,,,,,,,,,,,,,,,,,,,,,,,,,,,,,,,,,,,,,,,,,,,,,,,,,,,,,,,,30,,,,,,,,226.0431433999911,226.0431433999911,226.0431433999911,226.0431433999911,226.0431433999911,return,0.2923776999814436,24,0,0,1,0.4,-0.08,return,0.2157539000036195,0,55,0.4,-0.08,,,,,,,,,,,,,,,,,,,,,,,,,,,,,,,,,,A,train_x,x_increasing_steps,top_left,2024-10-29_23h27.35.844,HideSeek_v1,2022.2.5,60.44560498012444,
,3,0,3,0,0,0,16,,train_dim1_1,25,30,2,0,2,0,,,,,,,,,0,0,0,0,0,24,24,24,0,0,0,0,,,,,,,,,,,,,,,,,,,,,,,stimuli/alien_stimuli/16.png,,,,,,,,,,,,,,,,,,,,,,,,,,,,,stimuli/alien_stimuli/46.png,46,4,26,,,,,,,30,,,,,,,,232.45446689997334,232.45446689997334,232.45446689997334,232.45446689997334,232.45446689997334,return,1.3238180999760516,25,0,0,1,0.08,-0.4,return,1.2237563999951817,0,55,0.08,-0.4,230.88827269995818,232.45446689997334,0.4,-0.08,0.0,0.24,-0.08,0.4,0.28,0.4,-0.08,227.91789069998777,227.91789069998777,227.91789069998777,227.91789069998777,227.91789069998777,227.91789069998777,227.91789069998777,227.91789069998777,227.8709816999908,3.0857470000046305,return,2.954000299971085,,,,,,,,,,,A,train_x,x_increasing_steps,top_left,2024-10-29_23h27.35.844,HideSeek_v1,2022.2.5,60.44560498012444,
,1,1,6,1,5,0,66,,train_dim1_1,26,30,2,0,2,0,,,,,,,,,0,0,0,0,0,25,25,25,0,0,0,0,,,,,,,,,,,,,,,,,,,,,,,stimuli/alien_stimuli/66.png,,,,,,,,,,,,,,,,,,,,,,,,,,,,,stimuli/alien_stimuli/16.png,16,3,27,,,,,,,30,,,,,,,,238.03753049997613,238.03753049997613,238.03753049997613,238.03753049997613,238.03753049997613,right,1.2079937999951653,25,0,0,99,0.0,-0.32,right,1.0947814999963157,,,,,236.45431379997171,238.03753049997613,0.08,-0.4,0.0,0.0,-0.4,0.08,0.08,0.08,-0.4,235.3408524999977,235.3408524999977,235.3408524999977,235.3408524999977,235.3408524999977,235.3408524999977,235.3408524999977,235.3408524999977,235.28792189995875,1.2356683000107296,return,1.0904057000298053,,,,,,,,,,,A,train_x,x_increasing_steps,top_left,2024-10-29_23h27.35.844,HideSeek_v1,2022.2.5,60.44560498012444,
,1,1,6,1,5,0,66,,train_dim1_1,26,30,2,0,2,0,,,,,,,,,0,0,0,0,0,25,25,25,1,0,1,0,,,,,,,,,,,,,,,,,,,,,,,,,,,,,,,,,,,,,,,,,,,,,,,,,,,,,,,,,,,,,,30,,,,,,,,239.24610649998067,239.24610649998067,239.24610649998067,239.24610649998067,239.24610649998067,right,0.3434971999959089,25,0,0,99,0.08,-0.32,right,0.22763420001138002,,,,,,,,,,,,,,,,,,,,,,,,,,,,,,,,,,,,,,A,train_x,x_increasing_steps,top_left,2024-10-29_23h27.35.844,HideSeek_v1,2022.2.5,60.44560498012444,
,1,1,6,1,5,0,66,,train_dim1_1,26,30,2,0,2,0,,,,,,,,,0,0,0,0,0,25,25,25,2,0,2,0,,,,,,,,,,,,,,,,,,,,,,,,,,,,,,,,,,,,,,,,,,,,,,,,,,,,,,,,,,,,,,30,,,,,,,,239.55482809996465,239.55482809996465,239.55482809996465,239.55482809996465,239.55482809996465,right,0.34486409998498857,25,0,0,99,0.16,-0.32,right,0.27243240003008395,,,,,,,,,,,,,,,,,,,,,,,,,,,,,,,,,,,,,,A,train_x,x_increasing_steps,top_left,2024-10-29_23h27.35.844,HideSeek_v1,2022.2.5,60.44560498012444,
,1,1,6,1,5,0,66,,train_dim1_1,26,30,2,0,2,0,,,,,,,,,0,0,0,0,0,25,25,25,3,0,3,0,,,,,,,,,,,,,,,,,,,,,,,,,,,,,,,,,,,,,,,,,,,,,,,,,,,,,,,,,,,,,,30,,,,,,,,239.9056652999716,239.9056652999716,239.9056652999716,239.9056652999716,239.9056652999716,right,0.361054899985902,25,0,0,99,0.24,-0.32,right,0.2874028999940492,,,,,,,,,,,,,,,,,,,,,,,,,,,,,,,,,,,,,,A,train_x,x_increasing_steps,top_left,2024-10-29_23h27.35.844,HideSeek_v1,2022.2.5,60.44560498012444,
,1,1,6,1,5,0,66,,train_dim1_1,26,30,2,0,2,0,,,,,,,,,0,0,0,0,0,25,25,25,4,0,4,0,,,,,,,,,,,,,,,,,,,,,,,,,,,,,,,,,,,,,,,,,,,,,,,,,,,,,,,,,,,,,,30,,,,,,,,240.2725021999795,240.2725021999795,240.2725021999795,240.2725021999795,240.2725021999795,right,0.29408219998003915,25,0,0,99,0.32,-0.32,right,0.23130089999176562,,,,,,,,,,,,,,,,,,,,,,,,,,,,,,,,,,,,,,A,train_x,x_increasing_steps,top_left,2024-10-29_23h27.35.844,HideSeek_v1,2022.2.5,60.44560498012444,
,1,1,6,1,5,0,66,,train_dim1_1,26,30,2,0,2,0,,,,,,,,,0,0,0,0,0,25,25,25,5,0,5,0,,,,,,,,,,,,,,,,,,,,,,,,,,,,,,,,,,,,,,,,,,,,,,,,,,,,,,,,,,,,,,30,,,,,,,,240.57345009996789,240.57345009996789,240.57345009996789,240.57345009996789,240.57345009996789,return,0.344271200010553,26,0,0,1,0.32,-0.32,return,0.2781334000173956,0,60,0.32,-0.32,,,,,,,,,,,,,,,,,,,,,,,,,,,,,,,,,,A,train_x,x_increasing_steps,top_left,2024-10-29_23h27.35.844,HideSeek_v1,2022.2.5,60.44560498012444,
,0,1,2,1,2,0,36,,train_dim1_1,27,30,2,0,2,0,,,,,,,,,0,0,0,0,0,26,26,26,0,0,0,0,,,,,,,,,,,,,,,,,,,,,,,stimuli/alien_stimuli/36.png,,,,,,,,,,,,,,,,,,,,,,,,,,,,,stimuli/alien_stimuli/66.png,66,1,28,,,,,,,30,,,,,,,,246.97752760001458,246.97752760001458,246.97752760001458,246.97752760001458,246.97752760001458,right,1.1249395000049844,26,0,0,99,-0.08,-0.32,right,1.0335010000271723,,,,,245.4212990999804,246.97752760001458,0.32,-0.32,0.0,0.4,-0.32,0.32,0.12,0.32,-0.32,242.51611719996436,242.51611719996436,242.51611719996436,242.51611719996436,242.51611719996436,242.51611719996436,242.51611719996436,242.51611719996436,242.47096559996135,3.018945000017993,return,2.8731444999575615,,,,,,,,,,,A,train_x,x_increasing_steps,top_left,2024-10-29_23h27.35.844,HideSeek_v1,2022.2.5,60.44560498012444,
,0,1,2,1,2,0,36,,train_dim1_1,27,30,2,0,2,0,,,,,,,,,0,0,0,0,0,26,26,26,1,0,1,0,,,,,,,,,,,,,,,,,,,,,,,,,,,,,,,,,,,,,,,,,,,,,,,,,,,,,,,,,,,,,,30,,,,,,,,248.0881606999901,248.0881606999901,248.0881606999901,248.0881606999901,248.0881606999901,right,0.4767965999781154,26,0,0,99,0.0,-0.32,right,0.4134489999851212,,,,,,,,,,,,,,,,,,,,,,,,,,,,,,,,,,,,,,A,train_x,x_increasing_steps,top_left,2024-10-29_23h27.35.844,HideSeek_v1,2022.2.5,60.44560498012444,
,0,1,2,1,2,0,36,,train_dim1_1,27,30,2,0,2,0,,,,,,,,,0,0,0,0,0,26,26,26,2,0,2,0,,,,,,,,,,,,,,,,,,,,,,,,,,,,,,,,,,,,,,,,,,,,,,,,,,,,,,,,,,,,,,30,,,,,,,,248.56986220000545,248.56986220000545,248.56986220000545,248.56986220000545,248.56986220000545,return,0.361419000022579,27,0,0,1,0.0,-0.32,return,0.30020900000818074,0,62,0.0,-0.32,,,,,,,,,,,,,,,,,,,,,,,,,,,,,,,,,,A,train_x,x_increasing_steps,top_left,2024-10-29_23h27.35.844,HideSeek_v1,2022.2.5,60.44560498012444,
,3,1,4,1,1,0,26,,train_dim1_1,28,30,2,0,2,0,,,,,,,,,0,0,0,0,0,27,27,27,0,0,0,0,,,,,,,,,,,,,,,,,,,,,,,stimuli/alien_stimuli/26.png,,,,,,,,,,,,,,,,,,,,,,,,,,,,,stimuli/alien_stimuli/36.png,36,0,29,,,,,,,30,,,,,,,,271.2298224999686,271.2298224999686,271.2298224999686,271.2298224999686,271.2298224999686,right,2.124990100041032,27,0,0,99,0.16,-0.32,right,2.035329099977389,,,,,269.67063790000975,271.2298224999686,0,-0.32,0.0,0.16,-0.32,0,-0.08,0,-0.32,250.5259191999794,250.5259191999794,250.5259191999794,250.5259191999794,250.5259191999794,250.5259191999794,250.5259191999794,250.5259191999794,250.47078159995726,19.268719400046393,return,19.12343989999499,,,,,,,,,,,A,train_x,x_increasing_steps,top_left,2024-10-29_23h27.35.844,HideSeek_v1,2022.2.5,60.44560498012444,
,3,1,4,1,1,0,26,,train_dim1_1,28,30,2,0,2,0,,,,,,,,,0,0,0,0,0,27,27,27,1,0,1,0,,,,,,,,,,,,,,,,,,,,,,,,,,,,,,,,,,,,,,,,,,,,,,,,,,,,,,,,,,,,,,30,,,,,,,,273.34454700001515,273.34454700001515,273.34454700001515,273.34454700001515,273.34454700001515,return,0.4771904000081122,28,0,0,1,0.16,-0.32,return,0.40863449999596924,0,63,0.16,-0.32,,,,,,,,,,,,,,,,,,,,,,,,,,,,,,,,,,A,train_x,x_increasing_steps,top_left,2024-10-29_23h27.35.844,HideSeek_v1,2022.2.5,60.44560498012444,
,4,0,7,0,3,0,46,,train_dim1_1,29,30,2,0,2,0,,,,,,,,,0,0,0,0,0,28,28,28,0,0,0,0,,,,,,,,,,,,,,,,,,,,,,,stimuli/alien_stimuli/46.png,,,,,,,,,,,,,,,,,,,,,,,,,,,,,stimuli/alien_stimuli/26.png,26,3,30,,,,,,,30,,,,,,,,277.8706461999682,277.8706461999682,277.8706461999682,277.8706461999682,277.8706461999682,right,3.3254895000136457,28,0,0,99,0.24,-0.4,right,3.2271986000123434,,,,,276.3043580999947,277.8706461999682,0.16,-0.32,0.0,0.08,-0.32,0.16,0.12,0.16,-0.32,275.394665299973,275.394665299973,275.394665299973,275.394665299973,275.394665299973,275.394665299973,275.394665299973,275.394665299973,275.3538806999859,1.0189065000158735,return,0.8859914999920875,,,,,,,,,,,A,train_x,x_increasing_steps,top_left,2024-10-29_23h27.35.844,HideSeek_v1,2022.2.5,60.44560498012444,
,4,0,7,0,3,0,46,,train_dim1_1,29,30,2,0,2,0,,,,,,,,,0,0,0,0,0,28,28,28,1,0,1,0,,,,,,,,,,,,,,,,,,,,,,,,,,,,,,,,,,,,,,,,,,,,,,,,,,,,,,,,,,,,,,30,,,,,,,,281.1716180999647,281.1716180999647,281.1716180999647,281.1716180999647,281.1716180999647,right,0.32769700000062585,28,0,0,99,0.32,-0.4,right,0.2589348999899812,,,,,,,,,,,,,,,,,,,,,,,,,,,,,,,,,,,,,,A,train_x,x_increasing_steps,top_left,2024-10-29_23h27.35.844,HideSeek_v1,2022.2.5,60.44560498012444,
,4,0,7,0,3,0,46,,train_dim1_1,29,30,2,0,2,0,,,,,,,,,0,0,0,0,0,28,28,28,2,0,2,0,,,,,,,,,,,,,,,,,,,,,,,,,,,,,,,,,,,,,,,,,,,,,,,,,,,,,,,,,,,,,,30,,,,,,,,281.5132025000057,281.5132025000057,281.5132025000057,281.5132025000057,281.5132025000057,right,0.2574037000304088,28,0,0,99,0.4,-0.4,right,0.18840330000966787,,,,,,,,,,,,,,,,,,,,,,,,,,,,,,,,,,,,,,A,train_x,x_increasing_steps,top_left,2024-10-29_23h27.35.844,HideSeek_v1,2022.2.5,60.44560498012444,
,4,0,7,0,3,0,46,,train_dim1_1,29,30,2,0,2,0,,,,,,,,,0,0,0,0,0,28,28,28,3,0,3,0,,,,,,,,,,,,,,,,,,,,,,,,,,,,,,,,,,,,,,,,,,,,,,,,,,,,,,,,,,,,,,30,,,,,,,,281.7743882999639,281.7743882999639,281.7743882999639,281.7743882999639,281.7743882999639,return,0.29429130000062287,29,0,0,1,0.4,-0.4,return,0.22479770000791177,0,66,0.4,-0.4,,,,,,,,,,,,,,,,,,,,,,,,,,,,,,,,,,A,train_x,x_increasing_steps,top_left,2024-10-29_23h27.35.844,HideSeek_v1,2022.2.5,60.44560498012444,
,2,2,2,2,0,0,16,,train_dim1_1,30,30,2,0,2,0,,,,,,,,,0,0,0,0,0,29,29,29,0,0,0,0,,,,,,,,,,,,,,,,,,,,,,,stimuli/alien_stimuli/16.png,,,,,,,,,,,,,,,,,,,,,,,,,,,,,stimuli/alien_stimuli/46.png,46,4,31,,,,,,,30,,,,,,,,286.1214352999814,286.1214352999814,286.1214352999814,286.1214352999814,286.1214352999814,return,3.8913215000065975,30,0,0,1,0,-0.24,return,3.7729172999970615,0,66,0,-0.24,284.53732399997534,286.1214352999814,0.4,-0.4,0.0,0.24,-0.4,0.4,0.28,0.4,-0.4,283.653819500003,283.653819500003,283.653819500003,283.653819500003,283.653819500003,283.653819500003,283.653819500003,283.653819500003,283.6038433999929,1.0017495999927633,return,0.8555453000008129,,,,,,,,,,,A,train_x,x_increasing_steps,top_left,2024-10-29_23h27.35.844,HideSeek_v1,2022.2.5,60.44560498012444,
,,,,,,,,,,,30,2,0,2,0,,,,,,,,,,,,,,,,,,,,,,,,,,,,,,,,,,,,,,,,,,,,,,,,,,,,,,,,,,,,,,,,,,,,,,,,stimuli/alien_stimuli/16.png,16,2,32,17,0.7,1.25,1,1,1,30,0,conditions/schedules/train_x_first/x_increasing_steps/top_left/inputTrain_2.1.xlsx,99,1,2,1,0,,,,,,,,,,,1,,,,,,,,,292.4374305999954,293.97222820000025,0,-0.24,0.0,0.0,-0.24,0,0.0,0,-0.24,291.5537518999772,291.5537518999772,291.5537518999772,291.5537518999772,291.5537518999772,291.5537518999772,291.5537518999772,291.5537518999772,291.5039607999788,1.0022034000139683,return,0.8673969999654219,0,1.25,0,1,30,,,,,,A,train_x,x_increasing_steps,top_left,2024-10-29_23h27.35.844,HideSeek_v1,2022.2.5,60.44560498012444,
,,,,,,,,,,,,3,0,3,0,0,0,0,0,,,,,,,,,,,,,,,,,,,,,,,,,,,,,conditions/schedules/train_x_first/x_increasing_steps/top_left/instructions/Slide17.png,conditions/schedules/train_x_first/x_increasing_steps/top_left/instructions/Audio17.wav,293.97222820000025,293.97057020001233,17,"[4.644008600036614, 0.3743260999908671, 0.39635190000990406, 0.37714880000567064, 0.48543589998735115, 0.37962809996679425, 0.41163279995089397, 0.45220970001537353, 1.1445273999706842, 0.7237837999709882, 0.6556941000162624, 0.6399773000157438, 0.8884019000106491, 0.5702399000292644, 0.8402631999924779, 0.4707971000461839, 2.7468074000207707]","[0.14003739994950593, 0.1639331000042148, 0.12865879997843876, 0.15204760001506656, 0.16213889996288344, 0.1779988999478519, 0.15157809999072924, 0.1603078999905847, 0.1717153000063263, 0.15542990004178137, 0.17367629997897893, 0.6399841000093147, 0.17017350002424791, 0.570245300012175, 0.16953720001038164, 0.47080440004356205, 2.746815800026525]",0,,,,,,,,,,,,,,,,,,,,,,,,,,,,,,,,,,,,,,,,,,,,,,,,,,,,,,,,,,,,,,,,,,,,,,,,,,,,,,,,,,,,,,,,,,,,,,,,,,,,,,A,train_x,x_increasing_steps,top_left,2024-10-29_23h27.35.844,HideSeek_v1,2022.2.5,60.44560498012444,
,,,,,,,,,,,,3,0,3,0,1,0,1,0,,,,,,,,,,,,,,,,,,,,,,,,,,,,,conditions/schedules/train_x_first/x_increasing_steps/top_left/instructions/Slide18.png,conditions/schedules/train_x_first/x_increasing_steps/top_left/instructions/Audio18.wav,296.76421319996007,296.75405789999644,18,"[4.644008600036614, 0.3743260999908671, 0.39635190000990406, 0.37714880000567064, 0.48543589998735115, 0.37962809996679425, 0.41163279995089397, 0.45220970001537353, 1.1445273999706842, 0.7237837999709882, 0.6556941000162624, 0.6399773000157438, 0.8884019000106491, 0.5702399000292644, 0.8402631999924779, 0.4707971000461839, 2.7468074000207707, 1.8378130000201054]","[0.14003739994950593, 0.1639331000042148, 0.12865879997843876, 0.15204760001506656, 0.16213889996288344, 0.1779988999478519, 0.15157809999072924, 0.1603078999905847, 0.1717153000063263, 0.15542990004178137, 0.17367629997897893, 0.6399841000093147, 0.17017350002424791, 0.570245300012175, 0.16953720001038164, 0.47080440004356205, 0.07051640003919601, 1.8378206000197679]",0,,,,,,,,,,,,,,,,,,,,,,,,,,,,,,,,,,,,,,,,,,,,,,,,,,,,,,,,,,,,,,,,,,,,,,,,,,,,,,,,,,,,,,,,,,,,,,,,,,,,,,A,train_x,x_increasing_steps,top_left,2024-10-29_23h27.35.844,HideSeek_v1,2022.2.5,60.44560498012444,
,,,,,,,,,,,,3,0,3,0,2,0,2,0,,,,,,,,,,,,,,,,,,,,,,,,,,,,,conditions/schedules/train_x_first/x_increasing_steps/top_left/instructions/Slide19.png,conditions/schedules/train_x_first/x_increasing_steps/top_left/instructions/Audio19.wav,298.64233920001425,298.637387399975,19,"[4.644008600036614, 0.3743260999908671, 0.39635190000990406, 0.37714880000567064, 0.48543589998735115, 0.37962809996679425, 0.41163279995089397, 0.45220970001537353, 1.1445273999706842, 0.7237837999709882, 0.6556941000162624, 0.6399773000157438, 0.8884019000106491, 0.5702399000292644, 0.8402631999924779, 0.4707971000461839, 2.7468074000207707, 1.8378130000201054, 0.6436516999965534]","[0.14003739994950593, 0.1639331000042148, 0.12865879997843876, 0.15204760001506656, 0.16213889996288344, 0.1779988999478519, 0.15157809999072924, 0.1603078999905847, 0.1717153000063263, 0.15542990004178137, 0.17367629997897893, 0.6399841000093147, 0.17017350002424791, 0.570245300012175, 0.16953720001038164, 0.47080440004356205, 0.07051640003919601, 0.04315119999228045, 0.6436575999832712]",0,,,,,,,,,,,,,,,,,,,,,,,,,,,,,,,,,,,,,,,,,,,,,,,,,,,,,,,,,,,,,,,,,,,,,,,,,,,,,,,,,,,,,,,,,,,,,,,,,,,,,,A,train_x,x_increasing_steps,top_left,2024-10-29_23h27.35.844,HideSeek_v1,2022.2.5,60.44560498012444,
,,,,,,,,,,,,3,0,3,0,3,0,3,0,,,,,,,,,,,,,,,,,,,,,,,,,,,,,conditions/schedules/train_x_first/x_increasing_steps/top_left/instructions/Slide20.png,conditions/schedules/train_x_first/x_increasing_steps/top_left/instructions/Audio20.wav,299.33717069996055,299.3206725000113,20,"[4.644008600036614, 0.3743260999908671, 0.39635190000990406, 0.37714880000567064, 0.48543589998735115, 0.37962809996679425, 0.41163279995089397, 0.45220970001537353, 1.1445273999706842, 0.7237837999709882, 0.6556941000162624, 0.6399773000157438, 0.8884019000106491, 0.5702399000292644, 0.8402631999924779, 0.4707971000461839, 2.7468074000207707, 1.8378130000201054, 0.6436516999965534, 1.2029773999820463]","[0.14003739994950593, 0.1639331000042148, 0.12865879997843876, 0.15204760001506656, 0.16213889996288344, 0.1779988999478519, 0.15157809999072924, 0.1603078999905847, 0.1717153000063263, 0.15542990004178137, 0.17367629997897893, 0.6399841000093147, 0.17017350002424791, 0.570245300012175, 0.16953720001038164, 0.47080440004356205, 0.07051640003919601, 0.04315119999228045, 0.052645299991127104, 1.2029838999733329]",0,,,,,,,,,,,,,,,,,,,,,,,,,,,,,,,,,,,,,,,,,,,,,,,,,,,,,,,,,,,,,,,,,,,,,,,,,,,,,,,,,,,,,,,,,,,,,,,,,,,,,,A,train_x,x_increasing_steps,top_left,2024-10-29_23h27.35.844,HideSeek_v1,2022.2.5,60.44560498012444,
1,2,3,2,8,0,5,11,2,instr_dim1_2,,,3,0,3,0,,,,,0,0,0,0,,,,,,,,,,,,,,,,,,,,,,,,,,,,,,,,,,,stimuli/alien_stimuli/11.png,conditions/schedules/train_x_first/x_increasing_steps/top_left/inputInstr_2.xlsx,stimuli/alien_stimuli/11.png,300.6052237999975,300.6052237999975,300.6052237999975,300.6052237999975,300.60373879995313,return,3.812588999979198,"[-0.16, -0.08, 0, 0.08, 0.16, 0.24, 0.32, 0.4, 0.48, 0.56]","[-0.4, -0.32, -0.24, -0.16, -0.08, 0, 0.08, 0.16, 0.24, 0.32]",8,3,2,2,0.4,0.0,304.5875764999655,304.5875764999655,304.5875764999655,304.5875764999655,304.5875764999655,304.5875764999655,304.5875764999655,304.5207459000056,1.300442399980966,return,1.1264984000008553,stimuli/alien_stimuli/11.png,11,2,1,,,,,,,,,,,,,,,,,,,,,,,,,,,,,,,,,,,,,,,,,,,,,,,,,,,,,,,,,,,,,,,,,,,A,train_x,x_increasing_steps,top_left,2024-10-29_23h27.35.844,HideSeek_v1,2022.2.5,60.44560498012444,
,,,,,,,,,,,30,3,0,3,0,,,,,,,,,,,,,,,,,,,,,,,,,,,,,,,,,,,,,,,,,,,,,,,,,,,,,,,,,,,,,,,,,,,,,,,,,,,,17,0.7,1.25,1,99,2,30,0,conditions/schedules/train_x_first/x_increasing_steps/top_left/inputTrain_2.1.xlsx,99,1,2,1,0,,,,,,,,,,,,,,,,,,,,,,,,,,,,,,,,,,,,,,,,,,,,,,,,,,,,,A,train_x,x_increasing_steps,top_left,2024-10-29_23h27.35.844,HideSeek_v1,2022.2.5,60.44560498012444,
,,,,,,,,,,,,4,0,4,0,0,0,0,0,,,,,,,,,,,,,,,,,,,,,,,,,,,,,conditions/schedules/train_x_first/x_increasing_steps/top_left/instructions/Slide21.png,conditions/schedules/train_x_first/x_increasing_steps/top_left/instructions/Audio21.wav,305.83777429995826,305.83708479999916,21,"[4.644008600036614, 0.3743260999908671, 0.39635190000990406, 0.37714880000567064, 0.48543589998735115, 0.37962809996679425, 0.41163279995089397, 0.45220970001537353, 1.1445273999706842, 0.7237837999709882, 0.6556941000162624, 0.6399773000157438, 0.8884019000106491, 0.5702399000292644, 0.8402631999924779, 0.4707971000461839, 2.7468074000207707, 1.8378130000201054, 0.6436516999965534, 1.2029773999820463, 2.9141692999983206]","[0.14003739994950593, 0.1639331000042148, 0.12865879997843876, 0.15204760001506656, 0.16213889996288344, 0.1779988999478519, 0.15157809999072924, 0.1603078999905847, 0.1717153000063263, 0.15542990004178137, 0.17367629997897893, 0.6399841000093147, 0.17017350002424791, 0.570245300012175, 0.16953720001038164, 0.47080440004356205, 0.07051640003919601, 0.04315119999228045, 0.052645299991127104, 1.2029838999733329, 2.9141762999934144]",0,,,,,,,,,,,,,,,,,,,,,,,,,,,,,,,,,,,,,,,,,,,,,,,,,,,,,,,,,,,,,,,,,,,,,,,,,,,,,,,,,,,,,,,,,,,,,,,,,,,,,,A,train_x,x_increasing_steps,top_left,2024-10-29_23h27.35.844,HideSeek_v1,2022.2.5,60.44560498012444,
2,0,3,0,3,0,0,16,2,instr_dim1_2,,,4,0,4,0,,,,,0,0,0,0,,,,,,,,,,,,,,,,,,,,,,,,,,,,,,,,,,,stimuli/alien_stimuli/16.png,conditions/schedules/train_x_first/x_increasing_steps/top_left/inputInstr_2.xlsx,stimuli/alien_stimuli/16.png,308.8124001999968,308.8124001999968,308.8124001999968,308.8124001999968,308.8038213999709,return,0.931667800003197,"[-0.16, -0.08, 0, 0.08, 0.16, 0.24, 0.32, 0.4, 0.48, 0.56]","[-0.4, -0.32, -0.24, -0.16, -0.08, 0, 0.08, 0.16, 0.24, 0.32]",3,3,0,0,0.0,0.0,309.8548567999969,309.8548567999969,309.8548567999969,309.8548567999969,309.8548567999969,309.8548567999969,309.8548567999969,309.853418800002,0.41764990001684055,return,0.3042132999980822,stimuli/alien_stimuli/16.png,16,0,2,,,,,,,,,,,,,,,,,,,,,,,,,,,,,,,,,,,,,,,,,,,,,,,,,,,,,,,,,,,,,,,,,,,A,train_x,x_increasing_steps,top_left,2024-10-29_23h27.35.844,HideSeek_v1,2022.2.5,60.44560498012444,
,,,,,,,,,,,30,4,0,4,0,,,,,,,,,,,,,,,,,,,,,,,,,,,,,,,,,,,,,,,,,,,,,,,,,,,,,,,,,,,,,,,,,,,,,,,,,,,,17,0.7,1.25,1,99,2,30,0,conditions/schedules/train_x_first/x_increasing_steps/top_left/inputTrain_2.1.xlsx,99,1,2,1,0,,,,,,,,,,,,,,,,,,,,,,,,,,,,,,,,,,,,,,,,,,,,,,,,,,,,,A,train_x,x_increasing_steps,top_left,2024-10-29_23h27.35.844,HideSeek_v1,2022.2.5,60.44560498012444,
,,,,,,,,,,,,5,0,5,0,0,0,0,0,,,,,,,,,,,,,,,,,,,,,,,,,,,,,conditions/schedules/train_x_first/x_increasing_steps/top_left/instructions/Slide22.png,conditions/schedules/train_x_first/x_increasing_steps/top_left/instructions/Audio22.wav,310.28763879998587,310.28691929997296,22,"[4.644008600036614, 0.3743260999908671, 0.39635190000990406, 0.37714880000567064, 0.48543589998735115, 0.37962809996679425, 0.41163279995089397, 0.45220970001537353, 1.1445273999706842, 0.7237837999709882, 0.6556941000162624, 0.6399773000157438, 0.8884019000106491, 0.5702399000292644, 0.8402631999924779, 0.4707971000461839, 2.7468074000207707, 1.8378130000201054, 0.6436516999965534, 1.2029773999820463, 2.9141692999983206, 0.8652139999903738]","[0.14003739994950593, 0.1639331000042148, 0.12865879997843876, 0.15204760001506656, 0.16213889996288344, 0.1779988999478519, 0.15157809999072924, 0.1603078999905847, 0.1717153000063263, 0.15542990004178137, 0.17367629997897893, 0.6399841000093147, 0.17017350002424791, 0.570245300012175, 0.16953720001038164, 0.47080440004356205, 0.07051640003919601, 0.04315119999228045, 0.052645299991127104, 1.2029838999733329, 2.9141762999934144, 0.8652202999801375]",0,,,,,,,,,,,,,,,,,,,,,,,,,,,,,,,,,,,,,,,,,,,,,,,,,,,,,,,,,,,,,,,,,,,,,,,,,,,,,,,,,,,,,,,,,,,,,,,,,,,,,,A,train_x,x_increasing_steps,top_left,2024-10-29_23h27.35.844,HideSeek_v1,2022.2.5,60.44560498012444,
,0,0,0,1,0,1,15,,train_dim1_2,1,30,5,0,5,0,,,,,,,,,0,0,0,0,0,0,0,0,0,0,0,0,,,,,,,,,,,,,,,,,,,,,,,stimuli/alien_stimuli/15.png,,,,,,,,,,,,,,,,,,,,,,,,,,,,,,,,,,,,,,,30,,,,,,,,311.22214929998154,311.22214929998154,311.22214929998154,311.22214929998154,311.22214929998154,up,2.2724200999946333,0,0,0,99,-0.16,-0.32,up,2.1826661999803036,,,,,,,,,,,,,,,,,,,,,,,,,,,,,,,,,,,,,,A,train_x,x_increasing_steps,top_left,2024-10-29_23h27.35.844,HideSeek_v1,2022.2.5,60.44560498012444,
,0,0,0,1,0,1,15,,train_dim1_2,1,30,5,0,5,0,,,,,,,,,0,0,0,0,0,0,0,0,1,0,1,0,,,,,,,,,,,,,,,,,,,,,,,,,,,,,,,,,,,,,,,,,,,,,,,,,,,,,,,,,,,,,,30,,,,,,,,313.4909453999717,313.4909453999717,313.4909453999717,313.4909453999717,313.4909453999717,return,0.7270273000467569,1,0,0,1,-0.16,-0.32,return,0.6604930000030436,1,66,-0.16,-0.32,,,,,,,,,,,,,,,,,,,,,,,,,,,,,,,,,,A,train_x,x_increasing_steps,top_left,2024-10-29_23h27.35.844,HideSeek_v1,2022.2.5,60.44560498012444,
,3,2,3,2,0,0,16,,train_dim1_2,2,30,5,0,5,0,,,,,,,,,0,0,0,0,0,1,1,1,0,0,0,0,,,,,,,,,,,,,,,,,,,,,,,stimuli/alien_stimuli/16.png,,,,,,,,,,,,,,,,,,,,,,,,,,,,,stimuli/alien_stimuli/15.png,15,0,3,,,,,,,30,,,,,,,,318.4864879999659,318.4864879999659,318.4864879999659,318.4864879999659,318.4864879999659,return,0.9083623000187799,2,0,0,1,0.08,-0.24,return,0.8313902000081725,1,66,0.08,-0.24,316.93714230001206,318.4864879999659,-0.16,-0.32,0.08,0.0,-0.36,-0.16,-0.16,-0.16,-0.32,315.76646079996135,315.76646079996135,315.76646079996135,315.76646079996135,315.76646079996135,315.76646079996135,315.76646079996135,315.76646079996135,315.7532573999779,1.2524045000318438,return,1.146584799978882,,,,,,,,,,,A,train_x,x_increasing_steps,top_left,2024-10-29_23h27.35.844,HideSeek_v1,2022.2.5,60.44560498012444,
,2,3,2,5,0,2,14,,train_dim1_2,3,30,5,0,5,0,,,,,,,,,0,0,0,0,0,2,2,2,0,0,0,0,,,,,,,,,,,,,,,,,,,,,,,stimuli/alien_stimuli/14.png,,,,,,,,,,,,,,,,,,,,,,,,,,,,,stimuli/alien_stimuli/16.png,16,3,4,,,,,,,30,,,,,,,,322.96824329998344,322.96824329998344,322.96824329998344,322.96824329998344,322.96824329998344,up,0.592150499986019,2,0,0,99,0,-0.08,up,0.508989299996756,,,,,321.41999109997414,322.96824329998344,0.08,-0.24,0.0,0.0,-0.24,0.08,0.08,0.08,-0.24,320.9370600999682,320.9370600999682,320.9370600999682,320.9370600999682,320.9370600999682,320.9370600999682,320.9370600999682,320.9370600999682,320.92012049999903,0.569399899977725,return,0.45918810000875965,,,,,,,,,,,A,train_x,x_increasing_steps,top_left,2024-10-29_23h27.35.844,HideSeek_v1,2022.2.5,60.44560498012444,
,2,3,2,5,0,2,14,,train_dim1_2,3,30,5,0,5,0,,,,,,,,,0,0,0,0,0,2,2,2,1,0,1,0,,,,,,,,,,,,,,,,,,,,,,,,,,,,,,,,,,,,,,,,,,,,,,,,,,,,,,,,,,,,,,30,,,,,,,,323.56236149999313,323.56236149999313,323.56236149999313,323.56236149999313,323.56236149999313,up,0.377346099994611,2,0,0,99,0,0.0,up,0.2996619999757968,,,,,,,,,,,,,,,,,,,,,,,,,,,,,,,,,,,,,,A,train_x,x_increasing_steps,top_left,2024-10-29_23h27.35.844,HideSeek_v1,2022.2.5,60.44560498012444,
,2,3,2,5,0,2,14,,train_dim1_2,3,30,5,0,5,0,,,,,,,,,0,0,0,0,0,2,2,2,2,0,2,0,,,,,,,,,,,,,,,,,,,,,,,,,,,,,,,,,,,,,,,,,,,,,,,,,,,,,,,,,,,,,,30,,,,,,,,323.96211379999295,323.96211379999295,323.96211379999295,323.96211379999295,323.96211379999295,return,0.3443754999898374,3,0,0,1,0,0.0,return,0.25861580000491813,3,66,0,0.0,,,,,,,,,,,,,,,,,,,,,,,,,,,,,,,,,,A,train_x,x_increasing_steps,top_left,2024-10-29_23h27.35.844,HideSeek_v1,2022.2.5,60.44560498012444,
,0,1,0,5,0,4,12,,train_dim1_2,4,30,5,0,5,0,,,,,,,,,0,0,0,0,0,3,3,3,0,0,0,0,,,,,,,,,,,,,,,,,,,,,,,stimuli/alien_stimuli/12.png,,,,,,,,,,,,,,,,,,,,,,,,,,,,,stimuli/alien_stimuli/14.png,14,2,5,,,,,,,30,,,,,,,,327.8462056000135,327.8462056000135,327.8462056000135,327.8462056000135,327.8462056000135,up,7.174907900043763,3,0,0,99,-0.16,-0.24,up,7.073857799987309,,,,,326.270296600007,327.8462056000135,0,0,0.16,0.0,-0.08,0,0.0,0,0,325.82683919998817,325.82683919998817,325.82683919998817,325.82683919998817,325.82683919998817,325.82683919998817,325.82683919998817,325.82683919998817,325.8197642999876,0.5189840999664739,return,0.41448550001950935,,,,,,,,,,,A,train_x,x_increasing_steps,top_left,2024-10-29_23h27.35.844,HideSeek_v1,2022.2.5,60.44560498012444,
,0,1,0,5,0,4,12,,train_dim1_2,4,30,5,0,5,0,,,,,,,,,0,0,0,0,0,3,3,3,1,0,1,0,,,,,,,,,,,,,,,,,,,,,,,,,,,,,,,,,,,,,,,,,,,,,,,,,,,,,,,,,,,,,,30,,,,,,,,334.99055579997366,334.99055579997366,334.99055579997366,334.99055579997366,334.99055579997366,up,0.34402550000231713,3,0,0,99,-0.16,-0.15999999999999998,up,0.2791328000021167,,,,,,,,,,,,,,,,,,,,,,,,,,,,,,,,,,,,,,A,train_x,x_increasing_steps,top_left,2024-10-29_23h27.35.844,HideSeek_v1,2022.2.5,60.44560498012444,
,0,1,0,5,0,4,12,,train_dim1_2,4,30,5,0,5,0,,,,,,,,,0,0,0,0,0,3,3,3,2,0,2,0,,,,,,,,,,,,,,,,,,,,,,,,,,,,,,,,,,,,,,,,,,,,,,,,,,,,,,,,,,,,,,30,,,,,,,,335.3424051000038,335.3424051000038,335.3424051000038,335.3424051000038,335.3424051000038,up,0.3275128999957815,3,0,0,99,-0.16,-0.07999999999999997,up,0.2470317999832332,,,,,,,,,,,,,,,,,,,,,,,,,,,,,,,,,,,,,,A,train_x,x_increasing_steps,top_left,2024-10-29_23h27.35.844,HideSeek_v1,2022.2.5,60.44560498012444,
,0,1,0,5,0,4,12,,train_dim1_2,4,30,5,0,5,0,,,,,,,,,0,0,0,0,0,3,3,3,3,0,3,0,,,,,,,,,,,,,,,,,,,,,,,,,,,,,,,,,,,,,,,,,,,,,,,,,,,,,,,,,,,,,,30,,,,,,,,335.67483239999274,335.67483239999274,335.67483239999274,335.67483239999274,335.67483239999274,up,0.2775864999857731,3,0,0,99,-0.16,2.7755575615628914e-17,up,0.2127669000183232,,,,,,,,,,,,,,,,,,,,,,,,,,,,,,,,,,,,,,A,train_x,x_increasing_steps,top_left,2024-10-29_23h27.35.844,HideSeek_v1,2022.2.5,60.44560498012444,
,0,1,0,5,0,4,12,,train_dim1_2,4,30,5,0,5,0,,,,,,,,,0,0,0,0,0,3,3,3,4,0,4,0,,,,,,,,,,,,,,,,,,,,,,,,,,,,,,,,,,,,,,,,,,,,,,,,,,,,,,,,,,,,,,30,,,,,,,,335.95750199997565,335.95750199997565,335.95750199997565,335.95750199997565,335.95750199997565,return,0.2778435000218451,4,0,0,1,-0.16,2.7755575615628914e-17,return,0.20747790002496913,7,66,-0.16,2.7755575615628914e-17,,,,,,,,,,,,,,,,,,,,,,,,,,,,,,,,,,A,train_x,x_increasing_steps,top_left,2024-10-29_23h27.35.844,HideSeek_v1,2022.2.5,60.44560498012444,
,3,3,3,8,0,5,11,,train_dim1_2,5,30,5,0,5,0,,,,,,,,,0,0,0,0,0,4,4,4,0,0,0,0,,,,,,,,,,,,,,,,,,,,,,,stimuli/alien_stimuli/11.png,,,,,,,,,,,,,,,,,,,,,,,,,,,,,stimuli/alien_stimuli/12.png,12,0,6,,,,,,,30,,,,,,,,339.79359399998793,339.79359399998793,339.79359399998793,339.79359399998793,339.79359399998793,up,0.6252427999861538,4,0,0,99,0.08,-0.08,up,0.5563191999681294,,,,,338.2534459999879,339.79359399998793,-0.16,0,0.32,0.0,-0.16,-0.16,-0.16,-0.16,0,337.77734279999277,337.77734279999277,337.77734279999277,337.77734279999277,337.77734279999277,337.77734279999277,337.77734279999277,337.77734279999277,337.7698466999864,0.5523649000097066,return,0.4489931000280194,,,,,,,,,,,A,train_x,x_increasing_steps,top_left,2024-10-29_23h27.35.844,HideSeek_v1,2022.2.5,60.44560498012444,
,3,3,3,8,0,5,11,,train_dim1_2,5,30,5,0,5,0,,,,,,,,,0,0,0,0,0,4,4,4,1,0,1,0,,,,,,,,,,,,,,,,,,,,,,,,,,,,,,,,,,,,,,,,,,,,,,,,,,,,,,,,,,,,,,30,,,,,,,,340.42727649997687,340.42727649997687,340.42727649997687,340.42727649997687,340.42727649997687,up,0.27653339999960735,4,0,0,99,0.08,0.0,up,0.20401859999401495,,,,,,,,,,,,,,,,,,,,,,,,,,,,,,,,,,,,,,A,train_x,x_increasing_steps,top_left,2024-10-29_23h27.35.844,HideSeek_v1,2022.2.5,60.44560498012444,
,3,3,3,8,0,5,11,,train_dim1_2,5,30,5,0,5,0,,,,,,,,,0,0,0,0,0,4,4,4,2,0,2,0,,,,,,,,,,,,,,,,,,,,,,,,,,,,,,,,,,,,,,,,,,,,,,,,,,,,,,,,,,,,,,30,,,,,,,,340.7099736999953,340.7099736999953,340.7099736999953,340.7099736999953,340.7099736999953,up,0.2444287000107579,4,0,0,99,0.08,0.08,up,0.17250919999787584,,,,,,,,,,,,,,,,,,,,,,,,,,,,,,,,,,,,,,A,train_x,x_increasing_steps,top_left,2024-10-29_23h27.35.844,HideSeek_v1,2022.2.5,60.44560498012444,
,3,3,3,8,0,5,11,,train_dim1_2,5,30,5,0,5,0,,,,,,,,,0,0,0,0,0,4,4,4,3,0,3,0,,,,,,,,,,,,,,,,,,,,,,,,,,,,,,,,,,,,,,,,,,,,,,,,,,,,,,,,,,,,,,30,,,,,,,,340.95801140001277,340.95801140001277,340.95801140001277,340.95801140001277,340.95801140001277,up,0.260860699985642,4,0,0,99,0.08,0.16,up,0.19269739999435842,,,,,,,,,,,,,,,,,,,,,,,,,,,,,,,,,,,,,,A,train_x,x_increasing_steps,top_left,2024-10-29_23h27.35.844,HideSeek_v1,2022.2.5,60.44560498012444,
,3,3,3,8,0,5,11,,train_dim1_2,5,30,5,0,5,0,,,,,,,,,0,0,0,0,0,4,4,4,4,0,4,0,,,,,,,,,,,,,,,,,,,,,,,,,,,,,,,,,,,,,,,,,,,,,,,,,,,,,,,,,,,,,,30,,,,,,,,341.22364939999534,341.22364939999534,341.22364939999534,341.22364939999534,341.22364939999534,up,0.24401820002822205,4,0,0,99,0.08,0.24,up,0.17981189995771274,,,,,,,,,,,,,,,,,,,,,,,,,,,,,,,,,,,,,,A,train_x,x_increasing_steps,top_left,2024-10-29_23h27.35.844,HideSeek_v1,2022.2.5,60.44560498012444,
,3,3,3,8,0,5,11,,train_dim1_2,5,30,5,0,5,0,,,,,,,,,0,0,0,0,0,4,4,4,5,0,5,0,,,,,,,,,,,,,,,,,,,,,,,,,,,,,,,,,,,,,,,,,,,,,,,,,,,,,,,,,,,,,,30,,,,,,,,341.4755007000058,341.4755007000058,341.4755007000058,341.4755007000058,341.4755007000058,return,0.22738910000771284,5,0,0,1,0.08,0.24,return,0.16127740003867075,12,66,0.08,0.24,,,,,,,,,,,,,,,,,,,,,,,,,,,,,,,,,,A,train_x,x_increasing_steps,top_left,2024-10-29_23h27.35.844,HideSeek_v1,2022.2.5,60.44560498012444,
,1,4,1,8,0,4,12,,train_dim1_2,6,30,5,0,5,0,,,,,,,,,0,0,0,0,0,5,5,5,0,0,0,0,,,,,,,,,,,,,,,,,,,,,,,stimuli/alien_stimuli/12.png,,,,,,,,,,,,,,,,,,,,,,,,,,,,,stimuli/alien_stimuli/11.png,11,3,7,,,,,,,30,,,,,,,,345.2281124999863,345.2281124999863,345.2281124999863,345.2281124999863,345.2281124999863,up,0.6415799999958836,5,0,0,99,-0.08,0.0,up,0.5720295999781229,,,,,343.68692499998724,345.2281124999863,0.08,0.24,0.4,0.0,0.039999999999999994,0.08,0.08,0.08,0.24,343.2461164999986,343.2461164999986,343.2461164999986,343.2461164999986,343.2461164999986,343.2461164999986,343.2461164999986,343.2461164999986,343.23643249997986,0.5185812000418082,return,0.40819499996723607,,,,,,,,,,,A,train_x,x_increasing_steps,top_left,2024-10-29_23h27.35.844,HideSeek_v1,2022.2.5,60.44560498012444,
,1,4,1,8,0,4,12,,train_dim1_2,6,30,5,0,5,0,,,,,,,,,0,0,0,0,0,5,5,5,1,0,1,0,,,,,,,,,,,,,,,,,,,,,,,,,,,,,,,,,,,,,,,,,,,,,,,,,,,,,,,,,,,,,,30,,,,,,,,345.8878917999682,345.8878917999682,345.8878917999682,345.8878917999682,345.8878917999682,up,0.27729270001873374,5,0,0,99,-0.08,0.08,up,0.1994776999927126,,,,,,,,,,,,,,,,,,,,,,,,,,,,,,,,,,,,,,A,train_x,x_increasing_steps,top_left,2024-10-29_23h27.35.844,HideSeek_v1,2022.2.5,60.44560498012444,
,1,4,1,8,0,4,12,,train_dim1_2,6,30,5,0,5,0,,,,,,,,,0,0,0,0,0,5,5,5,2,0,2,0,,,,,,,,,,,,,,,,,,,,,,,,,,,,,,,,,,,,,,,,,,,,,,,,,,,,,,,,,,,,,,30,,,,,,,,346.15694069996243,346.15694069996243,346.15694069996243,346.15694069996243,346.15694069996243,up,0.27804820000892505,5,0,0,99,-0.08,0.16,up,0.2112741000019014,,,,,,,,,,,,,,,,,,,,,,,,,,,,,,,,,,,,,,A,train_x,x_increasing_steps,top_left,2024-10-29_23h27.35.844,HideSeek_v1,2022.2.5,60.44560498012444,
,1,4,1,8,0,4,12,,train_dim1_2,6,30,5,0,5,0,,,,,,,,,0,0,0,0,0,5,5,5,3,0,3,0,,,,,,,,,,,,,,,,,,,,,,,,,,,,,,,,,,,,,,,,,,,,,,,,,,,,,,,,,,,,,,30,,,,,,,,346.44191870000213,346.44191870000213,346.44191870000213,346.44191870000213,346.44191870000213,up,0.27727399999275804,5,0,0,99,-0.08,0.24,up,0.1967624999815598,,,,,,,,,,,,,,,,,,,,,,,,,,,,,,,,,,,,,,A,train_x,x_increasing_steps,top_left,2024-10-29_23h27.35.844,HideSeek_v1,2022.2.5,60.44560498012444,
,1,4,1,8,0,4,12,,train_dim1_2,6,30,5,0,5,0,,,,,,,,,0,0,0,0,0,5,5,5,4,0,4,0,,,,,,,,,,,,,,,,,,,,,,,,,,,,,,,,,,,,,,,,,,,,,,,,,,,,,,,,,,,,,,30,,,,,,,,346.72632620000513,346.72632620000513,346.72632620000513,346.72632620000513,346.72632620000513,return,0.21098280005389825,6,0,0,1,-0.08,0.24,return,0.13437549996888265,16,66,-0.08,0.24,,,,,,,,,,,,,,,,,,,,,,,,,,,,,,,,,,A,train_x,x_increasing_steps,top_left,2024-10-29_23h27.35.844,HideSeek_v1,2022.2.5,60.44560498012444,
,1,3,1,5,0,2,14,,train_dim1_2,7,30,5,0,5,0,,,,,,,,,0,0,0,0,0,6,6,6,0,0,0,0,,,,,,,,,,,,,,,,,,,,,,,stimuli/alien_stimuli/14.png,,,,,,,,,,,,,,,,,,,,,,,,,,,,,stimuli/alien_stimuli/12.png,12,1,8,,,,,,,30,,,,,,,,350.48648189997766,350.48648189997766,350.48648189997766,350.48648189997766,350.48648189997766,up,0.5421069000149146,6,0,0,99,-0.08,-0.08,up,0.460666399972979,,,,,348.9363771000062,350.48648189997766,-0.08,0.24,0.32,0.0,0.07999999999999999,-0.08,-0.08,-0.08,0.24,348.4867497999803,348.4867497999803,348.4867497999803,348.4867497999803,348.4867497999803,348.4867497999803,348.4867497999803,348.4867497999803,348.47031179998885,0.5351370999705978,return,0.4316543999593705,,,,,,,,,,,A,train_x,x_increasing_steps,top_left,2024-10-29_23h27.35.844,HideSeek_v1,2022.2.5,60.44560498012444,
,1,3,1,5,0,2,14,,train_dim1_2,7,30,5,0,5,0,,,,,,,,,0,0,0,0,0,6,6,6,1,0,1,0,,,,,,,,,,,,,,,,,,,,,,,,,,,,,,,,,,,,,,,,,,,,,,,,,,,,,,,,,,,,,,30,,,,,,,,351.02405359997647,351.02405359997647,351.02405359997647,351.02405359997647,351.02405359997647,up,0.343830700032413,6,0,0,99,-0.08,0.0,up,0.27958790003322065,,,,,,,,,,,,,,,,,,,,,,,,,,,,,,,,,,,,,,A,train_x,x_increasing_steps,top_left,2024-10-29_23h27.35.844,HideSeek_v1,2022.2.5,60.44560498012444,
,1,3,1,5,0,2,14,,train_dim1_2,7,30,5,0,5,0,,,,,,,,,0,0,0,0,0,6,6,6,2,0,2,0,,,,,,,,,,,,,,,,,,,,,,,,,,,,,,,,,,,,,,,,,,,,,,,,,,,,,,,,,,,,,,30,,,,,,,,351.37441330001457,351.37441330001457,351.37441330001457,351.37441330001457,351.37441330001457,return,0.31065910001052544,7,0,0,1,-0.08,0.0,return,0.23190899996552616,18,66,-0.08,0.0,,,,,,,,,,,,,,,,,,,,,,,,,,,,,,,,,,A,train_x,x_increasing_steps,top_left,2024-10-29_23h27.35.844,HideSeek_v1,2022.2.5,60.44560498012444,
,4,2,4,7,0,5,11,,train_dim1_2,8,30,5,0,5,0,,,,,,,,,0,0,0,0,0,7,7,7,0,0,0,0,,,,,,,,,,,,,,,,,,,,,,,stimuli/alien_stimuli/11.png,,,,,,,,,,,,,,,,,,,,,,,,,,,,,stimuli/alien_stimuli/14.png,14,1,9,,,,,,,30,,,,,,,,355.1106991000124,355.1106991000124,355.1106991000124,355.1106991000124,355.1106991000124,up,0.4924876999575645,7,0,0,99,0.16,-0.15999999999999998,up,0.4228572999709286,,,,,353.5701001000125,355.1106991000124,-0.08,0,0.16,0.0,-0.08,-0.08,-0.08,-0.08,0,353.2280817999854,353.2280817999854,353.2280817999854,353.2280817999854,353.2280817999854,353.2280817999854,353.2280817999854,353.2280817999854,353.21971599999233,0.4186141000245698,return,0.31075100001180544,,,,,,,,,,,A,train_x,x_increasing_steps,top_left,2024-10-29_23h27.35.844,HideSeek_v1,2022.2.5,60.44560498012444,
,4,2,4,7,0,5,11,,train_dim1_2,8,30,5,0,5,0,,,,,,,,,0,0,0,0,0,7,7,7,1,0,1,0,,,,,,,,,,,,,,,,,,,,,,,,,,,,,,,,,,,,,,,,,,,,,,,,,,,,,,,,,,,,,,30,,,,,,,,355.60776380001334,355.60776380001334,355.60776380001334,355.60776380001334,355.60776380001334,up,0.31038169999374077,7,0,0,99,0.16,-0.07999999999999997,up,0.23873270000331104,,,,,,,,,,,,,,,,,,,,,,,,,,,,,,,,,,,,,,A,train_x,x_increasing_steps,top_left,2024-10-29_23h27.35.844,HideSeek_v1,2022.2.5,60.44560498012444,
,4,2,4,7,0,5,11,,train_dim1_2,8,30,5,0,5,0,,,,,,,,,0,0,0,0,0,7,7,7,2,0,2,0,,,,,,,,,,,,,,,,,,,,,,,,,,,,,,,,,,,,,,,,,,,,,,,,,,,,,,,,,,,,,,30,,,,,,,,355.92534879996674,355.92534879996674,355.92534879996674,355.92534879996674,355.92534879996674,up,0.27768270001979545,7,0,0,99,0.16,2.7755575615628914e-17,up,0.1974835000000894,,,,,,,,,,,,,,,,,,,,,,,,,,,,,,,,,,,,,,A,train_x,x_increasing_steps,top_left,2024-10-29_23h27.35.844,HideSeek_v1,2022.2.5,60.44560498012444,
,4,2,4,7,0,5,11,,train_dim1_2,8,30,5,0,5,0,,,,,,,,,0,0,0,0,0,7,7,7,3,0,3,0,,,,,,,,,,,,,,,,,,,,,,,,,,,,,,,,,,,,,,,,,,,,,,,,,,,,,,,,,,,,,,30,,,,,,,,356.20792969997274,356.20792969997274,356.20792969997274,356.20792969997274,356.20792969997274,up,0.24478030001046136,7,0,0,99,0.16,0.08000000000000003,up,0.17232870002044365,,,,,,,,,,,,,,,,,,,,,,,,,,,,,,,,,,,,,,A,train_x,x_increasing_steps,top_left,2024-10-29_23h27.35.844,HideSeek_v1,2022.2.5,60.44560498012444,
,4,2,4,7,0,5,11,,train_dim1_2,8,30,5,0,5,0,,,,,,,,,0,0,0,0,0,7,7,7,4,0,4,0,,,,,,,,,,,,,,,,,,,,,,,,,,,,,,,,,,,,,,,,,,,,,,,,,,,,,,,,,,,,,,30,,,,,,,,356.4573057999951,356.4573057999951,356.4573057999951,356.4573057999951,356.4573057999951,up,0.2779588000266813,7,0,0,99,0.16,0.16000000000000003,up,0.19723980000708252,,,,,,,,,,,,,,,,,,,,,,,,,,,,,,,,,,,,,,A,train_x,x_increasing_steps,top_left,2024-10-29_23h27.35.844,HideSeek_v1,2022.2.5,60.44560498012444,
,4,2,4,7,0,5,11,,train_dim1_2,8,30,5,0,5,0,,,,,,,,,0,0,0,0,0,7,7,7,5,0,5,0,,,,,,,,,,,,,,,,,,,,,,,,,,,,,,,,,,,,,,,,,,,,,,,,,,,,,,,,,,,,,,30,,,,,,,,356.7407821000088,356.7407821000088,356.7407821000088,356.7407821000088,356.7407821000088,return,0.2612080000108108,8,0,0,1,0.16,0.16000000000000003,return,0.18779779999749735,23,66,0.16,0.16000000000000003,,,,,,,,,,,,,,,,,,,,,,,,,,,,,,,,,,A,train_x,x_increasing_steps,top_left,2024-10-29_23h27.35.844,HideSeek_v1,2022.2.5,60.44560498012444,
,4,3,4,4,0,1,15,,train_dim1_2,9,30,5,0,5,0,,,,,,,,,0,0,0,0,0,8,8,8,0,0,0,0,,,,,,,,,,,,,,,,,,,,,,,stimuli/alien_stimuli/15.png,,,,,,,,,,,,,,,,,,,,,,,,,,,,,stimuli/alien_stimuli/11.png,11,4,10,,,,,,,30,,,,,,,,360.486682799994,360.486682799994,360.486682799994,360.486682799994,360.486682799994,up,0.5751453000120819,8,0,0,99,0.16,-0.08,up,0.5002791999722831,,,,,358.9366096999729,360.486682799994,0.16,0.16,0.4,0.0,-0.039999999999999994,0.16,0.16,0.16,0.16,358.54337639996083,358.54337639996083,358.54337639996083,358.54337639996083,358.54337639996083,358.54337639996083,358.54337639996083,358.54337639996083,358.5362668999878,0.46950609999476,return,0.3664108999655582,,,,,,,,,,,A,train_x,x_increasing_steps,top_left,2024-10-29_23h27.35.844,HideSeek_v1,2022.2.5,60.44560498012444,
