trialInstr,x_fixStart,y_fixStart,x_corrSteps,y_corrSteps,x_nrSteps,y_nrSteps,alienID,trialLength,version,trialTrain,praclen,beforeExpLoop.thisRepN,beforeExpLoop.thisTrialN,beforeExpLoop.thisN,beforeExpLoop.thisIndex,mini_instr_trials.thisRepN,mini_instr_trials.thisTrialN,mini_instr_trials.thisN,mini_instr_trials.thisIndex,instrLoop.thisRepN,instrLoop.thisTrialN,instrLoop.thisN,instrLoop.thisIndex,repeat_prac.thisRepN,repeat_prac.thisTrialN,repeat_prac.thisN,repeat_prac.thisIndex,trainLoop.thisRepN,trainLoop.thisTrialN,trainLoop.thisN,trainLoop.thisIndex,moveLoop_train.thisRepN,moveLoop_train.thisTrialN,moveLoop_train.thisN,moveLoop_train.thisIndex,start_all_time,url,slideStim,audioStim,slides.started,sounds.started,nextButton.numClicks,nextButton.timesOn,nextButton.timesOff,prev_but.numClicks,prev_but.timesOn,prev_but.timesOff,alienStim,instrFile,alienStim_instr,gridImage_instr.started,startPos_3.started,key_instr.started,alienImage_3.started,sounds_1.started,key_instr.keys,key_instr.rt,all_x,all_y,FBy_corrSteps,FBy_fixStart,FBx_corrSteps,FBx_fixStart,FBy_pathSize_check,FBx_pathSize_check,gridImage_9.started,alienImageFB_3.started,startPosFB_3.started,keyFB_3.started,pathLine_ydir_2.started,pathLine_xdir_2.started,alienFace_3.started,sounds_2.started,RTFB_instr,keyFB_3.keys,keyFB_3.rt,draw_alienStim,draw_alienID,test_x,nrepcount,perfthres,percthres,earlierperf,earlystop,nextPrac,fileidx,praclen,saveACC_train,pracFile,nextPrac_train,addNrep,fileidx_endr,repExp,showearly,gridImage_4.started,startPos.started,movePos.started,key_resp.started,alienImage.started,buttonPress_train,RTchoice_train,cumAcctrain,aCorr,saveACC_choice,corrAns,x_movePos_end,y_movePos_end,key_resp.keys,key_resp.rt,wLy_dir,wLx_dir,x_movePos,y_movePos,text_2.started,text_2.stopped,aft_x_corrPos,aft_y_corrPos,y_pathSize_check,x_pathSize_check,y_pathdirY,x_pathdirY,x_pathdirX,x_corrPos,y_corrPos,gridImage_6.started,alienImageFB_2.started,startPosFB_2.started,movePosFB_2.started,keyFB_2.started,pathLine_xdir.started,pathLine_ydir.started,alienFace.started,sounds_4.started,RT_FBtrain,keyFB_2.keys,keyFB_2.rt,saveACC_pre,ACC,within_saveACC_train,earlystop_wloop,cumAcctrain_check,participant,train_first,direction of x,starting corner,date,expName,psychopyVersion,frameRate,
,,,,,,,,,,,,0,0,0,0,0,0,0,0,,,,,,,,,,,,,,,,,start_all_time,testround,conditions/schedules/train_x_first/x_increasing_steps/top_left/instructions/Slide1.png,conditions/schedules/train_x_first/x_increasing_steps/top_left/instructions/Audio1.wav,43.45645510003669,43.399149239249525,1,[2.614062800013926],[2.614071400021203],0,,,,,,,,,,,,,,,,,,,,,,,,,,,,,,,,,,,,,,,,,,,,,,,,,,,,,,,,,,,,,,,,,,,,,,,,,,,,,,,,,,,,,,,,,,,,,,,,,A,train_x,x_increasing_steps,top_left,2024-10-29_22h47.04.119,HideSeek_v1,2022.2.5,60.027973024808425,
,,,,,,,,,,,,0,0,0,0,1,0,1,0,,,,,,,,,,,,,,,,,,,conditions/schedules/train_x_first/x_increasing_steps/top_left/instructions/Slide2.png,conditions/schedules/train_x_first/x_increasing_steps/top_left/instructions/Audio2.wav,46.07502099999692,46.07144498000853,2,"[2.614062800013926, 0.3934451999957673]","[0.15957989997696131, 0.3934519999893382]",0,,,,,,,,,,,,,,,,,,,,,,,,,,,,,,,,,,,,,,,,,,,,,,,,,,,,,,,,,,,,,,,,,,,,,,,,,,,,,,,,,,,,,,,,,,,,,,,,,A,train_x,x_increasing_steps,top_left,2024-10-29_22h47.04.119,HideSeek_v1,2022.2.5,60.027973024808425,
,,,,,,,,,,,,0,0,0,0,2,0,2,0,,,,,,,,,,,,,,,,,,,conditions/schedules/train_x_first/x_increasing_steps/top_left/instructions/Slide3.png,conditions/schedules/train_x_first/x_increasing_steps/top_left/instructions/Audio3.wav,46.52199129998917,46.504718760016836,3,"[2.614062800013926, 0.3934451999957673, 0.3541531999944709]","[0.15957989997696131, 0.15367839997634292, 0.3541618000017479]",0,,,,,,,,,,,,,,,,,,,,,,,,,,,,,,,,,,,,,,,,,,,,,,,,,,,,,,,,,,,,,,,,,,,,,,,,,,,,,,,,,,,,,,,,,,,,,,,,,A,train_x,x_increasing_steps,top_left,2024-10-29_22h47.04.119,HideSeek_v1,2022.2.5,60.027973024808425,
,,,,,,,,,,,,0,0,0,0,3,0,3,0,,,,,,,,,,,,,,,,,,,conditions/schedules/train_x_first/x_increasing_steps/top_left/instructions/Slide4.png,conditions/schedules/train_x_first/x_increasing_steps/top_left/instructions/Audio4.wav,46.92108689999441,46.90469035999849,4,"[2.614062800013926, 0.3934451999957673, 0.3541531999944709, 0.33689350000349805]","[0.15957989997696131, 0.15367839997634292, 0.17027130001224577, 0.33690029999706894]",0,,,,,,,,,,,,,,,,,,,,,,,,,,,,,,,,,,,,,,,,,,,,,,,,,,,,,,,,,,,,,,,,,,,,,,,,,,,,,,,,,,,,,,,,,,,,,,,,,A,train_x,x_increasing_steps,top_left,2024-10-29_22h47.04.119,HideSeek_v1,2022.2.5,60.027973024808425,
,,,,,,,,,,,,0,0,0,0,4,0,4,0,,,,,,,,,,,,,,,,,,,conditions/schedules/train_x_first/x_increasing_steps/top_left/instructions/Slide5.png,conditions/schedules/train_x_first/x_increasing_steps/top_left/instructions/Audio5.wav,47.28847000002861,47.287551260017786,5,"[2.614062800013926, 0.3934451999957673, 0.3541531999944709, 0.33689350000349805, 0.31363649998093024]","[0.15957989997696131, 0.15367839997634292, 0.17027130001224577, 0.16315189999295399, 0.31364389997906983]",0,,,,,,,,,,,,,,,,,,,,,,,,,,,,,,,,,,,,,,,,,,,,,,,,,,,,,,,,,,,,,,,,,,,,,,,,,,,,,,,,,,,,,,,,,,,,,,,,,A,train_x,x_increasing_steps,top_left,2024-10-29_22h47.04.119,HideSeek_v1,2022.2.5,60.027973024808425,
,,,,,,,,,,,,0,0,0,0,5,0,5,0,,,,,,,,,,,,,,,,,,,conditions/schedules/train_x_first/x_increasing_steps/top_left/instructions/Slide6.png,conditions/schedules/train_x_first/x_increasing_steps/top_left/instructions/Audio6.wav,47.63742959999945,47.63798216001596,6,"[2.614062800013926, 0.3934451999957673, 0.3541531999944709, 0.33689350000349805, 0.31363649998093024, 0.34837569994851947]","[0.15957989997696131, 0.15367839997634292, 0.17027130001224577, 0.16315189999295399, 0.16507129999808967, 0.3483821999980137]",0,,,,,,,,,,,,,,,,,,,,,,,,,,,,,,,,,,,,,,,,,,,,,,,,,,,,,,,,,,,,,,,,,,,,,,,,,,,,,,,,,,,,,,,,,,,,,,,,,A,train_x,x_increasing_steps,top_left,2024-10-29_22h47.04.119,HideSeek_v1,2022.2.5,60.027973024808425,
,,,,,,,,,,,,0,0,0,0,6,0,6,0,,,,,,,,,,,,,,,,,,,conditions/schedules/train_x_first/x_increasing_steps/top_left/instructions/Slide7.png,conditions/schedules/train_x_first/x_increasing_steps/top_left/instructions/Audio7.wav,48.020685099996626,48.0208879600279,7,"[2.614062800013926, 0.3934451999957673, 0.3541531999944709, 0.33689350000349805, 0.31363649998093024, 0.34837569994851947, 0.34884689998580143]","[0.15957989997696131, 0.15367839997634292, 0.17027130001224577, 0.16315189999295399, 0.16507129999808967, 0.1652963999658823, 0.34885289997328073]",0,,,,,,,,,,,,,,,,,,,,,,,,,,,,,,,,,,,,,,,,,,,,,,,,,,,,,,,,,,,,,,,,,,,,,,,,,,,,,,,,,,,,,,,,,,,,,,,,,A,train_x,x_increasing_steps,top_left,2024-10-29_22h47.04.119,HideSeek_v1,2022.2.5,60.027973024808425,
,,,,,,,,,,,,0,0,0,0,7,0,7,0,,,,,,,,,,,,,,,,,,,conditions/schedules/train_x_first/x_increasing_steps/top_left/instructions/Slide8.png,conditions/schedules/train_x_first/x_increasing_steps/top_left/instructions/Audio8.wav,48.40441389998887,48.40450505998451,8,"[2.614062800013926, 0.3934451999957673, 0.3541531999944709, 0.33689350000349805, 0.31363649998093024, 0.34837569994851947, 0.34884689998580143, 0.3812161000096239]","[0.15957989997696131, 0.15367839997634292, 0.17027130001224577, 0.16315189999295399, 0.16507129999808967, 0.1652963999658823, 0.17998150002676994, 0.3812253000214696]",0,,,,,,,,,,,,,,,,,,,,,,,,,,,,,,,,,,,,,,,,,,,,,,,,,,,,,,,,,,,,,,,,,,,,,,,,,,,,,,,,,,,,,,,,,,,,,,,,,A,train_x,x_increasing_steps,top_left,2024-10-29_22h47.04.119,HideSeek_v1,2022.2.5,60.027973024808425,
,,,,,,,,,,,,0,0,0,0,8,0,8,0,,,,,,,,,,,,,,,,,,,conditions/schedules/train_x_first/x_increasing_steps/top_left/instructions/Slide9.png,conditions/schedules/train_x_first/x_increasing_steps/top_left/instructions/Audio9.wav,48.82175860001007,48.82152056000195,9,"[2.614062800013926, 0.3934451999957673, 0.3541531999944709, 0.33689350000349805, 0.31363649998093024, 0.34837569994851947, 0.34884689998580143, 0.3812161000096239, 0.6456618999945931]","[0.15957989997696131, 0.15367839997634292, 0.17027130001224577, 0.16315189999295399, 0.16507129999808967, 0.1652963999658823, 0.17998150002676994, 0.16160200000740588, 0.645668699988164]",0,,,,,,,,,,,,,,,,,,,,,,,,,,,,,,,,,,,,,,,,,,,,,,,,,,,,,,,,,,,,,,,,,,,,,,,,,,,,,,,,,,,,,,,,,,,,,,,,,A,train_x,x_increasing_steps,top_left,2024-10-29_22h47.04.119,HideSeek_v1,2022.2.5,60.027973024808425,
,,,,,,,,,,,,0,0,0,0,9,0,9,0,,,,,,,,,,,,,,,,,,,conditions/schedules/train_x_first/x_increasing_steps/top_left/instructions/Slide10.png,conditions/schedules/train_x_first/x_increasing_steps/top_left/instructions/Audio10.wav,49.50474130001385,49.487999840010886,10,"[2.614062800013926, 0.3934451999957673, 0.3541531999944709, 0.33689350000349805, 0.31363649998093024, 0.34837569994851947, 0.34884689998580143, 0.3812161000096239, 0.6456618999945931, 0.4566773999831639]","[0.15957989997696131, 0.15367839997634292, 0.17027130001224577, 0.16315189999295399, 0.16507129999808967, 0.1652963999658823, 0.17998150002676994, 0.16160200000740588, 0.1727481999550946, 0.456685799988918]",0,,,,,,,,,,,,,,,,,,,,,,,,,,,,,,,,,,,,,,,,,,,,,,,,,,,,,,,,,,,,,,,,,,,,,,,,,,,,,,,,,,,,,,,,,,,,,,,,,A,train_x,x_increasing_steps,top_left,2024-10-29_22h47.04.119,HideSeek_v1,2022.2.5,60.027973024808425,
,,,,,,,,,,,,0,0,0,0,10,0,10,0,,,,,,,,,,,,,,,,,,,conditions/schedules/train_x_first/x_increasing_steps/top_left/instructions/Slide11.png,conditions/schedules/train_x_first/x_increasing_steps/top_left/instructions/Audio11.wav,49.991291799989995,49.987749860028266,11,"[2.614062800013926, 0.3934451999957673, 0.3541531999944709, 0.33689350000349805, 0.31363649998093024, 0.34837569994851947, 0.34884689998580143, 0.3812161000096239, 0.6456618999945931, 0.4566773999831639, 0.6104112000321038]","[0.15957989997696131, 0.15367839997634292, 0.17027130001224577, 0.16315189999295399, 0.16507129999808967, 0.1652963999658823, 0.17998150002676994, 0.16160200000740588, 0.1727481999550946, 0.17643799999495968, 0.6104196999804117]",0,,,,,,,,,,,,,,,,,,,,,,,,,,,,,,,,,,,,,,,,,,,,,,,,,,,,,,,,,,,,,,,,,,,,,,,,,,,,,,,,,,,,,,,,,,,,,,,,,A,train_x,x_increasing_steps,top_left,2024-10-29_22h47.04.119,HideSeek_v1,2022.2.5,60.027973024808425,
,,,,,,,,,,,,0,0,0,0,11,0,11,0,,,,,,,,,,,,,,,,,,,conditions/schedules/train_x_first/x_increasing_steps/top_left/instructions/Slide12.png,conditions/schedules/train_x_first/x_increasing_steps/top_left/instructions/Audio12.wav,50.63841660000617,50.63787526001688,12,"[2.614062800013926, 0.3934451999957673, 0.3541531999944709, 0.33689350000349805, 0.31363649998093024, 0.34837569994851947, 0.34884689998580143, 0.3812161000096239, 0.6456618999945931, 0.4566773999831639, 0.6104112000321038, 0.6122421000036411]","[0.15957989997696131, 0.15367839997634292, 0.17027130001224577, 0.16315189999295399, 0.16507129999808967, 0.1652963999658823, 0.17998150002676994, 0.16160200000740588, 0.1727481999550946, 0.17643799999495968, 0.1620960999862291, 0.6122491999994963]",0,,,,,,,,,,,,,,,,,,,,,,,,,,,,,,,,,,,,,,,,,,,,,,,,,,,,,,,,,,,,,,,,,,,,,,,,,,,,,,,,,,,,,,,,,,,,,,,,,A,train_x,x_increasing_steps,top_left,2024-10-29_22h47.04.119,HideSeek_v1,2022.2.5,60.027973024808425,
1,3,2,8,2,5,0,66,2,instr_dim1_1,,,0,0,0,0,,,,,0,0,0,0,,,,,,,,,,,,,,,,,,,,,,,,,stimuli/alien_stimuli/66.png,conditions/schedules/train_x_first/x_increasing_steps/top_left/inputInstr_1.xlsx,stimuli/alien_stimuli/66.png,51.32126520003658,51.32126520003658,51.32126520003658,51.32126520003658,51.303945279994515,return,1.6037842000368983,"[-0.16, -0.08, 0, 0.08, 0.16, 0.24, 0.32, 0.4, 0.48, 0.56]","[-0.4, -0.32, -0.24, -0.16, -0.08, 0, 0.08, 0.16, 0.24, 0.32]",2,2,8,3,0.0,0.4,53.041580600023735,53.041580600023735,53.041580600023735,53.041580600023735,53.041580600023735,53.041580600023735,53.041580600023735,53.020843699981924,0.6677709000068717,return,0.5489580999710597,stimuli/alien_stimuli/66.png,66,3,1,,,,,,,,,,,,,,,,,,,,,,,,,,,,,,,,,,,,,,,,,,,,,,,,,,,,,,,,,,,,,,A,train_x,x_increasing_steps,top_left,2024-10-29_22h47.04.119,HideSeek_v1,2022.2.5,60.027973024808425,
,,,,,,,,,,,30,0,0,0,0,,,,,,,,,,,,,,,,,,,,,,,,,,,,,,,,,,,,,,,,,,,,,,,,,,,,,,,,,,,,,,,,,,17,0.7,0,0,99,1,30,0,conditions/schedules/train_x_first/x_increasing_steps/top_left/inputTrain_1.1.xlsx,99,1,1,1,0,,,,,,,,,,,,,,,,,,,,,,,,,,,,,,,,,,,,,,,,,,,,,,,,A,train_x,x_increasing_steps,top_left,2024-10-29_22h47.04.119,HideSeek_v1,2022.2.5,60.027973024808425,
,,,,,,,,,,,,1,0,1,0,0,0,0,0,,,,,,,,,,,,,,,,,,,conditions/schedules/train_x_first/x_increasing_steps/top_left/instructions/Slide13.png,conditions/schedules/train_x_first/x_increasing_steps/top_left/instructions/Audio13.wav,53.712535200000275,53.7045225199894,13,"[2.614062800013926, 0.3934451999957673, 0.3541531999944709, 0.33689350000349805, 0.31363649998093024, 0.34837569994851947, 0.34884689998580143, 0.3812161000096239, 0.6456618999945931, 0.4566773999831639, 0.6104112000321038, 0.6122421000036411, 1.1900292999926023]","[0.15957989997696131, 0.15367839997634292, 0.17027130001224577, 0.16315189999295399, 0.16507129999808967, 0.1652963999658823, 0.17998150002676994, 0.16160200000740588, 0.1727481999550946, 0.17643799999495968, 0.1620960999862291, 0.6122491999994963, 1.1900361999869347]",0,,,,,,,,,,,,,,,,,,,,,,,,,,,,,,,,,,,,,,,,,,,,,,,,,,,,,,,,,,,,,,,,,,,,,,,,,,,,,,,,,,,,,,,,,,,,,,,,,A,train_x,x_increasing_steps,top_left,2024-10-29_22h47.04.119,HideSeek_v1,2022.2.5,60.027973024808425,
,,,,,,,,,,,,1,0,1,0,1,0,1,0,,,,,,,,,,,,,,,,,,,conditions/schedules/train_x_first/x_increasing_steps/top_left/instructions/Slide14.png,conditions/schedules/train_x_first/x_increasing_steps/top_left/instructions/Audio14.wav,54.948177099984605,54.93807516001397,14,"[2.614062800013926, 0.3934451999957673, 0.3541531999944709, 0.33689350000349805, 0.31363649998093024, 0.34837569994851947, 0.34884689998580143, 0.3812161000096239, 0.6456618999945931, 0.4566773999831639, 0.6104112000321038, 0.6122421000036411, 1.1900292999926023, 0.537017599970568]","[0.15957989997696131, 0.15367839997634292, 0.17027130001224577, 0.16315189999295399, 0.16507129999808967, 0.1652963999658823, 0.17998150002676994, 0.16160200000740588, 0.1727481999550946, 0.17643799999495968, 0.1620960999862291, 0.6122491999994963, 0.053147199971135706, 0.5370248999679461]",0,,,,,,,,,,,,,,,,,,,,,,,,,,,,,,,,,,,,,,,,,,,,,,,,,,,,,,,,,,,,,,,,,,,,,,,,,,,,,,,,,,,,,,,,,,,,,,,,,A,train_x,x_increasing_steps,top_left,2024-10-29_22h47.04.119,HideSeek_v1,2022.2.5,60.027973024808425,
2,4,0,4,0,0,0,16,2,instr_dim1_1,,,1,0,1,0,,,,,0,0,0,0,,,,,,,,,,,,,,,,,,,,,,,,,stimuli/alien_stimuli/16.png,conditions/schedules/train_x_first/x_increasing_steps/top_left/inputInstr_1.xlsx,stimuli/alien_stimuli/16.png,55.57138869998744,55.57138869998744,55.57138869998744,55.57138869998744,55.53783087999327,return,0.611035100009758,"[-0.16, -0.08, 0, 0.08, 0.16, 0.24, 0.32, 0.4, 0.48, 0.56]","[-0.4, -0.32, -0.24, -0.16, -0.08, 0, 0.08, 0.16, 0.24, 0.32]",0,0,4,4,0.0,0.0,56.33740379998926,56.33740379998926,56.33740379998926,56.33740379998926,56.33740379998926,56.33740379998926,56.33740379998926,56.28770292000845,0.46753299998817965,return,0.31099160003941506,stimuli/alien_stimuli/16.png,16,4,2,,,,,,,,,,,,,,,,,,,,,,,,,,,,,,,,,,,,,,,,,,,,,,,,,,,,,,,,,,,,,,A,train_x,x_increasing_steps,top_left,2024-10-29_22h47.04.119,HideSeek_v1,2022.2.5,60.027973024808425,
,,,,,,,,,,,30,1,0,1,0,,,,,,,,,,,,,,,,,,,,,,,,,,,,,,,,,,,,,,,,,,,,,,,,,,,,,,,,,,,,,,,,,,17,0.7,0,0,99,1,30,0,conditions/schedules/train_x_first/x_increasing_steps/top_left/inputTrain_1.1.xlsx,99,1,1,1,0,,,,,,,,,,,,,,,,,,,,,,,,,,,,,,,,,,,,,,,,,,,,,,,,A,train_x,x_increasing_steps,top_left,2024-10-29_22h47.04.119,HideSeek_v1,2022.2.5,60.027973024808425,
,,,,,,,,,,,,2,0,2,0,0,0,0,0,,,,,,,,,,,,,,,,,,,conditions/schedules/train_x_first/x_increasing_steps/top_left/instructions/Slide15.png,conditions/schedules/train_x_first/x_increasing_steps/top_left/instructions/Audio15.wav,56.77093430003151,56.77111993998987,15,"[2.614062800013926, 0.3934451999957673, 0.3541531999944709, 0.33689350000349805, 0.31363649998093024, 0.34837569994851947, 0.34884689998580143, 0.3812161000096239, 0.6456618999945931, 0.4566773999831639, 0.6104112000321038, 0.6122421000036411, 1.1900292999926023, 0.537017599970568, 1.464676600007806]","[0.15957989997696131, 0.15367839997634292, 0.17027130001224577, 0.16315189999295399, 0.16507129999808967, 0.1652963999658823, 0.17998150002676994, 0.16160200000740588, 0.1727481999550946, 0.17643799999495968, 0.1620960999862291, 0.6122491999994963, 0.053147199971135706, 0.5370248999679461, 1.464682999998331]",0,,,,,,,,,,,,,,,,,,,,,,,,,,,,,,,,,,,,,,,,,,,,,,,,,,,,,,,,,,,,,,,,,,,,,,,,,,,,,,,,,,,,,,,,,,,,,,,,,A,train_x,x_increasing_steps,top_left,2024-10-29_22h47.04.119,HideSeek_v1,2022.2.5,60.027973024808425,
,,,,,,,,,,,,2,0,2,0,1,0,1,0,,,,,,,,,,,,,,,,,,,conditions/schedules/train_x_first/x_increasing_steps/top_left/instructions/Slide16.png,conditions/schedules/train_x_first/x_increasing_steps/top_left/instructions/Audio16.wav,58.28039939998416,58.27081846002256,16,"[2.614062800013926, 0.3934451999957673, 0.3541531999944709, 0.33689350000349805, 0.31363649998093024, 0.34837569994851947, 0.34884689998580143, 0.3812161000096239, 0.6456618999945931, 0.4566773999831639, 0.6104112000321038, 0.6122421000036411, 1.1900292999926023, 0.537017599970568, 1.464676600007806, 0.5542034999816678]","[0.15957989997696131, 0.15367839997634292, 0.17027130001224577, 0.16315189999295399, 0.16507129999808967, 0.1652963999658823, 0.17998150002676994, 0.16160200000740588, 0.1727481999550946, 0.17643799999495968, 0.1620960999862291, 0.6122491999994963, 0.053147199971135706, 0.5370248999679461, 0.0539246000116691, 0.5542091999668628]",0,,,,,,,,,,,,,,,,,,,,,,,,,,,,,,,,,,,,,,,,,,,,,,,,,,,,,,,,,,,,,,,,,,,,,,,,,,,,,,,,,,,,,,,,,,,,,,,,,A,train_x,x_increasing_steps,top_left,2024-10-29_22h47.04.119,HideSeek_v1,2022.2.5,60.027973024808425,
,2,1,4,1,2,0,36,,train_dim1_1,1,30,2,0,2,0,,,,,,,,,0,0,0,0,0,0,0,0,0,0,0,0,,,,,,,,,,,,,stimuli/alien_stimuli/36.png,,,,,,,,,,,,,,,,,,,,,,,,,,,,,,,,,,,,,,,30,,,,,,,,58.904251600033604,58.904251600033604,58.904251600033604,58.904251600033604,58.904251600033604,right,1.3236262000282295,0,0,0,99,0.08,-0.32,right,1.2417793000349775,,,,,,,,,,,,,,,,,,,,,,,,,,,,,,,,,A,train_x,x_increasing_steps,top_left,2024-10-29_22h47.04.119,HideSeek_v1,2022.2.5,60.027973024808425,
,2,1,4,1,2,0,36,,train_dim1_1,1,30,2,0,2,0,,,,,,,,,0,0,0,0,0,0,0,0,1,0,1,0,,,,,,,,,,,,,,,,,,,,,,,,,,,,,,,,,,,,,,,,,,,,,,,,,,,,30,,,,,,,,60.22235160000855,60.22235160000855,60.22235160000855,60.22235160000855,60.22235160000855,right,0.16116800002055243,0,0,0,99,0.16,-0.32,right,0.09541700000409037,,,,,,,,,,,,,,,,,,,,,,,,,,,,,,,,,A,train_x,x_increasing_steps,top_left,2024-10-29_22h47.04.119,HideSeek_v1,2022.2.5,60.027973024808425,
,2,1,4,1,2,0,36,,train_dim1_1,1,30,2,0,2,0,,,,,,,,,0,0,0,0,0,0,0,0,2,0,2,0,,,,,,,,,,,,,,,,,,,,,,,,,,,,,,,,,,,,,,,,,,,,,,,,,,,,30,,,,,,,,60.38985109998612,60.38985109998612,60.38985109998612,60.38985109998612,60.38985109998612,return,0.6276765000075102,1,0,0,1,0.16,-0.32,return,0.5613537000026554,0,2,0.16,-0.32,,,,,,,,,,,,,,,,,,,,,,,,,,,,,A,train_x,x_increasing_steps,top_left,2024-10-29_22h47.04.119,HideSeek_v1,2022.2.5,60.027973024808425,
,2,4,2,4,0,0,16,,train_dim1_1,2,30,2,0,2,0,,,,,,,,,0,0,0,0,0,1,1,1,0,0,0,0,,,,,,,,,,,,,stimuli/alien_stimuli/16.png,,,,,,,,,,,,,,,,,,,,,,,,,,,,,stimuli/alien_stimuli/36.png,36,2,3,,,,,,,30,,,,,,,,64.80608900001971,64.80608900001971,64.80608900001971,64.80608900001971,64.80608900001971,return,2.1588497000047937,2,0,0,1,0,-0.08,return,2.029205299972091,0,2,0,-0.08,63.20441030000802,64.80608900001971,0.16,-0.32,0.0,0.16,-0.32,0.16,0.08,0.16,-0.32,62.592799000034574,62.592799000034574,62.592799000034574,62.592799000034574,62.592799000034574,62.592799000034574,62.592799000034574,62.592799000034574,62.55414020002354,0.7192987999878824,return,0.5914460000349209,,,,,,A,train_x,x_increasing_steps,top_left,2024-10-29_22h47.04.119,HideSeek_v1,2022.2.5,60.027973024808425,
,4,4,5,4,1,0,26,,train_dim1_1,3,30,2,0,2,0,,,,,,,,,0,0,0,0,0,2,2,2,0,0,0,0,,,,,,,,,,,,,stimuli/alien_stimuli/26.png,,,,,,,,,,,,,,,,,,,,,,,,,,,,,stimuli/alien_stimuli/16.png,16,2,4,,,,,,,30,,,,,,,,71.11927999998443,71.11927999998443,71.11927999998443,71.11927999998443,71.11927999998443,right,0.6417593999649398,2,0,0,99,0.24,-0.08,right,0.5500048999674618,,,,,69.5544799999916,71.11927999998443,0,-0.08,0.0,0.0,-0.08,0,0.0,0,-0.08,68.49286430003121,68.49286430003121,68.49286430003121,68.49286430003121,68.49286430003121,68.49286430003121,68.49286430003121,68.49286430003121,68.43773659999715,1.1854005999630317,return,1.0356729000341147,,,,,,A,train_x,x_increasing_steps,top_left,2024-10-29_22h47.04.119,HideSeek_v1,2022.2.5,60.027973024808425,
,4,4,5,4,1,0,26,,train_dim1_1,3,30,2,0,2,0,,,,,,,,,0,0,0,0,0,2,2,2,1,0,1,0,,,,,,,,,,,,,,,,,,,,,,,,,,,,,,,,,,,,,,,,,,,,,,,,,,,,30,,,,,,,,71.75368010002421,71.75368010002421,71.75368010002421,71.75368010002421,71.75368010002421,return,0.377627800044138,3,0,0,1,0.24,-0.08,return,0.2879162000026554,0,3,0.24,-0.08,,,,,,,,,,,,,,,,,,,,,,,,,,,,,A,train_x,x_increasing_steps,top_left,2024-10-29_22h47.04.119,HideSeek_v1,2022.2.5,60.027973024808425,
,2,3,5,3,3,0,46,,train_dim1_1,4,30,2,0,2,0,,,,,,,,,0,0,0,0,0,3,3,3,0,0,0,0,,,,,,,,,,,,,stimuli/alien_stimuli/46.png,,,,,,,,,,,,,,,,,,,,,,,,,,,,,stimuli/alien_stimuli/26.png,26,4,5,,,,,,,30,,,,,,,,76.34568930004025,76.34568930004025,76.34568930004025,76.34568930004025,76.34568930004025,right,1.2251582000171766,3,0,0,99,0.08,-0.16,right,1.1384828999871388,,,,,74.78781370003708,76.34568930004025,0.24,-0.08,0.0,0.08,-0.08,0.24,0.2,0.24,-0.08,73.75479560001986,73.75479560001986,73.75479560001986,73.75479560001986,73.75479560001986,73.75479560001986,73.75479560001986,73.75479560001986,73.65385709999828,1.2021135000395589,return,1.009529500035569,,,,,,A,train_x,x_increasing_steps,top_left,2024-10-29_22h47.04.119,HideSeek_v1,2022.2.5,60.027973024808425,
,2,3,5,3,3,0,46,,train_dim1_1,4,30,2,0,2,0,,,,,,,,,0,0,0,0,0,3,3,3,1,0,1,0,,,,,,,,,,,,,,,,,,,,,,,,,,,,,,,,,,,,,,,,,,,,,,,,,,,,30,,,,,,,,77.56002650002483,77.56002650002483,77.56002650002483,77.56002650002483,77.56002650002483,right,0.3262099999701604,3,0,0,99,0.16,-0.16,right,0.24690660001942888,,,,,,,,,,,,,,,,,,,,,,,,,,,,,,,,,A,train_x,x_increasing_steps,top_left,2024-10-29_22h47.04.119,HideSeek_v1,2022.2.5,60.027973024808425,
,2,3,5,3,3,0,46,,train_dim1_1,4,30,2,0,2,0,,,,,,,,,0,0,0,0,0,3,3,3,2,0,2,0,,,,,,,,,,,,,,,,,,,,,,,,,,,,,,,,,,,,,,,,,,,,,,,,,,,,30,,,,,,,,77.88576600002125,77.88576600002125,77.88576600002125,77.88576600002125,77.88576600002125,right,0.22797499998705462,3,0,0,99,0.24,-0.16,right,0.1656993000069633,,,,,,,,,,,,,,,,,,,,,,,,,,,,,,,,,A,train_x,x_increasing_steps,top_left,2024-10-29_22h47.04.119,HideSeek_v1,2022.2.5,60.027973024808425,
,2,3,5,3,3,0,46,,train_dim1_1,4,30,2,0,2,0,,,,,,,,,0,0,0,0,0,3,3,3,3,0,3,0,,,,,,,,,,,,,,,,,,,,,,,,,,,,,,,,,,,,,,,,,,,,,,,,,,,,30,,,,,,,,78.1153552000178,78.1153552000178,78.1153552000178,78.1153552000178,78.1153552000178,return,0.49414329999126494,4,0,0,1,0.24,-0.16,return,0.438333900005091,0,6,0.24,-0.16,,,,,,,,,,,,,,,,,,,,,,,,,,,,,A,train_x,x_increasing_steps,top_left,2024-10-29_22h47.04.119,HideSeek_v1,2022.2.5,60.027973024808425,
,0,2,5,2,5,0,66,,train_dim1_1,5,30,2,0,2,0,,,,,,,,,0,0,0,0,0,4,4,4,0,0,0,0,,,,,,,,,,,,,stimuli/alien_stimuli/66.png,,,,,,,,,,,,,,,,,,,,,,,,,,,,,stimuli/alien_stimuli/46.png,46,2,6,,,,,,,30,,,,,,,,86.4374405000126,86.4374405000126,86.4374405000126,86.4374405000126,86.4374405000126,right,22.041961299953982,4,0,0,99,-0.08,-0.24,right,21.92201899999054,,,,,84.85421790002147,86.4374405000126,0.24,-0.16,0.0,0.24,-0.16,0.24,0.12,0.24,-0.16,80.19724040001165,80.19724040001165,80.19724040001165,80.19724040001165,80.19724040001165,80.19724040001165,80.19724040001165,80.19724040001165,80.13754347999348,4.768054700049106,return,4.6295093999942765,,,,,,A,train_x,x_increasing_steps,top_left,2024-10-29_22h47.04.119,HideSeek_v1,2022.2.5,60.027973024808425,
,0,2,5,2,5,0,66,,train_dim1_1,5,30,2,0,2,0,,,,,,,,,0,0,0,0,0,4,4,4,1,0,1,0,,,,,,,,,,,,,,,,,,,,,,,,,,,,,,,,,,,,,,,,,,,,,,,,,,,,30,,,,,,,,108.43856249999953,108.43856249999953,108.43856249999953,108.43856249999953,108.43856249999953,right,0.2767111000139266,4,0,0,99,0.0,-0.24,right,0.20505099999718368,,,,,,,,,,,,,,,,,,,,,,,,,,,,,,,,,A,train_x,x_increasing_steps,top_left,2024-10-29_22h47.04.119,HideSeek_v1,2022.2.5,60.027973024808425,
,0,2,5,2,5,0,66,,train_dim1_1,5,30,2,0,2,0,,,,,,,,,0,0,0,0,0,4,4,4,2,0,2,0,,,,,,,,,,,,,,,,,,,,,,,,,,,,,,,,,,,,,,,,,,,,,,,,,,,,30,,,,,,,,108.72107989998767,108.72107989998767,108.72107989998767,108.72107989998767,108.72107989998767,right,0.2936701000435278,4,0,0,99,0.08,-0.24,right,0.22139800002332777,,,,,,,,,,,,,,,,,,,,,,,,,,,,,,,,,A,train_x,x_increasing_steps,top_left,2024-10-29_22h47.04.119,HideSeek_v1,2022.2.5,60.027973024808425,
,0,2,5,2,5,0,66,,train_dim1_1,5,30,2,0,2,0,,,,,,,,,0,0,0,0,0,4,4,4,3,0,3,0,,,,,,,,,,,,,,,,,,,,,,,,,,,,,,,,,,,,,,,,,,,,,,,,,,,,30,,,,,,,,109.02091810002457,109.02091810002457,109.02091810002457,109.02091810002457,109.02091810002457,right,0.22782540001207963,4,0,0,99,0.16,-0.24,right,0.1597565000411123,,,,,,,,,,,,,,,,,,,,,,,,,,,,,,,,,A,train_x,x_increasing_steps,top_left,2024-10-29_22h47.04.119,HideSeek_v1,2022.2.5,60.027973024808425,
,0,2,5,2,5,0,66,,train_dim1_1,5,30,2,0,2,0,,,,,,,,,0,0,0,0,0,4,4,4,4,0,4,0,,,,,,,,,,,,,,,,,,,,,,,,,,,,,,,,,,,,,,,,,,,,,,,,,,,,30,,,,,,,,109.25344330002554,109.25344330002554,109.25344330002554,109.25344330002554,109.25344330002554,right,0.27827330003492534,4,0,0,99,0.24,-0.24,right,0.21737740002572536,,,,,,,,,,,,,,,,,,,,,,,,,,,,,,,,,A,train_x,x_increasing_steps,top_left,2024-10-29_22h47.04.119,HideSeek_v1,2022.2.5,60.027973024808425,
,0,2,5,2,5,0,66,,train_dim1_1,5,30,2,0,2,0,,,,,,,,,0,0,0,0,0,4,4,4,5,0,5,0,,,,,,,,,,,,,,,,,,,,,,,,,,,,,,,,,,,,,,,,,,,,,,,,,,,,30,,,,,,,,109.53996620001271,109.53996620001271,109.53996620001271,109.53996620001271,109.53996620001271,return,0.31088240002281964,5,0,0,1,0.24,-0.24,return,0.240418299974408,0,11,0.24,-0.24,,,,,,,,,,,,,,,,,,,,,,,,,,,,,A,train_x,x_increasing_steps,top_left,2024-10-29_22h47.04.119,HideSeek_v1,2022.2.5,60.027973024808425,
,0,0,1,0,1,0,26,,train_dim1_1,6,30,2,0,2,0,,,,,,,,,0,0,0,0,0,5,5,5,0,0,0,0,,,,,,,,,,,,,stimuli/alien_stimuli/26.png,,,,,,,,,,,,,,,,,,,,,,,,,,,,,stimuli/alien_stimuli/66.png,66,0,7,,,,,,,30,,,,,,,,120.772183699999,120.772183699999,120.772183699999,120.772183699999,120.772183699999,right,1.5416106999618933,5,0,0,99,-0.08,-0.4,right,1.432938500016462,,,,,119.20390190003673,120.772183699999,0.24,-0.24,0.0,0.4,-0.24,0.24,0.039999999999999994,0.24,-0.24,111.43988710001577,111.43988710001577,111.43988710001577,111.43988710001577,111.43988710001577,111.43988710001577,111.43988710001577,111.43988710001577,111.38695439998992,7.885282300005201,return,7.733415499969851,,,,,,A,train_x,x_increasing_steps,top_left,2024-10-29_22h47.04.119,HideSeek_v1,2022.2.5,60.027973024808425,
,0,0,1,0,1,0,26,,train_dim1_1,6,30,2,0,2,0,,,,,,,,,0,0,0,0,0,5,5,5,1,0,1,0,,,,,,,,,,,,,,,,,,,,,,,,,,,,,,,,,,,,,,,,,,,,,,,,,,,,30,,,,,,,,122.28892389999237,122.28892389999237,122.28892389999237,122.28892389999237,122.28892389999237,return,0.3779037999920547,6,0,0,1,-0.08,-0.4,return,0.31008169997949153,0,12,-0.08,-0.4,,,,,,,,,,,,,,,,,,,,,,,,,,,,,A,train_x,x_increasing_steps,top_left,2024-10-29_22h47.04.119,HideSeek_v1,2022.2.5,60.027973024808425,
,3,0,8,0,5,0,66,,train_dim1_1,7,30,2,0,2,0,,,,,,,,,0,0,0,0,0,6,6,6,0,0,0,0,,,,,,,,,,,,,stimuli/alien_stimuli/66.png,,,,,,,,,,,,,,,,,,,,,,,,,,,,,stimuli/alien_stimuli/26.png,26,0,8,,,,,,,30,,,,,,,,126.21781950001605,126.21781950001605,126.21781950001605,126.21781950001605,126.21781950001605,right,1.2749276999966241,6,0,0,99,0.16,-0.4,right,1.1841169000254013,,,,,124.65366990002804,126.21781950001605,-0.08,-0.4,0.0,0.08,-0.4,-0.08,-0.12,-0.08,-0.4,124.28313540003728,124.28313540003728,124.28313540003728,124.28313540003728,124.28313540003728,124.28313540003728,124.28313540003728,124.28313540003728,124.22038692000788,0.5185473000165075,return,0.3419490999658592,,,,,,A,train_x,x_increasing_steps,top_left,2024-10-29_22h47.04.119,HideSeek_v1,2022.2.5,60.027973024808425,
,3,0,8,0,5,0,66,,train_dim1_1,7,30,2,0,2,0,,,,,,,,,0,0,0,0,0,6,6,6,1,0,1,0,,,,,,,,,,,,,,,,,,,,,,,,,,,,,,,,,,,,,,,,,,,,,,,,,,,,30,,,,,,,,127.47273480001604,127.47273480001604,127.47273480001604,127.47273480001604,127.47273480001604,right,0.2941825999878347,6,0,0,99,0.24,-0.4,right,0.2216545999981463,,,,,,,,,,,,,,,,,,,,,,,,,,,,,,,,,A,train_x,x_increasing_steps,top_left,2024-10-29_22h47.04.119,HideSeek_v1,2022.2.5,60.027973024808425,
,3,0,8,0,5,0,66,,train_dim1_1,7,30,2,0,2,0,,,,,,,,,0,0,0,0,0,6,6,6,2,0,2,0,,,,,,,,,,,,,,,,,,,,,,,,,,,,,,,,,,,,,,,,,,,,,,,,,,,,30,,,,,,,,127.77424310002243,127.77424310002243,127.77424310002243,127.77424310002243,127.77424310002243,right,0.2279211000422947,6,0,0,99,0.32,-0.4,right,0.1581378999981098,,,,,,,,,,,,,,,,,,,,,,,,,,,,,,,,,A,train_x,x_increasing_steps,top_left,2024-10-29_22h47.04.119,HideSeek_v1,2022.2.5,60.027973024808425,
,3,0,8,0,5,0,66,,train_dim1_1,7,30,2,0,2,0,,,,,,,,,0,0,0,0,0,6,6,6,3,0,3,0,,,,,,,,,,,,,,,,,,,,,,,,,,,,,,,,,,,,,,,,,,,,,,,,,,,,30,,,,,,,,128.0101263000397,128.0101263000397,128.0101263000397,128.0101263000397,128.0101263000397,right,0.21105669997632504,6,0,0,99,0.4,-0.4,right,0.13158670003758743,,,,,,,,,,,,,,,,,,,,,,,,,,,,,,,,,A,train_x,x_increasing_steps,top_left,2024-10-29_22h47.04.119,HideSeek_v1,2022.2.5,60.027973024808425,
,3,0,8,0,5,0,66,,train_dim1_1,7,30,2,0,2,0,,,,,,,,,0,0,0,0,0,6,6,6,4,0,4,0,,,,,,,,,,,,,,,,,,,,,,,,,,,,,,,,,,,,,,,,,,,,,,,,,,,,30,,,,,,,,128.22331840003608,128.22331840003608,128.22331840003608,128.22331840003608,128.22331840003608,right,0.21069859998533502,6,0,0,99,0.48000000000000004,-0.4,right,0.1394328000023961,,,,,,,,,,,,,,,,,,,,,,,,,,,,,,,,,A,train_x,x_increasing_steps,top_left,2024-10-29_22h47.04.119,HideSeek_v1,2022.2.5,60.027973024808425,
,3,0,8,0,5,0,66,,train_dim1_1,7,30,2,0,2,0,,,,,,,,,0,0,0,0,0,6,6,6,5,0,5,0,,,,,,,,,,,,,,,,,,,,,,,,,,,,,,,,,,,,,,,,,,,,,,,,,,,,30,,,,,,,,128.43822489999002,128.43822489999002,128.43822489999002,128.43822489999002,128.43822489999002,return,0.261384800018277,7,0,0,1,0.48000000000000004,-0.4,return,0.19283430004725233,0,17,0.48000000000000004,-0.4,,,,,,,,,,,,,,,,,,,,,,,,,,,,,A,train_x,x_increasing_steps,top_left,2024-10-29_22h47.04.119,HideSeek_v1,2022.2.5,60.027973024808425,
,0,4,2,4,2,0,36,,train_dim1_1,8,30,2,0,2,0,,,,,,,,,0,0,0,0,0,7,7,7,0,0,0,0,,,,,,,,,,,,,stimuli/alien_stimuli/36.png,,,,,,,,,,,,,,,,,,,,,,,,,,,,,stimuli/alien_stimuli/66.png,66,3,9,,,,,,,30,,,,,,,,132.37882260000333,132.37882260000333,132.37882260000333,132.37882260000333,132.37882260000333,right,1.9091137999785133,7,0,0,99,-0.08,-0.08,right,1.8230455999728292,,,,,130.82045410003047,132.37882260000333,0.48,-0.4,0.0,0.4,-0.4,0.48,0.27999999999999997,0.48,-0.4,130.29172700003255,130.29172700003255,130.29172700003255,130.29172700003255,130.29172700003255,130.29172700003255,130.29172700003255,130.29172700003255,130.23657559999265,0.6518154999939725,return,0.5071477000019513,,,,,,A,train_x,x_increasing_steps,top_left,2024-10-29_22h47.04.119,HideSeek_v1,2022.2.5,60.027973024808425,
,0,4,2,4,2,0,36,,train_dim1_1,8,30,2,0,2,0,,,,,,,,,0,0,0,0,0,7,7,7,1,0,1,0,,,,,,,,,,,,,,,,,,,,,,,,,,,,,,,,,,,,,,,,,,,,,,,,,,,,30,,,,,,,,134.27071680000518,134.27071680000518,134.27071680000518,134.27071680000518,134.27071680000518,right,1.4773450000211596,7,0,0,99,0.0,-0.08,right,1.40979280002648,,,,,,,,,,,,,,,,,,,,,,,,,,,,,,,,,A,train_x,x_increasing_steps,top_left,2024-10-29_22h47.04.119,HideSeek_v1,2022.2.5,60.027973024808425,
,0,4,2,4,2,0,36,,train_dim1_1,8,30,2,0,2,0,,,,,,,,,0,0,0,0,0,7,7,7,2,0,2,0,,,,,,,,,,,,,,,,,,,,,,,,,,,,,,,,,,,,,,,,,,,,,,,,,,,,30,,,,,,,,135.7839216000284,135.7839216000284,135.7839216000284,135.7839216000284,135.7839216000284,return,0.4765134999761358,8,0,0,1,0.0,-0.08,return,0.3876635000342503,0,19,0.0,-0.08,,,,,,,,,,,,,,,,,,,,,,,,,,,,,A,train_x,x_increasing_steps,top_left,2024-10-29_22h47.04.119,HideSeek_v1,2022.2.5,60.027973024808425,
,1,0,4,0,3,0,46,,train_dim1_1,9,30,2,0,2,0,,,,,,,,,0,0,0,0,0,8,8,8,0,0,0,0,,,,,,,,,,,,,stimuli/alien_stimuli/46.png,,,,,,,,,,,,,,,,,,,,,,,,,,,,,stimuli/alien_stimuli/36.png,36,0,10,,,,,,,30,,,,,,,,140.2735282999929,140.2735282999929,140.2735282999929,140.2735282999929,140.2735282999929,right,0.8422624000231735,8,0,0,99,0.0,-0.4,right,0.7535897000343539,,,,,138.7198918000213,140.2735282999929,0,-0.08,0.0,0.16,-0.08,0,-0.08,0,-0.08,137.86842459999025,137.86842459999025,137.86842459999025,137.86842459999025,137.86842459999025,137.86842459999025,137.86842459999025,137.86842459999025,137.7867036199663,1.0183466000016779,return,0.8194127000169829,,,,,,A,train_x,x_increasing_steps,top_left,2024-10-29_22h47.04.119,HideSeek_v1,2022.2.5,60.027973024808425,
,1,0,4,0,3,0,46,,train_dim1_1,9,30,2,0,2,0,,,,,,,,,0,0,0,0,0,8,8,8,1,0,1,0,,,,,,,,,,,,,,,,,,,,,,,,,,,,,,,,,,,,,,,,,,,,,,,,,,,,30,,,,,,,,141.10517390002497,141.10517390002497,141.10517390002497,141.10517390002497,141.10517390002497,right,0.294048500014469,8,0,0,99,0.08,-0.4,right,0.23283809999702498,,,,,,,,,,,,,,,,,,,,,,,,,,,,,,,,,A,train_x,x_increasing_steps,top_left,2024-10-29_22h47.04.119,HideSeek_v1,2022.2.5,60.027973024808425,
,1,0,4,0,3,0,46,,train_dim1_1,9,30,2,0,2,0,,,,,,,,,0,0,0,0,0,8,8,8,2,0,2,0,,,,,,,,,,,,,,,,,,,,,,,,,,,,,,,,,,,,,,,,,,,,,,,,,,,,30,,,,,,,,141.4010253000306,141.4010253000306,141.4010253000306,141.4010253000306,141.4010253000306,right,0.27701170003274456,8,0,0,99,0.16,-0.4,right,0.21627730003092438,,,,,,,,,,,,,,,,,,,,,,,,,,,,,,,,,A,train_x,x_increasing_steps,top_left,2024-10-29_22h47.04.119,HideSeek_v1,2022.2.5,60.027973024808425,
,1,0,4,0,3,0,46,,train_dim1_1,9,30,2,0,2,0,,,,,,,,,0,0,0,0,0,8,8,8,3,0,3,0,,,,,,,,,,,,,,,,,,,,,,,,,,,,,,,,,,,,,,,,,,,,,,,,,,,,30,,,,,,,,141.68411790003302,141.68411790003302,141.68411790003302,141.68411790003302,141.68411790003302,return,0.29488499998115003,9,0,0,1,0.16,-0.4,return,0.23130500002298504,0,22,0.16,-0.4,,,,,,,,,,,,,,,,,,,,,,,,,,,,,A,train_x,x_increasing_steps,top_left,2024-10-29_22h47.04.119,HideSeek_v1,2022.2.5,60.027973024808425,
,0,3,0,3,0,0,16,,train_dim1_1,10,30,2,0,2,0,,,,,,,,,0,0,0,0,0,9,9,9,0,0,0,0,,,,,,,,,,,,,stimuli/alien_stimuli/16.png,,,,,,,,,,,,,,,,,,,,,,,,,,,,,stimuli/alien_stimuli/46.png,46,1,11,,,,,,,30,,,,,,,,145.62097570003243,145.62097570003243,145.62097570003243,145.62097570003243,145.62097570003243,return,0.9415009000222199,10,0,0,1,-0.16,-0.16,return,0.8403655999572948,0,22,-0.16,-0.16,144.05327490001218,145.62097570003243,0.16,-0.4,0.0,0.24,-0.4,0.16,0.04,0.16,-0.4,143.55198839999503,143.55198839999503,143.55198839999503,143.55198839999503,143.55198839999503,143.55198839999503,143.55198839999503,143.55198839999503,143.5034768799902,0.601825000019744,return,0.4808871000423096,,,,,,A,train_x,x_increasing_steps,top_left,2024-10-29_22h47.04.119,HideSeek_v1,2022.2.5,60.027973024808425,
,2,2,4,2,2,0,36,,train_dim1_1,11,30,2,0,2,0,,,,,,,,,0,0,0,0,0,10,10,10,0,0,0,0,,,,,,,,,,,,,stimuli/alien_stimuli/36.png,,,,,,,,,,,,,,,,,,,,,,,,,,,,,stimuli/alien_stimuli/16.png,16,0,12,,,,,,,30,,,,,,,,149.8945284000365,149.8945284000365,149.8945284000365,149.8945284000365,149.8945284000365,right,0.6911631000111811,10,0,0,99,0.08,-0.24,right,0.5992671999847516,,,,,148.336577100039,149.8945284000365,-0.16,-0.16,0.0,0.0,-0.16,-0.16,-0.16,-0.16,-0.16,148.1181026000413,148.1181026000413,148.1181026000413,148.1181026000413,148.1181026000413,148.1181026000413,148.1181026000413,148.1181026000413,148.0699512999854,0.33501679997425526,return,0.19763710000552237,,,,,,A,train_x,x_increasing_steps,top_left,2024-10-29_22h47.04.119,HideSeek_v1,2022.2.5,60.027973024808425,
,2,2,4,2,2,0,36,,train_dim1_1,11,30,2,0,2,0,,,,,,,,,0,0,0,0,0,10,10,10,1,0,1,0,,,,,,,,,,,,,,,,,,,,,,,,,,,,,,,,,,,,,,,,,,,,,,,,,,,,30,,,,,,,,150.56989400001476,150.56989400001476,150.56989400001476,150.56989400001476,150.56989400001476,right,0.49432170001091436,10,0,0,99,0.16,-0.24,right,0.4191919000004418,,,,,,,,,,,,,,,,,,,,,,,,,,,,,,,,,A,train_x,x_increasing_steps,top_left,2024-10-29_22h47.04.119,HideSeek_v1,2022.2.5,60.027973024808425,
,2,2,4,2,2,0,36,,train_dim1_1,11,30,2,0,2,0,,,,,,,,,0,0,0,0,0,10,10,10,2,0,2,0,,,,,,,,,,,,,,,,,,,,,,,,,,,,,,,,,,,,,,,,,,,,,,,,,,,,30,,,,,,,,151.0692573999986,151.0692573999986,151.0692573999986,151.0692573999986,151.0692573999986,return,0.395039800030645,11,0,0,1,0.16,-0.24,return,0.32728189998306334,0,24,0.16,-0.24,,,,,,,,,,,,,,,,,,,,,,,,,,,,,A,train_x,x_increasing_steps,top_left,2024-10-29_22h47.04.119,HideSeek_v1,2022.2.5,60.027973024808425,
,0,0,1,0,1,0,26,,train_dim1_1,12,30,2,0,2,0,,,,,,,,,0,0,0,0,0,11,11,11,0,0,0,0,,,,,,,,,,,,,stimuli/alien_stimuli/26.png,,,,,,,,,,,,,,,,,,,,,,,,,,,,,stimuli/alien_stimuli/36.png,36,2,13,,,,,,,30,,,,,,,,155.06210400001146,155.06210400001146,155.06210400001146,155.06210400001146,155.06210400001146,right,0.6086166999884881,11,0,0,99,-0.08,-0.4,right,0.5209581000381149,,,,,153.50336670002434,155.06210400001146,0.16,-0.24,0.0,0.16,-0.24,0.16,0.08,0.16,-0.24,153.04677570000058,153.04677570000058,153.04677570000058,153.04677570000058,153.04677570000058,153.04677570000058,153.04677570000058,153.04677570000058,153.00339490000624,0.5683753999765031,return,0.436659500002861,,,,,,A,train_x,x_increasing_steps,top_left,2024-10-29_22h47.04.119,HideSeek_v1,2022.2.5,60.027973024808425,
,0,0,1,0,1,0,26,,train_dim1_1,12,30,2,0,2,0,,,,,,,,,0,0,0,0,0,11,11,11,1,0,1,0,,,,,,,,,,,,,,,,,,,,,,,,,,,,,,,,,,,,,,,,,,,,,,,,,,,,30,,,,,,,,155.65736610000022,155.65736610000022,155.65736610000022,155.65736610000022,155.65736610000022,return,0.5602456000051461,12,0,0,1,-0.08,-0.4,return,0.4874211000278592,0,25,-0.08,-0.4,,,,,,,,,,,,,,,,,,,,,,,,,,,,,A,train_x,x_increasing_steps,top_left,2024-10-29_22h47.04.119,HideSeek_v1,2022.2.5,60.027973024808425,
,0,4,3,4,3,0,46,,train_dim1_1,13,30,2,0,2,0,,,,,,,,,0,0,0,0,0,12,12,12,0,0,0,0,,,,,,,,,,,,,stimuli/alien_stimuli/46.png,,,,,,,,,,,,,,,,,,,,,,,,,,,,,stimuli/alien_stimuli/26.png,26,0,14,,,,,,,30,,,,,,,,159.8456317000091,159.8456317000091,159.8456317000091,159.8456317000091,159.8456317000091,right,1.3420035999733955,12,0,0,99,-0.08,-0.08,right,1.2521040000137873,,,,,158.28668409999227,159.8456317000091,-0.08,-0.4,0.0,0.08,-0.4,-0.08,-0.12,-0.08,-0.4,157.8101597999921,157.8101597999921,157.8101597999921,157.8101597999921,157.8101597999921,157.8101597999921,157.8101597999921,157.8101597999921,157.77029632000486,0.6009791999822482,return,0.454650700034108,,,,,,A,train_x,x_increasing_steps,top_left,2024-10-29_22h47.04.119,HideSeek_v1,2022.2.5,60.027973024808425,
,0,4,3,4,3,0,46,,train_dim1_1,13,30,2,0,2,0,,,,,,,,,0,0,0,0,0,12,12,12,1,0,1,0,,,,,,,,,,,,,,,,,,,,,,,,,,,,,,,,,,,,,,,,,,,,,,,,,,,,30,,,,,,,,161.1699179999996,161.1699179999996,161.1699179999996,161.1699179999996,161.1699179999996,right,0.2936976000200957,12,0,0,99,0.0,-0.08,right,0.22285479999845847,,,,,,,,,,,,,,,,,,,,,,,,,,,,,,,,,A,train_x,x_increasing_steps,top_left,2024-10-29_22h47.04.119,HideSeek_v1,2022.2.5,60.027973024808425,
,0,4,3,4,3,0,46,,train_dim1_1,13,30,2,0,2,0,,,,,,,,,0,0,0,0,0,12,12,12,2,0,2,0,,,,,,,,,,,,,,,,,,,,,,,,,,,,,,,,,,,,,,,,,,,,,,,,,,,,30,,,,,,,,161.46813029999612,161.46813029999612,161.46813029999612,161.46813029999612,161.46813029999612,right,0.310715000028722,12,0,0,99,0.08,-0.08,right,0.2498287000344135,,,,,,,,,,,,,,,,,,,,,,,,,,,,,,,,,A,train_x,x_increasing_steps,top_left,2024-10-29_22h47.04.119,HideSeek_v1,2022.2.5,60.027973024808425,
,0,4,3,4,3,0,46,,train_dim1_1,13,30,2,0,2,0,,,,,,,,,0,0,0,0,0,12,12,12,3,0,3,0,,,,,,,,,,,,,,,,,,,,,,,,,,,,,,,,,,,,,,,,,,,,,,,,,,,,30,,,,,,,,161.78402050002478,161.78402050002478,161.78402050002478,161.78402050002478,161.78402050002478,return,0.36067910003475845,13,0,0,1,0.08,-0.08,return,0.29437240003608167,0,28,0.08,-0.08,,,,,,,,,,,,,,,,,,,,,,,,,,,,,A,train_x,x_increasing_steps,top_left,2024-10-29_22h47.04.119,HideSeek_v1,2022.2.5,60.027973024808425,
,4,3,4,3,0,0,16,,train_dim1_1,14,30,2,0,2,0,,,,,,,,,0,0,0,0,0,13,13,13,0,0,0,0,,,,,,,,,,,,,stimuli/alien_stimuli/16.png,,,,,,,,,,,,,,,,,,,,,,,,,,,,,stimuli/alien_stimuli/46.png,46,0,15,,,,,,,30,,,,,,,,180.25342930003535,180.25342930003535,180.25342930003535,180.25342930003535,180.25342930003535,return,0.9081468000076711,14,0,0,1,0.16,-0.16,return,0.817055200051982,0,28,0.16,-0.16,178.68630840000696,180.25342930003535,0.08,-0.08,0.0,0.24,-0.08,0.08,-0.04,0.08,-0.08,163.73056470003212,163.73056470003212,163.73056470003212,163.73056470003212,163.73056470003212,163.73056470003212,163.73056470003212,163.73056470003212,163.68634259997634,15.068776800006162,return,14.928807199990842,,,,,,A,train_x,x_increasing_steps,top_left,2024-10-29_22h47.04.119,HideSeek_v1,2022.2.5,60.027973024808425,
,4,2,9,2,5,0,66,,train_dim1_1,15,30,2,0,2,0,,,,,,,,,0,0,0,0,0,14,14,14,0,0,0,0,,,,,,,,,,,,,stimuli/alien_stimuli/66.png,,,,,,,,,,,,,,,,,,,,,,,,,,,,,stimuli/alien_stimuli/16.png,16,4,16,,,,,,,30,,,,,,,,186.2320928000263,186.2320928000263,186.2320928000263,186.2320928000263,186.2320928000263,right,12.007922200020403,14,0,0,99,0.24,-0.24,right,11.918932800006587,,,,,184.66972470004112,186.2320928000263,0.16,-0.16,0.0,0.0,-0.16,0.16,0.16,0.16,-0.16,182.71561150002526,182.71561150002526,182.71561150002526,182.71561150002526,182.71561150002526,182.71561150002526,182.71561150002526,182.71561150002526,182.6698242999846,2.068126800004393,return,1.9238914999878034,,,,,,A,train_x,x_increasing_steps,top_left,2024-10-29_22h47.04.119,HideSeek_v1,2022.2.5,60.027973024808425,
,4,2,9,2,5,0,66,,train_dim1_1,15,30,2,0,2,0,,,,,,,,,0,0,0,0,0,14,14,14,1,0,1,0,,,,,,,,,,,,,,,,,,,,,,,,,,,,,,,,,,,,,,,,,,,,,,,,,,,,30,,,,,,,,198.22839669999667,198.22839669999667,198.22839669999667,198.22839669999667,198.22839669999667,right,0.2111931000254117,14,0,0,99,0.32,-0.24,right,0.13250020000850782,,,,,,,,,,,,,,,,,,,,,,,,,,,,,,,,,A,train_x,x_increasing_steps,top_left,2024-10-29_22h47.04.119,HideSeek_v1,2022.2.5,60.027973024808425,
,4,2,9,2,5,0,66,,train_dim1_1,15,30,2,0,2,0,,,,,,,,,0,0,0,0,0,14,14,14,2,0,2,0,,,,,,,,,,,,,,,,,,,,,,,,,,,,,,,,,,,,,,,,,,,,,,,,,,,,30,,,,,,,,198.4389077000087,198.4389077000087,198.4389077000087,198.4389077000087,198.4389077000087,right,0.19417189998785034,14,0,0,99,0.4,-0.24,right,0.11719339998671785,,,,,,,,,,,,,,,,,,,,,,,,,,,,,,,,,A,train_x,x_increasing_steps,top_left,2024-10-29_22h47.04.119,HideSeek_v1,2022.2.5,60.027973024808425,
,4,2,9,2,5,0,66,,train_dim1_1,15,30,2,0,2,0,,,,,,,,,0,0,0,0,0,14,14,14,3,0,3,0,,,,,,,,,,,,,,,,,,,,,,,,,,,,,,,,,,,,,,,,,,,,,,,,,,,,30,,,,,,,,198.64891450002324,198.64891450002324,198.64891450002324,198.64891450002324,198.64891450002324,right,0.16126980003900826,14,0,0,99,0.48000000000000004,-0.24,right,0.08657980000134557,,,,,,,,,,,,,,,,,,,,,,,,,,,,,,,,,A,train_x,x_increasing_steps,top_left,2024-10-29_22h47.04.119,HideSeek_v1,2022.2.5,60.027973024808425,
,4,2,9,2,5,0,66,,train_dim1_1,15,30,2,0,2,0,,,,,,,,,0,0,0,0,0,14,14,14,4,0,4,0,,,,,,,,,,,,,,,,,,,,,,,,,,,,,,,,,,,,,,,,,,,,,,,,,,,,30,,,,,,,,198.80550710001262,198.80550710001262,198.80550710001262,198.80550710001262,198.80550710001262,right,0.16081879998091608,14,0,0,99,0.56,-0.24,right,0.09195380000164732,,,,,,,,,,,,,,,,,,,,,,,,,,,,,,,,,A,train_x,x_increasing_steps,top_left,2024-10-29_22h47.04.119,HideSeek_v1,2022.2.5,60.027973024808425,
,4,2,9,2,5,0,66,,train_dim1_1,15,30,2,0,2,0,,,,,,,,,0,0,0,0,0,14,14,14,5,0,5,0,,,,,,,,,,,,,,,,,,,,,,,,,,,,,,,,,,,,,,,,,,,,,,,,,,,,30,,,,,,,,198.97076530003687,198.97076530003687,198.97076530003687,198.97076530003687,198.97076530003687,return,0.2937628999934532,15,0,0,1,0.56,-0.24,return,0.23095800000010058,0,33,0.56,-0.24,,,,,,,,,,,,,,,,,,,,,,,,,,,,,A,train_x,x_increasing_steps,top_left,2024-10-29_22h47.04.119,HideSeek_v1,2022.2.5,60.027973024808425,
,3,3,6,3,3,0,46,,train_dim1_1,16,30,2,0,2,0,,,,,,,,,0,0,0,0,0,15,15,15,0,0,0,0,,,,,,,,,,,,,stimuli/alien_stimuli/46.png,,,,,,,,,,,,,,,,,,,,,,,,,,,,,stimuli/alien_stimuli/66.png,66,4,17,,,,,,,30,,,,,,,,203.32726879999973,203.32726879999973,203.32726879999973,203.32726879999973,203.32726879999973,right,1.1750299999839626,15,0,0,99,0.16,-0.16,right,1.0902559999958612,,,,,201.76987920003012,203.32726879999973,0.56,-0.24,0.0,0.4,-0.24,0.56,0.36000000000000004,0.56,-0.24,200.86098699999275,200.86098699999275,200.86098699999275,200.86098699999275,200.86098699999275,200.86098699999275,200.86098699999275,200.86098699999275,200.80297299998347,1.0349615999730304,return,0.8803981000091881,,,,,,A,train_x,x_increasing_steps,top_left,2024-10-29_22h47.04.119,HideSeek_v1,2022.2.5,60.027973024808425,
,3,3,6,3,3,0,46,,train_dim1_1,16,30,2,0,2,0,,,,,,,,,0,0,0,0,0,15,15,15,1,0,1,0,,,,,,,,,,,,,,,,,,,,,,,,,,,,,,,,,,,,,,,,,,,,,,,,,,,,30,,,,,,,,204.48612200003117,204.48612200003117,204.48612200003117,204.48612200003117,204.48612200003117,right,0.22778970003128052,15,0,0,99,0.24,-0.16,right,0.16059139999561012,,,,,,,,,,,,,,,,,,,,,,,,,,,,,,,,,A,train_x,x_increasing_steps,top_left,2024-10-29_22h47.04.119,HideSeek_v1,2022.2.5,60.027973024808425,
,3,3,6,3,3,0,46,,train_dim1_1,16,30,2,0,2,0,,,,,,,,,0,0,0,0,0,15,15,15,2,0,2,0,,,,,,,,,,,,,,,,,,,,,,,,,,,,,,,,,,,,,,,,,,,,,,,,,,,,30,,,,,,,,204.72035740001593,204.72035740001593,204.72035740001593,204.72035740001593,204.72035740001593,right,0.17797739995876327,15,0,0,99,0.32,-0.16,right,0.10971920000156388,,,,,,,,,,,,,,,,,,,,,,,,,,,,,,,,,A,train_x,x_increasing_steps,top_left,2024-10-29_22h47.04.119,HideSeek_v1,2022.2.5,60.027973024808425,
,3,3,6,3,3,0,46,,train_dim1_1,16,30,2,0,2,0,,,,,,,,,0,0,0,0,0,15,15,15,3,0,3,0,,,,,,,,,,,,,,,,,,,,,,,,,,,,,,,,,,,,,,,,,,,,,,,,,,,,30,,,,,,,,204.9012667000061,204.9012667000061,204.9012667000061,204.9012667000061,204.9012667000061,return,0.24388029996771365,16,0,0,1,0.32,-0.16,return,0.17841180000687018,0,36,0.32,-0.16,,,,,,,,,,,,,,,,,,,,,,,,,,,,,A,train_x,x_increasing_steps,top_left,2024-10-29_22h47.04.119,HideSeek_v1,2022.2.5,60.027973024808425,
,2,4,3,4,1,0,26,,train_dim1_1,17,30,2,0,2,0,,,,,,,,,0,0,0,0,0,16,16,16,0,0,0,0,,,,,,,,,,,,,stimuli/alien_stimuli/26.png,,,,,,,,,,,,,,,,,,,,,,,,,,,,,stimuli/alien_stimuli/46.png,46,3,18,,,,,,,30,,,,,,,,212.54276520002168,212.54276520002168,212.54276520002168,212.54276520002168,212.54276520002168,right,12.55783900001552,16,0,0,99,0.08,-0.08,right,12.39537719998043,,,,,210.9196057000081,212.54276520002168,0.32,-0.16,0.0,0.24,-0.16,0.32,0.2,0.32,-0.16,206.75390200002585,206.75390200002585,206.75390200002585,206.75390200002585,206.75390200002585,206.75390200002585,206.75390200002585,206.75390200002585,206.6690515799797,4.302144800021779,return,4.145014099951368,,,,,,A,train_x,x_increasing_steps,top_left,2024-10-29_22h47.04.119,HideSeek_v1,2022.2.5,60.027973024808425,
,2,4,3,4,1,0,26,,train_dim1_1,17,30,2,0,2,0,,,,,,,,,0,0,0,0,0,16,16,16,1,0,1,0,,,,,,,,,,,,,,,,,,,,,,,,,,,,,,,,,,,,,,,,,,,,,,,,,,,,30,,,,,,,,225.0361521000159,225.0361521000159,225.0361521000159,225.0361521000159,225.0361521000159,return,0.31105469999602064,17,0,0,1,0.08,-0.08,return,0.21815569995669648,0,37,0.08,-0.08,,,,,,,,,,,,,,,,,,,,,,,,,,,,,A,train_x,x_increasing_steps,top_left,2024-10-29_22h47.04.119,HideSeek_v1,2022.2.5,60.027973024808425,
,2,1,7,1,5,0,66,,train_dim1_1,18,30,2,0,2,0,,,,,,,,,0,0,0,0,0,17,17,17,0,0,0,0,,,,,,,,,,,,,stimuli/alien_stimuli/66.png,,,,,,,,,,,,,,,,,,,,,,,,,,,,,stimuli/alien_stimuli/26.png,26,2,19,,,,,,,30,,,,,,,,229.1333799000131,229.1333799000131,229.1333799000131,229.1333799000131,229.1333799000131,right,0.8744666000129655,17,0,0,99,0.08,-0.32,right,0.7834158000187017,,,,,227.5691529000178,229.1333799000131,0.08,-0.08,0.0,0.08,-0.08,0.08,0.04,0.08,-0.08,226.92838260001736,226.92838260001736,226.92838260001736,226.92838260001736,226.92838260001736,226.92838260001736,226.92838260001736,226.92838260001736,226.86883589997888,0.769065500004217,return,0.6218293000129052,,,,,,A,train_x,x_increasing_steps,top_left,2024-10-29_22h47.04.119,HideSeek_v1,2022.2.5,60.027973024808425,
,2,1,7,1,5,0,66,,train_dim1_1,18,30,2,0,2,0,,,,,,,,,0,0,0,0,0,17,17,17,1,0,1,0,,,,,,,,,,,,,,,,,,,,,,,,,,,,,,,,,,,,,,,,,,,,,,,,,,,,30,,,,,,,,229.98832270002458,229.98832270002458,229.98832270002458,229.98832270002458,229.98832270002458,right,0.24436680000508204,17,0,0,99,0.16,-0.32,right,0.16798649996053427,,,,,,,,,,,,,,,,,,,,,,,,,,,,,,,,,A,train_x,x_increasing_steps,top_left,2024-10-29_22h47.04.119,HideSeek_v1,2022.2.5,60.027973024808425,
,2,1,7,1,5,0,66,,train_dim1_1,18,30,2,0,2,0,,,,,,,,,0,0,0,0,0,17,17,17,2,0,2,0,,,,,,,,,,,,,,,,,,,,,,,,,,,,,,,,,,,,,,,,,,,,,,,,,,,,30,,,,,,,,230.24209820001852,230.24209820001852,230.24209820001852,230.24209820001852,230.24209820001852,right,0.2108653000323102,17,0,0,99,0.24,-0.32,right,0.13976469996850938,,,,,,,,,,,,,,,,,,,,,,,,,,,,,,,,,A,train_x,x_increasing_steps,top_left,2024-10-29_22h47.04.119,HideSeek_v1,2022.2.5,60.027973024808425,
,2,1,7,1,5,0,66,,train_dim1_1,18,30,2,0,2,0,,,,,,,,,0,0,0,0,0,17,17,17,3,0,3,0,,,,,,,,,,,,,,,,,,,,,,,,,,,,,,,,,,,,,,,,,,,,,,,,,,,,30,,,,,,,,230.4534634000156,230.4534634000156,230.4534634000156,230.4534634000156,230.4534634000156,right,0.21002430003136396,17,0,0,99,0.32,-0.32,right,0.14495310001075268,,,,,,,,,,,,,,,,,,,,,,,,,,,,,,,,,A,train_x,x_increasing_steps,top_left,2024-10-29_22h47.04.119,HideSeek_v1,2022.2.5,60.027973024808425,
,2,1,7,1,5,0,66,,train_dim1_1,18,30,2,0,2,0,,,,,,,,,0,0,0,0,0,17,17,17,4,0,4,0,,,,,,,,,,,,,,,,,,,,,,,,,,,,,,,,,,,,,,,,,,,,,,,,,,,,30,,,,,,,,230.67371150001418,230.67371150001418,230.67371150001418,230.67371150001418,230.67371150001418,right,0.19401490001473576,17,0,0,99,0.4,-0.32,right,0.12163439998403192,,,,,,,,,,,,,,,,,,,,,,,,,,,,,,,,,A,train_x,x_increasing_steps,top_left,2024-10-29_22h47.04.119,HideSeek_v1,2022.2.5,60.027973024808425,
,2,1,7,1,5,0,66,,train_dim1_1,18,30,2,0,2,0,,,,,,,,,0,0,0,0,0,17,17,17,5,0,5,0,,,,,,,,,,,,,,,,,,,,,,,,,,,,,,,,,,,,,,,,,,,,,,,,,,,,30,,,,,,,,230.87134589999914,230.87134589999914,230.87134589999914,230.87134589999914,230.87134589999914,return,0.29335439996793866,18,0,0,1,0.4,-0.32,return,0.22751549998065457,0,42,0.4,-0.32,,,,,,,,,,,,,,,,,,,,,,,,,,,,,A,train_x,x_increasing_steps,top_left,2024-10-29_22h47.04.119,HideSeek_v1,2022.2.5,60.027973024808425,
,0,3,2,3,2,0,36,,train_dim1_1,19,30,2,0,2,0,,,,,,,,,0,0,0,0,0,18,18,18,0,0,0,0,,,,,,,,,,,,,stimuli/alien_stimuli/36.png,,,,,,,,,,,,,,,,,,,,,,,,,,,,,stimuli/alien_stimuli/66.png,66,2,20,,,,,,,30,,,,,,,,234.96215410000877,234.96215410000877,234.96215410000877,234.96215410000877,234.96215410000877,right,0.6747557999915443,18,0,0,99,-0.08,-0.16,right,0.5887691000243649,,,,,233.40237110003363,234.96215410000877,0.4,-0.32,0.0,0.4,-0.32,0.4,0.2,0.4,-0.32,232.76902579999296,232.76902579999296,232.76902579999296,232.76902579999296,232.76902579999296,232.76902579999296,232.76902579999296,232.76902579999296,232.71956371996785,0.7685814000433311,return,0.6163759999908507,,,,,,A,train_x,x_increasing_steps,top_left,2024-10-29_22h47.04.119,HideSeek_v1,2022.2.5,60.027973024808425,
,0,3,2,3,2,0,36,,train_dim1_1,19,30,2,0,2,0,,,,,,,,,0,0,0,0,0,18,18,18,1,0,1,0,,,,,,,,,,,,,,,,,,,,,,,,,,,,,,,,,,,,,,,,,,,,,,,,,,,,30,,,,,,,,235.6195453000255,235.6195453000255,235.6195453000255,235.6195453000255,235.6195453000255,right,0.36037960002431646,18,0,0,99,0.0,-0.16,right,0.2961887000128627,,,,,,,,,,,,,,,,,,,,,,,,,,,,,,,,,A,train_x,x_increasing_steps,top_left,2024-10-29_22h47.04.119,HideSeek_v1,2022.2.5,60.027973024808425,
,0,3,2,3,2,0,36,,train_dim1_1,19,30,2,0,2,0,,,,,,,,,0,0,0,0,0,18,18,18,2,0,2,0,,,,,,,,,,,,,,,,,,,,,,,,,,,,,,,,,,,,,,,,,,,,,,,,,,,,30,,,,,,,,235.98712930001784,235.98712930001784,235.98712930001784,235.98712930001784,235.98712930001784,return,3.4110412999871187,19,0,0,1,0.0,-0.16,return,3.3472523000091314,0,44,0.0,-0.16,,,,,,,,,,,,,,,,,,,,,,,,,,,,,A,train_x,x_increasing_steps,top_left,2024-10-29_22h47.04.119,HideSeek_v1,2022.2.5,60.027973024808425,
,0,1,0,1,0,0,16,,train_dim1_1,20,30,2,0,2,0,,,,,,,,,0,0,0,0,0,19,19,19,0,0,0,0,,,,,,,,,,,,,stimuli/alien_stimuli/16.png,,,,,,,,,,,,,,,,,,,,,,,,,,,,,stimuli/alien_stimuli/36.png,36,0,21,,,,,,,30,,,,,,,,243.0585376000381,243.0585376000381,243.0585376000381,243.0585376000381,243.0585376000381,return,0.8752735999878496,20,0,0,1,-0.16,-0.32,return,0.7800074999686331,0,44,-0.16,-0.32,241.50215320003917,243.0585376000381,0,-0.16,0.0,0.16,-0.16,0,-0.08,0,-0.16,240.9749848000356,240.9749848000356,240.9749848000356,240.9749848000356,240.9749848000356,240.9749848000356,240.9749848000356,240.9749848000356,240.93582730001071,0.6350457000080496,return,0.501007099985145,,,,,,A,train_x,x_increasing_steps,top_left,2024-10-29_22h47.04.119,HideSeek_v1,2022.2.5,60.027973024808425,
,4,2,6,2,2,0,36,,train_dim1_1,21,30,2,0,2,0,,,,,,,,,0,0,0,0,0,20,20,20,0,0,0,0,,,,,,,,,,,,,stimuli/alien_stimuli/36.png,,,,,,,,,,,,,,,,,,,,,,,,,,,,,stimuli/alien_stimuli/16.png,16,0,22,,,,,,,30,,,,,,,,247.40249090001453,247.40249090001453,247.40249090001453,247.40249090001453,247.40249090001453,right,0.6910872999578714,20,0,0,99,0.24,-0.24,right,0.5960532000171952,,,,,245.8355470999959,247.40249090001453,-0.16,-0.32,0.0,0.0,-0.32,-0.16,-0.16,-0.16,-0.32,245.5026468000142,245.5026468000142,245.5026468000142,245.5026468000142,245.5026468000142,245.5026468000142,245.5026468000142,245.5026468000142,245.4525580999907,0.4516520000179298,return,0.30511989997467026,,,,,,A,train_x,x_increasing_steps,top_left,2024-10-29_22h47.04.119,HideSeek_v1,2022.2.5,60.027973024808425,
,4,2,6,2,2,0,36,,train_dim1_1,21,30,2,0,2,0,,,,,,,,,0,0,0,0,0,20,20,20,1,0,1,0,,,,,,,,,,,,,,,,,,,,,,,,,,,,,,,,,,,,,,,,,,,,,,,,,,,,30,,,,,,,,248.070125200029,248.070125200029,248.070125200029,248.070125200029,248.070125200029,right,0.3270708000054583,20,0,0,99,0.32,-0.24,right,0.25354390003485605,,,,,,,,,,,,,,,,,,,,,,,,,,,,,,,,,A,train_x,x_increasing_steps,top_left,2024-10-29_22h47.04.119,HideSeek_v1,2022.2.5,60.027973024808425,
,4,2,6,2,2,0,36,,train_dim1_1,21,30,2,0,2,0,,,,,,,,,0,0,0,0,0,20,20,20,2,0,2,0,,,,,,,,,,,,,,,,,,,,,,,,,,,,,,,,,,,,,,,,,,,,,,,,,,,,30,,,,,,,,248.40243499999633,248.40243499999633,248.40243499999633,248.40243499999633,248.40243499999633,return,0.37796790001448244,21,0,0,1,0.32,-0.24,return,0.31347659998573363,0,46,0.32,-0.24,,,,,,,,,,,,,,,,,,,,,,,,,,,,,A,train_x,x_increasing_steps,top_left,2024-10-29_22h47.04.119,HideSeek_v1,2022.2.5,60.027973024808425,
,1,0,2,0,1,0,26,,train_dim1_1,22,30,2,0,2,0,,,,,,,,,0,0,0,0,0,21,21,21,0,0,0,0,,,,,,,,,,,,,stimuli/alien_stimuli/26.png,,,,,,,,,,,,,,,,,,,,,,,,,,,,,stimuli/alien_stimuli/36.png,36,4,23,,,,,,,30,,,,,,,,252.23931959999027,252.23931959999027,252.23931959999027,252.23931959999027,252.23931959999027,right,0.5084499000222422,21,0,0,99,0.0,-0.4,right,0.4228039999725297,,,,,250.68577929999446,252.23931959999027,0.32,-0.24,0.0,0.16,-0.24,0.32,0.24,0.32,-0.24,250.36924520001048,250.36924520001048,250.36924520001048,250.36924520001048,250.36924520001048,250.36924520001048,250.36924520001048,250.36924520001048,250.30245798001997,0.43476440000813454,return,0.2890070000430569,,,,,,A,train_x,x_increasing_steps,top_left,2024-10-29_22h47.04.119,HideSeek_v1,2022.2.5,60.027973024808425,
,1,0,2,0,1,0,26,,train_dim1_1,22,30,2,0,2,0,,,,,,,,,0,0,0,0,0,21,21,21,1,0,1,0,,,,,,,,,,,,,,,,,,,,,,,,,,,,,,,,,,,,,,,,,,,,,,,,,,,,30,,,,,,,,252.7391202999861,252.7391202999861,252.7391202999861,252.7391202999861,252.7391202999861,return,0.6272664000280201,22,0,0,1,0.0,-0.4,return,0.5516371999983676,0,47,0.0,-0.4,,,,,,,,,,,,,,,,,,,,,,,,,,,,,A,train_x,x_increasing_steps,top_left,2024-10-29_22h47.04.119,HideSeek_v1,2022.2.5,60.027973024808425,
,2,1,7,1,5,0,66,,train_dim1_1,23,30,2,0,2,0,,,,,,,,,0,0,0,0,0,22,22,22,0,0,0,0,,,,,,,,,,,,,stimuli/alien_stimuli/66.png,,,,,,,,,,,,,,,,,,,,,,,,,,,,,stimuli/alien_stimuli/26.png,26,1,24,,,,,,,30,,,,,,,,256.79262040002504,256.79262040002504,256.79262040002504,256.79262040002504,256.79262040002504,right,1.108841500012204,22,0,0,99,0.08,-0.32,right,1.018479899968952,,,,,255.23568189999787,256.79262040002504,0,-0.4,0.0,0.08,-0.4,0,-0.04,0,-0.4,254.93674670002656,254.93674670002656,254.93674670002656,254.93674670002656,254.93674670002656,254.93674670002656,254.93674670002656,254.93674670002656,254.902852899977,0.40155030001187697,return,0.2828537999885157,,,,,,A,train_x,x_increasing_steps,top_left,2024-10-29_22h47.04.119,HideSeek_v1,2022.2.5,60.027973024808425,
,2,1,7,1,5,0,66,,train_dim1_1,23,30,2,0,2,0,,,,,,,,,0,0,0,0,0,22,22,22,1,0,1,0,,,,,,,,,,,,,,,,,,,,,,,,,,,,,,,,,,,,,,,,,,,,,,,,,,,,30,,,,,,,,257.8904436000157,257.8904436000157,257.8904436000157,257.8904436000157,257.8904436000157,right,0.26009749999502674,22,0,0,99,0.16,-0.32,right,0.18319279997376725,,,,,,,,,,,,,,,,,,,,,,,,,,,,,,,,,A,train_x,x_increasing_steps,top_left,2024-10-29_22h47.04.119,HideSeek_v1,2022.2.5,60.027973024808425,
,2,1,7,1,5,0,66,,train_dim1_1,23,30,2,0,2,0,,,,,,,,,0,0,0,0,0,22,22,22,2,0,2,0,,,,,,,,,,,,,,,,,,,,,,,,,,,,,,,,,,,,,,,,,,,,,,,,,,,,30,,,,,,,,258.15152660000604,258.15152660000604,258.15152660000604,258.15152660000604,258.15152660000604,right,0.227598300029058,22,0,0,99,0.24,-0.32,right,0.16430669999681413,,,,,,,,,,,,,,,,,,,,,,,,,,,,,,,,,A,train_x,x_increasing_steps,top_left,2024-10-29_22h47.04.119,HideSeek_v1,2022.2.5,60.027973024808425,
,2,1,7,1,5,0,66,,train_dim1_1,23,30,2,0,2,0,,,,,,,,,0,0,0,0,0,22,22,22,3,0,3,0,,,,,,,,,,,,,,,,,,,,,,,,,,,,,,,,,,,,,,,,,,,,,,,,,,,,30,,,,,,,,258.38520970003447,258.38520970003447,258.38520970003447,258.38520970003447,258.38520970003447,right,0.22805450001033023,22,0,0,99,0.32,-0.32,right,0.15873610001290217,,,,,,,,,,,,,,,,,,,,,,,,,,,,,,,,,A,train_x,x_increasing_steps,top_left,2024-10-29_22h47.04.119,HideSeek_v1,2022.2.5,60.027973024808425,
,2,1,7,1,5,0,66,,train_dim1_1,23,30,2,0,2,0,,,,,,,,,0,0,0,0,0,22,22,22,4,0,4,0,,,,,,,,,,,,,,,,,,,,,,,,,,,,,,,,,,,,,,,,,,,,,,,,,,,,30,,,,,,,,258.62039200001163,258.62039200001163,258.62039200001163,258.62039200001163,258.62039200001163,right,0.1934826000360772,22,0,0,99,0.4,-0.32,right,0.11690919997636229,,,,,,,,,,,,,,,,,,,,,,,,,,,,,,,,,A,train_x,x_increasing_steps,top_left,2024-10-29_22h47.04.119,HideSeek_v1,2022.2.5,60.027973024808425,
,2,1,7,1,5,0,66,,train_dim1_1,23,30,2,0,2,0,,,,,,,,,0,0,0,0,0,22,22,22,5,0,5,0,,,,,,,,,,,,,,,,,,,,,,,,,,,,,,,,,,,,,,,,,,,,,,,,,,,,30,,,,,,,,258.8204744000104,258.8204744000104,258.8204744000104,258.8204744000104,258.8204744000104,return,0.29486720002023503,23,0,0,1,0.4,-0.32,return,0.2192345999646932,0,52,0.4,-0.32,,,,,,,,,,,,,,,,,,,,,,,,,,,,,A,train_x,x_increasing_steps,top_left,2024-10-29_22h47.04.119,HideSeek_v1,2022.2.5,60.027973024808425,
,4,4,7,4,3,0,46,,train_dim1_1,24,30,2,0,2,0,,,,,,,,,0,0,0,0,0,23,23,23,0,0,0,0,,,,,,,,,,,,,stimuli/alien_stimuli/46.png,,,,,,,,,,,,,,,,,,,,,,,,,,,,,stimuli/alien_stimuli/66.png,66,2,25,,,,,,,30,,,,,,,,262.65451329998905,262.65451329998905,262.65451329998905,262.65451329998905,262.65451329998905,right,1.6586218000156805,23,0,0,99,0.24,-0.08,right,1.5779793999972753,,,,,261.1020989000099,262.65451329998905,0.4,-0.32,0.0,0.4,-0.32,0.4,0.2,0.4,-0.32,260.6927578999894,260.6927578999894,260.6927578999894,260.6927578999894,260.6927578999894,260.6927578999894,260.6927578999894,260.6927578999894,260.6521180999698,0.5185948999715038,return,0.38416329998290166,,,,,,A,train_x,x_increasing_steps,top_left,2024-10-29_22h47.04.119,HideSeek_v1,2022.2.5,60.027973024808425,
,4,4,7,4,3,0,46,,train_dim1_1,24,30,2,0,2,0,,,,,,,,,0,0,0,0,0,23,23,23,1,0,1,0,,,,,,,,,,,,,,,,,,,,,,,,,,,,,,,,,,,,,,,,,,,,,,,,,,,,30,,,,,,,,264.2988911999855,264.2988911999855,264.2988911999855,264.2988911999855,264.2988911999855,right,0.4280175999738276,23,0,0,99,0.32,-0.08,right,0.3622017999878153,,,,,,,,,,,,,,,,,,,,,,,,,,,,,,,,,A,train_x,x_increasing_steps,top_left,2024-10-29_22h47.04.119,HideSeek_v1,2022.2.5,60.027973024808425,
,4,4,7,4,3,0,46,,train_dim1_1,24,30,2,0,2,0,,,,,,,,,0,0,0,0,0,23,23,23,2,0,2,0,,,,,,,,,,,,,,,,,,,,,,,,,,,,,,,,,,,,,,,,,,,,,,,,,,,,30,,,,,,,,264.7359069000231,264.7359069000231,264.7359069000231,264.7359069000231,264.7359069000231,right,0.277394299977459,23,0,0,99,0.4,-0.08,right,0.2152492000022903,,,,,,,,,,,,,,,,,,,,,,,,,,,,,,,,,A,train_x,x_increasing_steps,top_left,2024-10-29_22h47.04.119,HideSeek_v1,2022.2.5,60.027973024808425,
,4,4,7,4,3,0,46,,train_dim1_1,24,30,2,0,2,0,,,,,,,,,0,0,0,0,0,23,23,23,3,0,3,0,,,,,,,,,,,,,,,,,,,,,,,,,,,,,,,,,,,,,,,,,,,,,,,,,,,,30,,,,,,,,265.0152243000339,265.0152243000339,265.0152243000339,265.0152243000339,265.0152243000339,return,0.3776397999608889,24,0,0,1,0.4,-0.08,return,0.31327630003215745,0,55,0.4,-0.08,,,,,,,,,,,,,,,,,,,,,,,,,,,,,A,train_x,x_increasing_steps,top_left,2024-10-29_22h47.04.119,HideSeek_v1,2022.2.5,60.027973024808425,
,3,0,3,0,0,0,16,,train_dim1_1,25,30,2,0,2,0,,,,,,,,,0,0,0,0,0,24,24,24,0,0,0,0,,,,,,,,,,,,,stimuli/alien_stimuli/16.png,,,,,,,,,,,,,,,,,,,,,,,,,,,,,stimuli/alien_stimuli/46.png,46,4,26,,,,,,,30,,,,,,,,269.2586885000346,269.2586885000346,269.2586885000346,269.2586885000346,269.2586885000346,return,1.4747003000229597,25,0,0,1,0.08,-0.4,return,1.385767899977509,0,55,0.08,-0.4,267.7019965000218,269.2586885000346,0.4,-0.08,0.0,0.24,-0.08,0.4,0.28,0.4,-0.08,266.98096980003174,266.98096980003174,266.98096980003174,266.98096980003174,266.98096980003174,266.98096980003174,266.98096980003174,266.98096980003174,266.9352625000174,0.8354800000088289,return,0.6971562000107951,,,,,,A,train_x,x_increasing_steps,top_left,2024-10-29_22h47.04.119,HideSeek_v1,2022.2.5,60.027973024808425,
,1,1,6,1,5,0,66,,train_dim1_1,26,30,2,0,2,0,,,,,,,,,0,0,0,0,0,25,25,25,0,0,0,0,,,,,,,,,,,,,stimuli/alien_stimuli/66.png,,,,,,,,,,,,,,,,,,,,,,,,,,,,,stimuli/alien_stimuli/16.png,16,3,27,,,,,,,30,,,,,,,,275.05985730001703,275.05985730001703,275.05985730001703,275.05985730001703,275.05985730001703,right,1.0579624000238255,25,0,0,99,0.0,-0.32,right,0.9516971999546513,,,,,273.4852347000269,275.05985730001703,0.08,-0.4,0.0,0.0,-0.4,0.08,0.08,0.08,-0.4,272.29381000000285,272.29381000000285,272.29381000000285,272.29381000000285,272.29381000000285,272.29381000000285,272.29381000000285,272.29381000000285,272.2517388999695,1.3025090000010096,return,1.1733897000085562,,,,,,A,train_x,x_increasing_steps,top_left,2024-10-29_22h47.04.119,HideSeek_v1,2022.2.5,60.027973024808425,
,1,1,6,1,5,0,66,,train_dim1_1,26,30,2,0,2,0,,,,,,,,,0,0,0,0,0,25,25,25,1,0,1,0,,,,,,,,,,,,,,,,,,,,,,,,,,,,,,,,,,,,,,,,,,,,,,,,,,,,30,,,,,,,,276.0870689000003,276.0870689000003,276.0870689000003,276.0870689000003,276.0870689000003,right,0.32734200003324077,25,0,0,99,0.08,-0.32,right,0.25659520004410297,,,,,,,,,,,,,,,,,,,,,,,,,,,,,,,,,A,train_x,x_increasing_steps,top_left,2024-10-29_22h47.04.119,HideSeek_v1,2022.2.5,60.027973024808425,
,1,1,6,1,5,0,66,,train_dim1_1,26,30,2,0,2,0,,,,,,,,,0,0,0,0,0,25,25,25,2,0,2,0,,,,,,,,,,,,,,,,,,,,,,,,,,,,,,,,,,,,,,,,,,,,,,,,,,,,30,,,,,,,,276.42013049998786,276.42013049998786,276.42013049998786,276.42013049998786,276.42013049998786,right,0.29478779999772087,25,0,0,99,0.16,-0.32,right,0.22154860000591725,,,,,,,,,,,,,,,,,,,,,,,,,,,,,,,,,A,train_x,x_increasing_steps,top_left,2024-10-29_22h47.04.119,HideSeek_v1,2022.2.5,60.027973024808425,
,1,1,6,1,5,0,66,,train_dim1_1,26,30,2,0,2,0,,,,,,,,,0,0,0,0,0,25,25,25,3,0,3,0,,,,,,,,,,,,,,,,,,,,,,,,,,,,,,,,,,,,,,,,,,,,,,,,,,,,30,,,,,,,,276.7214902000269,276.7214902000269,276.7214902000269,276.7214902000269,276.7214902000269,right,0.2436630000011064,25,0,0,99,0.24,-0.32,right,0.16754039999796078,,,,,,,,,,,,,,,,,,,,,,,,,,,,,,,,,A,train_x,x_increasing_steps,top_left,2024-10-29_22h47.04.119,HideSeek_v1,2022.2.5,60.027973024808425,
,1,1,6,1,5,0,66,,train_dim1_1,26,30,2,0,2,0,,,,,,,,,0,0,0,0,0,25,25,25,4,0,4,0,,,,,,,,,,,,,,,,,,,,,,,,,,,,,,,,,,,,,,,,,,,,,,,,,,,,30,,,,,,,,276.97317880002083,276.97317880002083,276.97317880002083,276.97317880002083,276.97317880002083,right,0.26102780003566295,25,0,0,99,0.32,-0.32,right,0.18721179995918646,,,,,,,,,,,,,,,,,,,,,,,,,,,,,,,,,A,train_x,x_increasing_steps,top_left,2024-10-29_22h47.04.119,HideSeek_v1,2022.2.5,60.027973024808425,
,1,1,6,1,5,0,66,,train_dim1_1,26,30,2,0,2,0,,,,,,,,,0,0,0,0,0,25,25,25,5,0,5,0,,,,,,,,,,,,,,,,,,,,,,,,,,,,,,,,,,,,,,,,,,,,,,,,,,,,30,,,,,,,,277.23546930000884,277.23546930000884,277.23546930000884,277.23546930000884,277.23546930000884,return,0.29458580003120005,26,0,0,1,0.32,-0.32,return,0.2322981000179425,0,60,0.32,-0.32,,,,,,,,,,,,,,,,,,,,,,,,,,,,,A,train_x,x_increasing_steps,top_left,2024-10-29_22h47.04.119,HideSeek_v1,2022.2.5,60.027973024808425,
,0,1,2,1,2,0,36,,train_dim1_1,27,30,2,0,2,0,,,,,,,,,0,0,0,0,0,26,26,26,0,0,0,0,,,,,,,,,,,,,stimuli/alien_stimuli/36.png,,,,,,,,,,,,,,,,,,,,,,,,,,,,,stimuli/alien_stimuli/66.png,66,1,28,,,,,,,30,,,,,,,,281.5585262000095,281.5585262000095,281.5585262000095,281.5585262000095,281.5585262000095,right,0.791503099957481,26,0,0,99,-0.08,-0.32,right,0.7038405999774113,,,,,280.00177060003625,281.5585262000095,0.32,-0.32,0.0,0.4,-0.32,0.32,0.12,0.32,-0.32,279.1144297000137,279.1144297000137,279.1144297000137,279.1144297000137,279.1144297000137,279.1144297000137,279.1144297000137,279.1144297000137,279.06881949998206,1.0018521000165492,return,0.8673272000160068,,,,,,A,train_x,x_increasing_steps,top_left,2024-10-29_22h47.04.119,HideSeek_v1,2022.2.5,60.027973024808425,
,0,1,2,1,2,0,36,,train_dim1_1,27,30,2,0,2,0,,,,,,,,,0,0,0,0,0,26,26,26,1,0,1,0,,,,,,,,,,,,,,,,,,,,,,,,,,,,,,,,,,,,,,,,,,,,,,,,,,,,30,,,,,,,,282.33517929998925,282.33517929998925,282.33517929998925,282.33517929998925,282.33517929998925,right,0.6942394999787211,26,0,0,99,0.0,-0.32,right,0.6194889000034891,,,,,,,,,,,,,,,,,,,,,,,,,,,,,,,,,A,train_x,x_increasing_steps,top_left,2024-10-29_22h47.04.119,HideSeek_v1,2022.2.5,60.027973024808425,
,0,1,2,1,2,0,36,,train_dim1_1,27,30,2,0,2,0,,,,,,,,,0,0,0,0,0,26,26,26,2,0,2,0,,,,,,,,,,,,,,,,,,,,,,,,,,,,,,,,,,,,,,,,,,,,,,,,,,,,30,,,,,,,,283.0643315000343,283.0643315000343,283.0643315000343,283.0643315000343,283.0643315000343,return,0.2788892000098713,27,0,0,1,0.0,-0.32,return,0.18262570002116263,0,62,0.0,-0.32,,,,,,,,,,,,,,,,,,,,,,,,,,,,,A,train_x,x_increasing_steps,top_left,2024-10-29_22h47.04.119,HideSeek_v1,2022.2.5,60.027973024808425,
,3,1,4,1,1,0,26,,train_dim1_1,28,30,2,0,2,0,,,,,,,,,0,0,0,0,0,27,27,27,0,0,0,0,,,,,,,,,,,,,stimuli/alien_stimuli/26.png,,,,,,,,,,,,,,,,,,,,,,,,,,,,,stimuli/alien_stimuli/36.png,36,0,29,,,,,,,30,,,,,,,,287.3391457000398,287.3391457000398,287.3391457000398,287.3391457000398,287.3391457000398,right,0.5085738000343554,27,0,0,99,0.16,-0.32,right,0.40589779999572784,,,,,285.76871480001137,287.3391457000398,0,-0.32,0.0,0.16,-0.32,0,-0.08,0,-0.32,284.9076590000186,284.9076590000186,284.9076590000186,284.9076590000186,284.9076590000186,284.9076590000186,284.9076590000186,284.9076590000186,284.86820829997305,0.9700917000300251,return,0.8426927999826148,,,,,,A,train_x,x_increasing_steps,top_left,2024-10-29_22h47.04.119,HideSeek_v1,2022.2.5,60.027973024808425,
,3,1,4,1,1,0,26,,train_dim1_1,28,30,2,0,2,0,,,,,,,,,0,0,0,0,0,27,27,27,1,0,1,0,,,,,,,,,,,,,,,,,,,,,,,,,,,,,,,,,,,,,,,,,,,,,,,,,,,,30,,,,,,,,287.8258829000406,287.8258829000406,287.8258829000406,287.8258829000406,287.8258829000406,return,0.3434421000420116,28,0,0,1,0.16,-0.32,return,0.2606266000075266,0,63,0.16,-0.32,,,,,,,,,,,,,,,,,,,,,,,,,,,,,A,train_x,x_increasing_steps,top_left,2024-10-29_22h47.04.119,HideSeek_v1,2022.2.5,60.027973024808425,
,4,0,7,0,3,0,46,,train_dim1_1,29,30,2,0,2,0,,,,,,,,,0,0,0,0,0,28,28,28,0,0,0,0,,,,,,,,,,,,,stimuli/alien_stimuli/46.png,,,,,,,,,,,,,,,,,,,,,,,,,,,,,stimuli/alien_stimuli/26.png,26,3,30,,,,,,,30,,,,,,,,291.7572846999974,291.7572846999974,291.7572846999974,291.7572846999974,291.7572846999974,right,0.8088901999872178,28,0,0,99,0.24,-0.4,right,0.7147023999714293,,,,,290.2023010000121,291.7572846999974,0.16,-0.32,0.0,0.08,-0.32,0.16,0.12,0.16,-0.32,289.7399371000356,289.7399371000356,289.7399371000356,289.7399371000356,289.7399371000356,289.7399371000356,289.7399371000356,289.7399371000356,289.7016877999995,0.5689195999875665,return,0.44248870003502816,,,,,,A,train_x,x_increasing_steps,top_left,2024-10-29_22h47.04.119,HideSeek_v1,2022.2.5,60.027973024808425,
,4,0,7,0,3,0,46,,train_dim1_1,29,30,2,0,2,0,,,,,,,,,0,0,0,0,0,28,28,28,1,0,1,0,,,,,,,,,,,,,,,,,,,,,,,,,,,,,,,,,,,,,,,,,,,,,,,,,,,,30,,,,,,,,292.553700199991,292.553700199991,292.553700199991,292.553700199991,292.553700199991,right,0.2599264999735169,28,0,0,99,0.32,-0.4,right,0.186567600001581,,,,,,,,,,,,,,,,,,,,,,,,,,,,,,,,,A,train_x,x_increasing_steps,top_left,2024-10-29_22h47.04.119,HideSeek_v1,2022.2.5,60.027973024808425,
,4,0,7,0,3,0,46,,train_dim1_1,29,30,2,0,2,0,,,,,,,,,0,0,0,0,0,28,28,28,2,0,2,0,,,,,,,,,,,,,,,,,,,,,,,,,,,,,,,,,,,,,,,,,,,,,,,,,,,,30,,,,,,,,292.8155062000151,292.8155062000151,292.8155062000151,292.8155062000151,292.8155062000151,right,0.21130079997237772,28,0,0,99,0.4,-0.4,right,0.13768939999863505,,,,,,,,,,,,,,,,,,,,,,,,,,,,,,,,,A,train_x,x_increasing_steps,top_left,2024-10-29_22h47.04.119,HideSeek_v1,2022.2.5,60.027973024808425,
,4,0,7,0,3,0,46,,train_dim1_1,29,30,2,0,2,0,,,,,,,,,0,0,0,0,0,28,28,28,3,0,3,0,,,,,,,,,,,,,,,,,,,,,,,,,,,,,,,,,,,,,,,,,,,,,,,,,,,,30,,,,,,,,293.03365810000105,293.03365810000105,293.03365810000105,293.03365810000105,293.03365810000105,return,0.444898399990052,29,0,0,1,0.4,-0.4,return,0.37544159998651594,0,66,0.4,-0.4,,,,,,,,,,,,,,,,,,,,,,,,,,,,,A,train_x,x_increasing_steps,top_left,2024-10-29_22h47.04.119,HideSeek_v1,2022.2.5,60.027973024808425,
,2,2,2,2,0,0,16,,train_dim1_1,30,30,2,0,2,0,,,,,,,,,0,0,0,0,0,29,29,29,0,0,0,0,,,,,,,,,,,,,stimuli/alien_stimuli/16.png,,,,,,,,,,,,,,,,,,,,,,,,,,,,,stimuli/alien_stimuli/46.png,46,4,31,,,,,,,30,,,,,,,,297.662498700025,297.662498700025,297.662498700025,297.662498700025,297.662498700025,return,0.8089951000292785,30,0,0,1,0,-0.24,return,0.7167770999949425,0,66,0,-0.24,296.1018479000195,297.662498700025,0.4,-0.4,0.0,0.24,-0.4,0.4,0.28,0.4,-0.4,295.06079439999303,295.06079439999303,295.06079439999303,295.06079439999303,295.06079439999303,295.06079439999303,295.06079439999303,295.06079439999303,295.01865529996576,1.1515677999705076,return,1.020923500007484,,,,,,A,train_x,x_increasing_steps,top_left,2024-10-29_22h47.04.119,HideSeek_v1,2022.2.5,60.027973024808425,
,,,,,,,,,,,30,2,0,2,0,,,,,,,,,,,,,,,,,,,,,,,,,,,,,,,,,,,,,,,,,,,,,,,,,,,,,,,,,,,,,,stimuli/alien_stimuli/16.png,16,2,32,17,0.7,1.25,1,1,1,30,0,conditions/schedules/train_x_first/x_increasing_steps/top_left/inputTrain_1.1.xlsx,99,1,2,1,0,,,,,,,,,,,1,,,,,,,,,300.51850990002276,302.05136610002955,0,-0.24,0.0,0.0,-0.24,0,0.0,0,-0.24,300.03022020001663,300.03022020001663,300.03022020001663,300.03022020001663,300.03022020001663,300.03022020001663,300.03022020001663,300.03022020001663,299.9853468000074,0.6016202000319026,return,0.47061989997746423,0,1.25,0,1,30,A,train_x,x_increasing_steps,top_left,2024-10-29_22h47.04.119,HideSeek_v1,2022.2.5,60.027973024808425,
,,,,,,,,,,,,3,0,3,0,0,0,0,0,,,,,,,,,,,,,,,,,,,conditions/schedules/train_x_first/x_increasing_steps/top_left/instructions/Slide17.png,conditions/schedules/train_x_first/x_increasing_steps/top_left/instructions/Audio17.wav,302.05136610002955,302.05151375998975,17,"[2.614062800013926, 0.3934451999957673, 0.3541531999944709, 0.33689350000349805, 0.31363649998093024, 0.34837569994851947, 0.34884689998580143, 0.3812161000096239, 0.6456618999945931, 0.4566773999831639, 0.6104112000321038, 0.6122421000036411, 1.1900292999926023, 0.537017599970568, 1.464676600007806, 0.5542034999816678, 2.0157789000077173]","[0.15957989997696131, 0.15367839997634292, 0.17027130001224577, 0.16315189999295399, 0.16507129999808967, 0.1652963999658823, 0.17998150002676994, 0.16160200000740588, 0.1727481999550946, 0.17643799999495968, 0.1620960999862291, 0.6122491999994963, 0.053147199971135706, 0.5370248999679461, 0.0539246000116691, 0.5542091999668628, 2.015786899952218]",0,,,,,,,,,,,,,,,,,,,,,,,,,,,,,,,,,,,,,,,,,,,,,,,,,,,,,,,,,,,,,,,,,,,,,,,,,,,,,,,,,,,,,,,,,,,,,,,,,A,train_x,x_increasing_steps,top_left,2024-10-29_22h47.04.119,HideSeek_v1,2022.2.5,60.027973024808425,
,,,,,,,,,,,,3,0,3,0,1,0,1,0,,,,,,,,,,,,,,,,,,,conditions/schedules/train_x_first/x_increasing_steps/top_left/instructions/Slide18.png,conditions/schedules/train_x_first/x_increasing_steps/top_left/instructions/Audio18.wav,304.12878560001263,304.1186655800207,18,"[2.614062800013926, 0.3934451999957673, 0.3541531999944709, 0.33689350000349805, 0.31363649998093024, 0.34837569994851947, 0.34884689998580143, 0.3812161000096239, 0.6456618999945931, 0.4566773999831639, 0.6104112000321038, 0.6122421000036411, 1.1900292999926023, 0.537017599970568, 1.464676600007806, 0.5542034999816678, 2.0157789000077173, 0.5027816999936476]","[0.15957989997696131, 0.15367839997634292, 0.17027130001224577, 0.16315189999295399, 0.16507129999808967, 0.1652963999658823, 0.17998150002676994, 0.16160200000740588, 0.1727481999550946, 0.17643799999495968, 0.1620960999862291, 0.6122491999994963, 0.053147199971135706, 0.5370248999679461, 0.0539246000116691, 0.5542091999668628, 0.012808699975721538, 0.5027886999887414]",0,,,,,,,,,,,,,,,,,,,,,,,,,,,,,,,,,,,,,,,,,,,,,,,,,,,,,,,,,,,,,,,,,,,,,,,,,,,,,,,,,,,,,,,,,,,,,,,,,A,train_x,x_increasing_steps,top_left,2024-10-29_22h47.04.119,HideSeek_v1,2022.2.5,60.027973024808425,
,,,,,,,,,,,,3,0,3,0,2,0,2,0,,,,,,,,,,,,,,,,,,,conditions/schedules/train_x_first/x_increasing_steps/top_left/instructions/Slide19.png,conditions/schedules/train_x_first/x_increasing_steps/top_left/instructions/Audio19.wav,304.6685615000315,304.6517173400032,19,"[2.614062800013926, 0.3934451999957673, 0.3541531999944709, 0.33689350000349805, 0.31363649998093024, 0.34837569994851947, 0.34884689998580143, 0.3812161000096239, 0.6456618999945931, 0.4566773999831639, 0.6104112000321038, 0.6122421000036411, 1.1900292999926023, 0.537017599970568, 1.464676600007806, 0.5542034999816678, 2.0157789000077173, 0.5027816999936476, 0.6526698000379838]","[0.15957989997696131, 0.15367839997634292, 0.17027130001224577, 0.16315189999295399, 0.16507129999808967, 0.1652963999658823, 0.17998150002676994, 0.16160200000740588, 0.1727481999550946, 0.17643799999495968, 0.1620960999862291, 0.6122491999994963, 0.053147199971135706, 0.5370248999679461, 0.0539246000116691, 0.5542091999668628, 0.012808699975721538, 0.052544600039254874, 0.6526766000315547]",0,,,,,,,,,,,,,,,,,,,,,,,,,,,,,,,,,,,,,,,,,,,,,,,,,,,,,,,,,,,,,,,,,,,,,,,,,,,,,,,,,,,,,,,,,,,,,,,,,A,train_x,x_increasing_steps,top_left,2024-10-29_22h47.04.119,HideSeek_v1,2022.2.5,60.027973024808425,
,,,,,,,,,,,,3,0,3,0,3,0,3,0,,,,,,,,,,,,,,,,,,,conditions/schedules/train_x_first/x_increasing_steps/top_left/instructions/Slide20.png,conditions/schedules/train_x_first/x_increasing_steps/top_left/instructions/Audio20.wav,305.36925430002157,305.35177026001037,20,"[2.614062800013926, 0.3934451999957673, 0.3541531999944709, 0.33689350000349805, 0.31363649998093024, 0.34837569994851947, 0.34884689998580143, 0.3812161000096239, 0.6456618999945931, 0.4566773999831639, 0.6104112000321038, 0.6122421000036411, 1.1900292999926023, 0.537017599970568, 1.464676600007806, 0.5542034999816678, 2.0157789000077173, 0.5027816999936476, 0.6526698000379838, 1.3412882000557147]","[0.15957989997696131, 0.15367839997634292, 0.17027130001224577, 0.16315189999295399, 0.16507129999808967, 0.1652963999658823, 0.17998150002676994, 0.16160200000740588, 0.1727481999550946, 0.17643799999495968, 0.1620960999862291, 0.6122491999994963, 0.053147199971135706, 0.5370248999679461, 0.0539246000116691, 0.5542091999668628, 0.012808699975721538, 0.052544600039254874, 0.6526766000315547, 1.3412948000477627]",0,,,,,,,,,,,,,,,,,,,,,,,,,,,,,,,,,,,,,,,,,,,,,,,,,,,,,,,,,,,,,,,,,,,,,,,,,,,,,,,,,,,,,,,,,,,,,,,,,A,train_x,x_increasing_steps,top_left,2024-10-29_22h47.04.119,HideSeek_v1,2022.2.5,60.027973024808425,
,,,,,,,,,,,,,,,,,,,,,,,,,,,,,,,,,,,,,,,,,,,,,,,,stimuli/alien_stimuli/66.png,conditions/schedules/train_x_first/x_increasing_steps/top_left/inputInstr_1.xlsx,stimuli/alien_stimuli/66.png,306.78474139998434,306.78474139998434,306.78474139998434,306.78474139998434,306.75183508000333,,,,,,,,,,,,,,,,,,,,,,,,,,,,,,,,,,,,,,,,,,,,,,,,,,,,,,,,,,,,,,,,,,,,,,,,,,,,,,,,,,,,,,,,,,,,,,,
