trialInstr,x_fixStart,y_fixStart,x_corrSteps,y_corrSteps,x_nrSteps,y_nrSteps,alienID,trialLength,version,trialTrain,praclen,beforeExpLoop.thisRepN,beforeExpLoop.thisTrialN,beforeExpLoop.thisN,beforeExpLoop.thisIndex,mini_instr_trials.thisRepN,mini_instr_trials.thisTrialN,mini_instr_trials.thisN,mini_instr_trials.thisIndex,instrLoop.thisRepN,instrLoop.thisTrialN,instrLoop.thisN,instrLoop.thisIndex,repeat_prac.thisRepN,repeat_prac.thisTrialN,repeat_prac.thisN,repeat_prac.thisIndex,trainLoop.thisRepN,trainLoop.thisTrialN,trainLoop.thisN,trainLoop.thisIndex,moveLoop_train.thisRepN,moveLoop_train.thisTrialN,moveLoop_train.thisN,moveLoop_train.thisIndex,start_all_time,url,slideStim,audioStim,slides.started,sounds.started,nextButton.numClicks,nextButton.timesOn,nextButton.timesOff,prev_but.numClicks,prev_but.timesOn,prev_but.timesOff,alienStim,instrFile,alienStim_instr,gridImage_instr.started,startPos_3.started,key_instr.started,alienImage_3.started,sounds_1.started,key_instr.keys,key_instr.rt,all_x,all_y,FBy_corrSteps,FBy_fixStart,FBx_corrSteps,FBx_fixStart,FBy_pathSize_check,FBx_pathSize_check,gridImage_9.started,alienImageFB_3.started,startPosFB_3.started,keyFB_3.started,pathLine_ydir_2.started,pathLine_xdir_2.started,alienFace_3.started,sounds_2.started,RTFB_instr,keyFB_3.keys,keyFB_3.rt,draw_alienStim,draw_alienID,test_x,nrepcount,perfthres,percthres,earlierperf,earlystop,nextPrac,fileidx,praclen,saveACC_train,pracFile,nextPrac_train,addNrep,fileidx_endr,repExp,showearly,gridImage_4.started,startPos.started,movePos.started,key_resp.started,alienImage.started,buttonPress_train,RTchoice_train,cumAcctrain,aCorr,saveACC_choice,corrAns,x_movePos_end,y_movePos_end,key_resp.keys,key_resp.rt,wLy_dir,wLx_dir,x_movePos,y_movePos,text_2.started,text_2.stopped,aft_x_corrPos,aft_y_corrPos,y_pathSize_check,x_pathSize_check,y_pathdirY,x_pathdirY,x_pathdirX,x_corrPos,y_corrPos,gridImage_6.started,alienImageFB_2.started,startPosFB_2.started,movePosFB_2.started,keyFB_2.started,pathLine_xdir.started,pathLine_ydir.started,alienFace.started,sounds_4.started,RT_FBtrain,keyFB_2.keys,keyFB_2.rt,saveACC_pre,ACC,within_saveACC_train,earlystop_wloop,cumAcctrain_check,participant,train_first,direction of x,starting corner,date,expName,psychopyVersion,frameRate,
,,,,,,,,,,,,0,0,0,0,0,0,0,0,,,,,,,,,,,,,,,,,start_all_time,testround,conditions/schedules/train_x_first/x_increasing_steps/top_left/instructions/Slide1.png,conditions/schedules/train_x_first/x_increasing_steps/top_left/instructions/Audio1.wav,58.47812330001034,58.406593500461895,1,[2.222557000000961],[2.22257919999538],0,,,,,,,,,,,,,,,,,,,,,,,,,,,,,,,,,,,,,,,,,,,,,,,,,,,,,,,,,,,,,,,,,,,,,,,,,,,,,,,,,,,,,,,,,,,,,,,,,A,train_x,x_increasing_steps,top_left,2024-10-29_19h03.39.056,HideSeek_v1,2022.2.5,59.94420393580163,
,,,,,,,,,,,,0,0,0,0,1,0,1,0,,,,,,,,,,,,,,,,,,,conditions/schedules/train_x_first/x_increasing_steps/top_left/instructions/Slide2.png,conditions/schedules/train_x_first/x_increasing_steps/top_left/instructions/Audio2.wav,60.74357759999111,60.72659781998955,2,"[2.222557000000961, 0.37283649999881163]","[0.0004362999461591244, 0.3728434999939054]",0,,,,,,,,,,,,,,,,,,,,,,,,,,,,,,,,,,,,,,,,,,,,,,,,,,,,,,,,,,,,,,,,,,,,,,,,,,,,,,,,,,,,,,,,,,,,,,,,,A,train_x,x_increasing_steps,top_left,2024-10-29_19h03.39.056,HideSeek_v1,2022.2.5,59.94420393580163,
,,,,,,,,,,,,0,0,0,0,2,0,2,0,,,,,,,,,,,,,,,,,,,conditions/schedules/train_x_first/x_increasing_steps/top_left/instructions/Slide3.png,conditions/schedules/train_x_first/x_increasing_steps/top_left/instructions/Audio3.wav,61.21145319996867,61.19519915998681,3,"[2.222557000000961, 0.37283649999881163, 0.3503663000301458]","[0.0004362999461591244, 0.0002133999951183796, 0.3503739000298083]",0,,,,,,,,,,,,,,,,,,,,,,,,,,,,,,,,,,,,,,,,,,,,,,,,,,,,,,,,,,,,,,,,,,,,,,,,,,,,,,,,,,,,,,,,,,,,,,,,,A,train_x,x_increasing_steps,top_left,2024-10-29_19h03.39.056,HideSeek_v1,2022.2.5,59.94420393580163,
,,,,,,,,,,,,0,0,0,0,3,0,3,0,,,,,,,,,,,,,,,,,,,conditions/schedules/train_x_first/x_increasing_steps/top_left/instructions/Slide4.png,conditions/schedules/train_x_first/x_increasing_steps/top_left/instructions/Audio4.wav,61.61101900000358,61.61039503999054,4,"[2.222557000000961, 0.37283649999881163, 0.3503663000301458, 0.3822194999665953]","[0.0004362999461591244, 0.0002133999951183796, 0.08183189999544993, 0.38223200000356883]",0,,,,,,,,,,,,,,,,,,,,,,,,,,,,,,,,,,,,,,,,,,,,,,,,,,,,,,,,,,,,,,,,,,,,,,,,,,,,,,,,,,,,,,,,,,,,,,,,,A,train_x,x_increasing_steps,top_left,2024-10-29_19h03.39.056,HideSeek_v1,2022.2.5,59.94420393580163,
,,,,,,,,,,,,0,0,0,0,4,0,4,0,,,,,,,,,,,,,,,,,,,conditions/schedules/train_x_first/x_increasing_steps/top_left/instructions/Slide5.png,conditions/schedules/train_x_first/x_increasing_steps/top_left/instructions/Audio5.wav,62.060173199977726,62.042967940017114,5,"[2.222557000000961, 0.37283649999881163, 0.3503663000301458, 0.3822194999665953, 0.37193990004016086]","[0.0004362999461591244, 0.0002133999951183796, 0.08183189999544993, 0.08820580004248768, 0.37194750003982335]",0,,,,,,,,,,,,,,,,,,,,,,,,,,,,,,,,,,,,,,,,,,,,,,,,,,,,,,,,,,,,,,,,,,,,,,,,,,,,,,,,,,,,,,,,,,,,,,,,,A,train_x,x_increasing_steps,top_left,2024-10-29_19h03.39.056,HideSeek_v1,2022.2.5,59.94420393580163,
,,,,,,,,,,,,0,0,0,0,5,0,5,0,,,,,,,,,,,,,,,,,,,conditions/schedules/train_x_first/x_increasing_steps/top_left/instructions/Slide6.png,conditions/schedules/train_x_first/x_increasing_steps/top_left/instructions/Audio6.wav,62.476849299971946,62.45995707997354,6,"[2.222557000000961, 0.37283649999881163, 0.3503663000301458, 0.3822194999665953, 0.37193990004016086, 0.31920460000401363]","[0.0004362999461591244, 0.0002133999951183796, 0.08183189999544993, 0.08820580004248768, 0.08545190002769232, 0.31921230000443757]",0,,,,,,,,,,,,,,,,,,,,,,,,,,,,,,,,,,,,,,,,,,,,,,,,,,,,,,,,,,,,,,,,,,,,,,,,,,,,,,,,,,,,,,,,,,,,,,,,,A,train_x,x_increasing_steps,top_left,2024-10-29_19h03.39.056,HideSeek_v1,2022.2.5,59.94420393580163,
,,,,,,,,,,,,0,0,0,0,6,0,6,0,,,,,,,,,,,,,,,,,,,conditions/schedules/train_x_first/x_increasing_steps/top_left/instructions/Slide7.png,conditions/schedules/train_x_first/x_increasing_steps/top_left/instructions/Audio7.wav,62.84350770001765,62.826350779982754,7,"[2.222557000000961, 0.37283649999881163, 0.3503663000301458, 0.3822194999665953, 0.37193990004016086, 0.31920460000401363, 0.32394079997902736]","[0.0004362999461591244, 0.0002133999951183796, 0.08183189999544993, 0.08820580004248768, 0.08545190002769232, 0.07290889997966588, 0.3239506999962032]",0,,,,,,,,,,,,,,,,,,,,,,,,,,,,,,,,,,,,,,,,,,,,,,,,,,,,,,,,,,,,,,,,,,,,,,,,,,,,,,,,,,,,,,,,,,,,,,,,,A,train_x,x_increasing_steps,top_left,2024-10-29_19h03.39.056,HideSeek_v1,2022.2.5,59.94420393580163,
,,,,,,,,,,,,0,0,0,0,7,0,7,0,,,,,,,,,,,,,,,,,,,conditions/schedules/train_x_first/x_increasing_steps/top_left/instructions/Slide8.png,conditions/schedules/train_x_first/x_increasing_steps/top_left/instructions/Audio8.wav,63.24577879998833,63.24331436000066,8,"[2.222557000000961, 0.37283649999881163, 0.3503663000301458, 0.3822194999665953, 0.37193990004016086, 0.31920460000401363, 0.32394079997902736, 0.2971489999908954]","[0.0004362999461591244, 0.0002133999951183796, 0.08183189999544993, 0.08820580004248768, 0.08545190002769232, 0.07290889997966588, 0.00023689999943599105, 0.2971623999765143]",0,,,,,,,,,,,,,,,,,,,,,,,,,,,,,,,,,,,,,,,,,,,,,,,,,,,,,,,,,,,,,,,,,,,,,,,,,,,,,,,,,,,,,,,,,,,,,,,,,A,train_x,x_increasing_steps,top_left,2024-10-29_19h03.39.056,HideSeek_v1,2022.2.5,59.94420393580163,
,,,,,,,,,,,,0,0,0,0,8,0,8,0,,,,,,,,,,,,,,,,,,,conditions/schedules/train_x_first/x_increasing_steps/top_left/instructions/Slide9.png,conditions/schedules/train_x_first/x_increasing_steps/top_left/instructions/Audio9.wav,63.59373510000296,63.576431380014405,9,"[2.222557000000961, 0.37283649999881163, 0.3503663000301458, 0.3822194999665953, 0.37193990004016086, 0.31920460000401363, 0.32394079997902736, 0.2971489999908954, 0.419996100012213]","[0.0004362999461591244, 0.0002133999951183796, 0.08183189999544993, 0.08820580004248768, 0.08545190002769232, 0.07290889997966588, 0.00023689999943599105, 0.06939120002789423, 0.42000400001415983]",0,,,,,,,,,,,,,,,,,,,,,,,,,,,,,,,,,,,,,,,,,,,,,,,,,,,,,,,,,,,,,,,,,,,,,,,,,,,,,,,,,,,,,,,,,,,,,,,,,A,train_x,x_increasing_steps,top_left,2024-10-29_19h03.39.056,HideSeek_v1,2022.2.5,59.94420393580163,
,,,,,,,,,,,,0,0,0,0,9,0,9,0,,,,,,,,,,,,,,,,,,,conditions/schedules/train_x_first/x_increasing_steps/top_left/instructions/Slide10.png,conditions/schedules/train_x_first/x_increasing_steps/top_left/instructions/Audio10.wav,64.07804910000414,64.07656940002926,10,"[2.222557000000961, 0.37283649999881163, 0.3503663000301458, 0.3822194999665953, 0.37193990004016086, 0.31920460000401363, 0.32394079997902736, 0.2971489999908954, 0.419996100012213, 0.563549000013154]","[0.0004362999461591244, 0.0002133999951183796, 0.08183189999544993, 0.08820580004248768, 0.08545190002769232, 0.07290889997966588, 0.00023689999943599105, 0.06939120002789423, 0.014598699985072017, 0.5635547999991104]",0,,,,,,,,,,,,,,,,,,,,,,,,,,,,,,,,,,,,,,,,,,,,,,,,,,,,,,,,,,,,,,,,,,,,,,,,,,,,,,,,,,,,,,,,,,,,,,,,,A,train_x,x_increasing_steps,top_left,2024-10-29_19h03.39.056,HideSeek_v1,2022.2.5,59.94420393580163,
,,,,,,,,,,,,0,0,0,0,10,0,10,0,,,,,,,,,,,,,,,,,,,conditions/schedules/train_x_first/x_increasing_steps/top_left/instructions/Slide11.png,conditions/schedules/train_x_first/x_increasing_steps/top_left/instructions/Audio11.wav,64.69438900001114,64.69336414003045,11,"[2.222557000000961, 0.37283649999881163, 0.3503663000301458, 0.3822194999665953, 0.37193990004016086, 0.31920460000401363, 0.32394079997902736, 0.2971489999908954, 0.419996100012213, 0.563549000013154, 0.4168801999767311]","[0.0004362999461591244, 0.0002133999951183796, 0.08183189999544993, 0.08820580004248768, 0.08545190002769232, 0.07290889997966588, 0.00023689999943599105, 0.06939120002789423, 0.014598699985072017, 0.04939199995715171, 0.41688749997410923]",0,,,,,,,,,,,,,,,,,,,,,,,,,,,,,,,,,,,,,,,,,,,,,,,,,,,,,,,,,,,,,,,,,,,,,,,,,,,,,,,,,,,,,,,,,,,,,,,,,A,train_x,x_increasing_steps,top_left,2024-10-29_19h03.39.056,HideSeek_v1,2022.2.5,59.94420393580163,
,,,,,,,,,,,,0,0,0,0,11,0,11,0,,,,,,,,,,,,,,,,,,,conditions/schedules/train_x_first/x_increasing_steps/top_left/instructions/Slide12.png,conditions/schedules/train_x_first/x_increasing_steps/top_left/instructions/Audio12.wav,65.1600970000145,65.1439273799886,12,"[2.222557000000961, 0.37283649999881163, 0.3503663000301458, 0.3822194999665953, 0.37193990004016086, 0.31920460000401363, 0.32394079997902736, 0.2971489999908954, 0.419996100012213, 0.563549000013154, 0.4168801999767311, 1.2692770999856293]","[0.0004362999461591244, 0.0002133999951183796, 0.08183189999544993, 0.08820580004248768, 0.08545190002769232, 0.07290889997966588, 0.00023689999943599105, 0.06939120002789423, 0.014598699985072017, 0.04939199995715171, 0.08617759996559471, 1.2692832999746315]",0,,,,,,,,,,,,,,,,,,,,,,,,,,,,,,,,,,,,,,,,,,,,,,,,,,,,,,,,,,,,,,,,,,,,,,,,,,,,,,,,,,,,,,,,,,,,,,,,,A,train_x,x_increasing_steps,top_left,2024-10-29_19h03.39.056,HideSeek_v1,2022.2.5,59.94420393580163,
1,3,2,8,2,5,0,66,2,instr_dim1_1,,,0,0,0,0,,,,,0,0,0,0,,,,,,,,,,,,,,,,,,,,,,,,,stimuli/alien_stimuli/66.png,conditions/schedules/train_x_first/x_increasing_steps/top_left/inputInstr_1.xlsx,stimuli/alien_stimuli/66.png,66.55994419998024,66.55994419998024,66.55994419998024,66.55994419998024,66.52627031998708,return,0.9481051999609917,"[-0.16, -0.08, 0, 0.08, 0.16, 0.24, 0.32, 0.4, 0.48, 0.56]","[-0.4, -0.32, -0.24, -0.16, -0.08, 0, 0.08, 0.16, 0.24, 0.32]",2,2,8,3,0.0,0.4,67.65987979999045,67.65987979999045,67.65987979999045,67.65987979999045,67.65987979999045,67.65987979999045,67.65987979999045,67.60998025998705,1.1838166000088677,return,1.0177415000507608,stimuli/alien_stimuli/66.png,66,3,1,,,,,,,,,,,,,,,,,,,,,,,,,,,,,,,,,,,,,,,,,,,,,,,,,,,,,,,,,,,,,,A,train_x,x_increasing_steps,top_left,2024-10-29_19h03.39.056,HideSeek_v1,2022.2.5,59.94420393580163,
,,,,,,,,,,,30,0,0,0,0,,,,,,,,,,,,,,,,,,,,,,,,,,,,,,,,,,,,,,,,,,,,,,,,,,,,,,,,,,,,,,,,,,17,0.7,0,0,99,1,30,0,conditions/schedules/train_x_first/x_increasing_steps/top_left/inputTrain_1.1.xlsx,99,1,1,1,0,,,,,,,,,,,,,,,,,,,,,,,,,,,,,,,,,,,,,,,,,,,,,,,,A,train_x,x_increasing_steps,top_left,2024-10-29_19h03.39.056,HideSeek_v1,2022.2.5,59.94420393580163,
,,,,,,,,,,,,1,0,1,0,0,0,0,0,,,,,,,,,,,,,,,,,,,conditions/schedules/train_x_first/x_increasing_steps/top_left/instructions/Slide13.png,conditions/schedules/train_x_first/x_increasing_steps/top_left/instructions/Audio13.wav,68.82693719997769,68.80995372000615,13,"[2.222557000000961, 0.37283649999881163, 0.3503663000301458, 0.3822194999665953, 0.37193990004016086, 0.31920460000401363, 0.32394079997902736, 0.2971489999908954, 0.419996100012213, 0.563549000013154, 0.4168801999767311, 1.2692770999856293, 1.1204813999938779]","[0.0004362999461591244, 0.0002133999951183796, 0.08183189999544993, 0.08820580004248768, 0.08545190002769232, 0.07290889997966588, 0.00023689999943599105, 0.06939120002789423, 0.014598699985072017, 0.04939199995715171, 0.08617759996559471, 1.2692832999746315, 1.1204880999866873]",0,,,,,,,,,,,,,,,,,,,,,,,,,,,,,,,,,,,,,,,,,,,,,,,,,,,,,,,,,,,,,,,,,,,,,,,,,,,,,,,,,,,,,,,,,,,,,,,,,A,train_x,x_increasing_steps,top_left,2024-10-29_19h03.39.056,HideSeek_v1,2022.2.5,59.94420393580163,
,,,,,,,,,,,,1,0,1,0,1,0,1,0,,,,,,,,,,,,,,,,,,,conditions/schedules/train_x_first/x_increasing_steps/top_left/instructions/Slide14.png,conditions/schedules/train_x_first/x_increasing_steps/top_left/instructions/Audio14.wav,69.99810969998362,69.99308573999441,14,"[2.222557000000961, 0.37283649999881163, 0.3503663000301458, 0.3822194999665953, 0.37193990004016086, 0.31920460000401363, 0.32394079997902736, 0.2971489999908954, 0.419996100012213, 0.563549000013154, 0.4168801999767311, 1.2692770999856293, 1.1204813999938779, 1.6445780000067316]","[0.0004362999461591244, 0.0002133999951183796, 0.08183189999544993, 0.08820580004248768, 0.08545190002769232, 0.07290889997966588, 0.00023689999943599105, 0.06939120002789423, 0.014598699985072017, 0.04939199995715171, 0.08617759996559471, 1.2692832999746315, 0.015266300004441291, 1.6445872000185773]",0,,,,,,,,,,,,,,,,,,,,,,,,,,,,,,,,,,,,,,,,,,,,,,,,,,,,,,,,,,,,,,,,,,,,,,,,,,,,,,,,,,,,,,,,,,,,,,,,,A,train_x,x_increasing_steps,top_left,2024-10-29_19h03.39.056,HideSeek_v1,2022.2.5,59.94420393580163,
2,4,0,4,0,0,0,16,2,instr_dim1_1,,,1,0,1,0,,,,,0,0,0,0,,,,,,,,,,,,,,,,,,,,,,,,,stimuli/alien_stimuli/16.png,conditions/schedules/train_x_first/x_increasing_steps/top_left/inputInstr_1.xlsx,stimuli/alien_stimuli/16.png,71.77783530001761,71.77783530001761,71.77783530001761,71.77783530001761,71.70958740002243,return,1.7228427000227384,"[-0.16, -0.08, 0, 0.08, 0.16, 0.24, 0.32, 0.4, 0.48, 0.56]","[-0.4, -0.32, -0.24, -0.16, -0.08, 0, 0.08, 0.16, 0.24, 0.32]",0,0,4,4,0.0,0.0,73.7266039000242,73.7266039000242,73.7266039000242,73.7266039000242,73.7266039000242,73.7266039000242,73.7266039000242,73.65948904000687,1.9839691999950446,return,1.7610643999651074,stimuli/alien_stimuli/16.png,16,4,2,,,,,,,,,,,,,,,,,,,,,,,,,,,,,,,,,,,,,,,,,,,,,,,,,,,,,,,,,,,,,,A,train_x,x_increasing_steps,top_left,2024-10-29_19h03.39.056,HideSeek_v1,2022.2.5,59.94420393580163,
,,,,,,,,,,,30,1,0,1,0,,,,,,,,,,,,,,,,,,,,,,,,,,,,,,,,,,,,,,,,,,,,,,,,,,,,,,,,,,,,,,,,,,17,0.7,0,0,99,1,30,0,conditions/schedules/train_x_first/x_increasing_steps/top_left/inputTrain_1.1.xlsx,99,1,1,1,0,,,,,,,,,,,,,,,,,,,,,,,,,,,,,,,,,,,,,,,,,,,,,,,,A,train_x,x_increasing_steps,top_left,2024-10-29_19h03.39.056,HideSeek_v1,2022.2.5,59.94420393580163,
,,,,,,,,,,,,2,0,2,0,0,0,0,0,,,,,,,,,,,,,,,,,,,conditions/schedules/train_x_first/x_increasing_steps/top_left/instructions/Slide15.png,conditions/schedules/train_x_first/x_increasing_steps/top_left/instructions/Audio15.wav,75.62656000000425,75.609476920031,15,"[2.222557000000961, 0.37283649999881163, 0.3503663000301458, 0.3822194999665953, 0.37193990004016086, 0.31920460000401363, 0.32394079997902736, 0.2971489999908954, 0.419996100012213, 0.563549000013154, 0.4168801999767311, 1.2692770999856293, 1.1204813999938779, 1.6445780000067316, 1.638595299969893]","[0.0004362999461591244, 0.0002133999951183796, 0.08183189999544993, 0.08820580004248768, 0.08545190002769232, 0.07290889997966588, 0.00023689999943599105, 0.06939120002789423, 0.014598699985072017, 0.04939199995715171, 0.08617759996559471, 1.2692832999746315, 0.015266300004441291, 1.6445872000185773, 1.6386004000087269]",0,,,,,,,,,,,,,,,,,,,,,,,,,,,,,,,,,,,,,,,,,,,,,,,,,,,,,,,,,,,,,,,,,,,,,,,,,,,,,,,,,,,,,,,,,,,,,,,,,A,train_x,x_increasing_steps,top_left,2024-10-29_19h03.39.056,HideSeek_v1,2022.2.5,59.94420393580163,
,,,,,,,,,,,,2,0,2,0,1,0,1,0,,,,,,,,,,,,,,,,,,,conditions/schedules/train_x_first/x_increasing_steps/top_left/instructions/Slide16.png,conditions/schedules/train_x_first/x_increasing_steps/top_left/instructions/Audio16.wav,77.31461549998494,77.30983383997808,16,"[2.222557000000961, 0.37283649999881163, 0.3503663000301458, 0.3822194999665953, 0.37193990004016086, 0.31920460000401363, 0.32394079997902736, 0.2971489999908954, 0.419996100012213, 0.563549000013154, 0.4168801999767311, 1.2692770999856293, 1.1204813999938779, 1.6445780000067316, 1.638595299969893, 1.2941484000184573]","[0.0004362999461591244, 0.0002133999951183796, 0.08183189999544993, 0.08820580004248768, 0.08545190002769232, 0.07290889997966588, 0.00023689999943599105, 0.06939120002789423, 0.014598699985072017, 0.04939199995715171, 0.08617759996559471, 1.2692832999746315, 0.015266300004441291, 1.6445872000185773, 0.07698080001864582, 1.2941557000158355]",0,,,,,,,,,,,,,,,,,,,,,,,,,,,,,,,,,,,,,,,,,,,,,,,,,,,,,,,,,,,,,,,,,,,,,,,,,,,,,,,,,,,,,,,,,,,,,,,,,A,train_x,x_increasing_steps,top_left,2024-10-29_19h03.39.056,HideSeek_v1,2022.2.5,59.94420393580163,
,2,1,4,1,2,0,36,,train_dim1_1,1,30,2,0,2,0,,,,,,,,,0,0,0,0,0,0,0,0,0,0,0,0,,,,,,,,,,,,,stimuli/alien_stimuli/36.png,,,,,,,,,,,,,,,,,,,,,,,,,,,,,,,,,,,,,,,30,,,,,,,,78.69447559997207,78.69447559997207,78.69447559997207,78.69447559997207,78.69447559997207,right,5.432288299954962,0,0,0,99,0.08,-0.32,right,5.3417818999732845,,,,,,,,,,,,,,,,,,,,,,,,,,,,,,,,,A,train_x,x_increasing_steps,top_left,2024-10-29_19h03.39.056,HideSeek_v1,2022.2.5,59.94420393580163,
,2,1,4,1,2,0,36,,train_dim1_1,1,30,2,0,2,0,,,,,,,,,0,0,0,0,0,0,0,0,1,0,1,0,,,,,,,,,,,,,,,,,,,,,,,,,,,,,,,,,,,,,,,,,,,,,,,,,,,,30,,,,,,,,84.11241639999207,84.11241639999207,84.11241639999207,84.11241639999207,84.11241639999207,return,0.37737930001458153,0,1,0,0,0.08,-0.32,return,0.30159750004531816,0,1,0.08,-0.32,,,,,,,,,,,,,,,,,,,,,,,,,,,,,A,train_x,x_increasing_steps,top_left,2024-10-29_19h03.39.056,HideSeek_v1,2022.2.5,59.94420393580163,
,2,4,2,4,0,0,16,,train_dim1_1,2,30,2,0,2,0,,,,,,,,,0,0,0,0,0,1,1,1,0,0,0,0,,,,,,,,,,,,,stimuli/alien_stimuli/16.png,,,,,,,,,,,,,,,,,,,,,,,,,,,,,stimuli/alien_stimuli/36.png,36,2,3,,,,,,,30,,,,,,,,88.54333810001845,88.54333810001845,88.54333810001845,88.54333810001845,88.54333810001845,return,1.7614663999993354,1,0,0,1,0,-0.08,return,1.6457472000038251,0,1,0,-0.08,86.97653519996675,88.54333810001845,0.16,-0.32,0.0,0.16,-0.32,0.16,0.08,0.16,-0.32,86.04704719997244,86.04704719997244,86.04704719997244,86.04704719997244,86.04704719997244,86.04704719997244,86.04704719997244,86.04704719997244,86.02593210001942,1.0187985000084154,return,0.9045551000162959,,,,,,A,train_x,x_increasing_steps,top_left,2024-10-29_19h03.39.056,HideSeek_v1,2022.2.5,59.94420393580163,
,4,4,5,4,1,0,26,,train_dim1_1,3,30,2,0,2,0,,,,,,,,,0,0,0,0,0,2,2,2,0,0,0,0,,,,,,,,,,,,,stimuli/alien_stimuli/26.png,,,,,,,,,,,,,,,,,,,,,,,,,,,,,stimuli/alien_stimuli/16.png,16,2,4,,,,,,,30,,,,,,,,94.10971869999776,94.10971869999776,94.10971869999776,94.10971869999776,94.10971869999776,right,0.9415336000383832,1,0,0,99,0.24,-0.08,right,0.8384561000275426,,,,,92.5432398999692,94.10971869999776,0,-0.08,0.0,0.0,-0.08,0,0.0,0,-0.08,91.96190130000468,91.96190130000468,91.96190130000468,91.96190130000468,91.96190130000468,91.96190130000468,91.96190130000468,91.96190130000468,91.84319626000942,0.7863272000104189,return,0.5493367000017315,,,,,,A,train_x,x_increasing_steps,top_left,2024-10-29_19h03.39.056,HideSeek_v1,2022.2.5,59.94420393580163,
,4,4,5,4,1,0,26,,train_dim1_1,3,30,2,0,2,0,,,,,,,,,0,0,0,0,0,2,2,2,1,0,1,0,,,,,,,,,,,,,,,,,,,,,,,,,,,,,,,,,,,,,,,,,,,,,,,,,,,,30,,,,,,,,95.02947239996865,95.02947239996865,95.02947239996865,95.02947239996865,95.02947239996865,return,0.293729999975767,2,0,0,1,0.24,-0.08,return,0.22060330002568662,0,2,0.24,-0.08,,,,,,,,,,,,,,,,,,,,,,,,,,,,,A,train_x,x_increasing_steps,top_left,2024-10-29_19h03.39.056,HideSeek_v1,2022.2.5,59.94420393580163,
,2,3,5,3,3,0,46,,train_dim1_1,4,30,2,0,2,0,,,,,,,,,0,0,0,0,0,3,3,3,0,0,0,0,,,,,,,,,,,,,stimuli/alien_stimuli/46.png,,,,,,,,,,,,,,,,,,,,,,,,,,,,,stimuli/alien_stimuli/26.png,26,4,5,,,,,,,30,,,,,,,,99.65955049998593,99.65955049998593,99.65955049998593,99.65955049998593,99.65955049998593,right,3.8083155000349507,2,0,0,99,0.08,-0.16,right,3.708580600039568,,,,,98.09379780001473,99.65955049998593,0.24,-0.08,0.0,0.08,-0.08,0.24,0.2,0.24,-0.08,96.92660720000276,96.92660720000276,96.92660720000276,96.92660720000276,96.92660720000276,96.92660720000276,96.92660720000276,96.92660720000276,96.85912590002408,1.3049392999964766,return,1.1372854000073858,,,,,,A,train_x,x_increasing_steps,top_left,2024-10-29_19h03.39.056,HideSeek_v1,2022.2.5,59.94420393580163,
,2,3,5,3,3,0,46,,train_dim1_1,4,30,2,0,2,0,,,,,,,,,0,0,0,0,0,3,3,3,1,0,1,0,,,,,,,,,,,,,,,,,,,,,,,,,,,,,,,,,,,,,,,,,,,,,,,,,,,,30,,,,,,,,103.4435498000239,103.4435498000239,103.4435498000239,103.4435498000239,103.4435498000239,right,0.5277334999991581,2,0,0,99,0.16,-0.16,right,0.46459550003055483,,,,,,,,,,,,,,,,,,,,,,,,,,,,,,,,,A,train_x,x_increasing_steps,top_left,2024-10-29_19h03.39.056,HideSeek_v1,2022.2.5,59.94420393580163,
,2,3,5,3,3,0,46,,train_dim1_1,4,30,2,0,2,0,,,,,,,,,0,0,0,0,0,3,3,3,2,0,2,0,,,,,,,,,,,,,,,,,,,,,,,,,,,,,,,,,,,,,,,,,,,,,,,,,,,,30,,,,,,,,103.97640270000556,103.97640270000556,103.97640270000556,103.97640270000556,103.97640270000556,right,0.877445499994792,2,0,0,99,0.24,-0.16,right,0.802629399986472,,,,,,,,,,,,,,,,,,,,,,,,,,,,,,,,,A,train_x,x_increasing_steps,top_left,2024-10-29_19h03.39.056,HideSeek_v1,2022.2.5,59.94420393580163,
,2,3,5,3,3,0,46,,train_dim1_1,4,30,2,0,2,0,,,,,,,,,0,0,0,0,0,3,3,3,3,0,3,0,,,,,,,,,,,,,,,,,,,,,,,,,,,,,,,,,,,,,,,,,,,,,,,,,,,,30,,,,,,,,104.86022959998809,104.86022959998809,104.86022959998809,104.86022959998809,104.86022959998809,right,0.9941304000094533,2,0,0,99,0.32,-0.16,right,0.9290420000324957,,,,,,,,,,,,,,,,,,,,,,,,,,,,,,,,,A,train_x,x_increasing_steps,top_left,2024-10-29_19h03.39.056,HideSeek_v1,2022.2.5,59.94420393580163,
,2,3,5,3,3,0,46,,train_dim1_1,4,30,2,0,2,0,,,,,,,,,0,0,0,0,0,3,3,3,4,0,4,0,,,,,,,,,,,,,,,,,,,,,,,,,,,,,,,,,,,,,,,,,,,,,,,,,,,,30,,,,,,,,105.86043900001096,105.86043900001096,105.86043900001096,105.86043900001096,105.86043900001096,return,0.8607537999632768,2,1,0,0,0.32,-0.16,return,0.7941764999995939,0,6,0.32,-0.16,,,,,,,,,,,,,,,,,,,,,,,,,,,,,A,train_x,x_increasing_steps,top_left,2024-10-29_19h03.39.056,HideSeek_v1,2022.2.5,59.94420393580163,
,0,2,5,2,5,0,66,,train_dim1_1,5,30,2,0,2,0,,,,,,,,,0,0,0,0,0,4,4,4,0,0,0,0,,,,,,,,,,,,,stimuli/alien_stimuli/66.png,,,,,,,,,,,,,,,,,,,,,,,,,,,,,stimuli/alien_stimuli/46.png,46,2,6,,,,,,,30,,,,,,,,110.79518750001444,110.79518750001444,110.79518750001444,110.79518750001444,110.79518750001444,right,1.1071529000182636,2,1,0,99,-0.08,-0.24,right,1.006123099999968,,,,,109.22645379998721,110.79518750001444,0.24,-0.16,0.0,0.24,-0.16,0.24,0.12,0.24,-0.16,108.30977940000594,108.30977940000594,108.30977940000594,108.30977940000594,108.30977940000594,108.30977940000594,108.30977940000594,108.30977940000594,108.24274953999556,1.0348631999804638,return,0.8863128999946639,,,,,,A,train_x,x_increasing_steps,top_left,2024-10-29_19h03.39.056,HideSeek_v1,2022.2.5,59.94420393580163,
,0,2,5,2,5,0,66,,train_dim1_1,5,30,2,0,2,0,,,,,,,,,0,0,0,0,0,4,4,4,1,0,1,0,,,,,,,,,,,,,,,,,,,,,,,,,,,,,,,,,,,,,,,,,,,,,,,,,,,,30,,,,,,,,111.87931559997378,111.87931559997378,111.87931559997378,111.87931559997378,111.87931559997378,right,0.2773864999762736,2,1,0,99,0.0,-0.24,right,0.20506919996114448,,,,,,,,,,,,,,,,,,,,,,,,,,,,,,,,,A,train_x,x_increasing_steps,top_left,2024-10-29_19h03.39.056,HideSeek_v1,2022.2.5,59.94420393580163,
,0,2,5,2,5,0,66,,train_dim1_1,5,30,2,0,2,0,,,,,,,,,0,0,0,0,0,4,4,4,2,0,2,0,,,,,,,,,,,,,,,,,,,,,,,,,,,,,,,,,,,,,,,,,,,,,,,,,,,,30,,,,,,,,112.16202230000636,112.16202230000636,112.16202230000636,112.16202230000636,112.16202230000636,right,0.2775479999836534,2,1,0,99,0.08,-0.24,right,0.20831890002591535,,,,,,,,,,,,,,,,,,,,,,,,,,,,,,,,,A,train_x,x_increasing_steps,top_left,2024-10-29_19h03.39.056,HideSeek_v1,2022.2.5,59.94420393580163,
,0,2,5,2,5,0,66,,train_dim1_1,5,30,2,0,2,0,,,,,,,,,0,0,0,0,0,4,4,4,3,0,3,0,,,,,,,,,,,,,,,,,,,,,,,,,,,,,,,,,,,,,,,,,,,,,,,,,,,,30,,,,,,,,112.44668509997427,112.44668509997427,112.44668509997427,112.44668509997427,112.44668509997427,right,0.29418020002776757,2,1,0,99,0.16,-0.24,right,0.228982700034976,,,,,,,,,,,,,,,,,,,,,,,,,,,,,,,,,A,train_x,x_increasing_steps,top_left,2024-10-29_19h03.39.056,HideSeek_v1,2022.2.5,59.94420393580163,
,0,2,5,2,5,0,66,,train_dim1_1,5,30,2,0,2,0,,,,,,,,,0,0,0,0,0,4,4,4,4,0,4,0,,,,,,,,,,,,,,,,,,,,,,,,,,,,,,,,,,,,,,,,,,,,,,,,,,,,30,,,,,,,,112.75951629999327,112.75951629999327,112.75951629999327,112.75951629999327,112.75951629999327,right,0.3097501000156626,2,1,0,99,0.24,-0.24,right,0.2210095999762416,,,,,,,,,,,,,,,,,,,,,,,,,,,,,,,,,A,train_x,x_increasing_steps,top_left,2024-10-29_19h03.39.056,HideSeek_v1,2022.2.5,59.94420393580163,
,0,2,5,2,5,0,66,,train_dim1_1,5,30,2,0,2,0,,,,,,,,,0,0,0,0,0,4,4,4,5,0,5,0,,,,,,,,,,,,,,,,,,,,,,,,,,,,,,,,,,,,,,,,,,,,,,,,,,,,30,,,,,,,,113.06100360001437,113.06100360001437,113.06100360001437,113.06100360001437,113.06100360001437,return,0.344724899972789,3,0,0,1,0.24,-0.24,return,0.26761040004203096,0,11,0.24,-0.24,,,,,,,,,,,,,,,,,,,,,,,,,,,,,A,train_x,x_increasing_steps,top_left,2024-10-29_19h03.39.056,HideSeek_v1,2022.2.5,59.94420393580163,
,0,0,1,0,1,0,26,,train_dim1_1,6,30,2,0,2,0,,,,,,,,,0,0,0,0,0,5,5,5,0,0,0,0,,,,,,,,,,,,,stimuli/alien_stimuli/26.png,,,,,,,,,,,,,,,,,,,,,,,,,,,,,stimuli/alien_stimuli/66.png,66,0,7,,,,,,,30,,,,,,,,117.04324440000346,117.04324440000346,117.04324440000346,117.04324440000346,117.04324440000346,right,0.4583466000040062,3,0,0,99,-0.08,-0.4,right,0.3523352000047453,,,,,115.47665059997234,117.04324440000346,0.24,-0.24,0.0,0.4,-0.24,0.24,0.039999999999999994,0.24,-0.24,114.99275550001767,114.99275550001767,114.99275550001767,114.99275550001767,114.99275550001767,114.99275550001767,114.99275550001767,114.99275550001767,114.94243390002521,0.6016015000059269,return,0.45500100002391264,,,,,,A,train_x,x_increasing_steps,top_left,2024-10-29_19h03.39.056,HideSeek_v1,2022.2.5,59.94420393580163,
,0,0,1,0,1,0,26,,train_dim1_1,6,30,2,0,2,0,,,,,,,,,0,0,0,0,0,5,5,5,1,0,1,0,,,,,,,,,,,,,,,,,,,,,,,,,,,,,,,,,,,,,,,,,,,,,,,,,,,,30,,,,,,,,117.47719519998645,117.47719519998645,117.47719519998645,117.47719519998645,117.47719519998645,return,1.1449943999759853,4,0,0,1,-0.08,-0.4,return,1.0823184000328183,0,12,-0.08,-0.4,,,,,,,,,,,,,,,,,,,,,,,,,,,,,A,train_x,x_increasing_steps,top_left,2024-10-29_19h03.39.056,HideSeek_v1,2022.2.5,59.94420393580163,
,3,0,8,0,5,0,66,,train_dim1_1,7,30,2,0,2,0,,,,,,,,,0,0,0,0,0,6,6,6,0,0,0,0,,,,,,,,,,,,,stimuli/alien_stimuli/66.png,,,,,,,,,,,,,,,,,,,,,,,,,,,,,stimuli/alien_stimuli/26.png,26,0,8,,,,,,,30,,,,,,,,122.35966780001763,122.35966780001763,122.35966780001763,122.35966780001763,122.35966780001763,right,0.6406600000336766,4,0,0,99,0.16,-0.4,right,0.5359082999639213,,,,,120.79282319999766,122.35966780001763,-0.08,-0.4,0.0,0.08,-0.4,-0.08,-0.12,-0.08,-0.4,120.22627149999607,120.22627149999607,120.22627149999607,120.22627149999607,120.22627149999607,120.22627149999607,120.22627149999607,120.22627149999607,120.15932440001052,0.7020948000135832,return,0.5443735999870114,,,,,,A,train_x,x_increasing_steps,top_left,2024-10-29_19h03.39.056,HideSeek_v1,2022.2.5,59.94420393580163,
,3,0,8,0,5,0,66,,train_dim1_1,7,30,2,0,2,0,,,,,,,,,0,0,0,0,0,6,6,6,1,0,1,0,,,,,,,,,,,,,,,,,,,,,,,,,,,,,,,,,,,,,,,,,,,,,,,,,,,,30,,,,,,,,122.97823090001475,122.97823090001475,122.97823090001475,122.97823090001475,122.97823090001475,right,0.2439184000249952,4,0,0,99,0.24,-0.4,right,0.1663387999869883,,,,,,,,,,,,,,,,,,,,,,,,,,,,,,,,,A,train_x,x_increasing_steps,top_left,2024-10-29_19h03.39.056,HideSeek_v1,2022.2.5,59.94420393580163,
,3,0,8,0,5,0,66,,train_dim1_1,7,30,2,0,2,0,,,,,,,,,0,0,0,0,0,6,6,6,2,0,2,0,,,,,,,,,,,,,,,,,,,,,,,,,,,,,,,,,,,,,,,,,,,,,,,,,,,,30,,,,,,,,123.24343859998044,123.24343859998044,123.24343859998044,123.24343859998044,123.24343859998044,right,0.24371800001244992,4,0,0,99,0.32,-0.4,right,0.16101989999879152,,,,,,,,,,,,,,,,,,,,,,,,,,,,,,,,,A,train_x,x_increasing_steps,top_left,2024-10-29_19h03.39.056,HideSeek_v1,2022.2.5,59.94420393580163,
,3,0,8,0,5,0,66,,train_dim1_1,7,30,2,0,2,0,,,,,,,,,0,0,0,0,0,6,6,6,3,0,3,0,,,,,,,,,,,,,,,,,,,,,,,,,,,,,,,,,,,,,,,,,,,,,,,,,,,,30,,,,,,,,123.50914570002351,123.50914570002351,123.50914570002351,123.50914570002351,123.50914570002351,right,0.26120710000395775,4,0,0,99,0.4,-0.4,right,0.15991710004163906,,,,,,,,,,,,,,,,,,,,,,,,,,,,,,,,,A,train_x,x_increasing_steps,top_left,2024-10-29_19h03.39.056,HideSeek_v1,2022.2.5,59.94420393580163,
,3,0,8,0,5,0,66,,train_dim1_1,7,30,2,0,2,0,,,,,,,,,0,0,0,0,0,6,6,6,4,0,4,0,,,,,,,,,,,,,,,,,,,,,,,,,,,,,,,,,,,,,,,,,,,,,,,,,,,,30,,,,,,,,123.75935309997294,123.75935309997294,123.75935309997294,123.75935309997294,123.75935309997294,right,0.24448049999773502,4,0,0,99,0.48000000000000004,-0.4,right,0.16689819999737665,,,,,,,,,,,,,,,,,,,,,,,,,,,,,,,,,A,train_x,x_increasing_steps,top_left,2024-10-29_19h03.39.056,HideSeek_v1,2022.2.5,59.94420393580163,
,3,0,8,0,5,0,66,,train_dim1_1,7,30,2,0,2,0,,,,,,,,,0,0,0,0,0,6,6,6,5,0,5,0,,,,,,,,,,,,,,,,,,,,,,,,,,,,,,,,,,,,,,,,,,,,,,,,,,,,30,,,,,,,,123.99821930000326,123.99821930000326,123.99821930000326,123.99821930000326,123.99821930000326,return,0.3110521999769844,5,0,0,1,0.48000000000000004,-0.4,return,0.23602900002151728,0,17,0.48000000000000004,-0.4,,,,,,,,,,,,,,,,,,,,,,,,,,,,,A,train_x,x_increasing_steps,top_left,2024-10-29_19h03.39.056,HideSeek_v1,2022.2.5,59.94420393580163,
,0,4,2,4,2,0,36,,train_dim1_1,8,30,2,0,2,0,,,,,,,,,0,0,0,0,0,7,7,7,0,0,0,0,,,,,,,,,,,,,stimuli/alien_stimuli/36.png,,,,,,,,,,,,,,,,,,,,,,,,,,,,,stimuli/alien_stimuli/66.png,66,3,9,,,,,,,30,,,,,,,,127.94279669999378,127.94279669999378,127.94279669999378,127.94279669999378,127.94279669999378,right,0.7586394000099972,5,0,0,99,-0.08,-0.08,right,0.6655976999900304,,,,,126.37591299996711,127.94279669999378,0.48,-0.4,0.0,0.4,-0.4,0.48,0.27999999999999997,0.48,-0.4,125.90966930001741,125.90966930001741,125.90966930001741,125.90966930001741,125.90966930001741,125.90966930001741,125.90966930001741,125.90966930001741,125.84233940002741,0.6020908000064082,return,0.4366176999756135,,,,,,A,train_x,x_increasing_steps,top_left,2024-10-29_19h03.39.056,HideSeek_v1,2022.2.5,59.94420393580163,
,0,4,2,4,2,0,36,,train_dim1_1,8,30,2,0,2,0,,,,,,,,,0,0,0,0,0,7,7,7,1,0,1,0,,,,,,,,,,,,,,,,,,,,,,,,,,,,,,,,,,,,,,,,,,,,,,,,,,,,30,,,,,,,,128.67612830002327,128.67612830002327,128.67612830002327,128.67612830002327,128.67612830002327,right,2.495097999984864,5,0,0,99,0.0,-0.08,right,2.4280251000309363,,,,,,,,,,,,,,,,,,,,,,,,,,,,,,,,,A,train_x,x_increasing_steps,top_left,2024-10-29_19h03.39.056,HideSeek_v1,2022.2.5,59.94420393580163,
,0,4,2,4,2,0,36,,train_dim1_1,8,30,2,0,2,0,,,,,,,,,0,0,0,0,0,7,7,7,2,0,2,0,,,,,,,,,,,,,,,,,,,,,,,,,,,,,,,,,,,,,,,,,,,,,,,,,,,,30,,,,,,,,131.17603470000904,131.17603470000904,131.17603470000904,131.17603470000904,131.17603470000904,right,0.6438737999997102,5,0,0,99,0.08,-0.08,right,0.5733196999644861,,,,,,,,,,,,,,,,,,,,,,,,,,,,,,,,,A,train_x,x_increasing_steps,top_left,2024-10-29_19h03.39.056,HideSeek_v1,2022.2.5,59.94420393580163,
,0,4,2,4,2,0,36,,train_dim1_1,8,30,2,0,2,0,,,,,,,,,0,0,0,0,0,7,7,7,3,0,3,0,,,,,,,,,,,,,,,,,,,,,,,,,,,,,,,,,,,,,,,,,,,,,,,,,,,,30,,,,,,,,131.825998299988,131.825998299988,131.825998299988,131.825998299988,131.825998299988,right,0.42841480002971366,5,0,0,99,0.16,-0.08,right,0.3574123999569565,,,,,,,,,,,,,,,,,,,,,,,,,,,,,,,,,A,train_x,x_increasing_steps,top_left,2024-10-29_19h03.39.056,HideSeek_v1,2022.2.5,59.94420393580163,
,0,4,2,4,2,0,36,,train_dim1_1,8,30,2,0,2,0,,,,,,,,,0,0,0,0,0,7,7,7,4,0,4,0,,,,,,,,,,,,,,,,,,,,,,,,,,,,,,,,,,,,,,,,,,,,,,,,,,,,30,,,,,,,,132.260536900023,132.260536900023,132.260536900023,132.260536900023,132.260536900023,return,0.2938622999936342,5,0,0,0,0.16,-0.08,return,0.22269399999640882,0,21,0.16,-0.08,,,,,,,,,,,,,,,,,,,,,,,,,,,,,A,train_x,x_increasing_steps,top_left,2024-10-29_19h03.39.056,HideSeek_v1,2022.2.5,59.94420393580163,
,1,0,4,0,3,0,46,,train_dim1_1,9,30,2,0,2,0,,,,,,,,,0,0,0,0,0,8,8,8,0,0,0,0,,,,,,,,,,,,,stimuli/alien_stimuli/46.png,,,,,,,,,,,,,,,,,,,,,,,,,,,,,stimuli/alien_stimuli/36.png,36,0,10,,,,,,,30,,,,,,,,136.4924922999926,136.4924922999926,136.4924922999926,136.4924922999926,136.4924922999926,right,0.9419712000526488,5,0,0,99,0.0,-0.4,right,0.8458437999943271,,,,,134.92620669997996,136.4924922999926,0,-0.08,0.0,0.16,-0.08,0,-0.08,0,-0.08,134.1431502000196,134.1431502000196,134.1431502000196,134.1431502000196,134.1431502000196,134.1431502000196,134.1431502000196,134.1431502000196,134.09234129998367,0.9021097000222653,return,0.7627169000334106,,,,,,A,train_x,x_increasing_steps,top_left,2024-10-29_19h03.39.056,HideSeek_v1,2022.2.5,59.94420393580163,
,1,0,4,0,3,0,46,,train_dim1_1,9,30,2,0,2,0,,,,,,,,,0,0,0,0,0,8,8,8,1,0,1,0,,,,,,,,,,,,,,,,,,,,,,,,,,,,,,,,,,,,,,,,,,,,,,,,,,,,30,,,,,,,,137.40969010000117,137.40969010000117,137.40969010000117,137.40969010000117,137.40969010000117,right,0.3769476999877952,5,0,0,99,0.08,-0.4,right,0.3120567000005394,,,,,,,,,,,,,,,,,,,,,,,,,,,,,,,,,A,train_x,x_increasing_steps,top_left,2024-10-29_19h03.39.056,HideSeek_v1,2022.2.5,59.94420393580163,
,1,0,4,0,3,0,46,,train_dim1_1,9,30,2,0,2,0,,,,,,,,,0,0,0,0,0,8,8,8,2,0,2,0,,,,,,,,,,,,,,,,,,,,,,,,,,,,,,,,,,,,,,,,,,,,,,,,,,,,30,,,,,,,,137.79322140000295,137.79322140000295,137.79322140000295,137.79322140000295,137.79322140000295,right,0.577294799964875,5,0,0,99,0.16,-0.4,right,0.509369199979119,,,,,,,,,,,,,,,,,,,,,,,,,,,,,,,,,A,train_x,x_increasing_steps,top_left,2024-10-29_19h03.39.056,HideSeek_v1,2022.2.5,59.94420393580163,
,1,0,4,0,3,0,46,,train_dim1_1,9,30,2,0,2,0,,,,,,,,,0,0,0,0,0,8,8,8,3,0,3,0,,,,,,,,,,,,,,,,,,,,,,,,,,,,,,,,,,,,,,,,,,,,,,,,,,,,30,,,,,,,,138.3764005000121,138.3764005000121,138.3764005000121,138.3764005000121,138.3764005000121,return,2.4442740000085905,6,0,0,1,0.16,-0.4,return,2.367884300008882,0,24,0.16,-0.4,,,,,,,,,,,,,,,,,,,,,,,,,,,,,A,train_x,x_increasing_steps,top_left,2024-10-29_19h03.39.056,HideSeek_v1,2022.2.5,59.94420393580163,
,0,3,0,3,0,0,16,,train_dim1_1,10,30,2,0,2,0,,,,,,,,,0,0,0,0,0,9,9,9,0,0,0,0,,,,,,,,,,,,,stimuli/alien_stimuli/16.png,,,,,,,,,,,,,,,,,,,,,,,,,,,,,stimuli/alien_stimuli/46.png,46,1,11,,,,,,,30,,,,,,,,144.4758841000148,144.4758841000148,144.4758841000148,144.4758841000148,144.4758841000148,right,0.5914541999809444,6,0,0,99,-0.08,-0.16,right,0.4863160999957472,,,,,142.9092093000072,144.4758841000148,0.16,-0.4,0.0,0.24,-0.4,0.16,0.04,0.16,-0.4,142.4093462000019,142.4093462000019,142.4093462000019,142.4093462000019,142.4093462000019,142.4093462000019,142.4093462000019,142.4093462000019,142.3587662000209,0.6185614999849349,return,0.4729417000198737,,,,,,A,train_x,x_increasing_steps,top_left,2024-10-29_19h03.39.056,HideSeek_v1,2022.2.5,59.94420393580163,
,0,3,0,3,0,0,16,,train_dim1_1,10,30,2,0,2,0,,,,,,,,,0,0,0,0,0,9,9,9,1,0,1,0,,,,,,,,,,,,,,,,,,,,,,,,,,,,,,,,,,,,,,,,,,,,,,,,,,,,30,,,,,,,,145.0464406000101,145.0464406000101,145.0464406000101,145.0464406000101,145.0464406000101,left,0.5773806000361219,6,0,0,99,-0.16,-0.16,left,0.5044730000081472,,,,,,,,,,,,,,,,,,,,,,,,,,,,,,,,,A,train_x,x_increasing_steps,top_left,2024-10-29_19h03.39.056,HideSeek_v1,2022.2.5,59.94420393580163,
,0,3,0,3,0,0,16,,train_dim1_1,10,30,2,0,2,0,,,,,,,,,0,0,0,0,0,9,9,9,2,0,2,0,,,,,,,,,,,,,,,,,,,,,,,,,,,,,,,,,,,,,,,,,,,,,,,,,,,,30,,,,,,,,145.62942209996982,145.62942209996982,145.62942209996982,145.62942209996982,145.62942209996982,return,0.8109352000174113,7,0,0,1,-0.16,-0.16,return,0.7323062000214122,0,24,-0.16,-0.16,,,,,,,,,,,,,,,,,,,,,,,,,,,,,A,train_x,x_increasing_steps,top_left,2024-10-29_19h03.39.056,HideSeek_v1,2022.2.5,59.94420393580163,
,2,2,4,2,2,0,36,,train_dim1_1,11,30,2,0,2,0,,,,,,,,,0,0,0,0,0,10,10,10,0,0,0,0,,,,,,,,,,,,,stimuli/alien_stimuli/36.png,,,,,,,,,,,,,,,,,,,,,,,,,,,,,stimuli/alien_stimuli/16.png,16,0,12,,,,,,,30,,,,,,,,149.8763252000208,149.8763252000208,149.8763252000208,149.8763252000208,149.8763252000208,right,1.3753560000332072,7,0,0,99,0.08,-0.24,right,1.2676802000496536,,,,,148.30924269999377,149.8763252000208,-0.16,-0.16,0.0,0.0,-0.16,-0.16,-0.16,-0.16,-0.16,148.02637669997057,148.02637669997057,148.02637669997057,148.02637669997057,148.02637669997057,148.02637669997057,148.02637669997057,148.02637669997057,147.97561359999236,0.401656300004106,return,0.2507383999763988,,,,,,A,train_x,x_increasing_steps,top_left,2024-10-29_19h03.39.056,HideSeek_v1,2022.2.5,59.94420393580163,
,2,2,4,2,2,0,36,,train_dim1_1,11,30,2,0,2,0,,,,,,,,,0,0,0,0,0,10,10,10,1,0,1,0,,,,,,,,,,,,,,,,,,,,,,,,,,,,,,,,,,,,,,,,,,,,,,,,,,,,30,,,,,,,,151.24245520000113,151.24245520000113,151.24245520000113,151.24245520000113,151.24245520000113,right,0.8105631999787875,7,0,0,99,0.16,-0.24,right,0.7217995999963023,,,,,,,,,,,,,,,,,,,,,,,,,,,,,,,,,A,train_x,x_increasing_steps,top_left,2024-10-29_19h03.39.056,HideSeek_v1,2022.2.5,59.94420393580163,
,2,2,4,2,2,0,36,,train_dim1_1,11,30,2,0,2,0,,,,,,,,,0,0,0,0,0,10,10,10,2,0,2,0,,,,,,,,,,,,,,,,,,,,,,,,,,,,,,,,,,,,,,,,,,,,,,,,,,,,30,,,,,,,,152.04298329999438,152.04298329999438,152.04298329999438,152.04298329999438,152.04298329999438,return,0.4110190999926999,8,0,0,1,0.16,-0.24,return,0.3507065000012517,0,26,0.16,-0.24,,,,,,,,,,,,,,,,,,,,,,,,,,,,,A,train_x,x_increasing_steps,top_left,2024-10-29_19h03.39.056,HideSeek_v1,2022.2.5,59.94420393580163,
,0,0,1,0,1,0,26,,train_dim1_1,12,30,2,0,2,0,,,,,,,,,0,0,0,0,0,11,11,11,0,0,0,0,,,,,,,,,,,,,stimuli/alien_stimuli/26.png,,,,,,,,,,,,,,,,,,,,,,,,,,,,,stimuli/alien_stimuli/36.png,36,2,13,,,,,,,30,,,,,,,,156.16023340000538,156.16023340000538,156.16023340000538,156.16023340000538,156.16023340000538,right,1.8918484000023454,8,0,0,99,-0.08,-0.4,right,1.798397600010503,,,,,154.59231099998578,156.16023340000538,0.16,-0.24,0.0,0.16,-0.24,0.16,0.08,0.16,-0.24,154.04222649999429,154.04222649999429,154.04222649999429,154.04222649999429,154.04222649999429,154.04222649999429,154.04222649999429,154.04222649999429,153.97557694002754,0.6679653999744914,return,0.528475700004492,,,,,,A,train_x,x_increasing_steps,top_left,2024-10-29_19h03.39.056,HideSeek_v1,2022.2.5,59.94420393580163,
,0,0,1,0,1,0,26,,train_dim1_1,12,30,2,0,2,0,,,,,,,,,0,0,0,0,0,11,11,11,1,0,1,0,,,,,,,,,,,,,,,,,,,,,,,,,,,,,,,,,,,,,,,,,,,,,,,,,,,,30,,,,,,,,158.02939979999792,158.02939979999792,158.02939979999792,158.02939979999792,158.02939979999792,return,0.7106204999727197,9,0,0,1,-0.08,-0.4,return,0.6335818000370637,0,27,-0.08,-0.4,,,,,,,,,,,,,,,,,,,,,,,,,,,,,A,train_x,x_increasing_steps,top_left,2024-10-29_19h03.39.056,HideSeek_v1,2022.2.5,59.94420393580163,
,0,4,3,4,3,0,46,,train_dim1_1,13,30,2,0,2,0,,,,,,,,,0,0,0,0,0,12,12,12,0,0,0,0,,,,,,,,,,,,,stimuli/alien_stimuli/46.png,,,,,,,,,,,,,,,,,,,,,,,,,,,,,stimuli/alien_stimuli/26.png,26,0,14,,,,,,,30,,,,,,,,165.27594049996696,165.27594049996696,165.27594049996696,165.27594049996696,165.27594049996696,right,1.0764115000492893,9,0,0,99,-0.08,-0.08,right,0.9563959999941289,,,,,163.70902979996754,165.27594049996696,-0.08,-0.4,0.0,0.08,-0.4,-0.08,-0.12,-0.08,-0.4,160.3625539999921,160.3625539999921,160.3625539999921,160.3625539999921,160.3625539999921,160.3625539999921,160.3625539999921,160.3625539999921,160.29489386002533,3.4989955999772064,return,3.3211485000210814,,,,,,A,train_x,x_increasing_steps,top_left,2024-10-29_19h03.39.056,HideSeek_v1,2022.2.5,59.94420393580163,
,0,4,3,4,3,0,46,,train_dim1_1,13,30,2,0,2,0,,,,,,,,,0,0,0,0,0,12,12,12,1,0,1,0,,,,,,,,,,,,,,,,,,,,,,,,,,,,,,,,,,,,,,,,,,,,,,,,,,,,30,,,,,,,,166.3622963000089,166.3622963000089,166.3622963000089,166.3622963000089,166.3622963000089,right,0.35673890000907704,9,0,0,99,0.0,-0.08,right,0.258803499978967,,,,,,,,,,,,,,,,,,,,,,,,,,,,,,,,,A,train_x,x_increasing_steps,top_left,2024-10-29_19h03.39.056,HideSeek_v1,2022.2.5,59.94420393580163,
,0,4,3,4,3,0,46,,train_dim1_1,13,30,2,0,2,0,,,,,,,,,0,0,0,0,0,12,12,12,2,0,2,0,,,,,,,,,,,,,,,,,,,,,,,,,,,,,,,,,,,,,,,,,,,,,,,,,,,,30,,,,,,,,166.69470469997032,166.69470469997032,166.69470469997032,166.69470469997032,166.69470469997032,right,0.3774260000209324,9,0,0,99,0.08,-0.08,right,0.30861690000165254,,,,,,,,,,,,,,,,,,,,,,,,,,,,,,,,,A,train_x,x_increasing_steps,top_left,2024-10-29_19h03.39.056,HideSeek_v1,2022.2.5,59.94420393580163,
,0,4,3,4,3,0,46,,train_dim1_1,13,30,2,0,2,0,,,,,,,,,0,0,0,0,0,12,12,12,3,0,3,0,,,,,,,,,,,,,,,,,,,,,,,,,,,,,,,,,,,,,,,,,,,,,,,,,,,,30,,,,,,,,167.07697689998895,167.07697689998895,167.07697689998895,167.07697689998895,167.07697689998895,return,2.227628300024662,10,0,0,1,0.08,-0.08,return,2.1525323999812827,0,30,0.08,-0.08,,,,,,,,,,,,,,,,,,,,,,,,,,,,,A,train_x,x_increasing_steps,top_left,2024-10-29_19h03.39.056,HideSeek_v1,2022.2.5,59.94420393580163,
,4,3,4,3,0,0,16,,train_dim1_1,14,30,2,0,2,0,,,,,,,,,0,0,0,0,0,13,13,13,0,0,0,0,,,,,,,,,,,,,stimuli/alien_stimuli/16.png,,,,,,,,,,,,,,,,,,,,,,,,,,,,,stimuli/alien_stimuli/46.png,46,0,15,,,,,,,30,,,,,,,,173.0090065000113,173.0090065000113,173.0090065000113,173.0090065000113,173.0090065000113,return,0.9242314000148326,11,0,0,1,0.16,-0.16,return,0.8234839999931864,0,30,0.16,-0.16,171.44270640000468,173.0090065000113,0.08,-0.08,0.0,0.24,-0.08,0.08,-0.04,0.08,-0.08,170.9094894999871,170.9094894999871,170.9094894999871,170.9094894999871,170.9094894999871,170.9094894999871,170.9094894999871,170.9094894999871,170.8422450000071,0.6692600999958813,return,0.5171876000240445,,,,,,A,train_x,x_increasing_steps,top_left,2024-10-29_19h03.39.056,HideSeek_v1,2022.2.5,59.94420393580163,
,4,2,9,2,5,0,66,,train_dim1_1,15,30,2,0,2,0,,,,,,,,,0,0,0,0,0,14,14,14,0,0,0,0,,,,,,,,,,,,,stimuli/alien_stimuli/66.png,,,,,,,,,,,,,,,,,,,,,,,,,,,,,stimuli/alien_stimuli/16.png,16,4,16,,,,,,,30,,,,,,,,177.34070800000336,177.34070800000336,177.34070800000336,177.34070800000336,177.34070800000336,right,0.8409721000352874,11,0,0,99,0.24,-0.24,right,0.7379322999622673,,,,,175.7754794000066,177.34070800000336,0.16,-0.16,0.0,0.0,-0.16,0.16,0.16,0.16,-0.16,175.48294259997783,175.48294259997783,175.48294259997783,175.48294259997783,175.48294259997783,175.48294259997783,175.48294259997783,175.48294259997783,175.4424026000197,0.4015207999618724,return,0.27204309997614473,,,,,,A,train_x,x_increasing_steps,top_left,2024-10-29_19h03.39.056,HideSeek_v1,2022.2.5,59.94420393580163,
,4,2,9,2,5,0,66,,train_dim1_1,15,30,2,0,2,0,,,,,,,,,0,0,0,0,0,14,14,14,1,0,1,0,,,,,,,,,,,,,,,,,,,,,,,,,,,,,,,,,,,,,,,,,,,,,,,,,,,,30,,,,,,,,178.16201670002192,178.16201670002192,178.16201670002192,178.16201670002192,178.16201670002192,right,0.26056600001174957,11,0,0,99,0.32,-0.24,right,0.19205070001771674,,,,,,,,,,,,,,,,,,,,,,,,,,,,,,,,,A,train_x,x_increasing_steps,top_left,2024-10-29_19h03.39.056,HideSeek_v1,2022.2.5,59.94420393580163,
,4,2,9,2,5,0,66,,train_dim1_1,15,30,2,0,2,0,,,,,,,,,0,0,0,0,0,14,14,14,2,0,2,0,,,,,,,,,,,,,,,,,,,,,,,,,,,,,,,,,,,,,,,,,,,,,,,,,,,,30,,,,,,,,178.42777120001847,178.42777120001847,178.42777120001847,178.42777120001847,178.42777120001847,right,0.21054040000308305,11,0,0,99,0.4,-0.24,right,0.1411964000435546,,,,,,,,,,,,,,,,,,,,,,,,,,,,,,,,,A,train_x,x_increasing_steps,top_left,2024-10-29_19h03.39.056,HideSeek_v1,2022.2.5,59.94420393580163,
,4,2,9,2,5,0,66,,train_dim1_1,15,30,2,0,2,0,,,,,,,,,0,0,0,0,0,14,14,14,3,0,3,0,,,,,,,,,,,,,,,,,,,,,,,,,,,,,,,,,,,,,,,,,,,,,,,,,,,,30,,,,,,,,178.64361520000966,178.64361520000966,178.64361520000966,178.64361520000966,178.64361520000966,right,0.17768389999400824,11,0,0,99,0.48000000000000004,-0.24,right,0.11370769998757169,,,,,,,,,,,,,,,,,,,,,,,,,,,,,,,,,A,train_x,x_increasing_steps,top_left,2024-10-29_19h03.39.056,HideSeek_v1,2022.2.5,59.94420393580163,
,4,2,9,2,5,0,66,,train_dim1_1,15,30,2,0,2,0,,,,,,,,,0,0,0,0,0,14,14,14,4,0,4,0,,,,,,,,,,,,,,,,,,,,,,,,,,,,,,,,,,,,,,,,,,,,,,,,,,,,30,,,,,,,,178.82729119999567,178.82729119999567,178.82729119999567,178.82729119999567,178.82729119999567,right,0.17782939999597147,11,0,0,99,0.56,-0.24,right,0.10047499998472631,,,,,,,,,,,,,,,,,,,,,,,,,,,,,,,,,A,train_x,x_increasing_steps,top_left,2024-10-29_19h03.39.056,HideSeek_v1,2022.2.5,59.94420393580163,
,4,2,9,2,5,0,66,,train_dim1_1,15,30,2,0,2,0,,,,,,,,,0,0,0,0,0,14,14,14,5,0,5,0,,,,,,,,,,,,,,,,,,,,,,,,,,,,,,,,,,,,,,,,,,,,,,,,,,,,30,,,,,,,,179.0126393000246,179.0126393000246,179.0126393000246,179.0126393000246,179.0126393000246,return,0.27769169997191057,12,0,0,1,0.56,-0.24,return,0.207233700028155,0,35,0.56,-0.24,,,,,,,,,,,,,,,,,,,,,,,,,,,,,A,train_x,x_increasing_steps,top_left,2024-10-29_19h03.39.056,HideSeek_v1,2022.2.5,59.94420393580163,
,3,3,6,3,3,0,46,,train_dim1_1,16,30,2,0,2,0,,,,,,,,,0,0,0,0,0,15,15,15,0,0,0,0,,,,,,,,,,,,,stimuli/alien_stimuli/46.png,,,,,,,,,,,,,,,,,,,,,,,,,,,,,stimuli/alien_stimuli/66.png,66,4,17,,,,,,,30,,,,,,,,183.016380999994,183.016380999994,183.016380999994,183.016380999994,183.016380999994,right,1.0586463999934494,12,0,0,99,0.16,-0.16,right,0.9655609999899752,,,,,181.4585561999702,183.016380999994,0.56,-0.24,0.0,0.4,-0.24,0.56,0.36000000000000004,0.56,-0.24,180.88029830000596,180.88029830000596,180.88029830000596,180.88029830000596,180.88029830000596,180.88029830000596,180.88029830000596,180.88029830000596,180.82502510002814,0.7021337999613024,return,0.5573766000452451,,,,,,A,train_x,x_increasing_steps,top_left,2024-10-29_19h03.39.056,HideSeek_v1,2022.2.5,59.94420393580163,
,3,3,6,3,3,0,46,,train_dim1_1,16,30,2,0,2,0,,,,,,,,,0,0,0,0,0,15,15,15,1,0,1,0,,,,,,,,,,,,,,,,,,,,,,,,,,,,,,,,,,,,,,,,,,,,,,,,,,,,30,,,,,,,,184.0605764000211,184.0605764000211,184.0605764000211,184.0605764000211,184.0605764000211,right,2.460426799952984,12,0,0,99,0.24,-0.16,right,2.3853891999460757,,,,,,,,,,,,,,,,,,,,,,,,,,,,,,,,,A,train_x,x_increasing_steps,top_left,2024-10-29_19h03.39.056,HideSeek_v1,2022.2.5,59.94420393580163,
,3,3,6,3,3,0,46,,train_dim1_1,16,30,2,0,2,0,,,,,,,,,0,0,0,0,0,15,15,15,2,0,2,0,,,,,,,,,,,,,,,,,,,,,,,,,,,,,,,,,,,,,,,,,,,,,,,,,,,,30,,,,,,,,186.52413909998722,186.52413909998722,186.52413909998722,186.52413909998722,186.52413909998722,right,0.9444641000009142,12,0,0,99,0.32,-0.16,right,0.8753502999898046,,,,,,,,,,,,,,,,,,,,,,,,,,,,,,,,,A,train_x,x_increasing_steps,top_left,2024-10-29_19h03.39.056,HideSeek_v1,2022.2.5,59.94420393580163,
,3,3,6,3,3,0,46,,train_dim1_1,16,30,2,0,2,0,,,,,,,,,0,0,0,0,0,15,15,15,3,0,3,0,,,,,,,,,,,,,,,,,,,,,,,,,,,,,,,,,,,,,,,,,,,,,,,,,,,,30,,,,,,,,187.473321700003,187.473321700003,187.473321700003,187.473321700003,187.473321700003,return,1.0613555999589153,13,0,0,1,0.32,-0.16,return,0.988610600004904,0,38,0.32,-0.16,,,,,,,,,,,,,,,,,,,,,,,,,,,,,A,train_x,x_increasing_steps,top_left,2024-10-29_19h03.39.056,HideSeek_v1,2022.2.5,59.94420393580163,
,2,4,3,4,1,0,26,,train_dim1_1,17,30,2,0,2,0,,,,,,,,,0,0,0,0,0,16,16,16,0,0,0,0,,,,,,,,,,,,,stimuli/alien_stimuli/26.png,,,,,,,,,,,,,,,,,,,,,,,,,,,,,stimuli/alien_stimuli/46.png,46,3,18,,,,,,,30,,,,,,,,191.97575639997376,191.97575639997376,191.97575639997376,191.97575639997376,191.97575639997376,right,0.5246445999946445,13,0,0,99,0.08,-0.08,right,0.4331849000300281,,,,,190.40873490000376,191.97575639997376,0.32,-0.16,0.0,0.24,-0.16,0.32,0.2,0.32,-0.16,190.1253893999965,190.1253893999965,190.1253893999965,190.1253893999965,190.1253893999965,190.1253893999965,190.1253893999965,190.1253893999965,190.0584320400143,0.401662899996154,return,0.2584158999961801,,,,,,A,train_x,x_increasing_steps,top_left,2024-10-29_19h03.39.056,HideSeek_v1,2022.2.5,59.94420393580163,
,2,4,3,4,1,0,26,,train_dim1_1,17,30,2,0,2,0,,,,,,,,,0,0,0,0,0,16,16,16,1,0,1,0,,,,,,,,,,,,,,,,,,,,,,,,,,,,,,,,,,,,,,,,,,,,,,,,,,,,30,,,,,,,,192.47845399996731,192.47845399996731,192.47845399996731,192.47845399996731,192.47845399996731,return,1.3604766000062227,14,0,0,1,0.08,-0.08,return,1.2828256000066176,0,39,0.08,-0.08,,,,,,,,,,,,,,,,,,,,,,,,,,,,,A,train_x,x_increasing_steps,top_left,2024-10-29_19h03.39.056,HideSeek_v1,2022.2.5,59.94420393580163,
,2,1,7,1,5,0,66,,train_dim1_1,18,30,2,0,2,0,,,,,,,,,0,0,0,0,0,17,17,17,0,0,0,0,,,,,,,,,,,,,stimuli/alien_stimuli/66.png,,,,,,,,,,,,,,,,,,,,,,,,,,,,,stimuli/alien_stimuli/26.png,26,2,19,,,,,,,30,,,,,,,,198.82062780001434,198.82062780001434,198.82062780001434,198.82062780001434,198.82062780001434,right,0.6083045999985188,14,0,0,99,0.08,-0.32,right,0.5175086000235751,,,,,197.25892539997585,198.82062780001434,0.08,-0.08,0.0,0.08,-0.08,0.08,0.04,0.08,-0.08,195.4254542000126,195.4254542000126,195.4254542000126,195.4254542000126,195.4254542000126,195.4254542000126,195.4254542000126,195.4254542000126,195.3750569000258,1.9521412000176497,return,1.8054897999973036,,,,,,A,train_x,x_increasing_steps,top_left,2024-10-29_19h03.39.056,HideSeek_v1,2022.2.5,59.94420393580163,
,2,1,7,1,5,0,66,,train_dim1_1,18,30,2,0,2,0,,,,,,,,,0,0,0,0,0,17,17,17,1,0,1,0,,,,,,,,,,,,,,,,,,,,,,,,,,,,,,,,,,,,,,,,,,,,,,,,,,,,30,,,,,,,,199.41338859999087,199.41338859999087,199.41338859999087,199.41338859999087,199.41338859999087,right,0.2267792000202462,14,0,0,99,0.16,-0.32,right,0.15692949999356642,,,,,,,,,,,,,,,,,,,,,,,,,,,,,,,,,A,train_x,x_increasing_steps,top_left,2024-10-29_19h03.39.056,HideSeek_v1,2022.2.5,59.94420393580163,
,2,1,7,1,5,0,66,,train_dim1_1,18,30,2,0,2,0,,,,,,,,,0,0,0,0,0,17,17,17,2,0,2,0,,,,,,,,,,,,,,,,,,,,,,,,,,,,,,,,,,,,,,,,,,,,,,,,,,,,30,,,,,,,,199.64460489997873,199.64460489997873,199.64460489997873,199.64460489997873,199.64460489997873,right,0.19420379999792203,14,0,0,99,0.24,-0.32,right,0.12604570004623383,,,,,,,,,,,,,,,,,,,,,,,,,,,,,,,,,A,train_x,x_increasing_steps,top_left,2024-10-29_19h03.39.056,HideSeek_v1,2022.2.5,59.94420393580163,
,2,1,7,1,5,0,66,,train_dim1_1,18,30,2,0,2,0,,,,,,,,,0,0,0,0,0,17,17,17,3,0,3,0,,,,,,,,,,,,,,,,,,,,,,,,,,,,,,,,,,,,,,,,,,,,,,,,,,,,30,,,,,,,,199.84438470000168,199.84438470000168,199.84438470000168,199.84438470000168,199.84438470000168,right,0.19417819997761399,14,0,0,99,0.32,-0.32,right,0.13134409999474883,,,,,,,,,,,,,,,,,,,,,,,,,,,,,,,,,A,train_x,x_increasing_steps,top_left,2024-10-29_19h03.39.056,HideSeek_v1,2022.2.5,59.94420393580163,
,2,1,7,1,5,0,66,,train_dim1_1,18,30,2,0,2,0,,,,,,,,,0,0,0,0,0,17,17,17,4,0,4,0,,,,,,,,,,,,,,,,,,,,,,,,,,,,,,,,,,,,,,,,,,,,,,,,,,,,30,,,,,,,,200.04472820000956,200.04472820000956,200.04472820000956,200.04472820000956,200.04472820000956,right,0.1947548000025563,14,0,0,99,0.4,-0.32,right,0.12205060000997037,,,,,,,,,,,,,,,,,,,,,,,,,,,,,,,,,A,train_x,x_increasing_steps,top_left,2024-10-29_19h03.39.056,HideSeek_v1,2022.2.5,59.94420393580163,
,2,1,7,1,5,0,66,,train_dim1_1,18,30,2,0,2,0,,,,,,,,,0,0,0,0,0,17,17,17,5,0,5,0,,,,,,,,,,,,,,,,,,,,,,,,,,,,,,,,,,,,,,,,,,,,,,,,,,,,30,,,,,,,,200.2451926000067,200.2451926000067,200.2451926000067,200.2451926000067,200.2451926000067,return,0.22721540002385154,15,0,0,1,0.4,-0.32,return,0.16398969996953383,0,44,0.4,-0.32,,,,,,,,,,,,,,,,,,,,,,,,,,,,,A,train_x,x_increasing_steps,top_left,2024-10-29_19h03.39.056,HideSeek_v1,2022.2.5,59.94420393580163,
,0,3,2,3,2,0,36,,train_dim1_1,19,30,2,0,2,0,,,,,,,,,0,0,0,0,0,18,18,18,0,0,0,0,,,,,,,,,,,,,stimuli/alien_stimuli/36.png,,,,,,,,,,,,,,,,,,,,,,,,,,,,,stimuli/alien_stimuli/66.png,66,2,20,,,,,,,30,,,,,,,,205.2182213999913,205.2182213999913,205.2182213999913,205.2182213999913,205.2182213999913,right,1.0748666999861598,15,0,0,99,-0.08,-0.16,right,0.9827372999861836,,,,,203.65848159999587,205.2182213999913,0.4,-0.32,0.0,0.4,-0.32,0.4,0.2,0.4,-0.32,202.05907879996812,202.05907879996812,202.05907879996812,202.05907879996812,202.05907879996812,202.05907879996812,202.05907879996812,202.05907879996812,202.0081379999756,1.718799099966418,return,1.5737152999499813,,,,,,A,train_x,x_increasing_steps,top_left,2024-10-29_19h03.39.056,HideSeek_v1,2022.2.5,59.94420393580163,
,0,3,2,3,2,0,36,,train_dim1_1,19,30,2,0,2,0,,,,,,,,,0,0,0,0,0,18,18,18,1,0,1,0,,,,,,,,,,,,,,,,,,,,,,,,,,,,,,,,,,,,,,,,,,,,,,,,,,,,30,,,,,,,,206.27397599996766,206.27397599996766,206.27397599996766,206.27397599996766,206.27397599996766,right,1.976623099995777,15,0,0,99,0.0,-0.16,right,1.909988599945791,,,,,,,,,,,,,,,,,,,,,,,,,,,,,,,,,A,train_x,x_increasing_steps,top_left,2024-10-29_19h03.39.056,HideSeek_v1,2022.2.5,59.94420393580163,
,0,3,2,3,2,0,36,,train_dim1_1,19,30,2,0,2,0,,,,,,,,,0,0,0,0,0,18,18,18,2,0,2,0,,,,,,,,,,,,,,,,,,,,,,,,,,,,,,,,,,,,,,,,,,,,,,,,,,,,30,,,,,,,,208.25868410000112,208.25868410000112,208.25868410000112,208.25868410000112,208.25868410000112,right,4.31164870003704,15,0,0,99,0.08,-0.16,right,4.24838850001106,,,,,,,,,,,,,,,,,,,,,,,,,,,,,,,,,A,train_x,x_increasing_steps,top_left,2024-10-29_19h03.39.056,HideSeek_v1,2022.2.5,59.94420393580163,
,0,3,2,3,2,0,36,,train_dim1_1,19,30,2,0,2,0,,,,,,,,,0,0,0,0,0,18,18,18,3,0,3,0,,,,,,,,,,,,,,,,,,,,,,,,,,,,,,,,,,,,,,,,,,,,,,,,,,,,30,,,,,,,,212.57650939997984,212.57650939997984,212.57650939997984,212.57650939997984,212.57650939997984,return,0.261247500020545,15,1,0,0,0.08,-0.16,return,0.18494569999165833,0,47,0.08,-0.16,,,,,,,,,,,,,,,,,,,,,,,,,,,,,A,train_x,x_increasing_steps,top_left,2024-10-29_19h03.39.056,HideSeek_v1,2022.2.5,59.94420393580163,
,0,1,0,1,0,0,16,,train_dim1_1,20,30,2,0,2,0,,,,,,,,,0,0,0,0,0,19,19,19,0,0,0,0,,,,,,,,,,,,,stimuli/alien_stimuli/16.png,,,,,,,,,,,,,,,,,,,,,,,,,,,,,stimuli/alien_stimuli/36.png,36,0,21,,,,,,,30,,,,,,,,216.4905526000075,216.4905526000075,216.4905526000075,216.4905526000075,216.4905526000075,return,0.9584397000144236,16,0,0,1,-0.16,-0.32,return,0.8623969000182115,0,47,-0.16,-0.32,214.92536140000448,216.4905526000075,0,-0.16,0.0,0.16,-0.16,0,-0.08,0,-0.16,214.41286699997727,214.41286699997727,214.41286699997727,214.41286699997727,214.41286699997727,214.41286699997727,214.41286699997727,214.41286699997727,214.35843214000343,0.618205200007651,return,0.4846426000003703,,,,,,A,train_x,x_increasing_steps,top_left,2024-10-29_19h03.39.056,HideSeek_v1,2022.2.5,59.94420393580163,
,4,2,6,2,2,0,36,,train_dim1_1,21,30,2,0,2,0,,,,,,,,,0,0,0,0,0,20,20,20,0,0,0,0,,,,,,,,,,,,,stimuli/alien_stimuli/36.png,,,,,,,,,,,,,,,,,,,,,,,,,,,,,stimuli/alien_stimuli/16.png,16,0,22,,,,,,,30,,,,,,,,221.26546929997858,221.26546929997858,221.26546929997858,221.26546929997858,221.26546929997858,right,1.5753381000249647,16,0,0,99,0.24,-0.24,right,1.4928144000004977,,,,,219.70850880001672,221.26546929997858,-0.16,-0.32,0.0,0.0,-0.32,-0.16,-0.16,-0.16,-0.32,219.00977010000497,219.00977010000497,219.00977010000497,219.00977010000497,219.00977010000497,219.00977010000497,219.00977010000497,219.00977010000497,218.9578332999954,0.8188851000159048,return,0.6802676999941468,,,,,,A,train_x,x_increasing_steps,top_left,2024-10-29_19h03.39.056,HideSeek_v1,2022.2.5,59.94420393580163,
,4,2,6,2,2,0,36,,train_dim1_1,21,30,2,0,2,0,,,,,,,,,0,0,0,0,0,20,20,20,1,0,1,0,,,,,,,,,,,,,,,,,,,,,,,,,,,,,,,,,,,,,,,,,,,,,,,,,,,,30,,,,,,,,222.82507560000522,222.82507560000522,222.82507560000522,222.82507560000522,222.82507560000522,right,0.21010969998314977,16,0,0,99,0.32,-0.24,right,0.1442655999562703,,,,,,,,,,,,,,,,,,,,,,,,,,,,,,,,,A,train_x,x_increasing_steps,top_left,2024-10-29_19h03.39.056,HideSeek_v1,2022.2.5,59.94420393580163,
,4,2,6,2,2,0,36,,train_dim1_1,21,30,2,0,2,0,,,,,,,,,0,0,0,0,0,20,20,20,2,0,2,0,,,,,,,,,,,,,,,,,,,,,,,,,,,,,,,,,,,,,,,,,,,,,,,,,,,,30,,,,,,,,223.038416699972,223.038416699972,223.038416699972,223.038416699972,223.038416699972,right,0.16082509997067973,16,0,0,99,0.4,-0.24,right,0.09926559997256845,,,,,,,,,,,,,,,,,,,,,,,,,,,,,,,,,A,train_x,x_increasing_steps,top_left,2024-10-29_19h03.39.056,HideSeek_v1,2022.2.5,59.94420393580163,
,4,2,6,2,2,0,36,,train_dim1_1,21,30,2,0,2,0,,,,,,,,,0,0,0,0,0,20,20,20,3,0,3,0,,,,,,,,,,,,,,,,,,,,,,,,,,,,,,,,,,,,,,,,,,,,,,,,,,,,30,,,,,,,,223.20594110002276,223.20594110002276,223.20594110002276,223.20594110002276,223.20594110002276,return,0.21115799999097362,16,1,0,0,0.4,-0.24,return,0.1523424000479281,0,50,0.4,-0.24,,,,,,,,,,,,,,,,,,,,,,,,,,,,,A,train_x,x_increasing_steps,top_left,2024-10-29_19h03.39.056,HideSeek_v1,2022.2.5,59.94420393580163,
,1,0,2,0,1,0,26,,train_dim1_1,22,30,2,0,2,0,,,,,,,,,0,0,0,0,0,21,21,21,0,0,0,0,,,,,,,,,,,,,stimuli/alien_stimuli/26.png,,,,,,,,,,,,,,,,,,,,,,,,,,,,,stimuli/alien_stimuli/36.png,36,4,23,,,,,,,30,,,,,,,,226.9467838999699,226.9467838999699,226.9467838999699,226.9467838999699,226.9467838999699,right,0.8926185000455007,16,1,0,99,0.0,-0.4,right,0.7961422000080347,,,,,225.39156189997448,226.9467838999699,0.32,-0.24,0.0,0.16,-0.24,0.32,0.24,0.32,-0.24,224.9993656000006,224.9993656000006,224.9993656000006,224.9993656000006,224.9993656000006,224.9993656000006,224.9993656000006,224.9993656000006,224.9416176400031,0.5013251000200398,return,0.3607091999729164,,,,,,A,train_x,x_increasing_steps,top_left,2024-10-29_19h03.39.056,HideSeek_v1,2022.2.5,59.94420393580163,
,1,0,2,0,1,0,26,,train_dim1_1,22,30,2,0,2,0,,,,,,,,,0,0,0,0,0,21,21,21,1,0,1,0,,,,,,,,,,,,,,,,,,,,,,,,,,,,,,,,,,,,,,,,,,,,,,,,,,,,30,,,,,,,,227.82916309998836,227.82916309998836,227.82916309998836,227.82916309998836,227.82916309998836,return,0.21067859994946048,17,0,0,1,0.0,-0.4,return,0.13606769999023527,0,51,0.0,-0.4,,,,,,,,,,,,,,,,,,,,,,,,,,,,,A,train_x,x_increasing_steps,top_left,2024-10-29_19h03.39.056,HideSeek_v1,2022.2.5,59.94420393580163,
,2,1,7,1,5,0,66,,train_dim1_1,23,30,2,0,2,0,,,,,,,,,0,0,0,0,0,22,22,22,0,0,0,0,,,,,,,,,,,,,stimuli/alien_stimuli/66.png,,,,,,,,,,,,,,,,,,,,,,,,,,,,,stimuli/alien_stimuli/26.png,26,1,24,,,,,,,30,,,,,,,,231.52535940002417,231.52535940002417,231.52535940002417,231.52535940002417,231.52535940002417,right,0.5917647000169381,17,0,0,99,0.08,-0.32,right,0.49052469996968284,,,,,229.95830900000874,231.52535940002417,0,-0.4,0.0,0.08,-0.4,0,-0.04,0,-0.4,229.6248537999927,229.6248537999927,229.6248537999927,229.6248537999927,229.6248537999927,229.6248537999927,229.6248537999927,229.6248537999927,229.5743960000109,0.45205139997415245,return,0.313330200035125,,,,,,A,train_x,x_increasing_steps,top_left,2024-10-29_19h03.39.056,HideSeek_v1,2022.2.5,59.94420393580163,
,2,1,7,1,5,0,66,,train_dim1_1,23,30,2,0,2,0,,,,,,,,,0,0,0,0,0,22,22,22,1,0,1,0,,,,,,,,,,,,,,,,,,,,,,,,,,,,,,,,,,,,,,,,,,,,,,,,,,,,30,,,,,,,,232.09524559997953,232.09524559997953,232.09524559997953,232.09524559997953,232.09524559997953,right,0.177108500036411,17,0,0,99,0.16,-0.32,right,0.09809929999755695,,,,,,,,,,,,,,,,,,,,,,,,,,,,,,,,,A,train_x,x_increasing_steps,top_left,2024-10-29_19h03.39.056,HideSeek_v1,2022.2.5,59.94420393580163,
,2,1,7,1,5,0,66,,train_dim1_1,23,30,2,0,2,0,,,,,,,,,0,0,0,0,0,22,22,22,2,0,2,0,,,,,,,,,,,,,,,,,,,,,,,,,,,,,,,,,,,,,,,,,,,,,,,,,,,,30,,,,,,,,232.27661250001984,232.27661250001984,232.27661250001984,232.27661250001984,232.27661250001984,right,0.16132449998985976,17,0,0,99,0.24,-0.32,right,0.09449739998672158,,,,,,,,,,,,,,,,,,,,,,,,,,,,,,,,,A,train_x,x_increasing_steps,top_left,2024-10-29_19h03.39.056,HideSeek_v1,2022.2.5,59.94420393580163,
,2,1,7,1,5,0,66,,train_dim1_1,23,30,2,0,2,0,,,,,,,,,0,0,0,0,0,22,22,22,3,0,3,0,,,,,,,,,,,,,,,,,,,,,,,,,,,,,,,,,,,,,,,,,,,,,,,,,,,,30,,,,,,,,232.44208960002288,232.44208960002288,232.44208960002288,232.44208960002288,232.44208960002288,right,0.17696120002074167,17,0,0,99,0.32,-0.32,right,0.10309420002158731,,,,,,,,,,,,,,,,,,,,,,,,,,,,,,,,,A,train_x,x_increasing_steps,top_left,2024-10-29_19h03.39.056,HideSeek_v1,2022.2.5,59.94420393580163,
,2,1,7,1,5,0,66,,train_dim1_1,23,30,2,0,2,0,,,,,,,,,0,0,0,0,0,22,22,22,4,0,4,0,,,,,,,,,,,,,,,,,,,,,,,,,,,,,,,,,,,,,,,,,,,,,,,,,,,,30,,,,,,,,232.62792639998952,232.62792639998952,232.62792639998952,232.62792639998952,232.62792639998952,right,0.14428659999975935,17,0,0,99,0.4,-0.32,right,0.06585130002349615,,,,,,,,,,,,,,,,,,,,,,,,,,,,,,,,,A,train_x,x_increasing_steps,top_left,2024-10-29_19h03.39.056,HideSeek_v1,2022.2.5,59.94420393580163,
,2,1,7,1,5,0,66,,train_dim1_1,23,30,2,0,2,0,,,,,,,,,0,0,0,0,0,22,22,22,5,0,5,0,,,,,,,,,,,,,,,,,,,,,,,,,,,,,,,,,,,,,,,,,,,,,,,,,,,,30,,,,,,,,232.77533999999287,232.77533999999287,232.77533999999287,232.77533999999287,232.77533999999287,return,0.22813569998834282,18,0,0,1,0.4,-0.32,return,0.16426220000721514,0,56,0.4,-0.32,,,,,,,,,,,,,,,,,,,,,,,,,,,,,A,train_x,x_increasing_steps,top_left,2024-10-29_19h03.39.056,HideSeek_v1,2022.2.5,59.94420393580163,
,4,4,7,4,3,0,46,,train_dim1_1,24,30,2,0,2,0,,,,,,,,,0,0,0,0,0,23,23,23,0,0,0,0,,,,,,,,,,,,,stimuli/alien_stimuli/46.png,,,,,,,,,,,,,,,,,,,,,,,,,,,,,stimuli/alien_stimuli/66.png,66,2,25,,,,,,,30,,,,,,,,236.74619169998914,236.74619169998914,236.74619169998914,236.74619169998914,236.74619169998914,right,0.9258426000014879,18,0,0,99,0.24,-0.08,right,0.8403778999927454,,,,,235.19159090000903,236.74619169998914,0.4,-0.32,0.0,0.4,-0.32,0.4,0.2,0.4,-0.32,234.59203559998423,234.59203559998423,234.59203559998423,234.59203559998423,234.59203559998423,234.59203559998423,234.59203559998423,234.59203559998423,234.54105679999338,0.7189315999858081,return,0.5711335000232793,,,,,,A,train_x,x_increasing_steps,top_left,2024-10-29_19h03.39.056,HideSeek_v1,2022.2.5,59.94420393580163,
,4,4,7,4,3,0,46,,train_dim1_1,24,30,2,0,2,0,,,,,,,,,0,0,0,0,0,23,23,23,1,0,1,0,,,,,,,,,,,,,,,,,,,,,,,,,,,,,,,,,,,,,,,,,,,,,,,,,,,,30,,,,,,,,237.67139319999842,237.67139319999842,237.67139319999842,237.67139319999842,237.67139319999842,right,0.6772015999886207,18,0,0,99,0.32,-0.08,right,0.5968524999916553,,,,,,,,,,,,,,,,,,,,,,,,,,,,,,,,,A,train_x,x_increasing_steps,top_left,2024-10-29_19h03.39.056,HideSeek_v1,2022.2.5,59.94420393580163,
,4,4,7,4,3,0,46,,train_dim1_1,24,30,2,0,2,0,,,,,,,,,0,0,0,0,0,23,23,23,2,0,2,0,,,,,,,,,,,,,,,,,,,,,,,,,,,,,,,,,,,,,,,,,,,,,,,,,,,,30,,,,,,,,238.34022870002082,238.34022870002082,238.34022870002082,238.34022870002082,238.34022870002082,right,0.3440138000296429,18,0,0,99,0.4,-0.08,right,0.28290349995950237,,,,,,,,,,,,,,,,,,,,,,,,,,,,,,,,,A,train_x,x_increasing_steps,top_left,2024-10-29_19h03.39.056,HideSeek_v1,2022.2.5,59.94420393580163,
,4,4,7,4,3,0,46,,train_dim1_1,24,30,2,0,2,0,,,,,,,,,0,0,0,0,0,23,23,23,3,0,3,0,,,,,,,,,,,,,,,,,,,,,,,,,,,,,,,,,,,,,,,,,,,,,,,,,,,,30,,,,,,,,238.69227240001783,238.69227240001783,238.69227240001783,238.69227240001783,238.69227240001783,return,0.5941683999844827,19,0,0,1,0.4,-0.08,return,0.5187281999969855,0,59,0.4,-0.08,,,,,,,,,,,,,,,,,,,,,,,,,,,,,A,train_x,x_increasing_steps,top_left,2024-10-29_19h03.39.056,HideSeek_v1,2022.2.5,59.94420393580163,
,3,0,3,0,0,0,16,,train_dim1_1,25,30,2,0,2,0,,,,,,,,,0,0,0,0,0,24,24,24,0,0,0,0,,,,,,,,,,,,,stimuli/alien_stimuli/16.png,,,,,,,,,,,,,,,,,,,,,,,,,,,,,stimuli/alien_stimuli/46.png,46,4,26,,,,,,,30,,,,,,,,243.19112209999003,243.19112209999003,243.19112209999003,243.19112209999003,243.19112209999003,return,1.2594593999674544,20,0,0,1,0.08,-0.4,return,1.152414400014095,0,59,0.08,-0.4,241.62484459998086,243.19112209999003,0.4,-0.08,0.0,0.24,-0.08,0.4,0.28,0.4,-0.08,240.86116700002458,240.86116700002458,240.86116700002458,240.86116700002458,240.86116700002458,240.86116700002458,240.86116700002458,240.86116700002458,240.80765324002132,0.8688701000064611,return,0.7424403000040911,,,,,,A,train_x,x_increasing_steps,top_left,2024-10-29_19h03.39.056,HideSeek_v1,2022.2.5,59.94420393580163,
,1,1,6,1,5,0,66,,train_dim1_1,26,30,2,0,2,0,,,,,,,,,0,0,0,0,0,25,25,25,0,0,0,0,,,,,,,,,,,,,stimuli/alien_stimuli/66.png,,,,,,,,,,,,,,,,,,,,,,,,,,,,,stimuli/alien_stimuli/16.png,16,3,27,,,,,,,30,,,,,,,,248.10172099998454,248.10172099998454,248.10172099998454,248.10172099998454,248.10172099998454,right,0.6258038000087254,20,0,0,99,0.0,-0.32,right,0.525099600024987,,,,,246.5414978999761,248.10172099998454,0.08,-0.4,0.0,0.0,-0.4,0.08,0.08,0.08,-0.4,246.00114750000648,246.00114750000648,246.00114750000648,246.00114750000648,246.00114750000648,246.00114750000648,246.00114750000648,246.00114750000648,245.95795280003222,0.6516945000039414,return,0.5183453999925405,,,,,,A,train_x,x_increasing_steps,top_left,2024-10-29_19h03.39.056,HideSeek_v1,2022.2.5,59.94420393580163,
,1,1,6,1,5,0,66,,train_dim1_1,26,30,2,0,2,0,,,,,,,,,0,0,0,0,0,25,25,25,1,0,1,0,,,,,,,,,,,,,,,,,,,,,,,,,,,,,,,,,,,,,,,,,,,,,,,,,,,,30,,,,,,,,248.71190809999825,248.71190809999825,248.71190809999825,248.71190809999825,248.71190809999825,right,0.16123120003612712,20,0,0,99,0.08,-0.32,right,0.09390350000467151,,,,,,,,,,,,,,,,,,,,,,,,,,,,,,,,,A,train_x,x_increasing_steps,top_left,2024-10-29_19h03.39.056,HideSeek_v1,2022.2.5,59.94420393580163,
,1,1,6,1,5,0,66,,train_dim1_1,26,30,2,0,2,0,,,,,,,,,0,0,0,0,0,25,25,25,2,0,2,0,,,,,,,,,,,,,,,,,,,,,,,,,,,,,,,,,,,,,,,,,,,,,,,,,,,,30,,,,,,,,248.8805062000174,248.8805062000174,248.8805062000174,248.8805062000174,248.8805062000174,right,0.17804540001088753,20,0,0,99,0.16,-0.32,right,0.10693529999116436,,,,,,,,,,,,,,,,,,,,,,,,,,,,,,,,,A,train_x,x_increasing_steps,top_left,2024-10-29_19h03.39.056,HideSeek_v1,2022.2.5,59.94420393580163,
,1,1,6,1,5,0,66,,train_dim1_1,26,30,2,0,2,0,,,,,,,,,0,0,0,0,0,25,25,25,3,0,3,0,,,,,,,,,,,,,,,,,,,,,,,,,,,,,,,,,,,,,,,,,,,,,,,,,,,,30,,,,,,,,249.06177019997267,249.06177019997267,249.06177019997267,249.06177019997267,249.06177019997267,right,0.16077449999284,20,0,0,99,0.24,-0.32,right,0.09062470000935718,,,,,,,,,,,,,,,,,,,,,,,,,,,,,,,,,A,train_x,x_increasing_steps,top_left,2024-10-29_19h03.39.056,HideSeek_v1,2022.2.5,59.94420393580163,
,1,1,6,1,5,0,66,,train_dim1_1,26,30,2,0,2,0,,,,,,,,,0,0,0,0,0,25,25,25,4,0,4,0,,,,,,,,,,,,,,,,,,,,,,,,,,,,,,,,,,,,,,,,,,,,,,,,,,,,30,,,,,,,,249.22826920001535,249.22826920001535,249.22826920001535,249.22826920001535,249.22826920001535,right,0.16152179997880012,20,0,0,99,0.32,-0.32,right,0.0894177999580279,,,,,,,,,,,,,,,,,,,,,,,,,,,,,,,,,A,train_x,x_increasing_steps,top_left,2024-10-29_19h03.39.056,HideSeek_v1,2022.2.5,59.94420393580163,
,1,1,6,1,5,0,66,,train_dim1_1,26,30,2,0,2,0,,,,,,,,,0,0,0,0,0,25,25,25,5,0,5,0,,,,,,,,,,,,,,,,,,,,,,,,,,,,,,,,,,,,,,,,,,,,,,,,,,,,30,,,,,,,,249.3927900000126,249.3927900000126,249.3927900000126,249.3927900000126,249.3927900000126,return,0.22670919995289296,21,0,0,1,0.32,-0.32,return,0.15171929995995015,0,64,0.32,-0.32,,,,,,,,,,,,,,,,,,,,,,,,,,,,,A,train_x,x_increasing_steps,top_left,2024-10-29_19h03.39.056,HideSeek_v1,2022.2.5,59.94420393580163,
,0,1,2,1,2,0,36,,train_dim1_1,27,30,2,0,2,0,,,,,,,,,0,0,0,0,0,26,26,26,0,0,0,0,,,,,,,,,,,,,stimuli/alien_stimuli/36.png,,,,,,,,,,,,,,,,,,,,,,,,,,,,,stimuli/alien_stimuli/66.png,66,1,28,,,,,,,30,,,,,,,,253.1499518000055,253.1499518000055,253.1499518000055,253.1499518000055,253.1499518000055,right,0.5245441000442952,21,0,0,99,-0.08,-0.32,right,0.43884660000912845,,,,,251.5921081000124,253.1499518000055,0.32,-0.32,0.0,0.4,-0.32,0.32,0.12,0.32,-0.32,251.2075390999671,251.2075390999671,251.2075390999671,251.2075390999671,251.2075390999671,251.2075390999671,251.2075390999671,251.2075390999671,251.15812979999464,0.5019980000215583,return,0.3525068000308238,,,,,,A,train_x,x_increasing_steps,top_left,2024-10-29_19h03.39.056,HideSeek_v1,2022.2.5,59.94420393580163,
,0,1,2,1,2,0,36,,train_dim1_1,27,30,2,0,2,0,,,,,,,,,0,0,0,0,0,26,26,26,1,0,1,0,,,,,,,,,,,,,,,,,,,,,,,,,,,,,,,,,,,,,,,,,,,,,,,,,,,,30,,,,,,,,253.65617049997672,253.65617049997672,253.65617049997672,253.65617049997672,253.65617049997672,right,0.24405430001206696,21,0,0,99,0.0,-0.32,right,0.17262100003426895,,,,,,,,,,,,,,,,,,,,,,,,,,,,,,,,,A,train_x,x_increasing_steps,top_left,2024-10-29_19h03.39.056,HideSeek_v1,2022.2.5,59.94420393580163,
,0,1,2,1,2,0,36,,train_dim1_1,27,30,2,0,2,0,,,,,,,,,0,0,0,0,0,26,26,26,2,0,2,0,,,,,,,,,,,,,,,,,,,,,,,,,,,,,,,,,,,,,,,,,,,,,,,,,,,,30,,,,,,,,253.91097319999244,253.91097319999244,253.91097319999244,253.91097319999244,253.91097319999244,return,1.261001100006979,22,0,0,1,0.0,-0.32,return,1.1960352000314742,0,66,0.0,-0.32,,,,,,,,,,,,,,,,,,,,,,,,,,,,,A,train_x,x_increasing_steps,top_left,2024-10-29_19h03.39.056,HideSeek_v1,2022.2.5,59.94420393580163,
,3,1,4,1,1,0,26,,train_dim1_1,28,30,2,0,2,0,,,,,,,,,0,0,0,0,0,27,27,27,0,0,0,0,,,,,,,,,,,,,stimuli/alien_stimuli/26.png,,,,,,,,,,,,,,,,,,,,,,,,,,,,,stimuli/alien_stimuli/36.png,36,0,29,,,,,,,30,,,,,,,,258.982633800013,258.982633800013,258.982633800013,258.982633800013,258.982633800013,right,0.6412952999817207,22,0,0,99,0.16,-0.32,right,0.556931400031317,,,,,257.42455609998433,258.982633800013,0,-0.32,0.0,0.16,-0.32,0,-0.08,0,-0.32,256.75871089997236,256.75871089997236,256.75871089997236,256.75871089997236,256.75871089997236,256.75871089997236,256.75871089997236,256.75871089997236,256.6913028399926,0.7843758999952115,return,0.6371427000267431,,,,,,A,train_x,x_increasing_steps,top_left,2024-10-29_19h03.39.056,HideSeek_v1,2022.2.5,59.94420393580163,
,3,1,4,1,1,0,26,,train_dim1_1,28,30,2,0,2,0,,,,,,,,,0,0,0,0,0,27,27,27,1,0,1,0,,,,,,,,,,,,,,,,,,,,,,,,,,,,,,,,,,,,,,,,,,,,,,,,,,,,30,,,,,,,,259.610774700006,259.610774700006,259.610774700006,259.610774700006,259.610774700006,return,0.2605765000334941,23,0,0,1,0.16,-0.32,return,0.197273799974937,0,67,0.16,-0.32,,,,,,,,,,,,,,,,,,,,,,,,,,,,,A,train_x,x_increasing_steps,top_left,2024-10-29_19h03.39.056,HideSeek_v1,2022.2.5,59.94420393580163,
,4,0,7,0,3,0,46,,train_dim1_1,29,30,2,0,2,0,,,,,,,,,0,0,0,0,0,28,28,28,0,0,0,0,,,,,,,,,,,,,stimuli/alien_stimuli/46.png,,,,,,,,,,,,,,,,,,,,,,,,,,,,,stimuli/alien_stimuli/26.png,26,3,30,,,,,,,30,,,,,,,,263.3952683999669,263.3952683999669,263.3952683999669,263.3952683999669,263.3952683999669,right,0.49154010001802817,23,0,0,99,0.24,-0.4,right,0.41253820003475994,,,,,261.8411056000041,263.3952683999669,0.16,-0.32,0.0,0.08,-0.32,0.16,0.12,0.16,-0.32,261.44783469999675,261.44783469999675,261.44783469999675,261.44783469999675,261.44783469999675,261.44783469999675,261.44783469999675,261.44783469999675,261.4071492999792,0.5022390999947675,return,0.37392619997262955,,,,,,A,train_x,x_increasing_steps,top_left,2024-10-29_19h03.39.056,HideSeek_v1,2022.2.5,59.94420393580163,
,4,0,7,0,3,0,46,,train_dim1_1,29,30,2,0,2,0,,,,,,,,,0,0,0,0,0,28,28,28,1,0,1,0,,,,,,,,,,,,,,,,,,,,,,,,,,,,,,,,,,,,,,,,,,,,,,,,,,,,30,,,,,,,,263.87243930000113,263.87243930000113,263.87243930000113,263.87243930000113,263.87243930000113,right,0.49419970001326874,23,0,0,99,0.32,-0.4,right,0.42894369998248294,,,,,,,,,,,,,,,,,,,,,,,,,,,,,,,,,A,train_x,x_increasing_steps,top_left,2024-10-29_19h03.39.056,HideSeek_v1,2022.2.5,59.94420393580163,
,4,0,7,0,3,0,46,,train_dim1_1,29,30,2,0,2,0,,,,,,,,,0,0,0,0,0,28,28,28,2,0,2,0,,,,,,,,,,,,,,,,,,,,,,,,,,,,,,,,,,,,,,,,,,,,,,,,,,,,30,,,,,,,,264.3720387999783,264.3720387999783,264.3720387999783,264.3720387999783,264.3720387999783,right,2.97693890001392,23,0,0,99,0.4,-0.4,right,2.912978300009854,,,,,,,,,,,,,,,,,,,,,,,,,,,,,,,,,A,train_x,x_increasing_steps,top_left,2024-10-29_19h03.39.056,HideSeek_v1,2022.2.5,59.94420393580163,
,4,0,7,0,3,0,46,,train_dim1_1,29,30,2,0,2,0,,,,,,,,,0,0,0,0,0,28,28,28,3,0,3,0,,,,,,,,,,,,,,,,,,,,,,,,,,,,,,,,,,,,,,,,,,,,,,,,,,,,30,,,,,,,,267.35674409999046,267.35674409999046,267.35674409999046,267.35674409999046,267.35674409999046,left,2.5442247999599203,23,0,0,99,0.32,-0.4,left,2.4784496999927796,,,,,,,,,,,,,,,,,,,,,,,,,,,,,,,,,A,train_x,x_increasing_steps,top_left,2024-10-29_19h03.39.056,HideSeek_v1,2022.2.5,59.94420393580163,
,4,0,7,0,3,0,46,,train_dim1_1,29,30,2,0,2,0,,,,,,,,,0,0,0,0,0,28,28,28,4,0,4,0,,,,,,,,,,,,,,,,,,,,,,,,,,,,,,,,,,,,,,,,,,,,,,,,,,,,30,,,,,,,,269.90465589996893,269.90465589996893,269.90465589996893,269.90465589996893,269.90465589996893,right,2.4943607000168413,23,0,0,99,0.4,-0.4,right,2.43037329998333,,,,,,,,,,,,,,,,,,,,,,,,,,,,,,,,,A,train_x,x_increasing_steps,top_left,2024-10-29_19h03.39.056,HideSeek_v1,2022.2.5,59.94420393580163,
,4,0,7,0,3,0,46,,train_dim1_1,29,30,2,0,2,0,,,,,,,,,0,0,0,0,0,28,28,28,5,0,5,0,,,,,,,,,,,,,,,,,,,,,,,,,,,,,,,,,,,,,,,,,,,,,,,,,,,,30,,,,,,,,272.4076235999819,272.4076235999819,272.4076235999819,272.4076235999819,272.4076235999819,return,0.2112908000126481,24,0,0,1,0.4,-0.4,return,0.14633000001776963,0,70,0.4,-0.4,,,,,,,,,,,,,,,,,,,,,,,,,,,,,A,train_x,x_increasing_steps,top_left,2024-10-29_19h03.39.056,HideSeek_v1,2022.2.5,59.94420393580163,
,2,2,2,2,0,0,16,,train_dim1_1,30,30,2,0,2,0,,,,,,,,,0,0,0,0,0,29,29,29,0,0,0,0,,,,,,,,,,,,,stimuli/alien_stimuli/16.png,,,,,,,,,,,,,,,,,,,,,,,,,,,,,stimuli/alien_stimuli/46.png,46,4,31,,,,,,,30,,,,,,,,276.2513547000126,276.2513547000126,276.2513547000126,276.2513547000126,276.2513547000126,return,0.8412329999846406,25,0,0,1,0,-0.24,return,0.7485753999790177,0,70,0,-0.24,274.6910956000211,276.2513547000126,0.4,-0.4,0.0,0.24,-0.4,0.4,0.28,0.4,-0.4,274.19471959996736,274.19471959996736,274.19471959996736,274.19471959996736,274.19471959996736,274.19471959996736,274.19471959996736,274.19471959996736,274.14120294000026,0.6013725000084378,return,0.46564750000834465,,,,,,A,train_x,x_increasing_steps,top_left,2024-10-29_19h03.39.056,HideSeek_v1,2022.2.5,59.94420393580163,
,,,,,,,,,,,30,2,0,2,0,,,,,,,,,,,,,,,,,,,,,,,,,,,,,,,,,,,,,,,,,,,,,,,,,,,,,,,,,,,,,,stimuli/alien_stimuli/16.png,16,2,32,17,0.7,1.0416666666666667,1,1,1,30,0,conditions/schedules/train_x_first/x_increasing_steps/top_left/inputTrain_2.1.xlsx,99,1,2,1,0,,,,,,,,,,,1,,,,,,,,,279.35800409998046,280.9080407000147,0,-0.24,0.0,0.0,-0.24,0,0.0,0,-0.24,278.6578107000096,278.6578107000096,278.6578107000096,278.6578107000096,278.6578107000096,278.6578107000096,278.6578107000096,278.6578107000096,278.6073331999942,0.8189304000115953,return,0.6774888000218198,0,1.0416666666666667,0,1,25,A,train_x,x_increasing_steps,top_left,2024-10-29_19h03.39.056,HideSeek_v1,2022.2.5,59.94420393580163,
,,,,,,,,,,,,3,0,3,0,0,0,0,0,,,,,,,,,,,,,,,,,,,conditions/schedules/train_x_first/x_increasing_steps/top_left/instructions/Slide17.png,conditions/schedules/train_x_first/x_increasing_steps/top_left/instructions/Audio17.wav,280.9080407000147,280.89083967999323,17,"[2.222557000000961, 0.37283649999881163, 0.3503663000301458, 0.3822194999665953, 0.37193990004016086, 0.31920460000401363, 0.32394079997902736, 0.2971489999908954, 0.419996100012213, 0.563549000013154, 0.4168801999767311, 1.2692770999856293, 1.1204813999938779, 1.6445780000067316, 1.638595299969893, 1.2941484000184573, 1.882564299972728]","[0.0004362999461591244, 0.0002133999951183796, 0.08183189999544993, 0.08820580004248768, 0.08545190002769232, 0.07290889997966588, 0.00023689999943599105, 0.06939120002789423, 0.014598699985072017, 0.04939199995715171, 0.08617759996559471, 1.2692832999746315, 0.015266300004441291, 1.6445872000185773, 0.07698080001864582, 1.2941557000158355, 1.8825765999499708]",0,,,,,,,,,,,,,,,,,,,,,,,,,,,,,,,,,,,,,,,,,,,,,,,,,,,,,,,,,,,,,,,,,,,,,,,,,,,,,,,,,,,,,,,,,,,,,,,,,A,train_x,x_increasing_steps,top_left,2024-10-29_19h03.39.056,HideSeek_v1,2022.2.5,59.94420393580163,
,,,,,,,,,,,,3,0,3,0,1,0,1,0,,,,,,,,,,,,,,,,,,,conditions/schedules/train_x_first/x_increasing_steps/top_left/instructions/Slide18.png,conditions/schedules/train_x_first/x_increasing_steps/top_left/instructions/Audio18.wav,282.84118119999766,282.82420553998094,18,"[2.222557000000961, 0.37283649999881163, 0.3503663000301458, 0.3822194999665953, 0.37193990004016086, 0.31920460000401363, 0.32394079997902736, 0.2971489999908954, 0.419996100012213, 0.563549000013154, 0.4168801999767311, 1.2692770999856293, 1.1204813999938779, 1.6445780000067316, 1.638595299969893, 1.2941484000184573, 1.882564299972728, 1.1196420000051148]","[0.0004362999461591244, 0.0002133999951183796, 0.08183189999544993, 0.08820580004248768, 0.08545190002769232, 0.07290889997966588, 0.00023689999943599105, 0.06939120002789423, 0.014598699985072017, 0.04939199995715171, 0.08617759996559471, 1.2692832999746315, 0.015266300004441291, 1.6445872000185773, 0.07698080001864582, 1.2941557000158355, 1.8825765999499708, 1.119650000007823]",0,,,,,,,,,,,,,,,,,,,,,,,,,,,,,,,,,,,,,,,,,,,,,,,,,,,,,,,,,,,,,,,,,,,,,,,,,,,,,,,,,,,,,,,,,,,,,,,,,A,train_x,x_increasing_steps,top_left,2024-10-29_19h03.39.056,HideSeek_v1,2022.2.5,59.94420393580163,
,,,,,,,,,,,,3,0,3,0,2,0,2,0,,,,,,,,,,,,,,,,,,,conditions/schedules/train_x_first/x_increasing_steps/top_left/instructions/Slide19.png,conditions/schedules/train_x_first/x_increasing_steps/top_left/instructions/Audio19.wav,284.0080581000075,283.990736079996,19,"[2.222557000000961, 0.37283649999881163, 0.3503663000301458, 0.3822194999665953, 0.37193990004016086, 0.31920460000401363, 0.32394079997902736, 0.2971489999908954, 0.419996100012213, 0.563549000013154, 0.4168801999767311, 1.2692770999856293, 1.1204813999938779, 1.6445780000067316, 1.638595299969893, 1.2941484000184573, 1.882564299972728, 1.1196420000051148, 1.7409790999954566]","[0.0004362999461591244, 0.0002133999951183796, 0.08183189999544993, 0.08820580004248768, 0.08545190002769232, 0.07290889997966588, 0.00023689999943599105, 0.06939120002789423, 0.014598699985072017, 0.04939199995715171, 0.08617759996559471, 1.2692832999746315, 0.015266300004441291, 1.6445872000185773, 0.07698080001864582, 1.2941557000158355, 1.8825765999499708, 0.07457960001192987, 1.7409879000042565]",0,,,,,,,,,,,,,,,,,,,,,,,,,,,,,,,,,,,,,,,,,,,,,,,,,,,,,,,,,,,,,,,,,,,,,,,,,,,,,,,,,,,,,,,,,,,,,,,,,A,train_x,x_increasing_steps,top_left,2024-10-29_19h03.39.056,HideSeek_v1,2022.2.5,59.94420393580163,
,,,,,,,,,,,,3,0,3,0,3,0,3,0,,,,,,,,,,,,,,,,,,,conditions/schedules/train_x_first/x_increasing_steps/top_left/instructions/Slide20.png,conditions/schedules/train_x_first/x_increasing_steps/top_left/instructions/Audio20.wav,285.79632969998056,285.79072533999573,20,"[2.222557000000961, 0.37283649999881163, 0.3503663000301458, 0.3822194999665953, 0.37193990004016086, 0.31920460000401363, 0.32394079997902736, 0.2971489999908954, 0.419996100012213, 0.563549000013154, 0.4168801999767311, 1.2692770999856293, 1.1204813999938779, 1.6445780000067316, 1.638595299969893, 1.2941484000184573, 1.882564299972728, 1.1196420000051148, 1.7409790999954566, 3.343262300011702]","[0.0004362999461591244, 0.0002133999951183796, 0.08183189999544993, 0.08820580004248768, 0.08545190002769232, 0.07290889997966588, 0.00023689999943599105, 0.06939120002789423, 0.014598699985072017, 0.04939199995715171, 0.08617759996559471, 1.2692832999746315, 0.015266300004441291, 1.6445872000185773, 0.07698080001864582, 1.2941557000158355, 1.8825765999499708, 0.07457960001192987, 0.07677350001176819, 3.343267399992328]",0,,,,,,,,,,,,,,,,,,,,,,,,,,,,,,,,,,,,,,,,,,,,,,,,,,,,,,,,,,,,,,,,,,,,,,,,,,,,,,,,,,,,,,,,,,,,,,,,,A,train_x,x_increasing_steps,top_left,2024-10-29_19h03.39.056,HideSeek_v1,2022.2.5,59.94420393580163,
1,2,3,2,8,0,5,11,2,instr_dim1_2,,,3,0,3,0,,,,,0,0,0,0,,,,,,,,,,,,,,,,,,,,,,,,,stimuli/alien_stimuli/11.png,conditions/schedules/train_x_first/x_increasing_steps/top_left/inputInstr_1.xlsx,stimuli/alien_stimuli/11.png,289.20733000000473,289.20733000000473,289.20733000000473,289.20733000000473,289.19056663997475,return,1.3181288000196218,"[-0.16, -0.08, 0, 0.08, 0.16, 0.24, 0.32, 0.4, 0.48, 0.56]","[-0.4, -0.32, -0.24, -0.16, -0.08, 0, 0.08, 0.16, 0.24, 0.32]",8,3,2,2,0.4,0.0,290.6739096000092,290.6739096000092,290.6739096000092,290.6739096000092,290.6739096000092,290.6739096000092,290.6739096000092,290.65697341999044,1.1678628000081517,return,1.0254504999611527,stimuli/alien_stimuli/11.png,11,2,1,,,,,,,,,,,,,,,,,,,,,,,,,,,,,,,,,,,,,,,,,,,,,,,,,,,,,,,,,,,,,,A,train_x,x_increasing_steps,top_left,2024-10-29_19h03.39.056,HideSeek_v1,2022.2.5,59.94420393580163,
,,,,,,,,,,,30,3,0,3,0,,,,,,,,,,,,,,,,,,,,,,,,,,,,,,,,,,,,,,,,,,,,,,,,,,,,,,,,,,,,,,,,,,17,0.7,1.0416666666666667,1,99,2,30,0,conditions/schedules/train_x_first/x_increasing_steps/top_left/inputTrain_2.1.xlsx,99,1,2,1,0,,,,,,,,,,,,,,,,,,,,,,,,,,,,,,,,,,,,,,,,,,,,,,,,A,train_x,x_increasing_steps,top_left,2024-10-29_19h03.39.056,HideSeek_v1,2022.2.5,59.94420393580163,
,,,,,,,,,,,,4,0,4,0,0,0,0,0,,,,,,,,,,,,,,,,,,,conditions/schedules/train_x_first/x_increasing_steps/top_left/instructions/Slide21.png,conditions/schedules/train_x_first/x_increasing_steps/top_left/instructions/Audio21.wav,291.82236230000854,291.8075216600206,21,"[2.222557000000961, 0.37283649999881163, 0.3503663000301458, 0.3822194999665953, 0.37193990004016086, 0.31920460000401363, 0.32394079997902736, 0.2971489999908954, 0.419996100012213, 0.563549000013154, 0.4168801999767311, 1.2692770999856293, 1.1204813999938779, 1.6445780000067316, 1.638595299969893, 1.2941484000184573, 1.882564299972728, 1.1196420000051148, 1.7409790999954566, 3.343262300011702, 4.0343110000249]","[0.0004362999461591244, 0.0002133999951183796, 0.08183189999544993, 0.08820580004248768, 0.08545190002769232, 0.07290889997966588, 0.00023689999943599105, 0.06939120002789423, 0.014598699985072017, 0.04939199995715171, 0.08617759996559471, 1.2692832999746315, 0.015266300004441291, 1.6445872000185773, 0.07698080001864582, 1.2941557000158355, 1.8825765999499708, 0.07457960001192987, 0.07677350001176819, 3.343267399992328, 4.034317800018471]",0,,,,,,,,,,,,,,,,,,,,,,,,,,,,,,,,,,,,,,,,,,,,,,,,,,,,,,,,,,,,,,,,,,,,,,,,,,,,,,,,,,,,,,,,,,,,,,,,,A,train_x,x_increasing_steps,top_left,2024-10-29_19h03.39.056,HideSeek_v1,2022.2.5,59.94420393580163,
2,0,3,0,3,0,0,16,2,instr_dim1_2,,,4,0,4,0,,,,,0,0,0,0,,,,,,,,,,,,,,,,,,,,,,,,,stimuli/alien_stimuli/16.png,conditions/schedules/train_x_first/x_increasing_steps/top_left/inputInstr_1.xlsx,stimuli/alien_stimuli/16.png,295.92427610000595,295.92427610000595,295.92427610000595,295.92427610000595,295.90732343998974,return,0.995299200003501,"[-0.16, -0.08, 0, 0.08, 0.16, 0.24, 0.32, 0.4, 0.48, 0.56]","[-0.4, -0.32, -0.24, -0.16, -0.08, 0, 0.08, 0.16, 0.24, 0.32]",3,3,0,0,0.0,0.0,297.0242580000195,297.0242580000195,297.0242580000195,297.0242580000195,297.0242580000195,297.0242580000195,297.0242580000195,297.00712339999154,0.9507596000330523,return,0.846174499951303,stimuli/alien_stimuli/16.png,16,0,2,,,,,,,,,,,,,,,,,,,,,,,,,,,,,,,,,,,,,,,,,,,,,,,,,,,,,,,,,,,,,,A,train_x,x_increasing_steps,top_left,2024-10-29_19h03.39.056,HideSeek_v1,2022.2.5,59.94420393580163,
,,,,,,,,,,,30,4,0,4,0,,,,,,,,,,,,,,,,,,,,,,,,,,,,,,,,,,,,,,,,,,,,,,,,,,,,,,,,,,,,,,,,,,17,0.7,1.0416666666666667,1,99,2,30,0,conditions/schedules/train_x_first/x_increasing_steps/top_left/inputTrain_2.1.xlsx,99,1,2,1,0,,,,,,,,,,,,,,,,,,,,,,,,,,,,,,,,,,,,,,,,,,,,,,,,A,train_x,x_increasing_steps,top_left,2024-10-29_19h03.39.056,HideSeek_v1,2022.2.5,59.94420393580163,
,,,,,,,,,,,,5,0,5,0,0,0,0,0,,,,,,,,,,,,,,,,,,,conditions/schedules/train_x_first/x_increasing_steps/top_left/instructions/Slide22.png,conditions/schedules/train_x_first/x_increasing_steps/top_left/instructions/Audio22.wav,298.00626100000227,298.0068448800128,22,"[2.222557000000961, 0.37283649999881163, 0.3503663000301458, 0.3822194999665953, 0.37193990004016086, 0.31920460000401363, 0.32394079997902736, 0.2971489999908954, 0.419996100012213, 0.563549000013154, 0.4168801999767311, 1.2692770999856293, 1.1204813999938779, 1.6445780000067316, 1.638595299969893, 1.2941484000184573, 1.882564299972728, 1.1196420000051148, 1.7409790999954566, 3.343262300011702, 4.0343110000249, 4.983439899981022]","[0.0004362999461591244, 0.0002133999951183796, 0.08183189999544993, 0.08820580004248768, 0.08545190002769232, 0.07290889997966588, 0.00023689999943599105, 0.06939120002789423, 0.014598699985072017, 0.04939199995715171, 0.08617759996559471, 1.2692832999746315, 0.015266300004441291, 1.6445872000185773, 0.07698080001864582, 1.2941557000158355, 1.8825765999499708, 0.07457960001192987, 0.07677350001176819, 3.343267399992328, 4.034317800018471, 4.983448299986776]",0,,,,,,,,,,,,,,,,,,,,,,,,,,,,,,,,,,,,,,,,,,,,,,,,,,,,,,,,,,,,,,,,,,,,,,,,,,,,,,,,,,,,,,,,,,,,,,,,,A,train_x,x_increasing_steps,top_left,2024-10-29_19h03.39.056,HideSeek_v1,2022.2.5,59.94420393580163,
,2,1,4,1,2,0,36,,train_dim1_1,1,30,5,0,5,0,,,,,,,,,0,0,0,0,0,0,0,0,0,0,0,0,,,,,,,,,,,,,stimuli/alien_stimuli/36.png,,,,,,,,,,,,,,,,,,,,,,,,,,,,,,,,,,,,,,,30,,,,,,,,303.0744453999796,303.0744453999796,303.0744453999796,303.0744453999796,303.0744453999796,return,3.056219299964141,0,0,0,0,0,-0.32,return,2.9603036000044085,0,70,0,-0.32,,,,,,,,,,,,,,,,,,,,,,,,,,,,,A,train_x,x_increasing_steps,top_left,2024-10-29_19h03.39.056,HideSeek_v1,2022.2.5,59.94420393580163,
,,,,,,,,,,,,,,,,,,,,,,,,,,,,,,,,,,,,,,,,,,,,,,,,,,,,,,,,,,,,,,,,,,,,,,,,,,,,,,,,,,,,,,,,,,,,,,,,,,,,,,,,,0,,,,,,,,,306.07401779998327,307.690892899991,0.16,-0.32,0.0,0.16,-0.32,0.16,0.08,0.16,-0.32,307.690892899991,307.690892899991,307.690892899991,307.690892899991,307.690892899991,307.690892899991,307.690892899991,307.690892899991,307.64064009999856,,,,,,,,,,,,,,,,,
