trialInstr,x_fixStart,y_fixStart,x_corrSteps,y_corrSteps,x_nrSteps,y_nrSteps,alienID,trialLength,version,trialTrain,praclen,beforeExpLoop.thisRepN,beforeExpLoop.thisTrialN,beforeExpLoop.thisN,beforeExpLoop.thisIndex,mini_instr_trials.thisRepN,mini_instr_trials.thisTrialN,mini_instr_trials.thisN,mini_instr_trials.thisIndex,instrLoop.thisRepN,instrLoop.thisTrialN,instrLoop.thisN,instrLoop.thisIndex,repeat_prac.thisRepN,repeat_prac.thisTrialN,repeat_prac.thisN,repeat_prac.thisIndex,trainLoop.thisRepN,trainLoop.thisTrialN,trainLoop.thisN,trainLoop.thisIndex,moveLoop_train.thisRepN,moveLoop_train.thisTrialN,moveLoop_train.thisN,moveLoop_train.thisIndex,start_all_time,url,slideStim,audioStim,slides.started,sounds.started,nextButton.numClicks,nextButton.timesOn,nextButton.timesOff,prev_but.numClicks,prev_but.timesOn,prev_but.timesOff,alienStim,instrFile,alienStim_instr,gridImage_instr.started,startPos_3.started,key_instr.started,alienImage_3.started,sounds_1.started,key_instr.keys,key_instr.rt,all_x,all_y,FBy_corrSteps,FBy_fixStart,FBx_corrSteps,FBx_fixStart,FBy_pathSize_check,FBx_pathSize_check,gridImage_9.started,alienImageFB_3.started,startPosFB_3.started,keyFB_3.started,pathLine_ydir_2.started,pathLine_xdir_2.started,alienFace_3.started,sounds_2.started,RTFB_instr,keyFB_3.keys,keyFB_3.rt,draw_alienStim,draw_alienID,test_x,nrepcount,perfthres,percthres,earlierperf,earlystop,nextPrac,fileidx,praclen,saveACC_train,pracFile,nextPrac_train,addNrep,fileidx_endr,repExp,showearly,gridImage_4.started,startPos.started,movePos.started,key_resp.started,alienImage.started,buttonPress_train,RTchoice_train,cumAcctrain,aCorr,saveACC_choice,corrAns,x_movePos_end,y_movePos_end,key_resp.keys,key_resp.rt,wLy_dir,wLx_dir,x_movePos,y_movePos,text_2.started,text_2.stopped,aft_x_corrPos,aft_y_corrPos,y_pathSize_check,x_pathSize_check,y_pathdirY,x_pathdirY,x_pathdirX,x_corrPos,y_corrPos,gridImage_6.started,alienImageFB_2.started,startPosFB_2.started,movePosFB_2.started,keyFB_2.started,pathLine_xdir.started,pathLine_ydir.started,alienFace.started,sounds_4.started,RT_FBtrain,keyFB_2.keys,keyFB_2.rt,saveACC_pre,ACC,within_saveACC_train,earlystop_wloop,cumAcctrain_check,participant,train_first,direction of x,starting corner,date,expName,psychopyVersion,frameRate,
,,,,,,,,,,,,0,0,0,0,0,0,0,0,,,,,,,,,,,,,,,,,start_all_time,testround,conditions/schedules/train_x_first/x_increasing_steps/top_left/instructions/Slide1.png,conditions/schedules/train_x_first/x_increasing_steps/top_left/instructions/Audio1.wav,44.4022633000277,44.28384392011212,1,[8.242597399977967],[8.242607199994382],0,,,,,,,,,,,,,,,,,,,,,,,,,,,,,,,,,,,,,,,,,,,,,,,,,,,,,,,,,,,,,,,,,,,,,,,,,,,,,,,,,,,,,,,,,,,,,,,,,A,train_x,x_increasing_steps,top_left,2024-10-29_20h58.18.324,HideSeek_v1,2022.2.5,60.55028094212031,
,,,,,,,,,,,,0,0,0,0,1,0,1,0,,,,,,,,,,,,,,,,,,,conditions/schedules/train_x_first/x_increasing_steps/top_left/instructions/Slide2.png,conditions/schedules/train_x_first/x_increasing_steps/top_left/instructions/Audio2.wav,52.61844769999152,52.60094765003305,2,"[8.242597399977967, 0.29386729997349903]","[0.00032439996721222997, 0.29388219997053966]",0,,,,,,,,,,,,,,,,,,,,,,,,,,,,,,,,,,,,,,,,,,,,,,,,,,,,,,,,,,,,,,,,,,,,,,,,,,,,,,,,,,,,,,,,,,,,,,,,,A,train_x,x_increasing_steps,top_left,2024-10-29_20h58.18.324,HideSeek_v1,2022.2.5,60.55028094212031,
,,,,,,,,,,,,0,0,0,0,2,0,2,0,,,,,,,,,,,,,,,,,,,conditions/schedules/train_x_first/x_increasing_steps/top_left/instructions/Slide3.png,conditions/schedules/train_x_first/x_increasing_steps/top_left/instructions/Audio3.wav,52.985107300046366,52.96756295004161,3,"[8.242597399977967, 0.29386729997349903, 0.3122226999839768]","[0.00032439996721222997, 0.0002523000002838671, 0.312231799995061]",0,,,,,,,,,,,,,,,,,,,,,,,,,,,,,,,,,,,,,,,,,,,,,,,,,,,,,,,,,,,,,,,,,,,,,,,,,,,,,,,,,,,,,,,,,,,,,,,,,A,train_x,x_increasing_steps,top_left,2024-10-29_20h58.18.324,HideSeek_v1,2022.2.5,60.55028094212031,
,,,,,,,,,,,,0,0,0,0,3,0,3,0,,,,,,,,,,,,,,,,,,,conditions/schedules/train_x_first/x_increasing_steps/top_left/instructions/Slide4.png,conditions/schedules/train_x_first/x_increasing_steps/top_left/instructions/Audio4.wav,53.358249000040814,53.35093435004819,4,"[8.242597399977967, 0.29386729997349903, 0.3122226999839768, 0.2947897000121884]","[0.00032439996721222997, 0.0002523000002838671, 0.04440710000926629, 0.29479940002784133]",0,,,,,,,,,,,,,,,,,,,,,,,,,,,,,,,,,,,,,,,,,,,,,,,,,,,,,,,,,,,,,,,,,,,,,,,,,,,,,,,,,,,,,,,,,,,,,,,,,A,train_x,x_increasing_steps,top_left,2024-10-29_20h58.18.324,HideSeek_v1,2022.2.5,60.55028094212031,
,,,,,,,,,,,,0,0,0,0,4,0,4,0,,,,,,,,,,,,,,,,,,,conditions/schedules/train_x_first/x_increasing_steps/top_left/instructions/Slide5.png,conditions/schedules/train_x_first/x_increasing_steps/top_left/instructions/Audio5.wav,53.71854040003382,53.7008249800303,5,"[8.242597399977967, 0.29386729997349903, 0.3122226999839768, 0.2947897000121884, 0.2789629000471905]","[0.00032439996721222997, 0.0002523000002838671, 0.04440710000926629, 0.024343900033272803, 0.27897280000615865]",0,,,,,,,,,,,,,,,,,,,,,,,,,,,,,,,,,,,,,,,,,,,,,,,,,,,,,,,,,,,,,,,,,,,,,,,,,,,,,,,,,,,,,,,,,,,,,,,,,A,train_x,x_increasing_steps,top_left,2024-10-29_20h58.18.324,HideSeek_v1,2022.2.5,60.55028094212031,
,,,,,,,,,,,,0,0,0,0,5,0,5,0,,,,,,,,,,,,,,,,,,,conditions/schedules/train_x_first/x_increasing_steps/top_left/instructions/Slide6.png,conditions/schedules/train_x_first/x_increasing_steps/top_left/instructions/Audio6.wav,54.05326770001557,54.050847950042225,6,"[8.242597399977967, 0.29386729997349903, 0.3122226999839768, 0.2947897000121884, 0.2789629000471905, 0.2660273999790661]","[0.00032439996721222997, 0.0002523000002838671, 0.04440710000926629, 0.024343900033272803, 0.01724150002701208, 0.2660378000000492]",0,,,,,,,,,,,,,,,,,,,,,,,,,,,,,,,,,,,,,,,,,,,,,,,,,,,,,,,,,,,,,,,,,,,,,,,,,,,,,,,,,,,,,,,,,,,,,,,,,A,train_x,x_increasing_steps,top_left,2024-10-29_20h58.18.324,HideSeek_v1,2022.2.5,60.55028094212031,
,,,,,,,,,,,,0,0,0,0,6,0,6,0,,,,,,,,,,,,,,,,,,,conditions/schedules/train_x_first/x_increasing_steps/top_left/instructions/Slide7.png,conditions/schedules/train_x_first/x_increasing_steps/top_left/instructions/Audio7.wav,54.385091400006786,54.36770848003216,7,"[8.242597399977967, 0.29386729997349903, 0.3122226999839768, 0.2947897000121884, 0.2789629000471905, 0.2660273999790661, 0.29437989997677505]","[0.00032439996721222997, 0.0002523000002838671, 0.04440710000926629, 0.024343900033272803, 0.01724150002701208, 0.024987499986309558, 0.2943899999954738]",0,,,,,,,,,,,,,,,,,,,,,,,,,,,,,,,,,,,,,,,,,,,,,,,,,,,,,,,,,,,,,,,,,,,,,,,,,,,,,,,,,,,,,,,,,,,,,,,,,A,train_x,x_increasing_steps,top_left,2024-10-29_20h58.18.324,HideSeek_v1,2022.2.5,60.55028094212031,
,,,,,,,,,,,,0,0,0,0,7,0,7,0,,,,,,,,,,,,,,,,,,,conditions/schedules/train_x_first/x_increasing_steps/top_left/instructions/Slide8.png,conditions/schedules/train_x_first/x_increasing_steps/top_left/instructions/Audio8.wav,54.78560140001355,54.76693679004674,8,"[8.242597399977967, 0.29386729997349903, 0.3122226999839768, 0.2947897000121884, 0.2789629000471905, 0.2660273999790661, 0.29437989997677505, 0.21007509995251894]","[0.00032439996721222997, 0.0002523000002838671, 0.04440710000926629, 0.024343900033272803, 0.01724150002701208, 0.024987499986309558, 0.2943899999954738, 0.21010889997705817]",0,,,,,,,,,,,,,,,,,,,,,,,,,,,,,,,,,,,,,,,,,,,,,,,,,,,,,,,,,,,,,,,,,,,,,,,,,,,,,,,,,,,,,,,,,,,,,,,,,A,train_x,x_increasing_steps,top_left,2024-10-29_20h58.18.324,HideSeek_v1,2022.2.5,60.55028094212031,
,,,,,,,,,,,,0,0,0,0,8,0,8,0,,,,,,,,,,,,,,,,,,,conditions/schedules/train_x_first/x_increasing_steps/top_left/instructions/Slide9.png,conditions/schedules/train_x_first/x_increasing_steps/top_left/instructions/Audio9.wav,55.050501200021245,55.0342693800223,9,"[8.242597399977967, 0.29386729997349903, 0.3122226999839768, 0.2947897000121884, 0.2789629000471905, 0.2660273999790661, 0.29437989997677505, 0.21007509995251894, 0.2696861000149511]","[0.00032439996721222997, 0.0002523000002838671, 0.04440710000926629, 0.024343900033272803, 0.01724150002701208, 0.024987499986309558, 0.2943899999954738, 0.05150410003261641, 0.2696982999914326]",0,,,,,,,,,,,,,,,,,,,,,,,,,,,,,,,,,,,,,,,,,,,,,,,,,,,,,,,,,,,,,,,,,,,,,,,,,,,,,,,,,,,,,,,,,,,,,,,,,A,train_x,x_increasing_steps,top_left,2024-10-29_20h58.18.324,HideSeek_v1,2022.2.5,60.55028094212031,
,,,,,,,,,,,,0,0,0,0,9,0,9,0,,,,,,,,,,,,,,,,,,,conditions/schedules/train_x_first/x_increasing_steps/top_left/instructions/Slide10.png,conditions/schedules/train_x_first/x_increasing_steps/top_left/instructions/Audio10.wav,55.36370750004426,55.35114621001994,10,"[8.242597399977967, 0.29386729997349903, 0.3122226999839768, 0.2947897000121884, 0.2789629000471905, 0.2660273999790661, 0.29437989997677505, 0.21007509995251894, 0.2696861000149511, 0.2895562000339851]","[0.00032439996721222997, 0.0002523000002838671, 0.04440710000926629, 0.024343900033272803, 0.01724150002701208, 0.024987499986309558, 0.2943899999954738, 0.05150410003261641, 0.055722500022966415, 0.2895667999982834]",0,,,,,,,,,,,,,,,,,,,,,,,,,,,,,,,,,,,,,,,,,,,,,,,,,,,,,,,,,,,,,,,,,,,,,,,,,,,,,,,,,,,,,,,,,,,,,,,,,A,train_x,x_increasing_steps,top_left,2024-10-29_20h58.18.324,HideSeek_v1,2022.2.5,60.55028094212031,
,,,,,,,,,,,,0,0,0,0,10,0,10,0,,,,,,,,,,,,,,,,,,,conditions/schedules/train_x_first/x_increasing_steps/top_left/instructions/Slide11.png,conditions/schedules/train_x_first/x_increasing_steps/top_left/instructions/Audio11.wav,55.71874000004027,55.70119487999472,11,"[8.242597399977967, 0.29386729997349903, 0.3122226999839768, 0.2947897000121884, 0.2789629000471905, 0.2660273999790661, 0.29437989997677505, 0.21007509995251894, 0.2696861000149511, 0.2895562000339851, 0.28810710000107065]","[0.00032439996721222997, 0.0002523000002838671, 0.04440710000926629, 0.024343900033272803, 0.01724150002701208, 0.024987499986309558, 0.2943899999954738, 0.05150410003261641, 0.055722500022966415, 0.01981520000845194, 0.2881201999844052]",0,,,,,,,,,,,,,,,,,,,,,,,,,,,,,,,,,,,,,,,,,,,,,,,,,,,,,,,,,,,,,,,,,,,,,,,,,,,,,,,,,,,,,,,,,,,,,,,,,A,train_x,x_increasing_steps,top_left,2024-10-29_20h58.18.324,HideSeek_v1,2022.2.5,60.55028094212031,
,,,,,,,,,,,,0,0,0,0,11,0,11,0,,,,,,,,,,,,,,,,,,,conditions/schedules/train_x_first/x_increasing_steps/top_left/instructions/Slide12.png,conditions/schedules/train_x_first/x_increasing_steps/top_left/instructions/Audio12.wav,56.06796970003052,56.06739645003108,12,"[8.242597399977967, 0.29386729997349903, 0.3122226999839768, 0.2947897000121884, 0.2789629000471905, 0.2660273999790661, 0.29437989997677505, 0.21007509995251894, 0.2696861000149511, 0.2895562000339851, 0.28810710000107065, 0.2511769999982789]","[0.00032439996721222997, 0.0002523000002838671, 0.04440710000926629, 0.024343900033272803, 0.01724150002701208, 0.024987499986309558, 0.2943899999954738, 0.05150410003261641, 0.055722500022966415, 0.01981520000845194, 0.01747700001578778, 0.2511860000086017]",0,,,,,,,,,,,,,,,,,,,,,,,,,,,,,,,,,,,,,,,,,,,,,,,,,,,,,,,,,,,,,,,,,,,,,,,,,,,,,,,,,,,,,,,,,,,,,,,,,A,train_x,x_increasing_steps,top_left,2024-10-29_20h58.18.324,HideSeek_v1,2022.2.5,60.55028094212031,
1,3,2,8,2,5,0,66,2,instr_dim1_1,,,0,0,0,0,,,,,0,0,0,0,,,,,,,,,,,,,,,,,,,,,,,,,stimuli/alien_stimuli/66.png,conditions/schedules/train_x_first/x_increasing_steps/top_left/inputInstr_1.xlsx,stimuli/alien_stimuli/66.png,56.43467640003655,56.43467640003655,56.43467640003655,56.43467640003655,56.400794419995506,return,1.0016338999848813,"[-0.16, -0.08, 0, 0.08, 0.16, 0.24, 0.32, 0.4, 0.48, 0.56]","[-0.4, -0.32, -0.24, -0.16, -0.08, 0, 0.08, 0.16, 0.24, 0.32]",2,2,8,3,0.0,0.4,57.68434219999472,57.68434219999472,57.68434219999472,57.68434219999472,57.68434219999472,57.68434219999472,57.68434219999472,57.58361636000918,0.31716710003092885,return,0.07184649998089299,stimuli/alien_stimuli/66.png,66,3,1,,,,,,,,,,,,,,,,,,,,,,,,,,,,,,,,,,,,,,,,,,,,,,,,,,,,,,,,,,,,,,A,train_x,x_increasing_steps,top_left,2024-10-29_20h58.18.324,HideSeek_v1,2022.2.5,60.55028094212031,
,,,,,,,,,,,30,0,0,0,0,,,,,,,,,,,,,,,,,,,,,,,,,,,,,,,,,,,,,,,,,,,,,,,,,,,,,,,,,,,,,,,,,,17,0.7,0,0,99,1,30,0,conditions/schedules/train_x_first/x_increasing_steps/top_left/inputTrain_1.1.xlsx,99,1,1,1,0,,,,,,,,,,,,,,,,,,,,,,,,,,,,,,,,,,,,,,,,,,,,,,,,A,train_x,x_increasing_steps,top_left,2024-10-29_20h58.18.324,HideSeek_v1,2022.2.5,60.55028094212031,
,,,,,,,,,,,,1,0,1,0,0,0,0,0,,,,,,,,,,,,,,,,,,,conditions/schedules/train_x_first/x_increasing_steps/top_left/instructions/Slide13.png,conditions/schedules/train_x_first/x_increasing_steps/top_left/instructions/Audio13.wav,57.92747870000312,57.916230630001515,13,"[8.242597399977967, 0.29386729997349903, 0.3122226999839768, 0.2947897000121884, 0.2789629000471905, 0.2660273999790661, 0.29437989997677505, 0.21007509995251894, 0.2696861000149511, 0.2895562000339851, 0.28810710000107065, 0.2511769999982789, 0.4112121000071056]","[0.00032439996721222997, 0.0002523000002838671, 0.04440710000926629, 0.024343900033272803, 0.01724150002701208, 0.024987499986309558, 0.2943899999954738, 0.05150410003261641, 0.055722500022966415, 0.01981520000845194, 0.01747700001578778, 0.2511860000086017, 0.4112267000018619]",0,,,,,,,,,,,,,,,,,,,,,,,,,,,,,,,,,,,,,,,,,,,,,,,,,,,,,,,,,,,,,,,,,,,,,,,,,,,,,,,,,,,,,,,,,,,,,,,,,A,train_x,x_increasing_steps,top_left,2024-10-29_20h58.18.324,HideSeek_v1,2022.2.5,60.55028094212031,
,,,,,,,,,,,,1,0,1,0,1,0,1,0,,,,,,,,,,,,,,,,,,,conditions/schedules/train_x_first/x_increasing_steps/top_left/instructions/Slide14.png,conditions/schedules/train_x_first/x_increasing_steps/top_left/instructions/Audio14.wav,58.40747660002671,58.400594050006475,14,"[8.242597399977967, 0.29386729997349903, 0.3122226999839768, 0.2947897000121884, 0.2789629000471905, 0.2660273999790661, 0.29437989997677505, 0.21007509995251894, 0.2696861000149511, 0.2895562000339851, 0.28810710000107065, 0.2511769999982789, 0.4112121000071056, 0.3482703000190668]","[0.00032439996721222997, 0.0002523000002838671, 0.04440710000926629, 0.024343900033272803, 0.01724150002701208, 0.024987499986309558, 0.2943899999954738, 0.05150410003261641, 0.055722500022966415, 0.01981520000845194, 0.01747700001578778, 0.2511860000086017, 0.4112267000018619, 0.3482780000194907]",0,,,,,,,,,,,,,,,,,,,,,,,,,,,,,,,,,,,,,,,,,,,,,,,,,,,,,,,,,,,,,,,,,,,,,,,,,,,,,,,,,,,,,,,,,,,,,,,,,A,train_x,x_increasing_steps,top_left,2024-10-29_20h58.18.324,HideSeek_v1,2022.2.5,60.55028094212031,
2,4,0,4,0,0,0,16,2,instr_dim1_1,,,1,0,1,0,,,,,0,0,0,0,,,,,,,,,,,,,,,,,,,,,,,,,stimuli/alien_stimuli/16.png,conditions/schedules/train_x_first/x_increasing_steps/top_left/inputInstr_1.xlsx,stimuli/alien_stimuli/16.png,58.90131139999721,58.90131139999721,58.90131139999721,58.90131139999721,58.85069549004547,return,0.5408479000325315,"[-0.16, -0.08, 0, 0.08, 0.16, 0.24, 0.32, 0.4, 0.48, 0.56]","[-0.4, -0.32, -0.24, -0.16, -0.08, 0, 0.08, 0.16, 0.24, 0.32]",0,0,4,4,0.0,0.0,59.752875400008634,59.752875400008634,59.752875400008634,59.752875400008634,59.752875400008634,59.752875400008634,59.752875400008634,59.58325495999306,0.6686288000200875,return,0.3619487999822013,stimuli/alien_stimuli/16.png,16,4,2,,,,,,,,,,,,,,,,,,,,,,,,,,,,,,,,,,,,,,,,,,,,,,,,,,,,,,,,,,,,,,A,train_x,x_increasing_steps,top_left,2024-10-29_20h58.18.324,HideSeek_v1,2022.2.5,60.55028094212031,
,,,,,,,,,,,30,1,0,1,0,,,,,,,,,,,,,,,,,,,,,,,,,,,,,,,,,,,,,,,,,,,,,,,,,,,,,,,,,,,,,,,,,,17,0.7,0,0,99,1,30,0,conditions/schedules/train_x_first/x_increasing_steps/top_left/inputTrain_1.1.xlsx,99,1,1,1,0,,,,,,,,,,,,,,,,,,,,,,,,,,,,,,,,,,,,,,,,,,,,,,,,A,train_x,x_increasing_steps,top_left,2024-10-29_20h58.18.324,HideSeek_v1,2022.2.5,60.55028094212031,
,,,,,,,,,,,,2,0,2,0,0,0,0,0,,,,,,,,,,,,,,,,,,,conditions/schedules/train_x_first/x_increasing_steps/top_left/instructions/Slide15.png,conditions/schedules/train_x_first/x_increasing_steps/top_left/instructions/Audio15.wav,60.28740430000471,60.283701700042,15,"[8.242597399977967, 0.29386729997349903, 0.3122226999839768, 0.2947897000121884, 0.2789629000471905, 0.2660273999790661, 0.29437989997677505, 0.21007509995251894, 0.2696861000149511, 0.2895562000339851, 0.28810710000107065, 0.2511769999982789, 0.4112121000071056, 0.3482703000190668, 0.9510402000159957]","[0.00032439996721222997, 0.0002523000002838671, 0.04440710000926629, 0.024343900033272803, 0.01724150002701208, 0.024987499986309558, 0.2943899999954738, 0.05150410003261641, 0.055722500022966415, 0.01981520000845194, 0.01747700001578778, 0.2511860000086017, 0.4112267000018619, 0.3482780000194907, 0.951048000017181]",0,,,,,,,,,,,,,,,,,,,,,,,,,,,,,,,,,,,,,,,,,,,,,,,,,,,,,,,,,,,,,,,,,,,,,,,,,,,,,,,,,,,,,,,,,,,,,,,,,A,train_x,x_increasing_steps,top_left,2024-10-29_20h58.18.324,HideSeek_v1,2022.2.5,60.55028094212031,
,,,,,,,,,,,,2,0,2,0,1,0,1,0,,,,,,,,,,,,,,,,,,,conditions/schedules/train_x_first/x_increasing_steps/top_left/instructions/Slide16.png,conditions/schedules/train_x_first/x_increasing_steps/top_left/instructions/Audio16.wav,61.30483640002785,61.30120235000504,16,"[8.242597399977967, 0.29386729997349903, 0.3122226999839768, 0.2947897000121884, 0.2789629000471905, 0.2660273999790661, 0.29437989997677505, 0.21007509995251894, 0.2696861000149511, 0.2895562000339851, 0.28810710000107065, 0.2511769999982789, 0.4112121000071056, 0.3482703000190668, 0.9510402000159957, 0.3647935999906622]","[0.00032439996721222997, 0.0002523000002838671, 0.04440710000926629, 0.024343900033272803, 0.01724150002701208, 0.024987499986309558, 0.2943899999954738, 0.05150410003261641, 0.055722500022966415, 0.01981520000845194, 0.01747700001578778, 0.2511860000086017, 0.4112267000018619, 0.3482780000194907, 0.06478890002472326, 0.36480260000098497]",0,,,,,,,,,,,,,,,,,,,,,,,,,,,,,,,,,,,,,,,,,,,,,,,,,,,,,,,,,,,,,,,,,,,,,,,,,,,,,,,,,,,,,,,,,,,,,,,,,A,train_x,x_increasing_steps,top_left,2024-10-29_20h58.18.324,HideSeek_v1,2022.2.5,60.55028094212031,
,2,1,4,1,2,0,36,,train_dim1_1,1,30,2,0,2,0,,,,,,,,,0,0,0,0,0,0,0,0,0,0,0,0,,,,,,,,,,,,,stimuli/alien_stimuli/36.png,,,,,,,,,,,,,,,,,,,,,,,,,,,,,,,,,,,,,,,30,,,,,,,,61.76806990004843,61.76806990004843,61.76806990004843,61.76806990004843,61.76806990004843,right,1.1745024000410922,0,0,0,99,0.08,-0.32,right,1.0721689999918453,,,,,,,,,,,,,,,,,,,,,,,,,,,,,,,,,A,train_x,x_increasing_steps,top_left,2024-10-29_20h58.18.324,HideSeek_v1,2022.2.5,60.55028094212031,
,2,1,4,1,2,0,36,,train_dim1_1,1,30,2,0,2,0,,,,,,,,,0,0,0,0,0,0,0,0,1,0,1,0,,,,,,,,,,,,,,,,,,,,,,,,,,,,,,,,,,,,,,,,,,,,,,,,,,,,30,,,,,,,,62.951419899996836,62.951419899996836,62.951419899996836,62.951419899996836,62.951419899996836,right,0.4573641999741085,0,0,0,99,0.16,-0.32,right,0.35516580002149567,,,,,,,,,,,,,,,,,,,,,,,,,,,,,,,,,A,train_x,x_increasing_steps,top_left,2024-10-29_20h58.18.324,HideSeek_v1,2022.2.5,60.55028094212031,
,2,1,4,1,2,0,36,,train_dim1_1,1,30,2,0,2,0,,,,,,,,,0,0,0,0,0,0,0,0,2,0,2,0,,,,,,,,,,,,,,,,,,,,,,,,,,,,,,,,,,,,,,,,,,,,,,,,,,,,30,,,,,,,,63.41139070002828,63.41139070002828,63.41139070002828,63.41139070002828,63.41139070002828,return,2.7727509000105783,1,0,0,1,0.16,-0.32,return,2.6885426999651827,0,2,0.16,-0.32,,,,,,,,,,,,,,,,,,,,,,,,,,,,,A,train_x,x_increasing_steps,top_left,2024-10-29_20h58.18.324,HideSeek_v1,2022.2.5,60.55028094212031,
,2,4,2,4,0,0,16,,train_dim1_1,2,30,2,0,2,0,,,,,,,,,0,0,0,0,0,1,1,1,0,0,0,0,,,,,,,,,,,,,stimuli/alien_stimuli/16.png,,,,,,,,,,,,,,,,,,,,,,,,,,,,,stimuli/alien_stimuli/36.png,36,2,3,,,,,,,30,,,,,,,,69.76846749999095,69.76846749999095,69.76846749999095,69.76846749999095,69.76846749999095,return,0.8037196000223048,2,0,0,1,0,-0.08,return,0.6220764000318013,0,2,0,-0.08,68.11761030001799,69.76846749999095,0.16,-0.32,0.0,0.16,-0.32,0.16,0.08,0.16,-0.32,67.7645795000135,67.7645795000135,67.7645795000135,67.7645795000135,67.7645795000135,67.7645795000135,67.7645795000135,67.7645795000135,67.73408349000383,0.48545420001028106,return,0.3220885999617167,,,,,,A,train_x,x_increasing_steps,top_left,2024-10-29_20h58.18.324,HideSeek_v1,2022.2.5,60.55028094212031,
,4,4,5,4,1,0,26,,train_dim1_1,3,30,2,0,2,0,,,,,,,,,0,0,0,0,0,2,2,2,0,0,0,0,,,,,,,,,,,,,stimuli/alien_stimuli/26.png,,,,,,,,,,,,,,,,,,,,,,,,,,,,,stimuli/alien_stimuli/16.png,16,2,4,,,,,,,30,,,,,,,,74.05485100002261,74.05485100002261,74.05485100002261,74.05485100002261,74.05485100002261,right,0.6701228999882005,2,0,0,99,0.24,-0.08,right,0.5238485999871045,,,,,72.43456419999711,74.05485100002261,0,-0.08,0.0,0.0,-0.08,0,0.0,0,-0.08,72.12039689999074,72.12039689999074,72.12039689999074,72.12039689999074,72.12039689999074,72.12039689999074,72.12039689999074,72.12039689999074,72.03368099001236,0.5019982999656349,return,0.28267399995820597,,,,,,A,train_x,x_increasing_steps,top_left,2024-10-29_20h58.18.324,HideSeek_v1,2022.2.5,60.55028094212031,
,4,4,5,4,1,0,26,,train_dim1_1,3,30,2,0,2,0,,,,,,,,,0,0,0,0,0,2,2,2,1,0,1,0,,,,,,,,,,,,,,,,,,,,,,,,,,,,,,,,,,,,,,,,,,,,,,,,,,,,30,,,,,,,,74.69021860003704,74.69021860003704,74.69021860003704,74.69021860003704,74.69021860003704,return,0.2572362000355497,3,0,0,1,0.24,-0.08,return,0.1497910000034608,0,3,0.24,-0.08,,,,,,,,,,,,,,,,,,,,,,,,,,,,,A,train_x,x_increasing_steps,top_left,2024-10-29_20h58.18.324,HideSeek_v1,2022.2.5,60.55028094212031,
,2,3,5,3,3,0,46,,train_dim1_1,4,30,2,0,2,0,,,,,,,,,0,0,0,0,0,3,3,3,0,0,0,0,,,,,,,,,,,,,stimuli/alien_stimuli/46.png,,,,,,,,,,,,,,,,,,,,,,,,,,,,,stimuli/alien_stimuli/26.png,26,4,5,,,,,,,30,,,,,,,,78.68424090003828,78.68424090003828,78.68424090003828,78.68424090003828,78.68424090003828,right,0.9038656000047922,3,0,0,99,0.08,-0.16,right,0.7425824999809265,,,,,77.05099220003467,78.68424090003828,0.24,-0.08,0.0,0.08,-0.08,0.24,0.2,0.24,-0.08,76.65264240000397,76.65264240000397,76.65264240000397,76.65264240000397,76.65264240000397,76.65264240000397,76.65264240000397,76.65264240000397,76.5004947600304,0.6684836999629624,return,0.37203269999008626,,,,,,A,train_x,x_increasing_steps,top_left,2024-10-29_20h58.18.324,HideSeek_v1,2022.2.5,60.55028094212031,
,2,3,5,3,3,0,46,,train_dim1_1,4,30,2,0,2,0,,,,,,,,,0,0,0,0,0,3,3,3,1,0,1,0,,,,,,,,,,,,,,,,,,,,,,,,,,,,,,,,,,,,,,,,,,,,,,,,,,,,30,,,,,,,,79.52366310002981,79.52366310002981,79.52366310002981,79.52366310002981,79.52366310002981,right,0.2410029000020586,3,0,0,99,0.16,-0.16,right,0.15364169998792931,,,,,,,,,,,,,,,,,,,,,,,,,,,,,,,,,A,train_x,x_increasing_steps,top_left,2024-10-29_20h58.18.324,HideSeek_v1,2022.2.5,60.55028094212031,
,2,3,5,3,3,0,46,,train_dim1_1,4,30,2,0,2,0,,,,,,,,,0,0,0,0,0,3,3,3,2,0,2,0,,,,,,,,,,,,,,,,,,,,,,,,,,,,,,,,,,,,,,,,,,,,,,,,,,,,30,,,,,,,,79.78490850003436,79.78490850003436,79.78490850003436,79.78490850003436,79.78490850003436,right,0.2080528000369668,3,0,0,99,0.24,-0.16,right,0.11734200001228601,,,,,,,,,,,,,,,,,,,,,,,,,,,,,,,,,A,train_x,x_increasing_steps,top_left,2024-10-29_20h58.18.324,HideSeek_v1,2022.2.5,60.55028094212031,
,2,3,5,3,3,0,46,,train_dim1_1,4,30,2,0,2,0,,,,,,,,,0,0,0,0,0,3,3,3,3,0,3,0,,,,,,,,,,,,,,,,,,,,,,,,,,,,,,,,,,,,,,,,,,,,,,,,,,,,30,,,,,,,,79.99470640002983,79.99470640002983,79.99470640002983,79.99470640002983,79.99470640002983,return,0.25765700003830716,4,0,0,1,0.24,-0.16,return,0.16003849997650832,0,6,0.24,-0.16,,,,,,,,,,,,,,,,,,,,,,,,,,,,,A,train_x,x_increasing_steps,top_left,2024-10-29_20h58.18.324,HideSeek_v1,2022.2.5,60.55028094212031,
,0,2,5,2,5,0,66,,train_dim1_1,5,30,2,0,2,0,,,,,,,,,0,0,0,0,0,4,4,4,0,0,0,0,,,,,,,,,,,,,stimuli/alien_stimuli/66.png,,,,,,,,,,,,,,,,,,,,,,,,,,,,,stimuli/alien_stimuli/46.png,46,2,6,,,,,,,30,,,,,,,,84.06223189999582,84.06223189999582,84.06223189999582,84.06223189999582,84.06223189999582,right,0.4873432000167668,4,0,0,99,-0.08,-0.24,right,0.3225220000022091,,,,,82.41750400001183,84.06223189999582,0.24,-0.16,0.0,0.24,-0.16,0.24,0.12,0.24,-0.16,81.92903830000432,81.92903830000432,81.92903830000432,81.92903830000432,81.92903830000432,81.92903830000432,81.92903830000432,81.92903830000432,81.80018298999639,0.7187815000070259,return,0.4596350000356324,,,,,,A,train_x,x_increasing_steps,top_left,2024-10-29_20h58.18.324,HideSeek_v1,2022.2.5,60.55028094212031,
,0,2,5,2,5,0,66,,train_dim1_1,5,30,2,0,2,0,,,,,,,,,0,0,0,0,0,4,4,4,1,0,1,0,,,,,,,,,,,,,,,,,,,,,,,,,,,,,,,,,,,,,,,,,,,,,,,,,,,,30,,,,,,,,84.49210650002351,84.49210650002351,84.49210650002351,84.49210650002351,84.49210650002351,right,0.20799999998416752,4,0,0,99,0.0,-0.24,right,0.10460510000120848,,,,,,,,,,,,,,,,,,,,,,,,,,,,,,,,,A,train_x,x_increasing_steps,top_left,2024-10-29_20h58.18.324,HideSeek_v1,2022.2.5,60.55028094212031,
,0,2,5,2,5,0,66,,train_dim1_1,5,30,2,0,2,0,,,,,,,,,0,0,0,0,0,4,4,4,2,0,2,0,,,,,,,,,,,,,,,,,,,,,,,,,,,,,,,,,,,,,,,,,,,,,,,,,,,,30,,,,,,,,84.69800540001597,84.69800540001597,84.69800540001597,84.69800540001597,84.69800540001597,right,0.19033219997072592,4,0,0,99,0.08,-0.24,right,0.1008921999600716,,,,,,,,,,,,,,,,,,,,,,,,,,,,,,,,,A,train_x,x_increasing_steps,top_left,2024-10-29_20h58.18.324,HideSeek_v1,2022.2.5,60.55028094212031,
,0,2,5,2,5,0,66,,train_dim1_1,5,30,2,0,2,0,,,,,,,,,0,0,0,0,0,4,4,4,3,0,3,0,,,,,,,,,,,,,,,,,,,,,,,,,,,,,,,,,,,,,,,,,,,,,,,,,,,,30,,,,,,,,84.8984124000417,84.8984124000417,84.8984124000417,84.8984124000417,84.8984124000417,right,0.20764620002591982,4,0,0,99,0.16,-0.24,right,0.10821979999309406,,,,,,,,,,,,,,,,,,,,,,,,,,,,,,,,,A,train_x,x_increasing_steps,top_left,2024-10-29_20h58.18.324,HideSeek_v1,2022.2.5,60.55028094212031,
,0,2,5,2,5,0,66,,train_dim1_1,5,30,2,0,2,0,,,,,,,,,0,0,0,0,0,4,4,4,4,0,4,0,,,,,,,,,,,,,,,,,,,,,,,,,,,,,,,,,,,,,,,,,,,,,,,,,,,,30,,,,,,,,85.11377809999976,85.11377809999976,85.11377809999976,85.11377809999976,85.11377809999976,right,0.19192169996676967,4,0,0,99,0.24,-0.24,right,0.09359180001774803,,,,,,,,,,,,,,,,,,,,,,,,,,,,,,,,,A,train_x,x_increasing_steps,top_left,2024-10-29_20h58.18.324,HideSeek_v1,2022.2.5,60.55028094212031,
,0,2,5,2,5,0,66,,train_dim1_1,5,30,2,0,2,0,,,,,,,,,0,0,0,0,0,4,4,4,5,0,5,0,,,,,,,,,,,,,,,,,,,,,,,,,,,,,,,,,,,,,,,,,,,,,,,,,,,,30,,,,,,,,85.31323050003266,85.31323050003266,85.31323050003266,85.31323050003266,85.31323050003266,return,0.7075513000017963,5,0,0,1,0.24,-0.24,return,0.6216385999578051,0,11,0.24,-0.24,,,,,,,,,,,,,,,,,,,,,,,,,,,,,A,train_x,x_increasing_steps,top_left,2024-10-29_20h58.18.324,HideSeek_v1,2022.2.5,60.55028094212031,
,0,0,1,0,1,0,26,,train_dim1_1,6,30,2,0,2,0,,,,,,,,,0,0,0,0,0,5,5,5,0,0,0,0,,,,,,,,,,,,,stimuli/alien_stimuli/26.png,,,,,,,,,,,,,,,,,,,,,,,,,,,,,stimuli/alien_stimuli/66.png,66,0,7,,,,,,,30,,,,,,,,91.1012673000223,91.1012673000223,91.1012673000223,91.1012673000223,91.1012673000223,return,0.9212563000037335,5,1,0,0,-0.16,-0.4,return,0.7817543999990448,0,11,-0.16,-0.4,89.48404750000918,91.1012673000223,0.24,-0.24,0.0,0.4,-0.24,0.24,0.039999999999999994,0.24,-0.24,87.6816225000075,87.6816225000075,87.6816225000075,87.6816225000075,87.6816225000075,87.6816225000075,87.6816225000075,87.6816225000075,87.5999199300306,2.0187267000437714,return,1.7763130000093952,,,,,,A,train_x,x_increasing_steps,top_left,2024-10-29_20h58.18.324,HideSeek_v1,2022.2.5,60.55028094212031,
,3,0,8,0,5,0,66,,train_dim1_1,7,30,2,0,2,0,,,,,,,,,0,0,0,0,0,6,6,6,0,0,0,0,,,,,,,,,,,,,stimuli/alien_stimuli/66.png,,,,,,,,,,,,,,,,,,,,,,,,,,,,,stimuli/alien_stimuli/26.png,26,0,8,,,,,,,30,,,,,,,,95.4702324999962,95.4702324999962,95.4702324999962,95.4702324999962,95.4702324999962,right,0.5539740999811329,5,1,0,99,0.16,-0.4,right,0.42500300001120195,,,,,93.86754280002788,95.4702324999962,-0.08,-0.4,0.0,0.08,-0.4,-0.08,-0.12,-0.08,-0.4,93.6179487000336,93.6179487000336,93.6179487000336,93.6179487000336,93.6179487000336,93.6179487000336,93.6179487000336,93.6179487000336,93.5336171600269,0.45258419995661825,return,0.2324063999694772,,,,,,A,train_x,x_increasing_steps,top_left,2024-10-29_20h58.18.324,HideSeek_v1,2022.2.5,60.55028094212031,
,3,0,8,0,5,0,66,,train_dim1_1,7,30,2,0,2,0,,,,,,,,,0,0,0,0,0,6,6,6,1,0,1,0,,,,,,,,,,,,,,,,,,,,,,,,,,,,,,,,,,,,,,,,,,,,,,,,,,,,30,,,,,,,,96.00103070004843,96.00103070004843,96.00103070004843,96.00103070004843,96.00103070004843,right,0.17411920003360137,5,1,0,99,0.24,-0.4,right,0.0770708000054583,,,,,,,,,,,,,,,,,,,,,,,,,,,,,,,,,A,train_x,x_increasing_steps,top_left,2024-10-29_20h58.18.324,HideSeek_v1,2022.2.5,60.55028094212031,
,3,0,8,0,5,0,66,,train_dim1_1,7,30,2,0,2,0,,,,,,,,,0,0,0,0,0,6,6,6,2,0,2,0,,,,,,,,,,,,,,,,,,,,,,,,,,,,,,,,,,,,,,,,,,,,,,,,,,,,30,,,,,,,,96.17936950002331,96.17936950002331,96.17936950002331,96.17936950002331,96.17936950002331,right,0.15794880001340061,5,1,0,99,0.32,-0.4,right,0.06619310000678524,,,,,,,,,,,,,,,,,,,,,,,,,,,,,,,,,A,train_x,x_increasing_steps,top_left,2024-10-29_20h58.18.324,HideSeek_v1,2022.2.5,60.55028094212031,
,3,0,8,0,5,0,66,,train_dim1_1,7,30,2,0,2,0,,,,,,,,,0,0,0,0,0,6,6,6,3,0,3,0,,,,,,,,,,,,,,,,,,,,,,,,,,,,,,,,,,,,,,,,,,,,,,,,,,,,30,,,,,,,,96.34917850000784,96.34917850000784,96.34917850000784,96.34917850000784,96.34917850000784,right,0.15820439998060465,5,1,0,99,0.4,-0.4,right,0.05526049999753013,,,,,,,,,,,,,,,,,,,,,,,,,,,,,,,,,A,train_x,x_increasing_steps,top_left,2024-10-29_20h58.18.324,HideSeek_v1,2022.2.5,60.55028094212031,
,3,0,8,0,5,0,66,,train_dim1_1,7,30,2,0,2,0,,,,,,,,,0,0,0,0,0,6,6,6,4,0,4,0,,,,,,,,,,,,,,,,,,,,,,,,,,,,,,,,,,,,,,,,,,,,,,,,,,,,30,,,,,,,,96.51957940001739,96.51957940001739,96.51957940001739,96.51957940001739,96.51957940001739,right,0.14162710000528023,5,1,0,99,0.48000000000000004,-0.4,right,0.04120009997859597,,,,,,,,,,,,,,,,,,,,,,,,,,,,,,,,,A,train_x,x_increasing_steps,top_left,2024-10-29_20h58.18.324,HideSeek_v1,2022.2.5,60.55028094212031,
,3,0,8,0,5,0,66,,train_dim1_1,7,30,2,0,2,0,,,,,,,,,0,0,0,0,0,6,6,6,5,0,5,0,,,,,,,,,,,,,,,,,,,,,,,,,,,,,,,,,,,,,,,,,,,,,,,,,,,,30,,,,,,,,96.66645880002761,96.66645880002761,96.66645880002761,96.66645880002761,96.66645880002761,return,0.4569124999688938,6,0,0,1,0.48000000000000004,-0.4,return,0.3537436999613419,0,16,0.48000000000000004,-0.4,,,,,,,,,,,,,,,,,,,,,,,,,,,,,A,train_x,x_increasing_steps,top_left,2024-10-29_20h58.18.324,HideSeek_v1,2022.2.5,60.55028094212031,
,0,4,2,4,2,0,36,,train_dim1_1,8,30,2,0,2,0,,,,,,,,,0,0,0,0,0,7,7,7,0,0,0,0,,,,,,,,,,,,,stimuli/alien_stimuli/36.png,,,,,,,,,,,,,,,,,,,,,,,,,,,,,stimuli/alien_stimuli/66.png,66,3,9,,,,,,,30,,,,,,,,100.84741210000357,100.84741210000357,100.84741210000357,100.84741210000357,100.84741210000357,right,0.7043031000066549,6,0,0,99,-0.08,-0.08,right,0.5768489000038244,,,,,99.25065220001852,100.84741210000357,0.48,-0.4,0.0,0.4,-0.4,0.48,0.27999999999999997,0.48,-0.4,98.76856580004096,98.76856580004096,98.76856580004096,98.76856580004096,98.76856580004096,98.76856580004096,98.76856580004096,98.76856580004096,98.66745719001628,0.6846540999831632,return,0.45476439996855333,,,,,,A,train_x,x_increasing_steps,top_left,2024-10-29_20h58.18.324,HideSeek_v1,2022.2.5,60.55028094212031,
,0,4,2,4,2,0,36,,train_dim1_1,8,30,2,0,2,0,,,,,,,,,0,0,0,0,0,7,7,7,1,0,1,0,,,,,,,,,,,,,,,,,,,,,,,,,,,,,,,,,,,,,,,,,,,,,,,,,,,,30,,,,,,,,101.52522770001087,101.52522770001087,101.52522770001087,101.52522770001087,101.52522770001087,right,0.22411549999378622,6,0,0,99,0.0,-0.08,right,0.13436690001981333,,,,,,,,,,,,,,,,,,,,,,,,,,,,,,,,,A,train_x,x_increasing_steps,top_left,2024-10-29_20h58.18.324,HideSeek_v1,2022.2.5,60.55028094212031,
,0,4,2,4,2,0,36,,train_dim1_1,8,30,2,0,2,0,,,,,,,,,0,0,0,0,0,7,7,7,2,0,2,0,,,,,,,,,,,,,,,,,,,,,,,,,,,,,,,,,,,,,,,,,,,,,,,,,,,,30,,,,,,,,101.76168080000207,101.76168080000207,101.76168080000207,101.76168080000207,101.76168080000207,right,0.42468919995008036,6,0,0,99,0.08,-0.08,right,0.3395565999671817,,,,,,,,,,,,,,,,,,,,,,,,,,,,,,,,,A,train_x,x_increasing_steps,top_left,2024-10-29_20h58.18.324,HideSeek_v1,2022.2.5,60.55028094212031,
,0,4,2,4,2,0,36,,train_dim1_1,8,30,2,0,2,0,,,,,,,,,0,0,0,0,0,7,7,7,3,0,3,0,,,,,,,,,,,,,,,,,,,,,,,,,,,,,,,,,,,,,,,,,,,,,,,,,,,,30,,,,,,,,102.19096490001539,102.19096490001539,102.19096490001539,102.19096490001539,102.19096490001539,left,0.8751115000341088,6,0,0,99,0.0,-0.08,left,0.7882991000078619,,,,,,,,,,,,,,,,,,,,,,,,,,,,,,,,,A,train_x,x_increasing_steps,top_left,2024-10-29_20h58.18.324,HideSeek_v1,2022.2.5,60.55028094212031,
,0,4,2,4,2,0,36,,train_dim1_1,8,30,2,0,2,0,,,,,,,,,0,0,0,0,0,7,7,7,4,0,4,0,,,,,,,,,,,,,,,,,,,,,,,,,,,,,,,,,,,,,,,,,,,,,,,,,,,,30,,,,,,,,103.07776110002305,103.07776110002305,103.07776110002305,103.07776110002305,103.07776110002305,return,0.39104580000275746,7,0,0,1,0.0,-0.08,return,0.3009442000184208,0,18,0.0,-0.08,,,,,,,,,,,,,,,,,,,,,,,,,,,,,A,train_x,x_increasing_steps,top_left,2024-10-29_20h58.18.324,HideSeek_v1,2022.2.5,60.55028094212031,
,1,0,4,0,3,0,46,,train_dim1_1,9,30,2,0,2,0,,,,,,,,,0,0,0,0,0,8,8,8,0,0,0,0,,,,,,,,,,,,,stimuli/alien_stimuli/46.png,,,,,,,,,,,,,,,,,,,,,,,,,,,,,stimuli/alien_stimuli/36.png,36,0,10,,,,,,,30,,,,,,,,106.95471270004055,106.95471270004055,106.95471270004055,106.95471270004055,106.95471270004055,right,0.6035174999851733,7,0,0,99,0.0,-0.4,right,0.4649865999817848,,,,,105.35067620000336,106.95471270004055,0,-0.08,0.0,0.16,-0.08,0,-0.08,0,-0.08,105.09320740000112,105.09320740000112,105.09320740000112,105.09320740000112,105.09320740000112,105.09320740000112,105.09320740000112,105.09320740000112,105.01670969000551,0.4364218999980949,return,0.2340537999989465,,,,,,A,train_x,x_increasing_steps,top_left,2024-10-29_20h58.18.324,HideSeek_v1,2022.2.5,60.55028094212031,
,1,0,4,0,3,0,46,,train_dim1_1,9,30,2,0,2,0,,,,,,,,,0,0,0,0,0,8,8,8,1,0,1,0,,,,,,,,,,,,,,,,,,,,,,,,,,,,,,,,,,,,,,,,,,,,,,,,,,,,30,,,,,,,,107.52139830001397,107.52139830001397,107.52139830001397,107.52139830001397,107.52139830001397,right,0.20765450003091246,7,0,0,99,0.08,-0.4,right,0.11836439999751747,,,,,,,,,,,,,,,,,,,,,,,,,,,,,,,,,A,train_x,x_increasing_steps,top_left,2024-10-29_20h58.18.324,HideSeek_v1,2022.2.5,60.55028094212031,
,1,0,4,0,3,0,46,,train_dim1_1,9,30,2,0,2,0,,,,,,,,,0,0,0,0,0,8,8,8,2,0,2,0,,,,,,,,,,,,,,,,,,,,,,,,,,,,,,,,,,,,,,,,,,,,,,,,,,,,30,,,,,,,,107.73938460001955,107.73938460001955,107.73938460001955,107.73938460001955,107.73938460001955,right,0.2075944000389427,7,0,0,99,0.16,-0.4,right,0.10452440002700314,,,,,,,,,,,,,,,,,,,,,,,,,,,,,,,,,A,train_x,x_increasing_steps,top_left,2024-10-29_20h58.18.324,HideSeek_v1,2022.2.5,60.55028094212031,
,1,0,4,0,3,0,46,,train_dim1_1,9,30,2,0,2,0,,,,,,,,,0,0,0,0,0,8,8,8,3,0,3,0,,,,,,,,,,,,,,,,,,,,,,,,,,,,,,,,,,,,,,,,,,,,,,,,,,,,30,,,,,,,,107.95601870003156,107.95601870003156,107.95601870003156,107.95601870003156,107.95601870003156,return,0.2743662999710068,8,0,0,1,0.16,-0.4,return,0.19238840002799407,0,21,0.16,-0.4,,,,,,,,,,,,,,,,,,,,,,,,,,,,,A,train_x,x_increasing_steps,top_left,2024-10-29_20h58.18.324,HideSeek_v1,2022.2.5,60.55028094212031,
,0,3,0,3,0,0,16,,train_dim1_1,10,30,2,0,2,0,,,,,,,,,0,0,0,0,0,9,9,9,0,0,0,0,,,,,,,,,,,,,stimuli/alien_stimuli/16.png,,,,,,,,,,,,,,,,,,,,,,,,,,,,,stimuli/alien_stimuli/46.png,46,1,11,,,,,,,30,,,,,,,,111.90101710002637,111.90101710002637,111.90101710002637,111.90101710002637,111.90101710002637,return,1.0875344999949448,9,0,0,1,-0.16,-0.16,return,0.951763299992308,0,21,-0.16,-0.16,110.30046890000813,111.90101710002637,0.16,-0.4,0.0,0.24,-0.4,0.16,0.04,0.16,-0.4,109.88417199999094,109.88417199999094,109.88417199999094,109.88417199999094,109.88417199999094,109.88417199999094,109.88417199999094,109.88417199999094,109.81609123001108,0.6191145000047982,return,0.38922039995668456,,,,,,A,train_x,x_increasing_steps,top_left,2024-10-29_20h58.18.324,HideSeek_v1,2022.2.5,60.55028094212031,
,2,2,4,2,2,0,36,,train_dim1_1,11,30,2,0,2,0,,,,,,,,,0,0,0,0,0,10,10,10,0,0,0,0,,,,,,,,,,,,,stimuli/alien_stimuli/36.png,,,,,,,,,,,,,,,,,,,,,,,,,,,,,stimuli/alien_stimuli/16.png,16,0,12,,,,,,,30,,,,,,,,116.53543340001488,116.53543340001488,116.53543340001488,116.53543340001488,116.53543340001488,right,0.704124900046736,9,0,0,99,0.08,-0.24,right,0.5830359000246972,,,,,114.93409240001347,116.53543340001488,-0.16,-0.16,0.0,0.0,-0.16,-0.16,-0.16,-0.16,-0.16,114.59891000000061,114.59891000000061,114.59891000000061,114.59891000000061,114.59891000000061,114.59891000000061,114.59891000000061,114.59891000000061,114.51654236004687,0.5352989999810234,return,0.3164155000122264,,,,,,A,train_x,x_increasing_steps,top_left,2024-10-29_20h58.18.324,HideSeek_v1,2022.2.5,60.55028094212031,
,2,2,4,2,2,0,36,,train_dim1_1,11,30,2,0,2,0,,,,,,,,,0,0,0,0,0,10,10,10,1,0,1,0,,,,,,,,,,,,,,,,,,,,,,,,,,,,,,,,,,,,,,,,,,,,,,,,,,,,30,,,,,,,,117.21483360003913,117.21483360003913,117.21483360003913,117.21483360003913,117.21483360003913,right,0.3906678999774158,9,0,0,99,0.16,-0.24,right,0.2877062999759801,,,,,,,,,,,,,,,,,,,,,,,,,,,,,,,,,A,train_x,x_increasing_steps,top_left,2024-10-29_20h58.18.324,HideSeek_v1,2022.2.5,60.55028094212031,
,2,2,4,2,2,0,36,,train_dim1_1,11,30,2,0,2,0,,,,,,,,,0,0,0,0,0,10,10,10,2,0,2,0,,,,,,,,,,,,,,,,,,,,,,,,,,,,,,,,,,,,,,,,,,,,,,,,,,,,30,,,,,,,,117.60844919999363,117.60844919999363,117.60844919999363,117.60844919999363,117.60844919999363,return,0.3407797999680042,10,0,0,1,0.16,-0.24,return,0.2596520999795757,0,23,0.16,-0.24,,,,,,,,,,,,,,,,,,,,,,,,,,,,,A,train_x,x_increasing_steps,top_left,2024-10-29_20h58.18.324,HideSeek_v1,2022.2.5,60.55028094212031,
,0,0,1,0,1,0,26,,train_dim1_1,12,30,2,0,2,0,,,,,,,,,0,0,0,0,0,11,11,11,0,0,0,0,,,,,,,,,,,,,stimuli/alien_stimuli/26.png,,,,,,,,,,,,,,,,,,,,,,,,,,,,,stimuli/alien_stimuli/36.png,36,2,13,,,,,,,30,,,,,,,,121.86850169999525,121.86850169999525,121.86850169999525,121.86850169999525,121.86850169999525,right,0.6207571999984793,10,0,0,99,-0.08,-0.4,right,0.4966442000004463,,,,,120.26740940002492,121.86850169999525,0.16,-0.24,0.0,0.16,-0.24,0.16,0.08,0.16,-0.24,119.63547860004473,119.63547860004473,119.63547860004473,119.63547860004473,119.63547860004473,119.63547860004473,119.63547860004473,119.63547860004473,119.51679515999275,0.8689843000029214,return,0.613594499998726,,,,,,A,train_x,x_increasing_steps,top_left,2024-10-29_20h58.18.324,HideSeek_v1,2022.2.5,60.55028094212031,
,0,0,1,0,1,0,26,,train_dim1_1,12,30,2,0,2,0,,,,,,,,,0,0,0,0,0,11,11,11,1,0,1,0,,,,,,,,,,,,,,,,,,,,,,,,,,,,,,,,,,,,,,,,,,,,,,,,,,,,30,,,,,,,,122.48099390004063,122.48099390004063,122.48099390004063,122.48099390004063,122.48099390004063,return,0.4398528999881819,11,0,0,1,-0.08,-0.4,return,0.33789470000192523,0,24,-0.08,-0.4,,,,,,,,,,,,,,,,,,,,,,,,,,,,,A,train_x,x_increasing_steps,top_left,2024-10-29_20h58.18.324,HideSeek_v1,2022.2.5,60.55028094212031,
,0,4,3,4,3,0,46,,train_dim1_1,13,30,2,0,2,0,,,,,,,,,0,0,0,0,0,12,12,12,0,0,0,0,,,,,,,,,,,,,stimuli/alien_stimuli/46.png,,,,,,,,,,,,,,,,,,,,,,,,,,,,,stimuli/alien_stimuli/26.png,26,0,14,,,,,,,30,,,,,,,,126.96254020003835,126.96254020003835,126.96254020003835,126.96254020003835,126.96254020003835,right,1.0205961000174284,11,0,0,99,-0.08,-0.08,right,0.8907228999887593,,,,,125.36720830004197,126.96254020003835,-0.08,-0.4,0.0,0.08,-0.4,-0.08,-0.12,-0.08,-0.4,124.54468270001234,124.54468270001234,124.54468270001234,124.54468270001234,124.54468270001234,124.54468270001234,124.54468270001234,124.54468270001234,124.44982209000736,1.0182896999758668,return,0.793222300009802,,,,,,A,train_x,x_increasing_steps,top_left,2024-10-29_20h58.18.324,HideSeek_v1,2022.2.5,60.55028094212031,
,0,4,3,4,3,0,46,,train_dim1_1,13,30,2,0,2,0,,,,,,,,,0,0,0,0,0,12,12,12,1,0,1,0,,,,,,,,,,,,,,,,,,,,,,,,,,,,,,,,,,,,,,,,,,,,,,,,,,,,30,,,,,,,,127.95539950003149,127.95539950003149,127.95539950003149,127.95539950003149,127.95539950003149,right,0.24114820000249892,11,0,0,99,0.0,-0.08,right,0.14946540002711117,,,,,,,,,,,,,,,,,,,,,,,,,,,,,,,,,A,train_x,x_increasing_steps,top_left,2024-10-29_20h58.18.324,HideSeek_v1,2022.2.5,60.55028094212031,
,0,4,3,4,3,0,46,,train_dim1_1,13,30,2,0,2,0,,,,,,,,,0,0,0,0,0,12,12,12,2,0,2,0,,,,,,,,,,,,,,,,,,,,,,,,,,,,,,,,,,,,,,,,,,,,,,,,,,,,30,,,,,,,,128.2064672000124,128.2064672000124,128.2064672000124,128.2064672000124,128.2064672000124,right,0.1907509000157006,11,0,0,99,0.08,-0.08,right,0.10651289997622371,,,,,,,,,,,,,,,,,,,,,,,,,,,,,,,,,A,train_x,x_increasing_steps,top_left,2024-10-29_20h58.18.324,HideSeek_v1,2022.2.5,60.55028094212031,
,0,4,3,4,3,0,46,,train_dim1_1,13,30,2,0,2,0,,,,,,,,,0,0,0,0,0,12,12,12,3,0,3,0,,,,,,,,,,,,,,,,,,,,,,,,,,,,,,,,,,,,,,,,,,,,,,,,,,,,30,,,,,,,,128.4052156000398,128.4052156000398,128.4052156000398,128.4052156000398,128.4052156000398,return,0.2573903999873437,12,0,0,1,0.08,-0.08,return,0.170973900007084,0,27,0.08,-0.08,,,,,,,,,,,,,,,,,,,,,,,,,,,,,A,train_x,x_increasing_steps,top_left,2024-10-29_20h58.18.324,HideSeek_v1,2022.2.5,60.55028094212031,
,4,3,4,3,0,0,16,,train_dim1_1,14,30,2,0,2,0,,,,,,,,,0,0,0,0,0,13,13,13,0,0,0,0,,,,,,,,,,,,,stimuli/alien_stimuli/16.png,,,,,,,,,,,,,,,,,,,,,,,,,,,,,stimuli/alien_stimuli/46.png,46,0,15,,,,,,,30,,,,,,,,132.18348629999673,132.18348629999673,132.18348629999673,132.18348629999673,132.18348629999673,return,3.8037844999926165,13,0,0,1,0.16,-0.16,return,3.685257699980866,0,27,0.16,-0.16,130.58441270003095,132.18348629999673,0.08,-0.08,0.0,0.24,-0.08,0.08,-0.04,0.08,-0.08,130.30100130004575,130.30100130004575,130.30100130004575,130.30100130004575,130.30100130004575,130.30100130004575,130.30100130004575,130.30100130004575,130.21623499001146,0.4693047999753617,return,0.2618248999933712,,,,,,A,train_x,x_increasing_steps,top_left,2024-10-29_20h58.18.324,HideSeek_v1,2022.2.5,60.55028094212031,
,4,2,9,2,5,0,66,,train_dim1_1,15,30,2,0,2,0,,,,,,,,,0,0,0,0,0,14,14,14,0,0,0,0,,,,,,,,,,,,,stimuli/alien_stimuli/66.png,,,,,,,,,,,,,,,,,,,,,,,,,,,,,stimuli/alien_stimuli/16.png,16,4,16,,,,,,,30,,,,,,,,139.8347846000106,139.8347846000106,139.8347846000106,139.8347846000106,139.8347846000106,right,0.971654600056354,13,0,0,99,0.24,-0.24,right,0.8267764000338502,,,,,138.2171665999922,139.8347846000106,0.16,-0.16,0.0,0.0,-0.16,0.16,0.16,0.16,-0.16,137.58392030000687,137.58392030000687,137.58392030000687,137.58392030000687,137.58392030000687,137.58392030000687,137.58392030000687,137.58392030000687,137.49961089001738,0.8209707000060007,return,0.6182455000234768,,,,,,A,train_x,x_increasing_steps,top_left,2024-10-29_20h58.18.324,HideSeek_v1,2022.2.5,60.55028094212031,
,4,2,9,2,5,0,66,,train_dim1_1,15,30,2,0,2,0,,,,,,,,,0,0,0,0,0,14,14,14,1,0,1,0,,,,,,,,,,,,,,,,,,,,,,,,,,,,,,,,,,,,,,,,,,,,,,,,,,,,30,,,,,,,,140.76668100000825,140.76668100000825,140.76668100000825,140.76668100000825,140.76668100000825,right,0.25627360004000366,13,0,0,99,0.32,-0.24,right,0.16712369996821508,,,,,,,,,,,,,,,,,,,,,,,,,,,,,,,,,A,train_x,x_increasing_steps,top_left,2024-10-29_20h58.18.324,HideSeek_v1,2022.2.5,60.55028094212031,
,4,2,9,2,5,0,66,,train_dim1_1,15,30,2,0,2,0,,,,,,,,,0,0,0,0,0,14,14,14,2,0,2,0,,,,,,,,,,,,,,,,,,,,,,,,,,,,,,,,,,,,,,,,,,,,,,,,,,,,30,,,,,,,,141.02896640001563,141.02896640001563,141.02896640001563,141.02896640001563,141.02896640001563,right,0.25718310003867373,13,0,0,99,0.4,-0.24,right,0.17098049994092435,,,,,,,,,,,,,,,,,,,,,,,,,,,,,,,,,A,train_x,x_increasing_steps,top_left,2024-10-29_20h58.18.324,HideSeek_v1,2022.2.5,60.55028094212031,
,4,2,9,2,5,0,66,,train_dim1_1,15,30,2,0,2,0,,,,,,,,,0,0,0,0,0,14,14,14,3,0,3,0,,,,,,,,,,,,,,,,,,,,,,,,,,,,,,,,,,,,,,,,,,,,,,,,,,,,30,,,,,,,,141.30228230002103,141.30228230002103,141.30228230002103,141.30228230002103,141.30228230002103,right,0.2735022999695502,13,0,0,99,0.48000000000000004,-0.24,right,0.16819930000929162,,,,,,,,,,,,,,,,,,,,,,,,,,,,,,,,,A,train_x,x_increasing_steps,top_left,2024-10-29_20h58.18.324,HideSeek_v1,2022.2.5,60.55028094212031,
,4,2,9,2,5,0,66,,train_dim1_1,15,30,2,0,2,0,,,,,,,,,0,0,0,0,0,14,14,14,4,0,4,0,,,,,,,,,,,,,,,,,,,,,,,,,,,,,,,,,,,,,,,,,,,,,,,,,,,,30,,,,,,,,141.57958660001168,141.57958660001168,141.57958660001168,141.57958660001168,141.57958660001168,right,0.2419677999569103,13,0,0,99,0.56,-0.24,right,0.14460519998101518,,,,,,,,,,,,,,,,,,,,,,,,,,,,,,,,,A,train_x,x_increasing_steps,top_left,2024-10-29_20h58.18.324,HideSeek_v1,2022.2.5,60.55028094212031,
,4,2,9,2,5,0,66,,train_dim1_1,15,30,2,0,2,0,,,,,,,,,0,0,0,0,0,14,14,14,5,0,5,0,,,,,,,,,,,,,,,,,,,,,,,,,,,,,,,,,,,,,,,,,,,,,,,,,,,,30,,,,,,,,141.83066590002272,141.83066590002272,141.83066590002272,141.83066590002272,141.83066590002272,return,0.5577469000127167,14,0,0,1,0.56,-0.24,return,0.4645913999993354,0,32,0.56,-0.24,,,,,,,,,,,,,,,,,,,,,,,,,,,,,A,train_x,x_increasing_steps,top_left,2024-10-29_20h58.18.324,HideSeek_v1,2022.2.5,60.55028094212031,
,3,3,6,3,3,0,46,,train_dim1_1,16,30,2,0,2,0,,,,,,,,,0,0,0,0,0,15,15,15,0,0,0,0,,,,,,,,,,,,,stimuli/alien_stimuli/46.png,,,,,,,,,,,,,,,,,,,,,,,,,,,,,stimuli/alien_stimuli/66.png,66,4,17,,,,,,,30,,,,,,,,146.0505000000121,146.0505000000121,146.0505000000121,146.0505000000121,146.0505000000121,right,0.8213319999631494,14,0,0,99,0.16,-0.16,right,0.6855635000392795,,,,,144.43361559999175,146.0505000000121,0.56,-0.24,0.0,0.4,-0.24,0.56,0.36000000000000004,0.56,-0.24,144.03260140004568,144.03260140004568,144.03260140004568,144.03260140004568,144.03260140004568,144.03260140004568,144.03260140004568,144.03260140004568,143.94940846003593,0.6048394999816082,return,0.38660229998640716,,,,,,A,train_x,x_increasing_steps,top_left,2024-10-29_20h58.18.324,HideSeek_v1,2022.2.5,60.55028094212031,
,3,3,6,3,3,0,46,,train_dim1_1,16,30,2,0,2,0,,,,,,,,,0,0,0,0,0,15,15,15,1,0,1,0,,,,,,,,,,,,,,,,,,,,,,,,,,,,,,,,,,,,,,,,,,,,,,,,,,,,30,,,,,,,,146.82274110004073,146.82274110004073,146.82274110004073,146.82274110004073,146.82274110004073,right,0.37383920000866055,14,0,0,99,0.24,-0.16,right,0.2904030000208877,,,,,,,,,,,,,,,,,,,,,,,,,,,,,,,,,A,train_x,x_increasing_steps,top_left,2024-10-29_20h58.18.324,HideSeek_v1,2022.2.5,60.55028094212031,
,3,3,6,3,3,0,46,,train_dim1_1,16,30,2,0,2,0,,,,,,,,,0,0,0,0,0,15,15,15,2,0,2,0,,,,,,,,,,,,,,,,,,,,,,,,,,,,,,,,,,,,,,,,,,,,,,,,,,,,30,,,,,,,,147.2017364000203,147.2017364000203,147.2017364000203,147.2017364000203,147.2017364000203,right,0.3083354000118561,14,0,0,99,0.32,-0.16,right,0.22542189998785034,,,,,,,,,,,,,,,,,,,,,,,,,,,,,,,,,A,train_x,x_increasing_steps,top_left,2024-10-29_20h58.18.324,HideSeek_v1,2022.2.5,60.55028094212031,
,3,3,6,3,3,0,46,,train_dim1_1,16,30,2,0,2,0,,,,,,,,,0,0,0,0,0,15,15,15,3,0,3,0,,,,,,,,,,,,,,,,,,,,,,,,,,,,,,,,,,,,,,,,,,,,,,,,,,,,30,,,,,,,,147.52143530000467,147.52143530000467,147.52143530000467,147.52143530000467,147.52143530000467,return,0.3241332999896258,15,0,0,1,0.32,-0.16,return,0.24310079996939749,0,35,0.32,-0.16,,,,,,,,,,,,,,,,,,,,,,,,,,,,,A,train_x,x_increasing_steps,top_left,2024-10-29_20h58.18.324,HideSeek_v1,2022.2.5,60.55028094212031,
,2,4,3,4,1,0,26,,train_dim1_1,17,30,2,0,2,0,,,,,,,,,0,0,0,0,0,16,16,16,0,0,0,0,,,,,,,,,,,,,stimuli/alien_stimuli/26.png,,,,,,,,,,,,,,,,,,,,,,,,,,,,,stimuli/alien_stimuli/46.png,46,3,18,,,,,,,30,,,,,,,,151.5363909000298,151.5363909000298,151.5363909000298,151.5363909000298,151.5363909000298,right,1.0695728000137024,15,0,0,99,0.08,-0.08,right,0.93770469998708,,,,,149.93335120001575,151.5363909000298,0.32,-0.16,0.0,0.24,-0.16,0.32,0.2,0.32,-0.16,149.5011211000383,149.5011211000383,149.5011211000383,149.5011211000383,149.5011211000383,149.5011211000383,149.5011211000383,149.5011211000383,149.39965649003864,0.635060100001283,return,0.4141832999885082,,,,,,A,train_x,x_increasing_steps,top_left,2024-10-29_20h58.18.324,HideSeek_v1,2022.2.5,60.55028094212031,
,2,4,3,4,1,0,26,,train_dim1_1,17,30,2,0,2,0,,,,,,,,,0,0,0,0,0,16,16,16,1,0,1,0,,,,,,,,,,,,,,,,,,,,,,,,,,,,,,,,,,,,,,,,,,,,,,,,,,,,30,,,,,,,,152.58805720001692,152.58805720001692,152.58805720001692,152.58805720001692,152.58805720001692,return,0.24094260000856593,16,0,0,1,0.08,-0.08,return,0.14611909998347983,0,36,0.08,-0.08,,,,,,,,,,,,,,,,,,,,,,,,,,,,,A,train_x,x_increasing_steps,top_left,2024-10-29_20h58.18.324,HideSeek_v1,2022.2.5,60.55028094212031,
,2,1,7,1,5,0,66,,train_dim1_1,18,30,2,0,2,0,,,,,,,,,0,0,0,0,0,17,17,17,0,0,0,0,,,,,,,,,,,,,stimuli/alien_stimuli/66.png,,,,,,,,,,,,,,,,,,,,,,,,,,,,,stimuli/alien_stimuli/26.png,26,2,19,,,,,,,30,,,,,,,,156.3352167000412,156.3352167000412,156.3352167000412,156.3352167000412,156.3352167000412,right,0.6042676999932155,16,0,0,99,0.08,-0.32,right,0.48215140000684187,,,,,154.73351049999474,156.3352167000412,0.08,-0.08,0.0,0.08,-0.08,0.08,0.04,0.08,-0.08,154.4804970000405,154.4804970000405,154.4804970000405,154.4804970000405,154.4804970000405,154.4804970000405,154.4804970000405,154.4804970000405,154.36622049004075,0.4700927999801934,return,0.22408219997305423,,,,,,A,train_x,x_increasing_steps,top_left,2024-10-29_20h58.18.324,HideSeek_v1,2022.2.5,60.55028094212031,
,2,1,7,1,5,0,66,,train_dim1_1,18,30,2,0,2,0,,,,,,,,,0,0,0,0,0,17,17,17,1,0,1,0,,,,,,,,,,,,,,,,,,,,,,,,,,,,,,,,,,,,,,,,,,,,,,,,,,,,30,,,,,,,,156.91875150002306,156.91875150002306,156.91875150002306,156.91875150002306,156.91875150002306,right,0.29061349999392405,16,0,0,99,0.16,-0.32,right,0.1911792999599129,,,,,,,,,,,,,,,,,,,,,,,,,,,,,,,,,A,train_x,x_increasing_steps,top_left,2024-10-29_20h58.18.324,HideSeek_v1,2022.2.5,60.55028094212031,
,2,1,7,1,5,0,66,,train_dim1_1,18,30,2,0,2,0,,,,,,,,,0,0,0,0,0,17,17,17,2,0,2,0,,,,,,,,,,,,,,,,,,,,,,,,,,,,,,,,,,,,,,,,,,,,,,,,,,,,30,,,,,,,,157.2151964000077,157.2151964000077,157.2151964000077,157.2151964000077,157.2151964000077,right,0.274488199967891,16,0,0,99,0.24,-0.32,right,0.17273250001017004,,,,,,,,,,,,,,,,,,,,,,,,,,,,,,,,,A,train_x,x_increasing_steps,top_left,2024-10-29_20h58.18.324,HideSeek_v1,2022.2.5,60.55028094212031,
,2,1,7,1,5,0,66,,train_dim1_1,18,30,2,0,2,0,,,,,,,,,0,0,0,0,0,17,17,17,3,0,3,0,,,,,,,,,,,,,,,,,,,,,,,,,,,,,,,,,,,,,,,,,,,,,,,,,,,,30,,,,,,,,157.49913220002782,157.49913220002782,157.49913220002782,157.49913220002782,157.49913220002782,right,0.2911685999715701,16,0,0,99,0.32,-0.32,right,0.1715703000081703,,,,,,,,,,,,,,,,,,,,,,,,,,,,,,,,,A,train_x,x_increasing_steps,top_left,2024-10-29_20h58.18.324,HideSeek_v1,2022.2.5,60.55028094212031,
,2,1,7,1,5,0,66,,train_dim1_1,18,30,2,0,2,0,,,,,,,,,0,0,0,0,0,17,17,17,4,0,4,0,,,,,,,,,,,,,,,,,,,,,,,,,,,,,,,,,,,,,,,,,,,,,,,,,,,,30,,,,,,,,157.79823750001378,157.79823750001378,157.79823750001378,157.79823750001378,157.79823750001378,right,0.22466139995958656,16,0,0,99,0.4,-0.32,right,0.13587790000019595,,,,,,,,,,,,,,,,,,,,,,,,,,,,,,,,,A,train_x,x_increasing_steps,top_left,2024-10-29_20h58.18.324,HideSeek_v1,2022.2.5,60.55028094212031,
,2,1,7,1,5,0,66,,train_dim1_1,18,30,2,0,2,0,,,,,,,,,0,0,0,0,0,17,17,17,5,0,5,0,,,,,,,,,,,,,,,,,,,,,,,,,,,,,,,,,,,,,,,,,,,,,,,,,,,,30,,,,,,,,158.03211369999917,158.03211369999917,158.03211369999917,158.03211369999917,158.03211369999917,return,0.2754461000440642,17,0,0,1,0.4,-0.32,return,0.1867130000027828,0,41,0.4,-0.32,,,,,,,,,,,,,,,,,,,,,,,,,,,,,A,train_x,x_increasing_steps,top_left,2024-10-29_20h58.18.324,HideSeek_v1,2022.2.5,60.55028094212031,
,0,3,2,3,2,0,36,,train_dim1_1,19,30,2,0,2,0,,,,,,,,,0,0,0,0,0,18,18,18,0,0,0,0,,,,,,,,,,,,,stimuli/alien_stimuli/36.png,,,,,,,,,,,,,,,,,,,,,,,,,,,,,stimuli/alien_stimuli/66.png,66,2,20,,,,,,,30,,,,,,,,162.08458650001558,162.08458650001558,162.08458650001558,162.08458650001558,162.08458650001558,right,0.5368687000009231,17,0,0,99,-0.08,-0.16,right,0.38606990000698715,,,,,160.4667063000379,162.08458650001558,0.4,-0.32,0.0,0.4,-0.32,0.4,0.2,0.4,-0.32,160.0339321999927,160.0339321999927,160.0339321999927,160.0339321999927,160.0339321999927,160.0339321999927,160.0339321999927,160.0339321999927,159.8501409900142,0.7174352000001818,return,0.40294130000984296,,,,,,A,train_x,x_increasing_steps,top_left,2024-10-29_20h58.18.324,HideSeek_v1,2022.2.5,60.55028094212031,
,0,3,2,3,2,0,36,,train_dim1_1,19,30,2,0,2,0,,,,,,,,,0,0,0,0,0,18,18,18,1,0,1,0,,,,,,,,,,,,,,,,,,,,,,,,,,,,,,,,,,,,,,,,,,,,,,,,,,,,30,,,,,,,,162.57210930000292,162.57210930000292,162.57210930000292,162.57210930000292,162.57210930000292,right,0.4071356999920681,17,0,0,99,0.0,-0.16,right,0.3270546999992803,,,,,,,,,,,,,,,,,,,,,,,,,,,,,,,,,A,train_x,x_increasing_steps,top_left,2024-10-29_20h58.18.324,HideSeek_v1,2022.2.5,60.55028094212031,
,0,3,2,3,2,0,36,,train_dim1_1,19,30,2,0,2,0,,,,,,,,,0,0,0,0,0,18,18,18,2,0,2,0,,,,,,,,,,,,,,,,,,,,,,,,,,,,,,,,,,,,,,,,,,,,,,,,,,,,30,,,,,,,,163.00888269999996,163.00888269999996,163.00888269999996,163.00888269999996,163.00888269999996,return,0.8911566000315361,18,0,0,1,0.0,-0.16,return,0.7919854000210762,0,43,0.0,-0.16,,,,,,,,,,,,,,,,,,,,,,,,,,,,,A,train_x,x_increasing_steps,top_left,2024-10-29_20h58.18.324,HideSeek_v1,2022.2.5,60.55028094212031,
,0,1,0,1,0,0,16,,train_dim1_1,20,30,2,0,2,0,,,,,,,,,0,0,0,0,0,19,19,19,0,0,0,0,,,,,,,,,,,,,stimuli/alien_stimuli/16.png,,,,,,,,,,,,,,,,,,,,,,,,,,,,,stimuli/alien_stimuli/36.png,36,0,21,,,,,,,30,,,,,,,,167.65019200003007,167.65019200003007,167.65019200003007,167.65019200003007,167.65019200003007,right,0.687765299982857,18,0,0,99,-0.08,-0.32,right,0.558235100004822,,,,,166.050091000041,167.65019200003007,0,-0.16,0.0,0.16,-0.16,0,-0.08,0,-0.16,165.54026909999084,165.54026909999084,165.54026909999084,165.54026909999084,165.54026909999084,165.54026909999084,165.54026909999084,165.54026909999084,165.4325150900055,0.7205529999919236,return,0.494381099997554,,,,,,A,train_x,x_increasing_steps,top_left,2024-10-29_20h58.18.324,HideSeek_v1,2022.2.5,60.55028094212031,
,0,1,0,1,0,0,16,,train_dim1_1,20,30,2,0,2,0,,,,,,,,,0,0,0,0,0,19,19,19,1,0,1,0,,,,,,,,,,,,,,,,,,,,,,,,,,,,,,,,,,,,,,,,,,,,,,,,,,,,30,,,,,,,,168.31394260004163,168.31394260004163,168.31394260004163,168.31394260004163,168.31394260004163,left,0.6580221999902278,18,0,0,99,-0.16,-0.32,left,0.5642477999790572,,,,,,,,,,,,,,,,,,,,,,,,,,,,,,,,,A,train_x,x_increasing_steps,top_left,2024-10-29_20h58.18.324,HideSeek_v1,2022.2.5,60.55028094212031,
,0,1,0,1,0,0,16,,train_dim1_1,20,30,2,0,2,0,,,,,,,,,0,0,0,0,0,19,19,19,2,0,2,0,,,,,,,,,,,,,,,,,,,,,,,,,,,,,,,,,,,,,,,,,,,,,,,,,,,,30,,,,,,,,168.9829406000208,168.9829406000208,168.9829406000208,168.9829406000208,168.9829406000208,return,0.2564733999897726,19,0,0,1,-0.16,-0.32,return,0.16594610002357513,0,43,-0.16,-0.32,,,,,,,,,,,,,,,,,,,,,,,,,,,,,A,train_x,x_increasing_steps,top_left,2024-10-29_20h58.18.324,HideSeek_v1,2022.2.5,60.55028094212031,
,4,2,6,2,2,0,36,,train_dim1_1,21,30,2,0,2,0,,,,,,,,,0,0,0,0,0,20,20,20,0,0,0,0,,,,,,,,,,,,,stimuli/alien_stimuli/36.png,,,,,,,,,,,,,,,,,,,,,,,,,,,,,stimuli/alien_stimuli/16.png,16,0,22,,,,,,,30,,,,,,,,173.51340140000684,173.51340140000684,173.51340140000684,173.51340140000684,173.51340140000684,right,0.6370555000030436,19,0,0,99,0.24,-0.24,right,0.5186072999495082,,,,,171.91736290004337,173.51340140000684,-0.16,-0.32,0.0,0.0,-0.32,-0.16,-0.16,-0.16,-0.32,170.88521850004327,170.88521850004327,170.88521850004327,170.88521850004327,170.88521850004327,170.88521850004327,170.88521850004327,170.88521850004327,170.78267129000744,1.2349227999802679,return,1.0012585999793373,,,,,,A,train_x,x_increasing_steps,top_left,2024-10-29_20h58.18.324,HideSeek_v1,2022.2.5,60.55028094212031,
,4,2,6,2,2,0,36,,train_dim1_1,21,30,2,0,2,0,,,,,,,,,0,0,0,0,0,20,20,20,1,0,1,0,,,,,,,,,,,,,,,,,,,,,,,,,,,,,,,,,,,,,,,,,,,,,,,,,,,,30,,,,,,,,174.12506990000838,174.12506990000838,174.12506990000838,174.12506990000838,174.12506990000838,right,0.5738048999919556,19,0,0,99,0.32,-0.24,right,0.4920286000124179,,,,,,,,,,,,,,,,,,,,,,,,,,,,,,,,,A,train_x,x_increasing_steps,top_left,2024-10-29_20h58.18.324,HideSeek_v1,2022.2.5,60.55028094212031,
,4,2,6,2,2,0,36,,train_dim1_1,21,30,2,0,2,0,,,,,,,,,0,0,0,0,0,20,20,20,2,0,2,0,,,,,,,,,,,,,,,,,,,,,,,,,,,,,,,,,,,,,,,,,,,,,,,,,,,,30,,,,,,,,174.70440580003196,174.70440580003196,174.70440580003196,174.70440580003196,174.70440580003196,return,0.27426510001532733,20,0,0,1,0.32,-0.24,return,0.19180369999958202,0,45,0.32,-0.24,,,,,,,,,,,,,,,,,,,,,,,,,,,,,A,train_x,x_increasing_steps,top_left,2024-10-29_20h58.18.324,HideSeek_v1,2022.2.5,60.55028094212031,
,1,0,2,0,1,0,26,,train_dim1_1,22,30,2,0,2,0,,,,,,,,,0,0,0,0,0,21,21,21,0,0,0,0,,,,,,,,,,,,,stimuli/alien_stimuli/26.png,,,,,,,,,,,,,,,,,,,,,,,,,,,,,stimuli/alien_stimuli/36.png,36,4,23,,,,,,,30,,,,,,,,178.56401650002226,178.56401650002226,178.56401650002226,178.56401650002226,178.56401650002226,right,1.8360100000281818,20,0,0,99,0.0,-0.4,right,1.7100604000152089,,,,,176.96661659999518,178.56401650002226,0.32,-0.24,0.0,0.16,-0.24,0.32,0.24,0.32,-0.24,176.60463600000367,176.60463600000367,176.60463600000367,176.60463600000367,176.60463600000367,176.60463600000367,176.60463600000367,176.60463600000367,176.53325369001834,0.5350164999836124,return,0.3331810999661684,,,,,,A,train_x,x_increasing_steps,top_left,2024-10-29_20h58.18.324,HideSeek_v1,2022.2.5,60.55028094212031,
,1,0,2,0,1,0,26,,train_dim1_1,22,30,2,0,2,0,,,,,,,,,0,0,0,0,0,21,21,21,1,0,1,0,,,,,,,,,,,,,,,,,,,,,,,,,,,,,,,,,,,,,,,,,,,,,,,,,,,,30,,,,,,,,180.38033240003278,180.38033240003278,180.38033240003278,180.38033240003278,180.38033240003278,return,0.27389720000792295,21,0,0,1,0.0,-0.4,return,0.18235809996258467,0,46,0.0,-0.4,,,,,,,,,,,,,,,,,,,,,,,,,,,,,A,train_x,x_increasing_steps,top_left,2024-10-29_20h58.18.324,HideSeek_v1,2022.2.5,60.55028094212031,
,2,1,7,1,5,0,66,,train_dim1_1,23,30,2,0,2,0,,,,,,,,,0,0,0,0,0,22,22,22,0,0,0,0,,,,,,,,,,,,,stimuli/alien_stimuli/66.png,,,,,,,,,,,,,,,,,,,,,,,,,,,,,stimuli/alien_stimuli/26.png,26,1,24,,,,,,,30,,,,,,,,184.56883070000913,184.56883070000913,184.56883070000913,184.56883070000913,184.56883070000913,right,0.6705263000330888,21,0,0,99,0.08,-0.32,right,0.5348925999714993,,,,,182.96647360001225,184.56883070000913,0,-0.4,0.0,0.08,-0.4,0,-0.04,0,-0.4,182.27475050004432,182.27475050004432,182.27475050004432,182.27475050004432,182.27475050004432,182.27475050004432,182.27475050004432,182.27475050004432,182.19941879002147,0.869917300005909,return,0.6767737999907695,,,,,,A,train_x,x_increasing_steps,top_left,2024-10-29_20h58.18.324,HideSeek_v1,2022.2.5,60.55028094212031,
,2,1,7,1,5,0,66,,train_dim1_1,23,30,2,0,2,0,,,,,,,,,0,0,0,0,0,22,22,22,1,0,1,0,,,,,,,,,,,,,,,,,,,,,,,,,,,,,,,,,,,,,,,,,,,,,,,,,,,,30,,,,,,,,185.2156607999932,185.2156607999932,185.2156607999932,185.2156607999932,185.2156607999932,right,0.3244292999734171,21,0,0,99,0.16,-0.32,right,0.22856360004516318,,,,,,,,,,,,,,,,,,,,,,,,,,,,,,,,,A,train_x,x_increasing_steps,top_left,2024-10-29_20h58.18.324,HideSeek_v1,2022.2.5,60.55028094212031,
,2,1,7,1,5,0,66,,train_dim1_1,23,30,2,0,2,0,,,,,,,,,0,0,0,0,0,22,22,22,2,0,2,0,,,,,,,,,,,,,,,,,,,,,,,,,,,,,,,,,,,,,,,,,,,,,,,,,,,,30,,,,,,,,185.5491228000028,185.5491228000028,185.5491228000028,185.5491228000028,185.5491228000028,right,0.34101719997124746,21,0,0,99,0.24,-0.32,right,0.2507417000015266,,,,,,,,,,,,,,,,,,,,,,,,,,,,,,,,,A,train_x,x_increasing_steps,top_left,2024-10-29_20h58.18.324,HideSeek_v1,2022.2.5,60.55028094212031,
,2,1,7,1,5,0,66,,train_dim1_1,23,30,2,0,2,0,,,,,,,,,0,0,0,0,0,22,22,22,3,0,3,0,,,,,,,,,,,,,,,,,,,,,,,,,,,,,,,,,,,,,,,,,,,,,,,,,,,,30,,,,,,,,185.89941489999183,185.89941489999183,185.89941489999183,185.89941489999183,185.89941489999183,right,0.34132900001714006,21,0,0,99,0.32,-0.32,right,0.24099840002600104,,,,,,,,,,,,,,,,,,,,,,,,,,,,,,,,,A,train_x,x_increasing_steps,top_left,2024-10-29_20h58.18.324,HideSeek_v1,2022.2.5,60.55028094212031,
,2,1,7,1,5,0,66,,train_dim1_1,23,30,2,0,2,0,,,,,,,,,0,0,0,0,0,22,22,22,4,0,4,0,,,,,,,,,,,,,,,,,,,,,,,,,,,,,,,,,,,,,,,,,,,,,,,,,,,,30,,,,,,,,186.2489676999976,186.2489676999976,186.2489676999976,186.2489676999976,186.2489676999976,right,0.32460900000296533,21,0,0,99,0.4,-0.32,right,0.2283008999656886,,,,,,,,,,,,,,,,,,,,,,,,,,,,,,,,,A,train_x,x_increasing_steps,top_left,2024-10-29_20h58.18.324,HideSeek_v1,2022.2.5,60.55028094212031,
,2,1,7,1,5,0,66,,train_dim1_1,23,30,2,0,2,0,,,,,,,,,0,0,0,0,0,22,22,22,5,0,5,0,,,,,,,,,,,,,,,,,,,,,,,,,,,,,,,,,,,,,,,,,,,,,,,,,,,,30,,,,,,,,186.58585770003265,186.58585770003265,186.58585770003265,186.58585770003265,186.58585770003265,return,0.2581318999873474,22,0,0,1,0.4,-0.32,return,0.1623610999668017,0,51,0.4,-0.32,,,,,,,,,,,,,,,,,,,,,,,,,,,,,A,train_x,x_increasing_steps,top_left,2024-10-29_20h58.18.324,HideSeek_v1,2022.2.5,60.55028094212031,
,4,4,7,4,3,0,46,,train_dim1_1,24,30,2,0,2,0,,,,,,,,,0,0,0,0,0,23,23,23,0,0,0,0,,,,,,,,,,,,,stimuli/alien_stimuli/46.png,,,,,,,,,,,,,,,,,,,,,,,,,,,,,stimuli/alien_stimuli/66.png,66,2,25,,,,,,,30,,,,,,,,190.36663060000865,190.36663060000865,190.36663060000865,190.36663060000865,190.36663060000865,right,0.6215651000384241,22,0,0,99,0.24,-0.08,right,0.4932977000134997,,,,,188.76702560001286,190.36663060000865,0.4,-0.32,0.0,0.4,-0.32,0.4,0.2,0.4,-0.32,188.47856800002046,188.47856800002046,188.47856800002046,188.47856800002046,188.47856800002046,188.47856800002046,188.47856800002046,188.47856800002046,188.39985696002842,0.4847245999844745,return,0.2629530999693088,,,,,,A,train_x,x_increasing_steps,top_left,2024-10-29_20h58.18.324,HideSeek_v1,2022.2.5,60.55028094212031,
,4,4,7,4,3,0,46,,train_dim1_1,24,30,2,0,2,0,,,,,,,,,0,0,0,0,0,23,23,23,1,0,1,0,,,,,,,,,,,,,,,,,,,,,,,,,,,,,,,,,,,,,,,,,,,,,,,,,,,,30,,,,,,,,190.9595060000429,190.9595060000429,190.9595060000429,190.9595060000429,190.9595060000429,right,0.7899951999424957,22,0,0,99,0.32,-0.08,right,0.7082013000035658,,,,,,,,,,,,,,,,,,,,,,,,,,,,,,,,,A,train_x,x_increasing_steps,top_left,2024-10-29_20h58.18.324,HideSeek_v1,2022.2.5,60.55028094212031,
,4,4,7,4,3,0,46,,train_dim1_1,24,30,2,0,2,0,,,,,,,,,0,0,0,0,0,23,23,23,2,0,2,0,,,,,,,,,,,,,,,,,,,,,,,,,,,,,,,,,,,,,,,,,,,,,,,,,,,,30,,,,,,,,191.7579530000221,191.7579530000221,191.7579530000221,191.7579530000221,191.7579530000221,right,1.3748498000204563,22,0,0,99,0.4,-0.08,right,1.289630200015381,,,,,,,,,,,,,,,,,,,,,,,,,,,,,,,,,A,train_x,x_increasing_steps,top_left,2024-10-29_20h58.18.324,HideSeek_v1,2022.2.5,60.55028094212031,
,4,4,7,4,3,0,46,,train_dim1_1,24,30,2,0,2,0,,,,,,,,,0,0,0,0,0,23,23,23,3,0,3,0,,,,,,,,,,,,,,,,,,,,,,,,,,,,,,,,,,,,,,,,,,,,,,,,,,,,30,,,,,,,,193.138619400037,193.138619400037,193.138619400037,193.138619400037,193.138619400037,return,0.3411267999908887,23,0,0,1,0.4,-0.08,return,0.2468529000179842,0,54,0.4,-0.08,,,,,,,,,,,,,,,,,,,,,,,,,,,,,A,train_x,x_increasing_steps,top_left,2024-10-29_20h58.18.324,HideSeek_v1,2022.2.5,60.55028094212031,
,3,0,3,0,0,0,16,,train_dim1_1,25,30,2,0,2,0,,,,,,,,,0,0,0,0,0,24,24,24,0,0,0,0,,,,,,,,,,,,,stimuli/alien_stimuli/16.png,,,,,,,,,,,,,,,,,,,,,,,,,,,,,stimuli/alien_stimuli/46.png,46,4,26,,,,,,,30,,,,,,,,197.62831280002138,197.62831280002138,197.62831280002138,197.62831280002138,197.62831280002138,right,0.5207583999726921,23,0,0,99,0.16,-0.4,right,0.4024875000468455,,,,,196.03335020004306,197.62831280002138,0.4,-0.08,0.0,0.24,-0.08,0.4,0.28,0.4,-0.08,195.1017721000244,195.1017721000244,195.1017721000244,195.1017721000244,195.1017721000244,195.1017721000244,195.1017721000244,195.1017721000244,195.03283379002244,1.1025643000029959,return,0.9026219000224955,,,,,,A,train_x,x_increasing_steps,top_left,2024-10-29_20h58.18.324,HideSeek_v1,2022.2.5,60.55028094212031,
,3,0,3,0,0,0,16,,train_dim1_1,25,30,2,0,2,0,,,,,,,,,0,0,0,0,0,24,24,24,1,0,1,0,,,,,,,,,,,,,,,,,,,,,,,,,,,,,,,,,,,,,,,,,,,,,,,,,,,,30,,,,,,,,198.1287827999913,198.1287827999913,198.1287827999913,198.1287827999913,198.1287827999913,left,0.30717509996611625,23,0,0,99,0.08,-0.4,left,0.21859939995920286,,,,,,,,,,,,,,,,,,,,,,,,,,,,,,,,,A,train_x,x_increasing_steps,top_left,2024-10-29_20h58.18.324,HideSeek_v1,2022.2.5,60.55028094212031,
,3,0,3,0,0,0,16,,train_dim1_1,25,30,2,0,2,0,,,,,,,,,0,0,0,0,0,24,24,24,2,0,2,0,,,,,,,,,,,,,,,,,,,,,,,,,,,,,,,,,,,,,,,,,,,,,,,,,,,,30,,,,,,,,198.44426479999674,198.44426479999674,198.44426479999674,198.44426479999674,198.44426479999674,return,0.25735150004038587,24,0,0,1,0.08,-0.4,return,0.16286939999554306,0,54,0.08,-0.4,,,,,,,,,,,,,,,,,,,,,,,,,,,,,A,train_x,x_increasing_steps,top_left,2024-10-29_20h58.18.324,HideSeek_v1,2022.2.5,60.55028094212031,
,1,1,6,1,5,0,66,,train_dim1_1,26,30,2,0,2,0,,,,,,,,,0,0,0,0,0,25,25,25,0,0,0,0,,,,,,,,,,,,,stimuli/alien_stimuli/66.png,,,,,,,,,,,,,,,,,,,,,,,,,,,,,stimuli/alien_stimuli/16.png,16,3,27,,,,,,,30,,,,,,,,202.23837480001384,202.23837480001384,202.23837480001384,202.23837480001384,202.23837480001384,right,0.5527839999995194,24,0,0,99,0.0,-0.32,right,0.42887129995506257,,,,,200.63317790004658,202.23837480001384,0.08,-0.4,0.0,0.0,-0.4,0.08,0.08,0.08,-0.4,200.3501324999961,200.3501324999961,200.3501324999961,200.3501324999961,200.3501324999961,200.3501324999961,200.3501324999961,200.3501324999961,200.26580175999553,0.485234199964907,return,0.2593231000355445,,,,,,A,train_x,x_increasing_steps,top_left,2024-10-29_20h58.18.324,HideSeek_v1,2022.2.5,60.55028094212031,
,1,1,6,1,5,0,66,,train_dim1_1,26,30,2,0,2,0,,,,,,,,,0,0,0,0,0,25,25,25,1,0,1,0,,,,,,,,,,,,,,,,,,,,,,,,,,,,,,,,,,,,,,,,,,,,,,,,,,,,30,,,,,,,,202.76702740002656,202.76702740002656,202.76702740002656,202.76702740002656,202.76702740002656,right,0.30832279997412115,24,0,0,99,0.08,-0.32,right,0.21487409999826923,,,,,,,,,,,,,,,,,,,,,,,,,,,,,,,,,A,train_x,x_increasing_steps,top_left,2024-10-29_20h58.18.324,HideSeek_v1,2022.2.5,60.55028094212031,
,1,1,6,1,5,0,66,,train_dim1_1,26,30,2,0,2,0,,,,,,,,,0,0,0,0,0,25,25,25,2,0,2,0,,,,,,,,,,,,,,,,,,,,,,,,,,,,,,,,,,,,,,,,,,,,,,,,,,,,30,,,,,,,,203.08194040000672,203.08194040000672,203.08194040000672,203.08194040000672,203.08194040000672,right,0.30744429997866973,24,0,0,99,0.16,-0.32,right,0.2080341000109911,,,,,,,,,,,,,,,,,,,,,,,,,,,,,,,,,A,train_x,x_increasing_steps,top_left,2024-10-29_20h58.18.324,HideSeek_v1,2022.2.5,60.55028094212031,
,1,1,6,1,5,0,66,,train_dim1_1,26,30,2,0,2,0,,,,,,,,,0,0,0,0,0,25,25,25,3,0,3,0,,,,,,,,,,,,,,,,,,,,,,,,,,,,,,,,,,,,,,,,,,,,,,,,,,,,30,,,,,,,,203.39750750001986,203.39750750001986,203.39750750001986,203.39750750001986,203.39750750001986,right,0.3247879999689758,24,0,0,99,0.24,-0.32,right,0.22525180003140122,,,,,,,,,,,,,,,,,,,,,,,,,,,,,,,,,A,train_x,x_increasing_steps,top_left,2024-10-29_20h58.18.324,HideSeek_v1,2022.2.5,60.55028094212031,
,1,1,6,1,5,0,66,,train_dim1_1,26,30,2,0,2,0,,,,,,,,,0,0,0,0,0,25,25,25,4,0,4,0,,,,,,,,,,,,,,,,,,,,,,,,,,,,,,,,,,,,,,,,,,,,,,,,,,,,30,,,,,,,,203.72935070004314,203.72935070004314,203.72935070004314,203.72935070004314,203.72935070004314,right,0.3242807000060566,24,0,0,99,0.32,-0.32,right,0.2283801000448875,,,,,,,,,,,,,,,,,,,,,,,,,,,,,,,,,A,train_x,x_increasing_steps,top_left,2024-10-29_20h58.18.324,HideSeek_v1,2022.2.5,60.55028094212031,
,1,1,6,1,5,0,66,,train_dim1_1,26,30,2,0,2,0,,,,,,,,,0,0,0,0,0,25,25,25,5,0,5,0,,,,,,,,,,,,,,,,,,,,,,,,,,,,,,,,,,,,,,,,,,,,,,,,,,,,30,,,,,,,,204.0902791999979,204.0902791999979,204.0902791999979,204.0902791999979,204.0902791999979,return,0.2409417000017129,25,0,0,1,0.32,-0.32,return,0.12107900000410154,0,59,0.32,-0.32,,,,,,,,,,,,,,,,,,,,,,,,,,,,,A,train_x,x_increasing_steps,top_left,2024-10-29_20h58.18.324,HideSeek_v1,2022.2.5,60.55028094212031,
,0,1,2,1,2,0,36,,train_dim1_1,27,30,2,0,2,0,,,,,,,,,0,0,0,0,0,26,26,26,0,0,0,0,,,,,,,,,,,,,stimuli/alien_stimuli/36.png,,,,,,,,,,,,,,,,,,,,,,,,,,,,,stimuli/alien_stimuli/66.png,66,1,28,,,,,,,30,,,,,,,,208.16058170003816,208.16058170003816,208.16058170003816,208.16058170003816,208.16058170003816,right,2.3542007000069134,25,0,0,99,-0.08,-0.32,right,2.233326199988369,,,,,206.56674890004797,208.16058170003816,0.32,-0.32,0.0,0.4,-0.32,0.32,0.12,0.32,-0.32,205.95348990004277,205.95348990004277,205.95348990004277,205.95348990004277,205.95348990004277,205.95348990004277,205.95348990004277,205.95348990004277,205.88295783002397,0.8172282000305131,return,0.5889614999759942,,,,,,A,train_x,x_increasing_steps,top_left,2024-10-29_20h58.18.324,HideSeek_v1,2022.2.5,60.55028094212031,
,0,1,2,1,2,0,36,,train_dim1_1,27,30,2,0,2,0,,,,,,,,,0,0,0,0,0,26,26,26,1,0,1,0,,,,,,,,,,,,,,,,,,,,,,,,,,,,,,,,,,,,,,,,,,,,,,,,,,,,30,,,,,,,,210.49075729999458,210.49075729999458,210.49075729999458,210.49075729999458,210.49075729999458,right,1.1567454999894835,25,0,0,99,0.0,-0.32,right,1.0704614999704063,,,,,,,,,,,,,,,,,,,,,,,,,,,,,,,,,A,train_x,x_increasing_steps,top_left,2024-10-29_20h58.18.324,HideSeek_v1,2022.2.5,60.55028094212031,
,0,1,2,1,2,0,36,,train_dim1_1,27,30,2,0,2,0,,,,,,,,,0,0,0,0,0,26,26,26,2,0,2,0,,,,,,,,,,,,,,,,,,,,,,,,,,,,,,,,,,,,,,,,,,,,,,,,,,,,30,,,,,,,,211.65647059999174,211.65647059999174,211.65647059999174,211.65647059999174,211.65647059999174,right,1.3413751000189222,25,0,0,99,0.08,-0.32,right,1.2545987999765202,,,,,,,,,,,,,,,,,,,,,,,,,,,,,,,,,A,train_x,x_increasing_steps,top_left,2024-10-29_20h58.18.324,HideSeek_v1,2022.2.5,60.55028094212031,
,0,1,2,1,2,0,36,,train_dim1_1,27,30,2,0,2,0,,,,,,,,,0,0,0,0,0,26,26,26,3,0,3,0,,,,,,,,,,,,,,,,,,,,,,,,,,,,,,,,,,,,,,,,,,,,,,,,,,,,30,,,,,,,,213.01317690004362,213.01317690004362,213.01317690004362,213.01317690004362,213.01317690004362,left,3.9578999999794178,25,0,0,99,0.0,-0.32,left,3.859680699999444,,,,,,,,,,,,,,,,,,,,,,,,,,,,,,,,,A,train_x,x_increasing_steps,top_left,2024-10-29_20h58.18.324,HideSeek_v1,2022.2.5,60.55028094212031,
,0,1,2,1,2,0,36,,train_dim1_1,27,30,2,0,2,0,,,,,,,,,0,0,0,0,0,26,26,26,4,0,4,0,,,,,,,,,,,,,,,,,,,,,,,,,,,,,,,,,,,,,,,,,,,,,,,,,,,,30,,,,,,,,216.97308000002522,216.97308000002522,216.97308000002522,216.97308000002522,216.97308000002522,return,0.20802560000447556,26,0,0,1,0.0,-0.32,return,0.12673760001780465,0,61,0.0,-0.32,,,,,,,,,,,,,,,,,,,,,,,,,,,,,A,train_x,x_increasing_steps,top_left,2024-10-29_20h58.18.324,HideSeek_v1,2022.2.5,60.55028094212031,
,3,1,4,1,1,0,26,,train_dim1_1,28,30,2,0,2,0,,,,,,,,,0,0,0,0,0,27,27,27,0,0,0,0,,,,,,,,,,,,,stimuli/alien_stimuli/26.png,,,,,,,,,,,,,,,,,,,,,,,,,,,,,stimuli/alien_stimuli/36.png,36,0,29,,,,,,,30,,,,,,,,221.00039970001671,221.00039970001671,221.00039970001671,221.00039970001671,221.00039970001671,right,1.055069399997592,26,0,0,99,0.16,-0.32,right,0.9341299000079744,,,,,219.39952040003845,221.00039970001671,0,-0.32,0.0,0.16,-0.32,0,-0.08,0,-0.32,218.83050750003895,218.83050750003895,218.83050750003895,218.83050750003895,218.83050750003895,218.83050750003895,218.83050750003895,218.83050750003895,218.7649146300275,0.7688981000101194,return,0.540806100005284,,,,,,A,train_x,x_increasing_steps,top_left,2024-10-29_20h58.18.324,HideSeek_v1,2022.2.5,60.55028094212031,
,3,1,4,1,1,0,26,,train_dim1_1,28,30,2,0,2,0,,,,,,,,,0,0,0,0,0,27,27,27,1,0,1,0,,,,,,,,,,,,,,,,,,,,,,,,,,,,,,,,,,,,,,,,,,,,,,,,,,,,30,,,,,,,,222.03111070004525,222.03111070004525,222.03111070004525,222.03111070004525,222.03111070004525,return,0.3893263999489136,27,0,0,1,0.16,-0.32,return,0.30383140000049025,0,62,0.16,-0.32,,,,,,,,,,,,,,,,,,,,,,,,,,,,,A,train_x,x_increasing_steps,top_left,2024-10-29_20h58.18.324,HideSeek_v1,2022.2.5,60.55028094212031,
,4,0,7,0,3,0,46,,train_dim1_1,29,30,2,0,2,0,,,,,,,,,0,0,0,0,0,28,28,28,0,0,0,0,,,,,,,,,,,,,stimuli/alien_stimuli/46.png,,,,,,,,,,,,,,,,,,,,,,,,,,,,,stimuli/alien_stimuli/26.png,26,3,30,,,,,,,30,,,,,,,,226.0312130000093,226.0312130000093,226.0312130000093,226.0312130000093,226.0312130000093,right,0.5214341999962926,27,0,0,99,0.24,-0.4,right,0.3998213000013493,,,,,224.43319310003426,226.0312130000093,0.16,-0.32,0.0,0.08,-0.32,0.16,0.12,0.16,-0.32,224.0676758000045,224.0676758000045,224.0676758000045,224.0676758000045,224.0676758000045,224.0676758000045,224.0676758000045,224.0676758000045,223.98250226004748,0.567369399999734,return,0.34102530003292486,,,,,,A,train_x,x_increasing_steps,top_left,2024-10-29_20h58.18.324,HideSeek_v1,2022.2.5,60.55028094212031,
,4,0,7,0,3,0,46,,train_dim1_1,29,30,2,0,2,0,,,,,,,,,0,0,0,0,0,28,28,28,1,0,1,0,,,,,,,,,,,,,,,,,,,,,,,,,,,,,,,,,,,,,,,,,,,,,,,,,,,,30,,,,,,,,226.53445790003752,226.53445790003752,226.53445790003752,226.53445790003752,226.53445790003752,right,0.40732520003803074,27,0,0,99,0.32,-0.4,right,0.3049472999991849,,,,,,,,,,,,,,,,,,,,,,,,,,,,,,,,,A,train_x,x_increasing_steps,top_left,2024-10-29_20h58.18.324,HideSeek_v1,2022.2.5,60.55028094212031,
,4,0,7,0,3,0,46,,train_dim1_1,29,30,2,0,2,0,,,,,,,,,0,0,0,0,0,28,28,28,2,0,2,0,,,,,,,,,,,,,,,,,,,,,,,,,,,,,,,,,,,,,,,,,,,,,,,,,,,,30,,,,,,,,226.94206210004631,226.94206210004631,226.94206210004631,226.94206210004631,226.94206210004631,right,0.49235650000628084,27,0,0,99,0.4,-0.4,right,0.40481169999111444,,,,,,,,,,,,,,,,,,,,,,,,,,,,,,,,,A,train_x,x_increasing_steps,top_left,2024-10-29_20h58.18.324,HideSeek_v1,2022.2.5,60.55028094212031,
,4,0,7,0,3,0,46,,train_dim1_1,29,30,2,0,2,0,,,,,,,,,0,0,0,0,0,28,28,28,3,0,3,0,,,,,,,,,,,,,,,,,,,,,,,,,,,,,,,,,,,,,,,,,,,,,,,,,,,,30,,,,,,,,227.44961060001515,227.44961060001515,227.44961060001515,227.44961060001515,227.44961060001515,return,0.27238879998913035,28,0,0,1,0.4,-0.4,return,0.18274099996779114,0,65,0.4,-0.4,,,,,,,,,,,,,,,,,,,,,,,,,,,,,A,train_x,x_increasing_steps,top_left,2024-10-29_20h58.18.324,HideSeek_v1,2022.2.5,60.55028094212031,
,2,2,2,2,0,0,16,,train_dim1_1,30,30,2,0,2,0,,,,,,,,,0,0,0,0,0,29,29,29,0,0,0,0,,,,,,,,,,,,,stimuli/alien_stimuli/16.png,,,,,,,,,,,,,,,,,,,,,,,,,,,,,stimuli/alien_stimuli/46.png,46,4,31,,,,,,,30,,,,,,,,231.86654060002184,231.86654060002184,231.86654060002184,231.86654060002184,231.86654060002184,return,0.7526600999990478,29,0,0,1,0,-0.24,return,0.6340944999828935,0,65,0,-0.24,230.26655180001399,231.86654060002184,0.4,-0.4,0.0,0.24,-0.4,0.4,0.28,0.4,-0.4,229.3522150000208,229.3522150000208,229.3522150000208,229.3522150000208,229.3522150000208,229.3522150000208,229.3522150000208,229.3522150000208,229.26559759003578,1.1024550000438467,return,0.8849884000374004,,,,,,A,train_x,x_increasing_steps,top_left,2024-10-29_20h58.18.324,HideSeek_v1,2022.2.5,60.55028094212031,
,,,,,,,,,,,30,2,0,2,0,,,,,,,,,,,,,,,,,,,,,,,,,,,,,,,,,,,,,,,,,,,,,,,,,,,,,,,,,,,,,,stimuli/alien_stimuli/16.png,16,2,32,17,0.7,1.2083333333333335,1,1,1,30,0,conditions/schedules/train_x_first/x_increasing_steps/top_left/inputTrain_1.1.xlsx,99,1,2,1,0,,,,,,,,,,,1,,,,,,,,,235.26648540003225,236.86249080003472,0,-0.24,0.0,0.0,-0.24,0,0.0,0,-0.24,234.21313940000255,234.21313940000255,234.21313940000255,234.21313940000255,234.21313940000255,234.21313940000255,234.21313940000255,234.21313940000255,234.13177329001485,1.236670900019817,return,1.0369576000375673,0,1.2083333333333335,0,1,29,A,train_x,x_increasing_steps,top_left,2024-10-29_20h58.18.324,HideSeek_v1,2022.2.5,60.55028094212031,
,,,,,,,,,,,,3,0,3,0,0,0,0,0,,,,,,,,,,,,,,,,,,,conditions/schedules/train_x_first/x_increasing_steps/top_left/instructions/Slide17.png,conditions/schedules/train_x_first/x_increasing_steps/top_left/instructions/Audio17.wav,236.86249080003472,236.8493597200257,17,"[8.242597399977967, 0.29386729997349903, 0.3122226999839768, 0.2947897000121884, 0.2789629000471905, 0.2660273999790661, 0.29437989997677505, 0.21007509995251894, 0.2696861000149511, 0.2895562000339851, 0.28810710000107065, 0.2511769999982789, 0.4112121000071056, 0.3482703000190668, 0.9510402000159957, 0.3647935999906622, 1.273881100001745]","[0.00032439996721222997, 0.0002523000002838671, 0.04440710000926629, 0.024343900033272803, 0.01724150002701208, 0.024987499986309558, 0.2943899999954738, 0.05150410003261641, 0.055722500022966415, 0.01981520000845194, 0.01747700001578778, 0.2511860000086017, 0.4112267000018619, 0.3482780000194907, 0.06478890002472326, 0.36480260000098497, 1.2738954999949783]",0,,,,,,,,,,,,,,,,,,,,,,,,,,,,,,,,,,,,,,,,,,,,,,,,,,,,,,,,,,,,,,,,,,,,,,,,,,,,,,,,,,,,,,,,,,,,,,,,,A,train_x,x_increasing_steps,top_left,2024-10-29_20h58.18.324,HideSeek_v1,2022.2.5,60.55028094212031,
,,,,,,,,,,,,3,0,3,0,1,0,1,0,,,,,,,,,,,,,,,,,,,conditions/schedules/train_x_first/x_increasing_steps/top_left/instructions/Slide18.png,conditions/schedules/train_x_first/x_increasing_steps/top_left/instructions/Audio18.wav,238.20034080004552,238.18249008000132,18,"[8.242597399977967, 0.29386729997349903, 0.3122226999839768, 0.2947897000121884, 0.2789629000471905, 0.2660273999790661, 0.29437989997677505, 0.21007509995251894, 0.2696861000149511, 0.2895562000339851, 0.28810710000107065, 0.2511769999982789, 0.4112121000071056, 0.3482703000190668, 0.9510402000159957, 0.3647935999906622, 1.273881100001745, 0.8865778999752365]","[0.00032439996721222997, 0.0002523000002838671, 0.04440710000926629, 0.024343900033272803, 0.01724150002701208, 0.024987499986309558, 0.2943899999954738, 0.05150410003261641, 0.055722500022966415, 0.01981520000845194, 0.01747700001578778, 0.2511860000086017, 0.4112267000018619, 0.3482780000194907, 0.06478890002472326, 0.36480260000098497, 1.2738954999949783, 0.8865866999840364]",0,,,,,,,,,,,,,,,,,,,,,,,,,,,,,,,,,,,,,,,,,,,,,,,,,,,,,,,,,,,,,,,,,,,,,,,,,,,,,,,,,,,,,,,,,,,,,,,,,A,train_x,x_increasing_steps,top_left,2024-10-29_20h58.18.324,HideSeek_v1,2022.2.5,60.55028094212031,
,,,,,,,,,,,,3,0,3,0,2,0,2,0,,,,,,,,,,,,,,,,,,,conditions/schedules/train_x_first/x_increasing_steps/top_left/instructions/Slide19.png,conditions/schedules/train_x_first/x_increasing_steps/top_left/instructions/Audio19.wav,239.12975419999566,239.11613481000532,19,"[8.242597399977967, 0.29386729997349903, 0.3122226999839768, 0.2947897000121884, 0.2789629000471905, 0.2660273999790661, 0.29437989997677505, 0.21007509995251894, 0.2696861000149511, 0.2895562000339851, 0.28810710000107065, 0.2511769999982789, 0.4112121000071056, 0.3482703000190668, 0.9510402000159957, 0.3647935999906622, 1.273881100001745, 0.8865778999752365, 1.0545722999959253]","[0.00032439996721222997, 0.0002523000002838671, 0.04440710000926629, 0.024343900033272803, 0.01724150002701208, 0.024987499986309558, 0.2943899999954738, 0.05150410003261641, 0.055722500022966415, 0.01981520000845194, 0.01747700001578778, 0.2511860000086017, 0.4112267000018619, 0.3482780000194907, 0.06478890002472326, 0.36480260000098497, 1.2738954999949783, 0.01831110002240166, 1.0545816000085324]",0,,,,,,,,,,,,,,,,,,,,,,,,,,,,,,,,,,,,,,,,,,,,,,,,,,,,,,,,,,,,,,,,,,,,,,,,,,,,,,,,,,,,,,,,,,,,,,,,,A,train_x,x_increasing_steps,top_left,2024-10-29_20h58.18.324,HideSeek_v1,2022.2.5,60.55028094212031,
,,,,,,,,,,,,3,0,3,0,3,0,3,0,,,,,,,,,,,,,,,,,,,conditions/schedules/train_x_first/x_increasing_steps/top_left/instructions/Slide20.png,conditions/schedules/train_x_first/x_increasing_steps/top_left/instructions/Audio20.wav,240.2490991000086,240.23225938003745,20,"[8.242597399977967, 0.29386729997349903, 0.3122226999839768, 0.2947897000121884, 0.2789629000471905, 0.2660273999790661, 0.29437989997677505, 0.21007509995251894, 0.2696861000149511, 0.2895562000339851, 0.28810710000107065, 0.2511769999982789, 0.4112121000071056, 0.3482703000190668, 0.9510402000159957, 0.3647935999906622, 1.273881100001745, 0.8865778999752365, 1.0545722999959253, 2.068602900020778]","[0.00032439996721222997, 0.0002523000002838671, 0.04440710000926629, 0.024343900033272803, 0.01724150002701208, 0.024987499986309558, 0.2943899999954738, 0.05150410003261641, 0.055722500022966415, 0.01981520000845194, 0.01747700001578778, 0.2511860000086017, 0.4112267000018619, 0.3482780000194907, 0.06478890002472326, 0.36480260000098497, 1.2738954999949783, 0.01831110002240166, 1.0545816000085324, 2.068628799985163]",0,,,,,,,,,,,,,,,,,,,,,,,,,,,,,,,,,,,,,,,,,,,,,,,,,,,,,,,,,,,,,,,,,,,,,,,,,,,,,,,,,,,,,,,,,,,,,,,,,A,train_x,x_increasing_steps,top_left,2024-10-29_20h58.18.324,HideSeek_v1,2022.2.5,60.55028094212031,
1,3,2,8,2,5,0,66,2,instr_dim1_1,,,3,0,3,0,,,,,0,0,0,0,,,,,,,,,,,,,,,,,,,,,,,,,stimuli/alien_stimuli/66.png,conditions/schedules/train_x_first/x_increasing_steps/top_left/inputInstr_1.xlsx,stimuli/alien_stimuli/66.png,242.4662942000432,242.4662942000432,242.4662942000432,242.4662942000432,242.39846782003298,return,5.076260100002401,"[-0.16, -0.08, 0, 0.08, 0.16, 0.24, 0.32, 0.4, 0.48, 0.56]","[-0.4, -0.32, -0.24, -0.16, -0.08, 0, 0.08, 0.16, 0.24, 0.32]",2,2,8,3,0.0,0.4,247.78281510004308,247.78281510004308,247.78281510004308,247.78281510004308,247.78281510004308,247.78281510004308,247.78281510004308,247.69806463002462,0.9012562000425532,return,0.6607616000110283,stimuli/alien_stimuli/66.png,66,3,1,,,,,,,,,,,,,,,,,,,,,,,,,,,,,,,,,,,,,,,,,,,,,,,,,,,,,,,,,,,,,,A,train_x,x_increasing_steps,top_left,2024-10-29_20h58.18.324,HideSeek_v1,2022.2.5,60.55028094212031,
,,,,,,,,,,,30,3,0,3,0,,,,,,,,,,,,,,,,,,,,,,,,,,,,,,,,,,,,,,,,,,,,,,,,,,,,,,,,,,,,,,,,,,17,0.7,1.2083333333333335,1,99,2,30,0,conditions/schedules/train_x_first/x_increasing_steps/top_left/inputTrain_1.1.xlsx,99,1,2,1,0,,,,,,,,,,,,,,,,,,,,,,,,,,,,,,,,,,,,,,,,,,,,,,,,A,train_x,x_increasing_steps,top_left,2024-10-29_20h58.18.324,HideSeek_v1,2022.2.5,60.55028094212031,
,,,,,,,,,,,,4,0,4,0,0,0,0,0,,,,,,,,,,,,,,,,,,,conditions/schedules/train_x_first/x_increasing_steps/top_left/instructions/Slide21.png,conditions/schedules/train_x_first/x_increasing_steps/top_left/instructions/Audio21.wav,248.6333178000059,248.61505760002183,21,"[8.242597399977967, 0.29386729997349903, 0.3122226999839768, 0.2947897000121884, 0.2789629000471905, 0.2660273999790661, 0.29437989997677505, 0.21007509995251894, 0.2696861000149511, 0.2895562000339851, 0.28810710000107065, 0.2511769999982789, 0.4112121000071056, 0.3482703000190668, 0.9510402000159957, 0.3647935999906622, 1.273881100001745, 0.8865778999752365, 1.0545722999959253, 2.068602900020778, 2.075361100025475]","[0.00032439996721222997, 0.0002523000002838671, 0.04440710000926629, 0.024343900033272803, 0.01724150002701208, 0.024987499986309558, 0.2943899999954738, 0.05150410003261641, 0.055722500022966415, 0.01981520000845194, 0.01747700001578778, 0.2511860000086017, 0.4112267000018619, 0.3482780000194907, 0.06478890002472326, 0.36480260000098497, 1.2738954999949783, 0.01831110002240166, 1.0545816000085324, 2.068628799985163, 2.075369300029706]",0,,,,,,,,,,,,,,,,,,,,,,,,,,,,,,,,,,,,,,,,,,,,,,,,,,,,,,,,,,,,,,,,,,,,,,,,,,,,,,,,,,,,,,,,,,,,,,,,,A,train_x,x_increasing_steps,top_left,2024-10-29_20h58.18.324,HideSeek_v1,2022.2.5,60.55028094212031,
2,4,0,4,0,0,0,16,2,instr_dim1_1,,,4,0,4,0,,,,,0,0,0,0,,,,,,,,,,,,,,,,,,,,,,,,,stimuli/alien_stimuli/16.png,conditions/schedules/train_x_first/x_increasing_steps/top_left/inputInstr_1.xlsx,stimuli/alien_stimuli/16.png,250.83330320002278,250.83330320002278,250.83330320002278,250.83330320002278,250.79889049004998,return,1.2662425999878906,"[-0.16, -0.08, 0, 0.08, 0.16, 0.24, 0.32, 0.4, 0.48, 0.56]","[-0.4, -0.32, -0.24, -0.16, -0.08, 0, 0.08, 0.16, 0.24, 0.32]",0,0,4,4,0.0,0.0,252.36711180000566,252.36711180000566,252.36711180000566,252.36711180000566,252.36711180000566,252.36711180000566,252.36711180000566,252.2644589000265,0.5491990000009537,return,0.27200290001928806,stimuli/alien_stimuli/16.png,16,4,2,,,,,,,,,,,,,,,,,,,,,,,,,,,,,,,,,,,,,,,,,,,,,,,,,,,,,,,,,,,,,,A,train_x,x_increasing_steps,top_left,2024-10-29_20h58.18.324,HideSeek_v1,2022.2.5,60.55028094212031,
,,,,,,,,,,,30,4,0,4,0,,,,,,,,,,,,,,,,,,,,,,,,,,,,,,,,,,,,,,,,,,,,,,,,,,,,,,,,,,,,,,,,,,17,0.7,1.2083333333333335,1,99,2,30,0,conditions/schedules/train_x_first/x_increasing_steps/top_left/inputTrain_1.1.xlsx,99,1,2,1,0,,,,,,,,,,,,,,,,,,,,,,,,,,,,,,,,,,,,,,,,,,,,,,,,A,train_x,x_increasing_steps,top_left,2024-10-29_20h58.18.324,HideSeek_v1,2022.2.5,60.55028094212031,
,,,,,,,,,,,,5,0,5,0,0,0,0,0,,,,,,,,,,,,,,,,,,,conditions/schedules/train_x_first/x_increasing_steps/top_left/instructions/Slide22.png,conditions/schedules/train_x_first/x_increasing_steps/top_left/instructions/Audio22.wav,252.82903630001238,252.81462459999602,22,"[8.242597399977967, 0.29386729997349903, 0.3122226999839768, 0.2947897000121884, 0.2789629000471905, 0.2660273999790661, 0.29437989997677505, 0.21007509995251894, 0.2696861000149511, 0.2895562000339851, 0.28810710000107065, 0.2511769999982789, 0.4112121000071056, 0.3482703000190668, 0.9510402000159957, 0.3647935999906622, 1.273881100001745, 0.8865778999752365, 1.0545722999959253, 2.068602900020778, 2.075361100025475, 0.8066624000202864]","[0.00032439996721222997, 0.0002523000002838671, 0.04440710000926629, 0.024343900033272803, 0.01724150002701208, 0.024987499986309558, 0.2943899999954738, 0.05150410003261641, 0.055722500022966415, 0.01981520000845194, 0.01747700001578778, 0.2511860000086017, 0.4112267000018619, 0.3482780000194907, 0.06478890002472326, 0.36480260000098497, 1.2738954999949783, 0.01831110002240166, 1.0545816000085324, 2.068628799985163, 2.075369300029706, 0.806674399995245]",0,,,,,,,,,,,,,,,,,,,,,,,,,,,,,,,,,,,,,,,,,,,,,,,,,,,,,,,,,,,,,,,,,,,,,,,,,,,,,,,,,,,,,,,,,,,,,,,,,A,train_x,x_increasing_steps,top_left,2024-10-29_20h58.18.324,HideSeek_v1,2022.2.5,60.55028094212031,
,,,,,,,,,,,,,,,,,,,,,,,,,,,,,,,,,,,,,,,,,,,,,,,,stimuli/alien_stimuli/36.png,,,,,,,,,,,,,,,,,,,,,,,,,,,,,,,,,,,,,,,,,,,,,,,253.78324060002342,253.78324060002342,253.78324060002342,253.78324060002342,253.78324060002342,,,,,,,,,,,,,,,,,,,,,,,,,,,,,,,,,,,,,,,,,,,,,,,,,,,
