trialTrain,x_fixStart,y_fixStart,x_corrSteps,y_corrSteps,x_nrSteps,y_nrSteps,alienID,testlen,version,trial_label,break_on_off,beforeExpLoop.thisRepN,beforeExpLoop.thisTrialN,beforeExpLoop.thisN,beforeExpLoop.thisIndex,mini_instr_trials.thisRepN,mini_instr_trials.thisTrialN,mini_instr_trials.thisN,mini_instr_trials.thisIndex,instrLoop.thisRepN,instrLoop.thisTrialN,instrLoop.thisN,instrLoop.thisIndex,repeat_prac.thisRepN,repeat_prac.thisTrialN,repeat_prac.thisN,repeat_prac.thisIndex,trainLoop.thisRepN,trainLoop.thisTrialN,trainLoop.thisN,trainLoop.thisIndex,experiment.thisRepN,experiment.thisTrialN,experiment.thisN,experiment.thisIndex,moveLoop_test.thisRepN,moveLoop_test.thisTrialN,moveLoop_test.thisN,moveLoop_test.thisIndex,breaks.thisRepN,breaks.thisTrialN,breaks.thisN,breaks.thisIndex,start_all_time,url,slideStim,audioStim,slides.started,sounds.started,nextButton.numClicks,nextButton.timesOn,nextButton.timesOff,prev_but.numClicks,prev_but.timesOn,prev_but.timesOff,perfthres,percthres,earlierperf,earlystop,nextPrac,fileidx,praclen,saveACC_train,pracFile,nextPrac_train,addNrep,fileidx_endr,repExp,showearly,alienStim,gridImage_3.started,alienImage_test.started,startPos_test.started,movePos_test.started,key_resp_test.started,wLy_dir_test,wLx_dir_test,buttonPress_test,RTchoice_test,cumAcctest,saveACC_choice,corrAns_test,x_movePos_end,y_movePos_end,key_resp_test.keys,key_resp_test.rt,fixation_text.started,fixation_text.stopped,draw_alienStim,draw_alienID,test_x,nrepcount,image_break_3.started,key_resp_7.started,key_resp_7.keys,key_resp_7.rt,participant,train_first,00_coordinate,starting corner,date,expName,psychopyVersion,frameRate,
,,,,,,,,,,,,0,0,0,0,0,0,0,0,,,,,,,,,,,,,,,,,,,,,,,,,start_all_time,testround,conditions/schedules/train_y_first/red_square_00/top_left/instructions/Slide1.png,conditions/schedules/train_y_first/red_square_00/top_left/instructions/Audio1.wav,22.531824600184336,22.47102491015103,1,[2.292491399915889],[2.2925023999996483],0,,,,,,,,,,,,,,,,,,,,,,,,,,,,,,,,,,,,,,,,,,,,A,train_y,red_square,top_left,2024-11-07_15h54.29.957,HideSeek_v1,2022.2.5,59.88170967623394,
,,,,,,,,,,,,0,0,0,0,1,0,1,0,,,,,,,,,,,,,,,,,,,,,,,,,,,conditions/schedules/train_y_first/red_square_00/top_left/instructions/Slide2.png,conditions/schedules/train_y_first/red_square_00/top_left/instructions/Audio2.wav,24.812402400188148,24.809954820061105,2,"[2.292491399915889, 0.26288389996625483]","[0.015055699972435832, 0.2628917000256479]",0,,,,,,,,,,,,,,,,,,,,,,,,,,,,,,,,,,,,,,,,,,,,A,train_y,red_square,top_left,2024-11-07_15h54.29.957,HideSeek_v1,2022.2.5,59.88170967623394,
,,,,,,,,,,,,0,0,0,0,2,0,2,0,,,,,,,,,,,,,,,,,,,,,,,,,,,conditions/schedules/train_y_first/red_square_00/top_left/instructions/Slide3.png,conditions/schedules/train_y_first/red_square_00/top_left/instructions/Audio3.wav,25.12632570019923,25.126445520063864,3,"[2.292491399915889, 0.26288389996625483, 0.09764040005393326]","[0.015055699972435832, 0.2628917000256479, 0.09764870000071824]",0,,,,,,,,,,,,,,,,,,,,,,,,,,,,,,,,,,,,,,,,,,,,A,train_y,red_square,top_left,2024-11-07_15h54.29.957,HideSeek_v1,2022.2.5,59.88170967623394,
,,,,,,,,,,,,0,0,0,0,3,0,3,0,,,,,,,,,,,,,,,,,,,,,,,,,,,conditions/schedules/train_y_first/red_square_00/top_left/instructions/Slide4.png,conditions/schedules/train_y_first/red_square_00/top_left/instructions/Audio4.wav,25.276640800060704,25.259323590039276,4,"[2.292491399915889, 0.26288389996625483, 0.09764040005393326, 0.13575070002116263]","[0.015055699972435832, 0.2628917000256479, 0.018992200028151274, 0.13576049986295402]",0,,,,,,,,,,,,,,,,,,,,,,,,,,,,,,,,,,,,,,,,,,,,A,train_y,red_square,top_left,2024-11-07_15h54.29.957,HideSeek_v1,2022.2.5,59.88170967623394,
,,,,,,,,,,,,0,0,0,0,4,0,4,0,,,,,,,,,,,,,,,,,,,,,,,,,,,conditions/schedules/train_y_first/red_square_00/top_left/instructions/Slide5.png,conditions/schedules/train_y_first/red_square_00/top_left/instructions/Audio5.wav,25.459648300195113,25.442717789974996,5,"[2.292491399915889, 0.26288389996625483, 0.09764040005393326, 0.13575070002116263, 0.14230920001864433]","[0.015055699972435832, 0.2628917000256479, 0.018992200028151274, 0.00020450004376471043, 0.14232340012677014]",0,,,,,,,,,,,,,,,,,,,,,,,,,,,,,,,,,,,,,,,,,,,,A,train_y,red_square,top_left,2024-11-07_15h54.29.957,HideSeek_v1,2022.2.5,59.88170967623394,
,,,,,,,,,,,,0,0,0,0,5,0,5,0,,,,,,,,,,,,,,,,,,,,,,,,,,,conditions/schedules/train_y_first/red_square_00/top_left/instructions/Slide6.png,conditions/schedules/train_y_first/red_square_00/top_left/instructions/Audio6.wav,25.627850400051102,25.626042490196415,6,"[2.292491399915889, 0.26288389996625483, 0.09764040005393326, 0.13575070002116263, 0.14230920001864433, 0.1957131999079138]","[0.015055699972435832, 0.2628917000256479, 0.018992200028151274, 0.00020450004376471043, 0.013201399939134717, 0.19572379998862743]",0,,,,,,,,,,,,,,,,,,,,,,,,,,,,,,,,,,,,,,,,,,,,A,train_y,red_square,top_left,2024-11-07_15h54.29.957,HideSeek_v1,2022.2.5,59.88170967623394,
,,,,,,,,,,,,0,0,0,0,6,0,6,0,,,,,,,,,,,,,,,,,,,,,,,,,,,conditions/schedules/train_y_first/red_square_00/top_left/instructions/Slide7.png,conditions/schedules/train_y_first/red_square_00/top_left/instructions/Audio7.wav,25.86223249998875,25.860271390131675,7,"[2.292491399915889, 0.26288389996625483, 0.09764040005393326, 0.13575070002116263, 0.14230920001864433, 0.1957131999079138, 0.14378449996002018]","[0.015055699972435832, 0.2628917000256479, 0.018992200028151274, 0.00020450004376471043, 0.013201399939134717, 0.013093899935483932, 0.14379279990680516]",0,,,,,,,,,,,,,,,,,,,,,,,,,,,,,,,,,,,,,,,,,,,,A,train_y,red_square,top_left,2024-11-07_15h54.29.957,HideSeek_v1,2022.2.5,59.88170967623394,
,,,,,,,,,,,,0,0,0,0,7,0,7,0,,,,,,,,,,,,,,,,,,,,,,,,,,,conditions/schedules/train_y_first/red_square_00/top_left/instructions/Slide8.png,conditions/schedules/train_y_first/red_square_00/top_left/instructions/Audio8.wav,26.060284900013357,26.042799290106633,8,"[2.292491399915889, 0.26288389996625483, 0.09764040005393326, 0.13575070002116263, 0.14230920001864433, 0.1957131999079138, 0.14378449996002018, 0.1940926001407206]","[0.015055699972435832, 0.2628917000256479, 0.018992200028151274, 0.00020450004376471043, 0.013201399939134717, 0.013093899935483932, 0.04368260013870895, 0.19410040020011365]",0,,,,,,,,,,,,,,,,,,,,,,,,,,,,,,,,,,,,,,,,,,,,A,train_y,red_square,top_left,2024-11-07_15h54.29.957,HideSeek_v1,2022.2.5,59.88170967623394,
,,,,,,,,,,,,0,0,0,0,8,0,8,0,,,,,,,,,,,,,,,,,,,,,,,,,,,conditions/schedules/train_y_first/red_square_00/top_left/instructions/Slide9.png,conditions/schedules/train_y_first/red_square_00/top_left/instructions/Audio9.wav,26.278378700139,26.276004490046763,9,"[2.292491399915889, 0.26288389996625483, 0.09764040005393326, 0.13575070002116263, 0.14230920001864433, 0.1957131999079138, 0.14378449996002018, 0.1940926001407206, 0.1609808998182416]","[0.015055699972435832, 0.2628917000256479, 0.018992200028151274, 0.00020450004376471043, 0.013201399939134717, 0.013093899935483932, 0.04368260013870895, 0.04445259994827211, 0.16098769987002015]",0,,,,,,,,,,,,,,,,,,,,,,,,,,,,,,,,,,,,,,,,,,,,A,train_y,red_square,top_left,2024-11-07_15h54.29.957,HideSeek_v1,2022.2.5,59.88170967623394,
,,,,,,,,,,,,0,0,0,0,9,0,9,0,,,,,,,,,,,,,,,,,,,,,,,,,,,conditions/schedules/train_y_first/red_square_00/top_left/instructions/Slide10.png,conditions/schedules/train_y_first/red_square_00/top_left/instructions/Audio10.wav,26.47590640000999,26.45902426009998,10,"[2.292491399915889, 0.26288389996625483, 0.09764040005393326, 0.13575070002116263, 0.14230920001864433, 0.1957131999079138, 0.14378449996002018, 0.1940926001407206, 0.1609808998182416, 0.1897756999824196]","[0.015055699972435832, 0.2628917000256479, 0.018992200028151274, 0.00020450004376471043, 0.013201399939134717, 0.013093899935483932, 0.04368260013870895, 0.04445259994827211, 0.07232669997029006, 0.18978690006770194]",0,,,,,,,,,,,,,,,,,,,,,,,,,,,,,,,,,,,,,,,,,,,,A,train_y,red_square,top_left,2024-11-07_15h54.29.957,HideSeek_v1,2022.2.5,59.88170967623394,
,,,,,,,,,,,,0,0,0,0,10,0,10,0,,,,,,,,,,,,,,,,,,,,,,,,,,,conditions/schedules/train_y_first/red_square_00/top_left/instructions/Slide11.png,conditions/schedules/train_y_first/red_square_00/top_left/instructions/Audio11.wav,26.693400900112465,26.676285160053524,11,"[2.292491399915889, 0.26288389996625483, 0.09764040005393326, 0.13575070002116263, 0.14230920001864433, 0.1957131999079138, 0.14378449996002018, 0.1940926001407206, 0.1609808998182416, 0.1897756999824196, 0.17027570004574955]","[0.015055699972435832, 0.2628917000256479, 0.018992200028151274, 0.00020450004376471043, 0.013201399939134717, 0.013093899935483932, 0.04368260013870895, 0.04445259994827211, 0.07232669997029006, 0.05362210003659129, 0.17028459999710321]",0,,,,,,,,,,,,,,,,,,,,,,,,,,,,,,,,,,,,,,,,,,,,A,train_y,red_square,top_left,2024-11-07_15h54.29.957,HideSeek_v1,2022.2.5,59.88170967623394,
,,,,,,,,,,,,0,0,0,0,11,0,11,0,,,,,,,,,,,,,,,,,,,,,,,,,,,conditions/schedules/train_y_first/red_square_00/top_left/instructions/Slide12.png,conditions/schedules/train_y_first/red_square_00/top_left/instructions/Audio12.wav,26.91016550012864,26.892470590141603,12,"[2.292491399915889, 0.26288389996625483, 0.09764040005393326, 0.13575070002116263, 0.14230920001864433, 0.1957131999079138, 0.14378449996002018, 0.1940926001407206, 0.1609808998182416, 0.1897756999824196, 0.17027570004574955, 0.1585953999310732]","[0.015055699972435832, 0.2628917000256479, 0.018992200028151274, 0.00020450004376471043, 0.013201399939134717, 0.013093899935483932, 0.04368260013870895, 0.04445259994827211, 0.07232669997029006, 0.05362210003659129, 0.025821999879553914, 0.15860190009698272]",0,,,,,,,,,,,,,,,,,,,,,,,,,,,,,,,,,,,,,,,,,,,,A,train_y,red_square,top_left,2024-11-07_15h54.29.957,HideSeek_v1,2022.2.5,59.88170967623394,
,,,,,,,,,,,,0,0,0,0,,,,,,,,,,,,,,,,,,,,,,,,,,,,,,,,,,,,,,,,,17,0.7,0,0,99,1,30,0,conditions/schedules/train_y_first/red_square_00/top_left/inputTrain_1.1.xlsx,99,1,1,1,0,,,,,,,,,,,,,,,,,,,,,,,,,,,,A,train_y,red_square,top_left,2024-11-07_15h54.29.957,HideSeek_v1,2022.2.5,59.88170967623394,
,,,,,,,,,,,,1,0,1,0,0,0,0,0,,,,,,,,,,,,,,,,,,,,,,,,,,,conditions/schedules/train_y_first/red_square_00/top_left/instructions/Slide13.png,conditions/schedules/train_y_first/red_square_00/top_left/instructions/Audio13.wav,27.229153100168332,27.225842030043715,13,"[2.292491399915889, 0.26288389996625483, 0.09764040005393326, 0.13575070002116263, 0.14230920001864433, 0.1957131999079138, 0.14378449996002018, 0.1940926001407206, 0.1609808998182416, 0.1897756999824196, 0.17027570004574955, 0.1585953999310732, 0.04434229992330074]","[0.015055699972435832, 0.2628917000256479, 0.018992200028151274, 0.00020450004376471043, 0.013201399939134717, 0.013093899935483932, 0.04368260013870895, 0.04445259994827211, 0.07232669997029006, 0.05362210003659129, 0.025821999879553914, 0.15860190009698272, 0.044350899988785386]",0,,,,,,,,,,,,,,,,,,,,,,,,,,,,,,,,,,,,,,,,,,,,A,train_y,red_square,top_left,2024-11-07_15h54.29.957,HideSeek_v1,2022.2.5,59.88170967623394,
,,,,,,,,,,,,1,0,1,0,1,0,1,0,,,,,,,,,,,,,,,,,,,,,,,,,,,conditions/schedules/train_y_first/red_square_00/top_left/instructions/Slide14.png,conditions/schedules/train_y_first/red_square_00/top_left/instructions/Audio14.wav,27.326214600121602,27.30910889019724,14,"[2.292491399915889, 0.26288389996625483, 0.09764040005393326, 0.13575070002116263, 0.14230920001864433, 0.1957131999079138, 0.14378449996002018, 0.1940926001407206, 0.1609808998182416, 0.1897756999824196, 0.17027570004574955, 0.1585953999310732, 0.04434229992330074, 0.15819179988466203]","[0.015055699972435832, 0.2628917000256479, 0.018992200028151274, 0.00020450004376471043, 0.013201399939134717, 0.013093899935483932, 0.04368260013870895, 0.04445259994827211, 0.07232669997029006, 0.05362210003659129, 0.025821999879553914, 0.15860190009698272, 0.02320199995301664, 0.1582004998344928]",0,,,,,,,,,,,,,,,,,,,,,,,,,,,,,,,,,,,,,,,,,,,,A,train_y,red_square,top_left,2024-11-07_15h54.29.957,HideSeek_v1,2022.2.5,59.88170967623394,
,,,,,,,,,,,,1,0,1,0,,,,,,,,,,,,,,,,,,,,,,,,,,,,,,,,,,,,,,,,,17,0.7,0,0,99,1,30,0,conditions/schedules/train_y_first/red_square_00/top_left/inputTrain_1.1.xlsx,99,1,1,1,0,,,,,,,,,,,,,,,,,,,,,,,,,,,,A,train_y,red_square,top_left,2024-11-07_15h54.29.957,HideSeek_v1,2022.2.5,59.88170967623394,
,,,,,,,,,,,,2,0,2,0,0,0,0,0,,,,,,,,,,,,,,,,,,,,,,,,,,,conditions/schedules/train_y_first/red_square_00/top_left/instructions/Slide15.png,conditions/schedules/train_y_first/red_square_00/top_left/instructions/Audio15.wav,27.593007300049067,27.576068509998734,15,"[2.292491399915889, 0.26288389996625483, 0.09764040005393326, 0.13575070002116263, 0.14230920001864433, 0.1957131999079138, 0.14378449996002018, 0.1940926001407206, 0.1609808998182416, 0.1897756999824196, 0.17027570004574955, 0.1585953999310732, 0.04434229992330074, 0.15819179988466203, 0.10314939985983074]","[0.015055699972435832, 0.2628917000256479, 0.018992200028151274, 0.00020450004376471043, 0.013201399939134717, 0.013093899935483932, 0.04368260013870895, 0.04445259994827211, 0.07232669997029006, 0.05362210003659129, 0.025821999879553914, 0.15860190009698272, 0.02320199995301664, 0.1582004998344928, 0.103159099817276]",0,,,,,,,,,,,,,,,,,,,,,,,,,,,,,,,,,,,,,,,,,,,,A,train_y,red_square,top_left,2024-11-07_15h54.29.957,HideSeek_v1,2022.2.5,59.88170967623394,
,,,,,,,,,,,,2,0,2,0,1,0,1,0,,,,,,,,,,,,,,,,,,,,,,,,,,,conditions/schedules/train_y_first/red_square_00/top_left/instructions/Slide16.png,conditions/schedules/train_y_first/red_square_00/top_left/instructions/Audio16.wav,27.742370899999514,27.725924890092575,16,"[2.292491399915889, 0.26288389996625483, 0.09764040005393326, 0.13575070002116263, 0.14230920001864433, 0.1957131999079138, 0.14378449996002018, 0.1940926001407206, 0.1609808998182416, 0.1897756999824196, 0.17027570004574955, 0.1585953999310732, 0.04434229992330074, 0.15819179988466203, 0.10314939985983074, 0.15640400000847876]","[0.015055699972435832, 0.2628917000256479, 0.018992200028151274, 0.00020450004376471043, 0.013201399939134717, 0.013093899935483932, 0.04368260013870895, 0.04445259994827211, 0.07232669997029006, 0.05362210003659129, 0.025821999879553914, 0.15860190009698272, 0.02320199995301664, 0.1582004998344928, 0.02238540002144873, 0.1564118000678718]",0,,,,,,,,,,,,,,,,,,,,,,,,,,,,,,,,,,,,,,,,,,,,A,train_y,red_square,top_left,2024-11-07_15h54.29.957,HideSeek_v1,2022.2.5,59.88170967623394,
,,,,,,,,,,,,2,0,2,0,,,,,,,,,,,,,,,,,,,,,,,,,,,,,,,,,,,,,,,,,17,0.7,0,0,99,1,30,0,conditions/schedules/train_y_first/red_square_00/top_left/inputTrain_1.1.xlsx,99,1,1,1,0,,,,,,,,,,,,,,,,,,,,,,,,,,,,A,train_y,red_square,top_left,2024-11-07_15h54.29.957,HideSeek_v1,2022.2.5,59.88170967623394,
,,,,,,,,,,,,3,0,3,0,0,0,0,0,,,,,,,,,,,,,,,,,,,,,,,,,,,conditions/schedules/train_y_first/red_square_00/top_left/instructions/Slide17.png,conditions/schedules/train_y_first/red_square_00/top_left/instructions/Audio17.wav,27.991147299995646,27.99265250999015,17,"[2.292491399915889, 0.26288389996625483, 0.09764040005393326, 0.13575070002116263, 0.14230920001864433, 0.1957131999079138, 0.14378449996002018, 0.1940926001407206, 0.1609808998182416, 0.1897756999824196, 0.17027570004574955, 0.1585953999310732, 0.04434229992330074, 0.15819179988466203, 0.10314939985983074, 0.15640400000847876, 0.06699989992193878]","[0.015055699972435832, 0.2628917000256479, 0.018992200028151274, 0.00020450004376471043, 0.013201399939134717, 0.013093899935483932, 0.04368260013870895, 0.04445259994827211, 0.07232669997029006, 0.05362210003659129, 0.025821999879553914, 0.15860190009698272, 0.02320199995301664, 0.1582004998344928, 0.02238540002144873, 0.1564118000678718, 0.06700909999199212]",0,,,,,,,,,,,,,,,,,,,,,,,,,,,,,,,,,,,,,,,,,,,,A,train_y,red_square,top_left,2024-11-07_15h54.29.957,HideSeek_v1,2022.2.5,59.88170967623394,
,,,,,,,,,,,,3,0,3,0,1,0,1,0,,,,,,,,,,,,,,,,,,,,,,,,,,,conditions/schedules/train_y_first/red_square_00/top_left/instructions/Slide18.png,conditions/schedules/train_y_first/red_square_00/top_left/instructions/Audio18.wav,28.11020840005949,28.092638090089896,18,"[2.292491399915889, 0.26288389996625483, 0.09764040005393326, 0.13575070002116263, 0.14230920001864433, 0.1957131999079138, 0.14378449996002018, 0.1940926001407206, 0.1609808998182416, 0.1897756999824196, 0.17027570004574955, 0.1585953999310732, 0.04434229992330074, 0.15819179988466203, 0.10314939985983074, 0.15640400000847876, 0.06699989992193878, 0.159385799895972]","[0.015055699972435832, 0.2628917000256479, 0.018992200028151274, 0.00020450004376471043, 0.013201399939134717, 0.013093899935483932, 0.04368260013870895, 0.04445259994827211, 0.07232669997029006, 0.05362210003659129, 0.025821999879553914, 0.15860190009698272, 0.02320199995301664, 0.1582004998344928, 0.02238540002144873, 0.1564118000678718, 0.02639459981583059, 0.15939649986103177]",0,,,,,,,,,,,,,,,,,,,,,,,,,,,,,,,,,,,,,,,,,,,,A,train_y,red_square,top_left,2024-11-07_15h54.29.957,HideSeek_v1,2022.2.5,59.88170967623394,
,,,,,,,,,,,,3,0,3,0,2,0,2,0,,,,,,,,,,,,,,,,,,,,,,,,,,,conditions/schedules/train_y_first/red_square_00/top_left/instructions/Slide19.png,conditions/schedules/train_y_first/red_square_00/top_left/instructions/Audio19.wav,28.310110700083897,28.292872889968567,19,"[2.292491399915889, 0.26288389996625483, 0.09764040005393326, 0.13575070002116263, 0.14230920001864433, 0.1957131999079138, 0.14378449996002018, 0.1940926001407206, 0.1609808998182416, 0.1897756999824196, 0.17027570004574955, 0.1585953999310732, 0.04434229992330074, 0.15819179988466203, 0.10314939985983074, 0.15640400000847876, 0.06699989992193878, 0.159385799895972, 0.15783219994045794]","[0.015055699972435832, 0.2628917000256479, 0.018992200028151274, 0.00020450004376471043, 0.013201399939134717, 0.013093899935483932, 0.04368260013870895, 0.04445259994827211, 0.07232669997029006, 0.05362210003659129, 0.025821999879553914, 0.15860190009698272, 0.02320199995301664, 0.1582004998344928, 0.02238540002144873, 0.1564118000678718, 0.02639459981583059, 0.00019409996457397938, 0.1578402000013739]",0,,,,,,,,,,,,,,,,,,,,,,,,,,,,,,,,,,,,,,,,,,,,A,train_y,red_square,top_left,2024-11-07_15h54.29.957,HideSeek_v1,2022.2.5,59.88170967623394,
,,,,,,,,,,,,3,0,3,0,3,0,3,0,,,,,,,,,,,,,,,,,,,,,,,,,,,conditions/schedules/train_y_first/red_square_00/top_left/instructions/Slide20.png,conditions/schedules/train_y_first/red_square_00/top_left/instructions/Audio20.wav,28.529262600000948,28.5257991499966,20,"[2.292491399915889, 0.26288389996625483, 0.09764040005393326, 0.13575070002116263, 0.14230920001864433, 0.1957131999079138, 0.14378449996002018, 0.1940926001407206, 0.1609808998182416, 0.1897756999824196, 0.17027570004574955, 0.1585953999310732, 0.04434229992330074, 0.15819179988466203, 0.10314939985983074, 0.15640400000847876, 0.06699989992193878, 0.159385799895972, 0.15783219994045794, 0.11127100000157952]","[0.015055699972435832, 0.2628917000256479, 0.018992200028151274, 0.00020450004376471043, 0.013201399939134717, 0.013093899935483932, 0.04368260013870895, 0.04445259994827211, 0.07232669997029006, 0.05362210003659129, 0.025821999879553914, 0.15860190009698272, 0.02320199995301664, 0.1582004998344928, 0.02238540002144873, 0.1564118000678718, 0.02639459981583059, 0.00019409996457397938, 0.1578402000013739, 0.11127800005488098]",0,,,,,,,,,,,,,,,,,,,,,,,,,,,,,,,,,,,,,,,,,,,,A,train_y,red_square,top_left,2024-11-07_15h54.29.957,HideSeek_v1,2022.2.5,59.88170967623394,
,,,,,,,,,,,,3,0,3,0,,,,,,,,,,,,,,,,,,,,,,,,,,,,,,,,,,,,,,,,,17,0.7,0,0,99,1,30,0,conditions/schedules/train_y_first/red_square_00/top_left/inputTrain_1.1.xlsx,99,1,1,1,0,,,,,,,,,,,,,,,,,,,,,,,,,,,,A,train_y,red_square,top_left,2024-11-07_15h54.29.957,HideSeek_v1,2022.2.5,59.88170967623394,
,,,,,,,,,,,,4,0,4,0,0,0,0,0,,,,,,,,,,,,,,,,,,,,,,,,,,,conditions/schedules/train_y_first/red_square_00/top_left/instructions/Slide21.png,conditions/schedules/train_y_first/red_square_00/top_left/instructions/Audio21.wav,28.742235800018534,28.742382110026668,21,"[2.292491399915889, 0.26288389996625483, 0.09764040005393326, 0.13575070002116263, 0.14230920001864433, 0.1957131999079138, 0.14378449996002018, 0.1940926001407206, 0.1609808998182416, 0.1897756999824196, 0.17027570004574955, 0.1585953999310732, 0.04434229992330074, 0.15819179988466203, 0.10314939985983074, 0.15640400000847876, 0.06699989992193878, 0.159385799895972, 0.15783219994045794, 0.11127100000157952, 0.0986619999166578]","[0.015055699972435832, 0.2628917000256479, 0.018992200028151274, 0.00020450004376471043, 0.013201399939134717, 0.013093899935483932, 0.04368260013870895, 0.04445259994827211, 0.07232669997029006, 0.05362210003659129, 0.025821999879553914, 0.15860190009698272, 0.02320199995301664, 0.1582004998344928, 0.02238540002144873, 0.1564118000678718, 0.02639459981583059, 0.00019409996457397938, 0.1578402000013739, 0.11127800005488098, 0.09867359977215528]",0,,,,,,,,,,,,,,,,,,,,,,,,,,,,,,,,,,,,,,,,,,,,A,train_y,red_square,top_left,2024-11-07_15h54.29.957,HideSeek_v1,2022.2.5,59.88170967623394,
,,,,,,,,,,,,4,0,4,0,,,,,,,,,,,,,,,,,,,,,,,,,,,,,,,,,,,,,,,,,17,0.7,0,0,99,1,30,0,conditions/schedules/train_y_first/red_square_00/top_left/inputTrain_1.1.xlsx,99,1,1,1,0,,,,,,,,,,,,,,,,,,,,,,,,,,,,A,train_y,red_square,top_left,2024-11-07_15h54.29.957,HideSeek_v1,2022.2.5,59.88170967623394,
,,,,,,,,,,,,5,0,5,0,0,0,0,0,,,,,,,,,,,,,,,,,,,,,,,,,,,conditions/schedules/train_y_first/red_square_00/top_left/instructions/Slide22.png,conditions/schedules/train_y_first/red_square_00/top_left/instructions/Audio22.wav,28.959804099984467,28.942977310088466,22,"[2.292491399915889, 0.26288389996625483, 0.09764040005393326, 0.13575070002116263, 0.14230920001864433, 0.1957131999079138, 0.14378449996002018, 0.1940926001407206, 0.1609808998182416, 0.1897756999824196, 0.17027570004574955, 0.1585953999310732, 0.04434229992330074, 0.15819179988466203, 0.10314939985983074, 0.15640400000847876, 0.06699989992193878, 0.159385799895972, 0.15783219994045794, 0.11127100000157952, 0.0986619999166578, 0.06921410001814365]","[0.015055699972435832, 0.2628917000256479, 0.018992200028151274, 0.00020450004376471043, 0.013201399939134717, 0.013093899935483932, 0.04368260013870895, 0.04445259994827211, 0.07232669997029006, 0.05362210003659129, 0.025821999879553914, 0.15860190009698272, 0.02320199995301664, 0.1582004998344928, 0.02238540002144873, 0.1564118000678718, 0.02639459981583059, 0.00019409996457397938, 0.1578402000013739, 0.11127800005488098, 0.09867359977215528, 0.06922050006687641]",0,,,,,,,,,,,,,,,,,,,,,,,,,,,,,,,,,,,,,,,,,,,,A,train_y,red_square,top_left,2024-11-07_15h54.29.957,HideSeek_v1,2022.2.5,59.88170967623394,
,,,,,,,,,,,,5,0,5,0,,,,,,,,,,,,,,,,,,,,,,,,,,,,,,,,,,,,,,,,,17,0.7,0,0,99,1,30,0,conditions/schedules/train_y_first/red_square_00/top_left/inputTrain_1.1.xlsx,99,1,1,1,0,,,,,,,,,,,,,,,,,,,,,,,,,,,,A,train_y,red_square,top_left,2024-11-07_15h54.29.957,HideSeek_v1,2022.2.5,59.88170967623394,
,,,,,,,,,,,,6,0,6,0,0,0,0,0,,,,,,,,,,,,,,,,,,,,,,,,,,,conditions/schedules/train_y_first/red_square_00/top_left/instructions/Slide23.png,conditions/schedules/train_y_first/red_square_00/top_left/instructions/Audio23.wav,29.127850900171325,29.12611921008211,23,"[2.292491399915889, 0.26288389996625483, 0.09764040005393326, 0.13575070002116263, 0.14230920001864433, 0.1957131999079138, 0.14378449996002018, 0.1940926001407206, 0.1609808998182416, 0.1897756999824196, 0.17027570004574955, 0.1585953999310732, 0.04434229992330074, 0.15819179988466203, 0.10314939985983074, 0.15640400000847876, 0.06699989992193878, 0.159385799895972, 0.15783219994045794, 0.11127100000157952, 0.0986619999166578, 0.06921410001814365, 0.07893799990415573]","[0.015055699972435832, 0.2628917000256479, 0.018992200028151274, 0.00020450004376471043, 0.013201399939134717, 0.013093899935483932, 0.04368260013870895, 0.04445259994827211, 0.07232669997029006, 0.05362210003659129, 0.025821999879553914, 0.15860190009698272, 0.02320199995301664, 0.1582004998344928, 0.02238540002144873, 0.1564118000678718, 0.02639459981583059, 0.00019409996457397938, 0.1578402000013739, 0.11127800005488098, 0.09867359977215528, 0.06922050006687641, 0.07894579996354878]",0,,,,,,,,,,,,,,,,,,,,,,,,,,,,,,,,,,,,,,,,,,,,A,train_y,red_square,top_left,2024-11-07_15h54.29.957,HideSeek_v1,2022.2.5,59.88170967623394,
,,,,,,,,,,,,6,0,6,0,1,0,1,0,,,,,,,,,,,,,,,,,,,,,,,,,,,conditions/schedules/train_y_first/red_square_00/top_left/instructions/Slide24.png,conditions/schedules/train_y_first/red_square_00/top_left/instructions/Audio24.wav,29.259236000012606,29.242720890161582,24,"[2.292491399915889, 0.26288389996625483, 0.09764040005393326, 0.13575070002116263, 0.14230920001864433, 0.1957131999079138, 0.14378449996002018, 0.1940926001407206, 0.1609808998182416, 0.1897756999824196, 0.17027570004574955, 0.1585953999310732, 0.04434229992330074, 0.15819179988466203, 0.10314939985983074, 0.15640400000847876, 0.06699989992193878, 0.159385799895972, 0.15783219994045794, 0.11127100000157952, 0.0986619999166578, 0.06921410001814365, 0.07893799990415573, 0.15696880011819303]","[0.015055699972435832, 0.2628917000256479, 0.018992200028151274, 0.00020450004376471043, 0.013201399939134717, 0.013093899935483932, 0.04368260013870895, 0.04445259994827211, 0.07232669997029006, 0.05362210003659129, 0.025821999879553914, 0.15860190009698272, 0.02320199995301664, 0.1582004998344928, 0.02238540002144873, 0.1564118000678718, 0.02639459981583059, 0.00019409996457397938, 0.1578402000013739, 0.11127800005488098, 0.09867359977215528, 0.06922050006687641, 0.023626599926501513, 0.1569763000588864]",0,,,,,,,,,,,,,,,,,,,,,,,,,,,,,,,,,,,,,,,,,,,,A,train_y,red_square,top_left,2024-11-07_15h54.29.957,HideSeek_v1,2022.2.5,59.88170967623394,
,,,,,,,,,,,,6,0,6,0,2,0,2,0,,,,,,,,,,,,,,,,,,,,,,,,,,,conditions/schedules/train_y_first/red_square_00/top_left/instructions/Slide25.png,conditions/schedules/train_y_first/red_square_00/top_left/instructions/Audio25.wav,29.45980600011535,29.44244238997344,25,"[2.292491399915889, 0.26288389996625483, 0.09764040005393326, 0.13575070002116263, 0.14230920001864433, 0.1957131999079138, 0.14378449996002018, 0.1940926001407206, 0.1609808998182416, 0.1897756999824196, 0.17027570004574955, 0.1585953999310732, 0.04434229992330074, 0.15819179988466203, 0.10314939985983074, 0.15640400000847876, 0.06699989992193878, 0.159385799895972, 0.15783219994045794, 0.11127100000157952, 0.0986619999166578, 0.06921410001814365, 0.07893799990415573, 0.15696880011819303, 0.15797169995494187]","[0.015055699972435832, 0.2628917000256479, 0.018992200028151274, 0.00020450004376471043, 0.013201399939134717, 0.013093899935483932, 0.04368260013870895, 0.04445259994827211, 0.07232669997029006, 0.05362210003659129, 0.025821999879553914, 0.15860190009698272, 0.02320199995301664, 0.1582004998344928, 0.02238540002144873, 0.1564118000678718, 0.02639459981583059, 0.00019409996457397938, 0.1578402000013739, 0.11127800005488098, 0.09867359977215528, 0.06922050006687641, 0.023626599926501513, 0.024894400034099817, 0.15798079990781844]",0,,,,,,,,,,,,,,,,,,,,,,,,,,,,,,,,,,,,,,,,,,,,A,train_y,red_square,top_left,2024-11-07_15h54.29.957,HideSeek_v1,2022.2.5,59.88170967623394,
,,,,,,,,,,,,6,0,6,0,,,,,,,,,,,,,,,,,,,,,,,,,,,,,,,,,,,,,,,,,17,0.7,0,0,99,1,30,0,conditions/schedules/train_y_first/red_square_00/top_left/inputTrain_1.1.xlsx,99,1,1,1,0,,,,,,,,,,,,,,,,,,,,,,,,,,,,A,train_y,red_square,top_left,2024-11-07_15h54.29.957,HideSeek_v1,2022.2.5,59.88170967623394,
,,,,,,,,,,,,7,0,7,0,0,0,0,0,,,,,,,,,,,,,,,,,,,,,,,,,,,conditions/schedules/train_y_first/red_square_00/top_left/instructions/Slide26.png,conditions/schedules/train_y_first/red_square_00/top_left/instructions/Audio26.wav,29.711038500070572,29.709191810037012,26,"[2.292491399915889, 0.26288389996625483, 0.09764040005393326, 0.13575070002116263, 0.14230920001864433, 0.1957131999079138, 0.14378449996002018, 0.1940926001407206, 0.1609808998182416, 0.1897756999824196, 0.17027570004574955, 0.1585953999310732, 0.04434229992330074, 0.15819179988466203, 0.10314939985983074, 0.15640400000847876, 0.06699989992193878, 0.159385799895972, 0.15783219994045794, 0.11127100000157952, 0.0986619999166578, 0.06921410001814365, 0.07893799990415573, 0.15696880011819303, 0.15797169995494187, 0.09736360004171729]","[0.015055699972435832, 0.2628917000256479, 0.018992200028151274, 0.00020450004376471043, 0.013201399939134717, 0.013093899935483932, 0.04368260013870895, 0.04445259994827211, 0.07232669997029006, 0.05362210003659129, 0.025821999879553914, 0.15860190009698272, 0.02320199995301664, 0.1582004998344928, 0.02238540002144873, 0.1564118000678718, 0.02639459981583059, 0.00019409996457397938, 0.1578402000013739, 0.11127800005488098, 0.09867359977215528, 0.06922050006687641, 0.023626599926501513, 0.024894400034099817, 0.15798079990781844, 0.09737020009197295]",0,,,,,,,,,,,,,,,,,,,,,,,,,,,,,,,,,,,,,,,,,,,,A,train_y,red_square,top_left,2024-11-07_15h54.29.957,HideSeek_v1,2022.2.5,59.88170967623394,
,,,,,,,,,,,,7,0,7,0,,,,,,,,,,,,,,,,,,,,,,,,,,,,,,,,,,,,,,,,,17,0.7,0,0,99,1,30,0,conditions/schedules/train_y_first/red_square_00/top_left/inputTrain_1.1.xlsx,99,1,1,1,0,,,,,,,,,,,,,,,,,,,,,,,,,,,,A,train_y,red_square,top_left,2024-11-07_15h54.29.957,HideSeek_v1,2022.2.5,59.88170967623394,
,,,,,,,,,,,,8,0,8,0,0,0,0,0,,,,,,,,,,,,,,,,,,,,,,,,,,,conditions/schedules/train_y_first/red_square_00/top_left/instructions/Slide27.png,conditions/schedules/train_y_first/red_square_00/top_left/instructions/Audio27.wav,29.926336700096726,29.90953421003651,27,"[2.292491399915889, 0.26288389996625483, 0.09764040005393326, 0.13575070002116263, 0.14230920001864433, 0.1957131999079138, 0.14378449996002018, 0.1940926001407206, 0.1609808998182416, 0.1897756999824196, 0.17027570004574955, 0.1585953999310732, 0.04434229992330074, 0.15819179988466203, 0.10314939985983074, 0.15640400000847876, 0.06699989992193878, 0.159385799895972, 0.15783219994045794, 0.11127100000157952, 0.0986619999166578, 0.06921410001814365, 0.07893799990415573, 0.15696880011819303, 0.15797169995494187, 0.09736360004171729, 0.09107079985551536]","[0.015055699972435832, 0.2628917000256479, 0.018992200028151274, 0.00020450004376471043, 0.013201399939134717, 0.013093899935483932, 0.04368260013870895, 0.04445259994827211, 0.07232669997029006, 0.05362210003659129, 0.025821999879553914, 0.15860190009698272, 0.02320199995301664, 0.1582004998344928, 0.02238540002144873, 0.1564118000678718, 0.02639459981583059, 0.00019409996457397938, 0.1578402000013739, 0.11127800005488098, 0.09867359977215528, 0.06922050006687641, 0.023626599926501513, 0.024894400034099817, 0.15798079990781844, 0.09737020009197295, 0.09107910003513098]",0,,,,,,,,,,,,,,,,,,,,,,,,,,,,,,,,,,,,,,,,,,,,A,train_y,red_square,top_left,2024-11-07_15h54.29.957,HideSeek_v1,2022.2.5,59.88170967623394,
,,,,,,,,,,,,8,0,8,0,,,,,,,,,,,,,,,,,,,,,,,,,,,,,,,,,,,,,,,,,17,0.7,0,0,99,1,30,0,conditions/schedules/train_y_first/red_square_00/top_left/inputTrain_1.1.xlsx,99,1,1,1,0,,,,,,,,,,,,,,,,,,,,,,,,,,,,A,train_y,red_square,top_left,2024-11-07_15h54.29.957,HideSeek_v1,2022.2.5,59.88170967623394,
,,,,,,,,,,,,9,0,9,0,0,0,0,0,,,,,,,,,,,,,,,,,,,,,,,,,,,conditions/schedules/train_y_first/red_square_00/top_left/instructions/Slide28.png,conditions/schedules/train_y_first/red_square_00/top_left/instructions/Audio28.wav,30.125909500056878,30.109135609981607,28,"[2.292491399915889, 0.26288389996625483, 0.09764040005393326, 0.13575070002116263, 0.14230920001864433, 0.1957131999079138, 0.14378449996002018, 0.1940926001407206, 0.1609808998182416, 0.1897756999824196, 0.17027570004574955, 0.1585953999310732, 0.04434229992330074, 0.15819179988466203, 0.10314939985983074, 0.15640400000847876, 0.06699989992193878, 0.159385799895972, 0.15783219994045794, 0.11127100000157952, 0.0986619999166578, 0.06921410001814365, 0.07893799990415573, 0.15696880011819303, 0.15797169995494187, 0.09736360004171729, 0.09107079985551536, 0.07417559996247292]","[0.015055699972435832, 0.2628917000256479, 0.018992200028151274, 0.00020450004376471043, 0.013201399939134717, 0.013093899935483932, 0.04368260013870895, 0.04445259994827211, 0.07232669997029006, 0.05362210003659129, 0.025821999879553914, 0.15860190009698272, 0.02320199995301664, 0.1582004998344928, 0.02238540002144873, 0.1564118000678718, 0.02639459981583059, 0.00019409996457397938, 0.1578402000013739, 0.11127800005488098, 0.09867359977215528, 0.06922050006687641, 0.023626599926501513, 0.024894400034099817, 0.15798079990781844, 0.09737020009197295, 0.09107910003513098, 0.07418440002948046]",0,,,,,,,,,,,,,,,,,,,,,,,,,,,,,,,,,,,,,,,,,,,,A,train_y,red_square,top_left,2024-11-07_15h54.29.957,HideSeek_v1,2022.2.5,59.88170967623394,
,,,,,,,,,,,,9,0,9,0,1,0,1,0,,,,,,,,,,,,,,,,,,,,,,,,,,,conditions/schedules/train_y_first/red_square_00/top_left/instructions/Slide29.png,conditions/schedules/train_y_first/red_square_00/top_left/instructions/Audio29.wav,30.242851100163534,30.24254972008057,29,"[2.292491399915889, 0.26288389996625483, 0.09764040005393326, 0.13575070002116263, 0.14230920001864433, 0.1957131999079138, 0.14378449996002018, 0.1940926001407206, 0.1609808998182416, 0.1897756999824196, 0.17027570004574955, 0.1585953999310732, 0.04434229992330074, 0.15819179988466203, 0.10314939985983074, 0.15640400000847876, 0.06699989992193878, 0.159385799895972, 0.15783219994045794, 0.11127100000157952, 0.0986619999166578, 0.06921410001814365, 0.07893799990415573, 0.15696880011819303, 0.15797169995494187, 0.09736360004171729, 0.09107079985551536, 0.07417559996247292, 0.1634713001549244]","[0.015055699972435832, 0.2628917000256479, 0.018992200028151274, 0.00020450004376471043, 0.013201399939134717, 0.013093899935483932, 0.04368260013870895, 0.04445259994827211, 0.07232669997029006, 0.05362210003659129, 0.025821999879553914, 0.15860190009698272, 0.02320199995301664, 0.1582004998344928, 0.02238540002144873, 0.1564118000678718, 0.02639459981583059, 0.00019409996457397938, 0.1578402000013739, 0.11127800005488098, 0.09867359977215528, 0.06922050006687641, 0.023626599926501513, 0.024894400034099817, 0.15798079990781844, 0.09737020009197295, 0.09107910003513098, 0.013717900030314922, 0.1634804999921471]",0,,,,,,,,,,,,,,,,,,,,,,,,,,,,,,,,,,,,,,,,,,,,A,train_y,red_square,top_left,2024-11-07_15h54.29.957,HideSeek_v1,2022.2.5,59.88170967623394,
,,,,,,,,,,,,9,0,9,0,2,0,2,0,,,,,,,,,,,,,,,,,,,,,,,,,,,conditions/schedules/train_y_first/red_square_00/top_left/instructions/Slide30.png,conditions/schedules/train_y_first/red_square_00/top_left/instructions/Audio30.wav,30.442552500171587,30.425745060015473,30,"[2.292491399915889, 0.26288389996625483, 0.09764040005393326, 0.13575070002116263, 0.14230920001864433, 0.1957131999079138, 0.14378449996002018, 0.1940926001407206, 0.1609808998182416, 0.1897756999824196, 0.17027570004574955, 0.1585953999310732, 0.04434229992330074, 0.15819179988466203, 0.10314939985983074, 0.15640400000847876, 0.06699989992193878, 0.159385799895972, 0.15783219994045794, 0.11127100000157952, 0.0986619999166578, 0.06921410001814365, 0.07893799990415573, 0.15696880011819303, 0.15797169995494187, 0.09736360004171729, 0.09107079985551536, 0.07417559996247292, 0.1634713001549244, 0.1719951000995934]","[0.015055699972435832, 0.2628917000256479, 0.018992200028151274, 0.00020450004376471043, 0.013201399939134717, 0.013093899935483932, 0.04368260013870895, 0.04445259994827211, 0.07232669997029006, 0.05362210003659129, 0.025821999879553914, 0.15860190009698272, 0.02320199995301664, 0.1582004998344928, 0.02238540002144873, 0.1564118000678718, 0.02639459981583059, 0.00019409996457397938, 0.1578402000013739, 0.11127800005488098, 0.09867359977215528, 0.06922050006687641, 0.023626599926501513, 0.024894400034099817, 0.15798079990781844, 0.09737020009197295, 0.09107910003513098, 0.013717900030314922, 0.02182710007764399, 0.17200129991397262]",0,,,,,,,,,,,,,,,,,,,,,,,,,,,,,,,,,,,,,,,,,,,,A,train_y,red_square,top_left,2024-11-07_15h54.29.957,HideSeek_v1,2022.2.5,59.88170967623394,
,,,,,,,,,,,,9,0,9,0,3,0,3,0,,,,,,,,,,,,,,,,,,,,,,,,,,,conditions/schedules/train_y_first/red_square_00/top_left/instructions/Slide31.png,conditions/schedules/train_y_first/red_square_00/top_left/instructions/Audio31.wav,30.65902190003544,30.642682690010407,31,"[2.292491399915889, 0.26288389996625483, 0.09764040005393326, 0.13575070002116263, 0.14230920001864433, 0.1957131999079138, 0.14378449996002018, 0.1940926001407206, 0.1609808998182416, 0.1897756999824196, 0.17027570004574955, 0.1585953999310732, 0.04434229992330074, 0.15819179988466203, 0.10314939985983074, 0.15640400000847876, 0.06699989992193878, 0.159385799895972, 0.15783219994045794, 0.11127100000157952, 0.0986619999166578, 0.06921410001814365, 0.07893799990415573, 0.15696880011819303, 0.15797169995494187, 0.09736360004171729, 0.09107079985551536, 0.07417559996247292, 0.1634713001549244, 0.1719951000995934, 0.1224972999189049]","[0.015055699972435832, 0.2628917000256479, 0.018992200028151274, 0.00020450004376471043, 0.013201399939134717, 0.013093899935483932, 0.04368260013870895, 0.04445259994827211, 0.07232669997029006, 0.05362210003659129, 0.025821999879553914, 0.15860190009698272, 0.02320199995301664, 0.1582004998344928, 0.02238540002144873, 0.1564118000678718, 0.02639459981583059, 0.00019409996457397938, 0.1578402000013739, 0.11127800005488098, 0.09867359977215528, 0.06922050006687641, 0.023626599926501513, 0.024894400034099817, 0.15798079990781844, 0.09737020009197295, 0.09107910003513098, 0.013717900030314922, 0.02182710007764399, 0.00018940004520118237, 0.12250560009852052]",0,,,,,,,,,,,,,,,,,,,,,,,,,,,,,,,,,,,,,,,,,,,,A,train_y,red_square,top_left,2024-11-07_15h54.29.957,HideSeek_v1,2022.2.5,59.88170967623394,
,,,,,,,,,,,,9,0,9,0,,,,,,,,,,,,,,,,,,,,,,,,,,,,,,,,,,,,,,,,,17,0.7,0,0,99,1,30,0,conditions/schedules/train_y_first/red_square_00/top_left/inputTrain_1.1.xlsx,99,1,1,1,0,,,,,,,,,,,,,,,,,,,,,,,,,,,,A,train_y,red_square,top_left,2024-11-07_15h54.29.957,HideSeek_v1,2022.2.5,59.88170967623394,
1,2,9,2,7,0,-2,14,72,test_exp,train_1D_first_new,0,,,,,,,,,,,,,,,,,,,,,0,0,0,0,0,0,0,0,,,,,,,,,,,,,,,,,,,,,,,,,,,,,,,stimuli/alien_stimuli/14.png,30.909496100153774,30.909496100153774,30.909496100153774,30.909496100153774,30.909496100153774,0,0,return,0.9608798001427203,0,0,0,0,0.32,return,0.8689910999964923,,,,,,,,,,,A,train_y,red_square,top_left,2024-11-07_15h54.29.957,HideSeek_v1,2022.2.5,59.88170967623394,
1,2,9,2,7,0,-2,14,72,test_exp,train_1D_first_new,0,,,,,,,,,,,,,,,,,,,,,0,0,0,0,,,,,,,,,,,,,,,,,,,,,,,,,,,,,,,,,,,,,,,,,,,,,,,,,,,,31.826137100113556,32.909494400024414,stimuli/alien_stimuli/14.png,14,2,1,,,,,A,train_y,red_square,top_left,2024-11-07_15h54.29.957,HideSeek_v1,2022.2.5,59.88170967623394,
2,4,6,7,2,3,-4,42,72,test_exp,untrained,0,,,,,,,,,,,,,,,,,,,,,0,1,1,1,0,0,0,0,,,,,,,,,,,,,,,,,,,,,,,,,,,,,,,stimuli/alien_stimuli/42.png,32.909494400024414,32.909494400024414,32.909494400024414,32.909494400024414,32.909494400024414,0,0,return,0.2634090001229197,0,0,0,0.16,0.08,return,0.16388230002485216,,,,,,,,,,,A,train_y,red_square,top_left,2024-11-07_15h54.29.957,HideSeek_v1,2022.2.5,59.88170967623394,
2,4,6,7,2,3,-4,42,72,test_exp,untrained,0,,,,,,,,,,,,,,,,,,,,,0,1,1,1,,,,,,,,,,,,,,,,,,,,,,,,,,,,,,,,,,,,,,,,,,,,,,,,,,,,33.10959620005451,34.158349900040776,stimuli/alien_stimuli/14.png,14,2,2,,,,,A,train_y,red_square,top_left,2024-11-07_15h54.29.957,HideSeek_v1,2022.2.5,59.88170967623394,
3,1,6,4,5,3,-1,45,72,test_exp,untrained,0,,,,,,,,,,,,,,,,,,,,,0,2,2,2,0,0,0,0,,,,,,,,,,,,,,,,,,,,,,,,,,,,,,,stimuli/alien_stimuli/45.png,34.158349900040776,34.158349900040776,34.158349900040776,34.158349900040776,34.158349900040776,0,0,return,0.21104670013301075,0,0,0,-0.08,0.08,return,0.14195329998619854,,,,,,,,,,,A,train_y,red_square,top_left,2024-11-07_15h54.29.957,HideSeek_v1,2022.2.5,59.88170967623394,
3,1,6,4,5,3,-1,45,72,test_exp,untrained,0,,,,,,,,,,,,,,,,,,,,,0,2,2,2,,,,,,,,,,,,,,,,,,,,,,,,,,,,,,,,,,,,,,,,,,,,,,,,,,,,34.34288470004685,35.44322030013427,stimuli/alien_stimuli/14.png,14,2,3,,,,,A,train_y,red_square,top_left,2024-11-07_15h54.29.957,HideSeek_v1,2022.2.5,59.88170967623394,
4,0,5,0,4,0,-1,15,72,test_exp,train_1D_first_repeat,0,,,,,,,,,,,,,,,,,,,,,0,3,3,3,0,0,0,0,,,,,,,,,,,,,,,,,,,,,,,,,,,,,,,stimuli/alien_stimuli/15.png,35.44322030013427,35.44322030013427,35.44322030013427,35.44322030013427,35.44322030013427,0,0,return,0.1470413999632001,0,0,0,-0.16,0,return,0.029803700046613812,,,,,,,,,,,A,train_y,red_square,top_left,2024-11-07_15h54.29.957,HideSeek_v1,2022.2.5,59.88170967623394,
4,0,5,0,4,0,-1,15,72,test_exp,train_1D_first_repeat,0,,,,,,,,,,,,,,,,,,,,,0,3,3,3,,,,,,,,,,,,,,,,,,,,,,,,,,,,,,,,,,,,,,,,,,,,,,,,,,,,35.50935910013504,36.64252600003965,stimuli/alien_stimuli/14.png,14,2,4,,,,,A,train_y,red_square,top_left,2024-11-07_15h54.29.957,HideSeek_v1,2022.2.5,59.88170967623394,
5,4,9,9,4,5,-5,61,72,test_exp,untrained,0,,,,,,,,,,,,,,,,,,,,,0,4,4,4,0,0,0,0,,,,,,,,,,,,,,,,,,,,,,,,,,,,,,,stimuli/alien_stimuli/61.png,36.64252600003965,36.64252600003965,36.64252600003965,36.64252600003965,36.64252600003965,0,0,return,0.2281063999980688,0,0,0,0.16,0.32,return,0.07791790016926825,,,,,,,,,,,A,train_y,red_square,top_left,2024-11-07_15h54.29.957,HideSeek_v1,2022.2.5,59.88170967623394,
5,4,9,9,4,5,-5,61,72,test_exp,untrained,0,,,,,,,,,,,,,,,,,,,,,0,4,4,4,,,,,,,,,,,,,,,,,,,,,,,,,,,,,,,,,,,,,,,,,,,,,,,,,,,,36.75954450014979,37.81085180002265,stimuli/alien_stimuli/14.png,14,2,5,,,,,A,train_y,red_square,top_left,2024-11-07_15h54.29.957,HideSeek_v1,2022.2.5,59.88170967623394,
6,0,7,5,4,5,-3,63,72,test_exp,untrained,0,,,,,,,,,,,,,,,,,,,,,0,5,5,5,0,0,0,0,,,,,,,,,,,,,,,,,,,,,,,,,,,,,,,stimuli/alien_stimuli/63.png,37.81085180002265,37.81085180002265,37.81085180002265,37.81085180002265,37.81085180002265,0,0,return,0.14683580002747476,0,0,0,-0.16,0.16,return,0.06877349992282689,,,,,,,,,,,A,train_y,red_square,top_left,2024-11-07_15h54.29.957,HideSeek_v1,2022.2.5,59.88170967623394,
6,0,7,5,4,5,-3,63,72,test_exp,untrained,0,,,,,,,,,,,,,,,,,,,,,0,5,5,5,,,,,,,,,,,,,,,,,,,,,,,,,,,,,,,,,,,,,,,,,,,,,,,,,,,,37.92595070018433,39.00977020012215,stimuli/alien_stimuli/14.png,14,2,6,,,,,A,train_y,red_square,top_left,2024-11-07_15h54.29.957,HideSeek_v1,2022.2.5,59.88170967623394,
7,4,5,6,0,2,-5,31,72,test_exp,untrained,0,,,,,,,,,,,,,,,,,,,,,0,6,6,6,0,0,0,0,,,,,,,,,,,,,,,,,,,,,,,,,,,,,,,stimuli/alien_stimuli/31.png,39.00977020012215,39.00977020012215,39.00977020012215,39.00977020012215,39.00977020012215,0,0,return,0.14745350019074976,0,0,0,0.16,0,return,0.035264600068330765,,,,,,,,,,,A,train_y,red_square,top_left,2024-11-07_15h54.29.957,HideSeek_v1,2022.2.5,59.88170967623394,
7,4,5,6,0,2,-5,31,72,test_exp,untrained,0,,,,,,,,,,,,,,,,,,,,,0,6,6,6,,,,,,,,,,,,,,,,,,,,,,,,,,,,,,,,,,,,,,,,,,,,,,,,,,,,39.09236930008046,40.16017260006629,stimuli/alien_stimuli/14.png,14,2,7,,,,,A,train_y,red_square,top_left,2024-11-07_15h54.29.957,HideSeek_v1,2022.2.5,59.88170967623394,
8,2,6,5,3,3,-3,43,72,test_exp,train_2D_repeat,0,,,,,,,,,,,,,,,,,,,,,0,7,7,7,0,0,0,0,,,,,,,,,,,,,,,,,,,,,,,,,,,,,,,stimuli/alien_stimuli/43.png,40.16017260006629,40.16017260006629,40.16017260006629,40.16017260006629,40.16017260006629,0,0,return,0.1631686999462545,0,0,0,0,0.08,return,0.06985570001415908,,,,,,,,,,,A,train_y,red_square,top_left,2024-11-07_15h54.29.957,HideSeek_v1,2022.2.5,59.88170967623394,
8,2,6,5,3,3,-3,43,72,test_exp,train_2D_repeat,0,,,,,,,,,,,,,,,,,,,,,0,7,7,7,,,,,,,,,,,,,,,,,,,,,,,,,,,,,,,,,,,,,,,,,,,,,,,,,,,,40.27557629998773,41.359758200123906,stimuli/alien_stimuli/14.png,14,2,8,,,,,A,train_y,red_square,top_left,2024-11-07_15h54.29.957,HideSeek_v1,2022.2.5,59.88170967623394,
9,4,8,8,3,4,-5,51,72,test_exp,untrained,0,,,,,,,,,,,,,,,,,,,,,0,8,8,8,0,0,0,0,,,,,,,,,,,,,,,,,,,,,,,,,,,,,,,stimuli/alien_stimuli/51.png,41.359758200123906,41.359758200123906,41.359758200123906,41.359758200123906,41.359758200123906,0,0,return,0.1751471001189202,0,0,0,0.16,0.24,return,0.06732450006529689,,,,,,,,,,,A,train_y,red_square,top_left,2024-11-07_15h54.29.957,HideSeek_v1,2022.2.5,59.88170967623394,
9,4,8,8,3,4,-5,51,72,test_exp,untrained,0,,,,,,,,,,,,,,,,,,,,,0,8,8,8,,,,,,,,,,,,,,,,,,,,,,,,,,,,,,,,,,,,,,,,,,,,,,,,,,,,41.47603140003048,42.55904430011287,stimuli/alien_stimuli/14.png,14,2,9,,,,,A,train_y,red_square,top_left,2024-11-07_15h54.29.957,HideSeek_v1,2022.2.5,59.88170967623394,
10,1,5,2,0,1,-5,21,72,test_exp,train_2D_repeat,0,,,,,,,,,,,,,,,,,,,,,0,9,9,9,0,0,0,0,,,,,,,,,,,,,,,,,,,,,,,,,,,,,,,stimuli/alien_stimuli/21.png,42.55904430011287,42.55904430011287,42.55904430011287,42.55904430011287,42.55904430011287,0,0,return,0.178564399946481,0,0,0,-0.08,0,return,0.07579939998686314,,,,,,,,,,,A,train_y,red_square,top_left,2024-11-07_15h54.29.957,HideSeek_v1,2022.2.5,59.88170967623394,
10,1,5,2,0,1,-5,21,72,test_exp,train_2D_repeat,0,,,,,,,,,,,,,,,,,,,,,0,9,9,9,,,,,,,,,,,,,,,,,,,,,,,,,,,,,,,,,,,,,,,,,,,,,,,,,,,,42.67603690014221,43.75770040019415,stimuli/alien_stimuli/14.png,14,2,10,,,,,A,train_y,red_square,top_left,2024-11-07_15h54.29.957,HideSeek_v1,2022.2.5,59.88170967623394,
11,3,5,7,3,4,-2,54,72,test_exp,train_2D_repeat,0,,,,,,,,,,,,,,,,,,,,,0,10,10,10,0,0,0,0,,,,,,,,,,,,,,,,,,,,,,,,,,,,,,,stimuli/alien_stimuli/54.png,43.75770040019415,43.75770040019415,43.75770040019415,43.75770040019415,43.75770040019415,0,0,return,0.17944790003821254,0,0,0,0.08,0,return,0.07151109981350601,,,,,,,,,,,A,train_y,red_square,top_left,2024-11-07_15h54.29.957,HideSeek_v1,2022.2.5,59.88170967623394,
11,3,5,7,3,4,-2,54,72,test_exp,train_2D_repeat,0,,,,,,,,,,,,,,,,,,,,,0,10,10,10,,,,,,,,,,,,,,,,,,,,,,,,,,,,,,,,,,,,,,,,,,,,,,,,,,,,43.87643430009484,44.95939720002934,stimuli/alien_stimuli/14.png,14,2,11,,,,,A,train_y,red_square,top_left,2024-11-07_15h54.29.957,HideSeek_v1,2022.2.5,59.88170967623394,
12,2,8,3,8,1,0,26,72,test_exp,train_1D_sec_new,0,,,,,,,,,,,,,,,,,,,,,0,11,11,11,0,0,0,0,,,,,,,,,,,,,,,,,,,,,,,,,,,,,,,stimuli/alien_stimuli/26.png,44.95939720002934,44.95939720002934,44.95939720002934,44.95939720002934,44.95939720002934,0,0,return,0.128618499962613,0,0,0,0,0.24,return,0.03391500003635883,,,,,,,,,,,A,train_y,red_square,top_left,2024-11-07_15h54.29.957,HideSeek_v1,2022.2.5,59.88170967623394,
12,2,8,3,8,1,0,26,72,test_exp,train_1D_sec_new,0,,,,,,,,,,,,,,,,,,,,,0,11,11,11,,,,,,,,,,,,,,,,,,,,,,,,,,,,,,,,,,,,,,,,,,,,,,,,,,,,45.02579650003463,46.108936600154266,stimuli/alien_stimuli/14.png,14,2,12,,,,,A,train_y,red_square,top_left,2024-11-07_15h54.29.957,HideSeek_v1,2022.2.5,59.88170967623394,
13,1,7,1,3,0,-4,12,72,test_exp,train_1D_first_new,0,,,,,,,,,,,,,,,,,,,,,0,12,12,12,0,0,0,0,,,,,,,,,,,,,,,,,,,,,,,,,,,,,,,stimuli/alien_stimuli/12.png,46.108936600154266,46.108936600154266,46.108936600154266,46.108936600154266,46.108936600154266,0,0,return,0.09684190014377236,0,0,0,-0.08,0.16,return,0.0010470999404788017,,,,,,,,,,,A,train_y,red_square,top_left,2024-11-07_15h54.29.957,HideSeek_v1,2022.2.5,59.88170967623394,
13,1,7,1,3,0,-4,12,72,test_exp,train_1D_first_new,0,,,,,,,,,,,,,,,,,,,,,0,12,12,12,,,,,,,,,,,,,,,,,,,,,,,,,,,,,,,,,,,,,,,,,,,,,,,,,,,,46.14272140013054,47.24293310008943,stimuli/alien_stimuli/14.png,14,2,13,,,,,A,train_y,red_square,top_left,2024-11-07_15h54.29.957,HideSeek_v1,2022.2.5,59.88170967623394,
14,2,8,5,8,3,0,46,72,test_exp,untrained_1D_sec_leftout,0,,,,,,,,,,,,,,,,,,,,,0,13,13,13,0,0,0,0,,,,,,,,,,,,,,,,,,,,,,,,,,,,,,,stimuli/alien_stimuli/46.png,47.24293310008943,47.24293310008943,47.24293310008943,47.24293310008943,47.24293310008943,0,0,return,0.49680159986019135,0,0,0,0,0.24,return,0.3826710998546332,,,,,,,,,,,A,train_y,red_square,top_left,2024-11-07_15h54.29.957,HideSeek_v1,2022.2.5,59.88170967623394,
14,2,8,5,8,3,0,46,72,test_exp,untrained_1D_sec_leftout,0,,,,,,,,,,,,,,,,,,,,,0,13,13,13,,,,,,,,,,,,,,,,,,,,,,,,,,,,,,,,,,,,,,,,,,,,,,,,,,,,47.65984069998376,48.742810300085694,stimuli/alien_stimuli/14.png,14,2,14,,,,,A,train_y,red_square,top_left,2024-11-07_15h54.29.957,HideSeek_v1,2022.2.5,59.88170967623394,
15,2,9,2,9,0,0,16,72,test_exp,train_1D_sec_repeat,0,,,,,,,,,,,,,,,,,,,,,0,14,14,14,0,0,0,0,,,,,,,,,,,,,,,,,,,,,,,,,,,,,,,stimuli/alien_stimuli/16.png,48.742810300085694,48.742810300085694,48.742810300085694,48.742810300085694,48.742810300085694,0,0,return,0.2799658998847008,1,0,1,0,0.32,return,0.1820294999051839,,,,,,,,,,,A,train_y,red_square,top_left,2024-11-07_15h54.29.957,HideSeek_v1,2022.2.5,59.88170967623394,
15,2,9,2,9,0,0,16,72,test_exp,train_1D_sec_repeat,0,,,,,,,,,,,,,,,,,,,,,0,14,14,14,,,,,,,,,,,,,,,,,,,,,,,,,,,,,,,,,,,,,,,,,,,,,,,,,,,,48.96068850019947,50.05971710011363,stimuli/alien_stimuli/14.png,14,2,15,,,,,A,train_y,red_square,top_left,2024-11-07_15h54.29.957,HideSeek_v1,2022.2.5,59.88170967623394,
16,1,9,3,8,2,-1,35,72,test_exp,untrained,0,,,,,,,,,,,,,,,,,,,,,0,15,15,15,0,0,0,0,,,,,,,,,,,,,,,,,,,,,,,,,,,,,,,stimuli/alien_stimuli/35.png,50.05971710011363,50.05971710011363,50.05971710011363,50.05971710011363,50.05971710011363,0,0,return,0.2275841000955552,1,0,0,-0.08,0.32,return,0.12184379994869232,,,,,,,,,,,A,train_y,red_square,top_left,2024-11-07_15h54.29.957,HideSeek_v1,2022.2.5,59.88170967623394,
16,1,9,3,8,2,-1,35,72,test_exp,untrained,0,,,,,,,,,,,,,,,,,,,,,0,15,15,15,,,,,,,,,,,,,,,,,,,,,,,,,,,,,,,,,,,,,,,,,,,,,,,,,,,,50.22596490010619,51.29121220018715,stimuli/alien_stimuli/14.png,14,2,16,,,,,A,train_y,red_square,top_left,2024-11-07_15h54.29.957,HideSeek_v1,2022.2.5,59.88170967623394,
17,3,7,8,3,5,-4,62,72,test_exp,untrained,0,,,,,,,,,,,,,,,,,,,,,0,16,16,16,0,0,0,0,,,,,,,,,,,,,,,,,,,,,,,,,,,,,,,stimuli/alien_stimuli/62.png,51.29121220018715,51.29121220018715,51.29121220018715,51.29121220018715,51.29121220018715,0,0,return,0.28118500020354986,1,0,0,0.08,0.16,return,0.19941030000336468,,,,,,,,,,,A,train_y,red_square,top_left,2024-11-07_15h54.29.957,HideSeek_v1,2022.2.5,59.88170967623394,
17,3,7,8,3,5,-4,62,72,test_exp,untrained,0,,,,,,,,,,,,,,,,,,,,,0,16,16,16,,,,,,,,,,,,,,,,,,,,,,,,,,,,,,,,,,,,,,,,,,,,,,,,,,,,51.525370200164616,52.60980420000851,stimuli/alien_stimuli/14.png,14,2,17,,,,,A,train_y,red_square,top_left,2024-11-07_15h54.29.957,HideSeek_v1,2022.2.5,59.88170967623394,
18,3,9,7,5,4,-4,52,72,test_exp,untrained,1,,,,,,,,,,,,,,,,,,,,,0,17,17,17,0,0,0,0,,,,,,,,,,,,,,,,,,,,,,,,,,,,,,,stimuli/alien_stimuli/52.png,52.60980420000851,52.60980420000851,52.60980420000851,52.60980420000851,52.60980420000851,0,0,return,0.2795554001349956,1,0,0,0.08,0.32,return,0.16759640001691878,,,,,,,,,,,A,train_y,red_square,top_left,2024-11-07_15h54.29.957,HideSeek_v1,2022.2.5,59.88170967623394,
1,2,9,2,7,0,-2,14,72,test_exp,train_1D_first_new,0,,,,,,,,,,,,,,,,,,,,,0,17,17,17,,,,,0,0,0,0,,,,,,,,,,,,,,,,,,,,,,,,,,,,,,,,,,,,,,,,,,,,52.82575890002772,53.84300630004145,,,,,53.84300630004145,53.84300630004145,space,1.0759216998703778,A,train_y,red_square,top_left,2024-11-07_15h54.29.957,HideSeek_v1,2022.2.5,59.88170967623394,
2,4,6,7,2,3,-4,42,72,test_exp,untrained,0,,,,,,,,,,,,,,,,,,,,,0,17,17,17,,,,,0,1,1,1,,,,,,,,,,,,,,,,,,,,,,,,,,,,,,,,,,,,,,,,,,,,,,,,,,54.94272050005384,54.94272050005384,space,1.495468399953097,A,train_y,red_square,top_left,2024-11-07_15h54.29.957,HideSeek_v1,2022.2.5,59.88170967623394,
3,1,6,4,5,3,-1,45,72,test_exp,untrained,0,,,,,,,,,,,,,,,,,,,,,0,17,17,17,,,,,0,2,2,2,,,,,,,,,,,,,,,,,,,,,,,,,,,,,,,,,,,,,,,,,,,,,,,,,,56.45896279998124,56.45896279998124,space,0.16230179998092353,A,train_y,red_square,top_left,2024-11-07_15h54.29.957,HideSeek_v1,2022.2.5,59.88170967623394,
4,0,5,0,4,0,-1,15,72,test_exp,train_1D_first_repeat,0,,,,,,,,,,,,,,,,,,,,,0,17,17,17,,,,,0,3,3,3,,,,,,,,,,,,,,,,,,,,,,,,,,,,,,,,,,,,,,,,,,,,,,,,,,56.642301000189036,56.642301000189036,space,0.11690930020995438,A,train_y,red_square,top_left,2024-11-07_15h54.29.957,HideSeek_v1,2022.2.5,59.88170967623394,
5,4,9,9,4,5,-5,61,72,test_exp,untrained,0,,,,,,,,,,,,,,,,,,,,,0,17,17,17,,,,,0,4,4,4,,,,,,,,,,,,,,,,,,,,,,,,,,,,,,,,,,,,,,,,,,,,,,,,,,56.77555870008655,56.77555870008655,space,3.1750329001806676,A,train_y,red_square,top_left,2024-11-07_15h54.29.957,HideSeek_v1,2022.2.5,59.88170967623394,
6,0,7,5,4,5,-3,63,72,test_exp,untrained,0,,,,,,,,,,,,,,,,,,,,,0,17,17,17,,,,,0,5,5,5,,,,,,,,,,,,,,,,,,,,,,,,,,,,,,,,,,,,,,,,,,,,,,,,,,59.97569310013205,59.97569310013205,space,0.3566620999481529,A,train_y,red_square,top_left,2024-11-07_15h54.29.957,HideSeek_v1,2022.2.5,59.88170967623394,
7,4,5,6,0,2,-5,31,72,test_exp,untrained,0,,,,,,,,,,,,,,,,,,,,,0,17,17,17,,,,,0,6,6,6,,,,,,,,,,,,,,,,,,,,,,,,,,,,,,,,,,,,,,,,,,,,,,,,,,60.35924970009364,60.35924970009364,space,0.15877739991992712,A,train_y,red_square,top_left,2024-11-07_15h54.29.957,HideSeek_v1,2022.2.5,59.88170967623394,
8,2,6,5,3,3,-3,43,72,test_exp,train_2D_repeat,0,,,,,,,,,,,,,,,,,,,,,0,17,17,17,,,,,0,7,7,7,,,,,,,,,,,,,,,,,,,,,,,,,,,,,,,,,,,,,,,,,,,,,,,,,,60.542544400086626,60.542544400086626,space,0.13965709996409714,A,train_y,red_square,top_left,2024-11-07_15h54.29.957,HideSeek_v1,2022.2.5,59.88170967623394,
9,4,8,8,3,4,-5,51,72,test_exp,untrained,0,,,,,,,,,,,,,,,,,,,,,0,17,17,17,,,,,0,8,8,8,,,,,,,,,,,,,,,,,,,,,,,,,,,,,,,,,,,,,,,,,,,,,,,,,,60.70902370009571,60.70902370009571,space,0.13799760001711547,A,train_y,red_square,top_left,2024-11-07_15h54.29.957,HideSeek_v1,2022.2.5,59.88170967623394,
10,1,5,2,0,1,-5,21,72,test_exp,train_2D_repeat,0,,,,,,,,,,,,,,,,,,,,,0,17,17,17,,,,,0,9,9,9,,,,,,,,,,,,,,,,,,,,,,,,,,,,,,,,,,,,,,,,,,,,,,,,,,60.876162600005046,60.876162600005046,space,0.1168063001241535,A,train_y,red_square,top_left,2024-11-07_15h54.29.957,HideSeek_v1,2022.2.5,59.88170967623394,
11,3,5,7,3,4,-2,54,72,test_exp,train_2D_repeat,0,,,,,,,,,,,,,,,,,,,,,0,17,17,17,,,,,0,10,10,10,,,,,,,,,,,,,,,,,,,,,,,,,,,,,,,,,,,,,,,,,,,,,,,,,,61.02573230001144,61.02573230001144,space,0.12883109995163977,A,train_y,red_square,top_left,2024-11-07_15h54.29.957,HideSeek_v1,2022.2.5,59.88170967623394,
12,2,8,3,8,1,0,26,72,test_exp,train_1D_sec_new,0,,,,,,,,,,,,,,,,,,,,,0,17,17,17,,,,,0,11,11,11,,,,,,,,,,,,,,,,,,,,,,,,,,,,,,,,,,,,,,,,,,,,,,,,,,61.17593420017511,61.17593420017511,space,0.13024119986221194,A,train_y,red_square,top_left,2024-11-07_15h54.29.957,HideSeek_v1,2022.2.5,59.88170967623394,
13,1,7,1,3,0,-4,12,72,test_exp,train_1D_first_new,0,,,,,,,,,,,,,,,,,,,,,0,17,17,17,,,,,0,12,12,12,,,,,,,,,,,,,,,,,,,,,,,,,,,,,,,,,,,,,,,,,,,,,,,,,,61.325377400033176,61.325377400033176,space,0.13508050004020333,A,train_y,red_square,top_left,2024-11-07_15h54.29.957,HideSeek_v1,2022.2.5,59.88170967623394,
14,2,8,5,8,3,0,46,72,test_exp,untrained_1D_sec_leftout,0,,,,,,,,,,,,,,,,,,,,,0,17,17,17,,,,,0,13,13,13,,,,,,,,,,,,,,,,,,,,,,,,,,,,,,,,,,,,,,,,,,,,,,,,,,61.492544300155714,61.492544300155714,space,0.11670359992422163,A,train_y,red_square,top_left,2024-11-07_15h54.29.957,HideSeek_v1,2022.2.5,59.88170967623394,
15,2,9,2,9,0,0,16,72,test_exp,train_1D_sec_repeat,0,,,,,,,,,,,,,,,,,,,,,0,17,17,17,,,,,0,14,14,14,,,,,,,,,,,,,,,,,,,,,,,,,,,,,,,,,,,,,,,,,,,,,,,,,,61.625712800072506,61.625712800072506,space,0.6292987999040633,A,train_y,red_square,top_left,2024-11-07_15h54.29.957,HideSeek_v1,2022.2.5,59.88170967623394,
16,1,9,3,8,2,-1,35,72,test_exp,untrained,0,,,,,,,,,,,,,,,,,,,,,0,17,17,17,,,,,0,15,15,15,,,,,,,,,,,,,,,,,,,,,,,,,,,,,,,,,,,,,,,,,,,,,,,,,,62.27609429997392,62.27609429997392,space,0.15344490017741919,A,train_y,red_square,top_left,2024-11-07_15h54.29.957,HideSeek_v1,2022.2.5,59.88170967623394,
17,3,7,8,3,5,-4,62,72,test_exp,untrained,0,,,,,,,,,,,,,,,,,,,,,0,17,17,17,,,,,0,16,16,16,,,,,,,,,,,,,,,,,,,,,,,,,,,,,,,,,,,,,,,,,,,,,,,,,,62.459295300068334,62.459295300068334,space,0.13040969986468554,A,train_y,red_square,top_left,2024-11-07_15h54.29.957,HideSeek_v1,2022.2.5,59.88170967623394,
18,3,9,7,5,4,-4,52,72,test_exp,untrained,1,,,,,,,,,,,,,,,,,,,,,0,17,17,17,,,,,0,17,17,17,,,,,,,,,,,,,,,,,,,,,,,,,,,,,,,,,,,,,,,,,,,,,,,,,,62.60879119997844,62.60879119997844,space,0.9219694999046624,A,train_y,red_square,top_left,2024-11-07_15h54.29.957,HideSeek_v1,2022.2.5,59.88170967623394,
19,2,5,7,3,5,-2,64,72,test_exp,untrained,0,,,,,,,,,,,,,,,,,,,,,0,17,17,17,,,,,0,18,18,18,,,,,,,,,,,,,,,,,,,,,,,,,,,,,,,,,,,,,,,,,,,,,,,,,,63.55874240002595,63.55874240002595,space,0.14202610007487237,A,train_y,red_square,top_left,2024-11-07_15h54.29.957,HideSeek_v1,2022.2.5,59.88170967623394,
20,3,8,3,5,0,-3,13,72,test_exp,untrained_1D_first_leftout,0,,,,,,,,,,,,,,,,,,,,,0,17,17,17,,,,,0,19,19,19,,,,,,,,,,,,,,,,,,,,,,,,,,,,,,,,,,,,,,,,,,,,,,,,,,63.72579749999568,63.72579749999568,space,0.12258920003660023,A,train_y,red_square,top_left,2024-11-07_15h54.29.957,HideSeek_v1,2022.2.5,59.88170967623394,
21,3,5,4,4,1,-1,25,72,test_exp,untrained,0,,,,,,,,,,,,,,,,,,,,,0,17,17,17,,,,,0,20,20,20,,,,,,,,,,,,,,,,,,,,,,,,,,,,,,,,,,,,,,,,,,,,,,,,,,63.87532900017686,63.87532900017686,space,0.12582649989053607,A,train_y,red_square,top_left,2024-11-07_15h54.29.957,HideSeek_v1,2022.2.5,59.88170967623394,
22,1,5,3,1,2,-4,32,72,test_exp,train_2D_new,0,,,,,,,,,,,,,,,,,,,,,0,17,17,17,,,,,0,21,21,21,,,,,,,,,,,,,,,,,,,,,,,,,,,,,,,,,,,,,,,,,,,,,,,,,,64.02553260000423,64.02553260000423,space,0.8209583000279963,A,train_y,red_square,top_left,2024-11-07_15h54.29.957,HideSeek_v1,2022.2.5,59.88170967623394,
23,1,8,5,5,4,-3,53,72,test_exp,untrained,0,,,,,,,,,,,,,,,,,,,,,0,17,17,17,,,,,0,22,22,22,,,,,,,,,,,,,,,,,,,,,,,,,,,,,,,,,,,,,,,,,,,,,,,,,,64.87592640006915,64.87592640006915,space,0.14904149994254112,A,train_y,red_square,top_left,2024-11-07_15h54.29.957,HideSeek_v1,2022.2.5,59.88170967623394,
24,0,5,2,3,2,-2,34,72,test_exp,untrained,0,,,,,,,,,,,,,,,,,,,,,0,17,17,17,,,,,0,23,23,23,,,,,,,,,,,,,,,,,,,,,,,,,,,,,,,,,,,,,,,,,,,,,,,,,,65.04263250017539,65.04263250017539,space,0.15422580018639565,A,train_y,red_square,top_left,2024-11-07_15h54.29.957,HideSeek_v1,2022.2.5,59.88170967623394,
25,0,7,5,7,5,0,66,72,test_exp,train_1D_sec_repeat,0,,,,,,,,,,,,,,,,,,,,,0,17,17,17,,,,,0,24,24,24,,,,,,,,,,,,,,,,,,,,,,,,,,,,,,,,,,,,,,,,,,,,,,,,,,65.2258099000901,65.2258099000901,space,0.13278149999678135,A,train_y,red_square,top_left,2024-11-07_15h54.29.957,HideSeek_v1,2022.2.5,59.88170967623394,
26,0,8,0,3,0,-5,11,72,test_exp,train_1D_first_new,0,,,,,,,,,,,,,,,,,,,,,0,17,17,17,,,,,0,25,25,25,,,,,,,,,,,,,,,,,,,,,,,,,,,,,,,,,,,,,,,,,,,,,,,,,,65.37588530010544,65.37588530010544,space,0.15509519982151687,A,train_y,red_square,top_left,2024-11-07_15h54.29.957,HideSeek_v1,2022.2.5,59.88170967623394,
27,1,5,2,2,1,-3,23,72,test_exp,untrained,0,,,,,,,,,,,,,,,,,,,,,0,17,17,17,,,,,0,26,26,26,,,,,,,,,,,,,,,,,,,,,,,,,,,,,,,,,,,,,,,,,,,,,,,,,,65.55926810018718,65.55926810018718,space,0.11715559987351298,A,train_y,red_square,top_left,2024-11-07_15h54.29.957,HideSeek_v1,2022.2.5,59.88170967623394,
28,4,7,7,2,3,-5,41,72,test_exp,untrained,0,,,,,,,,,,,,,,,,,,,,,0,17,17,17,,,,,0,27,27,27,,,,,,,,,,,,,,,,,,,,,,,,,,,,,,,,,,,,,,,,,,,,,,,,,,65.70878400001675,65.70878400001675,space,0.19941250002011657,A,train_y,red_square,top_left,2024-11-07_15h54.29.957,HideSeek_v1,2022.2.5,59.88170967623394,
29,3,6,4,4,1,-2,24,72,test_exp,untrained,0,,,,,,,,,,,,,,,,,,,,,0,17,17,17,,,,,0,28,28,28,,,,,,,,,,,,,,,,,,,,,,,,,,,,,,,,,,,,,,,,,,,,,,,,,,65.92529260017909,65.92529260017909,space,0.2932325000874698,A,train_y,red_square,top_left,2024-11-07_15h54.29.957,HideSeek_v1,2022.2.5,59.88170967623394,
30,4,5,5,1,1,-4,22,72,test_exp,untrained,0,,,,,,,,,,,,,,,,,,,,,0,17,17,17,,,,,0,29,29,29,,,,,,,,,,,,,,,,,,,,,,,,,,,,,,,,,,,,,,,,,,,,,,,,,,66.24258970003575,66.24258970003575,space,0.2114808999467641,A,train_y,red_square,top_left,2024-11-07_15h54.29.957,HideSeek_v1,2022.2.5,59.88170967623394,
31,0,7,4,6,4,-1,55,72,test_exp,untrained,0,,,,,,,,,,,,,,,,,,,,,0,17,17,17,,,,,0,30,30,30,,,,,,,,,,,,,,,,,,,,,,,,,,,,,,,,,,,,,,,,,,,,,,,,,,66.47535450011492,66.47535450011492,space,0.2397280998993665,A,train_y,red_square,top_left,2024-11-07_15h54.29.957,HideSeek_v1,2022.2.5,59.88170967623394,
32,4,8,9,7,5,-1,65,72,test_exp,train_2D_repeat,0,,,,,,,,,,,,,,,,,,,,,0,17,17,17,,,,,0,31,31,31,,,,,,,,,,,,,,,,,,,,,,,,,,,,,,,,,,,,,,,,,,,,,,,,,,66.7419027001597,66.7419027001597,space,0.2118734000250697,A,train_y,red_square,top_left,2024-11-07_15h54.29.957,HideSeek_v1,2022.2.5,59.88170967623394,
33,0,9,3,7,3,-2,44,72,test_exp,untrained,0,,,,,,,,,,,,,,,,,,,,,0,17,17,17,,,,,0,32,32,32,,,,,,,,,,,,,,,,,,,,,,,,,,,,,,,,,,,,,,,,,,,,,,,,,,66.97537090000696,66.97537090000696,space,0.2056128999684006,A,train_y,red_square,top_left,2024-11-07_15h54.29.957,HideSeek_v1,2022.2.5,59.88170967623394,
34,2,5,6,5,4,0,56,72,test_exp,train_1D_sec_new,0,,,,,,,,,,,,,,,,,,,,,0,17,17,17,,,,,0,33,33,33,,,,,,,,,,,,,,,,,,,,,,,,,,,,,,,,,,,,,,,,,,,,,,,,,,67.20876070018858,67.20876070018858,space,0.4411416999064386,A,train_y,red_square,top_left,2024-11-07_15h54.29.957,HideSeek_v1,2022.2.5,59.88170967623394,
35,2,8,4,8,2,0,36,72,test_exp,train_1D_sec_new,0,,,,,,,,,,,,,,,,,,,,,0,17,17,17,,,,,0,34,34,34,,,,,,,,,,,,,,,,,,,,,,,,,,,,,,,,,,,,,,,,,,,,,,,,,,67.67557419999503,67.67557419999503,space,0.15719350008293986,A,train_y,red_square,top_left,2024-11-07_15h54.29.957,HideSeek_v1,2022.2.5,59.88170967623394,
36,3,9,5,6,2,-3,33,72,test_exp,untrained,1,,,,,,,,,,,,,,,,,,,,,0,17,17,17,,,,,0,35,35,35,,,,,,,,,,,,,,,,,,,,,,,,,,,,,,,,,,,,,,,,,,,,,,,,,,67.85893380013295,67.85893380013295,space,0.18666979996487498,A,train_y,red_square,top_left,2024-11-07_15h54.29.957,HideSeek_v1,2022.2.5,59.88170967623394,
37,2,8,2,6,0,-2,14,72,test_exp,train_1D_first_repeat,0,,,,,,,,,,,,,,,,,,,,,0,17,17,17,,,,,0,36,36,36,,,,,,,,,,,,,,,,,,,,,,,,,,,,,,,,,,,,,,,,,,,,,,,,,,68.075477699982,68.075477699982,space,0.11145829991437495,A,train_y,red_square,top_left,2024-11-07_15h54.29.957,HideSeek_v1,2022.2.5,59.88170967623394,
38,0,6,5,6,5,0,66,72,test_exp,train_1D_sec_new,0,,,,,,,,,,,,,,,,,,,,,0,17,17,17,,,,,0,37,37,37,,,,,,,,,,,,,,,,,,,,,,,,,,,,,,,,,,,,,,,,,,,,,,,,,,68.20870120008476,68.20870120008476,space,0.29148339992389083,A,train_y,red_square,top_left,2024-11-07_15h54.29.957,HideSeek_v1,2022.2.5,59.88170967623394,
39,1,6,5,3,4,-3,53,72,test_exp,untrained,0,,,,,,,,,,,,,,,,,,,,,0,17,17,17,,,,,0,38,38,38,,,,,,,,,,,,,,,,,,,,,,,,,,,,,,,,,,,,,,,,,,,,,,,,,,68.52531920000911,68.52531920000911,space,0.1496296999976039,A,train_y,red_square,top_left,2024-11-07_15h54.29.957,HideSeek_v1,2022.2.5,59.88170967623394,
40,1,7,3,6,2,-1,35,72,test_exp,untrained,0,,,,,,,,,,,,,,,,,,,,,0,17,17,17,,,,,0,39,39,39,,,,,,,,,,,,,,,,,,,,,,,,,,,,,,,,,,,,,,,,,,,,,,,,,,68.69245070009492,68.69245070009492,space,0.22198240016587079,A,train_y,red_square,top_left,2024-11-07_15h54.29.957,HideSeek_v1,2022.2.5,59.88170967623394,
41,3,5,6,5,3,0,46,72,test_exp,untrained_1D_sec_leftout,0,,,,,,,,,,,,,,,,,,,,,0,17,17,17,,,,,0,40,40,40,,,,,,,,,,,,,,,,,,,,,,,,,,,,,,,,,,,,,,,,,,,,,,,,,,68.94212920009159,68.94212920009159,space,0.24401329993270338,A,train_y,red_square,top_left,2024-11-07_15h54.29.957,HideSeek_v1,2022.2.5,59.88170967623394,
42,2,7,3,3,1,-4,22,72,test_exp,untrained,0,,,,,,,,,,,,,,,,,,,,,0,17,17,17,,,,,0,41,41,41,,,,,,,,,,,,,,,,,,,,,,,,,,,,,,,,,,,,,,,,,,,,,,,,,,69.20949609996751,69.20949609996751,space,0.22307990002445877,A,train_y,red_square,top_left,2024-11-07_15h54.29.957,HideSeek_v1,2022.2.5,59.88170967623394,
43,3,8,7,8,4,0,56,72,test_exp,train_1D_sec_repeat,0,,,,,,,,,,,,,,,,,,,,,0,17,17,17,,,,,0,42,42,42,,,,,,,,,,,,,,,,,,,,,,,,,,,,,,,,,,,,,,,,,,,,,,,,,,69.4589508001227,69.4589508001227,space,0.4849829999729991,A,train_y,red_square,top_left,2024-11-07_15h54.29.957,HideSeek_v1,2022.2.5,59.88170967623394,
44,3,7,3,7,0,0,16,72,test_exp,train_1D_sec_new,0,,,,,,,,,,,,,,,,,,,,,0,17,17,17,,,,,0,43,43,43,,,,,,,,,,,,,,,,,,,,,,,,,,,,,,,,,,,,,,,,,,,,,,,,,,69.97581420000643,69.97581420000643,space,0.2440873000305146,A,train_y,red_square,top_left,2024-11-07_15h54.29.957,HideSeek_v1,2022.2.5,59.88170967623394,
45,0,5,4,3,4,-2,54,72,test_exp,train_2D_new,0,,,,,,,,,,,,,,,,,,,,,0,17,17,17,,,,,0,44,44,44,,,,,,,,,,,,,,,,,,,,,,,,,,,,,,,,,,,,,,,,,,,,,,,,,,70.24244800000452,70.24244800000452,space,0.22253850009292364,A,train_y,red_square,top_left,2024-11-07_15h54.29.957,HideSeek_v1,2022.2.5,59.88170967623394,
46,2,9,3,8,1,-1,25,72,test_exp,untrained,0,,,,,,,,,,,,,,,,,,,,,0,17,17,17,,,,,0,45,45,45,,,,,,,,,,,,,,,,,,,,,,,,,,,,,,,,,,,,,,,,,,,,,,,,,,70.49218190019019,70.49218190019019,space,0.21717690001241863,A,train_y,red_square,top_left,2024-11-07_15h54.29.957,HideSeek_v1,2022.2.5,59.88170967623394,
47,2,6,2,3,0,-3,13,72,test_exp,untrained_1D_first_leftout,0,,,,,,,,,,,,,,,,,,,,,0,17,17,17,,,,,0,46,46,46,,,,,,,,,,,,,,,,,,,,,,,,,,,,,,,,,,,,,,,,,,,,,,,,,,70.74238840001635,70.74238840001635,space,0.19489220017567277,A,train_y,red_square,top_left,2024-11-07_15h54.29.957,HideSeek_v1,2022.2.5,59.88170967623394,
48,0,6,0,2,0,-4,12,72,test_exp,train_1D_first_repeat,0,,,,,,,,,,,,,,,,,,,,,0,17,17,17,,,,,0,47,47,47,,,,,,,,,,,,,,,,,,,,,,,,,,,,,,,,,,,,,,,,,,,,,,,,,,70.95896110008471,70.95896110008471,space,0.22161960019730031,A,train_y,red_square,top_left,2024-11-07_15h54.29.957,HideSeek_v1,2022.2.5,59.88170967623394,
49,3,6,8,2,5,-4,62,72,test_exp,untrained,0,,,,,,,,,,,,,,,,,,,,,0,17,17,17,,,,,0,48,48,48,,,,,,,,,,,,,,,,,,,,,,,,,,,,,,,,,,,,,,,,,,,,,,,,,,71.20932020014152,71.20932020014152,space,0.1877900999970734,A,train_y,red_square,top_left,2024-11-07_15h54.29.957,HideSeek_v1,2022.2.5,59.88170967623394,
50,3,5,8,0,5,-5,61,72,test_exp,untrained,0,,,,,,,,,,,,,,,,,,,,,0,17,17,17,,,,,0,49,49,49,,,,,,,,,,,,,,,,,,,,,,,,,,,,,,,,,,,,,,,,,,,,,,,,,,71.42572240019217,71.42572240019217,space,0.24341689981520176,A,train_y,red_square,top_left,2024-11-07_15h54.29.957,HideSeek_v1,2022.2.5,59.88170967623394,
51,1,8,4,5,3,-3,43,72,test_exp,train_2D_new,0,,,,,,,,,,,,,,,,,,,,,0,17,17,17,,,,,0,50,50,50,,,,,,,,,,,,,,,,,,,,,,,,,,,,,,,,,,,,,,,,,,,,,,,,,,71.69230360002257,71.69230360002257,space,0.22852130001410842,A,train_y,red_square,top_left,2024-11-07_15h54.29.957,HideSeek_v1,2022.2.5,59.88170967623394,
52,2,9,5,7,3,-2,44,72,test_exp,untrained,0,,,,,,,,,,,,,,,,,,,,,0,17,17,17,,,,,0,51,51,51,,,,,,,,,,,,,,,,,,,,,,,,,,,,,,,,,,,,,,,,,,,,,,,,,,71.94199970015325,71.94199970015325,space,0.18571699992753565,A,train_y,red_square,top_left,2024-11-07_15h54.29.957,HideSeek_v1,2022.2.5,59.88170967623394,
53,3,9,4,7,1,-2,24,72,test_exp,untrained,1,,,,,,,,,,,,,,,,,,,,,0,17,17,17,,,,,0,52,52,52,,,,,,,,,,,,,,,,,,,,,,,,,,,,,,,,,,,,,,,,,,,,,,,,,,72.15920180012472,72.15920180012472,space,0.1496331999078393,A,train_y,red_square,top_left,2024-11-07_15h54.29.957,HideSeek_v1,2022.2.5,59.88170967623394,
54,4,6,4,5,0,-1,15,72,test_exp,train_1D_first_new,0,,,,,,,,,,,,,,,,,,,,,0,17,17,17,,,,,0,53,53,53,,,,,,,,,,,,,,,,,,,,,,,,,,,,,,,,,,,,,,,,,,,,,,,,,,72.3255903001409,72.3255903001409,space,0.1519438000395894,A,train_y,red_square,top_left,2024-11-07_15h54.29.957,HideSeek_v1,2022.2.5,59.88170967623394,
55,4,7,6,5,2,-2,34,72,test_exp,untrained,0,,,,,,,,,,,,,,,,,,,,,0,17,17,17,,,,,0,54,54,54,,,,,,,,,,,,,,,,,,,,,,,,,,,,,,,,,,,,,,,,,,,,,,,,,,72.50901670008898,72.50901670008898,space,0.15683349990285933,A,train_y,red_square,top_left,2024-11-07_15h54.29.957,HideSeek_v1,2022.2.5,59.88170967623394,
56,1,9,3,6,2,-3,33,72,test_exp,untrained,0,,,,,,,,,,,,,,,,,,,,,0,17,17,17,,,,,0,55,55,55,,,,,,,,,,,,,,,,,,,,,,,,,,,,,,,,,,,,,,,,,,,,,,,,,,72.69233510014601,72.69233510014601,space,0.1284888000227511,A,train_y,red_square,top_left,2024-11-07_15h54.29.957,HideSeek_v1,2022.2.5,59.88170967623394,
57,2,7,5,6,3,-1,45,72,test_exp,untrained,0,,,,,,,,,,,,,,,,,,,,,0,17,17,17,,,,,0,56,56,56,,,,,,,,,,,,,,,,,,,,,,,,,,,,,,,,,,,,,,,,,,,,,,,,,,72.84273200016469,72.84273200016469,space,0.14720790018327534,A,train_y,red_square,top_left,2024-11-07_15h54.29.957,HideSeek_v1,2022.2.5,59.88170967623394,
58,1,7,5,6,4,-1,55,72,test_exp,untrained,0,,,,,,,,,,,,,,,,,,,,,0,17,17,17,,,,,0,57,57,57,,,,,,,,,,,,,,,,,,,,,,,,,,,,,,,,,,,,,,,,,,,,,,,,,,73.0089491000399,73.0089491000399,space,0.1634197998791933,A,train_y,red_square,top_left,2024-11-07_15h54.29.957,HideSeek_v1,2022.2.5,59.88170967623394,
59,2,6,4,1,2,-5,31,72,test_exp,untrained,0,,,,,,,,,,,,,,,,,,,,,0,17,17,17,,,,,0,58,58,58,,,,,,,,,,,,,,,,,,,,,,,,,,,,,,,,,,,,,,,,,,,,,,,,,,73.1923059001565,73.1923059001565,space,0.15363040007650852,A,train_y,red_square,top_left,2024-11-07_15h54.29.957,HideSeek_v1,2022.2.5,59.88170967623394,
60,1,6,6,3,5,-3,63,72,test_exp,untrained,0,,,,,,,,,,,,,,,,,,,,,0,17,17,17,,,,,0,59,59,59,,,,,,,,,,,,,,,,,,,,,,,,,,,,,,,,,,,,,,,,,,,,,,,,,,73.37557140015997,73.37557140015997,space,1.0826310999691486,A,train_y,red_square,top_left,2024-11-07_15h54.29.957,HideSeek_v1,2022.2.5,59.88170967623394,
61,0,7,5,6,5,-1,65,72,test_exp,train_2D_new,0,,,,,,,,,,,,,,,,,,,,,0,17,17,17,,,,,0,60,60,60,,,,,,,,,,,,,,,,,,,,,,,,,,,,,,,,,,,,,,,,,,,,,,,,,,74.47574110003188,74.47574110003188,space,0.2306991999503225,A,train_y,red_square,top_left,2024-11-07_15h54.29.957,HideSeek_v1,2022.2.5,59.88170967623394,
62,0,6,1,1,1,-5,21,72,test_exp,train_2D_new,0,,,,,,,,,,,,,,,,,,,,,0,17,17,17,,,,,0,61,61,61,,,,,,,,,,,,,,,,,,,,,,,,,,,,,,,,,,,,,,,,,,,,,,,,,,74.72538790013641,74.72538790013641,space,0.1676326000597328,A,train_y,red_square,top_left,2024-11-07_15h54.29.957,HideSeek_v1,2022.2.5,59.88170967623394,
63,4,9,8,5,4,-4,52,72,test_exp,untrained,0,,,,,,,,,,,,,,,,,,,,,0,17,17,17,,,,,0,62,62,62,,,,,,,,,,,,,,,,,,,,,,,,,,,,,,,,,,,,,,,,,,,,,,,,,,74.92558940011077,74.92558940011077,space,0.15103640011511743,A,train_y,red_square,top_left,2024-11-07_15h54.29.957,HideSeek_v1,2022.2.5,59.88170967623394,
64,2,8,5,3,3,-5,41,72,test_exp,untrained,0,,,,,,,,,,,,,,,,,,,,,0,17,17,17,,,,,0,63,63,63,,,,,,,,,,,,,,,,,,,,,,,,,,,,,,,,,,,,,,,,,,,,,,,,,,75.10894000018016,75.10894000018016,space,0.48399619990959764,A,train_y,red_square,top_left,2024-11-07_15h54.29.957,HideSeek_v1,2022.2.5,59.88170967623394,
65,4,9,5,9,1,0,26,72,test_exp,train_1D_sec_repeat,0,,,,,,,,,,,,,,,,,,,,,0,17,17,17,,,,,0,64,64,64,,,,,,,,,,,,,,,,,,,,,,,,,,,,,,,,,,,,,,,,,,,,,,,,,,75.62571870000102,75.62571870000102,space,0.20599270006641746,A,train_y,red_square,top_left,2024-11-07_15h54.29.957,HideSeek_v1,2022.2.5,59.88170967623394,
66,3,7,4,4,1,-3,23,72,test_exp,untrained,0,,,,,,,,,,,,,,,,,,,,,0,17,17,17,,,,,0,65,65,65,,,,,,,,,,,,,,,,,,,,,,,,,,,,,,,,,,,,,,,,,,,,,,,,,,75.85850790003315,75.85850790003315,space,0.28519199998117983,A,train_y,red_square,top_left,2024-11-07_15h54.29.957,HideSeek_v1,2022.2.5,59.88170967623394,
67,3,8,3,3,0,-5,11,72,test_exp,train_1D_first_repeat,0,,,,,,,,,,,,,,,,,,,,,0,17,17,17,,,,,0,66,66,66,,,,,,,,,,,,,,,,,,,,,,,,,,,,,,,,,,,,,,,,,,,,,,,,,,76.17579330014996,76.17579330014996,space,0.20182079984806478,A,train_y,red_square,top_left,2024-11-07_15h54.29.957,HideSeek_v1,2022.2.5,59.88170967623394,
68,3,8,8,6,5,-2,64,72,test_exp,untrained,0,,,,,,,,,,,,,,,,,,,,,0,17,17,17,,,,,0,67,67,67,,,,,,,,,,,,,,,,,,,,,,,,,,,,,,,,,,,,,,,,,,,,,,,,,,76.40872639999725,76.40872639999725,space,0.2857399999629706,A,train_y,red_square,top_left,2024-11-07_15h54.29.957,HideSeek_v1,2022.2.5,59.88170967623394,
69,2,6,4,6,2,0,36,72,test_exp,train_1D_sec_repeat,0,,,,,,,,,,,,,,,,,,,,,0,17,17,17,,,,,0,68,68,68,,,,,,,,,,,,,,,,,,,,,,,,,,,,,,,,,,,,,,,,,,,,,,,,,,76.72535520000383,76.72535520000383,space,0.2746655000373721,A,train_y,red_square,top_left,2024-11-07_15h54.29.957,HideSeek_v1,2022.2.5,59.88170967623394,
70,0,8,4,3,4,-5,51,72,test_exp,untrained,0,,,,,,,,,,,,,,,,,,,,,0,17,17,17,,,,,0,69,69,69,,,,,,,,,,,,,,,,,,,,,,,,,,,,,,,,,,,,,,,,,,,,,,,,,,77.0256269001402,77.0256269001402,space,0.2544029999990016,A,train_y,red_square,top_left,2024-11-07_15h54.29.957,HideSeek_v1,2022.2.5,59.88170967623394,
71,4,5,7,1,3,-4,42,72,test_exp,untrained,0,,,,,,,,,,,,,,,,,,,,,0,17,17,17,,,,,0,70,70,70,,,,,,,,,,,,,,,,,,,,,,,,,,,,,,,,,,,,,,,,,,,,,,,,,,77.30920400004834,77.30920400004834,space,0.3122300000395626,A,train_y,red_square,top_left,2024-11-07_15h54.29.957,HideSeek_v1,2022.2.5,59.88170967623394,
72,2,8,4,4,2,-4,32,72,test_exp,train_2D_repeat,0,,,,,,,,,,,,,,,,,,,,,0,17,17,17,,,,,0,71,71,71,,,,,,,,,,,,,,,,,,,,,,,,,,,,,,,,,,,,,,,,,,,,,,,,,,77.64175350009464,77.64175350009464,space,0.2381311000790447,A,train_y,red_square,top_left,2024-11-07_15h54.29.957,HideSeek_v1,2022.2.5,59.88170967623394,
18,3,9,7,5,4,-4,52,72,test_exp,untrained,1,,,,,,,,,,,,,,,,,,,,,0,17,17,17,,,,,,,,,,,,,,,,,,,,,,,,,,,,,,,,,,,,,,,,,,,,,,,,,,,,,,stimuli/alien_stimuli/32.png,32,2,18,,,,,A,train_y,red_square,top_left,2024-11-07_15h54.29.957,HideSeek_v1,2022.2.5,59.88170967623394,
19,2,5,7,3,5,-2,64,72,test_exp,untrained,0,,,,,,,,,,,,,,,,,,,,,0,18,18,18,0,0,0,0,,,,,,,,,,,,,,,,,,,,,,,,,,,,,,,stimuli/alien_stimuli/64.png,77.97568580019288,77.97568580019288,77.97568580019288,77.97568580019288,77.97568580019288,0,0,return,9.995900799985975,1,0,0,0,0,return,9.894556100014597,,,,,,,,,,,A,train_y,red_square,top_left,2024-11-07_15h54.29.957,HideSeek_v1,2022.2.5,59.88170967623394,
19,2,5,7,3,5,-2,64,72,test_exp,untrained,0,,,,,,,,,,,,,,,,,,,,,0,18,18,18,,,,,,,,,,,,,,,,,,,,,,,,,,,,,,,,,,,,,,,,,,,,,,,,,,,,87.9088531001471,89.0088953000959,stimuli/alien_stimuli/14.png,14,2,19,,,,,A,train_y,red_square,top_left,2024-11-07_15h54.29.957,HideSeek_v1,2022.2.5,59.88170967623394,
20,3,8,3,5,0,-3,13,72,test_exp,untrained_1D_first_leftout,0,,,,,,,,,,,,,,,,,,,,,0,19,19,19,0,0,0,0,,,,,,,,,,,,,,,,,,,,,,,,,,,,,,,stimuli/alien_stimuli/13.png,89.0088953000959,89.0088953000959,89.0088953000959,89.0088953000959,89.0088953000959,0,0,return,2.9809316999744624,1,0,0,0.08,0.24,return,2.8572627999819815,,,,,,,,,,,A,train_y,red_square,top_left,2024-11-07_15h54.29.957,HideSeek_v1,2022.2.5,59.88170967623394,
20,3,8,3,5,0,-3,13,72,test_exp,untrained_1D_first_leftout,0,,,,,,,,,,,,,,,,,,,,,0,19,19,19,,,,,,,,,,,,,,,,,,,,,,,,,,,,,,,,,,,,,,,,,,,,,,,,,,,,91.90864929999225,93.00942690018564,stimuli/alien_stimuli/14.png,14,2,20,,,,,A,train_y,red_square,top_left,2024-11-07_15h54.29.957,HideSeek_v1,2022.2.5,59.88170967623394,
21,3,5,4,4,1,-1,25,72,test_exp,untrained,0,,,,,,,,,,,,,,,,,,,,,0,20,20,20,0,0,0,0,,,,,,,,,,,,,,,,,,,,,,,,,,,,,,,stimuli/alien_stimuli/25.png,93.00942690018564,93.00942690018564,93.00942690018564,93.00942690018564,93.00942690018564,0,0,return,0.3294607999268919,1,0,0,0.08,0,return,0.19997090008109808,,,,,,,,,,,A,train_y,red_square,top_left,2024-11-07_15h54.29.957,HideSeek_v1,2022.2.5,59.88170967623394,
21,3,5,4,4,1,-1,25,72,test_exp,untrained,0,,,,,,,,,,,,,,,,,,,,,0,20,20,20,,,,,,,,,,,,,,,,,,,,,,,,,,,,,,,,,,,,,,,,,,,,,,,,,,,,93.25901130004786,94.35904260003008,stimuli/alien_stimuli/14.png,14,2,21,,,,,A,train_y,red_square,top_left,2024-11-07_15h54.29.957,HideSeek_v1,2022.2.5,59.88170967623394,
22,1,5,3,1,2,-4,32,72,test_exp,train_2D_new,0,,,,,,,,,,,,,,,,,,,,,0,21,21,21,0,0,0,0,,,,,,,,,,,,,,,,,,,,,,,,,,,,,,,stimuli/alien_stimuli/32.png,94.35904260003008,94.35904260003008,94.35904260003008,94.35904260003008,94.35904260003008,0,0,return,0.4799478999339044,1,0,0,-0.08,0,return,0.36463729990646243,,,,,,,,,,,A,train_y,red_square,top_left,2024-11-07_15h54.29.957,HideSeek_v1,2022.2.5,59.88170967623394,
22,1,5,3,1,2,-4,32,72,test_exp,train_2D_new,0,,,,,,,,,,,,,,,,,,,,,0,21,21,21,,,,,,,,,,,,,,,,,,,,,,,,,,,,,,,,,,,,,,,,,,,,,,,,,,,,94.75824300013483,95.84222470014356,stimuli/alien_stimuli/14.png,14,2,22,,,,,A,train_y,red_square,top_left,2024-11-07_15h54.29.957,HideSeek_v1,2022.2.5,59.88170967623394,
23,1,8,5,5,4,-3,53,72,test_exp,untrained,0,,,,,,,,,,,,,,,,,,,,,0,22,22,22,0,0,0,0,,,,,,,,,,,,,,,,,,,,,,,,,,,,,,,stimuli/alien_stimuli/53.png,95.84222470014356,95.84222470014356,95.84222470014356,95.84222470014356,95.84222470014356,0,0,return,0.2800061998423189,1,0,0,-0.08,0.24,return,0.17638239986263216,,,,,,,,,,,A,train_y,red_square,top_left,2024-11-07_15h54.29.957,HideSeek_v1,2022.2.5,59.88170967623394,
23,1,8,5,5,4,-3,53,72,test_exp,untrained,0,,,,,,,,,,,,,,,,,,,,,0,22,22,22,,,,,,,,,,,,,,,,,,,,,,,,,,,,,,,,,,,,,,,,,,,,,,,,,,,,96.05867759999819,97.1419373000972,stimuli/alien_stimuli/14.png,14,2,23,,,,,A,train_y,red_square,top_left,2024-11-07_15h54.29.957,HideSeek_v1,2022.2.5,59.88170967623394,
24,0,5,2,3,2,-2,34,72,test_exp,untrained,0,,,,,,,,,,,,,,,,,,,,,0,23,23,23,0,0,0,0,,,,,,,,,,,,,,,,,,,,,,,,,,,,,,,stimuli/alien_stimuli/34.png,97.1419373000972,97.1419373000972,97.1419373000972,97.1419373000972,97.1419373000972,0,0,return,0.3955062001477927,1,0,0,-0.16,0,return,0.2890860999468714,,,,,,,,,,,A,train_y,red_square,top_left,2024-11-07_15h54.29.957,HideSeek_v1,2022.2.5,59.88170967623394,
24,0,5,2,3,2,-2,34,72,test_exp,untrained,0,,,,,,,,,,,,,,,,,,,,,0,23,23,23,,,,,,,,,,,,,,,,,,,,,,,,,,,,,,,,,,,,,,,,,,,,,,,,,,,,97.47627530014142,98.57563069998287,stimuli/alien_stimuli/14.png,14,2,24,,,,,A,train_y,red_square,top_left,2024-11-07_15h54.29.957,HideSeek_v1,2022.2.5,59.88170967623394,
25,0,7,5,7,5,0,66,72,test_exp,train_1D_sec_repeat,0,,,,,,,,,,,,,,,,,,,,,0,24,24,24,0,0,0,0,,,,,,,,,,,,,,,,,,,,,,,,,,,,,,,stimuli/alien_stimuli/66.png,98.57563069998287,98.57563069998287,98.57563069998287,98.57563069998287,98.57563069998287,0,0,return,0.4281553002074361,1,0,0,-0.16,0.16,return,0.3008677000179887,,,,,,,,,,,A,train_y,red_square,top_left,2024-11-07_15h54.29.957,HideSeek_v1,2022.2.5,59.88170967623394,
25,0,7,5,7,5,0,66,72,test_exp,train_1D_sec_repeat,0,,,,,,,,,,,,,,,,,,,,,0,24,24,24,,,,,,,,,,,,,,,,,,,,,,,,,,,,,,,,,,,,,,,,,,,,,,,,,,,,98.92515240004286,100.00894369999878,stimuli/alien_stimuli/14.png,14,2,25,,,,,A,train_y,red_square,top_left,2024-11-07_15h54.29.957,HideSeek_v1,2022.2.5,59.88170967623394,
26,0,8,0,3,0,-5,11,72,test_exp,train_1D_first_new,0,,,,,,,,,,,,,,,,,,,,,0,25,25,25,0,0,0,0,,,,,,,,,,,,,,,,,,,,,,,,,,,,,,,stimuli/alien_stimuli/11.png,100.00894369999878,100.00894369999878,100.00894369999878,100.00894369999878,100.00894369999878,0,0,return,0.7465571998618543,1,0,0,-0.16,0.24,return,0.6433896999806166,,,,,,,,,,,A,train_y,red_square,top_left,2024-11-07_15h54.29.957,HideSeek_v1,2022.2.5,59.88170967623394,
26,0,8,0,3,0,-5,11,72,test_exp,train_1D_first_new,0,,,,,,,,,,,,,,,,,,,,,0,25,25,25,,,,,,,,,,,,,,,,,,,,,,,,,,,,,,,,,,,,,,,,,,,,,,,,,,,,100.691718300106,101.7756403000094,stimuli/alien_stimuli/14.png,14,2,26,,,,,A,train_y,red_square,top_left,2024-11-07_15h54.29.957,HideSeek_v1,2022.2.5,59.88170967623394,
27,1,5,2,2,1,-3,23,72,test_exp,untrained,0,,,,,,,,,,,,,,,,,,,,,0,26,26,26,0,0,0,0,,,,,,,,,,,,,,,,,,,,,,,,,,,,,,,stimuli/alien_stimuli/23.png,101.7756403000094,101.7756403000094,101.7756403000094,101.7756403000094,101.7756403000094,0,0,return,0.36256930022500455,1,0,0,-0.08,0,return,0.26220820005983114,,,,,,,,,,,A,train_y,red_square,top_left,2024-11-07_15h54.29.957,HideSeek_v1,2022.2.5,59.88170967623394,
27,1,5,2,2,1,-3,23,72,test_exp,untrained,0,,,,,,,,,,,,,,,,,,,,,0,26,26,26,,,,,,,,,,,,,,,,,,,,,,,,,,,,,,,,,,,,,,,,,,,,,,,,,,,,102.07523850002326,103.17585550015792,stimuli/alien_stimuli/14.png,14,2,27,,,,,A,train_y,red_square,top_left,2024-11-07_15h54.29.957,HideSeek_v1,2022.2.5,59.88170967623394,
28,4,7,7,2,3,-5,41,72,test_exp,untrained,0,,,,,,,,,,,,,,,,,,,,,0,27,27,27,0,0,0,0,,,,,,,,,,,,,,,,,,,,,,,,,,,,,,,stimuli/alien_stimuli/41.png,103.17585550015792,103.17585550015792,103.17585550015792,103.17585550015792,103.17585550015792,0,0,return,0.3460878999903798,1,0,0,0.16,0.16,return,0.2258518000598997,,,,,,,,,,,A,train_y,red_square,top_left,2024-11-07_15h54.29.957,HideSeek_v1,2022.2.5,59.88170967623394,
28,4,7,7,2,3,-5,41,72,test_exp,untrained,0,,,,,,,,,,,,,,,,,,,,,0,27,27,27,,,,,,,,,,,,,,,,,,,,,,,,,,,,,,,,,,,,,,,,,,,,,,,,,,,,103.44195700017735,104.52371790003963,stimuli/alien_stimuli/14.png,14,2,28,,,,,A,train_y,red_square,top_left,2024-11-07_15h54.29.957,HideSeek_v1,2022.2.5,59.88170967623394,
29,3,6,4,4,1,-2,24,72,test_exp,untrained,0,,,,,,,,,,,,,,,,,,,,,0,28,28,28,0,0,0,0,,,,,,,,,,,,,,,,,,,,,,,,,,,,,,,stimuli/alien_stimuli/24.png,104.52371790003963,104.52371790003963,104.52371790003963,104.52371790003963,104.52371790003963,0,0,return,0.34631439996883273,1,0,0,0.08,0.08,return,0.2458826000802219,,,,,,,,,,,A,train_y,red_square,top_left,2024-11-07_15h54.29.957,HideSeek_v1,2022.2.5,59.88170967623394,
29,3,6,4,4,1,-2,24,72,test_exp,untrained,0,,,,,,,,,,,,,,,,,,,,,0,28,28,28,,,,,,,,,,,,,,,,,,,,,,,,,,,,,,,,,,,,,,,,,,,,,,,,,,,,104.80860310001299,105.86184260016307,stimuli/alien_stimuli/14.png,14,2,29,,,,,A,train_y,red_square,top_left,2024-11-07_15h54.29.957,HideSeek_v1,2022.2.5,59.88170967623394,
30,4,5,5,1,1,-4,22,72,test_exp,untrained,0,,,,,,,,,,,,,,,,,,,,,0,29,29,29,0,0,0,0,,,,,,,,,,,,,,,,,,,,,,,,,,,,,,,stimuli/alien_stimuli/22.png,105.86184260016307,105.86184260016307,105.86184260016307,105.86184260016307,105.86184260016307,0,0,return,0.29632179997861385,1,0,0,0.16,0,return,0.2285498999990523,,,,,,,,,,,A,train_y,red_square,top_left,2024-11-07_15h54.29.957,HideSeek_v1,2022.2.5,59.88170967623394,
30,4,5,5,1,1,-4,22,72,test_exp,untrained,0,,,,,,,,,,,,,,,,,,,,,0,29,29,29,,,,,,,,,,,,,,,,,,,,,,,,,,,,,,,,,,,,,,,,,,,,,,,,,,,,106.12515400000848,107.29252720018849,stimuli/alien_stimuli/14.png,14,2,30,,,,,A,train_y,red_square,top_left,2024-11-07_15h54.29.957,HideSeek_v1,2022.2.5,59.88170967623394,
31,0,7,4,6,4,-1,55,72,test_exp,untrained,0,,,,,,,,,,,,,,,,,,,,,0,30,30,30,0,0,0,0,,,,,,,,,,,,,,,,,,,,,,,,,,,,,,,stimuli/alien_stimuli/55.png,107.29252720018849,107.29252720018849,107.29252720018849,107.29252720018849,107.29252720018849,0,0,return,0.472455499926582,1,0,0,-0.16,0.16,return,0.3752935000229627,,,,,,,,,,,A,train_y,red_square,top_left,2024-11-07_15h54.29.957,HideSeek_v1,2022.2.5,59.88170967623394,
31,0,7,4,6,4,-1,55,72,test_exp,untrained,0,,,,,,,,,,,,,,,,,,,,,0,30,30,30,,,,,,,,,,,,,,,,,,,,,,,,,,,,,,,,,,,,,,,,,,,,,,,,,,,,107.70840490004048,108.80899090017192,stimuli/alien_stimuli/14.png,14,2,31,,,,,A,train_y,red_square,top_left,2024-11-07_15h54.29.957,HideSeek_v1,2022.2.5,59.88170967623394,
32,4,8,9,7,5,-1,65,72,test_exp,train_2D_repeat,0,,,,,,,,,,,,,,,,,,,,,0,31,31,31,0,0,0,0,,,,,,,,,,,,,,,,,,,,,,,,,,,,,,,stimuli/alien_stimuli/65.png,108.80899090017192,108.80899090017192,108.80899090017192,108.80899090017192,108.80899090017192,0,0,return,0.3785081999376416,1,0,0,0.16,0.24,return,0.2566994000226259,,,,,,,,,,,A,train_y,red_square,top_left,2024-11-07_15h54.29.957,HideSeek_v1,2022.2.5,59.88170967623394,
32,4,8,9,7,5,-1,65,72,test_exp,train_2D_repeat,0,,,,,,,,,,,,,,,,,,,,,0,31,31,31,,,,,,,,,,,,,,,,,,,,,,,,,,,,,,,,,,,,,,,,,,,,,,,,,,,,109.10877529997379,110.19232290005311,stimuli/alien_stimuli/14.png,14,2,32,,,,,A,train_y,red_square,top_left,2024-11-07_15h54.29.957,HideSeek_v1,2022.2.5,59.88170967623394,
33,0,9,3,7,3,-2,44,72,test_exp,untrained,0,,,,,,,,,,,,,,,,,,,,,0,32,32,32,0,0,0,0,,,,,,,,,,,,,,,,,,,,,,,,,,,,,,,stimuli/alien_stimuli/44.png,110.19232290005311,110.19232290005311,110.19232290005311,110.19232290005311,110.19232290005311,0,0,return,0.3792039002291858,1,0,0,-0.16,0.32,return,0.2686568000353873,,,,,,,,,,,A,train_y,red_square,top_left,2024-11-07_15h54.29.957,HideSeek_v1,2022.2.5,59.88170967623394,
33,0,9,3,7,3,-2,44,72,test_exp,untrained,0,,,,,,,,,,,,,,,,,,,,,0,32,32,32,,,,,,,,,,,,,,,,,,,,,,,,,,,,,,,,,,,,,,,,,,,,,,,,,,,,110.50846170005389,111.59177150018513,stimuli/alien_stimuli/14.png,14,2,33,,,,,A,train_y,red_square,top_left,2024-11-07_15h54.29.957,HideSeek_v1,2022.2.5,59.88170967623394,
34,2,5,6,5,4,0,56,72,test_exp,train_1D_sec_new,0,,,,,,,,,,,,,,,,,,,,,0,33,33,33,0,0,0,0,,,,,,,,,,,,,,,,,,,,,,,,,,,,,,,stimuli/alien_stimuli/56.png,111.59177150018513,111.59177150018513,111.59177150018513,111.59177150018513,111.59177150018513,0,0,return,0.3303830998484045,1,0,0,0,0,return,0.23005120013840497,,,,,,,,,,,A,train_y,red_square,top_left,2024-11-07_15h54.29.957,HideSeek_v1,2022.2.5,59.88170967623394,
34,2,5,6,5,4,0,56,72,test_exp,train_1D_sec_new,0,,,,,,,,,,,,,,,,,,,,,0,33,33,33,,,,,,,,,,,,,,,,,,,,,,,,,,,,,,,,,,,,,,,,,,,,,,,,,,,,111.85827379999682,112.9415059001185,stimuli/alien_stimuli/14.png,14,2,34,,,,,A,train_y,red_square,top_left,2024-11-07_15h54.29.957,HideSeek_v1,2022.2.5,59.88170967623394,
35,2,8,4,8,2,0,36,72,test_exp,train_1D_sec_new,0,,,,,,,,,,,,,,,,,,,,,0,34,34,34,0,0,0,0,,,,,,,,,,,,,,,,,,,,,,,,,,,,,,,stimuli/alien_stimuli/36.png,112.9415059001185,112.9415059001185,112.9415059001185,112.9415059001185,112.9415059001185,0,0,return,0.29511449998244643,1,0,0,0,0.24,return,0.18442489998415112,,,,,,,,,,,A,train_y,red_square,top_left,2024-11-07_15h54.29.957,HideSeek_v1,2022.2.5,59.88170967623394,
35,2,8,4,8,2,0,36,72,test_exp,train_1D_sec_new,0,,,,,,,,,,,,,,,,,,,,,0,34,34,34,,,,,,,,,,,,,,,,,,,,,,,,,,,,,,,,,,,,,,,,,,,,,,,,,,,,113.1748615000397,114.22693930007517,stimuli/alien_stimuli/14.png,14,2,35,,,,,A,train_y,red_square,top_left,2024-11-07_15h54.29.957,HideSeek_v1,2022.2.5,59.88170967623394,
36,3,9,5,6,2,-3,33,72,test_exp,untrained,1,,,,,,,,,,,,,,,,,,,,,0,35,35,35,0,0,0,0,,,,,,,,,,,,,,,,,,,,,,,,,,,,,,,stimuli/alien_stimuli/33.png,114.22693930007517,114.22693930007517,114.22693930007517,114.22693930007517,114.22693930007517,0,0,return,0.37981060007587075,1,0,0,0.08,0.32,return,0.3032379001379013,,,,,,,,,,,A,train_y,red_square,top_left,2024-11-07_15h54.29.957,HideSeek_v1,2022.2.5,59.88170967623394,
1,2,9,2,7,0,-2,14,72,test_exp,train_1D_first_new,0,,,,,,,,,,,,,,,,,,,,,0,35,35,35,,,,,0,0,0,0,,,,,,,,,,,,,,,,,,,,,,,,,,,,,,,,,,,,,,,,,,,,114.5754273000639,115.59229960013181,,,,,115.59229960013181,115.59229960013181,space,1.3521398999728262,A,train_y,red_square,top_left,2024-11-07_15h54.29.957,HideSeek_v1,2022.2.5,59.88170967623394,
2,4,6,7,2,3,-4,42,72,test_exp,untrained,0,,,,,,,,,,,,,,,,,,,,,0,35,35,35,,,,,0,1,1,1,,,,,,,,,,,,,,,,,,,,,,,,,,,,,,,,,,,,,,,,,,,,,,,,,,116.97513630008325,116.97513630008325,space,2.9723574998788536,A,train_y,red_square,top_left,2024-11-07_15h54.29.957,HideSeek_v1,2022.2.5,59.88170967623394,
3,1,6,4,5,3,-1,45,72,test_exp,untrained,0,,,,,,,,,,,,,,,,,,,,,0,35,35,35,,,,,0,2,2,2,,,,,,,,,,,,,,,,,,,,,,,,,,,,,,,,,,,,,,,,,,,,,,,,,,119.97496290015988,119.97496290015988,space,0.17731239995919168,A,train_y,red_square,top_left,2024-11-07_15h54.29.957,HideSeek_v1,2022.2.5,59.88170967623394,
4,0,5,0,4,0,-1,15,72,test_exp,train_1D_first_repeat,0,,,,,,,,,,,,,,,,,,,,,0,35,35,35,,,,,0,3,3,3,,,,,,,,,,,,,,,,,,,,,,,,,,,,,,,,,,,,,,,,,,,,,,,,,,120.17525500012562,120.17525500012562,space,0.15390799986198545,A,train_y,red_square,top_left,2024-11-07_15h54.29.957,HideSeek_v1,2022.2.5,59.88170967623394,
5,4,9,9,4,5,-5,61,72,test_exp,untrained,0,,,,,,,,,,,,,,,,,,,,,0,35,35,35,,,,,0,4,4,4,,,,,,,,,,,,,,,,,,,,,,,,,,,,,,,,,,,,,,,,,,,,,,,,,,120.35853229998611,120.35853229998611,space,0.1641104998998344,A,train_y,red_square,top_left,2024-11-07_15h54.29.957,HideSeek_v1,2022.2.5,59.88170967623394,
6,0,7,5,4,5,-3,63,72,test_exp,untrained,0,,,,,,,,,,,,,,,,,,,,,0,35,35,35,,,,,0,5,5,5,,,,,,,,,,,,,,,,,,,,,,,,,,,,,,,,,,,,,,,,,,,,,,,,,,120.54305830015801,120.54305830015801,space,0.17870429996401072,A,train_y,red_square,top_left,2024-11-07_15h54.29.957,HideSeek_v1,2022.2.5,59.88170967623394,
7,4,5,6,0,2,-5,31,72,test_exp,untrained,0,,,,,,,,,,,,,,,,,,,,,0,35,35,35,,,,,0,6,6,6,,,,,,,,,,,,,,,,,,,,,,,,,,,,,,,,,,,,,,,,,,,,,,,,,,120.74160140007734,120.74160140007734,space,0.19308999995701015,A,train_y,red_square,top_left,2024-11-07_15h54.29.957,HideSeek_v1,2022.2.5,59.88170967623394,
8,2,6,5,3,3,-3,43,72,test_exp,train_2D_repeat,0,,,,,,,,,,,,,,,,,,,,,0,35,35,35,,,,,0,7,7,7,,,,,,,,,,,,,,,,,,,,,,,,,,,,,,,,,,,,,,,,,,,,,,,,,,120.95872140000574,120.95872140000574,space,0.17986429994925857,A,train_y,red_square,top_left,2024-11-07_15h54.29.957,HideSeek_v1,2022.2.5,59.88170967623394,
9,4,8,8,3,4,-5,51,72,test_exp,untrained,0,,,,,,,,,,,,,,,,,,,,,0,35,35,35,,,,,0,8,8,8,,,,,,,,,,,,,,,,,,,,,,,,,,,,,,,,,,,,,,,,,,,,,,,,,,121.15833810018376,121.15833810018376,space,0.20626090001314878,A,train_y,red_square,top_left,2024-11-07_15h54.29.957,HideSeek_v1,2022.2.5,59.88170967623394,
10,1,5,2,0,1,-5,21,72,test_exp,train_2D_repeat,0,,,,,,,,,,,,,,,,,,,,,0,35,35,35,,,,,0,9,9,9,,,,,,,,,,,,,,,,,,,,,,,,,,,,,,,,,,,,,,,,,,,,,,,,,,121.39170820009895,121.39170820009895,space,0.1666422002017498,A,train_y,red_square,top_left,2024-11-07_15h54.29.957,HideSeek_v1,2022.2.5,59.88170967623394,
11,3,5,7,3,4,-2,54,72,test_exp,train_2D_repeat,0,,,,,,,,,,,,,,,,,,,,,0,35,35,35,,,,,0,10,10,10,,,,,,,,,,,,,,,,,,,,,,,,,,,,,,,,,,,,,,,,,,,,,,,,,,121.57507150014862,121.57507150014862,space,0.19198350002989173,A,train_y,red_square,top_left,2024-11-07_15h54.29.957,HideSeek_v1,2022.2.5,59.88170967623394,
12,2,8,3,8,1,0,26,72,test_exp,train_1D_sec_new,0,,,,,,,,,,,,,,,,,,,,,0,35,35,35,,,,,0,11,11,11,,,,,,,,,,,,,,,,,,,,,,,,,,,,,,,,,,,,,,,,,,,,,,,,,,121.7915533001069,121.7915533001069,space,0.2016173000447452,A,train_y,red_square,top_left,2024-11-07_15h54.29.957,HideSeek_v1,2022.2.5,59.88170967623394,
13,1,7,1,3,0,-4,12,72,test_exp,train_1D_first_new,0,,,,,,,,,,,,,,,,,,,,,0,35,35,35,,,,,0,12,12,12,,,,,,,,,,,,,,,,,,,,,,,,,,,,,,,,,,,,,,,,,,,,,,,,,,122.0249793000985,122.0249793000985,space,0.18535490008071065,A,train_y,red_square,top_left,2024-11-07_15h54.29.957,HideSeek_v1,2022.2.5,59.88170967623394,
14,2,8,5,8,3,0,46,72,test_exp,untrained_1D_sec_leftout,0,,,,,,,,,,,,,,,,,,,,,0,35,35,35,,,,,0,13,13,13,,,,,,,,,,,,,,,,,,,,,,,,,,,,,,,,,,,,,,,,,,,,,,,,,,122.24146670009941,122.24146670009941,space,0.1819074999075383,A,train_y,red_square,top_left,2024-11-07_15h54.29.957,HideSeek_v1,2022.2.5,59.88170967623394,
15,2,9,2,9,0,0,16,72,test_exp,train_1D_sec_repeat,0,,,,,,,,,,,,,,,,,,,,,0,35,35,35,,,,,0,14,14,14,,,,,,,,,,,,,,,,,,,,,,,,,,,,,,,,,,,,,,,,,,,,,,,,,,122.44182740012184,122.44182740012184,space,0.1982445998582989,A,train_y,red_square,top_left,2024-11-07_15h54.29.957,HideSeek_v1,2022.2.5,59.88170967623394,
16,1,9,3,8,2,-1,35,72,test_exp,untrained,0,,,,,,,,,,,,,,,,,,,,,0,35,35,35,,,,,0,15,15,15,,,,,,,,,,,,,,,,,,,,,,,,,,,,,,,,,,,,,,,,,,,,,,,,,,122.65827170014381,122.65827170014381,space,0.1884049999061972,A,train_y,red_square,top_left,2024-11-07_15h54.29.957,HideSeek_v1,2022.2.5,59.88170967623394,
17,3,7,8,3,5,-4,62,72,test_exp,untrained,0,,,,,,,,,,,,,,,,,,,,,0,35,35,35,,,,,0,16,16,16,,,,,,,,,,,,,,,,,,,,,,,,,,,,,,,,,,,,,,,,,,,,,,,,,,122.87470889999531,122.87470889999531,space,0.1911490000784397,A,train_y,red_square,top_left,2024-11-07_15h54.29.957,HideSeek_v1,2022.2.5,59.88170967623394,
18,3,9,7,5,4,-4,52,72,test_exp,untrained,1,,,,,,,,,,,,,,,,,,,,,0,35,35,35,,,,,0,17,17,17,,,,,,,,,,,,,,,,,,,,,,,,,,,,,,,,,,,,,,,,,,,,,,,,,,123.09204900008626,123.09204900008626,space,0.20619090017862618,A,train_y,red_square,top_left,2024-11-07_15h54.29.957,HideSeek_v1,2022.2.5,59.88170967623394,
19,2,5,7,3,5,-2,64,72,test_exp,untrained,0,,,,,,,,,,,,,,,,,,,,,0,35,35,35,,,,,0,18,18,18,,,,,,,,,,,,,,,,,,,,,,,,,,,,,,,,,,,,,,,,,,,,,,,,,,123.32458220003173,123.32458220003173,space,0.4778122999705374,A,train_y,red_square,top_left,2024-11-07_15h54.29.957,HideSeek_v1,2022.2.5,59.88170967623394,
20,3,8,3,5,0,-3,13,72,test_exp,untrained_1D_first_leftout,0,,,,,,,,,,,,,,,,,,,,,0,35,35,35,,,,,0,19,19,19,,,,,,,,,,,,,,,,,,,,,,,,,,,,,,,,,,,,,,,,,,,,,,,,,,123.82519870018587,123.82519870018587,space,0.17428559996187687,A,train_y,red_square,top_left,2024-11-07_15h54.29.957,HideSeek_v1,2022.2.5,59.88170967623394,
21,3,5,4,4,1,-1,25,72,test_exp,untrained,0,,,,,,,,,,,,,,,,,,,,,0,35,35,35,,,,,0,20,20,20,,,,,,,,,,,,,,,,,,,,,,,,,,,,,,,,,,,,,,,,,,,,,,,,,,124.02483790018596,124.02483790018596,space,0.16965409996919334,A,train_y,red_square,top_left,2024-11-07_15h54.29.957,HideSeek_v1,2022.2.5,59.88170967623394,
22,1,5,3,1,2,-4,32,72,test_exp,train_2D_new,0,,,,,,,,,,,,,,,,,,,,,0,35,35,35,,,,,0,21,21,21,,,,,,,,,,,,,,,,,,,,,,,,,,,,,,,,,,,,,,,,,,,,,,,,,,124.22504699998535,124.22504699998535,space,0.14320040005259216,A,train_y,red_square,top_left,2024-11-07_15h54.29.957,HideSeek_v1,2022.2.5,59.88170967623394,
23,1,8,5,5,4,-3,53,72,test_exp,untrained,0,,,,,,,,,,,,,,,,,,,,,0,35,35,35,,,,,0,22,22,22,,,,,,,,,,,,,,,,,,,,,,,,,,,,,,,,,,,,,,,,,,,,,,,,,,124.391563200159,124.391563200159,space,0.13458449998870492,A,train_y,red_square,top_left,2024-11-07_15h54.29.957,HideSeek_v1,2022.2.5,59.88170967623394,
24,0,5,2,3,2,-2,34,72,test_exp,untrained,0,,,,,,,,,,,,,,,,,,,,,0,35,35,35,,,,,0,23,23,23,,,,,,,,,,,,,,,,,,,,,,,,,,,,,,,,,,,,,,,,,,,,,,,,,,124.55875049997121,124.55875049997121,space,0.11361590004526079,A,train_y,red_square,top_left,2024-11-07_15h54.29.957,HideSeek_v1,2022.2.5,59.88170967623394,
25,0,7,5,7,5,0,66,72,test_exp,train_1D_sec_repeat,0,,,,,,,,,,,,,,,,,,,,,0,35,35,35,,,,,0,24,24,24,,,,,,,,,,,,,,,,,,,,,,,,,,,,,,,,,,,,,,,,,,,,,,,,,,124.69208000018261,124.69208000018261,space,0.12559189996682107,A,train_y,red_square,top_left,2024-11-07_15h54.29.957,HideSeek_v1,2022.2.5,59.88170967623394,
26,0,8,0,3,0,-5,11,72,test_exp,train_1D_first_new,0,,,,,,,,,,,,,,,,,,,,,0,35,35,35,,,,,0,25,25,25,,,,,,,,,,,,,,,,,,,,,,,,,,,,,,,,,,,,,,,,,,,,,,,,,,124.84158460004255,124.84158460004255,space,0.12351529998704791,A,train_y,red_square,top_left,2024-11-07_15h54.29.957,HideSeek_v1,2022.2.5,59.88170967623394,
27,1,5,2,2,1,-3,23,72,test_exp,untrained,0,,,,,,,,,,,,,,,,,,,,,0,35,35,35,,,,,0,26,26,26,,,,,,,,,,,,,,,,,,,,,,,,,,,,,,,,,,,,,,,,,,,,,,,,,,124.99174720002338,124.99174720002338,space,0.14090590015985072,A,train_y,red_square,top_left,2024-11-07_15h54.29.957,HideSeek_v1,2022.2.5,59.88170967623394,
28,4,7,7,2,3,-5,41,72,test_exp,untrained,0,,,,,,,,,,,,,,,,,,,,,0,35,35,35,,,,,0,27,27,27,,,,,,,,,,,,,,,,,,,,,,,,,,,,,,,,,,,,,,,,,,,,,,,,,,125.15813380014151,125.15813380014151,space,0.1324301001150161,A,train_y,red_square,top_left,2024-11-07_15h54.29.957,HideSeek_v1,2022.2.5,59.88170967623394,
29,3,6,4,4,1,-2,24,72,test_exp,untrained,0,,,,,,,,,,,,,,,,,,,,,0,35,35,35,,,,,0,28,28,28,,,,,,,,,,,,,,,,,,,,,,,,,,,,,,,,,,,,,,,,,,,,,,,,,,125.30841890000738,125.30841890000738,space,0.12081420002505183,A,train_y,red_square,top_left,2024-11-07_15h54.29.957,HideSeek_v1,2022.2.5,59.88170967623394,
30,4,5,5,1,1,-4,22,72,test_exp,untrained,0,,,,,,,,,,,,,,,,,,,,,0,35,35,35,,,,,0,29,29,29,,,,,,,,,,,,,,,,,,,,,,,,,,,,,,,,,,,,,,,,,,,,,,,,,,125.45847120019607,125.45847120019607,space,0.088937200140208,A,train_y,red_square,top_left,2024-11-07_15h54.29.957,HideSeek_v1,2022.2.5,59.88170967623394,
31,0,7,4,6,4,-1,55,72,test_exp,untrained,0,,,,,,,,,,,,,,,,,,,,,0,35,35,35,,,,,0,30,30,30,,,,,,,,,,,,,,,,,,,,,,,,,,,,,,,,,,,,,,,,,,,,,,,,,,125.57514390000142,125.57514390000142,space,0.07754289987497032,A,train_y,red_square,top_left,2024-11-07_15h54.29.957,HideSeek_v1,2022.2.5,59.88170967623394,
32,4,8,9,7,5,-1,65,72,test_exp,train_2D_repeat,0,,,,,,,,,,,,,,,,,,,,,0,35,35,35,,,,,0,31,31,31,,,,,,,,,,,,,,,,,,,,,,,,,,,,,,,,,,,,,,,,,,,,,,,,,,125.67506350018084,125.67506350018084,space,0.09049970004707575,A,train_y,red_square,top_left,2024-11-07_15h54.29.957,HideSeek_v1,2022.2.5,59.88170967623394,
33,0,9,3,7,3,-2,44,72,test_exp,untrained,0,,,,,,,,,,,,,,,,,,,,,0,35,35,35,,,,,0,32,32,32,,,,,,,,,,,,,,,,,,,,,,,,,,,,,,,,,,,,,,,,,,,,,,,,,,125.79134740005247,125.79134740005247,space,0.10681140003725886,A,train_y,red_square,top_left,2024-11-07_15h54.29.957,HideSeek_v1,2022.2.5,59.88170967623394,
34,2,5,6,5,4,0,56,72,test_exp,train_1D_sec_new,0,,,,,,,,,,,,,,,,,,,,,0,35,35,35,,,,,0,33,33,33,,,,,,,,,,,,,,,,,,,,,,,,,,,,,,,,,,,,,,,,,,,,,,,,,,125.9252866001334,125.9252866001334,space,0.4599517001770437,A,train_y,red_square,top_left,2024-11-07_15h54.29.957,HideSeek_v1,2022.2.5,59.88170967623394,
35,2,8,4,8,2,0,36,72,test_exp,train_1D_sec_new,0,,,,,,,,,,,,,,,,,,,,,0,35,35,35,,,,,0,34,34,34,,,,,,,,,,,,,,,,,,,,,,,,,,,,,,,,,,,,,,,,,,,,,,,,,,126.40834830002859,126.40834830002859,space,0.1340892999432981,A,train_y,red_square,top_left,2024-11-07_15h54.29.957,HideSeek_v1,2022.2.5,59.88170967623394,
36,3,9,5,6,2,-3,33,72,test_exp,untrained,1,,,,,,,,,,,,,,,,,,,,,0,35,35,35,,,,,0,35,35,35,,,,,,,,,,,,,,,,,,,,,,,,,,,,,,,,,,,,,,,,,,,,,,,,,,126.57501680008136,126.57501680008136,space,0.10188829991966486,A,train_y,red_square,top_left,2024-11-07_15h54.29.957,HideSeek_v1,2022.2.5,59.88170967623394,
37,2,8,2,6,0,-2,14,72,test_exp,train_1D_first_repeat,0,,,,,,,,,,,,,,,,,,,,,0,35,35,35,,,,,0,36,36,36,,,,,,,,,,,,,,,,,,,,,,,,,,,,,,,,,,,,,,,,,,,,,,,,,,126.7081051999703,126.7081051999703,space,0.11399250011891127,A,train_y,red_square,top_left,2024-11-07_15h54.29.957,HideSeek_v1,2022.2.5,59.88170967623394,
38,0,6,5,6,5,0,66,72,test_exp,train_1D_sec_new,0,,,,,,,,,,,,,,,,,,,,,0,35,35,35,,,,,0,37,37,37,,,,,,,,,,,,,,,,,,,,,,,,,,,,,,,,,,,,,,,,,,,,,,,,,,126.84153450001031,126.84153450001031,space,0.10111530008725822,A,train_y,red_square,top_left,2024-11-07_15h54.29.957,HideSeek_v1,2022.2.5,59.88170967623394,
39,1,6,5,3,4,-3,53,72,test_exp,untrained,0,,,,,,,,,,,,,,,,,,,,,0,35,35,35,,,,,0,38,38,38,,,,,,,,,,,,,,,,,,,,,,,,,,,,,,,,,,,,,,,,,,,,,,,,,,126.97544459998608,126.97544459998608,space,0.10401790007017553,A,train_y,red_square,top_left,2024-11-07_15h54.29.957,HideSeek_v1,2022.2.5,59.88170967623394,
40,1,7,3,6,2,-1,35,72,test_exp,untrained,0,,,,,,,,,,,,,,,,,,,,,0,35,35,35,,,,,0,39,39,39,,,,,,,,,,,,,,,,,,,,,,,,,,,,,,,,,,,,,,,,,,,,,,,,,,127.10863030003384,127.10863030003384,space,1.6527988000307232,A,train_y,red_square,top_left,2024-11-07_15h54.29.957,HideSeek_v1,2022.2.5,59.88170967623394,
41,3,5,6,5,3,0,46,72,test_exp,untrained_1D_sec_leftout,0,,,,,,,,,,,,,,,,,,,,,0,35,35,35,,,,,0,40,40,40,,,,,,,,,,,,,,,,,,,,,,,,,,,,,,,,,,,,,,,,,,,,,,,,,,128.7918705001939,128.7918705001939,space,0.12681009992957115,A,train_y,red_square,top_left,2024-11-07_15h54.29.957,HideSeek_v1,2022.2.5,59.88170967623394,
42,2,7,3,3,1,-4,22,72,test_exp,untrained,0,,,,,,,,,,,,,,,,,,,,,0,35,35,35,,,,,0,41,41,41,,,,,,,,,,,,,,,,,,,,,,,,,,,,,,,,,,,,,,,,,,,,,,,,,,128.94153439998627,128.94153439998627,space,0.1087399001698941,A,train_y,red_square,top_left,2024-11-07_15h54.29.957,HideSeek_v1,2022.2.5,59.88170967623394,
43,3,8,7,8,4,0,56,72,test_exp,train_1D_sec_repeat,0,,,,,,,,,,,,,,,,,,,,,0,35,35,35,,,,,0,42,42,42,,,,,,,,,,,,,,,,,,,,,,,,,,,,,,,,,,,,,,,,,,,,,,,,,,129.0747454999946,129.0747454999946,space,0.11493529984727502,A,train_y,red_square,top_left,2024-11-07_15h54.29.957,HideSeek_v1,2022.2.5,59.88170967623394,
44,3,7,3,7,0,0,16,72,test_exp,train_1D_sec_new,0,,,,,,,,,,,,,,,,,,,,,0,35,35,35,,,,,0,43,43,43,,,,,,,,,,,,,,,,,,,,,,,,,,,,,,,,,,,,,,,,,,,,,,,,,,129.20797730004415,129.20797730004415,space,0.11715529998764396,A,train_y,red_square,top_left,2024-11-07_15h54.29.957,HideSeek_v1,2022.2.5,59.88170967623394,
45,0,5,4,3,4,-2,54,72,test_exp,train_2D_new,0,,,,,,,,,,,,,,,,,,,,,0,35,35,35,,,,,0,44,44,44,,,,,,,,,,,,,,,,,,,,,,,,,,,,,,,,,,,,,,,,,,,,,,,,,,129.34191060019657,129.34191060019657,space,0.15046319994144142,A,train_y,red_square,top_left,2024-11-07_15h54.29.957,HideSeek_v1,2022.2.5,59.88170967623394,
,,,,,,,,,,,,,,,,,,,,,,,,,,,,,,,,,,,,,,,,,,,,,,,,,,,,,,,,,,,,,,,,,,,,,,,,,,,,,,,,,,,,,,,,,,,,,129.5252807000652,129.5252807000652,,,,,,,,,,,
