trialTrain,x_fixStart,y_fixStart,x_corrSteps,y_corrSteps,x_nrSteps,y_nrSteps,alienID,testlen,version,trial_label,break_on_off,beforeExpLoop.thisRepN,beforeExpLoop.thisTrialN,beforeExpLoop.thisN,beforeExpLoop.thisIndex,mini_instr_trials.thisRepN,mini_instr_trials.thisTrialN,mini_instr_trials.thisN,mini_instr_trials.thisIndex,instrLoop.thisRepN,instrLoop.thisTrialN,instrLoop.thisN,instrLoop.thisIndex,repeat_prac.thisRepN,repeat_prac.thisTrialN,repeat_prac.thisN,repeat_prac.thisIndex,trainLoop.thisRepN,trainLoop.thisTrialN,trainLoop.thisN,trainLoop.thisIndex,experiment.thisRepN,experiment.thisTrialN,experiment.thisN,experiment.thisIndex,moveLoop_test.thisRepN,moveLoop_test.thisTrialN,moveLoop_test.thisN,moveLoop_test.thisIndex,breaks.thisRepN,breaks.thisTrialN,breaks.thisN,breaks.thisIndex,start_all_time,url,slideStim,audioStim,slides.started,sounds.started,nextButton.numClicks,nextButton.timesOn,nextButton.timesOff,prev_but.numClicks,prev_but.timesOn,prev_but.timesOff,perfthres,percthres,earlierperf,earlystop,nextPrac,fileidx,praclen,saveACC_train,pracFile,nextPrac_train,addNrep,fileidx_endr,repExp,showearly,alienStim,gridImage_3.started,alienImage_test.started,startPos_test.started,movePos_test.started,key_resp_test.started,wLy_dir_test,wLx_dir_test,buttonPress_test,RTchoice_test,cumAcctest,saveACC_choice,corrAns_test,x_movePos_end,y_movePos_end,key_resp_test.keys,key_resp_test.rt,fixation_text.started,fixation_text.stopped,draw_alienStim,draw_alienID,test_x,nrepcount,image_break_3.started,key_resp_7.started,key_resp_7.keys,key_resp_7.rt,participant,train_first,00_coordinate,starting corner,date,expName,psychopyVersion,frameRate,
,,,,,,,,,,,,0,0,0,0,0,0,0,0,,,,,,,,,,,,,,,,,,,,,,,,,start_all_time,testround,conditions/schedules/train_y_first/red_square_00/top_left/instructions/Slide1.png,conditions/schedules/train_y_first/red_square_00/top_left/instructions/Audio1.wav,38.59165380010381,38.54277179716155,1,[8.400029599899426],[8.400042199995369],0,,,,,,,,,,,,,,,,,,,,,,,,,,,,,,,,,,,,,,,,,,,,A,train_y,red_square,top_left,2024-11-07_15h39.51.238,HideSeek_v1,2022.2.5,60.066192973183675,
,,,,,,,,,,,,0,0,0,0,1,0,1,0,,,,,,,,,,,,,,,,,,,,,,,,,,,conditions/schedules/train_y_first/red_square_00/top_left/instructions/Slide2.png,conditions/schedules/train_y_first/red_square_00/top_left/instructions/Audio2.wav,47.07516650017351,47.04211440007202,2,"[8.400029599899426, 0.17040430009365082]","[8.400042199995369, 0.17042080010287464]",0,,,,,,,,,,,,,,,,,,,,,,,,,,,,,,,,,,,,,,,,,,,,A,train_y,red_square,top_left,2024-11-07_15h39.51.238,HideSeek_v1,2022.2.5,60.066192973183675,
,,,,,,,,,,,,0,0,0,0,2,0,2,0,,,,,,,,,,,,,,,,,,,,,,,,,,,conditions/schedules/train_y_first/red_square_00/top_left/instructions/Slide3.png,conditions/schedules/train_y_first/red_square_00/top_left/instructions/Audio3.wav,47.341692900052294,47.309227199992165,3,"[8.400029599899426, 0.17040430009365082, 0.08478579996153712]","[8.400042199995369, 0.17042080010287464, 0.08480020007118583]",0,,,,,,,,,,,,,,,,,,,,,,,,,,,,,,,,,,,,,,,,,,,,A,train_y,red_square,top_left,2024-11-07_15h39.51.238,HideSeek_v1,2022.2.5,60.066192973183675,
,,,,,,,,,,,,0,0,0,0,3,0,3,0,,,,,,,,,,,,,,,,,,,,,,,,,,,conditions/schedules/train_y_first/red_square_00/top_left/instructions/Slide4.png,conditions/schedules/train_y_first/red_square_00/top_left/instructions/Audio4.wav,47.50994770019315,47.49161670007743,4,"[8.400029599899426, 0.17040430009365082, 0.08478579996153712, 0.10749369999393821]","[8.400042199995369, 0.17042080010287464, 0.08480020007118583, 0.10750679997727275]",0,,,,,,,,,,,,,,,,,,,,,,,,,,,,,,,,,,,,,,,,,,,,A,train_y,red_square,top_left,2024-11-07_15h39.51.238,HideSeek_v1,2022.2.5,60.066192973183675,
,,,,,,,,,,,,0,0,0,0,4,0,4,0,,,,,,,,,,,,,,,,,,,,,,,,,,,conditions/schedules/train_y_first/red_square_00/top_left/instructions/Slide5.png,conditions/schedules/train_y_first/red_square_00/top_left/instructions/Audio5.wav,47.80714530008845,47.67472455010284,5,"[8.400029599899426, 0.17040430009365082, 0.08478579996153712, 0.10749369999393821, 0.13663300010375679]","[8.400042199995369, 0.17042080010287464, 0.08480020007118583, 0.10750679997727275, 0.13664710009470582]",0,,,,,,,,,,,,,,,,,,,,,,,,,,,,,,,,,,,,,,,,,,,,A,train_y,red_square,top_left,2024-11-07_15h39.51.238,HideSeek_v1,2022.2.5,60.066192973183675,
,,,,,,,,,,,,0,0,0,0,5,0,5,0,,,,,,,,,,,,,,,,,,,,,,,,,,,conditions/schedules/train_y_first/red_square_00/top_left/instructions/Slide6.png,conditions/schedules/train_y_first/red_square_00/top_left/instructions/Audio6.wav,47.90797040006146,47.890350550063886,6,"[8.400029599899426, 0.17040430009365082, 0.08478579996153712, 0.10749369999393821, 0.13663300010375679, 0.058051500003784895]","[8.400042199995369, 0.17042080010287464, 0.08480020007118583, 0.10750679997727275, 0.13664710009470582, 0.058064299868419766]",0,,,,,,,,,,,,,,,,,,,,,,,,,,,,,,,,,,,,,,,,,,,,A,train_y,red_square,top_left,2024-11-07_15h39.51.238,HideSeek_v1,2022.2.5,60.066192973183675,
,,,,,,,,,,,,0,0,0,0,6,0,6,0,,,,,,,,,,,,,,,,,,,,,,,,,,,conditions/schedules/train_y_first/red_square_00/top_left/instructions/Slide7.png,conditions/schedules/train_y_first/red_square_00/top_left/instructions/Audio7.wav,48.05756420013495,48.04107669997029,7,"[8.400029599899426, 0.17040430009365082, 0.08478579996153712, 0.10749369999393821, 0.13663300010375679, 0.058051500003784895, 0.08433050010353327]","[8.400042199995369, 0.17042080010287464, 0.08480020007118583, 0.10750679997727275, 0.13664710009470582, 0.058064299868419766, 0.08434429997578263]",0,,,,,,,,,,,,,,,,,,,,,,,,,,,,,,,,,,,,,,,,,,,,A,train_y,red_square,top_left,2024-11-07_15h39.51.238,HideSeek_v1,2022.2.5,60.066192973183675,
,,,,,,,,,,,,0,0,0,0,7,0,7,0,,,,,,,,,,,,,,,,,,,,,,,,,,,conditions/schedules/train_y_first/red_square_00/top_left/instructions/Slide8.png,conditions/schedules/train_y_first/red_square_00/top_left/instructions/Audio8.wav,48.21265170001425,48.19139195012394,8,"[8.400029599899426, 0.17040430009365082, 0.08478579996153712, 0.10749369999393821, 0.13663300010375679, 0.058051500003784895, 0.08433050010353327, 0.10554179991595447]","[8.400042199995369, 0.17042080010287464, 0.08480020007118583, 0.10750679997727275, 0.13664710009470582, 0.058064299868419766, 0.08434429997578263, 0.10555440001189709]",0,,,,,,,,,,,,,,,,,,,,,,,,,,,,,,,,,,,,,,,,,,,,A,train_y,red_square,top_left,2024-11-07_15h39.51.238,HideSeek_v1,2022.2.5,60.066192973183675,
,,,,,,,,,,,,0,0,0,0,8,0,8,0,,,,,,,,,,,,,,,,,,,,,,,,,,,conditions/schedules/train_y_first/red_square_00/top_left/instructions/Slide9.png,conditions/schedules/train_y_first/red_square_00/top_left/instructions/Audio9.wav,48.40913310018368,48.37522104999516,9,"[8.400029599899426, 0.17040430009365082, 0.08478579996153712, 0.10749369999393821, 0.13663300010375679, 0.058051500003784895, 0.08433050010353327, 0.10554179991595447, 0.1216796999797225]","[8.400042199995369, 0.17042080010287464, 0.08480020007118583, 0.10750679997727275, 0.13664710009470582, 0.058064299868419766, 0.08434429997578263, 0.10555440001189709, 0.12169249984435737]",0,,,,,,,,,,,,,,,,,,,,,,,,,,,,,,,,,,,,,,,,,,,,A,train_y,red_square,top_left,2024-11-07_15h39.51.238,HideSeek_v1,2022.2.5,60.066192973183675,
,,,,,,,,,,,,0,0,0,0,9,0,9,0,,,,,,,,,,,,,,,,,,,,,,,,,,,conditions/schedules/train_y_first/red_square_00/top_left/instructions/Slide10.png,conditions/schedules/train_y_first/red_square_00/top_left/instructions/Audio10.wav,48.57464090012945,48.55781300016679,10,"[8.400029599899426, 0.17040430009365082, 0.08478579996153712, 0.10749369999393821, 0.13663300010375679, 0.058051500003784895, 0.08433050010353327, 0.10554179991595447, 0.1216796999797225, 0.17950119986198843]","[8.400042199995369, 0.17042080010287464, 0.08480020007118583, 0.10750679997727275, 0.13664710009470582, 0.058064299868419766, 0.08434429997578263, 0.10555440001189709, 0.00036509986966848373, 0.17953510000370443]",0,,,,,,,,,,,,,,,,,,,,,,,,,,,,,,,,,,,,,,,,,,,,A,train_y,red_square,top_left,2024-11-07_15h39.51.238,HideSeek_v1,2022.2.5,60.066192973183675,
,,,,,,,,,,,,0,0,0,0,10,0,10,0,,,,,,,,,,,,,,,,,,,,,,,,,,,conditions/schedules/train_y_first/red_square_00/top_left/instructions/Slide11.png,conditions/schedules/train_y_first/red_square_00/top_left/instructions/Audio11.wav,48.80833360017277,48.79193489998579,11,"[8.400029599899426, 0.17040430009365082, 0.08478579996153712, 0.10749369999393821, 0.13663300010375679, 0.058051500003784895, 0.08433050010353327, 0.10554179991595447, 0.1216796999797225, 0.17950119986198843, 0.13907960010692477]","[8.400042199995369, 0.17042080010287464, 0.08480020007118583, 0.10750679997727275, 0.13664710009470582, 0.058064299868419766, 0.08434429997578263, 0.10555440001189709, 0.00036509986966848373, 0.17953510000370443, 0.13910909998230636]",0,,,,,,,,,,,,,,,,,,,,,,,,,,,,,,,,,,,,,,,,,,,,A,train_y,red_square,top_left,2024-11-07_15h39.51.238,HideSeek_v1,2022.2.5,60.066192973183675,
,,,,,,,,,,,,0,0,0,0,11,0,11,0,,,,,,,,,,,,,,,,,,,,,,,,,,,conditions/schedules/train_y_first/red_square_00/top_left/instructions/Slide12.png,conditions/schedules/train_y_first/red_square_00/top_left/instructions/Audio12.wav,49.042175700189546,49.02403850015253,12,"[8.400029599899426, 0.17040430009365082, 0.08478579996153712, 0.10749369999393821, 0.13663300010375679, 0.058051500003784895, 0.08433050010353327, 0.10554179991595447, 0.1216796999797225, 0.17950119986198843, 0.13907960010692477, 0.13456289982423186]","[8.400042199995369, 0.17042080010287464, 0.08480020007118583, 0.10750679997727275, 0.13664710009470582, 0.058064299868419766, 0.08434429997578263, 0.10555440001189709, 0.00036509986966848373, 0.17953510000370443, 0.13910909998230636, 0.1345753998029977]",0,,,,,,,,,,,,,,,,,,,,,,,,,,,,,,,,,,,,,,,,,,,,A,train_y,red_square,top_left,2024-11-07_15h39.51.238,HideSeek_v1,2022.2.5,60.066192973183675,
,,,,,,,,,,,,0,0,0,0,,,,,,,,,,,,,,,,,,,,,,,,,,,,,,,,,,,,,,,,,17,0.7,0,0,99,1,30,0,conditions/schedules/train_y_first/red_square_00/top_left/inputTrain_1.1.xlsx,99,1,1,1,0,,,,,,,,,,,,,,,,,,,,,,,,,,,,A,train_y,red_square,top_left,2024-11-07_15h39.51.238,HideSeek_v1,2022.2.5,60.066192973183675,
,,,,,,,,,,,,1,0,1,0,0,0,0,0,,,,,,,,,,,,,,,,,,,,,,,,,,,conditions/schedules/train_y_first/red_square_00/top_left/instructions/Slide13.png,conditions/schedules/train_y_first/red_square_00/top_left/instructions/Audio13.wav,49.4241878001485,49.391302750096656,13,"[8.400029599899426, 0.17040430009365082, 0.08478579996153712, 0.10749369999393821, 0.13663300010375679, 0.058051500003784895, 0.08433050010353327, 0.10554179991595447, 0.1216796999797225, 0.17950119986198843, 0.13907960010692477, 0.13456289982423186, 0.25454290001653135]","[8.400042199995369, 0.17042080010287464, 0.08480020007118583, 0.10750679997727275, 0.13664710009470582, 0.058064299868419766, 0.08434429997578263, 0.10555440001189709, 0.00036509986966848373, 0.17953510000370443, 0.13910909998230636, 0.08764240005984902, 0.2545576000120491]",0,,,,,,,,,,,,,,,,,,,,,,,,,,,,,,,,,,,,,,,,,,,,A,train_y,red_square,top_left,2024-11-07_15h39.51.238,HideSeek_v1,2022.2.5,60.066192973183675,
,,,,,,,,,,,,1,0,1,0,1,0,1,0,,,,,,,,,,,,,,,,,,,,,,,,,,,conditions/schedules/train_y_first/red_square_00/top_left/instructions/Slide14.png,conditions/schedules/train_y_first/red_square_00/top_left/instructions/Audio14.wav,49.75942500005476,49.7415542001836,14,"[8.400029599899426, 0.17040430009365082, 0.08478579996153712, 0.10749369999393821, 0.13663300010375679, 0.058051500003784895, 0.08433050010353327, 0.10554179991595447, 0.1216796999797225, 0.17950119986198843, 0.13907960010692477, 0.13456289982423186, 0.25454290001653135, 0.1306541000958532]","[8.400042199995369, 0.17042080010287464, 0.08480020007118583, 0.10750679997727275, 0.13664710009470582, 0.058064299868419766, 0.08434429997578263, 0.10555440001189709, 0.00036509986966848373, 0.17953510000370443, 0.13910909998230636, 0.08764240005984902, 0.2545576000120491, 0.13066769996657968]",0,,,,,,,,,,,,,,,,,,,,,,,,,,,,,,,,,,,,,,,,,,,,A,train_y,red_square,top_left,2024-11-07_15h39.51.238,HideSeek_v1,2022.2.5,60.066192973183675,
,,,,,,,,,,,,1,0,1,0,,,,,,,,,,,,,,,,,,,,,,,,,,,,,,,,,,,,,,,,,17,0.7,0,0,99,1,30,0,conditions/schedules/train_y_first/red_square_00/top_left/inputTrain_1.1.xlsx,99,1,1,1,0,,,,,,,,,,,,,,,,,,,,,,,,,,,,A,train_y,red_square,top_left,2024-11-07_15h39.51.238,HideSeek_v1,2022.2.5,60.066192973183675,
,,,,,,,,,,,,2,0,2,0,0,0,0,0,,,,,,,,,,,,,,,,,,,,,,,,,,,conditions/schedules/train_y_first/red_square_00/top_left/instructions/Slide15.png,conditions/schedules/train_y_first/red_square_00/top_left/instructions/Audio15.wav,50.142369400011376,50.12394120008685,15,"[8.400029599899426, 0.17040430009365082, 0.08478579996153712, 0.10749369999393821, 0.13663300010375679, 0.058051500003784895, 0.08433050010353327, 0.10554179991595447, 0.1216796999797225, 0.17950119986198843, 0.13907960010692477, 0.13456289982423186, 0.25454290001653135, 0.1306541000958532, 0.18853969988413155]","[8.400042199995369, 0.17042080010287464, 0.08480020007118583, 0.10750679997727275, 0.13664710009470582, 0.058064299868419766, 0.08434429997578263, 0.10555440001189709, 0.00036509986966848373, 0.17953510000370443, 0.13910909998230636, 0.08764240005984902, 0.2545576000120491, 0.049447499914094806, 0.18855719990096986]",0,,,,,,,,,,,,,,,,,,,,,,,,,,,,,,,,,,,,,,,,,,,,A,train_y,red_square,top_left,2024-11-07_15h39.51.238,HideSeek_v1,2022.2.5,60.066192973183675,
,,,,,,,,,,,,2,0,2,0,1,0,1,0,,,,,,,,,,,,,,,,,,,,,,,,,,,conditions/schedules/train_y_first/red_square_00/top_left/instructions/Slide16.png,conditions/schedules/train_y_first/red_square_00/top_left/instructions/Audio16.wav,50.42495720018633,50.40814804995898,16,"[8.400029599899426, 0.17040430009365082, 0.08478579996153712, 0.10749369999393821, 0.13663300010375679, 0.058051500003784895, 0.08433050010353327, 0.10554179991595447, 0.1216796999797225, 0.17950119986198843, 0.13907960010692477, 0.13456289982423186, 0.25454290001653135, 0.1306541000958532, 0.18853969988413155, 0.10890600015409291]","[8.400042199995369, 0.17042080010287464, 0.08480020007118583, 0.10750679997727275, 0.13664710009470582, 0.058064299868419766, 0.08434429997578263, 0.10555440001189709, 0.00036509986966848373, 0.17953510000370443, 0.13910909998230636, 0.08764240005984902, 0.2545576000120491, 0.049447499914094806, 0.18855719990096986, 0.10891850013285875]",0,,,,,,,,,,,,,,,,,,,,,,,,,,,,,,,,,,,,,,,,,,,,A,train_y,red_square,top_left,2024-11-07_15h39.51.238,HideSeek_v1,2022.2.5,60.066192973183675,
,,,,,,,,,,,,2,0,2,0,,,,,,,,,,,,,,,,,,,,,,,,,,,,,,,,,,,,,,,,,17,0.7,0,0,99,1,30,0,conditions/schedules/train_y_first/red_square_00/top_left/inputTrain_1.1.xlsx,99,1,1,1,0,,,,,,,,,,,,,,,,,,,,,,,,,,,,A,train_y,red_square,top_left,2024-11-07_15h39.51.238,HideSeek_v1,2022.2.5,60.066192973183675,
,,,,,,,,,,,,3,0,3,0,0,0,0,0,,,,,,,,,,,,,,,,,,,,,,,,,,,conditions/schedules/train_y_first/red_square_00/top_left/instructions/Slide17.png,conditions/schedules/train_y_first/red_square_00/top_left/instructions/Audio17.wav,50.77568790013902,50.7409508000128,17,"[8.400029599899426, 0.17040430009365082, 0.08478579996153712, 0.10749369999393821, 0.13663300010375679, 0.058051500003784895, 0.08433050010353327, 0.10554179991595447, 0.1216796999797225, 0.17950119986198843, 0.13907960010692477, 0.13456289982423186, 0.25454290001653135, 0.1306541000958532, 0.18853969988413155, 0.10890600015409291, 0.2216318000573665]","[8.400042199995369, 0.17042080010287464, 0.08480020007118583, 0.10750679997727275, 0.13664710009470582, 0.058064299868419766, 0.08434429997578263, 0.10555440001189709, 0.00036509986966848373, 0.17953510000370443, 0.13910909998230636, 0.08764240005984902, 0.2545576000120491, 0.049447499914094806, 0.18855719990096986, 0.03816820005886257, 0.221648900071159]",0,,,,,,,,,,,,,,,,,,,,,,,,,,,,,,,,,,,,,,,,,,,,A,train_y,red_square,top_left,2024-11-07_15h39.51.238,HideSeek_v1,2022.2.5,60.066192973183675,
,,,,,,,,,,,,3,0,3,0,1,0,1,0,,,,,,,,,,,,,,,,,,,,,,,,,,,conditions/schedules/train_y_first/red_square_00/top_left/instructions/Slide18.png,conditions/schedules/train_y_first/red_square_00/top_left/instructions/Audio18.wav,51.074537800159305,51.0577206001617,18,"[8.400029599899426, 0.17040430009365082, 0.08478579996153712, 0.10749369999393821, 0.13663300010375679, 0.058051500003784895, 0.08433050010353327, 0.10554179991595447, 0.1216796999797225, 0.17950119986198843, 0.13907960010692477, 0.13456289982423186, 0.25454290001653135, 0.1306541000958532, 0.18853969988413155, 0.10890600015409291, 0.2216318000573665, 0.36483470001257956]","[8.400042199995369, 0.17042080010287464, 0.08480020007118583, 0.10750679997727275, 0.13664710009470582, 0.058064299868419766, 0.08434429997578263, 0.10555440001189709, 0.00036509986966848373, 0.17953510000370443, 0.13910909998230636, 0.08764240005984902, 0.2545576000120491, 0.049447499914094806, 0.18855719990096986, 0.03816820005886257, 0.0004181000404059887, 0.36484789988026023]",0,,,,,,,,,,,,,,,,,,,,,,,,,,,,,,,,,,,,,,,,,,,,A,train_y,red_square,top_left,2024-11-07_15h39.51.238,HideSeek_v1,2022.2.5,60.066192973183675,
,,,,,,,,,,,,3,0,3,0,2,0,2,0,,,,,,,,,,,,,,,,,,,,,,,,,,,conditions/schedules/train_y_first/red_square_00/top_left/instructions/Slide19.png,conditions/schedules/train_y_first/red_square_00/top_left/instructions/Audio19.wav,51.5255894002039,51.49106845015194,19,"[8.400029599899426, 0.17040430009365082, 0.08478579996153712, 0.10749369999393821, 0.13663300010375679, 0.058051500003784895, 0.08433050010353327, 0.10554179991595447, 0.1216796999797225, 0.17950119986198843, 0.13907960010692477, 0.13456289982423186, 0.25454290001653135, 0.1306541000958532, 0.18853969988413155, 0.10890600015409291, 0.2216318000573665, 0.36483470001257956, 0.2685233000665903]","[8.400042199995369, 0.17042080010287464, 0.08480020007118583, 0.10750679997727275, 0.13664710009470582, 0.058064299868419766, 0.08434429997578263, 0.10555440001189709, 0.00036509986966848373, 0.17953510000370443, 0.13910909998230636, 0.08764240005984902, 0.2545576000120491, 0.049447499914094806, 0.18855719990096986, 0.03816820005886257, 0.0004181000404059887, 0.36484789988026023, 0.2685367001686245]",0,,,,,,,,,,,,,,,,,,,,,,,,,,,,,,,,,,,,,,,,,,,,A,train_y,red_square,top_left,2024-11-07_15h39.51.238,HideSeek_v1,2022.2.5,60.066192973183675,
,,,,,,,,,,,,3,0,3,0,3,0,3,0,,,,,,,,,,,,,,,,,,,,,,,,,,,conditions/schedules/train_y_first/red_square_00/top_left/instructions/Slide20.png,conditions/schedules/train_y_first/red_square_00/top_left/instructions/Audio20.wav,51.87536080018617,51.84072285017464,20,"[8.400029599899426, 0.17040430009365082, 0.08478579996153712, 0.10749369999393821, 0.13663300010375679, 0.058051500003784895, 0.08433050010353327, 0.10554179991595447, 0.1216796999797225, 0.17950119986198843, 0.13907960010692477, 0.13456289982423186, 0.25454290001653135, 0.1306541000958532, 0.18853969988413155, 0.10890600015409291, 0.2216318000573665, 0.36483470001257956, 0.2685233000665903, 0.1852487998548895]","[8.400042199995369, 0.17042080010287464, 0.08480020007118583, 0.10750679997727275, 0.13664710009470582, 0.058064299868419766, 0.08434429997578263, 0.10555440001189709, 0.00036509986966848373, 0.17953510000370443, 0.13910909998230636, 0.08764240005984902, 0.2545576000120491, 0.049447499914094806, 0.18855719990096986, 0.03816820005886257, 0.0004181000404059887, 0.36484789988026023, 0.2685367001686245, 0.18526089983060956]",0,,,,,,,,,,,,,,,,,,,,,,,,,,,,,,,,,,,,,,,,,,,,A,train_y,red_square,top_left,2024-11-07_15h39.51.238,HideSeek_v1,2022.2.5,60.066192973183675,
,,,,,,,,,,,,3,0,3,0,,,,,,,,,,,,,,,,,,,,,,,,,,,,,,,,,,,,,,,,,17,0.7,0,0,99,1,30,0,conditions/schedules/train_y_first/red_square_00/top_left/inputTrain_1.1.xlsx,99,1,1,1,0,,,,,,,,,,,,,,,,,,,,,,,,,,,,A,train_y,red_square,top_left,2024-11-07_15h39.51.238,HideSeek_v1,2022.2.5,60.066192973183675,
,,,,,,,,,,,,4,0,4,0,0,0,0,0,,,,,,,,,,,,,,,,,,,,,,,,,,,conditions/schedules/train_y_first/red_square_00/top_left/instructions/Slide21.png,conditions/schedules/train_y_first/red_square_00/top_left/instructions/Audio21.wav,52.309150899993256,52.27376615011599,21,"[8.400029599899426, 0.17040430009365082, 0.08478579996153712, 0.10749369999393821, 0.13663300010375679, 0.058051500003784895, 0.08433050010353327, 0.10554179991595447, 0.1216796999797225, 0.17950119986198843, 0.13907960010692477, 0.13456289982423186, 0.25454290001653135, 0.1306541000958532, 0.18853969988413155, 0.10890600015409291, 0.2216318000573665, 0.36483470001257956, 0.2685233000665903, 0.1852487998548895, 0.2357556999195367]","[8.400042199995369, 0.17042080010287464, 0.08480020007118583, 0.10750679997727275, 0.13664710009470582, 0.058064299868419766, 0.08434429997578263, 0.10555440001189709, 0.00036509986966848373, 0.17953510000370443, 0.13910909998230636, 0.08764240005984902, 0.2545576000120491, 0.049447499914094806, 0.18855719990096986, 0.03816820005886257, 0.0004181000404059887, 0.36484789988026023, 0.2685367001686245, 0.04010290000587702, 0.23576850001700222]",0,,,,,,,,,,,,,,,,,,,,,,,,,,,,,,,,,,,,,,,,,,,,A,train_y,red_square,top_left,2024-11-07_15h39.51.238,HideSeek_v1,2022.2.5,60.066192973183675,
,,,,,,,,,,,,4,0,4,0,,,,,,,,,,,,,,,,,,,,,,,,,,,,,,,,,,,,,,,,,17,0.7,0,0,99,1,30,0,conditions/schedules/train_y_first/red_square_00/top_left/inputTrain_1.1.xlsx,99,1,1,1,0,,,,,,,,,,,,,,,,,,,,,,,,,,,,A,train_y,red_square,top_left,2024-11-07_15h39.51.238,HideSeek_v1,2022.2.5,60.066192973183675,
,,,,,,,,,,,,5,0,5,0,0,0,0,0,,,,,,,,,,,,,,,,,,,,,,,,,,,conditions/schedules/train_y_first/red_square_00/top_left/instructions/Slide22.png,conditions/schedules/train_y_first/red_square_00/top_left/instructions/Audio22.wav,52.79114380013198,52.774274500086904,22,"[8.400029599899426, 0.17040430009365082, 0.08478579996153712, 0.10749369999393821, 0.13663300010375679, 0.058051500003784895, 0.08433050010353327, 0.10554179991595447, 0.1216796999797225, 0.17950119986198843, 0.13907960010692477, 0.13456289982423186, 0.25454290001653135, 0.1306541000958532, 0.18853969988413155, 0.10890600015409291, 0.2216318000573665, 0.36483470001257956, 0.2685233000665903, 0.1852487998548895, 0.2357556999195367, 0.10991709982044995]","[8.400042199995369, 0.17042080010287464, 0.08480020007118583, 0.10750679997727275, 0.13664710009470582, 0.058064299868419766, 0.08434429997578263, 0.10555440001189709, 0.00036509986966848373, 0.17953510000370443, 0.13910909998230636, 0.08764240005984902, 0.2545576000120491, 0.049447499914094806, 0.18855719990096986, 0.03816820005886257, 0.0004181000404059887, 0.36484789988026023, 0.2685367001686245, 0.04010290000587702, 0.23576850001700222, 0.10993049992248416]",0,,,,,,,,,,,,,,,,,,,,,,,,,,,,,,,,,,,,,,,,,,,,A,train_y,red_square,top_left,2024-11-07_15h39.51.238,HideSeek_v1,2022.2.5,60.066192973183675,
,,,,,,,,,,,,5,0,5,0,,,,,,,,,,,,,,,,,,,,,,,,,,,,,,,,,,,,,,,,,17,0.7,0,0,99,1,30,0,conditions/schedules/train_y_first/red_square_00/top_left/inputTrain_1.1.xlsx,99,1,1,1,0,,,,,,,,,,,,,,,,,,,,,,,,,,,,A,train_y,red_square,top_left,2024-11-07_15h39.51.238,HideSeek_v1,2022.2.5,60.066192973183675,
,,,,,,,,,,,,6,0,6,0,0,0,0,0,,,,,,,,,,,,,,,,,,,,,,,,,,,conditions/schedules/train_y_first/red_square_00/top_left/instructions/Slide23.png,conditions/schedules/train_y_first/red_square_00/top_left/instructions/Audio23.wav,53.142187300138175,53.124341050046496,23,"[8.400029599899426, 0.17040430009365082, 0.08478579996153712, 0.10749369999393821, 0.13663300010375679, 0.058051500003784895, 0.08433050010353327, 0.10554179991595447, 0.1216796999797225, 0.17950119986198843, 0.13907960010692477, 0.13456289982423186, 0.25454290001653135, 0.1306541000958532, 0.18853969988413155, 0.10890600015409291, 0.2216318000573665, 0.36483470001257956, 0.2685233000665903, 0.1852487998548895, 0.2357556999195367, 0.10991709982044995, 0.1848820000886917]","[8.400042199995369, 0.17042080010287464, 0.08480020007118583, 0.10750679997727275, 0.13664710009470582, 0.058064299868419766, 0.08434429997578263, 0.10555440001189709, 0.00036509986966848373, 0.17953510000370443, 0.13910909998230636, 0.08764240005984902, 0.2545576000120491, 0.049447499914094806, 0.18855719990096986, 0.03816820005886257, 0.0004181000404059887, 0.36484789988026023, 0.2685367001686245, 0.04010290000587702, 0.23576850001700222, 0.10993049992248416, 0.18489690008573234]",0,,,,,,,,,,,,,,,,,,,,,,,,,,,,,,,,,,,,,,,,,,,,A,train_y,red_square,top_left,2024-11-07_15h39.51.238,HideSeek_v1,2022.2.5,60.066192973183675,
,,,,,,,,,,,,6,0,6,0,1,0,1,0,,,,,,,,,,,,,,,,,,,,,,,,,,,conditions/schedules/train_y_first/red_square_00/top_left/instructions/Slide24.png,conditions/schedules/train_y_first/red_square_00/top_left/instructions/Audio24.wav,53.409141700016335,53.39218059997074,24,"[8.400029599899426, 0.17040430009365082, 0.08478579996153712, 0.10749369999393821, 0.13663300010375679, 0.058051500003784895, 0.08433050010353327, 0.10554179991595447, 0.1216796999797225, 0.17950119986198843, 0.13907960010692477, 0.13456289982423186, 0.25454290001653135, 0.1306541000958532, 0.18853969988413155, 0.10890600015409291, 0.2216318000573665, 0.36483470001257956, 0.2685233000665903, 0.1852487998548895, 0.2357556999195367, 0.10991709982044995, 0.1848820000886917, 0.22059609997086227]","[8.400042199995369, 0.17042080010287464, 0.08480020007118583, 0.10750679997727275, 0.13664710009470582, 0.058064299868419766, 0.08434429997578263, 0.10555440001189709, 0.00036509986966848373, 0.17953510000370443, 0.13910909998230636, 0.08764240005984902, 0.2545576000120491, 0.049447499914094806, 0.18855719990096986, 0.03816820005886257, 0.0004181000404059887, 0.36484789988026023, 0.2685367001686245, 0.04010290000587702, 0.23576850001700222, 0.10993049992248416, 0.18489690008573234, 0.22061319998465478]",0,,,,,,,,,,,,,,,,,,,,,,,,,,,,,,,,,,,,,,,,,,,,A,train_y,red_square,top_left,2024-11-07_15h39.51.238,HideSeek_v1,2022.2.5,60.066192973183675,
,,,,,,,,,,,,6,0,6,0,2,0,2,0,,,,,,,,,,,,,,,,,,,,,,,,,,,conditions/schedules/train_y_first/red_square_00/top_left/instructions/Slide25.png,conditions/schedules/train_y_first/red_square_00/top_left/instructions/Audio25.wav,53.72521210019477,53.70748235017527,25,"[8.400029599899426, 0.17040430009365082, 0.08478579996153712, 0.10749369999393821, 0.13663300010375679, 0.058051500003784895, 0.08433050010353327, 0.10554179991595447, 0.1216796999797225, 0.17950119986198843, 0.13907960010692477, 0.13456289982423186, 0.25454290001653135, 0.1306541000958532, 0.18853969988413155, 0.10890600015409291, 0.2216318000573665, 0.36483470001257956, 0.2685233000665903, 0.1852487998548895, 0.2357556999195367, 0.10991709982044995, 0.1848820000886917, 0.22059609997086227, 0.1410652999766171]","[8.400042199995369, 0.17042080010287464, 0.08480020007118583, 0.10750679997727275, 0.13664710009470582, 0.058064299868419766, 0.08434429997578263, 0.10555440001189709, 0.00036509986966848373, 0.17953510000370443, 0.13910909998230636, 0.08764240005984902, 0.2545576000120491, 0.049447499914094806, 0.18855719990096986, 0.03816820005886257, 0.0004181000404059887, 0.36484789988026023, 0.2685367001686245, 0.04010290000587702, 0.23576850001700222, 0.10993049992248416, 0.18489690008573234, 0.22061319998465478, 0.14107899996452034]",0,,,,,,,,,,,,,,,,,,,,,,,,,,,,,,,,,,,,,,,,,,,,A,train_y,red_square,top_left,2024-11-07_15h39.51.238,HideSeek_v1,2022.2.5,60.066192973183675,
,,,,,,,,,,,,6,0,6,0,,,,,,,,,,,,,,,,,,,,,,,,,,,,,,,,,,,,,,,,,17,0.7,0,0,99,1,30,0,conditions/schedules/train_y_first/red_square_00/top_left/inputTrain_1.1.xlsx,99,1,1,1,0,,,,,,,,,,,,,,,,,,,,,,,,,,,,A,train_y,red_square,top_left,2024-11-07_15h39.51.238,HideSeek_v1,2022.2.5,60.066192973183675,
,,,,,,,,,,,,7,0,7,0,0,0,0,0,,,,,,,,,,,,,,,,,,,,,,,,,,,conditions/schedules/train_y_first/red_square_00/top_left/instructions/Slide26.png,conditions/schedules/train_y_first/red_square_00/top_left/instructions/Audio26.wav,54.107887000078335,54.09104894998018,26,"[8.400029599899426, 0.17040430009365082, 0.08478579996153712, 0.10749369999393821, 0.13663300010375679, 0.058051500003784895, 0.08433050010353327, 0.10554179991595447, 0.1216796999797225, 0.17950119986198843, 0.13907960010692477, 0.13456289982423186, 0.25454290001653135, 0.1306541000958532, 0.18853969988413155, 0.10890600015409291, 0.2216318000573665, 0.36483470001257956, 0.2685233000665903, 0.1852487998548895, 0.2357556999195367, 0.10991709982044995, 0.1848820000886917, 0.22059609997086227, 0.1410652999766171, 0.05658269999548793]","[8.400042199995369, 0.17042080010287464, 0.08480020007118583, 0.10750679997727275, 0.13664710009470582, 0.058064299868419766, 0.08434429997578263, 0.10555440001189709, 0.00036509986966848373, 0.17953510000370443, 0.13910909998230636, 0.08764240005984902, 0.2545576000120491, 0.049447499914094806, 0.18855719990096986, 0.03816820005886257, 0.0004181000404059887, 0.36484789988026023, 0.2685367001686245, 0.04010290000587702, 0.23576850001700222, 0.10993049992248416, 0.18489690008573234, 0.22061319998465478, 0.14107899996452034, 0.05659419996663928]",0,,,,,,,,,,,,,,,,,,,,,,,,,,,,,,,,,,,,,,,,,,,,A,train_y,red_square,top_left,2024-11-07_15h39.51.238,HideSeek_v1,2022.2.5,60.066192973183675,
,,,,,,,,,,,,7,0,7,0,,,,,,,,,,,,,,,,,,,,,,,,,,,,,,,,,,,,,,,,,17,0.7,0,0,99,1,30,0,conditions/schedules/train_y_first/red_square_00/top_left/inputTrain_1.1.xlsx,99,1,1,1,0,,,,,,,,,,,,,,,,,,,,,,,,,,,,A,train_y,red_square,top_left,2024-11-07_15h39.51.238,HideSeek_v1,2022.2.5,60.066192973183675,
,,,,,,,,,,,,8,0,8,0,0,0,0,0,,,,,,,,,,,,,,,,,,,,,,,,,,,conditions/schedules/train_y_first/red_square_00/top_left/instructions/Slide27.png,conditions/schedules/train_y_first/red_square_00/top_left/instructions/Audio27.wav,54.42543300008401,54.40732050011866,27,"[8.400029599899426, 0.17040430009365082, 0.08478579996153712, 0.10749369999393821, 0.13663300010375679, 0.058051500003784895, 0.08433050010353327, 0.10554179991595447, 0.1216796999797225, 0.17950119986198843, 0.13907960010692477, 0.13456289982423186, 0.25454290001653135, 0.1306541000958532, 0.18853969988413155, 0.10890600015409291, 0.2216318000573665, 0.36483470001257956, 0.2685233000665903, 0.1852487998548895, 0.2357556999195367, 0.10991709982044995, 0.1848820000886917, 0.22059609997086227, 0.1410652999766171, 0.05658269999548793, 0.03565139998681843]","[8.400042199995369, 0.17042080010287464, 0.08480020007118583, 0.10750679997727275, 0.13664710009470582, 0.058064299868419766, 0.08434429997578263, 0.10555440001189709, 0.00036509986966848373, 0.17953510000370443, 0.13910909998230636, 0.08764240005984902, 0.2545576000120491, 0.049447499914094806, 0.18855719990096986, 0.03816820005886257, 0.0004181000404059887, 0.36484789988026023, 0.2685367001686245, 0.04010290000587702, 0.23576850001700222, 0.10993049992248416, 0.18489690008573234, 0.22061319998465478, 0.14107899996452034, 0.05659419996663928, 0.03566420008428395]",0,,,,,,,,,,,,,,,,,,,,,,,,,,,,,,,,,,,,,,,,,,,,A,train_y,red_square,top_left,2024-11-07_15h39.51.238,HideSeek_v1,2022.2.5,60.066192973183675,
,,,,,,,,,,,,8,0,8,0,,,,,,,,,,,,,,,,,,,,,,,,,,,,,,,,,,,,,,,,,17,0.7,0,0,99,1,30,0,conditions/schedules/train_y_first/red_square_00/top_left/inputTrain_1.1.xlsx,99,1,1,1,0,,,,,,,,,,,,,,,,,,,,,,,,,,,,A,train_y,red_square,top_left,2024-11-07_15h39.51.238,HideSeek_v1,2022.2.5,60.066192973183675,
,,,,,,,,,,,,9,0,9,0,0,0,0,0,,,,,,,,,,,,,,,,,,,,,,,,,,,conditions/schedules/train_y_first/red_square_00/top_left/instructions/Slide28.png,conditions/schedules/train_y_first/red_square_00/top_left/instructions/Audio28.wav,54.68929890007712,54.67504875001032,28,"[8.400029599899426, 0.17040430009365082, 0.08478579996153712, 0.10749369999393821, 0.13663300010375679, 0.058051500003784895, 0.08433050010353327, 0.10554179991595447, 0.1216796999797225, 0.17950119986198843, 0.13907960010692477, 0.13456289982423186, 0.25454290001653135, 0.1306541000958532, 0.18853969988413155, 0.10890600015409291, 0.2216318000573665, 0.36483470001257956, 0.2685233000665903, 0.1852487998548895, 0.2357556999195367, 0.10991709982044995, 0.1848820000886917, 0.22059609997086227, 0.1410652999766171, 0.05658269999548793, 0.03565139998681843, 0.29584220005199313]","[8.400042199995369, 0.17042080010287464, 0.08480020007118583, 0.10750679997727275, 0.13664710009470582, 0.058064299868419766, 0.08434429997578263, 0.10555440001189709, 0.00036509986966848373, 0.17953510000370443, 0.13910909998230636, 0.08764240005984902, 0.2545576000120491, 0.049447499914094806, 0.18855719990096986, 0.03816820005886257, 0.0004181000404059887, 0.36484789988026023, 0.2685367001686245, 0.04010290000587702, 0.23576850001700222, 0.10993049992248416, 0.18489690008573234, 0.22061319998465478, 0.14107899996452034, 0.05659419996663928, 0.07766840001568198, 0.2958539999090135]",0,,,,,,,,,,,,,,,,,,,,,,,,,,,,,,,,,,,,,,,,,,,,A,train_y,red_square,top_left,2024-11-07_15h39.51.238,HideSeek_v1,2022.2.5,60.066192973183675,
,,,,,,,,,,,,9,0,9,0,1,0,1,0,,,,,,,,,,,,,,,,,,,,,,,,,,,conditions/schedules/train_y_first/red_square_00/top_left/instructions/Slide29.png,conditions/schedules/train_y_first/red_square_00/top_left/instructions/Audio29.wav,55.09181720018387,55.074352450086735,29,"[8.400029599899426, 0.17040430009365082, 0.08478579996153712, 0.10749369999393821, 0.13663300010375679, 0.058051500003784895, 0.08433050010353327, 0.10554179991595447, 0.1216796999797225, 0.17950119986198843, 0.13907960010692477, 0.13456289982423186, 0.25454290001653135, 0.1306541000958532, 0.18853969988413155, 0.10890600015409291, 0.2216318000573665, 0.36483470001257956, 0.2685233000665903, 0.1852487998548895, 0.2357556999195367, 0.10991709982044995, 0.1848820000886917, 0.22059609997086227, 0.1410652999766171, 0.05658269999548793, 0.03565139998681843, 0.29584220005199313, 0.2206482000183314]","[8.400042199995369, 0.17042080010287464, 0.08480020007118583, 0.10750679997727275, 0.13664710009470582, 0.058064299868419766, 0.08434429997578263, 0.10555440001189709, 0.00036509986966848373, 0.17953510000370443, 0.13910909998230636, 0.08764240005984902, 0.2545576000120491, 0.049447499914094806, 0.18855719990096986, 0.03816820005886257, 0.0004181000404059887, 0.36484789988026023, 0.2685367001686245, 0.04010290000587702, 0.23576850001700222, 0.10993049992248416, 0.18489690008573234, 0.22061319998465478, 0.14107899996452034, 0.05659419996663928, 0.07766840001568198, 0.2958539999090135, 0.2207071001175791]",0,,,,,,,,,,,,,,,,,,,,,,,,,,,,,,,,,,,,,,,,,,,,A,train_y,red_square,top_left,2024-11-07_15h39.51.238,HideSeek_v1,2022.2.5,60.066192973183675,
,,,,,,,,,,,,9,0,9,0,2,0,2,0,,,,,,,,,,,,,,,,,,,,,,,,,,,conditions/schedules/train_y_first/red_square_00/top_left/instructions/Slide30.png,conditions/schedules/train_y_first/red_square_00/top_left/instructions/Audio30.wav,55.37484180019237,55.3414934000466,30,"[8.400029599899426, 0.17040430009365082, 0.08478579996153712, 0.10749369999393821, 0.13663300010375679, 0.058051500003784895, 0.08433050010353327, 0.10554179991595447, 0.1216796999797225, 0.17950119986198843, 0.13907960010692477, 0.13456289982423186, 0.25454290001653135, 0.1306541000958532, 0.18853969988413155, 0.10890600015409291, 0.2216318000573665, 0.36483470001257956, 0.2685233000665903, 0.1852487998548895, 0.2357556999195367, 0.10991709982044995, 0.1848820000886917, 0.22059609997086227, 0.1410652999766171, 0.05658269999548793, 0.03565139998681843, 0.29584220005199313, 0.2206482000183314, 0.2057720001321286]","[8.400042199995369, 0.17042080010287464, 0.08480020007118583, 0.10750679997727275, 0.13664710009470582, 0.058064299868419766, 0.08434429997578263, 0.10555440001189709, 0.00036509986966848373, 0.17953510000370443, 0.13910909998230636, 0.08764240005984902, 0.2545576000120491, 0.049447499914094806, 0.18855719990096986, 0.03816820005886257, 0.0004181000404059887, 0.36484789988026023, 0.2685367001686245, 0.04010290000587702, 0.23576850001700222, 0.10993049992248416, 0.18489690008573234, 0.22061319998465478, 0.14107899996452034, 0.05659419996663928, 0.07766840001568198, 0.2958539999090135, 0.0004450001288205385, 0.20578540000133216]",0,,,,,,,,,,,,,,,,,,,,,,,,,,,,,,,,,,,,,,,,,,,,A,train_y,red_square,top_left,2024-11-07_15h39.51.238,HideSeek_v1,2022.2.5,60.066192973183675,
,,,,,,,,,,,,9,0,9,0,3,0,3,0,,,,,,,,,,,,,,,,,,,,,,,,,,,conditions/schedules/train_y_first/red_square_00/top_left/instructions/Slide31.png,conditions/schedules/train_y_first/red_square_00/top_left/instructions/Audio31.wav,55.65911870007403,55.640314700081944,31,"[8.400029599899426, 0.17040430009365082, 0.08478579996153712, 0.10749369999393821, 0.13663300010375679, 0.058051500003784895, 0.08433050010353327, 0.10554179991595447, 0.1216796999797225, 0.17950119986198843, 0.13907960010692477, 0.13456289982423186, 0.25454290001653135, 0.1306541000958532, 0.18853969988413155, 0.10890600015409291, 0.2216318000573665, 0.36483470001257956, 0.2685233000665903, 0.1852487998548895, 0.2357556999195367, 0.10991709982044995, 0.1848820000886917, 0.22059609997086227, 0.1410652999766171, 0.05658269999548793, 0.03565139998681843, 0.29584220005199313, 0.2206482000183314, 0.2057720001321286, 0.22650999994948506]","[8.400042199995369, 0.17042080010287464, 0.08480020007118583, 0.10750679997727275, 0.13664710009470582, 0.058064299868419766, 0.08434429997578263, 0.10555440001189709, 0.00036509986966848373, 0.17953510000370443, 0.13910909998230636, 0.08764240005984902, 0.2545576000120491, 0.049447499914094806, 0.18855719990096986, 0.03816820005886257, 0.0004181000404059887, 0.36484789988026023, 0.2685367001686245, 0.04010290000587702, 0.23576850001700222, 0.10993049992248416, 0.18489690008573234, 0.22061319998465478, 0.14107899996452034, 0.05659419996663928, 0.07766840001568198, 0.2958539999090135, 0.0004450001288205385, 0.00037359981797635555, 0.2265234999358654]",0,,,,,,,,,,,,,,,,,,,,,,,,,,,,,,,,,,,,,,,,,,,,A,train_y,red_square,top_left,2024-11-07_15h39.51.238,HideSeek_v1,2022.2.5,60.066192973183675,
,,,,,,,,,,,,9,0,9,0,,,,,,,,,,,,,,,,,,,,,,,,,,,,,,,,,,,,,,,,,17,0.7,0,0,99,1,30,0,conditions/schedules/train_y_first/red_square_00/top_left/inputTrain_1.1.xlsx,99,1,1,1,0,,,,,,,,,,,,,,,,,,,,,,,,,,,,A,train_y,red_square,top_left,2024-11-07_15h39.51.238,HideSeek_v1,2022.2.5,60.066192973183675,
1,2,9,2,7,0,-2,14,72,test_exp,train_1D_first_new,0,,,,,,,,,,,,,,,,,,,,,0,0,0,0,0,0,0,0,,,,,,,,,,,,,,,,,,,,,,,,,,,,,,,stimuli/alien_stimuli/14.png,56.20808630017564,56.20808630017564,56.20808630017564,56.20808630017564,56.20808630017564,0,0,return,1.1974353999830782,0,0,0,0,0.32,return,1.058439799817279,,,,,,,,,,,A,train_y,red_square,top_left,2024-11-07_15h39.51.238,HideSeek_v1,2022.2.5,60.066192973183675,
1,2,9,2,7,0,-2,14,72,test_exp,train_1D_first_new,0,,,,,,,,,,,,,,,,,,,,,0,0,0,0,,,,,,,,,,,,,,,,,,,,,,,,,,,,,,,,,,,,,,,,,,,,,,,,,,,,57.32509930012748,58.507889200001955,stimuli/alien_stimuli/14.png,14,2,1,,,,,A,train_y,red_square,top_left,2024-11-07_15h39.51.238,HideSeek_v1,2022.2.5,60.066192973183675,
2,4,6,7,2,3,-4,42,72,test_exp,untrained,0,,,,,,,,,,,,,,,,,,,,,0,1,1,1,0,0,0,0,,,,,,,,,,,,,,,,,,,,,,,,,,,,,,,stimuli/alien_stimuli/42.png,58.507889200001955,58.507889200001955,58.507889200001955,58.507889200001955,58.507889200001955,0,0,return,0.4789638000074774,0,0,0,0.16,0.08,return,0.3181242998689413,,,,,,,,,,,A,train_y,red_square,top_left,2024-11-07_15h39.51.238,HideSeek_v1,2022.2.5,60.066192973183675,
2,4,6,7,2,3,-4,42,72,test_exp,untrained,0,,,,,,,,,,,,,,,,,,,,,0,1,1,1,,,,,,,,,,,,,,,,,,,,,,,,,,,,,,,,,,,,,,,,,,,,,,,,,,,,58.874682900030166,59.989268800010905,stimuli/alien_stimuli/14.png,14,2,2,,,,,A,train_y,red_square,top_left,2024-11-07_15h39.51.238,HideSeek_v1,2022.2.5,60.066192973183675,
3,1,6,4,5,3,-1,45,72,test_exp,untrained,0,,,,,,,,,,,,,,,,,,,,,0,2,2,2,0,0,0,0,,,,,,,,,,,,,,,,,,,,,,,,,,,,,,,stimuli/alien_stimuli/45.png,59.989268800010905,59.989268800010905,59.989268800010905,59.989268800010905,59.989268800010905,0,0,return,0.34965360001660883,0,0,0,-0.08,0.08,return,0.24885810003615916,,,,,,,,,,,A,train_y,red_square,top_left,2024-11-07_15h39.51.238,HideSeek_v1,2022.2.5,60.066192973183675,
3,1,6,4,5,3,-1,45,72,test_exp,untrained,0,,,,,,,,,,,,,,,,,,,,,0,2,2,2,,,,,,,,,,,,,,,,,,,,,,,,,,,,,,,,,,,,,,,,,,,,,,,,,,,,60.29104460007511,61.491409700131044,stimuli/alien_stimuli/14.png,14,2,3,,,,,A,train_y,red_square,top_left,2024-11-07_15h39.51.238,HideSeek_v1,2022.2.5,60.066192973183675,
4,0,5,0,4,0,-1,15,72,test_exp,train_1D_first_repeat,0,,,,,,,,,,,,,,,,,,,,,0,3,3,3,0,0,0,0,,,,,,,,,,,,,,,,,,,,,,,,,,,,,,,stimuli/alien_stimuli/15.png,61.491409700131044,61.491409700131044,61.491409700131044,61.491409700131044,61.491409700131044,0,0,return,0.4012368000112474,0,0,0,-0.16,0,return,0.18633879977278411,,,,,,,,,,,A,train_y,red_square,top_left,2024-11-07_15h39.51.238,HideSeek_v1,2022.2.5,60.066192973183675,
4,0,5,0,4,0,-1,15,72,test_exp,train_1D_first_repeat,0,,,,,,,,,,,,,,,,,,,,,0,3,3,3,,,,,,,,,,,,,,,,,,,,,,,,,,,,,,,,,,,,,,,,,,,,,,,,,,,,61.757728200173005,62.94103210000321,stimuli/alien_stimuli/14.png,14,2,4,,,,,A,train_y,red_square,top_left,2024-11-07_15h39.51.238,HideSeek_v1,2022.2.5,60.066192973183675,
5,4,9,9,4,5,-5,61,72,test_exp,untrained,0,,,,,,,,,,,,,,,,,,,,,0,4,4,4,0,0,0,0,,,,,,,,,,,,,,,,,,,,,,,,,,,,,,,stimuli/alien_stimuli/61.png,62.94103210000321,62.94103210000321,62.94103210000321,62.94103210000321,62.94103210000321,0,0,return,0.31815749988891184,0,0,0,0.16,0.32,return,0.13969679991714656,,,,,,,,,,,A,train_y,red_square,top_left,2024-11-07_15h39.51.238,HideSeek_v1,2022.2.5,60.066192973183675,
5,4,9,9,4,5,-5,61,72,test_exp,untrained,0,,,,,,,,,,,,,,,,,,,,,0,4,4,4,,,,,,,,,,,,,,,,,,,,,,,,,,,,,,,,,,,,,,,,,,,,,,,,,,,,63.141751900082454,64.27457540016621,stimuli/alien_stimuli/14.png,14,2,5,,,,,A,train_y,red_square,top_left,2024-11-07_15h39.51.238,HideSeek_v1,2022.2.5,60.066192973183675,
6,0,7,5,4,5,-3,63,72,test_exp,untrained,0,,,,,,,,,,,,,,,,,,,,,0,5,5,5,0,0,0,0,,,,,,,,,,,,,,,,,,,,,,,,,,,,,,,stimuli/alien_stimuli/63.png,64.27457540016621,64.27457540016621,64.27457540016621,64.27457540016621,64.27457540016621,0,0,return,0.367323299869895,0,0,0,-0.16,0.16,return,0.21805749996565282,,,,,,,,,,,A,train_y,red_square,top_left,2024-11-07_15h39.51.238,HideSeek_v1,2022.2.5,60.066192973183675,
6,0,7,5,4,5,-3,63,72,test_exp,untrained,0,,,,,,,,,,,,,,,,,,,,,0,5,5,5,,,,,,,,,,,,,,,,,,,,,,,,,,,,,,,,,,,,,,,,,,,,,,,,,,,,64.57462360011414,65.7414204000961,stimuli/alien_stimuli/14.png,14,2,6,,,,,A,train_y,red_square,top_left,2024-11-07_15h39.51.238,HideSeek_v1,2022.2.5,60.066192973183675,
7,4,5,6,0,2,-5,31,72,test_exp,untrained,0,,,,,,,,,,,,,,,,,,,,,0,6,6,6,0,0,0,0,,,,,,,,,,,,,,,,,,,,,,,,,,,,,,,stimuli/alien_stimuli/31.png,65.7414204000961,65.7414204000961,65.7414204000961,65.7414204000961,65.7414204000961,0,0,return,0.3976022000424564,0,0,0,0.16,0,return,0.22022129991091788,,,,,,,,,,,A,train_y,red_square,top_left,2024-11-07_15h39.51.238,HideSeek_v1,2022.2.5,60.066192973183675,
7,4,5,6,0,2,-5,31,72,test_exp,untrained,0,,,,,,,,,,,,,,,,,,,,,0,6,6,6,,,,,,,,,,,,,,,,,,,,,,,,,,,,,,,,,,,,,,,,,,,,,,,,,,,,66.0409965000581,67.2081500000786,stimuli/alien_stimuli/14.png,14,2,7,,,,,A,train_y,red_square,top_left,2024-11-07_15h39.51.238,HideSeek_v1,2022.2.5,60.066192973183675,
8,2,6,5,3,3,-3,43,72,test_exp,train_2D_repeat,0,,,,,,,,,,,,,,,,,,,,,0,7,7,7,0,0,0,0,,,,,,,,,,,,,,,,,,,,,,,,,,,,,,,stimuli/alien_stimuli/43.png,67.2081500000786,67.2081500000786,67.2081500000786,67.2081500000786,67.2081500000786,0,0,return,0.36730859987437725,0,0,0,0,0.08,return,0.21308739995583892,,,,,,,,,,,A,train_y,red_square,top_left,2024-11-07_15h39.51.238,HideSeek_v1,2022.2.5,60.066192973183675,
8,2,6,5,3,3,-3,43,72,test_exp,train_2D_repeat,0,,,,,,,,,,,,,,,,,,,,,0,7,7,7,,,,,,,,,,,,,,,,,,,,,,,,,,,,,,,,,,,,,,,,,,,,,,,,,,,,67.47414570022374,68.6384225001093,stimuli/alien_stimuli/14.png,14,2,8,,,,,A,train_y,red_square,top_left,2024-11-07_15h39.51.238,HideSeek_v1,2022.2.5,60.066192973183675,
9,4,8,8,3,4,-5,51,72,test_exp,untrained,0,,,,,,,,,,,,,,,,,,,,,0,8,8,8,0,0,0,0,,,,,,,,,,,,,,,,,,,,,,,,,,,,,,,stimuli/alien_stimuli/51.png,68.6384225001093,68.6384225001093,68.6384225001093,68.6384225001093,68.6384225001093,0,0,return,0.2821927999611944,0,0,0,0.16,0.24,return,0.12640479975380003,,,,,,,,,,,A,train_y,red_square,top_left,2024-11-07_15h39.51.238,HideSeek_v1,2022.2.5,60.066192973183675,
9,4,8,8,3,4,-5,51,72,test_exp,untrained,0,,,,,,,,,,,,,,,,,,,,,0,8,8,8,,,,,,,,,,,,,,,,,,,,,,,,,,,,,,,,,,,,,,,,,,,,,,,,,,,,68.82457779999822,70.07551020011306,stimuli/alien_stimuli/14.png,14,2,9,,,,,A,train_y,red_square,top_left,2024-11-07_15h39.51.238,HideSeek_v1,2022.2.5,60.066192973183675,
10,1,5,2,0,1,-5,21,72,test_exp,train_2D_repeat,0,,,,,,,,,,,,,,,,,,,,,0,9,9,9,0,0,0,0,,,,,,,,,,,,,,,,,,,,,,,,,,,,,,,stimuli/alien_stimuli/21.png,70.07551020011306,70.07551020011306,70.07551020011306,70.07551020011306,70.07551020011306,0,0,return,0.4323605000972748,0,0,0,-0.08,0,return,0.1896349999587983,,,,,,,,,,,A,train_y,red_square,top_left,2024-11-07_15h39.51.238,HideSeek_v1,2022.2.5,60.066192973183675,
10,1,5,2,0,1,-5,21,72,test_exp,train_2D_repeat,0,,,,,,,,,,,,,,,,,,,,,0,9,9,9,,,,,,,,,,,,,,,,,,,,,,,,,,,,,,,,,,,,,,,,,,,,,,,,,,,,70.32506560022011,71.50529510015622,stimuli/alien_stimuli/14.png,14,2,10,,,,,A,train_y,red_square,top_left,2024-11-07_15h39.51.238,HideSeek_v1,2022.2.5,60.066192973183675,
11,3,5,7,3,4,-2,54,72,test_exp,train_2D_repeat,0,,,,,,,,,,,,,,,,,,,,,0,10,10,10,0,0,0,0,,,,,,,,,,,,,,,,,,,,,,,,,,,,,,,stimuli/alien_stimuli/54.png,71.50529510015622,71.50529510015622,71.50529510015622,71.50529510015622,71.50529510015622,0,0,return,0.31551930005662143,0,0,0,0.08,0,return,0.14117889991030097,,,,,,,,,,,A,train_y,red_square,top_left,2024-11-07_15h39.51.238,HideSeek_v1,2022.2.5,60.066192973183675,
11,3,5,7,3,4,-2,54,72,test_exp,train_2D_repeat,0,,,,,,,,,,,,,,,,,,,,,0,10,10,10,,,,,,,,,,,,,,,,,,,,,,,,,,,,,,,,,,,,,,,,,,,,,,,,,,,,71.70868510007858,72.90815740008838,stimuli/alien_stimuli/14.png,14,2,11,,,,,A,train_y,red_square,top_left,2024-11-07_15h39.51.238,HideSeek_v1,2022.2.5,60.066192973183675,
12,2,8,3,8,1,0,26,72,test_exp,train_1D_sec_new,0,,,,,,,,,,,,,,,,,,,,,0,11,11,11,0,0,0,0,,,,,,,,,,,,,,,,,,,,,,,,,,,,,,,stimuli/alien_stimuli/26.png,72.90815740008838,72.90815740008838,72.90815740008838,72.90815740008838,72.90815740008838,0,0,return,0.3183059999719262,0,0,0,0,0.24,return,0.1162302999291569,,,,,,,,,,,A,train_y,red_square,top_left,2024-11-07_15h39.51.238,HideSeek_v1,2022.2.5,60.066192973183675,
12,2,8,3,8,1,0,26,72,test_exp,train_1D_sec_new,0,,,,,,,,,,,,,,,,,,,,,0,11,11,11,,,,,,,,,,,,,,,,,,,,,,,,,,,,,,,,,,,,,,,,,,,,,,,,,,,,73.10856100008823,74.30744200013578,stimuli/alien_stimuli/14.png,14,2,12,,,,,A,train_y,red_square,top_left,2024-11-07_15h39.51.238,HideSeek_v1,2022.2.5,60.066192973183675,
13,1,7,1,3,0,-4,12,72,test_exp,train_1D_first_new,0,,,,,,,,,,,,,,,,,,,,,0,12,12,12,0,0,0,0,,,,,,,,,,,,,,,,,,,,,,,,,,,,,,,stimuli/alien_stimuli/12.png,74.30744200013578,74.30744200013578,74.30744200013578,74.30744200013578,74.30744200013578,0,0,return,0.2454724998679012,0,0,0,-0.08,0.16,return,0.04327919986099005,,,,,,,,,,,A,train_y,red_square,top_left,2024-11-07_15h39.51.238,HideSeek_v1,2022.2.5,60.066192973183675,
13,1,7,1,3,0,-4,12,72,test_exp,train_1D_first_new,0,,,,,,,,,,,,,,,,,,,,,0,12,12,12,,,,,,,,,,,,,,,,,,,,,,,,,,,,,,,,,,,,,,,,,,,,,,,,,,,,74.4241112000309,75.6079016001895,stimuli/alien_stimuli/14.png,14,2,13,,,,,A,train_y,red_square,top_left,2024-11-07_15h39.51.238,HideSeek_v1,2022.2.5,60.066192973183675,
14,2,8,5,8,3,0,46,72,test_exp,untrained_1D_sec_leftout,0,,,,,,,,,,,,,,,,,,,,,0,13,13,13,0,0,0,0,,,,,,,,,,,,,,,,,,,,,,,,,,,,,,,stimuli/alien_stimuli/46.png,75.6079016001895,75.6079016001895,75.6079016001895,75.6079016001895,75.6079016001895,0,0,return,0.23490119981579483,0,0,0,0,0.24,return,0.03409339999780059,,,,,,,,,,,A,train_y,red_square,top_left,2024-11-07_15h39.51.238,HideSeek_v1,2022.2.5,60.066192973183675,
14,2,8,5,8,3,0,46,72,test_exp,untrained_1D_sec_leftout,0,,,,,,,,,,,,,,,,,,,,,0,13,13,13,,,,,,,,,,,,,,,,,,,,,,,,,,,,,,,,,,,,,,,,,,,,,,,,,,,,75.72418750007637,76.94226280017756,stimuli/alien_stimuli/14.png,14,2,14,,,,,A,train_y,red_square,top_left,2024-11-07_15h39.51.238,HideSeek_v1,2022.2.5,60.066192973183675,
15,2,9,2,9,0,0,16,72,test_exp,train_1D_sec_repeat,0,,,,,,,,,,,,,,,,,,,,,0,14,14,14,0,0,0,0,,,,,,,,,,,,,,,,,,,,,,,,,,,,,,,stimuli/alien_stimuli/16.png,76.94226280017756,76.94226280017756,76.94226280017756,76.94226280017756,76.94226280017756,0,0,return,0.38565620011650026,1,0,1,0,0.32,return,0.16216689976863563,,,,,,,,,,,A,train_y,red_square,top_left,2024-11-07_15h39.51.238,HideSeek_v1,2022.2.5,60.066192973183675,
15,2,9,2,9,0,0,16,72,test_exp,train_1D_sec_repeat,0,,,,,,,,,,,,,,,,,,,,,0,14,14,14,,,,,,,,,,,,,,,,,,,,,,,,,,,,,,,,,,,,,,,,,,,,,,,,,,,,77.1739547001198,78.35837790020742,stimuli/alien_stimuli/14.png,14,2,15,,,,,A,train_y,red_square,top_left,2024-11-07_15h39.51.238,HideSeek_v1,2022.2.5,60.066192973183675,
16,1,9,3,8,2,-1,35,72,test_exp,untrained,0,,,,,,,,,,,,,,,,,,,,,0,15,15,15,0,0,0,0,,,,,,,,,,,,,,,,,,,,,,,,,,,,,,,stimuli/alien_stimuli/35.png,78.35837790020742,78.35837790020742,78.35837790020742,78.35837790020742,78.35837790020742,0,0,return,0.40067890007048845,1,0,0,-0.08,0.32,return,0.22809899970889091,,,,,,,,,,,A,train_y,red_square,top_left,2024-11-07_15h39.51.238,HideSeek_v1,2022.2.5,60.066192973183675,
16,1,9,3,8,2,-1,35,72,test_exp,untrained,0,,,,,,,,,,,,,,,,,,,,,0,15,15,15,,,,,,,,,,,,,,,,,,,,,,,,,,,,,,,,,,,,,,,,,,,,,,,,,,,,78.6405759002082,79.84159660013393,stimuli/alien_stimuli/14.png,14,2,16,,,,,A,train_y,red_square,top_left,2024-11-07_15h39.51.238,HideSeek_v1,2022.2.5,60.066192973183675,
17,3,7,8,3,5,-4,62,72,test_exp,untrained,0,,,,,,,,,,,,,,,,,,,,,0,16,16,16,0,0,0,0,,,,,,,,,,,,,,,,,,,,,,,,,,,,,,,stimuli/alien_stimuli/62.png,79.84159660013393,79.84159660013393,79.84159660013393,79.84159660013393,79.84159660013393,0,0,return,0.41756569989956915,1,0,0,0.08,0.16,return,0.21580089977942407,,,,,,,,,,,A,train_y,red_square,top_left,2024-11-07_15h39.51.238,HideSeek_v1,2022.2.5,60.066192973183675,
17,3,7,8,3,5,-4,62,72,test_exp,untrained,0,,,,,,,,,,,,,,,,,,,,,0,16,16,16,,,,,,,,,,,,,,,,,,,,,,,,,,,,,,,,,,,,,,,,,,,,,,,,,,,,80.12389620020986,81.30762390000746,stimuli/alien_stimuli/14.png,14,2,17,,,,,A,train_y,red_square,top_left,2024-11-07_15h39.51.238,HideSeek_v1,2022.2.5,60.066192973183675,
18,3,9,7,5,4,-4,52,72,test_exp,untrained,1,,,,,,,,,,,,,,,,,,,,,0,17,17,17,0,0,0,0,,,,,,,,,,,,,,,,,,,,,,,,,,,,,,,stimuli/alien_stimuli/52.png,81.30762390000746,81.30762390000746,81.30762390000746,81.30762390000746,81.30762390000746,0,0,return,0.3858562000095844,1,0,0,0.08,0.32,return,0.18373629986308515,,,,,,,,,,,A,train_y,red_square,top_left,2024-11-07_15h39.51.238,HideSeek_v1,2022.2.5,60.066192973183675,
1,2,9,2,7,0,-2,14,72,test_exp,train_1D_first_new,0,,,,,,,,,,,,,,,,,,,,,0,17,17,17,,,,,0,0,0,0,,,,,,,,,,,,,,,,,,,,,,,,,,,,,,,,,,,,,,,,,,,,81.5741502000019,82.64072210015729,,,,,82.64072210015729,82.64072210015729,space,2.2262615996878594,A,train_y,red_square,top_left,2024-11-07_15h39.51.238,HideSeek_v1,2022.2.5,60.066192973183675,
2,4,6,7,2,3,-4,42,72,test_exp,untrained,0,,,,,,,,,,,,,,,,,,,,,0,17,17,17,,,,,0,1,1,1,,,,,,,,,,,,,,,,,,,,,,,,,,,,,,,,,,,,,,,,,,,,,,,,,,84.89167560008354,84.89167560008354,space,0.27337519987486303,A,train_y,red_square,top_left,2024-11-07_15h39.51.238,HideSeek_v1,2022.2.5,60.066192973183675,
3,1,6,4,5,3,-1,45,72,test_exp,untrained,0,,,,,,,,,,,,,,,,,,,,,0,17,17,17,,,,,0,2,2,2,,,,,,,,,,,,,,,,,,,,,,,,,,,,,,,,,,,,,,,,,,,,,,,,,,85.1911807002034,85.1911807002034,space,0.2312716997694224,A,train_y,red_square,top_left,2024-11-07_15h39.51.238,HideSeek_v1,2022.2.5,60.066192973183675,
4,0,5,0,4,0,-1,15,72,test_exp,train_1D_first_repeat,0,,,,,,,,,,,,,,,,,,,,,0,17,17,17,,,,,0,3,3,3,,,,,,,,,,,,,,,,,,,,,,,,,,,,,,,,,,,,,,,,,,,,,,,,,,85.43726160004735,85.43726160004735,space,0.18467009998857975,A,train_y,red_square,top_left,2024-11-07_15h39.51.238,HideSeek_v1,2022.2.5,60.066192973183675,
5,4,9,9,4,5,-5,61,72,test_exp,untrained,0,,,,,,,,,,,,,,,,,,,,,0,17,17,17,,,,,0,4,4,4,,,,,,,,,,,,,,,,,,,,,,,,,,,,,,,,,,,,,,,,,,,,,,,,,,85.64124070014805,85.64124070014805,space,0.1586368998978287,A,train_y,red_square,top_left,2024-11-07_15h39.51.238,HideSeek_v1,2022.2.5,60.066192973183675,
6,0,7,5,4,5,-3,63,72,test_exp,untrained,0,,,,,,,,,,,,,,,,,,,,,0,17,17,17,,,,,0,5,5,5,,,,,,,,,,,,,,,,,,,,,,,,,,,,,,,,,,,,,,,,,,,,,,,,,,85.82473460002802,85.82473460002802,space,0.19682499999180436,A,train_y,red_square,top_left,2024-11-07_15h39.51.238,HideSeek_v1,2022.2.5,60.066192973183675,
7,4,5,6,0,2,-5,31,72,test_exp,untrained,0,,,,,,,,,,,,,,,,,,,,,0,17,17,17,,,,,0,6,6,6,,,,,,,,,,,,,,,,,,,,,,,,,,,,,,,,,,,,,,,,,,,,,,,,,,86.04174740007147,86.04174740007147,space,1.45294119999744,A,train_y,red_square,top_left,2024-11-07_15h39.51.238,HideSeek_v1,2022.2.5,60.066192973183675,
8,2,6,5,3,3,-3,43,72,test_exp,train_2D_repeat,0,,,,,,,,,,,,,,,,,,,,,0,17,17,17,,,,,0,7,7,7,,,,,,,,,,,,,,,,,,,,,,,,,,,,,,,,,,,,,,,,,,,,,,,,,,87.54102120012976,87.54102120012976,space,0.12472229986451566,A,train_y,red_square,top_left,2024-11-07_15h39.51.238,HideSeek_v1,2022.2.5,60.066192973183675,
9,4,8,8,3,4,-5,51,72,test_exp,untrained,0,,,,,,,,,,,,,,,,,,,,,0,17,17,17,,,,,0,8,8,8,,,,,,,,,,,,,,,,,,,,,,,,,,,,,,,,,,,,,,,,,,,,,,,,,,87.69130830001086,87.69130830001086,space,0.0988733998965472,A,train_y,red_square,top_left,2024-11-07_15h39.51.238,HideSeek_v1,2022.2.5,60.066192973183675,
10,1,5,2,0,1,-5,21,72,test_exp,train_2D_repeat,0,,,,,,,,,,,,,,,,,,,,,0,17,17,17,,,,,0,9,9,9,,,,,,,,,,,,,,,,,,,,,,,,,,,,,,,,,,,,,,,,,,,,,,,,,,87.80671620019712,87.80671620019712,space,1.3913677998352796,A,train_y,red_square,top_left,2024-11-07_15h39.51.238,HideSeek_v1,2022.2.5,60.066192973183675,
11,3,5,7,3,4,-2,54,72,test_exp,train_2D_repeat,0,,,,,,,,,,,,,,,,,,,,,0,17,17,17,,,,,0,10,10,10,,,,,,,,,,,,,,,,,,,,,,,,,,,,,,,,,,,,,,,,,,,,,,,,,,89.2230322000105,89.2230322000105,space,0.16291049984283745,A,train_y,red_square,top_left,2024-11-07_15h39.51.238,HideSeek_v1,2022.2.5,60.066192973183675,
12,2,8,3,8,1,0,26,72,test_exp,train_1D_sec_new,0,,,,,,,,,,,,,,,,,,,,,0,17,17,17,,,,,0,11,11,11,,,,,,,,,,,,,,,,,,,,,,,,,,,,,,,,,,,,,,,,,,,,,,,,,,89.40393360005692,89.40393360005692,space,0.10519319982267916,A,train_y,red_square,top_left,2024-11-07_15h39.51.238,HideSeek_v1,2022.2.5,60.066192973183675,
13,1,7,1,3,0,-4,12,72,test_exp,train_1D_first_new,0,,,,,,,,,,,,,,,,,,,,,0,17,17,17,,,,,0,12,12,12,,,,,,,,,,,,,,,,,,,,,,,,,,,,,,,,,,,,,,,,,,,,,,,,,,89.54084810009226,89.54084810009226,space,0.08473329991102219,A,train_y,red_square,top_left,2024-11-07_15h39.51.238,HideSeek_v1,2022.2.5,60.066192973183675,
14,2,8,5,8,3,0,46,72,test_exp,untrained_1D_sec_leftout,0,,,,,,,,,,,,,,,,,,,,,0,17,17,17,,,,,0,13,13,13,,,,,,,,,,,,,,,,,,,,,,,,,,,,,,,,,,,,,,,,,,,,,,,,,,89.65779470000416,89.65779470000416,space,0.08887599990703166,A,train_y,red_square,top_left,2024-11-07_15h39.51.238,HideSeek_v1,2022.2.5,60.066192973183675,
15,2,9,2,9,0,0,16,72,test_exp,train_1D_sec_repeat,0,,,,,,,,,,,,,,,,,,,,,0,17,17,17,,,,,0,14,14,14,,,,,,,,,,,,,,,,,,,,,,,,,,,,,,,,,,,,,,,,,,,,,,,,,,89.77439310005866,89.77439310005866,space,0.7688883999362588,A,train_y,red_square,top_left,2024-11-07_15h39.51.238,HideSeek_v1,2022.2.5,60.066192973183675,
16,1,9,3,8,2,-1,35,72,test_exp,untrained,0,,,,,,,,,,,,,,,,,,,,,0,17,17,17,,,,,0,15,15,15,,,,,,,,,,,,,,,,,,,,,,,,,,,,,,,,,,,,,,,,,,,,,,,,,,90.57408550009131,90.57408550009131,space,0.15263710008002818,A,train_y,red_square,top_left,2024-11-07_15h39.51.238,HideSeek_v1,2022.2.5,60.066192973183675,
17,3,7,8,3,5,-4,62,72,test_exp,untrained,0,,,,,,,,,,,,,,,,,,,,,0,17,17,17,,,,,0,16,16,16,,,,,,,,,,,,,,,,,,,,,,,,,,,,,,,,,,,,,,,,,,,,,,,,,,90.77440460002981,90.77440460002981,space,0.07765789981931448,A,train_y,red_square,top_left,2024-11-07_15h39.51.238,HideSeek_v1,2022.2.5,60.066192973183675,
18,3,9,7,5,4,-4,52,72,test_exp,untrained,1,,,,,,,,,,,,,,,,,,,,,0,17,17,17,,,,,0,17,17,17,,,,,,,,,,,,,,,,,,,,,,,,,,,,,,,,,,,,,,,,,,,,,,,,,,90.87086480017751,90.87086480017751,space,0.29014309984631836,A,train_y,red_square,top_left,2024-11-07_15h39.51.238,HideSeek_v1,2022.2.5,60.066192973183675,
19,2,5,7,3,5,-2,64,72,test_exp,untrained,0,,,,,,,,,,,,,,,,,,,,,0,17,17,17,,,,,0,18,18,18,,,,,,,,,,,,,,,,,,,,,,,,,,,,,,,,,,,,,,,,,,,,,,,,,,91.19122470007278,91.19122470007278,space,0.14270679978653789,A,train_y,red_square,top_left,2024-11-07_15h39.51.238,HideSeek_v1,2022.2.5,60.066192973183675,
20,3,8,3,5,0,-3,13,72,test_exp,untrained_1D_first_leftout,0,,,,,,,,,,,,,,,,,,,,,0,17,17,17,,,,,0,19,19,19,,,,,,,,,,,,,,,,,,,,,,,,,,,,,,,,,,,,,,,,,,,,,,,,,,91.35664270003326,91.35664270003326,space,0.1448057999368757,A,train_y,red_square,top_left,2024-11-07_15h39.51.238,HideSeek_v1,2022.2.5,60.066192973183675,
21,3,5,4,4,1,-1,25,72,test_exp,untrained,0,,,,,,,,,,,,,,,,,,,,,0,17,17,17,,,,,0,20,20,20,,,,,,,,,,,,,,,,,,,,,,,,,,,,,,,,,,,,,,,,,,,,,,,,,,91.52211690018885,91.52211690018885,space,0.16323839989490807,A,train_y,red_square,top_left,2024-11-07_15h39.51.238,HideSeek_v1,2022.2.5,60.066192973183675,
22,1,5,3,1,2,-4,32,72,test_exp,train_2D_new,0,,,,,,,,,,,,,,,,,,,,,0,17,17,17,,,,,0,21,21,21,,,,,,,,,,,,,,,,,,,,,,,,,,,,,,,,,,,,,,,,,,,,,,,,,,91.72411080007441,91.72411080007441,space,0.2049626000225544,A,train_y,red_square,top_left,2024-11-07_15h39.51.238,HideSeek_v1,2022.2.5,60.066192973183675,
23,1,8,5,5,4,-3,53,72,test_exp,untrained,0,,,,,,,,,,,,,,,,,,,,,0,17,17,17,,,,,0,22,22,22,,,,,,,,,,,,,,,,,,,,,,,,,,,,,,,,,,,,,,,,,,,,,,,,,,91.95815610000864,91.95815610000864,space,0.1680806998629123,A,train_y,red_square,top_left,2024-11-07_15h39.51.238,HideSeek_v1,2022.2.5,60.066192973183675,
24,0,5,2,3,2,-2,34,72,test_exp,untrained,0,,,,,,,,,,,,,,,,,,,,,0,17,17,17,,,,,0,23,23,23,,,,,,,,,,,,,,,,,,,,,,,,,,,,,,,,,,,,,,,,,,,,,,,,,,92.1580060000997,92.1580060000997,space,0.13359919982030988,A,train_y,red_square,top_left,2024-11-07_15h39.51.238,HideSeek_v1,2022.2.5,60.066192973183675,
25,0,7,5,7,5,0,66,72,test_exp,train_1D_sec_repeat,0,,,,,,,,,,,,,,,,,,,,,0,17,17,17,,,,,0,24,24,24,,,,,,,,,,,,,,,,,,,,,,,,,,,,,,,,,,,,,,,,,,,,,,,,,,92.30609410000034,92.30609410000034,space,1.1325999998953193,A,train_y,red_square,top_left,2024-11-07_15h39.51.238,HideSeek_v1,2022.2.5,60.066192973183675,
26,0,8,0,3,0,-5,11,72,test_exp,train_1D_first_new,0,,,,,,,,,,,,,,,,,,,,,0,17,17,17,,,,,0,25,25,25,,,,,,,,,,,,,,,,,,,,,,,,,,,,,,,,,,,,,,,,,,,,,,,,,,93.47422190010548,93.47422190010548,space,0.16872969991527498,A,train_y,red_square,top_left,2024-11-07_15h39.51.238,HideSeek_v1,2022.2.5,60.066192973183675,
27,1,5,2,2,1,-3,23,72,test_exp,untrained,0,,,,,,,,,,,,,,,,,,,,,0,17,17,17,,,,,0,26,26,26,,,,,,,,,,,,,,,,,,,,,,,,,,,,,,,,,,,,,,,,,,,,,,,,,,93.67544040014036,93.67544040014036,space,0.13060819986276329,A,train_y,red_square,top_left,2024-11-07_15h39.51.238,HideSeek_v1,2022.2.5,60.066192973183675,
28,4,7,7,2,3,-5,41,72,test_exp,untrained,0,,,,,,,,,,,,,,,,,,,,,0,17,17,17,,,,,0,27,27,27,,,,,,,,,,,,,,,,,,,,,,,,,,,,,,,,,,,,,,,,,,,,,,,,,,93.82233900018036,93.82233900018036,space,0.1450362999457866,A,train_y,red_square,top_left,2024-11-07_15h39.51.238,HideSeek_v1,2022.2.5,60.066192973183675,
29,3,6,4,4,1,-2,24,72,test_exp,untrained,0,,,,,,,,,,,,,,,,,,,,,0,17,17,17,,,,,0,28,28,28,,,,,,,,,,,,,,,,,,,,,,,,,,,,,,,,,,,,,,,,,,,,,,,,,,94.0076560000889,94.0076560000889,space,0.18625489994883537,A,train_y,red_square,top_left,2024-11-07_15h39.51.238,HideSeek_v1,2022.2.5,60.066192973183675,
30,4,5,5,1,1,-4,22,72,test_exp,untrained,0,,,,,,,,,,,,,,,,,,,,,0,17,17,17,,,,,0,29,29,29,,,,,,,,,,,,,,,,,,,,,,,,,,,,,,,,,,,,,,,,,,,,,,,,,,94.22053630021401,94.22053630021401,space,0.650627400027588,A,train_y,red_square,top_left,2024-11-07_15h39.51.238,HideSeek_v1,2022.2.5,60.066192973183675,
31,0,7,4,6,4,-1,55,72,test_exp,untrained,0,,,,,,,,,,,,,,,,,,,,,0,17,17,17,,,,,0,30,30,30,,,,,,,,,,,,,,,,,,,,,,,,,,,,,,,,,,,,,,,,,,,,,,,,,,94.89128380012698,94.89128380012698,space,0.15078989998437464,A,train_y,red_square,top_left,2024-11-07_15h39.51.238,HideSeek_v1,2022.2.5,60.066192973183675,
32,4,8,9,7,5,-1,65,72,test_exp,train_2D_repeat,0,,,,,,,,,,,,,,,,,,,,,0,17,17,17,,,,,0,31,31,31,,,,,,,,,,,,,,,,,,,,,,,,,,,,,,,,,,,,,,,,,,,,,,,,,,95.07424660003744,95.07424660003744,space,0.11866959976032376,A,train_y,red_square,top_left,2024-11-07_15h39.51.238,HideSeek_v1,2022.2.5,60.066192973183675,
33,0,9,3,7,3,-2,44,72,test_exp,untrained,0,,,,,,,,,,,,,,,,,,,,,0,17,17,17,,,,,0,32,32,32,,,,,,,,,,,,,,,,,,,,,,,,,,,,,,,,,,,,,,,,,,,,,,,,,,95.22457300010137,95.22457300010137,space,2.183738399995491,A,train_y,red_square,top_left,2024-11-07_15h39.51.238,HideSeek_v1,2022.2.5,60.066192973183675,
34,2,5,6,5,4,0,56,72,test_exp,train_1D_sec_new,0,,,,,,,,,,,,,,,,,,,,,0,17,17,17,,,,,0,33,33,33,,,,,,,,,,,,,,,,,,,,,,,,,,,,,,,,,,,,,,,,,,,,,,,,,,97.45821230020374,97.45821230020374,space,0.13244590000249445,A,train_y,red_square,top_left,2024-11-07_15h39.51.238,HideSeek_v1,2022.2.5,60.066192973183675,
35,2,8,4,8,2,0,36,72,test_exp,train_1D_sec_new,0,,,,,,,,,,,,,,,,,,,,,0,17,17,17,,,,,0,34,34,34,,,,,,,,,,,,,,,,,,,,,,,,,,,,,,,,,,,,,,,,,,,,,,,,,,97.60860660020262,97.60860660020262,space,0.11814109981060028,A,train_y,red_square,top_left,2024-11-07_15h39.51.238,HideSeek_v1,2022.2.5,60.066192973183675,
36,3,9,5,6,2,-3,33,72,test_exp,untrained,1,,,,,,,,,,,,,,,,,,,,,0,17,17,17,,,,,0,35,35,35,,,,,,,,,,,,,,,,,,,,,,,,,,,,,,,,,,,,,,,,,,,,,,,,,,97.7542602000758,97.7542602000758,space,0.11525909975171089,A,train_y,red_square,top_left,2024-11-07_15h39.51.238,HideSeek_v1,2022.2.5,60.066192973183675,
37,2,8,2,6,0,-2,14,72,test_exp,train_1D_first_repeat,0,,,,,,,,,,,,,,,,,,,,,0,17,17,17,,,,,0,36,36,36,,,,,,,,,,,,,,,,,,,,,,,,,,,,,,,,,,,,,,,,,,,,,,,,,,97.89121800009161,97.89121800009161,space,1.687007299857214,A,train_y,red_square,top_left,2024-11-07_15h39.51.238,HideSeek_v1,2022.2.5,60.066192973183675,
38,0,6,5,6,5,0,66,72,test_exp,train_1D_sec_new,0,,,,,,,,,,,,,,,,,,,,,0,17,17,17,,,,,0,37,37,37,,,,,,,,,,,,,,,,,,,,,,,,,,,,,,,,,,,,,,,,,,,,,,,,,,99.60824740002863,99.60824740002863,space,0.15846789977513254,A,train_y,red_square,top_left,2024-11-07_15h39.51.238,HideSeek_v1,2022.2.5,60.066192973183675,
39,1,6,5,3,4,-3,53,72,test_exp,untrained,0,,,,,,,,,,,,,,,,,,,,,0,17,17,17,,,,,0,38,38,38,,,,,,,,,,,,,,,,,,,,,,,,,,,,,,,,,,,,,,,,,,,,,,,,,,99.79179350007325,99.79179350007325,space,0.11914679990150034,A,train_y,red_square,top_left,2024-11-07_15h39.51.238,HideSeek_v1,2022.2.5,60.066192973183675,
40,1,7,3,6,2,-1,35,72,test_exp,untrained,0,,,,,,,,,,,,,,,,,,,,,0,17,17,17,,,,,0,39,39,39,,,,,,,,,,,,,,,,,,,,,,,,,,,,,,,,,,,,,,,,,,,,,,,,,,99.94097120012157,99.94097120012157,space,0.11047059972770512,A,train_y,red_square,top_left,2024-11-07_15h39.51.238,HideSeek_v1,2022.2.5,60.066192973183675,
41,3,5,6,5,3,0,46,72,test_exp,untrained_1D_sec_leftout,0,,,,,,,,,,,,,,,,,,,,,0,17,17,17,,,,,0,40,40,40,,,,,,,,,,,,,,,,,,,,,,,,,,,,,,,,,,,,,,,,,,,,,,,,,,100.07437190017663,100.07437190017663,space,1.006814599968493,A,train_y,red_square,top_left,2024-11-07_15h39.51.238,HideSeek_v1,2022.2.5,60.066192973183675,
42,2,7,3,3,1,-4,22,72,test_exp,untrained,0,,,,,,,,,,,,,,,,,,,,,0,17,17,17,,,,,0,41,41,41,,,,,,,,,,,,,,,,,,,,,,,,,,,,,,,,,,,,,,,,,,,,,,,,,,101.1080140999984,101.1080140999984,space,0.13221159996464849,A,train_y,red_square,top_left,2024-11-07_15h39.51.238,HideSeek_v1,2022.2.5,60.066192973183675,
43,3,8,7,8,4,0,56,72,test_exp,train_1D_sec_repeat,0,,,,,,,,,,,,,,,,,,,,,0,17,17,17,,,,,0,42,42,42,,,,,,,,,,,,,,,,,,,,,,,,,,,,,,,,,,,,,,,,,,,,,,,,,,101.25510140019469,101.25510140019469,space,0.13109239982441068,A,train_y,red_square,top_left,2024-11-07_15h39.51.238,HideSeek_v1,2022.2.5,60.066192973183675,
44,3,7,3,7,0,0,16,72,test_exp,train_1D_sec_new,0,,,,,,,,,,,,,,,,,,,,,0,17,17,17,,,,,0,43,43,43,,,,,,,,,,,,,,,,,,,,,,,,,,,,,,,,,,,,,,,,,,,,,,,,,,101.40806430019438,101.40806430019438,space,0.10628629988059402,A,train_y,red_square,top_left,2024-11-07_15h39.51.238,HideSeek_v1,2022.2.5,60.066192973183675,
45,0,5,4,3,4,-2,54,72,test_exp,train_2D_new,0,,,,,,,,,,,,,,,,,,,,,0,17,17,17,,,,,0,44,44,44,,,,,,,,,,,,,,,,,,,,,,,,,,,,,,,,,,,,,,,,,,,,,,,,,,101.55794950015843,101.55794950015843,space,0.6061335997655988,A,train_y,red_square,top_left,2024-11-07_15h39.51.238,HideSeek_v1,2022.2.5,60.066192973183675,
46,2,9,3,8,1,-1,25,72,test_exp,untrained,0,,,,,,,,,,,,,,,,,,,,,0,17,17,17,,,,,0,45,45,45,,,,,,,,,,,,,,,,,,,,,,,,,,,,,,,,,,,,,,,,,,,,,,,,,,102.19117040000856,102.19117040000856,space,0.13283579982817173,A,train_y,red_square,top_left,2024-11-07_15h39.51.238,HideSeek_v1,2022.2.5,60.066192973183675,
47,2,6,2,3,0,-3,13,72,test_exp,untrained_1D_first_leftout,0,,,,,,,,,,,,,,,,,,,,,0,17,17,17,,,,,0,46,46,46,,,,,,,,,,,,,,,,,,,,,,,,,,,,,,,,,,,,,,,,,,,,,,,,,,102.34250980010256,102.34250980010256,space,0.1167165997903794,A,train_y,red_square,top_left,2024-11-07_15h39.51.238,HideSeek_v1,2022.2.5,60.066192973183675,
48,0,6,0,2,0,-4,12,72,test_exp,train_1D_first_repeat,0,,,,,,,,,,,,,,,,,,,,,0,17,17,17,,,,,0,47,47,47,,,,,,,,,,,,,,,,,,,,,,,,,,,,,,,,,,,,,,,,,,,,,,,,,,102.48908850015141,102.48908850015141,space,1.261867499910295,A,train_y,red_square,top_left,2024-11-07_15h39.51.238,HideSeek_v1,2022.2.5,60.066192973183675,
49,3,6,8,2,5,-4,62,72,test_exp,untrained,0,,,,,,,,,,,,,,,,,,,,,0,17,17,17,,,,,0,48,48,48,,,,,,,,,,,,,,,,,,,,,,,,,,,,,,,,,,,,,,,,,,,,,,,,,,103.7708943001926,103.7708943001926,space,0.14962939987890422,A,train_y,red_square,top_left,2024-11-07_15h39.51.238,HideSeek_v1,2022.2.5,60.066192973183675,
50,3,5,8,0,5,-5,61,72,test_exp,untrained,0,,,,,,,,,,,,,,,,,,,,,0,17,17,17,,,,,0,49,49,49,,,,,,,,,,,,,,,,,,,,,,,,,,,,,,,,,,,,,,,,,,,,,,,,,,103.9408705001697,103.9408705001697,space,0.13023329991847277,A,train_y,red_square,top_left,2024-11-07_15h39.51.238,HideSeek_v1,2022.2.5,60.066192973183675,
51,1,8,4,5,3,-3,43,72,test_exp,train_2D_new,0,,,,,,,,,,,,,,,,,,,,,0,17,17,17,,,,,0,50,50,50,,,,,,,,,,,,,,,,,,,,,,,,,,,,,,,,,,,,,,,,,,,,,,,,,,104.0899946000427,104.0899946000427,space,0.13035689969547093,A,train_y,red_square,top_left,2024-11-07_15h39.51.238,HideSeek_v1,2022.2.5,60.066192973183675,
52,2,9,5,7,3,-2,44,72,test_exp,untrained,0,,,,,,,,,,,,,,,,,,,,,0,17,17,17,,,,,0,51,51,51,,,,,,,,,,,,,,,,,,,,,,,,,,,,,,,,,,,,,,,,,,,,,,,,,,104.25734740006737,104.25734740006737,space,0.11892849998548627,A,train_y,red_square,top_left,2024-11-07_15h39.51.238,HideSeek_v1,2022.2.5,60.066192973183675,
53,3,9,4,7,1,-2,24,72,test_exp,untrained,1,,,,,,,,,,,,,,,,,,,,,0,17,17,17,,,,,0,52,52,52,,,,,,,,,,,,,,,,,,,,,,,,,,,,,,,,,,,,,,,,,,,,,,,,,,104.42352360021323,104.42352360021323,space,0.07859600009396672,A,train_y,red_square,top_left,2024-11-07_15h39.51.238,HideSeek_v1,2022.2.5,60.066192973183675,
54,4,6,4,5,0,-1,15,72,test_exp,train_1D_first_new,0,,,,,,,,,,,,,,,,,,,,,0,17,17,17,,,,,0,53,53,53,,,,,,,,,,,,,,,,,,,,,,,,,,,,,,,,,,,,,,,,,,,,,,,,,,104.52153170015663,104.52153170015663,space,1.8176694000139832,A,train_y,red_square,top_left,2024-11-07_15h39.51.238,HideSeek_v1,2022.2.5,60.066192973183675,
55,4,7,6,5,2,-2,34,72,test_exp,untrained,0,,,,,,,,,,,,,,,,,,,,,0,17,17,17,,,,,0,54,54,54,,,,,,,,,,,,,,,,,,,,,,,,,,,,,,,,,,,,,,,,,,,,,,,,,,106.3742340002209,106.3742340002209,space,0.13759329984895885,A,train_y,red_square,top_left,2024-11-07_15h39.51.238,HideSeek_v1,2022.2.5,60.066192973183675,
56,1,9,3,6,2,-3,33,72,test_exp,untrained,0,,,,,,,,,,,,,,,,,,,,,0,17,17,17,,,,,0,55,55,55,,,,,,,,,,,,,,,,,,,,,,,,,,,,,,,,,,,,,,,,,,,,,,,,,,106.54151020012796,106.54151020012796,space,0.11463149986229837,A,train_y,red_square,top_left,2024-11-07_15h39.51.238,HideSeek_v1,2022.2.5,60.066192973183675,
57,2,7,5,6,3,-1,45,72,test_exp,untrained,0,,,,,,,,,,,,,,,,,,,,,0,17,17,17,,,,,0,56,56,56,,,,,,,,,,,,,,,,,,,,,,,,,,,,,,,,,,,,,,,,,,,,,,,,,,106.67073050001636,106.67073050001636,space,0.11044309986755252,A,train_y,red_square,top_left,2024-11-07_15h39.51.238,HideSeek_v1,2022.2.5,60.066192973183675,
58,1,7,5,6,4,-1,55,72,test_exp,untrained,0,,,,,,,,,,,,,,,,,,,,,0,17,17,17,,,,,0,57,57,57,,,,,,,,,,,,,,,,,,,,,,,,,,,,,,,,,,,,,,,,,,,,,,,,,,106.80746850022115,106.80746850022115,space,2.663468799786642,A,train_y,red_square,top_left,2024-11-07_15h39.51.238,HideSeek_v1,2022.2.5,60.066192973183675,
59,2,6,4,1,2,-5,31,72,test_exp,untrained,0,,,,,,,,,,,,,,,,,,,,,0,17,17,17,,,,,0,58,58,58,,,,,,,,,,,,,,,,,,,,,,,,,,,,,,,,,,,,,,,,,,,,,,,,,,109.48888520011678,109.48888520011678,space,0.14738079975359142,A,train_y,red_square,top_left,2024-11-07_15h39.51.238,HideSeek_v1,2022.2.5,60.066192973183675,
60,1,6,6,3,5,-3,63,72,test_exp,untrained,0,,,,,,,,,,,,,,,,,,,,,0,17,17,17,,,,,0,59,59,59,,,,,,,,,,,,,,,,,,,,,,,,,,,,,,,,,,,,,,,,,,,,,,,,,,109.65613960009068,109.65613960009068,space,0.1356844997499138,A,train_y,red_square,top_left,2024-11-07_15h39.51.238,HideSeek_v1,2022.2.5,60.066192973183675,
61,0,7,5,6,5,-1,65,72,test_exp,train_2D_new,0,,,,,,,,,,,,,,,,,,,,,0,17,17,17,,,,,0,60,60,60,,,,,,,,,,,,,,,,,,,,,,,,,,,,,,,,,,,,,,,,,,,,,,,,,,109.82151550007984,109.82151550007984,space,0.12069589970633388,A,train_y,red_square,top_left,2024-11-07_15h39.51.238,HideSeek_v1,2022.2.5,60.066192973183675,
62,0,6,1,1,1,-5,21,72,test_exp,train_2D_new,0,,,,,,,,,,,,,,,,,,,,,0,17,17,17,,,,,0,61,61,61,,,,,,,,,,,,,,,,,,,,,,,,,,,,,,,,,,,,,,,,,,,,,,,,,,109.97370560001582,109.97370560001582,space,0.12053759978152812,A,train_y,red_square,top_left,2024-11-07_15h39.51.238,HideSeek_v1,2022.2.5,60.066192973183675,
63,4,9,8,5,4,-4,52,72,test_exp,untrained,0,,,,,,,,,,,,,,,,,,,,,0,17,17,17,,,,,0,62,62,62,,,,,,,,,,,,,,,,,,,,,,,,,,,,,,,,,,,,,,,,,,,,,,,,,,110.12454300001264,110.12454300001264,space,0.11207179981283844,A,train_y,red_square,top_left,2024-11-07_15h39.51.238,HideSeek_v1,2022.2.5,60.066192973183675,
64,2,8,5,3,3,-5,41,72,test_exp,untrained,0,,,,,,,,,,,,,,,,,,,,,0,17,17,17,,,,,0,63,63,63,,,,,,,,,,,,,,,,,,,,,,,,,,,,,,,,,,,,,,,,,,,,,,,,,,110.25492880004458,110.25492880004458,space,0.11058009974658489,A,train_y,red_square,top_left,2024-11-07_15h39.51.238,HideSeek_v1,2022.2.5,60.066192973183675,
65,4,9,5,9,1,0,26,72,test_exp,train_1D_sec_repeat,0,,,,,,,,,,,,,,,,,,,,,0,17,17,17,,,,,0,64,64,64,,,,,,,,,,,,,,,,,,,,,,,,,,,,,,,,,,,,,,,,,,,,,,,,,,110.39127200003713,110.39127200003713,space,8.620566699886695,A,train_y,red_square,top_left,2024-11-07_15h39.51.238,HideSeek_v1,2022.2.5,60.066192973183675,
66,3,7,4,4,1,-3,23,72,test_exp,untrained,0,,,,,,,,,,,,,,,,,,,,,0,17,17,17,,,,,0,65,65,65,,,,,,,,,,,,,,,,,,,,,,,,,,,,,,,,,,,,,,,,,,,,,,,,,,119.04110430018045,119.04110430018045,space,0.11744779977016151,A,train_y,red_square,top_left,2024-11-07_15h39.51.238,HideSeek_v1,2022.2.5,60.066192973183675,
67,3,8,3,3,0,-5,11,72,test_exp,train_1D_first_repeat,0,,,,,,,,,,,,,,,,,,,,,0,17,17,17,,,,,0,66,66,66,,,,,,,,,,,,,,,,,,,,,,,,,,,,,,,,,,,,,,,,,,,,,,,,,,119.19149870006368,119.19149870006368,space,5.396307899849489,A,train_y,red_square,top_left,2024-11-07_15h39.51.238,HideSeek_v1,2022.2.5,60.066192973183675,
68,3,8,8,6,5,-2,64,72,test_exp,untrained,0,,,,,,,,,,,,,,,,,,,,,0,17,17,17,,,,,0,67,67,67,,,,,,,,,,,,,,,,,,,,,,,,,,,,,,,,,,,,,,,,,,,,,,,,,,124.62367920018733,124.62367920018733,space,0.10390819981694221,A,train_y,red_square,top_left,2024-11-07_15h39.51.238,HideSeek_v1,2022.2.5,60.066192973183675,
,,,,,,,,,,,,,,,,,,,,,,,,,,,,,,,,,,,,,,,,,,,,,,,,,,,,,,,,,,,,,,,,,,,,,,,,,,,,,,,,,,,,,,,,,,,,,124.75348000018857,124.75348000018857,,,,,,,,,,,
