trialInstr,x_fixStart,y_fixStart,x_corrSteps,y_corrSteps,x_nrSteps,y_nrSteps,alienID,trialLength,version,trialTrain,praclen,testlen,trial_label,break_on_off,beforeExpLoop.thisRepN,beforeExpLoop.thisTrialN,beforeExpLoop.thisN,beforeExpLoop.thisIndex,mini_instr_trials.thisRepN,mini_instr_trials.thisTrialN,mini_instr_trials.thisN,mini_instr_trials.thisIndex,instrLoop.thisRepN,instrLoop.thisTrialN,instrLoop.thisN,instrLoop.thisIndex,repeat_prac.thisRepN,repeat_prac.thisTrialN,repeat_prac.thisN,repeat_prac.thisIndex,trainLoop.thisRepN,trainLoop.thisTrialN,trainLoop.thisN,trainLoop.thisIndex,moveLoop_train.thisRepN,moveLoop_train.thisTrialN,moveLoop_train.thisN,moveLoop_train.thisIndex,experiment.thisRepN,experiment.thisTrialN,experiment.thisN,experiment.thisIndex,moveLoop_test.thisRepN,moveLoop_test.thisTrialN,moveLoop_test.thisN,moveLoop_test.thisIndex,mini_instr2_trials.thisRepN,mini_instr2_trials.thisTrialN,mini_instr2_trials.thisN,mini_instr2_trials.thisIndex,start_all_time,url,slideStim,audioStim,slides.started,sounds.started,nextButton.numClicks,nextButton.timesOn,nextButton.timesOff,prev_but.numClicks,prev_but.timesOn,prev_but.timesOff,alienStim,instrFile,alienStim_instr,gridImage_instr.started,startPos_3.started,key_instr.started,alienImage_3.started,sounds_1.started,key_instr.keys,key_instr.rt,all_x,all_y,FBy_corrSteps,FBy_fixStart,FBx_corrSteps,FBx_fixStart,FBy_pathSize_check,FBx_pathSize_check,gridImage_9.started,alienImageFB_3.started,startPosFB_3.started,keyFB_3.started,pathLine_ydir_2.started,pathLine_xdir_2.started,alienFace_3.started,sounds_2.started,RTFB_instr,keyFB_3.keys,keyFB_3.rt,draw_alienStim,draw_alienID,test_x,nrepcount,perfthres,percthres,earlierperf,earlystop,nextPrac,fileidx,praclen,saveACC_train,pracFile,nextPrac_train,addNrep,fileidx_endr,repExp,showearly,gridImage_4.started,startPos.started,movePos.started,key_resp.started,alienImage.started,buttonPress_train,RTchoice_train,cumAcctrain,aCorr,saveACC_choice,corrAns,x_movePos_end,y_movePos_end,key_resp.keys,key_resp.rt,wLy_dir,wLx_dir,x_movePos,y_movePos,text_2.started,aft_x_corrPos,aft_y_corrPos,y_pathSize_check,x_pathSize_check,y_pathdirY,x_pathdirY,x_pathdirX,x_corrPos,y_corrPos,gridImage_6.started,alienImageFB_2.started,startPosFB_2.started,movePosFB_2.started,keyFB_2.started,pathLine_xdir.started,pathLine_ydir.started,alienFace.started,sounds_4.started,RT_FBtrain,keyFB_2.keys,keyFB_2.rt,text_2.stopped,saveACC_pre,ACC,within_saveACC_train,earlystop_wloop,cumAcctrain_check,gridImage_3.started,alienImage_test.started,startPos_test.started,movePos_test.started,key_resp_test.started,wLy_dir_test,wLx_dir_test,buttonPress_test,RTchoice_test,cumAcctest,corrAns_test,key_resp_test.keys,key_resp_test.rt,text_3.started,text_3.stopped,total_time,end_all_time,key_resp_3.keys,slides_2.started,sounds_3.started,nextButton_2.numClicks,nextButton_2.timesOn,nextButton_2.timesOff,prev_but_2.numClicks,prev_but_2.timesOn,prev_but_2.timesOff,bye.started,participant,train_first,00_coordinate,starting corner,date,expName,psychopyVersion,frameRate,
,,,,,,,,,,,,,,,0,0,0,0,0,0,0,0,,,,,,,,,,,,,,,,,,,,,,,,,,,,,start_all_time,testround,conditions/schedules/train_y_first/red_square_00/bottom_left/instructions/Slide1.png,conditions/schedules/train_y_first/red_square_00/bottom_left/instructions/Audio1.wav,2768.700992700178,2768.6449524619384,1,[5.56345529993996],[5.563464199891314],0,,,,,,,,,,,,,,,,,,,,,,,,,,,,,,,,,,,,,,,,,,,,,,,,,,,,,,,,,,,,,,,,,,,,,,,,,,,,,,,,,,,,,,,,,,,,,,,,,,,,,,,,,,,,,,,,,,,,,,,,,,,,AC2LAL,train_y,red_square,bottom_left,2025-07-25_15h48.36.533,HideSeek_v1,2022.2.5,59.972784380594234,
,,,,,,,,,,,,,,,0,0,0,0,1,0,1,0,,,,,,,,,,,,,,,,,,,,,,,,,,,,,,,conditions/schedules/train_y_first/red_square_00/bottom_left/instructions/Slide2.png,conditions/schedules/train_y_first/red_square_00/bottom_left/instructions/Audio2.wav,2774.286813599989,2774.286870000069,2,"[5.56345529993996, 11.168181099928916]","[0.03710399987176061, 11.168187699979171]",0,,,,,,,,,,,,,,,,,,,,,,,,,,,,,,,,,,,,,,,,,,,,,,,,,,,,,,,,,,,,,,,,,,,,,,,,,,,,,,,,,,,,,,,,,,,,,,,,,,,,,,,,,,,,,,,,,,,,,,,,,,,,AC2LAL,train_y,red_square,bottom_left,2025-07-25_15h48.36.533,HideSeek_v1,2022.2.5,59.972784380594234,
,,,,,,,,,,,,,,,0,0,0,0,2,0,2,0,,,,,,,,,,,,,,,,,,,,,,,,,,,,,,,conditions/schedules/train_y_first/red_square_00/bottom_left/instructions/Slide3.png,conditions/schedules/train_y_first/red_square_00/bottom_left/instructions/Audio3.wav,2785.5237559999805,2785.523803400225,3,"[5.56345529993996, 11.168181099928916, 17.612240500049666]","[0.03710399987176061, 0.037132800091058016, 17.612247199984267]",0,,,,,,,,,,,,,,,,,,,,,,,,,,,,,,,,,,,,,,,,,,,,,,,,,,,,,,,,,,,,,,,,,,,,,,,,,,,,,,,,,,,,,,,,,,,,,,,,,,,,,,,,,,,,,,,,,,,,,,,,,,,,AC2LAL,train_y,red_square,bottom_left,2025-07-25_15h48.36.533,HideSeek_v1,2022.2.5,59.972784380594234,
,,,,,,,,,,,,,,,0,0,0,0,3,0,3,0,,,,,,,,,,,,,,,,,,,,,,,,,,,,,,,conditions/schedules/train_y_first/red_square_00/bottom_left/instructions/Slide4.png,conditions/schedules/train_y_first/red_square_00/bottom_left/instructions/Audio4.wav,2803.219785600202,2803.2214583400637,4,"[5.56345529993996, 11.168181099928916, 17.612240500049666, 19.512325400020927]","[0.03710399987176061, 0.037132800091058016, 0.03261480014771223, 19.51233289996162]",0,,,,,,,,,,,,,,,,,,,,,,,,,,,,,,,,,,,,,,,,,,,,,,,,,,,,,,,,,,,,,,,,,,,,,,,,,,,,,,,,,,,,,,,,,,,,,,,,,,,,,,,,,,,,,,,,,,,,,,,,,,,,AC2LAL,train_y,red_square,bottom_left,2025-07-25_15h48.36.533,HideSeek_v1,2022.2.5,59.972784380594234,
,,,,,,,,,,,,,,,0,0,0,0,4,0,4,0,,,,,,,,,,,,,,,,,,,,,,,,,,,,,,,conditions/schedules/train_y_first/red_square_00/bottom_left/instructions/Slide5.png,conditions/schedules/train_y_first/red_square_00/bottom_left/instructions/Audio5.wav,2822.805131000001,2822.8000891000265,5,"[5.56345529993996, 11.168181099928916, 17.612240500049666, 19.512325400020927, 5.53141860011965]","[0.03710399987176061, 0.037132800091058016, 0.03261480014771223, 0.03634670004248619, 5.531425300054252]",0,,,,,,,,,,,,,,,,,,,,,,,,,,,,,,,,,,,,,,,,,,,,,,,,,,,,,,,,,,,,,,,,,,,,,,,,,,,,,,,,,,,,,,,,,,,,,,,,,,,,,,,,,,,,,,,,,,,,,,,,,,,,AC2LAL,train_y,red_square,bottom_left,2025-07-25_15h48.36.533,HideSeek_v1,2022.2.5,59.972784380594234,
,,,,,,,,,,,,,,,0,0,0,0,5,0,5,0,,,,,,,,,,,,,,,,,,,,,,,,,,,,,,,conditions/schedules/train_y_first/red_square_00/bottom_left/instructions/Slide6.png,conditions/schedules/train_y_first/red_square_00/bottom_left/instructions/Audio6.wav,2828.388236600207,2828.3890228602104,6,"[5.56345529993996, 11.168181099928916, 17.612240500049666, 19.512325400020927, 5.53141860011965, 5.186061900109053]","[0.03710399987176061, 0.037132800091058016, 0.03261480014771223, 0.03634670004248619, 0.10810890002176166, 5.186068300157785]",0,,,,,,,,,,,,,,,,,,,,,,,,,,,,,,,,,,,,,,,,,,,,,,,,,,,,,,,,,,,,,,,,,,,,,,,,,,,,,,,,,,,,,,,,,,,,,,,,,,,,,,,,,,,,,,,,,,,,,,,,,,,,AC2LAL,train_y,red_square,bottom_left,2025-07-25_15h48.36.533,HideSeek_v1,2022.2.5,59.972784380594234,
,,,,,,,,,,,,,,,0,0,0,0,6,0,6,0,,,,,,,,,,,,,,,,,,,,,,,,,,,,,,,conditions/schedules/train_y_first/red_square_00/bottom_left/instructions/Slide7.png,conditions/schedules/train_y_first/red_square_00/bottom_left/instructions/Audio7.wav,2833.625953000039,2833.626762860222,7,"[5.56345529993996, 11.168181099928916, 17.612240500049666, 19.512325400020927, 5.53141860011965, 5.186061900109053, 6.655167900025845]","[0.03710399987176061, 0.037132800091058016, 0.03261480014771223, 0.03634670004248619, 0.10810890002176166, 0.051149999955669045, 6.655174900079146]",0,,,,,,,,,,,,,,,,,,,,,,,,,,,,,,,,,,,,,,,,,,,,,,,,,,,,,,,,,,,,,,,,,,,,,,,,,,,,,,,,,,,,,,,,,,,,,,,,,,,,,,,,,,,,,,,,,,,,,,,,,,,,AC2LAL,train_y,red_square,bottom_left,2025-07-25_15h48.36.533,HideSeek_v1,2022.2.5,59.972784380594234,
,,,,,,,,,,,,,,,0,0,0,0,7,0,7,0,,,,,,,,,,,,,,,,,,,,,,,,,,,,,,,conditions/schedules/train_y_first/red_square_00/bottom_left/instructions/Slide8.png,conditions/schedules/train_y_first/red_square_00/bottom_left/instructions/Audio8.wav,2840.3570593001787,2840.3503539002268,8,"[5.56345529993996, 11.168181099928916, 17.612240500049666, 19.512325400020927, 5.53141860011965, 5.186061900109053, 6.655167900025845, 12.240693000145257]","[0.03710399987176061, 0.037132800091058016, 0.03261480014771223, 0.03634670004248619, 0.10810890002176166, 0.051149999955669045, 0.06060670013539493, 12.240699399961159]",0,,,,,,,,,,,,,,,,,,,,,,,,,,,,,,,,,,,,,,,,,,,,,,,,,,,,,,,,,,,,,,,,,,,,,,,,,,,,,,,,,,,,,,,,,,,,,,,,,,,,,,,,,,,,,,,,,,,,,,,,,,,,AC2LAL,train_y,red_square,bottom_left,2025-07-25_15h48.36.533,HideSeek_v1,2022.2.5,59.972784380594234,
,,,,,,,,,,,,,,,0,0,0,0,8,0,8,0,,,,,,,,,,,,,,,,,,,,,,,,,,,,,,,conditions/schedules/train_y_first/red_square_00/bottom_left/instructions/Slide9.png,conditions/schedules/train_y_first/red_square_00/bottom_left/instructions/Audio9.wav,2852.6648372001946,2852.6635640001623,9,"[5.56345529993996, 11.168181099928916, 17.612240500049666, 19.512325400020927, 5.53141860011965, 5.186061900109053, 6.655167900025845, 12.240693000145257, 6.096176499966532]","[0.03710399987176061, 0.037132800091058016, 0.03261480014771223, 0.03634670004248619, 0.10810890002176166, 0.051149999955669045, 0.06060670013539493, 0.03519849991425872, 6.096184299793094]",0,,,,,,,,,,,,,,,,,,,,,,,,,,,,,,,,,,,,,,,,,,,,,,,,,,,,,,,,,,,,,,,,,,,,,,,,,,,,,,,,,,,,,,,,,,,,,,,,,,,,,,,,,,,,,,,,,,,,,,,,,,,,AC2LAL,train_y,red_square,bottom_left,2025-07-25_15h48.36.533,HideSeek_v1,2022.2.5,59.972784380594234,
,,,,,,,,,,,,,,,0,0,0,0,9,0,9,0,,,,,,,,,,,,,,,,,,,,,,,,,,,,,,,conditions/schedules/train_y_first/red_square_00/bottom_left/instructions/Slide10.png,conditions/schedules/train_y_first/red_square_00/bottom_left/instructions/Audio10.wav,2858.799852400087,2858.796549520106,10,"[5.56345529993996, 11.168181099928916, 17.612240500049666, 19.512325400020927, 5.53141860011965, 5.186061900109053, 6.655167900025845, 12.240693000145257, 6.096176499966532, 7.500866599846631]","[0.03710399987176061, 0.037132800091058016, 0.03261480014771223, 0.03634670004248619, 0.10810890002176166, 0.051149999955669045, 0.06060670013539493, 0.03519849991425872, 0.08851789985783398, 7.500873199896887]",0,,,,,,,,,,,,,,,,,,,,,,,,,,,,,,,,,,,,,,,,,,,,,,,,,,,,,,,,,,,,,,,,,,,,,,,,,,,,,,,,,,,,,,,,,,,,,,,,,,,,,,,,,,,,,,,,,,,,,,,,,,,,AC2LAL,train_y,red_square,bottom_left,2025-07-25_15h48.36.533,HideSeek_v1,2022.2.5,59.972784380594234,
,,,,,,,,,,,,,,,0,0,0,0,10,0,10,0,,,,,,,,,,,,,,,,,,,,,,,,,,,,,,,conditions/schedules/train_y_first/red_square_00/bottom_left/instructions/Slide11.png,conditions/schedules/train_y_first/red_square_00/bottom_left/instructions/Audio11.wav,2866.340571400011,2866.3362527202116,11,"[5.56345529993996, 11.168181099928916, 17.612240500049666, 19.512325400020927, 5.53141860011965, 5.186061900109053, 6.655167900025845, 12.240693000145257, 6.096176499966532, 7.500866599846631, 10.695993999950588]","[0.03710399987176061, 0.037132800091058016, 0.03261480014771223, 0.03634670004248619, 0.10810890002176166, 0.051149999955669045, 0.06060670013539493, 0.03519849991425872, 0.08851789985783398, 0.11121369991451502, 10.696000899886712]",0,,,,,,,,,,,,,,,,,,,,,,,,,,,,,,,,,,,,,,,,,,,,,,,,,,,,,,,,,,,,,,,,,,,,,,,,,,,,,,,,,,,,,,,,,,,,,,,,,,,,,,,,,,,,,,,,,,,,,,,,,,,,AC2LAL,train_y,red_square,bottom_left,2025-07-25_15h48.36.533,HideSeek_v1,2022.2.5,59.972784380594234,
,,,,,,,,,,,,,,,0,0,0,0,11,0,11,0,,,,,,,,,,,,,,,,,,,,,,,,,,,,,,,conditions/schedules/train_y_first/red_square_00/bottom_left/instructions/Slide12.png,conditions/schedules/train_y_first/red_square_00/bottom_left/instructions/Audio12.wav,2877.11206319998,2877.1056786001427,12,"[5.56345529993996, 11.168181099928916, 17.612240500049666, 19.512325400020927, 5.53141860011965, 5.186061900109053, 6.655167900025845, 12.240693000145257, 6.096176499966532, 7.500866599846631, 10.695993999950588, 14.44514049985446]","[0.03710399987176061, 0.037132800091058016, 0.03261480014771223, 0.03634670004248619, 0.10810890002176166, 0.051149999955669045, 0.06060670013539493, 0.03519849991425872, 0.08851789985783398, 0.11121369991451502, 0.03281329991295934, 14.445147899910808]",0,,,,,,,,,,,,,,,,,,,,,,,,,,,,,,,,,,,,,,,,,,,,,,,,,,,,,,,,,,,,,,,,,,,,,,,,,,,,,,,,,,,,,,,,,,,,,,,,,,,,,,,,,,,,,,,,,,,,,,,,,,,,AC2LAL,train_y,red_square,bottom_left,2025-07-25_15h48.36.533,HideSeek_v1,2022.2.5,59.972784380594234,
1,2,3,2,8,0,5,11,2,instr_dim1_1,,,,,,0,0,0,0,,,,,0,0,0,0,,,,,,,,,,,,,,,,,,,,,,,,,,,,,,,,,,,,,stimuli/alien_stimuli/11.png,conditions/schedules/train_y_first/red_square_00/bottom_left/inputInstr_1.xlsx,stimuli/alien_stimuli/11.png,2891.661699900171,2891.661699900171,2891.661699900171,2891.661699900171,2891.659546180046,return,13.925612000050023,"[-0.16, -0.08, 0, 0.08, 0.16, 0.24, 0.32, 0.4, 0.48, 0.56]","[-0.4, -0.32, -0.24, -0.16, -0.08, 0, 0.08, 0.16, 0.24, 0.32]",8,3,2,2,0.4,0.0,2905.7705091000535,2905.7705091000535,2905.7705091000535,2905.7705091000535,2905.7705091000535,2905.7705091000535,2905.7705091000535,2905.7521002601134,9.327049699844792,return,9.147318699862808,stimuli/alien_stimuli/11.png,11,2,1,,,,,,,,,,,,,,,,,,,,,,,,,,,,,,,,,,,,,,,,,,,,,,,,,,,,,,,,,,,,,,,,,,,,,,,,,,,,,,,,,,,,,,,,,AC2LAL,train_y,red_square,bottom_left,2025-07-25_15h48.36.533,HideSeek_v1,2022.2.5,59.972784380594234,
,,,,,,,,,,,30,,,,0,0,0,0,,,,,,,,,,,,,,,,,,,,,,,,,,,,,,,,,,,,,,,,,,,,,,,,,,,,,,,,,,,,,,,,,,,,,,,,,,,,,,21,0.7,0,0,99,1,30,0,conditions/schedules/train_y_first/red_square_00/bottom_left/inputTrain_1.1.xlsx,99,1,1,1,0,,,,,,,,,,,,,,,,,,,,,,,,,,,,,,,,,,,,,,,,,,,,,,,,,,,,,,,,,,,,,,,,,,,,,,,,,,,AC2LAL,train_y,red_square,bottom_left,2025-07-25_15h48.36.533,HideSeek_v1,2022.2.5,59.972784380594234,
,,,,,,,,,,,,,,,1,0,1,0,0,0,0,0,,,,,,,,,,,,,,,,,,,,,,,,,,,,,,,conditions/schedules/train_y_first/red_square_00/bottom_left/instructions/Slide13.png,conditions/schedules/train_y_first/red_square_00/bottom_left/instructions/Audio13.wav,2915.0986176000442,2915.0946766000707,13,"[5.56345529993996, 11.168181099928916, 17.612240500049666, 19.512325400020927, 5.53141860011965, 5.186061900109053, 6.655167900025845, 12.240693000145257, 6.096176499966532, 7.500866599846631, 10.695993999950588, 14.44514049985446, 17.817152800038457]","[0.03710399987176061, 0.037132800091058016, 0.03261480014771223, 0.03634670004248619, 0.10810890002176166, 0.051149999955669045, 0.06060670013539493, 0.03519849991425872, 0.08851789985783398, 0.11121369991451502, 0.03281329991295934, 14.445147899910808, 17.817161099985242]",0,,,,,,,,,,,,,,,,,,,,,,,,,,,,,,,,,,,,,,,,,,,,,,,,,,,,,,,,,,,,,,,,,,,,,,,,,,,,,,,,,,,,,,,,,,,,,,,,,,,,,,,,,,,,,,,,,,,,,,,,,,,,AC2LAL,train_y,red_square,bottom_left,2025-07-25_15h48.36.533,HideSeek_v1,2022.2.5,59.972784380594234,
,,,,,,,,,,,,,,,1,0,1,0,1,0,1,0,,,,,,,,,,,,,,,,,,,,,,,,,,,,,,,conditions/schedules/train_y_first/red_square_00/bottom_left/instructions/Slide14.png,conditions/schedules/train_y_first/red_square_00/bottom_left/instructions/Audio14.wav,2932.9880301000085,2932.985496900161,14,"[5.56345529993996, 11.168181099928916, 17.612240500049666, 19.512325400020927, 5.53141860011965, 5.186061900109053, 6.655167900025845, 12.240693000145257, 6.096176499966532, 7.500866599846631, 10.695993999950588, 14.44514049985446, 17.817152800038457, 17.265931699890643]","[0.03710399987176061, 0.037132800091058016, 0.03261480014771223, 0.03634670004248619, 0.10810890002176166, 0.051149999955669045, 0.06060670013539493, 0.03519849991425872, 0.08851789985783398, 0.11121369991451502, 0.03281329991295934, 14.445147899910808, 0.03569599986076355, 17.265938099939376]",0,,,,,,,,,,,,,,,,,,,,,,,,,,,,,,,,,,,,,,,,,,,,,,,,,,,,,,,,,,,,,,,,,,,,,,,,,,,,,,,,,,,,,,,,,,,,,,,,,,,,,,,,,,,,,,,,,,,,,,,,,,,,AC2LAL,train_y,red_square,bottom_left,2025-07-25_15h48.36.533,HideSeek_v1,2022.2.5,59.972784380594234,
2,0,3,0,3,0,0,16,2,instr_dim1_1,,,,,,1,0,1,0,,,,,0,0,0,0,,,,,,,,,,,,,,,,,,,,,,,,,,,,,,,,,,,,,stimuli/alien_stimuli/16.png,conditions/schedules/train_y_first/red_square_00/bottom_left/inputInstr_1.xlsx,stimuli/alien_stimuli/16.png,2950.35169530008,2950.35169530008,2950.35169530008,2950.35169530008,2950.3557813802036,return,6.828746800078079,"[-0.16, -0.08, 0, 0.08, 0.16, 0.24, 0.32, 0.4, 0.48, 0.56]","[-0.4, -0.32, -0.24, -0.16, -0.08, 0, 0.08, 0.16, 0.24, 0.32]",3,3,0,0,0.0,0.0,2957.338702399982,2957.338702399982,2957.338702399982,2957.338702399982,2957.338702399982,2957.338702399982,2957.338702399982,2957.3284767202567,10.810970999998972,return,10.6555997999385,stimuli/alien_stimuli/16.png,16,0,2,,,,,,,,,,,,,,,,,,,,,,,,,,,,,,,,,,,,,,,,,,,,,,,,,,,,,,,,,,,,,,,,,,,,,,,,,,,,,,,,,,,,,,,,,AC2LAL,train_y,red_square,bottom_left,2025-07-25_15h48.36.533,HideSeek_v1,2022.2.5,59.972784380594234,
,,,,,,,,,,,30,,,,1,0,1,0,,,,,,,,,,,,,,,,,,,,,,,,,,,,,,,,,,,,,,,,,,,,,,,,,,,,,,,,,,,,,,,,,,,,,,,,,,,,,,21,0.7,0,0,99,1,30,0,conditions/schedules/train_y_first/red_square_00/bottom_left/inputTrain_1.1.xlsx,99,1,1,1,0,,,,,,,,,,,,,,,,,,,,,,,,,,,,,,,,,,,,,,,,,,,,,,,,,,,,,,,,,,,,,,,,,,,,,,,,,,,AC2LAL,train_y,red_square,bottom_left,2025-07-25_15h48.36.533,HideSeek_v1,2022.2.5,59.972784380594234,
,,,,,,,,,,,,,,,2,0,2,0,0,0,0,0,,,,,,,,,,,,,,,,,,,,,,,,,,,,,,,conditions/schedules/train_y_first/red_square_00/bottom_left/instructions/Slide15.png,conditions/schedules/train_y_first/red_square_00/bottom_left/instructions/Audio15.wav,2968.197114800103,2968.188202640158,15,"[5.56345529993996, 11.168181099928916, 17.612240500049666, 19.512325400020927, 5.53141860011965, 5.186061900109053, 6.655167900025845, 12.240693000145257, 6.096176499966532, 7.500866599846631, 10.695993999950588, 14.44514049985446, 17.817152800038457, 17.265931699890643, 43.662993300007656]","[0.03710399987176061, 0.037132800091058016, 0.03261480014771223, 0.03634670004248619, 0.10810890002176166, 0.051149999955669045, 0.06060670013539493, 0.03519849991425872, 0.08851789985783398, 0.11121369991451502, 0.03281329991295934, 14.445147899910808, 0.03569599986076355, 17.265938099939376, 43.663001800188795]",0,,,,,,,,,,,,,,,,,,,,,,,,,,,,,,,,,,,,,,,,,,,,,,,,,,,,,,,,,,,,,,,,,,,,,,,,,,,,,,,,,,,,,,,,,,,,,,,,,,,,,,,,,,,,,,,,,,,,,,,,,,,,AC2LAL,train_y,red_square,bottom_left,2025-07-25_15h48.36.533,HideSeek_v1,2022.2.5,59.972784380594234,
,,,,,,,,,,,,,,,2,0,2,0,1,0,1,0,,,,,,,,,,,,,,,,,,,,,,,,,,,,,,,conditions/schedules/train_y_first/red_square_00/bottom_left/instructions/Slide16.png,conditions/schedules/train_y_first/red_square_00/bottom_left/instructions/Audio16.wav,3011.934398100013,3011.929611000116,16,"[5.56345529993996, 11.168181099928916, 17.612240500049666, 19.512325400020927, 5.53141860011965, 5.186061900109053, 6.655167900025845, 12.240693000145257, 6.096176499966532, 7.500866599846631, 10.695993999950588, 14.44514049985446, 17.817152800038457, 17.265931699890643, 43.662993300007656, 22.257899799849838]","[0.03710399987176061, 0.037132800091058016, 0.03261480014771223, 0.03634670004248619, 0.10810890002176166, 0.051149999955669045, 0.06060670013539493, 0.03519849991425872, 0.08851789985783398, 0.11121369991451502, 0.03281329991295934, 14.445147899910808, 0.03569599986076355, 17.265938099939376, 43.663001800188795, 22.25790650001727]",0,,,,,,,,,,,,,,,,,,,,,,,,,,,,,,,,,,,,,,,,,,,,,,,,,,,,,,,,,,,,,,,,,,,,,,,,,,,,,,,,,,,,,,,,,,,,,,,,,,,,,,,,,,,,,,,,,,,,,,,,,,,,AC2LAL,train_y,red_square,bottom_left,2025-07-25_15h48.36.533,HideSeek_v1,2022.2.5,59.972784380594234,
,0,0,0,1,0,1,15,,train_dim1_1,1,30,,,,2,0,2,0,,,,,,,,,0,0,0,0,0,0,0,0,0,0,0,0,,,,,,,,,,,,,,,,,,,,,,,,,stimuli/alien_stimuli/15.png,,,,,,,,,,,,,,,,,,,,,,,,,,,,,,,,,,,,,,,30,,,,,,,,3034.303590500029,3034.303590500029,3034.303590500029,3034.303590500029,3034.303590500029,right,12.115750500001013,0,0,0,99,-0.08,-0.4,right,12.012376700062305,,,,,,,,,,,,,,,,,,,,,,,,,,,,,,,,,,,,,,,,,,,,,,,,,,,,,,,,,,,,AC2LAL,train_y,red_square,bottom_left,2025-07-25_15h48.36.533,HideSeek_v1,2022.2.5,59.972784380594234,
,0,0,0,1,0,1,15,,train_dim1_1,1,30,,,,2,0,2,0,,,,,,,,,0,0,0,0,0,0,0,0,1,0,1,0,,,,,,,,,,,,,,,,,,,,,,,,,,,,,,,,,,,,,,,,,,,,,,,,,,,,,,,,,,,,,,,,30,,,,,,,,3046.424524900038,3046.424524900038,3046.424524900038,3046.424524900038,3046.424524900038,right,0.8775332998484373,0,0,0,99,0.0,-0.4,right,0.7729402000550181,,,,,,,,,,,,,,,,,,,,,,,,,,,,,,,,,,,,,,,,,,,,,,,,,,,,,,,,,,,,AC2LAL,train_y,red_square,bottom_left,2025-07-25_15h48.36.533,HideSeek_v1,2022.2.5,59.972784380594234,
,0,0,0,1,0,1,15,,train_dim1_1,1,30,,,,2,0,2,0,,,,,,,,,0,0,0,0,0,0,0,0,2,0,2,0,,,,,,,,,,,,,,,,,,,,,,,,,,,,,,,,,,,,,,,,,,,,,,,,,,,,,,,,,,,,,,,,30,,,,,,,,3047.2893485000823,3047.2893485000823,3047.2893485000823,3047.2893485000823,3047.2893485000823,right,2.013160399859771,0,0,0,99,0.08,-0.4,right,1.931450900156051,,,,,,,,,,,,,,,,,,,,,,,,,,,,,,,,,,,,,,,,,,,,,,,,,,,,,,,,,,,,AC2LAL,train_y,red_square,bottom_left,2025-07-25_15h48.36.533,HideSeek_v1,2022.2.5,59.972784380594234,
,0,0,0,1,0,1,15,,train_dim1_1,1,30,,,,2,0,2,0,,,,,,,,,0,0,0,0,0,0,0,0,3,0,3,0,,,,,,,,,,,,,,,,,,,,,,,,,,,,,,,,,,,,,,,,,,,,,,,,,,,,,,,,,,,,,,,,30,,,,,,,,3049.31534550013,3049.31534550013,3049.31534550013,3049.31534550013,3049.31534550013,right,1.637745900079608,0,0,0,99,0.16,-0.4,right,1.55259869992733,,,,,,,,,,,,,,,,,,,,,,,,,,,,,,,,,,,,,,,,,,,,,,,,,,,,,,,,,,,,AC2LAL,train_y,red_square,bottom_left,2025-07-25_15h48.36.533,HideSeek_v1,2022.2.5,59.972784380594234,
,0,0,0,1,0,1,15,,train_dim1_1,1,30,,,,2,0,2,0,,,,,,,,,0,0,0,0,0,0,0,0,4,0,4,0,,,,,,,,,,,,,,,,,,,,,,,,,,,,,,,,,,,,,,,,,,,,,,,,,,,,,,,,,,,,,,,,30,,,,,,,,3050.9583048999775,3050.9583048999775,3050.9583048999775,3050.9583048999775,3050.9583048999775,return,1.761717600049451,0,0,0,0,0.16,-0.4,return,1.6762772998772562,0,4,0.16,-0.4,,,,,,,,,,,,,,,,,,,,,,,,,,,,,,,,,,,,,,,,,,,,,,,,,,,,,,,,AC2LAL,train_y,red_square,bottom_left,2025-07-25_15h48.36.533,HideSeek_v1,2022.2.5,59.972784380594234,
,3,2,3,2,0,0,16,,train_dim1_1,2,30,,,,2,0,2,0,,,,,,,,,0,0,0,0,0,1,1,1,0,0,0,0,,,,,,,,,,,,,,,,,,,,,,,,,stimuli/alien_stimuli/16.png,,,,,,,,,,,,,,,,,,,,,,,,,,,,,stimuli/alien_stimuli/15.png,15,0,3,,,,,,,30,,,,,,,,3073.805558900116,3073.805558900116,3073.805558900116,3073.805558900116,3073.805558900116,return,5.406723499996588,1,0,0,1,0.08,-0.24,return,5.313877000007778,0,4,0.08,-0.24,3072.2428727999795,-0.16,-0.32,0.08,0.0,-0.36,-0.16,-0.16,-0.16,-0.32,3054.3086488000117,3054.3086488000117,3054.3086488000117,3054.3086488000117,3054.3086488000117,3054.3086488000117,3054.3086488000117,3054.3086488000117,3054.292307480122,18.052342399954796,return,17.90876040002331,3073.805558900116,,,,,,,,,,,,,,,,,,,,,,,,,,,,,,,,,AC2LAL,train_y,red_square,bottom_left,2025-07-25_15h48.36.533,HideSeek_v1,2022.2.5,59.972784380594234,
,2,3,2,6,0,3,13,,train_dim1_1,3,30,,,,2,0,2,0,,,,,,,,,0,0,0,0,0,2,2,2,0,0,0,0,,,,,,,,,,,,,,,,,,,,,,,,,stimuli/alien_stimuli/13.png,,,,,,,,,,,,,,,,,,,,,,,,,,,,,stimuli/alien_stimuli/16.png,16,3,4,,,,,,,30,,,,,,,,3088.1111622001044,3088.1111622001044,3088.1111622001044,3088.1111622001044,3088.1111622001044,up,5.892342900158837,1,0,0,99,0,-0.08,up,5.812954100081697,,,,,3086.5528335000854,0.08,-0.24,0.0,0.0,-0.24,0.08,0.08,0.08,-0.24,3080.79619490006,3080.79619490006,3080.79619490006,3080.79619490006,3080.79619490006,3080.79619490006,3080.79619490006,3080.79619490006,3080.781245880178,5.86819629999809,return,5.731460300041363,,,,,,,,,,,,,,,,,,,,,,,,,,,,,,,,,,AC2LAL,train_y,red_square,bottom_left,2025-07-25_15h48.36.533,HideSeek_v1,2022.2.5,59.972784380594234,
,2,3,2,6,0,3,13,,train_dim1_1,3,30,,,,2,0,2,0,,,,,,,,,0,0,0,0,0,2,2,2,1,0,1,0,,,,,,,,,,,,,,,,,,,,,,,,,,,,,,,,,,,,,,,,,,,,,,,,,,,,,,,,,,,,,,,,30,,,,,,,,3094.0107702000532,3094.0107702000532,3094.0107702000532,3094.0107702000532,3094.0107702000532,up,0.7602379000745714,1,0,0,99,0,0.0,up,0.6755493001546711,,,,,,,,,,,,,,,,,,,,,,,,,,,,,,,,,,,,,,,,,,,,,,,,,,,,,,,,,,,,AC2LAL,train_y,red_square,bottom_left,2025-07-25_15h48.36.533,HideSeek_v1,2022.2.5,59.972784380594234,
,2,3,2,6,0,3,13,,train_dim1_1,3,30,,,,2,0,2,0,,,,,,,,,0,0,0,0,0,2,2,2,2,0,2,0,,,,,,,,,,,,,,,,,,,,,,,,,,,,,,,,,,,,,,,,,,,,,,,,,,,,,,,,,,,,,,,,30,,,,,,,,3094.777863000054,3094.777863000054,3094.777863000054,3094.777863000054,3094.777863000054,up,0.9434094000607729,1,0,0,99,0,0.08,up,0.8616724999155849,,,,,,,,,,,,,,,,,,,,,,,,,,,,,,,,,,,,,,,,,,,,,,,,,,,,,,,,,,,,AC2LAL,train_y,red_square,bottom_left,2025-07-25_15h48.36.533,HideSeek_v1,2022.2.5,59.972784380594234,
,2,3,2,6,0,3,13,,train_dim1_1,3,30,,,,2,0,2,0,,,,,,,,,0,0,0,0,0,2,2,2,3,0,3,0,,,,,,,,,,,,,,,,,,,,,,,,,,,,,,,,,,,,,,,,,,,,,,,,,,,,,,,,,,,,,,,,30,,,,,,,,3095.728461000137,3095.728461000137,3095.728461000137,3095.728461000137,3095.728461000137,up,1.327274999814108,1,0,0,99,0,0.16,up,1.2394737000577152,,,,,,,,,,,,,,,,,,,,,,,,,,,,,,,,,,,,,,,,,,,,,,,,,,,,,,,,,,,,AC2LAL,train_y,red_square,bottom_left,2025-07-25_15h48.36.533,HideSeek_v1,2022.2.5,59.972784380594234,
,2,3,2,6,0,3,13,,train_dim1_1,3,30,,,,2,0,2,0,,,,,,,,,0,0,0,0,0,2,2,2,4,0,4,0,,,,,,,,,,,,,,,,,,,,,,,,,,,,,,,,,,,,,,,,,,,,,,,,,,,,,,,,,,,,,,,,30,,,,,,,,3097.0624108000193,3097.0624108000193,3097.0624108000193,3097.0624108000193,3097.0624108000193,return,2.1280468001496047,1,1,0,0,0,0.16,return,2.048753699986264,4,4,0,0.16,,,,,,,,,,,,,,,,,,,,,,,,,,,,,,,,,,,,,,,,,,,,,,,,,,,,,,,,AC2LAL,train_y,red_square,bottom_left,2025-07-25_15h48.36.533,HideSeek_v1,2022.2.5,59.972784380594234,
,0,1,0,5,0,4,12,,train_dim1_1,4,30,,,,2,0,2,0,,,,,,,,,0,0,0,0,0,3,3,3,0,0,0,0,,,,,,,,,,,,,,,,,,,,,,,,,stimuli/alien_stimuli/12.png,,,,,,,,,,,,,,,,,,,,,,,,,,,,,stimuli/alien_stimuli/13.png,13,2,5,,,,,,,30,,,,,,,,3118.6239335001446,3118.6239335001446,3118.6239335001446,3118.6239335001446,3118.6239335001446,up,9.07803380000405,1,1,0,99,-0.16,-0.24,up,8.975546000059694,,,,,3117.04480360006,0,0.08,0.24,0.0,-0.04,0,0.0,0,0.08,3100.7765480000526,3100.7765480000526,3100.7765480000526,3100.7765480000526,3100.7765480000526,3100.7765480000526,3100.7765480000526,3100.7765480000526,3100.7643744802335,16.3770111000631,return,16.24502900009975,,,,,,,,,,,,,,,,,,,,,,,,,,,,,,,,,,AC2LAL,train_y,red_square,bottom_left,2025-07-25_15h48.36.533,HideSeek_v1,2022.2.5,59.972784380594234,
,0,1,0,5,0,4,12,,train_dim1_1,4,30,,,,2,0,2,0,,,,,,,,,0,0,0,0,0,3,3,3,1,0,1,0,,,,,,,,,,,,,,,,,,,,,,,,,,,,,,,,,,,,,,,,,,,,,,,,,,,,,,,,,,,,,,,,30,,,,,,,,3127.6888644001447,3127.6888644001447,3127.6888644001447,3127.6888644001447,3127.6888644001447,up,0.79336589993909,1,1,0,99,-0.16,-0.15999999999999998,up,0.7154188000131398,,,,,,,,,,,,,,,,,,,,,,,,,,,,,,,,,,,,,,,,,,,,,,,,,,,,,,,,,,,,AC2LAL,train_y,red_square,bottom_left,2025-07-25_15h48.36.533,HideSeek_v1,2022.2.5,59.972784380594234,
,0,1,0,5,0,4,12,,train_dim1_1,4,30,,,,2,0,2,0,,,,,,,,,0,0,0,0,0,3,3,3,2,0,2,0,,,,,,,,,,,,,,,,,,,,,,,,,,,,,,,,,,,,,,,,,,,,,,,,,,,,,,,,,,,,,,,,30,,,,,,,,3128.4976830000523,3128.4976830000523,3128.4976830000523,3128.4976830000523,3128.4976830000523,up,1.0443951999768615,1,1,0,99,-0.16,-0.07999999999999997,up,0.9454360001254827,,,,,,,,,,,,,,,,,,,,,,,,,,,,,,,,,,,,,,,,,,,,,,,,,,,,,,,,,,,,AC2LAL,train_y,red_square,bottom_left,2025-07-25_15h48.36.533,HideSeek_v1,2022.2.5,59.972784380594234,
,0,1,0,5,0,4,12,,train_dim1_1,4,30,,,,2,0,2,0,,,,,,,,,0,0,0,0,0,3,3,3,3,0,3,0,,,,,,,,,,,,,,,,,,,,,,,,,,,,,,,,,,,,,,,,,,,,,,,,,,,,,,,,,,,,,,,,30,,,,,,,,3129.5409192000516,3129.5409192000516,3129.5409192000516,3129.5409192000516,3129.5409192000516,up,0.8433195999823511,1,1,0,99,-0.16,2.7755575615628914e-17,up,0.7595150999259204,,,,,,,,,,,,,,,,,,,,,,,,,,,,,,,,,,,,,,,,,,,,,,,,,,,,,,,,,,,,AC2LAL,train_y,red_square,bottom_left,2025-07-25_15h48.36.533,HideSeek_v1,2022.2.5,59.972784380594234,
,0,1,0,5,0,4,12,,train_dim1_1,4,30,,,,2,0,2,0,,,,,,,,,0,0,0,0,0,3,3,3,4,0,4,0,,,,,,,,,,,,,,,,,,,,,,,,,,,,,,,,,,,,,,,,,,,,,,,,,,,,,,,,,,,,,,,,30,,,,,,,,3130.3907840000466,3130.3907840000466,3130.3907840000466,3130.3907840000466,3130.3907840000466,up,0.7433060000184923,1,1,0,99,-0.16,0.08000000000000003,up,0.6566314001102,,,,,,,,,,,,,,,,,,,,,,,,,,,,,,,,,,,,,,,,,,,,,,,,,,,,,,,,,,,,AC2LAL,train_y,red_square,bottom_left,2025-07-25_15h48.36.533,HideSeek_v1,2022.2.5,59.972784380594234,
,0,1,0,5,0,4,12,,train_dim1_1,4,30,,,,2,0,2,0,,,,,,,,,0,0,0,0,0,3,3,3,5,0,5,0,,,,,,,,,,,,,,,,,,,,,,,,,,,,,,,,,,,,,,,,,,,,,,,,,,,,,,,,,,,,,,,,30,,,,,,,,3131.141279499978,3131.141279499978,3131.141279499978,3131.141279499978,3131.141279499978,return,1.194138899911195,1,1,0,0,-0.16,0.08000000000000003,return,1.1070508998818696,9,4,-0.16,0.08000000000000003,,,,,,,,,,,,,,,,,,,,,,,,,,,,,,,,,,,,,,,,,,,,,,,,,,,,,,,,AC2LAL,train_y,red_square,bottom_left,2025-07-25_15h48.36.533,HideSeek_v1,2022.2.5,59.972784380594234,
,3,3,3,8,0,5,11,,train_dim1_1,5,30,,,,2,0,2,0,,,,,,,,,0,0,0,0,0,4,4,4,0,0,0,0,,,,,,,,,,,,,,,,,,,,,,,,,stimuli/alien_stimuli/11.png,,,,,,,,,,,,,,,,,,,,,,,,,,,,,stimuli/alien_stimuli/12.png,12,0,6,,,,,,,30,,,,,,,,3144.173636100022,3144.173636100022,3144.173636100022,3144.173636100022,3144.173636100022,up,3.8063713000155985,1,1,0,99,0.08,-0.08,up,3.7116960999555886,,,,,3142.599422800122,-0.16,0,0.32,0.0,-0.16,-0.16,-0.16,-0.16,0,3133.927645200165,3133.927645200165,3133.927645200165,3133.927645200165,3133.927645200165,3133.927645200165,3133.927645200165,3133.927645200165,3133.925386320101,8.78696330008097,return,8.629009099910036,,,,,,,,,,,,,,,,,,,,,,,,,,,,,,,,,,AC2LAL,train_y,red_square,bottom_left,2025-07-25_15h48.36.533,HideSeek_v1,2022.2.5,59.972784380594234,
,3,3,3,8,0,5,11,,train_dim1_1,5,30,,,,2,0,2,0,,,,,,,,,0,0,0,0,0,4,4,4,1,0,1,0,,,,,,,,,,,,,,,,,,,,,,,,,,,,,,,,,,,,,,,,,,,,,,,,,,,,,,,,,,,,,,,,30,,,,,,,,3147.97208210011,3147.97208210011,3147.97208210011,3147.97208210011,3147.97208210011,up,0.8433598999399692,1,1,0,99,0.08,0.0,up,0.7566972998902202,,,,,,,,,,,,,,,,,,,,,,,,,,,,,,,,,,,,,,,,,,,,,,,,,,,,,,,,,,,,AC2LAL,train_y,red_square,bottom_left,2025-07-25_15h48.36.533,HideSeek_v1,2022.2.5,59.972784380594234,
,3,3,3,8,0,5,11,,train_dim1_1,5,30,,,,2,0,2,0,,,,,,,,,0,0,0,0,0,4,4,4,2,0,2,0,,,,,,,,,,,,,,,,,,,,,,,,,,,,,,,,,,,,,,,,,,,,,,,,,,,,,,,,,,,,,,,,30,,,,,,,,3148.822683400009,3148.822683400009,3148.822683400009,3148.822683400009,3148.822683400009,up,0.8935665001627058,1,1,0,99,0.08,0.08,up,0.8116468999069184,,,,,,,,,,,,,,,,,,,,,,,,,,,,,,,,,,,,,,,,,,,,,,,,,,,,,,,,,,,,AC2LAL,train_y,red_square,bottom_left,2025-07-25_15h48.36.533,HideSeek_v1,2022.2.5,59.972784380594234,
,3,3,3,8,0,5,11,,train_dim1_1,5,30,,,,2,0,2,0,,,,,,,,,0,0,0,0,0,4,4,4,3,0,3,0,,,,,,,,,,,,,,,,,,,,,,,,,,,,,,,,,,,,,,,,,,,,,,,,,,,,,,,,,,,,,,,,30,,,,,,,,3149.7229460000526,3149.7229460000526,3149.7229460000526,3149.7229460000526,3149.7229460000526,up,0.9440256000962108,1,1,0,99,0.08,0.16,up,0.8657374000176787,,,,,,,,,,,,,,,,,,,,,,,,,,,,,,,,,,,,,,,,,,,,,,,,,,,,,,,,,,,,AC2LAL,train_y,red_square,bottom_left,2025-07-25_15h48.36.533,HideSeek_v1,2022.2.5,59.972784380594234,
,3,3,3,8,0,5,11,,train_dim1_1,5,30,,,,2,0,2,0,,,,,,,,,0,0,0,0,0,4,4,4,4,0,4,0,,,,,,,,,,,,,,,,,,,,,,,,,,,,,,,,,,,,,,,,,,,,,,,,,,,,,,,,,,,,,,,,30,,,,,,,,3150.6739741000347,3150.6739741000347,3150.6739741000347,3150.6739741000347,3150.6739741000347,up,0.8601444999221712,1,1,0,99,0.08,0.24,up,0.7675818998832256,,,,,,,,,,,,,,,,,,,,,,,,,,,,,,,,,,,,,,,,,,,,,,,,,,,,,,,,,,,,AC2LAL,train_y,red_square,bottom_left,2025-07-25_15h48.36.533,HideSeek_v1,2022.2.5,59.972784380594234,
,3,3,3,8,0,5,11,,train_dim1_1,5,30,,,,2,0,2,0,,,,,,,,,0,0,0,0,0,4,4,4,5,0,5,0,,,,,,,,,,,,,,,,,,,,,,,,,,,,,,,,,,,,,,,,,,,,,,,,,,,,,,,,,,,,,,,,30,,,,,,,,3151.541117900051,3151.541117900051,3151.541117900051,3151.541117900051,3151.541117900051,return,1.9613121000584215,2,0,0,1,0.08,0.24,return,1.8694186001084745,14,4,0.08,0.24,,,,,,,,,,,,,,,,,,,,,,,,,,,,,,,,,,,,,,,,,,,,,,,,,,,,,,,,AC2LAL,train_y,red_square,bottom_left,2025-07-25_15h48.36.533,HideSeek_v1,2022.2.5,59.972784380594234,
,1,4,1,8,0,4,12,,train_dim1_1,6,30,,,,2,0,2,0,,,,,,,,,0,0,0,0,0,5,5,5,0,0,0,0,,,,,,,,,,,,,,,,,,,,,,,,,stimuli/alien_stimuli/12.png,,,,,,,,,,,,,,,,,,,,,,,,,,,,,stimuli/alien_stimuli/11.png,11,3,7,,,,,,,30,,,,,,,,3161.9092506000306,3161.9092506000306,3161.9092506000306,3161.9092506000306,3161.9092506000306,up,6.123218499822542,2,0,0,99,-0.08,0.0,up,6.03689009998925,,,,,3160.334121200023,0.08,0.24,0.4,0.0,0.039999999999999994,0.08,0.08,0.08,0.24,3155.092158399988,3155.092158399988,3155.092158399988,3155.092158399988,3155.092158399988,3155.092158399988,3155.092158399988,3155.092158399988,3155.0929764201865,5.35995230008848,return,5.209572999970987,,,,,,,,,,,,,,,,,,,,,,,,,,,,,,,,,,AC2LAL,train_y,red_square,bottom_left,2025-07-25_15h48.36.533,HideSeek_v1,2022.2.5,59.972784380594234,
,1,4,1,8,0,4,12,,train_dim1_1,6,30,,,,2,0,2,0,,,,,,,,,0,0,0,0,0,5,5,5,1,0,1,0,,,,,,,,,,,,,,,,,,,,,,,,,,,,,,,,,,,,,,,,,,,,,,,,,,,,,,,,,,,,,,,,30,,,,,,,,3168.0491035000887,3168.0491035000887,3168.0491035000887,3168.0491035000887,3168.0491035000887,up,0.9095546999014914,2,0,0,99,-0.08,0.08,up,0.8151500001549721,,,,,,,,,,,,,,,,,,,,,,,,,,,,,,,,,,,,,,,,,,,,,,,,,,,,,,,,,,,,AC2LAL,train_y,red_square,bottom_left,2025-07-25_15h48.36.533,HideSeek_v1,2022.2.5,59.972784380594234,
,1,4,1,8,0,4,12,,train_dim1_1,6,30,,,,2,0,2,0,,,,,,,,,0,0,0,0,0,5,5,5,2,0,2,0,,,,,,,,,,,,,,,,,,,,,,,,,,,,,,,,,,,,,,,,,,,,,,,,,,,,,,,,,,,,,,,,30,,,,,,,,3168.955362500157,3168.955362500157,3168.955362500157,3168.955362500157,3168.955362500157,up,1.0436982000246644,2,0,0,99,-0.08,0.16,up,0.9634889999870211,,,,,,,,,,,,,,,,,,,,,,,,,,,,,,,,,,,,,,,,,,,,,,,,,,,,,,,,,,,,AC2LAL,train_y,red_square,bottom_left,2025-07-25_15h48.36.533,HideSeek_v1,2022.2.5,59.972784380594234,
,1,4,1,8,0,4,12,,train_dim1_1,6,30,,,,2,0,2,0,,,,,,,,,0,0,0,0,0,5,5,5,3,0,3,0,,,,,,,,,,,,,,,,,,,,,,,,,,,,,,,,,,,,,,,,,,,,,,,,,,,,,,,,,,,,,,,,30,,,,,,,,3170.0070284001995,3170.0070284001995,3170.0070284001995,3170.0070284001995,3170.0070284001995,up,1.1104216000530869,2,0,0,99,-0.08,0.24,up,1.0205030001234263,,,,,,,,,,,,,,,,,,,,,,,,,,,,,,,,,,,,,,,,,,,,,,,,,,,,,,,,,,,,AC2LAL,train_y,red_square,bottom_left,2025-07-25_15h48.36.533,HideSeek_v1,2022.2.5,59.972784380594234,
,1,4,1,8,0,4,12,,train_dim1_1,6,30,,,,2,0,2,0,,,,,,,,,0,0,0,0,0,5,5,5,4,0,4,0,,,,,,,,,,,,,,,,,,,,,,,,,,,,,,,,,,,,,,,,,,,,,,,,,,,,,,,,,,,,,,,,30,,,,,,,,3171.123789699981,3171.123789699981,3171.123789699981,3171.123789699981,3171.123789699981,return,1.3942769998684525,3,0,0,1,-0.08,0.24,return,1.3133631001692265,18,4,-0.08,0.24,,,,,,,,,,,,,,,,,,,,,,,,,,,,,,,,,,,,,,,,,,,,,,,,,,,,,,,,AC2LAL,train_y,red_square,bottom_left,2025-07-25_15h48.36.533,HideSeek_v1,2022.2.5,59.972784380594234,
,1,3,1,6,0,3,13,,train_dim1_1,7,30,,,,2,0,2,0,,,,,,,,,0,0,0,0,0,6,6,6,0,0,0,0,,,,,,,,,,,,,,,,,,,,,,,,,stimuli/alien_stimuli/13.png,,,,,,,,,,,,,,,,,,,,,,,,,,,,,stimuli/alien_stimuli/12.png,12,1,8,,,,,,,30,,,,,,,,3178.9890121000353,3178.9890121000353,3178.9890121000353,3178.9890121000353,3178.9890121000353,up,6.84094879985787,3,0,0,99,-0.08,-0.08,up,6.75288000004366,,,,,3177.4226030001882,-0.08,0.24,0.32,0.0,0.07999999999999999,-0.08,-0.08,-0.08,0.24,3174.102945000166,3174.102945000166,3174.102945000166,3174.102945000166,3174.102945000166,3174.102945000166,3174.102945000166,3174.102945000166,3174.0925748201553,3.4424952999688685,return,3.286789200035855,3174.102945000166,,,,,,,,,,,,,,,,,,,,,,,,,,,,,,,,,AC2LAL,train_y,red_square,bottom_left,2025-07-25_15h48.36.533,HideSeek_v1,2022.2.5,59.972784380594234,
,1,3,1,6,0,3,13,,train_dim1_1,7,30,,,,2,0,2,0,,,,,,,,,0,0,0,0,0,6,6,6,1,0,1,0,,,,,,,,,,,,,,,,,,,,,,,,,,,,,,,,,,,,,,,,,,,,,,,,,,,,,,,,,,,,,,,,30,,,,,,,,3185.838097900152,3185.838097900152,3185.838097900152,3185.838097900152,3185.838097900152,up,1.0434618000872433,3,0,0,99,-0.08,0.0,up,0.9525997000746429,,,,,,,,,,,,,,,,,,,,,,,,,,,,,,,,,,,,,,,,,,,,,,,,,,,,,,,,,,,,AC2LAL,train_y,red_square,bottom_left,2025-07-25_15h48.36.533,HideSeek_v1,2022.2.5,59.972784380594234,
,1,3,1,6,0,3,13,,train_dim1_1,7,30,,,,2,0,2,0,,,,,,,,,0,0,0,0,0,6,6,6,2,0,2,0,,,,,,,,,,,,,,,,,,,,,,,,,,,,,,,,,,,,,,,,,,,,,,,,,,,,,,,,,,,,,,,,30,,,,,,,,3186.8863435001113,3186.8863435001113,3186.8863435001113,3186.8863435001113,3186.8863435001113,return,1.5107514997944236,3,1,0,0,-0.08,0.0,return,1.433708099881187,20,4,-0.08,0.0,,,,,,,,,,,,,,,,,,,,,,,,,,,,,,,,,,,,,,,,,,,,,,,,,,,,,,,,AC2LAL,train_y,red_square,bottom_left,2025-07-25_15h48.36.533,HideSeek_v1,2022.2.5,59.972784380594234,
,4,2,4,7,0,5,11,,train_dim1_1,8,30,,,,2,0,2,0,,,,,,,,,0,0,0,0,0,7,7,7,0,0,0,0,,,,,,,,,,,,,,,,,,,,,,,,,stimuli/alien_stimuli/11.png,,,,,,,,,,,,,,,,,,,,,,,,,,,,,stimuli/alien_stimuli/13.png,13,1,9,,,,,,,30,,,,,,,,3201.522242200095,3201.522242200095,3201.522242200095,3201.522242200095,3201.522242200095,up,2.1371124000288546,3,1,0,99,0.16,-0.15999999999999998,up,2.038910700008273,,,,,3199.947040700121,-0.08,0.08,0.24,0.0,-0.04,-0.08,-0.08,-0.08,0.08,3189.9708411002066,3189.9708411002066,3189.9708411002066,3189.9708411002066,3189.9708411002066,3189.9708411002066,3189.9708411002066,3189.9708411002066,3189.971976520028,10.093102399958298,return,9.94715190003626,3201.522242200095,,,,,,,,,,,,,,,,,,,,,,,,,,,,,,,,,AC2LAL,train_y,red_square,bottom_left,2025-07-25_15h48.36.533,HideSeek_v1,2022.2.5,59.972784380594234,
,4,2,4,7,0,5,11,,train_dim1_1,8,30,,,,2,0,2,0,,,,,,,,,0,0,0,0,0,7,7,7,1,0,1,0,,,,,,,,,,,,,,,,,,,,,,,,,,,,,,,,,,,,,,,,,,,,,,,,,,,,,,,,,,,,,,,,30,,,,,,,,3203.652332600206,3203.652332600206,3203.652332600206,3203.652332600206,3203.652332600206,up,0.9261628000531346,3,1,0,99,0.16,-0.07999999999999997,up,0.8404008001089096,,,,,,,,,,,,,,,,,,,,,,,,,,,,,,,,,,,,,,,,,,,,,,,,,,,,,,,,,,,,AC2LAL,train_y,red_square,bottom_left,2025-07-25_15h48.36.533,HideSeek_v1,2022.2.5,59.972784380594234,
,4,2,4,7,0,5,11,,train_dim1_1,8,30,,,,2,0,2,0,,,,,,,,,0,0,0,0,0,7,7,7,2,0,2,0,,,,,,,,,,,,,,,,,,,,,,,,,,,,,,,,,,,,,,,,,,,,,,,,,,,,,,,,,,,,,,,,30,,,,,,,,3204.585782499984,3204.585782499984,3204.585782499984,3204.585782499984,3204.585782499984,up,0.9605787999462336,3,1,0,99,0.16,2.7755575615628914e-17,up,0.8766961998771876,,,,,,,,,,,,,,,,,,,,,,,,,,,,,,,,,,,,,,,,,,,,,,,,,,,,,,,,,,,,AC2LAL,train_y,red_square,bottom_left,2025-07-25_15h48.36.533,HideSeek_v1,2022.2.5,59.972784380594234,
,4,2,4,7,0,5,11,,train_dim1_1,8,30,,,,2,0,2,0,,,,,,,,,0,0,0,0,0,7,7,7,3,0,3,0,,,,,,,,,,,,,,,,,,,,,,,,,,,,,,,,,,,,,,,,,,,,,,,,,,,,,,,,,,,,,,,,30,,,,,,,,3205.5529346000403,3205.5529346000403,3205.5529346000403,3205.5529346000403,3205.5529346000403,up,1.0769250001758337,3,1,0,99,0.16,0.08000000000000003,up,0.9998593998607248,,,,,,,,,,,,,,,,,,,,,,,,,,,,,,,,,,,,,,,,,,,,,,,,,,,,,,,,,,,,AC2LAL,train_y,red_square,bottom_left,2025-07-25_15h48.36.533,HideSeek_v1,2022.2.5,59.972784380594234,
,4,2,4,7,0,5,11,,train_dim1_1,8,30,,,,2,0,2,0,,,,,,,,,0,0,0,0,0,7,7,7,4,0,4,0,,,,,,,,,,,,,,,,,,,,,,,,,,,,,,,,,,,,,,,,,,,,,,,,,,,,,,,,,,,,,,,,30,,,,,,,,3206.643947500037,3206.643947500037,3206.643947500037,3206.643947500037,3206.643947500037,up,0.8271275002043694,3,1,0,99,0.16,0.16000000000000003,up,0.734260099940002,,,,,,,,,,,,,,,,,,,,,,,,,,,,,,,,,,,,,,,,,,,,,,,,,,,,,,,,,,,,AC2LAL,train_y,red_square,bottom_left,2025-07-25_15h48.36.533,HideSeek_v1,2022.2.5,59.972784380594234,
,4,2,4,7,0,5,11,,train_dim1_1,8,30,,,,2,0,2,0,,,,,,,,,0,0,0,0,0,7,7,7,5,0,5,0,,,,,,,,,,,,,,,,,,,,,,,,,,,,,,,,,,,,,,,,,,,,,,,,,,,,,,,,,,,,,,,,30,,,,,,,,3207.4712483000476,3207.4712483000476,3207.4712483000476,3207.4712483000476,3207.4712483000476,return,1.2329659000970423,4,0,0,1,0.16,0.16000000000000003,return,1.1448673999402672,25,4,0.16,0.16000000000000003,,,,,,,,,,,,,,,,,,,,,,,,,,,,,,,,,,,,,,,,,,,,,,,,,,,,,,,,AC2LAL,train_y,red_square,bottom_left,2025-07-25_15h48.36.533,HideSeek_v1,2022.2.5,59.972784380594234,
,4,3,4,4,0,1,15,,train_dim1_1,9,30,,,,2,0,2,0,,,,,,,,,0,0,0,0,0,8,8,8,0,0,0,0,,,,,,,,,,,,,,,,,,,,,,,,,stimuli/alien_stimuli/15.png,,,,,,,,,,,,,,,,,,,,,,,,,,,,,stimuli/alien_stimuli/11.png,11,4,10,,,,,,,30,,,,,,,,3214.1740657000337,3214.1740657000337,3214.1740657000337,3214.1740657000337,3214.1740657000337,return,11.86191330011934,4,1,0,0,0.16,-0.16,return,11.762679999927059,25,4,0.16,-0.16,3212.6017634000164,0.16,0.16,0.4,0.0,-0.039999999999999994,0.16,0.16,0.16,0.16,3210.2909639000427,3210.2909639000427,3210.2909639000427,3210.2909639000427,3210.2909639000427,3210.2909639000427,3210.2909639000427,3210.2909639000427,3210.2889812202193,2.426624300191179,return,2.276101400144398,,,,,,,,,,,,,,,,,,,,,,,,,,,,,,,,,,AC2LAL,train_y,red_square,bottom_left,2025-07-25_15h48.36.533,HideSeek_v1,2022.2.5,59.972784380594234,
,2,2,2,2,0,0,16,,train_dim1_1,10,30,,,,2,0,2,0,,,,,,,,,0,0,0,0,0,9,9,9,0,0,0,0,,,,,,,,,,,,,,,,,,,,,,,,,stimuli/alien_stimuli/16.png,,,,,,,,,,,,,,,,,,,,,,,,,,,,,stimuli/alien_stimuli/15.png,15,4,11,,,,,,,30,,,,,,,,3233.199933400145,3233.199933400145,3233.199933400145,3233.199933400145,3233.199933400145,return,3.8238349000457674,5,0,0,1,0,-0.24,return,3.73925570002757,25,4,0,-0.24,3231.6271976002026,0.16,-0.08,0.08,0.0,-0.12,0.16,0.16,0.16,-0.08,3227.644667000044,3227.644667000044,3227.644667000044,3227.644667000044,3227.644667000044,3227.644667000044,3227.644667000044,3227.644667000044,3227.6365067601437,4.125197899993509,return,3.958986299810931,,,,,,,,,,,,,,,,,,,,,,,,,,,,,,,,,,AC2LAL,train_y,red_square,bottom_left,2025-07-25_15h48.36.533,HideSeek_v1,2022.2.5,59.972784380594234,
,4,1,4,2,0,1,15,,train_dim1_1,11,30,,,,2,0,2,0,,,,,,,,,0,0,0,0,0,10,10,10,0,0,0,0,,,,,,,,,,,,,,,,,,,,,,,,,stimuli/alien_stimuli/15.png,,,,,,,,,,,,,,,,,,,,,,,,,,,,,stimuli/alien_stimuli/16.png,16,2,12,,,,,,,30,,,,,,,,3245.2448209000286,3245.2448209000286,3245.2448209000286,3245.2448209000286,3245.2448209000286,up,3.388728299876675,5,0,0,99,0.16,-0.24,up,3.298521300079301,,,,,3243.677624900127,0,-0.24,0.0,0.0,-0.24,0,0.0,0,-0.24,3238.611673000036,3238.611673000036,3238.611673000036,3238.611673000036,3238.611673000036,3238.611673000036,3238.611673000036,3238.611673000036,3238.6125091202557,5.178858699975535,return,5.033205599989742,,,,,,,,,,,,,,,,,,,,,,,,,,,,,,,,,,AC2LAL,train_y,red_square,bottom_left,2025-07-25_15h48.36.533,HideSeek_v1,2022.2.5,59.972784380594234,
,4,1,4,2,0,1,15,,train_dim1_1,11,30,,,,2,0,2,0,,,,,,,,,0,0,0,0,0,10,10,10,1,0,1,0,,,,,,,,,,,,,,,,,,,,,,,,,,,,,,,,,,,,,,,,,,,,,,,,,,,,,,,,,,,,,,,,30,,,,,,,,3248.64123570011,3248.64123570011,3248.64123570011,3248.64123570011,3248.64123570011,return,1.2259691001381725,6,0,0,1,0.16,-0.24,return,1.146018800092861,26,4,0.16,-0.24,,,,,,,,,,,,,,,,,,,,,,,,,,,,,,,,,,,,,,,,,,,,,,,,,,,,,,,,AC2LAL,train_y,red_square,bottom_left,2025-07-25_15h48.36.533,HideSeek_v1,2022.2.5,59.972784380594234,
,0,0,0,5,0,5,11,,train_dim1_1,12,30,,,,2,0,2,0,,,,,,,,,0,0,0,0,0,11,11,11,0,0,0,0,,,,,,,,,,,,,,,,,,,,,,,,,stimuli/alien_stimuli/11.png,,,,,,,,,,,,,,,,,,,,,,,,,,,,,stimuli/alien_stimuli/15.png,15,4,13,,,,,,,30,,,,,,,,3255.0988819000777,3255.0988819000777,3255.0988819000777,3255.0988819000777,3255.0988819000777,up,2.9738074999768287,6,0,0,99,-0.16,-0.32,up,2.8901573999319226,,,,,3253.5301517001353,0.16,-0.24,0.08,0.0,-0.28,0.16,0.16,0.16,-0.24,3251.436973000178,3251.436973000178,3251.436973000178,3251.436973000178,3251.436973000178,3251.436973000178,3251.436973000178,3251.436973000178,3251.423276880174,2.2086718000937253,return,2.0673501999117434,3251.436973000178,,,,,,,,,,,,,,,,,,,,,,,,,,,,,,,,,AC2LAL,train_y,red_square,bottom_left,2025-07-25_15h48.36.533,HideSeek_v1,2022.2.5,59.972784380594234,
,0,0,0,5,0,5,11,,train_dim1_1,12,30,,,,2,0,2,0,,,,,,,,,0,0,0,0,0,11,11,11,1,0,1,0,,,,,,,,,,,,,,,,,,,,,,,,,,,,,,,,,,,,,,,,,,,,,,,,,,,,,,,,,,,,,,,,30,,,,,,,,3258.0808695000596,3258.0808695000596,3258.0808695000596,3258.0808695000596,3258.0808695000596,up,0.776485700160265,6,0,0,99,-0.16,-0.24,up,0.6852541000116616,,,,,,,,,,,,,,,,,,,,,,,,,,,,,,,,,,,,,,,,,,,,,,,,,,,,,,,,,,,,AC2LAL,train_y,red_square,bottom_left,2025-07-25_15h48.36.533,HideSeek_v1,2022.2.5,59.972784380594234,
,0,0,0,5,0,5,11,,train_dim1_1,12,30,,,,2,0,2,0,,,,,,,,,0,0,0,0,0,11,11,11,2,0,2,0,,,,,,,,,,,,,,,,,,,,,,,,,,,,,,,,,,,,,,,,,,,,,,,,,,,,,,,,,,,,,,,,30,,,,,,,,3258.865343700163,3258.865343700163,3258.865343700163,3258.865343700163,3258.865343700163,up,0.8937027000356466,6,0,0,99,-0.16,-0.15999999999999998,up,0.8084619999863207,,,,,,,,,,,,,,,,,,,,,,,,,,,,,,,,,,,,,,,,,,,,,,,,,,,,,,,,,,,,AC2LAL,train_y,red_square,bottom_left,2025-07-25_15h48.36.533,HideSeek_v1,2022.2.5,59.972784380594234,
,0,0,0,5,0,5,11,,train_dim1_1,12,30,,,,2,0,2,0,,,,,,,,,0,0,0,0,0,11,11,11,3,0,3,0,,,,,,,,,,,,,,,,,,,,,,,,,,,,,,,,,,,,,,,,,,,,,,,,,,,,,,,,,,,,,,,,30,,,,,,,,3259.765616700053,3259.765616700053,3259.765616700053,3259.765616700053,3259.765616700053,up,0.810801399871707,6,0,0,99,-0.16,-0.07999999999999997,up,0.727952899876982,,,,,,,,,,,,,,,,,,,,,,,,,,,,,,,,,,,,,,,,,,,,,,,,,,,,,,,,,,,,AC2LAL,train_y,red_square,bottom_left,2025-07-25_15h48.36.533,HideSeek_v1,2022.2.5,59.972784380594234,
,0,0,0,5,0,5,11,,train_dim1_1,12,30,,,,2,0,2,0,,,,,,,,,0,0,0,0,0,11,11,11,4,0,4,0,,,,,,,,,,,,,,,,,,,,,,,,,,,,,,,,,,,,,,,,,,,,,,,,,,,,,,,,,,,,,,,,30,,,,,,,,3260.5868197001982,3260.5868197001982,3260.5868197001982,3260.5868197001982,3260.5868197001982,up,0.8061623000539839,6,0,0,99,-0.16,2.7755575615628914e-17,up,0.7243639000225812,,,,,,,,,,,,,,,,,,,,,,,,,,,,,,,,,,,,,,,,,,,,,,,,,,,,,,,,,,,,AC2LAL,train_y,red_square,bottom_left,2025-07-25_15h48.36.533,HideSeek_v1,2022.2.5,59.972784380594234,
,0,0,0,5,0,5,11,,train_dim1_1,12,30,,,,2,0,2,0,,,,,,,,,0,0,0,0,0,11,11,11,5,0,5,0,,,,,,,,,,,,,,,,,,,,,,,,,,,,,,,,,,,,,,,,,,,,,,,,,,,,,,,,,,,,,,,,30,,,,,,,,3261.3997984000016,3261.3997984000016,3261.3997984000016,3261.3997984000016,3261.3997984000016,return,1.0435005999170244,7,0,0,1,-0.16,2.7755575615628914e-17,return,0.953935399884358,31,4,-0.16,2.7755575615628914e-17,,,,,,,,,,,,,,,,,,,,,,,,,,,,,,,,,,,,,,,,,,,,,,,,,,,,,,,,AC2LAL,train_y,red_square,bottom_left,2025-07-25_15h48.36.533,HideSeek_v1,2022.2.5,59.972784380594234,
,4,3,4,7,0,4,12,,train_dim1_1,13,30,,,,2,0,2,0,,,,,,,,,0,0,0,0,0,12,12,12,0,0,0,0,,,,,,,,,,,,,,,,,,,,,,,,,stimuli/alien_stimuli/12.png,,,,,,,,,,,,,,,,,,,,,,,,,,,,,stimuli/alien_stimuli/11.png,11,0,14,,,,,,,30,,,,,,,,3270.731649500085,3270.731649500085,3270.731649500085,3270.731649500085,3270.731649500085,up,6.508919200161472,7,0,0,99,0.16,-0.08,up,6.419718600111082,,,,,3269.1595898000523,-0.16,0,0.4,0.0,-0.2,-0.16,-0.16,-0.16,0,3264.0154130000155,3264.0154130000155,3264.0154130000155,3264.0154130000155,3264.0154130000155,3264.0154130000155,3264.0154130000155,3264.0154130000155,3264.000659180223,5.2618662000168115,return,5.117311800131574,3264.0154130000155,,,,,,,,,,,,,,,,,,,,,,,,,,,,,,,,,AC2LAL,train_y,red_square,bottom_left,2025-07-25_15h48.36.533,HideSeek_v1,2022.2.5,59.972784380594234,
,4,3,4,7,0,4,12,,train_dim1_1,13,30,,,,2,0,2,0,,,,,,,,,0,0,0,0,0,12,12,12,1,0,1,0,,,,,,,,,,,,,,,,,,,,,,,,,,,,,,,,,,,,,,,,,,,,,,,,,,,,,,,,,,,,,,,,30,,,,,,,,3277.2467453000136,3277.2467453000136,3277.2467453000136,3277.2467453000136,3277.2467453000136,up,0.6602471999358386,7,0,0,99,0.16,0.0,up,0.5698486000765115,,,,,,,,,,,,,,,,,,,,,,,,,,,,,,,,,,,,,,,,,,,,,,,,,,,,,,,,,,,,AC2LAL,train_y,red_square,bottom_left,2025-07-25_15h48.36.533,HideSeek_v1,2022.2.5,59.972784380594234,
,4,3,4,7,0,4,12,,train_dim1_1,13,30,,,,2,0,2,0,,,,,,,,,0,0,0,0,0,12,12,12,2,0,2,0,,,,,,,,,,,,,,,,,,,,,,,,,,,,,,,,,,,,,,,,,,,,,,,,,,,,,,,,,,,,,,,,30,,,,,,,,3277.9145210999995,3277.9145210999995,3277.9145210999995,3277.9145210999995,3277.9145210999995,up,0.8426735999528319,7,0,0,99,0.16,0.08,up,0.7499945999588817,,,,,,,,,,,,,,,,,,,,,,,,,,,,,,,,,,,,,,,,,,,,,,,,,,,,,,,,,,,,AC2LAL,train_y,red_square,bottom_left,2025-07-25_15h48.36.533,HideSeek_v1,2022.2.5,59.972784380594234,
,4,3,4,7,0,4,12,,train_dim1_1,13,30,,,,2,0,2,0,,,,,,,,,0,0,0,0,0,12,12,12,3,0,3,0,,,,,,,,,,,,,,,,,,,,,,,,,,,,,,,,,,,,,,,,,,,,,,,,,,,,,,,,,,,,,,,,30,,,,,,,,3278.7639038001653,3278.7639038001653,3278.7639038001653,3278.7639038001653,3278.7639038001653,up,0.7442910999525338,7,0,0,99,0.16,0.16,up,0.6628882000222802,,,,,,,,,,,,,,,,,,,,,,,,,,,,,,,,,,,,,,,,,,,,,,,,,,,,,,,,,,,,AC2LAL,train_y,red_square,bottom_left,2025-07-25_15h48.36.533,HideSeek_v1,2022.2.5,59.972784380594234,
,4,3,4,7,0,4,12,,train_dim1_1,13,30,,,,2,0,2,0,,,,,,,,,0,0,0,0,0,12,12,12,4,0,4,0,,,,,,,,,,,,,,,,,,,,,,,,,,,,,,,,,,,,,,,,,,,,,,,,,,,,,,,,,,,,,,,,30,,,,,,,,3279.515680700075,3279.515680700075,3279.515680700075,3279.515680700075,3279.515680700075,return,5.163267599884421,8,0,0,1,0.16,0.16,return,5.080151699949056,35,4,0.16,0.16,,,,,,,,,,,,,,,,,,,,,,,,,,,,,,,,,,,,,,,,,,,,,,,,,,,,,,,,AC2LAL,train_y,red_square,bottom_left,2025-07-25_15h48.36.533,HideSeek_v1,2022.2.5,59.972784380594234,
,2,2,2,2,0,0,16,,train_dim1_1,14,30,,,,2,0,2,0,,,,,,,,,0,0,0,0,0,13,13,13,0,0,0,0,,,,,,,,,,,,,,,,,,,,,,,,,stimuli/alien_stimuli/16.png,,,,,,,,,,,,,,,,,,,,,,,,,,,,,stimuli/alien_stimuli/12.png,12,4,15,,,,,,,30,,,,,,,,3292.2673538001254,3292.2673538001254,3292.2673538001254,3292.2673538001254,3292.2673538001254,return,3.4715104000642896,9,0,0,1,0,-0.24,return,3.382986200042069,35,4,0,-0.24,3290.693156900117,0.16,0.16,0.32,0.0,0.0,0.16,0.16,0.16,0.16,3286.255040100077,3286.255040100077,3286.255040100077,3286.255040100077,3286.255040100077,3286.255040100077,3286.255040100077,3286.255040100077,3286.252055920195,4.558991000056267,return,4.413710799999535,3286.255040100077,,,,,,,,,,,,,,,,,,,,,,,,,,,,,,,,,AC2LAL,train_y,red_square,bottom_left,2025-07-25_15h48.36.533,HideSeek_v1,2022.2.5,59.972784380594234,
,1,4,1,7,0,3,13,,train_dim1_1,15,30,,,,2,0,2,0,,,,,,,,,0,0,0,0,0,14,14,14,0,0,0,0,,,,,,,,,,,,,,,,,,,,,,,,,stimuli/alien_stimuli/13.png,,,,,,,,,,,,,,,,,,,,,,,,,,,,,stimuli/alien_stimuli/16.png,16,2,16,,,,,,,30,,,,,,,,3302.3397002001293,3302.3397002001293,3302.3397002001293,3302.3397002001293,3302.3397002001293,up,4.940928099909797,9,0,0,99,-0.08,0.0,up,4.853138499893248,,,,,3300.7811231000815,0,-0.24,0.0,0.0,-0.24,0,0.0,0,-0.24,3297.3130524000153,3297.3130524000153,3297.3130524000153,3297.3130524000153,3297.3130524000153,3297.3130524000153,3297.3130524000153,3297.3130524000153,3297.3113680802053,3.5662650999147445,return,3.436461200006306,,,,,,,,,,,,,,,,,,,,,,,,,,,,,,,,,,AC2LAL,train_y,red_square,bottom_left,2025-07-25_15h48.36.533,HideSeek_v1,2022.2.5,59.972784380594234,
,1,4,1,7,0,3,13,,train_dim1_1,15,30,,,,2,0,2,0,,,,,,,,,0,0,0,0,0,14,14,14,1,0,1,0,,,,,,,,,,,,,,,,,,,,,,,,,,,,,,,,,,,,,,,,,,,,,,,,,,,,,,,,,,,,,,,,30,,,,,,,,3307.287617900176,3307.287617900176,3307.287617900176,3307.287617900176,3307.287617900176,up,0.6263969999272376,9,0,0,99,-0.08,0.08,up,0.5417381001170725,,,,,,,,,,,,,,,,,,,,,,,,,,,,,,,,,,,,,,,,,,,,,,,,,,,,,,,,,,,,AC2LAL,train_y,red_square,bottom_left,2025-07-25_15h48.36.533,HideSeek_v1,2022.2.5,59.972784380594234,
,1,4,1,7,0,3,13,,train_dim1_1,15,30,,,,2,0,2,0,,,,,,,,,0,0,0,0,0,14,14,14,2,0,2,0,,,,,,,,,,,,,,,,,,,,,,,,,,,,,,,,,,,,,,,,,,,,,,,,,,,,,,,,,,,,,,,,30,,,,,,,,3307.92104070005,3307.92104070005,3307.92104070005,3307.92104070005,3307.92104070005,up,4.596848899964243,9,0,0,99,-0.08,0.16,up,4.513710299972445,,,,,,,,,,,,,,,,,,,,,,,,,,,,,,,,,,,,,,,,,,,,,,,,,,,,,,,,,,,,AC2LAL,train_y,red_square,bottom_left,2025-07-25_15h48.36.533,HideSeek_v1,2022.2.5,59.972784380594234,
,1,4,1,7,0,3,13,,train_dim1_1,15,30,,,,2,0,2,0,,,,,,,,,0,0,0,0,0,14,14,14,3,0,3,0,,,,,,,,,,,,,,,,,,,,,,,,,,,,,,,,,,,,,,,,,,,,,,,,,,,,,,,,,,,,,,,,30,,,,,,,,3312.54641290009,3312.54641290009,3312.54641290009,3312.54641290009,3312.54641290009,return,2.912060299888253,10,0,0,1,-0.08,0.16,return,2.8108644001185894,38,4,-0.08,0.16,,,,,,,,,,,,,,,,,,,,,,,,,,,,,,,,,,,,,,,,,,,,,,,,,,,,,,,,AC2LAL,train_y,red_square,bottom_left,2025-07-25_15h48.36.533,HideSeek_v1,2022.2.5,59.972784380594234,
,4,0,4,1,0,1,15,,train_dim1_1,16,30,,,,2,0,2,0,,,,,,,,,0,0,0,0,0,15,15,15,0,0,0,0,,,,,,,,,,,,,,,,,,,,,,,,,stimuli/alien_stimuli/15.png,,,,,,,,,,,,,,,,,,,,,,,,,,,,,stimuli/alien_stimuli/13.png,13,1,17,,,,,,,30,,,,,,,,3323.3388193000574,3323.3388193000574,3323.3388193000574,3323.3388193000574,3323.3388193000574,up,3.3743163000326604,10,0,0,99,0.16,-0.32,up,3.2848131000064313,,,,,3321.768250200199,-0.08,0.16,0.24,0.0,0.04,-0.08,-0.08,-0.08,0.16,3317.0069246001076,3317.0069246001076,3317.0069246001076,3317.0069246001076,3317.0069246001076,3317.0069246001076,3317.0069246001076,3317.0069246001076,3316.994277180056,4.875227200100198,return,4.730348099954426,3317.0069246001076,,,,,,,,,,,,,,,,,,,,,,,,,,,,,,,,,AC2LAL,train_y,red_square,bottom_left,2025-07-25_15h48.36.533,HideSeek_v1,2022.2.5,59.972784380594234,
,4,0,4,1,0,1,15,,train_dim1_1,16,30,,,,2,0,2,0,,,,,,,,,0,0,0,0,0,15,15,15,1,0,1,0,,,,,,,,,,,,,,,,,,,,,,,,,,,,,,,,,,,,,,,,,,,,,,,,,,,,,,,,,,,,,,,,30,,,,,,,,3326.7214997999836,3326.7214997999836,3326.7214997999836,3326.7214997999836,3326.7214997999836,return,0.9931293001864105,11,0,0,1,0.16,-0.32,return,0.9067095997743309,39,4,0.16,-0.32,,,,,,,,,,,,,,,,,,,,,,,,,,,,,,,,,,,,,,,,,,,,,,,,,,,,,,,,AC2LAL,train_y,red_square,bottom_left,2025-07-25_15h48.36.533,HideSeek_v1,2022.2.5,59.972784380594234,
,3,3,3,6,0,3,13,,train_dim1_1,17,30,,,,2,0,2,0,,,,,,,,,0,0,0,0,0,16,16,16,0,0,0,0,,,,,,,,,,,,,,,,,,,,,,,,,stimuli/alien_stimuli/13.png,,,,,,,,,,,,,,,,,,,,,,,,,,,,,stimuli/alien_stimuli/15.png,15,4,18,,,,,,,30,,,,,,,,3335.6352077000774,3335.6352077000774,3335.6352077000774,3335.6352077000774,3335.6352077000774,up,3.4554314000997692,11,0,0,99,0.08,-0.08,up,3.3775773998349905,,,,,3334.064043099992,0.16,-0.32,0.08,0.0,-0.36,0.16,0.16,0.16,-0.32,3329.285508800065,3329.285508800065,3329.285508800065,3329.285508800065,3329.285508800065,3329.285508800065,3329.285508800065,3329.285508800065,3329.2713952801423,4.893537899944931,return,4.753697499865666,3329.285508800065,,,,,,,,,,,,,,,,,,,,,,,,,,,,,,,,,AC2LAL,train_y,red_square,bottom_left,2025-07-25_15h48.36.533,HideSeek_v1,2022.2.5,59.972784380594234,
,3,3,3,6,0,3,13,,train_dim1_1,17,30,,,,2,0,2,0,,,,,,,,,0,0,0,0,0,16,16,16,1,0,1,0,,,,,,,,,,,,,,,,,,,,,,,,,,,,,,,,,,,,,,,,,,,,,,,,,,,,,,,,,,,,,,,,30,,,,,,,,3339.1173323001713,3339.1173323001713,3339.1173323001713,3339.1173323001713,3339.1173323001713,up,0.7078821000177413,11,0,0,99,0.08,0.0,up,0.5995791999157518,,,,,,,,,,,,,,,,,,,,,,,,,,,,,,,,,,,,,,,,,,,,,,,,,,,,,,,,,,,,AC2LAL,train_y,red_square,bottom_left,2025-07-25_15h48.36.533,HideSeek_v1,2022.2.5,59.972784380594234,
,3,3,3,6,0,3,13,,train_dim1_1,17,30,,,,2,0,2,0,,,,,,,,,0,0,0,0,0,16,16,16,2,0,2,0,,,,,,,,,,,,,,,,,,,,,,,,,,,,,,,,,,,,,,,,,,,,,,,,,,,,,,,,,,,,,,,,30,,,,,,,,3339.814022100065,3339.814022100065,3339.814022100065,3339.814022100065,3339.814022100065,up,1.2274854998104274,11,0,0,99,0.08,0.08,up,1.14228369994089,,,,,,,,,,,,,,,,,,,,,,,,,,,,,,,,,,,,,,,,,,,,,,,,,,,,,,,,,,,,AC2LAL,train_y,red_square,bottom_left,2025-07-25_15h48.36.533,HideSeek_v1,2022.2.5,59.972784380594234,
,3,3,3,6,0,3,13,,train_dim1_1,17,30,,,,2,0,2,0,,,,,,,,,0,0,0,0,0,16,16,16,3,0,3,0,,,,,,,,,,,,,,,,,,,,,,,,,,,,,,,,,,,,,,,,,,,,,,,,,,,,,,,,,,,,,,,,30,,,,,,,,3341.0484153002035,3341.0484153002035,3341.0484153002035,3341.0484153002035,3341.0484153002035,return,3.8295293000992388,12,0,0,1,0.08,0.08,return,3.752647099783644,42,4,0.08,0.08,,,,,,,,,,,,,,,,,,,,,,,,,,,,,,,,,,,,,,,,,,,,,,,,,,,,,,,,AC2LAL,train_y,red_square,bottom_left,2025-07-25_15h48.36.533,HideSeek_v1,2022.2.5,59.972784380594234,
,2,1,2,6,0,5,11,,train_dim1_1,18,30,,,,2,0,2,0,,,,,,,,,0,0,0,0,0,17,17,17,0,0,0,0,,,,,,,,,,,,,,,,,,,,,,,,,stimuli/alien_stimuli/11.png,,,,,,,,,,,,,,,,,,,,,,,,,,,,,stimuli/alien_stimuli/13.png,13,3,19,,,,,,,30,,,,,,,,3352.3137966999784,3352.3137966999784,3352.3137966999784,3352.3137966999784,3352.3137966999784,up,1.9057034000288695,12,0,0,99,0,-0.24,up,1.8249299000017345,,,,,3350.7561898999847,0.08,0.08,0.24,0.0,-0.04,0.08,0.08,0.08,0.08,3346.451839599991,3346.451839599991,3346.451839599991,3346.451839599991,3346.451839599991,3346.451839599991,3346.451839599991,3346.451839599991,3346.45215922012,4.422272199997678,return,4.270615299930796,3352.3137966999784,,,,,,,,,,,,,,,,,,,,,,,,,,,,,,,,,AC2LAL,train_y,red_square,bottom_left,2025-07-25_15h48.36.533,HideSeek_v1,2022.2.5,59.972784380594234,
,2,1,2,6,0,5,11,,train_dim1_1,18,30,,,,2,0,2,0,,,,,,,,,0,0,0,0,0,17,17,17,1,0,1,0,,,,,,,,,,,,,,,,,,,,,,,,,,,,,,,,,,,,,,,,,,,,,,,,,,,,,,,,,,,,,,,,30,,,,,,,,3354.2284776000306,3354.2284776000306,3354.2284776000306,3354.2284776000306,3354.2284776000306,up,0.6099136001430452,12,0,0,99,0,-0.15999999999999998,up,0.5242989000398666,,,,,,,,,,,,,,,,,,,,,,,,,,,,,,,,,,,,,,,,,,,,,,,,,,,,,,,,,,,,AC2LAL,train_y,red_square,bottom_left,2025-07-25_15h48.36.533,HideSeek_v1,2022.2.5,59.972784380594234,
,2,1,2,6,0,5,11,,train_dim1_1,18,30,,,,2,0,2,0,,,,,,,,,0,0,0,0,0,17,17,17,2,0,2,0,,,,,,,,,,,,,,,,,,,,,,,,,,,,,,,,,,,,,,,,,,,,,,,,,,,,,,,,,,,,,,,,30,,,,,,,,3354.8434379000682,3354.8434379000682,3354.8434379000682,3354.8434379000682,3354.8434379000682,up,0.5102142998948693,12,0,0,99,0,-0.07999999999999997,up,0.4241110000293702,,,,,,,,,,,,,,,,,,,,,,,,,,,,,,,,,,,,,,,,,,,,,,,,,,,,,,,,,,,,AC2LAL,train_y,red_square,bottom_left,2025-07-25_15h48.36.533,HideSeek_v1,2022.2.5,59.972784380594234,
,2,1,2,6,0,5,11,,train_dim1_1,18,30,,,,2,0,2,0,,,,,,,,,0,0,0,0,0,17,17,17,3,0,3,0,,,,,,,,,,,,,,,,,,,,,,,,,,,,,,,,,,,,,,,,,,,,,,,,,,,,,,,,,,,,,,,,30,,,,,,,,3355.361769600073,3355.361769600073,3355.361769600073,3355.361769600073,3355.361769600073,up,0.6267893000040203,12,0,0,99,0,2.7755575615628914e-17,up,0.5399643001146615,,,,,,,,,,,,,,,,,,,,,,,,,,,,,,,,,,,,,,,,,,,,,,,,,,,,,,,,,,,,AC2LAL,train_y,red_square,bottom_left,2025-07-25_15h48.36.533,HideSeek_v1,2022.2.5,59.972784380594234,
,2,1,2,6,0,5,11,,train_dim1_1,18,30,,,,2,0,2,0,,,,,,,,,0,0,0,0,0,17,17,17,4,0,4,0,,,,,,,,,,,,,,,,,,,,,,,,,,,,,,,,,,,,,,,,,,,,,,,,,,,,,,,,,,,,,,,,30,,,,,,,,3355.9949380001053,3355.9949380001053,3355.9949380001053,3355.9949380001053,3355.9949380001053,up,0.643517900025472,12,0,0,99,0,0.08000000000000003,up,0.5591604001820087,,,,,,,,,,,,,,,,,,,,,,,,,,,,,,,,,,,,,,,,,,,,,,,,,,,,,,,,,,,,AC2LAL,train_y,red_square,bottom_left,2025-07-25_15h48.36.533,HideSeek_v1,2022.2.5,59.972784380594234,
,2,1,2,6,0,5,11,,train_dim1_1,18,30,,,,2,0,2,0,,,,,,,,,0,0,0,0,0,17,17,17,5,0,5,0,,,,,,,,,,,,,,,,,,,,,,,,,,,,,,,,,,,,,,,,,,,,,,,,,,,,,,,,,,,,,,,,30,,,,,,,,3356.6450283001177,3356.6450283001177,3356.6450283001177,3356.6450283001177,3356.6450283001177,return,2.6286011999472976,13,0,0,1,0,0.08000000000000003,return,2.5405705999583006,47,4,0,0.08000000000000003,,,,,,,,,,,,,,,,,,,,,,,,,,,,,,,,,,,,,,,,,,,,,,,,,,,,,,,,AC2LAL,train_y,red_square,bottom_left,2025-07-25_15h48.36.533,HideSeek_v1,2022.2.5,59.972784380594234,
,0,4,0,8,0,4,12,,train_dim1_1,19,30,,,,2,0,2,0,,,,,,,,,0,0,0,0,0,18,18,18,0,0,0,0,,,,,,,,,,,,,,,,,,,,,,,,,stimuli/alien_stimuli/12.png,,,,,,,,,,,,,,,,,,,,,,,,,,,,,stimuli/alien_stimuli/11.png,11,2,20,,,,,,,30,,,,,,,,3366.4433346001897,3366.4433346001897,3366.4433346001897,3366.4433346001897,3366.4433346001897,up,2.206408199854195,13,0,0,99,-0.16,0.0,up,2.1259511997923255,,,,,3364.8728648000397,0,0.08,0.4,0.0,-0.12,0,0.0,0,0.08,3360.8460299000144,3360.8460299000144,3360.8460299000144,3360.8460299000144,3360.8460299000144,3360.8460299000144,3360.8460299000144,3360.8460299000144,3360.8309091801057,4.144484099932015,return,3.9994670001324266,3360.8460299000144,,,,,,,,,,,,,,,,,,,,,,,,,,,,,,,,,AC2LAL,train_y,red_square,bottom_left,2025-07-25_15h48.36.533,HideSeek_v1,2022.2.5,59.972784380594234,
,0,4,0,8,0,4,12,,train_dim1_1,19,30,,,,2,0,2,0,,,,,,,,,0,0,0,0,0,18,18,18,1,0,1,0,,,,,,,,,,,,,,,,,,,,,,,,,,,,,,,,,,,,,,,,,,,,,,,,,,,,,,,,,,,,,,,,30,,,,,,,,3368.6625052001327,3368.6625052001327,3368.6625052001327,3368.6625052001327,3368.6625052001327,up,0.6424698999617249,13,0,0,99,-0.16,0.08,up,0.5568768000230193,,,,,,,,,,,,,,,,,,,,,,,,,,,,,,,,,,,,,,,,,,,,,,,,,,,,,,,,,,,,AC2LAL,train_y,red_square,bottom_left,2025-07-25_15h48.36.533,HideSeek_v1,2022.2.5,59.972784380594234,
,0,4,0,8,0,4,12,,train_dim1_1,19,30,,,,2,0,2,0,,,,,,,,,0,0,0,0,0,18,18,18,2,0,2,0,,,,,,,,,,,,,,,,,,,,,,,,,,,,,,,,,,,,,,,,,,,,,,,,,,,,,,,,,,,,,,,,30,,,,,,,,3369.3059836002067,3369.3059836002067,3369.3059836002067,3369.3059836002067,3369.3059836002067,up,0.7771415000315756,13,0,0,99,-0.16,0.16,up,0.6930233999155462,,,,,,,,,,,,,,,,,,,,,,,,,,,,,,,,,,,,,,,,,,,,,,,,,,,,,,,,,,,,AC2LAL,train_y,red_square,bottom_left,2025-07-25_15h48.36.533,HideSeek_v1,2022.2.5,59.972784380594234,
,0,4,0,8,0,4,12,,train_dim1_1,19,30,,,,2,0,2,0,,,,,,,,,0,0,0,0,0,18,18,18,3,0,3,0,,,,,,,,,,,,,,,,,,,,,,,,,,,,,,,,,,,,,,,,,,,,,,,,,,,,,,,,,,,,,,,,30,,,,,,,,3370.089719900163,3370.089719900163,3370.089719900163,3370.089719900163,3370.089719900163,up,2.7452595001086593,13,0,0,99,-0.16,0.24,up,2.6553080999292433,,,,,,,,,,,,,,,,,,,,,,,,,,,,,,,,,,,,,,,,,,,,,,,,,,,,,,,,,,,,AC2LAL,train_y,red_square,bottom_left,2025-07-25_15h48.36.533,HideSeek_v1,2022.2.5,59.972784380594234,
,0,4,0,8,0,4,12,,train_dim1_1,19,30,,,,2,0,2,0,,,,,,,,,0,0,0,0,0,18,18,18,4,0,4,0,,,,,,,,,,,,,,,,,,,,,,,,,,,,,,,,,,,,,,,,,,,,,,,,,,,,,,,,,,,,,,,,30,,,,,,,,3372.843369500013,3372.843369500013,3372.843369500013,3372.843369500013,3372.843369500013,return,0.8775396000128239,14,0,0,1,-0.16,0.24,return,0.7965522999875247,51,4,-0.16,0.24,,,,,,,,,,,,,,,,,,,,,,,,,,,,,,,,,,,,,,,,,,,,,,,,,,,,,,,,AC2LAL,train_y,red_square,bottom_left,2025-07-25_15h48.36.533,HideSeek_v1,2022.2.5,59.972784380594234,
,2,0,2,0,0,0,16,,train_dim1_1,20,30,,,,2,0,2,0,,,,,,,,,0,0,0,0,0,19,19,19,0,0,0,0,,,,,,,,,,,,,,,,,,,,,,,,,stimuli/alien_stimuli/16.png,,,,,,,,,,,,,,,,,,,,,,,,,,,,,stimuli/alien_stimuli/12.png,12,0,21,,,,,,,30,,,,,,,,3380.0378208002076,3380.0378208002076,3380.0378208002076,3380.0378208002076,3380.0378208002076,return,2.8892602999694645,15,0,0,1,0,-0.4,return,2.80950600001961,51,4,0,-0.4,3378.4673911000136,-0.16,0.24,0.32,0.0,0.07999999999999999,-0.16,-0.16,-0.16,0.24,3375.3130663000047,3375.3130663000047,3375.3130663000047,3375.3130663000047,3375.3130663000047,3375.3130663000047,3375.3130663000047,3375.3130663000047,3375.3095363201573,3.278938499977812,return,3.13693829998374,,,,,,,,,,,,,,,,,,,,,,,,,,,,,,,,,,AC2LAL,train_y,red_square,bottom_left,2025-07-25_15h48.36.533,HideSeek_v1,2022.2.5,59.972784380594234,
,2,4,2,5,0,1,15,,train_dim1_1,21,30,,,,2,0,2,0,,,,,,,,,0,0,0,0,0,20,20,20,0,0,0,0,,,,,,,,,,,,,,,,,,,,,,,,,stimuli/alien_stimuli/15.png,,,,,,,,,,,,,,,,,,,,,,,,,,,,,stimuli/alien_stimuli/16.png,16,2,22,,,,,,,30,,,,,,,,3395.565937000094,3395.565937000094,3395.565937000094,3395.565937000094,3395.565937000094,up,1.7893801999744028,15,0,0,99,0,0.0,up,1.6914741999935359,,,,,3393.9801502001937,0,-0.4,0.0,0.0,-0.4,0,0.0,0,-0.4,3384.500239400193,3384.500239400193,3384.500239400193,3384.500239400193,3384.500239400193,3384.500239400193,3384.500239400193,3384.500239400193,3384.5007562801475,9.581194099970162,return,9.457181099802256,,,,,,,,,,,,,,,,,,,,,,,,,,,,,,,,,,AC2LAL,train_y,red_square,bottom_left,2025-07-25_15h48.36.533,HideSeek_v1,2022.2.5,59.972784380594234,
,2,4,2,5,0,1,15,,train_dim1_1,21,30,,,,2,0,2,0,,,,,,,,,0,0,0,0,0,20,20,20,1,0,1,0,,,,,,,,,,,,,,,,,,,,,,,,,,,,,,,,,,,,,,,,,,,,,,,,,,,,,,,,,,,,,,,,30,,,,,,,,3397.346344600199,3397.346344600199,3397.346344600199,3397.346344600199,3397.346344600199,return,0.693560800049454,16,0,0,1,0,0.0,return,0.6137442998588085,52,4,0,0.0,,,,,,,,,,,,,,,,,,,,,,,,,,,,,,,,,,,,,,,,,,,,,,,,,,,,,,,,AC2LAL,train_y,red_square,bottom_left,2025-07-25_15h48.36.533,HideSeek_v1,2022.2.5,59.972784380594234,
,0,2,0,5,0,3,13,,train_dim1_1,22,30,,,,2,0,2,0,,,,,,,,,0,0,0,0,0,21,21,21,0,0,0,0,,,,,,,,,,,,,,,,,,,,,,,,,stimuli/alien_stimuli/13.png,,,,,,,,,,,,,,,,,,,,,,,,,,,,,stimuli/alien_stimuli/15.png,15,2,23,,,,,,,30,,,,,,,,3404.839310400188,3404.839310400188,3404.839310400188,3404.839310400188,3404.839310400188,up,4.124678599881008,16,0,0,99,-0.16,-0.15999999999999998,up,4.034805600065738,,,,,3403.2829526001588,0,0,0.08,0.0,-0.04,0,0.0,0,0,3399.613709400175,3399.613709400175,3399.613709400175,3399.613709400175,3399.613709400175,3399.613709400175,3399.613709400175,3399.613709400175,3399.6129811201245,3.7834776998497546,return,3.6435416999738663,3399.613709400175,,,,,,,,,,,,,,,,,,,,,,,,,,,,,,,,,AC2LAL,train_y,red_square,bottom_left,2025-07-25_15h48.36.533,HideSeek_v1,2022.2.5,59.972784380594234,
,0,2,0,5,0,3,13,,train_dim1_1,22,30,,,,2,0,2,0,,,,,,,,,0,0,0,0,0,21,21,21,1,0,1,0,,,,,,,,,,,,,,,,,,,,,,,,,,,,,,,,,,,,,,,,,,,,,,,,,,,,,,,,,,,,,,,,30,,,,,,,,3408.973031600006,3408.973031600006,3408.973031600006,3408.973031600006,3408.973031600006,up,0.609749399824068,16,0,0,99,-0.16,-0.07999999999999997,up,0.5176352001726627,,,,,,,,,,,,,,,,,,,,,,,,,,,,,,,,,,,,,,,,,,,,,,,,,,,,,,,,,,,,AC2LAL,train_y,red_square,bottom_left,2025-07-25_15h48.36.533,HideSeek_v1,2022.2.5,59.972784380594234,
,0,2,0,5,0,3,13,,train_dim1_1,22,30,,,,2,0,2,0,,,,,,,,,0,0,0,0,0,21,21,21,2,0,2,0,,,,,,,,,,,,,,,,,,,,,,,,,,,,,,,,,,,,,,,,,,,,,,,,,,,,,,,,,,,,,,,,30,,,,,,,,3409.589037600206,3409.589037600206,3409.589037600206,3409.589037600206,3409.589037600206,up,0.9767831999342889,16,0,0,99,-0.16,2.7755575615628914e-17,up,0.8937816000543535,,,,,,,,,,,,,,,,,,,,,,,,,,,,,,,,,,,,,,,,,,,,,,,,,,,,,,,,,,,,AC2LAL,train_y,red_square,bottom_left,2025-07-25_15h48.36.533,HideSeek_v1,2022.2.5,59.972784380594234,
,0,2,0,5,0,3,13,,train_dim1_1,22,30,,,,2,0,2,0,,,,,,,,,0,0,0,0,0,21,21,21,3,0,3,0,,,,,,,,,,,,,,,,,,,,,,,,,,,,,,,,,,,,,,,,,,,,,,,,,,,,,,,,,,,,,,,,30,,,,,,,,3410.5731130000204,3410.5731130000204,3410.5731130000204,3410.5731130000204,3410.5731130000204,return,0.9271458999719471,17,0,0,1,-0.16,2.7755575615628914e-17,return,0.8348675000015646,55,4,-0.16,2.7755575615628914e-17,,,,,,,,,,,,,,,,,,,,,,,,,,,,,,,,,,,,,,,,,,,,,,,,,,,,,,,,AC2LAL,train_y,red_square,bottom_left,2025-07-25_15h48.36.533,HideSeek_v1,2022.2.5,59.972784380594234,
,0,3,0,8,0,5,11,,train_dim1_1,23,30,,,,2,0,2,0,,,,,,,,,0,0,0,0,0,22,22,22,0,0,0,0,,,,,,,,,,,,,,,,,,,,,,,,,stimuli/alien_stimuli/11.png,,,,,,,,,,,,,,,,,,,,,,,,,,,,,stimuli/alien_stimuli/13.png,13,0,24,,,,,,,30,,,,,,,,3416.484306400176,3416.484306400176,3416.484306400176,3416.484306400176,3416.484306400176,up,1.6382881999015808,17,0,0,99,-0.16,-0.08,up,1.551794599974528,,,,,3414.928016600199,-0.16,0,0.24,0.0,-0.12,-0.16,-0.16,-0.16,0,3413.0743856001645,3413.0743856001645,3413.0743856001645,3413.0743856001645,3413.0743856001645,3413.0743856001645,3413.0743856001645,3413.0743856001645,3413.0744377202354,1.971659299917519,return,1.828648499911651,3416.484306400176,,,,,,,,,,,,,,,,,,,,,,,,,,,,,,,,,AC2LAL,train_y,red_square,bottom_left,2025-07-25_15h48.36.533,HideSeek_v1,2022.2.5,59.972784380594234,
,0,3,0,8,0,5,11,,train_dim1_1,23,30,,,,2,0,2,0,,,,,,,,,0,0,0,0,0,22,22,22,1,0,1,0,,,,,,,,,,,,,,,,,,,,,,,,,,,,,,,,,,,,,,,,,,,,,,,,,,,,,,,,,,,,,,,,30,,,,,,,,3418.13370760018,3418.13370760018,3418.13370760018,3418.13370760018,3418.13370760018,up,0.6419676998630166,17,0,0,99,-0.16,0.0,up,0.5508135999552906,,,,,,,,,,,,,,,,,,,,,,,,,,,,,,,,,,,,,,,,,,,,,,,,,,,,,,,,,,,,AC2LAL,train_y,red_square,bottom_left,2025-07-25_15h48.36.533,HideSeek_v1,2022.2.5,59.972784380594234,
,0,3,0,8,0,5,11,,train_dim1_1,23,30,,,,2,0,2,0,,,,,,,,,0,0,0,0,0,22,22,22,2,0,2,0,,,,,,,,,,,,,,,,,,,,,,,,,,,,,,,,,,,,,,,,,,,,,,,,,,,,,,,,,,,,,,,,30,,,,,,,,3418.781088200165,3418.781088200165,3418.781088200165,3418.781088200165,3418.781088200165,up,0.6761851999908686,17,0,0,99,-0.16,0.08,up,0.591711699962616,,,,,,,,,,,,,,,,,,,,,,,,,,,,,,,,,,,,,,,,,,,,,,,,,,,,,,,,,,,,AC2LAL,train_y,red_square,bottom_left,2025-07-25_15h48.36.533,HideSeek_v1,2022.2.5,59.972784380594234,
,0,3,0,8,0,5,11,,train_dim1_1,23,30,,,,2,0,2,0,,,,,,,,,0,0,0,0,0,22,22,22,3,0,3,0,,,,,,,,,,,,,,,,,,,,,,,,,,,,,,,,,,,,,,,,,,,,,,,,,,,,,,,,,,,,,,,,30,,,,,,,,3419.463314600056,3419.463314600056,3419.463314600056,3419.463314600056,3419.463314600056,up,0.6934120999649167,17,0,0,99,-0.16,0.16,up,0.6052568999584764,,,,,,,,,,,,,,,,,,,,,,,,,,,,,,,,,,,,,,,,,,,,,,,,,,,,,,,,,,,,AC2LAL,train_y,red_square,bottom_left,2025-07-25_15h48.36.533,HideSeek_v1,2022.2.5,59.972784380594234,
,0,3,0,8,0,5,11,,train_dim1_1,23,30,,,,2,0,2,0,,,,,,,,,0,0,0,0,0,22,22,22,4,0,4,0,,,,,,,,,,,,,,,,,,,,,,,,,,,,,,,,,,,,,,,,,,,,,,,,,,,,,,,,,,,,,,,,30,,,,,,,,3420.165177399991,3420.165177399991,3420.165177399991,3420.165177399991,3420.165177399991,up,0.5431857001967728,17,0,0,99,-0.16,0.24,up,0.465361500158906,,,,,,,,,,,,,,,,,,,,,,,,,,,,,,,,,,,,,,,,,,,,,,,,,,,,,,,,,,,,AC2LAL,train_y,red_square,bottom_left,2025-07-25_15h48.36.533,HideSeek_v1,2022.2.5,59.972784380594234,
,0,3,0,8,0,5,11,,train_dim1_1,23,30,,,,2,0,2,0,,,,,,,,,0,0,0,0,0,22,22,22,5,0,5,0,,,,,,,,,,,,,,,,,,,,,,,,,,,,,,,,,,,,,,,,,,,,,,,,,,,,,,,,,,,,,,,,30,,,,,,,,3420.715302000055,3420.715302000055,3420.715302000055,3420.715302000055,3420.715302000055,return,0.8937258999794722,18,0,0,1,-0.16,0.24,return,0.8165032998658717,60,4,-0.16,0.24,,,,,,,,,,,,,,,,,,,,,,,,,,,,,,,,,,,,,,,,,,,,,,,,,,,,,,,,AC2LAL,train_y,red_square,bottom_left,2025-07-25_15h48.36.533,HideSeek_v1,2022.2.5,59.972784380594234,
,3,2,3,2,0,0,16,,train_dim1_1,24,30,,,,2,0,2,0,,,,,,,,,0,0,0,0,0,23,23,23,0,0,0,0,,,,,,,,,,,,,,,,,,,,,,,,,stimuli/alien_stimuli/16.png,,,,,,,,,,,,,,,,,,,,,,,,,,,,,stimuli/alien_stimuli/11.png,11,0,25,,,,,,,30,,,,,,,,3428.4770292001776,3428.4770292001776,3428.4770292001776,3428.4770292001776,3428.4770292001776,return,1.6231221000198275,19,0,0,1,0.08,-0.24,return,1.5394824999384582,60,4,0.08,-0.24,3426.907612500014,-0.16,0.24,0.4,0.0,0.039999999999999994,-0.16,-0.16,-0.16,0.24,3423.1680093000177,3423.1680093000177,3423.1680093000177,3423.1680093000177,3423.1680093000177,3423.1680093000177,3423.1680093000177,3423.1680093000177,3423.1660596801667,3.8446275000460446,return,3.7205957998521626,3423.1680093000177,,,,,,,,,,,,,,,,,,,,,,,,,,,,,,,,,AC2LAL,train_y,red_square,bottom_left,2025-07-25_15h48.36.533,HideSeek_v1,2022.2.5,59.972784380594234,
,3,3,3,7,0,4,12,,train_dim1_1,25,30,,,,2,0,2,0,,,,,,,,,0,0,0,0,0,24,24,24,0,0,0,0,,,,,,,,,,,,,,,,,,,,,,,,,stimuli/alien_stimuli/12.png,,,,,,,,,,,,,,,,,,,,,,,,,,,,,stimuli/alien_stimuli/16.png,16,3,26,,,,,,,30,,,,,,,,3441.755965600023,3441.755965600023,3441.755965600023,3441.755965600023,3441.755965600023,up,2.090368499979377,19,0,0,99,0.08,-0.08,up,1.9954651999287307,,,,,3440.1970703001134,0.08,-0.24,0.0,0.0,-0.24,0.08,0.08,0.08,-0.24,3431.6698668000754,3431.6698668000754,3431.6698668000754,3431.6698668000754,3431.6698668000754,3431.6698668000754,3431.6698668000754,3431.6698668000754,3431.6564702400938,8.620630299905315,return,8.493321599904448,,,,,,,,,,,,,,,,,,,,,,,,,,,,,,,,,,AC2LAL,train_y,red_square,bottom_left,2025-07-25_15h48.36.533,HideSeek_v1,2022.2.5,59.972784380594234,
,3,3,3,7,0,4,12,,train_dim1_1,25,30,,,,2,0,2,0,,,,,,,,,0,0,0,0,0,24,24,24,1,0,1,0,,,,,,,,,,,,,,,,,,,,,,,,,,,,,,,,,,,,,,,,,,,,,,,,,,,,,,,,,,,,,,,,30,,,,,,,,3443.8526819001418,3443.8526819001418,3443.8526819001418,3443.8526819001418,3443.8526819001418,up,0.7097019001375884,19,0,0,99,0.08,0.0,up,0.6240492998622358,,,,,,,,,,,,,,,,,,,,,,,,,,,,,,,,,,,,,,,,,,,,,,,,,,,,,,,,,,,,AC2LAL,train_y,red_square,bottom_left,2025-07-25_15h48.36.533,HideSeek_v1,2022.2.5,59.972784380594234,
,3,3,3,7,0,4,12,,train_dim1_1,25,30,,,,2,0,2,0,,,,,,,,,0,0,0,0,0,24,24,24,2,0,2,0,,,,,,,,,,,,,,,,,,,,,,,,,,,,,,,,,,,,,,,,,,,,,,,,,,,,,,,,,,,,,,,,30,,,,,,,,3444.568665200146,3444.568665200146,3444.568665200146,3444.568665200146,3444.568665200146,up,0.7267338999081403,19,0,0,99,0.08,0.08,up,0.6339944000355899,,,,,,,,,,,,,,,,,,,,,,,,,,,,,,,,,,,,,,,,,,,,,,,,,,,,,,,,,,,,AC2LAL,train_y,red_square,bottom_left,2025-07-25_15h48.36.533,HideSeek_v1,2022.2.5,59.972784380594234,
,3,3,3,7,0,4,12,,train_dim1_1,25,30,,,,2,0,2,0,,,,,,,,,0,0,0,0,0,24,24,24,3,0,3,0,,,,,,,,,,,,,,,,,,,,,,,,,,,,,,,,,,,,,,,,,,,,,,,,,,,,,,,,,,,,,,,,30,,,,,,,,3445.3031068001874,3445.3031068001874,3445.3031068001874,3445.3031068001874,3445.3031068001874,up,1.0270845000632107,19,0,0,99,0.08,0.16,up,0.934342100052163,,,,,,,,,,,,,,,,,,,,,,,,,,,,,,,,,,,,,,,,,,,,,,,,,,,,,,,,,,,,AC2LAL,train_y,red_square,bottom_left,2025-07-25_15h48.36.533,HideSeek_v1,2022.2.5,59.972784380594234,
,3,3,3,7,0,4,12,,train_dim1_1,25,30,,,,2,0,2,0,,,,,,,,,0,0,0,0,0,24,24,24,4,0,4,0,,,,,,,,,,,,,,,,,,,,,,,,,,,,,,,,,,,,,,,,,,,,,,,,,,,,,,,,,,,,,,,,30,,,,,,,,3446.344085799996,3446.344085799996,3446.344085799996,3446.344085799996,3446.344085799996,return,0.9606208999175578,20,0,0,1,0.08,0.16,return,0.8722838000394404,64,4,0.08,0.16,,,,,,,,,,,,,,,,,,,,,,,,,,,,,,,,,,,,,,,,,,,,,,,,,,,,,,,,AC2LAL,train_y,red_square,bottom_left,2025-07-25_15h48.36.533,HideSeek_v1,2022.2.5,59.972784380594234,
,4,4,4,7,0,3,13,,train_dim1_1,26,30,,,,2,0,2,0,,,,,,,,,0,0,0,0,0,25,25,25,0,0,0,0,,,,,,,,,,,,,,,,,,,,,,,,,stimuli/alien_stimuli/13.png,,,,,,,,,,,,,,,,,,,,,,,,,,,,,stimuli/alien_stimuli/12.png,12,3,27,,,,,,,30,,,,,,,,3452.951240000082,3452.951240000082,3452.951240000082,3452.951240000082,3452.951240000082,up,3.7217250999528915,20,0,0,99,0.16,0.0,up,3.643649500096217,,,,,3451.376263700193,0.08,0.16,0.32,0.0,0.0,0.08,0.08,0.08,0.16,3448.871703900164,3448.871703900164,3448.871703900164,3448.871703900164,3448.871703900164,3448.871703900164,3448.871703900164,3448.871703900164,3448.870627020253,2.6237656997982413,return,2.486977099906653,3448.871703900164,,,,,,,,,,,,,,,,,,,,,,,,,,,,,,,,,AC2LAL,train_y,red_square,bottom_left,2025-07-25_15h48.36.533,HideSeek_v1,2022.2.5,59.972784380594234,
,4,4,4,7,0,3,13,,train_dim1_1,26,30,,,,2,0,2,0,,,,,,,,,0,0,0,0,0,25,25,25,1,0,1,0,,,,,,,,,,,,,,,,,,,,,,,,,,,,,,,,,,,,,,,,,,,,,,,,,,,,,,,,,,,,,,,,30,,,,,,,,3456.6790053001605,3456.6790053001605,3456.6790053001605,3456.6790053001605,3456.6790053001605,up,0.8426773999817669,20,0,0,99,0.16,0.08,up,0.7572371000424027,,,,,,,,,,,,,,,,,,,,,,,,,,,,,,,,,,,,,,,,,,,,,,,,,,,,,,,,,,,,AC2LAL,train_y,red_square,bottom_left,2025-07-25_15h48.36.533,HideSeek_v1,2022.2.5,59.972784380594234,
,4,4,4,7,0,3,13,,train_dim1_1,26,30,,,,2,0,2,0,,,,,,,,,0,0,0,0,0,25,25,25,2,0,2,0,,,,,,,,,,,,,,,,,,,,,,,,,,,,,,,,,,,,,,,,,,,,,,,,,,,,,,,,,,,,,,,,30,,,,,,,,3457.52873440017,3457.52873440017,3457.52873440017,3457.52873440017,3457.52873440017,up,3.045402199961245,20,0,0,99,0.16,0.16,up,2.9623847999610007,,,,,,,,,,,,,,,,,,,,,,,,,,,,,,,,,,,,,,,,,,,,,,,,,,,,,,,,,,,,AC2LAL,train_y,red_square,bottom_left,2025-07-25_15h48.36.533,HideSeek_v1,2022.2.5,59.972784380594234,
,4,4,4,7,0,3,13,,train_dim1_1,26,30,,,,2,0,2,0,,,,,,,,,0,0,0,0,0,25,25,25,3,0,3,0,,,,,,,,,,,,,,,,,,,,,,,,,,,,,,,,,,,,,,,,,,,,,,,,,,,,,,,,,,,,,,,,30,,,,,,,,3460.5824286001734,3460.5824286001734,3460.5824286001734,3460.5824286001734,3460.5824286001734,return,1.1432545001152903,21,0,0,1,0.16,0.16,return,1.0512174000032246,67,4,0.16,0.16,,,,,,,,,,,,,,,,,,,,,,,,,,,,,,,,,,,,,,,,,,,,,,,,,,,,,,,,AC2LAL,train_y,red_square,bottom_left,2025-07-25_15h48.36.533,HideSeek_v1,2022.2.5,59.972784380594234,
,3,4,3,4,0,0,16,,train_dim1_1,27,30,,,,2,0,2,0,,,,,,,,,0,0,0,0,0,26,26,26,0,0,0,0,,,,,,,,,,,,,,,,,,,,,,,,,stimuli/alien_stimuli/16.png,,,,,,,,,,,,,,,,,,,,,,,,,,,,,stimuli/alien_stimuli/13.png,13,4,28,,,,,,,30,,,,,,,,3468.743845900055,3468.743845900055,3468.743845900055,3468.743845900055,3468.743845900055,return,1.939845799934119,22,0,0,1,0.08,-0.08,return,1.8611979999113828,67,4,0.08,-0.08,3467.1862617000006,0.16,0.16,0.24,0.0,0.04,0.16,0.16,0.16,0.16,3463.2950928001665,3463.2950928001665,3463.2950928001665,3463.2950928001665,3463.2950928001665,3463.2950928001665,3463.2950928001665,3463.2950928001665,3463.282552680117,4.0001040999777615,return,3.861591699998826,3463.2950928001665,,,,,,,,,,,,,,,,,,,,,,,,,,,,,,,,,AC2LAL,train_y,red_square,bottom_left,2025-07-25_15h48.36.533,HideSeek_v1,2022.2.5,59.972784380594234,
,4,1,4,6,0,5,11,,train_dim1_1,28,30,,,,2,0,2,0,,,,,,,,,0,0,0,0,0,27,27,27,0,0,0,0,,,,,,,,,,,,,,,,,,,,,,,,,stimuli/alien_stimuli/11.png,,,,,,,,,,,,,,,,,,,,,,,,,,,,,stimuli/alien_stimuli/16.png,16,3,29,,,,,,,30,,,,,,,,3475.8346015000716,3475.8346015000716,3475.8346015000716,3475.8346015000716,3475.8346015000716,up,2.694700799882412,22,0,0,99,0.16,-0.24,up,2.6123831002041698,,,,,3474.263423800003,0.08,-0.08,0.0,0.0,-0.08,0.08,0.08,0.08,-0.08,3472.256462900201,3472.256462900201,3472.256462900201,3472.256462900201,3472.256462900201,3472.256462900201,3472.256462900201,3472.256462900201,3472.256962880143,2.109877800103277,return,1.978331700200215,,,,,,,,,,,,,,,,,,,,,,,,,,,,,,,,,,AC2LAL,train_y,red_square,bottom_left,2025-07-25_15h48.36.533,HideSeek_v1,2022.2.5,59.972784380594234,
,4,1,4,6,0,5,11,,train_dim1_1,28,30,,,,2,0,2,0,,,,,,,,,0,0,0,0,0,27,27,27,1,0,1,0,,,,,,,,,,,,,,,,,,,,,,,,,,,,,,,,,,,,,,,,,,,,,,,,,,,,,,,,,,,,,,,,30,,,,,,,,3478.539048800012,3478.539048800012,3478.539048800012,3478.539048800012,3478.539048800012,up,0.7186521000694484,22,0,0,99,0.16,-0.15999999999999998,up,0.6405124000739306,,,,,,,,,,,,,,,,,,,,,,,,,,,,,,,,,,,,,,,,,,,,,,,,,,,,,,,,,,,,AC2LAL,train_y,red_square,bottom_left,2025-07-25_15h48.36.533,HideSeek_v1,2022.2.5,59.972784380594234,
,4,1,4,6,0,5,11,,train_dim1_1,28,30,,,,2,0,2,0,,,,,,,,,0,0,0,0,0,27,27,27,2,0,2,0,,,,,,,,,,,,,,,,,,,,,,,,,,,,,,,,,,,,,,,,,,,,,,,,,,,,,,,,,,,,,,,,30,,,,,,,,3479.2648950000294,3479.2648950000294,3479.2648950000294,3479.2648950000294,3479.2648950000294,up,0.7773381001316011,22,0,0,99,0.16,-0.07999999999999997,up,0.6946261001285166,,,,,,,,,,,,,,,,,,,,,,,,,,,,,,,,,,,,,,,,,,,,,,,,,,,,,,,,,,,,AC2LAL,train_y,red_square,bottom_left,2025-07-25_15h48.36.533,HideSeek_v1,2022.2.5,59.972784380594234,
,4,1,4,6,0,5,11,,train_dim1_1,28,30,,,,2,0,2,0,,,,,,,,,0,0,0,0,0,27,27,27,3,0,3,0,,,,,,,,,,,,,,,,,,,,,,,,,,,,,,,,,,,,,,,,,,,,,,,,,,,,,,,,,,,,,,,,30,,,,,,,,3480.049232300138,3480.049232300138,3480.049232300138,3480.049232300138,3480.049232300138,up,0.8952711999882013,22,0,0,99,0.16,2.7755575615628914e-17,up,0.8037721998989582,,,,,,,,,,,,,,,,,,,,,,,,,,,,,,,,,,,,,,,,,,,,,,,,,,,,,,,,,,,,AC2LAL,train_y,red_square,bottom_left,2025-07-25_15h48.36.533,HideSeek_v1,2022.2.5,59.972784380594234,
,4,1,4,6,0,5,11,,train_dim1_1,28,30,,,,2,0,2,0,,,,,,,,,0,0,0,0,0,27,27,27,4,0,4,0,,,,,,,,,,,,,,,,,,,,,,,,,,,,,,,,,,,,,,,,,,,,,,,,,,,,,,,,,,,,,,,,30,,,,,,,,3480.952802099986,3480.952802099986,3480.952802099986,3480.952802099986,3480.952802099986,up,0.8072793998289853,22,0,0,99,0.16,0.08000000000000003,up,0.726671600015834,,,,,,,,,,,,,,,,,,,,,,,,,,,,,,,,,,,,,,,,,,,,,,,,,,,,,,,,,,,,AC2LAL,train_y,red_square,bottom_left,2025-07-25_15h48.36.533,HideSeek_v1,2022.2.5,59.972784380594234,
,4,1,4,6,0,5,11,,train_dim1_1,28,30,,,,2,0,2,0,,,,,,,,,0,0,0,0,0,27,27,27,5,0,5,0,,,,,,,,,,,,,,,,,,,,,,,,,,,,,,,,,,,,,,,,,,,,,,,,,,,,,,,,,,,,,,,,30,,,,,,,,3481.765874200035,3481.765874200035,3481.765874200035,3481.765874200035,3481.765874200035,return,1.6108546999748796,23,0,0,1,0.16,0.08000000000000003,return,1.5278161000460386,72,4,0.16,0.08000000000000003,,,,,,,,,,,,,,,,,,,,,,,,,,,,,,,,,,,,,,,,,,,,,,,,,,,,,,,,AC2LAL,train_y,red_square,bottom_left,2025-07-25_15h48.36.533,HideSeek_v1,2022.2.5,59.972784380594234,
,2,2,2,6,0,4,12,,train_dim1_1,29,30,,,,2,0,2,0,,,,,,,,,0,0,0,0,0,28,28,28,0,0,0,0,,,,,,,,,,,,,,,,,,,,,,,,,stimuli/alien_stimuli/12.png,,,,,,,,,,,,,,,,,,,,,,,,,,,,,stimuli/alien_stimuli/11.png,11,4,30,,,,,,,30,,,,,,,,3493.947094600182,3493.947094600182,3493.947094600182,3493.947094600182,3493.947094600182,up,2.4411520999856293,23,0,0,99,0,-0.15999999999999998,up,2.352326099993661,,,,,3492.3909915999975,0.16,0.08,0.4,0.0,-0.12,0.16,0.16,0.16,0.08,3484.9530585000757,3484.9530585000757,3484.9530585000757,3484.9530585000757,3484.9530585000757,3484.9530585000757,3484.9530585000757,3484.9530585000757,3484.950825320091,7.552986900089309,return,7.3997438999358565,3484.9530585000757,,,,,,,,,,,,,,,,,,,,,,,,,,,,,,,,,AC2LAL,train_y,red_square,bottom_left,2025-07-25_15h48.36.533,HideSeek_v1,2022.2.5,59.972784380594234,
,2,2,2,6,0,4,12,,train_dim1_1,29,30,,,,2,0,2,0,,,,,,,,,0,0,0,0,0,28,28,28,1,0,1,0,,,,,,,,,,,,,,,,,,,,,,,,,,,,,,,,,,,,,,,,,,,,,,,,,,,,,,,,,,,,,,,,30,,,,,,,,3496.395779200131,3496.395779200131,3496.395779200131,3496.395779200131,3496.395779200131,up,0.8597149001434445,23,0,0,99,0,-0.07999999999999997,up,0.7736467001959682,,,,,,,,,,,,,,,,,,,,,,,,,,,,,,,,,,,,,,,,,,,,,,,,,,,,,,,,,,,,AC2LAL,train_y,red_square,bottom_left,2025-07-25_15h48.36.533,HideSeek_v1,2022.2.5,59.972784380594234,
,2,2,2,6,0,4,12,,train_dim1_1,29,30,,,,2,0,2,0,,,,,,,,,0,0,0,0,0,28,28,28,2,0,2,0,,,,,,,,,,,,,,,,,,,,,,,,,,,,,,,,,,,,,,,,,,,,,,,,,,,,,,,,,,,,,,,,30,,,,,,,,3497.262966300128,3497.262966300128,3497.262966300128,3497.262966300128,3497.262966300128,up,0.7771662999875844,23,0,0,99,0,2.7755575615628914e-17,up,0.6949990999419242,,,,,,,,,,,,,,,,,,,,,,,,,,,,,,,,,,,,,,,,,,,,,,,,,,,,,,,,,,,,AC2LAL,train_y,red_square,bottom_left,2025-07-25_15h48.36.533,HideSeek_v1,2022.2.5,59.972784380594234,
,2,2,2,6,0,4,12,,train_dim1_1,29,30,,,,2,0,2,0,,,,,,,,,0,0,0,0,0,28,28,28,3,0,3,0,,,,,,,,,,,,,,,,,,,,,,,,,,,,,,,,,,,,,,,,,,,,,,,,,,,,,,,,,,,,,,,,30,,,,,,,,3498.046641500201,3498.046641500201,3498.046641500201,3498.046641500201,3498.046641500201,up,0.8101671999320388,23,0,0,99,0,0.08000000000000003,up,0.7228232999332249,,,,,,,,,,,,,,,,,,,,,,,,,,,,,,,,,,,,,,,,,,,,,,,,,,,,,,,,,,,,AC2LAL,train_y,red_square,bottom_left,2025-07-25_15h48.36.533,HideSeek_v1,2022.2.5,59.972784380594234,
,2,2,2,6,0,4,12,,train_dim1_1,29,30,,,,2,0,2,0,,,,,,,,,0,0,0,0,0,28,28,28,4,0,4,0,,,,,,,,,,,,,,,,,,,,,,,,,,,,,,,,,,,,,,,,,,,,,,,,,,,,,,,,,,,,,,,,30,,,,,,,,3498.8645374001935,3498.8645374001935,3498.8645374001935,3498.8645374001935,3498.8645374001935,return,1.3939781999215484,24,0,0,1,0,0.08000000000000003,return,1.3072828000877053,76,4,0,0.08000000000000003,,,,,,,,,,,,,,,,,,,,,,,,,,,,,,,,,,,,,,,,,,,,,,,,,,,,,,,,AC2LAL,train_y,red_square,bottom_left,2025-07-25_15h48.36.533,HideSeek_v1,2022.2.5,59.972784380594234,
,0,1,0,2,0,1,15,,train_dim1_1,30,30,,,,2,0,2,0,,,,,,,,,0,0,0,0,0,29,29,29,0,0,0,0,,,,,,,,,,,,,,,,,,,,,,,,,stimuli/alien_stimuli/15.png,,,,,,,,,,,,,,,,,,,,,,,,,,,,,stimuli/alien_stimuli/12.png,12,2,31,,,,,,,30,,,,,,,,3507.948289200198,3507.948289200198,3507.948289200198,3507.948289200198,3507.948289200198,up,6.773188199847937,24,0,0,99,-0.16,-0.24,up,6.691042399965227,,,,,3506.3795382999815,0,0.08,0.32,0.0,-0.07999999999999999,0,0.0,0,0.08,3501.84277330013,3501.84277330013,3501.84277330013,3501.84277330013,3501.84277330013,3501.84277330013,3501.84277330013,3501.84277330013,3501.830926080118,4.645861599827185,return,4.512446700129658,,,,,,,,,,,,,,,,,,,,,,,,,,,,,,,,,,AC2LAL,train_y,red_square,bottom_left,2025-07-25_15h48.36.533,HideSeek_v1,2022.2.5,59.972784380594234,
,0,1,0,2,0,1,15,,train_dim1_1,30,30,,,,2,0,2,0,,,,,,,,,0,0,0,0,0,29,29,29,1,0,1,0,,,,,,,,,,,,,,,,,,,,,,,,,,,,,,,,,,,,,,,,,,,,,,,,,,,,,,,,,,,,,,,,30,,,,,,,,3514.728448800044,3514.728448800044,3514.728448800044,3514.728448800044,3514.728448800044,return,1.3102961999829859,25,0,0,1,-0.16,-0.24,return,1.2312400999944657,77,4,-0.16,-0.24,,,,,,,,,,,,,,,,,,,,,,,,,,,,,,,,,,,,,,,,,,,,,,,,,,,,,,,,AC2LAL,train_y,red_square,bottom_left,2025-07-25_15h48.36.533,HideSeek_v1,2022.2.5,59.972784380594234,
,,,,,,,,,,,30,,,,2,0,2,0,,,,,,,,,,,,,,,,,,,,,,,,,,,,,,,,,,,,,,,,,,,,,,,,,,,,,,,,,,,,,,,,,,,,,,,,,,stimuli/alien_stimuli/15.png,15,0,32,21,0.7,1.0416666666666667,1,1,1,30,0,conditions/schedules/train_y_first/red_square_00/bottom_left/inputTrain_2.1.xlsx,99,1,2,1,0,,,,,,,,,,,1,,,,,,,,,3519.400743199978,-0.16,-0.24,0.08,0.0,-0.28,-0.16,-0.16,-0.16,-0.24,3517.608810100006,3517.608810100006,3517.608810100006,3517.608810100006,3517.608810100006,3517.608810100006,3517.608810100006,3517.608810100006,3517.594559180201,1.9074346001725644,return,1.7645473999436945,3517.608810100006,0,0.9,0,1,25,,,,,,,,,,,,,,,,,,,,,,,,,,,,AC2LAL,train_y,red_square,bottom_left,2025-07-25_15h48.36.533,HideSeek_v1,2022.2.5,59.972784380594234,
,,,,,,,,,,,,,,,3,0,3,0,0,0,0,0,,,,,,,,,,,,,,,,,,,,,,,,,,,,,,,conditions/schedules/train_y_first/red_square_00/bottom_left/instructions/Slide17.png,conditions/schedules/train_y_first/red_square_00/bottom_left/instructions/Audio17.wav,3520.977277800208,3520.964272160083,17,"[5.56345529993996, 11.168181099928916, 17.612240500049666, 19.512325400020927, 5.53141860011965, 5.186061900109053, 6.655167900025845, 12.240693000145257, 6.096176499966532, 7.500866599846631, 10.695993999950588, 14.44514049985446, 17.817152800038457, 17.265931699890643, 43.662993300007656, 22.257899799849838, 55.80833320016973]","[0.03710399987176061, 0.037132800091058016, 0.03261480014771223, 0.03634670004248619, 0.10810890002176166, 0.051149999955669045, 0.06060670013539493, 0.03519849991425872, 0.08851789985783398, 0.11121369991451502, 0.03281329991295934, 14.445147899910808, 0.03569599986076355, 17.265938099939376, 43.663001800188795, 22.25790650001727, 55.80834220000543]",0,,,,,,,,,,,,,,,,,,,,,,,,,,,,,,,,,,,,,,,,,,,,,,,,,,,,,,,,,,,,,,,,,,,,,,,,,,,,,,,,,,,,,,,,,,,,,,,,,,,,,,,,,,,,,,,,,,,,,,,,,,,,AC2LAL,train_y,red_square,bottom_left,2025-07-25_15h48.36.533,HideSeek_v1,2022.2.5,59.972784380594234,
,,,,,,,,,,,,,,,3,0,3,0,1,0,1,0,,,,,,,,,,,,,,,,,,,,,,,,,,,,,,,conditions/schedules/train_y_first/red_square_00/bottom_left/instructions/Slide18.png,conditions/schedules/train_y_first/red_square_00/bottom_left/instructions/Audio18.wav,3576.8588607001584,3576.854473800049,18,"[5.56345529993996, 11.168181099928916, 17.612240500049666, 19.512325400020927, 5.53141860011965, 5.186061900109053, 6.655167900025845, 12.240693000145257, 6.096176499966532, 7.500866599846631, 10.695993999950588, 14.44514049985446, 17.817152800038457, 17.265931699890643, 43.662993300007656, 22.257899799849838, 55.80833320016973, 7.210316400043666]","[0.03710399987176061, 0.037132800091058016, 0.03261480014771223, 0.03634670004248619, 0.10810890002176166, 0.051149999955669045, 0.06060670013539493, 0.03519849991425872, 0.08851789985783398, 0.11121369991451502, 0.03281329991295934, 14.445147899910808, 0.03569599986076355, 17.265938099939376, 43.663001800188795, 22.25790650001727, 0.10110930004157126, 7.210323200095445]",0,,,,,,,,,,,,,,,,,,,,,,,,,,,,,,,,,,,,,,,,,,,,,,,,,,,,,,,,,,,,,,,,,,,,,,,,,,,,,,,,,,,,,,,,,,,,,,,,,,,,,,,,,,,,,,,,,,,,,,,,,,,,AC2LAL,train_y,red_square,bottom_left,2025-07-25_15h48.36.533,HideSeek_v1,2022.2.5,59.972784380594234,
,,,,,,,,,,,,,,,3,0,3,0,2,0,2,0,,,,,,,,,,,,,,,,,,,,,,,,,,,,,,,conditions/schedules/train_y_first/red_square_00/bottom_left/instructions/Slide19.png,conditions/schedules/train_y_first/red_square_00/bottom_left/instructions/Audio19.wav,3584.1237447999883,3584.1221546600573,19,"[5.56345529993996, 11.168181099928916, 17.612240500049666, 19.512325400020927, 5.53141860011965, 5.186061900109053, 6.655167900025845, 12.240693000145257, 6.096176499966532, 7.500866599846631, 10.695993999950588, 14.44514049985446, 17.817152800038457, 17.265931699890643, 43.662993300007656, 22.257899799849838, 55.80833320016973, 7.210316400043666, 10.01895619998686]","[0.03710399987176061, 0.037132800091058016, 0.03261480014771223, 0.03634670004248619, 0.10810890002176166, 0.051149999955669045, 0.06060670013539493, 0.03519849991425872, 0.08851789985783398, 0.11121369991451502, 0.03281329991295934, 14.445147899910808, 0.03569599986076355, 17.265938099939376, 43.663001800188795, 22.25790650001727, 0.10110930004157126, 0.00022869999520480633, 10.018963200040162]",0,,,,,,,,,,,,,,,,,,,,,,,,,,,,,,,,,,,,,,,,,,,,,,,,,,,,,,,,,,,,,,,,,,,,,,,,,,,,,,,,,,,,,,,,,,,,,,,,,,,,,,,,,,,,,,,,,,,,,,,,,,,,AC2LAL,train_y,red_square,bottom_left,2025-07-25_15h48.36.533,HideSeek_v1,2022.2.5,59.972784380594234,
,,,,,,,,,,,,,,,3,0,3,0,3,0,3,0,,,,,,,,,,,,,,,,,,,,,,,,,,,,,,,conditions/schedules/train_y_first/red_square_00/bottom_left/instructions/Slide20.png,conditions/schedules/train_y_first/red_square_00/bottom_left/instructions/Audio20.wav,3594.196477000136,3594.1950492600445,20,"[5.56345529993996, 11.168181099928916, 17.612240500049666, 19.512325400020927, 5.53141860011965, 5.186061900109053, 6.655167900025845, 12.240693000145257, 6.096176499966532, 7.500866599846631, 10.695993999950588, 14.44514049985446, 17.817152800038457, 17.265931699890643, 43.662993300007656, 22.257899799849838, 55.80833320016973, 7.210316400043666, 10.01895619998686, 13.538537900196388]","[0.03710399987176061, 0.037132800091058016, 0.03261480014771223, 0.03634670004248619, 0.10810890002176166, 0.051149999955669045, 0.06060670013539493, 0.03519849991425872, 0.08851789985783398, 0.11121369991451502, 0.03281329991295934, 14.445147899910808, 0.03569599986076355, 17.265938099939376, 43.663001800188795, 22.25790650001727, 0.10110930004157126, 0.00022869999520480633, 0.07798369997180998, 13.53854940016754]",0,,,,,,,,,,,,,,,,,,,,,,,,,,,,,,,,,,,,,,,,,,,,,,,,,,,,,,,,,,,,,,,,,,,,,,,,,,,,,,,,,,,,,,,,,,,,,,,,,,,,,,,,,,,,,,,,,,,,,,,,,,,,AC2LAL,train_y,red_square,bottom_left,2025-07-25_15h48.36.533,HideSeek_v1,2022.2.5,59.972784380594234,
1,3,2,8,2,5,0,66,2,instr_dim1_2,,,,,,3,0,3,0,,,,,0,0,0,0,,,,,,,,,,,,,,,,,,,,,,,,,,,,,,,,,,,,,stimuli/alien_stimuli/66.png,conditions/schedules/train_y_first/red_square_00/bottom_left/inputInstr_2.xlsx,stimuli/alien_stimuli/66.png,3607.844520600047,3607.844520600047,3607.844520600047,3607.844520600047,3607.8374575801427,return,7.041270900052041,"[-0.16, -0.08, 0, 0.08, 0.16, 0.24, 0.32, 0.4, 0.48, 0.56]","[-0.4, -0.32, -0.24, -0.16, -0.08, 0, 0.08, 0.16, 0.24, 0.32]",2,2,8,3,0.0,0.4,3615.0425921001006,3615.0425921001006,3615.0425921001006,3615.0425921001006,3615.0425921001006,3615.0425921001006,3615.0425921001006,3615.025712220231,10.932094200048596,return,10.781006899895146,stimuli/alien_stimuli/66.png,66,3,1,,,,,,,,,,,,,,,,,,,,,,,,,,,,,,,,,,,,,,,,,,,,,,,,,,,,,,,,,,,,,,,,,,,,,,,,,,,,,,,,,,,,,,,,,AC2LAL,train_y,red_square,bottom_left,2025-07-25_15h48.36.533,HideSeek_v1,2022.2.5,59.972784380594234,
,,,,,,,,,,,30,,,,3,0,3,0,,,,,,,,,,,,,,,,,,,,,,,,,,,,,,,,,,,,,,,,,,,,,,,,,,,,,,,,,,,,,,,,,,,,,,,,,,,,,,21,0.7,1.0416666666666667,1,99,2,30,0,conditions/schedules/train_y_first/red_square_00/bottom_left/inputTrain_2.1.xlsx,99,1,2,1,0,,,,,,,,,,,,,,,,,,,,,,,,,,,,,,,,,,,,,,,,,,,,,,,,,,,,,,,,,,,,,,,,,,,,,,,,,,,AC2LAL,train_y,red_square,bottom_left,2025-07-25_15h48.36.533,HideSeek_v1,2022.2.5,59.972784380594234,
,,,,,,,,,,,,,,,4,0,4,0,0,0,0,0,,,,,,,,,,,,,,,,,,,,,,,,,,,,,,,conditions/schedules/train_y_first/red_square_00/bottom_left/instructions/Slide21.png,conditions/schedules/train_y_first/red_square_00/bottom_left/instructions/Audio21.wav,3626.0042574000545,3625.9902751001064,21,"[5.56345529993996, 11.168181099928916, 17.612240500049666, 19.512325400020927, 5.53141860011965, 5.186061900109053, 6.655167900025845, 12.240693000145257, 6.096176499966532, 7.500866599846631, 10.695993999950588, 14.44514049985446, 17.817152800038457, 17.265931699890643, 43.662993300007656, 22.257899799849838, 55.80833320016973, 7.210316400043666, 10.01895619998686, 13.538537900196388, 13.126647199969739]","[0.03710399987176061, 0.037132800091058016, 0.03261480014771223, 0.03634670004248619, 0.10810890002176166, 0.051149999955669045, 0.06060670013539493, 0.03519849991425872, 0.08851789985783398, 0.11121369991451502, 0.03281329991295934, 14.445147899910808, 0.03569599986076355, 17.265938099939376, 43.663001800188795, 22.25790650001727, 0.10110930004157126, 0.00022869999520480633, 0.07798369997180998, 13.53854940016754, 13.126655199797824]",0,,,,,,,,,,,,,,,,,,,,,,,,,,,,,,,,,,,,,,,,,,,,,,,,,,,,,,,,,,,,,,,,,,,,,,,,,,,,,,,,,,,,,,,,,,,,,,,,,,,,,,,,,,,,,,,,,,,,,,,,,,,,AC2LAL,train_y,red_square,bottom_left,2025-07-25_15h48.36.533,HideSeek_v1,2022.2.5,59.972784380594234,
2,4,0,4,0,0,0,16,2,instr_dim1_2,,,,,,4,0,4,0,,,,,0,0,0,0,,,,,,,,,,,,,,,,,,,,,,,,,,,,,,,,,,,,,stimuli/alien_stimuli/16.png,conditions/schedules/train_y_first/red_square_00/bottom_left/inputInstr_2.xlsx,stimuli/alien_stimuli/16.png,3639.2356740001123,3639.2356740001123,3639.2356740001123,3639.2356740001123,3639.2302995800273,return,7.349744100123644,"[-0.16, -0.08, 0, 0.08, 0.16, 0.24, 0.32, 0.4, 0.48, 0.56]","[-0.4, -0.32, -0.24, -0.16, -0.08, 0, 0.08, 0.16, 0.24, 0.32]",0,0,4,4,0.0,0.0,3646.7266265000217,3646.7266265000217,3646.7266265000217,3646.7266265000217,3646.7266265000217,3646.7266265000217,3646.7266265000217,3646.7187616201118,9.329005500068888,return,9.18338319985196,stimuli/alien_stimuli/16.png,16,4,2,,,,,,,,,,,,,,,,,,,,,,,,,,,,,,,,,,,,,,,,,,,,,,,,,,,,,,,,,,,,,,,,,,,,,,,,,,,,,,,,,,,,,,,,,AC2LAL,train_y,red_square,bottom_left,2025-07-25_15h48.36.533,HideSeek_v1,2022.2.5,59.972784380594234,
,,,,,,,,,,,30,,,,4,0,4,0,,,,,,,,,,,,,,,,,,,,,,,,,,,,,,,,,,,,,,,,,,,,,,,,,,,,,,,,,,,,,,,,,,,,,,,,,,,,,,21,0.7,1.0416666666666667,1,99,2,30,0,conditions/schedules/train_y_first/red_square_00/bottom_left/inputTrain_2.1.xlsx,99,1,2,1,0,,,,,,,,,,,,,,,,,,,,,,,,,,,,,,,,,,,,,,,,,,,,,,,,,,,,,,,,,,,,,,,,,,,,,,,,,,,AC2LAL,train_y,red_square,bottom_left,2025-07-25_15h48.36.533,HideSeek_v1,2022.2.5,59.972784380594234,
,,,,,,,,,,,,,,,5,0,5,0,0,0,0,0,,,,,,,,,,,,,,,,,,,,,,,,,,,,,,,conditions/schedules/train_y_first/red_square_00/bottom_left/instructions/Slide22.png,conditions/schedules/train_y_first/red_square_00/bottom_left/instructions/Audio22.wav,3656.087788600009,3656.080028100172,22,"[5.56345529993996, 11.168181099928916, 17.612240500049666, 19.512325400020927, 5.53141860011965, 5.186061900109053, 6.655167900025845, 12.240693000145257, 6.096176499966532, 7.500866599846631, 10.695993999950588, 14.44514049985446, 17.817152800038457, 17.265931699890643, 43.662993300007656, 22.257899799849838, 55.80833320016973, 7.210316400043666, 10.01895619998686, 13.538537900196388, 13.126647199969739, 30.414621100062504]","[0.03710399987176061, 0.037132800091058016, 0.03261480014771223, 0.03634670004248619, 0.10810890002176166, 0.051149999955669045, 0.06060670013539493, 0.03519849991425872, 0.08851789985783398, 0.11121369991451502, 0.03281329991295934, 14.445147899910808, 0.03569599986076355, 17.265938099939376, 43.663001800188795, 22.25790650001727, 0.10110930004157126, 0.00022869999520480633, 0.07798369997180998, 13.53854940016754, 13.126655199797824, 30.414629499893636]",0,,,,,,,,,,,,,,,,,,,,,,,,,,,,,,,,,,,,,,,,,,,,,,,,,,,,,,,,,,,,,,,,,,,,,,,,,,,,,,,,,,,,,,,,,,,,,,,,,,,,,,,,,,,,,,,,,,,,,,,,,,,,AC2LAL,train_y,red_square,bottom_left,2025-07-25_15h48.36.533,HideSeek_v1,2022.2.5,59.972784380594234,
,2,1,5,1,3,0,46,,train_dim1_2,1,30,,,,5,0,5,0,,,,,,,,,0,0,0,0,0,0,0,0,0,0,0,0,,,,,,,,,,,,,,,,,,,,,,,,,stimuli/alien_stimuli/46.png,,,,,,,,,,,,,,,,,,,,,,,,,,,,,,,,,,,,,,,30,,,,,,,,3686.6085695000365,3686.6085695000365,3686.6085695000365,3686.6085695000365,3686.6085695000365,right,10.128437199862674,0,0,0,99,0.08,-0.32,right,10.032087000086904,,,,,,,,,,,,,,,,,,,,,,,,,,,,,,,,,,,,,,,,,,,,,,,,,,,,,,,,,,,,AC2LAL,train_y,red_square,bottom_left,2025-07-25_15h48.36.533,HideSeek_v1,2022.2.5,59.972784380594234,
,2,1,5,1,3,0,46,,train_dim1_2,1,30,,,,5,0,5,0,,,,,,,,,0,0,0,0,0,0,0,0,1,0,1,0,,,,,,,,,,,,,,,,,,,,,,,,,,,,,,,,,,,,,,,,,,,,,,,,,,,,,,,,,,,,,,,,30,,,,,,,,3696.726191500202,3696.726191500202,3696.726191500202,3696.726191500202,3696.726191500202,right,0.8426870999392122,0,0,0,99,0.16,-0.32,right,0.7639362998306751,,,,,,,,,,,,,,,,,,,,,,,,,,,,,,,,,,,,,,,,,,,,,,,,,,,,,,,,,,,,AC2LAL,train_y,red_square,bottom_left,2025-07-25_15h48.36.533,HideSeek_v1,2022.2.5,59.972784380594234,
,2,1,5,1,3,0,46,,train_dim1_2,1,30,,,,5,0,5,0,,,,,,,,,0,0,0,0,0,0,0,0,2,0,2,0,,,,,,,,,,,,,,,,,,,,,,,,,,,,,,,,,,,,,,,,,,,,,,,,,,,,,,,,,,,,,,,,30,,,,,,,,3697.5755688000936,3697.5755688000936,3697.5755688000936,3697.5755688000936,3697.5755688000936,right,0.8433561997953802,0,0,0,99,0.24,-0.32,right,0.7656443000305444,,,,,,,,,,,,,,,,,,,,,,,,,,,,,,,,,,,,,,,,,,,,,,,,,,,,,,,,,,,,AC2LAL,train_y,red_square,bottom_left,2025-07-25_15h48.36.533,HideSeek_v1,2022.2.5,59.972784380594234,
,2,1,5,1,3,0,46,,train_dim1_2,1,30,,,,5,0,5,0,,,,,,,,,0,0,0,0,0,0,0,0,3,0,3,0,,,,,,,,,,,,,,,,,,,,,,,,,,,,,,,,,,,,,,,,,,,,,,,,,,,,,,,,,,,,,,,,30,,,,,,,,3698.4255190000404,3698.4255190000404,3698.4255190000404,3698.4255190000404,3698.4255190000404,return,3.913634799886495,1,0,0,1,0.24,-0.32,return,3.839580199914053,77,7,0.24,-0.32,,,,,,,,,,,,,,,,,,,,,,,,,,,,,,,,,,,,,,,,,,,,,,,,,,,,,,,,AC2LAL,train_y,red_square,bottom_left,2025-07-25_15h48.36.533,HideSeek_v1,2022.2.5,59.972784380594234,
,2,4,2,4,0,0,16,,train_dim1_2,2,30,,,,5,0,5,0,,,,,,,,,0,0,0,0,0,1,1,1,0,0,0,0,,,,,,,,,,,,,,,,,,,,,,,,,stimuli/alien_stimuli/16.png,,,,,,,,,,,,,,,,,,,,,,,,,,,,,stimuli/alien_stimuli/46.png,46,2,3,,,,,,,30,,,,,,,,3709.102658300195,3709.102658300195,3709.102658300195,3709.102658300195,3709.102658300195,return,3.205028000054881,2,0,0,1,0,-0.08,return,3.121841099811718,77,7,0,-0.08,3707.5238693000283,0.24,-0.32,0.0,0.24,-0.32,0.24,0.12,0.24,-0.32,3703.9441539000254,3703.9441539000254,3703.9441539000254,3703.9441539000254,3703.9441539000254,3703.9441539000254,3703.9441539000254,3703.9441539000254,3703.932832420105,3.709729599999264,return,3.545565999811515,,,,,,,,,,,,,,,,,,,,,,,,,,,,,,,,,,AC2LAL,train_y,red_square,bottom_left,2025-07-25_15h48.36.533,HideSeek_v1,2022.2.5,59.972784380594234,
,4,4,5,4,1,0,26,,train_dim1_2,3,30,,,,5,0,5,0,,,,,,,,,0,0,0,0,0,2,2,2,0,0,0,0,,,,,,,,,,,,,,,,,,,,,,,,,stimuli/alien_stimuli/26.png,,,,,,,,,,,,,,,,,,,,,,,,,,,,,stimuli/alien_stimuli/16.png,16,2,4,,,,,,,30,,,,,,,,3720.7278305999935,3720.7278305999935,3720.7278305999935,3720.7278305999935,3720.7278305999935,right,4.090198599966243,2,0,0,99,0.24,-0.08,right,3.9917015000246465,,,,,3719.1512775002047,0,-0.08,0.0,0.0,-0.08,0,0.0,0,-0.08,3713.877831700025,3713.877831700025,3713.877831700025,3713.877831700025,3713.877831700025,3713.877831700025,3713.877831700025,3713.877831700025,3713.858251280035,5.394371600123122,return,5.256673700176179,3713.877831700025,,,,,,,,,,,,,,,,,,,,,,,,,,,,,,,,,AC2LAL,train_y,red_square,bottom_left,2025-07-25_15h48.36.533,HideSeek_v1,2022.2.5,59.972784380594234,
,4,4,5,4,1,0,26,,train_dim1_2,3,30,,,,5,0,5,0,,,,,,,,,0,0,0,0,0,2,2,2,1,0,1,0,,,,,,,,,,,,,,,,,,,,,,,,,,,,,,,,,,,,,,,,,,,,,,,,,,,,,,,,,,,,,,,,30,,,,,,,,3724.818561800057,3724.818561800057,3724.818561800057,3724.818561800057,3724.818561800057,return,3.9624388001393527,3,0,0,1,0.24,-0.08,return,3.8851146998349577,77,8,0.24,-0.08,,,,,,,,,,,,,,,,,,,,,,,,,,,,,,,,,,,,,,,,,,,,,,,,,,,,,,,,AC2LAL,train_y,red_square,bottom_left,2025-07-25_15h48.36.533,HideSeek_v1,2022.2.5,59.972784380594234,
,2,3,6,3,4,0,56,,train_dim1_2,4,30,,,,5,0,5,0,,,,,,,,,0,0,0,0,0,3,3,3,0,0,0,0,,,,,,,,,,,,,,,,,,,,,,,,,stimuli/alien_stimuli/56.png,,,,,,,,,,,,,,,,,,,,,,,,,,,,,stimuli/alien_stimuli/26.png,26,4,5,,,,,,,30,,,,,,,,3741.9293438000605,3741.9293438000605,3741.9293438000605,3741.9293438000605,3741.9293438000605,right,8.227014499949291,3,0,0,99,0.08,-0.16,right,8.129068899899721,,,,,3740.364084800007,0.24,-0.08,0.0,0.08,-0.08,0.24,0.2,0.24,-0.08,3730.3706533000804,3730.3706533000804,3730.3706533000804,3730.3706533000804,3730.3706533000804,3730.3706533000804,3730.3706533000804,3730.3706533000804,3730.3551163200755,10.127087500179186,return,9.963896400062367,3741.9293438000605,,,,,,,,,,,,,,,,,,,,,,,,,,,,,,,,,AC2LAL,train_y,red_square,bottom_left,2025-07-25_15h48.36.533,HideSeek_v1,2022.2.5,59.972784380594234,
,2,3,6,3,4,0,56,,train_dim1_2,4,30,,,,5,0,5,0,,,,,,,,,0,0,0,0,0,3,3,3,1,0,1,0,,,,,,,,,,,,,,,,,,,,,,,,,,,,,,,,,,,,,,,,,,,,,,,,,,,,,,,,,,,,,,,,30,,,,,,,,3750.1562522000168,3750.1562522000168,3750.1562522000168,3750.1562522000168,3750.1562522000168,right,0.47562490007840097,3,0,0,99,0.16,-0.16,right,0.39872409985400736,,,,,,,,,,,,,,,,,,,,,,,,,,,,,,,,,,,,,,,,,,,,,,,,,,,,,,,,,,,,AC2LAL,train_y,red_square,bottom_left,2025-07-25_15h48.36.533,HideSeek_v1,2022.2.5,59.972784380594234,
,2,3,6,3,4,0,56,,train_dim1_2,4,30,,,,5,0,5,0,,,,,,,,,0,0,0,0,0,3,3,3,2,0,2,0,,,,,,,,,,,,,,,,,,,,,,,,,,,,,,,,,,,,,,,,,,,,,,,,,,,,,,,,,,,,,,,,30,,,,,,,,3750.6380150001496,3750.6380150001496,3750.6380150001496,3750.6380150001496,3750.6380150001496,right,0.5099730000365525,3,0,0,99,0.24,-0.16,right,0.419224200071767,,,,,,,,,,,,,,,,,,,,,,,,,,,,,,,,,,,,,,,,,,,,,,,,,,,,,,,,,,,,AC2LAL,train_y,red_square,bottom_left,2025-07-25_15h48.36.533,HideSeek_v1,2022.2.5,59.972784380594234,
,2,3,6,3,4,0,56,,train_dim1_2,4,30,,,,5,0,5,0,,,,,,,,,0,0,0,0,0,3,3,3,3,0,3,0,,,,,,,,,,,,,,,,,,,,,,,,,,,,,,,,,,,,,,,,,,,,,,,,,,,,,,,,,,,,,,,,30,,,,,,,,3751.1546717002057,3751.1546717002057,3751.1546717002057,3751.1546717002057,3751.1546717002057,right,0.47649140004068613,3,0,0,99,0.32,-0.16,right,0.39326520008035004,,,,,,,,,,,,,,,,,,,,,,,,,,,,,,,,,,,,,,,,,,,,,,,,,,,,,,,,,,,,AC2LAL,train_y,red_square,bottom_left,2025-07-25_15h48.36.533,HideSeek_v1,2022.2.5,59.972784380594234,
,2,3,6,3,4,0,56,,train_dim1_2,4,30,,,,5,0,5,0,,,,,,,,,0,0,0,0,0,3,3,3,4,0,4,0,,,,,,,,,,,,,,,,,,,,,,,,,,,,,,,,,,,,,,,,,,,,,,,,,,,,,,,,,,,,,,,,30,,,,,,,,3751.638615100179,3751.638615100179,3751.638615100179,3751.638615100179,3751.638615100179,return,0.5101673000026494,4,0,0,1,0.32,-0.16,return,0.4329318997915834,77,12,0.32,-0.16,,,,,,,,,,,,,,,,,,,,,,,,,,,,,,,,,,,,,,,,,,,,,,,,,,,,,,,,AC2LAL,train_y,red_square,bottom_left,2025-07-25_15h48.36.533,HideSeek_v1,2022.2.5,59.972784380594234,
