trialInstr,x_fixStart,y_fixStart,x_corrSteps,y_corrSteps,x_nrSteps,y_nrSteps,alienID,trialLength,version,trialTrain,praclen,testlen,trial_label,break_on_off,beforeExpLoop.thisRepN,beforeExpLoop.thisTrialN,beforeExpLoop.thisN,beforeExpLoop.thisIndex,mini_instr_trials.thisRepN,mini_instr_trials.thisTrialN,mini_instr_trials.thisN,mini_instr_trials.thisIndex,instrLoop.thisRepN,instrLoop.thisTrialN,instrLoop.thisN,instrLoop.thisIndex,repeat_prac.thisRepN,repeat_prac.thisTrialN,repeat_prac.thisN,repeat_prac.thisIndex,trainLoop.thisRepN,trainLoop.thisTrialN,trainLoop.thisN,trainLoop.thisIndex,moveLoop_train.thisRepN,moveLoop_train.thisTrialN,moveLoop_train.thisN,moveLoop_train.thisIndex,experiment.thisRepN,experiment.thisTrialN,experiment.thisN,experiment.thisIndex,moveLoop_test.thisRepN,moveLoop_test.thisTrialN,moveLoop_test.thisN,moveLoop_test.thisIndex,mini_instr2_trials.thisRepN,mini_instr2_trials.thisTrialN,mini_instr2_trials.thisN,mini_instr2_trials.thisIndex,start_all_time,url,slideStim,audioStim,slides.started,sounds.started,nextButton.numClicks,nextButton.timesOn,nextButton.timesOff,prev_but.numClicks,prev_but.timesOn,prev_but.timesOff,alienStim,instrFile,alienStim_instr,gridImage_instr.started,startPos_3.started,key_instr.started,alienImage_3.started,sounds_1.started,key_instr.keys,key_instr.rt,all_x,all_y,FBy_corrSteps,FBy_fixStart,FBx_corrSteps,FBx_fixStart,FBy_pathSize_check,FBx_pathSize_check,gridImage_9.started,alienImageFB_3.started,startPosFB_3.started,keyFB_3.started,pathLine_ydir_2.started,pathLine_xdir_2.started,alienFace_3.started,sounds_2.started,RTFB_instr,keyFB_3.keys,keyFB_3.rt,draw_alienStim,draw_alienID,test_x,nrepcount,perfthres,percthres,earlierperf,earlystop,nextPrac,fileidx,praclen,saveACC_train,pracFile,nextPrac_train,addNrep,fileidx_endr,repExp,showearly,gridImage_4.started,startPos.started,movePos.started,key_resp.started,alienImage.started,buttonPress_train,RTchoice_train,cumAcctrain,aCorr,saveACC_choice,corrAns,x_movePos_end,y_movePos_end,key_resp.keys,key_resp.rt,wLy_dir,wLx_dir,x_movePos,y_movePos,text_2.started,text_2.stopped,aft_x_corrPos,aft_y_corrPos,y_pathSize_check,x_pathSize_check,y_pathdirY,x_pathdirY,x_pathdirX,x_corrPos,y_corrPos,gridImage_6.started,alienImageFB_2.started,startPosFB_2.started,movePosFB_2.started,keyFB_2.started,pathLine_xdir.started,pathLine_ydir.started,alienFace.started,sounds_4.started,RT_FBtrain,keyFB_2.keys,keyFB_2.rt,saveACC_pre,ACC,within_saveACC_train,earlystop_wloop,cumAcctrain_check,gridImage_3.started,alienImage_test.started,startPos_test.started,movePos_test.started,key_resp_test.started,wLy_dir_test,wLx_dir_test,buttonPress_test,RTchoice_test,cumAcctest,corrAns_test,key_resp_test.keys,key_resp_test.rt,text_3.started,text_3.stopped,total_time,end_all_time,key_resp_3.keys,slides_2.started,sounds_3.started,nextButton_2.numClicks,nextButton_2.timesOn,nextButton_2.timesOff,prev_but_2.numClicks,prev_but_2.timesOn,prev_but_2.timesOff,bye.started,participant,train_first,00_coordinate,starting corner,date,expName,psychopyVersion,frameRate,
,,,,,,,,,,,,,,,0,0,0,0,0,0,0,0,,,,,,,,,,,,,,,,,,,,,,,,,,,,,start_all_time,testround,conditions/schedules/train_x_first/red_square_00/bottom_right/instructions/Slide1.png,conditions/schedules/train_x_first/red_square_00/bottom_right/instructions/Audio1.wav,70.1479555000551,70.10271284962073,1,[3.635975199751556],[3.6359827001579106],0,,,,,,,,,,,,,,,,,,,,,,,,,,,,,,,,,,,,,,,,,,,,,,,,,,,,,,,,,,,,,,,,,,,,,,,,,,,,,,,,,,,,,,,,,,,,,,,,,,,,,,,,,,,,,,,,,,,,,,,,,,,,AHD6DK,train_x,red_square,bottom_right,2025-05-02_13h28.12.291,HideSeek_v1,2022.2.5,60.33484625247836,
,,,,,,,,,,,,,,,0,0,0,0,1,0,1,0,,,,,,,,,,,,,,,,,,,,,,,,,,,,,,,conditions/schedules/train_x_first/red_square_00/bottom_right/instructions/Slide2.png,conditions/schedules/train_x_first/red_square_00/bottom_right/instructions/Audio2.wav,73.80949670029804,73.81036214996129,2,"[3.635975199751556, 19.18151339981705]","[0.00022209994494915009, 19.181520499754697]",0,,,,,,,,,,,,,,,,,,,,,,,,,,,,,,,,,,,,,,,,,,,,,,,,,,,,,,,,,,,,,,,,,,,,,,,,,,,,,,,,,,,,,,,,,,,,,,,,,,,,,,,,,,,,,,,,,,,,,,,,,,,,AHD6DK,train_x,red_square,bottom_right,2025-05-02_13h28.12.291,HideSeek_v1,2022.2.5,60.33484625247836,
,,,,,,,,,,,,,,,0,0,0,0,2,0,2,0,,,,,,,,,,,,,,,,,,,,,,,,,,,,,,,conditions/schedules/train_x_first/red_square_00/bottom_right/instructions/Slide3.png,conditions/schedules/train_x_first/red_square_00/bottom_right/instructions/Audio3.wav,93.0606248001568,93.05980694992468,3,"[3.635975199751556, 19.18151339981705, 16.444196100346744]","[0.00022209994494915009, 0.014169900212436914, 16.444202600046992]",0,,,,,,,,,,,,,,,,,,,,,,,,,,,,,,,,,,,,,,,,,,,,,,,,,,,,,,,,,,,,,,,,,,,,,,,,,,,,,,,,,,,,,,,,,,,,,,,,,,,,,,,,,,,,,,,,,,,,,,,,,,,,AHD6DK,train_x,red_square,bottom_right,2025-05-02_13h28.12.291,HideSeek_v1,2022.2.5,60.33484625247836,
,,,,,,,,,,,,,,,0,0,0,0,3,0,3,0,,,,,,,,,,,,,,,,,,,,,,,,,,,,,,,conditions/schedules/train_x_first/red_square_00/bottom_right/instructions/Slide4.png,conditions/schedules/train_x_first/red_square_00/bottom_right/instructions/Audio4.wav,109.59119450021535,109.59044421976432,4,"[3.635975199751556, 19.18151339981705, 16.444196100346744, 19.580345700029284]","[0.00022209994494915009, 0.014169900212436914, 16.444202600046992, 19.5803537000902]",0,,,,,,,,,,,,,,,,,,,,,,,,,,,,,,,,,,,,,,,,,,,,,,,,,,,,,,,,,,,,,,,,,,,,,,,,,,,,,,,,,,,,,,,,,,,,,,,,,,,,,,,,,,,,,,,,,,,,,,,,,,,,AHD6DK,train_x,red_square,bottom_right,2025-05-02_13h28.12.291,HideSeek_v1,2022.2.5,60.33484625247836,
,,,,,,,,,,,,,,,0,0,0,0,4,0,4,0,,,,,,,,,,,,,,,,,,,,,,,,,,,,,,,conditions/schedules/train_x_first/red_square_00/bottom_right/instructions/Slide5.png,conditions/schedules/train_x_first/red_square_00/bottom_right/instructions/Audio5.wav,129.23778960015625,129.23976575024426,5,"[3.635975199751556, 19.18151339981705, 16.444196100346744, 19.580345700029284, 4.253160399850458]","[0.00022209994494915009, 0.014169900212436914, 16.444202600046992, 0.04962599975988269, 4.253167899791151]",0,,,,,,,,,,,,,,,,,,,,,,,,,,,,,,,,,,,,,,,,,,,,,,,,,,,,,,,,,,,,,,,,,,,,,,,,,,,,,,,,,,,,,,,,,,,,,,,,,,,,,,,,,,,,,,,,,,,,,,,,,,,,AHD6DK,train_x,red_square,bottom_right,2025-05-02_13h28.12.291,HideSeek_v1,2022.2.5,60.33484625247836,
,,,,,,,,,,,,,,,0,0,0,0,5,0,5,0,,,,,,,,,,,,,,,,,,,,,,,,,,,,,,,conditions/schedules/train_x_first/red_square_00/bottom_right/instructions/Slide6.png,conditions/schedules/train_x_first/red_square_00/bottom_right/instructions/Audio6.wav,133.54202020028606,133.54321218002588,6,"[3.635975199751556, 19.18151339981705, 16.444196100346744, 19.580345700029284, 4.253160399850458, 4.819974100217223]","[0.00022209994494915009, 0.014169900212436914, 16.444202600046992, 0.04962599975988269, 0.09896550001576543, 4.81998089980334]",0,,,,,,,,,,,,,,,,,,,,,,,,,,,,,,,,,,,,,,,,,,,,,,,,,,,,,,,,,,,,,,,,,,,,,,,,,,,,,,,,,,,,,,,,,,,,,,,,,,,,,,,,,,,,,,,,,,,,,,,,,,,,AHD6DK,train_x,red_square,bottom_right,2025-05-02_13h28.12.291,HideSeek_v1,2022.2.5,60.33484625247836,
,,,,,,,,,,,,,,,0,0,0,0,6,0,6,0,,,,,,,,,,,,,,,,,,,,,,,,,,,,,,,conditions/schedules/train_x_first/red_square_00/bottom_right/instructions/Slide7.png,conditions/schedules/train_x_first/red_square_00/bottom_right/instructions/Audio7.wav,138.41392220044509,138.41430118028075,7,"[3.635975199751556, 19.18151339981705, 16.444196100346744, 19.580345700029284, 4.253160399850458, 4.819974100217223, 5.435377399902791]","[0.00022209994494915009, 0.014169900212436914, 16.444202600046992, 0.04962599975988269, 0.09896550001576543, 0.06419559987261891, 5.435383699834347]",0,,,,,,,,,,,,,,,,,,,,,,,,,,,,,,,,,,,,,,,,,,,,,,,,,,,,,,,,,,,,,,,,,,,,,,,,,,,,,,,,,,,,,,,,,,,,,,,,,,,,,,,,,,,,,,,,,,,,,,,,,,,,AHD6DK,train_x,red_square,bottom_right,2025-05-02_13h28.12.291,HideSeek_v1,2022.2.5,60.33484625247836,
,,,,,,,,,,,,,,,0,0,0,0,7,0,7,0,,,,,,,,,,,,,,,,,,,,,,,,,,,,,,,conditions/schedules/train_x_first/red_square_00/bottom_right/instructions/Slide8.png,conditions/schedules/train_x_first/red_square_00/bottom_right/instructions/Audio8.wav,143.92023500008509,143.91872934997082,8,"[3.635975199751556, 19.18151339981705, 16.444196100346744, 19.580345700029284, 4.253160399850458, 4.819974100217223, 5.435377399902791, 11.571935500018299]","[0.00022209994494915009, 0.014169900212436914, 16.444202600046992, 0.04962599975988269, 0.09896550001576543, 0.06419559987261891, 0.045560500118881464, 11.571943200193346]",0,,,,,,,,,,,,,,,,,,,,,,,,,,,,,,,,,,,,,,,,,,,,,,,,,,,,,,,,,,,,,,,,,,,,,,,,,,,,,,,,,,,,,,,,,,,,,,,,,,,,,,,,,,,,,,,,,,,,,,,,,,,,AHD6DK,train_x,red_square,bottom_right,2025-05-02_13h28.12.291,HideSeek_v1,2022.2.5,60.33484625247836,
,,,,,,,,,,,,,,,0,0,0,0,8,0,8,0,,,,,,,,,,,,,,,,,,,,,,,,,,,,,,,conditions/schedules/train_x_first/red_square_00/bottom_right/instructions/Slide9.png,conditions/schedules/train_x_first/red_square_00/bottom_right/instructions/Audio9.wav,155.5598960001953,155.56166004994884,9,"[3.635975199751556, 19.18151339981705, 16.444196100346744, 19.580345700029284, 4.253160399850458, 4.819974100217223, 5.435377399902791, 11.571935500018299, 5.787624599877745]","[0.00022209994494915009, 0.014169900212436914, 16.444202600046992, 0.04962599975988269, 0.09896550001576543, 0.06419559987261891, 0.045560500118881464, 0.08220549998804927, 5.7876319997012615]",0,,,,,,,,,,,,,,,,,,,,,,,,,,,,,,,,,,,,,,,,,,,,,,,,,,,,,,,,,,,,,,,,,,,,,,,,,,,,,,,,,,,,,,,,,,,,,,,,,,,,,,,,,,,,,,,,,,,,,,,,,,,,AHD6DK,train_x,red_square,bottom_right,2025-05-02_13h28.12.291,HideSeek_v1,2022.2.5,60.33484625247836,
,,,,,,,,,,,,,,,0,0,0,0,9,0,9,0,,,,,,,,,,,,,,,,,,,,,,,,,,,,,,,conditions/schedules/train_x_first/red_square_00/bottom_right/instructions/Slide10.png,conditions/schedules/train_x_first/red_square_00/bottom_right/instructions/Audio10.wav,161.3856283002533,161.38294551009312,10,"[3.635975199751556, 19.18151339981705, 16.444196100346744, 19.580345700029284, 4.253160399850458, 4.819974100217223, 5.435377399902791, 11.571935500018299, 5.787624599877745, 6.916951199993491]","[0.00022209994494915009, 0.014169900212436914, 16.444202600046992, 0.04962599975988269, 0.09896550001576543, 0.06419559987261891, 0.045560500118881464, 0.08220549998804927, 0.1446126000955701, 6.916957600042224]",0,,,,,,,,,,,,,,,,,,,,,,,,,,,,,,,,,,,,,,,,,,,,,,,,,,,,,,,,,,,,,,,,,,,,,,,,,,,,,,,,,,,,,,,,,,,,,,,,,,,,,,,,,,,,,,,,,,,,,,,,,,,,AHD6DK,train_x,red_square,bottom_right,2025-05-02_13h28.12.291,HideSeek_v1,2022.2.5,60.33484625247836,
,,,,,,,,,,,,,,,0,0,0,0,10,0,10,0,,,,,,,,,,,,,,,,,,,,,,,,,,,,,,,conditions/schedules/train_x_first/red_square_00/bottom_right/instructions/Slide11.png,conditions/schedules/train_x_first/red_square_00/bottom_right/instructions/Audio11.wav,168.37325030006468,168.3720680498518,11,"[3.635975199751556, 19.18151339981705, 16.444196100346744, 19.580345700029284, 4.253160399850458, 4.819974100217223, 5.435377399902791, 11.571935500018299, 5.787624599877745, 6.916951199993491, 9.32129540015012]","[0.00022209994494915009, 0.014169900212436914, 16.444202600046992, 0.04962599975988269, 0.09896550001576543, 0.06419559987261891, 0.045560500118881464, 0.08220549998804927, 0.1446126000955701, 0.03094270033761859, 9.321302000433207]",0,,,,,,,,,,,,,,,,,,,,,,,,,,,,,,,,,,,,,,,,,,,,,,,,,,,,,,,,,,,,,,,,,,,,,,,,,,,,,,,,,,,,,,,,,,,,,,,,,,,,,,,,,,,,,,,,,,,,,,,,,,,,AHD6DK,train_x,red_square,bottom_right,2025-05-02_13h28.12.291,HideSeek_v1,2022.2.5,60.33484625247836,
,,,,,,,,,,,,,,,0,0,0,0,11,0,11,0,,,,,,,,,,,,,,,,,,,,,,,,,,,,,,,conditions/schedules/train_x_first/red_square_00/bottom_right/instructions/Slide12.png,conditions/schedules/train_x_first/red_square_00/bottom_right/instructions/Audio12.wav,177.75083740008995,177.74662957992405,12,"[3.635975199751556, 19.18151339981705, 16.444196100346744, 19.580345700029284, 4.253160399850458, 4.819974100217223, 5.435377399902791, 11.571935500018299, 5.787624599877745, 6.916951199993491, 9.32129540015012, 12.471311300061643]","[0.00022209994494915009, 0.014169900212436914, 16.444202600046992, 0.04962599975988269, 0.09896550001576543, 0.06419559987261891, 0.045560500118881464, 0.08220549998804927, 0.1446126000955701, 0.03094270033761859, 0.09485320001840591, 12.471318100113422]",0,,,,,,,,,,,,,,,,,,,,,,,,,,,,,,,,,,,,,,,,,,,,,,,,,,,,,,,,,,,,,,,,,,,,,,,,,,,,,,,,,,,,,,,,,,,,,,,,,,,,,,,,,,,,,,,,,,,,,,,,,,,,AHD6DK,train_x,red_square,bottom_right,2025-05-02_13h28.12.291,HideSeek_v1,2022.2.5,60.33484625247836,
1,8,2,3,2,-5,0,66,2,instr_dim1_1,,,,,,0,0,0,0,,,,,0,0,0,0,,,,,,,,,,,,,,,,,,,,,,,,,,,,,,,,,,,,,stimuli/alien_stimuli/66.png,conditions/schedules/train_x_first/red_square_00/bottom_right/inputInstr_1.xlsx,stimuli/alien_stimuli/66.png,190.30503530008718,190.30503530008718,190.30503530008718,190.30503530008718,190.3071960201487,return,10.16195959970355,"[-0.16, -0.08, 0, 0.08, 0.16, 0.24, 0.32, 0.4, 0.48, 0.56]","[-0.4, -0.32, -0.24, -0.16, -0.08, 0, 0.08, 0.16, 0.24, 0.32]",2,2,3,8,0.0,0.4,200.6229832000099,200.6229832000099,200.6229832000099,200.6229832000099,200.6229832000099,200.6229832000099,200.6229832000099,200.61554506001994,6.790122699923813,return,6.645075799897313,stimuli/alien_stimuli/66.png,66,8,1,,,,,,,,,,,,,,,,,,,,,,,,,,,,,,,,,,,,,,,,,,,,,,,,,,,,,,,,,,,,,,,,,,,,,,,,,,,,,,,,,,,,,,,,,AHD6DK,train_x,red_square,bottom_right,2025-05-02_13h28.12.291,HideSeek_v1,2022.2.5,60.33484625247836,
,,,,,,,,,,,30,,,,0,0,0,0,,,,,,,,,,,,,,,,,,,,,,,,,,,,,,,,,,,,,,,,,,,,,,,,,,,,,,,,,,,,,,,,,,,,,,,,,,,,,,21,0.7,0,0,99,1,30,0,conditions/schedules/train_x_first/red_square_00/bottom_right/inputTrain_1.1.xlsx,99,1,1,1,0,,,,,,,,,,,,,,,,,,,,,,,,,,,,,,,,,,,,,,,,,,,,,,,,,,,,,,,,,,,,,,,,,,,,,,,,,,,AHD6DK,train_x,red_square,bottom_right,2025-05-02_13h28.12.291,HideSeek_v1,2022.2.5,60.33484625247836,
,,,,,,,,,,,,,,,1,0,1,0,0,0,0,0,,,,,,,,,,,,,,,,,,,,,,,,,,,,,,,conditions/schedules/train_x_first/red_square_00/bottom_right/instructions/Slide13.png,conditions/schedules/train_x_first/red_square_00/bottom_right/instructions/Audio13.wav,207.41779540013522,207.40466206008568,13,"[3.635975199751556, 19.18151339981705, 16.444196100346744, 19.580345700029284, 4.253160399850458, 4.819974100217223, 5.435377399902791, 11.571935500018299, 5.787624599877745, 6.916951199993491, 9.32129540015012, 12.471311300061643, 17.415324500296265]","[0.00022209994494915009, 0.014169900212436914, 16.444202600046992, 0.04962599975988269, 0.09896550001576543, 0.06419559987261891, 0.045560500118881464, 0.08220549998804927, 0.1446126000955701, 0.03094270033761859, 0.09485320001840591, 12.471318100113422, 17.415331500116736]",0,,,,,,,,,,,,,,,,,,,,,,,,,,,,,,,,,,,,,,,,,,,,,,,,,,,,,,,,,,,,,,,,,,,,,,,,,,,,,,,,,,,,,,,,,,,,,,,,,,,,,,,,,,,,,,,,,,,,,,,,,,,,AHD6DK,train_x,red_square,bottom_right,2025-05-02_13h28.12.291,HideSeek_v1,2022.2.5,60.33484625247836,
,,,,,,,,,,,,,,,1,0,1,0,1,0,1,0,,,,,,,,,,,,,,,,,,,,,,,,,,,,,,,conditions/schedules/train_x_first/red_square_00/bottom_right/instructions/Slide14.png,conditions/schedules/train_x_first/red_square_00/bottom_right/instructions/Audio14.wav,224.89610290015116,224.88589488016441,14,"[3.635975199751556, 19.18151339981705, 16.444196100346744, 19.580345700029284, 4.253160399850458, 4.819974100217223, 5.435377399902791, 11.571935500018299, 5.787624599877745, 6.916951199993491, 9.32129540015012, 12.471311300061643, 17.415324500296265, 13.148144899867475]","[0.00022209994494915009, 0.014169900212436914, 16.444202600046992, 0.04962599975988269, 0.09896550001576543, 0.06419559987261891, 0.045560500118881464, 0.08220549998804927, 0.1446126000955701, 0.03094270033761859, 0.09485320001840591, 12.471318100113422, 0.032850699964910746, 13.14815240027383]",0,,,,,,,,,,,,,,,,,,,,,,,,,,,,,,,,,,,,,,,,,,,,,,,,,,,,,,,,,,,,,,,,,,,,,,,,,,,,,,,,,,,,,,,,,,,,,,,,,,,,,,,,,,,,,,,,,,,,,,,,,,,,AHD6DK,train_x,red_square,bottom_right,2025-05-02_13h28.12.291,HideSeek_v1,2022.2.5,60.33484625247836,
2,9,0,9,0,0,0,16,2,instr_dim1_1,,,,,,1,0,1,0,,,,,0,0,0,0,,,,,,,,,,,,,,,,,,,,,,,,,,,,,,,,,,,,,stimuli/alien_stimuli/16.png,conditions/schedules/train_x_first/red_square_00/bottom_right/inputInstr_1.xlsx,stimuli/alien_stimuli/16.png,238.1530639003031,238.1530639003031,238.1530639003031,238.1530639003031,238.14692009007558,return,6.4622605997137725,"[-0.16, -0.08, 0, 0.08, 0.16, 0.24, 0.32, 0.4, 0.48, 0.56]","[-0.4, -0.32, -0.24, -0.16, -0.08, 0, 0.08, 0.16, 0.24, 0.32]",0,0,9,9,0.0,0.0,244.7734011001885,244.7734011001885,244.7734011001885,244.7734011001885,244.7734011001885,244.7734011001885,244.7734011001885,244.75217525986955,6.205760600045323,return,6.039604699704796,stimuli/alien_stimuli/16.png,16,9,2,,,,,,,,,,,,,,,,,,,,,,,,,,,,,,,,,,,,,,,,,,,,,,,,,,,,,,,,,,,,,,,,,,,,,,,,,,,,,,,,,,,,,,,,,AHD6DK,train_x,red_square,bottom_right,2025-05-02_13h28.12.291,HideSeek_v1,2022.2.5,60.33484625247836,
,,,,,,,,,,,30,,,,1,0,1,0,,,,,,,,,,,,,,,,,,,,,,,,,,,,,,,,,,,,,,,,,,,,,,,,,,,,,,,,,,,,,,,,,,,,,,,,,,,,,,21,0.7,0,0,99,1,30,0,conditions/schedules/train_x_first/red_square_00/bottom_right/inputTrain_1.1.xlsx,99,1,1,1,0,,,,,,,,,,,,,,,,,,,,,,,,,,,,,,,,,,,,,,,,,,,,,,,,,,,,,,,,,,,,,,,,,,,,,,,,,,,AHD6DK,train_x,red_square,bottom_right,2025-05-02_13h28.12.291,HideSeek_v1,2022.2.5,60.33484625247836,
,,,,,,,,,,,,,,,2,0,2,0,0,0,0,0,,,,,,,,,,,,,,,,,,,,,,,,,,,,,,,conditions/schedules/train_x_first/red_square_00/bottom_right/instructions/Slide15.png,conditions/schedules/train_x_first/red_square_00/bottom_right/instructions/Audio15.wav,250.9811637001112,250.97385883005336,15,"[3.635975199751556, 19.18151339981705, 16.444196100346744, 19.580345700029284, 4.253160399850458, 4.819974100217223, 5.435377399902791, 11.571935500018299, 5.787624599877745, 6.916951199993491, 9.32129540015012, 12.471311300061643, 17.415324500296265, 13.148144899867475, 30.68255060026422]","[0.00022209994494915009, 0.014169900212436914, 16.444202600046992, 0.04962599975988269, 0.09896550001576543, 0.06419559987261891, 0.045560500118881464, 0.08220549998804927, 0.1446126000955701, 0.03094270033761859, 0.09485320001840591, 12.471318100113422, 0.032850699964910746, 13.14815240027383, 30.682558400090784]",0,,,,,,,,,,,,,,,,,,,,,,,,,,,,,,,,,,,,,,,,,,,,,,,,,,,,,,,,,,,,,,,,,,,,,,,,,,,,,,,,,,,,,,,,,,,,,,,,,,,,,,,,,,,,,,,,,,,,,,,,,,,,AHD6DK,train_x,red_square,bottom_right,2025-05-02_13h28.12.291,HideSeek_v1,2022.2.5,60.33484625247836,
,,,,,,,,,,,,,,,2,0,2,0,1,0,1,0,,,,,,,,,,,,,,,,,,,,,,,,,,,,,,,conditions/schedules/train_x_first/red_square_00/bottom_right/instructions/Slide16.png,conditions/schedules/train_x_first/red_square_00/bottom_right/instructions/Audio16.wav,281.7263342002407,281.71630098018795,16,"[3.635975199751556, 19.18151339981705, 16.444196100346744, 19.580345700029284, 4.253160399850458, 4.819974100217223, 5.435377399902791, 11.571935500018299, 5.787624599877745, 6.916951199993491, 9.32129540015012, 12.471311300061643, 17.415324500296265, 13.148144899867475, 30.68255060026422, 22.63932710001245]","[0.00022209994494915009, 0.014169900212436914, 16.444202600046992, 0.04962599975988269, 0.09896550001576543, 0.06419559987261891, 0.045560500118881464, 0.08220549998804927, 0.1446126000955701, 0.03094270033761859, 0.09485320001840591, 12.471318100113422, 0.032850699964910746, 13.14815240027383, 0.033918400295078754, 22.639334300067276]",0,,,,,,,,,,,,,,,,,,,,,,,,,,,,,,,,,,,,,,,,,,,,,,,,,,,,,,,,,,,,,,,,,,,,,,,,,,,,,,,,,,,,,,,,,,,,,,,,,,,,,,,,,,,,,,,,,,,,,,,,,,,,AHD6DK,train_x,red_square,bottom_right,2025-05-02_13h28.12.291,HideSeek_v1,2022.2.5,60.33484625247836,
,7,1,4,1,-3,0,46,,train_dim1_1,1,30,,,,2,0,2,0,,,,,,,,,0,0,0,0,0,0,0,0,0,0,0,0,,,,,,,,,,,,,,,,,,,,,,,,,stimuli/alien_stimuli/46.png,,,,,,,,,,,,,,,,,,,,,,,,,,,,,,,,,,,,,,,30,,,,,,,,304.4643390001729,304.4643390001729,304.4643390001729,304.4643390001729,304.4643390001729,left,2.430962599813938,0,0,0,99,0.32,-0.32,left,2.3304486996494234,,,,,,,,,,,,,,,,,,,,,,,,,,,,,,,,,,,,,,,,,,,,,,,,,,,,,,,,,,,,AHD6DK,train_x,red_square,bottom_right,2025-05-02_13h28.12.291,HideSeek_v1,2022.2.5,60.33484625247836,
,7,1,4,1,-3,0,46,,train_dim1_1,1,30,,,,2,0,2,0,,,,,,,,,0,0,0,0,0,0,0,0,1,0,1,0,,,,,,,,,,,,,,,,,,,,,,,,,,,,,,,,,,,,,,,,,,,,,,,,,,,,,,,,,,,,,,,,30,,,,,,,,306.8843111000024,306.8843111000024,306.8843111000024,306.8843111000024,306.8843111000024,left,1.059452099725604,0,0,0,99,0.24,-0.32,left,0.9730078997090459,,,,,,,,,,,,,,,,,,,,,,,,,,,,,,,,,,,,,,,,,,,,,,,,,,,,,,,,,,,,AHD6DK,train_x,red_square,bottom_right,2025-05-02_13h28.12.291,HideSeek_v1,2022.2.5,60.33484625247836,
,7,1,4,1,-3,0,46,,train_dim1_1,1,30,,,,2,0,2,0,,,,,,,,,0,0,0,0,0,0,0,0,2,0,2,0,,,,,,,,,,,,,,,,,,,,,,,,,,,,,,,,,,,,,,,,,,,,,,,,,,,,,,,,,,,,,,,,30,,,,,,,,307.95706250006333,307.95706250006333,307.95706250006333,307.95706250006333,307.95706250006333,up,1.6617443999275565,0,0,0,99,0.24,-0.24,up,1.5828209999017417,,,,,,,,,,,,,,,,,,,,,,,,,,,,,,,,,,,,,,,,,,,,,,,,,,,,,,,,,,,,AHD6DK,train_x,red_square,bottom_right,2025-05-02_13h28.12.291,HideSeek_v1,2022.2.5,60.33484625247836,
,7,1,4,1,-3,0,46,,train_dim1_1,1,30,,,,2,0,2,0,,,,,,,,,0,0,0,0,0,0,0,0,3,0,3,0,,,,,,,,,,,,,,,,,,,,,,,,,,,,,,,,,,,,,,,,,,,,,,,,,,,,,,,,,,,,,,,,30,,,,,,,,309.6227158000693,309.6227158000693,309.6227158000693,309.6227158000693,309.6227158000693,right,2.659129499923438,0,0,0,99,0.32,-0.24,right,2.5784040996804833,,,,,,,,,,,,,,,,,,,,,,,,,,,,,,,,,,,,,,,,,,,,,,,,,,,,,,,,,,,,AHD6DK,train_x,red_square,bottom_right,2025-05-02_13h28.12.291,HideSeek_v1,2022.2.5,60.33484625247836,
,7,1,4,1,-3,0,46,,train_dim1_1,1,30,,,,2,0,2,0,,,,,,,,,0,0,0,0,0,0,0,0,4,0,4,0,,,,,,,,,,,,,,,,,,,,,,,,,,,,,,,,,,,,,,,,,,,,,,,,,,,,,,,,,,,,,,,,30,,,,,,,,312.2897464004345,312.2897464004345,312.2897464004345,312.2897464004345,312.2897464004345,return,1.1772606000304222,0,0,0,0,0.32,-0.24,return,1.0882444996386766,1,-1,0.32,-0.24,,,,,,,,,,,,,,,,,,,,,,,,,,,,,,,,,,,,,,,,,,,,,,,,,,,,,,,,AHD6DK,train_x,red_square,bottom_right,2025-05-02_13h28.12.291,HideSeek_v1,2022.2.5,60.33484625247836,
,7,4,7,4,0,0,16,,train_dim1_1,2,30,,,,2,0,2,0,,,,,,,,,0,0,0,0,0,1,1,1,0,0,0,0,,,,,,,,,,,,,,,,,,,,,,,,,stimuli/alien_stimuli/16.png,,,,,,,,,,,,,,,,,,,,,,,,,,,,,stimuli/alien_stimuli/46.png,46,7,3,,,,,,,30,,,,,,,,343.9111537002027,343.9111537002027,343.9111537002027,343.9111537002027,343.9111537002027,left,3.692540599964559,0,0,0,99,0.32,-0.08,left,3.59265139978379,,,,,342.33348290016875,343.9111537002027,0.16,-0.32,0.0,0.24,-0.32,0.16,0.28,0.16,-0.32,315.0379413003102,315.0379413003102,315.0379413003102,315.0379413003102,315.0379413003102,315.0379413003102,315.0379413003102,315.0379413003102,315.0274853897281,27.4081325000152,return,27.26789589971304,,,,,,,,,,,,,,,,,,,,,,,,,,,,,,,,,AHD6DK,train_x,red_square,bottom_right,2025-05-02_13h28.12.291,HideSeek_v1,2022.2.5,60.33484625247836,
,7,4,7,4,0,0,16,,train_dim1_1,2,30,,,,2,0,2,0,,,,,,,,,0,0,0,0,0,1,1,1,1,0,1,0,,,,,,,,,,,,,,,,,,,,,,,,,,,,,,,,,,,,,,,,,,,,,,,,,,,,,,,,,,,,,,,,30,,,,,,,,347.58902820013463,347.58902820013463,347.58902820013463,347.58902820013463,347.58902820013463,right,0.7432729001156986,0,0,0,99,0.4,-0.08,right,0.6598583995364606,,,,,,,,,,,,,,,,,,,,,,,,,,,,,,,,,,,,,,,,,,,,,,,,,,,,,,,,,,,,AHD6DK,train_x,red_square,bottom_right,2025-05-02_13h28.12.291,HideSeek_v1,2022.2.5,60.33484625247836,
,7,4,7,4,0,0,16,,train_dim1_1,2,30,,,,2,0,2,0,,,,,,,,,0,0,0,0,0,1,1,1,2,0,2,0,,,,,,,,,,,,,,,,,,,,,,,,,,,,,,,,,,,,,,,,,,,,,,,,,,,,,,,,,,,,,,,,30,,,,,,,,348.33976710028946,348.33976710028946,348.33976710028946,348.33976710028946,348.33976710028946,left,2.6947107003070414,0,0,0,99,0.32,-0.08,left,2.6129255993291736,,,,,,,,,,,,,,,,,,,,,,,,,,,,,,,,,,,,,,,,,,,,,,,,,,,,,,,,,,,,AHD6DK,train_x,red_square,bottom_right,2025-05-02_13h28.12.291,HideSeek_v1,2022.2.5,60.33484625247836,
,7,4,7,4,0,0,16,,train_dim1_1,2,30,,,,2,0,2,0,,,,,,,,,0,0,0,0,0,1,1,1,3,0,3,0,,,,,,,,,,,,,,,,,,,,,,,,,,,,,,,,,,,,,,,,,,,,,,,,,,,,,,,,,,,,,,,,30,,,,,,,,351.04124850034714,351.04124850034714,351.04124850034714,351.04124850034714,351.04124850034714,down,4.230450900271535,0,0,0,99,0.32,-0.16,down,4.14639029931277,,,,,,,,,,,,,,,,,,,,,,,,,,,,,,,,,,,,,,,,,,,,,,,,,,,,,,,,,,,,AHD6DK,train_x,red_square,bottom_right,2025-05-02_13h28.12.291,HideSeek_v1,2022.2.5,60.33484625247836,
,7,4,7,4,0,0,16,,train_dim1_1,2,30,,,,2,0,2,0,,,,,,,,,0,0,0,0,0,1,1,1,4,0,4,0,,,,,,,,,,,,,,,,,,,,,,,,,,,,,,,,,,,,,,,,,,,,,,,,,,,,,,,,,,,,,,,,30,,,,,,,,355.2855842001736,355.2855842001736,355.2855842001736,355.2855842001736,355.2855842001736,return,0.6102048996835947,0,0,0,0,0.32,-0.16,return,0.5253531993366778,0,-2,0.32,-0.16,,,,,,,,,,,,,,,,,,,,,,,,,,,,,,,,,,,,,,,,,,,,,,,,,,,,,,,,AHD6DK,train_x,red_square,bottom_right,2025-05-02_13h28.12.291,HideSeek_v1,2022.2.5,60.33484625247836,
,9,4,8,4,-1,0,26,,train_dim1_1,3,30,,,,2,0,2,0,,,,,,,,,0,0,0,0,0,2,2,2,0,0,0,0,,,,,,,,,,,,,,,,,,,,,,,,,stimuli/alien_stimuli/26.png,,,,,,,,,,,,,,,,,,,,,,,,,,,,,stimuli/alien_stimuli/16.png,16,7,4,,,,,,,30,,,,,,,,365.46305330004543,365.46305330004543,365.46305330004543,365.46305330004543,365.46305330004543,left,2.0250979997217655,0,0,0,99,0.48000000000000004,-0.08,left,1.9362111994996667,,,,,363.90129090007395,365.46305330004543,0.4,-0.08,0.0,0.0,-0.08,0.4,0.4,0.4,-0.08,357.475631700363,357.475631700363,357.475631700363,357.475631700363,357.475631700363,357.475631700363,357.475631700363,357.475631700363,357.4625627598725,6.557613800279796,return,6.399611299391836,,,,,,,,,,,,,,,,,,,,,,,,,,,,,,,,,AHD6DK,train_x,red_square,bottom_right,2025-05-02_13h28.12.291,HideSeek_v1,2022.2.5,60.33484625247836,
,9,4,8,4,-1,0,26,,train_dim1_1,3,30,,,,2,0,2,0,,,,,,,,,0,0,0,0,0,2,2,2,1,0,1,0,,,,,,,,,,,,,,,,,,,,,,,,,,,,,,,,,,,,,,,,,,,,,,,,,,,,,,,,,,,,,,,,30,,,,,,,,367.48978700023144,367.48978700023144,367.48978700023144,367.48978700023144,367.48978700023144,left,2.0439085997641087,0,0,0,99,0.4,-0.08,left,1.9574543996714056,,,,,,,,,,,,,,,,,,,,,,,,,,,,,,,,,,,,,,,,,,,,,,,,,,,,,,,,,,,,AHD6DK,train_x,red_square,bottom_right,2025-05-02_13h28.12.291,HideSeek_v1,2022.2.5,60.33484625247836,
,9,4,8,4,-1,0,26,,train_dim1_1,3,30,,,,2,0,2,0,,,,,,,,,0,0,0,0,0,2,2,2,2,0,2,0,,,,,,,,,,,,,,,,,,,,,,,,,,,,,,,,,,,,,,,,,,,,,,,,,,,,,,,,,,,,,,,,30,,,,,,,,369.54068340035155,369.54068340035155,369.54068340035155,369.54068340035155,369.54068340035155,right,1.9112801002338529,0,0,0,99,0.48000000000000004,-0.08,right,1.8333686995320022,,,,,,,,,,,,,,,,,,,,,,,,,,,,,,,,,,,,,,,,,,,,,,,,,,,,,,,,,,,,AHD6DK,train_x,red_square,bottom_right,2025-05-02_13h28.12.291,HideSeek_v1,2022.2.5,60.33484625247836,
,9,4,8,4,-1,0,26,,train_dim1_1,3,30,,,,2,0,2,0,,,,,,,,,0,0,0,0,0,2,2,2,3,0,3,0,,,,,,,,,,,,,,,,,,,,,,,,,,,,,,,,,,,,,,,,,,,,,,,,,,,,,,,,,,,,,,,,30,,,,,,,,371.4582942002453,371.4582942002453,371.4582942002453,371.4582942002453,371.4582942002453,return,1.0272017000243068,1,0,0,1,0.48000000000000004,-0.08,return,0.9409127994440496,0,-3,0.48000000000000004,-0.08,,,,,,,,,,,,,,,,,,,,,,,,,,,,,,,,,,,,,,,,,,,,,,,,,,,,,,,,AHD6DK,train_x,red_square,bottom_right,2025-05-02_13h28.12.291,HideSeek_v1,2022.2.5,60.33484625247836,
,7,3,3,3,-4,0,56,,train_dim1_1,4,30,,,,2,0,2,0,,,,,,,,,0,0,0,0,0,3,3,3,0,0,0,0,,,,,,,,,,,,,,,,,,,,,,,,,stimuli/alien_stimuli/56.png,,,,,,,,,,,,,,,,,,,,,,,,,,,,,stimuli/alien_stimuli/26.png,26,9,5,,,,,,,30,,,,,,,,380.0140075003728,380.0140075003728,380.0140075003728,380.0140075003728,380.0140075003728,left,2.389643999747932,1,0,0,99,0.32,-0.16,left,2.2978309993632138,,,,,378.4467176999897,380.0140075003728,0.48,-0.08,0.0,0.08,-0.08,0.48,0.52,0.48,-0.08,374.06783560011536,374.06783560011536,374.06783560011536,374.06783560011536,374.06783560011536,374.06783560011536,374.06783560011536,374.06783560011536,374.05968385981396,4.506236399989575,return,4.358722799923271,,,,,,,,,,,,,,,,,,,,,,,,,,,,,,,,,AHD6DK,train_x,red_square,bottom_right,2025-05-02_13h28.12.291,HideSeek_v1,2022.2.5,60.33484625247836,
,7,3,3,3,-4,0,56,,train_dim1_1,4,30,,,,2,0,2,0,,,,,,,,,0,0,0,0,0,3,3,3,1,0,1,0,,,,,,,,,,,,,,,,,,,,,,,,,,,,,,,,,,,,,,,,,,,,,,,,,,,,,,,,,,,,,,,,30,,,,,,,,382.39988280041143,382.39988280041143,382.39988280041143,382.39988280041143,382.39988280041143,left,0.35956160025671124,1,0,0,99,0.24,-0.16,left,0.2757395994849503,,,,,,,,,,,,,,,,,,,,,,,,,,,,,,,,,,,,,,,,,,,,,,,,,,,,,,,,,,,,AHD6DK,train_x,red_square,bottom_right,2025-05-02_13h28.12.291,HideSeek_v1,2022.2.5,60.33484625247836,
,7,3,3,3,-4,0,56,,train_dim1_1,4,30,,,,2,0,2,0,,,,,,,,,0,0,0,0,0,3,3,3,2,0,2,0,,,,,,,,,,,,,,,,,,,,,,,,,,,,,,,,,,,,,,,,,,,,,,,,,,,,,,,,,,,,,,,,30,,,,,,,,382.76568830013275,382.76568830013275,382.76568830013275,382.76568830013275,382.76568830013275,left,0.3765147002413869,1,0,0,99,0.15999999999999998,-0.16,left,0.28791769966483116,,,,,,,,,,,,,,,,,,,,,,,,,,,,,,,,,,,,,,,,,,,,,,,,,,,,,,,,,,,,AHD6DK,train_x,red_square,bottom_right,2025-05-02_13h28.12.291,HideSeek_v1,2022.2.5,60.33484625247836,
,7,3,3,3,-4,0,56,,train_dim1_1,4,30,,,,2,0,2,0,,,,,,,,,0,0,0,0,0,3,3,3,3,0,3,0,,,,,,,,,,,,,,,,,,,,,,,,,,,,,,,,,,,,,,,,,,,,,,,,,,,,,,,,,,,,,,,,30,,,,,,,,383.1497491002083,383.1497491002083,383.1497491002083,383.1497491002083,383.1497491002083,left,0.5770123000256717,1,0,0,99,0.07999999999999997,-0.16,left,0.49652469996362925,,,,,,,,,,,,,,,,,,,,,,,,,,,,,,,,,,,,,,,,,,,,,,,,,,,,,,,,,,,,AHD6DK,train_x,red_square,bottom_right,2025-05-02_13h28.12.291,HideSeek_v1,2022.2.5,60.33484625247836,
,7,3,3,3,-4,0,56,,train_dim1_1,4,30,,,,2,0,2,0,,,,,,,,,0,0,0,0,0,3,3,3,4,0,4,0,,,,,,,,,,,,,,,,,,,,,,,,,,,,,,,,,,,,,,,,,,,,,,,,,,,,,,,,,,,,,,,,30,,,,,,,,383.73336080042645,383.73336080042645,383.73336080042645,383.73336080042645,383.73336080042645,left,0.46016200026497245,1,0,0,99,-2.7755575615628914e-17,-0.16,left,0.3717702995054424,,,,,,,,,,,,,,,,,,,,,,,,,,,,,,,,,,,,,,,,,,,,,,,,,,,,,,,,,,,,AHD6DK,train_x,red_square,bottom_right,2025-05-02_13h28.12.291,HideSeek_v1,2022.2.5,60.33484625247836,
,7,3,3,3,-4,0,56,,train_dim1_1,4,30,,,,2,0,2,0,,,,,,,,,0,0,0,0,0,3,3,3,5,0,5,0,,,,,,,,,,,,,,,,,,,,,,,,,,,,,,,,,,,,,,,,,,,,,,,,,,,,,,,,,,,,,,,,30,,,,,,,,384.200914000161,384.200914000161,384.200914000161,384.200914000161,384.200914000161,return,0.5266984002664685,1,1,0,0,-2.7755575615628914e-17,-0.16,return,0.44441109988838434,0,-8,-2.7755575615628914e-17,-0.16,,,,,,,,,,,,,,,,,,,,,,,,,,,,,,,,,,,,,,,,,,,,,,,,,,,,,,,,AHD6DK,train_x,red_square,bottom_right,2025-05-02_13h28.12.291,HideSeek_v1,2022.2.5,60.33484625247836,
,5,2,0,2,-5,0,66,,train_dim1_1,5,30,,,,2,0,2,0,,,,,,,,,0,0,0,0,0,4,4,4,0,0,0,0,,,,,,,,,,,,,,,,,,,,,,,,,stimuli/alien_stimuli/66.png,,,,,,,,,,,,,,,,,,,,,,,,,,,,,stimuli/alien_stimuli/56.png,56,7,6,,,,,,,30,,,,,,,,391.85030150040984,391.85030150040984,391.85030150040984,391.85030150040984,391.85030150040984,up,3.8400938999839127,1,1,0,99,0.24,-0.15999999999999998,up,3.745599899906665,,,,,390.28983170026913,391.85030150040984,0.08,-0.16,0.0,0.32,-0.16,0.08,0.24000000000000002,0.08,-0.16,386.2980085001327,386.2980085001327,386.2980085001327,386.2980085001327,386.2980085001327,386.2980085001327,386.2980085001327,386.2980085001327,386.2866521901451,4.105629900004715,return,3.9761164993979037,,,,,,,,,,,,,,,,,,,,,,,,,,,,,,,,,AHD6DK,train_x,red_square,bottom_right,2025-05-02_13h28.12.291,HideSeek_v1,2022.2.5,60.33484625247836,
,5,2,0,2,-5,0,66,,train_dim1_1,5,30,,,,2,0,2,0,,,,,,,,,0,0,0,0,0,4,4,4,1,0,1,0,,,,,,,,,,,,,,,,,,,,,,,,,,,,,,,,,,,,,,,,,,,,,,,,,,,,,,,,,,,,,,,,30,,,,,,,,395.6922728000209,395.6922728000209,395.6922728000209,395.6922728000209,395.6922728000209,up,0.49280849983915687,1,1,0,99,0.24,-0.07999999999999997,up,0.4201821996830404,,,,,,,,,,,,,,,,,,,,,,,,,,,,,,,,,,,,,,,,,,,,,,,,,,,,,,,,,,,,AHD6DK,train_x,red_square,bottom_right,2025-05-02_13h28.12.291,HideSeek_v1,2022.2.5,60.33484625247836,
,5,2,0,2,-5,0,66,,train_dim1_1,5,30,,,,2,0,2,0,,,,,,,,,0,0,0,0,0,4,4,4,2,0,2,0,,,,,,,,,,,,,,,,,,,,,,,,,,,,,,,,,,,,,,,,,,,,,,,,,,,,,,,,,,,,,,,,30,,,,,,,,396.19145790021867,396.19145790021867,396.19145790021867,396.19145790021867,396.19145790021867,up,0.49377640010789037,1,1,0,99,0.24,2.7755575615628914e-17,up,0.4052106998860836,,,,,,,,,,,,,,,,,,,,,,,,,,,,,,,,,,,,,,,,,,,,,,,,,,,,,,,,,,,,AHD6DK,train_x,red_square,bottom_right,2025-05-02_13h28.12.291,HideSeek_v1,2022.2.5,60.33484625247836,
,5,2,0,2,-5,0,66,,train_dim1_1,5,30,,,,2,0,2,0,,,,,,,,,0,0,0,0,0,4,4,4,3,0,3,0,,,,,,,,,,,,,,,,,,,,,,,,,,,,,,,,,,,,,,,,,,,,,,,,,,,,,,,,,,,,,,,,30,,,,,,,,396.6923502003774,396.6923502003774,396.6923502003774,396.6923502003774,396.6923502003774,up,0.593667599838227,1,1,0,99,0.24,0.08000000000000003,up,0.5048460997641087,,,,,,,,,,,,,,,,,,,,,,,,,,,,,,,,,,,,,,,,,,,,,,,,,,,,,,,,,,,,AHD6DK,train_x,red_square,bottom_right,2025-05-02_13h28.12.291,HideSeek_v1,2022.2.5,60.33484625247836,
,5,2,0,2,-5,0,66,,train_dim1_1,5,30,,,,2,0,2,0,,,,,,,,,0,0,0,0,0,4,4,4,4,0,4,0,,,,,,,,,,,,,,,,,,,,,,,,,,,,,,,,,,,,,,,,,,,,,,,,,,,,,,,,,,,,,,,,30,,,,,,,,397.2923342003487,397.2923342003487,397.2923342003487,397.2923342003487,397.2923342003487,up,0.46017490001395345,1,1,0,99,0.24,0.16000000000000003,up,0.3768025995232165,,,,,,,,,,,,,,,,,,,,,,,,,,,,,,,,,,,,,,,,,,,,,,,,,,,,,,,,,,,,AHD6DK,train_x,red_square,bottom_right,2025-05-02_13h28.12.291,HideSeek_v1,2022.2.5,60.33484625247836,
,5,2,0,2,-5,0,66,,train_dim1_1,5,30,,,,2,0,2,0,,,,,,,,,0,0,0,0,0,4,4,4,5,0,5,0,,,,,,,,,,,,,,,,,,,,,,,,,,,,,,,,,,,,,,,,,,,,,,,,,,,,,,,,,,,,,,,,30,,,,,,,,397.7620474002324,397.7620474002324,397.7620474002324,397.7620474002324,397.7620474002324,up,0.44068080000579357,1,1,0,99,0.24,0.24000000000000005,up,0.36163899954408407,,,,,,,,,,,,,,,,,,,,,,,,,,,,,,,,,,,,,,,,,,,,,,,,,,,,,,,,,,,,AHD6DK,train_x,red_square,bottom_right,2025-05-02_13h28.12.291,HideSeek_v1,2022.2.5,60.33484625247836,
,5,2,0,2,-5,0,66,,train_dim1_1,5,30,,,,2,0,2,0,,,,,,,,,0,0,0,0,0,4,4,4,6,0,6,0,,,,,,,,,,,,,,,,,,,,,,,,,,,,,,,,,,,,,,,,,,,,,,,,,,,,,,,,,,,,,,,,30,,,,,,,,398.2093382002786,398.2093382002786,398.2093382002786,398.2093382002786,398.2093382002786,up,0.16037690034136176,1,1,0,99,0.24,0.32000000000000006,up,0.08212729962542653,,,,,,,,,,,,,,,,,,,,,,,,,,,,,,,,,,,,,,,,,,,,,,,,,,,,,,,,,,,,AHD6DK,train_x,red_square,bottom_right,2025-05-02_13h28.12.291,HideSeek_v1,2022.2.5,60.33484625247836,
,5,2,0,2,-5,0,66,,train_dim1_1,5,30,,,,2,0,2,0,,,,,,,,,0,0,0,0,0,4,4,4,7,0,7,0,,,,,,,,,,,,,,,,,,,,,,,,,,,,,,,,,,,,,,,,,,,,,,,,,,,,,,,,,,,,,,,,30,,,,,,,,398.3766970001161,398.3766970001161,398.3766970001161,398.3766970001161,398.3766970001161,down,1.1767907999455929,1,1,0,99,0.24,0.24000000000000005,down,1.0926627996377647,,,,,,,,,,,,,,,,,,,,,,,,,,,,,,,,,,,,,,,,,,,,,,,,,,,,,,,,,,,,AHD6DK,train_x,red_square,bottom_right,2025-05-02_13h28.12.291,HideSeek_v1,2022.2.5,60.33484625247836,
,5,2,0,2,-5,0,66,,train_dim1_1,5,30,,,,2,0,2,0,,,,,,,,,0,0,0,0,0,4,4,4,8,0,8,0,,,,,,,,,,,,,,,,,,,,,,,,,,,,,,,,,,,,,,,,,,,,,,,,,,,,,,,,,,,,,,,,30,,,,,,,,399.56048520002514,399.56048520002514,399.56048520002514,399.56048520002514,399.56048520002514,return,3.7133797998540103,1,0,0,0,0.24,0.24000000000000005,return,3.628221999388188,6,-8,0.24,0.24000000000000005,,,,,,,,,,,,,,,,,,,,,,,,,,,,,,,,,,,,,,,,,,,,,,,,,,,,,,,,AHD6DK,train_x,red_square,bottom_right,2025-05-02_13h28.12.291,HideSeek_v1,2022.2.5,60.33484625247836,
,5,0,4,0,-1,0,26,,train_dim1_1,6,30,,,,2,0,2,0,,,,,,,,,0,0,0,0,0,5,5,5,0,0,0,0,,,,,,,,,,,,,,,,,,,,,,,,,stimuli/alien_stimuli/26.png,,,,,,,,,,,,,,,,,,,,,,,,,,,,,stimuli/alien_stimuli/66.png,66,5,7,,,,,,,30,,,,,,,,410.48621470015496,410.48621470015496,410.48621470015496,410.48621470015496,410.48621470015496,left,2.1555603998713195,1,0,0,99,0.15999999999999998,-0.4,left,2.0661075999960303,,,,,408.92229480016977,410.48621470015496,-0.16,-0.24,0.0,0.4,-0.24,-0.16,0.039999999999999994,-0.16,-0.24,404.8483401001431,404.8483401001431,404.8483401001431,404.8483401001431,404.8483401001431,404.8483401001431,404.8483401001431,404.8483401001431,404.83557849004865,4.188583799637854,return,4.0479811993427575,,,,,,,,,,,,,,,,,,,,,,,,,,,,,,,,,AHD6DK,train_x,red_square,bottom_right,2025-05-02_13h28.12.291,HideSeek_v1,2022.2.5,60.33484625247836,
,5,0,4,0,-1,0,26,,train_dim1_1,6,30,,,,2,0,2,0,,,,,,,,,0,0,0,0,0,5,5,5,1,0,1,0,,,,,,,,,,,,,,,,,,,,,,,,,,,,,,,,,,,,,,,,,,,,,,,,,,,,,,,,,,,,,,,,30,,,,,,,,412.6432113000192,412.6432113000192,412.6432113000192,412.6432113000192,412.6432113000192,return,0.6430433997884393,2,0,0,1,0.15999999999999998,-0.4,return,0.5597548997029662,6,-9,0.15999999999999998,-0.4,,,,,,,,,,,,,,,,,,,,,,,,,,,,,,,,,,,,,,,,,,,,,,,,,,,,,,,,AHD6DK,train_x,red_square,bottom_right,2025-05-02_13h28.12.291,HideSeek_v1,2022.2.5,60.33484625247836,
,8,0,3,0,-5,0,66,,train_dim1_1,7,30,,,,2,0,2,0,,,,,,,,,0,0,0,0,0,6,6,6,0,0,0,0,,,,,,,,,,,,,,,,,,,,,,,,,stimuli/alien_stimuli/66.png,,,,,,,,,,,,,,,,,,,,,,,,,,,,,stimuli/alien_stimuli/26.png,26,5,8,,,,,,,30,,,,,,,,423.3102191002108,423.3102191002108,423.3102191002108,423.3102191002108,423.3102191002108,left,1.8387291999533772,2,0,0,99,0.39999999999999997,-0.4,left,1.7435742998495698,,,,,421.74967030016705,423.3102191002108,0.16,-0.4,0.0,0.08,-0.4,0.16,0.2,0.16,-0.4,414.85154710011557,414.85154710011557,414.85154710011557,414.85154710011557,414.85154710011557,414.85154710011557,414.85154710011557,414.85154710011557,414.8432846898213,7.009044100064784,return,6.86645479965955,,,,,,,,,,,,,,,,,,,,,,,,,,,,,,,,,AHD6DK,train_x,red_square,bottom_right,2025-05-02_13h28.12.291,HideSeek_v1,2022.2.5,60.33484625247836,
,8,0,3,0,-5,0,66,,train_dim1_1,7,30,,,,2,0,2,0,,,,,,,,,0,0,0,0,0,6,6,6,1,0,1,0,,,,,,,,,,,,,,,,,,,,,,,,,,,,,,,,,,,,,,,,,,,,,,,,,,,,,,,,,,,,,,,,30,,,,,,,,425.1490765004419,425.1490765004419,425.1490765004419,425.1490765004419,425.1490765004419,left,0.3929699002765119,2,0,0,99,0.31999999999999995,-0.4,left,0.3131782994605601,,,,,,,,,,,,,,,,,,,,,,,,,,,,,,,,,,,,,,,,,,,,,,,,,,,,,,,,,,,,AHD6DK,train_x,red_square,bottom_right,2025-05-02_13h28.12.291,HideSeek_v1,2022.2.5,60.33484625247836,
,8,0,3,0,-5,0,66,,train_dim1_1,7,30,,,,2,0,2,0,,,,,,,,,0,0,0,0,0,6,6,6,2,0,2,0,,,,,,,,,,,,,,,,,,,,,,,,,,,,,,,,,,,,,,,,,,,,,,,,,,,,,,,,,,,,,,,,30,,,,,,,,425.54953390033916,425.54953390033916,425.54953390033916,425.54953390033916,425.54953390033916,left,0.5435240999795496,2,0,0,99,0.23999999999999994,-0.4,left,0.45958209969103336,,,,,,,,,,,,,,,,,,,,,,,,,,,,,,,,,,,,,,,,,,,,,,,,,,,,,,,,,,,,AHD6DK,train_x,red_square,bottom_right,2025-05-02_13h28.12.291,HideSeek_v1,2022.2.5,60.33484625247836,
,8,0,3,0,-5,0,66,,train_dim1_1,7,30,,,,2,0,2,0,,,,,,,,,0,0,0,0,0,6,6,6,3,0,3,0,,,,,,,,,,,,,,,,,,,,,,,,,,,,,,,,,,,,,,,,,,,,,,,,,,,,,,,,,,,,,,,,30,,,,,,,,426.10159170022234,426.10159170022234,426.10159170022234,426.10159170022234,426.10159170022234,left,0.44368060026317835,2,0,0,99,0.15999999999999992,-0.4,left,0.36027569975703955,,,,,,,,,,,,,,,,,,,,,,,,,,,,,,,,,,,,,,,,,,,,,,,,,,,,,,,,,,,,AHD6DK,train_x,red_square,bottom_right,2025-05-02_13h28.12.291,HideSeek_v1,2022.2.5,60.33484625247836,
,8,0,3,0,-5,0,66,,train_dim1_1,7,30,,,,2,0,2,0,,,,,,,,,0,0,0,0,0,6,6,6,4,0,4,0,,,,,,,,,,,,,,,,,,,,,,,,,,,,,,,,,,,,,,,,,,,,,,,,,,,,,,,,,,,,,,,,30,,,,,,,,426.5498406002298,426.5498406002298,426.5498406002298,426.5498406002298,426.5498406002298,left,1.244270899798721,2,0,0,99,0.07999999999999992,-0.4,left,1.1592825995758176,,,,,,,,,,,,,,,,,,,,,,,,,,,,,,,,,,,,,,,,,,,,,,,,,,,,,,,,,,,,AHD6DK,train_x,red_square,bottom_right,2025-05-02_13h28.12.291,HideSeek_v1,2022.2.5,60.33484625247836,
,8,0,3,0,-5,0,66,,train_dim1_1,7,30,,,,2,0,2,0,,,,,,,,,0,0,0,0,0,6,6,6,5,0,5,0,,,,,,,,,,,,,,,,,,,,,,,,,,,,,,,,,,,,,,,,,,,,,,,,,,,,,,,,,,,,,,,,30,,,,,,,,427.8004848002456,427.8004848002456,427.8004848002456,427.8004848002456,427.8004848002456,return,2.5115708000957966,3,0,0,1,0.07999999999999992,-0.4,return,2.4243250996805727,6,-14,0.07999999999999992,-0.4,,,,,,,,,,,,,,,,,,,,,,,,,,,,,,,,,,,,,,,,,,,,,,,,,,,,,,,,AHD6DK,train_x,red_square,bottom_right,2025-05-02_13h28.12.291,HideSeek_v1,2022.2.5,60.33484625247836,
,5,4,2,4,-3,0,46,,train_dim1_1,8,30,,,,2,0,2,0,,,,,,,,,0,0,0,0,0,7,7,7,0,0,0,0,,,,,,,,,,,,,,,,,,,,,,,,,stimuli/alien_stimuli/46.png,,,,,,,,,,,,,,,,,,,,,,,,,,,,,stimuli/alien_stimuli/66.png,66,8,9,,,,,,,30,,,,,,,,437.88582680001855,437.88582680001855,437.88582680001855,437.88582680001855,437.88582680001855,left,1.6073818998411298,3,0,0,99,0.15999999999999998,-0.08,left,1.5258178994990885,,,,,436.3280469002202,437.88582680001855,0.08,-0.4,0.0,0.4,-0.4,0.08,0.27999999999999997,0.08,-0.4,431.88774380041286,431.88774380041286,431.88774380041286,431.88774380041286,431.88774380041286,431.88774380041286,431.88774380041286,431.88774380041286,431.8743225899525,4.556056699715555,return,4.419118299614638,,,,,,,,,,,,,,,,,,,,,,,,,,,,,,,,,AHD6DK,train_x,red_square,bottom_right,2025-05-02_13h28.12.291,HideSeek_v1,2022.2.5,60.33484625247836,
,5,4,2,4,-3,0,46,,train_dim1_1,8,30,,,,2,0,2,0,,,,,,,,,0,0,0,0,0,7,7,7,1,0,1,0,,,,,,,,,,,,,,,,,,,,,,,,,,,,,,,,,,,,,,,,,,,,,,,,,,,,,,,,,,,,,,,,30,,,,,,,,439.49457220034674,439.49457220034674,439.49457220034674,439.49457220034674,439.49457220034674,left,0.5094498000107706,3,0,0,99,0.07999999999999997,-0.08,left,0.4320046999491751,,,,,,,,,,,,,,,,,,,,,,,,,,,,,,,,,,,,,,,,,,,,,,,,,,,,,,,,,,,,AHD6DK,train_x,red_square,bottom_right,2025-05-02_13h28.12.291,HideSeek_v1,2022.2.5,60.33484625247836,
,5,4,2,4,-3,0,46,,train_dim1_1,8,30,,,,2,0,2,0,,,,,,,,,0,0,0,0,0,7,7,7,2,0,2,0,,,,,,,,,,,,,,,,,,,,,,,,,,,,,,,,,,,,,,,,,,,,,,,,,,,,,,,,,,,,,,,,30,,,,,,,,440.01111200032756,440.01111200032756,440.01111200032756,440.01111200032756,440.01111200032756,left,1.2943659997545183,3,0,0,99,-2.7755575615628914e-17,-0.08,left,1.22079119971022,,,,,,,,,,,,,,,,,,,,,,,,,,,,,,,,,,,,,,,,,,,,,,,,,,,,,,,,,,,,AHD6DK,train_x,red_square,bottom_right,2025-05-02_13h28.12.291,HideSeek_v1,2022.2.5,60.33484625247836,
,5,4,2,4,-3,0,46,,train_dim1_1,8,30,,,,2,0,2,0,,,,,,,,,0,0,0,0,0,7,7,7,3,0,3,0,,,,,,,,,,,,,,,,,,,,,,,,,,,,,,,,,,,,,,,,,,,,,,,,,,,,,,,,,,,,,,,,30,,,,,,,,441.31247430015355,441.31247430015355,441.31247430015355,441.31247430015355,441.31247430015355,return,2.8623705003410578,4,0,0,1,-2.7755575615628914e-17,-0.08,return,2.7859048997052014,6,-17,-2.7755575615628914e-17,-0.08,,,,,,,,,,,,,,,,,,,,,,,,,,,,,,,,,,,,,,,,,,,,,,,,,,,,,,,,AHD6DK,train_x,red_square,bottom_right,2025-05-02_13h28.12.291,HideSeek_v1,2022.2.5,60.33484625247836,
,6,0,2,0,-4,0,56,,train_dim1_1,9,30,,,,2,0,2,0,,,,,,,,,0,0,0,0,0,8,8,8,0,0,0,0,,,,,,,,,,,,,,,,,,,,,,,,,stimuli/alien_stimuli/56.png,,,,,,,,,,,,,,,,,,,,,,,,,,,,,stimuli/alien_stimuli/46.png,46,5,10,,,,,,,30,,,,,,,,450.9491353002377,450.9491353002377,450.9491353002377,450.9491353002377,450.9491353002377,left,1.5744533999823034,4,0,0,99,0.24,-0.4,left,1.4894059994257987,,,,,449.38902940042317,450.9491353002377,0,-0.08,0.0,0.24,-0.08,0,0.12,0,-0.08,445.766375800129,445.766375800129,445.766375800129,445.766375800129,445.766375800129,445.766375800129,445.766375800129,445.766375800129,445.75238295970485,3.7554596001282334,return,3.596761599648744,,,,,,,,,,,,,,,,,,,,,,,,,,,,,,,,,AHD6DK,train_x,red_square,bottom_right,2025-05-02_13h28.12.291,HideSeek_v1,2022.2.5,60.33484625247836,
,6,0,2,0,-4,0,56,,train_dim1_1,9,30,,,,2,0,2,0,,,,,,,,,0,0,0,0,0,8,8,8,1,0,1,0,,,,,,,,,,,,,,,,,,,,,,,,,,,,,,,,,,,,,,,,,,,,,,,,,,,,,,,,,,,,,,,,30,,,,,,,,452.52439320040867,452.52439320040867,452.52439320040867,452.52439320040867,452.52439320040867,left,0.3929037000052631,4,0,0,99,0.15999999999999998,-0.4,left,0.3059662994928658,,,,,,,,,,,,,,,,,,,,,,,,,,,,,,,,,,,,,,,,,,,,,,,,,,,,,,,,,,,,AHD6DK,train_x,red_square,bottom_right,2025-05-02_13h28.12.291,HideSeek_v1,2022.2.5,60.33484625247836,
,6,0,2,0,-4,0,56,,train_dim1_1,9,30,,,,2,0,2,0,,,,,,,,,0,0,0,0,0,8,8,8,2,0,2,0,,,,,,,,,,,,,,,,,,,,,,,,,,,,,,,,,,,,,,,,,,,,,,,,,,,,,,,,,,,,,,,,30,,,,,,,,452.92435560002923,452.92435560002923,452.92435560002923,452.92435560002923,452.92435560002923,left,0.44338770024478436,4,0,0,99,0.07999999999999997,-0.4,left,0.35790499998256564,,,,,,,,,,,,,,,,,,,,,,,,,,,,,,,,,,,,,,,,,,,,,,,,,,,,,,,,,,,,AHD6DK,train_x,red_square,bottom_right,2025-05-02_13h28.12.291,HideSeek_v1,2022.2.5,60.33484625247836,
,6,0,2,0,-4,0,56,,train_dim1_1,9,30,,,,2,0,2,0,,,,,,,,,0,0,0,0,0,8,8,8,3,0,3,0,,,,,,,,,,,,,,,,,,,,,,,,,,,,,,,,,,,,,,,,,,,,,,,,,,,,,,,,,,,,,,,,30,,,,,,,,453.37391560012475,453.37391560012475,453.37391560012475,453.37391560012475,453.37391560012475,left,0.3769280998967588,4,0,0,99,-2.7755575615628914e-17,-0.4,left,0.2927032997831702,,,,,,,,,,,,,,,,,,,,,,,,,,,,,,,,,,,,,,,,,,,,,,,,,,,,,,,,,,,,AHD6DK,train_x,red_square,bottom_right,2025-05-02_13h28.12.291,HideSeek_v1,2022.2.5,60.33484625247836,
,6,0,2,0,-4,0,56,,train_dim1_1,9,30,,,,2,0,2,0,,,,,,,,,0,0,0,0,0,8,8,8,4,0,4,0,,,,,,,,,,,,,,,,,,,,,,,,,,,,,,,,,,,,,,,,,,,,,,,,,,,,,,,,,,,,,,,,30,,,,,,,,453.75743000023067,453.75743000023067,453.75743000023067,453.75743000023067,453.75743000023067,return,1.6943331002257764,5,0,0,1,-2.7755575615628914e-17,-0.4,return,1.6147855995222926,6,-21,-2.7755575615628914e-17,-0.4,,,,,,,,,,,,,,,,,,,,,,,,,,,,,,,,,,,,,,,,,,,,,,,,,,,,,,,,AHD6DK,train_x,red_square,bottom_right,2025-05-02_13h28.12.291,HideSeek_v1,2022.2.5,60.33484625247836,
,5,3,5,3,0,0,16,,train_dim1_1,10,30,,,,2,0,2,0,,,,,,,,,0,0,0,0,0,9,9,9,0,0,0,0,,,,,,,,,,,,,,,,,,,,,,,,,stimuli/alien_stimuli/16.png,,,,,,,,,,,,,,,,,,,,,,,,,,,,,stimuli/alien_stimuli/56.png,56,6,11,,,,,,,30,,,,,,,,459.1754695000127,459.1754695000127,459.1754695000127,459.1754695000127,459.1754695000127,left,2.3405613000504673,5,0,0,99,0.15999999999999998,-0.16,left,2.2264650999568403,,,,,457.5959437000565,459.1754695000127,0,-0.4,0.0,0.32,-0.4,0,0.16,0,-0.4,457.0303461002186,457.0303461002186,457.0303461002186,457.0303461002186,457.0303461002186,457.0303461002186,457.0303461002186,457.0303461002186,457.0116363898851,0.6860181000083685,return,0.5355489999055862,,,,,,,,,,,,,,,,,,,,,,,,,,,,,,,,,AHD6DK,train_x,red_square,bottom_right,2025-05-02_13h28.12.291,HideSeek_v1,2022.2.5,60.33484625247836,
,5,3,5,3,0,0,16,,train_dim1_1,10,30,,,,2,0,2,0,,,,,,,,,0,0,0,0,0,9,9,9,1,0,1,0,,,,,,,,,,,,,,,,,,,,,,,,,,,,,,,,,,,,,,,,,,,,,,,,,,,,,,,,,,,,,,,,30,,,,,,,,461.50132540008053,461.50132540008053,461.50132540008053,461.50132540008053,461.50132540008053,right,0.7601000997237861,5,0,0,99,0.24,-0.16,right,0.6791649996303022,,,,,,,,,,,,,,,,,,,,,,,,,,,,,,,,,,,,,,,,,,,,,,,,,,,,,,,,,,,,AHD6DK,train_x,red_square,bottom_right,2025-05-02_13h28.12.291,HideSeek_v1,2022.2.5,60.33484625247836,
,5,3,5,3,0,0,16,,train_dim1_1,10,30,,,,2,0,2,0,,,,,,,,,0,0,0,0,0,9,9,9,2,0,2,0,,,,,,,,,,,,,,,,,,,,,,,,,,,,,,,,,,,,,,,,,,,,,,,,,,,,,,,,,,,,,,,,30,,,,,,,,462.2669846001081,462.2669846001081,462.2669846001081,462.2669846001081,462.2669846001081,return,0.4263352998532355,6,0,0,1,0.24,-0.16,return,0.3459873995743692,6,-21,0.24,-0.16,,,,,,,,,,,,,,,,,,,,,,,,,,,,,,,,,,,,,,,,,,,,,,,,,,,,,,,,AHD6DK,train_x,red_square,bottom_right,2025-05-02_13h28.12.291,HideSeek_v1,2022.2.5,60.33484625247836,
,7,2,4,2,-3,0,46,,train_dim1_1,11,30,,,,2,0,2,0,,,,,,,,,0,0,0,0,0,10,10,10,0,0,0,0,,,,,,,,,,,,,,,,,,,,,,,,,stimuli/alien_stimuli/46.png,,,,,,,,,,,,,,,,,,,,,,,,,,,,,stimuli/alien_stimuli/16.png,16,5,12,,,,,,,30,,,,,,,,467.79663200024515,467.79663200024515,467.79663200024515,467.79663200024515,467.79663200024515,left,1.0895764003507793,6,0,0,99,0.32,-0.24,left,0.9785105995833874,,,,,466.2196204001084,467.79663200024515,0.24,-0.16,0.0,0.0,-0.16,0.24,0.24,0.24,-0.16,464.26038470026106,464.26038470026106,464.26038470026106,464.26038470026106,464.26038470026106,464.26038470026106,464.26038470026106,464.26038470026106,464.2512940899469,2.070545899681747,return,1.9386919997632504,,,,,,,,,,,,,,,,,,,,,,,,,,,,,,,,,AHD6DK,train_x,red_square,bottom_right,2025-05-02_13h28.12.291,HideSeek_v1,2022.2.5,60.33484625247836,
,7,2,4,2,-3,0,46,,train_dim1_1,11,30,,,,2,0,2,0,,,,,,,,,0,0,0,0,0,10,10,10,1,0,1,0,,,,,,,,,,,,,,,,,,,,,,,,,,,,,,,,,,,,,,,,,,,,,,,,,,,,,,,,,,,,,,,,30,,,,,,,,468.8702783002518,468.8702783002518,468.8702783002518,468.8702783002518,468.8702783002518,left,1.0754903997294605,6,0,0,99,0.24,-0.24,left,0.9913459997624159,,,,,,,,,,,,,,,,,,,,,,,,,,,,,,,,,,,,,,,,,,,,,,,,,,,,,,,,,,,,AHD6DK,train_x,red_square,bottom_right,2025-05-02_13h28.12.291,HideSeek_v1,2022.2.5,60.33484625247836,
,7,2,4,2,-3,0,46,,train_dim1_1,11,30,,,,2,0,2,0,,,,,,,,,0,0,0,0,0,10,10,10,2,0,2,0,,,,,,,,,,,,,,,,,,,,,,,,,,,,,,,,,,,,,,,,,,,,,,,,,,,,,,,,,,,,,,,,30,,,,,,,,469.95340620027855,469.95340620027855,469.95340620027855,469.95340620027855,469.95340620027855,return,2.261667300015688,6,1,0,0,0.24,-0.24,return,2.1810327996499836,6,-23,0.24,-0.24,,,,,,,,,,,,,,,,,,,,,,,,,,,,,,,,,,,,,,,,,,,,,,,,,,,,,,,,AHD6DK,train_x,red_square,bottom_right,2025-05-02_13h28.12.291,HideSeek_v1,2022.2.5,60.33484625247836,
,5,0,4,0,-1,0,26,,train_dim1_1,12,30,,,,2,0,2,0,,,,,,,,,0,0,0,0,0,11,11,11,0,0,0,0,,,,,,,,,,,,,,,,,,,,,,,,,stimuli/alien_stimuli/26.png,,,,,,,,,,,,,,,,,,,,,,,,,,,,,stimuli/alien_stimuli/46.png,46,7,13,,,,,,,30,,,,,,,,478.97691570036113,478.97691570036113,478.97691570036113,478.97691570036113,478.97691570036113,left,1.8887193999253213,6,1,0,99,0.15999999999999998,-0.4,left,1.7916571996174753,,,,,477.4124106001109,478.97691570036113,0.16,-0.24,0.0,0.24,-0.24,0.16,0.28,0.16,-0.24,473.7774899001233,473.7774899001233,473.7774899001233,473.7774899001233,473.7774899001233,473.7774899001233,473.7774899001233,473.7774899001233,473.75903262011707,3.738464899826795,return,3.611672000028193,,,,,,,,,,,,,,,,,,,,,,,,,,,,,,,,,AHD6DK,train_x,red_square,bottom_right,2025-05-02_13h28.12.291,HideSeek_v1,2022.2.5,60.33484625247836,
,5,0,4,0,-1,0,26,,train_dim1_1,12,30,,,,2,0,2,0,,,,,,,,,0,0,0,0,0,11,11,11,1,0,1,0,,,,,,,,,,,,,,,,,,,,,,,,,,,,,,,,,,,,,,,,,,,,,,,,,,,,,,,,,,,,,,,,30,,,,,,,,480.86636160034686,480.86636160034686,480.86636160034686,480.86636160034686,480.86636160034686,return,0.6934047997929156,7,0,0,1,0.15999999999999998,-0.4,return,0.6116782994940877,6,-24,0.15999999999999998,-0.4,,,,,,,,,,,,,,,,,,,,,,,,,,,,,,,,,,,,,,,,,,,,,,,,,,,,,,,,AHD6DK,train_x,red_square,bottom_right,2025-05-02_13h28.12.291,HideSeek_v1,2022.2.5,60.33484625247836,
,5,4,1,4,-4,0,56,,train_dim1_1,13,30,,,,2,0,2,0,,,,,,,,,0,0,0,0,0,12,12,12,0,0,0,0,,,,,,,,,,,,,,,,,,,,,,,,,stimuli/alien_stimuli/56.png,,,,,,,,,,,,,,,,,,,,,,,,,,,,,stimuli/alien_stimuli/26.png,26,5,14,,,,,,,30,,,,,,,,487.6981403999962,487.6981403999962,487.6981403999962,487.6981403999962,487.6981403999962,left,0.9214086998254061,7,0,0,99,0.15999999999999998,-0.08,left,0.8373871995136142,,,,,486.1360487001948,487.6981403999962,0.16,-0.4,0.0,0.08,-0.4,0.16,0.2,0.16,-0.4,483.15126499999315,483.15126499999315,483.15126499999315,483.15126499999315,483.15126499999315,483.15126499999315,483.15126499999315,483.15126499999315,483.133381459862,3.121243900153786,return,2.954995899926871,,,,,,,,,,,,,,,,,,,,,,,,,,,,,,,,,AHD6DK,train_x,red_square,bottom_right,2025-05-02_13h28.12.291,HideSeek_v1,2022.2.5,60.33484625247836,
,5,4,1,4,-4,0,56,,train_dim1_1,13,30,,,,2,0,2,0,,,,,,,,,0,0,0,0,0,12,12,12,1,0,1,0,,,,,,,,,,,,,,,,,,,,,,,,,,,,,,,,,,,,,,,,,,,,,,,,,,,,,,,,,,,,,,,,30,,,,,,,,488.62091410020366,488.62091410020366,488.62091410020366,488.62091410020366,488.62091410020366,left,0.4601700999774039,7,0,0,99,0.07999999999999997,-0.08,left,0.37152279959991574,,,,,,,,,,,,,,,,,,,,,,,,,,,,,,,,,,,,,,,,,,,,,,,,,,,,,,,,,,,,AHD6DK,train_x,red_square,bottom_right,2025-05-02_13h28.12.291,HideSeek_v1,2022.2.5,60.33484625247836,
,5,4,1,4,-4,0,56,,train_dim1_1,13,30,,,,2,0,2,0,,,,,,,,,0,0,0,0,0,12,12,12,2,0,2,0,,,,,,,,,,,,,,,,,,,,,,,,,,,,,,,,,,,,,,,,,,,,,,,,,,,,,,,,,,,,,,,,30,,,,,,,,489.08707300014794,489.08707300014794,489.08707300014794,489.08707300014794,489.08707300014794,left,0.45997049985453486,7,0,0,99,-2.7755575615628914e-17,-0.08,left,0.3780176998116076,,,,,,,,,,,,,,,,,,,,,,,,,,,,,,,,,,,,,,,,,,,,,,,,,,,,,,,,,,,,AHD6DK,train_x,red_square,bottom_right,2025-05-02_13h28.12.291,HideSeek_v1,2022.2.5,60.33484625247836,
,5,4,1,4,-4,0,56,,train_dim1_1,13,30,,,,2,0,2,0,,,,,,,,,0,0,0,0,0,12,12,12,3,0,3,0,,,,,,,,,,,,,,,,,,,,,,,,,,,,,,,,,,,,,,,,,,,,,,,,,,,,,,,,,,,,,,,,30,,,,,,,,489.55452900007367,489.55452900007367,489.55452900007367,489.55452900007367,489.55452900007367,left,0.4102675998583436,7,0,0,99,-0.08000000000000003,-0.08,left,0.32500019995495677,,,,,,,,,,,,,,,,,,,,,,,,,,,,,,,,,,,,,,,,,,,,,,,,,,,,,,,,,,,,AHD6DK,train_x,red_square,bottom_right,2025-05-02_13h28.12.291,HideSeek_v1,2022.2.5,60.33484625247836,
,5,4,1,4,-4,0,56,,train_dim1_1,13,30,,,,2,0,2,0,,,,,,,,,0,0,0,0,0,12,12,12,4,0,4,0,,,,,,,,,,,,,,,,,,,,,,,,,,,,,,,,,,,,,,,,,,,,,,,,,,,,,,,,,,,,,,,,30,,,,,,,,489.9722770000808,489.9722770000808,489.9722770000808,489.9722770000808,489.9722770000808,return,1.9114145999774337,8,0,0,1,-0.08000000000000003,-0.08,return,1.8311885995790362,6,-28,-0.08000000000000003,-0.08,,,,,,,,,,,,,,,,,,,,,,,,,,,,,,,,,,,,,,,,,,,,,,,,,,,,,,,,AHD6DK,train_x,red_square,bottom_right,2025-05-02_13h28.12.291,HideSeek_v1,2022.2.5,60.33484625247836,
,9,3,9,3,0,0,16,,train_dim1_1,14,30,,,,2,0,2,0,,,,,,,,,0,0,0,0,0,13,13,13,0,0,0,0,,,,,,,,,,,,,,,,,,,,,,,,,stimuli/alien_stimuli/16.png,,,,,,,,,,,,,,,,,,,,,,,,,,,,,stimuli/alien_stimuli/56.png,56,5,15,,,,,,,30,,,,,,,,495.9243528000079,495.9243528000079,495.9243528000079,495.9243528000079,495.9243528000079,return,1.17583329975605,9,0,0,1,0.56,-0.16,return,1.066038599703461,6,-28,0.56,-0.16,494.3264312003739,495.9243528000079,-0.08,-0.08,0.0,0.32,-0.08,-0.08,0.07999999999999999,-0.08,-0.08,493.4520570002496,493.4520570002496,493.4520570002496,493.4520570002496,493.4520570002496,493.4520570002496,493.4520570002496,493.4520570002496,493.44185278983787,0.986512599978596,return,0.8447602996602654,,,,,,,,,,,,,,,,,,,,,,,,,,,,,,,,,AHD6DK,train_x,red_square,bottom_right,2025-05-02_13h28.12.291,HideSeek_v1,2022.2.5,60.33484625247836,
,9,2,4,2,-5,0,66,,train_dim1_1,15,30,,,,2,0,2,0,,,,,,,,,0,0,0,0,0,14,14,14,0,0,0,0,,,,,,,,,,,,,,,,,,,,,,,,,stimuli/alien_stimuli/66.png,,,,,,,,,,,,,,,,,,,,,,,,,,,,,stimuli/alien_stimuli/16.png,16,9,16,,,,,,,30,,,,,,,,501.12766580004245,501.12766580004245,501.12766580004245,501.12766580004245,501.12766580004245,left,0.8871403001248837,9,0,0,99,0.48000000000000004,-0.24,left,0.800469399895519,,,,,499.56394530041143,501.12766580004245,0.56,-0.16,0.0,0.0,-0.16,0.56,0.56,0.56,-0.16,498.6376741002314,498.6376741002314,498.6376741002314,498.6376741002314,498.6376741002314,498.6376741002314,498.6376741002314,498.6376741002314,498.6299087898806,1.0362416999414563,return,0.909306799992919,,,,,,,,,,,,,,,,,,,,,,,,,,,,,,,,,AHD6DK,train_x,red_square,bottom_right,2025-05-02_13h28.12.291,HideSeek_v1,2022.2.5,60.33484625247836,
,9,2,4,2,-5,0,66,,train_dim1_1,15,30,,,,2,0,2,0,,,,,,,,,0,0,0,0,0,14,14,14,1,0,1,0,,,,,,,,,,,,,,,,,,,,,,,,,,,,,,,,,,,,,,,,,,,,,,,,,,,,,,,,,,,,,,,,30,,,,,,,,502.01303410017863,502.01303410017863,502.01303410017863,502.01303410017863,502.01303410017863,left,0.4265079000033438,9,0,0,99,0.4,-0.24,left,0.35068689938634634,,,,,,,,,,,,,,,,,,,,,,,,,,,,,,,,,,,,,,,,,,,,,,,,,,,,,,,,,,,,AHD6DK,train_x,red_square,bottom_right,2025-05-02_13h28.12.291,HideSeek_v1,2022.2.5,60.33484625247836,
,9,2,4,2,-5,0,66,,train_dim1_1,15,30,,,,2,0,2,0,,,,,,,,,0,0,0,0,0,14,14,14,2,0,2,0,,,,,,,,,,,,,,,,,,,,,,,,,,,,,,,,,,,,,,,,,,,,,,,,,,,,,,,,,,,,,,,,30,,,,,,,,502.4464319003746,502.4464319003746,502.4464319003746,502.4464319003746,502.4464319003746,left,0.46014649979770184,9,0,0,99,0.32,-0.24,left,0.3796036997810006,,,,,,,,,,,,,,,,,,,,,,,,,,,,,,,,,,,,,,,,,,,,,,,,,,,,,,,,,,,,AHD6DK,train_x,red_square,bottom_right,2025-05-02_13h28.12.291,HideSeek_v1,2022.2.5,60.33484625247836,
,9,2,4,2,-5,0,66,,train_dim1_1,15,30,,,,2,0,2,0,,,,,,,,,0,0,0,0,0,14,14,14,3,0,3,0,,,,,,,,,,,,,,,,,,,,,,,,,,,,,,,,,,,,,,,,,,,,,,,,,,,,,,,,,,,,,,,,30,,,,,,,,502.9140306003392,502.9140306003392,502.9140306003392,502.9140306003392,502.9140306003392,left,0.4435434998013079,9,0,0,99,0.24,-0.24,left,0.3674288000911474,,,,,,,,,,,,,,,,,,,,,,,,,,,,,,,,,,,,,,,,,,,,,,,,,,,,,,,,,,,,AHD6DK,train_x,red_square,bottom_right,2025-05-02_13h28.12.291,HideSeek_v1,2022.2.5,60.33484625247836,
,9,2,4,2,-5,0,66,,train_dim1_1,15,30,,,,2,0,2,0,,,,,,,,,0,0,0,0,0,14,14,14,4,0,4,0,,,,,,,,,,,,,,,,,,,,,,,,,,,,,,,,,,,,,,,,,,,,,,,,,,,,,,,,,,,,,,,,30,,,,,,,,503.36382680013776,503.36382680013776,503.36382680013776,503.36382680013776,503.36382680013776,left,0.3934117997996509,9,0,0,99,0.15999999999999998,-0.24,left,0.3209336996078491,,,,,,,,,,,,,,,,,,,,,,,,,,,,,,,,,,,,,,,,,,,,,,,,,,,,,,,,,,,,AHD6DK,train_x,red_square,bottom_right,2025-05-02_13h28.12.291,HideSeek_v1,2022.2.5,60.33484625247836,
,9,2,4,2,-5,0,66,,train_dim1_1,15,30,,,,2,0,2,0,,,,,,,,,0,0,0,0,0,14,14,14,5,0,5,0,,,,,,,,,,,,,,,,,,,,,,,,,,,,,,,,,,,,,,,,,,,,,,,,,,,,,,,,,,,,,,,,30,,,,,,,,503.76529090013355,503.76529090013355,503.76529090013355,503.76529090013355,503.76529090013355,return,2.2784207998774946,10,0,0,1,0.15999999999999998,-0.24,return,2.20058019971475,6,-33,0.15999999999999998,-0.24,,,,,,,,,,,,,,,,,,,,,,,,,,,,,,,,,,,,,,,,,,,,,,,,,,,,,,,,AHD6DK,train_x,red_square,bottom_right,2025-05-02_13h28.12.291,HideSeek_v1,2022.2.5,60.33484625247836,
,8,3,4,3,-4,0,56,,train_dim1_1,16,30,,,,2,0,2,0,,,,,,,,,0,0,0,0,0,15,15,15,0,0,0,0,,,,,,,,,,,,,,,,,,,,,,,,,stimuli/alien_stimuli/56.png,,,,,,,,,,,,,,,,,,,,,,,,,,,,,stimuli/alien_stimuli/66.png,66,9,17,,,,,,,30,,,,,,,,510.0286832000129,510.0286832000129,510.0286832000129,510.0286832000129,510.0286832000129,left,0.9072645995765924,10,0,0,99,0.39999999999999997,-0.16,left,0.8063203999772668,,,,,508.4547256003134,510.0286832000129,0.16,-0.24,0.0,0.4,-0.24,0.16,0.36000000000000004,0.16,-0.24,507.60649410029873,507.60649410029873,507.60649410029873,507.60649410029873,507.60649410029873,507.60649410029873,507.60649410029873,507.60649410029873,507.58715941989794,0.9528593998402357,return,0.8201050995849073,,,,,,,,,,,,,,,,,,,,,,,,,,,,,,,,,AHD6DK,train_x,red_square,bottom_right,2025-05-02_13h28.12.291,HideSeek_v1,2022.2.5,60.33484625247836,
,8,3,4,3,-4,0,56,,train_dim1_1,16,30,,,,2,0,2,0,,,,,,,,,0,0,0,0,0,15,15,15,1,0,1,0,,,,,,,,,,,,,,,,,,,,,,,,,,,,,,,,,,,,,,,,,,,,,,,,,,,,,,,,,,,,,,,,30,,,,,,,,510.93077000044286,510.93077000044286,510.93077000044286,510.93077000044286,510.93077000044286,left,0.3595988997258246,10,0,0,99,0.31999999999999995,-0.16,left,0.2751796995289624,,,,,,,,,,,,,,,,,,,,,,,,,,,,,,,,,,,,,,,,,,,,,,,,,,,,,,,,,,,,AHD6DK,train_x,red_square,bottom_right,2025-05-02_13h28.12.291,HideSeek_v1,2022.2.5,60.33484625247836,
,8,3,4,3,-4,0,56,,train_dim1_1,16,30,,,,2,0,2,0,,,,,,,,,0,0,0,0,0,15,15,15,2,0,2,0,,,,,,,,,,,,,,,,,,,,,,,,,,,,,,,,,,,,,,,,,,,,,,,,,,,,,,,,,,,,,,,,30,,,,,,,,511.28972550015897,511.28972550015897,511.28972550015897,511.28972550015897,511.28972550015897,left,0.393282700330019,10,0,0,99,0.23999999999999994,-0.16,left,0.3132082996889949,,,,,,,,,,,,,,,,,,,,,,,,,,,,,,,,,,,,,,,,,,,,,,,,,,,,,,,,,,,,AHD6DK,train_x,red_square,bottom_right,2025-05-02_13h28.12.291,HideSeek_v1,2022.2.5,60.33484625247836,
,8,3,4,3,-4,0,56,,train_dim1_1,16,30,,,,2,0,2,0,,,,,,,,,0,0,0,0,0,15,15,15,3,0,3,0,,,,,,,,,,,,,,,,,,,,,,,,,,,,,,,,,,,,,,,,,,,,,,,,,,,,,,,,,,,,,,,,30,,,,,,,,511.6904444000684,511.6904444000684,511.6904444000684,511.6904444000684,511.6904444000684,left,0.393499500118196,10,0,0,99,0.15999999999999992,-0.16,left,0.3069661995396018,,,,,,,,,,,,,,,,,,,,,,,,,,,,,,,,,,,,,,,,,,,,,,,,,,,,,,,,,,,,AHD6DK,train_x,red_square,bottom_right,2025-05-02_13h28.12.291,HideSeek_v1,2022.2.5,60.33484625247836,
,8,3,4,3,-4,0,56,,train_dim1_1,16,30,,,,2,0,2,0,,,,,,,,,0,0,0,0,0,15,15,15,4,0,4,0,,,,,,,,,,,,,,,,,,,,,,,,,,,,,,,,,,,,,,,,,,,,,,,,,,,,,,,,,,,,,,,,30,,,,,,,,512.0904047000222,512.0904047000222,512.0904047000222,512.0904047000222,512.0904047000222,return,1.427482500206679,11,0,0,1,0.15999999999999992,-0.16,return,1.336111099459231,6,-37,0.15999999999999992,-0.16,,,,,,,,,,,,,,,,,,,,,,,,,,,,,,,,,,,,,,,,,,,,,,,,,,,,,,,,AHD6DK,train_x,red_square,bottom_right,2025-05-02_13h28.12.291,HideSeek_v1,2022.2.5,60.33484625247836,
,7,4,6,4,-1,0,26,,train_dim1_1,17,30,,,,2,0,2,0,,,,,,,,,0,0,0,0,0,16,16,16,0,0,0,0,,,,,,,,,,,,,,,,,,,,,,,,,stimuli/alien_stimuli/26.png,,,,,,,,,,,,,,,,,,,,,,,,,,,,,stimuli/alien_stimuli/56.png,56,8,18,,,,,,,30,,,,,,,,517.591642100364,517.591642100364,517.591642100364,517.591642100364,517.591642100364,left,1.154928700067103,11,0,0,99,0.32,-0.08,left,1.0620948998257518,,,,,516.02774590021,517.591642100364,0.16,-0.16,0.0,0.32,-0.16,0.16,0.32,0.16,-0.16,515.0852147000842,515.0852147000842,515.0852147000842,515.0852147000842,515.0852147000842,515.0852147000842,515.0852147000842,515.0852147000842,515.07666228991,1.0538225998170674,return,0.9268769999034703,,,,,,,,,,,,,,,,,,,,,,,,,,,,,,,,,AHD6DK,train_x,red_square,bottom_right,2025-05-02_13h28.12.291,HideSeek_v1,2022.2.5,60.33484625247836,
,7,4,6,4,-1,0,26,,train_dim1_1,17,30,,,,2,0,2,0,,,,,,,,,0,0,0,0,0,16,16,16,1,0,1,0,,,,,,,,,,,,,,,,,,,,,,,,,,,,,,,,,,,,,,,,,,,,,,,,,,,,,,,,,,,,,,,,30,,,,,,,,518.74738480011,518.74738480011,518.74738480011,518.74738480011,518.74738480011,return,1.0435834000818431,12,0,0,1,0.32,-0.08,return,0.9561374997720122,6,-38,0.32,-0.08,,,,,,,,,,,,,,,,,,,,,,,,,,,,,,,,,,,,,,,,,,,,,,,,,,,,,,,,AHD6DK,train_x,red_square,bottom_right,2025-05-02_13h28.12.291,HideSeek_v1,2022.2.5,60.33484625247836,
,7,1,2,1,-5,0,66,,train_dim1_1,18,30,,,,2,0,2,0,,,,,,,,,0,0,0,0,0,17,17,17,0,0,0,0,,,,,,,,,,,,,,,,,,,,,,,,,stimuli/alien_stimuli/66.png,,,,,,,,,,,,,,,,,,,,,,,,,,,,,stimuli/alien_stimuli/26.png,26,7,19,,,,,,,30,,,,,,,,523.7911437000148,523.7911437000148,523.7911437000148,523.7911437000148,523.7911437000148,left,0.9392096004448831,12,0,0,99,0.32,-0.32,left,0.8600291996262968,,,,,522.232907100115,523.7911437000148,0.32,-0.08,0.0,0.08,-0.08,0.32,0.36,0.32,-0.08,521.3606707002036,521.3606707002036,521.3606707002036,521.3606707002036,521.3606707002036,521.3606707002036,521.3606707002036,521.3606707002036,521.3486229898408,0.9866726999171078,return,0.8528123996220529,,,,,,,,,,,,,,,,,,,,,,,,,,,,,,,,,AHD6DK,train_x,red_square,bottom_right,2025-05-02_13h28.12.291,HideSeek_v1,2022.2.5,60.33484625247836,
,7,1,2,1,-5,0,66,,train_dim1_1,18,30,,,,2,0,2,0,,,,,,,,,0,0,0,0,0,17,17,17,1,0,1,0,,,,,,,,,,,,,,,,,,,,,,,,,,,,,,,,,,,,,,,,,,,,,,,,,,,,,,,,,,,,,,,,30,,,,,,,,524.731828500051,524.731828500051,524.731828500051,524.731828500051,524.731828500051,left,0.39313860004767776,12,0,0,99,0.24,-0.32,left,0.30474619986489415,,,,,,,,,,,,,,,,,,,,,,,,,,,,,,,,,,,,,,,,,,,,,,,,,,,,,,,,,,,,AHD6DK,train_x,red_square,bottom_right,2025-05-02_13h28.12.291,HideSeek_v1,2022.2.5,60.33484625247836,
,7,1,2,1,-5,0,66,,train_dim1_1,18,30,,,,2,0,2,0,,,,,,,,,0,0,0,0,0,17,17,17,2,0,2,0,,,,,,,,,,,,,,,,,,,,,,,,,,,,,,,,,,,,,,,,,,,,,,,,,,,,,,,,,,,,,,,,30,,,,,,,,525.1327181002125,525.1327181002125,525.1327181002125,525.1327181002125,525.1327181002125,left,0.37692940002307296,12,0,0,99,0.15999999999999998,-0.32,left,0.3006624993868172,,,,,,,,,,,,,,,,,,,,,,,,,,,,,,,,,,,,,,,,,,,,,,,,,,,,,,,,,,,,AHD6DK,train_x,red_square,bottom_right,2025-05-02_13h28.12.291,HideSeek_v1,2022.2.5,60.33484625247836,
,7,1,2,1,-5,0,66,,train_dim1_1,18,30,,,,2,0,2,0,,,,,,,,,0,0,0,0,0,17,17,17,3,0,3,0,,,,,,,,,,,,,,,,,,,,,,,,,,,,,,,,,,,,,,,,,,,,,,,,,,,,,,,,,,,,,,,,30,,,,,,,,525.5153842000291,525.5153842000291,525.5153842000291,525.5153842000291,525.5153842000291,left,0.39331409987062216,12,0,0,99,0.07999999999999997,-0.32,left,0.3065843996591866,,,,,,,,,,,,,,,,,,,,,,,,,,,,,,,,,,,,,,,,,,,,,,,,,,,,,,,,,,,,AHD6DK,train_x,red_square,bottom_right,2025-05-02_13h28.12.291,HideSeek_v1,2022.2.5,60.33484625247836,
,7,1,2,1,-5,0,66,,train_dim1_1,18,30,,,,2,0,2,0,,,,,,,,,0,0,0,0,0,17,17,17,4,0,4,0,,,,,,,,,,,,,,,,,,,,,,,,,,,,,,,,,,,,,,,,,,,,,,,,,,,,,,,,,,,,,,,,30,,,,,,,,525.916435400024,525.916435400024,525.916435400024,525.916435400024,525.916435400024,left,0.5602528001181781,12,0,0,99,-2.7755575615628914e-17,-0.32,left,0.4855975997634232,,,,,,,,,,,,,,,,,,,,,,,,,,,,,,,,,,,,,,,,,,,,,,,,,,,,,,,,,,,,AHD6DK,train_x,red_square,bottom_right,2025-05-02_13h28.12.291,HideSeek_v1,2022.2.5,60.33484625247836,
,7,1,2,1,-5,0,66,,train_dim1_1,18,30,,,,2,0,2,0,,,,,,,,,0,0,0,0,0,17,17,17,5,0,5,0,,,,,,,,,,,,,,,,,,,,,,,,,,,,,,,,,,,,,,,,,,,,,,,,,,,,,,,,,,,,,,,,30,,,,,,,,526.4836955000646,526.4836955000646,526.4836955000646,526.4836955000646,526.4836955000646,return,1.911500200163573,13,0,0,1,-2.7755575615628914e-17,-0.32,return,1.8337430995889008,6,-43,-2.7755575615628914e-17,-0.32,,,,,,,,,,,,,,,,,,,,,,,,,,,,,,,,,,,,,,,,,,,,,,,,,,,,,,,,AHD6DK,train_x,red_square,bottom_right,2025-05-02_13h28.12.291,HideSeek_v1,2022.2.5,60.33484625247836,
,5,3,2,3,-3,0,46,,train_dim1_1,19,30,,,,2,0,2,0,,,,,,,,,0,0,0,0,0,18,18,18,0,0,0,0,,,,,,,,,,,,,,,,,,,,,,,,,stimuli/alien_stimuli/46.png,,,,,,,,,,,,,,,,,,,,,,,,,,,,,stimuli/alien_stimuli/66.png,66,7,20,,,,,,,30,,,,,,,,532.7472565001808,532.7472565001808,532.7472565001808,532.7472565001808,532.7472565001808,left,1.2900315001606941,13,0,0,99,0.15999999999999998,-0.16,left,1.1942250994034111,,,,,531.1734172003344,532.7472565001808,0,-0.32,0.0,0.4,-0.32,0,0.2,0,-0.32,529.9813908003271,529.9813908003271,529.9813908003271,529.9813908003271,529.9813908003271,529.9813908003271,529.9813908003271,529.9813908003271,529.9730091900565,1.3033431000076234,return,1.1761282994411886,,,,,,,,,,,,,,,,,,,,,,,,,,,,,,,,,AHD6DK,train_x,red_square,bottom_right,2025-05-02_13h28.12.291,HideSeek_v1,2022.2.5,60.33484625247836,
,5,3,2,3,-3,0,46,,train_dim1_1,19,30,,,,2,0,2,0,,,,,,,,,0,0,0,0,0,18,18,18,1,0,1,0,,,,,,,,,,,,,,,,,,,,,,,,,,,,,,,,,,,,,,,,,,,,,,,,,,,,,,,,,,,,,,,,30,,,,,,,,534.0232716002502,534.0232716002502,534.0232716002502,534.0232716002502,534.0232716002502,left,0.4595331000164151,13,0,0,99,0.07999999999999997,-0.16,left,0.37551619950681925,,,,,,,,,,,,,,,,,,,,,,,,,,,,,,,,,,,,,,,,,,,,,,,,,,,,,,,,,,,,AHD6DK,train_x,red_square,bottom_right,2025-05-02_13h28.12.291,HideSeek_v1,2022.2.5,60.33484625247836,
,5,3,2,3,-3,0,46,,train_dim1_1,19,30,,,,2,0,2,0,,,,,,,,,0,0,0,0,0,18,18,18,2,0,2,0,,,,,,,,,,,,,,,,,,,,,,,,,,,,,,,,,,,,,,,,,,,,,,,,,,,,,,,,,,,,,,,,30,,,,,,,,534.4894098001532,534.4894098001532,534.4894098001532,534.4894098001532,534.4894098001532,return,2.211533499881625,13,1,0,0,0.07999999999999997,-0.16,return,2.1282963999547064,6,-45,0.07999999999999997,-0.16,,,,,,,,,,,,,,,,,,,,,,,,,,,,,,,,,,,,,,,,,,,,,,,,,,,,,,,,AHD6DK,train_x,red_square,bottom_right,2025-05-02_13h28.12.291,HideSeek_v1,2022.2.5,60.33484625247836,
,5,1,5,1,0,0,16,,train_dim1_1,20,30,,,,2,0,2,0,,,,,,,,,0,0,0,0,0,19,19,19,0,0,0,0,,,,,,,,,,,,,,,,,,,,,,,,,stimuli/alien_stimuli/16.png,,,,,,,,,,,,,,,,,,,,,,,,,,,,,stimuli/alien_stimuli/46.png,46,5,21,,,,,,,30,,,,,,,,543.3475924003869,543.3475924003869,543.3475924003869,543.3475924003869,543.3475924003869,return,4.056418899912387,14,0,0,1,0.24,-0.32,return,3.9612255999818444,6,-45,0.24,-0.32,541.7826179000549,543.3475924003869,0,-0.16,0.0,0.24,-0.16,0,0.12,0,-0.16,538.2637504003942,538.2637504003942,538.2637504003942,538.2637504003942,538.2637504003942,538.2637504003942,538.2637504003942,538.2637504003942,538.246138419956,3.6219262001104653,return,3.5012592994607985,,,,,,,,,,,,,,,,,,,,,,,,,,,,,,,,,AHD6DK,train_x,red_square,bottom_right,2025-05-02_13h28.12.291,HideSeek_v1,2022.2.5,60.33484625247836,
,9,2,6,2,-3,0,46,,train_dim1_1,21,30,,,,2,0,2,0,,,,,,,,,0,0,0,0,0,20,20,20,0,0,0,0,,,,,,,,,,,,,,,,,,,,,,,,,stimuli/alien_stimuli/46.png,,,,,,,,,,,,,,,,,,,,,,,,,,,,,stimuli/alien_stimuli/16.png,16,5,22,,,,,,,30,,,,,,,,550.9626100002788,550.9626100002788,550.9626100002788,550.9626100002788,550.9626100002788,left,1.15487049985677,14,0,0,99,0.48000000000000004,-0.24,left,1.054572899825871,,,,,549.3755059000105,548.9815416000783,0.24,-0.32,0.0,0.0,-0.32,0.24,0.24,0.24,-0.32,548.9815416000783,548.9815416000783,548.9815416000783,548.9815416000783,548.9815416000783,548.9815416000783,548.9815416000783,548.9815416000783,548.97165175993,0.5241485000588,return,0.36536929942667484,,,,,,,,,,,,,,,,,,,,,,,,,,,,,,,,,AHD6DK,train_x,red_square,bottom_right,2025-05-02_13h28.12.291,HideSeek_v1,2022.2.5,60.33484625247836,
,9,2,6,2,-3,0,46,,train_dim1_1,21,30,,,,2,0,2,0,,,,,,,,,0,0,0,0,0,20,20,20,1,0,1,0,,,,,,,,,,,,,,,,,,,,,,,,,,,,,,,,,,,,,,,,,,,,,,,,,,,,,,,,,,,,,,,,30,,,,,,,,552.1053874003701,552.1053874003701,552.1053874003701,552.1053874003701,552.1053874003701,left,0.4261702997609973,14,0,0,99,0.4,-0.24,left,0.3451644997112453,,,,,,,,,,,,,,,,,,,,,,,,,,,,,,,,,,,,,,,,,,,,,,,,,,,,,,,,,,,,AHD6DK,train_x,red_square,bottom_right,2025-05-02_13h28.12.291,HideSeek_v1,2022.2.5,60.33484625247836,
,9,2,6,2,-3,0,46,,train_dim1_1,21,30,,,,2,0,2,0,,,,,,,,,0,0,0,0,0,20,20,20,2,0,2,0,,,,,,,,,,,,,,,,,,,,,,,,,,,,,,,,,,,,,,,,,,,,,,,,,,,,,,,,,,,,,,,,30,,,,,,,,552.537619500421,552.537619500421,552.537619500421,552.537619500421,552.537619500421,left,0.4266621000133455,14,0,0,99,0.32,-0.24,left,0.3387925997376442,,,,,,,,,,,,,,,,,,,,,,,,,,,,,,,,,,,,,,,,,,,,,,,,,,,,,,,,,,,,AHD6DK,train_x,red_square,bottom_right,2025-05-02_13h28.12.291,HideSeek_v1,2022.2.5,60.33484625247836,
,9,2,6,2,-3,0,46,,train_dim1_1,21,30,,,,2,0,2,0,,,,,,,,,0,0,0,0,0,20,20,20,3,0,3,0,,,,,,,,,,,,,,,,,,,,,,,,,,,,,,,,,,,,,,,,,,,,,,,,,,,,,,,,,,,,,,,,30,,,,,,,,552.9713573004119,552.9713573004119,552.9713573004119,552.9713573004119,552.9713573004119,return,2.895815699826926,15,0,0,1,0.32,-0.24,return,2.821236399933696,6,-48,0.32,-0.24,,,,,,,,,,,,,,,,,,,,,,,,,,,,,,,,,,,,,,,,,,,,,,,,,,,,,,,,AHD6DK,train_x,red_square,bottom_right,2025-05-02_13h28.12.291,HideSeek_v1,2022.2.5,60.33484625247836,
,6,0,5,0,-1,0,26,,train_dim1_1,22,30,,,,2,0,2,0,,,,,,,,,0,0,0,0,0,21,21,21,0,0,0,0,,,,,,,,,,,,,,,,,,,,,,,,,stimuli/alien_stimuli/26.png,,,,,,,,,,,,,,,,,,,,,,,,,,,,,stimuli/alien_stimuli/46.png,46,9,23,,,,,,,30,,,,,,,,559.7596984002739,559.7596984002739,559.7596984002739,559.7596984002739,559.7596984002739,left,1.3729694001376629,15,0,0,99,0.24,-0.4,left,1.2659884998574853,,,,,558.1795465000905,559.7596984002739,0.32,-0.24,0.0,0.24,-0.24,0.32,0.44000000000000006,0.32,-0.24,557.4298213003203,557.4298213003203,557.4298213003203,557.4298213003203,557.4298213003203,557.4298213003203,557.4298213003203,557.4298213003203,557.4116824199446,0.8529464001767337,return,0.7176244999282062,,,,,,,,,,,,,,,,,,,,,,,,,,,,,,,,,AHD6DK,train_x,red_square,bottom_right,2025-05-02_13h28.12.291,HideSeek_v1,2022.2.5,60.33484625247836,
,6,0,5,0,-1,0,26,,train_dim1_1,22,30,,,,2,0,2,0,,,,,,,,,0,0,0,0,0,21,21,21,1,0,1,0,,,,,,,,,,,,,,,,,,,,,,,,,,,,,,,,,,,,,,,,,,,,,,,,,,,,,,,,,,,,,,,,30,,,,,,,,561.1167342001572,561.1167342001572,561.1167342001572,561.1167342001572,561.1167342001572,return,0.45931149972602725,16,0,0,1,0.24,-0.4,return,0.3712733997963369,6,-49,0.24,-0.4,,,,,,,,,,,,,,,,,,,,,,,,,,,,,,,,,,,,,,,,,,,,,,,,,,,,,,,,AHD6DK,train_x,red_square,bottom_right,2025-05-02_13h28.12.291,HideSeek_v1,2022.2.5,60.33484625247836,
,7,1,2,1,-5,0,66,,train_dim1_1,23,30,,,,2,0,2,0,,,,,,,,,0,0,0,0,0,22,22,22,0,0,0,0,,,,,,,,,,,,,,,,,,,,,,,,,stimuli/alien_stimuli/66.png,,,,,,,,,,,,,,,,,,,,,,,,,,,,,stimuli/alien_stimuli/26.png,26,6,24,,,,,,,30,,,,,,,,565.5352634000592,565.5352634000592,565.5352634000592,565.5352634000592,565.5352634000592,left,1.0399941001087427,16,0,0,99,0.32,-0.32,left,0.9479462993331254,,,,,563.9675633003935,565.5352634000592,0.24,-0.4,0.0,0.08,-0.4,0.24,0.28,0.24,-0.4,563.1412867000327,563.1412867000327,563.1412867000327,563.1412867000327,563.1412867000327,563.1412867000327,563.1412867000327,563.1412867000327,563.1335259899497,0.9361443002708256,return,0.8074515997432172,,,,,,,,,,,,,,,,,,,,,,,,,,,,,,,,,AHD6DK,train_x,red_square,bottom_right,2025-05-02_13h28.12.291,HideSeek_v1,2022.2.5,60.33484625247836,
,7,1,2,1,-5,0,66,,train_dim1_1,23,30,,,,2,0,2,0,,,,,,,,,0,0,0,0,0,22,22,22,1,0,1,0,,,,,,,,,,,,,,,,,,,,,,,,,,,,,,,,,,,,,,,,,,,,,,,,,,,,,,,,,,,,,,,,30,,,,,,,,566.5670743002556,566.5670743002556,566.5670743002556,566.5670743002556,566.5670743002556,left,0.49276449996978045,16,0,0,99,0.24,-0.32,left,0.4094400997273624,,,,,,,,,,,,,,,,,,,,,,,,,,,,,,,,,,,,,,,,,,,,,,,,,,,,,,,,,,,,AHD6DK,train_x,red_square,bottom_right,2025-05-02_13h28.12.291,HideSeek_v1,2022.2.5,60.33484625247836,
,7,1,2,1,-5,0,66,,train_dim1_1,23,30,,,,2,0,2,0,,,,,,,,,0,0,0,0,0,22,22,22,2,0,2,0,,,,,,,,,,,,,,,,,,,,,,,,,,,,,,,,,,,,,,,,,,,,,,,,,,,,,,,,,,,,,,,,30,,,,,,,,567.0663347002119,567.0663347002119,567.0663347002119,567.0663347002119,567.0663347002119,left,0.42661730013787746,16,0,0,99,0.15999999999999998,-0.32,left,0.339098799508065,,,,,,,,,,,,,,,,,,,,,,,,,,,,,,,,,,,,,,,,,,,,,,,,,,,,,,,,,,,,AHD6DK,train_x,red_square,bottom_right,2025-05-02_13h28.12.291,HideSeek_v1,2022.2.5,60.33484625247836,
,7,1,2,1,-5,0,66,,train_dim1_1,23,30,,,,2,0,2,0,,,,,,,,,0,0,0,0,0,22,22,22,3,0,3,0,,,,,,,,,,,,,,,,,,,,,,,,,,,,,,,,,,,,,,,,,,,,,,,,,,,,,,,,,,,,,,,,30,,,,,,,,567.5004093004391,567.5004093004391,567.5004093004391,567.5004093004391,567.5004093004391,left,0.3599271001294255,16,0,0,99,0.07999999999999997,-0.32,left,0.2782475994899869,,,,,,,,,,,,,,,,,,,,,,,,,,,,,,,,,,,,,,,,,,,,,,,,,,,,,,,,,,,,AHD6DK,train_x,red_square,bottom_right,2025-05-02_13h28.12.291,HideSeek_v1,2022.2.5,60.33484625247836,
,7,1,2,1,-5,0,66,,train_dim1_1,23,30,,,,2,0,2,0,,,,,,,,,0,0,0,0,0,22,22,22,4,0,4,0,,,,,,,,,,,,,,,,,,,,,,,,,,,,,,,,,,,,,,,,,,,,,,,,,,,,,,,,,,,,,,,,30,,,,,,,,567.8681146004237,567.8681146004237,567.8681146004237,567.8681146004237,567.8681146004237,left,0.3600682998076081,16,0,0,99,-2.7755575615628914e-17,-0.32,left,0.27582439966499805,,,,,,,,,,,,,,,,,,,,,,,,,,,,,,,,,,,,,,,,,,,,,,,,,,,,,,,,,,,,AHD6DK,train_x,red_square,bottom_right,2025-05-02_13h28.12.291,HideSeek_v1,2022.2.5,60.33484625247836,
,7,1,2,1,-5,0,66,,train_dim1_1,23,30,,,,2,0,2,0,,,,,,,,,0,0,0,0,0,22,22,22,5,0,5,0,,,,,,,,,,,,,,,,,,,,,,,,,,,,,,,,,,,,,,,,,,,,,,,,,,,,,,,,,,,,,,,,30,,,,,,,,568.2349483002909,568.2349483002909,568.2349483002909,568.2349483002909,568.2349483002909,return,0.5437564998865128,17,0,0,1,-2.7755575615628914e-17,-0.32,return,0.46016439981758595,6,-54,-2.7755575615628914e-17,-0.32,,,,,,,,,,,,,,,,,,,,,,,,,,,,,,,,,,,,,,,,,,,,,,,,,,,,,,,,AHD6DK,train_x,red_square,bottom_right,2025-05-02_13h28.12.291,HideSeek_v1,2022.2.5,60.33484625247836,
,9,4,5,4,-4,0,56,,train_dim1_1,24,30,,,,2,0,2,0,,,,,,,,,0,0,0,0,0,23,23,23,0,0,0,0,,,,,,,,,,,,,,,,,,,,,,,,,stimuli/alien_stimuli/56.png,,,,,,,,,,,,,,,,,,,,,,,,,,,,,stimuli/alien_stimuli/66.png,66,7,25,,,,,,,30,,,,,,,,572.8690262003802,572.8690262003802,572.8690262003802,572.8690262003802,572.8690262003802,left,0.7719048000872135,17,0,0,99,0.48000000000000004,-0.08,left,0.6871523996815085,,,,,571.3070919001475,572.8690262003802,0,-0.32,0.0,0.4,-0.32,0,0.2,0,-0.32,570.3431813004427,570.3431813004427,570.3431813004427,570.3431813004427,570.3431813004427,570.3431813004427,570.3431813004427,570.3431813004427,570.322722219862,1.0694150002673268,return,0.9344866001047194,,,,,,,,,,,,,,,,,,,,,,,,,,,,,,,,,AHD6DK,train_x,red_square,bottom_right,2025-05-02_13h28.12.291,HideSeek_v1,2022.2.5,60.33484625247836,
,9,4,5,4,-4,0,56,,train_dim1_1,24,30,,,,2,0,2,0,,,,,,,,,0,0,0,0,0,23,23,23,1,0,1,0,,,,,,,,,,,,,,,,,,,,,,,,,,,,,,,,,,,,,,,,,,,,,,,,,,,,,,,,,,,,,,,,30,,,,,,,,573.6417567003518,573.6417567003518,573.6417567003518,573.6417567003518,573.6417567003518,left,0.3262262004427612,17,0,0,99,0.4,-0.08,left,0.25016949931159616,,,,,,,,,,,,,,,,,,,,,,,,,,,,,,,,,,,,,,,,,,,,,,,,,,,,,,,,,,,,AHD6DK,train_x,red_square,bottom_right,2025-05-02_13h28.12.291,HideSeek_v1,2022.2.5,60.33484625247836,
,9,4,5,4,-4,0,56,,train_dim1_1,24,30,,,,2,0,2,0,,,,,,,,,0,0,0,0,0,23,23,23,2,0,2,0,,,,,,,,,,,,,,,,,,,,,,,,,,,,,,,,,,,,,,,,,,,,,,,,,,,,,,,,,,,,,,,,30,,,,,,,,573.975236300379,573.975236300379,573.975236300379,573.975236300379,573.975236300379,left,0.3432721998542547,17,0,0,99,0.32,-0.08,left,0.26848179986700416,,,,,,,,,,,,,,,,,,,,,,,,,,,,,,,,,,,,,,,,,,,,,,,,,,,,,,,,,,,,AHD6DK,train_x,red_square,bottom_right,2025-05-02_13h28.12.291,HideSeek_v1,2022.2.5,60.33484625247836,
,9,4,5,4,-4,0,56,,train_dim1_1,24,30,,,,2,0,2,0,,,,,,,,,0,0,0,0,0,23,23,23,3,0,3,0,,,,,,,,,,,,,,,,,,,,,,,,,,,,,,,,,,,,,,,,,,,,,,,,,,,,,,,,,,,,,,,,30,,,,,,,,574.3247995004058,574.3247995004058,574.3247995004058,574.3247995004058,574.3247995004058,left,0.3603491000831127,17,0,0,99,0.24,-0.08,left,0.2774589997716248,,,,,,,,,,,,,,,,,,,,,,,,,,,,,,,,,,,,,,,,,,,,,,,,,,,,,,,,,,,,AHD6DK,train_x,red_square,bottom_right,2025-05-02_13h28.12.291,HideSeek_v1,2022.2.5,60.33484625247836,
,9,4,5,4,-4,0,56,,train_dim1_1,24,30,,,,2,0,2,0,,,,,,,,,0,0,0,0,0,23,23,23,4,0,4,0,,,,,,,,,,,,,,,,,,,,,,,,,,,,,,,,,,,,,,,,,,,,,,,,,,,,,,,,,,,,,,,,30,,,,,,,,574.6918684002012,574.6918684002012,574.6918684002012,574.6918684002012,574.6918684002012,return,1.8282537003979087,18,0,0,1,0.24,-0.08,return,1.7425325997173786,6,-58,0.24,-0.08,,,,,,,,,,,,,,,,,,,,,,,,,,,,,,,,,,,,,,,,,,,,,,,,,,,,,,,,AHD6DK,train_x,red_square,bottom_right,2025-05-02_13h28.12.291,HideSeek_v1,2022.2.5,60.33484625247836,
,8,0,8,0,0,0,16,,train_dim1_1,25,30,,,,2,0,2,0,,,,,,,,,0,0,0,0,0,24,24,24,0,0,0,0,,,,,,,,,,,,,,,,,,,,,,,,,stimuli/alien_stimuli/16.png,,,,,,,,,,,,,,,,,,,,,,,,,,,,,stimuli/alien_stimuli/56.png,56,9,26,,,,,,,30,,,,,,,,579.9782868004404,579.9782868004404,579.9782868004404,579.9782868004404,579.9782868004404,return,1.222542599774897,19,0,0,1,0.48,-0.4,return,1.1359280995093286,6,-58,0.48,-0.4,578.4125799001195,579.9782868004404,0.24,-0.08,0.0,0.32,-0.08,0.24,0.4,0.24,-0.08,578.08500930015,578.08500930015,578.08500930015,578.08500930015,578.08500930015,578.08500930015,578.08500930015,578.08500930015,578.0625100200996,0.4356831000186503,return,0.31070439936593175,,,,,,,,,,,,,,,,,,,,,,,,,,,,,,,,,AHD6DK,train_x,red_square,bottom_right,2025-05-02_13h28.12.291,HideSeek_v1,2022.2.5,60.33484625247836,
,6,1,1,1,-5,0,66,,train_dim1_1,26,30,,,,2,0,2,0,,,,,,,,,0,0,0,0,0,25,25,25,0,0,0,0,,,,,,,,,,,,,,,,,,,,,,,,,stimuli/alien_stimuli/66.png,,,,,,,,,,,,,,,,,,,,,,,,,,,,,stimuli/alien_stimuli/16.png,16,8,27,,,,,,,30,,,,,,,,585.3300857003778,585.3300857003778,585.3300857003778,585.3300857003778,585.3300857003778,left,0.7552491999231279,19,0,0,99,0.24,-0.32,left,0.672435199841857,,,,,583.7672954001464,585.3300857003778,0.48,-0.4,0.0,0.0,-0.4,0.48,0.48,0.48,-0.4,582.7613428002223,582.7613428002223,582.7613428002223,582.7613428002223,582.7613428002223,582.7613428002223,582.7613428002223,582.7613428002223,582.7494118898176,1.1198921003378928,return,0.974125599488616,,,,,,,,,,,,,,,,,,,,,,,,,,,,,,,,,AHD6DK,train_x,red_square,bottom_right,2025-05-02_13h28.12.291,HideSeek_v1,2022.2.5,60.33484625247836,
,6,1,1,1,-5,0,66,,train_dim1_1,26,30,,,,2,0,2,0,,,,,,,,,0,0,0,0,0,25,25,25,1,0,1,0,,,,,,,,,,,,,,,,,,,,,,,,,,,,,,,,,,,,,,,,,,,,,,,,,,,,,,,,,,,,,,,,30,,,,,,,,586.0834241001867,586.0834241001867,586.0834241001867,586.0834241001867,586.0834241001867,left,0.39317529974505305,19,0,0,99,0.15999999999999998,-0.32,left,0.31527729937806726,,,,,,,,,,,,,,,,,,,,,,,,,,,,,,,,,,,,,,,,,,,,,,,,,,,,,,,,,,,,AHD6DK,train_x,red_square,bottom_right,2025-05-02_13h28.12.291,HideSeek_v1,2022.2.5,60.33484625247836,
,6,1,1,1,-5,0,66,,train_dim1_1,26,30,,,,2,0,2,0,,,,,,,,,0,0,0,0,0,25,25,25,2,0,2,0,,,,,,,,,,,,,,,,,,,,,,,,,,,,,,,,,,,,,,,,,,,,,,,,,,,,,,,,,,,,,,,,30,,,,,,,,586.4836607002653,586.4836607002653,586.4836607002653,586.4836607002653,586.4836607002653,left,0.36010679975152016,19,0,0,99,0.07999999999999997,-0.32,left,0.28684499952942133,,,,,,,,,,,,,,,,,,,,,,,,,,,,,,,,,,,,,,,,,,,,,,,,,,,,,,,,,,,,AHD6DK,train_x,red_square,bottom_right,2025-05-02_13h28.12.291,HideSeek_v1,2022.2.5,60.33484625247836,
,6,1,1,1,-5,0,66,,train_dim1_1,26,30,,,,2,0,2,0,,,,,,,,,0,0,0,0,0,25,25,25,3,0,3,0,,,,,,,,,,,,,,,,,,,,,,,,,,,,,,,,,,,,,,,,,,,,,,,,,,,,,,,,,,,,,,,,30,,,,,,,,586.8501407001168,586.8501407001168,586.8501407001168,586.8501407001168,586.8501407001168,left,0.37692670011892915,19,0,0,99,-2.7755575615628914e-17,-0.32,left,0.2963907993398607,,,,,,,,,,,,,,,,,,,,,,,,,,,,,,,,,,,,,,,,,,,,,,,,,,,,,,,,,,,,AHD6DK,train_x,red_square,bottom_right,2025-05-02_13h28.12.291,HideSeek_v1,2022.2.5,60.33484625247836,
,6,1,1,1,-5,0,66,,train_dim1_1,26,30,,,,2,0,2,0,,,,,,,,,0,0,0,0,0,25,25,25,4,0,4,0,,,,,,,,,,,,,,,,,,,,,,,,,,,,,,,,,,,,,,,,,,,,,,,,,,,,,,,,,,,,,,,,30,,,,,,,,587.2333200001158,587.2333200001158,587.2333200001158,587.2333200001158,587.2333200001158,left,0.37679880019277334,19,0,0,99,-0.08000000000000003,-0.32,left,0.29522329941391945,,,,,,,,,,,,,,,,,,,,,,,,,,,,,,,,,,,,,,,,,,,,,,,,,,,,,,,,,,,,AHD6DK,train_x,red_square,bottom_right,2025-05-02_13h28.12.291,HideSeek_v1,2022.2.5,60.33484625247836,
,6,1,1,1,-5,0,66,,train_dim1_1,26,30,,,,2,0,2,0,,,,,,,,,0,0,0,0,0,25,25,25,5,0,5,0,,,,,,,,,,,,,,,,,,,,,,,,,,,,,,,,,,,,,,,,,,,,,,,,,,,,,,,,,,,,,,,,30,,,,,,,,587.6168647999875,587.6168647999875,587.6168647999875,587.6168647999875,587.6168647999875,return,1.2611189000308514,20,0,0,1,-0.08000000000000003,-0.32,return,1.1833357997238636,6,-63,-0.08000000000000003,-0.32,,,,,,,,,,,,,,,,,,,,,,,,,,,,,,,,,,,,,,,,,,,,,,,,,,,,,,,,AHD6DK,train_x,red_square,bottom_right,2025-05-02_13h28.12.291,HideSeek_v1,2022.2.5,60.33484625247836,
,5,1,2,1,-3,0,46,,train_dim1_1,27,30,,,,2,0,2,0,,,,,,,,,0,0,0,0,0,26,26,26,0,0,0,0,,,,,,,,,,,,,,,,,,,,,,,,,stimuli/alien_stimuli/46.png,,,,,,,,,,,,,,,,,,,,,,,,,,,,,stimuli/alien_stimuli/66.png,66,6,28,,,,,,,30,,,,,,,,592.7495378004387,592.7495378004387,592.7495378004387,592.7495378004387,592.7495378004387,left,1.2237431998364627,20,0,0,99,0.15999999999999998,-0.32,left,1.1312046996317804,,,,,591.1900654002093,592.7495378004387,-0.08,-0.32,0.0,0.4,-0.32,-0.08,0.12,-0.08,-0.32,590.4459324004129,590.4459324004129,590.4459324004129,590.4459324004129,590.4459324004129,590.4459324004129,590.4459324004129,590.4459324004129,590.4226954202168,0.8528456003405154,return,0.7145899999886751,,,,,,,,,,,,,,,,,,,,,,,,,,,,,,,,,AHD6DK,train_x,red_square,bottom_right,2025-05-02_13h28.12.291,HideSeek_v1,2022.2.5,60.33484625247836,
,5,1,2,1,-3,0,46,,train_dim1_1,27,30,,,,2,0,2,0,,,,,,,,,0,0,0,0,0,26,26,26,1,0,1,0,,,,,,,,,,,,,,,,,,,,,,,,,,,,,,,,,,,,,,,,,,,,,,,,,,,,,,,,,,,,,,,,30,,,,,,,,593.9735798002221,593.9735798002221,593.9735798002221,593.9735798002221,593.9735798002221,left,0.4263528003357351,20,0,0,99,0.07999999999999997,-0.32,left,0.3413820997811854,,,,,,,,,,,,,,,,,,,,,,,,,,,,,,,,,,,,,,,,,,,,,,,,,,,,,,,,,,,,AHD6DK,train_x,red_square,bottom_right,2025-05-02_13h28.12.291,HideSeek_v1,2022.2.5,60.33484625247836,
,5,1,2,1,-3,0,46,,train_dim1_1,27,30,,,,2,0,2,0,,,,,,,,,0,0,0,0,0,26,26,26,2,0,2,0,,,,,,,,,,,,,,,,,,,,,,,,,,,,,,,,,,,,,,,,,,,,,,,,,,,,,,,,,,,,,,,,30,,,,,,,,594.4060757001862,594.4060757001862,594.4060757001862,594.4060757001862,594.4060757001862,left,0.39335189992561936,20,0,0,99,-2.7755575615628914e-17,-0.32,left,0.3127730996347964,,,,,,,,,,,,,,,,,,,,,,,,,,,,,,,,,,,,,,,,,,,,,,,,,,,,,,,,,,,,AHD6DK,train_x,red_square,bottom_right,2025-05-02_13h28.12.291,HideSeek_v1,2022.2.5,60.33484625247836,
,5,1,2,1,-3,0,46,,train_dim1_1,27,30,,,,2,0,2,0,,,,,,,,,0,0,0,0,0,26,26,26,3,0,3,0,,,,,,,,,,,,,,,,,,,,,,,,,,,,,,,,,,,,,,,,,,,,,,,,,,,,,,,,,,,,,,,,30,,,,,,,,594.806635200046,594.806635200046,594.806635200046,594.806635200046,594.806635200046,return,0.4269376997835934,21,0,0,1,-2.7755575615628914e-17,-0.32,return,0.3531683995388448,6,-66,-2.7755575615628914e-17,-0.32,,,,,,,,,,,,,,,,,,,,,,,,,,,,,,,,,,,,,,,,,,,,,,,,,,,,,,,,AHD6DK,train_x,red_square,bottom_right,2025-05-02_13h28.12.291,HideSeek_v1,2022.2.5,60.33484625247836,
,8,1,7,1,-1,0,26,,train_dim1_1,28,30,,,,2,0,2,0,,,,,,,,,0,0,0,0,0,27,27,27,0,0,0,0,,,,,,,,,,,,,,,,,,,,,,,,,stimuli/alien_stimuli/26.png,,,,,,,,,,,,,,,,,,,,,,,,,,,,,stimuli/alien_stimuli/46.png,46,5,29,,,,,,,30,,,,,,,,599.0951209003106,599.0951209003106,599.0951209003106,599.0951209003106,599.0951209003106,left,1.001282799988985,21,0,0,99,0.39999999999999997,-0.32,left,0.9017453999258578,,,,,597.5119533003308,599.0951209003106,0,-0.32,0.0,0.24,-0.32,0,0.12,0,-0.32,596.7964052003808,596.7964052003808,596.7964052003808,596.7964052003808,596.7964052003808,596.7964052003808,596.7964052003808,596.7964052003808,596.7780042202212,0.8196782995946705,return,0.6958397999405861,,,,,,,,,,,,,,,,,,,,,,,,,,,,,,,,,AHD6DK,train_x,red_square,bottom_right,2025-05-02_13h28.12.291,HideSeek_v1,2022.2.5,60.33484625247836,
,8,1,7,1,-1,0,26,,train_dim1_1,28,30,,,,2,0,2,0,,,,,,,,,0,0,0,0,0,27,27,27,1,0,1,0,,,,,,,,,,,,,,,,,,,,,,,,,,,,,,,,,,,,,,,,,,,,,,,,,,,,,,,,,,,,,,,,30,,,,,,,,600.0818859999999,600.0818859999999,600.0818859999999,600.0818859999999,600.0818859999999,return,0.3929925002157688,22,0,0,1,0.39999999999999997,-0.32,return,0.3155473996885121,6,-67,0.39999999999999997,-0.32,,,,,,,,,,,,,,,,,,,,,,,,,,,,,,,,,,,,,,,,,,,,,,,,,,,,,,,,AHD6DK,train_x,red_square,bottom_right,2025-05-02_13h28.12.291,HideSeek_v1,2022.2.5,60.33484625247836,
,9,0,5,0,-4,0,56,,train_dim1_1,29,30,,,,2,0,2,0,,,,,,,,,0,0,0,0,0,28,28,28,0,0,0,0,,,,,,,,,,,,,,,,,,,,,,,,,stimuli/alien_stimuli/56.png,,,,,,,,,,,,,,,,,,,,,,,,,,,,,stimuli/alien_stimuli/26.png,26,8,30,,,,,,,30,,,,,,,,604.3445325000212,604.3445325000212,604.3445325000212,604.3445325000212,604.3445325000212,left,0.6883081998676062,22,0,0,99,0.48000000000000004,-0.4,left,0.5937031996436417,,,,,602.782990200445,604.3445325000212,0.4,-0.32,0.0,0.08,-0.32,0.4,0.44,0.4,-0.32,602.039097300265,602.039097300265,602.039097300265,602.039097300265,602.039097300265,602.039097300265,602.039097300265,602.039097300265,602.0322163901292,0.8528164001181722,return,0.7201088992878795,,,,,,,,,,,,,,,,,,,,,,,,,,,,,,,,,AHD6DK,train_x,red_square,bottom_right,2025-05-02_13h28.12.291,HideSeek_v1,2022.2.5,60.33484625247836,
,9,0,5,0,-4,0,56,,train_dim1_1,29,30,,,,2,0,2,0,,,,,,,,,0,0,0,0,0,28,28,28,1,0,1,0,,,,,,,,,,,,,,,,,,,,,,,,,,,,,,,,,,,,,,,,,,,,,,,,,,,,,,,,,,,,,,,,30,,,,,,,,605.034737800248,605.034737800248,605.034737800248,605.034737800248,605.034737800248,left,0.3755164002068341,22,0,0,99,0.4,-0.4,left,0.29792659962549806,,,,,,,,,,,,,,,,,,,,,,,,,,,,,,,,,,,,,,,,,,,,,,,,,,,,,,,,,,,,AHD6DK,train_x,red_square,bottom_right,2025-05-02_13h28.12.291,HideSeek_v1,2022.2.5,60.33484625247836,
,9,0,5,0,-4,0,56,,train_dim1_1,29,30,,,,2,0,2,0,,,,,,,,,0,0,0,0,0,28,28,28,2,0,2,0,,,,,,,,,,,,,,,,,,,,,,,,,,,,,,,,,,,,,,,,,,,,,,,,,,,,,,,,,,,,,,,,30,,,,,,,,605.4178883000277,605.4178883000277,605.4178883000277,605.4178883000277,605.4178883000277,left,0.42693800013512373,22,0,0,99,0.32,-0.4,left,0.3388026994653046,,,,,,,,,,,,,,,,,,,,,,,,,,,,,,,,,,,,,,,,,,,,,,,,,,,,,,,,,,,,AHD6DK,train_x,red_square,bottom_right,2025-05-02_13h28.12.291,HideSeek_v1,2022.2.5,60.33484625247836,
,9,0,5,0,-4,0,56,,train_dim1_1,29,30,,,,2,0,2,0,,,,,,,,,0,0,0,0,0,28,28,28,3,0,3,0,,,,,,,,,,,,,,,,,,,,,,,,,,,,,,,,,,,,,,,,,,,,,,,,,,,,,,,,,,,,,,,,30,,,,,,,,605.8512501004152,605.8512501004152,605.8512501004152,605.8512501004152,605.8512501004152,left,0.3931073001585901,22,0,0,99,0.24,-0.4,left,0.30558499973267317,,,,,,,,,,,,,,,,,,,,,,,,,,,,,,,,,,,,,,,,,,,,,,,,,,,,,,,,,,,,AHD6DK,train_x,red_square,bottom_right,2025-05-02_13h28.12.291,HideSeek_v1,2022.2.5,60.33484625247836,
,9,0,5,0,-4,0,56,,train_dim1_1,29,30,,,,2,0,2,0,,,,,,,,,0,0,0,0,0,28,28,28,4,0,4,0,,,,,,,,,,,,,,,,,,,,,,,,,,,,,,,,,,,,,,,,,,,,,,,,,,,,,,,,,,,,,,,,30,,,,,,,,606.2505256002769,606.2505256002769,606.2505256002769,606.2505256002769,606.2505256002769,return,0.47717650001868606,23,0,0,1,0.24,-0.4,return,0.39201549952849746,6,-71,0.24,-0.4,,,,,,,,,,,,,,,,,,,,,,,,,,,,,,,,,,,,,,,,,,,,,,,,,,,,,,,,AHD6DK,train_x,red_square,bottom_right,2025-05-02_13h28.12.291,HideSeek_v1,2022.2.5,60.33484625247836,
,7,2,7,2,0,0,16,,train_dim1_1,30,30,,,,2,0,2,0,,,,,,,,,0,0,0,0,0,29,29,29,0,0,0,0,,,,,,,,,,,,,,,,,,,,,,,,,stimuli/alien_stimuli/16.png,,,,,,,,,,,,,,,,,,,,,,,,,,,,,stimuli/alien_stimuli/56.png,56,9,31,,,,,,,30,,,,,,,,610.6506449002773,610.6506449002773,610.6506449002773,610.6506449002773,610.6506449002773,return,1.105902699753642,24,0,0,1,0.4,-0.24,return,1.0100670997053385,6,-71,0.4,-0.24,609.0883990000002,610.6506449002773,0.24,-0.4,0.0,0.32,-0.4,0.24,0.4,0.24,-0.4,608.2953439000994,608.2953439000994,608.2953439000994,608.2953439000994,608.2953439000994,608.2953439000994,608.2953439000994,608.2953439000994,608.2875143899582,0.9032091000117362,return,0.7762342998757958,,,,,,,,,,,,,,,,,,,,,,,,,,,,,,,,,AHD6DK,train_x,red_square,bottom_right,2025-05-02_13h28.12.291,HideSeek_v1,2022.2.5,60.33484625247836,
,,,,,,,,,,,30,,,,2,0,2,0,,,,,,,,,,,,,,,,,,,,,,,,,,,,,,,,,,,,,,,,,,,,,,,,,,,,,,,,,,,,,,,,,,,,,,,,,,stimuli/alien_stimuli/16.png,16,7,32,21,0.7,1.0,1,1,1,30,0,conditions/schedules/train_x_first/red_square_00/bottom_right/inputTrain_2.1.xlsx,99,1,2,1,0,,,,,,,,,,,1,,,,,,,,,614.1590564004146,615.7025910001248,0.4,-0.24,0.0,0.0,-0.24,0.4,0.4,0.4,-0.24,613.3169373003766,613.3169373003766,613.3169373003766,613.3169373003766,613.3169373003766,613.3169373003766,613.3169373003766,613.3169373003766,613.3084935899824,0.9529399001039565,return,0.8224287996999919,0,0.9,0,1,24,,,,,,,,,,,,,,,,,,,,,,,,,,,,AHD6DK,train_x,red_square,bottom_right,2025-05-02_13h28.12.291,HideSeek_v1,2022.2.5,60.33484625247836,
,,,,,,,,,,,,,,,3,0,3,0,0,0,0,0,,,,,,,,,,,,,,,,,,,,,,,,,,,,,,,conditions/schedules/train_x_first/red_square_00/bottom_right/instructions/Slide17.png,conditions/schedules/train_x_first/red_square_00/bottom_right/instructions/Audio17.wav,615.7025910001248,615.6937970099971,17,"[3.635975199751556, 19.18151339981705, 16.444196100346744, 19.580345700029284, 4.253160399850458, 4.819974100217223, 5.435377399902791, 11.571935500018299, 5.787624599877745, 6.916951199993491, 9.32129540015012, 12.471311300061643, 17.415324500296265, 13.148144899867475, 30.68255060026422, 22.63932710001245, 49.66343760024756]","[0.00022209994494915009, 0.014169900212436914, 16.444202600046992, 0.04962599975988269, 0.09896550001576543, 0.06419559987261891, 0.045560500118881464, 0.08220549998804927, 0.1446126000955701, 0.03094270033761859, 0.09485320001840591, 12.471318100113422, 0.032850699964910746, 13.14815240027383, 0.033918400295078754, 22.639334300067276, 49.663444499950856]",0,,,,,,,,,,,,,,,,,,,,,,,,,,,,,,,,,,,,,,,,,,,,,,,,,,,,,,,,,,,,,,,,,,,,,,,,,,,,,,,,,,,,,,,,,,,,,,,,,,,,,,,,,,,,,,,,,,,,,,,,,,,,AHD6DK,train_x,red_square,bottom_right,2025-05-02_13h28.12.291,HideSeek_v1,2022.2.5,60.33484625247836,
,,,,,,,,,,,,,,,3,0,3,0,1,0,1,0,,,,,,,,,,,,,,,,,,,,,,,,,,,,,,,conditions/schedules/train_x_first/red_square_00/bottom_right/instructions/Slide18.png,conditions/schedules/train_x_first/red_square_00/bottom_right/instructions/Audio18.wav,665.4230931000784,665.4185960800387,18,"[3.635975199751556, 19.18151339981705, 16.444196100346744, 19.580345700029284, 4.253160399850458, 4.819974100217223, 5.435377399902791, 11.571935500018299, 5.787624599877745, 6.916951199993491, 9.32129540015012, 12.471311300061643, 17.415324500296265, 13.148144899867475, 30.68255060026422, 22.63932710001245, 49.66343760024756, 6.614895100239664]","[0.00022209994494915009, 0.014169900212436914, 16.444202600046992, 0.04962599975988269, 0.09896550001576543, 0.06419559987261891, 0.045560500118881464, 0.08220549998804927, 0.1446126000955701, 0.03094270033761859, 0.09485320001840591, 12.471318100113422, 0.032850699964910746, 13.14815240027383, 0.033918400295078754, 22.639334300067276, 0.00021370034664869308, 6.614902200177312]",0,,,,,,,,,,,,,,,,,,,,,,,,,,,,,,,,,,,,,,,,,,,,,,,,,,,,,,,,,,,,,,,,,,,,,,,,,,,,,,,,,,,,,,,,,,,,,,,,,,,,,,,,,,,,,,,,,,,,,,,,,,,,AHD6DK,train_x,red_square,bottom_right,2025-05-02_13h28.12.291,HideSeek_v1,2022.2.5,60.33484625247836,
,,,,,,,,,,,,,,,3,0,3,0,2,0,2,0,,,,,,,,,,,,,,,,,,,,,,,,,,,,,,,conditions/schedules/train_x_first/red_square_00/bottom_right/instructions/Slide19.png,conditions/schedules/train_x_first/red_square_00/bottom_right/instructions/Audio19.wav,672.0773045001552,672.0738712102175,19,"[3.635975199751556, 19.18151339981705, 16.444196100346744, 19.580345700029284, 4.253160399850458, 4.819974100217223, 5.435377399902791, 11.571935500018299, 5.787624599877745, 6.916951199993491, 9.32129540015012, 12.471311300061643, 17.415324500296265, 13.148144899867475, 30.68255060026422, 22.63932710001245, 49.66343760024756, 6.614895100239664, 9.869079999625683]","[0.00022209994494915009, 0.014169900212436914, 16.444202600046992, 0.04962599975988269, 0.09896550001576543, 0.06419559987261891, 0.045560500118881464, 0.08220549998804927, 0.1446126000955701, 0.03094270033761859, 0.09485320001840591, 12.471318100113422, 0.032850699964910746, 13.14815240027383, 0.033918400295078754, 22.639334300067276, 0.00021370034664869308, 0.030857999809086323, 9.869087500032037]",0,,,,,,,,,,,,,,,,,,,,,,,,,,,,,,,,,,,,,,,,,,,,,,,,,,,,,,,,,,,,,,,,,,,,,,,,,,,,,,,,,,,,,,,,,,,,,,,,,,,,,,,,,,,,,,,,,,,,,,,,,,,,AHD6DK,train_x,red_square,bottom_right,2025-05-02_13h28.12.291,HideSeek_v1,2022.2.5,60.33484625247836,
,,,,,,,,,,,,,,,3,0,3,0,3,0,3,0,,,,,,,,,,,,,,,,,,,,,,,,,,,,,,,conditions/schedules/train_x_first/red_square_00/bottom_right/instructions/Slide20.png,conditions/schedules/train_x_first/red_square_00/bottom_right/instructions/Audio20.wav,682.0117956004106,681.99910328025,20,"[3.635975199751556, 19.18151339981705, 16.444196100346744, 19.580345700029284, 4.253160399850458, 4.819974100217223, 5.435377399902791, 11.571935500018299, 5.787624599877745, 6.916951199993491, 9.32129540015012, 12.471311300061643, 17.415324500296265, 13.148144899867475, 30.68255060026422, 22.63932710001245, 49.66343760024756, 6.614895100239664, 9.869079999625683, 13.545506200287491]","[0.00022209994494915009, 0.014169900212436914, 16.444202600046992, 0.04962599975988269, 0.09896550001576543, 0.06419559987261891, 0.045560500118881464, 0.08220549998804927, 0.1446126000955701, 0.03094270033761859, 0.09485320001840591, 12.471318100113422, 0.032850699964910746, 13.14815240027383, 0.033918400295078754, 22.639334300067276, 0.00021370034664869308, 0.030857999809086323, 0.00022300006821751595, 13.545512900222093]",0,,,,,,,,,,,,,,,,,,,,,,,,,,,,,,,,,,,,,,,,,,,,,,,,,,,,,,,,,,,,,,,,,,,,,,,,,,,,,,,,,,,,,,,,,,,,,,,,,,,,,,,,,,,,,,,,,,,,,,,,,,,,AHD6DK,train_x,red_square,bottom_right,2025-05-02_13h28.12.291,HideSeek_v1,2022.2.5,60.33484625247836,
1,7,3,7,8,0,5,11,2,instr_dim1_2,,,,,,3,0,3,0,,,,,0,0,0,0,,,,,,,,,,,,,,,,,,,,,,,,,,,,,,,,,,,,,stimuli/alien_stimuli/11.png,conditions/schedules/train_x_first/red_square_00/bottom_right/inputInstr_2.xlsx,stimuli/alien_stimuli/11.png,695.6583458003588,695.6583458003588,695.6583458003588,695.6583458003588,695.6599828898907,return,6.499152099713683,"[-0.16, -0.08, 0, 0.08, 0.16, 0.24, 0.32, 0.4, 0.48, 0.56]","[-0.4, -0.32, -0.24, -0.16, -0.08, 0, 0.08, 0.16, 0.24, 0.32]",8,3,7,7,0.4,0.0,702.3004964999855,702.3004964999855,702.3004964999855,702.3004964999855,702.3004964999855,702.3004964999855,702.3004964999855,702.2987476601265,5.589285300113261,return,5.448793899733573,stimuli/alien_stimuli/11.png,11,7,1,,,,,,,,,,,,,,,,,,,,,,,,,,,,,,,,,,,,,,,,,,,,,,,,,,,,,,,,,,,,,,,,,,,,,,,,,,,,,,,,,,,,,,,,,AHD6DK,train_x,red_square,bottom_right,2025-05-02_13h28.12.291,HideSeek_v1,2022.2.5,60.33484625247836,
,,,,,,,,,,,30,,,,3,0,3,0,,,,,,,,,,,,,,,,,,,,,,,,,,,,,,,,,,,,,,,,,,,,,,,,,,,,,,,,,,,,,,,,,,,,,,,,,,,,,,21,0.7,1.0,1,99,2,30,0,conditions/schedules/train_x_first/red_square_00/bottom_right/inputTrain_2.1.xlsx,99,1,2,1,0,,,,,,,,,,,,,,,,,,,,,,,,,,,,,,,,,,,,,,,,,,,,,,,,,,,,,,,,,,,,,,,,,,,,,,,,,,,AHD6DK,train_x,red_square,bottom_right,2025-05-02_13h28.12.291,HideSeek_v1,2022.2.5,60.33484625247836,
,,,,,,,,,,,,,,,4,0,4,0,0,0,0,0,,,,,,,,,,,,,,,,,,,,,,,,,,,,,,,conditions/schedules/train_x_first/red_square_00/bottom_right/instructions/Slide21.png,conditions/schedules/train_x_first/red_square_00/bottom_right/instructions/Audio21.wav,707.9335998999886,707.9368487698957,21,"[3.635975199751556, 19.18151339981705, 16.444196100346744, 19.580345700029284, 4.253160399850458, 4.819974100217223, 5.435377399902791, 11.571935500018299, 5.787624599877745, 6.916951199993491, 9.32129540015012, 12.471311300061643, 17.415324500296265, 13.148144899867475, 30.68255060026422, 22.63932710001245, 49.66343760024756, 6.614895100239664, 9.869079999625683, 13.545506200287491, 4.003796699922532]","[0.00022209994494915009, 0.014169900212436914, 16.444202600046992, 0.04962599975988269, 0.09896550001576543, 0.06419559987261891, 0.045560500118881464, 0.08220549998804927, 0.1446126000955701, 0.03094270033761859, 0.09485320001840591, 12.471318100113422, 0.032850699964910746, 13.14815240027383, 0.033918400295078754, 22.639334300067276, 0.00021370034664869308, 0.030857999809086323, 0.00022300006821751595, 13.545512900222093, 4.003803400322795]",0,,,,,,,,,,,,,,,,,,,,,,,,,,,,,,,,,,,,,,,,,,,,,,,,,,,,,,,,,,,,,,,,,,,,,,,,,,,,,,,,,,,,,,,,,,,,,,,,,,,,,,,,,,,,,,,,,,,,,,,,,,,,AHD6DK,train_x,red_square,bottom_right,2025-05-02_13h28.12.291,HideSeek_v1,2022.2.5,60.33484625247836,
2,5,3,5,3,0,0,16,2,instr_dim1_2,,,,,,4,0,4,0,,,,,0,0,0,0,,,,,,,,,,,,,,,,,,,,,,,,,,,,,,,,,,,,,stimuli/alien_stimuli/16.png,conditions/schedules/train_x_first/red_square_00/bottom_right/inputInstr_2.xlsx,stimuli/alien_stimuli/16.png,712.0213008001447,712.0213008001447,712.0213008001447,712.0213008001447,712.0239795199595,return,10.377462499774992,"[-0.16, -0.08, 0, 0.08, 0.16, 0.24, 0.32, 0.4, 0.48, 0.56]","[-0.4, -0.32, -0.24, -0.16, -0.08, 0, 0.08, 0.16, 0.24, 0.32]",3,3,5,5,0.0,0.0,722.5795059003867,722.5795059003867,722.5795059003867,722.5795059003867,722.5795059003867,722.5795059003867,722.5795059003867,722.5654505998828,5.13871689978987,return,4.9532140996307135,stimuli/alien_stimuli/16.png,16,5,2,,,,,,,,,,,,,,,,,,,,,,,,,,,,,,,,,,,,,,,,,,,,,,,,,,,,,,,,,,,,,,,,,,,,,,,,,,,,,,,,,,,,,,,,,AHD6DK,train_x,red_square,bottom_right,2025-05-02_13h28.12.291,HideSeek_v1,2022.2.5,60.33484625247836,
,,,,,,,,,,,30,,,,4,0,4,0,,,,,,,,,,,,,,,,,,,,,,,,,,,,,,,,,,,,,,,,,,,,,,,,,,,,,,,,,,,,,,,,,,,,,,,,,,,,,,21,0.7,1.0,1,99,2,30,0,conditions/schedules/train_x_first/red_square_00/bottom_right/inputTrain_2.1.xlsx,99,1,2,1,0,,,,,,,,,,,,,,,,,,,,,,,,,,,,,,,,,,,,,,,,,,,,,,,,,,,,,,,,,,,,,,,,,,,,,,,,,,,AHD6DK,train_x,red_square,bottom_right,2025-05-02_13h28.12.291,HideSeek_v1,2022.2.5,60.33484625247836,
,,,,,,,,,,,,,,,5,0,5,0,0,0,0,0,,,,,,,,,,,,,,,,,,,,,,,,,,,,,,,conditions/schedules/train_x_first/red_square_00/bottom_right/instructions/Slide22.png,conditions/schedules/train_x_first/red_square_00/bottom_right/instructions/Audio22.wav,727.709525000304,727.7034693998285,22,"[3.635975199751556, 19.18151339981705, 16.444196100346744, 19.580345700029284, 4.253160399850458, 4.819974100217223, 5.435377399902791, 11.571935500018299, 5.787624599877745, 6.916951199993491, 9.32129540015012, 12.471311300061643, 17.415324500296265, 13.148144899867475, 30.68255060026422, 22.63932710001245, 49.66343760024756, 6.614895100239664, 9.869079999625683, 13.545506200287491, 4.003796699922532, 13.836121399886906]","[0.00022209994494915009, 0.014169900212436914, 16.444202600046992, 0.04962599975988269, 0.09896550001576543, 0.06419559987261891, 0.045560500118881464, 0.08220549998804927, 0.1446126000955701, 0.03094270033761859, 0.09485320001840591, 12.471318100113422, 0.032850699964910746, 13.14815240027383, 0.033918400295078754, 22.639334300067276, 0.00021370034664869308, 0.030857999809086323, 0.00022300006821751595, 13.545512900222093, 4.003803400322795, 13.836127899587154]",0,,,,,,,,,,,,,,,,,,,,,,,,,,,,,,,,,,,,,,,,,,,,,,,,,,,,,,,,,,,,,,,,,,,,,,,,,,,,,,,,,,,,,,,,,,,,,,,,,,,,,,,,,,,,,,,,,,,,,,,,,,,,AHD6DK,train_x,red_square,bottom_right,2025-05-02_13h28.12.291,HideSeek_v1,2022.2.5,60.33484625247836,
,5,0,5,1,0,1,15,,train_dim1_2,1,30,,,,5,0,5,0,,,,,,,,,0,0,0,0,0,0,0,0,0,0,0,0,,,,,,,,,,,,,,,,,,,,,,,,,stimuli/alien_stimuli/15.png,,,,,,,,,,,,,,,,,,,,,,,,,,,,,,,,,,,,,,,30,,,,,,,,741.6660752003081,741.6660752003081,741.6660752003081,741.6660752003081,741.6660752003081,return,2.461763700004667,0,1,0,0,0.24,-0.4,return,2.3416669997386634,6,-71,0.24,-0.4,,,,,,,,,,,,,,,,,,,,,,,,,,,,,,,,,,,,,,,,,,,,,,,,,,,,,,,,AHD6DK,train_x,red_square,bottom_right,2025-05-02_13h28.12.291,HideSeek_v1,2022.2.5,60.33484625247836,
,8,2,8,2,0,0,16,,train_dim1_2,2,30,,,,5,0,5,0,,,,,,,,,0,0,0,0,0,1,1,1,0,0,0,0,,,,,,,,,,,,,,,,,,,,,,,,,stimuli/alien_stimuli/16.png,,,,,,,,,,,,,,,,,,,,,,,,,,,,,stimuli/alien_stimuli/15.png,15,5,3,,,,,,,30,,,,,,,,750.8769686003216,750.8769686003216,750.8769686003216,750.8769686003216,750.8769686003216,return,3.5089637003839016,1,0,0,1,0.48,-0.24,return,3.417810899671167,6,-71,0.48,-0.24,749.3216675003059,750.8769686003216,0.24,-0.32,0.08,0.0,-0.36,0.24,0.24,0.24,-0.32,745.6864591999911,745.6864591999911,745.6864591999911,745.6864591999911,745.6864591999911,745.6864591999911,745.6864591999911,745.6864591999911,745.6852235300466,3.771644599735737,return,3.6048052995465696,,,,,,,,,,,,,,,,,,,,,,,,,,,,,,,,,AHD6DK,train_x,red_square,bottom_right,2025-05-02_13h28.12.291,HideSeek_v1,2022.2.5,60.33484625247836,
