trialInstr,x_fixStart,y_fixStart,x_corrSteps,y_corrSteps,x_nrSteps,y_nrSteps,alienID,trialLength,version,trialTrain,praclen,testlen,trial_label,break_on_off,beforeExpLoop.thisRepN,beforeExpLoop.thisTrialN,beforeExpLoop.thisN,beforeExpLoop.thisIndex,mini_instr_trials.thisRepN,mini_instr_trials.thisTrialN,mini_instr_trials.thisN,mini_instr_trials.thisIndex,instrLoop.thisRepN,instrLoop.thisTrialN,instrLoop.thisN,instrLoop.thisIndex,repeat_prac.thisRepN,repeat_prac.thisTrialN,repeat_prac.thisN,repeat_prac.thisIndex,trainLoop.thisRepN,trainLoop.thisTrialN,trainLoop.thisN,trainLoop.thisIndex,moveLoop_train.thisRepN,moveLoop_train.thisTrialN,moveLoop_train.thisN,moveLoop_train.thisIndex,experiment.thisRepN,experiment.thisTrialN,experiment.thisN,experiment.thisIndex,moveLoop_test.thisRepN,moveLoop_test.thisTrialN,moveLoop_test.thisN,moveLoop_test.thisIndex,mini_instr2_trials.thisRepN,mini_instr2_trials.thisTrialN,mini_instr2_trials.thisN,mini_instr2_trials.thisIndex,start_all_time,url,slideStim,audioStim,slides.started,sounds.started,nextButton.numClicks,nextButton.timesOn,nextButton.timesOff,prev_but.numClicks,prev_but.timesOn,prev_but.timesOff,alienStim,instrFile,alienStim_instr,gridImage_instr.started,startPos_3.started,key_instr.started,alienImage_3.started,sounds_1.started,key_instr.keys,key_instr.rt,all_x,all_y,FBy_corrSteps,FBy_fixStart,FBx_corrSteps,FBx_fixStart,FBy_pathSize_check,FBx_pathSize_check,gridImage_9.started,alienImageFB_3.started,startPosFB_3.started,keyFB_3.started,pathLine_ydir_2.started,pathLine_xdir_2.started,alienFace_3.started,sounds_2.started,RTFB_instr,keyFB_3.keys,keyFB_3.rt,draw_alienStim,draw_alienID,test_x,nrepcount,perfthres,percthres,earlierperf,earlystop,nextPrac,fileidx,praclen,saveACC_train,pracFile,nextPrac_train,addNrep,fileidx_endr,repExp,showearly,gridImage_4.started,startPos.started,movePos.started,key_resp.started,alienImage.started,wLy_dir,wLx_dir,x_movePos,y_movePos,buttonPress_train,RTchoice_train,cumAcctrain,aCorr,saveACC_choice,corrAns,x_movePos_end,y_movePos_end,key_resp.keys,key_resp.rt,text_2.started,text_2.stopped,aft_x_corrPos,aft_y_corrPos,y_pathSize_check,x_pathSize_check,y_pathdirY,x_pathdirY,x_pathdirX,x_corrPos,y_corrPos,gridImage_6.started,alienImageFB_2.started,startPosFB_2.started,movePosFB_2.started,keyFB_2.started,pathLine_xdir.started,pathLine_ydir.started,alienFace.started,sounds_4.started,RT_FBtrain,keyFB_2.keys,keyFB_2.rt,saveACC_pre,ACC,within_saveACC_train,earlystop_wloop,cumAcctrain_check,gridImage_3.started,alienImage_test.started,startPos_test.started,movePos_test.started,key_resp_test.started,wLy_dir_test,wLx_dir_test,buttonPress_test,RTchoice_test,cumAcctest,corrAns_test,key_resp_test.keys,key_resp_test.rt,text_3.started,text_3.stopped,total_time,end_all_time,key_resp_3.keys,slides_2.started,sounds_3.started,nextButton_2.numClicks,nextButton_2.timesOn,nextButton_2.timesOff,prev_but_2.numClicks,prev_but_2.timesOn,prev_but_2.timesOff,bye.started,participant,train_first,00_coordinate,starting corner,date,expName,psychopyVersion,frameRate,
,,,,,,,,,,,,,,,0,0,0,0,0,0,0,0,,,,,,,,,,,,,,,,,,,,,,,,,,,,,start_all_time,testround,conditions/schedules/train_x_first/red_square_00/top_right/instructions/Slide1.png,conditions/schedules/train_x_first/red_square_00/top_right/instructions/Audio1.wav,40.047745699994266,39.98995819943957,1,[9.794767400017008],[9.794780600001104],0,,,,,,,,,,,,,,,,,,,,,,,,,,,,,,,,,,,,,,,,,,,,,,,,,,,,,,,,,,,,,,,,,,,,,,,,,,,,,,,,,,,,,,,,,,,,,,,,,,,,,,,,,,,,,,,,,,,,,,,,,,,,AJM9RJ,train_x,red_square,top_right,2025-02-03_12h34.17.553,HideSeek_v1,2022.2.5,59.97361160545111,
,,,,,,,,,,,,,,,0,0,0,0,1,0,1,0,,,,,,,,,,,,,,,,,,,,,,,,,,,,,,,conditions/schedules/train_x_first/red_square_00/top_right/instructions/Slide2.png,conditions/schedules/train_x_first/red_square_00/top_right/instructions/Audio2.wav,49.86263420002069,49.86469049996231,2,"[9.794767400017008, 20.68448639998678]","[0.014416699996218085, 20.68449299992062]",0,,,,,,,,,,,,,,,,,,,,,,,,,,,,,,,,,,,,,,,,,,,,,,,,,,,,,,,,,,,,,,,,,,,,,,,,,,,,,,,,,,,,,,,,,,,,,,,,,,,,,,,,,,,,,,,,,,,,,,,,,,,,AJM9RJ,train_x,red_square,top_right,2025-02-03_12h34.17.553,HideSeek_v1,2022.2.5,59.97361160545111,
,,,,,,,,,,,,,,,0,0,0,0,2,0,2,0,,,,,,,,,,,,,,,,,,,,,,,,,,,,,,,conditions/schedules/train_x_first/red_square_00/top_right/instructions/Slide3.png,conditions/schedules/train_x_first/red_square_00/top_right/instructions/Audio3.wav,70.62311509996653,70.61588529997971,3,"[9.794767400017008, 20.68448639998678, 17.504142399993725]","[0.014416699996218085, 20.68449299992062, 17.504149400047027]",0,,,,,,,,,,,,,,,,,,,,,,,,,,,,,,,,,,,,,,,,,,,,,,,,,,,,,,,,,,,,,,,,,,,,,,,,,,,,,,,,,,,,,,,,,,,,,,,,,,,,,,,,,,,,,,,,,,,,,,,,,,,,AJM9RJ,train_x,red_square,top_right,2025-02-03_12h34.17.553,HideSeek_v1,2022.2.5,59.97361160545111,
,,,,,,,,,,,,,,,0,0,0,0,3,0,3,0,,,,,,,,,,,,,,,,,,,,,,,,,,,,,,,conditions/schedules/train_x_first/red_square_00/top_right/instructions/Slide4.png,conditions/schedules/train_x_first/red_square_00/top_right/instructions/Audio4.wav,88.19973630004097,88.19643050001469,4,"[9.794767400017008, 20.68448639998678, 17.504142399993725, 19.493909900076687]","[0.014416699996218085, 20.68449299992062, 0.03055980009958148, 19.493916800012812]",0,,,,,,,,,,,,,,,,,,,,,,,,,,,,,,,,,,,,,,,,,,,,,,,,,,,,,,,,,,,,,,,,,,,,,,,,,,,,,,,,,,,,,,,,,,,,,,,,,,,,,,,,,,,,,,,,,,,,,,,,,,,,AJM9RJ,train_x,red_square,top_right,2025-02-03_12h34.17.553,HideSeek_v1,2022.2.5,59.97361160545111,
,,,,,,,,,,,,,,,0,0,0,0,4,0,4,0,,,,,,,,,,,,,,,,,,,,,,,,,,,,,,,conditions/schedules/train_x_first/red_square_00/top_right/instructions/Slide5.png,conditions/schedules/train_x_first/red_square_00/top_right/instructions/Audio5.wav,107.75928070000373,107.7461330199847,5,"[9.794767400017008, 20.68448639998678, 17.504142399993725, 19.493909900076687, 4.988969800062478]","[0.014416699996218085, 20.68449299992062, 0.03055980009958148, 0.014461299986578524, 4.988977100001648]",0,,,,,,,,,,,,,,,,,,,,,,,,,,,,,,,,,,,,,,,,,,,,,,,,,,,,,,,,,,,,,,,,,,,,,,,,,,,,,,,,,,,,,,,,,,,,,,,,,,,,,,,,,,,,,,,,,,,,,,,,,,,,AJM9RJ,train_x,red_square,top_right,2025-02-03_12h34.17.553,HideSeek_v1,2022.2.5,59.97361160545111,
,,,,,,,,,,,,,,,0,0,0,0,5,0,5,0,,,,,,,,,,,,,,,,,,,,,,,,,,,,,,,conditions/schedules/train_x_first/red_square_00/top_right/instructions/Slide6.png,conditions/schedules/train_x_first/red_square_00/top_right/instructions/Audio6.wav,112.79828630003612,112.80014451995957,6,"[9.794767400017008, 20.68448639998678, 17.504142399993725, 19.493909900076687, 4.988969800062478, 4.886451600003056]","[0.014416699996218085, 20.68449299992062, 0.03055980009958148, 0.014461299986578524, 0.03274309996049851, 4.886459499946795]",0,,,,,,,,,,,,,,,,,,,,,,,,,,,,,,,,,,,,,,,,,,,,,,,,,,,,,,,,,,,,,,,,,,,,,,,,,,,,,,,,,,,,,,,,,,,,,,,,,,,,,,,,,,,,,,,,,,,,,,,,,,,,AJM9RJ,train_x,red_square,top_right,2025-02-03_12h34.17.553,HideSeek_v1,2022.2.5,59.97361160545111,
,,,,,,,,,,,,,,,0,0,0,0,6,0,6,0,,,,,,,,,,,,,,,,,,,,,,,,,,,,,,,conditions/schedules/train_x_first/red_square_00/top_right/instructions/Slide7.png,conditions/schedules/train_x_first/red_square_00/top_right/instructions/Audio7.wav,117.73510089993943,117.73752952001523,7,"[9.794767400017008, 20.68448639998678, 17.504142399993725, 19.493909900076687, 4.988969800062478, 4.886451600003056, 5.538069300004281]","[0.014416699996218085, 20.68449299992062, 0.03055980009958148, 0.014461299986578524, 0.03274309996049851, 0.06649520003702492, 5.538079200079665]",0,,,,,,,,,,,,,,,,,,,,,,,,,,,,,,,,,,,,,,,,,,,,,,,,,,,,,,,,,,,,,,,,,,,,,,,,,,,,,,,,,,,,,,,,,,,,,,,,,,,,,,,,,,,,,,,,,,,,,,,,,,,,AJM9RJ,train_x,red_square,top_right,2025-02-03_12h34.17.553,HideSeek_v1,2022.2.5,59.97361160545111,
,,,,,,,,,,,,,,,0,0,0,0,7,0,7,0,,,,,,,,,,,,,,,,,,,,,,,,,,,,,,,conditions/schedules/train_x_first/red_square_00/top_right/instructions/Slide8.png,conditions/schedules/train_x_first/red_square_00/top_right/instructions/Audio8.wav,123.325687799952,123.3256039199885,8,"[9.794767400017008, 20.68448639998678, 17.504142399993725, 19.493909900076687, 4.988969800062478, 4.886451600003056, 5.538069300004281, 11.974042600020766]","[0.014416699996218085, 20.68449299992062, 0.03055980009958148, 0.014461299986578524, 0.03274309996049851, 0.06649520003702492, 0.0471047000028193, 11.974049000069499]",0,,,,,,,,,,,,,,,,,,,,,,,,,,,,,,,,,,,,,,,,,,,,,,,,,,,,,,,,,,,,,,,,,,,,,,,,,,,,,,,,,,,,,,,,,,,,,,,,,,,,,,,,,,,,,,,,,,,,,,,,,,,,AJM9RJ,train_x,red_square,top_right,2025-02-03_12h34.17.553,HideSeek_v1,2022.2.5,59.97361160545111,
,,,,,,,,,,,,,,,0,0,0,0,8,0,8,0,,,,,,,,,,,,,,,,,,,,,,,,,,,,,,,conditions/schedules/train_x_first/red_square_00/top_right/instructions/Slide9.png,conditions/schedules/train_x_first/red_square_00/top_right/instructions/Audio9.wav,135.37089619995095,135.36907629994676,9,"[9.794767400017008, 20.68448639998678, 17.504142399993725, 19.493909900076687, 4.988969800062478, 4.886451600003056, 5.538069300004281, 11.974042600020766, 6.33445089997258]","[0.014416699996218085, 20.68449299992062, 0.03055980009958148, 0.014461299986578524, 0.03274309996049851, 0.06649520003702492, 0.0471047000028193, 0.03044280002359301, 6.334458600031212]",0,,,,,,,,,,,,,,,,,,,,,,,,,,,,,,,,,,,,,,,,,,,,,,,,,,,,,,,,,,,,,,,,,,,,,,,,,,,,,,,,,,,,,,,,,,,,,,,,,,,,,,,,,,,,,,,,,,,,,,,,,,,,AJM9RJ,train_x,red_square,top_right,2025-02-03_12h34.17.553,HideSeek_v1,2022.2.5,59.97361160545111,
,,,,,,,,,,,,,,,0,0,0,0,9,0,9,0,,,,,,,,,,,,,,,,,,,,,,,,,,,,,,,conditions/schedules/train_x_first/red_square_00/top_right/instructions/Slide10.png,conditions/schedules/train_x_first/red_square_00/top_right/instructions/Audio10.wav,141.742999900016,141.74076114003546,10,"[9.794767400017008, 20.68448639998678, 17.504142399993725, 19.493909900076687, 4.988969800062478, 4.886451600003056, 5.538069300004281, 11.974042600020766, 6.33445089997258, 6.900770299951546]","[0.014416699996218085, 20.68449299992062, 0.03055980009958148, 0.014461299986578524, 0.03274309996049851, 0.06649520003702492, 0.0471047000028193, 0.03044280002359301, 0.07883250003214926, 6.90077680000104]",0,,,,,,,,,,,,,,,,,,,,,,,,,,,,,,,,,,,,,,,,,,,,,,,,,,,,,,,,,,,,,,,,,,,,,,,,,,,,,,,,,,,,,,,,,,,,,,,,,,,,,,,,,,,,,,,,,,,,,,,,,,,,AJM9RJ,train_x,red_square,top_right,2025-02-03_12h34.17.553,HideSeek_v1,2022.2.5,59.97361160545111,
,,,,,,,,,,,,,,,0,0,0,0,10,0,10,0,,,,,,,,,,,,,,,,,,,,,,,,,,,,,,,conditions/schedules/train_x_first/red_square_00/top_right/instructions/Slide11.png,conditions/schedules/train_x_first/red_square_00/top_right/instructions/Audio11.wav,148.69877589994576,148.69666252001187,11,"[9.794767400017008, 20.68448639998678, 17.504142399993725, 19.493909900076687, 4.988969800062478, 4.886451600003056, 5.538069300004281, 11.974042600020766, 6.33445089997258, 6.900770299951546, 9.886889999965206]","[0.014416699996218085, 20.68449299992062, 0.03055980009958148, 0.014461299986578524, 0.03274309996049851, 0.06649520003702492, 0.0471047000028193, 0.03044280002359301, 0.07883250003214926, 0.04592629999388009, 9.8868965000147]",0,,,,,,,,,,,,,,,,,,,,,,,,,,,,,,,,,,,,,,,,,,,,,,,,,,,,,,,,,,,,,,,,,,,,,,,,,,,,,,,,,,,,,,,,,,,,,,,,,,,,,,,,,,,,,,,,,,,,,,,,,,,,AJM9RJ,train_x,red_square,top_right,2025-02-03_12h34.17.553,HideSeek_v1,2022.2.5,59.97361160545111,
,,,,,,,,,,,,,,,0,0,0,0,11,0,11,0,,,,,,,,,,,,,,,,,,,,,,,,,,,,,,,conditions/schedules/train_x_first/red_square_00/top_right/instructions/Slide12.png,conditions/schedules/train_x_first/red_square_00/top_right/instructions/Audio12.wav,158.65825960005168,158.6549299999606,12,"[9.794767400017008, 20.68448639998678, 17.504142399993725, 19.493909900076687, 4.988969800062478, 4.886451600003056, 5.538069300004281, 11.974042600020766, 6.33445089997258, 6.900770299951546, 9.886889999965206, 12.488420699955896]","[0.014416699996218085, 20.68449299992062, 0.03055980009958148, 0.014461299986578524, 0.03274309996049851, 0.06649520003702492, 0.0471047000028193, 0.03044280002359301, 0.07883250003214926, 0.04592629999388009, 0.04679980000946671, 12.48842720000539]",0,,,,,,,,,,,,,,,,,,,,,,,,,,,,,,,,,,,,,,,,,,,,,,,,,,,,,,,,,,,,,,,,,,,,,,,,,,,,,,,,,,,,,,,,,,,,,,,,,,,,,,,,,,,,,,,,,,,,,,,,,,,,AJM9RJ,train_x,red_square,top_right,2025-02-03_12h34.17.553,HideSeek_v1,2022.2.5,59.97361160545111,
1,8,7,3,7,-5,0,66,2,instr_dim1_1,,,,,,0,0,0,0,,,,,0,0,0,0,,,,,,,,,,,,,,,,,,,,,,,,,,,,,,,,,,,,,stimuli/alien_stimuli/66.png,conditions/schedules/train_x_first/red_square_00/top_right/inputInstr_1.xlsx,stimuli/alien_stimuli/66.png,171.24885610002093,171.24885610002093,171.24885610002093,171.24885610002093,171.2487661599647,return,8.840361700044014,"[-0.16, -0.08, 0, 0.08, 0.16, 0.24, 0.32, 0.4, 0.48, 0.56]","[-0.4, -0.32, -0.24, -0.16, -0.08, 0, 0.08, 0.16, 0.24, 0.32]",7,7,3,8,0.0,0.4,180.2329740000423,180.2329740000423,180.2329740000423,180.2329740000423,180.2329740000423,180.2329740000423,180.2329740000423,180.2228664399823,9.492047199979424,return,9.34734649991151,stimuli/alien_stimuli/66.png,66,8,1,,,,,,,,,,,,,,,,,,,,,,,,,,,,,,,,,,,,,,,,,,,,,,,,,,,,,,,,,,,,,,,,,,,,,,,,,,,,,,,,,,,,,,,,,AJM9RJ,train_x,red_square,top_right,2025-02-03_12h34.17.553,HideSeek_v1,2022.2.5,59.97361160545111,
,,,,,,,,,,,30,,,,0,0,0,0,,,,,,,,,,,,,,,,,,,,,,,,,,,,,,,,,,,,,,,,,,,,,,,,,,,,,,,,,,,,,,,,,,,,,,,,,,,,,,21,0.7,0,0,99,1,30,0,conditions/schedules/train_x_first/red_square_00/top_right/inputTrain_1.1.xlsx,99,1,1,1,0,,,,,,,,,,,,,,,,,,,,,,,,,,,,,,,,,,,,,,,,,,,,,,,,,,,,,,,,,,,,,,,,,,,,,,,,,,,AJM9RJ,train_x,red_square,top_right,2025-02-03_12h34.17.553,HideSeek_v1,2022.2.5,59.97361160545111,
,,,,,,,,,,,,,,,1,0,1,0,0,0,0,0,,,,,,,,,,,,,,,,,,,,,,,,,,,,,,,conditions/schedules/train_x_first/red_square_00/top_right/instructions/Slide13.png,conditions/schedules/train_x_first/red_square_00/top_right/instructions/Audio13.wav,189.72612620005384,189.7140035400167,13,"[9.794767400017008, 20.68448639998678, 17.504142399993725, 19.493909900076687, 4.988969800062478, 4.886451600003056, 5.538069300004281, 11.974042600020766, 6.33445089997258, 6.900770299951546, 9.886889999965206, 12.488420699955896, 16.76573769992683]","[0.014416699996218085, 20.68449299992062, 0.03055980009958148, 0.014461299986578524, 0.03274309996049851, 0.06649520003702492, 0.0471047000028193, 0.03044280002359301, 0.07883250003214926, 0.04592629999388009, 0.04679980000946671, 12.48842720000539, 16.765744799980894]",0,,,,,,,,,,,,,,,,,,,,,,,,,,,,,,,,,,,,,,,,,,,,,,,,,,,,,,,,,,,,,,,,,,,,,,,,,,,,,,,,,,,,,,,,,,,,,,,,,,,,,,,,,,,,,,,,,,,,,,,,,,,,AJM9RJ,train_x,red_square,top_right,2025-02-03_12h34.17.553,HideSeek_v1,2022.2.5,59.97361160545111,
,,,,,,,,,,,,,,,1,0,1,0,1,0,1,0,,,,,,,,,,,,,,,,,,,,,,,,,,,,,,,conditions/schedules/train_x_first/red_square_00/top_right/instructions/Slide14.png,conditions/schedules/train_x_first/red_square_00/top_right/instructions/Audio14.wav,206.57053360005375,206.56125739996787,14,"[9.794767400017008, 20.68448639998678, 17.504142399993725, 19.493909900076687, 4.988969800062478, 4.886451600003056, 5.538069300004281, 11.974042600020766, 6.33445089997258, 6.900770299951546, 9.886889999965206, 12.488420699955896, 16.76573769992683, 12.915359699982218]","[0.014416699996218085, 20.68449299992062, 0.03055980009958148, 0.014461299986578524, 0.03274309996049851, 0.06649520003702492, 0.0471047000028193, 0.03044280002359301, 0.07883250003214926, 0.04592629999388009, 0.04679980000946671, 12.48842720000539, 0.054556299932301044, 12.915366499917582]",0,,,,,,,,,,,,,,,,,,,,,,,,,,,,,,,,,,,,,,,,,,,,,,,,,,,,,,,,,,,,,,,,,,,,,,,,,,,,,,,,,,,,,,,,,,,,,,,,,,,,,,,,,,,,,,,,,,,,,,,,,,,,AJM9RJ,train_x,red_square,top_right,2025-02-03_12h34.17.553,HideSeek_v1,2022.2.5,59.97361160545111,
2,9,5,9,5,0,0,16,2,instr_dim1_1,,,,,,1,0,1,0,,,,,0,0,0,0,,,,,,,,,,,,,,,,,,,,,,,,,,,,,,,,,,,,,stimuli/alien_stimuli/16.png,conditions/schedules/train_x_first/red_square_00/top_right/inputInstr_1.xlsx,stimuli/alien_stimuli/16.png,219.58895510004368,219.58895510004368,219.58895510004368,219.58895510004368,219.58853186001068,return,6.355904399999417,"[-0.16, -0.08, 0, 0.08, 0.16, 0.24, 0.32, 0.4, 0.48, 0.56]","[-0.4, -0.32, -0.24, -0.16, -0.08, 0, 0.08, 0.16, 0.24, 0.32]",5,5,9,9,0.0,0.0,226.09893580002245,226.09893580002245,226.09893580002245,226.09893580002245,226.09893580002245,226.09893580002245,226.09893580002245,226.0773943599546,8.22440910001751,return,8.071373900049366,stimuli/alien_stimuli/16.png,16,9,2,,,,,,,,,,,,,,,,,,,,,,,,,,,,,,,,,,,,,,,,,,,,,,,,,,,,,,,,,,,,,,,,,,,,,,,,,,,,,,,,,,,,,,,,,AJM9RJ,train_x,red_square,top_right,2025-02-03_12h34.17.553,HideSeek_v1,2022.2.5,59.97361160545111,
,,,,,,,,,,,30,,,,1,0,1,0,,,,,,,,,,,,,,,,,,,,,,,,,,,,,,,,,,,,,,,,,,,,,,,,,,,,,,,,,,,,,,,,,,,,,,,,,,,,,,21,0.7,0,0,99,1,30,0,conditions/schedules/train_x_first/red_square_00/top_right/inputTrain_1.1.xlsx,99,1,1,1,0,,,,,,,,,,,,,,,,,,,,,,,,,,,,,,,,,,,,,,,,,,,,,,,,,,,,,,,,,,,,,,,,,,,,,,,,,,,AJM9RJ,train_x,red_square,top_right,2025-02-03_12h34.17.553,HideSeek_v1,2022.2.5,59.97361160545111,
,,,,,,,,,,,,,,,2,0,2,0,0,0,0,0,,,,,,,,,,,,,,,,,,,,,,,,,,,,,,,conditions/schedules/train_x_first/red_square_00/top_right/instructions/Slide15.png,conditions/schedules/train_x_first/red_square_00/top_right/instructions/Audio15.wav,234.33612780005205,234.3341886199312,15,"[9.794767400017008, 20.68448639998678, 17.504142399993725, 19.493909900076687, 4.988969800062478, 4.886451600003056, 5.538069300004281, 11.974042600020766, 6.33445089997258, 6.900770299951546, 9.886889999965206, 12.488420699955896, 16.76573769992683, 12.915359699982218, 31.954514699988067]","[0.014416699996218085, 20.68449299992062, 0.03055980009958148, 0.014461299986578524, 0.03274309996049851, 0.06649520003702492, 0.0471047000028193, 0.03044280002359301, 0.07883250003214926, 0.04592629999388009, 0.04679980000946671, 12.48842720000539, 0.054556299932301044, 12.915366499917582, 31.954521300038323]",0,,,,,,,,,,,,,,,,,,,,,,,,,,,,,,,,,,,,,,,,,,,,,,,,,,,,,,,,,,,,,,,,,,,,,,,,,,,,,,,,,,,,,,,,,,,,,,,,,,,,,,,,,,,,,,,,,,,,,,,,,,,,AJM9RJ,train_x,red_square,top_right,2025-02-03_12h34.17.553,HideSeek_v1,2022.2.5,59.97361160545111,
,,,,,,,,,,,,,,,2,0,2,0,1,0,1,0,,,,,,,,,,,,,,,,,,,,,,,,,,,,,,,conditions/schedules/train_x_first/red_square_00/top_right/instructions/Slide16.png,conditions/schedules/train_x_first/red_square_00/top_right/instructions/Audio16.wav,266.3670159999747,266.36076289997436,16,"[9.794767400017008, 20.68448639998678, 17.504142399993725, 19.493909900076687, 4.988969800062478, 4.886451600003056, 5.538069300004281, 11.974042600020766, 6.33445089997258, 6.900770299951546, 9.886889999965206, 12.488420699955896, 16.76573769992683, 12.915359699982218, 31.954514699988067, 21.925997199956328]","[0.014416699996218085, 20.68449299992062, 0.03055980009958148, 0.014461299986578524, 0.03274309996049851, 0.06649520003702492, 0.0471047000028193, 0.03044280002359301, 0.07883250003214926, 0.04592629999388009, 0.04679980000946671, 12.48842720000539, 0.054556299932301044, 12.915366499917582, 0.04742439999245107, 21.92600360000506]",0,,,,,,,,,,,,,,,,,,,,,,,,,,,,,,,,,,,,,,,,,,,,,,,,,,,,,,,,,,,,,,,,,,,,,,,,,,,,,,,,,,,,,,,,,,,,,,,,,,,,,,,,,,,,,,,,,,,,,,,,,,,,AJM9RJ,train_x,red_square,top_right,2025-02-03_12h34.17.553,HideSeek_v1,2022.2.5,59.97361160545111,
,7,6,4,6,-3,0,46,,train_dim1_1,1,30,,,,2,0,2,0,,,,,,,,,0,0,0,0,0,0,0,0,0,0,0,0,,,,,,,,,,,,,,,,,,,,,,,,,stimuli/alien_stimuli/46.png,,,,,,,,,,,,,,,,,,,,,,,,,,,,,,,,,,,,,,,30,,,,,,,,288.39332060003653,288.39332060003653,288.39332060003653,288.39332060003653,288.39332060003653,0,0,0.4,0.08,return,0.26076860004104674,0,0,0,0,0.4,0.08,return,0.16482149995863438,,,,,,,,,,,,,,,,,,,,,,,,,,,,,,,,,,,,,,,,,,,,,,,,,,,,,,,,AJM9RJ,train_x,red_square,top_right,2025-02-03_12h34.17.553,HideSeek_v1,2022.2.5,59.97361160545111,
,7,9,7,9,0,0,16,,train_dim1_1,2,30,,,,2,0,2,0,,,,,,,,,0,0,0,0,0,1,1,1,0,0,0,0,,,,,,,,,,,,,,,,,,,,,,,,,stimuli/alien_stimuli/16.png,,,,,,,,,,,,,,,,,,,,,,,,,,,,,stimuli/alien_stimuli/46.png,46,7,3,,,,,,,30,,,,,,,,316.8100247000111,316.8100247000111,316.8100247000111,316.8100247000111,316.8100247000111,0,0,0.4,0.32,return,6.411000300082378,1,0,0,1,0.4,0.32,return,6.306685999967158,315.23479549994227,316.8100247000111,0.16,0.08,0.0,0.24,0.08,0.16,0.28,0.16,0.08,290.2066565999994,290.2066565999994,290.2066565999994,290.2066565999994,290.2066565999994,290.2066565999994,290.2066565999994,290.2066565999994,290.1973623599391,25.139806700055487,return,25.010603800066747,,,,,,,,,,,,,,,,,,,,,,,,,,,,,,,,,AJM9RJ,train_x,red_square,top_right,2025-02-03_12h34.17.553,HideSeek_v1,2022.2.5,59.97361160545111,
,9,9,8,9,-1,0,26,,train_dim1_1,3,30,,,,2,0,2,0,,,,,,,,,0,0,0,0,0,2,2,2,0,0,0,0,,,,,,,,,,,,,,,,,,,,,,,,,stimuli/alien_stimuli/26.png,,,,,,,,,,,,,,,,,,,,,,,,,,,,,stimuli/alien_stimuli/16.png,16,7,4,,,,,,,30,,,,,,,,334.75092759996187,334.75092759996187,334.75092759996187,334.75092759996187,334.75092759996187,,,,,left,4.655681999982335,1,0,0,99,0.48000000000000004,0.32,left,4.568478800007142,333.1829434999963,334.75092759996187,0.4,0.32,0.0,0.0,0.32,0.4,0.4,0.4,0.32,324.7815295000328,324.7815295000328,324.7815295000328,324.7815295000328,324.7815295000328,324.7815295000328,324.7815295000328,324.7815295000328,324.77584253998936,8.52606319996994,return,8.373438299982809,,,,,,,,,,,,,,,,,,,,,,,,,,,,,,,,,AJM9RJ,train_x,red_square,top_right,2025-02-03_12h34.17.553,HideSeek_v1,2022.2.5,59.97361160545111,
,9,9,8,9,-1,0,26,,train_dim1_1,3,30,,,,2,0,2,0,,,,,,,,,0,0,0,0,0,2,2,2,1,0,1,0,,,,,,,,,,,,,,,,,,,,,,,,,,,,,,,,,,,,,,,,,,,,,,,,,,,,,,,,,,,,,,,,30,,,,,,,,339.4055514000356,339.4055514000356,339.4055514000356,339.4055514000356,339.4055514000356,0,-1,0.48000000000000004,0.32,return,2.578040699940175,2,0,0,1,0.48000000000000004,0.32,return,2.4967856999719515,,,,,,,,,,,,,,,,,,,,,,,,,,,,,,,,,,,,,,,,,,,,,,,,,,,,,,,,AJM9RJ,train_x,red_square,top_right,2025-02-03_12h34.17.553,HideSeek_v1,2022.2.5,59.97361160545111,
,7,8,3,8,-4,0,56,,train_dim1_1,4,30,,,,2,0,2,0,,,,,,,,,0,0,0,0,0,3,3,3,0,0,0,0,,,,,,,,,,,,,,,,,,,,,,,,,stimuli/alien_stimuli/56.png,,,,,,,,,,,,,,,,,,,,,,,,,,,,,stimuli/alien_stimuli/26.png,26,9,5,,,,,,,30,,,,,,,,347.2609980000416,347.2609980000416,347.2609980000416,347.2609980000416,347.2609980000416,,,,,left,3.038115600007586,2,0,0,99,0.32,0.24,left,2.935492599965073,345.6764532000525,347.2609980000416,0.48,0.32,0.0,0.08,0.32,0.48,0.52,0.48,0.32,343.55196429998614,343.55196429998614,343.55196429998614,343.55196429998614,343.55196429998614,343.55196429998614,343.55196429998614,343.55196429998614,343.5415243599331,2.236857899930328,return,2.0927063999697566,,,,,,,,,,,,,,,,,,,,,,,,,,,,,,,,,AJM9RJ,train_x,red_square,top_right,2025-02-03_12h34.17.553,HideSeek_v1,2022.2.5,59.97361160545111,
,7,8,3,8,-4,0,56,,train_dim1_1,4,30,,,,2,0,2,0,,,,,,,,,0,0,0,0,0,3,3,3,1,0,1,0,,,,,,,,,,,,,,,,,,,,,,,,,,,,,,,,,,,,,,,,,,,,,,,,,,,,,,,,,,,,,,,,30,,,,,,,,350.27922150003724,350.27922150003724,350.27922150003724,350.27922150003724,350.27922150003724,,,,,left,1.3272236000047997,2,0,0,99,0.24,0.24,left,1.2518952999962494,,,,,,,,,,,,,,,,,,,,,,,,,,,,,,,,,,,,,,,,,,,,,,,,,,,,,,,,AJM9RJ,train_x,red_square,top_right,2025-02-03_12h34.17.553,HideSeek_v1,2022.2.5,59.97361160545111,
,7,8,3,8,-4,0,56,,train_dim1_1,4,30,,,,2,0,2,0,,,,,,,,,0,0,0,0,0,3,3,3,2,0,2,0,,,,,,,,,,,,,,,,,,,,,,,,,,,,,,,,,,,,,,,,,,,,,,,,,,,,,,,,,,,,,,,,30,,,,,,,,351.6138740000315,351.6138740000315,351.6138740000315,351.6138740000315,351.6138740000315,,,,,left,3.028923699981533,2,0,0,99,0.15999999999999998,0.24,left,2.947157399961725,,,,,,,,,,,,,,,,,,,,,,,,,,,,,,,,,,,,,,,,,,,,,,,,,,,,,,,,AJM9RJ,train_x,red_square,top_right,2025-02-03_12h34.17.553,HideSeek_v1,2022.2.5,59.97361160545111,
,7,8,3,8,-4,0,56,,train_dim1_1,4,30,,,,2,0,2,0,,,,,,,,,0,0,0,0,0,3,3,3,3,0,3,0,,,,,,,,,,,,,,,,,,,,,,,,,,,,,,,,,,,,,,,,,,,,,,,,,,,,,,,,,,,,,,,,30,,,,,,,,354.64993620000314,354.64993620000314,354.64993620000314,354.64993620000314,354.64993620000314,,,,,left,1.377529100049287,2,0,0,99,0.07999999999999997,0.24,left,1.2862269999459386,,,,,,,,,,,,,,,,,,,,,,,,,,,,,,,,,,,,,,,,,,,,,,,,,,,,,,,,AJM9RJ,train_x,red_square,top_right,2025-02-03_12h34.17.553,HideSeek_v1,2022.2.5,59.97361160545111,
,7,8,3,8,-4,0,56,,train_dim1_1,4,30,,,,2,0,2,0,,,,,,,,,0,0,0,0,0,3,3,3,4,0,4,0,,,,,,,,,,,,,,,,,,,,,,,,,,,,,,,,,,,,,,,,,,,,,,,,,,,,,,,,,,,,,,,,30,,,,,,,,356.03399489994626,356.03399489994626,356.03399489994626,356.03399489994626,356.03399489994626,,,,,left,1.2270729000447318,2,0,0,99,-2.7755575615628914e-17,0.24,left,1.1485042000422254,,,,,,,,,,,,,,,,,,,,,,,,,,,,,,,,,,,,,,,,,,,,,,,,,,,,,,,,AJM9RJ,train_x,red_square,top_right,2025-02-03_12h34.17.553,HideSeek_v1,2022.2.5,59.97361160545111,
,7,8,3,8,-4,0,56,,train_dim1_1,4,30,,,,2,0,2,0,,,,,,,,,0,0,0,0,0,3,3,3,5,0,5,0,,,,,,,,,,,,,,,,,,,,,,,,,,,,,,,,,,,,,,,,,,,,,,,,,,,,,,,,,,,,,,,,30,,,,,,,,357.26859939994756,357.26859939994756,357.26859939994756,357.26859939994756,357.26859939994756,0,-6,-2.7755575615628914e-17,0.24,return,1.077037899987772,2,1,0,0,-2.7755575615628914e-17,0.24,return,0.9947208999656141,,,,,,,,,,,,,,,,,,,,,,,,,,,,,,,,,,,,,,,,,,,,,,,,,,,,,,,,AJM9RJ,train_x,red_square,top_right,2025-02-03_12h34.17.553,HideSeek_v1,2022.2.5,59.97361160545111,
,5,7,0,7,-5,0,66,,train_dim1_1,5,30,,,,2,0,2,0,,,,,,,,,0,0,0,0,0,4,4,4,0,0,0,0,,,,,,,,,,,,,,,,,,,,,,,,,stimuli/alien_stimuli/66.png,,,,,,,,,,,,,,,,,,,,,,,,,,,,,stimuli/alien_stimuli/56.png,56,7,6,,,,,,,30,,,,,,,,384.21126050001476,384.21126050001476,384.21126050001476,384.21126050001476,384.21126050001476,,,,,left,3.4855509999906644,2,1,0,99,0.15999999999999998,0.16,left,3.3961687999544665,382.6405251000542,384.21126050001476,0.08,0.24,0.0,0.32,0.24,0.08,0.24000000000000002,0.08,0.24,359.9226739000296,359.9226739000296,359.9226739000296,359.9226739000296,359.9226739000296,359.9226739000296,359.9226739000296,359.9226739000296,359.9049722599797,22.837793400045484,return,22.69445079995785,,,,,,,,,,,,,,,,,,,,,,,,,,,,,,,,,AJM9RJ,train_x,red_square,top_right,2025-02-03_12h34.17.553,HideSeek_v1,2022.2.5,59.97361160545111,
,5,7,0,7,-5,0,66,,train_dim1_1,5,30,,,,2,0,2,0,,,,,,,,,0,0,0,0,0,4,4,4,1,0,1,0,,,,,,,,,,,,,,,,,,,,,,,,,,,,,,,,,,,,,,,,,,,,,,,,,,,,,,,,,,,,,,,,30,,,,,,,,387.6923630000092,387.6923630000092,387.6923630000092,387.6923630000092,387.6923630000092,,,,,left,1.0933735999278724,2,1,0,99,0.07999999999999997,0.16,left,1.01476059993729,,,,,,,,,,,,,,,,,,,,,,,,,,,,,,,,,,,,,,,,,,,,,,,,,,,,,,,,AJM9RJ,train_x,red_square,top_right,2025-02-03_12h34.17.553,HideSeek_v1,2022.2.5,59.97361160545111,
,5,7,0,7,-5,0,66,,train_dim1_1,5,30,,,,2,0,2,0,,,,,,,,,0,0,0,0,0,4,4,4,2,0,2,0,,,,,,,,,,,,,,,,,,,,,,,,,,,,,,,,,,,,,,,,,,,,,,,,,,,,,,,,,,,,,,,,30,,,,,,,,388.79184339998756,388.79184339998756,388.79184339998756,388.79184339998756,388.79184339998756,,,,,left,1.093776199966669,2,1,0,99,-2.7755575615628914e-17,0.16,left,1.0211087999632582,,,,,,,,,,,,,,,,,,,,,,,,,,,,,,,,,,,,,,,,,,,,,,,,,,,,,,,,AJM9RJ,train_x,red_square,top_right,2025-02-03_12h34.17.553,HideSeek_v1,2022.2.5,59.97361160545111,
,5,7,0,7,-5,0,66,,train_dim1_1,5,30,,,,2,0,2,0,,,,,,,,,0,0,0,0,0,4,4,4,3,0,3,0,,,,,,,,,,,,,,,,,,,,,,,,,,,,,,,,,,,,,,,,,,,,,,,,,,,,,,,,,,,,,,,,30,,,,,,,,389.8920732999686,389.8920732999686,389.8920732999686,389.8920732999686,389.8920732999686,,,,,left,1.0270322000142187,2,1,0,99,-0.08000000000000003,0.16,left,0.9404591000638902,,,,,,,,,,,,,,,,,,,,,,,,,,,,,,,,,,,,,,,,,,,,,,,,,,,,,,,,AJM9RJ,train_x,red_square,top_right,2025-02-03_12h34.17.553,HideSeek_v1,2022.2.5,59.97361160545111,
,5,7,0,7,-5,0,66,,train_dim1_1,5,30,,,,2,0,2,0,,,,,,,,,0,0,0,0,0,4,4,4,4,0,4,0,,,,,,,,,,,,,,,,,,,,,,,,,,,,,,,,,,,,,,,,,,,,,,,,,,,,,,,,,,,,,,,,30,,,,,,,,390.92737329995725,390.92737329995725,390.92737329995725,390.92737329995725,390.92737329995725,,,,,left,0.8436119999969378,2,1,0,99,-0.16000000000000003,0.16,left,0.7635372000513598,,,,,,,,,,,,,,,,,,,,,,,,,,,,,,,,,,,,,,,,,,,,,,,,,,,,,,,,AJM9RJ,train_x,red_square,top_right,2025-02-03_12h34.17.553,HideSeek_v1,2022.2.5,59.97361160545111,
,5,7,0,7,-5,0,66,,train_dim1_1,5,30,,,,2,0,2,0,,,,,,,,,0,0,0,0,0,4,4,4,5,0,5,0,,,,,,,,,,,,,,,,,,,,,,,,,,,,,,,,,,,,,,,,,,,,,,,,,,,,,,,,,,,,,,,,30,,,,,,,,391.7774389999686,391.7774389999686,391.7774389999686,391.7774389999686,391.7774389999686,0,-11,-0.16000000000000003,0.16,return,3.145635300083086,3,0,0,1,-0.16000000000000003,0.16,return,3.0609906000318006,,,,,,,,,,,,,,,,,,,,,,,,,,,,,,,,,,,,,,,,,,,,,,,,,,,,,,,,AJM9RJ,train_x,red_square,top_right,2025-02-03_12h34.17.553,HideSeek_v1,2022.2.5,59.97361160545111,
,5,5,4,5,-1,0,26,,train_dim1_1,6,30,,,,2,0,2,0,,,,,,,,,0,0,0,0,0,5,5,5,0,0,0,0,,,,,,,,,,,,,,,,,,,,,,,,,stimuli/alien_stimuli/26.png,,,,,,,,,,,,,,,,,,,,,,,,,,,,,stimuli/alien_stimuli/66.png,66,5,7,,,,,,,30,,,,,,,,400.23898769996595,400.23898769996595,400.23898769996595,400.23898769996595,400.23898769996595,,,,,left,10.395321300020441,3,0,0,99,0.15999999999999998,0,left,10.290225900011137,398.65384529996663,400.23898769996595,-0.16,0.16,0.0,0.4,0.16,-0.16,0.039999999999999994,-0.16,0.16,396.50085810001474,396.50085810001474,396.50085810001474,396.50085810001474,396.50085810001474,396.50085810001474,396.50085810001474,396.50085810001474,396.48533735992385,2.2710211999947205,return,2.1347297000465915,,,,,,,,,,,,,,,,,,,,,,,,,,,,,,,,,AJM9RJ,train_x,red_square,top_right,2025-02-03_12h34.17.553,HideSeek_v1,2022.2.5,59.97361160545111,
,5,5,4,5,-1,0,26,,train_dim1_1,6,30,,,,2,0,2,0,,,,,,,,,0,0,0,0,0,5,5,5,1,0,1,0,,,,,,,,,,,,,,,,,,,,,,,,,,,,,,,,,,,,,,,,,,,,,,,,,,,,,,,,,,,,,,,,30,,,,,,,,410.6270149999764,410.6270149999764,410.6270149999764,410.6270149999764,410.6270149999764,0,-12,0.15999999999999998,0,return,4.279287199955434,4,0,0,1,0.15999999999999998,0,return,4.18525880004745,,,,,,,,,,,,,,,,,,,,,,,,,,,,,,,,,,,,,,,,,,,,,,,,,,,,,,,,AJM9RJ,train_x,red_square,top_right,2025-02-03_12h34.17.553,HideSeek_v1,2022.2.5,59.97361160545111,
,8,5,3,5,-5,0,66,,train_dim1_1,7,30,,,,2,0,2,0,,,,,,,,,0,0,0,0,0,6,6,6,0,0,0,0,,,,,,,,,,,,,,,,,,,,,,,,,stimuli/alien_stimuli/66.png,,,,,,,,,,,,,,,,,,,,,,,,,,,,,stimuli/alien_stimuli/26.png,26,5,8,,,,,,,30,,,,,,,,420.3495831999462,420.3495831999462,420.3495831999462,420.3495831999462,420.3495831999462,,,,,left,2.107564299949445,4,0,0,99,0.39999999999999997,0,left,1.993785500060767,418.770536200027,420.3495831999462,0.16,0,0.0,0.08,0.0,0.16,0.2,0.16,0,416.481074100011,416.481074100011,416.481074100011,416.481074100011,416.481074100011,416.481074100011,416.481074100011,416.481074100011,416.46855663999446,2.420760600012727,return,2.269314100034535,,,,,,,,,,,,,,,,,,,,,,,,,,,,,,,,,AJM9RJ,train_x,red_square,top_right,2025-02-03_12h34.17.553,HideSeek_v1,2022.2.5,59.97361160545111,
,8,5,3,5,-5,0,66,,train_dim1_1,7,30,,,,2,0,2,0,,,,,,,,,0,0,0,0,0,6,6,6,1,0,1,0,,,,,,,,,,,,,,,,,,,,,,,,,,,,,,,,,,,,,,,,,,,,,,,,,,,,,,,,,,,,,,,,30,,,,,,,,422.43684270000085,422.43684270000085,422.43684270000085,422.43684270000085,422.43684270000085,,,,,left,1.0435166999232024,4,0,0,99,0.31999999999999995,0,left,0.9714442000258714,,,,,,,,,,,,,,,,,,,,,,,,,,,,,,,,,,,,,,,,,,,,,,,,,,,,,,,,AJM9RJ,train_x,red_square,top_right,2025-02-03_12h34.17.553,HideSeek_v1,2022.2.5,59.97361160545111,
,8,5,3,5,-5,0,66,,train_dim1_1,7,30,,,,2,0,2,0,,,,,,,,,0,0,0,0,0,6,6,6,2,0,2,0,,,,,,,,,,,,,,,,,,,,,,,,,,,,,,,,,,,,,,,,,,,,,,,,,,,,,,,,,,,,,,,,30,,,,,,,,423.4874881999567,423.4874881999567,423.4874881999567,423.4874881999567,423.4874881999567,,,,,left,1.1769756999565288,4,0,0,99,0.23999999999999994,0,left,1.1030319998972118,,,,,,,,,,,,,,,,,,,,,,,,,,,,,,,,,,,,,,,,,,,,,,,,,,,,,,,,AJM9RJ,train_x,red_square,top_right,2025-02-03_12h34.17.553,HideSeek_v1,2022.2.5,59.97361160545111,
,8,5,3,5,-5,0,66,,train_dim1_1,7,30,,,,2,0,2,0,,,,,,,,,0,0,0,0,0,6,6,6,3,0,3,0,,,,,,,,,,,,,,,,,,,,,,,,,,,,,,,,,,,,,,,,,,,,,,,,,,,,,,,,,,,,,,,,30,,,,,,,,424.6720331000397,424.6720331000397,424.6720331000397,424.6720331000397,424.6720331000397,,,,,left,3.3960936000803486,4,0,0,99,0.15999999999999992,0,left,3.323642599978484,,,,,,,,,,,,,,,,,,,,,,,,,,,,,,,,,,,,,,,,,,,,,,,,,,,,,,,,AJM9RJ,train_x,red_square,top_right,2025-02-03_12h34.17.553,HideSeek_v1,2022.2.5,59.97361160545111,
,8,5,3,5,-5,0,66,,train_dim1_1,7,30,,,,2,0,2,0,,,,,,,,,0,0,0,0,0,6,6,6,4,0,4,0,,,,,,,,,,,,,,,,,,,,,,,,,,,,,,,,,,,,,,,,,,,,,,,,,,,,,,,,,,,,,,,,30,,,,,,,,428.0763553000288,428.0763553000288,428.0763553000288,428.0763553000288,428.0763553000288,,,,,left,1.0592713000951335,4,0,0,99,0.07999999999999992,0,left,0.9850824000313878,,,,,,,,,,,,,,,,,,,,,,,,,,,,,,,,,,,,,,,,,,,,,,,,,,,,,,,,AJM9RJ,train_x,red_square,top_right,2025-02-03_12h34.17.553,HideSeek_v1,2022.2.5,59.97361160545111,
,8,5,3,5,-5,0,66,,train_dim1_1,7,30,,,,2,0,2,0,,,,,,,,,0,0,0,0,0,6,6,6,5,0,5,0,,,,,,,,,,,,,,,,,,,,,,,,,,,,,,,,,,,,,,,,,,,,,,,,,,,,,,,,,,,,,,,,30,,,,,,,,429.1427086000331,429.1427086000331,429.1427086000331,429.1427086000331,429.1427086000331,0,-17,0.07999999999999992,0,return,0.8103233999572694,5,0,0,1,0.07999999999999992,0,return,0.7285634999861941,,,,,,,,,,,,,,,,,,,,,,,,,,,,,,,,,,,,,,,,,,,,,,,,,,,,,,,,AJM9RJ,train_x,red_square,top_right,2025-02-03_12h34.17.553,HideSeek_v1,2022.2.5,59.97361160545111,
,5,9,2,9,-3,0,46,,train_dim1_1,8,30,,,,2,0,2,0,,,,,,,,,0,0,0,0,0,7,7,7,0,0,0,0,,,,,,,,,,,,,,,,,,,,,,,,,stimuli/alien_stimuli/46.png,,,,,,,,,,,,,,,,,,,,,,,,,,,,,stimuli/alien_stimuli/66.png,66,8,9,,,,,,,30,,,,,,,,435.0898310999619,435.0898310999619,435.0898310999619,435.0898310999619,435.0898310999619,,,,,left,3.9253435999853536,5,0,0,99,0.15999999999999998,0.32,left,3.831401400035247,433.5160144000547,435.0898310999619,0.08,0,0.0,0.4,0.0,0.08,0.27999999999999997,0.08,0,431.53909630002454,431.53909630002454,431.53909630002454,431.53909630002454,431.53909630002454,431.53909630002454,431.53909630002454,431.53909630002454,431.5312229399802,2.1039515000302345,return,1.9583251000149176,,,,,,,,,,,,,,,,,,,,,,,,,,,,,,,,,AJM9RJ,train_x,red_square,top_right,2025-02-03_12h34.17.553,HideSeek_v1,2022.2.5,59.97361160545111,
,5,9,2,9,-3,0,46,,train_dim1_1,8,30,,,,2,0,2,0,,,,,,,,,0,0,0,0,0,7,7,7,1,0,1,0,,,,,,,,,,,,,,,,,,,,,,,,,,,,,,,,,,,,,,,,,,,,,,,,,,,,,,,,,,,,,,,,30,,,,,,,,439.00107720005326,439.00107720005326,439.00107720005326,439.00107720005326,439.00107720005326,,,,,left,0.960181999951601,5,0,0,99,0.07999999999999997,0.32,left,0.8824864999623969,,,,,,,,,,,,,,,,,,,,,,,,,,,,,,,,,,,,,,,,,,,,,,,,,,,,,,,,AJM9RJ,train_x,red_square,top_right,2025-02-03_12h34.17.553,HideSeek_v1,2022.2.5,59.97361160545111,
,5,9,2,9,-3,0,46,,train_dim1_1,8,30,,,,2,0,2,0,,,,,,,,,0,0,0,0,0,7,7,7,2,0,2,0,,,,,,,,,,,,,,,,,,,,,,,,,,,,,,,,,,,,,,,,,,,,,,,,,,,,,,,,,,,,,,,,30,,,,,,,,439.9677807999542,439.9677807999542,439.9677807999542,439.9677807999542,439.9677807999542,,,,,left,1.7275093999924138,5,0,0,99,-2.7755575615628914e-17,0.32,left,1.6428288999013603,,,,,,,,,,,,,,,,,,,,,,,,,,,,,,,,,,,,,,,,,,,,,,,,,,,,,,,,AJM9RJ,train_x,red_square,top_right,2025-02-03_12h34.17.553,HideSeek_v1,2022.2.5,59.97361160545111,
,5,9,2,9,-3,0,46,,train_dim1_1,8,30,,,,2,0,2,0,,,,,,,,,0,0,0,0,0,7,7,7,3,0,3,0,,,,,,,,,,,,,,,,,,,,,,,,,,,,,,,,,,,,,,,,,,,,,,,,,,,,,,,,,,,,,,,,30,,,,,,,,441.7032276999671,441.7032276999671,441.7032276999671,441.7032276999671,441.7032276999671,0,-20,-2.7755575615628914e-17,0.32,return,1.1274375999346375,6,0,0,1,-2.7755575615628914e-17,0.32,return,1.0489348000846803,,,,,,,,,,,,,,,,,,,,,,,,,,,,,,,,,,,,,,,,,,,,,,,,,,,,,,,,AJM9RJ,train_x,red_square,top_right,2025-02-03_12h34.17.553,HideSeek_v1,2022.2.5,59.97361160545111,
,6,5,2,5,-4,0,56,,train_dim1_1,9,30,,,,2,0,2,0,,,,,,,,,0,0,0,0,0,8,8,8,0,0,0,0,,,,,,,,,,,,,,,,,,,,,,,,,stimuli/alien_stimuli/56.png,,,,,,,,,,,,,,,,,,,,,,,,,,,,,stimuli/alien_stimuli/46.png,46,5,10,,,,,,,30,,,,,,,,447.73184320004657,447.73184320004657,447.73184320004657,447.73184320004657,447.73184320004657,,,,,left,2.840487000066787,6,0,0,99,0.24,0,left,2.7467060999479145,446.15981949993875,447.73184320004657,0,0.32,0.0,0.24,0.32,0,0.12,0,0.32,444.4098353999434,444.4098353999434,444.4098353999434,444.4098353999434,444.4098353999434,444.4098353999434,444.4098353999434,444.4098353999434,444.3917471599765,1.8701983001083136,return,1.7267327998997644,,,,,,,,,,,,,,,,,,,,,,,,,,,,,,,,,AJM9RJ,train_x,red_square,top_right,2025-02-03_12h34.17.553,HideSeek_v1,2022.2.5,59.97361160545111,
,6,5,2,5,-4,0,56,,train_dim1_1,9,30,,,,2,0,2,0,,,,,,,,,0,0,0,0,0,8,8,8,1,0,1,0,,,,,,,,,,,,,,,,,,,,,,,,,,,,,,,,,,,,,,,,,,,,,,,,,,,,,,,,,,,,,,,,30,,,,,,,,450.56226110004354,450.56226110004354,450.56226110004354,450.56226110004354,450.56226110004354,,,,,left,1.2102165999822319,6,0,0,99,0.15999999999999998,0,left,1.131952099967748,,,,,,,,,,,,,,,,,,,,,,,,,,,,,,,,,,,,,,,,,,,,,,,,,,,,,,,,AJM9RJ,train_x,red_square,top_right,2025-02-03_12h34.17.553,HideSeek_v1,2022.2.5,59.97361160545111,
,6,5,2,5,-4,0,56,,train_dim1_1,9,30,,,,2,0,2,0,,,,,,,,,0,0,0,0,0,8,8,8,2,0,2,0,,,,,,,,,,,,,,,,,,,,,,,,,,,,,,,,,,,,,,,,,,,,,,,,,,,,,,,,,,,,,,,,30,,,,,,,,451.7799777999753,451.7799777999753,451.7799777999753,451.7799777999753,451.7799777999753,,,,,left,2.0112709999084473,6,0,0,99,0.07999999999999997,0,left,1.9270190000534058,,,,,,,,,,,,,,,,,,,,,,,,,,,,,,,,,,,,,,,,,,,,,,,,,,,,,,,,AJM9RJ,train_x,red_square,top_right,2025-02-03_12h34.17.553,HideSeek_v1,2022.2.5,59.97361160545111,
,6,5,2,5,-4,0,56,,train_dim1_1,9,30,,,,2,0,2,0,,,,,,,,,0,0,0,0,0,8,8,8,3,0,3,0,,,,,,,,,,,,,,,,,,,,,,,,,,,,,,,,,,,,,,,,,,,,,,,,,,,,,,,,,,,,,,,,30,,,,,,,,453.7976779999444,453.7976779999444,453.7976779999444,453.7976779999444,453.7976779999444,,,,,left,0.760475100018084,6,0,0,99,-2.7755575615628914e-17,0,left,0.6844107999932021,,,,,,,,,,,,,,,,,,,,,,,,,,,,,,,,,,,,,,,,,,,,,,,,,,,,,,,,AJM9RJ,train_x,red_square,top_right,2025-02-03_12h34.17.553,HideSeek_v1,2022.2.5,59.97361160545111,
,6,5,2,5,-4,0,56,,train_dim1_1,9,30,,,,2,0,2,0,,,,,,,,,0,0,0,0,0,8,8,8,4,0,4,0,,,,,,,,,,,,,,,,,,,,,,,,,,,,,,,,,,,,,,,,,,,,,,,,,,,,,,,,,,,,,,,,30,,,,,,,,454.5650822999887,454.5650822999887,454.5650822999887,454.5650822999887,454.5650822999887,0,-24,-2.7755575615628914e-17,0,return,0.8938033999875188,7,0,0,1,-2.7755575615628914e-17,0,return,0.8037949999561533,,,,,,,,,,,,,,,,,,,,,,,,,,,,,,,,,,,,,,,,,,,,,,,,,,,,,,,,AJM9RJ,train_x,red_square,top_right,2025-02-03_12h34.17.553,HideSeek_v1,2022.2.5,59.97361160545111,
,5,8,5,8,0,0,16,,train_dim1_1,10,30,,,,2,0,2,0,,,,,,,,,0,0,0,0,0,9,9,9,0,0,0,0,,,,,,,,,,,,,,,,,,,,,,,,,stimuli/alien_stimuli/16.png,,,,,,,,,,,,,,,,,,,,,,,,,,,,,stimuli/alien_stimuli/56.png,56,6,11,,,,,,,30,,,,,,,,460.63023420004174,460.63023420004174,460.63023420004174,460.63023420004174,460.63023420004174,0,-24,0.24,0.24,return,2.823310799896717,8,0,0,1,0.24,0.24,return,2.7245875999797136,459.05385250004474,460.63023420004174,0,0,0.0,0.32,0.0,0,0.16,0,0,457.0389814999653,457.0389814999653,457.0389814999653,457.0389814999653,457.0389814999653,457.0389814999653,457.0389814999653,457.0389814999653,457.0188689599512,2.1371302000479773,return,1.9864060000982136,,,,,,,,,,,,,,,,,,,,,,,,,,,,,,,,,AJM9RJ,train_x,red_square,top_right,2025-02-03_12h34.17.553,HideSeek_v1,2022.2.5,59.97361160545111,
,7,7,4,7,-3,0,46,,train_dim1_1,11,30,,,,2,0,2,0,,,,,,,,,0,0,0,0,0,10,10,10,0,0,0,0,,,,,,,,,,,,,,,,,,,,,,,,,stimuli/alien_stimuli/46.png,,,,,,,,,,,,,,,,,,,,,,,,,,,,,stimuli/alien_stimuli/16.png,16,5,12,,,,,,,30,,,,,,,,468.14962080004625,468.14962080004625,468.14962080004625,468.14962080004625,468.14962080004625,,,,,left,2.207625800045207,8,0,0,99,0.32,0.16,left,2.1026692000450566,466.5769409999484,468.14962080004625,0.24,0.24,0.0,0.0,0.24,0.24,0.24,0.24,0.24,464.9999301000498,464.9999301000498,464.9999301000498,464.9999301000498,464.9999301000498,464.9999301000498,464.9999301000498,464.9999301000498,464.9922110599931,1.6875526999356225,return,1.5484290000749752,,,,,,,,,,,,,,,,,,,,,,,,,,,,,,,,,AJM9RJ,train_x,red_square,top_right,2025-02-03_12h34.17.553,HideSeek_v1,2022.2.5,59.97361160545111,
,7,7,4,7,-3,0,46,,train_dim1_1,11,30,,,,2,0,2,0,,,,,,,,,0,0,0,0,0,10,10,10,1,0,1,0,,,,,,,,,,,,,,,,,,,,,,,,,,,,,,,,,,,,,,,,,,,,,,,,,,,,,,,,,,,,,,,,30,,,,,,,,470.34323270001914,470.34323270001914,470.34323270001914,470.34323270001914,470.34323270001914,,,,,left,0.860104399966076,8,0,0,99,0.24,0.16,left,0.7725725999334827,,,,,,,,,,,,,,,,,,,,,,,,,,,,,,,,,,,,,,,,,,,,,,,,,,,,,,,,AJM9RJ,train_x,red_square,top_right,2025-02-03_12h34.17.553,HideSeek_v1,2022.2.5,59.97361160545111,
,7,7,4,7,-3,0,46,,train_dim1_1,11,30,,,,2,0,2,0,,,,,,,,,0,0,0,0,0,10,10,10,2,0,2,0,,,,,,,,,,,,,,,,,,,,,,,,,,,,,,,,,,,,,,,,,,,,,,,,,,,,,,,,,,,,,,,,30,,,,,,,,471.21042070002295,471.21042070002295,471.21042070002295,471.21042070002295,471.21042070002295,,,,,left,0.8770716999424621,8,0,0,99,0.15999999999999998,0.16,left,0.8004093000199646,,,,,,,,,,,,,,,,,,,,,,,,,,,,,,,,,,,,,,,,,,,,,,,,,,,,,,,,AJM9RJ,train_x,red_square,top_right,2025-02-03_12h34.17.553,HideSeek_v1,2022.2.5,59.97361160545111,
,7,7,4,7,-3,0,46,,train_dim1_1,11,30,,,,2,0,2,0,,,,,,,,,0,0,0,0,0,10,10,10,3,0,3,0,,,,,,,,,,,,,,,,,,,,,,,,,,,,,,,,,,,,,,,,,,,,,,,,,,,,,,,,,,,,,,,,30,,,,,,,,472.0951105999993,472.0951105999993,472.0951105999993,472.0951105999993,472.0951105999993,,,,,left,3.5788077000761405,8,0,0,99,0.07999999999999997,0.16,left,3.5067340000532568,,,,,,,,,,,,,,,,,,,,,,,,,,,,,,,,,,,,,,,,,,,,,,,,,,,,,,,,AJM9RJ,train_x,red_square,top_right,2025-02-03_12h34.17.553,HideSeek_v1,2022.2.5,59.97361160545111,
,7,7,4,7,-3,0,46,,train_dim1_1,11,30,,,,2,0,2,0,,,,,,,,,0,0,0,0,0,10,10,10,4,0,4,0,,,,,,,,,,,,,,,,,,,,,,,,,,,,,,,,,,,,,,,,,,,,,,,,,,,,,,,,,,,,,,,,30,,,,,,,,475.680579100037,475.680579100037,475.680579100037,475.680579100037,475.680579100037,0,-28,0.07999999999999997,0.16,return,1.410832800087519,8,1,0,0,0.07999999999999997,0.16,return,1.332250100094825,,,,,,,,,,,,,,,,,,,,,,,,,,,,,,,,,,,,,,,,,,,,,,,,,,,,,,,,AJM9RJ,train_x,red_square,top_right,2025-02-03_12h34.17.553,HideSeek_v1,2022.2.5,59.97361160545111,
,5,5,4,5,-1,0,26,,train_dim1_1,12,30,,,,2,0,2,0,,,,,,,,,0,0,0,0,0,11,11,11,0,0,0,0,,,,,,,,,,,,,,,,,,,,,,,,,stimuli/alien_stimuli/26.png,,,,,,,,,,,,,,,,,,,,,,,,,,,,,stimuli/alien_stimuli/46.png,46,7,13,,,,,,,30,,,,,,,,488.8260116999736,488.8260116999736,488.8260116999736,488.8260116999736,488.8260116999736,,,,,left,2.1386948000872508,8,1,0,99,0.15999999999999998,0,left,2.055068299989216,487.2605975000188,488.8260116999736,0.16,0.16,0.0,0.24,0.16,0.16,0.28,0.16,0.16,478.66467580001336,478.66467580001336,478.66467580001336,478.66467580001336,478.66467580001336,478.66467580001336,478.66467580001336,478.66467580001336,478.6533073599916,8.709474999923259,return,8.572020299965516,,,,,,,,,,,,,,,,,,,,,,,,,,,,,,,,,AJM9RJ,train_x,red_square,top_right,2025-02-03_12h34.17.553,HideSeek_v1,2022.2.5,59.97361160545111,
,5,5,4,5,-1,0,26,,train_dim1_1,12,30,,,,2,0,2,0,,,,,,,,,0,0,0,0,0,11,11,11,1,0,1,0,,,,,,,,,,,,,,,,,,,,,,,,,,,,,,,,,,,,,,,,,,,,,,,,,,,,,,,,,,,,,,,,30,,,,,,,,490.96479340002406,490.96479340002406,490.96479340002406,490.96479340002406,490.96479340002406,0,-29,0.15999999999999998,0,return,0.8263901999453083,9,0,0,1,0.15999999999999998,0,return,0.7394762999610975,,,,,,,,,,,,,,,,,,,,,,,,,,,,,,,,,,,,,,,,,,,,,,,,,,,,,,,,AJM9RJ,train_x,red_square,top_right,2025-02-03_12h34.17.553,HideSeek_v1,2022.2.5,59.97361160545111,
,5,9,1,9,-4,0,56,,train_dim1_1,13,30,,,,2,0,2,0,,,,,,,,,0,0,0,0,0,12,12,12,0,0,0,0,,,,,,,,,,,,,,,,,,,,,,,,,stimuli/alien_stimuli/56.png,,,,,,,,,,,,,,,,,,,,,,,,,,,,,stimuli/alien_stimuli/26.png,26,5,14,,,,,,,30,,,,,,,,496.2597068999894,496.2597068999894,496.2597068999894,496.2597068999894,496.2597068999894,,,,,left,4.1244493999984115,9,0,0,99,0.15999999999999998,0.32,left,4.028751299949363,494.6834041000111,496.2597068999894,0.16,0,0.0,0.08,0.0,0.16,0.2,0.16,0,493.37531389994547,493.37531389994547,493.37531389994547,493.37531389994547,493.37531389994547,493.37531389994547,493.37531389994547,493.37531389994547,493.36550623995714,1.436894099926576,return,1.2914124000817537,,,,,,,,,,,,,,,,,,,,,,,,,,,,,,,,,AJM9RJ,train_x,red_square,top_right,2025-02-03_12h34.17.553,HideSeek_v1,2022.2.5,59.97361160545111,
,5,9,1,9,-4,0,56,,train_dim1_1,13,30,,,,2,0,2,0,,,,,,,,,0,0,0,0,0,12,12,12,1,0,1,0,,,,,,,,,,,,,,,,,,,,,,,,,,,,,,,,,,,,,,,,,,,,,,,,,,,,,,,,,,,,,,,,30,,,,,,,,500.3715347000398,500.3715347000398,500.3715347000398,500.3715347000398,500.3715347000398,,,,,left,0.9604540999280289,9,0,0,99,0.07999999999999997,0.32,left,0.8819812999572605,,,,,,,,,,,,,,,,,,,,,,,,,,,,,,,,,,,,,,,,,,,,,,,,,,,,,,,,AJM9RJ,train_x,red_square,top_right,2025-02-03_12h34.17.553,HideSeek_v1,2022.2.5,59.97361160545111,
,5,9,1,9,-4,0,56,,train_dim1_1,13,30,,,,2,0,2,0,,,,,,,,,0,0,0,0,0,12,12,12,2,0,2,0,,,,,,,,,,,,,,,,,,,,,,,,,,,,,,,,,,,,,,,,,,,,,,,,,,,,,,,,,,,,,,,,30,,,,,,,,501.33706799999345,501.33706799999345,501.33706799999345,501.33706799999345,501.33706799999345,,,,,left,2.41158779989928,9,0,0,99,-2.7755575615628914e-17,0.32,left,2.3262738999910653,,,,,,,,,,,,,,,,,,,,,,,,,,,,,,,,,,,,,,,,,,,,,,,,,,,,,,,,AJM9RJ,train_x,red_square,top_right,2025-02-03_12h34.17.553,HideSeek_v1,2022.2.5,59.97361160545111,
,5,9,1,9,-4,0,56,,train_dim1_1,13,30,,,,2,0,2,0,,,,,,,,,0,0,0,0,0,12,12,12,3,0,3,0,,,,,,,,,,,,,,,,,,,,,,,,,,,,,,,,,,,,,,,,,,,,,,,,,,,,,,,,,,,,,,,,30,,,,,,,,503.7569379999768,503.7569379999768,503.7569379999768,503.7569379999768,503.7569379999768,,,,,left,1.0269747999263927,9,0,0,99,-0.08000000000000003,0.32,left,0.9464440000010654,,,,,,,,,,,,,,,,,,,,,,,,,,,,,,,,,,,,,,,,,,,,,,,,,,,,,,,,AJM9RJ,train_x,red_square,top_right,2025-02-03_12h34.17.553,HideSeek_v1,2022.2.5,59.97361160545111,
,5,9,1,9,-4,0,56,,train_dim1_1,13,30,,,,2,0,2,0,,,,,,,,,0,0,0,0,0,12,12,12,4,0,4,0,,,,,,,,,,,,,,,,,,,,,,,,,,,,,,,,,,,,,,,,,,,,,,,,,,,,,,,,,,,,,,,,30,,,,,,,,504.7898167000385,504.7898167000385,504.7898167000385,504.7898167000385,504.7898167000385,0,-33,-0.08000000000000003,0.32,return,1.0941406999481842,10,0,0,1,-0.08000000000000003,0.32,return,1.0039993999525905,,,,,,,,,,,,,,,,,,,,,,,,,,,,,,,,,,,,,,,,,,,,,,,,,,,,,,,,AJM9RJ,train_x,red_square,top_right,2025-02-03_12h34.17.553,HideSeek_v1,2022.2.5,59.97361160545111,
,9,8,9,8,0,0,16,,train_dim1_1,14,30,,,,2,0,2,0,,,,,,,,,0,0,0,0,0,13,13,13,0,0,0,0,,,,,,,,,,,,,,,,,,,,,,,,,stimuli/alien_stimuli/16.png,,,,,,,,,,,,,,,,,,,,,,,,,,,,,stimuli/alien_stimuli/56.png,56,5,15,,,,,,,30,,,,,,,,511.4549064999446,511.4549064999446,511.4549064999446,511.4549064999446,511.4549064999446,0,-33,0.56,0.24,return,3.0751622999086976,11,0,0,1,0.56,0.24,return,2.967461399966851,509.87940420000814,511.4549064999446,-0.08,0.32,0.0,0.32,0.32,-0.08,0.07999999999999999,-0.08,0.32,507.46406360005494,507.46406360005494,507.46406360005494,507.46406360005494,507.46406360005494,507.46406360005494,507.46406360005494,507.46406360005494,507.4439801600296,2.537513100076467,return,2.3876470000250265,,,,,,,,,,,,,,,,,,,,,,,,,,,,,,,,,AJM9RJ,train_x,red_square,top_right,2025-02-03_12h34.17.553,HideSeek_v1,2022.2.5,59.97361160545111,
,9,7,4,7,-5,0,66,,train_dim1_1,15,30,,,,2,0,2,0,,,,,,,,,0,0,0,0,0,14,14,14,0,0,0,0,,,,,,,,,,,,,,,,,,,,,,,,,stimuli/alien_stimuli/66.png,,,,,,,,,,,,,,,,,,,,,,,,,,,,,stimuli/alien_stimuli/16.png,16,9,16,,,,,,,30,,,,,,,,520.248902500025,520.248902500025,520.248902500025,520.248902500025,520.248902500025,,,,,left,2.2370940999826416,11,0,0,99,0.48000000000000004,0.16,left,2.1430614000419155,518.6867054000031,520.248902500025,0.56,0.24,0.0,0.0,0.24,0.56,0.56,0.56,0.24,516.0766229999717,516.0766229999717,516.0766229999717,516.0766229999717,516.0766229999717,516.0766229999717,516.0766229999717,516.0766229999717,516.0677445599345,2.721136700012721,return,2.584551200037822,,,,,,,,,,,,,,,,,,,,,,,,,,,,,,,,,AJM9RJ,train_x,red_square,top_right,2025-02-03_12h34.17.553,HideSeek_v1,2022.2.5,59.97361160545111,
,9,7,4,7,-5,0,66,,train_dim1_1,15,30,,,,2,0,2,0,,,,,,,,,0,0,0,0,0,14,14,14,1,0,1,0,,,,,,,,,,,,,,,,,,,,,,,,,,,,,,,,,,,,,,,,,,,,,,,,,,,,,,,,,,,,,,,,30,,,,,,,,522.4865235999459,522.4865235999459,522.4865235999459,522.4865235999459,522.4865235999459,,,,,left,1.043266599997878,11,0,0,99,0.4,0.16,left,0.9615124999545515,,,,,,,,,,,,,,,,,,,,,,,,,,,,,,,,,,,,,,,,,,,,,,,,,,,,,,,,AJM9RJ,train_x,red_square,top_right,2025-02-03_12h34.17.553,HideSeek_v1,2022.2.5,59.97361160545111,
,9,7,4,7,-5,0,66,,train_dim1_1,15,30,,,,2,0,2,0,,,,,,,,,0,0,0,0,0,14,14,14,2,0,2,0,,,,,,,,,,,,,,,,,,,,,,,,,,,,,,,,,,,,,,,,,,,,,,,,,,,,,,,,,,,,,,,,30,,,,,,,,523.5371688000159,523.5371688000159,523.5371688000159,523.5371688000159,523.5371688000159,,,,,left,1.1274408999597654,11,0,0,99,0.32,0.16,left,1.0505293000023812,,,,,,,,,,,,,,,,,,,,,,,,,,,,,,,,,,,,,,,,,,,,,,,,,,,,,,,,AJM9RJ,train_x,red_square,top_right,2025-02-03_12h34.17.553,HideSeek_v1,2022.2.5,59.97361160545111,
,9,7,4,7,-5,0,66,,train_dim1_1,15,30,,,,2,0,2,0,,,,,,,,,0,0,0,0,0,14,14,14,3,0,3,0,,,,,,,,,,,,,,,,,,,,,,,,,,,,,,,,,,,,,,,,,,,,,,,,,,,,,,,,,,,,,,,,30,,,,,,,,524.6798802999547,524.6798802999547,524.6798802999547,524.6798802999547,524.6798802999547,,,,,left,1.12436430004891,11,0,0,99,0.24,0.16,left,1.0468905000016093,,,,,,,,,,,,,,,,,,,,,,,,,,,,,,,,,,,,,,,,,,,,,,,,,,,,,,,,AJM9RJ,train_x,red_square,top_right,2025-02-03_12h34.17.553,HideSeek_v1,2022.2.5,59.97361160545111,
,9,7,4,7,-5,0,66,,train_dim1_1,15,30,,,,2,0,2,0,,,,,,,,,0,0,0,0,0,14,14,14,4,0,4,0,,,,,,,,,,,,,,,,,,,,,,,,,,,,,,,,,,,,,,,,,,,,,,,,,,,,,,,,,,,,,,,,30,,,,,,,,525.8055368999485,525.8055368999485,525.8055368999485,525.8055368999485,525.8055368999485,,,,,left,1.0771297999890521,11,0,0,99,0.15999999999999998,0.16,left,1.0024132000980899,,,,,,,,,,,,,,,,,,,,,,,,,,,,,,,,,,,,,,,,,,,,,,,,,,,,,,,,AJM9RJ,train_x,red_square,top_right,2025-02-03_12h34.17.553,HideSeek_v1,2022.2.5,59.97361160545111,
,9,7,4,7,-5,0,66,,train_dim1_1,15,30,,,,2,0,2,0,,,,,,,,,0,0,0,0,0,14,14,14,5,0,5,0,,,,,,,,,,,,,,,,,,,,,,,,,,,,,,,,,,,,,,,,,,,,,,,,,,,,,,,,,,,,,,,,30,,,,,,,,526.8890711000422,526.8890711000422,526.8890711000422,526.8890711000422,526.8890711000422,0,-38,0.15999999999999998,0.16,return,1.4438999999547377,12,0,0,1,0.15999999999999998,0.16,return,1.357019399991259,,,,,,,,,,,,,,,,,,,,,,,,,,,,,,,,,,,,,,,,,,,,,,,,,,,,,,,,AJM9RJ,train_x,red_square,top_right,2025-02-03_12h34.17.553,HideSeek_v1,2022.2.5,59.97361160545111,
,8,8,4,8,-4,0,56,,train_dim1_1,16,30,,,,2,0,2,0,,,,,,,,,0,0,0,0,0,15,15,15,0,0,0,0,,,,,,,,,,,,,,,,,,,,,,,,,stimuli/alien_stimuli/56.png,,,,,,,,,,,,,,,,,,,,,,,,,,,,,stimuli/alien_stimuli/66.png,66,9,17,,,,,,,30,,,,,,,,533.9368912000209,533.9368912000209,533.9368912000209,533.9368912000209,533.9368912000209,,,,,left,2.3901637999806553,12,0,0,99,0.39999999999999997,0.24,left,2.2899203000124544,532.3647093999898,533.9368912000209,0.16,0.16,0.0,0.4,0.16,0.16,0.36000000000000004,0.16,0.16,529.9093258000212,529.9093258000212,529.9093258000212,529.9093258000212,529.9093258000212,529.9093258000212,529.9093258000212,529.9093258000212,529.8960459599971,2.570899899932556,return,2.4308556999312714,,,,,,,,,,,,,,,,,,,,,,,,,,,,,,,,,AJM9RJ,train_x,red_square,top_right,2025-02-03_12h34.17.553,HideSeek_v1,2022.2.5,59.97361160545111,
,8,8,4,8,-4,0,56,,train_dim1_1,16,30,,,,2,0,2,0,,,,,,,,,0,0,0,0,0,15,15,15,1,0,1,0,,,,,,,,,,,,,,,,,,,,,,,,,,,,,,,,,,,,,,,,,,,,,,,,,,,,,,,,,,,,,,,,30,,,,,,,,536.3166392999701,536.3166392999701,536.3166392999701,536.3166392999701,536.3166392999701,,,,,left,1.5939980000257492,12,0,0,99,0.31999999999999995,0.24,left,1.5043786000460386,,,,,,,,,,,,,,,,,,,,,,,,,,,,,,,,,,,,,,,,,,,,,,,,,,,,,,,,AJM9RJ,train_x,red_square,top_right,2025-02-03_12h34.17.553,HideSeek_v1,2022.2.5,59.97361160545111,
,8,8,4,8,-4,0,56,,train_dim1_1,16,30,,,,2,0,2,0,,,,,,,,,0,0,0,0,0,15,15,15,2,0,2,0,,,,,,,,,,,,,,,,,,,,,,,,,,,,,,,,,,,,,,,,,,,,,,,,,,,,,,,,,,,,,,,,30,,,,,,,,537.9184349999996,537.9184349999996,537.9184349999996,537.9184349999996,537.9184349999996,,,,,left,1.8776028000283986,12,0,0,99,0.23999999999999994,0.24,left,1.7929395999526605,,,,,,,,,,,,,,,,,,,,,,,,,,,,,,,,,,,,,,,,,,,,,,,,,,,,,,,,AJM9RJ,train_x,red_square,top_right,2025-02-03_12h34.17.553,HideSeek_v1,2022.2.5,59.97361160545111,
,8,8,4,8,-4,0,56,,train_dim1_1,16,30,,,,2,0,2,0,,,,,,,,,0,0,0,0,0,15,15,15,3,0,3,0,,,,,,,,,,,,,,,,,,,,,,,,,,,,,,,,,,,,,,,,,,,,,,,,,,,,,,,,,,,,,,,,30,,,,,,,,539.8015773999505,539.8015773999505,539.8015773999505,539.8015773999505,539.8015773999505,,,,,right,2.0448980999644846,12,0,0,99,0.31999999999999995,0.24,right,1.962917000055313,,,,,,,,,,,,,,,,,,,,,,,,,,,,,,,,,,,,,,,,,,,,,,,,,,,,,,,,AJM9RJ,train_x,red_square,top_right,2025-02-03_12h34.17.553,HideSeek_v1,2022.2.5,59.97361160545111,
,8,8,4,8,-4,0,56,,train_dim1_1,16,30,,,,2,0,2,0,,,,,,,,,0,0,0,0,0,15,15,15,4,0,4,0,,,,,,,,,,,,,,,,,,,,,,,,,,,,,,,,,,,,,,,,,,,,,,,,,,,,,,,,,,,,,,,,30,,,,,,,,541.8540880000219,541.8540880000219,541.8540880000219,541.8540880000219,541.8540880000219,,,,,left,3.545870800036937,12,0,0,99,0.23999999999999994,0.24,left,3.4617725999560207,,,,,,,,,,,,,,,,,,,,,,,,,,,,,,,,,,,,,,,,,,,,,,,,,,,,,,,,AJM9RJ,train_x,red_square,top_right,2025-02-03_12h34.17.553,HideSeek_v1,2022.2.5,59.97361160545111,
,8,8,4,8,-4,0,56,,train_dim1_1,16,30,,,,2,0,2,0,,,,,,,,,0,0,0,0,0,15,15,15,5,0,5,0,,,,,,,,,,,,,,,,,,,,,,,,,,,,,,,,,,,,,,,,,,,,,,,,,,,,,,,,,,,,,,,,30,,,,,,,,545.4067517999792,545.4067517999792,545.4067517999792,545.4067517999792,545.4067517999792,0,-41,0.23999999999999994,0.24,return,0.7271343999309465,12,1,0,0,0.23999999999999994,0.24,return,0.6475699000293389,,,,,,,,,,,,,,,,,,,,,,,,,,,,,,,,,,,,,,,,,,,,,,,,,,,,,,,,AJM9RJ,train_x,red_square,top_right,2025-02-03_12h34.17.553,HideSeek_v1,2022.2.5,59.97361160545111,
,7,9,6,9,-1,0,26,,train_dim1_1,17,30,,,,2,0,2,0,,,,,,,,,0,0,0,0,0,16,16,16,0,0,0,0,,,,,,,,,,,,,,,,,,,,,,,,,stimuli/alien_stimuli/26.png,,,,,,,,,,,,,,,,,,,,,,,,,,,,,stimuli/alien_stimuli/56.png,56,8,18,,,,,,,30,,,,,,,,552.3267362000188,552.3267362000188,552.3267362000188,552.3267362000188,552.3267362000188,,,,,left,1.789055100060068,12,1,0,99,0.32,0.32,left,1.6925209999317303,550.7634043999715,552.3267362000188,0.16,0.24,0.0,0.32,0.24,0.16,0.32,0.16,0.24,547.7152618999826,547.7152618999826,547.7152618999826,547.7152618999826,547.7152618999826,547.7152618999826,547.7152618999826,547.7152618999826,547.6945804599441,3.171064199996181,return,3.032356300042011,,,,,,,,,,,,,,,,,,,,,,,,,,,,,,,,,AJM9RJ,train_x,red_square,top_right,2025-02-03_12h34.17.553,HideSeek_v1,2022.2.5,59.97361160545111,
,7,9,6,9,-1,0,26,,train_dim1_1,17,30,,,,2,0,2,0,,,,,,,,,0,0,0,0,0,16,16,16,1,0,1,0,,,,,,,,,,,,,,,,,,,,,,,,,,,,,,,,,,,,,,,,,,,,,,,,,,,,,,,,,,,,,,,,30,,,,,,,,554.117498000036,554.117498000036,554.117498000036,554.117498000036,554.117498000036,0,-42,0.32,0.32,return,0.8765217999462038,13,0,0,1,0.32,0.32,return,0.7868800000287592,,,,,,,,,,,,,,,,,,,,,,,,,,,,,,,,,,,,,,,,,,,,,,,,,,,,,,,,AJM9RJ,train_x,red_square,top_right,2025-02-03_12h34.17.553,HideSeek_v1,2022.2.5,59.97361160545111,
,7,6,2,6,-5,0,66,,train_dim1_1,18,30,,,,2,0,2,0,,,,,,,,,0,0,0,0,0,17,17,17,0,0,0,0,,,,,,,,,,,,,,,,,,,,,,,,,stimuli/alien_stimuli/66.png,,,,,,,,,,,,,,,,,,,,,,,,,,,,,stimuli/alien_stimuli/26.png,26,7,19,,,,,,,30,,,,,,,,559.8604280999862,559.8604280999862,559.8604280999862,559.8604280999862,559.8604280999862,,,,,left,1.471807999885641,13,0,0,99,0.32,0.08,left,1.3672040000092238,558.2861647000536,559.8604280999862,0.32,0.32,0.0,0.08,0.32,0.32,0.36,0.32,0.32,556.5615434000501,556.5615434000501,556.5615434000501,556.5615434000501,556.5615434000501,556.5615434000501,556.5615434000501,556.5615434000501,556.5513445599704,1.8369686999358237,return,1.698052499908954,,,,,,,,,,,,,,,,,,,,,,,,,,,,,,,,,AJM9RJ,train_x,red_square,top_right,2025-02-03_12h34.17.553,HideSeek_v1,2022.2.5,59.97361160545111,
,7,6,2,6,-5,0,66,,train_dim1_1,18,30,,,,2,0,2,0,,,,,,,,,0,0,0,0,0,17,17,17,1,0,1,0,,,,,,,,,,,,,,,,,,,,,,,,,,,,,,,,,,,,,,,,,,,,,,,,,,,,,,,,,,,,,,,,30,,,,,,,,561.3189041999867,561.3189041999867,561.3189041999867,561.3189041999867,561.3189041999867,,,,,left,1.110347600071691,13,0,0,99,0.24,0.08,left,1.035485600004904,,,,,,,,,,,,,,,,,,,,,,,,,,,,,,,,,,,,,,,,,,,,,,,,,,,,,,,,AJM9RJ,train_x,red_square,top_right,2025-02-03_12h34.17.553,HideSeek_v1,2022.2.5,59.97361160545111,
,7,6,2,6,-5,0,66,,train_dim1_1,18,30,,,,2,0,2,0,,,,,,,,,0,0,0,0,0,17,17,17,2,0,2,0,,,,,,,,,,,,,,,,,,,,,,,,,,,,,,,,,,,,,,,,,,,,,,,,,,,,,,,,,,,,,,,,30,,,,,,,,562.435094299959,562.435094299959,562.435094299959,562.435094299959,562.435094299959,,,,,left,1.1107436999445781,13,0,0,99,0.15999999999999998,0.08,left,1.0286698000272736,,,,,,,,,,,,,,,,,,,,,,,,,,,,,,,,,,,,,,,,,,,,,,,,,,,,,,,,AJM9RJ,train_x,red_square,top_right,2025-02-03_12h34.17.553,HideSeek_v1,2022.2.5,59.97361160545111,
,7,6,2,6,-5,0,66,,train_dim1_1,18,30,,,,2,0,2,0,,,,,,,,,0,0,0,0,0,17,17,17,3,0,3,0,,,,,,,,,,,,,,,,,,,,,,,,,,,,,,,,,,,,,,,,,,,,,,,,,,,,,,,,,,,,,,,,30,,,,,,,,563.5528686000034,563.5528686000034,563.5528686000034,563.5528686000034,563.5528686000034,,,,,left,1.0437260000035167,13,0,0,99,0.07999999999999997,0.08,left,0.959483899991028,,,,,,,,,,,,,,,,,,,,,,,,,,,,,,,,,,,,,,,,,,,,,,,,,,,,,,,,AJM9RJ,train_x,red_square,top_right,2025-02-03_12h34.17.553,HideSeek_v1,2022.2.5,59.97361160545111,
,7,6,2,6,-5,0,66,,train_dim1_1,18,30,,,,2,0,2,0,,,,,,,,,0,0,0,0,0,17,17,17,4,0,4,0,,,,,,,,,,,,,,,,,,,,,,,,,,,,,,,,,,,,,,,,,,,,,,,,,,,,,,,,,,,,,,,,30,,,,,,,,564.6035378000233,564.6035378000233,564.6035378000233,564.6035378000233,564.6035378000233,,,,,left,1.0106243999907747,13,0,0,99,-2.7755575615628914e-17,0.08,left,0.9259355999529362,,,,,,,,,,,,,,,,,,,,,,,,,,,,,,,,,,,,,,,,,,,,,,,,,,,,,,,,AJM9RJ,train_x,red_square,top_right,2025-02-03_12h34.17.553,HideSeek_v1,2022.2.5,59.97361160545111,
,7,6,2,6,-5,0,66,,train_dim1_1,18,30,,,,2,0,2,0,,,,,,,,,0,0,0,0,0,17,17,17,5,0,5,0,,,,,,,,,,,,,,,,,,,,,,,,,,,,,,,,,,,,,,,,,,,,,,,,,,,,,,,,,,,,,,,,30,,,,,,,,565.6213926000055,565.6213926000055,565.6213926000055,565.6213926000055,565.6213926000055,0,-47,-2.7755575615628914e-17,0.08,return,1.3110367000335827,14,0,0,1,-2.7755575615628914e-17,0.08,return,1.2266266000224277,,,,,,,,,,,,,,,,,,,,,,,,,,,,,,,,,,,,,,,,,,,,,,,,,,,,,,,,AJM9RJ,train_x,red_square,top_right,2025-02-03_12h34.17.553,HideSeek_v1,2022.2.5,59.97361160545111,
,5,8,2,8,-3,0,46,,train_dim1_1,19,30,,,,2,0,2,0,,,,,,,,,0,0,0,0,0,18,18,18,0,0,0,0,,,,,,,,,,,,,,,,,,,,,,,,,stimuli/alien_stimuli/46.png,,,,,,,,,,,,,,,,,,,,,,,,,,,,,stimuli/alien_stimuli/66.png,66,7,20,,,,,,,30,,,,,,,,571.4467488999944,571.4467488999944,571.4467488999944,571.4467488999944,571.4467488999944,,,,,left,1.9379555999767035,14,0,0,99,0.15999999999999998,0.24,left,1.8497589000035077,569.8792325999821,571.4467488999944,0,0.08,0.0,0.4,0.08,0,0.2,0,0.08,568.5183868999593,568.5183868999593,568.5183868999593,568.5183868999593,568.5183868999593,568.5183868999593,568.5183868999593,568.5183868999593,568.5111943399767,1.4878712999634445,return,1.3295643000165,,,,,,,,,,,,,,,,,,,,,,,,,,,,,,,,,AJM9RJ,train_x,red_square,top_right,2025-02-03_12h34.17.553,HideSeek_v1,2022.2.5,59.97361160545111,
,5,8,2,8,-3,0,46,,train_dim1_1,19,30,,,,2,0,2,0,,,,,,,,,0,0,0,0,0,18,18,18,1,0,1,0,,,,,,,,,,,,,,,,,,,,,,,,,,,,,,,,,,,,,,,,,,,,,,,,,,,,,,,,,,,,,,,,30,,,,,,,,573.3784345999593,573.3784345999593,573.3784345999593,573.3784345999593,573.3784345999593,,,,,left,1.5108054999727756,14,0,0,99,0.07999999999999997,0.24,left,1.4318527999566868,,,,,,,,,,,,,,,,,,,,,,,,,,,,,,,,,,,,,,,,,,,,,,,,,,,,,,,,AJM9RJ,train_x,red_square,top_right,2025-02-03_12h34.17.553,HideSeek_v1,2022.2.5,59.97361160545111,
,5,8,2,8,-3,0,46,,train_dim1_1,19,30,,,,2,0,2,0,,,,,,,,,0,0,0,0,0,18,18,18,2,0,2,0,,,,,,,,,,,,,,,,,,,,,,,,,,,,,,,,,,,,,,,,,,,,,,,,,,,,,,,,,,,,,,,,30,,,,,,,,574.8958196999738,574.8958196999738,574.8958196999738,574.8958196999738,574.8958196999738,0,-49,0.07999999999999997,0.24,return,1.360673899995163,14,1,0,0,0.07999999999999997,0.24,return,1.2808931999607012,,,,,,,,,,,,,,,,,,,,,,,,,,,,,,,,,,,,,,,,,,,,,,,,,,,,,,,,AJM9RJ,train_x,red_square,top_right,2025-02-03_12h34.17.553,HideSeek_v1,2022.2.5,59.97361160545111,
,5,6,5,6,0,0,16,,train_dim1_1,20,30,,,,2,0,2,0,,,,,,,,,0,0,0,0,0,19,19,19,0,0,0,0,,,,,,,,,,,,,,,,,,,,,,,,,stimuli/alien_stimuli/16.png,,,,,,,,,,,,,,,,,,,,,,,,,,,,,stimuli/alien_stimuli/46.png,46,5,21,,,,,,,30,,,,,,,,582.3631435999414,582.3631435999414,582.3631435999414,582.3631435999414,582.3631435999414,0,-49,0.24,0.08,return,2.461467199958861,15,0,0,1,0.24,0.08,return,2.3707311999751255,580.788139399956,582.3631435999414,0,0.24,0.0,0.24,0.24,0,0.12,0,0.24,577.819576799986,577.819576799986,577.819576799986,577.819576799986,577.819576799986,577.819576799986,577.819576799986,577.819576799986,577.8022468799493,3.071300300071016,return,2.944742100080475,,,,,,,,,,,,,,,,,,,,,,,,,,,,,,,,,AJM9RJ,train_x,red_square,top_right,2025-02-03_12h34.17.553,HideSeek_v1,2022.2.5,59.97361160545111,
,9,7,6,7,-3,0,46,,train_dim1_1,21,30,,,,2,0,2,0,,,,,,,,,0,0,0,0,0,20,20,20,0,0,0,0,,,,,,,,,,,,,,,,,,,,,,,,,stimuli/alien_stimuli/46.png,,,,,,,,,,,,,,,,,,,,,,,,,,,,,stimuli/alien_stimuli/16.png,16,5,22,,,,,,,30,,,,,,,,590.1842228999594,590.1842228999594,590.1842228999594,590.1842228999594,590.1842228999594,,,,,left,1.739546199911274,15,0,0,99,0.48000000000000004,0.16,left,1.6421001000562683,588.6111462999834,590.1842228999594,0.24,0.08,0.0,0.0,0.08,0.24,0.24,0.24,0.08,586.3886410000268,586.3886410000268,586.3886410000268,586.3886410000268,586.3886410000268,586.3886410000268,586.3886410000268,586.3886410000268,586.3760352600134,2.337763899937272,return,2.2028538999147713,,,,,,,,,,,,,,,,,,,,,,,,,,,,,,,,,AJM9RJ,train_x,red_square,top_right,2025-02-03_12h34.17.553,HideSeek_v1,2022.2.5,59.97361160545111,
,9,7,6,7,-3,0,46,,train_dim1_1,21,30,,,,2,0,2,0,,,,,,,,,0,0,0,0,0,20,20,20,1,0,1,0,,,,,,,,,,,,,,,,,,,,,,,,,,,,,,,,,,,,,,,,,,,,,,,,,,,,,,,,,,,,,,,,30,,,,,,,,591.9107414999744,591.9107414999744,591.9107414999744,591.9107414999744,591.9107414999744,,,,,left,6.448239500052296,15,0,0,99,0.4,0.16,left,6.366056099999696,,,,,,,,,,,,,,,,,,,,,,,,,,,,,,,,,,,,,,,,,,,,,,,,,,,,,,,,AJM9RJ,train_x,red_square,top_right,2025-02-03_12h34.17.553,HideSeek_v1,2022.2.5,59.97361160545111,
,9,7,6,7,-3,0,46,,train_dim1_1,21,30,,,,2,0,2,0,,,,,,,,,0,0,0,0,0,20,20,20,2,0,2,0,,,,,,,,,,,,,,,,,,,,,,,,,,,,,,,,,,,,,,,,,,,,,,,,,,,,,,,,,,,,,,,,30,,,,,,,,598.3661886999616,598.3661886999616,598.3661886999616,598.3661886999616,598.3661886999616,,,,,left,2.3451019000494853,15,0,0,99,0.32,0.16,left,2.2570141999749467,,,,,,,,,,,,,,,,,,,,,,,,,,,,,,,,,,,,,,,,,,,,,,,,,,,,,,,,AJM9RJ,train_x,red_square,top_right,2025-02-03_12h34.17.553,HideSeek_v1,2022.2.5,59.97361160545111,
,9,7,6,7,-3,0,46,,train_dim1_1,21,30,,,,2,0,2,0,,,,,,,,,0,0,0,0,0,20,20,20,3,0,3,0,,,,,,,,,,,,,,,,,,,,,,,,,,,,,,,,,,,,,,,,,,,,,,,,,,,,,,,,,,,,,,,,30,,,,,,,,600.7172607999528,600.7172607999528,600.7172607999528,600.7172607999528,600.7172607999528,0,-52,0.32,0.16,return,1.1938567999750376,16,0,0,1,0.32,0.16,return,1.112550700083375,,,,,,,,,,,,,,,,,,,,,,,,,,,,,,,,,,,,,,,,,,,,,,,,,,,,,,,,AJM9RJ,train_x,red_square,top_right,2025-02-03_12h34.17.553,HideSeek_v1,2022.2.5,59.97361160545111,
,6,5,5,5,-1,0,26,,train_dim1_1,22,30,,,,2,0,2,0,,,,,,,,,0,0,0,0,0,21,21,21,0,0,0,0,,,,,,,,,,,,,,,,,,,,,,,,,stimuli/alien_stimuli/26.png,,,,,,,,,,,,,,,,,,,,,,,,,,,,,stimuli/alien_stimuli/46.png,46,9,23,,,,,,,30,,,,,,,,606.768634499982,606.768634499982,606.768634499982,606.768634499982,606.768634499982,,,,,left,1.6392057000193745,16,0,0,99,0.24,0,left,1.5290411999449134,605.1916358999442,606.768634499982,0.32,0.16,0.0,0.24,0.16,0.32,0.44000000000000006,0.32,0.16,603.4920352000045,603.4920352000045,603.4920352000045,603.4920352000045,603.4920352000045,603.4920352000045,603.4920352000045,603.4920352000045,603.473518260033,1.8202554999152198,return,1.6727593999821693,,,,,,,,,,,,,,,,,,,,,,,,,,,,,,,,,AJM9RJ,train_x,red_square,top_right,2025-02-03_12h34.17.553,HideSeek_v1,2022.2.5,59.97361160545111,
,6,5,5,5,-1,0,26,,train_dim1_1,22,30,,,,2,0,2,0,,,,,,,,,0,0,0,0,0,21,21,21,1,0,1,0,,,,,,,,,,,,,,,,,,,,,,,,,,,,,,,,,,,,,,,,,,,,,,,,,,,,,,,,,,,,,,,,30,,,,,,,,608.3984084000112,608.3984084000112,608.3984084000112,608.3984084000112,608.3984084000112,0,-53,0.24,0,return,0.790041699889116,17,0,0,1,0.24,0,return,0.7102455999702215,,,,,,,,,,,,,,,,,,,,,,,,,,,,,,,,,,,,,,,,,,,,,,,,,,,,,,,,AJM9RJ,train_x,red_square,top_right,2025-02-03_12h34.17.553,HideSeek_v1,2022.2.5,59.97361160545111,
,7,6,2,6,-5,0,66,,train_dim1_1,23,30,,,,2,0,2,0,,,,,,,,,0,0,0,0,0,22,22,22,0,0,0,0,,,,,,,,,,,,,,,,,,,,,,,,,stimuli/alien_stimuli/66.png,,,,,,,,,,,,,,,,,,,,,,,,,,,,,stimuli/alien_stimuli/26.png,26,6,24,,,,,,,30,,,,,,,,615.5577177000232,615.5577177000232,615.5577177000232,615.5577177000232,615.5577177000232,0,-53,0.4,0.08,return,1.7563594001112506,17,0,0,0,0.4,0.08,return,1.6673448999645188,613.9991747000022,615.5577177000232,0.24,0,0.0,0.08,0.0,0.24,0.28,0.24,0,610.7544397000456,610.7544397000456,610.7544397000456,610.7544397000456,610.7544397000456,610.7544397000456,610.7544397000456,610.7544397000456,610.7461285600207,3.3552000999916345,return,3.2139105999376625,,,,,,,,,,,,,,,,,,,,,,,,,,,,,,,,,AJM9RJ,train_x,red_square,top_right,2025-02-03_12h34.17.553,HideSeek_v1,2022.2.5,59.97361160545111,
,9,9,5,9,-4,0,56,,train_dim1_1,24,30,,,,2,0,2,0,,,,,,,,,0,0,0,0,0,23,23,23,0,0,0,0,,,,,,,,,,,,,,,,,,,,,,,,,stimuli/alien_stimuli/56.png,,,,,,,,,,,,,,,,,,,,,,,,,,,,,stimuli/alien_stimuli/66.png,66,7,25,,,,,,,30,,,,,,,,623.6664304999867,623.6664304999867,623.6664304999867,623.6664304999867,623.6664304999867,,,,,left,1.42298400006257,17,0,0,99,0.48000000000000004,0.32,left,1.3305560000007972,622.1055721000303,623.6664304999867,0,0.08,0.0,0.4,0.08,0,0.2,0,0.08,618.8710110000102,618.8710110000102,618.8710110000102,618.8710110000102,618.8710110000102,618.8710110000102,618.8710110000102,618.8710110000102,618.8531281799544,3.3384028000291437,return,3.2175938000436872,,,,,,,,,,,,,,,,,,,,,,,,,,,,,,,,,AJM9RJ,train_x,red_square,top_right,2025-02-03_12h34.17.553,HideSeek_v1,2022.2.5,59.97361160545111,
,9,9,5,9,-4,0,56,,train_dim1_1,24,30,,,,2,0,2,0,,,,,,,,,0,0,0,0,0,23,23,23,1,0,1,0,,,,,,,,,,,,,,,,,,,,,,,,,,,,,,,,,,,,,,,,,,,,,,,,,,,,,,,,,,,,,,,,30,,,,,,,,625.0898098000325,625.0898098000325,625.0898098000325,625.0898098000325,625.0898098000325,,,,,left,1.1605797000229359,17,0,0,99,0.4,0.32,left,1.0869130999781191,,,,,,,,,,,,,,,,,,,,,,,,,,,,,,,,,,,,,,,,,,,,,,,,,,,,,,,,AJM9RJ,train_x,red_square,top_right,2025-02-03_12h34.17.553,HideSeek_v1,2022.2.5,59.97361160545111,
,9,9,5,9,-4,0,56,,train_dim1_1,24,30,,,,2,0,2,0,,,,,,,,,0,0,0,0,0,23,23,23,2,0,2,0,,,,,,,,,,,,,,,,,,,,,,,,,,,,,,,,,,,,,,,,,,,,,,,,,,,,,,,,,,,,,,,,30,,,,,,,,626.2573237000033,626.2573237000033,626.2573237000033,626.2573237000033,626.2573237000033,,,,,left,1.060054500005208,17,0,0,99,0.32,0.32,left,0.983978100004606,,,,,,,,,,,,,,,,,,,,,,,,,,,,,,,,,,,,,,,,,,,,,,,,,,,,,,,,AJM9RJ,train_x,red_square,top_right,2025-02-03_12h34.17.553,HideSeek_v1,2022.2.5,59.97361160545111,
,9,9,5,9,-4,0,56,,train_dim1_1,24,30,,,,2,0,2,0,,,,,,,,,0,0,0,0,0,23,23,23,3,0,3,0,,,,,,,,,,,,,,,,,,,,,,,,,,,,,,,,,,,,,,,,,,,,,,,,,,,,,,,,,,,,,,,,30,,,,,,,,627.3247032000218,627.3247032000218,627.3247032000218,627.3247032000218,627.3247032000218,,,,,left,0.9772850000299513,17,0,0,99,0.24,0.32,left,0.8927046000026166,,,,,,,,,,,,,,,,,,,,,,,,,,,,,,,,,,,,,,,,,,,,,,,,,,,,,,,,AJM9RJ,train_x,red_square,top_right,2025-02-03_12h34.17.553,HideSeek_v1,2022.2.5,59.97361160545111,
,9,9,5,9,-4,0,56,,train_dim1_1,24,30,,,,2,0,2,0,,,,,,,,,0,0,0,0,0,23,23,23,4,0,4,0,,,,,,,,,,,,,,,,,,,,,,,,,,,,,,,,,,,,,,,,,,,,,,,,,,,,,,,,,,,,,,,,30,,,,,,,,628.3100055999821,628.3100055999821,628.3100055999821,628.3100055999821,628.3100055999821,0,-57,0.24,0.32,return,1.0774941999698058,18,0,0,1,0.24,0.32,return,1.0011004999978468,,,,,,,,,,,,,,,,,,,,,,,,,,,,,,,,,,,,,,,,,,,,,,,,,,,,,,,,AJM9RJ,train_x,red_square,top_right,2025-02-03_12h34.17.553,HideSeek_v1,2022.2.5,59.97361160545111,
,8,5,8,5,0,0,16,,train_dim1_1,25,30,,,,2,0,2,0,,,,,,,,,0,0,0,0,0,24,24,24,0,0,0,0,,,,,,,,,,,,,,,,,,,,,,,,,stimuli/alien_stimuli/16.png,,,,,,,,,,,,,,,,,,,,,,,,,,,,,stimuli/alien_stimuli/56.png,56,9,26,,,,,,,30,,,,,,,,635.5774411000311,635.5774411000311,635.5774411000311,635.5774411000311,635.5774411000311,0,-57,0.48,0,return,2.991778700030409,19,0,0,1,0.48,0,return,2.9020100999623537,634.015880699968,635.5774411000311,0.24,0.32,0.0,0.32,0.32,0.24,0.4,0.24,0.32,630.9603229999775,630.9603229999775,630.9603229999775,630.9603229999775,630.9603229999775,630.9603229999775,630.9603229999775,630.9603229999775,630.9464229600039,3.1713675000937656,return,3.0289445999078453,,,,,,,,,,,,,,,,,,,,,,,,,,,,,,,,,AJM9RJ,train_x,red_square,top_right,2025-02-03_12h34.17.553,HideSeek_v1,2022.2.5,59.97361160545111,
,6,6,1,6,-5,0,66,,train_dim1_1,26,30,,,,2,0,2,0,,,,,,,,,0,0,0,0,0,25,25,25,0,0,0,0,,,,,,,,,,,,,,,,,,,,,,,,,stimuli/alien_stimuli/66.png,,,,,,,,,,,,,,,,,,,,,,,,,,,,,stimuli/alien_stimuli/16.png,16,8,27,,,,,,,30,,,,,,,,643.4186909999698,643.4186909999698,643.4186909999698,643.4186909999698,643.4186909999698,,,,,left,2.2559553999453783,19,0,0,99,0.24,0.08,left,2.1423233000095934,641.8388321000384,643.4186909999698,0.48,0,0.0,0.0,0.0,0.48,0.48,0.48,0,640.1448977999389,640.1448977999389,640.1448977999389,640.1448977999389,640.1448977999389,640.1448977999389,640.1448977999389,640.1448977999389,640.1373906400055,1.8201454000081867,return,1.666077599977143,,,,,,,,,,,,,,,,,,,,,,,,,,,,,,,,,AJM9RJ,train_x,red_square,top_right,2025-02-03_12h34.17.553,HideSeek_v1,2022.2.5,59.97361160545111,
,6,6,1,6,-5,0,66,,train_dim1_1,26,30,,,,2,0,2,0,,,,,,,,,0,0,0,0,0,25,25,25,1,0,1,0,,,,,,,,,,,,,,,,,,,,,,,,,,,,,,,,,,,,,,,,,,,,,,,,,,,,,,,,,,,,,,,,30,,,,,,,,645.6578140000347,645.6578140000347,645.6578140000347,645.6578140000347,645.6578140000347,,,,,left,0.9422384999925271,19,0,0,99,0.15999999999999998,0.08,left,0.859719599946402,,,,,,,,,,,,,,,,,,,,,,,,,,,,,,,,,,,,,,,,,,,,,,,,,,,,,,,,AJM9RJ,train_x,red_square,top_right,2025-02-03_12h34.17.553,HideSeek_v1,2022.2.5,59.97361160545111,
,6,6,1,6,-5,0,66,,train_dim1_1,26,30,,,,2,0,2,0,,,,,,,,,0,0,0,0,0,25,25,25,2,0,2,0,,,,,,,,,,,,,,,,,,,,,,,,,,,,,,,,,,,,,,,,,,,,,,,,,,,,,,,,,,,,,,,,30,,,,,,,,646.6069473000243,646.6069473000243,646.6069473000243,646.6069473000243,646.6069473000243,,,,,left,0.9769520000554621,19,0,0,99,0.07999999999999997,0.08,left,0.9026345999445766,,,,,,,,,,,,,,,,,,,,,,,,,,,,,,,,,,,,,,,,,,,,,,,,,,,,,,,,AJM9RJ,train_x,red_square,top_right,2025-02-03_12h34.17.553,HideSeek_v1,2022.2.5,59.97361160545111,
,6,6,1,6,-5,0,66,,train_dim1_1,26,30,,,,2,0,2,0,,,,,,,,,0,0,0,0,0,25,25,25,3,0,3,0,,,,,,,,,,,,,,,,,,,,,,,,,,,,,,,,,,,,,,,,,,,,,,,,,,,,,,,,,,,,,,,,30,,,,,,,,647.5897534999531,647.5897534999531,647.5897534999531,647.5897534999531,647.5897534999531,,,,,left,0.8437942999880761,19,0,0,99,-2.7755575615628914e-17,0.08,left,0.7605874999426305,,,,,,,,,,,,,,,,,,,,,,,,,,,,,,,,,,,,,,,,,,,,,,,,,,,,,,,,AJM9RJ,train_x,red_square,top_right,2025-02-03_12h34.17.553,HideSeek_v1,2022.2.5,59.97361160545111,
,6,6,1,6,-5,0,66,,train_dim1_1,26,30,,,,2,0,2,0,,,,,,,,,0,0,0,0,0,25,25,25,4,0,4,0,,,,,,,,,,,,,,,,,,,,,,,,,,,,,,,,,,,,,,,,,,,,,,,,,,,,,,,,,,,,,,,,30,,,,,,,,648.4402744000545,648.4402744000545,648.4402744000545,648.4402744000545,648.4402744000545,0,-61,-2.7755575615628914e-17,0.08,return,2.0947310000192374,19,1,0,0,-2.7755575615628914e-17,0.08,return,2.0123529999982566,,,,,,,,,,,,,,,,,,,,,,,,,,,,,,,,,,,,,,,,,,,,,,,,,,,,,,,,AJM9RJ,train_x,red_square,top_right,2025-02-03_12h34.17.553,HideSeek_v1,2022.2.5,59.97361160545111,
,5,6,2,6,-3,0,46,,train_dim1_1,27,30,,,,2,0,2,0,,,,,,,,,0,0,0,0,0,26,26,26,0,0,0,0,,,,,,,,,,,,,,,,,,,,,,,,,stimuli/alien_stimuli/46.png,,,,,,,,,,,,,,,,,,,,,,,,,,,,,stimuli/alien_stimuli/66.png,66,6,28,,,,,,,30,,,,,,,,656.7923733999487,656.7923733999487,656.7923733999487,656.7923733999487,656.7923733999487,,,,,left,2.272355300025083,19,1,0,99,0.15999999999999998,0.08,left,2.189892900059931,655.2332335000392,656.7923733999487,-0.08,0.08,0.0,0.4,0.08,-0.08,0.12,-0.08,0.08,652.0994789999677,652.0994789999677,652.0994789999677,652.0994789999677,652.0994789999677,652.0994789999677,652.0994789999677,652.0994789999677,652.0806022800273,3.2379173999652267,return,3.1124913999810815,,,,,,,,,,,,,,,,,,,,,,,,,,,,,,,,,AJM9RJ,train_x,red_square,top_right,2025-02-03_12h34.17.553,HideSeek_v1,2022.2.5,59.97361160545111,
,5,6,2,6,-3,0,46,,train_dim1_1,27,30,,,,2,0,2,0,,,,,,,,,0,0,0,0,0,26,26,26,1,0,1,0,,,,,,,,,,,,,,,,,,,,,,,,,,,,,,,,,,,,,,,,,,,,,,,,,,,,,,,,,,,,,,,,30,,,,,,,,659.0672952999594,659.0672952999594,659.0672952999594,659.0672952999594,659.0672952999594,,,,,left,0.8429962999653071,19,1,0,99,0.07999999999999997,0.08,left,0.7653476999839768,,,,,,,,,,,,,,,,,,,,,,,,,,,,,,,,,,,,,,,,,,,,,,,,,,,,,,,,AJM9RJ,train_x,red_square,top_right,2025-02-03_12h34.17.553,HideSeek_v1,2022.2.5,59.97361160545111,
,5,6,2,6,-3,0,46,,train_dim1_1,27,30,,,,2,0,2,0,,,,,,,,,0,0,0,0,0,26,26,26,2,0,2,0,,,,,,,,,,,,,,,,,,,,,,,,,,,,,,,,,,,,,,,,,,,,,,,,,,,,,,,,,,,,,,,,30,,,,,,,,659.9171340999892,659.9171340999892,659.9171340999892,659.9171340999892,659.9171340999892,,,,,left,1.0436313999816775,19,1,0,99,-2.7755575615628914e-17,0.08,left,0.9600108000449836,,,,,,,,,,,,,,,,,,,,,,,,,,,,,,,,,,,,,,,,,,,,,,,,,,,,,,,,AJM9RJ,train_x,red_square,top_right,2025-02-03_12h34.17.553,HideSeek_v1,2022.2.5,59.97361160545111,
,5,6,2,6,-3,0,46,,train_dim1_1,27,30,,,,2,0,2,0,,,,,,,,,0,0,0,0,0,26,26,26,3,0,3,0,,,,,,,,,,,,,,,,,,,,,,,,,,,,,,,,,,,,,,,,,,,,,,,,,,,,,,,,,,,,,,,,30,,,,,,,,660.9676285999594,660.9676285999594,660.9676285999594,660.9676285999594,660.9676285999594,,,,,left,1.9772870999295264,19,1,0,99,-0.08000000000000003,0.08,left,1.9040432999609038,,,,,,,,,,,,,,,,,,,,,,,,,,,,,,,,,,,,,,,,,,,,,,,,,,,,,,,,AJM9RJ,train_x,red_square,top_right,2025-02-03_12h34.17.553,HideSeek_v1,2022.2.5,59.97361160545111,
,5,6,2,6,-3,0,46,,train_dim1_1,27,30,,,,2,0,2,0,,,,,,,,,0,0,0,0,0,26,26,26,4,0,4,0,,,,,,,,,,,,,,,,,,,,,,,,,,,,,,,,,,,,,,,,,,,,,,,,,,,,,,,,,,,,,,,,30,,,,,,,,662.952272900031,662.952272900031,662.952272900031,662.952272900031,662.952272900031,0,-65,-0.08000000000000003,0.08,return,5.848338900017552,19,1,0,0,-0.08000000000000003,0.08,return,5.759806199930608,,,,,,,,,,,,,,,,,,,,,,,,,,,,,,,,,,,,,,,,,,,,,,,,,,,,,,,,AJM9RJ,train_x,red_square,top_right,2025-02-03_12h34.17.553,HideSeek_v1,2022.2.5,59.97361160545111,
,8,6,7,6,-1,0,26,,train_dim1_1,28,30,,,,2,0,2,0,,,,,,,,,0,0,0,0,0,27,27,27,0,0,0,0,,,,,,,,,,,,,,,,,,,,,,,,,stimuli/alien_stimuli/26.png,,,,,,,,,,,,,,,,,,,,,,,,,,,,,stimuli/alien_stimuli/46.png,46,5,29,,,,,,,30,,,,,,,,673.9761823000154,673.9761823000154,673.9761823000154,673.9761823000154,673.9761823000154,,,,,left,2.7225779000436887,19,1,0,99,0.39999999999999997,0.08,left,2.620457599987276,672.3973563000327,673.9761823000154,0,0.08,0.0,0.24,0.08,0,0.12,0,0.08,670.374766599969,670.374766599969,670.374766599969,670.374766599969,670.374766599969,670.374766599969,670.374766599969,670.374766599969,670.3620422599838,2.1377588999457657,return,1.9979853000259027,,,,,,,,,,,,,,,,,,,,,,,,,,,,,,,,,AJM9RJ,train_x,red_square,top_right,2025-02-03_12h34.17.553,HideSeek_v1,2022.2.5,59.97361160545111,
,8,6,7,6,-1,0,26,,train_dim1_1,28,30,,,,2,0,2,0,,,,,,,,,0,0,0,0,0,27,27,27,1,0,1,0,,,,,,,,,,,,,,,,,,,,,,,,,,,,,,,,,,,,,,,,,,,,,,,,,,,,,,,,,,,,,,,,30,,,,,,,,676.6844144000206,676.6844144000206,676.6844144000206,676.6844144000206,676.6844144000206,0,-66,0.39999999999999997,0.08,return,1.3105830000713468,20,0,0,1,0.39999999999999997,0.08,return,1.226302700000815,,,,,,,,,,,,,,,,,,,,,,,,,,,,,,,,,,,,,,,,,,,,,,,,,,,,,,,,AJM9RJ,train_x,red_square,top_right,2025-02-03_12h34.17.553,HideSeek_v1,2022.2.5,59.97361160545111,
,9,5,5,5,-4,0,56,,train_dim1_1,29,30,,,,2,0,2,0,,,,,,,,,0,0,0,0,0,28,28,28,0,0,0,0,,,,,,,,,,,,,,,,,,,,,,,,,stimuli/alien_stimuli/56.png,,,,,,,,,,,,,,,,,,,,,,,,,,,,,stimuli/alien_stimuli/26.png,26,8,30,,,,,,,30,,,,,,,,682.9338780000107,682.9338780000107,682.9338780000107,682.9338780000107,682.9338780000107,,,,,left,2.5539101000176743,20,0,0,99,0.48000000000000004,0,left,2.4568896000273526,681.3549132000189,682.9338780000107,0.4,0.08,0.0,0.08,0.08,0.4,0.44,0.4,0.08,679.560835900018,679.560835900018,679.560835900018,679.560835900018,679.560835900018,679.560835900018,679.560835900018,679.560835900018,679.5532786600293,1.9038236000342295,return,1.7723470999626443,,,,,,,,,,,,,,,,,,,,,,,,,,,,,,,,,AJM9RJ,train_x,red_square,top_right,2025-02-03_12h34.17.553,HideSeek_v1,2022.2.5,59.97361160545111,
,9,5,5,5,-4,0,56,,train_dim1_1,29,30,,,,2,0,2,0,,,,,,,,,0,0,0,0,0,28,28,28,1,0,1,0,,,,,,,,,,,,,,,,,,,,,,,,,,,,,,,,,,,,,,,,,,,,,,,,,,,,,,,,,,,,,,,,30,,,,,,,,685.474237699993,685.474237699993,685.474237699993,685.474237699993,685.474237699993,,,,,left,1.0597144999774173,20,0,0,99,0.4,0,left,0.9771241000853479,,,,,,,,,,,,,,,,,,,,,,,,,,,,,,,,,,,,,,,,,,,,,,,,,,,,,,,,AJM9RJ,train_x,red_square,top_right,2025-02-03_12h34.17.553,HideSeek_v1,2022.2.5,59.97361160545111,
,9,5,5,5,-4,0,56,,train_dim1_1,29,30,,,,2,0,2,0,,,,,,,,,0,0,0,0,0,28,28,28,2,0,2,0,,,,,,,,,,,,,,,,,,,,,,,,,,,,,,,,,,,,,,,,,,,,,,,,,,,,,,,,,,,,,,,,30,,,,,,,,686.5413207999663,686.5413207999663,686.5413207999663,686.5413207999663,686.5413207999663,,,,,left,1.3108670000219718,20,0,0,99,0.32,0,left,1.2362900999141857,,,,,,,,,,,,,,,,,,,,,,,,,,,,,,,,,,,,,,,,,,,,,,,,,,,,,,,,AJM9RJ,train_x,red_square,top_right,2025-02-03_12h34.17.553,HideSeek_v1,2022.2.5,59.97361160545111,
,9,5,5,5,-4,0,56,,train_dim1_1,29,30,,,,2,0,2,0,,,,,,,,,0,0,0,0,0,28,28,28,3,0,3,0,,,,,,,,,,,,,,,,,,,,,,,,,,,,,,,,,,,,,,,,,,,,,,,,,,,,,,,,,,,,,,,,30,,,,,,,,687.8589043000247,687.8589043000247,687.8589043000247,687.8589043000247,687.8589043000247,,,,,left,0.8938005000818521,20,0,0,99,0.24,0,left,0.8169776999857277,,,,,,,,,,,,,,,,,,,,,,,,,,,,,,,,,,,,,,,,,,,,,,,,,,,,,,,,AJM9RJ,train_x,red_square,top_right,2025-02-03_12h34.17.553,HideSeek_v1,2022.2.5,59.97361160545111,
,9,5,5,5,-4,0,56,,train_dim1_1,29,30,,,,2,0,2,0,,,,,,,,,0,0,0,0,0,28,28,28,4,0,4,0,,,,,,,,,,,,,,,,,,,,,,,,,,,,,,,,,,,,,,,,,,,,,,,,,,,,,,,,,,,,,,,,30,,,,,,,,688.7594696000451,688.7594696000451,688.7594696000451,688.7594696000451,688.7594696000451,0,-70,0.24,0,return,1.0272822000551969,21,0,0,1,0.24,0,return,0.9464180999202654,,,,,,,,,,,,,,,,,,,,,,,,,,,,,,,,,,,,,,,,,,,,,,,,,,,,,,,,AJM9RJ,train_x,red_square,top_right,2025-02-03_12h34.17.553,HideSeek_v1,2022.2.5,59.97361160545111,
,7,7,7,7,0,0,16,,train_dim1_1,30,30,,,,2,0,2,0,,,,,,,,,0,0,0,0,0,29,29,29,0,0,0,0,,,,,,,,,,,,,,,,,,,,,,,,,stimuli/alien_stimuli/16.png,,,,,,,,,,,,,,,,,,,,,,,,,,,,,stimuli/alien_stimuli/56.png,56,9,31,,,,,,,30,,,,,,,,694.3220845999895,694.3220845999895,694.3220845999895,694.3220845999895,694.3220845999895,0,-70,0.4,0.16,return,2.0053828000091016,22,0,0,1,0.4,0.16,return,1.9010056999977678,692.7474957000231,694.3220845999895,0.24,0,0.0,0.32,0.0,0.24,0.4,0.24,0,691.3673418000108,691.3673418000108,691.3673418000108,691.3673418000108,691.3673418000108,691.3673418000108,691.3673418000108,691.3673418000108,691.3465594600189,1.503135500010103,return,1.3569818000542,,,,,,,,,,,,,,,,,,,,,,,,,,,,,,,,,AJM9RJ,train_x,red_square,top_right,2025-02-03_12h34.17.553,HideSeek_v1,2022.2.5,59.97361160545111,
,,,,,,,,,,,30,,,,2,0,2,0,,,,,,,,,,,,,,,,,,,,,,,,,,,,,,,,,,,,,,,,,,,,,,,,,,,,,,,,,,,,,,,,,,,,,,,,,,stimuli/alien_stimuli/16.png,16,7,32,21,0.7,0.9166666666666667,1,1,1,30,0,conditions/schedules/train_x_first/red_square_00/top_right/inputTrain_2.1.xlsx,99,1,2,1,0,,,,,,,,,,,,,,,1,,,,,699.2363802000182,700.7795345999766,0.4,0.16,0.0,0.0,0.16,0.4,0.4,0.4,0.16,697.8759882999584,697.8759882999584,697.8759882999584,697.8759882999584,697.8759882999584,697.8759882999584,697.8759882999584,697.8759882999584,697.8685517599574,1.470161100034602,return,1.340225400053896,0,0.9,0,1,22,,,,,,,,,,,,,,,,,,,,,,,,,,,,AJM9RJ,train_x,red_square,top_right,2025-02-03_12h34.17.553,HideSeek_v1,2022.2.5,59.97361160545111,
,,,,,,,,,,,,,,,3,0,3,0,0,0,0,0,,,,,,,,,,,,,,,,,,,,,,,,,,,,,,,conditions/schedules/train_x_first/red_square_00/top_right/instructions/Slide17.png,conditions/schedules/train_x_first/red_square_00/top_right/instructions/Audio17.wav,700.7795345999766,700.771011139988,17,"[9.794767400017008, 20.68448639998678, 17.504142399993725, 19.493909900076687, 4.988969800062478, 4.886451600003056, 5.538069300004281, 11.974042600020766, 6.33445089997258, 6.900770299951546, 9.886889999965206, 12.488420699955896, 16.76573769992683, 12.915359699982218, 31.954514699988067, 21.925997199956328, 40.70690580003429]","[0.014416699996218085, 20.68449299992062, 0.03055980009958148, 0.014461299986578524, 0.03274309996049851, 0.06649520003702492, 0.0471047000028193, 0.03044280002359301, 0.07883250003214926, 0.04592629999388009, 0.04679980000946671, 12.48842720000539, 0.054556299932301044, 12.915366499917582, 0.04742439999245107, 21.92600360000506, 40.70691390009597]",0,,,,,,,,,,,,,,,,,,,,,,,,,,,,,,,,,,,,,,,,,,,,,,,,,,,,,,,,,,,,,,,,,,,,,,,,,,,,,,,,,,,,,,,,,,,,,,,,,,,,,,,,,,,,,,,,,,,,,,,,,,,,AJM9RJ,train_x,red_square,top_right,2025-02-03_12h34.17.553,HideSeek_v1,2022.2.5,59.97361160545111,
,,,,,,,,,,,,,,,3,0,3,0,1,0,1,0,,,,,,,,,,,,,,,,,,,,,,,,,,,,,,,conditions/schedules/train_x_first/red_square_00/top_right/instructions/Slide18.png,conditions/schedules/train_x_first/red_square_00/top_right/instructions/Audio18.wav,741.556276599993,741.554635599954,18,"[9.794767400017008, 20.68448639998678, 17.504142399993725, 19.493909900076687, 4.988969800062478, 4.886451600003056, 5.538069300004281, 11.974042600020766, 6.33445089997258, 6.900770299951546, 9.886889999965206, 12.488420699955896, 16.76573769992683, 12.915359699982218, 31.954514699988067, 21.925997199956328, 40.70690580003429, 6.751335799926892]","[0.014416699996218085, 20.68449299992062, 0.03055980009958148, 0.014461299986578524, 0.03274309996049851, 0.06649520003702492, 0.0471047000028193, 0.03044280002359301, 0.07883250003214926, 0.04592629999388009, 0.04679980000946671, 12.48842720000539, 0.054556299932301044, 12.915366499917582, 0.04742439999245107, 21.92600360000506, 40.70691390009597, 6.751342499977909]",0,,,,,,,,,,,,,,,,,,,,,,,,,,,,,,,,,,,,,,,,,,,,,,,,,,,,,,,,,,,,,,,,,,,,,,,,,,,,,,,,,,,,,,,,,,,,,,,,,,,,,,,,,,,,,,,,,,,,,,,,,,,,AJM9RJ,train_x,red_square,top_right,2025-02-03_12h34.17.553,HideSeek_v1,2022.2.5,59.97361160545111,
,,,,,,,,,,,,,,,3,0,3,0,2,0,2,0,,,,,,,,,,,,,,,,,,,,,,,,,,,,,,,conditions/schedules/train_x_first/red_square_00/top_right/instructions/Slide19.png,conditions/schedules/train_x_first/red_square_00/top_right/instructions/Audio19.wav,748.3468089000089,748.343696140009,19,"[9.794767400017008, 20.68448639998678, 17.504142399993725, 19.493909900076687, 4.988969800062478, 4.886451600003056, 5.538069300004281, 11.974042600020766, 6.33445089997258, 6.900770299951546, 9.886889999965206, 12.488420699955896, 16.76573769992683, 12.915359699982218, 31.954514699988067, 21.925997199956328, 40.70690580003429, 6.751335799926892, 11.170623900019564]","[0.014416699996218085, 20.68449299992062, 0.03055980009958148, 0.014461299986578524, 0.03274309996049851, 0.06649520003702492, 0.0471047000028193, 0.03044280002359301, 0.07883250003214926, 0.04592629999388009, 0.04679980000946671, 12.48842720000539, 0.054556299932301044, 12.915366499917582, 0.04742439999245107, 21.92600360000506, 40.70691390009597, 0.047116000088863075, 11.170630700071342]",0,,,,,,,,,,,,,,,,,,,,,,,,,,,,,,,,,,,,,,,,,,,,,,,,,,,,,,,,,,,,,,,,,,,,,,,,,,,,,,,,,,,,,,,,,,,,,,,,,,,,,,,,,,,,,,,,,,,,,,,,,,,,AJM9RJ,train_x,red_square,top_right,2025-02-03_12h34.17.553,HideSeek_v1,2022.2.5,59.97361160545111,
,,,,,,,,,,,,,,,3,0,3,0,3,0,3,0,,,,,,,,,,,,,,,,,,,,,,,,,,,,,,,conditions/schedules/train_x_first/red_square_00/top_right/instructions/Slide20.png,conditions/schedules/train_x_first/red_square_00/top_right/instructions/Audio20.wav,759.5899576999946,759.586379299988,20,"[9.794767400017008, 20.68448639998678, 17.504142399993725, 19.493909900076687, 4.988969800062478, 4.886451600003056, 5.538069300004281, 11.974042600020766, 6.33445089997258, 6.900770299951546, 9.886889999965206, 12.488420699955896, 16.76573769992683, 12.915359699982218, 31.954514699988067, 21.925997199956328, 40.70690580003429, 6.751335799926892, 11.170623900019564, 13.771858500083908]","[0.014416699996218085, 20.68449299992062, 0.03055980009958148, 0.014461299986578524, 0.03274309996049851, 0.06649520003702492, 0.0471047000028193, 0.03044280002359301, 0.07883250003214926, 0.04592629999388009, 0.04679980000946671, 12.48842720000539, 0.054556299932301044, 12.915366499917582, 0.04742439999245107, 21.92600360000506, 40.70691390009597, 0.047116000088863075, 0.013892400078475475, 13.771864900016226]",0,,,,,,,,,,,,,,,,,,,,,,,,,,,,,,,,,,,,,,,,,,,,,,,,,,,,,,,,,,,,,,,,,,,,,,,,,,,,,,,,,,,,,,,,,,,,,,,,,,,,,,,,,,,,,,,,,,,,,,,,,,,,AJM9RJ,train_x,red_square,top_right,2025-02-03_12h34.17.553,HideSeek_v1,2022.2.5,59.97361160545111,
1,7,8,7,3,0,-5,11,2,instr_dim1_2,,,,,,3,0,3,0,,,,,0,0,0,0,,,,,,,,,,,,,,,,,,,,,,,,,,,,,,,,,,,,,stimuli/alien_stimuli/11.png,conditions/schedules/train_x_first/red_square_00/top_right/inputInstr_2.xlsx,stimuli/alien_stimuli/11.png,773.4591368000256,773.4591368000256,773.4591368000256,773.4591368000256,773.4644449599787,return,7.056308800005354,"[-0.16, -0.08, 0, 0.08, 0.16, 0.24, 0.32, 0.4, 0.48, 0.56]","[-0.4, -0.32, -0.24, -0.16, -0.08, 0, 0.08, 0.16, 0.24, 0.32]",3,8,7,7,0.4,0.0,780.665672800038,780.665672800038,780.665672800038,780.665672800038,780.665672800038,780.665672800038,780.665672800038,780.6537387399236,10.526424100040458,return,10.36485160002485,stimuli/alien_stimuli/11.png,11,7,1,,,,,,,,,,,,,,,,,,,,,,,,,,,,,,,,,,,,,,,,,,,,,,,,,,,,,,,,,,,,,,,,,,,,,,,,,,,,,,,,,,,,,,,,,AJM9RJ,train_x,red_square,top_right,2025-02-03_12h34.17.553,HideSeek_v1,2022.2.5,59.97361160545111,
,,,,,,,,,,,30,,,,3,0,3,0,,,,,,,,,,,,,,,,,,,,,,,,,,,,,,,,,,,,,,,,,,,,,,,,,,,,,,,,,,,,,,,,,,,,,,,,,,,,,,21,0.7,0.9166666666666667,1,99,2,30,0,conditions/schedules/train_x_first/red_square_00/top_right/inputTrain_2.1.xlsx,99,1,2,1,0,,,,,,,,,,,,,,,,,,,,,,,,,,,,,,,,,,,,,,,,,,,,,,,,,,,,,,,,,,,,,,,,,,,,,,,,,,,AJM9RJ,train_x,red_square,top_right,2025-02-03_12h34.17.553,HideSeek_v1,2022.2.5,59.97361160545111,
,,,,,,,,,,,,,,,4,0,4,0,0,0,0,0,,,,,,,,,,,,,,,,,,,,,,,,,,,,,,,conditions/schedules/train_x_first/red_square_00/top_right/instructions/Slide21.png,conditions/schedules/train_x_first/red_square_00/top_right/instructions/Audio21.wav,791.2019430999644,791.1959107199917,21,"[9.794767400017008, 20.68448639998678, 17.504142399993725, 19.493909900076687, 4.988969800062478, 4.886451600003056, 5.538069300004281, 11.974042600020766, 6.33445089997258, 6.900770299951546, 9.886889999965206, 12.488420699955896, 16.76573769992683, 12.915359699982218, 31.954514699988067, 21.925997199956328, 40.70690580003429, 6.751335799926892, 11.170623900019564, 13.771858500083908, 16.78837800002657]","[0.014416699996218085, 20.68449299992062, 0.03055980009958148, 0.014461299986578524, 0.03274309996049851, 0.06649520003702492, 0.0471047000028193, 0.03044280002359301, 0.07883250003214926, 0.04592629999388009, 0.04679980000946671, 12.48842720000539, 0.054556299932301044, 12.915366499917582, 0.04742439999245107, 21.92600360000506, 40.70691390009597, 0.047116000088863075, 0.013892400078475475, 13.771864900016226, 16.78838469996117]",0,,,,,,,,,,,,,,,,,,,,,,,,,,,,,,,,,,,,,,,,,,,,,,,,,,,,,,,,,,,,,,,,,,,,,,,,,,,,,,,,,,,,,,,,,,,,,,,,,,,,,,,,,,,,,,,,,,,,,,,,,,,,AJM9RJ,train_x,red_square,top_right,2025-02-03_12h34.17.553,HideSeek_v1,2022.2.5,59.97361160545111,
2,5,8,5,8,0,0,16,2,instr_dim1_2,,,,,,4,0,4,0,,,,,0,0,0,0,,,,,,,,,,,,,,,,,,,,,,,,,,,,,,,,,,,,,stimuli/alien_stimuli/16.png,conditions/schedules/train_x_first/red_square_00/top_right/inputInstr_2.xlsx,stimuli/alien_stimuli/16.png,808.0913027999923,808.0913027999923,808.0913027999923,808.0913027999923,808.0932609599317,return,8.185056200018153,"[-0.16, -0.08, 0, 0.08, 0.16, 0.24, 0.32, 0.4, 0.48, 0.56]","[-0.4, -0.32, -0.24, -0.16, -0.08, 0, 0.08, 0.16, 0.24, 0.32]",8,8,5,5,0.0,0.0,816.4308965000091,816.4308965000091,816.4308965000091,816.4308965000091,816.4308965000091,816.4308965000091,816.4308965000091,816.416885540029,10.85986770002637,return,10.707980199949816,stimuli/alien_stimuli/16.png,16,5,2,,,,,,,,,,,,,,,,,,,,,,,,,,,,,,,,,,,,,,,,,,,,,,,,,,,,,,,,,,,,,,,,,,,,,,,,,,,,,,,,,,,,,,,,,AJM9RJ,train_x,red_square,top_right,2025-02-03_12h34.17.553,HideSeek_v1,2022.2.5,59.97361160545111,
,,,,,,,,,,,30,,,,4,0,4,0,,,,,,,,,,,,,,,,,,,,,,,,,,,,,,,,,,,,,,,,,,,,,,,,,,,,,,,,,,,,,,,,,,,,,,,,,,,,,,21,0.7,0.9166666666666667,1,99,2,30,0,conditions/schedules/train_x_first/red_square_00/top_right/inputTrain_2.1.xlsx,99,1,2,1,0,,,,,,,,,,,,,,,,,,,,,,,,,,,,,,,,,,,,,,,,,,,,,,,,,,,,,,,,,,,,,,,,,,,,,,,,,,,AJM9RJ,train_x,red_square,top_right,2025-02-03_12h34.17.553,HideSeek_v1,2022.2.5,59.97361160545111,
,,,,,,,,,,,,,,,5,0,5,0,0,0,0,0,,,,,,,,,,,,,,,,,,,,,,,,,,,,,,,conditions/schedules/train_x_first/red_square_00/top_right/instructions/Slide22.png,conditions/schedules/train_x_first/red_square_00/top_right/instructions/Audio22.wav,827.3086987000424,827.3091211999999,22,"[9.794767400017008, 20.68448639998678, 17.504142399993725, 19.493909900076687, 4.988969800062478, 4.886451600003056, 5.538069300004281, 11.974042600020766, 6.33445089997258, 6.900770299951546, 9.886889999965206, 12.488420699955896, 16.76573769992683, 12.915359699982218, 31.954514699988067, 21.925997199956328, 40.70690580003429, 6.751335799926892, 11.170623900019564, 13.771858500083908, 16.78837800002657, 43.250320699997246]","[0.014416699996218085, 20.68449299992062, 0.03055980009958148, 0.014461299986578524, 0.03274309996049851, 0.06649520003702492, 0.0471047000028193, 0.03044280002359301, 0.07883250003214926, 0.04592629999388009, 0.04679980000946671, 12.48842720000539, 0.054556299932301044, 12.915366499917582, 0.04742439999245107, 21.92600360000506, 40.70691390009597, 0.047116000088863075, 0.013892400078475475, 13.771864900016226, 16.78838469996117, 43.25032739993185]",0,,,,,,,,,,,,,,,,,,,,,,,,,,,,,,,,,,,,,,,,,,,,,,,,,,,,,,,,,,,,,,,,,,,,,,,,,,,,,,,,,,,,,,,,,,,,,,,,,,,,,,,,,,,,,,,,,,,,,,,,,,,,AJM9RJ,train_x,red_square,top_right,2025-02-03_12h34.17.553,HideSeek_v1,2022.2.5,59.97361160545111,
,5,5,5,4,0,-1,15,,train_dim1_2,1,30,,,,5,0,5,0,,,,,,,,,0,0,0,0,0,0,0,0,0,0,0,0,,,,,,,,,,,,,,,,,,,,,,,,,stimuli/alien_stimuli/15.png,,,,,,,,,,,,,,,,,,,,,,,,,,,,,,,,,,,,,,,30,,,,,,,,870.664583100006,870.664583100006,870.664583100006,870.664583100006,870.664583100006,,,,,down,7.350352500099689,0,0,0,99,0.24,-0.08,down,7.253070299979299,,,,,,,,,,,,,,,,,,,,,,,,,,,,,,,,,,,,,,,,,,,,,,,,,,,,,,,,AJM9RJ,train_x,red_square,top_right,2025-02-03_12h34.17.553,HideSeek_v1,2022.2.5,59.97361160545111,
,5,5,5,4,0,-1,15,,train_dim1_2,1,30,,,,5,0,5,0,,,,,,,,,0,0,0,0,0,0,0,0,1,0,1,0,,,,,,,,,,,,,,,,,,,,,,,,,,,,,,,,,,,,,,,,,,,,,,,,,,,,,,,,,,,,,,,,30,,,,,,,,878.0029912999598,878.0029912999598,878.0029912999598,878.0029912999598,878.0029912999598,,,,,down,0.9433906000340357,0,0,0,99,0.24,-0.16,down,0.8647799999453127,,,,,,,,,,,,,,,,,,,,,,,,,,,,,,,,,,,,,,,,,,,,,,,,,,,,,,,,AJM9RJ,train_x,red_square,top_right,2025-02-03_12h34.17.553,HideSeek_v1,2022.2.5,59.97361160545111,
,5,5,5,4,0,-1,15,,train_dim1_2,1,30,,,,5,0,5,0,,,,,,,,,0,0,0,0,0,0,0,0,2,0,2,0,,,,,,,,,,,,,,,,,,,,,,,,,,,,,,,,,,,,,,,,,,,,,,,,,,,,,,,,,,,,,,,,30,,,,,,,,878.9534259999637,878.9534259999637,878.9534259999637,878.9534259999637,878.9534259999637,,,,,down,0.9604269999545068,0,0,0,99,0.24,-0.24,down,0.8827225000131875,,,,,,,,,,,,,,,,,,,,,,,,,,,,,,,,,,,,,,,,,,,,,,,,,,,,,,,,AJM9RJ,train_x,red_square,top_right,2025-02-03_12h34.17.553,HideSeek_v1,2022.2.5,59.97361160545111,
,5,5,5,4,0,-1,15,,train_dim1_2,1,30,,,,5,0,5,0,,,,,,,,,0,0,0,0,0,0,0,0,3,0,3,0,,,,,,,,,,,,,,,,,,,,,,,,,,,,,,,,,,,,,,,,,,,,,,,,,,,,,,,,,,,,,,,,30,,,,,,,,879.921210099943,879.921210099943,879.921210099943,879.921210099943,879.921210099943,,,,,down,1.2109277000417933,0,0,0,99,0.24,-0.32,down,1.128589199972339,,,,,,,,,,,,,,,,,,,,,,,,,,,,,,,,,,,,,,,,,,,,,,,,,,,,,,,,AJM9RJ,train_x,red_square,top_right,2025-02-03_12h34.17.553,HideSeek_v1,2022.2.5,59.97361160545111,
,5,5,5,4,0,-1,15,,train_dim1_2,1,30,,,,5,0,5,0,,,,,,,,,0,0,0,0,0,0,0,0,4,0,4,0,,,,,,,,,,,,,,,,,,,,,,,,,,,,,,,,,,,,,,,,,,,,,,,,,,,,,,,,,,,,,,,,30,,,,,,,,881.1382227999857,881.1382227999857,881.1382227999857,881.1382227999857,881.1382227999857,,,,,down,0.8434448000043631,0,0,0,99,0.24,-0.4,down,0.7577686000149697,,,,,,,,,,,,,,,,,,,,,,,,,,,,,,,,,,,,,,,,,,,,,,,,,,,,,,,,AJM9RJ,train_x,red_square,top_right,2025-02-03_12h34.17.553,HideSeek_v1,2022.2.5,59.97361160545111,
,5,5,5,4,0,-1,15,,train_dim1_2,1,30,,,,5,0,5,0,,,,,,,,,0,0,0,0,0,0,0,0,5,0,5,0,,,,,,,,,,,,,,,,,,,,,,,,,,,,,,,,,,,,,,,,,,,,,,,,,,,,,,,,,,,,,,,,30,,,,,,,,881.9885817000177,881.9885817000177,881.9885817000177,881.9885817000177,881.9885817000177,-5,-70,0.24,-0.4,return,1.5112097999081016,0,0,0,0,0.24,-0.4,return,1.4318731999956071,,,,,,,,,,,,,,,,,,,,,,,,,,,,,,,,,,,,,,,,,,,,,,,,,,,,,,,,AJM9RJ,train_x,red_square,top_right,2025-02-03_12h34.17.553,HideSeek_v1,2022.2.5,59.97361160545111,
,8,7,8,7,0,0,16,,train_dim1_2,2,30,,,,5,0,5,0,,,,,,,,,0,0,0,0,0,1,1,1,0,0,0,0,,,,,,,,,,,,,,,,,,,,,,,,,stimuli/alien_stimuli/16.png,,,,,,,,,,,,,,,,,,,,,,,,,,,,,stimuli/alien_stimuli/15.png,15,5,3,,,,,,,30,,,,,,,,894.7215739999665,894.7215739999665,894.7215739999665,894.7215739999665,894.7215739999665,,,,,down,9.311184499994852,0,0,0,99,0.48,0.08,down,9.232704300084151,893.1638425999554,894.7215739999665,0.24,-0.08,0.08,0.0,-0.04,0.24,0.24,0.24,-0.08,885.0748794999672,885.0748794999672,885.0748794999672,885.0748794999672,885.0748794999672,885.0748794999672,885.0748794999672,885.0748794999672,885.0738894399489,8.20890500000678,return,8.070734100067057,,,,,,,,,,,,,,,,,,,,,,,,,,,,,,,,,AJM9RJ,train_x,red_square,top_right,2025-02-03_12h34.17.553,HideSeek_v1,2022.2.5,59.97361160545111,
,8,7,8,7,0,0,16,,train_dim1_2,2,30,,,,5,0,5,0,,,,,,,,,0,0,0,0,0,1,1,1,1,0,1,0,,,,,,,,,,,,,,,,,,,,,,,,,,,,,,,,,,,,,,,,,,,,,,,,,,,,,,,,,,,,,,,,30,,,,,,,,904.0603780000238,904.0603780000238,904.0603780000238,904.0603780000238,904.0603780000238,-6,-70,0.48,0.08,return,9.683963800081983,0,1,0,0,0.48,0.08,return,9.572883400018327,,,,,,,,,,,,,,,,,,,,,,,,,,,,,,,,,,,,,,,,,,,,,,,,,,,,,,,,AJM9RJ,train_x,red_square,top_right,2025-02-03_12h34.17.553,HideSeek_v1,2022.2.5,59.97361160545111,
,7,8,7,5,0,-3,13,,train_dim1_2,3,30,,,,5,0,5,0,,,,,,,,,0,0,0,0,0,2,2,2,0,0,0,0,,,,,,,,,,,,,,,,,,,,,,,,,stimuli/alien_stimuli/13.png,,,,,,,,,,,,,,,,,,,,,,,,,,,,,stimuli/alien_stimuli/16.png,16,8,4,,,,,,,30,,,,,,,,921.8147435999708,921.8147435999708,921.8147435999708,921.8147435999708,921.8147435999708,,,,,down,14.0952769999858,0,1,0,99,0.4,0.15999999999999998,down,14.00959240004886,920.2528421999887,921.8147435999708,0.48,0.16,0.0,0.0,0.16,0.48,0.48,0.48,0.16,915.3109488999471,915.3109488999471,915.3109488999471,915.3109488999471,915.3109488999471,915.3109488999471,915.3109488999471,915.3109488999471,915.2986698399997,5.073023799923249,return,4.915632700081915,,,,,,,,,,,,,,,,,,,,,,,,,,,,,,,,,AJM9RJ,train_x,red_square,top_right,2025-02-03_12h34.17.553,HideSeek_v1,2022.2.5,59.97361160545111,
,7,8,7,5,0,-3,13,,train_dim1_2,3,30,,,,5,0,5,0,,,,,,,,,0,0,0,0,0,2,2,2,1,0,1,0,,,,,,,,,,,,,,,,,,,,,,,,,,,,,,,,,,,,,,,,,,,,,,,,,,,,,,,,,,,,,,,,30,,,,,,,,935.9357026000507,935.9357026000507,935.9357026000507,935.9357026000507,935.9357026000507,,,,,down,0.9766344999661669,0,1,0,99,0.4,0.07999999999999997,down,0.8689567999681458,,,,,,,,,,,,,,,,,,,,,,,,,,,,,,,,,,,,,,,,,,,,,,,,,,,,,,,,AJM9RJ,train_x,red_square,top_right,2025-02-03_12h34.17.553,HideSeek_v1,2022.2.5,59.97361160545111,
,7,8,7,5,0,-3,13,,train_dim1_2,3,30,,,,5,0,5,0,,,,,,,,,0,0,0,0,0,2,2,2,2,0,2,0,,,,,,,,,,,,,,,,,,,,,,,,,,,,,,,,,,,,,,,,,,,,,,,,,,,,,,,,,,,,,,,,30,,,,,,,,936.9005630000029,936.9005630000029,936.9005630000029,936.9005630000029,936.9005630000029,,,,,down,1.0941736999666318,0,1,0,99,0.4,-2.7755575615628914e-17,down,1.0155855000484735,,,,,,,,,,,,,,,,,,,,,,,,,,,,,,,,,,,,,,,,,,,,,,,,,,,,,,,,AJM9RJ,train_x,red_square,top_right,2025-02-03_12h34.17.553,HideSeek_v1,2022.2.5,59.97361160545111,
,7,8,7,5,0,-3,13,,train_dim1_2,3,30,,,,5,0,5,0,,,,,,,,,0,0,0,0,0,2,2,2,3,0,3,0,,,,,,,,,,,,,,,,,,,,,,,,,,,,,,,,,,,,,,,,,,,,,,,,,,,,,,,,,,,,,,,,30,,,,,,,,938.0014103000285,938.0014103000285,938.0014103000285,938.0014103000285,938.0014103000285,,,,,down,1.8111992999911308,0,1,0,99,0.4,-0.08000000000000003,down,1.7244256000267342,,,,,,,,,,,,,,,,,,,,,,,,,,,,,,,,,,,,,,,,,,,,,,,,,,,,,,,,AJM9RJ,train_x,red_square,top_right,2025-02-03_12h34.17.553,HideSeek_v1,2022.2.5,59.97361160545111,
,7,8,7,5,0,-3,13,,train_dim1_2,3,30,,,,5,0,5,0,,,,,,,,,0,0,0,0,0,2,2,2,4,0,4,0,,,,,,,,,,,,,,,,,,,,,,,,,,,,,,,,,,,,,,,,,,,,,,,,,,,,,,,,,,,,,,,,30,,,,,,,,939.8197483000113,939.8197483000113,939.8197483000113,939.8197483000113,939.8197483000113,-10,-70,0.4,-0.08000000000000003,return,22.76212700002361,0,1,0,0,0.4,-0.08000000000000003,return,22.670925799990073,,,,,,,,,,,,,,,,,,,,,,,,,,,,,,,,,,,,,,,,,,,,,,,,,,,,,,,,AJM9RJ,train_x,red_square,top_right,2025-02-03_12h34.17.553,HideSeek_v1,2022.2.5,59.97361160545111,
,5,6,5,2,0,-4,12,,train_dim1_2,4,30,,,,5,0,5,0,,,,,,,,,0,0,0,0,0,3,3,3,0,0,0,0,,,,,,,,,,,,,,,,,,,,,,,,,stimuli/alien_stimuli/12.png,,,,,,,,,,,,,,,,,,,,,,,,,,,,,stimuli/alien_stimuli/13.png,13,7,5,,,,,,,30,,,,,,,,970.8682106999913,970.8682106999913,970.8682106999913,970.8682106999913,970.8682106999913,,,,,down,6.194572400068864,0,1,0,99,0.24,0.0,down,6.10510200005956,969.3102917999495,970.8682106999913,0.4,0,0.24,0.0,0.12,0.4,0.4,0.4,0,964.1702726000221,964.1702726000221,964.1702726000221,964.1702726000221,964.1702726000221,964.1702726000221,964.1702726000221,964.1702726000221,964.172616819921,5.27315180003643,return,5.114662799984217,,,,,,,,,,,,,,,,,,,,,,,,,,,,,,,,,AJM9RJ,train_x,red_square,top_right,2025-02-03_12h34.17.553,HideSeek_v1,2022.2.5,59.97361160545111,
,5,6,5,2,0,-4,12,,train_dim1_2,4,30,,,,5,0,5,0,,,,,,,,,0,0,0,0,0,3,3,3,1,0,1,0,,,,,,,,,,,,,,,,,,,,,,,,,,,,,,,,,,,,,,,,,,,,,,,,,,,,,,,,,,,,,,,,30,,,,,,,,977.0685933999484,977.0685933999484,977.0685933999484,977.0685933999484,977.0685933999484,,,,,down,1.2436360999708995,0,1,0,99,0.24,-0.08,down,1.163712100009434,,,,,,,,,,,,,,,,,,,,,,,,,,,,,,,,,,,,,,,,,,,,,,,,,,,,,,,,AJM9RJ,train_x,red_square,top_right,2025-02-03_12h34.17.553,HideSeek_v1,2022.2.5,59.97361160545111,
,5,6,5,2,0,-4,12,,train_dim1_2,4,30,,,,5,0,5,0,,,,,,,,,0,0,0,0,0,3,3,3,2,0,2,0,,,,,,,,,,,,,,,,,,,,,,,,,,,,,,,,,,,,,,,,,,,,,,,,,,,,,,,,,,,,,,,,30,,,,,,,,978.3181246999884,978.3181246999884,978.3181246999884,978.3181246999884,978.3181246999884,,,,,down,1.1275781000731513,0,1,0,99,0.24,-0.16,down,1.0504501999821514,,,,,,,,,,,,,,,,,,,,,,,,,,,,,,,,,,,,,,,,,,,,,,,,,,,,,,,,AJM9RJ,train_x,red_square,top_right,2025-02-03_12h34.17.553,HideSeek_v1,2022.2.5,59.97361160545111,
,5,6,5,2,0,-4,12,,train_dim1_2,4,30,,,,5,0,5,0,,,,,,,,,0,0,0,0,0,3,3,3,3,0,3,0,,,,,,,,,,,,,,,,,,,,,,,,,,,,,,,,,,,,,,,,,,,,,,,,,,,,,,,,,,,,,,,,30,,,,,,,,979.4530321999919,979.4530321999919,979.4530321999919,979.4530321999919,979.4530321999919,,,,,down,1.1605409999610856,0,1,0,99,0.24,-0.24,down,1.072937799966894,,,,,,,,,,,,,,,,,,,,,,,,,,,,,,,,,,,,,,,,,,,,,,,,,,,,,,,,AJM9RJ,train_x,red_square,top_right,2025-02-03_12h34.17.553,HideSeek_v1,2022.2.5,59.97361160545111,
,5,6,5,2,0,-4,12,,train_dim1_2,4,30,,,,5,0,5,0,,,,,,,,,0,0,0,0,0,3,3,3,4,0,4,0,,,,,,,,,,,,,,,,,,,,,,,,,,,,,,,,,,,,,,,,,,,,,,,,,,,,,,,,,,,,,,,,30,,,,,,,,980.6202650000341,980.6202650000341,980.6202650000341,980.6202650000341,980.6202650000341,,,,,down,3.8461817000061274,0,1,0,99,0.24,-0.32,down,3.75911049998831,,,,,,,,,,,,,,,,,,,,,,,,,,,,,,,,,,,,,,,,,,,,,,,,,,,,,,,,AJM9RJ,train_x,red_square,top_right,2025-02-03_12h34.17.553,HideSeek_v1,2022.2.5,59.97361160545111,
,5,6,5,2,0,-4,12,,train_dim1_2,4,30,,,,5,0,5,0,,,,,,,,,0,0,0,0,0,3,3,3,5,0,5,0,,,,,,,,,,,,,,,,,,,,,,,,,,,,,,,,,,,,,,,,,,,,,,,,,,,,,,,,,,,,,,,,30,,,,,,,,984.4728164999979,984.4728164999979,984.4728164999979,984.4728164999979,984.4728164999979,,,,,up,3.2123187000397593,0,1,0,99,0.24,-0.24,up,3.125145300058648,,,,,,,,,,,,,,,,,,,,,,,,,,,,,,,,,,,,,,,,,,,,,,,,,,,,,,,,AJM9RJ,train_x,red_square,top_right,2025-02-03_12h34.17.553,HideSeek_v1,2022.2.5,59.97361160545111,
,5,6,5,2,0,-4,12,,train_dim1_2,4,30,,,,5,0,5,0,,,,,,,,,0,0,0,0,0,3,3,3,6,0,6,0,,,,,,,,,,,,,,,,,,,,,,,,,,,,,,,,,,,,,,,,,,,,,,,,,,,,,,,,,,,,,,,,30,,,,,,,,987.6925904999953,987.6925904999953,987.6925904999953,987.6925904999953,987.6925904999953,,,,,down,7.1989813999971375,0,1,0,99,0.24,-0.32,down,7.113595900009386,,,,,,,,,,,,,,,,,,,,,,,,,,,,,,,,,,,,,,,,,,,,,,,,,,,,,,,,AJM9RJ,train_x,red_square,top_right,2025-02-03_12h34.17.553,HideSeek_v1,2022.2.5,59.97361160545111,
