trialInstr,x_fixStart,y_fixStart,x_corrSteps,y_corrSteps,x_nrSteps,y_nrSteps,alienID,trialLength,version,trialTrain,praclen,testlen,trial_label,break_on_off,beforeExpLoop.thisRepN,beforeExpLoop.thisTrialN,beforeExpLoop.thisN,beforeExpLoop.thisIndex,mini_instr_trials.thisRepN,mini_instr_trials.thisTrialN,mini_instr_trials.thisN,mini_instr_trials.thisIndex,instrLoop.thisRepN,instrLoop.thisTrialN,instrLoop.thisN,instrLoop.thisIndex,repeat_prac.thisRepN,repeat_prac.thisTrialN,repeat_prac.thisN,repeat_prac.thisIndex,trainLoop.thisRepN,trainLoop.thisTrialN,trainLoop.thisN,trainLoop.thisIndex,moveLoop_train.thisRepN,moveLoop_train.thisTrialN,moveLoop_train.thisN,moveLoop_train.thisIndex,experiment.thisRepN,experiment.thisTrialN,experiment.thisN,experiment.thisIndex,moveLoop_test.thisRepN,moveLoop_test.thisTrialN,moveLoop_test.thisN,moveLoop_test.thisIndex,mini_instr2_trials.thisRepN,mini_instr2_trials.thisTrialN,mini_instr2_trials.thisN,mini_instr2_trials.thisIndex,start_all_time,url,slideStim,audioStim,slides.started,sounds.started,nextButton.numClicks,nextButton.timesOn,nextButton.timesOff,prev_but.numClicks,prev_but.timesOn,prev_but.timesOff,alienStim,instrFile,alienStim_instr,gridImage_instr.started,startPos_3.started,key_instr.started,alienImage_3.started,sounds_1.started,key_instr.keys,key_instr.rt,all_x,all_y,FBy_corrSteps,FBy_fixStart,FBx_corrSteps,FBx_fixStart,FBy_pathSize_check,FBx_pathSize_check,gridImage_9.started,alienImageFB_3.started,startPosFB_3.started,keyFB_3.started,pathLine_ydir_2.started,pathLine_xdir_2.started,alienFace_3.started,sounds_2.started,RTFB_instr,keyFB_3.keys,keyFB_3.rt,draw_alienStim,draw_alienID,test_x,nrepcount,perfthres,percthres,earlierperf,earlystop,nextPrac,fileidx,praclen,saveACC_train,pracFile,nextPrac_train,addNrep,fileidx_endr,repExp,showearly,gridImage_4.started,startPos.started,movePos.started,key_resp.started,alienImage.started,buttonPress_train,RTchoice_train,cumAcctrain,aCorr,saveACC_choice,corrAns,x_movePos_end,y_movePos_end,key_resp.keys,key_resp.rt,wLy_dir,wLx_dir,x_movePos,y_movePos,text_2.started,text_2.stopped,aft_x_corrPos,aft_y_corrPos,y_pathSize_check,x_pathSize_check,y_pathdirY,x_pathdirY,x_pathdirX,x_corrPos,y_corrPos,gridImage_6.started,alienImageFB_2.started,startPosFB_2.started,movePosFB_2.started,keyFB_2.started,pathLine_xdir.started,pathLine_ydir.started,alienFace.started,sounds_4.started,RT_FBtrain,keyFB_2.keys,keyFB_2.rt,saveACC_pre,ACC,within_saveACC_train,earlystop_wloop,cumAcctrain_check,gridImage_3.started,alienImage_test.started,startPos_test.started,movePos_test.started,key_resp_test.started,wLy_dir_test,wLx_dir_test,buttonPress_test,RTchoice_test,cumAcctest,corrAns_test,key_resp_test.keys,key_resp_test.rt,text_3.started,text_3.stopped,total_time,end_all_time,key_resp_3.keys,slides_2.started,sounds_3.started,nextButton_2.numClicks,nextButton_2.timesOn,nextButton_2.timesOff,prev_but_2.numClicks,prev_but_2.timesOn,prev_but_2.timesOff,bye.started,participant,train_first,00_coordinate,starting corner,date,expName,psychopyVersion,frameRate,
,,,,,,,,,,,,,,,0,0,0,0,0,0,0,0,,,,,,,,,,,,,,,,,,,,,,,,,,,,,start_all_time,testround,conditions/schedules/train_y_first/blue_star_00/top_left/instructions/Slide1.png,conditions/schedules/train_y_first/blue_star_00/top_left/instructions/Audio1.wav,358.74466870026663,358.69124374035744,1,[5.846656899899244],[5.846664600074291],0,,,,,,,,,,,,,,,,,,,,,,,,,,,,,,,,,,,,,,,,,,,,,,,,,,,,,,,,,,,,,,,,,,,,,,,,,,,,,,,,,,,,,,,,,,,,,,,,,,,,,,,,,,,,,,,,,,,,,,,,,,,,AMJ0GC,train_y,blue_star,top_left,2025-04-28_17h18.37.258,HideSeek_v1,2022.2.5,59.98242500168517,
,,,,,,,,,,,,,,,0,0,0,0,1,0,1,0,,,,,,,,,,,,,,,,,,,,,,,,,,,,,,,conditions/schedules/train_y_first/blue_star_00/top_left/instructions/Slide2.png,conditions/schedules/train_y_first/blue_star_00/top_left/instructions/Audio2.wav,364.60872879996896,364.5960154602304,2,"[5.846656899899244, 25.039039500057697]","[0.00021769991144537926, 25.039045999757946]",0,,,,,,,,,,,,,,,,,,,,,,,,,,,,,,,,,,,,,,,,,,,,,,,,,,,,,,,,,,,,,,,,,,,,,,,,,,,,,,,,,,,,,,,,,,,,,,,,,,,,,,,,,,,,,,,,,,,,,,,,,,,,AMJ0GC,train_y,blue_star,top_left,2025-04-28_17h18.37.258,HideSeek_v1,2022.2.5,59.98242500168517,
,,,,,,,,,,,,,,,0,0,0,0,2,0,2,0,,,,,,,,,,,,,,,,,,,,,,,,,,,,,,,conditions/schedules/train_y_first/blue_star_00/top_left/instructions/Slide3.png,conditions/schedules/train_y_first/blue_star_00/top_left/instructions/Audio3.wav,389.72537640016526,389.7169654001482,3,"[5.846656899899244, 25.039039500057697, 16.470041900407523]","[0.00021769991144537926, 25.039045999757946, 16.470049200113863]",0,,,,,,,,,,,,,,,,,,,,,,,,,,,,,,,,,,,,,,,,,,,,,,,,,,,,,,,,,,,,,,,,,,,,,,,,,,,,,,,,,,,,,,,,,,,,,,,,,,,,,,,,,,,,,,,,,,,,,,,,,,,,AMJ0GC,train_y,blue_star,top_left,2025-04-28_17h18.37.258,HideSeek_v1,2022.2.5,59.98242500168517,
,,,,,,,,,,,,,,,0,0,0,0,3,0,3,0,,,,,,,,,,,,,,,,,,,,,,,,,,,,,,,conditions/schedules/train_y_first/blue_star_00/top_left/instructions/Slide4.png,conditions/schedules/train_y_first/blue_star_00/top_left/instructions/Audio4.wav,406.2737279003486,406.2637919001281,4,"[5.846656899899244, 25.039039500057697, 16.470041900407523, 19.387106699869037]","[0.00021769991144537926, 25.039045999757946, 0.014189899899065495, 19.387113999575377]",0,,,,,,,,,,,,,,,,,,,,,,,,,,,,,,,,,,,,,,,,,,,,,,,,,,,,,,,,,,,,,,,,,,,,,,,,,,,,,,,,,,,,,,,,,,,,,,,,,,,,,,,,,,,,,,,,,,,,,,,,,,,,AMJ0GC,train_y,blue_star,top_left,2025-04-28_17h18.37.258,HideSeek_v1,2022.2.5,59.98242500168517,
,,,,,,,,,,,,,,,0,0,0,0,4,0,4,0,,,,,,,,,,,,,,,,,,,,,,,,,,,,,,,conditions/schedules/train_y_first/blue_star_00/top_left/instructions/Slide5.png,conditions/schedules/train_y_first/blue_star_00/top_left/instructions/Audio5.wav,425.7247272999957,425.7133184600621,5,"[5.846656899899244, 25.039039500057697, 16.470041900407523, 19.387106699869037, 4.390013299882412]","[0.00021769991144537926, 25.039045999757946, 0.014189899899065495, 0.0535698002204299, 4.390020300168544]",0,,,,,,,,,,,,,,,,,,,,,,,,,,,,,,,,,,,,,,,,,,,,,,,,,,,,,,,,,,,,,,,,,,,,,,,,,,,,,,,,,,,,,,,,,,,,,,,,,,,,,,,,,,,,,,,,,,,,,,,,,,,,AMJ0GC,train_y,blue_star,top_left,2025-04-28_17h18.37.258,HideSeek_v1,2022.2.5,59.98242500168517,
,,,,,,,,,,,,,,,0,0,0,0,5,0,5,0,,,,,,,,,,,,,,,,,,,,,,,,,,,,,,,conditions/schedules/train_y_first/blue_star_00/top_left/instructions/Slide6.png,conditions/schedules/train_y_first/blue_star_00/top_left/instructions/Audio6.wav,430.1661800001748,430.1670989602804,6,"[5.846656899899244, 25.039039500057697, 16.470041900407523, 19.387106699869037, 4.390013299882412, 4.8690007999539375]","[0.00021769991144537926, 25.039045999757946, 0.014189899899065495, 0.0535698002204299, 0.09844959992915392, 4.869007899891585]",0,,,,,,,,,,,,,,,,,,,,,,,,,,,,,,,,,,,,,,,,,,,,,,,,,,,,,,,,,,,,,,,,,,,,,,,,,,,,,,,,,,,,,,,,,,,,,,,,,,,,,,,,,,,,,,,,,,,,,,,,,,,,AMJ0GC,train_y,blue_star,top_left,2025-04-28_17h18.37.258,HideSeek_v1,2022.2.5,59.98242500168517,
,,,,,,,,,,,,,,,0,0,0,0,6,0,6,0,,,,,,,,,,,,,,,,,,,,,,,,,,,,,,,conditions/schedules/train_y_first/blue_star_00/top_left/instructions/Slide7.png,conditions/schedules/train_y_first/blue_star_00/top_left/instructions/Audio7.wav,435.0931584001519,435.08770936019715,7,"[5.846656899899244, 25.039039500057697, 16.470041900407523, 19.387106699869037, 4.390013299882412, 4.8690007999539375, 5.162625799886882]","[0.00021769991144537926, 25.039045999757946, 0.014189899899065495, 0.0535698002204299, 0.09844959992915392, 0.06201699981465936, 5.162632499821484]",0,,,,,,,,,,,,,,,,,,,,,,,,,,,,,,,,,,,,,,,,,,,,,,,,,,,,,,,,,,,,,,,,,,,,,,,,,,,,,,,,,,,,,,,,,,,,,,,,,,,,,,,,,,,,,,,,,,,,,,,,,,,,AMJ0GC,train_y,blue_star,top_left,2025-04-28_17h18.37.258,HideSeek_v1,2022.2.5,59.98242500168517,
,,,,,,,,,,,,,,,0,0,0,0,7,0,7,0,,,,,,,,,,,,,,,,,,,,,,,,,,,,,,,conditions/schedules/train_y_first/blue_star_00/top_left/instructions/Slide8.png,conditions/schedules/train_y_first/blue_star_00/top_left/instructions/Audio8.wav,440.308927600272,440.30861456030976,8,"[5.846656899899244, 25.039039500057697, 16.470041900407523, 19.387106699869037, 4.390013299882412, 4.8690007999539375, 5.162625799886882, 11.440244699828327]","[0.00021769991144537926, 25.039045999757946, 0.014189899899065495, 0.0535698002204299, 0.09844959992915392, 0.06201699981465936, 0.09753580018877983, 11.440251300111413]",0,,,,,,,,,,,,,,,,,,,,,,,,,,,,,,,,,,,,,,,,,,,,,,,,,,,,,,,,,,,,,,,,,,,,,,,,,,,,,,,,,,,,,,,,,,,,,,,,,,,,,,,,,,,,,,,,,,,,,,,,,,,,AMJ0GC,train_y,blue_star,top_left,2025-04-28_17h18.37.258,HideSeek_v1,2022.2.5,59.98242500168517,
,,,,,,,,,,,,,,,0,0,0,0,8,0,8,0,,,,,,,,,,,,,,,,,,,,,,,,,,,,,,,conditions/schedules/train_y_first/blue_star_00/top_left/instructions/Slide9.png,conditions/schedules/train_y_first/blue_star_00/top_left/instructions/Audio9.wav,451.81250330014154,451.80171416038644,9,"[5.846656899899244, 25.039039500057697, 16.470041900407523, 19.387106699869037, 4.390013299882412, 4.8690007999539375, 5.162625799886882, 11.440244699828327, 5.825150799937546]","[0.00021769991144537926, 25.039045999757946, 0.014189899899065495, 0.0535698002204299, 0.09844959992915392, 0.06201699981465936, 0.09753580018877983, 0.05381439998745918, 5.825157800223678]",0,,,,,,,,,,,,,,,,,,,,,,,,,,,,,,,,,,,,,,,,,,,,,,,,,,,,,,,,,,,,,,,,,,,,,,,,,,,,,,,,,,,,,,,,,,,,,,,,,,,,,,,,,,,,,,,,,,,,,,,,,,,,AMJ0GC,train_y,blue_star,top_left,2025-04-28_17h18.37.258,HideSeek_v1,2022.2.5,59.98242500168517,
,,,,,,,,,,,,,,,0,0,0,0,9,0,9,0,,,,,,,,,,,,,,,,,,,,,,,,,,,,,,,conditions/schedules/train_y_first/blue_star_00/top_left/instructions/Slide10.png,conditions/schedules/train_y_first/blue_star_00/top_left/instructions/Audio10.wav,457.6851167003624,457.67323172027244,10,"[5.846656899899244, 25.039039500057697, 16.470041900407523, 19.387106699869037, 4.390013299882412, 4.8690007999539375, 5.162625799886882, 11.440244699828327, 5.825150799937546, 6.891030699945986]","[0.00021769991144537926, 25.039045999757946, 0.014189899899065495, 0.0535698002204299, 0.09844959992915392, 0.06201699981465936, 0.09753580018877983, 0.05381439998745918, 0.035383500158786774, 6.891038300003856]",0,,,,,,,,,,,,,,,,,,,,,,,,,,,,,,,,,,,,,,,,,,,,,,,,,,,,,,,,,,,,,,,,,,,,,,,,,,,,,,,,,,,,,,,,,,,,,,,,,,,,,,,,,,,,,,,,,,,,,,,,,,,,AMJ0GC,train_y,blue_star,top_left,2025-04-28_17h18.37.258,HideSeek_v1,2022.2.5,59.98242500168517,
,,,,,,,,,,,,,,,0,0,0,0,10,0,10,0,,,,,,,,,,,,,,,,,,,,,,,,,,,,,,,conditions/schedules/train_y_first/blue_star_00/top_left/instructions/Slide11.png,conditions/schedules/train_y_first/blue_star_00/top_left/instructions/Audio11.wav,464.61558990040794,464.61220501996576,11,"[5.846656899899244, 25.039039500057697, 16.470041900407523, 19.387106699869037, 4.390013299882412, 4.8690007999539375, 5.162625799886882, 11.440244699828327, 5.825150799937546, 6.891030699945986, 10.185991799924523]","[0.00021769991144537926, 25.039045999757946, 0.014189899899065495, 0.0535698002204299, 0.09844959992915392, 0.06201699981465936, 0.09753580018877983, 0.05381439998745918, 0.035383500158786774, 0.047177799977362156, 10.185998700093478]",0,,,,,,,,,,,,,,,,,,,,,,,,,,,,,,,,,,,,,,,,,,,,,,,,,,,,,,,,,,,,,,,,,,,,,,,,,,,,,,,,,,,,,,,,,,,,,,,,,,,,,,,,,,,,,,,,,,,,,,,,,,,,AMJ0GC,train_y,blue_star,top_left,2025-04-28_17h18.37.258,HideSeek_v1,2022.2.5,59.98242500168517,
,,,,,,,,,,,,,,,0,0,0,0,11,0,11,0,,,,,,,,,,,,,,,,,,,,,,,,,,,,,,,conditions/schedules/train_y_first/blue_star_00/top_left/instructions/Slide12.png,conditions/schedules/train_y_first/blue_star_00/top_left/instructions/Audio12.wav,474.8745611002669,474.8710079002194,12,"[5.846656899899244, 25.039039500057697, 16.470041900407523, 19.387106699869037, 4.390013299882412, 4.8690007999539375, 5.162625799886882, 11.440244699828327, 5.825150799937546, 6.891030699945986, 10.185991799924523, 14.005351800005883]","[0.00021769991144537926, 25.039045999757946, 0.014189899899065495, 0.0535698002204299, 0.09844959992915392, 0.06201699981465936, 0.09753580018877983, 0.05381439998745918, 0.035383500158786774, 0.047177799977362156, 0.07923859963193536, 14.005359299946576]",0,,,,,,,,,,,,,,,,,,,,,,,,,,,,,,,,,,,,,,,,,,,,,,,,,,,,,,,,,,,,,,,,,,,,,,,,,,,,,,,,,,,,,,,,,,,,,,,,,,,,,,,,,,,,,,,,,,,,,,,,,,,,AMJ0GC,train_y,blue_star,top_left,2025-04-28_17h18.37.258,HideSeek_v1,2022.2.5,59.98242500168517,
1,0,8,0,3,0,-5,66,2,instr_dim1_1,,,,,,0,0,0,0,,,,,0,0,0,0,,,,,,,,,,,,,,,,,,,,,,,,,,,,,,,,,,,,,stimuli/alien_stimuli/66.png,conditions/schedules/train_y_first/blue_star_00/top_left/inputInstr_1.xlsx,stimuli/alien_stimuli/66.png,488.98024490009993,488.98024490009993,488.98024490009993,488.98024490009993,488.98250448023896,return,9.100556999910623,"[-0.16, -0.08, 0, 0.08, 0.16, 0.24, 0.32, 0.4, 0.48, 0.56]","[-0.4, -0.32, -0.24, -0.16, -0.08, 0, 0.08, 0.16, 0.24, 0.32]",3,8,0,0,0.4,0.0,498.2354093003087,498.2354093003087,498.2354093003087,498.2354093003087,498.2354093003087,498.2354093003087,498.2354093003087,498.2234415200539,0.5347668998874724,return,0.37261460023000836,stimuli/alien_stimuli/66.png,66,0,1,,,,,,,,,,,,,,,,,,,,,,,,,,,,,,,,,,,,,,,,,,,,,,,,,,,,,,,,,,,,,,,,,,,,,,,,,,,,,,,,,,,,,,,,,AMJ0GC,train_y,blue_star,top_left,2025-04-28_17h18.37.258,HideSeek_v1,2022.2.5,59.98242500168517,
,,,,,,,,,,,30,,,,0,0,0,0,,,,,,,,,,,,,,,,,,,,,,,,,,,,,,,,,,,,,,,,,,,,,,,,,,,,,,,,,,,,,,,,,,,,,,,,,,,,,,21,0.7,0,0,99,1,30,0,conditions/schedules/train_y_first/blue_star_00/top_left/inputTrain_1.1.xlsx,99,1,1,1,0,,,,,,,,,,,,,,,,,,,,,,,,,,,,,,,,,,,,,,,,,,,,,,,,,,,,,,,,,,,,,,,,,,,,,,,,,,,AMJ0GC,train_y,blue_star,top_left,2025-04-28_17h18.37.258,HideSeek_v1,2022.2.5,59.98242500168517,
,,,,,,,,,,,,,,,1,0,1,0,0,0,0,0,,,,,,,,,,,,,,,,,,,,,,,,,,,,,,,conditions/schedules/train_y_first/blue_star_00/top_left/instructions/Slide13.png,conditions/schedules/train_y_first/blue_star_00/top_left/instructions/Audio13.wav,498.78865550039336,498.7906327000819,13,"[5.846656899899244, 25.039039500057697, 16.470041900407523, 19.387106699869037, 4.390013299882412, 4.8690007999539375, 5.162625799886882, 11.440244699828327, 5.825150799937546, 6.891030699945986, 10.185991799924523, 14.005351800005883, 57.1626663999632]","[0.00021769991144537926, 25.039045999757946, 0.014189899899065495, 0.0535698002204299, 0.09844959992915392, 0.06201699981465936, 0.09753580018877983, 0.05381439998745918, 0.035383500158786774, 0.047177799977362156, 0.07923859963193536, 14.005359299946576, 57.1626737001352]",0,,,,,,,,,,,,,,,,,,,,,,,,,,,,,,,,,,,,,,,,,,,,,,,,,,,,,,,,,,,,,,,,,,,,,,,,,,,,,,,,,,,,,,,,,,,,,,,,,,,,,,,,,,,,,,,,,,,,,,,,,,,,AMJ0GC,train_y,blue_star,top_left,2025-04-28_17h18.37.258,HideSeek_v1,2022.2.5,59.98242500168517,
,,,,,,,,,,,,,,,1,0,1,0,1,0,1,0,,,,,,,,,,,,,,,,,,,,,,,,,,,,,,,conditions/schedules/train_y_first/blue_star_00/top_left/instructions/Slide14.png,conditions/schedules/train_y_first/blue_star_00/top_left/instructions/Audio14.wav,556.0271416003816,556.021263900213,14,"[5.846656899899244, 25.039039500057697, 16.470041900407523, 19.387106699869037, 4.390013299882412, 4.8690007999539375, 5.162625799886882, 11.440244699828327, 5.825150799937546, 6.891030699945986, 10.185991799924523, 14.005351800005883, 57.1626663999632, 17.139911899808794]","[0.00021769991144537926, 25.039045999757946, 0.014189899899065495, 0.0535698002204299, 0.09844959992915392, 0.06201699981465936, 0.09753580018877983, 0.05381439998745918, 0.035383500158786774, 0.047177799977362156, 0.07923859963193536, 14.005359299946576, 57.1626737001352, 17.139918999746442]",0,,,,,,,,,,,,,,,,,,,,,,,,,,,,,,,,,,,,,,,,,,,,,,,,,,,,,,,,,,,,,,,,,,,,,,,,,,,,,,,,,,,,,,,,,,,,,,,,,,,,,,,,,,,,,,,,,,,,,,,,,,,,AMJ0GC,train_y,blue_star,top_left,2025-04-28_17h18.37.258,HideSeek_v1,2022.2.5,59.98242500168517,
2,2,8,2,8,0,0,61,2,instr_dim1_1,,,,,,1,0,1,0,,,,,0,0,0,0,,,,,,,,,,,,,,,,,,,,,,,,,,,,,,,,,,,,,stimuli/alien_stimuli/61.png,conditions/schedules/train_y_first/blue_star_00/top_left/inputInstr_1.xlsx,stimuli/alien_stimuli/61.png,573.2620519003831,573.2620519003831,573.2620519003831,573.2620519003831,573.2526674401946,return,7.2536411001347005,"[-0.16, -0.08, 0, 0.08, 0.16, 0.24, 0.32, 0.4, 0.48, 0.56]","[-0.4, -0.32, -0.24, -0.16, -0.08, 0, 0.08, 0.16, 0.24, 0.32]",8,8,2,2,0.0,0.0,580.6641404000111,580.6641404000111,580.6641404000111,580.6641404000111,580.6641404000111,580.6641404000111,580.6641404000111,580.6585630199871,9.342184099834412,return,9.190962000284344,stimuli/alien_stimuli/61.png,61,2,2,,,,,,,,,,,,,,,,,,,,,,,,,,,,,,,,,,,,,,,,,,,,,,,,,,,,,,,,,,,,,,,,,,,,,,,,,,,,,,,,,,,,,,,,,AMJ0GC,train_y,blue_star,top_left,2025-04-28_17h18.37.258,HideSeek_v1,2022.2.5,59.98242500168517,
,,,,,,,,,,,30,,,,1,0,1,0,,,,,,,,,,,,,,,,,,,,,,,,,,,,,,,,,,,,,,,,,,,,,,,,,,,,,,,,,,,,,,,,,,,,,,,,,,,,,,21,0.7,0,0,99,1,30,0,conditions/schedules/train_y_first/blue_star_00/top_left/inputTrain_1.1.xlsx,99,1,1,1,0,,,,,,,,,,,,,,,,,,,,,,,,,,,,,,,,,,,,,,,,,,,,,,,,,,,,,,,,,,,,,,,,,,,,,,,,,,,AMJ0GC,train_y,blue_star,top_left,2025-04-28_17h18.37.258,HideSeek_v1,2022.2.5,59.98242500168517,
,,,,,,,,,,,,,,,2,0,2,0,0,0,0,0,,,,,,,,,,,,,,,,,,,,,,,,,,,,,,,conditions/schedules/train_y_first/blue_star_00/top_left/instructions/Slide15.png,conditions/schedules/train_y_first/blue_star_00/top_left/instructions/Audio15.wav,590.0395116000436,590.0331089003012,15,"[5.846656899899244, 25.039039500057697, 16.470041900407523, 19.387106699869037, 4.390013299882412, 4.8690007999539375, 5.162625799886882, 11.440244699828327, 5.825150799937546, 6.891030699945986, 10.185991799924523, 14.005351800005883, 57.1626663999632, 17.139911899808794, 43.21023249998689]","[0.00021769991144537926, 25.039045999757946, 0.014189899899065495, 0.0535698002204299, 0.09844959992915392, 0.06201699981465936, 0.09753580018877983, 0.05381439998745918, 0.035383500158786774, 0.047177799977362156, 0.07923859963193536, 14.005359299946576, 57.1626737001352, 17.139918999746442, 43.21023999992758]",0,,,,,,,,,,,,,,,,,,,,,,,,,,,,,,,,,,,,,,,,,,,,,,,,,,,,,,,,,,,,,,,,,,,,,,,,,,,,,,,,,,,,,,,,,,,,,,,,,,,,,,,,,,,,,,,,,,,,,,,,,,,,AMJ0GC,train_y,blue_star,top_left,2025-04-28_17h18.37.258,HideSeek_v1,2022.2.5,59.98242500168517,
,,,,,,,,,,,,,,,2,0,2,0,1,0,1,0,,,,,,,,,,,,,,,,,,,,,,,,,,,,,,,conditions/schedules/train_y_first/blue_star_00/top_left/instructions/Slide16.png,conditions/schedules/train_y_first/blue_star_00/top_left/instructions/Audio16.wav,633.321167500224,633.3190541001968,16,"[5.846656899899244, 25.039039500057697, 16.470041900407523, 19.387106699869037, 4.390013299882412, 4.8690007999539375, 5.162625799886882, 11.440244699828327, 5.825150799937546, 6.891030699945986, 10.185991799924523, 14.005351800005883, 57.1626663999632, 17.139911899808794, 43.21023249998689, 21.94734869990498]","[0.00021769991144537926, 25.039045999757946, 0.014189899899065495, 0.0535698002204299, 0.09844959992915392, 0.06201699981465936, 0.09753580018877983, 0.05381439998745918, 0.035383500158786774, 0.047177799977362156, 0.07923859963193536, 14.005359299946576, 57.1626737001352, 17.139918999746442, 0.0788667001761496, 21.94735540030524]",0,,,,,,,,,,,,,,,,,,,,,,,,,,,,,,,,,,,,,,,,,,,,,,,,,,,,,,,,,,,,,,,,,,,,,,,,,,,,,,,,,,,,,,,,,,,,,,,,,,,,,,,,,,,,,,,,,,,,,,,,,,,,AMJ0GC,train_y,blue_star,top_left,2025-04-28_17h18.37.258,HideSeek_v1,2022.2.5,59.98242500168517,
,0,5,0,1,0,-4,65,,train_dim1_1,1,30,,,,2,0,2,0,,,,,,,,,0,0,0,0,0,0,0,0,0,0,0,0,,,,,,,,,,,,,,,,,,,,,,,,,stimuli/alien_stimuli/65.png,,,,,,,,,,,,,,,,,,,,,,,,,,,,,,,,,,,,,,,30,,,,,,,,655.3708323002793,655.3708323002793,655.3708323002793,655.3708323002793,655.3708323002793,down,3.4302491997368634,0,0,0,99,-0.16,-0.08,down,3.33579680044204,,,,,,,,,,,,,,,,,,,,,,,,,,,,,,,,,,,,,,,,,,,,,,,,,,,,,,,,,,,,AMJ0GC,train_y,blue_star,top_left,2025-04-28_17h18.37.258,HideSeek_v1,2022.2.5,59.98242500168517,
,0,5,0,1,0,-4,65,,train_dim1_1,1,30,,,,2,0,2,0,,,,,,,,,0,0,0,0,0,0,0,0,1,0,1,0,,,,,,,,,,,,,,,,,,,,,,,,,,,,,,,,,,,,,,,,,,,,,,,,,,,,,,,,,,,,,,,,30,,,,,,,,658.789821700193,658.789821700193,658.789821700193,658.789821700193,658.789821700193,up,7.016450299881399,0,0,0,99,-0.16,0.0,up,6.923965999856591,,,,,,,,,,,,,,,,,,,,,,,,,,,,,,,,,,,,,,,,,,,,,,,,,,,,,,,,,,,,AMJ0GC,train_y,blue_star,top_left,2025-04-28_17h18.37.258,HideSeek_v1,2022.2.5,59.98242500168517,
,0,5,0,1,0,-4,65,,train_dim1_1,1,30,,,,2,0,2,0,,,,,,,,,0,0,0,0,0,0,0,0,2,0,2,0,,,,,,,,,,,,,,,,,,,,,,,,,,,,,,,,,,,,,,,,,,,,,,,,,,,,,,,,,,,,,,,,30,,,,,,,,665.8308169003576,665.8308169003576,665.8308169003576,665.8308169003576,665.8308169003576,return,1.3802606998942792,0,0,0,0,-0.16,0.0,return,1.2909515998326242,0,0,-0.16,0.0,,,,,,,,,,,,,,,,,,,,,,,,,,,,,,,,,,,,,,,,,,,,,,,,,,,,,,,,AMJ0GC,train_y,blue_star,top_left,2025-04-28_17h18.37.258,HideSeek_v1,2022.2.5,59.98242500168517,
,3,7,3,2,0,-5,66,,train_dim1_1,2,30,,,,2,0,2,0,,,,,,,,,0,0,0,0,0,1,1,1,0,0,0,0,,,,,,,,,,,,,,,,,,,,,,,,,stimuli/alien_stimuli/66.png,,,,,,,,,,,,,,,,,,,,,,,,,,,,,stimuli/alien_stimuli/65.png,65,0,3,,,,,,,30,,,,,,,,696.8850736003369,696.8850736003369,696.8850736003369,696.8850736003369,696.8850736003369,down,6.36140099959448,0,0,0,99,0.08,0.08,down,6.260923400055617,,,,,695.3207201999612,696.8850736003369,-0.16,-0.32,0.32,0.0,-0.16,-0.16,-0.16,-0.16,-0.32,668.7756380001083,668.7756380001083,668.7756380001083,668.7756380001083,668.7756380001083,668.7756380001083,668.7756380001083,668.7756380001083,668.7649935802444,26.658166099805385,return,26.518473000265658,,,,,,,,,,,,,,,,,,,,,,,,,,,,,,,,,AMJ0GC,train_y,blue_star,top_left,2025-04-28_17h18.37.258,HideSeek_v1,2022.2.5,59.98242500168517,
,3,7,3,2,0,-5,66,,train_dim1_1,2,30,,,,2,0,2,0,,,,,,,,,0,0,0,0,0,1,1,1,1,0,1,0,,,,,,,,,,,,,,,,,,,,,,,,,,,,,,,,,,,,,,,,,,,,,,,,,,,,,,,,,,,,,,,,30,,,,,,,,703.2415797002614,703.2415797002614,703.2415797002614,703.2415797002614,703.2415797002614,down,2.1942531000822783,0,0,0,99,0.08,0.0,down,2.1159772002138197,,,,,,,,,,,,,,,,,,,,,,,,,,,,,,,,,,,,,,,,,,,,,,,,,,,,,,,,,,,,AMJ0GC,train_y,blue_star,top_left,2025-04-28_17h18.37.258,HideSeek_v1,2022.2.5,59.98242500168517,
,3,7,3,2,0,-5,66,,train_dim1_1,2,30,,,,2,0,2,0,,,,,,,,,0,0,0,0,0,1,1,1,2,0,2,0,,,,,,,,,,,,,,,,,,,,,,,,,,,,,,,,,,,,,,,,,,,,,,,,,,,,,,,,,,,,,,,,30,,,,,,,,705.4424213999882,705.4424213999882,705.4424213999882,705.4424213999882,705.4424213999882,down,6.965345399919897,0,0,0,99,0.08,-0.08,down,6.880085600074381,,,,,,,,,,,,,,,,,,,,,,,,,,,,,,,,,,,,,,,,,,,,,,,,,,,,,,,,,,,,AMJ0GC,train_y,blue_star,top_left,2025-04-28_17h18.37.258,HideSeek_v1,2022.2.5,59.98242500168517,
,3,7,3,2,0,-5,66,,train_dim1_1,2,30,,,,2,0,2,0,,,,,,,,,0,0,0,0,0,1,1,1,3,0,3,0,,,,,,,,,,,,,,,,,,,,,,,,,,,,,,,,,,,,,,,,,,,,,,,,,,,,,,,,,,,,,,,,30,,,,,,,,712.4154438003898,712.4154438003898,712.4154438003898,712.4154438003898,712.4154438003898,down,1.3444389998912811,0,0,0,99,0.08,-0.16,down,1.2625778997316957,,,,,,,,,,,,,,,,,,,,,,,,,,,,,,,,,,,,,,,,,,,,,,,,,,,,,,,,,,,,AMJ0GC,train_y,blue_star,top_left,2025-04-28_17h18.37.258,HideSeek_v1,2022.2.5,59.98242500168517,
,3,7,3,2,0,-5,66,,train_dim1_1,2,30,,,,2,0,2,0,,,,,,,,,0,0,0,0,0,1,1,1,4,0,4,0,,,,,,,,,,,,,,,,,,,,,,,,,,,,,,,,,,,,,,,,,,,,,,,,,,,,,,,,,,,,,,,,30,,,,,,,,713.7662437004037,713.7662437004037,713.7662437004037,713.7662437004037,713.7662437004037,return,3.7955191996879876,0,1,0,0,0.08,-0.16,return,3.7210254999808967,-4,0,0.08,-0.16,,,,,,,,,,,,,,,,,,,,,,,,,,,,,,,,,,,,,,,,,,,,,,,,,,,,,,,,AMJ0GC,train_y,blue_star,top_left,2025-04-28_17h18.37.258,HideSeek_v1,2022.2.5,59.98242500168517,
,2,8,2,5,0,-3,64,,train_dim1_1,3,30,,,,2,0,2,0,,,,,,,,,0,0,0,0,0,2,2,2,0,0,0,0,,,,,,,,,,,,,,,,,,,,,,,,,stimuli/alien_stimuli/64.png,,,,,,,,,,,,,,,,,,,,,,,,,,,,,stimuli/alien_stimuli/66.png,66,3,4,,,,,,,30,,,,,,,,742.3473502001725,742.3473502001725,742.3473502001725,742.3473502001725,742.3473502001725,down,3.1725262999534607,0,1,0,99,0,0.15999999999999998,down,3.0773392003029585,,,,,740.7749569001608,742.3473502001725,0.08,-0.24,0.4,0.0,-0.039999999999999994,0.08,0.08,0.08,-0.24,719.1335396002978,719.1335396002978,719.1335396002978,719.1335396002978,719.1335396002978,719.1335396002978,719.1335396002978,719.1335396002978,719.1235776801593,21.753534800373018,return,21.609393399674445,,,,,,,,,,,,,,,,,,,,,,,,,,,,,,,,,AMJ0GC,train_y,blue_star,top_left,2025-04-28_17h18.37.258,HideSeek_v1,2022.2.5,59.98242500168517,
,2,8,2,5,0,-3,64,,train_dim1_1,3,30,,,,2,0,2,0,,,,,,,,,0,0,0,0,0,2,2,2,1,0,1,0,,,,,,,,,,,,,,,,,,,,,,,,,,,,,,,,,,,,,,,,,,,,,,,,,,,,,,,,,,,,,,,,30,,,,,,,,745.5106434002519,745.5106434002519,745.5106434002519,745.5106434002519,745.5106434002519,down,1.0267767999321222,0,1,0,99,0,0.07999999999999997,down,0.937415599822998,,,,,,,,,,,,,,,,,,,,,,,,,,,,,,,,,,,,,,,,,,,,,,,,,,,,,,,,,,,,AMJ0GC,train_y,blue_star,top_left,2025-04-28_17h18.37.258,HideSeek_v1,2022.2.5,59.98242500168517,
,2,8,2,5,0,-3,64,,train_dim1_1,3,30,,,,2,0,2,0,,,,,,,,,0,0,0,0,0,2,2,2,2,0,2,0,,,,,,,,,,,,,,,,,,,,,,,,,,,,,,,,,,,,,,,,,,,,,,,,,,,,,,,,,,,,,,,,30,,,,,,,,746.54199529998,746.54199529998,746.54199529998,746.54199529998,746.54199529998,down,0.7435424001887441,0,1,0,99,0,-2.7755575615628914e-17,down,0.6634923000819981,,,,,,,,,,,,,,,,,,,,,,,,,,,,,,,,,,,,,,,,,,,,,,,,,,,,,,,,,,,,AMJ0GC,train_y,blue_star,top_left,2025-04-28_17h18.37.258,HideSeek_v1,2022.2.5,59.98242500168517,
,2,8,2,5,0,-3,64,,train_dim1_1,3,30,,,,2,0,2,0,,,,,,,,,0,0,0,0,0,2,2,2,3,0,3,0,,,,,,,,,,,,,,,,,,,,,,,,,,,,,,,,,,,,,,,,,,,,,,,,,,,,,,,,,,,,,,,,30,,,,,,,,747.2931662001647,747.2931662001647,747.2931662001647,747.2931662001647,747.2931662001647,down,0.6437127999961376,0,1,0,99,0,-0.08000000000000003,down,0.5578449000604451,,,,,,,,,,,,,,,,,,,,,,,,,,,,,,,,,,,,,,,,,,,,,,,,,,,,,,,,,,,,AMJ0GC,train_y,blue_star,top_left,2025-04-28_17h18.37.258,HideSeek_v1,2022.2.5,59.98242500168517,
,2,8,2,5,0,-3,64,,train_dim1_1,3,30,,,,2,0,2,0,,,,,,,,,0,0,0,0,0,2,2,2,4,0,4,0,,,,,,,,,,,,,,,,,,,,,,,,,,,,,,,,,,,,,,,,,,,,,,,,,,,,,,,,,,,,,,,,30,,,,,,,,747.9431692003272,747.9431692003272,747.9431692003272,747.9431692003272,747.9431692003272,down,0.5933485999703407,0,1,0,99,0,-0.16000000000000003,down,0.5108766001649201,,,,,,,,,,,,,,,,,,,,,,,,,,,,,,,,,,,,,,,,,,,,,,,,,,,,,,,,,,,,AMJ0GC,train_y,blue_star,top_left,2025-04-28_17h18.37.258,HideSeek_v1,2022.2.5,59.98242500168517,
,2,8,2,5,0,-3,64,,train_dim1_1,3,30,,,,2,0,2,0,,,,,,,,,0,0,0,0,0,2,2,2,5,0,5,0,,,,,,,,,,,,,,,,,,,,,,,,,,,,,,,,,,,,,,,,,,,,,,,,,,,,,,,,,,,,,,,,30,,,,,,,,748.5447940002196,748.5447940002196,748.5447940002196,748.5447940002196,748.5447940002196,return,0.760546799749136,0,0,0,0,0,-0.16000000000000003,return,0.6886745002120733,-9,0,0,-0.16000000000000003,,,,,,,,,,,,,,,,,,,,,,,,,,,,,,,,,,,,,,,,,,,,,,,,,,,,,,,,AMJ0GC,train_y,blue_star,top_left,2025-04-28_17h18.37.258,HideSeek_v1,2022.2.5,59.98242500168517,
,0,6,0,5,0,-1,62,,train_dim1_1,4,30,,,,2,0,2,0,,,,,,,,,0,0,0,0,0,3,3,3,0,0,0,0,,,,,,,,,,,,,,,,,,,,,,,,,stimuli/alien_stimuli/62.png,,,,,,,,,,,,,,,,,,,,,,,,,,,,,stimuli/alien_stimuli/64.png,64,2,5,,,,,,,30,,,,,,,,761.1617457000539,761.1617457000539,761.1617457000539,761.1617457000539,761.1617457000539,right,9.195701099932194,0,0,0,99,-0.08,0.08,right,9.09008640004322,,,,,759.5906424000859,761.1617457000539,0,0,0.24,0.0,0.12,0,0.0,0,0,750.8741399003193,750.8741399003193,750.8741399003193,750.8741399003193,750.8741399003193,750.8741399003193,750.8741399003193,750.8741399003193,750.866561280284,8.826709300279617,return,8.700767300091684,,,,,,,,,,,,,,,,,,,,,,,,,,,,,,,,,AMJ0GC,train_y,blue_star,top_left,2025-04-28_17h18.37.258,HideSeek_v1,2022.2.5,59.98242500168517,
,0,6,0,5,0,-1,62,,train_dim1_1,4,30,,,,2,0,2,0,,,,,,,,,0,0,0,0,0,3,3,3,1,0,1,0,,,,,,,,,,,,,,,,,,,,,,,,,,,,,,,,,,,,,,,,,,,,,,,,,,,,,,,,,,,,,,,,30,,,,,,,,770.3661041003652,770.3661041003652,770.3661041003652,770.3661041003652,770.3661041003652,right,2.9454458002001047,0,0,0,99,0.0,0.08,right,2.8534729997627437,,,,,,,,,,,,,,,,,,,,,,,,,,,,,,,,,,,,,,,,,,,,,,,,,,,,,,,,,,,,AMJ0GC,train_y,blue_star,top_left,2025-04-28_17h18.37.258,HideSeek_v1,2022.2.5,59.98242500168517,
,0,6,0,5,0,-1,62,,train_dim1_1,4,30,,,,2,0,2,0,,,,,,,,,0,0,0,0,0,3,3,3,2,0,2,0,,,,,,,,,,,,,,,,,,,,,,,,,,,,,,,,,,,,,,,,,,,,,,,,,,,,,,,,,,,,,,,,30,,,,,,,,773.2982652001083,773.2982652001083,773.2982652001083,773.2982652001083,773.2982652001083,right,2.4447383997030556,0,0,0,99,0.08,0.08,right,2.363269299734384,,,,,,,,,,,,,,,,,,,,,,,,,,,,,,,,,,,,,,,,,,,,,,,,,,,,,,,,,,,,AMJ0GC,train_y,blue_star,top_left,2025-04-28_17h18.37.258,HideSeek_v1,2022.2.5,59.98242500168517,
,0,6,0,5,0,-1,62,,train_dim1_1,4,30,,,,2,0,2,0,,,,,,,,,0,0,0,0,0,3,3,3,3,0,3,0,,,,,,,,,,,,,,,,,,,,,,,,,,,,,,,,,,,,,,,,,,,,,,,,,,,,,,,,,,,,,,,,30,,,,,,,,775.7503690002486,775.7503690002486,775.7503690002486,775.7503690002486,775.7503690002486,return,0.7435582997277379,0,0,0,0,0.08,0.08,return,0.6588762002065778,-9,3,0.08,0.08,,,,,,,,,,,,,,,,,,,,,,,,,,,,,,,,,,,,,,,,,,,,,,,,,,,,,,,,AMJ0GC,train_y,blue_star,top_left,2025-04-28_17h18.37.258,HideSeek_v1,2022.2.5,59.98242500168517,
,3,8,3,8,0,0,61,,train_dim1_1,5,30,,,,2,0,2,0,,,,,,,,,0,0,0,0,0,4,4,4,0,0,0,0,,,,,,,,,,,,,,,,,,,,,,,,,stimuli/alien_stimuli/61.png,,,,,,,,,,,,,,,,,,,,,,,,,,,,,stimuli/alien_stimuli/62.png,62,0,6,,,,,,,30,,,,,,,,786.5349135003053,786.5349135003053,786.5349135003053,786.5349135003053,786.5349135003053,down,5.2577443001791835,0,0,0,99,0.08,0.15999999999999998,down,5.172318099997938,,,,,784.9785183002241,786.5349135003053,-0.16,0,0.08,0.0,0.04,-0.16,-0.16,-0.16,0,778.0654327003285,778.0654327003285,778.0654327003285,778.0654327003285,778.0654327003285,778.0654327003285,778.0654327003285,778.0654327003285,778.0553583802655,7.025308900047094,return,6.89523999998346,,,,,,,,,,,,,,,,,,,,,,,,,,,,,,,,,AMJ0GC,train_y,blue_star,top_left,2025-04-28_17h18.37.258,HideSeek_v1,2022.2.5,59.98242500168517,
,3,8,3,8,0,0,61,,train_dim1_1,5,30,,,,2,0,2,0,,,,,,,,,0,0,0,0,0,4,4,4,1,0,1,0,,,,,,,,,,,,,,,,,,,,,,,,,,,,,,,,,,,,,,,,,,,,,,,,,,,,,,,,,,,,,,,,30,,,,,,,,791.797579200007,791.797579200007,791.797579200007,791.797579200007,791.797579200007,down,2.54472710005939,0,0,0,99,0.08,0.07999999999999997,down,2.4614358004182577,,,,,,,,,,,,,,,,,,,,,,,,,,,,,,,,,,,,,,,,,,,,,,,,,,,,,,,,,,,,AMJ0GC,train_y,blue_star,top_left,2025-04-28_17h18.37.258,HideSeek_v1,2022.2.5,59.98242500168517,
,3,8,3,8,0,0,61,,train_dim1_1,5,30,,,,2,0,2,0,,,,,,,,,0,0,0,0,0,4,4,4,2,0,2,0,,,,,,,,,,,,,,,,,,,,,,,,,,,,,,,,,,,,,,,,,,,,,,,,,,,,,,,,,,,,,,,,30,,,,,,,,794.3492813999765,794.3492813999765,794.3492813999765,794.3492813999765,794.3492813999765,down,1.1275603999383748,0,0,0,99,0.08,-2.7755575615628914e-17,down,1.043851099908352,,,,,,,,,,,,,,,,,,,,,,,,,,,,,,,,,,,,,,,,,,,,,,,,,,,,,,,,,,,,AMJ0GC,train_y,blue_star,top_left,2025-04-28_17h18.37.258,HideSeek_v1,2022.2.5,59.98242500168517,
,3,8,3,8,0,0,61,,train_dim1_1,5,30,,,,2,0,2,0,,,,,,,,,0,0,0,0,0,4,4,4,3,0,3,0,,,,,,,,,,,,,,,,,,,,,,,,,,,,,,,,,,,,,,,,,,,,,,,,,,,,,,,,,,,,,,,,30,,,,,,,,795.4829575000331,795.4829575000331,795.4829575000331,795.4829575000331,795.4829575000331,return,0.643459000159055,0,0,0,0,0.08,-2.7755575615628914e-17,return,0.5662437998689711,-12,3,0.08,-2.7755575615628914e-17,,,,,,,,,,,,,,,,,,,,,,,,,,,,,,,,,,,,,,,,,,,,,,,,,,,,,,,,AMJ0GC,train_y,blue_star,top_left,2025-04-28_17h18.37.258,HideSeek_v1,2022.2.5,59.98242500168517,
,1,9,1,8,0,-1,62,,train_dim1_1,6,30,,,,2,0,2,0,,,,,,,,,0,0,0,0,0,5,5,5,0,0,0,0,,,,,,,,,,,,,,,,,,,,,,,,,stimuli/alien_stimuli/62.png,,,,,,,,,,,,,,,,,,,,,,,,,,,,,stimuli/alien_stimuli/61.png,61,3,7,,,,,,,30,,,,,,,,804.3961903001182,804.3961903001182,804.3961903001182,804.3961903001182,804.3961903001182,down,3.791276500094682,0,0,0,99,-0.08,0.24,down,3.710106000304222,,,,,802.8433562000282,804.3961903001182,0.08,0.24,0.0,0.0,0.24,0.08,0.08,0.08,0.24,797.6975111002102,797.6975111002102,797.6975111002102,797.6975111002102,797.6975111002102,797.6975111002102,797.6975111002102,797.6975111002102,797.6890102803707,5.256571399979293,return,5.127971599809825,,,,,,,,,,,,,,,,,,,,,,,,,,,,,,,,,AMJ0GC,train_y,blue_star,top_left,2025-04-28_17h18.37.258,HideSeek_v1,2022.2.5,59.98242500168517,
,1,9,1,8,0,-1,62,,train_dim1_1,6,30,,,,2,0,2,0,,,,,,,,,0,0,0,0,0,5,5,5,1,0,1,0,,,,,,,,,,,,,,,,,,,,,,,,,,,,,,,,,,,,,,,,,,,,,,,,,,,,,,,,,,,,,,,,30,,,,,,,,808.1948112002574,808.1948112002574,808.1948112002574,808.1948112002574,808.1948112002574,down,3.8124128999188542,0,0,0,99,-0.08,0.15999999999999998,down,3.7294819997623563,,,,,,,,,,,,,,,,,,,,,,,,,,,,,,,,,,,,,,,,,,,,,,,,,,,,,,,,,,,,AMJ0GC,train_y,blue_star,top_left,2025-04-28_17h18.37.258,HideSeek_v1,2022.2.5,59.98242500168517,
,1,9,1,8,0,-1,62,,train_dim1_1,6,30,,,,2,0,2,0,,,,,,,,,0,0,0,0,0,5,5,5,2,0,2,0,,,,,,,,,,,,,,,,,,,,,,,,,,,,,,,,,,,,,,,,,,,,,,,,,,,,,,,,,,,,,,,,30,,,,,,,,812.0140841002576,812.0140841002576,812.0140841002576,812.0140841002576,812.0140841002576,return,0.47716399980708957,0,1,0,0,-0.08,0.15999999999999998,return,0.39556750003248453,-14,3,-0.08,0.15999999999999998,,,,,,,,,,,,,,,,,,,,,,,,,,,,,,,,,,,,,,,,,,,,,,,,,,,,,,,,AMJ0GC,train_y,blue_star,top_left,2025-04-28_17h18.37.258,HideSeek_v1,2022.2.5,59.98242500168517,
,1,8,1,5,0,-3,64,,train_dim1_1,7,30,,,,2,0,2,0,,,,,,,,,0,0,0,0,0,6,6,6,0,0,0,0,,,,,,,,,,,,,,,,,,,,,,,,,stimuli/alien_stimuli/64.png,,,,,,,,,,,,,,,,,,,,,,,,,,,,,stimuli/alien_stimuli/62.png,62,1,8,,,,,,,30,,,,,,,,823.1781168002635,823.1781168002635,823.1781168002635,823.1781168002635,823.1781168002635,down,2.0733378999866545,0,1,0,99,-0.08,0.15999999999999998,down,1.993758900091052,,,,,821.6253101001494,823.1781168002635,-0.08,0.24,0.08,0.0,0.28,-0.08,-0.08,-0.08,0.24,814.0618768003769,814.0618768003769,814.0618768003769,814.0618768003769,814.0618768003769,814.0618768003769,814.0618768003769,814.0618768003769,814.0525848802179,7.675453000236303,return,7.543316199909896,,,,,,,,,,,,,,,,,,,,,,,,,,,,,,,,,AMJ0GC,train_y,blue_star,top_left,2025-04-28_17h18.37.258,HideSeek_v1,2022.2.5,59.98242500168517,
,1,8,1,5,0,-3,64,,train_dim1_1,7,30,,,,2,0,2,0,,,,,,,,,0,0,0,0,0,6,6,6,1,0,1,0,,,,,,,,,,,,,,,,,,,,,,,,,,,,,,,,,,,,,,,,,,,,,,,,,,,,,,,,,,,,,,,,30,,,,,,,,825.2579474002123,825.2579474002123,825.2579474002123,825.2579474002123,825.2579474002123,return,1.260275200009346,0,0,0,0,-0.08,0.15999999999999998,return,1.1874080998823047,-15,3,-0.08,0.15999999999999998,,,,,,,,,,,,,,,,,,,,,,,,,,,,,,,,,,,,,,,,,,,,,,,,,,,,,,,,AMJ0GC,train_y,blue_star,top_left,2025-04-28_17h18.37.258,HideSeek_v1,2022.2.5,59.98242500168517,
,4,7,4,7,0,0,61,,train_dim1_1,8,30,,,,2,0,2,0,,,,,,,,,0,0,0,0,0,7,7,7,0,0,0,0,,,,,,,,,,,,,,,,,,,,,,,,,stimuli/alien_stimuli/61.png,,,,,,,,,,,,,,,,,,,,,,,,,,,,,stimuli/alien_stimuli/64.png,64,1,9,,,,,,,30,,,,,,,,831.9846218000166,831.9846218000166,831.9846218000166,831.9846218000166,831.9846218000166,down,1.5574679002165794,0,0,0,99,0.16,0.08,down,1.483950899913907,,,,,830.4328501001,831.9846218000166,-0.08,0,0.24,0.0,0.12,-0.08,-0.08,-0.08,0,828.0829301001504,828.0829301001504,828.0829301001504,828.0829301001504,828.0829301001504,828.0829301001504,828.0829301001504,828.0829301001504,828.0808788800612,2.4541716002859175,return,2.332858799956739,,,,,,,,,,,,,,,,,,,,,,,,,,,,,,,,,AMJ0GC,train_y,blue_star,top_left,2025-04-28_17h18.37.258,HideSeek_v1,2022.2.5,59.98242500168517,
,4,7,4,7,0,0,61,,train_dim1_1,8,30,,,,2,0,2,0,,,,,,,,,0,0,0,0,0,7,7,7,1,0,1,0,,,,,,,,,,,,,,,,,,,,,,,,,,,,,,,,,,,,,,,,,,,,,,,,,,,,,,,,,,,,,,,,30,,,,,,,,833.5490299002267,833.5490299002267,833.5490299002267,833.5490299002267,833.5490299002267,down,1.2438306002877653,0,0,0,99,0.16,0.0,down,1.1610552999190986,,,,,,,,,,,,,,,,,,,,,,,,,,,,,,,,,,,,,,,,,,,,,,,,,,,,,,,,,,,,AMJ0GC,train_y,blue_star,top_left,2025-04-28_17h18.37.258,HideSeek_v1,2022.2.5,59.98242500168517,
,4,7,4,7,0,0,61,,train_dim1_1,8,30,,,,2,0,2,0,,,,,,,,,0,0,0,0,0,7,7,7,2,0,2,0,,,,,,,,,,,,,,,,,,,,,,,,,,,,,,,,,,,,,,,,,,,,,,,,,,,,,,,,,,,,,,,,30,,,,,,,,834.7995967003517,834.7995967003517,834.7995967003517,834.7995967003517,834.7995967003517,down,1.494086700025946,0,0,0,99,0.16,-0.08,down,1.4091177000664175,,,,,,,,,,,,,,,,,,,,,,,,,,,,,,,,,,,,,,,,,,,,,,,,,,,,,,,,,,,,AMJ0GC,train_y,blue_star,top_left,2025-04-28_17h18.37.258,HideSeek_v1,2022.2.5,59.98242500168517,
,4,7,4,7,0,0,61,,train_dim1_1,8,30,,,,2,0,2,0,,,,,,,,,0,0,0,0,0,7,7,7,3,0,3,0,,,,,,,,,,,,,,,,,,,,,,,,,,,,,,,,,,,,,,,,,,,,,,,,,,,,,,,,,,,,,,,,30,,,,,,,,836.3009877000004,836.3009877000004,836.3009877000004,836.3009877000004,836.3009877000004,return,0.493162099737674,0,0,0,0,0.16,-0.08,return,0.4137523998506367,-18,3,0.16,-0.08,,,,,,,,,,,,,,,,,,,,,,,,,,,,,,,,,,,,,,,,,,,,,,,,,,,,,,,,AMJ0GC,train_y,blue_star,top_left,2025-04-28_17h18.37.258,HideSeek_v1,2022.2.5,59.98242500168517,
,4,8,4,4,0,-4,65,,train_dim1_1,9,30,,,,2,0,2,0,,,,,,,,,0,0,0,0,0,8,8,8,0,0,0,0,,,,,,,,,,,,,,,,,,,,,,,,,stimuli/alien_stimuli/65.png,,,,,,,,,,,,,,,,,,,,,,,,,,,,,stimuli/alien_stimuli/61.png,61,4,10,,,,,,,30,,,,,,,,843.6279362002388,843.6279362002388,843.6279362002388,843.6279362002388,843.6279362002388,up,2.190587399993092,0,0,0,99,0.16,0.32,up,2.1083244998008013,,,,,842.0758237000555,843.6279362002388,0.16,0.16,0.0,0.0,0.16,0.16,0.16,0.16,0.16,838.3664577002637,838.3664577002637,838.3664577002637,838.3664577002637,838.3664577002637,838.3664577002637,838.3664577002637,838.3664577002637,838.3560945803299,3.8219873998314142,return,3.6798955998383462,,,,,,,,,,,,,,,,,,,,,,,,,,,,,,,,,AMJ0GC,train_y,blue_star,top_left,2025-04-28_17h18.37.258,HideSeek_v1,2022.2.5,59.98242500168517,
,4,8,4,4,0,-4,65,,train_dim1_1,9,30,,,,2,0,2,0,,,,,,,,,0,0,0,0,0,8,8,8,1,0,1,0,,,,,,,,,,,,,,,,,,,,,,,,,,,,,,,,,,,,,,,,,,,,,,,,,,,,,,,,,,,,,,,,30,,,,,,,,845.8249444002286,845.8249444002286,845.8249444002286,845.8249444002286,845.8249444002286,down,1.3268879000097513,0,0,0,99,0.16,0.24,down,1.2455111001618207,,,,,,,,,,,,,,,,,,,,,,,,,,,,,,,,,,,,,,,,,,,,,,,,,,,,,,,,,,,,AMJ0GC,train_y,blue_star,top_left,2025-04-28_17h18.37.258,HideSeek_v1,2022.2.5,59.98242500168517,
,4,8,4,4,0,-4,65,,train_dim1_1,9,30,,,,2,0,2,0,,,,,,,,,0,0,0,0,0,8,8,8,2,0,2,0,,,,,,,,,,,,,,,,,,,,,,,,,,,,,,,,,,,,,,,,,,,,,,,,,,,,,,,,,,,,,,,,30,,,,,,,,847.1588606000878,847.1588606000878,847.1588606000878,847.1588606000878,847.1588606000878,return,0.8938800999894738,0,0,0,0,0.16,0.24,return,0.8133318000473082,-18,3,0.16,0.24,,,,,,,,,,,,,,,,,,,,,,,,,,,,,,,,,,,,,,,,,,,,,,,,,,,,,,,,AMJ0GC,train_y,blue_star,top_left,2025-04-28_17h18.37.258,HideSeek_v1,2022.2.5,59.98242500168517,
,2,7,2,2,0,-5,66,,train_dim1_1,10,30,,,,2,0,2,0,,,,,,,,,0,0,0,0,0,9,9,9,0,0,0,0,,,,,,,,,,,,,,,,,,,,,,,,,stimuli/alien_stimuli/66.png,,,,,,,,,,,,,,,,,,,,,,,,,,,,,stimuli/alien_stimuli/65.png,65,4,11,,,,,,,30,,,,,,,,858.5093935001642,858.5093935001642,858.5093935001642,858.5093935001642,858.5093935001642,down,2.088828899897635,0,0,0,99,0,0.08,down,2.0148013997823,,,,,856.9549309001304,858.5093935001642,0.16,-0.08,0.32,0.0,0.07999999999999999,0.16,0.16,0.16,-0.08,849.6198027003556,849.6198027003556,849.6198027003556,849.6198027003556,849.6198027003556,849.6198027003556,849.6198027003556,849.6198027003556,849.6153051803819,7.441922100260854,return,7.311566799879074,,,,,,,,,,,,,,,,,,,,,,,,,,,,,,,,,AMJ0GC,train_y,blue_star,top_left,2025-04-28_17h18.37.258,HideSeek_v1,2022.2.5,59.98242500168517,
,2,7,2,2,0,-5,66,,train_dim1_1,10,30,,,,2,0,2,0,,,,,,,,,0,0,0,0,0,9,9,9,1,0,1,0,,,,,,,,,,,,,,,,,,,,,,,,,,,,,,,,,,,,,,,,,,,,,,,,,,,,,,,,,,,,,,,,30,,,,,,,,860.6046387003735,860.6046387003735,860.6046387003735,860.6046387003735,860.6046387003735,down,0.3929075999185443,0,0,0,99,0,0.0,down,0.3156604999676347,,,,,,,,,,,,,,,,,,,,,,,,,,,,,,,,,,,,,,,,,,,,,,,,,,,,,,,,,,,,AMJ0GC,train_y,blue_star,top_left,2025-04-28_17h18.37.258,HideSeek_v1,2022.2.5,59.98242500168517,
,2,7,2,2,0,-5,66,,train_dim1_1,10,30,,,,2,0,2,0,,,,,,,,,0,0,0,0,0,9,9,9,2,0,2,0,,,,,,,,,,,,,,,,,,,,,,,,,,,,,,,,,,,,,,,,,,,,,,,,,,,,,,,,,,,,,,,,30,,,,,,,,861.004850000143,861.004850000143,861.004850000143,861.004850000143,861.004850000143,down,0.3265194999985397,0,0,0,99,0,-0.08,down,0.2468695999123156,,,,,,,,,,,,,,,,,,,,,,,,,,,,,,,,,,,,,,,,,,,,,,,,,,,,,,,,,,,,AMJ0GC,train_y,blue_star,top_left,2025-04-28_17h18.37.258,HideSeek_v1,2022.2.5,59.98242500168517,
,2,7,2,2,0,-5,66,,train_dim1_1,10,30,,,,2,0,2,0,,,,,,,,,0,0,0,0,0,9,9,9,3,0,3,0,,,,,,,,,,,,,,,,,,,,,,,,,,,,,,,,,,,,,,,,,,,,,,,,,,,,,,,,,,,,,,,,30,,,,,,,,861.3376415004022,861.3376415004022,861.3376415004022,861.3376415004022,861.3376415004022,return,0.8438002001494169,0,0,0,0,0,-0.08,return,0.7664842000231147,-21,3,0,-0.08,,,,,,,,,,,,,,,,,,,,,,,,,,,,,,,,,,,,,,,,,,,,,,,,,,,,,,,,AMJ0GC,train_y,blue_star,top_left,2025-04-28_17h18.37.258,HideSeek_v1,2022.2.5,59.98242500168517,
,4,6,4,2,0,-4,65,,train_dim1_1,11,30,,,,2,0,2,0,,,,,,,,,0,0,0,0,0,10,10,10,0,0,0,0,,,,,,,,,,,,,,,,,,,,,,,,,stimuli/alien_stimuli/65.png,,,,,,,,,,,,,,,,,,,,,,,,,,,,,stimuli/alien_stimuli/66.png,66,2,12,,,,,,,30,,,,,,,,868.6149881002493,868.6149881002493,868.6149881002493,868.6149881002493,868.6149881002493,down,0.8568539000116289,0,0,0,99,0.16,0.0,down,0.7793342997319996,,,,,867.0632725004107,868.6149881002493,0,-0.24,0.4,0.0,-0.039999999999999994,0,0.0,0,-0.24,863.7475208002143,863.7475208002143,863.7475208002143,863.7475208002143,863.7475208002143,863.7475208002143,863.7475208002143,863.7475208002143,863.7439226803369,3.4214943000115454,return,3.2957599996589124,,,,,,,,,,,,,,,,,,,,,,,,,,,,,,,,,AMJ0GC,train_y,blue_star,top_left,2025-04-28_17h18.37.258,HideSeek_v1,2022.2.5,59.98242500168517,
,4,6,4,2,0,-4,65,,train_dim1_1,11,30,,,,2,0,2,0,,,,,,,,,0,0,0,0,0,10,10,10,1,0,1,0,,,,,,,,,,,,,,,,,,,,,,,,,,,,,,,,,,,,,,,,,,,,,,,,,,,,,,,,,,,,,,,,30,,,,,,,,869.4781304001808,869.4781304001808,869.4781304001808,869.4781304001808,869.4781304001808,down,0.42618100019171834,0,0,0,99,0.16,-0.08,down,0.3412220003083348,,,,,,,,,,,,,,,,,,,,,,,,,,,,,,,,,,,,,,,,,,,,,,,,,,,,,,,,,,,,AMJ0GC,train_y,blue_star,top_left,2025-04-28_17h18.37.258,HideSeek_v1,2022.2.5,59.98242500168517,
,4,6,4,2,0,-4,65,,train_dim1_1,11,30,,,,2,0,2,0,,,,,,,,,0,0,0,0,0,10,10,10,2,0,2,0,,,,,,,,,,,,,,,,,,,,,,,,,,,,,,,,,,,,,,,,,,,,,,,,,,,,,,,,,,,,,,,,30,,,,,,,,869.9118106001988,869.9118106001988,869.9118106001988,869.9118106001988,869.9118106001988,down,0.36010259995236993,0,0,0,99,0.16,-0.16,down,0.28564409958198667,,,,,,,,,,,,,,,,,,,,,,,,,,,,,,,,,,,,,,,,,,,,,,,,,,,,,,,,,,,,AMJ0GC,train_y,blue_star,top_left,2025-04-28_17h18.37.258,HideSeek_v1,2022.2.5,59.98242500168517,
,4,6,4,2,0,-4,65,,train_dim1_1,11,30,,,,2,0,2,0,,,,,,,,,0,0,0,0,0,10,10,10,3,0,3,0,,,,,,,,,,,,,,,,,,,,,,,,,,,,,,,,,,,,,,,,,,,,,,,,,,,,,,,,,,,,,,,,30,,,,,,,,870.27927870024,870.27927870024,870.27927870024,870.27927870024,870.27927870024,down,1.2106027998961508,0,0,0,99,0.16,-0.24,down,1.1375084002502263,,,,,,,,,,,,,,,,,,,,,,,,,,,,,,,,,,,,,,,,,,,,,,,,,,,,,,,,,,,,AMJ0GC,train_y,blue_star,top_left,2025-04-28_17h18.37.258,HideSeek_v1,2022.2.5,59.98242500168517,
,4,6,4,2,0,-4,65,,train_dim1_1,11,30,,,,2,0,2,0,,,,,,,,,0,0,0,0,0,10,10,10,4,0,4,0,,,,,,,,,,,,,,,,,,,,,,,,,,,,,,,,,,,,,,,,,,,,,,,,,,,,,,,,,,,,,,,,30,,,,,,,,871.4961103000678,871.4961103000678,871.4961103000678,871.4961103000678,871.4961103000678,return,0.593543800059706,1,0,0,1,0.16,-0.24,return,0.5207183002494276,-25,3,0.16,-0.24,,,,,,,,,,,,,,,,,,,,,,,,,,,,,,,,,,,,,,,,,,,,,,,,,,,,,,,,AMJ0GC,train_y,blue_star,top_left,2025-04-28_17h18.37.258,HideSeek_v1,2022.2.5,59.98242500168517,
,0,5,0,5,0,0,61,,train_dim1_1,12,30,,,,2,0,2,0,,,,,,,,,0,0,0,0,0,11,11,11,0,0,0,0,,,,,,,,,,,,,,,,,,,,,,,,,stimuli/alien_stimuli/61.png,,,,,,,,,,,,,,,,,,,,,,,,,,,,,stimuli/alien_stimuli/65.png,65,4,13,,,,,,,30,,,,,,,,878.55849400023,878.55849400023,878.55849400023,878.55849400023,878.55849400023,right,2.973475100006908,1,0,0,99,-0.08,0,right,2.895770799834281,,,,,877.0045973001979,878.55849400023,0.16,-0.24,0.32,0.0,-0.07999999999999999,0.16,0.16,0.16,-0.24,873.6446103001945,873.6446103001945,873.6446103001945,873.6446103001945,873.6446103001945,873.6446103001945,873.6446103001945,873.6446103001945,873.6355014402419,3.4550462001934648,return,3.341901899781078,,,,,,,,,,,,,,,,,,,,,,,,,,,,,,,,,AMJ0GC,train_y,blue_star,top_left,2025-04-28_17h18.37.258,HideSeek_v1,2022.2.5,59.98242500168517,
,0,5,0,5,0,0,61,,train_dim1_1,12,30,,,,2,0,2,0,,,,,,,,,0,0,0,0,0,11,11,11,1,0,1,0,,,,,,,,,,,,,,,,,,,,,,,,,,,,,,,,,,,,,,,,,,,,,,,,,,,,,,,,,,,,,,,,30,,,,,,,,881.5381130999885,881.5381130999885,881.5381130999885,881.5381130999885,881.5381130999885,return,2.461699000094086,1,1,0,0,-0.08,0,return,2.3876785999163985,-25,4,-0.08,0,,,,,,,,,,,,,,,,,,,,,,,,,,,,,,,,,,,,,,,,,,,,,,,,,,,,,,,,AMJ0GC,train_y,blue_star,top_left,2025-04-28_17h18.37.258,HideSeek_v1,2022.2.5,59.98242500168517,
,4,8,4,7,0,-1,62,,train_dim1_1,13,30,,,,2,0,2,0,,,,,,,,,0,0,0,0,0,12,12,12,0,0,0,0,,,,,,,,,,,,,,,,,,,,,,,,,stimuli/alien_stimuli/62.png,,,,,,,,,,,,,,,,,,,,,,,,,,,,,stimuli/alien_stimuli/61.png,61,0,14,,,,,,,30,,,,,,,,889.4000307000242,889.4000307000242,889.4000307000242,889.4000307000242,889.4000307000242,up,1.7231030003167689,1,1,0,99,0.16,0.32,up,1.6376898000016809,,,,,887.8472482999787,889.4000307000242,-0.16,0,0.0,0.0,0.0,-0.16,-0.16,-0.16,0,885.5697980001569,885.5697980001569,885.5697980001569,885.5697980001569,885.5697980001569,885.5697980001569,885.5697980001569,885.5697980001569,885.5618313799612,2.38772700028494,return,2.2593906996771693,,,,,,,,,,,,,,,,,,,,,,,,,,,,,,,,,AMJ0GC,train_y,blue_star,top_left,2025-04-28_17h18.37.258,HideSeek_v1,2022.2.5,59.98242500168517,
,4,8,4,7,0,-1,62,,train_dim1_1,13,30,,,,2,0,2,0,,,,,,,,,0,0,0,0,0,12,12,12,1,0,1,0,,,,,,,,,,,,,,,,,,,,,,,,,,,,,,,,,,,,,,,,,,,,,,,,,,,,,,,,,,,,,,,,30,,,,,,,,891.1303581004031,891.1303581004031,891.1303581004031,891.1303581004031,891.1303581004031,down,0.8768716002814472,1,1,0,99,0.16,0.24,down,0.788245300296694,,,,,,,,,,,,,,,,,,,,,,,,,,,,,,,,,,,,,,,,,,,,,,,,,,,,,,,,,,,,AMJ0GC,train_y,blue_star,top_left,2025-04-28_17h18.37.258,HideSeek_v1,2022.2.5,59.98242500168517,
,4,8,4,7,0,-1,62,,train_dim1_1,13,30,,,,2,0,2,0,,,,,,,,,0,0,0,0,0,12,12,12,2,0,2,0,,,,,,,,,,,,,,,,,,,,,,,,,,,,,,,,,,,,,,,,,,,,,,,,,,,,,,,,,,,,,,,,30,,,,,,,,892.0136434002779,892.0136434002779,892.0136434002779,892.0136434002779,892.0136434002779,return,0.5933074997738004,1,1,0,0,0.16,0.24,return,0.5163015997968614,-25,4,0.16,0.24,,,,,,,,,,,,,,,,,,,,,,,,,,,,,,,,,,,,,,,,,,,,,,,,,,,,,,,,AMJ0GC,train_y,blue_star,top_left,2025-04-28_17h18.37.258,HideSeek_v1,2022.2.5,59.98242500168517,
,2,7,2,2,0,-5,66,,train_dim1_1,14,30,,,,2,0,2,0,,,,,,,,,0,0,0,0,0,13,13,13,0,0,0,0,,,,,,,,,,,,,,,,,,,,,,,,,stimuli/alien_stimuli/66.png,,,,,,,,,,,,,,,,,,,,,,,,,,,,,stimuli/alien_stimuli/62.png,62,4,15,,,,,,,30,,,,,,,,897.7262944001704,897.7262944001704,897.7262944001704,897.7262944001704,897.7262944001704,down,1.087238899897784,1,1,0,99,0,0.08,down,0.99793880013749,,,,,896.1704721003771,897.7262944001704,0.16,0.16,0.08,0.0,0.2,0.16,0.16,0.16,0.16,894.1786553002894,894.1786553002894,894.1786553002894,894.1786553002894,894.1786553002894,894.1786553002894,894.1786553002894,894.1786553002894,894.16911167996,2.1033910997211933,return,1.9620374999940395,,,,,,,,,,,,,,,,,,,,,,,,,,,,,,,,,AMJ0GC,train_y,blue_star,top_left,2025-04-28_17h18.37.258,HideSeek_v1,2022.2.5,59.98242500168517,
,2,7,2,2,0,-5,66,,train_dim1_1,14,30,,,,2,0,2,0,,,,,,,,,0,0,0,0,0,13,13,13,1,0,1,0,,,,,,,,,,,,,,,,,,,,,,,,,,,,,,,,,,,,,,,,,,,,,,,,,,,,,,,,,,,,,,,,30,,,,,,,,898.820059900172,898.820059900172,898.820059900172,898.820059900172,898.820059900172,down,0.3255082000978291,1,1,0,99,0,0.0,down,0.2517077000811696,,,,,,,,,,,,,,,,,,,,,,,,,,,,,,,,,,,,,,,,,,,,,,,,,,,,,,,,,,,,AMJ0GC,train_y,blue_star,top_left,2025-04-28_17h18.37.258,HideSeek_v1,2022.2.5,59.98242500168517,
,2,7,2,2,0,-5,66,,train_dim1_1,14,30,,,,2,0,2,0,,,,,,,,,0,0,0,0,0,13,13,13,2,0,2,0,,,,,,,,,,,,,,,,,,,,,,,,,,,,,,,,,,,,,,,,,,,,,,,,,,,,,,,,,,,,,,,,30,,,,,,,,899.1530098002404,899.1530098002404,899.1530098002404,899.1530098002404,899.1530098002404,down,0.3767412002198398,1,1,0,99,0,-0.08,down,0.2923039998859167,,,,,,,,,,,,,,,,,,,,,,,,,,,,,,,,,,,,,,,,,,,,,,,,,,,,,,,,,,,,AMJ0GC,train_y,blue_star,top_left,2025-04-28_17h18.37.258,HideSeek_v1,2022.2.5,59.98242500168517,
,2,7,2,2,0,-5,66,,train_dim1_1,14,30,,,,2,0,2,0,,,,,,,,,0,0,0,0,0,13,13,13,3,0,3,0,,,,,,,,,,,,,,,,,,,,,,,,,,,,,,,,,,,,,,,,,,,,,,,,,,,,,,,,,,,,,,,,30,,,,,,,,899.5370561000891,899.5370561000891,899.5370561000891,899.5370561000891,899.5370561000891,down,0.3430277002044022,1,1,0,99,0,-0.16,down,0.2673940001986921,,,,,,,,,,,,,,,,,,,,,,,,,,,,,,,,,,,,,,,,,,,,,,,,,,,,,,,,,,,,AMJ0GC,train_y,blue_star,top_left,2025-04-28_17h18.37.258,HideSeek_v1,2022.2.5,59.98242500168517,
,2,7,2,2,0,-5,66,,train_dim1_1,14,30,,,,2,0,2,0,,,,,,,,,0,0,0,0,0,13,13,13,4,0,4,0,,,,,,,,,,,,,,,,,,,,,,,,,,,,,,,,,,,,,,,,,,,,,,,,,,,,,,,,,,,,,,,,30,,,,,,,,899.8872684002854,899.8872684002854,899.8872684002854,899.8872684002854,899.8872684002854,return,0.47697959979996085,1,1,0,0,0,-0.16,return,0.4035458001308143,-29,4,0,-0.16,,,,,,,,,,,,,,,,,,,,,,,,,,,,,,,,,,,,,,,,,,,,,,,,,,,,,,,,AMJ0GC,train_y,blue_star,top_left,2025-04-28_17h18.37.258,HideSeek_v1,2022.2.5,59.98242500168517,
,1,9,1,6,0,-3,64,,train_dim1_1,15,30,,,,2,0,2,0,,,,,,,,,0,0,0,0,0,14,14,14,0,0,0,0,,,,,,,,,,,,,,,,,,,,,,,,,stimuli/alien_stimuli/64.png,,,,,,,,,,,,,,,,,,,,,,,,,,,,,stimuli/alien_stimuli/66.png,66,2,16,,,,,,,30,,,,,,,,904.9949002000503,904.9949002000503,904.9949002000503,904.9949002000503,904.9949002000503,down,2.0578794996254146,1,1,0,99,-0.08,0.24,down,1.9692697999998927,,,,,903.4434380000457,904.9949002000503,0,-0.24,0.4,0.0,-0.039999999999999994,0,0.0,0,-0.24,901.9145065001212,901.9145065001212,901.9145065001212,901.9145065001212,901.9145065001212,901.9145065001212,901.9145065001212,901.9145065001212,901.908967640344,1.619908600114286,return,1.497474899981171,,,,,,,,,,,,,,,,,,,,,,,,,,,,,,,,,AMJ0GC,train_y,blue_star,top_left,2025-04-28_17h18.37.258,HideSeek_v1,2022.2.5,59.98242500168517,
,1,9,1,6,0,-3,64,,train_dim1_1,15,30,,,,2,0,2,0,,,,,,,,,0,0,0,0,0,14,14,14,1,0,1,0,,,,,,,,,,,,,,,,,,,,,,,,,,,,,,,,,,,,,,,,,,,,,,,,,,,,,,,,,,,,,,,,30,,,,,,,,907.0593248000368,907.0593248000368,907.0593248000368,907.0593248000368,907.0593248000368,down,0.2760453997179866,1,1,0,99,-0.08,0.15999999999999998,down,0.19503180030733347,,,,,,,,,,,,,,,,,,,,,,,,,,,,,,,,,,,,,,,,,,,,,,,,,,,,,,,,,,,,AMJ0GC,train_y,blue_star,top_left,2025-04-28_17h18.37.258,HideSeek_v1,2022.2.5,59.98242500168517,
,1,9,1,6,0,-3,64,,train_dim1_1,15,30,,,,2,0,2,0,,,,,,,,,0,0,0,0,0,14,14,14,2,0,2,0,,,,,,,,,,,,,,,,,,,,,,,,,,,,,,,,,,,,,,,,,,,,,,,,,,,,,,,,,,,,,,,,30,,,,,,,,907.3428484001197,907.3428484001197,907.3428484001197,907.3428484001197,907.3428484001197,return,1.1773971999064088,1,1,0,0,-0.08,0.15999999999999998,return,1.0952905002050102,-31,4,-0.08,0.15999999999999998,,,,,,,,,,,,,,,,,,,,,,,,,,,,,,,,,,,,,,,,,,,,,,,,,,,,,,,,AMJ0GC,train_y,blue_star,top_left,2025-04-28_17h18.37.258,HideSeek_v1,2022.2.5,59.98242500168517,
,4,5,4,1,0,-4,65,,train_dim1_1,16,30,,,,2,0,2,0,,,,,,,,,0,0,0,0,0,15,15,15,0,0,0,0,,,,,,,,,,,,,,,,,,,,,,,,,stimuli/alien_stimuli/65.png,,,,,,,,,,,,,,,,,,,,,,,,,,,,,stimuli/alien_stimuli/64.png,64,1,17,,,,,,,30,,,,,,,,913.0544037004001,913.0544037004001,913.0544037004001,913.0544037004001,913.0544037004001,down,0.67022560024634,1,1,0,99,0.16,-0.08,down,0.586523599922657,,,,,911.5001576002687,913.0544037004001,-0.08,0.08,0.24,0.0,0.2,-0.08,-0.08,-0.08,0.08,910.0695313001052,910.0695313001052,910.0695313001052,910.0695313001052,910.0695313001052,910.0695313001052,910.0695313001052,910.0695313001052,910.0655307402834,1.5203511998988688,return,1.3990382999181747,,,,,,,,,,,,,,,,,,,,,,,,,,,,,,,,,AMJ0GC,train_y,blue_star,top_left,2025-04-28_17h18.37.258,HideSeek_v1,2022.2.5,59.98242500168517,
,4,5,4,1,0,-4,65,,train_dim1_1,16,30,,,,2,0,2,0,,,,,,,,,0,0,0,0,0,15,15,15,1,0,1,0,,,,,,,,,,,,,,,,,,,,,,,,,,,,,,,,,,,,,,,,,,,,,,,,,,,,,,,,,,,,,,,,30,,,,,,,,913.7309297001921,913.7309297001921,913.7309297001921,913.7309297001921,913.7309297001921,down,0.4260895997285843,1,1,0,99,0.16,-0.16,down,0.34043070022016764,,,,,,,,,,,,,,,,,,,,,,,,,,,,,,,,,,,,,,,,,,,,,,,,,,,,,,,,,,,,AMJ0GC,train_y,blue_star,top_left,2025-04-28_17h18.37.258,HideSeek_v1,2022.2.5,59.98242500168517,
,4,5,4,1,0,-4,65,,train_dim1_1,16,30,,,,2,0,2,0,,,,,,,,,0,0,0,0,0,15,15,15,2,0,2,0,,,,,,,,,,,,,,,,,,,,,,,,,,,,,,,,,,,,,,,,,,,,,,,,,,,,,,,,,,,,,,,,30,,,,,,,,914.1652576001361,914.1652576001361,914.1652576001361,914.1652576001361,914.1652576001361,down,0.8606843003071845,1,1,0,99,0.16,-0.24,down,0.7770877997390926,,,,,,,,,,,,,,,,,,,,,,,,,,,,,,,,,,,,,,,,,,,,,,,,,,,,,,,,,,,,AMJ0GC,train_y,blue_star,top_left,2025-04-28_17h18.37.258,HideSeek_v1,2022.2.5,59.98242500168517,
,4,5,4,1,0,-4,65,,train_dim1_1,16,30,,,,2,0,2,0,,,,,,,,,0,0,0,0,0,15,15,15,3,0,3,0,,,,,,,,,,,,,,,,,,,,,,,,,,,,,,,,,,,,,,,,,,,,,,,,,,,,,,,,,,,,,,,,30,,,,,,,,915.0344002000056,915.0344002000056,915.0344002000056,915.0344002000056,915.0344002000056,down,0.9269026000984013,1,1,0,99,0.16,-0.32,down,0.8522505997680128,,,,,,,,,,,,,,,,,,,,,,,,,,,,,,,,,,,,,,,,,,,,,,,,,,,,,,,,,,,,AMJ0GC,train_y,blue_star,top_left,2025-04-28_17h18.37.258,HideSeek_v1,2022.2.5,59.98242500168517,
,4,5,4,1,0,-4,65,,train_dim1_1,16,30,,,,2,0,2,0,,,,,,,,,0,0,0,0,0,15,15,15,4,0,4,0,,,,,,,,,,,,,,,,,,,,,,,,,,,,,,,,,,,,,,,,,,,,,,,,,,,,,,,,,,,,,,,,30,,,,,,,,915.9662371003069,915.9662371003069,915.9662371003069,915.9662371003069,915.9662371003069,return,1.1774573000147939,2,0,0,1,0.16,-0.32,return,1.0944889998063445,-35,4,0.16,-0.32,,,,,,,,,,,,,,,,,,,,,,,,,,,,,,,,,,,,,,,,,,,,,,,,,,,,,,,,AMJ0GC,train_y,blue_star,top_left,2025-04-28_17h18.37.258,HideSeek_v1,2022.2.5,59.98242500168517,
,3,8,3,5,0,-3,64,,train_dim1_1,17,30,,,,2,0,2,0,,,,,,,,,0,0,0,0,0,16,16,16,0,0,0,0,,,,,,,,,,,,,,,,,,,,,,,,,stimuli/alien_stimuli/64.png,,,,,,,,,,,,,,,,,,,,,,,,,,,,,stimuli/alien_stimuli/65.png,65,4,18,,,,,,,30,,,,,,,,922.2449397002347,922.2449397002347,922.2449397002347,922.2449397002347,922.2449397002347,down,0.738487399648875,2,0,0,99,0.08,0.15999999999999998,down,0.6549444999545813,,,,,920.6911868001334,922.2449397002347,0.16,-0.32,0.32,0.0,-0.16,0.16,0.16,0.16,-0.32,918.6942048002966,918.6942048002966,918.6942048002966,918.6942048002966,918.6942048002966,918.6942048002966,918.6942048002966,918.6942048002966,918.6894175401889,2.087298800237477,return,1.975503099616617,,,,,,,,,,,,,,,,,,,,,,,,,,,,,,,,,AMJ0GC,train_y,blue_star,top_left,2025-04-28_17h18.37.258,HideSeek_v1,2022.2.5,59.98242500168517,
,3,8,3,5,0,-3,64,,train_dim1_1,17,30,,,,2,0,2,0,,,,,,,,,0,0,0,0,0,16,16,16,1,0,1,0,,,,,,,,,,,,,,,,,,,,,,,,,,,,,,,,,,,,,,,,,,,,,,,,,,,,,,,,,,,,,,,,30,,,,,,,,922.9893044000491,922.9893044000491,922.9893044000491,922.9893044000491,922.9893044000491,down,0.5262341001071036,2,0,0,99,0.08,0.07999999999999997,down,0.45332600036635995,,,,,,,,,,,,,,,,,,,,,,,,,,,,,,,,,,,,,,,,,,,,,,,,,,,,,,,,,,,,AMJ0GC,train_y,blue_star,top_left,2025-04-28_17h18.37.258,HideSeek_v1,2022.2.5,59.98242500168517,
,3,8,3,5,0,-3,64,,train_dim1_1,17,30,,,,2,0,2,0,,,,,,,,,0,0,0,0,0,16,16,16,2,0,2,0,,,,,,,,,,,,,,,,,,,,,,,,,,,,,,,,,,,,,,,,,,,,,,,,,,,,,,,,,,,,,,,,30,,,,,,,,923.5234587001614,923.5234587001614,923.5234587001614,923.5234587001614,923.5234587001614,down,0.8941226997412741,2,0,0,99,0.08,-2.7755575615628914e-17,down,0.8116866000927985,,,,,,,,,,,,,,,,,,,,,,,,,,,,,,,,,,,,,,,,,,,,,,,,,,,,,,,,,,,,AMJ0GC,train_y,blue_star,top_left,2025-04-28_17h18.37.258,HideSeek_v1,2022.2.5,59.98242500168517,
,3,8,3,5,0,-3,64,,train_dim1_1,17,30,,,,2,0,2,0,,,,,,,,,0,0,0,0,0,16,16,16,3,0,3,0,,,,,,,,,,,,,,,,,,,,,,,,,,,,,,,,,,,,,,,,,,,,,,,,,,,,,,,,,,,,,,,,30,,,,,,,,924.423771600239,924.423771600239,924.423771600239,924.423771600239,924.423771600239,return,0.39320809999480844,3,0,0,1,0.08,-2.7755575615628914e-17,return,0.3067609998397529,-38,4,0.08,-2.7755575615628914e-17,,,,,,,,,,,,,,,,,,,,,,,,,,,,,,,,,,,,,,,,,,,,,,,,,,,,,,,,AMJ0GC,train_y,blue_star,top_left,2025-04-28_17h18.37.258,HideSeek_v1,2022.2.5,59.98242500168517,
,2,6,2,6,0,0,61,,train_dim1_1,18,30,,,,2,0,2,0,,,,,,,,,0,0,0,0,0,17,17,17,0,0,0,0,,,,,,,,,,,,,,,,,,,,,,,,,stimuli/alien_stimuli/61.png,,,,,,,,,,,,,,,,,,,,,,,,,,,,,stimuli/alien_stimuli/64.png,64,3,19,,,,,,,30,,,,,,,,929.7188045000657,929.7188045000657,929.7188045000657,929.7188045000657,929.7188045000657,down,4.1578955999575555,3,0,0,99,0,0.0,down,4.068231699988246,,,,,928.1641112002544,929.7188045000657,0.08,0,0.24,0.0,0.12,0.08,0.08,0.08,0,926.3889888003469,926.3889888003469,926.3889888003469,926.3889888003469,926.3889888003469,926.3889888003469,926.3889888003469,926.3889888003469,926.3791886802762,1.887028600089252,return,1.7542137000709772,,,,,,,,,,,,,,,,,,,,,,,,,,,,,,,,,AMJ0GC,train_y,blue_star,top_left,2025-04-28_17h18.37.258,HideSeek_v1,2022.2.5,59.98242500168517,
,2,6,2,6,0,0,61,,train_dim1_1,18,30,,,,2,0,2,0,,,,,,,,,0,0,0,0,0,17,17,17,1,0,1,0,,,,,,,,,,,,,,,,,,,,,,,,,,,,,,,,,,,,,,,,,,,,,,,,,,,,,,,,,,,,,,,,30,,,,,,,,933.8842827002518,933.8842827002518,933.8842827002518,933.8842827002518,933.8842827002518,return,1.393711700104177,3,1,0,0,0,0.0,return,1.3184095998294652,-39,4,0,0.0,,,,,,,,,,,,,,,,,,,,,,,,,,,,,,,,,,,,,,,,,,,,,,,,,,,,,,,,AMJ0GC,train_y,blue_star,top_left,2025-04-28_17h18.37.258,HideSeek_v1,2022.2.5,59.98242500168517,
,0,9,0,8,0,-1,62,,train_dim1_1,19,30,,,,2,0,2,0,,,,,,,,,0,0,0,0,0,18,18,18,0,0,0,0,,,,,,,,,,,,,,,,,,,,,,,,,stimuli/alien_stimuli/62.png,,,,,,,,,,,,,,,,,,,,,,,,,,,,,stimuli/alien_stimuli/61.png,61,2,20,,,,,,,30,,,,,,,,940.3576990002766,940.3576990002766,940.3576990002766,940.3576990002766,940.3576990002766,return,2.5750548001378775,3,1,0,0,-0.16,0.32,return,2.498396399896592,-39,4,-0.16,0.32,938.8061489001848,940.3576990002766,0,0.08,0.0,0.0,0.08,0,0.0,0,0.08,936.8477833000943,936.8477833000943,936.8477833000943,936.8477833000943,936.8477833000943,936.8477833000943,936.8477833000943,936.8477833000943,936.8378022803925,2.0710044000297785,return,1.9421569998376071,,,,,,,,,,,,,,,,,,,,,,,,,,,,,,,,,AMJ0GC,train_y,blue_star,top_left,2025-04-28_17h18.37.258,HideSeek_v1,2022.2.5,59.98242500168517,
,2,5,2,0,0,-5,66,,train_dim1_1,20,30,,,,2,0,2,0,,,,,,,,,0,0,0,0,0,19,19,19,0,0,0,0,,,,,,,,,,,,,,,,,,,,,,,,,stimuli/alien_stimuli/66.png,,,,,,,,,,,,,,,,,,,,,,,,,,,,,stimuli/alien_stimuli/62.png,62,0,21,,,,,,,30,,,,,,,,948.4806734002195,948.4806734002195,948.4806734002195,948.4806734002195,948.4806734002195,down,0.6566481003537774,3,1,0,99,0,-0.08,down,0.5727225001901388,,,,,946.9297581999563,948.4806734002195,-0.16,0.24,0.08,0.0,0.28,-0.16,-0.16,-0.16,0.24,944.4841857003048,944.4841857003048,944.4841857003048,944.4841857003048,944.4841857003048,944.4841857003048,944.4841857003048,944.4841857003048,944.4774806402623,2.537725599948317,return,2.4232404003851116,,,,,,,,,,,,,,,,,,,,,,,,,,,,,,,,,AMJ0GC,train_y,blue_star,top_left,2025-04-28_17h18.37.258,HideSeek_v1,2022.2.5,59.98242500168517,
,2,5,2,0,0,-5,66,,train_dim1_1,20,30,,,,2,0,2,0,,,,,,,,,0,0,0,0,0,19,19,19,1,0,1,0,,,,,,,,,,,,,,,,,,,,,,,,,,,,,,,,,,,,,,,,,,,,,,,,,,,,,,,,,,,,,,,,30,,,,,,,,949.146325699985,949.146325699985,949.146325699985,949.146325699985,949.146325699985,down,0.25874439999461174,3,1,0,99,0,-0.16,down,0.18378740036860108,,,,,,,,,,,,,,,,,,,,,,,,,,,,,,,,,,,,,,,,,,,,,,,,,,,,,,,,,,,,AMJ0GC,train_y,blue_star,top_left,2025-04-28_17h18.37.258,HideSeek_v1,2022.2.5,59.98242500168517,
,2,5,2,0,0,-5,66,,train_dim1_1,20,30,,,,2,0,2,0,,,,,,,,,0,0,0,0,0,19,19,19,2,0,2,0,,,,,,,,,,,,,,,,,,,,,,,,,,,,,,,,,,,,,,,,,,,,,,,,,,,,,,,,,,,,,,,,30,,,,,,,,949.4120352002792,949.4120352002792,949.4120352002792,949.4120352002792,949.4120352002792,down,0.24269020045176148,3,1,0,99,0,-0.24,down,0.16483599971979856,,,,,,,,,,,,,,,,,,,,,,,,,,,,,,,,,,,,,,,,,,,,,,,,,,,,,,,,,,,,AMJ0GC,train_y,blue_star,top_left,2025-04-28_17h18.37.258,HideSeek_v1,2022.2.5,59.98242500168517,
,2,5,2,0,0,-5,66,,train_dim1_1,20,30,,,,2,0,2,0,,,,,,,,,0,0,0,0,0,19,19,19,3,0,3,0,,,,,,,,,,,,,,,,,,,,,,,,,,,,,,,,,,,,,,,,,,,,,,,,,,,,,,,,,,,,,,,,30,,,,,,,,949.6608253000304,949.6608253000304,949.6608253000304,949.6608253000304,949.6608253000304,down,0.6098843002691865,3,1,0,99,0,-0.32,down,0.5276410998776555,,,,,,,,,,,,,,,,,,,,,,,,,,,,,,,,,,,,,,,,,,,,,,,,,,,,,,,,,,,,AMJ0GC,train_y,blue_star,top_left,2025-04-28_17h18.37.258,HideSeek_v1,2022.2.5,59.98242500168517,
,2,5,2,0,0,-5,66,,train_dim1_1,20,30,,,,2,0,2,0,,,,,,,,,0,0,0,0,0,19,19,19,4,0,4,0,,,,,,,,,,,,,,,,,,,,,,,,,,,,,,,,,,,,,,,,,,,,,,,,,,,,,,,,,,,,,,,,30,,,,,,,,950.2785750003532,950.2785750003532,950.2785750003532,950.2785750003532,950.2785750003532,return,0.2767753000371158,3,1,0,0,0,-0.32,return,0.19382219994440675,-43,4,0,-0.32,,,,,,,,,,,,,,,,,,,,,,,,,,,,,,,,,,,,,,,,,,,,,,,,,,,,,,,,AMJ0GC,train_y,blue_star,top_left,2025-04-28_17h18.37.258,HideSeek_v1,2022.2.5,59.98242500168517,
,2,9,2,5,0,-4,65,,train_dim1_1,21,30,,,,2,0,2,0,,,,,,,,,0,0,0,0,0,20,20,20,0,0,0,0,,,,,,,,,,,,,,,,,,,,,,,,,stimuli/alien_stimuli/65.png,,,,,,,,,,,,,,,,,,,,,,,,,,,,,stimuli/alien_stimuli/66.png,66,2,22,,,,,,,30,,,,,,,,956.0365677000955,956.0365677000955,956.0365677000955,956.0365677000955,956.0365677000955,down,0.6901541003026068,3,1,0,99,0,0.24,down,0.6071489998139441,,,,,954.4858462000266,956.0365677000955,0,-0.4,0.4,0.0,-0.2,0,0.0,0,-0.4,952.1224266001955,952.1224266001955,952.1224266001955,952.1224266001955,952.1224266001955,952.1224266001955,952.1224266001955,952.1224266001955,952.1173082801513,2.471026800107211,return,2.3465875000692904,,,,,,,,,,,,,,,,,,,,,,,,,,,,,,,,,AMJ0GC,train_y,blue_star,top_left,2025-04-28_17h18.37.258,HideSeek_v1,2022.2.5,59.98242500168517,
,2,9,2,5,0,-4,65,,train_dim1_1,21,30,,,,2,0,2,0,,,,,,,,,0,0,0,0,0,20,20,20,1,0,1,0,,,,,,,,,,,,,,,,,,,,,,,,,,,,,,,,,,,,,,,,,,,,,,,,,,,,,,,,,,,,,,,,30,,,,,,,,956.7345233000815,956.7345233000815,956.7345233000815,956.7345233000815,956.7345233000815,down,0.34307790035381913,3,1,0,99,0,0.15999999999999998,down,0.2658518999814987,,,,,,,,,,,,,,,,,,,,,,,,,,,,,,,,,,,,,,,,,,,,,,,,,,,,,,,,,,,,AMJ0GC,train_y,blue_star,top_left,2025-04-28_17h18.37.258,HideSeek_v1,2022.2.5,59.98242500168517,
,2,9,2,5,0,-4,65,,train_dim1_1,21,30,,,,2,0,2,0,,,,,,,,,0,0,0,0,0,20,20,20,2,0,2,0,,,,,,,,,,,,,,,,,,,,,,,,,,,,,,,,,,,,,,,,,,,,,,,,,,,,,,,,,,,,,,,,30,,,,,,,,957.0850272001699,957.0850272001699,957.0850272001699,957.0850272001699,957.0850272001699,down,0.42670320020988584,3,1,0,99,0,0.07999999999999997,down,0.3388502998277545,,,,,,,,,,,,,,,,,,,,,,,,,,,,,,,,,,,,,,,,,,,,,,,,,,,,,,,,,,,,AMJ0GC,train_y,blue_star,top_left,2025-04-28_17h18.37.258,HideSeek_v1,2022.2.5,59.98242500168517,
,2,9,2,5,0,-4,65,,train_dim1_1,21,30,,,,2,0,2,0,,,,,,,,,0,0,0,0,0,20,20,20,3,0,3,0,,,,,,,,,,,,,,,,,,,,,,,,,,,,,,,,,,,,,,,,,,,,,,,,,,,,,,,,,,,,,,,,30,,,,,,,,957.5184939000756,957.5184939000756,957.5184939000756,957.5184939000756,957.5184939000756,down,0.6936877998523414,3,1,0,99,0,-2.7755575615628914e-17,down,0.6194704999215901,,,,,,,,,,,,,,,,,,,,,,,,,,,,,,,,,,,,,,,,,,,,,,,,,,,,,,,,,,,,AMJ0GC,train_y,blue_star,top_left,2025-04-28_17h18.37.258,HideSeek_v1,2022.2.5,59.98242500168517,
,2,9,2,5,0,-4,65,,train_dim1_1,21,30,,,,2,0,2,0,,,,,,,,,0,0,0,0,0,20,20,20,4,0,4,0,,,,,,,,,,,,,,,,,,,,,,,,,,,,,,,,,,,,,,,,,,,,,,,,,,,,,,,,,,,,,,,,30,,,,,,,,958.2178484001197,958.2178484001197,958.2178484001197,958.2178484001197,958.2178484001197,down,0.4766525002196431,3,1,0,99,0,-0.08000000000000003,down,0.4002324999310076,,,,,,,,,,,,,,,,,,,,,,,,,,,,,,,,,,,,,,,,,,,,,,,,,,,,,,,,,,,,AMJ0GC,train_y,blue_star,top_left,2025-04-28_17h18.37.258,HideSeek_v1,2022.2.5,59.98242500168517,
,2,9,2,5,0,-4,65,,train_dim1_1,21,30,,,,2,0,2,0,,,,,,,,,0,0,0,0,0,20,20,20,5,0,5,0,,,,,,,,,,,,,,,,,,,,,,,,,,,,,,,,,,,,,,,,,,,,,,,,,,,,,,,,,,,,,,,,30,,,,,,,,958.7020936002955,958.7020936002955,958.7020936002955,958.7020936002955,958.7020936002955,return,5.180708499625325,3,1,0,0,0,-0.08000000000000003,return,5.105783000122756,-48,4,0,-0.08000000000000003,,,,,,,,,,,,,,,,,,,,,,,,,,,,,,,,,,,,,,,,,,,,,,,,,,,,,,,,AMJ0GC,train_y,blue_star,top_left,2025-04-28_17h18.37.258,HideSeek_v1,2022.2.5,59.98242500168517,
,0,7,0,4,0,-3,64,,train_dim1_1,22,30,,,,2,0,2,0,,,,,,,,,0,0,0,0,0,21,21,21,0,0,0,0,,,,,,,,,,,,,,,,,,,,,,,,,stimuli/alien_stimuli/64.png,,,,,,,,,,,,,,,,,,,,,,,,,,,,,stimuli/alien_stimuli/65.png,65,2,23,,,,,,,30,,,,,,,,968.5145478001796,968.5145478001796,968.5145478001796,968.5145478001796,968.5145478001796,right,2.1075137997977436,3,1,0,99,-0.08,0.16,right,2.030758500099182,,,,,966.9629447003826,968.5145478001796,0,0,0.32,0.0,0.16,0,0.0,0,0,965.4494801000692,965.4494801000692,965.4494801000692,965.4494801000692,965.4494801000692,965.4494801000692,965.4494801000692,965.4494801000692,965.4448248801752,1.620309800375253,return,1.4945591003634036,,,,,,,,,,,,,,,,,,,,,,,,,,,,,,,,,AMJ0GC,train_y,blue_star,top_left,2025-04-28_17h18.37.258,HideSeek_v1,2022.2.5,59.98242500168517,
,0,7,0,4,0,-3,64,,train_dim1_1,22,30,,,,2,0,2,0,,,,,,,,,0,0,0,0,0,21,21,21,1,0,1,0,,,,,,,,,,,,,,,,,,,,,,,,,,,,,,,,,,,,,,,,,,,,,,,,,,,,,,,,,,,,,,,,30,,,,,,,,970.6302460003644,970.6302460003644,970.6302460003644,970.6302460003644,970.6302460003644,right,0.3261330001987517,3,1,0,99,0.0,0.16,right,0.24770249985158443,,,,,,,,,,,,,,,,,,,,,,,,,,,,,,,,,,,,,,,,,,,,,,,,,,,,,,,,,,,,AMJ0GC,train_y,blue_star,top_left,2025-04-28_17h18.37.258,HideSeek_v1,2022.2.5,59.98242500168517,
,0,7,0,4,0,-3,64,,train_dim1_1,22,30,,,,2,0,2,0,,,,,,,,,0,0,0,0,0,21,21,21,2,0,2,0,,,,,,,,,,,,,,,,,,,,,,,,,,,,,,,,,,,,,,,,,,,,,,,,,,,,,,,,,,,,,,,,30,,,,,,,,970.9627705002204,970.9627705002204,970.9627705002204,970.9627705002204,970.9627705002204,right,0.30981509992852807,3,1,0,99,0.08,0.16,right,0.2287386003881693,,,,,,,,,,,,,,,,,,,,,,,,,,,,,,,,,,,,,,,,,,,,,,,,,,,,,,,,,,,,AMJ0GC,train_y,blue_star,top_left,2025-04-28_17h18.37.258,HideSeek_v1,2022.2.5,59.98242500168517,
,0,7,0,4,0,-3,64,,train_dim1_1,22,30,,,,2,0,2,0,,,,,,,,,0,0,0,0,0,21,21,21,3,0,3,0,,,,,,,,,,,,,,,,,,,,,,,,,,,,,,,,,,,,,,,,,,,,,,,,,,,,,,,,,,,,,,,,30,,,,,,,,971.2790397000499,971.2790397000499,971.2790397000499,971.2790397000499,971.2790397000499,right,0.8605017997324467,3,1,0,99,0.16,0.16,right,0.7790259001776576,,,,,,,,,,,,,,,,,,,,,,,,,,,,,,,,,,,,,,,,,,,,,,,,,,,,,,,,,,,,AMJ0GC,train_y,blue_star,top_left,2025-04-28_17h18.37.258,HideSeek_v1,2022.2.5,59.98242500168517,
,0,7,0,4,0,-3,64,,train_dim1_1,22,30,,,,2,0,2,0,,,,,,,,,0,0,0,0,0,21,21,21,4,0,4,0,,,,,,,,,,,,,,,,,,,,,,,,,,,,,,,,,,,,,,,,,,,,,,,,,,,,,,,,,,,,,,,,30,,,,,,,,972.1462564002723,972.1462564002723,972.1462564002723,972.1462564002723,972.1462564002723,return,0.4599937000311911,3,0,0,0,0.16,0.16,return,0.3778074001893401,-48,8,0.16,0.16,,,,,,,,,,,,,,,,,,,,,,,,,,,,,,,,,,,,,,,,,,,,,,,,,,,,,,,,AMJ0GC,train_y,blue_star,top_left,2025-04-28_17h18.37.258,HideSeek_v1,2022.2.5,59.98242500168517,
,0,8,0,8,0,0,61,,train_dim1_1,23,30,,,,2,0,2,0,,,,,,,,,0,0,0,0,0,22,22,22,0,0,0,0,,,,,,,,,,,,,,,,,,,,,,,,,stimuli/alien_stimuli/61.png,,,,,,,,,,,,,,,,,,,,,,,,,,,,,stimuli/alien_stimuli/64.png,64,0,24,,,,,,,30,,,,,,,,977.7901918003336,977.7901918003336,977.7901918003336,977.7901918003336,977.7901918003336,down,0.855067899916321,3,0,0,99,-0.16,0.15999999999999998,down,0.7720749997533858,,,,,976.2372896000743,977.7901918003336,-0.16,-0.08,0.24,0.0,0.04,-0.16,-0.16,-0.16,-0.08,974.1560181002133,974.1560181002133,974.1560181002133,974.1560181002133,974.1560181002133,974.1560181002133,974.1560181002133,974.1560181002133,974.1522094403393,2.1708117998205125,return,2.051083200145513,,,,,,,,,,,,,,,,,,,,,,,,,,,,,,,,,AMJ0GC,train_y,blue_star,top_left,2025-04-28_17h18.37.258,HideSeek_v1,2022.2.5,59.98242500168517,
,0,8,0,8,0,0,61,,train_dim1_1,23,30,,,,2,0,2,0,,,,,,,,,0,0,0,0,0,22,22,22,1,0,1,0,,,,,,,,,,,,,,,,,,,,,,,,,,,,,,,,,,,,,,,,,,,,,,,,,,,,,,,,,,,,,,,,30,,,,,,,,978.6520342002623,978.6520342002623,978.6520342002623,978.6520342002623,978.6520342002623,up,1.610721199773252,3,0,0,99,-0.16,0.24,up,1.5253074998036027,,,,,,,,,,,,,,,,,,,,,,,,,,,,,,,,,,,,,,,,,,,,,,,,,,,,,,,,,,,,AMJ0GC,train_y,blue_star,top_left,2025-04-28_17h18.37.258,HideSeek_v1,2022.2.5,59.98242500168517,
,0,8,0,8,0,0,61,,train_dim1_1,23,30,,,,2,0,2,0,,,,,,,,,0,0,0,0,0,22,22,22,2,0,2,0,,,,,,,,,,,,,,,,,,,,,,,,,,,,,,,,,,,,,,,,,,,,,,,,,,,,,,,,,,,,,,,,30,,,,,,,,980.2719631004147,980.2719631004147,980.2719631004147,980.2719631004147,980.2719631004147,return,0.7770282002165914,4,0,0,1,-0.16,0.24,return,0.6886062999255955,-48,8,-0.16,0.24,,,,,,,,,,,,,,,,,,,,,,,,,,,,,,,,,,,,,,,,,,,,,,,,,,,,,,,,AMJ0GC,train_y,blue_star,top_left,2025-04-28_17h18.37.258,HideSeek_v1,2022.2.5,59.98242500168517,
,3,7,3,2,0,-5,66,,train_dim1_1,24,30,,,,2,0,2,0,,,,,,,,,0,0,0,0,0,23,23,23,0,0,0,0,,,,,,,,,,,,,,,,,,,,,,,,,stimuli/alien_stimuli/66.png,,,,,,,,,,,,,,,,,,,,,,,,,,,,,stimuli/alien_stimuli/61.png,61,0,25,,,,,,,30,,,,,,,,985.5163184003904,985.5163184003904,985.5163184003904,985.5163184003904,985.5163184003904,return,1.052358000073582,4,0,0,0,0.08,0.16,return,0.9727839999832213,-48,8,0.08,0.16,983.9602106004022,985.5163184003904,-0.16,0.24,0.0,0.0,0.24,-0.16,-0.16,-0.16,0.24,982.619048899971,982.619048899971,982.619048899971,982.619048899971,982.619048899971,982.619048899971,982.619048899971,982.619048899971,982.6092400799505,1.4534227000549436,return,1.3121082000434399,,,,,,,,,,,,,,,,,,,,,,,,,,,,,,,,,AMJ0GC,train_y,blue_star,top_left,2025-04-28_17h18.37.258,HideSeek_v1,2022.2.5,59.98242500168517,
,3,8,3,7,0,-1,62,,train_dim1_1,25,30,,,,2,0,2,0,,,,,,,,,0,0,0,0,0,24,24,24,0,0,0,0,,,,,,,,,,,,,,,,,,,,,,,,,stimuli/alien_stimuli/62.png,,,,,,,,,,,,,,,,,,,,,,,,,,,,,stimuli/alien_stimuli/66.png,66,3,26,,,,,,,30,,,,,,,,990.6884739999659,990.6884739999659,990.6884739999659,990.6884739999659,990.6884739999659,down,0.7678805999457836,4,0,0,99,0.08,0.15999999999999998,down,0.68465769989416,,,,,989.1312448000535,990.6884739999659,0.08,-0.24,0.4,0.0,-0.039999999999999994,0.08,0.08,0.08,-0.24,988.1192653002217,988.1192653002217,988.1192653002217,988.1192653002217,988.1192653002217,988.1192653002217,988.1192653002217,988.1192653002217,988.1138163400814,1.1033547003753483,return,0.9907593000680208,,,,,,,,,,,,,,,,,,,,,,,,,,,,,,,,,AMJ0GC,train_y,blue_star,top_left,2025-04-28_17h18.37.258,HideSeek_v1,2022.2.5,59.98242500168517,
,3,8,3,7,0,-1,62,,train_dim1_1,25,30,,,,2,0,2,0,,,,,,,,,0,0,0,0,0,24,24,24,1,0,1,0,,,,,,,,,,,,,,,,,,,,,,,,,,,,,,,,,,,,,,,,,,,,,,,,,,,,,,,,,,,,,,,,30,,,,,,,,991.4631724003702,991.4631724003702,991.4631724003702,991.4631724003702,991.4631724003702,down,0.3093467000871897,4,0,0,99,0.08,0.07999999999999997,down,0.22900159982964396,,,,,,,,,,,,,,,,,,,,,,,,,,,,,,,,,,,,,,,,,,,,,,,,,,,,,,,,,,,,AMJ0GC,train_y,blue_star,top_left,2025-04-28_17h18.37.258,HideSeek_v1,2022.2.5,59.98242500168517,
,3,8,3,7,0,-1,62,,train_dim1_1,25,30,,,,2,0,2,0,,,,,,,,,0,0,0,0,0,24,24,24,2,0,2,0,,,,,,,,,,,,,,,,,,,,,,,,,,,,,,,,,,,,,,,,,,,,,,,,,,,,,,,,,,,,,,,,30,,,,,,,,991.779982900247,991.779982900247,991.779982900247,991.779982900247,991.779982900247,up,1.3776459000073373,4,0,0,99,0.08,0.15999999999999998,up,1.3004529997706413,,,,,,,,,,,,,,,,,,,,,,,,,,,,,,,,,,,,,,,,,,,,,,,,,,,,,,,,,,,,AMJ0GC,train_y,blue_star,top_left,2025-04-28_17h18.37.258,HideSeek_v1,2022.2.5,59.98242500168517,
,3,8,3,7,0,-1,62,,train_dim1_1,25,30,,,,2,0,2,0,,,,,,,,,0,0,0,0,0,24,24,24,3,0,3,0,,,,,,,,,,,,,,,,,,,,,,,,,,,,,,,,,,,,,,,,,,,,,,,,,,,,,,,,,,,,,,,,30,,,,,,,,993.1643830002286,993.1643830002286,993.1643830002286,993.1643830002286,993.1643830002286,up,0.34354270016774535,4,0,0,99,0.08,0.24,up,0.25785980001091957,,,,,,,,,,,,,,,,,,,,,,,,,,,,,,,,,,,,,,,,,,,,,,,,,,,,,,,,,,,,AMJ0GC,train_y,blue_star,top_left,2025-04-28_17h18.37.258,HideSeek_v1,2022.2.5,59.98242500168517,
,3,8,3,7,0,-1,62,,train_dim1_1,25,30,,,,2,0,2,0,,,,,,,,,0,0,0,0,0,24,24,24,4,0,4,0,,,,,,,,,,,,,,,,,,,,,,,,,,,,,,,,,,,,,,,,,,,,,,,,,,,,,,,,,,,,,,,,30,,,,,,,,993.5153267001733,993.5153267001733,993.5153267001733,993.5153267001733,993.5153267001733,down,0.8935753996483982,4,0,0,99,0.08,0.15999999999999998,down,0.8136247997172177,,,,,,,,,,,,,,,,,,,,,,,,,,,,,,,,,,,,,,,,,,,,,,,,,,,,,,,,,,,,AMJ0GC,train_y,blue_star,top_left,2025-04-28_17h18.37.258,HideSeek_v1,2022.2.5,59.98242500168517,
,3,8,3,7,0,-1,62,,train_dim1_1,25,30,,,,2,0,2,0,,,,,,,,,0,0,0,0,0,24,24,24,5,0,5,0,,,,,,,,,,,,,,,,,,,,,,,,,,,,,,,,,,,,,,,,,,,,,,,,,,,,,,,,,,,,,,,,30,,,,,,,,994.4160726000555,994.4160726000555,994.4160726000555,994.4160726000555,994.4160726000555,return,0.3601509998552501,5,0,0,1,0.08,0.15999999999999998,return,0.28561769984662533,-49,8,0.08,0.15999999999999998,,,,,,,,,,,,,,,,,,,,,,,,,,,,,,,,,,,,,,,,,,,,,,,,,,,,,,,,AMJ0GC,train_y,blue_star,top_left,2025-04-28_17h18.37.258,HideSeek_v1,2022.2.5,59.98242500168517,
,4,9,4,6,0,-3,64,,train_dim1_1,26,30,,,,2,0,2,0,,,,,,,,,0,0,0,0,0,25,25,25,0,0,0,0,,,,,,,,,,,,,,,,,,,,,,,,,stimuli/alien_stimuli/64.png,,,,,,,,,,,,,,,,,,,,,,,,,,,,,stimuli/alien_stimuli/62.png,62,3,27,,,,,,,30,,,,,,,,998.9222838999704,998.9222838999704,998.9222838999704,998.9222838999704,998.9222838999704,down,0.5231802999041975,5,0,0,99,0.16,0.24,down,0.44636290008202195,,,,,997.3714874000289,998.9222838999704,0.08,0.16,0.08,0.0,0.2,0.08,0.08,0.08,0.16,996.3269248004071,996.3269248004071,996.3269248004071,996.3269248004071,996.3269248004071,996.3269248004071,996.3269248004071,996.3269248004071,996.3207948399707,1.1364162997342646,return,1.0257365996949375,,,,,,,,,,,,,,,,,,,,,,,,,,,,,,,,,AMJ0GC,train_y,blue_star,top_left,2025-04-28_17h18.37.258,HideSeek_v1,2022.2.5,59.98242500168517,
,4,9,4,6,0,-3,64,,train_dim1_1,26,30,,,,2,0,2,0,,,,,,,,,0,0,0,0,0,25,25,25,1,0,1,0,,,,,,,,,,,,,,,,,,,,,,,,,,,,,,,,,,,,,,,,,,,,,,,,,,,,,,,,,,,,,,,,30,,,,,,,,999.4526459001936,999.4526459001936,999.4526459001936,999.4526459001936,999.4526459001936,down,0.7095869998447597,5,0,0,99,0.16,0.15999999999999998,down,0.6376184998080134,,,,,,,,,,,,,,,,,,,,,,,,,,,,,,,,,,,,,,,,,,,,,,,,,,,,,,,,,,,,AMJ0GC,train_y,blue_star,top_left,2025-04-28_17h18.37.258,HideSeek_v1,2022.2.5,59.98242500168517,
,4,9,4,6,0,-3,64,,train_dim1_1,26,30,,,,2,0,2,0,,,,,,,,,0,0,0,0,0,25,25,25,2,0,2,0,,,,,,,,,,,,,,,,,,,,,,,,,,,,,,,,,,,,,,,,,,,,,,,,,,,,,,,,,,,,,,,,30,,,,,,,,1000.1700632004067,1000.1700632004067,1000.1700632004067,1000.1700632004067,1000.1700632004067,down,0.24328979989513755,5,0,0,99,0.16,0.07999999999999997,down,0.16902709985151887,,,,,,,,,,,,,,,,,,,,,,,,,,,,,,,,,,,,,,,,,,,,,,,,,,,,,,,,,,,,AMJ0GC,train_y,blue_star,top_left,2025-04-28_17h18.37.258,HideSeek_v1,2022.2.5,59.98242500168517,
,4,9,4,6,0,-3,64,,train_dim1_1,26,30,,,,2,0,2,0,,,,,,,,,0,0,0,0,0,25,25,25,3,0,3,0,,,,,,,,,,,,,,,,,,,,,,,,,,,,,,,,,,,,,,,,,,,,,,,,,,,,,,,,,,,,,,,,30,,,,,,,,1000.4192747003399,1000.4192747003399,1000.4192747003399,1000.4192747003399,1000.4192747003399,return,0.7437177998945117,6,0,0,1,0.16,0.07999999999999997,return,0.6697678002528846,-52,8,0.16,0.07999999999999997,,,,,,,,,,,,,,,,,,,,,,,,,,,,,,,,,,,,,,,,,,,,,,,,,,,,,,,,AMJ0GC,train_y,blue_star,top_left,2025-04-28_17h18.37.258,HideSeek_v1,2022.2.5,59.98242500168517,
,3,9,3,4,0,-5,66,,train_dim1_1,27,30,,,,2,0,2,0,,,,,,,,,0,0,0,0,0,26,26,26,0,0,0,0,,,,,,,,,,,,,,,,,,,,,,,,,stimuli/alien_stimuli/66.png,,,,,,,,,,,,,,,,,,,,,,,,,,,,,stimuli/alien_stimuli/64.png,64,4,28,,,,,,,30,,,,,,,,1005.396156300325,1005.396156300325,1005.396156300325,1005.396156300325,1005.396156300325,down,0.47240350022912025,6,0,0,99,0.08,0.24,down,0.3928171000443399,,,,,1003.8435460999608,1005.396156300325,0.16,0.08,0.24,0.0,0.2,0.16,0.16,0.16,0.08,1002.7147502000444,1002.7147502000444,1002.7147502000444,1002.7147502000444,1002.7147502000444,1002.7147502000444,1002.7147502000444,1002.7147502000444,1002.7092968403362,1.219899999909103,return,1.1082756998948753,,,,,,,,,,,,,,,,,,,,,,,,,,,,,,,,,AMJ0GC,train_y,blue_star,top_left,2025-04-28_17h18.37.258,HideSeek_v1,2022.2.5,59.98242500168517,
,3,9,3,4,0,-5,66,,train_dim1_1,27,30,,,,2,0,2,0,,,,,,,,,0,0,0,0,0,26,26,26,1,0,1,0,,,,,,,,,,,,,,,,,,,,,,,,,,,,,,,,,,,,,,,,,,,,,,,,,,,,,,,,,,,,,,,,30,,,,,,,,1005.8751121000387,1005.8751121000387,1005.8751121000387,1005.8751121000387,1005.8751121000387,down,0.793363300152123,6,0,0,99,0.08,0.15999999999999998,down,0.7217779997736216,,,,,,,,,,,,,,,,,,,,,,,,,,,,,,,,,,,,,,,,,,,,,,,,,,,,,,,,,,,,AMJ0GC,train_y,blue_star,top_left,2025-04-28_17h18.37.258,HideSeek_v1,2022.2.5,59.98242500168517,
,3,9,3,4,0,-5,66,,train_dim1_1,27,30,,,,2,0,2,0,,,,,,,,,0,0,0,0,0,26,26,26,2,0,2,0,,,,,,,,,,,,,,,,,,,,,,,,,,,,,,,,,,,,,,,,,,,,,,,,,,,,,,,,,,,,,,,,30,,,,,,,,1006.6759296003729,1006.6759296003729,1006.6759296003729,1006.6759296003729,1006.6759296003729,down,0.2594655002467334,6,0,0,99,0.08,0.07999999999999997,down,0.18796979961916804,,,,,,,,,,,,,,,,,,,,,,,,,,,,,,,,,,,,,,,,,,,,,,,,,,,,,,,,,,,,AMJ0GC,train_y,blue_star,top_left,2025-04-28_17h18.37.258,HideSeek_v1,2022.2.5,59.98242500168517,
,3,9,3,4,0,-5,66,,train_dim1_1,27,30,,,,2,0,2,0,,,,,,,,,0,0,0,0,0,26,26,26,3,0,3,0,,,,,,,,,,,,,,,,,,,,,,,,,,,,,,,,,,,,,,,,,,,,,,,,,,,,,,,,,,,,,,,,30,,,,,,,,1006.9430529000238,1006.9430529000238,1006.9430529000238,1006.9430529000238,1006.9430529000238,down,0.3599775000475347,6,0,0,99,0.08,-2.7755575615628914e-17,down,0.2821106999181211,,,,,,,,,,,,,,,,,,,,,,,,,,,,,,,,,,,,,,,,,,,,,,,,,,,,,,,,,,,,AMJ0GC,train_y,blue_star,top_left,2025-04-28_17h18.37.258,HideSeek_v1,2022.2.5,59.98242500168517,
,3,9,3,4,0,-5,66,,train_dim1_1,27,30,,,,2,0,2,0,,,,,,,,,0,0,0,0,0,26,26,26,4,0,4,0,,,,,,,,,,,,,,,,,,,,,,,,,,,,,,,,,,,,,,,,,,,,,,,,,,,,,,,,,,,,,,,,30,,,,,,,,1007.3103403002024,1007.3103403002024,1007.3103403002024,1007.3103403002024,1007.3103403002024,return,0.26005589962005615,6,1,0,0,0.08,-2.7755575615628914e-17,return,0.18080099998041987,-56,8,0.08,-2.7755575615628914e-17,,,,,,,,,,,,,,,,,,,,,,,,,,,,,,,,,,,,,,,,,,,,,,,,,,,,,,,,AMJ0GC,train_y,blue_star,top_left,2025-04-28_17h18.37.258,HideSeek_v1,2022.2.5,59.98242500168517,
,4,6,4,6,0,0,61,,train_dim1_1,28,30,,,,2,0,2,0,,,,,,,,,0,0,0,0,0,27,27,27,0,0,0,0,,,,,,,,,,,,,,,,,,,,,,,,,stimuli/alien_stimuli/61.png,,,,,,,,,,,,,,,,,,,,,,,,,,,,,stimuli/alien_stimuli/66.png,66,3,29,,,,,,,30,,,,,,,,1011.4363041003235,1011.4363041003235,1011.4363041003235,1011.4363041003235,1011.4363041003235,down,1.755619200412184,6,1,0,99,0.16,0.0,down,1.678230999968946,,,,,1009.8819913002662,1011.4363041003235,0.08,-0.08,0.4,0.0,0.12,0.08,0.08,0.08,-0.08,1009.1184023004025,1009.1184023004025,1009.1184023004025,1009.1184023004025,1009.1184023004025,1009.1184023004025,1009.1184023004025,1009.1184023004025,1009.1145579401403,0.8530894997529685,return,0.7377336001954973,,,,,,,,,,,,,,,,,,,,,,,,,,,,,,,,,AMJ0GC,train_y,blue_star,top_left,2025-04-28_17h18.37.258,HideSeek_v1,2022.2.5,59.98242500168517,
,4,6,4,6,0,0,61,,train_dim1_1,28,30,,,,2,0,2,0,,,,,,,,,0,0,0,0,0,27,27,27,1,0,1,0,,,,,,,,,,,,,,,,,,,,,,,,,,,,,,,,,,,,,,,,,,,,,,,,,,,,,,,,,,,,,,,,30,,,,,,,,1013.2063242001459,1013.2063242001459,1013.2063242001459,1013.2063242001459,1013.2063242001459,return,0.9036810002289712,6,1,0,0,0.16,0.0,return,0.828787500038743,-57,8,0.16,0.0,,,,,,,,,,,,,,,,,,,,,,,,,,,,,,,,,,,,,,,,,,,,,,,,,,,,,,,,AMJ0GC,train_y,blue_star,top_left,2025-04-28_17h18.37.258,HideSeek_v1,2022.2.5,59.98242500168517,
,2,7,2,6,0,-1,62,,train_dim1_1,29,30,,,,2,0,2,0,,,,,,,,,0,0,0,0,0,28,28,28,0,0,0,0,,,,,,,,,,,,,,,,,,,,,,,,,stimuli/alien_stimuli/62.png,,,,,,,,,,,,,,,,,,,,,,,,,,,,,stimuli/alien_stimuli/61.png,61,4,30,,,,,,,30,,,,,,,,1019.3069899003021,1019.3069899003021,1019.3069899003021,1019.3069899003021,1019.3069899003021,return,2.124075800180435,6,1,0,0,0,0.16,return,2.037224200088531,-57,8,0,0.16,1017.7550606001168,1019.3069899003021,0.16,0.08,0.0,0.0,0.08,0.16,0.16,0.16,0.08,1015.6576366000809,1015.6576366000809,1015.6576366000809,1015.6576366000809,1015.6576366000809,1015.6576366000809,1015.6576366000809,1015.6576366000809,1015.6534118401818,2.187163900118321,return,2.0791932996362448,,,,,,,,,,,,,,,,,,,,,,,,,,,,,,,,,AMJ0GC,train_y,blue_star,top_left,2025-04-28_17h18.37.258,HideSeek_v1,2022.2.5,59.98242500168517,
,0,6,0,2,0,-4,65,,train_dim1_1,30,30,,,,2,0,2,0,,,,,,,,,0,0,0,0,0,29,29,29,0,0,0,0,,,,,,,,,,,,,,,,,,,,,,,,,stimuli/alien_stimuli/65.png,,,,,,,,,,,,,,,,,,,,,,,,,,,,,stimuli/alien_stimuli/62.png,62,2,31,,,,,,,30,,,,,,,,1025.577812500298,1025.577812500298,1025.577812500298,1025.577812500298,1025.577812500298,return,1.1903841001912951,6,0,0,0,-0.16,0.08,return,1.1044283001683652,-57,8,-0.16,0.08,1024.0269818999805,1025.577812500298,0,0.08,0.08,0.0,0.12,0,0.0,0,0.08,1022.9815889000893,1022.9815889000893,1022.9815889000893,1022.9815889000893,1022.9815889000893,1022.9815889000893,1022.9815889000893,1022.9815889000893,1022.9759314401075,1.1365525000728667,return,1.0202146996743977,,,,,,,,,,,,,,,,,,,,,,,,,,,,,,,,,AMJ0GC,train_y,blue_star,top_left,2025-04-28_17h18.37.258,HideSeek_v1,2022.2.5,59.98242500168517,
,,,,,,,,,,,30,,,,2,0,2,0,,,,,,,,,,,,,,,,,,,,,,,,,,,,,,,,,,,,,,,,,,,,,,,,,,,,,,,,,,,,,,,,,,,,,,,,,,stimuli/alien_stimuli/65.png,65,0,32,21,0.7,0.25,1,1,1,30,0,conditions/schedules/train_y_first/blue_star_00/top_left/inputTrain_2.1.xlsx,99,1,2,1,0,,,,,,,,,,,0,,,,,,,,,1028.7811331003904,1030.338743600063,-0.16,-0.24,0.32,0.0,-0.07999999999999999,-0.16,-0.16,-0.16,-0.24,1028.3214467000216,1028.3214467000216,1028.3214467000216,1028.3214467000216,1028.3214467000216,1028.3214467000216,1028.3214467000216,1028.3214467000216,1028.314021340199,0.5527468998916447,return,0.43205250008031726,0,0.9,0,1,6,,,,,,,,,,,,,,,,,,,,,,,,,,,,AMJ0GC,train_y,blue_star,top_left,2025-04-28_17h18.37.258,HideSeek_v1,2022.2.5,59.98242500168517,
,,,,,,,,,,,,,,,3,0,3,0,0,0,0,0,,,,,,,,,,,,,,,,,,,,,,,,,,,,,,,conditions/schedules/train_y_first/blue_star_00/top_left/instructions/Slide17.png,conditions/schedules/train_y_first/blue_star_00/top_left/instructions/Audio17.wav,1030.338743600063,1030.3322515603156,17,"[5.846656899899244, 25.039039500057697, 16.470041900407523, 19.387106699869037, 4.390013299882412, 4.8690007999539375, 5.162625799886882, 11.440244699828327, 5.825150799937546, 6.891030699945986, 10.185991799924523, 14.005351800005883, 57.1626663999632, 17.139911899808794, 43.21023249998689, 21.94734869990498, 47.496882299892604]","[0.00021769991144537926, 25.039045999757946, 0.014189899899065495, 0.0535698002204299, 0.09844959992915392, 0.06201699981465936, 0.09753580018877983, 0.05381439998745918, 0.035383500158786774, 0.047177799977362156, 0.07923859963193536, 14.005359299946576, 57.1626737001352, 17.139918999746442, 0.0788667001761496, 21.94735540030524, 47.49688949994743]",0,,,,,,,,,,,,,,,,,,,,,,,,,,,,,,,,,,,,,,,,,,,,,,,,,,,,,,,,,,,,,,,,,,,,,,,,,,,,,,,,,,,,,,,,,,,,,,,,,,,,,,,,,,,,,,,,,,,,,,,,,,,,AMJ0GC,train_y,blue_star,top_left,2025-04-28_17h18.37.258,HideSeek_v1,2022.2.5,59.98242500168517,
,,,,,,,,,,,,,,,3,0,3,0,1,0,1,0,,,,,,,,,,,,,,,,,,,,,,,,,,,,,,,conditions/schedules/train_y_first/blue_star_00/top_left/instructions/Slide18.png,conditions/schedules/train_y_first/blue_star_00/top_left/instructions/Audio18.wav,1077.9005204001442,1077.8884893603624,18,"[5.846656899899244, 25.039039500057697, 16.470041900407523, 19.387106699869037, 4.390013299882412, 4.8690007999539375, 5.162625799886882, 11.440244699828327, 5.825150799937546, 6.891030699945986, 10.185991799924523, 14.005351800005883, 57.1626663999632, 17.139911899808794, 43.21023249998689, 21.94734869990498, 47.496882299892604, 6.85790630010888]","[0.00021769991144537926, 25.039045999757946, 0.014189899899065495, 0.0535698002204299, 0.09844959992915392, 0.06201699981465936, 0.09753580018877983, 0.05381439998745918, 0.035383500158786774, 0.047177799977362156, 0.07923859963193536, 14.005359299946576, 57.1626737001352, 17.139918999746442, 0.0788667001761496, 21.94735540030524, 0.035365600138902664, 6.857912499923259]",0,,,,,,,,,,,,,,,,,,,,,,,,,,,,,,,,,,,,,,,,,,,,,,,,,,,,,,,,,,,,,,,,,,,,,,,,,,,,,,,,,,,,,,,,,,,,,,,,,,,,,,,,,,,,,,,,,,,,,,,,,,,,AMJ0GC,train_y,blue_star,top_left,2025-04-28_17h18.37.258,HideSeek_v1,2022.2.5,59.98242500168517,
,,,,,,,,,,,,,,,3,0,3,0,2,0,2,0,,,,,,,,,,,,,,,,,,,,,,,,,,,,,,,conditions/schedules/train_y_first/blue_star_00/top_left/instructions/Slide19.png,conditions/schedules/train_y_first/blue_star_00/top_left/instructions/Audio19.wav,1084.813469500281,1084.8112128599548,19,"[5.846656899899244, 25.039039500057697, 16.470041900407523, 19.387106699869037, 4.390013299882412, 4.8690007999539375, 5.162625799886882, 11.440244699828327, 5.825150799937546, 6.891030699945986, 10.185991799924523, 14.005351800005883, 57.1626663999632, 17.139911899808794, 43.21023249998689, 21.94734869990498, 47.496882299892604, 6.85790630010888, 10.036872600205243]","[0.00021769991144537926, 25.039045999757946, 0.014189899899065495, 0.0535698002204299, 0.09844959992915392, 0.06201699981465936, 0.09753580018877983, 0.05381439998745918, 0.035383500158786774, 0.047177799977362156, 0.07923859963193536, 14.005359299946576, 57.1626737001352, 17.139918999746442, 0.0788667001761496, 21.94735540030524, 0.035365600138902664, 0.03074120031669736, 10.036879900377244]",0,,,,,,,,,,,,,,,,,,,,,,,,,,,,,,,,,,,,,,,,,,,,,,,,,,,,,,,,,,,,,,,,,,,,,,,,,,,,,,,,,,,,,,,,,,,,,,,,,,,,,,,,,,,,,,,,,,,,,,,,,,,,AMJ0GC,train_y,blue_star,top_left,2025-04-28_17h18.37.258,HideSeek_v1,2022.2.5,59.98242500168517,
,,,,,,,,,,,,,,,3,0,3,0,3,0,3,0,,,,,,,,,,,,,,,,,,,,,,,,,,,,,,,conditions/schedules/train_y_first/blue_star_00/top_left/instructions/Slide20.png,conditions/schedules/train_y_first/blue_star_00/top_left/instructions/Audio20.wav,1094.904162300285,1094.9026841599496,20,"[5.846656899899244, 25.039039500057697, 16.470041900407523, 19.387106699869037, 4.390013299882412, 4.8690007999539375, 5.162625799886882, 11.440244699828327, 5.825150799937546, 6.891030699945986, 10.185991799924523, 14.005351800005883, 57.1626663999632, 17.139911899808794, 43.21023249998689, 21.94734869990498, 47.496882299892604, 6.85790630010888, 10.036872600205243, 12.723243999760598]","[0.00021769991144537926, 25.039045999757946, 0.014189899899065495, 0.0535698002204299, 0.09844959992915392, 0.06201699981465936, 0.09753580018877983, 0.05381439998745918, 0.035383500158786774, 0.047177799977362156, 0.07923859963193536, 14.005359299946576, 57.1626737001352, 17.139918999746442, 0.0788667001761496, 21.94735540030524, 0.035365600138902664, 0.03074120031669736, 0.07921990007162094, 12.723250499926507]",0,,,,,,,,,,,,,,,,,,,,,,,,,,,,,,,,,,,,,,,,,,,,,,,,,,,,,,,,,,,,,,,,,,,,,,,,,,,,,,,,,,,,,,,,,,,,,,,,,,,,,,,,,,,,,,,,,,,,,,,,,,,,AMJ0GC,train_y,blue_star,top_left,2025-04-28_17h18.37.258,HideSeek_v1,2022.2.5,59.98242500168517,
1,4,5,9,5,5,0,11,2,instr_dim1_2,,,,,,3,0,3,0,,,,,0,0,0,0,,,,,,,,,,,,,,,,,,,,,,,,,,,,,,,,,,,,,stimuli/alien_stimuli/11.png,conditions/schedules/train_y_first/blue_star_00/top_left/inputInstr_2.xlsx,stimuli/alien_stimuli/11.png,1107.7291862000711,1107.7291862000711,1107.7291862000711,1107.7291862000711,1107.7299396802673,return,11.162655200343579,"[-0.16, -0.08, 0, 0.08, 0.16, 0.24, 0.32, 0.4, 0.48, 0.56]","[-0.4, -0.32, -0.24, -0.16, -0.08, 0, 0.08, 0.16, 0.24, 0.32]",5,5,9,4,0.0,0.4,1119.0791989001445,1119.0791989001445,1119.0791989001445,1119.0791989001445,1119.0791989001445,1119.0791989001445,1119.0791989001445,1119.0725507000461,7.507246300112456,return,7.322173000313342,stimuli/alien_stimuli/11.png,11,4,1,,,,,,,,,,,,,,,,,,,,,,,,,,,,,,,,,,,,,,,,,,,,,,,,,,,,,,,,,,,,,,,,,,,,,,,,,,,,,,,,,,,,,,,,,AMJ0GC,train_y,blue_star,top_left,2025-04-28_17h18.37.258,HideSeek_v1,2022.2.5,59.98242500168517,
,,,,,,,,,,,30,,,,3,0,3,0,,,,,,,,,,,,,,,,,,,,,,,,,,,,,,,,,,,,,,,,,,,,,,,,,,,,,,,,,,,,,,,,,,,,,,,,,,,,,,21,0.7,0.25,1,99,2,30,0,conditions/schedules/train_y_first/blue_star_00/top_left/inputTrain_2.1.xlsx,99,1,2,1,0,,,,,,,,,,,,,,,,,,,,,,,,,,,,,,,,,,,,,,,,,,,,,,,,,,,,,,,,,,,,,,,,,,,,,,,,,,,AMJ0GC,train_y,blue_star,top_left,2025-04-28_17h18.37.258,HideSeek_v1,2022.2.5,59.98242500168517,
,,,,,,,,,,,,,,,4,0,4,0,0,0,0,0,,,,,,,,,,,,,,,,,,,,,,,,,,,,,,,conditions/schedules/train_y_first/blue_star_00/top_left/instructions/Slide21.png,conditions/schedules/train_y_first/blue_star_00/top_left/instructions/Audio21.wav,1126.563627500087,1126.562186560035,21,"[5.846656899899244, 25.039039500057697, 16.470041900407523, 19.387106699869037, 4.390013299882412, 4.8690007999539375, 5.162625799886882, 11.440244699828327, 5.825150799937546, 6.891030699945986, 10.185991799924523, 14.005351800005883, 57.1626663999632, 17.139911899808794, 43.21023249998689, 21.94734869990498, 47.496882299892604, 6.85790630010888, 10.036872600205243, 12.723243999760598, 12.807015500031412]","[0.00021769991144537926, 25.039045999757946, 0.014189899899065495, 0.0535698002204299, 0.09844959992915392, 0.06201699981465936, 0.09753580018877983, 0.05381439998745918, 0.035383500158786774, 0.047177799977362156, 0.07923859963193536, 14.005359299946576, 57.1626737001352, 17.139918999746442, 0.0788667001761496, 21.94735540030524, 0.035365600138902664, 0.03074120031669736, 0.07921990007162094, 12.723250499926507, 12.807022999972105]",0,,,,,,,,,,,,,,,,,,,,,,,,,,,,,,,,,,,,,,,,,,,,,,,,,,,,,,,,,,,,,,,,,,,,,,,,,,,,,,,,,,,,,,,,,,,,,,,,,,,,,,,,,,,,,,,,,,,,,,,,,,,,AMJ0GC,train_y,blue_star,top_left,2025-04-28_17h18.37.258,HideSeek_v1,2022.2.5,59.98242500168517,
2,3,7,3,7,0,0,61,2,instr_dim1_2,,,,,,4,0,4,0,,,,,0,0,0,0,,,,,,,,,,,,,,,,,,,,,,,,,,,,,,,,,,,,,stimuli/alien_stimuli/61.png,conditions/schedules/train_y_first/blue_star_00/top_left/inputInstr_2.xlsx,stimuli/alien_stimuli/61.png,1139.4765181001276,1139.4765181001276,1139.4765181001276,1139.4765181001276,1139.4730240802282,return,6.321198500227183,"[-0.16, -0.08, 0, 0.08, 0.16, 0.24, 0.32, 0.4, 0.48, 0.56]","[-0.4, -0.32, -0.24, -0.16, -0.08, 0, 0.08, 0.16, 0.24, 0.32]",7,7,3,3,0.0,0.0,1145.9613415002823,1145.9613415002823,1145.9613415002823,1145.9613415002823,1145.9613415002823,1145.9613415002823,1145.9613415002823,1145.944873519987,8.107658199965954,return,7.947700100019574,stimuli/alien_stimuli/61.png,61,3,2,,,,,,,,,,,,,,,,,,,,,,,,,,,,,,,,,,,,,,,,,,,,,,,,,,,,,,,,,,,,,,,,,,,,,,,,,,,,,,,,,,,,,,,,,AMJ0GC,train_y,blue_star,top_left,2025-04-28_17h18.37.258,HideSeek_v1,2022.2.5,59.98242500168517,
,,,,,,,,,,,30,,,,4,0,4,0,,,,,,,,,,,,,,,,,,,,,,,,,,,,,,,,,,,,,,,,,,,,,,,,,,,,,,,,,,,,,,,,,,,,,,,,,,,,,,21,0.7,0.25,1,99,2,30,0,conditions/schedules/train_y_first/blue_star_00/top_left/inputTrain_2.1.xlsx,99,1,2,1,0,,,,,,,,,,,,,,,,,,,,,,,,,,,,,,,,,,,,,,,,,,,,,,,,,,,,,,,,,,,,,,,,,,,,,,,,,,,AMJ0GC,train_y,blue_star,top_left,2025-04-28_17h18.37.258,HideSeek_v1,2022.2.5,59.98242500168517,
,,,,,,,,,,,,,,,5,0,5,0,0,0,0,0,,,,,,,,,,,,,,,,,,,,,,,,,,,,,,,conditions/schedules/train_y_first/blue_star_00/top_left/instructions/Slide22.png,conditions/schedules/train_y_first/blue_star_00/top_left/instructions/Audio22.wav,1154.0718787000515,1154.0683901602404,22,"[5.846656899899244, 25.039039500057697, 16.470041900407523, 19.387106699869037, 4.390013299882412, 4.8690007999539375, 5.162625799886882, 11.440244699828327, 5.825150799937546, 6.891030699945986, 10.185991799924523, 14.005351800005883, 57.1626663999632, 17.139911899808794, 43.21023249998689, 21.94734869990498, 47.496882299892604, 6.85790630010888, 10.036872600205243, 12.723243999760598, 12.807015500031412, 30.55285929981619]","[0.00021769991144537926, 25.039045999757946, 0.014189899899065495, 0.0535698002204299, 0.09844959992915392, 0.06201699981465936, 0.09753580018877983, 0.05381439998745918, 0.035383500158786774, 0.047177799977362156, 0.07923859963193536, 14.005359299946576, 57.1626737001352, 17.139918999746442, 0.0788667001761496, 21.94735540030524, 0.035365600138902664, 0.03074120031669736, 0.07921990007162094, 12.723250499926507, 12.807022999972105, 30.552870700135827]",0,,,,,,,,,,,,,,,,,,,,,,,,,,,,,,,,,,,,,,,,,,,,,,,,,,,,,,,,,,,,,,,,,,,,,,,,,,,,,,,,,,,,,,,,,,,,,,,,,,,,,,,,,,,,,,,,,,,,,,,,,,,,AMJ0GC,train_y,blue_star,top_left,2025-04-28_17h18.37.258,HideSeek_v1,2022.2.5,59.98242500168517,
,2,6,5,6,3,0,31,,train_dim1_2,1,30,,,,5,0,5,0,,,,,,,,,0,0,0,0,0,0,0,0,0,0,0,0,,,,,,,,,,,,,,,,,,,,,,,,,stimuli/alien_stimuli/31.png,,,,,,,,,,,,,,,,,,,,,,,,,,,,,,,,,,,,,,,30,,,,,,,,1184.732995199971,1184.732995199971,1184.732995199971,1184.732995199971,1184.732995199971,down,4.7308042999356985,0,0,0,99,0,0.0,down,4.631329800002277,,,,,,,,,,,,,,,,,,,,,,,,,,,,,,,,,,,,,,,,,,,,,,,,,,,,,,,,,,,,AMJ0GC,train_y,blue_star,top_left,2025-04-28_17h18.37.258,HideSeek_v1,2022.2.5,59.98242500168517,
,2,6,5,6,3,0,31,,train_dim1_2,1,30,,,,5,0,5,0,,,,,,,,,0,0,0,0,0,0,0,0,1,0,1,0,,,,,,,,,,,,,,,,,,,,,,,,,,,,,,,,,,,,,,,,,,,,,,,,,,,,,,,,,,,,,,,,30,,,,,,,,1189.4459951003082,1189.4459951003082,1189.4459951003082,1189.4459951003082,1189.4459951003082,down,2.4612463996745646,0,0,0,99,0,-0.08,down,2.3753428999334574,,,,,,,,,,,,,,,,,,,,,,,,,,,,,,,,,,,,,,,,,,,,,,,,,,,,,,,,,,,,AMJ0GC,train_y,blue_star,top_left,2025-04-28_17h18.37.258,HideSeek_v1,2022.2.5,59.98242500168517,
,2,6,5,6,3,0,31,,train_dim1_2,1,30,,,,5,0,5,0,,,,,,,,,0,0,0,0,0,0,0,0,2,0,2,0,,,,,,,,,,,,,,,,,,,,,,,,,,,,,,,,,,,,,,,,,,,,,,,,,,,,,,,,,,,,,,,,30,,,,,,,,1191.9133248999715,1191.9133248999715,1191.9133248999715,1191.9133248999715,1191.9133248999715,return,0.3767686001956463,0,0,0,0,0,-0.08,return,0.29313600016757846,-59,8,0,-0.08,,,,,,,,,,,,,,,,,,,,,,,,,,,,,,,,,,,,,,,,,,,,,,,,,,,,,,,,AMJ0GC,train_y,blue_star,top_left,2025-04-28_17h18.37.258,HideSeek_v1,2022.2.5,59.98242500168517,
,2,9,7,9,5,0,11,,train_dim1_2,2,30,,,,5,0,5,0,,,,,,,,,0,0,0,0,0,1,1,1,0,0,0,0,,,,,,,,,,,,,,,,,,,,,,,,,stimuli/alien_stimuli/11.png,,,,,,,,,,,,,,,,,,,,,,,,,,,,,stimuli/alien_stimuli/31.png,31,2,3,,,,,,,30,,,,,,,,1197.6837450000457,1197.6837450000457,1197.6837450000457,1197.6837450000457,1197.6837450000457,right,2.908622100017965,0,0,0,99,0.08,0.32,right,2.7959460001438856,,,,,1196.1032985001802,1197.6837450000457,0.24,0.08,0.0,0.24,0.08,0.24,0.12,0.24,0.08,1193.8674151999876,1193.8674151999876,1193.8674151999876,1193.8674151999876,1193.8674151999876,1193.8674151999876,1193.8674151999876,1193.8674151999876,1193.8512208803559,2.3543082997202873,return,2.2061898997053504,,,,,,,,,,,,,,,,,,,,,,,,,,,,,,,,,AMJ0GC,train_y,blue_star,top_left,2025-04-28_17h18.37.258,HideSeek_v1,2022.2.5,59.98242500168517,
,2,9,7,9,5,0,11,,train_dim1_2,2,30,,,,5,0,5,0,,,,,,,,,0,0,0,0,0,1,1,1,1,0,1,0,,,,,,,,,,,,,,,,,,,,,,,,,,,,,,,,,,,,,,,,,,,,,,,,,,,,,,,,,,,,,,,,30,,,,,,,,1200.575012900401,1200.575012900401,1200.575012900401,1200.575012900401,1200.575012900401,right,0.42609009984880686,0,0,0,99,0.16,0.32,right,0.3447722001001239,,,,,,,,,,,,,,,,,,,,,,,,,,,,,,,,,,,,,,,,,,,,,,,,,,,,,,,,,,,,AMJ0GC,train_y,blue_star,top_left,2025-04-28_17h18.37.258,HideSeek_v1,2022.2.5,59.98242500168517,
,2,9,7,9,5,0,11,,train_dim1_2,2,30,,,,5,0,5,0,,,,,,,,,0,0,0,0,0,1,1,1,2,0,2,0,,,,,,,,,,,,,,,,,,,,,,,,,,,,,,,,,,,,,,,,,,,,,,,,,,,,,,,,,,,,,,,,30,,,,,,,,1201.0084425001405,1201.0084425001405,1201.0084425001405,1201.0084425001405,1201.0084425001405,right,0.4101282996125519,0,0,0,99,0.24,0.32,right,0.3174832002259791,,,,,,,,,,,,,,,,,,,,,,,,,,,,,,,,,,,,,,,,,,,,,,,,,,,,,,,,,,,,AMJ0GC,train_y,blue_star,top_left,2025-04-28_17h18.37.258,HideSeek_v1,2022.2.5,59.98242500168517,
,2,9,7,9,5,0,11,,train_dim1_2,2,30,,,,5,0,5,0,,,,,,,,,0,0,0,0,0,1,1,1,3,0,3,0,,,,,,,,,,,,,,,,,,,,,,,,,,,,,,,,,,,,,,,,,,,,,,,,,,,,,,,,,,,,,,,,30,,,,,,,,1201.4243451002985,1201.4243451002985,1201.4243451002985,1201.4243451002985,1201.4243451002985,right,0.37654410023242235,0,0,0,99,0.32,0.32,right,0.2993493997491896,,,,,,,,,,,,,,,,,,,,,,,,,,,,,,,,,,,,,,,,,,,,,,,,,,,,,,,,,,,,AMJ0GC,train_y,blue_star,top_left,2025-04-28_17h18.37.258,HideSeek_v1,2022.2.5,59.98242500168517,
,2,9,7,9,5,0,11,,train_dim1_2,2,30,,,,5,0,5,0,,,,,,,,,0,0,0,0,0,1,1,1,4,0,4,0,,,,,,,,,,,,,,,,,,,,,,,,,,,,,,,,,,,,,,,,,,,,,,,,,,,,,,,,,,,,,,,,30,,,,,,,,1201.8092616000213,1201.8092616000213,1201.8092616000213,1201.8092616000213,1201.8092616000213,return,1.1272956999018788,0,1,0,0,0.32,0.32,return,1.042442699894309,-59,12,0.32,0.32,,,,,,,,,,,,,,,,,,,,,,,,,,,,,,,,,,,,,,,,,,,,,,,,,,,,,,,,AMJ0GC,train_y,blue_star,top_left,2025-04-28_17h18.37.258,HideSeek_v1,2022.2.5,59.98242500168517,
,4,9,8,9,4,0,21,,train_dim1_2,3,30,,,,5,0,5,0,,,,,,,,,0,0,0,0,0,2,2,2,0,0,0,0,,,,,,,,,,,,,,,,,,,,,,,,,stimuli/alien_stimuli/21.png,,,,,,,,,,,,,,,,,,,,,,,,,,,,,stimuli/alien_stimuli/11.png,11,2,4,,,,,,,30,,,,,,,,1208.1337353000417,1208.1337353000417,1208.1337353000417,1208.1337353000417,1208.1337353000417,down,2.106474299915135,0,1,0,99,0.16,0.24,down,2.014014100190252,,,,,1206.561831800267,1208.1337353000417,0.4,0.32,0.0,0.4,0.32,0.4,0.2,0.4,0.32,1204.5207385001704,1204.5207385001704,1204.5207385001704,1204.5207385001704,1204.5207385001704,1204.5207385001704,1204.5207385001704,1204.5207385001704,1204.5101933202707,2.1706348001025617,return,2.009604000020772,,,,,,,,,,,,,,,,,,,,,,,,,,,,,,,,,AMJ0GC,train_y,blue_star,top_left,2025-04-28_17h18.37.258,HideSeek_v1,2022.2.5,59.98242500168517,
,4,9,8,9,4,0,21,,train_dim1_2,3,30,,,,5,0,5,0,,,,,,,,,0,0,0,0,0,2,2,2,1,0,1,0,,,,,,,,,,,,,,,,,,,,,,,,,,,,,,,,,,,,,,,,,,,,,,,,,,,,,,,,,,,,,,,,30,,,,,,,,1210.2334490003996,1210.2334490003996,1210.2334490003996,1210.2334490003996,1210.2334490003996,up,1.660890799947083,0,1,0,99,0.16,0.32,up,1.5784293999895453,,,,,,,,,,,,,,,,,,,,,,,,,,,,,,,,,,,,,,,,,,,,,,,,,,,,,,,,,,,,AMJ0GC,train_y,blue_star,top_left,2025-04-28_17h18.37.258,HideSeek_v1,2022.2.5,59.98242500168517,
,4,9,8,9,4,0,21,,train_dim1_2,3,30,,,,5,0,5,0,,,,,,,,,0,0,0,0,0,2,2,2,2,0,2,0,,,,,,,,,,,,,,,,,,,,,,,,,,,,,,,,,,,,,,,,,,,,,,,,,,,,,,,,,,,,,,,,30,,,,,,,,1211.9004599000327,1211.9004599000327,1211.9004599000327,1211.9004599000327,1211.9004599000327,left,0.9769567996263504,0,1,0,99,0.08,0.32,left,0.8925848002545536,,,,,,,,,,,,,,,,,,,,,,,,,,,,,,,,,,,,,,,,,,,,,,,,,,,,,,,,,,,,AMJ0GC,train_y,blue_star,top_left,2025-04-28_17h18.37.258,HideSeek_v1,2022.2.5,59.98242500168517,
,4,9,8,9,4,0,21,,train_dim1_2,3,30,,,,5,0,5,0,,,,,,,,,0,0,0,0,0,2,2,2,3,0,3,0,,,,,,,,,,,,,,,,,,,,,,,,,,,,,,,,,,,,,,,,,,,,,,,,,,,,,,,,,,,,,,,,30,,,,,,,,1212.8854098003358,1212.8854098003358,1212.8854098003358,1212.8854098003358,1212.8854098003358,right,1.3104474996216595,0,1,0,99,0.16,0.32,right,1.2192573002539575,,,,,,,,,,,,,,,,,,,,,,,,,,,,,,,,,,,,,,,,,,,,,,,,,,,,,,,,,,,,AMJ0GC,train_y,blue_star,top_left,2025-04-28_17h18.37.258,HideSeek_v1,2022.2.5,59.98242500168517,
,4,9,8,9,4,0,21,,train_dim1_2,3,30,,,,5,0,5,0,,,,,,,,,0,0,0,0,0,2,2,2,4,0,4,0,,,,,,,,,,,,,,,,,,,,,,,,,,,,,,,,,,,,,,,,,,,,,,,,,,,,,,,,,,,,,,,,30,,,,,,,,1214.2022095001303,1214.2022095001303,1214.2022095001303,1214.2022095001303,1214.2022095001303,right,0.37660689977928996,0,1,0,99,0.24,0.32,right,0.29697849974036217,,,,,,,,,,,,,,,,,,,,,,,,,,,,,,,,,,,,,,,,,,,,,,,,,,,,,,,,,,,,AMJ0GC,train_y,blue_star,top_left,2025-04-28_17h18.37.258,HideSeek_v1,2022.2.5,59.98242500168517,
,4,9,8,9,4,0,21,,train_dim1_2,3,30,,,,5,0,5,0,,,,,,,,,0,0,0,0,0,2,2,2,5,0,5,0,,,,,,,,,,,,,,,,,,,,,,,,,,,,,,,,,,,,,,,,,,,,,,,,,,,,,,,,,,,,,,,,30,,,,,,,,1214.5890828003176,1214.5890828003176,1214.5890828003176,1214.5890828003176,1214.5890828003176,right,1.258001800160855,0,1,0,99,0.32,0.32,right,1.1769719999283552,,,,,,,,,,,,,,,,,,,,,,,,,,,,,,,,,,,,,,,,,,,,,,,,,,,,,,,,,,,,AMJ0GC,train_y,blue_star,top_left,2025-04-28_17h18.37.258,HideSeek_v1,2022.2.5,59.98242500168517,
,4,9,8,9,4,0,21,,train_dim1_2,3,30,,,,5,0,5,0,,,,,,,,,0,0,0,0,0,2,2,2,6,0,6,0,,,,,,,,,,,,,,,,,,,,,,,,,,,,,,,,,,,,,,,,,,,,,,,,,,,,,,,,,,,,,,,,30,,,,,,,,1215.8549076002091,1215.8549076002091,1215.8549076002091,1215.8549076002091,1215.8549076002091,return,0.9770369003526866,0,0,0,0,0.32,0.32,return,0.8947342997416854,-59,14,0.32,0.32,,,,,,,,,,,,,,,,,,,,,,,,,,,,,,,,,,,,,,,,,,,,,,,,,,,,,,,,AMJ0GC,train_y,blue_star,top_left,2025-04-28_17h18.37.258,HideSeek_v1,2022.2.5,59.98242500168517,
,2,8,3,8,1,0,51,,train_dim1_2,4,30,,,,5,0,5,0,,,,,,,,,0,0,0,0,0,3,3,3,0,0,0,0,,,,,,,,,,,,,,,,,,,,,,,,,stimuli/alien_stimuli/51.png,,,,,,,,,,,,,,,,,,,,,,,,,,,,,stimuli/alien_stimuli/21.png,21,4,5,,,,,,,30,,,,,,,,1225.090027200058,1225.090027200058,1225.090027200058,1225.090027200058,1225.090027200058,right,2.2238174001686275,0,0,0,99,0.08,0.24,right,2.138630799949169,,,,,1223.5259184003808,1225.090027200058,0.48,0.32,0.0,0.32,0.32,0.48,0.32,0.48,0.32,1218.4027277999558,1218.4027277999558,1218.4027277999558,1218.4027277999558,1218.4027277999558,1218.4027277999558,1218.4027277999558,1218.4027277999558,1218.3881564803423,5.240165799856186,return,5.101630199700594,,,,,,,,,,,,,,,,,,,,,,,,,,,,,,,,,AMJ0GC,train_y,blue_star,top_left,2025-04-28_17h18.37.258,HideSeek_v1,2022.2.5,59.98242500168517,
,2,8,3,8,1,0,51,,train_dim1_2,4,30,,,,5,0,5,0,,,,,,,,,0,0,0,0,0,3,3,3,1,0,1,0,,,,,,,,,,,,,,,,,,,,,,,,,,,,,,,,,,,,,,,,,,,,,,,,,,,,,,,,,,,,,,,,30,,,,,,,,1227.3124219002202,1227.3124219002202,1227.3124219002202,1227.3124219002202,1227.3124219002202,right,2.3776356000453234,0,0,0,99,0.16,0.24,right,2.297763899900019,,,,,,,,,,,,,,,,,,,,,,,,,,,,,,,,,,,,,,,,,,,,,,,,,,,,,,,,,,,,AMJ0GC,train_y,blue_star,top_left,2025-04-28_17h18.37.258,HideSeek_v1,2022.2.5,59.98242500168517,
