trialInstr,x_fixStart,y_fixStart,x_corrSteps,y_corrSteps,x_nrSteps,y_nrSteps,alienID,trialLength,version,trialTrain,praclen,testlen,trial_label,break_on_off,beforeExpLoop.thisRepN,beforeExpLoop.thisTrialN,beforeExpLoop.thisN,beforeExpLoop.thisIndex,mini_instr_trials.thisRepN,mini_instr_trials.thisTrialN,mini_instr_trials.thisN,mini_instr_trials.thisIndex,instrLoop.thisRepN,instrLoop.thisTrialN,instrLoop.thisN,instrLoop.thisIndex,repeat_prac.thisRepN,repeat_prac.thisTrialN,repeat_prac.thisN,repeat_prac.thisIndex,trainLoop.thisRepN,trainLoop.thisTrialN,trainLoop.thisN,trainLoop.thisIndex,moveLoop_train.thisRepN,moveLoop_train.thisTrialN,moveLoop_train.thisN,moveLoop_train.thisIndex,experiment.thisRepN,experiment.thisTrialN,experiment.thisN,experiment.thisIndex,moveLoop_test.thisRepN,moveLoop_test.thisTrialN,moveLoop_test.thisN,moveLoop_test.thisIndex,mini_instr2_trials.thisRepN,mini_instr2_trials.thisTrialN,mini_instr2_trials.thisN,mini_instr2_trials.thisIndex,start_all_time,url,slideStim,audioStim,slides.started,sounds.started,nextButton.numClicks,nextButton.timesOn,nextButton.timesOff,prev_but.numClicks,prev_but.timesOn,prev_but.timesOff,alienStim,instrFile,alienStim_instr,gridImage_instr.started,startPos_3.started,key_instr.started,alienImage_3.started,sounds_1.started,key_instr.keys,key_instr.rt,all_x,all_y,FBy_corrSteps,FBy_fixStart,FBx_corrSteps,FBx_fixStart,FBy_pathSize_check,FBx_pathSize_check,gridImage_9.started,alienImageFB_3.started,startPosFB_3.started,keyFB_3.started,pathLine_ydir_2.started,pathLine_xdir_2.started,alienFace_3.started,sounds_2.started,RTFB_instr,keyFB_3.keys,keyFB_3.rt,draw_alienStim,draw_alienID,test_x,nrepcount,perfthres,percthres,earlierperf,earlystop,nextPrac,fileidx,praclen,saveACC_train,pracFile,nextPrac_train,addNrep,fileidx_endr,repExp,showearly,gridImage_4.started,startPos.started,movePos.started,key_resp.started,alienImage.started,buttonPress_train,RTchoice_train,cumAcctrain,aCorr,saveACC_choice,corrAns,x_movePos_end,y_movePos_end,key_resp.keys,key_resp.rt,wLy_dir,wLx_dir,x_movePos,y_movePos,text_2.started,text_2.stopped,aft_x_corrPos,aft_y_corrPos,y_pathSize_check,x_pathSize_check,y_pathdirY,x_pathdirY,x_pathdirX,x_corrPos,y_corrPos,gridImage_6.started,alienImageFB_2.started,startPosFB_2.started,movePosFB_2.started,keyFB_2.started,pathLine_xdir.started,pathLine_ydir.started,alienFace.started,sounds_4.started,RT_FBtrain,keyFB_2.keys,keyFB_2.rt,saveACC_pre,ACC,within_saveACC_train,earlystop_wloop,cumAcctrain_check,gridImage_3.started,alienImage_test.started,startPos_test.started,movePos_test.started,key_resp_test.started,wLy_dir_test,wLx_dir_test,buttonPress_test,RTchoice_test,cumAcctest,corrAns_test,key_resp_test.keys,key_resp_test.rt,text_3.started,text_3.stopped,total_time,end_all_time,key_resp_3.keys,slides_2.started,sounds_3.started,nextButton_2.numClicks,nextButton_2.timesOn,nextButton_2.timesOff,prev_but_2.numClicks,prev_but_2.timesOn,prev_but_2.timesOff,bye.started,participant,train_first,00_coordinate,starting corner,date,expName,psychopyVersion,frameRate,
,,,,,,,,,,,,,,,0,0,0,0,0,0,0,0,,,,,,,,,,,,,,,,,,,,,,,,,,,,,start_all_time,testround,conditions/schedules/train_x_first/red_square_00/top_left/instructions/Slide1.png,conditions/schedules/train_x_first/red_square_00/top_left/instructions/Audio1.wav,1532.354677400086,1532.3054742016366,1,[7.905163299990818],[7.905172499828041],0,,,,,,,,,,,,,,,,,,,,,,,,,,,,,,,,,,,,,,,,,,,,,,,,,,,,,,,,,,,,,,,,,,,,,,,,,,,,,,,,,,,,,,,,,,,,,,,,,,,,,,,,,,,,,,,,,,,,,,,,,,,,AMJDVJ,train_x,red_square,top_left,2025-04-09_17h38.55.199,HideSeek_v1,2022.2.5,59.94894753419525,
,,,,,,,,,,,,,,,0,0,0,0,1,0,1,0,,,,,,,,,,,,,,,,,,,,,,,,,,,,,,,conditions/schedules/train_x_first/red_square_00/top_left/instructions/Slide2.png,conditions/schedules/train_x_first/red_square_00/top_left/instructions/Audio2.wav,1540.2774040000513,1540.278871250106,2,"[7.905163299990818, 11.291888999985531]","[7.905172499828041, 11.291895599802956]",0,,,,,,,,,,,,,,,,,,,,,,,,,,,,,,,,,,,,,,,,,,,,,,,,,,,,,,,,,,,,,,,,,,,,,,,,,,,,,,,,,,,,,,,,,,,,,,,,,,,,,,,,,,,,,,,,,,,,,,,,,,,,AMJDVJ,train_x,red_square,top_left,2025-04-09_17h38.55.199,HideSeek_v1,2022.2.5,59.94894753419525,
,,,,,,,,,,,,,,,0,0,0,0,2,0,2,0,,,,,,,,,,,,,,,,,,,,,,,,,,,,,,,conditions/schedules/train_x_first/red_square_00/top_left/instructions/Slide3.png,conditions/schedules/train_x_first/red_square_00/top_left/instructions/Audio3.wav,1551.6510067000054,1551.6382872501854,3,"[7.905163299990818, 11.291888999985531, 16.550992699805647]","[7.905172499828041, 0.000224399846047163, 16.55100049986504]",0,,,,,,,,,,,,,,,,,,,,,,,,,,,,,,,,,,,,,,,,,,,,,,,,,,,,,,,,,,,,,,,,,,,,,,,,,,,,,,,,,,,,,,,,,,,,,,,,,,,,,,,,,,,,,,,,,,,,,,,,,,,,AMJDVJ,train_x,red_square,top_left,2025-04-09_17h38.55.199,HideSeek_v1,2022.2.5,59.94894753419525,
,,,,,,,,,,,,,,,0,0,0,0,3,0,3,0,,,,,,,,,,,,,,,,,,,,,,,,,,,,,,,conditions/schedules/train_x_first/red_square_00/top_left/instructions/Slide4.png,conditions/schedules/train_x_first/red_square_00/top_left/instructions/Audio4.wav,1568.2836951999925,1568.2853147001938,4,"[7.905163299990818, 11.291888999985531, 16.550992699805647, 19.731756299966946]","[7.905172499828041, 0.000224399846047163, 0.03226110013201833, 19.731762800132856]",0,,,,,,,,,,,,,,,,,,,,,,,,,,,,,,,,,,,,,,,,,,,,,,,,,,,,,,,,,,,,,,,,,,,,,,,,,,,,,,,,,,,,,,,,,,,,,,,,,,,,,,,,,,,,,,,,,,,,,,,,,,,,AMJDVJ,train_x,red_square,top_left,2025-04-09_17h38.55.199,HideSeek_v1,2022.2.5,59.94894753419525,
,,,,,,,,,,,,,,,0,0,0,0,4,0,4,0,,,,,,,,,,,,,,,,,,,,,,,,,,,,,,,conditions/schedules/train_x_first/red_square_00/top_left/instructions/Slide5.png,conditions/schedules/train_x_first/red_square_00/top_left/instructions/Audio5.wav,1588.083368099993,1588.0851351502351,5,"[7.905163299990818, 11.291888999985531, 16.550992699805647, 19.731756299966946, 4.486093299929053]","[7.905172499828041, 0.000224399846047163, 0.03226110013201833, 0.01383560011163354, 4.486099899979308]",0,,,,,,,,,,,,,,,,,,,,,,,,,,,,,,,,,,,,,,,,,,,,,,,,,,,,,,,,,,,,,,,,,,,,,,,,,,,,,,,,,,,,,,,,,,,,,,,,,,,,,,,,,,,,,,,,,,,,,,,,,,,,AMJDVJ,train_x,red_square,top_left,2025-04-09_17h38.55.199,HideSeek_v1,2022.2.5,59.94894753419525,
,,,,,,,,,,,,,,,0,0,0,0,5,0,5,0,,,,,,,,,,,,,,,,,,,,,,,,,,,,,,,conditions/schedules/train_x_first/red_square_00/top_left/instructions/Slide6.png,conditions/schedules/train_x_first/red_square_00/top_left/instructions/Audio6.wav,1592.6209242001642,1592.6222267000937,6,"[7.905163299990818, 11.291888999985531, 16.550992699805647, 19.731756299966946, 4.486093299929053, 4.952624500030652]","[7.905172499828041, 0.000224399846047163, 0.03226110013201833, 0.01383560011163354, 0.032195999985560775, 4.9526309000793844]",0,,,,,,,,,,,,,,,,,,,,,,,,,,,,,,,,,,,,,,,,,,,,,,,,,,,,,,,,,,,,,,,,,,,,,,,,,,,,,,,,,,,,,,,,,,,,,,,,,,,,,,,,,,,,,,,,,,,,,,,,,,,,AMJDVJ,train_x,red_square,top_left,2025-04-09_17h38.55.199,HideSeek_v1,2022.2.5,59.94894753419525,
,,,,,,,,,,,,,,,0,0,0,0,6,0,6,0,,,,,,,,,,,,,,,,,,,,,,,,,,,,,,,conditions/schedules/train_x_first/red_square_00/top_left/instructions/Slide7.png,conditions/schedules/train_x_first/red_square_00/top_left/instructions/Audio7.wav,1597.6262786001898,1597.626376400143,7,"[7.905163299990818, 11.291888999985531, 16.550992699805647, 19.731756299966946, 4.486093299929053, 4.952624500030652, 5.652486999984831]","[7.905172499828041, 0.000224399846047163, 0.03226110013201833, 0.01383560011163354, 0.032195999985560775, 0.014470400055870414, 5.652493700152263]",0,,,,,,,,,,,,,,,,,,,,,,,,,,,,,,,,,,,,,,,,,,,,,,,,,,,,,,,,,,,,,,,,,,,,,,,,,,,,,,,,,,,,,,,,,,,,,,,,,,,,,,,,,,,,,,,,,,,,,,,,,,,,AMJDVJ,train_x,red_square,top_left,2025-04-09_17h38.55.199,HideSeek_v1,2022.2.5,59.94894753419525,
,,,,,,,,,,,,,,,0,0,0,0,7,0,7,0,,,,,,,,,,,,,,,,,,,,,,,,,,,,,,,conditions/schedules/train_x_first/red_square_00/top_left/instructions/Slide8.png,conditions/schedules/train_x_first/red_square_00/top_left/instructions/Audio8.wav,1603.3335646002088,1603.3311302002055,8,"[7.905163299990818, 11.291888999985531, 16.550992699805647, 19.731756299966946, 4.486093299929053, 4.952624500030652, 5.652486999984831, 12.054603300057352]","[7.905172499828041, 0.000224399846047163, 0.03226110013201833, 0.01383560011163354, 0.032195999985560775, 0.014470400055870414, 0.0462765998672694, 12.0546100998763]",0,,,,,,,,,,,,,,,,,,,,,,,,,,,,,,,,,,,,,,,,,,,,,,,,,,,,,,,,,,,,,,,,,,,,,,,,,,,,,,,,,,,,,,,,,,,,,,,,,,,,,,,,,,,,,,,,,,,,,,,,,,,,AMJDVJ,train_x,red_square,top_left,2025-04-09_17h38.55.199,HideSeek_v1,2022.2.5,59.94894753419525,
,,,,,,,,,,,,,,,0,0,0,0,8,0,8,0,,,,,,,,,,,,,,,,,,,,,,,,,,,,,,,conditions/schedules/train_x_first/red_square_00/top_left/instructions/Slide9.png,conditions/schedules/train_x_first/red_square_00/top_left/instructions/Audio9.wav,1615.458991000196,1615.4578951501753,9,"[7.905163299990818, 11.291888999985531, 16.550992699805647, 19.731756299966946, 4.486093299929053, 4.952624500030652, 5.652486999984831, 12.054603300057352, 6.4517172002233565]","[7.905172499828041, 0.000224399846047163, 0.03226110013201833, 0.01383560011163354, 0.032195999985560775, 0.014470400055870414, 0.0462765998672694, 0.00020720018073916435, 6.451723400037736]",0,,,,,,,,,,,,,,,,,,,,,,,,,,,,,,,,,,,,,,,,,,,,,,,,,,,,,,,,,,,,,,,,,,,,,,,,,,,,,,,,,,,,,,,,,,,,,,,,,,,,,,,,,,,,,,,,,,,,,,,,,,,,AMJDVJ,train_x,red_square,top_left,2025-04-09_17h38.55.199,HideSeek_v1,2022.2.5,59.94894753419525,
,,,,,,,,,,,,,,,0,0,0,0,9,0,9,0,,,,,,,,,,,,,,,,,,,,,,,,,,,,,,,conditions/schedules/train_x_first/red_square_00/top_left/instructions/Slide10.png,conditions/schedules/train_x_first/red_square_00/top_left/instructions/Audio10.wav,1621.948194500059,1621.9466595501174,10,"[7.905163299990818, 11.291888999985531, 16.550992699805647, 19.731756299966946, 4.486093299929053, 4.952624500030652, 5.652486999984831, 12.054603300057352, 6.4517172002233565, 7.268590500112623]","[7.905172499828041, 0.000224399846047163, 0.03226110013201833, 0.01383560011163354, 0.032195999985560775, 0.014470400055870414, 0.0462765998672694, 0.00020720018073916435, 0.06250110012479126, 7.268597600050271]",0,,,,,,,,,,,,,,,,,,,,,,,,,,,,,,,,,,,,,,,,,,,,,,,,,,,,,,,,,,,,,,,,,,,,,,,,,,,,,,,,,,,,,,,,,,,,,,,,,,,,,,,,,,,,,,,,,,,,,,,,,,,,AMJDVJ,train_x,red_square,top_left,2025-04-09_17h38.55.199,HideSeek_v1,2022.2.5,59.94894753419525,
,,,,,,,,,,,,,,,0,0,0,0,10,0,10,0,,,,,,,,,,,,,,,,,,,,,,,,,,,,,,,conditions/schedules/train_x_first/red_square_00/top_left/instructions/Slide11.png,conditions/schedules/train_x_first/red_square_00/top_left/instructions/Audio11.wav,1629.2715029001702,1629.2693962002174,11,"[7.905163299990818, 11.291888999985531, 16.550992699805647, 19.731756299966946, 4.486093299929053, 4.952624500030652, 5.652486999984831, 12.054603300057352, 6.4517172002233565, 7.268590500112623, 10.070044199936092]","[7.905172499828041, 0.000224399846047163, 0.03226110013201833, 0.01383560011163354, 0.032195999985560775, 0.014470400055870414, 0.0462765998672694, 0.00020720018073916435, 0.06250110012479126, 0.04619459994137287, 10.070050899870694]",0,,,,,,,,,,,,,,,,,,,,,,,,,,,,,,,,,,,,,,,,,,,,,,,,,,,,,,,,,,,,,,,,,,,,,,,,,,,,,,,,,,,,,,,,,,,,,,,,,,,,,,,,,,,,,,,,,,,,,,,,,,,,AMJDVJ,train_x,red_square,top_left,2025-04-09_17h38.55.199,HideSeek_v1,2022.2.5,59.94894753419525,
,,,,,,,,,,,,,,,0,0,0,0,11,0,11,0,,,,,,,,,,,,,,,,,,,,,,,,,,,,,,,conditions/schedules/train_x_first/red_square_00/top_left/instructions/Slide12.png,conditions/schedules/train_x_first/red_square_00/top_left/instructions/Audio12.wav,1639.3958087000065,1639.3944015001414,12,"[7.905163299990818, 11.291888999985531, 16.550992699805647, 19.731756299966946, 4.486093299929053, 4.952624500030652, 5.652486999984831, 12.054603300057352, 6.4517172002233565, 7.268590500112623, 10.070044199936092, 12.808304599951953]","[7.905172499828041, 0.000224399846047163, 0.03226110013201833, 0.01383560011163354, 0.032195999985560775, 0.014470400055870414, 0.0462765998672694, 0.00020720018073916435, 0.06250110012479126, 0.04619459994137287, 0.12908790004439652, 12.808332599932328]",0,,,,,,,,,,,,,,,,,,,,,,,,,,,,,,,,,,,,,,,,,,,,,,,,,,,,,,,,,,,,,,,,,,,,,,,,,,,,,,,,,,,,,,,,,,,,,,,,,,,,,,,,,,,,,,,,,,,,,,,,,,,,AMJDVJ,train_x,red_square,top_left,2025-04-09_17h38.55.199,HideSeek_v1,2022.2.5,59.94894753419525,
1,3,7,8,7,5,0,66,2,instr_dim1_1,,,,,,0,0,0,0,,,,,0,0,0,0,,,,,,,,,,,,,,,,,,,,,,,,,,,,,,,,,,,,,stimuli/alien_stimuli/66.png,conditions/schedules/train_x_first/red_square_00/top_left/inputInstr_1.xlsx,stimuli/alien_stimuli/66.png,1652.3036704000551,1652.3036704000551,1652.3036704000551,1652.3036704000551,1652.3056990501473,return,13.122820599935949,"[-0.16, -0.08, 0, 0.08, 0.16, 0.24, 0.32, 0.4, 0.48, 0.56]","[-0.4, -0.32, -0.24, -0.16, -0.08, 0, 0.08, 0.16, 0.24, 0.32]",7,7,8,3,0.0,0.4,1665.586205100175,1665.586205100175,1665.586205100175,1665.586205100175,1665.586205100175,1665.586205100175,1665.586205100175,1665.582616450172,6.790082800202072,return,6.621509799966589,stimuli/alien_stimuli/66.png,66,3,1,,,,,,,,,,,,,,,,,,,,,,,,,,,,,,,,,,,,,,,,,,,,,,,,,,,,,,,,,,,,,,,,,,,,,,,,,,,,,,,,,,,,,,,,,AMJDVJ,train_x,red_square,top_left,2025-04-09_17h38.55.199,HideSeek_v1,2022.2.5,59.94894753419525,
,,,,,,,,,,,30,,,,0,0,0,0,,,,,,,,,,,,,,,,,,,,,,,,,,,,,,,,,,,,,,,,,,,,,,,,,,,,,,,,,,,,,,,,,,,,,,,,,,,,,,21,0.7,0,0,99,1,30,0,conditions/schedules/train_x_first/red_square_00/top_left/inputTrain_1.1.xlsx,99,1,1,1,0,,,,,,,,,,,,,,,,,,,,,,,,,,,,,,,,,,,,,,,,,,,,,,,,,,,,,,,,,,,,,,,,,,,,,,,,,,,AMJDVJ,train_x,red_square,top_left,2025-04-09_17h38.55.199,HideSeek_v1,2022.2.5,59.94894753419525,
,,,,,,,,,,,,,,,1,0,1,0,0,0,0,0,,,,,,,,,,,,,,,,,,,,,,,,,,,,,,,conditions/schedules/train_x_first/red_square_00/top_left/instructions/Slide13.png,conditions/schedules/train_x_first/red_square_00/top_left/instructions/Audio13.wav,1672.3696969000157,1672.3717729501893,13,"[7.905163299990818, 11.291888999985531, 16.550992699805647, 19.731756299966946, 4.486093299929053, 4.952624500030652, 5.652486999984831, 12.054603300057352, 6.4517172002233565, 7.268590500112623, 10.070044199936092, 12.808304599951953, 18.014591600047424]","[7.905172499828041, 0.000224399846047163, 0.03226110013201833, 0.01383560011163354, 0.032195999985560775, 0.014470400055870414, 0.0462765998672694, 0.00020720018073916435, 0.06250110012479126, 0.04619459994137287, 0.12908790004439652, 12.808332599932328, 18.014598299982026]",0,,,,,,,,,,,,,,,,,,,,,,,,,,,,,,,,,,,,,,,,,,,,,,,,,,,,,,,,,,,,,,,,,,,,,,,,,,,,,,,,,,,,,,,,,,,,,,,,,,,,,,,,,,,,,,,,,,,,,,,,,,,,AMJDVJ,train_x,red_square,top_left,2025-04-09_17h38.55.199,HideSeek_v1,2022.2.5,59.94894753419525,
,,,,,,,,,,,,,,,1,0,1,0,1,0,1,0,,,,,,,,,,,,,,,,,,,,,,,,,,,,,,,conditions/schedules/train_x_first/red_square_00/top_left/instructions/Slide14.png,conditions/schedules/train_x_first/red_square_00/top_left/instructions/Audio14.wav,1690.4588698002044,1690.4533982500434,14,"[7.905163299990818, 11.291888999985531, 16.550992699805647, 19.731756299966946, 4.486093299929053, 4.952624500030652, 5.652486999984831, 12.054603300057352, 6.4517172002233565, 7.268590500112623, 10.070044199936092, 12.808304599951953, 18.014591600047424, 13.352771000005305]","[7.905172499828041, 0.000224399846047163, 0.03226110013201833, 0.01383560011163354, 0.032195999985560775, 0.014470400055870414, 0.0462765998672694, 0.00020720018073916435, 0.06250110012479126, 0.04619459994137287, 0.12908790004439652, 12.808332599932328, 0.030298100085929036, 13.35277789994143]",0,,,,,,,,,,,,,,,,,,,,,,,,,,,,,,,,,,,,,,,,,,,,,,,,,,,,,,,,,,,,,,,,,,,,,,,,,,,,,,,,,,,,,,,,,,,,,,,,,,,,,,,,,,,,,,,,,,,,,,,,,,,,AMJDVJ,train_x,red_square,top_left,2025-04-09_17h38.55.199,HideSeek_v1,2022.2.5,59.94894753419525,
2,4,5,4,5,0,0,16,2,instr_dim1_1,,,,,,1,0,1,0,,,,,0,0,0,0,,,,,,,,,,,,,,,,,,,,,,,,,,,,,,,,,,,,,stimuli/alien_stimuli/16.png,conditions/schedules/train_x_first/red_square_00/top_left/inputInstr_1.xlsx,stimuli/alien_stimuli/16.png,1703.9201051001437,1703.9201051001437,1703.9201051001437,1703.9201051001437,1703.9145883500578,return,7.544079000130296,"[-0.16, -0.08, 0, 0.08, 0.16, 0.24, 0.32, 0.4, 0.48, 0.56]","[-0.4, -0.32, -0.24, -0.16, -0.08, 0, 0.08, 0.16, 0.24, 0.32]",5,5,4,4,0.0,0.0,1711.628705700161,1711.628705700161,1711.628705700161,1711.628705700161,1711.628705700161,1711.628705700161,1711.628705700161,1711.6210708500819,5.755974299972877,return,5.595659099984914,stimuli/alien_stimuli/16.png,16,4,2,,,,,,,,,,,,,,,,,,,,,,,,,,,,,,,,,,,,,,,,,,,,,,,,,,,,,,,,,,,,,,,,,,,,,,,,,,,,,,,,,,,,,,,,,AMJDVJ,train_x,red_square,top_left,2025-04-09_17h38.55.199,HideSeek_v1,2022.2.5,59.94894753419525,
,,,,,,,,,,,30,,,,1,0,1,0,,,,,,,,,,,,,,,,,,,,,,,,,,,,,,,,,,,,,,,,,,,,,,,,,,,,,,,,,,,,,,,,,,,,,,,,,,,,,,21,0.7,0,0,99,1,30,0,conditions/schedules/train_x_first/red_square_00/top_left/inputTrain_1.1.xlsx,99,1,1,1,0,,,,,,,,,,,,,,,,,,,,,,,,,,,,,,,,,,,,,,,,,,,,,,,,,,,,,,,,,,,,,,,,,,,,,,,,,,,AMJDVJ,train_x,red_square,top_left,2025-04-09_17h38.55.199,HideSeek_v1,2022.2.5,59.94894753419525,
,,,,,,,,,,,,,,,2,0,2,0,0,0,0,0,,,,,,,,,,,,,,,,,,,,,,,,,,,,,,,conditions/schedules/train_x_first/red_square_00/top_left/instructions/Slide15.png,conditions/schedules/train_x_first/red_square_00/top_left/instructions/Audio15.wav,1717.3789838000666,1717.375854050182,15,"[7.905163299990818, 11.291888999985531, 16.550992699805647, 19.731756299966946, 4.486093299929053, 4.952624500030652, 5.652486999984831, 12.054603300057352, 6.4517172002233565, 7.268590500112623, 10.070044199936092, 12.808304599951953, 18.014591600047424, 13.352771000005305, 32.60484130005352]","[7.905172499828041, 0.000224399846047163, 0.03226110013201833, 0.01383560011163354, 0.032195999985560775, 0.014470400055870414, 0.0462765998672694, 0.00020720018073916435, 0.06250110012479126, 0.04619459994137287, 0.12908790004439652, 12.808332599932328, 0.030298100085929036, 13.35277789994143, 32.6048481001053]",0,,,,,,,,,,,,,,,,,,,,,,,,,,,,,,,,,,,,,,,,,,,,,,,,,,,,,,,,,,,,,,,,,,,,,,,,,,,,,,,,,,,,,,,,,,,,,,,,,,,,,,,,,,,,,,,,,,,,,,,,,,,,AMJDVJ,train_x,red_square,top_left,2025-04-09_17h38.55.199,HideSeek_v1,2022.2.5,59.94894753419525,
,,,,,,,,,,,,,,,2,0,2,0,1,0,1,0,,,,,,,,,,,,,,,,,,,,,,,,,,,,,,,conditions/schedules/train_x_first/red_square_00/top_left/instructions/Slide16.png,conditions/schedules/train_x_first/red_square_00/top_left/instructions/Audio16.wav,1750.0550931000616,1750.0530653500464,16,"[7.905163299990818, 11.291888999985531, 16.550992699805647, 19.731756299966946, 4.486093299929053, 4.952624500030652, 5.652486999984831, 12.054603300057352, 6.4517172002233565, 7.268590500112623, 10.070044199936092, 12.808304599951953, 18.014591600047424, 13.352771000005305, 32.60484130005352, 27.51815289980732]","[7.905172499828041, 0.000224399846047163, 0.03226110013201833, 0.01383560011163354, 0.032195999985560775, 0.014470400055870414, 0.0462765998672694, 0.00020720018073916435, 0.06250110012479126, 0.04619459994137287, 0.12908790004439652, 12.808332599932328, 0.030298100085929036, 13.35277789994143, 0.0002158998977392912, 27.518162099877372]",0,,,,,,,,,,,,,,,,,,,,,,,,,,,,,,,,,,,,,,,,,,,,,,,,,,,,,,,,,,,,,,,,,,,,,,,,,,,,,,,,,,,,,,,,,,,,,,,,,,,,,,,,,,,,,,,,,,,,,,,,,,,,AMJDVJ,train_x,red_square,top_left,2025-04-09_17h38.55.199,HideSeek_v1,2022.2.5,59.94894753419525,
,2,6,5,6,3,0,46,,train_dim1_1,1,30,,,,2,0,2,0,,,,,,,,,0,0,0,0,0,0,0,0,0,0,0,0,,,,,,,,,,,,,,,,,,,,,,,,,stimuli/alien_stimuli/46.png,,,,,,,,,,,,,,,,,,,,,,,,,,,,,,,,,,,,,,,30,,,,,,,,1777.6731031001545,1777.6731031001545,1777.6731031001545,1777.6731031001545,1777.6731031001545,right,11.119196600047871,0,0,0,99,0.08,0.08,right,11.017451399937272,,,,,,,,,,,,,,,,,,,,,,,,,,,,,,,,,,,,,,,,,,,,,,,,,,,,,,,,,,,,AMJDVJ,train_x,red_square,top_left,2025-04-09_17h38.55.199,HideSeek_v1,2022.2.5,59.94894753419525,
,2,6,5,6,3,0,46,,train_dim1_1,1,30,,,,2,0,2,0,,,,,,,,,0,0,0,0,0,0,0,0,1,0,1,0,,,,,,,,,,,,,,,,,,,,,,,,,,,,,,,,,,,,,,,,,,,,,,,,,,,,,,,,,,,,,,,,30,,,,,,,,1788.7950110000093,1788.7950110000093,1788.7950110000093,1788.7950110000093,1788.7950110000093,right,0.6594767000060529,0,0,0,99,0.16,0.08,right,0.5584796001203358,,,,,,,,,,,,,,,,,,,,,,,,,,,,,,,,,,,,,,,,,,,,,,,,,,,,,,,,,,,,AMJDVJ,train_x,red_square,top_left,2025-04-09_17h38.55.199,HideSeek_v1,2022.2.5,59.94894753419525,
,2,6,5,6,3,0,46,,train_dim1_1,1,30,,,,2,0,2,0,,,,,,,,,0,0,0,0,0,0,0,0,2,0,2,0,,,,,,,,,,,,,,,,,,,,,,,,,,,,,,,,,,,,,,,,,,,,,,,,,,,,,,,,,,,,,,,,30,,,,,,,,1789.449148700107,1789.449148700107,1789.449148700107,1789.449148700107,1789.449148700107,right,3.679340099915862,0,0,0,99,0.24,0.08,right,3.5949810999445617,,,,,,,,,,,,,,,,,,,,,,,,,,,,,,,,,,,,,,,,,,,,,,,,,,,,,,,,,,,,AMJDVJ,train_x,red_square,top_left,2025-04-09_17h38.55.199,HideSeek_v1,2022.2.5,59.94894753419525,
,2,6,5,6,3,0,46,,train_dim1_1,1,30,,,,2,0,2,0,,,,,,,,,0,0,0,0,0,0,0,0,3,0,3,0,,,,,,,,,,,,,,,,,,,,,,,,,,,,,,,,,,,,,,,,,,,,,,,,,,,,,,,,,,,,,,,,30,,,,,,,,1793.1360067999922,1793.1360067999922,1793.1360067999922,1793.1360067999922,1793.1360067999922,right,0.2593809000682086,0,0,0,99,0.32,0.08,right,0.1707856000866741,,,,,,,,,,,,,,,,,,,,,,,,,,,,,,,,,,,,,,,,,,,,,,,,,,,,,,,,,,,,AMJDVJ,train_x,red_square,top_left,2025-04-09_17h38.55.199,HideSeek_v1,2022.2.5,59.94894753419525,
,2,6,5,6,3,0,46,,train_dim1_1,1,30,,,,2,0,2,0,,,,,,,,,0,0,0,0,0,0,0,0,4,0,4,0,,,,,,,,,,,,,,,,,,,,,,,,,,,,,,,,,,,,,,,,,,,,,,,,,,,,,,,,,,,,,,,,30,,,,,,,,1793.403014200041,1793.403014200041,1793.403014200041,1793.403014200041,1793.403014200041,right,0.39335879986174405,0,0,0,99,0.4,0.08,right,0.3150838001165539,,,,,,,,,,,,,,,,,,,,,,,,,,,,,,,,,,,,,,,,,,,,,,,,,,,,,,,,,,,,AMJDVJ,train_x,red_square,top_left,2025-04-09_17h38.55.199,HideSeek_v1,2022.2.5,59.94894753419525,
,2,6,5,6,3,0,46,,train_dim1_1,1,30,,,,2,0,2,0,,,,,,,,,0,0,0,0,0,0,0,0,5,0,5,0,,,,,,,,,,,,,,,,,,,,,,,,,,,,,,,,,,,,,,,,,,,,,,,,,,,,,,,,,,,,,,,,30,,,,,,,,1793.8016186000314,1793.8016186000314,1793.8016186000314,1793.8016186000314,1793.8016186000314,left,1.5109524000436068,0,0,0,99,0.32,0.08,left,1.4353068999480456,,,,,,,,,,,,,,,,,,,,,,,,,,,,,,,,,,,,,,,,,,,,,,,,,,,,,,,,,,,,AMJDVJ,train_x,red_square,top_left,2025-04-09_17h38.55.199,HideSeek_v1,2022.2.5,59.94894753419525,
,2,6,5,6,3,0,46,,train_dim1_1,1,30,,,,2,0,2,0,,,,,,,,,0,0,0,0,0,0,0,0,6,0,6,0,,,,,,,,,,,,,,,,,,,,,,,,,,,,,,,,,,,,,,,,,,,,,,,,,,,,,,,,,,,,,,,,30,,,,,,,,1795.3201492000371,1795.3201492000371,1795.3201492000371,1795.3201492000371,1795.3201492000371,left,0.37720529991202056,0,0,0,99,0.24,0.08,left,0.30450790002942085,,,,,,,,,,,,,,,,,,,,,,,,,,,,,,,,,,,,,,,,,,,,,,,,,,,,,,,,,,,,AMJDVJ,train_x,red_square,top_left,2025-04-09_17h38.55.199,HideSeek_v1,2022.2.5,59.94894753419525,
,2,6,5,6,3,0,46,,train_dim1_1,1,30,,,,2,0,2,0,,,,,,,,,0,0,0,0,0,0,0,0,7,0,7,0,,,,,,,,,,,,,,,,,,,,,,,,,,,,,,,,,,,,,,,,,,,,,,,,,,,,,,,,,,,,,,,,30,,,,,,,,1795.7070183001924,1795.7070183001924,1795.7070183001924,1795.7070183001924,1795.7070183001924,return,1.1754395999014378,1,0,0,1,0.24,0.08,return,1.1012607999145985,0,3,0.24,0.08,,,,,,,,,,,,,,,,,,,,,,,,,,,,,,,,,,,,,,,,,,,,,,,,,,,,,,,,AMJDVJ,train_x,red_square,top_left,2025-04-09_17h38.55.199,HideSeek_v1,2022.2.5,59.94894753419525,
,2,9,2,9,0,0,16,,train_dim1_1,2,30,,,,2,0,2,0,,,,,,,,,0,0,0,0,0,1,1,1,0,0,0,0,,,,,,,,,,,,,,,,,,,,,,,,,stimuli/alien_stimuli/16.png,,,,,,,,,,,,,,,,,,,,,,,,,,,,,stimuli/alien_stimuli/46.png,46,2,3,,,,,,,30,,,,,,,,1814.937957999995,1814.937957999995,1814.937957999995,1814.937957999995,1814.937957999995,return,3.7065646999981254,2,0,0,1,0,0.32,return,3.5905620001722127,0,3,0,0.32,1813.3555752001703,1814.937957999995,0.24,0.08,0.0,0.24,0.08,0.24,0.12,0.24,0.08,1798.4574211,1798.4574211,1798.4574211,1798.4574211,1798.4574211,1798.4574211,1798.4574211,1798.4574211,1798.4433445501609,15.014573499793187,return,14.877453999826685,,,,,,,,,,,,,,,,,,,,,,,,,,,,,,,,,AMJDVJ,train_x,red_square,top_left,2025-04-09_17h38.55.199,HideSeek_v1,2022.2.5,59.94894753419525,
,4,9,5,9,1,0,26,,train_dim1_1,3,30,,,,2,0,2,0,,,,,,,,,0,0,0,0,0,2,2,2,0,0,0,0,,,,,,,,,,,,,,,,,,,,,,,,,stimuli/alien_stimuli/26.png,,,,,,,,,,,,,,,,,,,,,,,,,,,,,stimuli/alien_stimuli/16.png,16,2,4,,,,,,,30,,,,,,,,1823.9660910000093,1823.9660910000093,1823.9660910000093,1823.9660910000093,1823.9660910000093,right,3.8068482000380754,2,0,0,99,0.24,0.32,right,3.6864928000140935,,,,,1822.3796979000326,1823.9660910000093,0,0.32,0.0,0.0,0.32,0,0.0,0,0.32,1820.2152186001185,1820.2152186001185,1820.2152186001185,1820.2152186001185,1820.2152186001185,1820.2152186001185,1820.2152186001185,1820.2152186001185,1820.1948250001763,2.303881200030446,return,2.1427209000103176,,,,,,,,,,,,,,,,,,,,,,,,,,,,,,,,,AMJDVJ,train_x,red_square,top_left,2025-04-09_17h38.55.199,HideSeek_v1,2022.2.5,59.94894753419525,
,4,9,5,9,1,0,26,,train_dim1_1,3,30,,,,2,0,2,0,,,,,,,,,0,0,0,0,0,2,2,2,1,0,1,0,,,,,,,,,,,,,,,,,,,,,,,,,,,,,,,,,,,,,,,,,,,,,,,,,,,,,,,,,,,,,,,,30,,,,,,,,1827.752134000184,1827.752134000184,1827.752134000184,1827.752134000184,1827.752134000184,left,3.3620130999479443,2,0,0,99,0.15999999999999998,0.32,left,3.281200800091028,,,,,,,,,,,,,,,,,,,,,,,,,,,,,,,,,,,,,,,,,,,,,,,,,,,,,,,,,,,,AMJDVJ,train_x,red_square,top_left,2025-04-09_17h38.55.199,HideSeek_v1,2022.2.5,59.94894753419525,
,4,9,5,9,1,0,26,,train_dim1_1,3,30,,,,2,0,2,0,,,,,,,,,0,0,0,0,0,2,2,2,2,0,2,0,,,,,,,,,,,,,,,,,,,,,,,,,,,,,,,,,,,,,,,,,,,,,,,,,,,,,,,,,,,,,,,,30,,,,,,,,1831.1213346000295,1831.1213346000295,1831.1213346000295,1831.1213346000295,1831.1213346000295,return,3.895997299812734,2,1,0,0,0.15999999999999998,0.32,return,3.812781000044197,0,3,0.15999999999999998,0.32,,,,,,,,,,,,,,,,,,,,,,,,,,,,,,,,,,,,,,,,,,,,,,,,,,,,,,,,AMJDVJ,train_x,red_square,top_left,2025-04-09_17h38.55.199,HideSeek_v1,2022.2.5,59.94894753419525,
,2,8,6,8,4,0,56,,train_dim1_1,4,30,,,,2,0,2,0,,,,,,,,,0,0,0,0,0,3,3,3,0,0,0,0,,,,,,,,,,,,,,,,,,,,,,,,,stimuli/alien_stimuli/56.png,,,,,,,,,,,,,,,,,,,,,,,,,,,,,stimuli/alien_stimuli/26.png,26,4,5,,,,,,,30,,,,,,,,1852.8822139000986,1852.8822139000986,1852.8822139000986,1852.8822139000986,1852.8822139000986,right,2.386651499895379,2,1,0,99,0.08,0.24,right,2.2841763000469655,,,,,1851.3036450000945,1852.8822139000986,0.24,0.32,0.0,0.08,0.32,0.24,0.2,0.24,0.32,1836.6010356000625,1836.6010356000625,1836.6010356000625,1836.6010356000625,1836.6010356000625,1836.6010356000625,1836.6010356000625,1836.6010356000625,1836.5916817002465,14.831132099963725,return,14.686102599836886,,,,,,,,,,,,,,,,,,,,,,,,,,,,,,,,,AMJDVJ,train_x,red_square,top_left,2025-04-09_17h38.55.199,HideSeek_v1,2022.2.5,59.94894753419525,
,2,8,6,8,4,0,56,,train_dim1_1,4,30,,,,2,0,2,0,,,,,,,,,0,0,0,0,0,3,3,3,1,0,1,0,,,,,,,,,,,,,,,,,,,,,,,,,,,,,,,,,,,,,,,,,,,,,,,,,,,,,,,,,,,,,,,,30,,,,,,,,1855.2585558001883,1855.2585558001883,1855.2585558001883,1855.2585558001883,1855.2585558001883,right,0.37473740009590983,2,1,0,99,0.16,0.24,right,0.2958718000445515,,,,,,,,,,,,,,,,,,,,,,,,,,,,,,,,,,,,,,,,,,,,,,,,,,,,,,,,,,,,AMJDVJ,train_x,red_square,top_left,2025-04-09_17h38.55.199,HideSeek_v1,2022.2.5,59.94894753419525,
,2,8,6,8,4,0,56,,train_dim1_1,4,30,,,,2,0,2,0,,,,,,,,,0,0,0,0,0,3,3,3,2,0,2,0,,,,,,,,,,,,,,,,,,,,,,,,,,,,,,,,,,,,,,,,,,,,,,,,,,,,,,,,,,,,,,,,30,,,,,,,,1855.6390423001722,1855.6390423001722,1855.6390423001722,1855.6390423001722,1855.6390423001722,right,0.32648409996181726,2,1,0,99,0.24,0.24,right,0.24223689991049469,,,,,,,,,,,,,,,,,,,,,,,,,,,,,,,,,,,,,,,,,,,,,,,,,,,,,,,,,,,,AMJDVJ,train_x,red_square,top_left,2025-04-09_17h38.55.199,HideSeek_v1,2022.2.5,59.94894753419525,
,2,8,6,8,4,0,56,,train_dim1_1,4,30,,,,2,0,2,0,,,,,,,,,0,0,0,0,0,3,3,3,3,0,3,0,,,,,,,,,,,,,,,,,,,,,,,,,,,,,,,,,,,,,,,,,,,,,,,,,,,,,,,,,,,,,,,,30,,,,,,,,1855.9724877001718,1855.9724877001718,1855.9724877001718,1855.9724877001718,1855.9724877001718,right,0.326858599903062,2,1,0,99,0.32,0.24,right,0.24212830001488328,,,,,,,,,,,,,,,,,,,,,,,,,,,,,,,,,,,,,,,,,,,,,,,,,,,,,,,,,,,,AMJDVJ,train_x,red_square,top_left,2025-04-09_17h38.55.199,HideSeek_v1,2022.2.5,59.94894753419525,
,2,8,6,8,4,0,56,,train_dim1_1,4,30,,,,2,0,2,0,,,,,,,,,0,0,0,0,0,3,3,3,4,0,4,0,,,,,,,,,,,,,,,,,,,,,,,,,,,,,,,,,,,,,,,,,,,,,,,,,,,,,,,,,,,,,,,,30,,,,,,,,1856.3067891001701,1856.3067891001701,1856.3067891001701,1856.3067891001701,1856.3067891001701,right,0.39311360009014606,2,1,0,99,0.4,0.24,right,0.30812090006656945,,,,,,,,,,,,,,,,,,,,,,,,,,,,,,,,,,,,,,,,,,,,,,,,,,,,,,,,,,,,AMJDVJ,train_x,red_square,top_left,2025-04-09_17h38.55.199,HideSeek_v1,2022.2.5,59.94894753419525,
,2,8,6,8,4,0,56,,train_dim1_1,4,30,,,,2,0,2,0,,,,,,,,,0,0,0,0,0,3,3,3,5,0,5,0,,,,,,,,,,,,,,,,,,,,,,,,,,,,,,,,,,,,,,,,,,,,,,,,,,,,,,,,,,,,,,,,30,,,,,,,,1856.7063000001945,1856.7063000001945,1856.7063000001945,1856.7063000001945,1856.7063000001945,left,0.8772380999289453,2,1,0,99,0.32,0.24,left,0.8035778999328613,,,,,,,,,,,,,,,,,,,,,,,,,,,,,,,,,,,,,,,,,,,,,,,,,,,,,,,,,,,,AMJDVJ,train_x,red_square,top_left,2025-04-09_17h38.55.199,HideSeek_v1,2022.2.5,59.94894753419525,
,2,8,6,8,4,0,56,,train_dim1_1,4,30,,,,2,0,2,0,,,,,,,,,0,0,0,0,0,3,3,3,6,0,6,0,,,,,,,,,,,,,,,,,,,,,,,,,,,,,,,,,,,,,,,,,,,,,,,,,,,,,,,,,,,,,,,,30,,,,,,,,1857.5912243002094,1857.5912243002094,1857.5912243002094,1857.5912243002094,1857.5912243002094,return,0.793024699902162,3,0,0,1,0.32,0.24,return,0.7104990999214351,0,7,0.32,0.24,,,,,,,,,,,,,,,,,,,,,,,,,,,,,,,,,,,,,,,,,,,,,,,,,,,,,,,,AMJDVJ,train_x,red_square,top_left,2025-04-09_17h38.55.199,HideSeek_v1,2022.2.5,59.94894753419525,
,0,7,5,7,5,0,66,,train_dim1_1,5,30,,,,2,0,2,0,,,,,,,,,0,0,0,0,0,4,4,4,0,0,0,0,,,,,,,,,,,,,,,,,,,,,,,,,stimuli/alien_stimuli/66.png,,,,,,,,,,,,,,,,,,,,,,,,,,,,,stimuli/alien_stimuli/56.png,56,2,6,,,,,,,30,,,,,,,,1864.053047500085,1864.053047500085,1864.053047500085,1864.053047500085,1864.053047500085,right,1.117450000019744,3,0,0,99,-0.08,0.16,right,1.0047530999872833,,,,,1862.4630652000196,1864.053047500085,0.32,0.24,0.0,0.32,0.24,0.32,0.16,0.32,0.24,1859.9621928001288,1859.9621928001288,1859.9621928001288,1859.9621928001288,1859.9621928001288,1859.9621928001288,1859.9621928001288,1859.9621928001288,1859.944402150065,2.620708000147715,return,2.4724629998672754,,,,,,,,,,,,,,,,,,,,,,,,,,,,,,,,,AMJDVJ,train_x,red_square,top_left,2025-04-09_17h38.55.199,HideSeek_v1,2022.2.5,59.94894753419525,
,0,7,5,7,5,0,66,,train_dim1_1,5,30,,,,2,0,2,0,,,,,,,,,0,0,0,0,0,4,4,4,1,0,1,0,,,,,,,,,,,,,,,,,,,,,,,,,,,,,,,,,,,,,,,,,,,,,,,,,,,,,,,,,,,,,,,,30,,,,,,,,1865.1458474001847,1865.1458474001847,1865.1458474001847,1865.1458474001847,1865.1458474001847,right,0.22613040008582175,3,0,0,99,0.0,0.16,right,0.13764310022816062,,,,,,,,,,,,,,,,,,,,,,,,,,,,,,,,,,,,,,,,,,,,,,,,,,,,,,,,,,,,AMJDVJ,train_x,red_square,top_left,2025-04-09_17h38.55.199,HideSeek_v1,2022.2.5,59.94894753419525,
,0,7,5,7,5,0,66,,train_dim1_1,5,30,,,,2,0,2,0,,,,,,,,,0,0,0,0,0,4,4,4,2,0,2,0,,,,,,,,,,,,,,,,,,,,,,,,,,,,,,,,,,,,,,,,,,,,,,,,,,,,,,,,,,,,,,,,30,,,,,,,,1865.3783662000205,1865.3783662000205,1865.3783662000205,1865.3783662000205,1865.3783662000205,right,0.276698200032115,3,0,0,99,0.08,0.16,right,0.19467679993249476,,,,,,,,,,,,,,,,,,,,,,,,,,,,,,,,,,,,,,,,,,,,,,,,,,,,,,,,,,,,AMJDVJ,train_x,red_square,top_left,2025-04-09_17h38.55.199,HideSeek_v1,2022.2.5,59.94894753419525,
,0,7,5,7,5,0,66,,train_dim1_1,5,30,,,,2,0,2,0,,,,,,,,,0,0,0,0,0,4,4,4,3,0,3,0,,,,,,,,,,,,,,,,,,,,,,,,,,,,,,,,,,,,,,,,,,,,,,,,,,,,,,,,,,,,,,,,30,,,,,,,,1865.6632860000245,1865.6632860000245,1865.6632860000245,1865.6632860000245,1865.6632860000245,right,0.2932788000907749,3,0,0,99,0.16,0.16,right,0.2189790999982506,,,,,,,,,,,,,,,,,,,,,,,,,,,,,,,,,,,,,,,,,,,,,,,,,,,,,,,,,,,,AMJDVJ,train_x,red_square,top_left,2025-04-09_17h38.55.199,HideSeek_v1,2022.2.5,59.94894753419525,
,0,7,5,7,5,0,66,,train_dim1_1,5,30,,,,2,0,2,0,,,,,,,,,0,0,0,0,0,4,4,4,4,0,4,0,,,,,,,,,,,,,,,,,,,,,,,,,,,,,,,,,,,,,,,,,,,,,,,,,,,,,,,,,,,,,,,,30,,,,,,,,1865.96284510009,1865.96284510009,1865.96284510009,1865.96284510009,1865.96284510009,right,0.34247189993038774,3,0,0,99,0.24,0.16,right,0.26134410011582077,,,,,,,,,,,,,,,,,,,,,,,,,,,,,,,,,,,,,,,,,,,,,,,,,,,,,,,,,,,,AMJDVJ,train_x,red_square,top_left,2025-04-09_17h38.55.199,HideSeek_v1,2022.2.5,59.94894753419525,
,0,7,5,7,5,0,66,,train_dim1_1,5,30,,,,2,0,2,0,,,,,,,,,0,0,0,0,0,4,4,4,5,0,5,0,,,,,,,,,,,,,,,,,,,,,,,,,,,,,,,,,,,,,,,,,,,,,,,,,,,,,,,,,,,,,,,,30,,,,,,,,1866.3121353001334,1866.3121353001334,1866.3121353001334,1866.3121353001334,1866.3121353001334,return,0.5435752000194043,4,0,0,1,0.24,0.16,return,0.4557744001504034,0,12,0.24,0.16,,,,,,,,,,,,,,,,,,,,,,,,,,,,,,,,,,,,,,,,,,,,,,,,,,,,,,,,AMJDVJ,train_x,red_square,top_left,2025-04-09_17h38.55.199,HideSeek_v1,2022.2.5,59.94894753419525,
,0,5,1,5,1,0,26,,train_dim1_1,6,30,,,,2,0,2,0,,,,,,,,,0,0,0,0,0,5,5,5,0,0,0,0,,,,,,,,,,,,,,,,,,,,,,,,,stimuli/alien_stimuli/26.png,,,,,,,,,,,,,,,,,,,,,,,,,,,,,stimuli/alien_stimuli/66.png,66,0,7,,,,,,,30,,,,,,,,1872.6339936000295,1872.6339936000295,1872.6339936000295,1872.6339936000295,1872.6339936000295,right,6.058804900152609,4,0,0,99,-0.08,0,right,5.963384100003168,,,,,1871.0702430000529,1872.6339936000295,0.24,0.16,0.0,0.4,0.16,0.24,0.039999999999999994,0.24,0.16,1868.4223424000666,1868.4223424000666,1868.4223424000666,1868.4223424000666,1868.4223424000666,1868.4223424000666,1868.4223424000666,1868.4223424000666,1868.4014900001698,2.754302099812776,return,2.631040000123903,,,,,,,,,,,,,,,,,,,,,,,,,,,,,,,,,AMJDVJ,train_x,red_square,top_left,2025-04-09_17h38.55.199,HideSeek_v1,2022.2.5,59.94894753419525,
,0,5,1,5,1,0,26,,train_dim1_1,6,30,,,,2,0,2,0,,,,,,,,,0,0,0,0,0,5,5,5,1,0,1,0,,,,,,,,,,,,,,,,,,,,,,,,,,,,,,,,,,,,,,,,,,,,,,,,,,,,,,,,,,,,,,,,30,,,,,,,,1878.6941756000742,1878.6941756000742,1878.6941756000742,1878.6941756000742,1878.6941756000742,right,0.3595325998030603,4,0,0,99,0.0,0,right,0.2827239998150617,,,,,,,,,,,,,,,,,,,,,,,,,,,,,,,,,,,,,,,,,,,,,,,,,,,,,,,,,,,,AMJDVJ,train_x,red_square,top_left,2025-04-09_17h38.55.199,HideSeek_v1,2022.2.5,59.94894753419525,
,0,5,1,5,1,0,26,,train_dim1_1,6,30,,,,2,0,2,0,,,,,,,,,0,0,0,0,0,5,5,5,2,0,2,0,,,,,,,,,,,,,,,,,,,,,,,,,,,,,,,,,,,,,,,,,,,,,,,,,,,,,,,,,,,,,,,,30,,,,,,,,1879.0595853000414,1879.0595853000414,1879.0595853000414,1879.0595853000414,1879.0595853000414,left,0.6105748999398202,4,0,0,99,-0.08,0,left,0.528104400029406,,,,,,,,,,,,,,,,,,,,,,,,,,,,,,,,,,,,,,,,,,,,,,,,,,,,,,,,,,,,AMJDVJ,train_x,red_square,top_left,2025-04-09_17h38.55.199,HideSeek_v1,2022.2.5,59.94894753419525,
,0,5,1,5,1,0,26,,train_dim1_1,6,30,,,,2,0,2,0,,,,,,,,,0,0,0,0,0,5,5,5,3,0,3,0,,,,,,,,,,,,,,,,,,,,,,,,,,,,,,,,,,,,,,,,,,,,,,,,,,,,,,,,,,,,,,,,30,,,,,,,,1879.67755890009,1879.67755890009,1879.67755890009,1879.67755890009,1879.67755890009,return,0.6766925000119954,5,0,0,1,-0.08,0,return,0.5997295998968184,0,13,-0.08,0,,,,,,,,,,,,,,,,,,,,,,,,,,,,,,,,,,,,,,,,,,,,,,,,,,,,,,,,AMJDVJ,train_x,red_square,top_left,2025-04-09_17h38.55.199,HideSeek_v1,2022.2.5,59.94894753419525,
,3,5,8,5,5,0,66,,train_dim1_1,7,30,,,,2,0,2,0,,,,,,,,,0,0,0,0,0,6,6,6,0,0,0,0,,,,,,,,,,,,,,,,,,,,,,,,,stimuli/alien_stimuli/66.png,,,,,,,,,,,,,,,,,,,,,,,,,,,,,stimuli/alien_stimuli/26.png,26,0,8,,,,,,,30,,,,,,,,1886.3787159000058,1886.3787159000058,1886.3787159000058,1886.3787159000058,1886.3787159000058,right,1.1678678998723626,5,0,0,99,0.16,0,right,1.0812329000327736,,,,,1884.8148975002114,1886.3787159000058,-0.08,0,0.0,0.08,0.0,-0.08,-0.12,-0.08,0,1881.9217980999965,1881.9217980999965,1881.9217980999965,1881.9217980999965,1881.9217980999965,1881.9217980999965,1881.9217980999965,1881.9217980999965,1881.91255525006,3.00457219989039,return,2.8762074999976903,,,,,,,,,,,,,,,,,,,,,,,,,,,,,,,,,AMJDVJ,train_x,red_square,top_left,2025-04-09_17h38.55.199,HideSeek_v1,2022.2.5,59.94894753419525,
,3,5,8,5,5,0,66,,train_dim1_1,7,30,,,,2,0,2,0,,,,,,,,,0,0,0,0,0,6,6,6,1,0,1,0,,,,,,,,,,,,,,,,,,,,,,,,,,,,,,,,,,,,,,,,,,,,,,,,,,,,,,,,,,,,,,,,30,,,,,,,,1887.5469794000965,1887.5469794000965,1887.5469794000965,1887.5469794000965,1887.5469794000965,right,0.20939130010083318,5,0,0,99,0.24,0,right,0.1306169000454247,,,,,,,,,,,,,,,,,,,,,,,,,,,,,,,,,,,,,,,,,,,,,,,,,,,,,,,,,,,,AMJDVJ,train_x,red_square,top_left,2025-04-09_17h38.55.199,HideSeek_v1,2022.2.5,59.94894753419525,
,3,5,8,5,5,0,66,,train_dim1_1,7,30,,,,2,0,2,0,,,,,,,,,0,0,0,0,0,6,6,6,2,0,2,0,,,,,,,,,,,,,,,,,,,,,,,,,,,,,,,,,,,,,,,,,,,,,,,,,,,,,,,,,,,,,,,,30,,,,,,,,1887.7627578000538,1887.7627578000538,1887.7627578000538,1887.7627578000538,1887.7627578000538,right,0.20999849983491004,5,0,0,99,0.32,0,right,0.12860779999755323,,,,,,,,,,,,,,,,,,,,,,,,,,,,,,,,,,,,,,,,,,,,,,,,,,,,,,,,,,,,AMJDVJ,train_x,red_square,top_left,2025-04-09_17h38.55.199,HideSeek_v1,2022.2.5,59.94894753419525,
,3,5,8,5,5,0,66,,train_dim1_1,7,30,,,,2,0,2,0,,,,,,,,,0,0,0,0,0,6,6,6,3,0,3,0,,,,,,,,,,,,,,,,,,,,,,,,,,,,,,,,,,,,,,,,,,,,,,,,,,,,,,,,,,,,,,,,30,,,,,,,,1887.9808031001594,1887.9808031001594,1887.9808031001594,1887.9808031001594,1887.9808031001594,right,0.2263583999592811,5,0,0,99,0.4,0,right,0.13888930017128587,,,,,,,,,,,,,,,,,,,,,,,,,,,,,,,,,,,,,,,,,,,,,,,,,,,,,,,,,,,,AMJDVJ,train_x,red_square,top_left,2025-04-09_17h38.55.199,HideSeek_v1,2022.2.5,59.94894753419525,
,3,5,8,5,5,0,66,,train_dim1_1,7,30,,,,2,0,2,0,,,,,,,,,0,0,0,0,0,6,6,6,4,0,4,0,,,,,,,,,,,,,,,,,,,,,,,,,,,,,,,,,,,,,,,,,,,,,,,,,,,,,,,,,,,,,,,,30,,,,,,,,1888.2131619001739,1888.2131619001739,1888.2131619001739,1888.2131619001739,1888.2131619001739,right,0.24325399985536933,5,0,0,99,0.48000000000000004,0,right,0.1677558000665158,,,,,,,,,,,,,,,,,,,,,,,,,,,,,,,,,,,,,,,,,,,,,,,,,,,,,,,,,,,,AMJDVJ,train_x,red_square,top_left,2025-04-09_17h38.55.199,HideSeek_v1,2022.2.5,59.94894753419525,
,3,5,8,5,5,0,66,,train_dim1_1,7,30,,,,2,0,2,0,,,,,,,,,0,0,0,0,0,6,6,6,5,0,5,0,,,,,,,,,,,,,,,,,,,,,,,,,,,,,,,,,,,,,,,,,,,,,,,,,,,,,,,,,,,,,,,,30,,,,,,,,1888.4643071000464,1888.4643071000464,1888.4643071000464,1888.4643071000464,1888.4643071000464,return,0.5934178000316024,6,0,0,1,0.48000000000000004,0,return,0.5161546000745147,0,18,0.48000000000000004,0,,,,,,,,,,,,,,,,,,,,,,,,,,,,,,,,,,,,,,,,,,,,,,,,,,,,,,,,AMJDVJ,train_x,red_square,top_left,2025-04-09_17h38.55.199,HideSeek_v1,2022.2.5,59.94894753419525,
,0,9,3,9,3,0,46,,train_dim1_1,8,30,,,,2,0,2,0,,,,,,,,,0,0,0,0,0,7,7,7,0,0,0,0,,,,,,,,,,,,,,,,,,,,,,,,,stimuli/alien_stimuli/46.png,,,,,,,,,,,,,,,,,,,,,,,,,,,,,stimuli/alien_stimuli/66.png,66,3,9,,,,,,,30,,,,,,,,1894.8978571000043,1894.8978571000043,1894.8978571000043,1894.8978571000043,1894.8978571000043,right,1.9887081999331713,6,0,0,99,-0.08,0.32,right,1.9039194001816213,,,,,1893.3387079001404,1894.8978571000043,0.48,0,0.0,0.4,0.0,0.48,0.27999999999999997,0.48,0,1890.6370038001332,1890.6370038001332,1890.6370038001332,1890.6370038001332,1890.6370038001332,1890.6370038001332,1890.6370038001332,1890.6370038001332,1890.619963450078,2.8208731999620795,return,2.680622899904847,,,,,,,,,,,,,,,,,,,,,,,,,,,,,,,,,AMJDVJ,train_x,red_square,top_left,2025-04-09_17h38.55.199,HideSeek_v1,2022.2.5,59.94894753419525,
,0,9,3,9,3,0,46,,train_dim1_1,8,30,,,,2,0,2,0,,,,,,,,,0,0,0,0,0,7,7,7,1,0,1,0,,,,,,,,,,,,,,,,,,,,,,,,,,,,,,,,,,,,,,,,,,,,,,,,,,,,,,,,,,,,,,,,30,,,,,,,,1896.8882118000183,1896.8882118000183,1896.8882118000183,1896.8882118000183,1896.8882118000183,right,0.27591309999115765,6,0,0,99,0.0,0.32,right,0.20308100013062358,,,,,,,,,,,,,,,,,,,,,,,,,,,,,,,,,,,,,,,,,,,,,,,,,,,,,,,,,,,,AMJDVJ,train_x,red_square,top_left,2025-04-09_17h38.55.199,HideSeek_v1,2022.2.5,59.94894753419525,
,0,9,3,9,3,0,46,,train_dim1_1,8,30,,,,2,0,2,0,,,,,,,,,0,0,0,0,0,7,7,7,2,0,2,0,,,,,,,,,,,,,,,,,,,,,,,,,,,,,,,,,,,,,,,,,,,,,,,,,,,,,,,,,,,,,,,,30,,,,,,,,1897.1715027000755,1897.1715027000755,1897.1715027000755,1897.1715027000755,1897.1715027000755,right,0.27676500007510185,6,0,0,99,0.08,0.32,right,0.19937589997425675,,,,,,,,,,,,,,,,,,,,,,,,,,,,,,,,,,,,,,,,,,,,,,,,,,,,,,,,,,,,AMJDVJ,train_x,red_square,top_left,2025-04-09_17h38.55.199,HideSeek_v1,2022.2.5,59.94894753419525,
,0,9,3,9,3,0,46,,train_dim1_1,8,30,,,,2,0,2,0,,,,,,,,,0,0,0,0,0,7,7,7,3,0,3,0,,,,,,,,,,,,,,,,,,,,,,,,,,,,,,,,,,,,,,,,,,,,,,,,,,,,,,,,,,,,,,,,30,,,,,,,,1897.4556206001434,1897.4556206001434,1897.4556206001434,1897.4556206001434,1897.4556206001434,right,0.27635649987496436,6,0,0,99,0.16,0.32,right,0.1901132999919355,,,,,,,,,,,,,,,,,,,,,,,,,,,,,,,,,,,,,,,,,,,,,,,,,,,,,,,,,,,,AMJDVJ,train_x,red_square,top_left,2025-04-09_17h38.55.199,HideSeek_v1,2022.2.5,59.94894753419525,
,0,9,3,9,3,0,46,,train_dim1_1,8,30,,,,2,0,2,0,,,,,,,,,0,0,0,0,0,7,7,7,4,0,4,0,,,,,,,,,,,,,,,,,,,,,,,,,,,,,,,,,,,,,,,,,,,,,,,,,,,,,,,,,,,,,,,,30,,,,,,,,1897.740045200102,1897.740045200102,1897.740045200102,1897.740045200102,1897.740045200102,right,0.29345580004155636,6,0,0,99,0.24,0.32,right,0.21185189997777343,,,,,,,,,,,,,,,,,,,,,,,,,,,,,,,,,,,,,,,,,,,,,,,,,,,,,,,,,,,,AMJDVJ,train_x,red_square,top_left,2025-04-09_17h38.55.199,HideSeek_v1,2022.2.5,59.94894753419525,
,0,9,3,9,3,0,46,,train_dim1_1,8,30,,,,2,0,2,0,,,,,,,,,0,0,0,0,0,7,7,7,5,0,5,0,,,,,,,,,,,,,,,,,,,,,,,,,,,,,,,,,,,,,,,,,,,,,,,,,,,,,,,,,,,,,,,,30,,,,,,,,1898.0416872000787,1898.0416872000787,1898.0416872000787,1898.0416872000787,1898.0416872000787,left,1.143728399882093,6,0,0,99,0.15999999999999998,0.32,left,1.0600789999589324,,,,,,,,,,,,,,,,,,,,,,,,,,,,,,,,,,,,,,,,,,,,,,,,,,,,,,,,,,,,AMJDVJ,train_x,red_square,top_left,2025-04-09_17h38.55.199,HideSeek_v1,2022.2.5,59.94894753419525,
,0,9,3,9,3,0,46,,train_dim1_1,8,30,,,,2,0,2,0,,,,,,,,,0,0,0,0,0,7,7,7,6,0,6,0,,,,,,,,,,,,,,,,,,,,,,,,,,,,,,,,,,,,,,,,,,,,,,,,,,,,,,,,,,,,,,,,30,,,,,,,,1899.1896781001706,1899.1896781001706,1899.1896781001706,1899.1896781001706,1899.1896781001706,left,0.34331430005840957,6,0,0,99,0.07999999999999997,0.32,left,0.26142159989103675,,,,,,,,,,,,,,,,,,,,,,,,,,,,,,,,,,,,,,,,,,,,,,,,,,,,,,,,,,,,AMJDVJ,train_x,red_square,top_left,2025-04-09_17h38.55.199,HideSeek_v1,2022.2.5,59.94894753419525,
,0,9,3,9,3,0,46,,train_dim1_1,8,30,,,,2,0,2,0,,,,,,,,,0,0,0,0,0,7,7,7,7,0,7,0,,,,,,,,,,,,,,,,,,,,,,,,,,,,,,,,,,,,,,,,,,,,,,,,,,,,,,,,,,,,,,,,30,,,,,,,,1899.5399971001316,1899.5399971001316,1899.5399971001316,1899.5399971001316,1899.5399971001316,return,0.44336139992810786,7,0,0,1,0.07999999999999997,0.32,return,0.3701845998875797,0,21,0.07999999999999997,0.32,,,,,,,,,,,,,,,,,,,,,,,,,,,,,,,,,,,,,,,,,,,,,,,,,,,,,,,,AMJDVJ,train_x,red_square,top_left,2025-04-09_17h38.55.199,HideSeek_v1,2022.2.5,59.94894753419525,
,1,5,5,5,4,0,56,,train_dim1_1,9,30,,,,2,0,2,0,,,,,,,,,0,0,0,0,0,8,8,8,0,0,0,0,,,,,,,,,,,,,,,,,,,,,,,,,stimuli/alien_stimuli/56.png,,,,,,,,,,,,,,,,,,,,,,,,,,,,,stimuli/alien_stimuli/46.png,46,0,10,,,,,,,30,,,,,,,,1904.5980277000926,1904.5980277000926,1904.5980277000926,1904.5980277000926,1904.5980277000926,right,1.4390014000236988,7,0,0,99,0.0,0,right,1.3367298000957817,,,,,1903.0300240002107,1904.5980277000926,0.08,0.32,0.0,0.24,0.32,0.08,-0.04,0.08,0.32,1901.5659527000971,1901.5659527000971,1901.5659527000971,1901.5659527000971,1901.5659527000971,1901.5659527000971,1901.5659527000971,1901.5659527000971,1901.5455114501065,1.586709599941969,return,1.4381408002227545,,,,,,,,,,,,,,,,,,,,,,,,,,,,,,,,,AMJDVJ,train_x,red_square,top_left,2025-04-09_17h38.55.199,HideSeek_v1,2022.2.5,59.94894753419525,
,1,5,5,5,4,0,56,,train_dim1_1,9,30,,,,2,0,2,0,,,,,,,,,0,0,0,0,0,8,8,8,1,0,1,0,,,,,,,,,,,,,,,,,,,,,,,,,,,,,,,,,,,,,,,,,,,,,,,,,,,,,,,,,,,,,,,,30,,,,,,,,1906.0316475001164,1906.0316475001164,1906.0316475001164,1906.0316475001164,1906.0316475001164,right,0.30945990001782775,7,0,0,99,0.08,0,right,0.22041499987244606,,,,,,,,,,,,,,,,,,,,,,,,,,,,,,,,,,,,,,,,,,,,,,,,,,,,,,,,,,,,AMJDVJ,train_x,red_square,top_left,2025-04-09_17h38.55.199,HideSeek_v1,2022.2.5,59.94894753419525,
,1,5,5,5,4,0,56,,train_dim1_1,9,30,,,,2,0,2,0,,,,,,,,,0,0,0,0,0,8,8,8,2,0,2,0,,,,,,,,,,,,,,,,,,,,,,,,,,,,,,,,,,,,,,,,,,,,,,,,,,,,,,,,,,,,,,,,30,,,,,,,,1906.3480315001216,1906.3480315001216,1906.3480315001216,1906.3480315001216,1906.3480315001216,right,0.2936077998019755,7,0,0,99,0.16,0,right,0.2048422999214381,,,,,,,,,,,,,,,,,,,,,,,,,,,,,,,,,,,,,,,,,,,,,,,,,,,,,,,,,,,,AMJDVJ,train_x,red_square,top_left,2025-04-09_17h38.55.199,HideSeek_v1,2022.2.5,59.94894753419525,
,1,5,5,5,4,0,56,,train_dim1_1,9,30,,,,2,0,2,0,,,,,,,,,0,0,0,0,0,8,8,8,3,0,3,0,,,,,,,,,,,,,,,,,,,,,,,,,,,,,,,,,,,,,,,,,,,,,,,,,,,,,,,,,,,,,,,,30,,,,,,,,1906.648686400149,1906.648686400149,1906.648686400149,1906.648686400149,1906.648686400149,right,0.2431217001285404,7,0,0,99,0.24,0,right,0.15847010002471507,,,,,,,,,,,,,,,,,,,,,,,,,,,,,,,,,,,,,,,,,,,,,,,,,,,,,,,,,,,,AMJDVJ,train_x,red_square,top_left,2025-04-09_17h38.55.199,HideSeek_v1,2022.2.5,59.94894753419525,
,1,5,5,5,4,0,56,,train_dim1_1,9,30,,,,2,0,2,0,,,,,,,,,0,0,0,0,0,8,8,8,4,0,4,0,,,,,,,,,,,,,,,,,,,,,,,,,,,,,,,,,,,,,,,,,,,,,,,,,,,,,,,,,,,,,,,,30,,,,,,,,1906.898126900196,1906.898126900196,1906.898126900196,1906.898126900196,1906.898126900196,right,0.3269847999326885,7,0,0,99,0.32,0,right,0.23978859977796674,,,,,,,,,,,,,,,,,,,,,,,,,,,,,,,,,,,,,,,,,,,,,,,,,,,,,,,,,,,,AMJDVJ,train_x,red_square,top_left,2025-04-09_17h38.55.199,HideSeek_v1,2022.2.5,59.94894753419525,
,1,5,5,5,4,0,56,,train_dim1_1,9,30,,,,2,0,2,0,,,,,,,,,0,0,0,0,0,8,8,8,5,0,5,0,,,,,,,,,,,,,,,,,,,,,,,,,,,,,,,,,,,,,,,,,,,,,,,,,,,,,,,,,,,,,,,,30,,,,,,,,1907.2328695000615,1907.2328695000615,1907.2328695000615,1907.2328695000615,1907.2328695000615,left,0.843461100012064,7,0,0,99,0.24,0,left,0.7664345998782665,,,,,,,,,,,,,,,,,,,,,,,,,,,,,,,,,,,,,,,,,,,,,,,,,,,,,,,,,,,,AMJDVJ,train_x,red_square,top_left,2025-04-09_17h38.55.199,HideSeek_v1,2022.2.5,59.94894753419525,
,1,5,5,5,4,0,56,,train_dim1_1,9,30,,,,2,0,2,0,,,,,,,,,0,0,0,0,0,8,8,8,6,0,6,0,,,,,,,,,,,,,,,,,,,,,,,,,,,,,,,,,,,,,,,,,,,,,,,,,,,,,,,,,,,,,,,,30,,,,,,,,1908.0820576001424,1908.0820576001424,1908.0820576001424,1908.0820576001424,1908.0820576001424,return,0.4433297000359744,8,0,0,1,0.24,0,return,0.36678009992465377,0,25,0.24,0,,,,,,,,,,,,,,,,,,,,,,,,,,,,,,,,,,,,,,,,,,,,,,,,,,,,,,,,AMJDVJ,train_x,red_square,top_left,2025-04-09_17h38.55.199,HideSeek_v1,2022.2.5,59.94894753419525,
,0,8,0,8,0,0,16,,train_dim1_1,10,30,,,,2,0,2,0,,,,,,,,,0,0,0,0,0,9,9,9,0,0,0,0,,,,,,,,,,,,,,,,,,,,,,,,,stimuli/alien_stimuli/16.png,,,,,,,,,,,,,,,,,,,,,,,,,,,,,stimuli/alien_stimuli/56.png,56,1,11,,,,,,,30,,,,,,,,1913.4671954000369,1913.4671954000369,1913.4671954000369,1913.4671954000369,1913.4671954000369,return,5.5409622001461685,9,0,0,1,-0.16,0.24,return,5.4326663999818265,0,25,-0.16,0.24,1911.8875402000267,1913.4671954000369,0.24,0,0.0,0.32,0.0,0.24,0.07999999999999999,0.24,0,1910.0938857002184,1910.0938857002184,1910.0938857002184,1910.0938857002184,1910.0938857002184,1910.0938857002184,1910.0938857002184,1910.0938857002184,1910.0859343502207,1.9037049999460578,return,1.7711233999580145,,,,,,,,,,,,,,,,,,,,,,,,,,,,,,,,,AMJDVJ,train_x,red_square,top_left,2025-04-09_17h38.55.199,HideSeek_v1,2022.2.5,59.94894753419525,
,2,7,5,7,3,0,46,,train_dim1_1,11,30,,,,2,0,2,0,,,,,,,,,0,0,0,0,0,10,10,10,0,0,0,0,,,,,,,,,,,,,,,,,,,,,,,,,stimuli/alien_stimuli/46.png,,,,,,,,,,,,,,,,,,,,,,,,,,,,,stimuli/alien_stimuli/16.png,16,0,12,,,,,,,30,,,,,,,,1923.1826293000486,1923.1826293000486,1923.1826293000486,1923.1826293000486,1923.1826293000486,right,1.1028710000682622,9,0,0,99,0.08,0.16,right,1.0106820000801235,,,,,1921.6123211001977,1923.1826293000486,-0.16,0.24,0.0,0.0,0.24,-0.16,-0.16,-0.16,0.24,1920.5650407001376,1920.5650407001376,1920.5650407001376,1920.5650407001376,1920.5650407001376,1920.5650407001376,1920.5650407001376,1920.5650407001376,1920.5445558500478,1.170001800172031,return,1.0302839998621494,,,,,,,,,,,,,,,,,,,,,,,,,,,,,,,,,AMJDVJ,train_x,red_square,top_left,2025-04-09_17h38.55.199,HideSeek_v1,2022.2.5,59.94894753419525,
,2,7,5,7,3,0,46,,train_dim1_1,11,30,,,,2,0,2,0,,,,,,,,,0,0,0,0,0,10,10,10,1,0,1,0,,,,,,,,,,,,,,,,,,,,,,,,,,,,,,,,,,,,,,,,,,,,,,,,,,,,,,,,,,,,,,,,30,,,,,,,,1924.2780319000594,1924.2780319000594,1924.2780319000594,1924.2780319000594,1924.2780319000594,right,0.27622730005532503,9,0,0,99,0.16,0.16,right,0.19128270004875958,,,,,,,,,,,,,,,,,,,,,,,,,,,,,,,,,,,,,,,,,,,,,,,,,,,,,,,,,,,,AMJDVJ,train_x,red_square,top_left,2025-04-09_17h38.55.199,HideSeek_v1,2022.2.5,59.94894753419525,
,2,7,5,7,3,0,46,,train_dim1_1,11,30,,,,2,0,2,0,,,,,,,,,0,0,0,0,0,10,10,10,2,0,2,0,,,,,,,,,,,,,,,,,,,,,,,,,,,,,,,,,,,,,,,,,,,,,,,,,,,,,,,,,,,,,,,,30,,,,,,,,1924.561510300031,1924.561510300031,1924.561510300031,1924.561510300031,1924.561510300031,right,0.26007520011626184,9,0,0,99,0.24,0.16,right,0.17967629991471767,,,,,,,,,,,,,,,,,,,,,,,,,,,,,,,,,,,,,,,,,,,,,,,,,,,,,,,,,,,,AMJDVJ,train_x,red_square,top_left,2025-04-09_17h38.55.199,HideSeek_v1,2022.2.5,59.94894753419525,
,2,7,5,7,3,0,46,,train_dim1_1,11,30,,,,2,0,2,0,,,,,,,,,0,0,0,0,0,10,10,10,3,0,3,0,,,,,,,,,,,,,,,,,,,,,,,,,,,,,,,,,,,,,,,,,,,,,,,,,,,,,,,,,,,,,,,,30,,,,,,,,1924.8284263000824,1924.8284263000824,1924.8284263000824,1924.8284263000824,1924.8284263000824,right,0.2596019001211971,9,0,0,99,0.32,0.16,right,0.17388149979524314,,,,,,,,,,,,,,,,,,,,,,,,,,,,,,,,,,,,,,,,,,,,,,,,,,,,,,,,,,,,AMJDVJ,train_x,red_square,top_left,2025-04-09_17h38.55.199,HideSeek_v1,2022.2.5,59.94894753419525,
,2,7,5,7,3,0,46,,train_dim1_1,11,30,,,,2,0,2,0,,,,,,,,,0,0,0,0,0,10,10,10,4,0,4,0,,,,,,,,,,,,,,,,,,,,,,,,,,,,,,,,,,,,,,,,,,,,,,,,,,,,,,,,,,,,,,,,30,,,,,,,,1925.0942808000837,1925.0942808000837,1925.0942808000837,1925.0942808000837,1925.0942808000837,right,0.24351159995421767,9,0,0,99,0.4,0.16,right,0.17103309999220073,,,,,,,,,,,,,,,,,,,,,,,,,,,,,,,,,,,,,,,,,,,,,,,,,,,,,,,,,,,,AMJDVJ,train_x,red_square,top_left,2025-04-09_17h38.55.199,HideSeek_v1,2022.2.5,59.94894753419525,
,2,7,5,7,3,0,46,,train_dim1_1,11,30,,,,2,0,2,0,,,,,,,,,0,0,0,0,0,10,10,10,5,0,5,0,,,,,,,,,,,,,,,,,,,,,,,,,,,,,,,,,,,,,,,,,,,,,,,,,,,,,,,,,,,,,,,,30,,,,,,,,1925.3450579000637,1925.3450579000637,1925.3450579000637,1925.3450579000637,1925.3450579000637,left,0.6937931999564171,9,0,0,99,0.32,0.16,left,0.6159136001951993,,,,,,,,,,,,,,,,,,,,,,,,,,,,,,,,,,,,,,,,,,,,,,,,,,,,,,,,,,,,AMJDVJ,train_x,red_square,top_left,2025-04-09_17h38.55.199,HideSeek_v1,2022.2.5,59.94894753419525,
,2,7,5,7,3,0,46,,train_dim1_1,11,30,,,,2,0,2,0,,,,,,,,,0,0,0,0,0,10,10,10,6,0,6,0,,,,,,,,,,,,,,,,,,,,,,,,,,,,,,,,,,,,,,,,,,,,,,,,,,,,,,,,,,,,,,,,30,,,,,,,,1926.0456128001679,1926.0456128001679,1926.0456128001679,1926.0456128001679,1926.0456128001679,left,0.29296289989724755,9,0,0,99,0.24,0.16,left,0.21617499995045364,,,,,,,,,,,,,,,,,,,,,,,,,,,,,,,,,,,,,,,,,,,,,,,,,,,,,,,,,,,,AMJDVJ,train_x,red_square,top_left,2025-04-09_17h38.55.199,HideSeek_v1,2022.2.5,59.94894753419525,
,2,7,5,7,3,0,46,,train_dim1_1,11,30,,,,2,0,2,0,,,,,,,,,0,0,0,0,0,10,10,10,7,0,7,0,,,,,,,,,,,,,,,,,,,,,,,,,,,,,,,,,,,,,,,,,,,,,,,,,,,,,,,,,,,,,,,,30,,,,,,,,1926.3462526001967,1926.3462526001967,1926.3462526001967,1926.3462526001967,1926.3462526001967,return,2.8619599998928607,10,0,0,1,0.24,0.16,return,2.7741920000407845,0,28,0.24,0.16,,,,,,,,,,,,,,,,,,,,,,,,,,,,,,,,,,,,,,,,,,,,,,,,,,,,,,,,AMJDVJ,train_x,red_square,top_left,2025-04-09_17h38.55.199,HideSeek_v1,2022.2.5,59.94894753419525,
,0,5,1,5,1,0,26,,train_dim1_1,12,30,,,,2,0,2,0,,,,,,,,,0,0,0,0,0,11,11,11,0,0,0,0,,,,,,,,,,,,,,,,,,,,,,,,,stimuli/alien_stimuli/26.png,,,,,,,,,,,,,,,,,,,,,,,,,,,,,stimuli/alien_stimuli/46.png,46,2,13,,,,,,,30,,,,,,,,1933.1916266002227,1933.1916266002227,1933.1916266002227,1933.1916266002227,1933.1916266002227,right,1.5699334999080747,10,0,0,99,-0.08,0,right,1.461082600057125,,,,,1931.6037385000382,1933.1916266002227,0.24,0.16,0.0,0.24,0.16,0.24,0.12,0.24,0.16,1930.774892100133,1930.774892100133,1930.774892100133,1930.774892100133,1930.774892100133,1930.774892100133,1930.774892100133,1930.774892100133,1930.7534070001916,0.9358775999862701,return,0.8072141001466662,,,,,,,,,,,,,,,,,,,,,,,,,,,,,,,,,AMJDVJ,train_x,red_square,top_left,2025-04-09_17h38.55.199,HideSeek_v1,2022.2.5,59.94894753419525,
,0,5,1,5,1,0,26,,train_dim1_1,12,30,,,,2,0,2,0,,,,,,,,,0,0,0,0,0,11,11,11,1,0,1,0,,,,,,,,,,,,,,,,,,,,,,,,,,,,,,,,,,,,,,,,,,,,,,,,,,,,,,,,,,,,,,,,30,,,,,,,,1934.741027600132,1934.741027600132,1934.741027600132,1934.741027600132,1934.741027600132,return,0.24290790013037622,11,0,0,1,-0.08,0,return,0.15560060017742217,0,29,-0.08,0,,,,,,,,,,,,,,,,,,,,,,,,,,,,,,,,,,,,,,,,,,,,,,,,,,,,,,,,AMJDVJ,train_x,red_square,top_left,2025-04-09_17h38.55.199,HideSeek_v1,2022.2.5,59.94894753419525,
,0,9,4,9,4,0,45,,train_dim1_1,13,30,,,,2,0,2,0,,,,,,,,,0,0,0,0,0,12,12,12,0,0,0,0,,,,,,,,,,,,,,,,,,,,,,,,,stimuli/alien_stimuli/45.png,,,,,,,,,,,,,,,,,,,,,,,,,,,,,stimuli/alien_stimuli/26.png,26,0,14,,,,,,,30,,,,,,,,1938.4180512002204,1938.4180512002204,1938.4180512002204,1938.4180512002204,1938.4180512002204,right,1.1713266000151634,11,0,0,99,-0.08,0.32,right,1.0775760998949409,,,,,1936.857912100153,1938.4180512002204,-0.08,0,0.0,0.08,0.0,-0.08,-0.12,-0.08,0,1936.5539559000172,1936.5539559000172,1936.5539559000172,1936.5539559000172,1936.5539559000172,1936.5539559000172,1936.5539559000172,1936.5539559000172,1936.540827350179,0.41949679981917143,return,0.28723270003683865,,,,,,,,,,,,,,,,,,,,,,,,,,,,,,,,,AMJDVJ,train_x,red_square,top_left,2025-04-09_17h38.55.199,HideSeek_v1,2022.2.5,59.94894753419525,
,0,9,4,9,4,0,45,,train_dim1_1,13,30,,,,2,0,2,0,,,,,,,,,0,0,0,0,0,12,12,12,1,0,1,0,,,,,,,,,,,,,,,,,,,,,,,,,,,,,,,,,,,,,,,,,,,,,,,,,,,,,,,,,,,,,,,,30,,,,,,,,1939.5889010000974,1939.5889010000974,1939.5889010000974,1939.5889010000974,1939.5889010000974,right,0.21007289993576705,11,0,0,99,0.0,0.32,right,0.13078120001591742,,,,,,,,,,,,,,,,,,,,,,,,,,,,,,,,,,,,,,,,,,,,,,,,,,,,,,,,,,,,AMJDVJ,train_x,red_square,top_left,2025-04-09_17h38.55.199,HideSeek_v1,2022.2.5,59.94894753419525,
,0,9,4,9,4,0,45,,train_dim1_1,13,30,,,,2,0,2,0,,,,,,,,,0,0,0,0,0,12,12,12,2,0,2,0,,,,,,,,,,,,,,,,,,,,,,,,,,,,,,,,,,,,,,,,,,,,,,,,,,,,,,,,,,,,,,,,30,,,,,,,,1939.806291000219,1939.806291000219,1939.806291000219,1939.806291000219,1939.806291000219,right,0.3425312000326812,11,0,0,99,0.08,0.32,right,0.2640845999121666,,,,,,,,,,,,,,,,,,,,,,,,,,,,,,,,,,,,,,,,,,,,,,,,,,,,,,,,,,,,AMJDVJ,train_x,red_square,top_left,2025-04-09_17h38.55.199,HideSeek_v1,2022.2.5,59.94894753419525,
,0,9,4,9,4,0,45,,train_dim1_1,13,30,,,,2,0,2,0,,,,,,,,,0,0,0,0,0,12,12,12,3,0,3,0,,,,,,,,,,,,,,,,,,,,,,,,,,,,,,,,,,,,,,,,,,,,,,,,,,,,,,,,,,,,,,,,30,,,,,,,,1940.1555236000568,1940.1555236000568,1940.1555236000568,1940.1555236000568,1940.1555236000568,return,0.3267561001703143,11,1,0,0,0.08,0.32,return,0.25157810002565384,0,32,0.08,0.32,,,,,,,,,,,,,,,,,,,,,,,,,,,,,,,,,,,,,,,,,,,,,,,,,,,,,,,,AMJDVJ,train_x,red_square,top_left,2025-04-09_17h38.55.199,HideSeek_v1,2022.2.5,59.94894753419525,
,4,8,4,8,0,0,16,,train_dim1_1,14,30,,,,2,0,2,0,,,,,,,,,0,0,0,0,0,13,13,13,0,0,0,0,,,,,,,,,,,,,,,,,,,,,,,,,stimuli/alien_stimuli/16.png,,,,,,,,,,,,,,,,,,,,,,,,,,,,,stimuli/alien_stimuli/45.png,45,0,15,,,,,,,30,,,,,,,,1948.2321882001124,1948.2321882001124,1948.2321882001124,1948.2321882001124,1948.2321882001124,return,2.82093850011006,12,0,0,1,0.16,0.24,return,2.7328340001404285,0,32,0.16,0.24,1946.66691670008,1948.2321882001124,0.16,0.32,0.0,0.32,0.32,0.16,0.0,0.16,0.32,1942.0445134001784,1942.0445134001784,1942.0445134001784,1942.0445134001784,1942.0445134001784,1942.0445134001784,1942.0445134001784,1942.0445134001784,1942.0293090002147,4.722521000076085,return,4.5980843000579625,,,,,,,,,,,,,,,,,,,,,,,,,,,,,,,,,AMJDVJ,train_x,red_square,top_left,2025-04-09_17h38.55.199,HideSeek_v1,2022.2.5,59.94894753419525,
,4,7,9,7,5,0,66,,train_dim1_1,15,30,,,,2,0,2,0,,,,,,,,,0,0,0,0,0,14,14,14,0,0,0,0,,,,,,,,,,,,,,,,,,,,,,,,,stimuli/alien_stimuli/66.png,,,,,,,,,,,,,,,,,,,,,,,,,,,,,stimuli/alien_stimuli/16.png,16,4,16,,,,,,,30,,,,,,,,1954.8820276001934,1954.8820276001934,1954.8820276001934,1954.8820276001934,1954.8820276001934,right,1.1868429000023752,12,0,0,99,0.24,0.16,right,1.0802404000423849,,,,,1953.305052800104,1954.8820276001934,0.16,0.24,0.0,0.0,0.24,0.16,0.16,0.16,0.24,1952.6341867002193,1952.6341867002193,1952.6341867002193,1952.6341867002193,1952.6341867002193,1952.6341867002193,1952.6341867002193,1952.6341867002193,1952.621332700178,0.803002400090918,return,0.6455037998966873,,,,,,,,,,,,,,,,,,,,,,,,,,,,,,,,,AMJDVJ,train_x,red_square,top_left,2025-04-09_17h38.55.199,HideSeek_v1,2022.2.5,59.94894753419525,
,4,7,9,7,5,0,66,,train_dim1_1,15,30,,,,2,0,2,0,,,,,,,,,0,0,0,0,0,14,14,14,1,0,1,0,,,,,,,,,,,,,,,,,,,,,,,,,,,,,,,,,,,,,,,,,,,,,,,,,,,,,,,,,,,,,,,,30,,,,,,,,1956.056745500071,1956.056745500071,1956.056745500071,1956.056745500071,1956.056745500071,right,0.19116410007700324,12,0,0,99,0.32,0.16,right,0.11731109977699816,,,,,,,,,,,,,,,,,,,,,,,,,,,,,,,,,,,,,,,,,,,,,,,,,,,,,,,,,,,,AMJDVJ,train_x,red_square,top_left,2025-04-09_17h38.55.199,HideSeek_v1,2022.2.5,59.94894753419525,
,4,7,9,7,5,0,66,,train_dim1_1,15,30,,,,2,0,2,0,,,,,,,,,0,0,0,0,0,14,14,14,2,0,2,0,,,,,,,,,,,,,,,,,,,,,,,,,,,,,,,,,,,,,,,,,,,,,,,,,,,,,,,,,,,,,,,,30,,,,,,,,1956.254402599996,1956.254402599996,1956.254402599996,1956.254402599996,1956.254402599996,right,0.21006960002705455,12,0,0,99,0.4,0.16,right,0.12329769995994866,,,,,,,,,,,,,,,,,,,,,,,,,,,,,,,,,,,,,,,,,,,,,,,,,,,,,,,,,,,,AMJDVJ,train_x,red_square,top_left,2025-04-09_17h38.55.199,HideSeek_v1,2022.2.5,59.94894753419525,
,4,7,9,7,5,0,66,,train_dim1_1,15,30,,,,2,0,2,0,,,,,,,,,0,0,0,0,0,14,14,14,3,0,3,0,,,,,,,,,,,,,,,,,,,,,,,,,,,,,,,,,,,,,,,,,,,,,,,,,,,,,,,,,,,,,,,,30,,,,,,,,1956.4710180000402,1956.4710180000402,1956.4710180000402,1956.4710180000402,1956.4710180000402,right,0.2094698001164943,12,0,0,99,0.48000000000000004,0.16,right,0.12145860004238784,,,,,,,,,,,,,,,,,,,,,,,,,,,,,,,,,,,,,,,,,,,,,,,,,,,,,,,,,,,,AMJDVJ,train_x,red_square,top_left,2025-04-09_17h38.55.199,HideSeek_v1,2022.2.5,59.94894753419525,
,4,7,9,7,5,0,66,,train_dim1_1,15,30,,,,2,0,2,0,,,,,,,,,0,0,0,0,0,14,14,14,4,0,4,0,,,,,,,,,,,,,,,,,,,,,,,,,,,,,,,,,,,,,,,,,,,,,,,,,,,,,,,,,,,,,,,,30,,,,,,,,1956.6877583002206,1956.6877583002206,1956.6877583002206,1956.6877583002206,1956.6877583002206,right,0.22684399993158877,12,0,0,99,0.56,0.16,right,0.1432303001638502,,,,,,,,,,,,,,,,,,,,,,,,,,,,,,,,,,,,,,,,,,,,,,,,,,,,,,,,,,,,AMJDVJ,train_x,red_square,top_left,2025-04-09_17h38.55.199,HideSeek_v1,2022.2.5,59.94894753419525,
,4,7,9,7,5,0,66,,train_dim1_1,15,30,,,,2,0,2,0,,,,,,,,,0,0,0,0,0,14,14,14,5,0,5,0,,,,,,,,,,,,,,,,,,,,,,,,,,,,,,,,,,,,,,,,,,,,,,,,,,,,,,,,,,,,,,,,30,,,,,,,,1956.92185100005,1956.92185100005,1956.92185100005,1956.92185100005,1956.92185100005,return,0.2595450000371784,13,0,0,1,0.56,0.16,return,0.17262009996920824,0,37,0.56,0.16,,,,,,,,,,,,,,,,,,,,,,,,,,,,,,,,,,,,,,,,,,,,,,,,,,,,,,,,AMJDVJ,train_x,red_square,top_left,2025-04-09_17h38.55.199,HideSeek_v1,2022.2.5,59.94894753419525,
,3,8,7,8,4,0,56,,train_dim1_1,16,30,,,,2,0,2,0,,,,,,,,,0,0,0,0,0,15,15,15,0,0,0,0,,,,,,,,,,,,,,,,,,,,,,,,,stimuli/alien_stimuli/56.png,,,,,,,,,,,,,,,,,,,,,,,,,,,,,stimuli/alien_stimuli/66.png,66,4,17,,,,,,,30,,,,,,,,1960.6095455000177,1960.6095455000177,1960.6095455000177,1960.6095455000177,1960.6095455000177,right,1.2697950000874698,13,0,0,99,0.16,0.24,right,1.181701999856159,,,,,1959.0435283000115,1960.6095455000177,0.56,0.16,0.0,0.4,0.16,0.56,0.36000000000000004,0.56,0.16,1958.743352800142,1958.743352800142,1958.743352800142,1958.743352800142,1958.743352800142,1958.743352800142,1958.743352800142,1958.743352800142,1958.7264181001578,0.4027499998919666,return,0.28078479995019734,,,,,,,,,,,,,,,,,,,,,,,,,,,,,,,,,AMJDVJ,train_x,red_square,top_left,2025-04-09_17h38.55.199,HideSeek_v1,2022.2.5,59.94894753419525,
,3,8,7,8,4,0,56,,train_dim1_1,16,30,,,,2,0,2,0,,,,,,,,,0,0,0,0,0,15,15,15,1,0,1,0,,,,,,,,,,,,,,,,,,,,,,,,,,,,,,,,,,,,,,,,,,,,,,,,,,,,,,,,,,,,,,,,30,,,,,,,,1961.877612600103,1961.877612600103,1961.877612600103,1961.877612600103,1961.877612600103,right,0.20975539996288717,13,0,0,99,0.24,0.24,right,0.12474079988896847,,,,,,,,,,,,,,,,,,,,,,,,,,,,,,,,,,,,,,,,,,,,,,,,,,,,,,,,,,,,AMJDVJ,train_x,red_square,top_left,2025-04-09_17h38.55.199,HideSeek_v1,2022.2.5,59.94894753419525,
,3,8,7,8,4,0,56,,train_dim1_1,16,30,,,,2,0,2,0,,,,,,,,,0,0,0,0,0,15,15,15,2,0,2,0,,,,,,,,,,,,,,,,,,,,,,,,,,,,,,,,,,,,,,,,,,,,,,,,,,,,,,,,,,,,,,,,30,,,,,,,,1962.0947005001362,1962.0947005001362,1962.0947005001362,1962.0947005001362,1962.0947005001362,right,0.20973000000230968,13,0,0,99,0.32,0.24,right,0.13061430002562702,,,,,,,,,,,,,,,,,,,,,,,,,,,,,,,,,,,,,,,,,,,,,,,,,,,,,,,,,,,,AMJDVJ,train_x,red_square,top_left,2025-04-09_17h38.55.199,HideSeek_v1,2022.2.5,59.94894753419525,
,3,8,7,8,4,0,56,,train_dim1_1,16,30,,,,2,0,2,0,,,,,,,,,0,0,0,0,0,15,15,15,3,0,3,0,,,,,,,,,,,,,,,,,,,,,,,,,,,,,,,,,,,,,,,,,,,,,,,,,,,,,,,,,,,,,,,,30,,,,,,,,1962.3113918001764,1962.3113918001764,1962.3113918001764,1962.3113918001764,1962.3113918001764,right,0.2929166001267731,13,0,0,99,0.4,0.24,right,0.2082233999390155,,,,,,,,,,,,,,,,,,,,,,,,,,,,,,,,,,,,,,,,,,,,,,,,,,,,,,,,,,,,AMJDVJ,train_x,red_square,top_left,2025-04-09_17h38.55.199,HideSeek_v1,2022.2.5,59.94894753419525,
,3,8,7,8,4,0,56,,train_dim1_1,16,30,,,,2,0,2,0,,,,,,,,,0,0,0,0,0,15,15,15,4,0,4,0,,,,,,,,,,,,,,,,,,,,,,,,,,,,,,,,,,,,,,,,,,,,,,,,,,,,,,,,,,,,,,,,30,,,,,,,,1962.611330000218,1962.611330000218,1962.611330000218,1962.611330000218,1962.611330000218,return,0.6600552999880165,14,0,0,1,0.4,0.24,return,0.580092899966985,0,41,0.4,0.24,,,,,,,,,,,,,,,,,,,,,,,,,,,,,,,,,,,,,,,,,,,,,,,,,,,,,,,,AMJDVJ,train_x,red_square,top_left,2025-04-09_17h38.55.199,HideSeek_v1,2022.2.5,59.94894753419525,
,2,9,3,9,1,0,26,,train_dim1_1,17,30,,,,2,0,2,0,,,,,,,,,0,0,0,0,0,16,16,16,0,0,0,0,,,,,,,,,,,,,,,,,,,,,,,,,stimuli/alien_stimuli/26.png,,,,,,,,,,,,,,,,,,,,,,,,,,,,,stimuli/alien_stimuli/56.png,56,3,18,,,,,,,30,,,,,,,,1967.512607900193,1967.512607900193,1967.512607900193,1967.512607900193,1967.512607900193,right,1.5720852999947965,14,0,0,99,0.08,0.32,right,1.4850733999628574,,,,,1965.949265200179,1967.512607900193,0.4,0.24,0.0,0.32,0.24,0.4,0.24000000000000002,0.4,0.24,1964.8382513001561,1964.8382513001561,1964.8382513001561,1964.8382513001561,1964.8382513001561,1964.8382513001561,1964.8382513001561,1964.8382513001561,1964.8314439502547,1.2198646999895573,return,1.0809791998472065,,,,,,,,,,,,,,,,,,,,,,,,,,,,,,,,,AMJDVJ,train_x,red_square,top_left,2025-04-09_17h38.55.199,HideSeek_v1,2022.2.5,59.94894753419525,
,2,9,3,9,1,0,26,,train_dim1_1,17,30,,,,2,0,2,0,,,,,,,,,0,0,0,0,0,16,16,16,1,0,1,0,,,,,,,,,,,,,,,,,,,,,,,,,,,,,,,,,,,,,,,,,,,,,,,,,,,,,,,,,,,,,,,,30,,,,,,,,1969.087945500156,1969.087945500156,1969.087945500156,1969.087945500156,1969.087945500156,return,0.40755140013061464,15,0,0,1,0.08,0.32,return,0.32546569989062846,0,42,0.08,0.32,,,,,,,,,,,,,,,,,,,,,,,,,,,,,,,,,,,,,,,,,,,,,,,,,,,,,,,,AMJDVJ,train_x,red_square,top_left,2025-04-09_17h38.55.199,HideSeek_v1,2022.2.5,59.94894753419525,
,2,6,7,6,5,0,66,,train_dim1_1,18,30,,,,2,0,2,0,,,,,,,,,0,0,0,0,0,17,17,17,0,0,0,0,,,,,,,,,,,,,,,,,,,,,,,,,stimuli/alien_stimuli/66.png,,,,,,,,,,,,,,,,,,,,,,,,,,,,,stimuli/alien_stimuli/26.png,26,2,19,,,,,,,30,,,,,,,,1973.6212925000582,1973.6212925000582,1973.6212925000582,1973.6212925000582,1973.6212925000582,right,0.9157734999898821,15,0,0,99,0.08,0.08,right,0.8299620999023318,,,,,1972.0539207002148,1973.6212925000582,0.08,0.32,0.0,0.08,0.32,0.08,0.04,0.08,0.32,1971.0641883001663,1971.0641883001663,1971.0641883001663,1971.0641883001663,1971.0641883001663,1971.0641883001663,1971.0641883001663,1971.0641883001663,1971.0534621502275,1.1027923999354243,return,0.9575437000021338,,,,,,,,,,,,,,,,,,,,,,,,,,,,,,,,,AMJDVJ,train_x,red_square,top_left,2025-04-09_17h38.55.199,HideSeek_v1,2022.2.5,59.94894753419525,
,2,6,7,6,5,0,66,,train_dim1_1,18,30,,,,2,0,2,0,,,,,,,,,0,0,0,0,0,17,17,17,1,0,1,0,,,,,,,,,,,,,,,,,,,,,,,,,,,,,,,,,,,,,,,,,,,,,,,,,,,,,,,,,,,,,,,,30,,,,,,,,1974.5390728001948,1974.5390728001948,1974.5390728001948,1974.5390728001948,1974.5390728001948,right,0.20703150006011128,15,0,0,99,0.16,0.08,right,0.12655379995703697,,,,,,,,,,,,,,,,,,,,,,,,,,,,,,,,,,,,,,,,,,,,,,,,,,,,,,,,,,,,AMJDVJ,train_x,red_square,top_left,2025-04-09_17h38.55.199,HideSeek_v1,2022.2.5,59.94894753419525,
,2,6,7,6,5,0,66,,train_dim1_1,18,30,,,,2,0,2,0,,,,,,,,,0,0,0,0,0,17,17,17,2,0,2,0,,,,,,,,,,,,,,,,,,,,,,,,,,,,,,,,,,,,,,,,,,,,,,,,,,,,,,,,,,,,,,,,30,,,,,,,,1974.7520698001608,1974.7520698001608,1974.7520698001608,1974.7520698001608,1974.7520698001608,right,0.17661789990961552,15,0,0,99,0.24,0.08,right,0.10481870011426508,,,,,,,,,,,,,,,,,,,,,,,,,,,,,,,,,,,,,,,,,,,,,,,,,,,,,,,,,,,,AMJDVJ,train_x,red_square,top_left,2025-04-09_17h38.55.199,HideSeek_v1,2022.2.5,59.94894753419525,
,2,6,7,6,5,0,66,,train_dim1_1,18,30,,,,2,0,2,0,,,,,,,,,0,0,0,0,0,17,17,17,3,0,3,0,,,,,,,,,,,,,,,,,,,,,,,,,,,,,,,,,,,,,,,,,,,,,,,,,,,,,,,,,,,,,,,,30,,,,,,,,1974.935890500201,1974.935890500201,1974.935890500201,1974.935890500201,1974.935890500201,right,0.19325400004163384,15,0,0,99,0.32,0.08,right,0.11862459988333285,,,,,,,,,,,,,,,,,,,,,,,,,,,,,,,,,,,,,,,,,,,,,,,,,,,,,,,,,,,,AMJDVJ,train_x,red_square,top_left,2025-04-09_17h38.55.199,HideSeek_v1,2022.2.5,59.94894753419525,
,2,6,7,6,5,0,66,,train_dim1_1,18,30,,,,2,0,2,0,,,,,,,,,0,0,0,0,0,17,17,17,4,0,4,0,,,,,,,,,,,,,,,,,,,,,,,,,,,,,,,,,,,,,,,,,,,,,,,,,,,,,,,,,,,,,,,,30,,,,,,,,1975.135312500177,1975.135312500177,1975.135312500177,1975.135312500177,1975.135312500177,right,0.20957589987665415,15,0,0,99,0.4,0.08,right,0.12547559989616275,,,,,,,,,,,,,,,,,,,,,,,,,,,,,,,,,,,,,,,,,,,,,,,,,,,,,,,,,,,,AMJDVJ,train_x,red_square,top_left,2025-04-09_17h38.55.199,HideSeek_v1,2022.2.5,59.94894753419525,
,2,6,7,6,5,0,66,,train_dim1_1,18,30,,,,2,0,2,0,,,,,,,,,0,0,0,0,0,17,17,17,5,0,5,0,,,,,,,,,,,,,,,,,,,,,,,,,,,,,,,,,,,,,,,,,,,,,,,,,,,,,,,,,,,,,,,,30,,,,,,,,1975.3527018001769,1975.3527018001769,1975.3527018001769,1975.3527018001769,1975.3527018001769,return,0.19331849995069206,16,0,0,1,0.4,0.08,return,0.10542589984834194,0,47,0.4,0.08,,,,,,,,,,,,,,,,,,,,,,,,,,,,,,,,,,,,,,,,,,,,,,,,,,,,,,,,AMJDVJ,train_x,red_square,top_left,2025-04-09_17h38.55.199,HideSeek_v1,2022.2.5,59.94894753419525,
,0,8,3,8,3,0,46,,train_dim1_1,19,30,,,,2,0,2,0,,,,,,,,,0,0,0,0,0,18,18,18,0,0,0,0,,,,,,,,,,,,,,,,,,,,,,,,,stimuli/alien_stimuli/46.png,,,,,,,,,,,,,,,,,,,,,,,,,,,,,stimuli/alien_stimuli/66.png,66,2,20,,,,,,,30,,,,,,,,1979.333455500193,1979.333455500193,1979.333455500193,1979.333455500193,1979.333455500193,right,1.390850800089538,16,0,0,99,-0.08,0.24,right,1.3064176000189036,,,,,1977.7755475000013,1979.333455500193,0.4,0.08,0.0,0.4,0.08,0.4,0.2,0.4,0.08,1977.1181926000863,1977.1181926000863,1977.1181926000863,1977.1181926000863,1977.1181926000863,1977.1181926000863,1977.1181926000863,1977.1181926000863,1977.1084985502066,0.769303800072521,return,0.6415928998030722,,,,,,,,,,,,,,,,,,,,,,,,,,,,,,,,,AMJDVJ,train_x,red_square,top_left,2025-04-09_17h38.55.199,HideSeek_v1,2022.2.5,59.94894753419525,
,0,8,3,8,3,0,46,,train_dim1_1,19,30,,,,2,0,2,0,,,,,,,,,0,0,0,0,0,18,18,18,1,0,1,0,,,,,,,,,,,,,,,,,,,,,,,,,,,,,,,,,,,,,,,,,,,,,,,,,,,,,,,,,,,,,,,,30,,,,,,,,1980.7268715000246,1980.7268715000246,1980.7268715000246,1980.7268715000246,1980.7268715000246,right,0.2248726999387145,16,0,0,99,0.0,0.24,right,0.1361626998987049,,,,,,,,,,,,,,,,,,,,,,,,,,,,,,,,,,,,,,,,,,,,,,,,,,,,,,,,,,,,AMJDVJ,train_x,red_square,top_left,2025-04-09_17h38.55.199,HideSeek_v1,2022.2.5,59.94894753419525,
,0,8,3,8,3,0,46,,train_dim1_1,19,30,,,,2,0,2,0,,,,,,,,,0,0,0,0,0,18,18,18,2,0,2,0,,,,,,,,,,,,,,,,,,,,,,,,,,,,,,,,,,,,,,,,,,,,,,,,,,,,,,,,,,,,,,,,30,,,,,,,,1980.9578497000039,1980.9578497000039,1980.9578497000039,1980.9578497000039,1980.9578497000039,right,0.226687700022012,16,0,0,99,0.08,0.24,right,0.15347069990821183,,,,,,,,,,,,,,,,,,,,,,,,,,,,,,,,,,,,,,,,,,,,,,,,,,,,,,,,,,,,AMJDVJ,train_x,red_square,top_left,2025-04-09_17h38.55.199,HideSeek_v1,2022.2.5,59.94894753419525,
,0,8,3,8,3,0,46,,train_dim1_1,19,30,,,,2,0,2,0,,,,,,,,,0,0,0,0,0,18,18,18,3,0,3,0,,,,,,,,,,,,,,,,,,,,,,,,,,,,,,,,,,,,,,,,,,,,,,,,,,,,,,,,,,,,,,,,30,,,,,,,,1981.1919735001866,1981.1919735001866,1981.1919735001866,1981.1919735001866,1981.1919735001866,return,3.1118668999988586,17,0,0,1,0.08,0.24,return,3.0392348000314087,0,50,0.08,0.24,,,,,,,,,,,,,,,,,,,,,,,,,,,,,,,,,,,,,,,,,,,,,,,,,,,,,,,,AMJDVJ,train_x,red_square,top_left,2025-04-09_17h38.55.199,HideSeek_v1,2022.2.5,59.94894753419525,
,0,6,0,6,0,0,16,,train_dim1_1,20,30,,,,2,0,2,0,,,,,,,,,0,0,0,0,0,19,19,19,0,0,0,0,,,,,,,,,,,,,,,,,,,,,,,,,stimuli/alien_stimuli/16.png,,,,,,,,,,,,,,,,,,,,,,,,,,,,,stimuli/alien_stimuli/46.png,46,0,21,,,,,,,30,,,,,,,,1988.3828901001252,1988.3828901001252,1988.3828901001252,1988.3828901001252,1988.3828901001252,return,2.872294799890369,18,0,0,1,-0.16,0.08,return,2.7654212000779808,0,50,-0.16,0.08,1986.7998419001233,1988.3828901001252,0.08,0.24,0.0,0.24,0.24,0.08,-0.04,0.08,0.24,1985.874211500166,1985.874211500166,1985.874211500166,1985.874211500166,1985.874211500166,1985.874211500166,1985.874211500166,1985.874211500166,1985.8659040501343,1.036727099912241,return,0.9090672000311315,,,,,,,,,,,,,,,,,,,,,,,,,,,,,,,,,AMJDVJ,train_x,red_square,top_left,2025-04-09_17h38.55.199,HideSeek_v1,2022.2.5,59.94894753419525,
,4,7,7,7,3,0,46,,train_dim1_1,21,30,,,,2,0,2,0,,,,,,,,,0,0,0,0,0,20,20,20,0,0,0,0,,,,,,,,,,,,,,,,,,,,,,,,,stimuli/alien_stimuli/46.png,,,,,,,,,,,,,,,,,,,,,,,,,,,,,stimuli/alien_stimuli/16.png,16,0,22,,,,,,,30,,,,,,,,1994.8335671001114,1994.8335671001114,1994.8335671001114,1994.8335671001114,1994.8335671001114,right,1.9192576999776065,18,0,0,99,0.24,0.16,right,1.836989999981597,,,,,1993.2716972001363,1994.8335671001114,-0.16,0.08,0.0,0.0,0.08,-0.16,-0.16,-0.16,0.08,1992.7995631000958,1992.7995631000958,1992.7995631000958,1992.7995631000958,1992.7995631000958,1992.7995631000958,1992.7995631000958,1992.7995631000958,1992.7881019501483,0.585587500128895,return,0.439725800184533,,,,,,,,,,,,,,,,,,,,,,,,,,,,,,,,,AMJDVJ,train_x,red_square,top_left,2025-04-09_17h38.55.199,HideSeek_v1,2022.2.5,59.94894753419525,
,4,7,7,7,3,0,46,,train_dim1_1,21,30,,,,2,0,2,0,,,,,,,,,0,0,0,0,0,20,20,20,1,0,1,0,,,,,,,,,,,,,,,,,,,,,,,,,,,,,,,,,,,,,,,,,,,,,,,,,,,,,,,,,,,,,,,,30,,,,,,,,1996.7576676001772,1996.7576676001772,1996.7576676001772,1996.7576676001772,1996.7576676001772,right,0.7579546000342816,18,0,0,99,0.32,0.16,right,0.681889200117439,,,,,,,,,,,,,,,,,,,,,,,,,,,,,,,,,,,,,,,,,,,,,,,,,,,,,,,,,,,,AMJDVJ,train_x,red_square,top_left,2025-04-09_17h38.55.199,HideSeek_v1,2022.2.5,59.94894753419525,
,4,7,7,7,3,0,46,,train_dim1_1,21,30,,,,2,0,2,0,,,,,,,,,0,0,0,0,0,20,20,20,2,0,2,0,,,,,,,,,,,,,,,,,,,,,,,,,,,,,,,,,,,,,,,,,,,,,,,,,,,,,,,,,,,,,,,,30,,,,,,,,1997.5228711999953,1997.5228711999953,1997.5228711999953,1997.5228711999953,1997.5228711999953,right,2.19395749992691,18,0,0,99,0.4,0.16,right,2.111747100017965,,,,,,,,,,,,,,,,,,,,,,,,,,,,,,,,,,,,,,,,,,,,,,,,,,,,,,,,,,,,AMJDVJ,train_x,red_square,top_left,2025-04-09_17h38.55.199,HideSeek_v1,2022.2.5,59.94894753419525,
,4,7,7,7,3,0,46,,train_dim1_1,21,30,,,,2,0,2,0,,,,,,,,,0,0,0,0,0,20,20,20,3,0,3,0,,,,,,,,,,,,,,,,,,,,,,,,,,,,,,,,,,,,,,,,,,,,,,,,,,,,,,,,,,,,,,,,30,,,,,,,,1999.7233031000942,1999.7233031000942,1999.7233031000942,1999.7233031000942,1999.7233031000942,return,2.5451719001866877,19,0,0,1,0.4,0.16,return,2.45978150004521,0,53,0.4,0.16,,,,,,,,,,,,,,,,,,,,,,,,,,,,,,,,,,,,,,,,,,,,,,,,,,,,,,,,AMJDVJ,train_x,red_square,top_left,2025-04-09_17h38.55.199,HideSeek_v1,2022.2.5,59.94894753419525,
,1,5,2,5,1,0,26,,train_dim1_1,22,30,,,,2,0,2,0,,,,,,,,,0,0,0,0,0,21,21,21,0,0,0,0,,,,,,,,,,,,,,,,,,,,,,,,,stimuli/alien_stimuli/26.png,,,,,,,,,,,,,,,,,,,,,,,,,,,,,stimuli/alien_stimuli/46.png,46,4,23,,,,,,,30,,,,,,,,2006.5602201002184,2006.5602201002184,2006.5602201002184,2006.5602201002184,2006.5602201002184,right,1.2354758000001311,19,0,0,99,0.0,0,right,1.1282609000336379,,,,,2004.9815212001558,2006.5602201002184,0.4,0.16,0.0,0.24,0.16,0.4,0.28,0.4,0.16,2003.8543535000645,2003.8543535000645,2003.8543535000645,2003.8543535000645,2003.8543535000645,2003.8543535000645,2003.8543535000645,2003.8543535000645,2003.847324900143,1.252933599986136,return,1.1088648000732064,,,,,,,,,,,,,,,,,,,,,,,,,,,,,,,,,AMJDVJ,train_x,red_square,top_left,2025-04-09_17h38.55.199,HideSeek_v1,2022.2.5,59.94894753419525,
,1,5,2,5,1,0,26,,train_dim1_1,22,30,,,,2,0,2,0,,,,,,,,,0,0,0,0,0,21,21,21,1,0,1,0,,,,,,,,,,,,,,,,,,,,,,,,,,,,,,,,,,,,,,,,,,,,,,,,,,,,,,,,,,,,,,,,30,,,,,,,,2007.7885136001278,2007.7885136001278,2007.7885136001278,2007.7885136001278,2007.7885136001278,return,0.17381399986334145,20,0,0,1,0.0,0,return,0.09409320005215704,0,54,0.0,0,,,,,,,,,,,,,,,,,,,,,,,,,,,,,,,,,,,,,,,,,,,,,,,,,,,,,,,,AMJDVJ,train_x,red_square,top_left,2025-04-09_17h38.55.199,HideSeek_v1,2022.2.5,59.94894753419525,
,2,6,7,6,5,0,66,,train_dim1_1,23,30,,,,2,0,2,0,,,,,,,,,0,0,0,0,0,22,22,22,0,0,0,0,,,,,,,,,,,,,,,,,,,,,,,,,stimuli/alien_stimuli/66.png,,,,,,,,,,,,,,,,,,,,,,,,,,,,,stimuli/alien_stimuli/26.png,26,1,24,,,,,,,30,,,,,,,,2011.7679622001015,2011.7679622001015,2011.7679622001015,2011.7679622001015,2011.7679622001015,right,0.8362356000579894,20,0,0,99,0.08,0.08,right,0.7256188997998834,,,,,2010.185604600003,2011.7679622001015,0,0,0.0,0.08,0.0,0,-0.04,0,0,2009.532648100052,2009.532648100052,2009.532648100052,2009.532648100052,2009.532648100052,2009.532648100052,2009.532648100052,2009.532648100052,2009.518891050201,0.769089300185442,return,0.6335541000589728,,,,,,,,,,,,,,,,,,,,,,,,,,,,,,,,,AMJDVJ,train_x,red_square,top_left,2025-04-09_17h38.55.199,HideSeek_v1,2022.2.5,59.94894753419525,
,2,6,7,6,5,0,66,,train_dim1_1,23,30,,,,2,0,2,0,,,,,,,,,0,0,0,0,0,22,22,22,1,0,1,0,,,,,,,,,,,,,,,,,,,,,,,,,,,,,,,,,,,,,,,,,,,,,,,,,,,,,,,,,,,,,,,,30,,,,,,,,2012.5853874001186,2012.5853874001186,2012.5853874001186,2012.5853874001186,2012.5853874001186,right,0.1923631001263857,20,0,0,99,0.16,0.08,right,0.11014200001955032,,,,,,,,,,,,,,,,,,,,,,,,,,,,,,,,,,,,,,,,,,,,,,,,,,,,,,,,,,,,AMJDVJ,train_x,red_square,top_left,2025-04-09_17h38.55.199,HideSeek_v1,2022.2.5,59.94894753419525,
,2,6,7,6,5,0,66,,train_dim1_1,23,30,,,,2,0,2,0,,,,,,,,,0,0,0,0,0,22,22,22,2,0,2,0,,,,,,,,,,,,,,,,,,,,,,,,,,,,,,,,,,,,,,,,,,,,,,,,,,,,,,,,,,,,,,,,30,,,,,,,,2012.7851441001985,2012.7851441001985,2012.7851441001985,2012.7851441001985,2012.7851441001985,right,0.19244210002943873,20,0,0,99,0.24,0.08,right,0.10463630012236536,,,,,,,,,,,,,,,,,,,,,,,,,,,,,,,,,,,,,,,,,,,,,,,,,,,,,,,,,,,,AMJDVJ,train_x,red_square,top_left,2025-04-09_17h38.55.199,HideSeek_v1,2022.2.5,59.94894753419525,
,2,6,7,6,5,0,66,,train_dim1_1,23,30,,,,2,0,2,0,,,,,,,,,0,0,0,0,0,22,22,22,3,0,3,0,,,,,,,,,,,,,,,,,,,,,,,,,,,,,,,,,,,,,,,,,,,,,,,,,,,,,,,,,,,,,,,,30,,,,,,,,2012.9837015001103,2012.9837015001103,2012.9837015001103,2012.9837015001103,2012.9837015001103,right,0.17662739986553788,20,0,0,99,0.32,0.08,right,0.1003005001693964,,,,,,,,,,,,,,,,,,,,,,,,,,,,,,,,,,,,,,,,,,,,,,,,,,,,,,,,,,,,AMJDVJ,train_x,red_square,top_left,2025-04-09_17h38.55.199,HideSeek_v1,2022.2.5,59.94894753419525,
,2,6,7,6,5,0,66,,train_dim1_1,23,30,,,,2,0,2,0,,,,,,,,,0,0,0,0,0,22,22,22,4,0,4,0,,,,,,,,,,,,,,,,,,,,,,,,,,,,,,,,,,,,,,,,,,,,,,,,,,,,,,,,,,,,,,,,30,,,,,,,,2013.1674741001334,2013.1674741001334,2013.1674741001334,2013.1674741001334,2013.1674741001334,right,0.20971550000831485,20,0,0,99,0.4,0.08,right,0.1228625001385808,,,,,,,,,,,,,,,,,,,,,,,,,,,,,,,,,,,,,,,,,,,,,,,,,,,,,,,,,,,,AMJDVJ,train_x,red_square,top_left,2025-04-09_17h38.55.199,HideSeek_v1,2022.2.5,59.94894753419525,
,2,6,7,6,5,0,66,,train_dim1_1,23,30,,,,2,0,2,0,,,,,,,,,0,0,0,0,0,22,22,22,5,0,5,0,,,,,,,,,,,,,,,,,,,,,,,,,,,,,,,,,,,,,,,,,,,,,,,,,,,,,,,,,,,,,,,,30,,,,,,,,2013.3851685000118,2013.3851685000118,2013.3851685000118,2013.3851685000118,2013.3851685000118,return,0.22679660003632307,21,0,0,1,0.4,0.08,return,0.15440299990586936,0,59,0.4,0.08,,,,,,,,,,,,,,,,,,,,,,,,,,,,,,,,,,,,,,,,,,,,,,,,,,,,,,,,AMJDVJ,train_x,red_square,top_left,2025-04-09_17h38.55.199,HideSeek_v1,2022.2.5,59.94894753419525,
,4,9,8,9,4,0,56,,train_dim1_1,24,30,,,,2,0,2,0,,,,,,,,,0,0,0,0,0,23,23,23,0,0,0,0,,,,,,,,,,,,,,,,,,,,,,,,,stimuli/alien_stimuli/56.png,,,,,,,,,,,,,,,,,,,,,,,,,,,,,stimuli/alien_stimuli/66.png,66,2,25,,,,,,,30,,,,,,,,2017.5379466000013,2017.5379466000013,2017.5379466000013,2017.5379466000013,2017.5379466000013,right,0.8363295998424292,21,0,0,99,0.24,0.32,right,0.7465307000093162,,,,,2015.9739634001162,2017.5379466000013,0.4,0.08,0.0,0.4,0.08,0.4,0.2,0.4,0.08,2015.17375860014,2015.17375860014,2015.17375860014,2015.17375860014,2015.17375860014,2015.17375860014,2015.17375860014,2015.17375860014,2015.1565773001407,0.9027994000352919,return,0.7827723999507725,,,,,,,,,,,,,,,,,,,,,,,,,,,,,,,,,AMJDVJ,train_x,red_square,top_left,2025-04-09_17h38.55.199,HideSeek_v1,2022.2.5,59.94894753419525,
,4,9,8,9,4,0,56,,train_dim1_1,24,30,,,,2,0,2,0,,,,,,,,,0,0,0,0,0,23,23,23,1,0,1,0,,,,,,,,,,,,,,,,,,,,,,,,,,,,,,,,,,,,,,,,,,,,,,,,,,,,,,,,,,,,,,,,30,,,,,,,,2018.3745830000844,2018.3745830000844,2018.3745830000844,2018.3745830000844,2018.3745830000844,right,0.24275719979777932,21,0,0,99,0.32,0.32,right,0.16388679994270205,,,,,,,,,,,,,,,,,,,,,,,,,,,,,,,,,,,,,,,,,,,,,,,,,,,,,,,,,,,,AMJDVJ,train_x,red_square,top_left,2025-04-09_17h38.55.199,HideSeek_v1,2022.2.5,59.94894753419525,
,4,9,8,9,4,0,56,,train_dim1_1,24,30,,,,2,0,2,0,,,,,,,,,0,0,0,0,0,23,23,23,2,0,2,0,,,,,,,,,,,,,,,,,,,,,,,,,,,,,,,,,,,,,,,,,,,,,,,,,,,,,,,,,,,,,,,,30,,,,,,,,2018.6241116002202,2018.6241116002202,2018.6241116002202,2018.6241116002202,2018.6241116002202,right,0.19325070013292134,21,0,0,99,0.4,0.32,right,0.11151059996336699,,,,,,,,,,,,,,,,,,,,,,,,,,,,,,,,,,,,,,,,,,,,,,,,,,,,,,,,,,,,AMJDVJ,train_x,red_square,top_left,2025-04-09_17h38.55.199,HideSeek_v1,2022.2.5,59.94894753419525,
,4,9,8,9,4,0,56,,train_dim1_1,24,30,,,,2,0,2,0,,,,,,,,,0,0,0,0,0,23,23,23,3,0,3,0,,,,,,,,,,,,,,,,,,,,,,,,,,,,,,,,,,,,,,,,,,,,,,,,,,,,,,,,,,,,,,,,30,,,,,,,,2018.8256334001198,2018.8256334001198,2018.8256334001198,2018.8256334001198,2018.8256334001198,right,0.6101132999174297,21,0,0,99,0.48000000000000004,0.32,right,0.5303597000893205,,,,,,,,,,,,,,,,,,,,,,,,,,,,,,,,,,,,,,,,,,,,,,,,,,,,,,,,,,,,AMJDVJ,train_x,red_square,top_left,2025-04-09_17h38.55.199,HideSeek_v1,2022.2.5,59.94894753419525,
,4,9,8,9,4,0,56,,train_dim1_1,24,30,,,,2,0,2,0,,,,,,,,,0,0,0,0,0,23,23,23,4,0,4,0,,,,,,,,,,,,,,,,,,,,,,,,,,,,,,,,,,,,,,,,,,,,,,,,,,,,,,,,,,,,,,,,30,,,,,,,,2019.4408640000038,2019.4408640000038,2019.4408640000038,2019.4408640000038,2019.4408640000038,return,0.22646540007553995,22,0,0,1,0.48000000000000004,0.32,return,0.14651379990391433,0,63,0.48000000000000004,0.32,,,,,,,,,,,,,,,,,,,,,,,,,,,,,,,,,,,,,,,,,,,,,,,,,,,,,,,,AMJDVJ,train_x,red_square,top_left,2025-04-09_17h38.55.199,HideSeek_v1,2022.2.5,59.94894753419525,
,3,5,3,5,0,0,16,,train_dim1_1,25,30,,,,2,0,2,0,,,,,,,,,0,0,0,0,0,24,24,24,0,0,0,0,,,,,,,,,,,,,,,,,,,,,,,,,stimuli/alien_stimuli/16.png,,,,,,,,,,,,,,,,,,,,,,,,,,,,,stimuli/alien_stimuli/56.png,56,4,26,,,,,,,30,,,,,,,,2024.3750277000945,2024.3750277000945,2024.3750277000945,2024.3750277000945,2024.3750277000945,return,1.0721406999509782,23,0,0,1,0.08,0,return,0.9901760998181999,0,63,0.08,0,2022.8128967001103,2024.3750277000945,0.48,0.32,0.0,0.32,0.32,0.48,0.32,0.48,0.32,2021.2377312001772,2021.2377312001772,2021.2377312001772,2021.2377312001772,2021.2377312001772,2021.2377312001772,2021.2377312001772,2021.2377312001772,2021.2284379500898,1.6864285999909043,return,1.54806900001131,,,,,,,,,,,,,,,,,,,,,,,,,,,,,,,,,AMJDVJ,train_x,red_square,top_left,2025-04-09_17h38.55.199,HideSeek_v1,2022.2.5,59.94894753419525,
,1,6,6,6,5,0,66,,train_dim1_1,26,30,,,,2,0,2,0,,,,,,,,,0,0,0,0,0,25,25,25,0,0,0,0,,,,,,,,,,,,,,,,,,,,,,,,,stimuli/alien_stimuli/66.png,,,,,,,,,,,,,,,,,,,,,,,,,,,,,stimuli/alien_stimuli/16.png,16,3,27,,,,,,,30,,,,,,,,2029.3587551000528,2029.3587551000528,2029.3587551000528,2029.3587551000528,2029.3587551000528,right,1.2568703000433743,23,0,0,99,0.0,0.08,right,1.17270900006406,,,,,2027.8004639002029,2029.3587551000528,0.08,0,0.0,0.0,0.0,0.08,0.08,0.08,0,2027.0079346001148,2027.0079346001148,2027.0079346001148,2027.0079346001148,2027.0079346001148,2027.0079346001148,2027.0079346001148,2027.0079346001148,2027.00011335006,0.9024730999954045,return,0.7671444001607597,,,,,,,,,,,,,,,,,,,,,,,,,,,,,,,,,AMJDVJ,train_x,red_square,top_left,2025-04-09_17h38.55.199,HideSeek_v1,2022.2.5,59.94894753419525,
,1,6,6,6,5,0,66,,train_dim1_1,26,30,,,,2,0,2,0,,,,,,,,,0,0,0,0,0,25,25,25,1,0,1,0,,,,,,,,,,,,,,,,,,,,,,,,,,,,,,,,,,,,,,,,,,,,,,,,,,,,,,,,,,,,,,,,30,,,,,,,,2030.6164283000398,2030.6164283000398,2030.6164283000398,2030.6164283000398,2030.6164283000398,right,0.2261990001425147,23,0,0,99,0.08,0.08,right,0.13768000015988946,,,,,,,,,,,,,,,,,,,,,,,,,,,,,,,,,,,,,,,,,,,,,,,,,,,,,,,,,,,,AMJDVJ,train_x,red_square,top_left,2025-04-09_17h38.55.199,HideSeek_v1,2022.2.5,59.94894753419525,
,1,6,6,6,5,0,66,,train_dim1_1,26,30,,,,2,0,2,0,,,,,,,,,0,0,0,0,0,25,25,25,2,0,2,0,,,,,,,,,,,,,,,,,,,,,,,,,,,,,,,,,,,,,,,,,,,,,,,,,,,,,,,,,,,,,,,,30,,,,,,,,2030.849849200109,2030.849849200109,2030.849849200109,2030.849849200109,2030.849849200109,right,0.1931728001218289,23,0,0,99,0.16,0.08,right,0.11580219981260598,,,,,,,,,,,,,,,,,,,,,,,,,,,,,,,,,,,,,,,,,,,,,,,,,,,,,,,,,,,,AMJDVJ,train_x,red_square,top_left,2025-04-09_17h38.55.199,HideSeek_v1,2022.2.5,59.94894753419525,
,1,6,6,6,5,0,66,,train_dim1_1,26,30,,,,2,0,2,0,,,,,,,,,0,0,0,0,0,25,25,25,3,0,3,0,,,,,,,,,,,,,,,,,,,,,,,,,,,,,,,,,,,,,,,,,,,,,,,,,,,,,,,,,,,,,,,,30,,,,,,,,2031.0501162,2031.0501162,2031.0501162,2031.0501162,2031.0501162,right,0.22610380011610687,23,0,0,99,0.24,0.08,right,0.1408010998275131,,,,,,,,,,,,,,,,,,,,,,,,,,,,,,,,,,,,,,,,,,,,,,,,,,,,,,,,,,,,AMJDVJ,train_x,red_square,top_left,2025-04-09_17h38.55.199,HideSeek_v1,2022.2.5,59.94894753419525,
,1,6,6,6,5,0,66,,train_dim1_1,26,30,,,,2,0,2,0,,,,,,,,,0,0,0,0,0,25,25,25,4,0,4,0,,,,,,,,,,,,,,,,,,,,,,,,,,,,,,,,,,,,,,,,,,,,,,,,,,,,,,,,,,,,,,,,30,,,,,,,,2031.2834196002223,2031.2834196002223,2031.2834196002223,2031.2834196002223,2031.2834196002223,right,0.2269401999656111,23,0,0,99,0.32,0.08,right,0.14318030001595616,,,,,,,,,,,,,,,,,,,,,,,,,,,,,,,,,,,,,,,,,,,,,,,,,,,,,,,,,,,,AMJDVJ,train_x,red_square,top_left,2025-04-09_17h38.55.199,HideSeek_v1,2022.2.5,59.94894753419525,
,1,6,6,6,5,0,66,,train_dim1_1,26,30,,,,2,0,2,0,,,,,,,,,0,0,0,0,0,25,25,25,5,0,5,0,,,,,,,,,,,,,,,,,,,,,,,,,,,,,,,,,,,,,,,,,,,,,,,,,,,,,,,,,,,,,,,,30,,,,,,,,2031.5213927000295,2031.5213927000295,2031.5213927000295,2031.5213927000295,2031.5213927000295,return,0.23955069994553924,24,0,0,1,0.32,0.08,return,0.15380840003490448,0,68,0.32,0.08,,,,,,,,,,,,,,,,,,,,,,,,,,,,,,,,,,,,,,,,,,,,,,,,,,,,,,,,AMJDVJ,train_x,red_square,top_left,2025-04-09_17h38.55.199,HideSeek_v1,2022.2.5,59.94894753419525,
,0,6,3,6,3,0,46,,train_dim1_1,27,30,,,,2,0,2,0,,,,,,,,,0,0,0,0,0,26,26,26,0,0,0,0,,,,,,,,,,,,,,,,,,,,,,,,,stimuli/alien_stimuli/46.png,,,,,,,,,,,,,,,,,,,,,,,,,,,,,stimuli/alien_stimuli/66.png,66,1,28,,,,,,,30,,,,,,,,2035.4799998002127,2035.4799998002127,2035.4799998002127,2035.4799998002127,2035.4799998002127,right,0.956638399977237,24,0,0,99,-0.08,0.08,right,0.8666574999224395,,,,,2033.9222929000389,2035.4799998002127,0.32,0.08,0.0,0.4,0.08,0.32,0.12,0.32,0.08,2033.3218646000605,2033.3218646000605,2033.3218646000605,2033.3218646000605,2033.3218646000605,2033.3218646000605,2033.3218646000605,2033.3218646000605,2033.305168300029,0.7023771000094712,return,0.5748644999694079,,,,,,,,,,,,,,,,,,,,,,,,,,,,,,,,,AMJDVJ,train_x,red_square,top_left,2025-04-09_17h38.55.199,HideSeek_v1,2022.2.5,59.94894753419525,
,0,6,3,6,3,0,46,,train_dim1_1,27,30,,,,2,0,2,0,,,,,,,,,0,0,0,0,0,26,26,26,1,0,1,0,,,,,,,,,,,,,,,,,,,,,,,,,,,,,,,,,,,,,,,,,,,,,,,,,,,,,,,,,,,,,,,,30,,,,,,,,2036.4371854001656,2036.4371854001656,2036.4371854001656,2036.4371854001656,2036.4371854001656,right,0.2764683000277728,24,0,0,99,0.0,0.08,right,0.19925609999336302,,,,,,,,,,,,,,,,,,,,,,,,,,,,,,,,,,,,,,,,,,,,,,,,,,,,,,,,,,,,AMJDVJ,train_x,red_square,top_left,2025-04-09_17h38.55.199,HideSeek_v1,2022.2.5,59.94894753419525,
,0,6,3,6,3,0,46,,train_dim1_1,27,30,,,,2,0,2,0,,,,,,,,,0,0,0,0,0,26,26,26,2,0,2,0,,,,,,,,,,,,,,,,,,,,,,,,,,,,,,,,,,,,,,,,,,,,,,,,,,,,,,,,,,,,,,,,30,,,,,,,,2036.721095400164,2036.721095400164,2036.721095400164,2036.721095400164,2036.721095400164,return,3.629030599957332,24,1,0,0,0.0,0.08,return,3.5429930000100285,0,70,0.0,0.08,,,,,,,,,,,,,,,,,,,,,,,,,,,,,,,,,,,,,,,,,,,,,,,,,,,,,,,,AMJDVJ,train_x,red_square,top_left,2025-04-09_17h38.55.199,HideSeek_v1,2022.2.5,59.94894753419525,
,3,6,4,6,1,0,26,,train_dim1_1,28,30,,,,2,0,2,0,,,,,,,,,0,0,0,0,0,27,27,27,0,0,0,0,,,,,,,,,,,,,,,,,,,,,,,,,stimuli/alien_stimuli/26.png,,,,,,,,,,,,,,,,,,,,,,,,,,,,,stimuli/alien_stimuli/46.png,46,0,29,,,,,,,30,,,,,,,,2045.715294700116,2045.715294700116,2045.715294700116,2045.715294700116,2045.715294700116,right,3.6548544000834227,24,1,0,99,0.16,0.08,right,3.5426835999824107,,,,,2044.130682400195,2045.715294700116,0.08,0.08,0.0,0.24,0.08,0.08,-0.04,0.08,0.08,2041.9123570001684,2041.9123570001684,2041.9123570001684,2041.9123570001684,2041.9123570001684,2041.9123570001684,2041.9123570001684,2041.9123570001684,2041.8955049001147,2.3205102998763323,return,2.19176260009408,,,,,,,,,,,,,,,,,,,,,,,,,,,,,,,,,AMJDVJ,train_x,red_square,top_left,2025-04-09_17h38.55.199,HideSeek_v1,2022.2.5,59.94894753419525,
,3,6,4,6,1,0,26,,train_dim1_1,28,30,,,,2,0,2,0,,,,,,,,,0,0,0,0,0,27,27,27,1,0,1,0,,,,,,,,,,,,,,,,,,,,,,,,,,,,,,,,,,,,,,,,,,,,,,,,,,,,,,,,,,,,,,,,30,,,,,,,,2049.3537947000004,2049.3537947000004,2049.3537947000004,2049.3537947000004,2049.3537947000004,return,0.5092935001011938,25,0,0,1,0.16,0.08,return,0.42077399999834597,0,71,0.16,0.08,,,,,,,,,,,,,,,,,,,,,,,,,,,,,,,,,,,,,,,,,,,,,,,,,,,,,,,,AMJDVJ,train_x,red_square,top_left,2025-04-09_17h38.55.199,HideSeek_v1,2022.2.5,59.94894753419525,
,4,5,8,5,4,0,56,,train_dim1_1,29,30,,,,2,0,2,0,,,,,,,,,0,0,0,0,0,28,28,28,0,0,0,0,,,,,,,,,,,,,,,,,,,,,,,,,stimuli/alien_stimuli/56.png,,,,,,,,,,,,,,,,,,,,,,,,,,,,,stimuli/alien_stimuli/26.png,26,3,30,,,,,,,30,,,,,,,,2053.8521261001006,2053.8521261001006,2053.8521261001006,2053.8521261001006,2053.8521261001006,right,1.2014331999234855,25,0,0,99,0.24,0,right,1.0921652000397444,,,,,2052.27075590007,2053.8521261001006,0.16,0.08,0.0,0.08,0.08,0.16,0.12,0.16,0.08,2051.4311332001816,2051.4311332001816,2051.4311332001816,2051.4311332001816,2051.4311332001816,2051.4311332001816,2051.4311332001816,2051.4311332001816,2051.420057450142,0.9530359001364559,return,0.8194724000059068,,,,,,,,,,,,,,,,,,,,,,,,,,,,,,,,,AMJDVJ,train_x,red_square,top_left,2025-04-09_17h38.55.199,HideSeek_v1,2022.2.5,59.94894753419525,
,4,5,8,5,4,0,56,,train_dim1_1,29,30,,,,2,0,2,0,,,,,,,,,0,0,0,0,0,28,28,28,1,0,1,0,,,,,,,,,,,,,,,,,,,,,,,,,,,,,,,,,,,,,,,,,,,,,,,,,,,,,,,,,,,,,,,,30,,,,,,,,2055.040109100053,2055.040109100053,2055.040109100053,2055.040109100053,2055.040109100053,right,0.37535079987719655,25,0,0,99,0.32,0,right,0.29323269985616207,,,,,,,,,,,,,,,,,,,,,,,,,,,,,,,,,,,,,,,,,,,,,,,,,,,,,,,,,,,,AMJDVJ,train_x,red_square,top_left,2025-04-09_17h38.55.199,HideSeek_v1,2022.2.5,59.94894753419525,
,4,5,8,5,4,0,56,,train_dim1_1,29,30,,,,2,0,2,0,,,,,,,,,0,0,0,0,0,28,28,28,2,0,2,0,,,,,,,,,,,,,,,,,,,,,,,,,,,,,,,,,,,,,,,,,,,,,,,,,,,,,,,,,,,,,,,,30,,,,,,,,2055.422430300154,2055.422430300154,2055.422430300154,2055.422430300154,2055.422430300154,right,0.2932023999746889,25,0,0,99,0.4,0,right,0.21429260005243123,,,,,,,,,,,,,,,,,,,,,,,,,,,,,,,,,,,,,,,,,,,,,,,,,,,,,,,,,,,,AMJDVJ,train_x,red_square,top_left,2025-04-09_17h38.55.199,HideSeek_v1,2022.2.5,59.94894753419525,
,4,5,8,5,4,0,56,,train_dim1_1,29,30,,,,2,0,2,0,,,,,,,,,0,0,0,0,0,28,28,28,3,0,3,0,,,,,,,,,,,,,,,,,,,,,,,,,,,,,,,,,,,,,,,,,,,,,,,,,,,,,,,,,,,,,,,,30,,,,,,,,2055.722364400048,2055.722364400048,2055.722364400048,2055.722364400048,2055.722364400048,right,0.3098504999652505,25,0,0,99,0.48000000000000004,0,right,0.21944620017893612,,,,,,,,,,,,,,,,,,,,,,,,,,,,,,,,,,,,,,,,,,,,,,,,,,,,,,,,,,,,AMJDVJ,train_x,red_square,top_left,2025-04-09_17h38.55.199,HideSeek_v1,2022.2.5,59.94894753419525,
,4,5,8,5,4,0,56,,train_dim1_1,29,30,,,,2,0,2,0,,,,,,,,,0,0,0,0,0,28,28,28,4,0,4,0,,,,,,,,,,,,,,,,,,,,,,,,,,,,,,,,,,,,,,,,,,,,,,,,,,,,,,,,,,,,,,,,30,,,,,,,,2056.038982300088,2056.038982300088,2056.038982300088,2056.038982300088,2056.038982300088,return,1.0108336000703275,26,0,0,1,0.48000000000000004,0,return,0.9227954999078065,0,75,0.48000000000000004,0,,,,,,,,,,,,,,,,,,,,,,,,,,,,,,,,,,,,,,,,,,,,,,,,,,,,,,,,AMJDVJ,train_x,red_square,top_left,2025-04-09_17h38.55.199,HideSeek_v1,2022.2.5,59.94894753419525,
,2,7,2,7,0,0,16,,train_dim1_1,30,30,,,,2,0,2,0,,,,,,,,,0,0,0,0,0,29,29,29,0,0,0,0,,,,,,,,,,,,,,,,,,,,,,,,,stimuli/alien_stimuli/16.png,,,,,,,,,,,,,,,,,,,,,,,,,,,,,stimuli/alien_stimuli/56.png,56,4,31,,,,,,,30,,,,,,,,2060.8891790001653,2060.8891790001653,2060.8891790001653,2060.8891790001653,2060.8891790001653,return,1.4066085000522435,27,0,0,1,0,0.16,return,1.315760400146246,0,75,0,0.16,2059.325810900191,2060.8891790001653,0.48,0,0.0,0.32,0.0,0.48,0.32,0.48,0,2058.61979710008,2058.61979710008,2058.61979710008,2058.61979710008,2058.61979710008,2058.61979710008,2058.61979710008,2058.61979710008,2058.609420450125,0.818894499912858,return,0.6753797000274062,,,,,,,,,,,,,,,,,,,,,,,,,,,,,,,,,AMJDVJ,train_x,red_square,top_left,2025-04-09_17h38.55.199,HideSeek_v1,2022.2.5,59.94894753419525,
,,,,,,,,,,,30,,,,2,0,2,0,,,,,,,,,,,,,,,,,,,,,,,,,,,,,,,,,,,,,,,,,,,,,,,,,,,,,,,,,,,,,,,,,,,,,,,,,,stimuli/alien_stimuli/16.png,16,2,32,21,0.7,1.125,1,1,1,30,0,conditions/schedules/train_x_first/red_square_00/top_left/inputTrain_2.1.xlsx,99,1,2,1,0,,,,,,,,,,,1,,,,,,,,,2064.4808574002236,2066.026802000124,0,0.16,0.0,0.0,0.16,0,0.0,0,0.16,2063.856049800059,2063.856049800059,2063.856049800059,2063.856049800059,2063.856049800059,2063.856049800059,2063.856049800059,2063.856049800059,2063.8470878500493,0.7362746999133378,return,0.6090234001167119,0,0.9,0,1,27,,,,,,,,,,,,,,,,,,,,,,,,,,,,AMJDVJ,train_x,red_square,top_left,2025-04-09_17h38.55.199,HideSeek_v1,2022.2.5,59.94894753419525,
,,,,,,,,,,,,,,,3,0,3,0,0,0,0,0,,,,,,,,,,,,,,,,,,,,,,,,,,,,,,,conditions/schedules/train_x_first/red_square_00/top_left/instructions/Slide17.png,conditions/schedules/train_x_first/red_square_00/top_left/instructions/Audio17.wav,2066.026802000124,2066.0155595501888,17,"[7.905163299990818, 11.291888999985531, 16.550992699805647, 19.731756299966946, 4.486093299929053, 4.952624500030652, 5.652486999984831, 12.054603300057352, 6.4517172002233565, 7.268590500112623, 10.070044199936092, 12.808304599951953, 18.014591600047424, 13.352771000005305, 32.60484130005352, 27.51815289980732, 46.89139929995872]","[7.905172499828041, 0.000224399846047163, 0.03226110013201833, 0.01383560011163354, 0.032195999985560775, 0.014470400055870414, 0.0462765998672694, 0.00020720018073916435, 0.06250110012479126, 0.04619459994137287, 0.12908790004439652, 12.808332599932328, 0.030298100085929036, 13.35277789994143, 0.0002158998977392912, 27.518162099877372, 46.89140659989789]",0,,,,,,,,,,,,,,,,,,,,,,,,,,,,,,,,,,,,,,,,,,,,,,,,,,,,,,,,,,,,,,,,,,,,,,,,,,,,,,,,,,,,,,,,,,,,,,,,,,,,,,,,,,,,,,,,,,,,,,,,,,,,AMJDVJ,train_x,red_square,top_left,2025-04-09_17h38.55.199,HideSeek_v1,2022.2.5,59.94894753419525,
,,,,,,,,,,,,,,,3,0,3,0,1,0,1,0,,,,,,,,,,,,,,,,,,,,,,,,,,,,,,,conditions/schedules/train_x_first/red_square_00/top_left/instructions/Slide18.png,conditions/schedules/train_x_first/red_square_00/top_left/instructions/Audio18.wav,2112.9898507001344,2112.9878315501846,18,"[7.905163299990818, 11.291888999985531, 16.550992699805647, 19.731756299966946, 4.486093299929053, 4.952624500030652, 5.652486999984831, 12.054603300057352, 6.4517172002233565, 7.268590500112623, 10.070044199936092, 12.808304599951953, 18.014591600047424, 13.352771000005305, 32.60484130005352, 27.51815289980732, 46.89139929995872, 7.085107200080529]","[7.905172499828041, 0.000224399846047163, 0.03226110013201833, 0.01383560011163354, 0.032195999985560775, 0.014470400055870414, 0.0462765998672694, 0.00020720018073916435, 0.06250110012479126, 0.04619459994137287, 0.12908790004439652, 12.808332599932328, 0.030298100085929036, 13.35277789994143, 0.0002158998977392912, 27.518162099877372, 0.0002071000635623932, 7.085113600129262]",0,,,,,,,,,,,,,,,,,,,,,,,,,,,,,,,,,,,,,,,,,,,,,,,,,,,,,,,,,,,,,,,,,,,,,,,,,,,,,,,,,,,,,,,,,,,,,,,,,,,,,,,,,,,,,,,,,,,,,,,,,,,,AMJDVJ,train_x,red_square,top_left,2025-04-09_17h38.55.199,HideSeek_v1,2022.2.5,59.94894753419525,
,,,,,,,,,,,,,,,3,0,3,0,2,0,2,0,,,,,,,,,,,,,,,,,,,,,,,,,,,,,,,conditions/schedules/train_x_first/red_square_00/top_left/instructions/Slide19.png,conditions/schedules/train_x_first/red_square_00/top_left/instructions/Audio19.wav,2120.1122958001215,2120.11055505001,19,"[7.905163299990818, 11.291888999985531, 16.550992699805647, 19.731756299966946, 4.486093299929053, 4.952624500030652, 5.652486999984831, 12.054603300057352, 6.4517172002233565, 7.268590500112623, 10.070044199936092, 12.808304599951953, 18.014591600047424, 13.352771000005305, 32.60484130005352, 27.51815289980732, 46.89139929995872, 7.085107200080529, 10.320516600040719]","[7.905172499828041, 0.000224399846047163, 0.03226110013201833, 0.01383560011163354, 0.032195999985560775, 0.014470400055870414, 0.0462765998672694, 0.00020720018073916435, 0.06250110012479126, 0.04619459994137287, 0.12908790004439652, 12.808332599932328, 0.030298100085929036, 13.35277789994143, 0.0002158998977392912, 27.518162099877372, 0.0002071000635623932, 0.06260269996710122, 10.320523199858144]",0,,,,,,,,,,,,,,,,,,,,,,,,,,,,,,,,,,,,,,,,,,,,,,,,,,,,,,,,,,,,,,,,,,,,,,,,,,,,,,,,,,,,,,,,,,,,,,,,,,,,,,,,,,,,,,,,,,,,,,,,,,,,AMJDVJ,train_x,red_square,top_left,2025-04-09_17h38.55.199,HideSeek_v1,2022.2.5,59.94894753419525,
,,,,,,,,,,,,,,,3,0,3,0,3,0,3,0,,,,,,,,,,,,,,,,,,,,,,,,,,,,,,,conditions/schedules/train_x_first/red_square_00/top_left/instructions/Slide20.png,conditions/schedules/train_x_first/red_square_00/top_left/instructions/Audio20.wav,2130.503554900177,2130.502414350165,20,"[7.905163299990818, 11.291888999985531, 16.550992699805647, 19.731756299966946, 4.486093299929053, 4.952624500030652, 5.652486999984831, 12.054603300057352, 6.4517172002233565, 7.268590500112623, 10.070044199936092, 12.808304599951953, 18.014591600047424, 13.352771000005305, 32.60484130005352, 27.51815289980732, 46.89139929995872, 7.085107200080529, 10.320516600040719, 14.325307099847123]","[7.905172499828041, 0.000224399846047163, 0.03226110013201833, 0.01383560011163354, 0.032195999985560775, 0.014470400055870414, 0.0462765998672694, 0.00020720018073916435, 0.06250110012479126, 0.04619459994137287, 0.12908790004439652, 12.808332599932328, 0.030298100085929036, 13.35277789994143, 0.0002158998977392912, 27.518162099877372, 0.0002071000635623932, 0.06260269996710122, 0.030090200016275048, 14.325317199807614]",0,,,,,,,,,,,,,,,,,,,,,,,,,,,,,,,,,,,,,,,,,,,,,,,,,,,,,,,,,,,,,,,,,,,,,,,,,,,,,,,,,,,,,,,,,,,,,,,,,,,,,,,,,,,,,,,,,,,,,,,,,,,,AMJDVJ,train_x,red_square,top_left,2025-04-09_17h38.55.199,HideSeek_v1,2022.2.5,59.94894753419525,
1,2,8,2,3,0,-5,11,2,instr_dim1_2,,,,,,3,0,3,0,,,,,0,0,0,0,,,,,,,,,,,,,,,,,,,,,,,,,,,,,,,,,,,,,stimuli/alien_stimuli/11.png,conditions/schedules/train_x_first/red_square_00/top_left/inputInstr_2.xlsx,stimuli/alien_stimuli/11.png,2144.9279304000083,2144.9279304000083,2144.9279304000083,2144.9279304000083,2144.931180650089,return,9.970441800076514,"[-0.16, -0.08, 0, 0.08, 0.16, 0.24, 0.32, 0.4, 0.48, 0.56]","[-0.4, -0.32, -0.24, -0.16, -0.08, 0, 0.08, 0.16, 0.24, 0.32]",3,8,2,2,0.4,0.0,2155.055129799992,2155.055129799992,2155.055129799992,2155.055129799992,2155.055129799992,2155.055129799992,2155.055129799992,2155.0560093502513,7.240538900019601,return,7.089511299971491,stimuli/alien_stimuli/11.png,11,2,1,,,,,,,,,,,,,,,,,,,,,,,,,,,,,,,,,,,,,,,,,,,,,,,,,,,,,,,,,,,,,,,,,,,,,,,,,,,,,,,,,,,,,,,,,AMJDVJ,train_x,red_square,top_left,2025-04-09_17h38.55.199,HideSeek_v1,2022.2.5,59.94894753419525,
,,,,,,,,,,,30,,,,3,0,3,0,,,,,,,,,,,,,,,,,,,,,,,,,,,,,,,,,,,,,,,,,,,,,,,,,,,,,,,,,,,,,,,,,,,,,,,,,,,,,,21,0.7,1.125,1,99,2,30,0,conditions/schedules/train_x_first/red_square_00/top_left/inputTrain_2.1.xlsx,99,1,2,1,0,,,,,,,,,,,,,,,,,,,,,,,,,,,,,,,,,,,,,,,,,,,,,,,,,,,,,,,,,,,,,,,,,,,,,,,,,,,AMJDVJ,train_x,red_square,top_left,2025-04-09_17h38.55.199,HideSeek_v1,2022.2.5,59.94894753419525,
,,,,,,,,,,,,,,,4,0,4,0,0,0,0,0,,,,,,,,,,,,,,,,,,,,,,,,,,,,,,,conditions/schedules/train_x_first/red_square_00/top_left/instructions/Slide21.png,conditions/schedules/train_x_first/red_square_00/top_left/instructions/Audio21.wav,2162.313990500057,2162.312068000203,21,"[7.905163299990818, 11.291888999985531, 16.550992699805647, 19.731756299966946, 4.486093299929053, 4.952624500030652, 5.652486999984831, 12.054603300057352, 6.4517172002233565, 7.268590500112623, 10.070044199936092, 12.808304599951953, 18.014591600047424, 13.352771000005305, 32.60484130005352, 27.51815289980732, 46.89139929995872, 7.085107200080529, 10.320516600040719, 14.325307099847123, 20.39610469993204]","[7.905172499828041, 0.000224399846047163, 0.03226110013201833, 0.01383560011163354, 0.032195999985560775, 0.014470400055870414, 0.0462765998672694, 0.00020720018073916435, 0.06250110012479126, 0.04619459994137287, 0.12908790004439652, 12.808332599932328, 0.030298100085929036, 13.35277789994143, 0.0002158998977392912, 27.518162099877372, 0.0002071000635623932, 0.06260269996710122, 0.030090200016275048, 14.325317199807614, 20.396111199865118]",0,,,,,,,,,,,,,,,,,,,,,,,,,,,,,,,,,,,,,,,,,,,,,,,,,,,,,,,,,,,,,,,,,,,,,,,,,,,,,,,,,,,,,,,,,,,,,,,,,,,,,,,,,,,,,,,,,,,,,,,,,,,,AMJDVJ,train_x,red_square,top_left,2025-04-09_17h38.55.199,HideSeek_v1,2022.2.5,59.94894753419525,
2,0,8,0,8,0,0,16,2,instr_dim1_2,,,,,,4,0,4,0,,,,,0,0,0,0,,,,,,,,,,,,,,,,,,,,,,,,,,,,,,,,,,,,,stimuli/alien_stimuli/16.png,conditions/schedules/train_x_first/red_square_00/top_left/inputInstr_2.xlsx,stimuli/alien_stimuli/16.png,2182.8129197000526,2182.8129197000526,2182.8129197000526,2182.8129197000526,2182.8128227502575,return,7.039857700001448,"[-0.16, -0.08, 0, 0.08, 0.16, 0.24, 0.32, 0.4, 0.48, 0.56]","[-0.4, -0.32, -0.24, -0.16, -0.08, 0, 0.08, 0.16, 0.24, 0.32]",8,8,0,0,0.0,0.0,2190.016968900105,2190.016968900105,2190.016968900105,2190.016968900105,2190.016968900105,2190.016968900105,2190.016968900105,2190.018360350188,8.158105599926785,return,8.008200500160456,stimuli/alien_stimuli/16.png,16,0,2,,,,,,,,,,,,,,,,,,,,,,,,,,,,,,,,,,,,,,,,,,,,,,,,,,,,,,,,,,,,,,,,,,,,,,,,,,,,,,,,,,,,,,,,,AMJDVJ,train_x,red_square,top_left,2025-04-09_17h38.55.199,HideSeek_v1,2022.2.5,59.94894753419525,
,,,,,,,,,,,30,,,,4,0,4,0,,,,,,,,,,,,,,,,,,,,,,,,,,,,,,,,,,,,,,,,,,,,,,,,,,,,,,,,,,,,,,,,,,,,,,,,,,,,,,21,0.7,1.125,1,99,2,30,0,conditions/schedules/train_x_first/red_square_00/top_left/inputTrain_2.1.xlsx,99,1,2,1,0,,,,,,,,,,,,,,,,,,,,,,,,,,,,,,,,,,,,,,,,,,,,,,,,,,,,,,,,,,,,,,,,,,,,,,,,,,,AMJDVJ,train_x,red_square,top_left,2025-04-09_17h38.55.199,HideSeek_v1,2022.2.5,59.94894753419525,
,,,,,,,,,,,,,,,5,0,5,0,0,0,0,0,,,,,,,,,,,,,,,,,,,,,,,,,,,,,,,conditions/schedules/train_x_first/red_square_00/top_left/instructions/Slide22.png,conditions/schedules/train_x_first/red_square_00/top_left/instructions/Audio22.wav,2198.2005615001544,2198.191974500194,22,"[7.905163299990818, 11.291888999985531, 16.550992699805647, 19.731756299966946, 4.486093299929053, 4.952624500030652, 5.652486999984831, 12.054603300057352, 6.4517172002233565, 7.268590500112623, 10.070044199936092, 12.808304599951953, 18.014591600047424, 13.352771000005305, 32.60484130005352, 27.51815289980732, 46.89139929995872, 7.085107200080529, 10.320516600040719, 14.325307099847123, 20.39610469993204, 60.907465999946]","[7.905172499828041, 0.000224399846047163, 0.03226110013201833, 0.01383560011163354, 0.032195999985560775, 0.014470400055870414, 0.0462765998672694, 0.00020720018073916435, 0.06250110012479126, 0.04619459994137287, 0.12908790004439652, 12.808332599932328, 0.030298100085929036, 13.35277789994143, 0.0002158998977392912, 27.518162099877372, 0.0002071000635623932, 0.06260269996710122, 0.030090200016275048, 14.325317199807614, 20.396111199865118, 60.90747189987451]",0,,,,,,,,,,,,,,,,,,,,,,,,,,,,,,,,,,,,,,,,,,,,,,,,,,,,,,,,,,,,,,,,,,,,,,,,,,,,,,,,,,,,,,,,,,,,,,,,,,,,,,,,,,,,,,,,,,,,,,,,,,,,AMJDVJ,train_x,red_square,top_left,2025-04-09_17h38.55.199,HideSeek_v1,2022.2.5,59.94894753419525,
