trialInstr,x_fixStart,y_fixStart,x_corrSteps,y_corrSteps,x_nrSteps,y_nrSteps,alienID,trialLength,version,trialTrain,praclen,testlen,trial_label,break_on_off,beforeExpLoop.thisRepN,beforeExpLoop.thisTrialN,beforeExpLoop.thisN,beforeExpLoop.thisIndex,mini_instr_trials.thisRepN,mini_instr_trials.thisTrialN,mini_instr_trials.thisN,mini_instr_trials.thisIndex,instrLoop.thisRepN,instrLoop.thisTrialN,instrLoop.thisN,instrLoop.thisIndex,repeat_prac.thisRepN,repeat_prac.thisTrialN,repeat_prac.thisN,repeat_prac.thisIndex,trainLoop.thisRepN,trainLoop.thisTrialN,trainLoop.thisN,trainLoop.thisIndex,moveLoop_train.thisRepN,moveLoop_train.thisTrialN,moveLoop_train.thisN,moveLoop_train.thisIndex,experiment.thisRepN,experiment.thisTrialN,experiment.thisN,experiment.thisIndex,moveLoop_test.thisRepN,moveLoop_test.thisTrialN,moveLoop_test.thisN,moveLoop_test.thisIndex,mini_instr2_trials.thisRepN,mini_instr2_trials.thisTrialN,mini_instr2_trials.thisN,mini_instr2_trials.thisIndex,start_all_time,url,slideStim,audioStim,slides.started,sounds.started,nextButton.numClicks,nextButton.timesOn,nextButton.timesOff,prev_but.numClicks,prev_but.timesOn,prev_but.timesOff,alienStim,instrFile,alienStim_instr,gridImage_instr.started,startPos_3.started,key_instr.started,alienImage_3.started,sounds_1.started,key_instr.keys,key_instr.rt,all_x,all_y,FBy_corrSteps,FBy_fixStart,FBx_corrSteps,FBx_fixStart,FBy_pathSize_check,FBx_pathSize_check,gridImage_9.started,alienImageFB_3.started,startPosFB_3.started,keyFB_3.started,pathLine_ydir_2.started,pathLine_xdir_2.started,alienFace_3.started,sounds_2.started,RTFB_instr,keyFB_3.keys,keyFB_3.rt,draw_alienStim,draw_alienID,test_x,nrepcount,perfthres,percthres,earlierperf,earlystop,nextPrac,fileidx,praclen,saveACC_train,pracFile,nextPrac_train,addNrep,fileidx_endr,repExp,showearly,gridImage_4.started,startPos.started,movePos.started,key_resp.started,alienImage.started,buttonPress_train,RTchoice_train,cumAcctrain,aCorr,saveACC_choice,corrAns,x_movePos_end,y_movePos_end,key_resp.keys,key_resp.rt,wLy_dir,wLx_dir,x_movePos,y_movePos,text_2.started,text_2.stopped,aft_x_corrPos,aft_y_corrPos,y_pathSize_check,x_pathSize_check,y_pathdirY,x_pathdirY,x_pathdirX,x_corrPos,y_corrPos,gridImage_6.started,alienImageFB_2.started,startPosFB_2.started,movePosFB_2.started,keyFB_2.started,pathLine_xdir.started,pathLine_ydir.started,alienFace.started,sounds_4.started,RT_FBtrain,keyFB_2.keys,keyFB_2.rt,saveACC_pre,ACC,within_saveACC_train,earlystop_wloop,cumAcctrain_check,gridImage_3.started,alienImage_test.started,startPos_test.started,movePos_test.started,key_resp_test.started,wLy_dir_test,wLx_dir_test,buttonPress_test,RTchoice_test,cumAcctest,corrAns_test,key_resp_test.keys,key_resp_test.rt,text_3.started,text_3.stopped,total_time,end_all_time,key_resp_3.keys,slides_2.started,sounds_3.started,nextButton_2.numClicks,nextButton_2.timesOn,nextButton_2.timesOff,prev_but_2.numClicks,prev_but_2.timesOn,prev_but_2.timesOff,bye.started,participant,train_first,00_coordinate,starting corner,date,expName,psychopyVersion,frameRate,
,,,,,,,,,,,,,,,0,0,0,0,0,0,0,0,,,,,,,,,,,,,,,,,,,,,,,,,,,,,start_all_time,testround,conditions/schedules/train_x_first/blue_star_00/bottom_right/instructions/Slide1.png,conditions/schedules/train_x_first/blue_star_00/bottom_right/instructions/Audio1.wav,44.237771400017664,44.18983680090168,1,[10.774241599952802],[10.774249200010672],0,,,,,,,,,,,,,,,,,,,,,,,,,,,,,,,,,,,,,,,,,,,,,,,,,,,,,,,,,,,,,,,,,,,,,,,,,,,,,,,,,,,,,,,,,,,,,,,,,,,,,,,,,,,,,,,,,,,,,,,,,,,,AP5DJG,train_x,blue_star,bottom_right,2025-06-23_16h21.23.506,HideSeek_v1,2022.2.5,59.93960484086877,
,,,,,,,,,,,,,,,0,0,0,0,1,0,1,0,,,,,,,,,,,,,,,,,,,,,,,,,,,,,,,conditions/schedules/train_x_first/blue_star_00/bottom_right/instructions/Slide2.png,conditions/schedules/train_x_first/blue_star_00/bottom_right/instructions/Audio2.wav,55.02943160000723,55.03164310002467,2,"[10.774241599952802, 17.647570699919015]","[0.00021730002481490374, 17.647577799973078]",0,,,,,,,,,,,,,,,,,,,,,,,,,,,,,,,,,,,,,,,,,,,,,,,,,,,,,,,,,,,,,,,,,,,,,,,,,,,,,,,,,,,,,,,,,,,,,,,,,,,,,,,,,,,,,,,,,,,,,,,,,,,,AP5DJG,train_x,blue_star,bottom_right,2025-06-23_16h21.23.506,HideSeek_v1,2022.2.5,59.93960484086877,
,,,,,,,,,,,,,,,0,0,0,0,2,0,2,0,,,,,,,,,,,,,,,,,,,,,,,,,,,,,,,conditions/schedules/train_x_first/blue_star_00/bottom_right/instructions/Slide3.png,conditions/schedules/train_x_first/blue_star_00/bottom_right/instructions/Audio3.wav,72.7618524999125,72.76275860001333,3,"[10.774241599952802, 17.647570699919015, 16.362287000054494]","[0.00021730002481490374, 17.647577799973078, 16.36229370010551]",0,,,,,,,,,,,,,,,,,,,,,,,,,,,,,,,,,,,,,,,,,,,,,,,,,,,,,,,,,,,,,,,,,,,,,,,,,,,,,,,,,,,,,,,,,,,,,,,,,,,,,,,,,,,,,,,,,,,,,,,,,,,,AP5DJG,train_x,blue_star,bottom_right,2025-06-23_16h21.23.506,HideSeek_v1,2022.2.5,59.93960484086877,
,,,,,,,,,,,,,,,0,0,0,0,3,0,3,0,,,,,,,,,,,,,,,,,,,,,,,,,,,,,,,conditions/schedules/train_x_first/blue_star_00/bottom_right/instructions/Slide4.png,conditions/schedules/train_x_first/blue_star_00/bottom_right/instructions/Audio4.wav,89.20463799999561,89.19306100002723,4,"[10.774241599952802, 17.647570699919015, 16.362287000054494, 19.01850010000635]","[0.00021730002481490374, 17.647577799973078, 16.36229370010551, 19.018506600055844]",0,,,,,,,,,,,,,,,,,,,,,,,,,,,,,,,,,,,,,,,,,,,,,,,,,,,,,,,,,,,,,,,,,,,,,,,,,,,,,,,,,,,,,,,,,,,,,,,,,,,,,,,,,,,,,,,,,,,,,,,,,,,,AP5DJG,train_x,blue_star,bottom_right,2025-06-23_16h21.23.506,HideSeek_v1,2022.2.5,59.93960484086877,
,,,,,,,,,,,,,,,0,0,0,0,4,0,4,0,,,,,,,,,,,,,,,,,,,,,,,,,,,,,,,conditions/schedules/train_x_first/blue_star_00/bottom_right/instructions/Slide5.png,conditions/schedules/train_x_first/blue_star_00/bottom_right/instructions/Audio5.wav,108.29023499996401,108.29230489995098,5,"[10.774241599952802, 17.647570699919015, 16.362287000054494, 19.01850010000635, 4.253028800012544]","[0.00021730002481490374, 17.647577799973078, 16.36229370010551, 0.0002098999684676528, 4.253035900066607]",0,,,,,,,,,,,,,,,,,,,,,,,,,,,,,,,,,,,,,,,,,,,,,,,,,,,,,,,,,,,,,,,,,,,,,,,,,,,,,,,,,,,,,,,,,,,,,,,,,,,,,,,,,,,,,,,,,,,,,,,,,,,,AP5DJG,train_x,blue_star,bottom_right,2025-06-23_16h21.23.506,HideSeek_v1,2022.2.5,59.93960484086877,
,,,,,,,,,,,,,,,0,0,0,0,5,0,5,0,,,,,,,,,,,,,,,,,,,,,,,,,,,,,,,conditions/schedules/train_x_first/blue_star_00/bottom_right/instructions/Slide6.png,conditions/schedules/train_x_first/blue_star_00/bottom_right/instructions/Audio6.wav,112.59512969991192,112.59590370003134,6,"[10.774241599952802, 17.647570699919015, 16.362287000054494, 19.01850010000635, 4.253028800012544, 4.735405700048432]","[0.00021730002481490374, 17.647577799973078, 16.36229370010551, 0.0002098999684676528, 0.03154480003286153, 4.735412899986841]",0,,,,,,,,,,,,,,,,,,,,,,,,,,,,,,,,,,,,,,,,,,,,,,,,,,,,,,,,,,,,,,,,,,,,,,,,,,,,,,,,,,,,,,,,,,,,,,,,,,,,,,,,,,,,,,,,,,,,,,,,,,,,AP5DJG,train_x,blue_star,bottom_right,2025-06-23_16h21.23.506,HideSeek_v1,2022.2.5,59.93960484086877,
,,,,,,,,,,,,,,,0,0,0,0,6,0,6,0,,,,,,,,,,,,,,,,,,,,,,,,,,,,,,,conditions/schedules/train_x_first/blue_star_00/bottom_right/instructions/Slide7.png,conditions/schedules/train_x_first/blue_star_00/bottom_right/instructions/Audio7.wav,117.38250029995106,117.3830406000372,7,"[10.774241599952802, 17.647570699919015, 16.362287000054494, 19.01850010000635, 4.253028800012544, 4.735405700048432, 4.852304400061257]","[0.00021730002481490374, 17.647577799973078, 16.36229370010551, 0.0002098999684676528, 0.03154480003286153, 0.0479379000607878, 4.8523109999950975]",0,,,,,,,,,,,,,,,,,,,,,,,,,,,,,,,,,,,,,,,,,,,,,,,,,,,,,,,,,,,,,,,,,,,,,,,,,,,,,,,,,,,,,,,,,,,,,,,,,,,,,,,,,,,,,,,,,,,,,,,,,,,,AP5DJG,train_x,blue_star,bottom_right,2025-06-23_16h21.23.506,HideSeek_v1,2022.2.5,59.93960484086877,
,,,,,,,,,,,,,,,0,0,0,0,7,0,7,0,,,,,,,,,,,,,,,,,,,,,,,,,,,,,,,conditions/schedules/train_x_first/blue_star_00/bottom_right/instructions/Slide8.png,conditions/schedules/train_x_first/blue_star_00/bottom_right/instructions/Audio8.wav,122.28923629992642,122.28726800000295,8,"[10.774241599952802, 17.647570699919015, 16.362287000054494, 19.01850010000635, 4.253028800012544, 4.735405700048432, 4.852304400061257, 11.30457449995447]","[0.00021730002481490374, 17.647577799973078, 16.36229370010551, 0.0002098999684676528, 0.03154480003286153, 0.0479379000607878, 0.06331070000305772, 11.304581000003964]",0,,,,,,,,,,,,,,,,,,,,,,,,,,,,,,,,,,,,,,,,,,,,,,,,,,,,,,,,,,,,,,,,,,,,,,,,,,,,,,,,,,,,,,,,,,,,,,,,,,,,,,,,,,,,,,,,,,,,,,,,,,,,AP5DJG,train_x,blue_star,bottom_right,2025-06-23_16h21.23.506,HideSeek_v1,2022.2.5,59.93960484086877,
,,,,,,,,,,,,,,,0,0,0,0,8,0,8,0,,,,,,,,,,,,,,,,,,,,,,,,,,,,,,,conditions/schedules/train_x_first/blue_star_00/bottom_right/instructions/Slide9.png,conditions/schedules/train_x_first/blue_star_00/bottom_right/instructions/Audio9.wav,133.66318169992883,133.66313609998906,9,"[10.774241599952802, 17.647570699919015, 16.362287000054494, 19.01850010000635, 4.253028800012544, 4.735405700048432, 4.852304400061257, 11.30457449995447, 5.535605800105259]","[0.00021730002481490374, 17.647577799973078, 16.36229370010551, 0.0002098999684676528, 0.03154480003286153, 0.0479379000607878, 0.06331070000305772, 0.03093910007737577, 5.535612800042145]",0,,,,,,,,,,,,,,,,,,,,,,,,,,,,,,,,,,,,,,,,,,,,,,,,,,,,,,,,,,,,,,,,,,,,,,,,,,,,,,,,,,,,,,,,,,,,,,,,,,,,,,,,,,,,,,,,,,,,,,,,,,,,AP5DJG,train_x,blue_star,bottom_right,2025-06-23_16h21.23.506,HideSeek_v1,2022.2.5,59.93960484086877,
,,,,,,,,,,,,,,,0,0,0,0,9,0,9,0,,,,,,,,,,,,,,,,,,,,,,,,,,,,,,,conditions/schedules/train_x_first/blue_star_00/bottom_right/instructions/Slide10.png,conditions/schedules/train_x_first/blue_star_00/bottom_right/instructions/Audio10.wav,139.23723869991954,139.23461860002718,10,"[10.774241599952802, 17.647570699919015, 16.362287000054494, 19.01850010000635, 4.253028800012544, 4.735405700048432, 4.852304400061257, 11.30457449995447, 5.535605800105259, 6.716676100040786]","[0.00021730002481490374, 17.647577799973078, 16.36229370010551, 0.0002098999684676528, 0.03154480003286153, 0.0479379000607878, 0.06331070000305772, 0.03093910007737577, 0.04565420001745224, 6.716682699974626]",0,,,,,,,,,,,,,,,,,,,,,,,,,,,,,,,,,,,,,,,,,,,,,,,,,,,,,,,,,,,,,,,,,,,,,,,,,,,,,,,,,,,,,,,,,,,,,,,,,,,,,,,,,,,,,,,,,,,,,,,,,,,,AP5DJG,train_x,blue_star,bottom_right,2025-06-23_16h21.23.506,HideSeek_v1,2022.2.5,59.93960484086877,
,,,,,,,,,,,,,,,0,0,0,0,10,0,10,0,,,,,,,,,,,,,,,,,,,,,,,,,,,,,,,conditions/schedules/train_x_first/blue_star_00/bottom_right/instructions/Slide11.png,conditions/schedules/train_x_first/blue_star_00/bottom_right/instructions/Audio11.wav,146.010857700021,146.00661700002385,11,"[10.774241599952802, 17.647570699919015, 16.362287000054494, 19.01850010000635, 4.253028800012544, 4.735405700048432, 4.852304400061257, 11.30457449995447, 5.535605800105259, 6.716676100040786, 9.351275600027293]","[0.00021730002481490374, 17.647577799973078, 16.36229370010551, 0.0002098999684676528, 0.03154480003286153, 0.0479379000607878, 0.06331070000305772, 0.03093910007737577, 0.04565420001745224, 0.014157900004647672, 9.351282600080594]",0,,,,,,,,,,,,,,,,,,,,,,,,,,,,,,,,,,,,,,,,,,,,,,,,,,,,,,,,,,,,,,,,,,,,,,,,,,,,,,,,,,,,,,,,,,,,,,,,,,,,,,,,,,,,,,,,,,,,,,,,,,,,AP5DJG,train_x,blue_star,bottom_right,2025-06-23_16h21.23.506,HideSeek_v1,2022.2.5,59.93960484086877,
,,,,,,,,,,,,,,,0,0,0,0,11,0,11,0,,,,,,,,,,,,,,,,,,,,,,,,,,,,,,,conditions/schedules/train_x_first/blue_star_00/bottom_right/instructions/Slide12.png,conditions/schedules/train_x_first/blue_star_00/bottom_right/instructions/Audio12.wav,155.43726899998728,155.43120469996938,12,"[10.774241599952802, 17.647570699919015, 16.362287000054494, 19.01850010000635, 4.253028800012544, 4.735405700048432, 4.852304400061257, 11.30457449995447, 5.535605800105259, 6.716676100040786, 9.351275600027293, 12.302358800079674]","[0.00021730002481490374, 17.647577799973078, 16.36229370010551, 0.0002098999684676528, 0.03154480003286153, 0.0479379000607878, 0.06331070000305772, 0.03093910007737577, 0.04565420001745224, 0.014157900004647672, 0.03146209998521954, 12.302365400013514]",0,,,,,,,,,,,,,,,,,,,,,,,,,,,,,,,,,,,,,,,,,,,,,,,,,,,,,,,,,,,,,,,,,,,,,,,,,,,,,,,,,,,,,,,,,,,,,,,,,,,,,,,,,,,,,,,,,,,,,,,,,,,,AP5DJG,train_x,blue_star,bottom_right,2025-06-23_16h21.23.506,HideSeek_v1,2022.2.5,59.93960484086877,
1,9,0,4,0,-5,0,11,2,instr_dim1_1,,,,,,0,0,0,0,,,,,0,0,0,0,,,,,,,,,,,,,,,,,,,,,,,,,,,,,,,,,,,,,stimuli/alien_stimuli/11.png,conditions/schedules/train_x_first/blue_star_00/bottom_right/inputInstr_1.xlsx,stimuli/alien_stimuli/11.png,167.83252449997235,167.83252449997235,167.83252449997235,167.83252449997235,167.8253256999422,return,10.535137500031851,"[-0.16, -0.08, 0, 0.08, 0.16, 0.24, 0.32, 0.4, 0.48, 0.56]","[-0.4, -0.32, -0.24, -0.16, -0.08, 0, 0.08, 0.16, 0.24, 0.32]",0,0,4,9,0.0,0.4,178.56046599999536,178.56046599999536,178.56046599999536,178.56046599999536,178.56046599999536,178.56046599999536,178.56046599999536,178.55047530005686,7.323696299921721,return,7.1317880999995396,stimuli/alien_stimuli/11.png,11,9,1,,,,,,,,,,,,,,,,,,,,,,,,,,,,,,,,,,,,,,,,,,,,,,,,,,,,,,,,,,,,,,,,,,,,,,,,,,,,,,,,,,,,,,,,,AP5DJG,train_x,blue_star,bottom_right,2025-06-23_16h21.23.506,HideSeek_v1,2022.2.5,59.93960484086877,
,,,,,,,,,,,30,,,,0,0,0,0,,,,,,,,,,,,,,,,,,,,,,,,,,,,,,,,,,,,,,,,,,,,,,,,,,,,,,,,,,,,,,,,,,,,,,,,,,,,,,21,0.7,0,0,99,1,30,0,conditions/schedules/train_x_first/blue_star_00/bottom_right/inputTrain_1.1.xlsx,99,1,1,1,0,,,,,,,,,,,,,,,,,,,,,,,,,,,,,,,,,,,,,,,,,,,,,,,,,,,,,,,,,,,,,,,,,,,,,,,,,,,AP5DJG,train_x,blue_star,bottom_right,2025-06-23_16h21.23.506,HideSeek_v1,2022.2.5,59.93960484086877,
,,,,,,,,,,,,,,,1,0,1,0,0,0,0,0,,,,,,,,,,,,,,,,,,,,,,,,,,,,,,,conditions/schedules/train_x_first/blue_star_00/bottom_right/instructions/Slide13.png,conditions/schedules/train_x_first/blue_star_00/bottom_right/instructions/Audio13.wav,185.86797080002725,185.8565609999816,13,"[10.774241599952802, 17.647570699919015, 16.362287000054494, 19.01850010000635, 4.253028800012544, 4.735405700048432, 4.852304400061257, 11.30457449995447, 5.535605800105259, 6.716676100040786, 9.351275600027293, 12.302358800079674, 16.79994459997397]","[0.00021730002481490374, 17.647577799973078, 16.36229370010551, 0.0002098999684676528, 0.03154480003286153, 0.0479379000607878, 0.06331070000305772, 0.03093910007737577, 0.04565420001745224, 0.014157900004647672, 0.03146209998521954, 12.302365400013514, 16.799951800028794]",0,,,,,,,,,,,,,,,,,,,,,,,,,,,,,,,,,,,,,,,,,,,,,,,,,,,,,,,,,,,,,,,,,,,,,,,,,,,,,,,,,,,,,,,,,,,,,,,,,,,,,,,,,,,,,,,,,,,,,,,,,,,,AP5DJG,train_x,blue_star,bottom_right,2025-06-23_16h21.23.506,HideSeek_v1,2022.2.5,59.93960484086877,
,,,,,,,,,,,,,,,1,0,1,0,1,0,1,0,,,,,,,,,,,,,,,,,,,,,,,,,,,,,,,conditions/schedules/train_x_first/blue_star_00/bottom_right/instructions/Slide14.png,conditions/schedules/train_x_first/blue_star_00/bottom_right/instructions/Audio14.wav,202.7358175999252,202.73706969997147,14,"[10.774241599952802, 17.647570699919015, 16.362287000054494, 19.01850010000635, 4.253028800012544, 4.735405700048432, 4.852304400061257, 11.30457449995447, 5.535605800105259, 6.716676100040786, 9.351275600027293, 12.302358800079674, 16.79994459997397, 12.743469400098547]","[0.00021730002481490374, 17.647577799973078, 16.36229370010551, 0.0002098999684676528, 0.03154480003286153, 0.0479379000607878, 0.06331070000305772, 0.03093910007737577, 0.04565420001745224, 0.014157900004647672, 0.03146209998521954, 12.302365400013514, 0.033033300074748695, 12.743477100040764]",0,,,,,,,,,,,,,,,,,,,,,,,,,,,,,,,,,,,,,,,,,,,,,,,,,,,,,,,,,,,,,,,,,,,,,,,,,,,,,,,,,,,,,,,,,,,,,,,,,,,,,,,,,,,,,,,,,,,,,,,,,,,,AP5DJG,train_x,blue_star,bottom_right,2025-06-23_16h21.23.506,HideSeek_v1,2022.2.5,59.93960484086877,
2,8,2,8,2,0,0,61,2,instr_dim1_1,,,,,,1,0,1,0,,,,,0,0,0,0,,,,,,,,,,,,,,,,,,,,,,,,,,,,,,,,,,,,,stimuli/alien_stimuli/61.png,conditions/schedules/train_x_first/blue_star_00/bottom_right/inputInstr_1.xlsx,stimuli/alien_stimuli/61.png,215.58026319998316,215.58026319998316,215.58026319998316,215.58026319998316,215.5811719999998,return,6.513537700055167,"[-0.16, -0.08, 0, 0.08, 0.16, 0.24, 0.32, 0.4, 0.48, 0.56]","[-0.4, -0.32, -0.24, -0.16, -0.08, 0, 0.08, 0.16, 0.24, 0.32]",2,2,8,8,0.0,0.0,222.2545590000227,222.2545590000227,222.2545590000227,222.2545590000227,222.2545590000227,222.2545590000227,222.2545590000227,222.23668099995703,9.375095000024885,return,9.206861600046977,stimuli/alien_stimuli/61.png,61,8,2,,,,,,,,,,,,,,,,,,,,,,,,,,,,,,,,,,,,,,,,,,,,,,,,,,,,,,,,,,,,,,,,,,,,,,,,,,,,,,,,,,,,,,,,,AP5DJG,train_x,blue_star,bottom_right,2025-06-23_16h21.23.506,HideSeek_v1,2022.2.5,59.93960484086877,
,,,,,,,,,,,30,,,,1,0,1,0,,,,,,,,,,,,,,,,,,,,,,,,,,,,,,,,,,,,,,,,,,,,,,,,,,,,,,,,,,,,,,,,,,,,,,,,,,,,,,21,0.7,0,0,99,1,30,0,conditions/schedules/train_x_first/blue_star_00/bottom_right/inputTrain_1.1.xlsx,99,1,1,1,0,,,,,,,,,,,,,,,,,,,,,,,,,,,,,,,,,,,,,,,,,,,,,,,,,,,,,,,,,,,,,,,,,,,,,,,,,,,AP5DJG,train_x,blue_star,bottom_right,2025-06-23_16h21.23.506,HideSeek_v1,2022.2.5,59.93960484086877,
,,,,,,,,,,,,,,,2,0,2,0,0,0,0,0,,,,,,,,,,,,,,,,,,,,,,,,,,,,,,,conditions/schedules/train_x_first/blue_star_00/bottom_right/instructions/Slide15.png,conditions/schedules/train_x_first/blue_star_00/bottom_right/instructions/Audio15.wav,231.63261749991216,231.62764349997744,15,"[10.774241599952802, 17.647570699919015, 16.362287000054494, 19.01850010000635, 4.253028800012544, 4.735405700048432, 4.852304400061257, 11.30457449995447, 5.535605800105259, 6.716676100040786, 9.351275600027293, 12.302358800079674, 16.79994459997397, 12.743469400098547, 30.73450410005171]","[0.00021730002481490374, 17.647577799973078, 16.36229370010551, 0.0002098999684676528, 0.03154480003286153, 0.0479379000607878, 0.06331070000305772, 0.03093910007737577, 0.04565420001745224, 0.014157900004647672, 0.03146209998521954, 12.302365400013514, 0.033033300074748695, 12.743477100040764, 30.73451100010425]",0,,,,,,,,,,,,,,,,,,,,,,,,,,,,,,,,,,,,,,,,,,,,,,,,,,,,,,,,,,,,,,,,,,,,,,,,,,,,,,,,,,,,,,,,,,,,,,,,,,,,,,,,,,,,,,,,,,,,,,,,,,,,AP5DJG,train_x,blue_star,bottom_right,2025-06-23_16h21.23.506,HideSeek_v1,2022.2.5,59.93960484086877,
,,,,,,,,,,,,,,,2,0,2,0,1,0,1,0,,,,,,,,,,,,,,,,,,,,,,,,,,,,,,,conditions/schedules/train_x_first/blue_star_00/bottom_right/instructions/Slide16.png,conditions/schedules/train_x_first/blue_star_00/bottom_right/instructions/Audio16.wav,262.4433199999621,262.43675009993603,16,"[10.774241599952802, 17.647570699919015, 16.362287000054494, 19.01850010000635, 4.253028800012544, 4.735405700048432, 4.852304400061257, 11.30457449995447, 5.535605800105259, 6.716676100040786, 9.351275600027293, 12.302358800079674, 16.79994459997397, 12.743469400098547, 30.73450410005171, 21.258879099972546]","[0.00021730002481490374, 17.647577799973078, 16.36229370010551, 0.0002098999684676528, 0.03154480003286153, 0.0479379000607878, 0.06331070000305772, 0.03093910007737577, 0.04565420001745224, 0.014157900004647672, 0.03146209998521954, 12.302365400013514, 0.033033300074748695, 12.743477100040764, 0.03700609994120896, 21.258887400035746]",0,,,,,,,,,,,,,,,,,,,,,,,,,,,,,,,,,,,,,,,,,,,,,,,,,,,,,,,,,,,,,,,,,,,,,,,,,,,,,,,,,,,,,,,,,,,,,,,,,,,,,,,,,,,,,,,,,,,,,,,,,,,,AP5DJG,train_x,blue_star,bottom_right,2025-06-23_16h21.23.506,HideSeek_v1,2022.2.5,59.93960484086877,
,7,1,4,1,-3,0,31,,train_dim1_1,1,30,,,,2,0,2,0,,,,,,,,,0,0,0,0,0,0,0,0,0,0,0,0,,,,,,,,,,,,,,,,,,,,,,,,,stimuli/alien_stimuli/31.png,,,,,,,,,,,,,,,,,,,,,,,,,,,,,,,,,,,,,,,30,,,,,,,,283.80484110000543,283.80484110000543,283.80484110000543,283.80484110000543,283.80484110000543,up,6.181486199959181,0,0,0,99,0.4,-0.24,up,6.085817800019868,,,,,,,,,,,,,,,,,,,,,,,,,,,,,,,,,,,,,,,,,,,,,,,,,,,,,,,,,,,,AP5DJG,train_x,blue_star,bottom_right,2025-06-23_16h21.23.506,HideSeek_v1,2022.2.5,59.93960484086877,
,7,1,4,1,-3,0,31,,train_dim1_1,1,30,,,,2,0,2,0,,,,,,,,,0,0,0,0,0,0,0,0,1,0,1,0,,,,,,,,,,,,,,,,,,,,,,,,,,,,,,,,,,,,,,,,,,,,,,,,,,,,,,,,,,,,,,,,30,,,,,,,,289.9748992000241,289.9748992000241,289.9748992000241,289.9748992000241,289.9748992000241,up,0.6098404999356717,0,0,0,99,0.4,-0.15999999999999998,up,0.5253458999795839,,,,,,,,,,,,,,,,,,,,,,,,,,,,,,,,,,,,,,,,,,,,,,,,,,,,,,,,,,,,AP5DJG,train_x,blue_star,bottom_right,2025-06-23_16h21.23.506,HideSeek_v1,2022.2.5,59.93960484086877,
,7,1,4,1,-3,0,31,,train_dim1_1,1,30,,,,2,0,2,0,,,,,,,,,0,0,0,0,0,0,0,0,2,0,2,0,,,,,,,,,,,,,,,,,,,,,,,,,,,,,,,,,,,,,,,,,,,,,,,,,,,,,,,,,,,,,,,,30,,,,,,,,290.59032720001414,290.59032720001414,290.59032720001414,290.59032720001414,290.59032720001414,up,0.3764597000554204,0,0,0,99,0.4,-0.07999999999999997,up,0.3041516999946907,,,,,,,,,,,,,,,,,,,,,,,,,,,,,,,,,,,,,,,,,,,,,,,,,,,,,,,,,,,,AP5DJG,train_x,blue_star,bottom_right,2025-06-23_16h21.23.506,HideSeek_v1,2022.2.5,59.93960484086877,
,7,1,4,1,-3,0,31,,train_dim1_1,1,30,,,,2,0,2,0,,,,,,,,,0,0,0,0,0,0,0,0,3,0,3,0,,,,,,,,,,,,,,,,,,,,,,,,,,,,,,,,,,,,,,,,,,,,,,,,,,,,,,,,,,,,,,,,30,,,,,,,,290.97438439994585,290.97438439994585,290.97438439994585,290.97438439994585,290.97438439994585,up,0.30976810003630817,0,0,0,99,0.4,2.7755575615628914e-17,up,0.22281950002070516,,,,,,,,,,,,,,,,,,,,,,,,,,,,,,,,,,,,,,,,,,,,,,,,,,,,,,,,,,,,AP5DJG,train_x,blue_star,bottom_right,2025-06-23_16h21.23.506,HideSeek_v1,2022.2.5,59.93960484086877,
,7,1,4,1,-3,0,31,,train_dim1_1,1,30,,,,2,0,2,0,,,,,,,,,0,0,0,0,0,0,0,0,4,0,4,0,,,,,,,,,,,,,,,,,,,,,,,,,,,,,,,,,,,,,,,,,,,,,,,,,,,,,,,,,,,,,,,,30,,,,,,,,291.29114819993265,291.29114819993265,291.29114819993265,291.29114819993265,291.29114819993265,down,1.5108642999548465,0,0,0,99,0.4,-0.07999999999999997,down,1.4285202000755817,,,,,,,,,,,,,,,,,,,,,,,,,,,,,,,,,,,,,,,,,,,,,,,,,,,,,,,,,,,,AP5DJG,train_x,blue_star,bottom_right,2025-06-23_16h21.23.506,HideSeek_v1,2022.2.5,59.93960484086877,
,7,1,4,1,-3,0,31,,train_dim1_1,1,30,,,,2,0,2,0,,,,,,,,,0,0,0,0,0,0,0,0,5,0,5,0,,,,,,,,,,,,,,,,,,,,,,,,,,,,,,,,,,,,,,,,,,,,,,,,,,,,,,,,,,,,,,,,30,,,,,,,,292.80876749998424,292.80876749998424,292.80876749998424,292.80876749998424,292.80876749998424,down,0.2765464000403881,0,0,0,99,0.4,-0.15999999999999998,down,0.20004120003432035,,,,,,,,,,,,,,,,,,,,,,,,,,,,,,,,,,,,,,,,,,,,,,,,,,,,,,,,,,,,AP5DJG,train_x,blue_star,bottom_right,2025-06-23_16h21.23.506,HideSeek_v1,2022.2.5,59.93960484086877,
,7,1,4,1,-3,0,31,,train_dim1_1,1,30,,,,2,0,2,0,,,,,,,,,0,0,0,0,0,0,0,0,6,0,6,0,,,,,,,,,,,,,,,,,,,,,,,,,,,,,,,,,,,,,,,,,,,,,,,,,,,,,,,,,,,,,,,,30,,,,,,,,293.0925886000041,293.0925886000041,293.0925886000041,293.0925886000041,293.0925886000041,left,0.8104861000319943,0,0,0,99,0.32,-0.15999999999999998,left,0.7377076999982819,,,,,,,,,,,,,,,,,,,,,,,,,,,,,,,,,,,,,,,,,,,,,,,,,,,,,,,,,,,,AP5DJG,train_x,blue_star,bottom_right,2025-06-23_16h21.23.506,HideSeek_v1,2022.2.5,59.93960484086877,
,7,1,4,1,-3,0,31,,train_dim1_1,1,30,,,,2,0,2,0,,,,,,,,,0,0,0,0,0,0,0,0,7,0,7,0,,,,,,,,,,,,,,,,,,,,,,,,,,,,,,,,,,,,,,,,,,,,,,,,,,,,,,,,,,,,,,,,30,,,,,,,,293.9109887999948,293.9109887999948,293.9109887999948,293.9109887999948,293.9109887999948,left,0.34312640002463013,0,0,0,99,0.24,-0.15999999999999998,left,0.26753509999252856,,,,,,,,,,,,,,,,,,,,,,,,,,,,,,,,,,,,,,,,,,,,,,,,,,,,,,,,,,,,AP5DJG,train_x,blue_star,bottom_right,2025-06-23_16h21.23.506,HideSeek_v1,2022.2.5,59.93960484086877,
,7,1,4,1,-3,0,31,,train_dim1_1,1,30,,,,2,0,2,0,,,,,,,,,0,0,0,0,0,0,0,0,8,0,8,0,,,,,,,,,,,,,,,,,,,,,,,,,,,,,,,,,,,,,,,,,,,,,,,,,,,,,,,,,,,,,,,,30,,,,,,,,294.25971040001605,294.25971040001605,294.25971040001605,294.25971040001605,294.25971040001605,left,0.6601273000705987,0,0,0,99,0.15999999999999998,-0.15999999999999998,left,0.5842127000214532,,,,,,,,,,,,,,,,,,,,,,,,,,,,,,,,,,,,,,,,,,,,,,,,,,,,,,,,,,,,AP5DJG,train_x,blue_star,bottom_right,2025-06-23_16h21.23.506,HideSeek_v1,2022.2.5,59.93960484086877,
,7,1,4,1,-3,0,31,,train_dim1_1,1,30,,,,2,0,2,0,,,,,,,,,0,0,0,0,0,0,0,0,9,0,9,0,,,,,,,,,,,,,,,,,,,,,,,,,,,,,,,,,,,,,,,,,,,,,,,,,,,,,,,,,,,,,,,,30,,,,,,,,294.9286915999837,294.9286915999837,294.9286915999837,294.9286915999837,294.9286915999837,return,0.8935112000908703,0,0,0,0,0.15999999999999998,-0.15999999999999998,return,0.8088591999839991,2,-3,0.15999999999999998,-0.15999999999999998,,,,,,,,,,,,,,,,,,,,,,,,,,,,,,,,,,,,,,,,,,,,,,,,,,,,,,,,AP5DJG,train_x,blue_star,bottom_right,2025-06-23_16h21.23.506,HideSeek_v1,2022.2.5,59.93960484086877,
,7,4,2,4,-5,0,11,,train_dim1_1,2,30,,,,2,0,2,0,,,,,,,,,0,0,0,0,0,1,1,1,0,0,0,0,,,,,,,,,,,,,,,,,,,,,,,,,stimuli/alien_stimuli/11.png,,,,,,,,,,,,,,,,,,,,,,,,,,,,,stimuli/alien_stimuli/31.png,31,7,3,,,,,,,30,,,,,,,,304.423939100001,304.423939100001,304.423939100001,304.423939100001,304.423939100001,left,12.465141399996355,0,0,0,99,0.32,-0.08,left,12.375504499999806,,,,,302.8534540999681,304.423939100001,0.16,-0.32,0.0,0.24,-0.32,0.16,0.28,0.16,-0.32,297.39987149997614,297.39987149997614,297.39987149997614,297.39987149997614,297.39987149997614,297.39987149997614,297.39987149997614,297.39987149997614,297.39914119997997,5.573426100076176,return,5.421301400056109,,,,,,,,,,,,,,,,,,,,,,,,,,,,,,,,,AP5DJG,train_x,blue_star,bottom_right,2025-06-23_16h21.23.506,HideSeek_v1,2022.2.5,59.93960484086877,
,7,4,2,4,-5,0,11,,train_dim1_1,2,30,,,,2,0,2,0,,,,,,,,,0,0,0,0,0,1,1,1,1,0,1,0,,,,,,,,,,,,,,,,,,,,,,,,,,,,,,,,,,,,,,,,,,,,,,,,,,,,,,,,,,,,,,,,30,,,,,,,,316.902896399959,316.902896399959,316.902896399959,316.902896399959,316.902896399959,left,1.309495099936612,0,0,0,99,0.24,-0.08,left,1.200299400021322,,,,,,,,,,,,,,,,,,,,,,,,,,,,,,,,,,,,,,,,,,,,,,,,,,,,,,,,,,,,AP5DJG,train_x,blue_star,bottom_right,2025-06-23_16h21.23.506,HideSeek_v1,2022.2.5,59.93960484086877,
,7,4,2,4,-5,0,11,,train_dim1_1,2,30,,,,2,0,2,0,,,,,,,,,0,0,0,0,0,1,1,1,2,0,2,0,,,,,,,,,,,,,,,,,,,,,,,,,,,,,,,,,,,,,,,,,,,,,,,,,,,,,,,,,,,,,,,,30,,,,,,,,318.2010024000192,318.2010024000192,318.2010024000192,318.2010024000192,318.2010024000192,left,0.7269167000195011,0,0,0,99,0.15999999999999998,-0.08,left,0.6416715999366716,,,,,,,,,,,,,,,,,,,,,,,,,,,,,,,,,,,,,,,,,,,,,,,,,,,,,,,,,,,,AP5DJG,train_x,blue_star,bottom_right,2025-06-23_16h21.23.506,HideSeek_v1,2022.2.5,59.93960484086877,
,7,4,2,4,-5,0,11,,train_dim1_1,2,30,,,,2,0,2,0,,,,,,,,,0,0,0,0,0,1,1,1,3,0,3,0,,,,,,,,,,,,,,,,,,,,,,,,,,,,,,,,,,,,,,,,,,,,,,,,,,,,,,,,,,,,,,,,30,,,,,,,,318.9397876999574,318.9397876999574,318.9397876999574,318.9397876999574,318.9397876999574,down,1.640267499955371,0,0,0,99,0.15999999999999998,-0.16,down,1.5462578000733629,,,,,,,,,,,,,,,,,,,,,,,,,,,,,,,,,,,,,,,,,,,,,,,,,,,,,,,,,,,,AP5DJG,train_x,blue_star,bottom_right,2025-06-23_16h21.23.506,HideSeek_v1,2022.2.5,59.93960484086877,
,7,4,2,4,-5,0,11,,train_dim1_1,2,30,,,,2,0,2,0,,,,,,,,,0,0,0,0,0,1,1,1,4,0,4,0,,,,,,,,,,,,,,,,,,,,,,,,,,,,,,,,,,,,,,,,,,,,,,,,,,,,,,,,,,,,,,,,30,,,,,,,,320.5857488999609,320.5857488999609,320.5857488999609,320.5857488999609,320.5857488999609,down,1.3940663000103086,0,0,0,99,0.15999999999999998,-0.24,down,1.3167260000482202,,,,,,,,,,,,,,,,,,,,,,,,,,,,,,,,,,,,,,,,,,,,,,,,,,,,,,,,,,,,AP5DJG,train_x,blue_star,bottom_right,2025-06-23_16h21.23.506,HideSeek_v1,2022.2.5,59.93960484086877,
,7,4,2,4,-5,0,11,,train_dim1_1,2,30,,,,2,0,2,0,,,,,,,,,0,0,0,0,0,1,1,1,5,0,5,0,,,,,,,,,,,,,,,,,,,,,,,,,,,,,,,,,,,,,,,,,,,,,,,,,,,,,,,,,,,,,,,,30,,,,,,,,321.9879127999302,321.9879127999302,321.9879127999302,321.9879127999302,321.9879127999302,return,0.6263533999444917,0,0,0,0,0.15999999999999998,-0.24,return,0.5448718999978155,0,-6,0.15999999999999998,-0.24,,,,,,,,,,,,,,,,,,,,,,,,,,,,,,,,,,,,,,,,,,,,,,,,,,,,,,,,AP5DJG,train_x,blue_star,bottom_right,2025-06-23_16h21.23.506,HideSeek_v1,2022.2.5,59.93960484086877,
,9,4,5,4,-4,0,21,,train_dim1_1,3,30,,,,2,0,2,0,,,,,,,,,0,0,0,0,0,2,2,2,0,0,0,0,,,,,,,,,,,,,,,,,,,,,,,,,stimuli/alien_stimuli/21.png,,,,,,,,,,,,,,,,,,,,,,,,,,,,,stimuli/alien_stimuli/11.png,11,7,4,,,,,,,30,,,,,,,,338.5181960000191,338.5181960000191,338.5181960000191,338.5181960000191,338.5181960000191,left,4.038515400025062,0,0,0,99,0.48000000000000004,-0.08,left,3.934423799975775,,,,,336.931795099983,338.5181960000191,0,-0.08,0.0,0.4,-0.08,0,0.2,0,-0.08,324.20242370001506,324.20242370001506,324.20242370001506,324.20242370001506,324.20242370001506,324.20242370001506,324.20242370001506,324.20242370001506,324.18796470002275,12.86257450003177,return,12.704301699995995,,,,,,,,,,,,,,,,,,,,,,,,,,,,,,,,,AP5DJG,train_x,blue_star,bottom_right,2025-06-23_16h21.23.506,HideSeek_v1,2022.2.5,59.93960484086877,
,9,4,5,4,-4,0,21,,train_dim1_1,3,30,,,,2,0,2,0,,,,,,,,,0,0,0,0,0,2,2,2,1,0,1,0,,,,,,,,,,,,,,,,,,,,,,,,,,,,,,,,,,,,,,,,,,,,,,,,,,,,,,,,,,,,,,,,30,,,,,,,,342.54038259992376,342.54038259992376,342.54038259992376,342.54038259992376,342.54038259992376,left,0.3747310000471771,0,0,0,99,0.4,-0.08,left,0.28313060000073165,,,,,,,,,,,,,,,,,,,,,,,,,,,,,,,,,,,,,,,,,,,,,,,,,,,,,,,,,,,,AP5DJG,train_x,blue_star,bottom_right,2025-06-23_16h21.23.506,HideSeek_v1,2022.2.5,59.93960484086877,
,9,4,5,4,-4,0,21,,train_dim1_1,3,30,,,,2,0,2,0,,,,,,,,,0,0,0,0,0,2,2,2,2,0,2,0,,,,,,,,,,,,,,,,,,,,,,,,,,,,,,,,,,,,,,,,,,,,,,,,,,,,,,,,,,,,,,,,30,,,,,,,,342.92214549996424,342.92214549996424,342.92214549996424,342.92214549996424,342.92214549996424,left,0.4083443999988958,0,0,0,99,0.32,-0.08,left,0.3224855000153184,,,,,,,,,,,,,,,,,,,,,,,,,,,,,,,,,,,,,,,,,,,,,,,,,,,,,,,,,,,,AP5DJG,train_x,blue_star,bottom_right,2025-06-23_16h21.23.506,HideSeek_v1,2022.2.5,59.93960484086877,
,9,4,5,4,-4,0,21,,train_dim1_1,3,30,,,,2,0,2,0,,,,,,,,,0,0,0,0,0,2,2,2,3,0,3,0,,,,,,,,,,,,,,,,,,,,,,,,,,,,,,,,,,,,,,,,,,,,,,,,,,,,,,,,,,,,,,,,30,,,,,,,,343.3381800999632,343.3381800999632,343.3381800999632,343.3381800999632,343.3381800999632,left,0.5933156999526545,0,0,0,99,0.24,-0.08,left,0.5124028000282124,,,,,,,,,,,,,,,,,,,,,,,,,,,,,,,,,,,,,,,,,,,,,,,,,,,,,,,,,,,,AP5DJG,train_x,blue_star,bottom_right,2025-06-23_16h21.23.506,HideSeek_v1,2022.2.5,59.93960484086877,
,9,4,5,4,-4,0,21,,train_dim1_1,3,30,,,,2,0,2,0,,,,,,,,,0,0,0,0,0,2,2,2,4,0,4,0,,,,,,,,,,,,,,,,,,,,,,,,,,,,,,,,,,,,,,,,,,,,,,,,,,,,,,,,,,,,,,,,30,,,,,,,,343.9382872999413,343.9382872999413,343.9382872999413,343.9382872999413,343.9382872999413,return,0.6602081999881193,1,0,0,1,0.24,-0.08,return,0.5758942000102252,0,-10,0.24,-0.08,,,,,,,,,,,,,,,,,,,,,,,,,,,,,,,,,,,,,,,,,,,,,,,,,,,,,,,,AP5DJG,train_x,blue_star,bottom_right,2025-06-23_16h21.23.506,HideSeek_v1,2022.2.5,59.93960484086877,
,7,3,6,3,-1,0,51,,train_dim1_1,4,30,,,,2,0,2,0,,,,,,,,,0,0,0,0,0,3,3,3,0,0,0,0,,,,,,,,,,,,,,,,,,,,,,,,,stimuli/alien_stimuli/51.png,,,,,,,,,,,,,,,,,,,,,,,,,,,,,stimuli/alien_stimuli/21.png,21,9,5,,,,,,,30,,,,,,,,354.1968947999412,354.1968947999412,354.1968947999412,354.1968947999412,354.1968947999412,up,2.30134490004275,1,0,0,99,0.4,-0.08,up,2.2072985999984667,,,,,352.6281365000177,354.1968947999412,0.24,-0.08,0.0,0.32,-0.08,0.24,0.4,0.24,-0.08,346.1866821999429,346.1866821999429,346.1866821999429,346.1866821999429,346.1866821999429,346.1866821999429,346.1866821999429,346.1866821999429,346.17291770000014,6.574306299909949,return,6.4256015999708325,,,,,,,,,,,,,,,,,,,,,,,,,,,,,,,,,AP5DJG,train_x,blue_star,bottom_right,2025-06-23_16h21.23.506,HideSeek_v1,2022.2.5,59.93960484086877,
,7,3,6,3,-1,0,51,,train_dim1_1,4,30,,,,2,0,2,0,,,,,,,,,0,0,0,0,0,3,3,3,1,0,1,0,,,,,,,,,,,,,,,,,,,,,,,,,,,,,,,,,,,,,,,,,,,,,,,,,,,,,,,,,,,,,,,,30,,,,,,,,356.4979616999626,356.4979616999626,356.4979616999626,356.4979616999626,356.4979616999626,down,1.7938199000200257,1,0,0,99,0.4,-0.16,down,1.7177422000095248,,,,,,,,,,,,,,,,,,,,,,,,,,,,,,,,,,,,,,,,,,,,,,,,,,,,,,,,,,,,AP5DJG,train_x,blue_star,bottom_right,2025-06-23_16h21.23.506,HideSeek_v1,2022.2.5,59.93960484086877,
,7,3,6,3,-1,0,51,,train_dim1_1,4,30,,,,2,0,2,0,,,,,,,,,0,0,0,0,0,3,3,3,2,0,2,0,,,,,,,,,,,,,,,,,,,,,,,,,,,,,,,,,,,,,,,,,,,,,,,,,,,,,,,,,,,,,,,,30,,,,,,,,358.2996741000097,358.2996741000097,358.2996741000097,358.2996741000097,358.2996741000097,down,0.7429561000317335,1,0,0,99,0.4,-0.24,down,0.655020699952729,,,,,,,,,,,,,,,,,,,,,,,,,,,,,,,,,,,,,,,,,,,,,,,,,,,,,,,,,,,,AP5DJG,train_x,blue_star,bottom_right,2025-06-23_16h21.23.506,HideSeek_v1,2022.2.5,59.93960484086877,
,7,3,6,3,-1,0,51,,train_dim1_1,4,30,,,,2,0,2,0,,,,,,,,,0,0,0,0,0,3,3,3,3,0,3,0,,,,,,,,,,,,,,,,,,,,,,,,,,,,,,,,,,,,,,,,,,,,,,,,,,,,,,,,,,,,,,,,30,,,,,,,,359.0499955000123,359.0499955000123,359.0499955000123,359.0499955000123,359.0499955000123,down,0.49334299995098263,1,0,0,99,0.4,-0.32,down,0.4123301999643445,,,,,,,,,,,,,,,,,,,,,,,,,,,,,,,,,,,,,,,,,,,,,,,,,,,,,,,,,,,,AP5DJG,train_x,blue_star,bottom_right,2025-06-23_16h21.23.506,HideSeek_v1,2022.2.5,59.93960484086877,
,7,3,6,3,-1,0,51,,train_dim1_1,4,30,,,,2,0,2,0,,,,,,,,,0,0,0,0,0,3,3,3,4,0,4,0,,,,,,,,,,,,,,,,,,,,,,,,,,,,,,,,,,,,,,,,,,,,,,,,,,,,,,,,,,,,,,,,30,,,,,,,,359.549901099992,359.549901099992,359.549901099992,359.549901099992,359.549901099992,return,1.3606485000345856,1,0,0,0,0.4,-0.32,return,1.2774847999680787,-2,-10,0.4,-0.32,,,,,,,,,,,,,,,,,,,,,,,,,,,,,,,,,,,,,,,,,,,,,,,,,,,,,,,,AP5DJG,train_x,blue_star,bottom_right,2025-06-23_16h21.23.506,HideSeek_v1,2022.2.5,59.93960484086877,
,5,2,5,2,0,0,61,,train_dim1_1,5,30,,,,2,0,2,0,,,,,,,,,0,0,0,0,0,4,4,4,0,0,0,0,,,,,,,,,,,,,,,,,,,,,,,,,stimuli/alien_stimuli/61.png,,,,,,,,,,,,,,,,,,,,,,,,,,,,,stimuli/alien_stimuli/51.png,51,7,6,,,,,,,30,,,,,,,,368.98930929997005,368.98930929997005,368.98930929997005,368.98930929997005,368.98930929997005,up,5.186484799953178,1,0,0,99,0.24,-0.15999999999999998,up,5.100023300037719,,,,,367.4238652000204,368.98930929997005,0.32,-0.16,0.0,0.08,-0.16,0.32,0.36,0.32,-0.16,362.48968909995165,362.48968909995165,362.48968909995165,362.48968909995165,362.48968909995165,362.48968909995165,362.48968909995165,362.48968909995165,362.46988569999814,5.05644980003126,return,4.917104699998163,,,,,,,,,,,,,,,,,,,,,,,,,,,,,,,,,AP5DJG,train_x,blue_star,bottom_right,2025-06-23_16h21.23.506,HideSeek_v1,2022.2.5,59.93960484086877,
,5,2,5,2,0,0,61,,train_dim1_1,5,30,,,,2,0,2,0,,,,,,,,,0,0,0,0,0,4,4,4,1,0,1,0,,,,,,,,,,,,,,,,,,,,,,,,,,,,,,,,,,,,,,,,,,,,,,,,,,,,,,,,,,,,,,,,30,,,,,,,,374.17675679991953,374.17675679991953,374.17675679991953,374.17675679991953,374.17675679991953,left,2.9114145999774337,1,0,0,99,0.15999999999999998,-0.15999999999999998,left,2.828070200048387,,,,,,,,,,,,,,,,,,,,,,,,,,,,,,,,,,,,,,,,,,,,,,,,,,,,,,,,,,,,AP5DJG,train_x,blue_star,bottom_right,2025-06-23_16h21.23.506,HideSeek_v1,2022.2.5,59.93960484086877,
,5,2,5,2,0,0,61,,train_dim1_1,5,30,,,,2,0,2,0,,,,,,,,,0,0,0,0,0,4,4,4,2,0,2,0,,,,,,,,,,,,,,,,,,,,,,,,,,,,,,,,,,,,,,,,,,,,,,,,,,,,,,,,,,,,,,,,30,,,,,,,,377.0953538999893,377.0953538999893,377.0953538999893,377.0953538999893,377.0953538999893,down,1.210365099948831,1,0,0,99,0.15999999999999998,-0.24,down,1.1218292999546975,,,,,,,,,,,,,,,,,,,,,,,,,,,,,,,,,,,,,,,,,,,,,,,,,,,,,,,,,,,,AP5DJG,train_x,blue_star,bottom_right,2025-06-23_16h21.23.506,HideSeek_v1,2022.2.5,59.93960484086877,
,5,2,5,2,0,0,61,,train_dim1_1,5,30,,,,2,0,2,0,,,,,,,,,0,0,0,0,0,4,4,4,3,0,3,0,,,,,,,,,,,,,,,,,,,,,,,,,,,,,,,,,,,,,,,,,,,,,,,,,,,,,,,,,,,,,,,,30,,,,,,,,378.3131873999955,378.3131873999955,378.3131873999955,378.3131873999955,378.3131873999955,return,1.0763164999661967,1,1,0,0,0.15999999999999998,-0.24,return,1.0013664999278262,-2,-11,0.15999999999999998,-0.24,,,,,,,,,,,,,,,,,,,,,,,,,,,,,,,,,,,,,,,,,,,,,,,,,,,,,,,,AP5DJG,train_x,blue_star,bottom_right,2025-06-23_16h21.23.506,HideSeek_v1,2022.2.5,59.93960484086877,
,5,0,1,0,-4,0,21,,train_dim1_1,6,30,,,,2,0,2,0,,,,,,,,,0,0,0,0,0,5,5,5,0,0,0,0,,,,,,,,,,,,,,,,,,,,,,,,,stimuli/alien_stimuli/21.png,,,,,,,,,,,,,,,,,,,,,,,,,,,,,stimuli/alien_stimuli/61.png,61,5,7,,,,,,,30,,,,,,,,386.60874459997285,386.60874459997285,386.60874459997285,386.60874459997285,386.60874459997285,left,2.8845748000312597,1,1,0,99,0.15999999999999998,-0.4,left,2.793374800006859,,,,,385.038370699971,386.60874459997285,0.24,-0.24,0.0,0.0,-0.24,0.24,0.24,0.24,-0.24,380.9696785999695,380.9696785999695,380.9696785999695,380.9696785999695,380.9696785999695,380.9696785999695,380.9696785999695,380.9696785999695,380.95165499994766,4.189318099990487,return,4.052957999985665,,,,,,,,,,,,,,,,,,,,,,,,,,,,,,,,,AP5DJG,train_x,blue_star,bottom_right,2025-06-23_16h21.23.506,HideSeek_v1,2022.2.5,59.93960484086877,
,5,0,1,0,-4,0,21,,train_dim1_1,6,30,,,,2,0,2,0,,,,,,,,,0,0,0,0,0,5,5,5,1,0,1,0,,,,,,,,,,,,,,,,,,,,,,,,,,,,,,,,,,,,,,,,,,,,,,,,,,,,,,,,,,,,,,,,30,,,,,,,,389.49388179997914,389.49388179997914,389.49388179997914,389.49388179997914,389.49388179997914,left,0.34168499999213964,1,1,0,99,0.07999999999999997,-0.4,left,0.2551701999036595,,,,,,,,,,,,,,,,,,,,,,,,,,,,,,,,,,,,,,,,,,,,,,,,,,,,,,,,,,,,AP5DJG,train_x,blue_star,bottom_right,2025-06-23_16h21.23.506,HideSeek_v1,2022.2.5,59.93960484086877,
,5,0,1,0,-4,0,21,,train_dim1_1,6,30,,,,2,0,2,0,,,,,,,,,0,0,0,0,0,5,5,5,2,0,2,0,,,,,,,,,,,,,,,,,,,,,,,,,,,,,,,,,,,,,,,,,,,,,,,,,,,,,,,,,,,,,,,,30,,,,,,,,389.84288279991597,389.84288279991597,389.84288279991597,389.84288279991597,389.84288279991597,left,0.3928179999347776,1,1,0,99,-2.7755575615628914e-17,-0.4,left,0.30564969999250025,,,,,,,,,,,,,,,,,,,,,,,,,,,,,,,,,,,,,,,,,,,,,,,,,,,,,,,,,,,,AP5DJG,train_x,blue_star,bottom_right,2025-06-23_16h21.23.506,HideSeek_v1,2022.2.5,59.93960484086877,
,5,0,1,0,-4,0,21,,train_dim1_1,6,30,,,,2,0,2,0,,,,,,,,,0,0,0,0,0,5,5,5,3,0,3,0,,,,,,,,,,,,,,,,,,,,,,,,,,,,,,,,,,,,,,,,,,,,,,,,,,,,,,,,,,,,,,,,30,,,,,,,,390.2426694999449,390.2426694999449,390.2426694999449,390.2426694999449,390.2426694999449,left,0.4598705000244081,1,1,0,99,-0.08000000000000003,-0.4,left,0.3740226000081748,,,,,,,,,,,,,,,,,,,,,,,,,,,,,,,,,,,,,,,,,,,,,,,,,,,,,,,,,,,,AP5DJG,train_x,blue_star,bottom_right,2025-06-23_16h21.23.506,HideSeek_v1,2022.2.5,59.93960484086877,
,5,0,1,0,-4,0,21,,train_dim1_1,6,30,,,,2,0,2,0,,,,,,,,,0,0,0,0,0,5,5,5,4,0,4,0,,,,,,,,,,,,,,,,,,,,,,,,,,,,,,,,,,,,,,,,,,,,,,,,,,,,,,,,,,,,,,,,30,,,,,,,,390.7098758999491,390.7098758999491,390.7098758999491,390.7098758999491,390.7098758999491,left,0.6767955999821424,1,1,0,99,-0.16000000000000003,-0.4,left,0.5987542000366375,,,,,,,,,,,,,,,,,,,,,,,,,,,,,,,,,,,,,,,,,,,,,,,,,,,,,,,,,,,,AP5DJG,train_x,blue_star,bottom_right,2025-06-23_16h21.23.506,HideSeek_v1,2022.2.5,59.93960484086877,
,5,0,1,0,-4,0,21,,train_dim1_1,6,30,,,,2,0,2,0,,,,,,,,,0,0,0,0,0,5,5,5,5,0,5,0,,,,,,,,,,,,,,,,,,,,,,,,,,,,,,,,,,,,,,,,,,,,,,,,,,,,,,,,,,,,,,,,30,,,,,,,,391.39401749998797,391.39401749998797,391.39401749998797,391.39401749998797,391.39401749998797,left,0.17654989997390658,1,1,0,99,-0.24000000000000005,-0.4,left,0.0848272000439465,,,,,,,,,,,,,,,,,,,,,,,,,,,,,,,,,,,,,,,,,,,,,,,,,,,,,,,,,,,,AP5DJG,train_x,blue_star,bottom_right,2025-06-23_16h21.23.506,HideSeek_v1,2022.2.5,59.93960484086877,
,5,0,1,0,-4,0,21,,train_dim1_1,6,30,,,,2,0,2,0,,,,,,,,,0,0,0,0,0,5,5,5,6,0,6,0,,,,,,,,,,,,,,,,,,,,,,,,,,,,,,,,,,,,,,,,,,,,,,,,,,,,,,,,,,,,,,,,30,,,,,,,,391.57765400002245,391.57765400002245,391.57765400002245,391.57765400002245,391.57765400002245,right,1.0934782000258565,1,1,0,99,-0.16000000000000003,-0.4,right,1.0125600000610575,,,,,,,,,,,,,,,,,,,,,,,,,,,,,,,,,,,,,,,,,,,,,,,,,,,,,,,,,,,,AP5DJG,train_x,blue_star,bottom_right,2025-06-23_16h21.23.506,HideSeek_v1,2022.2.5,59.93960484086877,
,5,0,1,0,-4,0,21,,train_dim1_1,6,30,,,,2,0,2,0,,,,,,,,,0,0,0,0,0,5,5,5,7,0,7,0,,,,,,,,,,,,,,,,,,,,,,,,,,,,,,,,,,,,,,,,,,,,,,,,,,,,,,,,,,,,,,,,30,,,,,,,,392.6851251999615,392.6851251999615,392.6851251999615,392.6851251999615,392.6851251999615,return,0.8711133999750018,1,1,0,0,-0.16000000000000003,-0.4,return,0.7868686000583693,-2,-16,-0.16000000000000003,-0.4,,,,,,,,,,,,,,,,,,,,,,,,,,,,,,,,,,,,,,,,,,,,,,,,,,,,,,,,AP5DJG,train_x,blue_star,bottom_right,2025-06-23_16h21.23.506,HideSeek_v1,2022.2.5,59.93960484086877,
,8,0,8,0,0,0,61,,train_dim1_1,7,30,,,,2,0,2,0,,,,,,,,,0,0,0,0,0,6,6,6,0,0,0,0,,,,,,,,,,,,,,,,,,,,,,,,,stimuli/alien_stimuli/61.png,,,,,,,,,,,,,,,,,,,,,,,,,,,,,stimuli/alien_stimuli/21.png,21,5,8,,,,,,,30,,,,,,,,423.02906259999145,423.02906259999145,423.02906259999145,423.02906259999145,423.02906259999145,left,4.106675300048664,1,1,0,99,0.39999999999999997,-0.4,left,4.002427599974908,,,,,421.4517907999689,423.02906259999145,-0.08,-0.4,0.0,0.32,-0.4,-0.08,0.07999999999999999,-0.08,-0.4,395.14175469998736,395.14175469998736,395.14175469998736,395.14175469998736,395.14175469998736,395.14175469998736,395.14175469998736,395.14175469998736,395.1302884999663,26.440718900063075,return,26.29076989996247,,,,,,,,,,,,,,,,,,,,,,,,,,,,,,,,,AP5DJG,train_x,blue_star,bottom_right,2025-06-23_16h21.23.506,HideSeek_v1,2022.2.5,59.93960484086877,
,8,0,8,0,0,0,61,,train_dim1_1,7,30,,,,2,0,2,0,,,,,,,,,0,0,0,0,0,6,6,6,1,0,1,0,,,,,,,,,,,,,,,,,,,,,,,,,,,,,,,,,,,,,,,,,,,,,,,,,,,,,,,,,,,,,,,,30,,,,,,,,427.12660660000984,427.12660660000984,427.12660660000984,427.12660660000984,427.12660660000984,return,0.773586199968122,1,1,0,0,0.39999999999999997,-0.4,return,0.6832415999379009,-2,-17,0.39999999999999997,-0.4,,,,,,,,,,,,,,,,,,,,,,,,,,,,,,,,,,,,,,,,,,,,,,,,,,,,,,,,AP5DJG,train_x,blue_star,bottom_right,2025-06-23_16h21.23.506,HideSeek_v1,2022.2.5,59.93960484086877,
,5,4,2,4,-3,0,31,,train_dim1_1,8,30,,,,2,0,2,0,,,,,,,,,0,0,0,0,0,7,7,7,0,0,0,0,,,,,,,,,,,,,,,,,,,,,,,,,stimuli/alien_stimuli/31.png,,,,,,,,,,,,,,,,,,,,,,,,,,,,,stimuli/alien_stimuli/61.png,61,8,9,,,,,,,30,,,,,,,,435.88163359998725,435.88163359998725,435.88163359998725,435.88163359998725,435.88163359998725,left,2.8498889999464154,1,1,0,99,0.15999999999999998,-0.08,left,2.756893299985677,,,,,434.312397499918,435.88163359998725,0.48,-0.4,0.0,0.0,-0.4,0.48,0.48,0.48,-0.4,429.4820269999327,429.4820269999327,429.4820269999327,429.4820269999327,429.4820269999327,429.4820269999327,429.4820269999327,429.4820269999327,429.45887870000445,4.955959599930793,return,4.811933399992995,,,,,,,,,,,,,,,,,,,,,,,,,,,,,,,,,AP5DJG,train_x,blue_star,bottom_right,2025-06-23_16h21.23.506,HideSeek_v1,2022.2.5,59.93960484086877,
,5,4,2,4,-3,0,31,,train_dim1_1,8,30,,,,2,0,2,0,,,,,,,,,0,0,0,0,0,7,7,7,1,0,1,0,,,,,,,,,,,,,,,,,,,,,,,,,,,,,,,,,,,,,,,,,,,,,,,,,,,,,,,,,,,,,,,,30,,,,,,,,438.7311313999817,438.7311313999817,438.7311313999817,438.7311313999817,438.7311313999817,left,0.4425158000085503,1,1,0,99,0.07999999999999997,-0.08,left,0.3574909999733791,,,,,,,,,,,,,,,,,,,,,,,,,,,,,,,,,,,,,,,,,,,,,,,,,,,,,,,,,,,,AP5DJG,train_x,blue_star,bottom_right,2025-06-23_16h21.23.506,HideSeek_v1,2022.2.5,59.93960484086877,
,5,4,2,4,-3,0,31,,train_dim1_1,8,30,,,,2,0,2,0,,,,,,,,,0,0,0,0,0,7,7,7,2,0,2,0,,,,,,,,,,,,,,,,,,,,,,,,,,,,,,,,,,,,,,,,,,,,,,,,,,,,,,,,,,,,,,,,30,,,,,,,,439.17976550001185,439.17976550001185,439.17976550001185,439.17976550001185,439.17976550001185,left,0.49322029994800687,1,1,0,99,-2.7755575615628914e-17,-0.08,left,0.4169128999346867,,,,,,,,,,,,,,,,,,,,,,,,,,,,,,,,,,,,,,,,,,,,,,,,,,,,,,,,,,,,AP5DJG,train_x,blue_star,bottom_right,2025-06-23_16h21.23.506,HideSeek_v1,2022.2.5,59.93960484086877,
,5,4,2,4,-3,0,31,,train_dim1_1,8,30,,,,2,0,2,0,,,,,,,,,0,0,0,0,0,7,7,7,3,0,3,0,,,,,,,,,,,,,,,,,,,,,,,,,,,,,,,,,,,,,,,,,,,,,,,,,,,,,,,,,,,,,,,,30,,,,,,,,439.681161699933,439.681161699933,439.681161699933,439.681161699933,439.681161699933,left,1.1437134000007063,1,1,0,99,-0.08000000000000003,-0.08,left,1.0659715000074357,,,,,,,,,,,,,,,,,,,,,,,,,,,,,,,,,,,,,,,,,,,,,,,,,,,,,,,,,,,,AP5DJG,train_x,blue_star,bottom_right,2025-06-23_16h21.23.506,HideSeek_v1,2022.2.5,59.93960484086877,
,5,4,2,4,-3,0,31,,train_dim1_1,8,30,,,,2,0,2,0,,,,,,,,,0,0,0,0,0,7,7,7,4,0,4,0,,,,,,,,,,,,,,,,,,,,,,,,,,,,,,,,,,,,,,,,,,,,,,,,,,,,,,,,,,,,,,,,30,,,,,,,,440.8308992999373,440.8308992999373,440.8308992999373,440.8308992999373,440.8308992999373,return,0.8770458999788389,1,1,0,0,-0.08000000000000003,-0.08,return,0.791099900030531,-2,-21,-0.08000000000000003,-0.08,,,,,,,,,,,,,,,,,,,,,,,,,,,,,,,,,,,,,,,,,,,,,,,,,,,,,,,,AP5DJG,train_x,blue_star,bottom_right,2025-06-23_16h21.23.506,HideSeek_v1,2022.2.5,59.93960484086877,
,6,0,5,0,-1,0,51,,train_dim1_1,9,30,,,,2,0,2,0,,,,,,,,,0,0,0,0,0,8,8,8,0,0,0,0,,,,,,,,,,,,,,,,,,,,,,,,,stimuli/alien_stimuli/51.png,,,,,,,,,,,,,,,,,,,,,,,,,,,,,stimuli/alien_stimuli/31.png,31,5,10,,,,,,,30,,,,,,,,448.2058549999492,448.2058549999492,448.2058549999492,448.2058549999492,448.2058549999492,left,2.602101399912499,1,1,0,99,0.24,-0.4,left,2.518343099975027,,,,,446.63935119996313,448.2058549999492,0,-0.08,0.0,0.24,-0.08,0,0.12,0,-0.08,443.2939126000274,443.2939126000274,443.2939126000274,443.2939126000274,443.2939126000274,443.2939126000274,443.2939126000274,443.2939126000274,443.2867850999814,3.4713162999833003,return,3.3203466000268236,,,,,,,,,,,,,,,,,,,,,,,,,,,,,,,,,AP5DJG,train_x,blue_star,bottom_right,2025-06-23_16h21.23.506,HideSeek_v1,2022.2.5,59.93960484086877,
,6,0,5,0,-1,0,51,,train_dim1_1,9,30,,,,2,0,2,0,,,,,,,,,0,0,0,0,0,8,8,8,1,0,1,0,,,,,,,,,,,,,,,,,,,,,,,,,,,,,,,,,,,,,,,,,,,,,,,,,,,,,,,,,,,,,,,,30,,,,,,,,450.8101577999769,450.8101577999769,450.8101577999769,450.8101577999769,450.8101577999769,left,0.3588391999946907,1,1,0,99,0.15999999999999998,-0.4,left,0.27122840005904436,,,,,,,,,,,,,,,,,,,,,,,,,,,,,,,,,,,,,,,,,,,,,,,,,,,,,,,,,,,,AP5DJG,train_x,blue_star,bottom_right,2025-06-23_16h21.23.506,HideSeek_v1,2022.2.5,59.93960484086877,
,6,0,5,0,-1,0,51,,train_dim1_1,9,30,,,,2,0,2,0,,,,,,,,,0,0,0,0,0,8,8,8,2,0,2,0,,,,,,,,,,,,,,,,,,,,,,,,,,,,,,,,,,,,,,,,,,,,,,,,,,,,,,,,,,,,,,,,30,,,,,,,,451.1755897999974,451.1755897999974,451.1755897999974,451.1755897999974,451.1755897999974,return,0.7432870999909937,1,1,0,0,0.15999999999999998,-0.4,return,0.6544920000014827,-2,-23,0.15999999999999998,-0.4,,,,,,,,,,,,,,,,,,,,,,,,,,,,,,,,,,,,,,,,,,,,,,,,,,,,,,,,AP5DJG,train_x,blue_star,bottom_right,2025-06-23_16h21.23.506,HideSeek_v1,2022.2.5,59.93960484086877,
,5,3,0,3,-5,0,11,,train_dim1_1,10,30,,,,2,0,2,0,,,,,,,,,0,0,0,0,0,9,9,9,0,0,0,0,,,,,,,,,,,,,,,,,,,,,,,,,stimuli/alien_stimuli/11.png,,,,,,,,,,,,,,,,,,,,,,,,,,,,,stimuli/alien_stimuli/51.png,51,6,11,,,,,,,30,,,,,,,,461.20191509998403,461.20191509998403,461.20191509998403,461.20191509998403,461.20191509998403,left,2.752117200056091,1,1,0,99,0.15999999999999998,-0.16,left,2.6583212999394163,,,,,459.63337609998416,461.20191509998403,0.24,-0.4,0.0,0.08,-0.4,0.24,0.28,0.24,-0.4,453.50029639992863,453.50029639992863,453.50029639992863,453.50029639992863,453.50029639992863,453.50029639992863,453.50029639992863,453.50029639992863,453.47869590002813,6.2573256000177935,return,6.116695599979721,,,,,,,,,,,,,,,,,,,,,,,,,,,,,,,,,AP5DJG,train_x,blue_star,bottom_right,2025-06-23_16h21.23.506,HideSeek_v1,2022.2.5,59.93960484086877,
,5,3,0,3,-5,0,11,,train_dim1_1,10,30,,,,2,0,2,0,,,,,,,,,0,0,0,0,0,9,9,9,1,0,1,0,,,,,,,,,,,,,,,,,,,,,,,,,,,,,,,,,,,,,,,,,,,,,,,,,,,,,,,,,,,,,,,,30,,,,,,,,463.95598670002073,463.95598670002073,463.95598670002073,463.95598670002073,463.95598670002073,left,0.34166509995702654,1,1,0,99,0.07999999999999997,-0.16,left,0.2548267999663949,,,,,,,,,,,,,,,,,,,,,,,,,,,,,,,,,,,,,,,,,,,,,,,,,,,,,,,,,,,,AP5DJG,train_x,blue_star,bottom_right,2025-06-23_16h21.23.506,HideSeek_v1,2022.2.5,59.93960484086877,
,5,3,0,3,-5,0,11,,train_dim1_1,10,30,,,,2,0,2,0,,,,,,,,,0,0,0,0,0,9,9,9,2,0,2,0,,,,,,,,,,,,,,,,,,,,,,,,,,,,,,,,,,,,,,,,,,,,,,,,,,,,,,,,,,,,,,,,30,,,,,,,,464.3052956999745,464.3052956999745,464.3052956999745,464.3052956999745,464.3052956999745,left,0.3432320000138134,1,1,0,99,-2.7755575615628914e-17,-0.16,left,0.2611266999738291,,,,,,,,,,,,,,,,,,,,,,,,,,,,,,,,,,,,,,,,,,,,,,,,,,,,,,,,,,,,AP5DJG,train_x,blue_star,bottom_right,2025-06-23_16h21.23.506,HideSeek_v1,2022.2.5,59.93960484086877,
,5,3,0,3,-5,0,11,,train_dim1_1,10,30,,,,2,0,2,0,,,,,,,,,0,0,0,0,0,9,9,9,3,0,3,0,,,,,,,,,,,,,,,,,,,,,,,,,,,,,,,,,,,,,,,,,,,,,,,,,,,,,,,,,,,,,,,,30,,,,,,,,464.65478260000236,464.65478260000236,464.65478260000236,464.65478260000236,464.65478260000236,left,0.42672079999465495,1,1,0,99,-0.08000000000000003,-0.16,left,0.33773919998202473,,,,,,,,,,,,,,,,,,,,,,,,,,,,,,,,,,,,,,,,,,,,,,,,,,,,,,,,,,,,AP5DJG,train_x,blue_star,bottom_right,2025-06-23_16h21.23.506,HideSeek_v1,2022.2.5,59.93960484086877,
,5,3,0,3,-5,0,11,,train_dim1_1,10,30,,,,2,0,2,0,,,,,,,,,0,0,0,0,0,9,9,9,4,0,4,0,,,,,,,,,,,,,,,,,,,,,,,,,,,,,,,,,,,,,,,,,,,,,,,,,,,,,,,,,,,,,,,,30,,,,,,,,465.08876860002056,465.08876860002056,465.08876860002056,465.08876860002056,465.08876860002056,return,2.2115055999020115,1,1,0,0,-0.08000000000000003,-0.16,return,2.127469899947755,-2,-27,-0.08000000000000003,-0.16,,,,,,,,,,,,,,,,,,,,,,,,,,,,,,,,,,,,,,,,,,,,,,,,,,,,,,,,AP5DJG,train_x,blue_star,bottom_right,2025-06-23_16h21.23.506,HideSeek_v1,2022.2.5,59.93960484086877,
,7,2,4,2,-3,0,31,,train_dim1_1,11,30,,,,2,0,2,0,,,,,,,,,0,0,0,0,0,10,10,10,0,0,0,0,,,,,,,,,,,,,,,,,,,,,,,,,stimuli/alien_stimuli/31.png,,,,,,,,,,,,,,,,,,,,,,,,,,,,,stimuli/alien_stimuli/11.png,11,5,12,,,,,,,30,,,,,,,,473.19059239991475,473.19059239991475,473.19059239991475,473.19059239991475,473.19059239991475,left,2.236413799924776,1,1,0,99,0.32,-0.24,left,2.151568900095299,,,,,471.62687199993525,473.19059239991475,-0.16,-0.16,0.0,0.4,-0.16,-0.16,0.039999999999999994,-0.16,-0.16,468.8814341999823,468.8814341999823,468.8814341999823,468.8814341999823,468.8814341999823,468.8814341999823,468.8814341999823,468.8814341999823,468.8746798999841,2.870762199978344,return,2.724459999939427,,,,,,,,,,,,,,,,,,,,,,,,,,,,,,,,,AP5DJG,train_x,blue_star,bottom_right,2025-06-23_16h21.23.506,HideSeek_v1,2022.2.5,59.93960484086877,
,7,2,4,2,-3,0,31,,train_dim1_1,11,30,,,,2,0,2,0,,,,,,,,,0,0,0,0,0,10,10,10,1,0,1,0,,,,,,,,,,,,,,,,,,,,,,,,,,,,,,,,,,,,,,,,,,,,,,,,,,,,,,,,,,,,,,,,30,,,,,,,,475.42757559998427,475.42757559998427,475.42757559998427,475.42757559998427,475.42757559998427,left,0.3427180000580847,1,1,0,99,0.24,-0.24,left,0.2702770000323653,,,,,,,,,,,,,,,,,,,,,,,,,,,,,,,,,,,,,,,,,,,,,,,,,,,,,,,,,,,,AP5DJG,train_x,blue_star,bottom_right,2025-06-23_16h21.23.506,HideSeek_v1,2022.2.5,59.93960484086877,
,7,2,4,2,-3,0,31,,train_dim1_1,11,30,,,,2,0,2,0,,,,,,,,,0,0,0,0,0,10,10,10,2,0,2,0,,,,,,,,,,,,,,,,,,,,,,,,,,,,,,,,,,,,,,,,,,,,,,,,,,,,,,,,,,,,,,,,30,,,,,,,,475.77897230000235,475.77897230000235,475.77897230000235,475.77897230000235,475.77897230000235,left,0.6261510999174789,1,1,0,99,0.15999999999999998,-0.24,left,0.5369406000245363,,,,,,,,,,,,,,,,,,,,,,,,,,,,,,,,,,,,,,,,,,,,,,,,,,,,,,,,,,,,AP5DJG,train_x,blue_star,bottom_right,2025-06-23_16h21.23.506,HideSeek_v1,2022.2.5,59.93960484086877,
,7,2,4,2,-3,0,31,,train_dim1_1,11,30,,,,2,0,2,0,,,,,,,,,0,0,0,0,0,10,10,10,3,0,3,0,,,,,,,,,,,,,,,,,,,,,,,,,,,,,,,,,,,,,,,,,,,,,,,,,,,,,,,,,,,,,,,,30,,,,,,,,476.41162279993296,476.41162279993296,476.41162279993296,476.41162279993296,476.41162279993296,left,2.8786890000337735,1,1,0,99,0.07999999999999997,-0.24,left,2.7999401000561193,,,,,,,,,,,,,,,,,,,,,,,,,,,,,,,,,,,,,,,,,,,,,,,,,,,,,,,,,,,,AP5DJG,train_x,blue_star,bottom_right,2025-06-23_16h21.23.506,HideSeek_v1,2022.2.5,59.93960484086877,
,7,2,4,2,-3,0,31,,train_dim1_1,11,30,,,,2,0,2,0,,,,,,,,,0,0,0,0,0,10,10,10,4,0,4,0,,,,,,,,,,,,,,,,,,,,,,,,,,,,,,,,,,,,,,,,,,,,,,,,,,,,,,,,,,,,,,,,30,,,,,,,,479.29882020002697,479.29882020002697,479.29882020002697,479.29882020002697,479.29882020002697,return,0.5255805000197142,1,1,0,0,0.07999999999999997,-0.24,return,0.4430710000451654,-2,-31,0.07999999999999997,-0.24,,,,,,,,,,,,,,,,,,,,,,,,,,,,,,,,,,,,,,,,,,,,,,,,,,,,,,,,AP5DJG,train_x,blue_star,bottom_right,2025-06-23_16h21.23.506,HideSeek_v1,2022.2.5,59.93960484086877,
,5,0,1,0,-4,0,21,,train_dim1_1,12,30,,,,2,0,2,0,,,,,,,,,0,0,0,0,0,11,11,11,0,0,0,0,,,,,,,,,,,,,,,,,,,,,,,,,stimuli/alien_stimuli/21.png,,,,,,,,,,,,,,,,,,,,,,,,,,,,,stimuli/alien_stimuli/31.png,31,7,13,,,,,,,30,,,,,,,,486.30246539996006,486.30246539996006,486.30246539996006,486.30246539996006,486.30246539996006,left,1.8719956999411806,1,1,0,99,0.15999999999999998,-0.4,left,1.7877314999932423,,,,,484.737635999918,486.30246539996006,0.16,-0.24,0.0,0.24,-0.24,0.16,0.28,0.16,-0.24,481.40095369995106,481.40095369995106,481.40095369995106,481.40095369995106,481.40095369995106,481.40095369995106,481.40095369995106,481.40095369995106,481.38502859995936,3.4546478999545798,return,3.307545999996364,,,,,,,,,,,,,,,,,,,,,,,,,,,,,,,,,AP5DJG,train_x,blue_star,bottom_right,2025-06-23_16h21.23.506,HideSeek_v1,2022.2.5,59.93960484086877,
,5,0,1,0,-4,0,21,,train_dim1_1,12,30,,,,2,0,2,0,,,,,,,,,0,0,0,0,0,11,11,11,1,0,1,0,,,,,,,,,,,,,,,,,,,,,,,,,,,,,,,,,,,,,,,,,,,,,,,,,,,,,,,,,,,,,,,,30,,,,,,,,488.17558679997455,488.17558679997455,488.17558679997455,488.17558679997455,488.17558679997455,left,0.40841290005482733,1,1,0,99,0.07999999999999997,-0.4,left,0.3269374000374228,,,,,,,,,,,,,,,,,,,,,,,,,,,,,,,,,,,,,,,,,,,,,,,,,,,,,,,,,,,,AP5DJG,train_x,blue_star,bottom_right,2025-06-23_16h21.23.506,HideSeek_v1,2022.2.5,59.93960484086877,
,5,0,1,0,-4,0,21,,train_dim1_1,12,30,,,,2,0,2,0,,,,,,,,,0,0,0,0,0,11,11,11,2,0,2,0,,,,,,,,,,,,,,,,,,,,,,,,,,,,,,,,,,,,,,,,,,,,,,,,,,,,,,,,,,,,,,,,30,,,,,,,,488.5907073999988,488.5907073999988,488.5907073999988,488.5907073999988,488.5907073999988,left,0.9271392000373453,1,1,0,99,-2.7755575615628914e-17,-0.4,left,0.8469502000370994,,,,,,,,,,,,,,,,,,,,,,,,,,,,,,,,,,,,,,,,,,,,,,,,,,,,,,,,,,,,AP5DJG,train_x,blue_star,bottom_right,2025-06-23_16h21.23.506,HideSeek_v1,2022.2.5,59.93960484086877,
,5,0,1,0,-4,0,21,,train_dim1_1,12,30,,,,2,0,2,0,,,,,,,,,0,0,0,0,0,11,11,11,3,0,3,0,,,,,,,,,,,,,,,,,,,,,,,,,,,,,,,,,,,,,,,,,,,,,,,,,,,,,,,,,,,,,,,,30,,,,,,,,489.52563940000255,489.52563940000255,489.52563940000255,489.52563940000255,489.52563940000255,left,1.7776756999082863,1,1,0,99,-0.08000000000000003,-0.4,left,1.6957098999992013,,,,,,,,,,,,,,,,,,,,,,,,,,,,,,,,,,,,,,,,,,,,,,,,,,,,,,,,,,,,AP5DJG,train_x,blue_star,bottom_right,2025-06-23_16h21.23.506,HideSeek_v1,2022.2.5,59.93960484086877,
,5,0,1,0,-4,0,21,,train_dim1_1,12,30,,,,2,0,2,0,,,,,,,,,0,0,0,0,0,11,11,11,4,0,4,0,,,,,,,,,,,,,,,,,,,,,,,,,,,,,,,,,,,,,,,,,,,,,,,,,,,,,,,,,,,,,,,,30,,,,,,,,491.3096973999636,491.3096973999636,491.3096973999636,491.3096973999636,491.3096973999636,return,0.9606156999943778,2,0,0,1,-0.08000000000000003,-0.4,return,0.8758305000374094,-2,-35,-0.08000000000000003,-0.4,,,,,,,,,,,,,,,,,,,,,,,,,,,,,,,,,,,,,,,,,,,,,,,,,,,,,,,,AP5DJG,train_x,blue_star,bottom_right,2025-06-23_16h21.23.506,HideSeek_v1,2022.2.5,59.93960484086877,
,5,4,4,4,-1,0,51,,train_dim1_1,13,30,,,,2,0,2,0,,,,,,,,,0,0,0,0,0,12,12,12,0,0,0,0,,,,,,,,,,,,,,,,,,,,,,,,,stimuli/alien_stimuli/51.png,,,,,,,,,,,,,,,,,,,,,,,,,,,,,stimuli/alien_stimuli/21.png,21,5,14,,,,,,,30,,,,,,,,499.83306959993206,499.83306959993206,499.83306959993206,499.83306959993206,499.83306959993206,left,2.101340299937874,2,0,0,99,0.15999999999999998,-0.08,left,2.0189779000356793,,,,,498.2655080999248,499.83306959993206,-0.08,-0.4,0.0,0.32,-0.4,-0.08,0.07999999999999999,-0.08,-0.4,493.85282939998433,493.85282939998433,493.85282939998433,493.85282939998433,493.85282939998433,493.85282939998433,493.85282939998433,493.85282939998433,493.84537480000876,4.539242899976671,return,4.3860581000335515,,,,,,,,,,,,,,,,,,,,,,,,,,,,,,,,,AP5DJG,train_x,blue_star,bottom_right,2025-06-23_16h21.23.506,HideSeek_v1,2022.2.5,59.93960484086877,
,5,4,4,4,-1,0,51,,train_dim1_1,13,30,,,,2,0,2,0,,,,,,,,,0,0,0,0,0,12,12,12,1,0,1,0,,,,,,,,,,,,,,,,,,,,,,,,,,,,,,,,,,,,,,,,,,,,,,,,,,,,,,,,,,,,,,,,30,,,,,,,,501.93408539996017,501.93408539996017,501.93408539996017,501.93408539996017,501.93408539996017,return,0.5764313999097794,3,0,0,1,0.15999999999999998,-0.08,return,0.4979322000872344,-2,-36,0.15999999999999998,-0.08,,,,,,,,,,,,,,,,,,,,,,,,,,,,,,,,,,,,,,,,,,,,,,,,,,,,,,,,AP5DJG,train_x,blue_star,bottom_right,2025-06-23_16h21.23.506,HideSeek_v1,2022.2.5,59.93960484086877,
,9,3,4,3,-5,0,11,,train_dim1_1,14,30,,,,2,0,2,0,,,,,,,,,0,0,0,0,0,13,13,13,0,0,0,0,,,,,,,,,,,,,,,,,,,,,,,,,stimuli/alien_stimuli/11.png,,,,,,,,,,,,,,,,,,,,,,,,,,,,,stimuli/alien_stimuli/51.png,51,5,15,,,,,,,30,,,,,,,,508.60741920000874,508.60741920000874,508.60741920000874,508.60741920000874,508.60741920000874,left,0.8343907999806106,3,0,0,99,0.48000000000000004,-0.16,left,0.7413199000293389,,,,,507.0395149999531,508.60741920000874,0.16,-0.08,0.0,0.08,-0.08,0.16,0.2,0.16,-0.08,504.0767327999929,504.0767327999929,504.0767327999929,504.0767327999929,504.0767327999929,504.0767327999929,504.0767327999929,504.0767327999929,504.0705137999845,3.0712457000045106,return,2.946253199945204,,,,,,,,,,,,,,,,,,,,,,,,,,,,,,,,,AP5DJG,train_x,blue_star,bottom_right,2025-06-23_16h21.23.506,HideSeek_v1,2022.2.5,59.93960484086877,
,9,3,4,3,-5,0,11,,train_dim1_1,14,30,,,,2,0,2,0,,,,,,,,,0,0,0,0,0,13,13,13,1,0,1,0,,,,,,,,,,,,,,,,,,,,,,,,,,,,,,,,,,,,,,,,,,,,,,,,,,,,,,,,,,,,,,,,30,,,,,,,,509.4446708000032,509.4446708000032,509.4446708000032,509.4446708000032,509.4446708000032,left,0.3910797000862658,3,0,0,99,0.4,-0.16,left,0.3052356999833137,,,,,,,,,,,,,,,,,,,,,,,,,,,,,,,,,,,,,,,,,,,,,,,,,,,,,,,,,,,,AP5DJG,train_x,blue_star,bottom_right,2025-06-23_16h21.23.506,HideSeek_v1,2022.2.5,59.93960484086877,
,9,3,4,3,-5,0,11,,train_dim1_1,14,30,,,,2,0,2,0,,,,,,,,,0,0,0,0,0,13,13,13,2,0,2,0,,,,,,,,,,,,,,,,,,,,,,,,,,,,,,,,,,,,,,,,,,,,,,,,,,,,,,,,,,,,,,,,30,,,,,,,,509.8421121999854,509.8421121999854,509.8421121999854,509.8421121999854,509.8421121999854,left,0.6767080000136048,3,0,0,99,0.32,-0.16,left,0.5972113000461832,,,,,,,,,,,,,,,,,,,,,,,,,,,,,,,,,,,,,,,,,,,,,,,,,,,,,,,,,,,,AP5DJG,train_x,blue_star,bottom_right,2025-06-23_16h21.23.506,HideSeek_v1,2022.2.5,59.93960484086877,
,9,3,4,3,-5,0,11,,train_dim1_1,14,30,,,,2,0,2,0,,,,,,,,,0,0,0,0,0,13,13,13,3,0,3,0,,,,,,,,,,,,,,,,,,,,,,,,,,,,,,,,,,,,,,,,,,,,,,,,,,,,,,,,,,,,,,,,30,,,,,,,,510.52657240000553,510.52657240000553,510.52657240000553,510.52657240000553,510.52657240000553,return,0.5101716000353917,3,0,0,0,0.32,-0.16,return,0.4336306999903172,-2,-39,0.32,-0.16,,,,,,,,,,,,,,,,,,,,,,,,,,,,,,,,,,,,,,,,,,,,,,,,,,,,,,,,AP5DJG,train_x,blue_star,bottom_right,2025-06-23_16h21.23.506,HideSeek_v1,2022.2.5,59.93960484086877,
,9,2,9,2,0,0,61,,train_dim1_1,15,30,,,,2,0,2,0,,,,,,,,,0,0,0,0,0,14,14,14,0,0,0,0,,,,,,,,,,,,,,,,,,,,,,,,,stimuli/alien_stimuli/61.png,,,,,,,,,,,,,,,,,,,,,,,,,,,,,stimuli/alien_stimuli/11.png,11,9,16,,,,,,,30,,,,,,,,519.0115105999867,519.0115105999867,519.0115105999867,519.0115105999867,519.0115105999867,left,1.4019330000737682,3,0,0,99,0.48000000000000004,-0.24,left,1.3174873000243679,,,,,517.4481157999253,519.0115105999867,0.16,-0.16,0.0,0.4,-0.16,0.16,0.36000000000000004,0.16,-0.16,512.6280159999151,512.6280159999151,512.6280159999151,512.6280159999151,512.6280159999151,512.6280159999151,512.6280159999151,512.6280159999151,512.610776599939,4.956104499986395,return,4.796615200000815,,,,,,,,,,,,,,,,,,,,,,,,,,,,,,,,,AP5DJG,train_x,blue_star,bottom_right,2025-06-23_16h21.23.506,HideSeek_v1,2022.2.5,59.93960484086877,
,9,2,9,2,0,0,61,,train_dim1_1,15,30,,,,2,0,2,0,,,,,,,,,0,0,0,0,0,14,14,14,1,0,1,0,,,,,,,,,,,,,,,,,,,,,,,,,,,,,,,,,,,,,,,,,,,,,,,,,,,,,,,,,,,,,,,,30,,,,,,,,520.4163643999491,520.4163643999491,520.4163643999491,520.4163643999491,520.4163643999491,return,0.608392299967818,3,1,0,0,0.48000000000000004,-0.24,return,0.5240079000359401,-2,-40,0.48000000000000004,-0.24,,,,,,,,,,,,,,,,,,,,,,,,,,,,,,,,,,,,,,,,,,,,,,,,,,,,,,,,AP5DJG,train_x,blue_star,bottom_right,2025-06-23_16h21.23.506,HideSeek_v1,2022.2.5,59.93960484086877,
,8,3,7,3,-1,0,51,,train_dim1_1,16,30,,,,2,0,2,0,,,,,,,,,0,0,0,0,0,15,15,15,0,0,0,0,,,,,,,,,,,,,,,,,,,,,,,,,stimuli/alien_stimuli/51.png,,,,,,,,,,,,,,,,,,,,,,,,,,,,,stimuli/alien_stimuli/61.png,61,9,17,,,,,,,30,,,,,,,,526.8591975999298,526.8591975999298,526.8591975999298,526.8591975999298,526.8591975999298,return,1.8645627999212593,3,1,0,0,0.48,-0.16,return,1.7813855999847874,-2,-40,0.48,-0.16,525.2878757999279,526.8591975999298,0.56,-0.24,0.0,0.0,-0.24,0.56,0.56,0.56,-0.24,522.5937396999216,522.5937396999216,522.5937396999216,522.5937396999216,522.5937396999216,522.5937396999216,522.5937396999216,522.5937396999216,522.5856237000203,2.8043146999552846,return,2.6657937999116257,,,,,,,,,,,,,,,,,,,,,,,,,,,,,,,,,AP5DJG,train_x,blue_star,bottom_right,2025-06-23_16h21.23.506,HideSeek_v1,2022.2.5,59.93960484086877,
,7,4,3,4,-4,0,21,,train_dim1_1,17,30,,,,2,0,2,0,,,,,,,,,0,0,0,0,0,16,16,16,0,0,0,0,,,,,,,,,,,,,,,,,,,,,,,,,stimuli/alien_stimuli/21.png,,,,,,,,,,,,,,,,,,,,,,,,,,,,,stimuli/alien_stimuli/51.png,51,8,18,,,,,,,30,,,,,,,,538.1102646000218,538.1102646000218,538.1102646000218,538.1102646000218,538.1102646000218,left,1.3235480999574065,3,1,0,99,0.32,-0.08,left,1.2278496000217274,,,,,536.547364500002,538.1102646000218,0.4,-0.16,0.0,0.08,-0.16,0.4,0.44,0.4,-0.16,530.2839378999779,530.2839378999779,530.2839378999779,530.2839378999779,530.2839378999779,530.2839378999779,530.2839378999779,530.2839378999779,530.275424899964,6.373972999979742,return,6.2417782000266016,,,,,,,,,,,,,,,,,,,,,,,,,,,,,,,,,AP5DJG,train_x,blue_star,bottom_right,2025-06-23_16h21.23.506,HideSeek_v1,2022.2.5,59.93960484086877,
,7,4,3,4,-4,0,21,,train_dim1_1,17,30,,,,2,0,2,0,,,,,,,,,0,0,0,0,0,16,16,16,1,0,1,0,,,,,,,,,,,,,,,,,,,,,,,,,,,,,,,,,,,,,,,,,,,,,,,,,,,,,,,,,,,,,,,,30,,,,,,,,539.4393978000153,539.4393978000153,539.4393978000153,539.4393978000153,539.4393978000153,left,0.42164499999489635,3,1,0,99,0.24,-0.08,left,0.33175619994290173,,,,,,,,,,,,,,,,,,,,,,,,,,,,,,,,,,,,,,,,,,,,,,,,,,,,,,,,,,,,AP5DJG,train_x,blue_star,bottom_right,2025-06-23_16h21.23.506,HideSeek_v1,2022.2.5,59.93960484086877,
,7,4,3,4,-4,0,21,,train_dim1_1,17,30,,,,2,0,2,0,,,,,,,,,0,0,0,0,0,16,16,16,2,0,2,0,,,,,,,,,,,,,,,,,,,,,,,,,,,,,,,,,,,,,,,,,,,,,,,,,,,,,,,,,,,,,,,,30,,,,,,,,539.8668460999615,539.8668460999615,539.8668460999615,539.8668460999615,539.8668460999615,left,0.5934138000011444,3,1,0,99,0.15999999999999998,-0.08,left,0.5021839999826625,,,,,,,,,,,,,,,,,,,,,,,,,,,,,,,,,,,,,,,,,,,,,,,,,,,,,,,,,,,,AP5DJG,train_x,blue_star,bottom_right,2025-06-23_16h21.23.506,HideSeek_v1,2022.2.5,59.93960484086877,
,7,4,3,4,-4,0,21,,train_dim1_1,17,30,,,,2,0,2,0,,,,,,,,,0,0,0,0,0,16,16,16,3,0,3,0,,,,,,,,,,,,,,,,,,,,,,,,,,,,,,,,,,,,,,,,,,,,,,,,,,,,,,,,,,,,,,,,30,,,,,,,,540.4677538999822,540.4677538999822,540.4677538999822,540.4677538999822,540.4677538999822,left,0.5100409999722615,3,1,0,99,0.07999999999999997,-0.08,left,0.42319190001580864,,,,,,,,,,,,,,,,,,,,,,,,,,,,,,,,,,,,,,,,,,,,,,,,,,,,,,,,,,,,AP5DJG,train_x,blue_star,bottom_right,2025-06-23_16h21.23.506,HideSeek_v1,2022.2.5,59.93960484086877,
,7,4,3,4,-4,0,21,,train_dim1_1,17,30,,,,2,0,2,0,,,,,,,,,0,0,0,0,0,16,16,16,4,0,4,0,,,,,,,,,,,,,,,,,,,,,,,,,,,,,,,,,,,,,,,,,,,,,,,,,,,,,,,,,,,,,,,,30,,,,,,,,540.986074400018,540.986074400018,540.986074400018,540.986074400018,540.986074400018,left,0.5929418000159785,3,1,0,99,-2.7755575615628914e-17,-0.08,left,0.5013963999226689,,,,,,,,,,,,,,,,,,,,,,,,,,,,,,,,,,,,,,,,,,,,,,,,,,,,,,,,,,,,AP5DJG,train_x,blue_star,bottom_right,2025-06-23_16h21.23.506,HideSeek_v1,2022.2.5,59.93960484086877,
,7,4,3,4,-4,0,21,,train_dim1_1,17,30,,,,2,0,2,0,,,,,,,,,0,0,0,0,0,16,16,16,5,0,5,0,,,,,,,,,,,,,,,,,,,,,,,,,,,,,,,,,,,,,,,,,,,,,,,,,,,,,,,,,,,,,,,,30,,,,,,,,541.5899020999204,541.5899020999204,541.5899020999204,541.5899020999204,541.5899020999204,return,0.523188199964352,3,1,0,0,-2.7755575615628914e-17,-0.08,return,0.43916109995916486,-2,-45,-2.7755575615628914e-17,-0.08,,,,,,,,,,,,,,,,,,,,,,,,,,,,,,,,,,,,,,,,,,,,,,,,,,,,,,,,AP5DJG,train_x,blue_star,bottom_right,2025-06-23_16h21.23.506,HideSeek_v1,2022.2.5,59.93960484086877,
,7,1,7,1,0,0,61,,train_dim1_1,18,30,,,,2,0,2,0,,,,,,,,,0,0,0,0,0,17,17,17,0,0,0,0,,,,,,,,,,,,,,,,,,,,,,,,,stimuli/alien_stimuli/61.png,,,,,,,,,,,,,,,,,,,,,,,,,,,,,stimuli/alien_stimuli/21.png,21,7,19,,,,,,,30,,,,,,,,552.1409975999268,552.1409975999268,552.1409975999268,552.1409975999268,552.1409975999268,return,1.4842288000509143,4,0,0,1,0.4,-0.32,return,1.4005916999885812,-2,-45,0.4,-0.32,550.5755518999649,552.1409975999268,0.08,-0.08,0.0,0.32,-0.08,0.08,0.24000000000000002,0.08,-0.08,543.6971148999874,543.6971148999874,543.6971148999874,543.6971148999874,543.6971148999874,543.6971148999874,543.6971148999874,543.6971148999874,543.6865680999821,7.0080377999693155,return,6.858204200048931,,,,,,,,,,,,,,,,,,,,,,,,,,,,,,,,,AP5DJG,train_x,blue_star,bottom_right,2025-06-23_16h21.23.506,HideSeek_v1,2022.2.5,59.93960484086877,
,5,3,2,3,-3,0,31,,train_dim1_1,19,30,,,,2,0,2,0,,,,,,,,,0,0,0,0,0,18,18,18,0,0,0,0,,,,,,,,,,,,,,,,,,,,,,,,,stimuli/alien_stimuli/31.png,,,,,,,,,,,,,,,,,,,,,,,,,,,,,stimuli/alien_stimuli/61.png,61,7,20,,,,,,,30,,,,,,,,559.7598323000129,559.7598323000129,559.7598323000129,559.7598323000129,559.7598323000129,left,1.571150799980387,4,0,0,99,0.15999999999999998,-0.16,left,1.478558799950406,,,,,558.1986209999304,559.7598323000129,0.4,-0.32,0.0,0.0,-0.32,0.4,0.4,0.4,-0.32,555.1963802999817,555.1963802999817,555.1963802999817,555.1963802999817,555.1963802999817,555.1963802999817,555.1963802999817,555.1963802999817,555.1794902999768,3.1215145000023767,return,2.985415400005877,,,,,,,,,,,,,,,,,,,,,,,,,,,,,,,,,AP5DJG,train_x,blue_star,bottom_right,2025-06-23_16h21.23.506,HideSeek_v1,2022.2.5,59.93960484086877,
,5,3,2,3,-3,0,31,,train_dim1_1,19,30,,,,2,0,2,0,,,,,,,,,0,0,0,0,0,18,18,18,1,0,1,0,,,,,,,,,,,,,,,,,,,,,,,,,,,,,,,,,,,,,,,,,,,,,,,,,,,,,,,,,,,,,,,,30,,,,,,,,561.3317985999165,561.3317985999165,561.3317985999165,561.3317985999165,561.3317985999165,left,0.5093720000004396,4,0,0,99,0.07999999999999997,-0.16,left,0.4240439999848604,,,,,,,,,,,,,,,,,,,,,,,,,,,,,,,,,,,,,,,,,,,,,,,,,,,,,,,,,,,,AP5DJG,train_x,blue_star,bottom_right,2025-06-23_16h21.23.506,HideSeek_v1,2022.2.5,59.93960484086877,
,5,3,2,3,-3,0,31,,train_dim1_1,19,30,,,,2,0,2,0,,,,,,,,,0,0,0,0,0,18,18,18,2,0,2,0,,,,,,,,,,,,,,,,,,,,,,,,,,,,,,,,,,,,,,,,,,,,,,,,,,,,,,,,,,,,,,,,30,,,,,,,,561.8500221999129,561.8500221999129,561.8500221999129,561.8500221999129,561.8500221999129,left,0.5428472999483347,4,0,0,99,-2.7755575615628914e-17,-0.16,left,0.46394770010374486,,,,,,,,,,,,,,,,,,,,,,,,,,,,,,,,,,,,,,,,,,,,,,,,,,,,,,,,,,,,AP5DJG,train_x,blue_star,bottom_right,2025-06-23_16h21.23.506,HideSeek_v1,2022.2.5,59.93960484086877,
,5,3,2,3,-3,0,31,,train_dim1_1,19,30,,,,2,0,2,0,,,,,,,,,0,0,0,0,0,18,18,18,3,0,3,0,,,,,,,,,,,,,,,,,,,,,,,,,,,,,,,,,,,,,,,,,,,,,,,,,,,,,,,,,,,,,,,,30,,,,,,,,562.3988960999995,562.3988960999995,562.3988960999995,562.3988960999995,562.3988960999995,return,0.5268228999339044,5,0,0,1,-2.7755575615628914e-17,-0.16,return,0.4534468000056222,-2,-48,-2.7755575615628914e-17,-0.16,,,,,,,,,,,,,,,,,,,,,,,,,,,,,,,,,,,,,,,,,,,,,,,,,,,,,,,,AP5DJG,train_x,blue_star,bottom_right,2025-06-23_16h21.23.506,HideSeek_v1,2022.2.5,59.93960484086877,
,5,1,0,1,-5,0,11,,train_dim1_1,20,30,,,,2,0,2,0,,,,,,,,,0,0,0,0,0,19,19,19,0,0,0,0,,,,,,,,,,,,,,,,,,,,,,,,,stimuli/alien_stimuli/11.png,,,,,,,,,,,,,,,,,,,,,,,,,,,,,stimuli/alien_stimuli/31.png,31,5,21,,,,,,,30,,,,,,,,568.2903315000003,568.2903315000003,568.2903315000003,568.2903315000003,568.2903315000003,left,0.8535055000102147,5,0,0,99,0.15999999999999998,-0.32,left,0.7404735999880359,,,,,566.7056058999151,568.2903315000003,0,-0.16,0.0,0.24,-0.16,0,0.12,0,-0.16,564.4908104999922,564.4908104999922,564.4908104999922,564.4908104999922,564.4908104999922,564.4908104999922,564.4908104999922,564.4908104999922,564.4706494999816,2.320194899919443,return,2.192951299948618,,,,,,,,,,,,,,,,,,,,,,,,,,,,,,,,,AP5DJG,train_x,blue_star,bottom_right,2025-06-23_16h21.23.506,HideSeek_v1,2022.2.5,59.93960484086877,
,5,1,0,1,-5,0,11,,train_dim1_1,20,30,,,,2,0,2,0,,,,,,,,,0,0,0,0,0,19,19,19,1,0,1,0,,,,,,,,,,,,,,,,,,,,,,,,,,,,,,,,,,,,,,,,,,,,,,,,,,,,,,,,,,,,,,,,30,,,,,,,,569.1266362000024,569.1266362000024,569.1266362000024,569.1266362000024,569.1266362000024,left,0.4093490999657661,5,0,0,99,0.07999999999999997,-0.32,left,0.326673400006257,,,,,,,,,,,,,,,,,,,,,,,,,,,,,,,,,,,,,,,,,,,,,,,,,,,,,,,,,,,,AP5DJG,train_x,blue_star,bottom_right,2025-06-23_16h21.23.506,HideSeek_v1,2022.2.5,59.93960484086877,
,5,1,0,1,-5,0,11,,train_dim1_1,20,30,,,,2,0,2,0,,,,,,,,,0,0,0,0,0,19,19,19,2,0,2,0,,,,,,,,,,,,,,,,,,,,,,,,,,,,,,,,,,,,,,,,,,,,,,,,,,,,,,,,,,,,,,,,30,,,,,,,,569.5427849999396,569.5427849999396,569.5427849999396,569.5427849999396,569.5427849999396,left,0.5924665000056848,5,0,0,99,-2.7755575615628914e-17,-0.32,left,0.5166775999823585,,,,,,,,,,,,,,,,,,,,,,,,,,,,,,,,,,,,,,,,,,,,,,,,,,,,,,,,,,,,AP5DJG,train_x,blue_star,bottom_right,2025-06-23_16h21.23.506,HideSeek_v1,2022.2.5,59.93960484086877,
,5,1,0,1,-5,0,11,,train_dim1_1,20,30,,,,2,0,2,0,,,,,,,,,0,0,0,0,0,19,19,19,3,0,3,0,,,,,,,,,,,,,,,,,,,,,,,,,,,,,,,,,,,,,,,,,,,,,,,,,,,,,,,,,,,,,,,,30,,,,,,,,570.1440089999232,570.1440089999232,570.1440089999232,570.1440089999232,570.1440089999232,left,0.5093555999919772,5,0,0,99,-0.08000000000000003,-0.32,left,0.4267875000368804,,,,,,,,,,,,,,,,,,,,,,,,,,,,,,,,,,,,,,,,,,,,,,,,,,,,,,,,,,,,AP5DJG,train_x,blue_star,bottom_right,2025-06-23_16h21.23.506,HideSeek_v1,2022.2.5,59.93960484086877,
,5,1,0,1,-5,0,11,,train_dim1_1,20,30,,,,2,0,2,0,,,,,,,,,0,0,0,0,0,19,19,19,4,0,4,0,,,,,,,,,,,,,,,,,,,,,,,,,,,,,,,,,,,,,,,,,,,,,,,,,,,,,,,,,,,,,,,,30,,,,,,,,570.6603528999258,570.6603528999258,570.6603528999258,570.6603528999258,570.6603528999258,left,0.5267661000834778,5,0,0,99,-0.16000000000000003,-0.32,left,0.4399587999796495,,,,,,,,,,,,,,,,,,,,,,,,,,,,,,,,,,,,,,,,,,,,,,,,,,,,,,,,,,,,AP5DJG,train_x,blue_star,bottom_right,2025-06-23_16h21.23.506,HideSeek_v1,2022.2.5,59.93960484086877,
,5,1,0,1,-5,0,11,,train_dim1_1,20,30,,,,2,0,2,0,,,,,,,,,0,0,0,0,0,19,19,19,5,0,5,0,,,,,,,,,,,,,,,,,,,,,,,,,,,,,,,,,,,,,,,,,,,,,,,,,,,,,,,,,,,,,,,,30,,,,,,,,571.1962934000185,571.1962934000185,571.1962934000185,571.1962934000185,571.1962934000185,return,0.5577647999161854,6,0,0,1,-0.16000000000000003,-0.32,return,0.46562799997627735,-2,-53,-0.16000000000000003,-0.32,,,,,,,,,,,,,,,,,,,,,,,,,,,,,,,,,,,,,,,,,,,,,,,,,,,,,,,,AP5DJG,train_x,blue_star,bottom_right,2025-06-23_16h21.23.506,HideSeek_v1,2022.2.5,59.93960484086877,
,9,2,6,2,-3,0,31,,train_dim1_1,21,30,,,,2,0,2,0,,,,,,,,,0,0,0,0,0,20,20,20,0,0,0,0,,,,,,,,,,,,,,,,,,,,,,,,,stimuli/alien_stimuli/31.png,,,,,,,,,,,,,,,,,,,,,,,,,,,,,stimuli/alien_stimuli/11.png,11,5,22,,,,,,,30,,,,,,,,576.9416966999415,576.9416966999415,576.9416966999415,576.9416966999415,576.9416966999415,left,1.1864914000034332,6,0,0,99,0.48000000000000004,-0.24,left,1.0898655999917537,,,,,575.3626660999143,576.9416966999415,-0.16,-0.32,0.0,0.4,-0.32,-0.16,0.039999999999999994,-0.16,-0.32,573.3210958999116,573.3210958999116,573.3210958999116,573.3210958999116,573.3210958999116,573.3210958999116,573.3210958999116,573.3210958999116,573.311169499962,2.154104199958965,return,2.0094126999611035,,,,,,,,,,,,,,,,,,,,,,,,,,,,,,,,,AP5DJG,train_x,blue_star,bottom_right,2025-06-23_16h21.23.506,HideSeek_v1,2022.2.5,59.93960484086877,
,9,2,6,2,-3,0,31,,train_dim1_1,21,30,,,,2,0,2,0,,,,,,,,,0,0,0,0,0,20,20,20,1,0,1,0,,,,,,,,,,,,,,,,,,,,,,,,,,,,,,,,,,,,,,,,,,,,,,,,,,,,,,,,,,,,,,,,30,,,,,,,,578.113096499932,578.113096499932,578.113096499932,578.113096499932,578.113096499932,left,0.4251259999582544,6,0,0,99,0.4,-0.24,left,0.34182750002946705,,,,,,,,,,,,,,,,,,,,,,,,,,,,,,,,,,,,,,,,,,,,,,,,,,,,,,,,,,,,AP5DJG,train_x,blue_star,bottom_right,2025-06-23_16h21.23.506,HideSeek_v1,2022.2.5,59.93960484086877,
,9,2,6,2,-3,0,31,,train_dim1_1,21,30,,,,2,0,2,0,,,,,,,,,0,0,0,0,0,20,20,20,2,0,2,0,,,,,,,,,,,,,,,,,,,,,,,,,,,,,,,,,,,,,,,,,,,,,,,,,,,,,,,,,,,,,,,,30,,,,,,,,578.5459573999979,578.5459573999979,578.5459573999979,578.5459573999979,578.5459573999979,left,0.42721270001493394,6,0,0,99,0.32,-0.24,left,0.3458951000357047,,,,,,,,,,,,,,,,,,,,,,,,,,,,,,,,,,,,,,,,,,,,,,,,,,,,,,,,,,,,AP5DJG,train_x,blue_star,bottom_right,2025-06-23_16h21.23.506,HideSeek_v1,2022.2.5,59.93960484086877,
,9,2,6,2,-3,0,31,,train_dim1_1,21,30,,,,2,0,2,0,,,,,,,,,0,0,0,0,0,20,20,20,3,0,3,0,,,,,,,,,,,,,,,,,,,,,,,,,,,,,,,,,,,,,,,,,,,,,,,,,,,,,,,,,,,,,,,,30,,,,,,,,578.9811685999157,578.9811685999157,578.9811685999157,578.9811685999157,578.9811685999157,return,0.40939050004817545,7,0,0,1,0.32,-0.24,return,0.3328291999641806,-2,-56,0.32,-0.24,,,,,,,,,,,,,,,,,,,,,,,,,,,,,,,,,,,,,,,,,,,,,,,,,,,,,,,,AP5DJG,train_x,blue_star,bottom_right,2025-06-23_16h21.23.506,HideSeek_v1,2022.2.5,59.93960484086877,
,6,0,2,0,-4,0,21,,train_dim1_1,22,30,,,,2,0,2,0,,,,,,,,,0,0,0,0,0,21,21,21,0,0,0,0,,,,,,,,,,,,,,,,,,,,,,,,,stimuli/alien_stimuli/21.png,,,,,,,,,,,,,,,,,,,,,,,,,,,,,stimuli/alien_stimuli/31.png,31,9,23,,,,,,,30,,,,,,,,584.4223569999449,584.4223569999449,584.4223569999449,584.4223569999449,584.4223569999449,left,1.1366726999403909,7,0,0,99,0.24,-0.4,left,1.033684300025925,,,,,582.835585199995,584.4223569999449,0.32,-0.24,0.0,0.24,-0.24,0.32,0.44000000000000006,0.32,-0.24,580.9581216999795,580.9581216999795,580.9581216999795,580.9581216999795,580.9581216999795,580.9581216999795,580.9581216999795,580.9581216999795,580.9508658999926,1.9871510000666603,return,1.8572411999339238,,,,,,,,,,,,,,,,,,,,,,,,,,,,,,,,,AP5DJG,train_x,blue_star,bottom_right,2025-06-23_16h21.23.506,HideSeek_v1,2022.2.5,59.93960484086877,
,6,0,2,0,-4,0,21,,train_dim1_1,22,30,,,,2,0,2,0,,,,,,,,,0,0,0,0,0,21,21,21,1,0,1,0,,,,,,,,,,,,,,,,,,,,,,,,,,,,,,,,,,,,,,,,,,,,,,,,,,,,,,,,,,,,,,,,30,,,,,,,,585.5429553999566,585.5429553999566,585.5429553999566,585.5429553999566,585.5429553999566,left,0.40631270001176745,7,0,0,99,0.15999999999999998,-0.4,left,0.3149013000074774,,,,,,,,,,,,,,,,,,,,,,,,,,,,,,,,,,,,,,,,,,,,,,,,,,,,,,,,,,,,AP5DJG,train_x,blue_star,bottom_right,2025-06-23_16h21.23.506,HideSeek_v1,2022.2.5,59.93960484086877,
,6,0,2,0,-4,0,21,,train_dim1_1,22,30,,,,2,0,2,0,,,,,,,,,0,0,0,0,0,21,21,21,2,0,2,0,,,,,,,,,,,,,,,,,,,,,,,,,,,,,,,,,,,,,,,,,,,,,,,,,,,,,,,,,,,,,,,,30,,,,,,,,585.9550398999127,585.9550398999127,585.9550398999127,585.9550398999127,585.9550398999127,left,0.510206799954176,7,0,0,99,0.07999999999999997,-0.4,left,0.42336020001675934,,,,,,,,,,,,,,,,,,,,,,,,,,,,,,,,,,,,,,,,,,,,,,,,,,,,,,,,,,,,AP5DJG,train_x,blue_star,bottom_right,2025-06-23_16h21.23.506,HideSeek_v1,2022.2.5,59.93960484086877,
,6,0,2,0,-4,0,21,,train_dim1_1,22,30,,,,2,0,2,0,,,,,,,,,0,0,0,0,0,21,21,21,3,0,3,0,,,,,,,,,,,,,,,,,,,,,,,,,,,,,,,,,,,,,,,,,,,,,,,,,,,,,,,,,,,,,,,,30,,,,,,,,586.4723807999399,586.4723807999399,586.4723807999399,586.4723807999399,586.4723807999399,left,0.45971570000983775,7,0,0,99,-2.7755575615628914e-17,-0.4,left,0.38173360005021095,,,,,,,,,,,,,,,,,,,,,,,,,,,,,,,,,,,,,,,,,,,,,,,,,,,,,,,,,,,,AP5DJG,train_x,blue_star,bottom_right,2025-06-23_16h21.23.506,HideSeek_v1,2022.2.5,59.93960484086877,
,6,0,2,0,-4,0,21,,train_dim1_1,22,30,,,,2,0,2,0,,,,,,,,,0,0,0,0,0,21,21,21,4,0,4,0,,,,,,,,,,,,,,,,,,,,,,,,,,,,,,,,,,,,,,,,,,,,,,,,,,,,,,,,,,,,,,,,30,,,,,,,,586.9419050000142,586.9419050000142,586.9419050000142,586.9419050000142,586.9419050000142,return,0.393396700033918,8,0,0,1,-2.7755575615628914e-17,-0.4,return,0.3069981000153348,-2,-60,-2.7755575615628914e-17,-0.4,,,,,,,,,,,,,,,,,,,,,,,,,,,,,,,,,,,,,,,,,,,,,,,,,,,,,,,,AP5DJG,train_x,blue_star,bottom_right,2025-06-23_16h21.23.506,HideSeek_v1,2022.2.5,59.93960484086877,
,7,1,7,1,0,0,61,,train_dim1_1,23,30,,,,2,0,2,0,,,,,,,,,0,0,0,0,0,22,22,22,0,0,0,0,,,,,,,,,,,,,,,,,,,,,,,,,stimuli/alien_stimuli/61.png,,,,,,,,,,,,,,,,,,,,,,,,,,,,,stimuli/alien_stimuli/21.png,21,6,24,,,,,,,30,,,,,,,,593.5209957999177,593.5209957999177,593.5209957999177,593.5209957999177,593.5209957999177,return,1.670979299931787,9,0,0,1,0.4,-0.32,return,1.5844173999503255,-2,-60,0.4,-0.32,591.960214599967,593.5209957999177,0,-0.4,0.0,0.32,-0.4,0,0.16,0,-0.4,588.90608659992,588.90608659992,588.90608659992,588.90608659992,588.90608659992,588.90608659992,588.90608659992,588.90608659992,588.8908140000071,3.172128700069152,return,3.030233000055887,,,,,,,,,,,,,,,,,,,,,,,,,,,,,,,,,AP5DJG,train_x,blue_star,bottom_right,2025-06-23_16h21.23.506,HideSeek_v1,2022.2.5,59.93960484086877,
,9,4,8,4,-1,0,51,,train_dim1_1,24,30,,,,2,0,2,0,,,,,,,,,0,0,0,0,0,23,23,23,0,0,0,0,,,,,,,,,,,,,,,,,,,,,,,,,stimuli/alien_stimuli/51.png,,,,,,,,,,,,,,,,,,,,,,,,,,,,,stimuli/alien_stimuli/61.png,61,7,25,,,,,,,30,,,,,,,,600.3965900000185,600.3965900000185,600.3965900000185,600.3965900000185,600.3965900000185,left,2.070389400003478,9,0,0,99,0.48000000000000004,-0.08,left,1.9702190000098199,,,,,598.815634700004,600.3965900000185,0.4,-0.32,0.0,0.0,-0.32,0.4,0.4,0.4,-0.32,596.7467920000199,596.7467920000199,596.7467920000199,596.7467920000199,596.7467920000199,596.7467920000199,596.7467920000199,596.7467920000199,596.7306572999339,2.170316300005652,return,2.0383052999386564,,,,,,,,,,,,,,,,,,,,,,,,,,,,,,,,,AP5DJG,train_x,blue_star,bottom_right,2025-06-23_16h21.23.506,HideSeek_v1,2022.2.5,59.93960484086877,
,9,4,8,4,-1,0,51,,train_dim1_1,24,30,,,,2,0,2,0,,,,,,,,,0,0,0,0,0,23,23,23,1,0,1,0,,,,,,,,,,,,,,,,,,,,,,,,,,,,,,,,,,,,,,,,,,,,,,,,,,,,,,,,,,,,,,,,30,,,,,,,,602.4567758999765,602.4567758999765,602.4567758999765,602.4567758999765,602.4567758999765,return,0.4710011000279337,10,0,0,1,0.48000000000000004,-0.08,return,0.395429200027138,-2,-61,0.48000000000000004,-0.08,,,,,,,,,,,,,,,,,,,,,,,,,,,,,,,,,,,,,,,,,,,,,,,,,,,,,,,,AP5DJG,train_x,blue_star,bottom_right,2025-06-23_16h21.23.506,HideSeek_v1,2022.2.5,59.93960484086877,
,8,0,3,0,-5,0,11,,train_dim1_1,25,30,,,,2,0,2,0,,,,,,,,,0,0,0,0,0,24,24,24,0,0,0,0,,,,,,,,,,,,,,,,,,,,,,,,,stimuli/alien_stimuli/11.png,,,,,,,,,,,,,,,,,,,,,,,,,,,,,stimuli/alien_stimuli/51.png,51,9,26,,,,,,,30,,,,,,,,609.8392953999573,609.8392953999573,609.8392953999573,609.8392953999573,609.8392953999573,left,1.2363707999465987,10,0,0,99,0.39999999999999997,-0.4,left,1.1487224999582395,,,,,608.2734785999637,609.8392953999573,0.48,-0.08,0.0,0.08,-0.08,0.48,0.52,0.48,-0.08,604.4953532000072,604.4953532000072,604.4953532000072,604.4953532000072,604.4953532000072,604.4953532000072,604.4953532000072,604.4953532000072,604.4872129000373,3.8883452999871224,return,3.7487302999943495,,,,,,,,,,,,,,,,,,,,,,,,,,,,,,,,,AP5DJG,train_x,blue_star,bottom_right,2025-06-23_16h21.23.506,HideSeek_v1,2022.2.5,59.93960484086877,
,8,0,3,0,-5,0,11,,train_dim1_1,25,30,,,,2,0,2,0,,,,,,,,,0,0,0,0,0,24,24,24,1,0,1,0,,,,,,,,,,,,,,,,,,,,,,,,,,,,,,,,,,,,,,,,,,,,,,,,,,,,,,,,,,,,,,,,30,,,,,,,,611.0761960999807,611.0761960999807,611.0761960999807,611.0761960999807,611.0761960999807,left,0.42631970008369535,10,0,0,99,0.31999999999999995,-0.4,left,0.3369545000605285,,,,,,,,,,,,,,,,,,,,,,,,,,,,,,,,,,,,,,,,,,,,,,,,,,,,,,,,,,,,AP5DJG,train_x,blue_star,bottom_right,2025-06-23_16h21.23.506,HideSeek_v1,2022.2.5,59.93960484086877,
,8,0,3,0,-5,0,11,,train_dim1_1,25,30,,,,2,0,2,0,,,,,,,,,0,0,0,0,0,24,24,24,2,0,2,0,,,,,,,,,,,,,,,,,,,,,,,,,,,,,,,,,,,,,,,,,,,,,,,,,,,,,,,,,,,,,,,,30,,,,,,,,611.5100759000052,611.5100759000052,611.5100759000052,611.5100759000052,611.5100759000052,left,0.4597743999911472,10,0,0,99,0.23999999999999994,-0.4,left,0.37435249995905906,,,,,,,,,,,,,,,,,,,,,,,,,,,,,,,,,,,,,,,,,,,,,,,,,,,,,,,,,,,,AP5DJG,train_x,blue_star,bottom_right,2025-06-23_16h21.23.506,HideSeek_v1,2022.2.5,59.93960484086877,
,8,0,3,0,-5,0,11,,train_dim1_1,25,30,,,,2,0,2,0,,,,,,,,,0,0,0,0,0,24,24,24,3,0,3,0,,,,,,,,,,,,,,,,,,,,,,,,,,,,,,,,,,,,,,,,,,,,,,,,,,,,,,,,,,,,,,,,30,,,,,,,,611.9773277000058,611.9773277000058,611.9773277000058,611.9773277000058,611.9773277000058,left,0.4764972000848502,10,0,0,99,0.15999999999999992,-0.4,left,0.388755299965851,,,,,,,,,,,,,,,,,,,,,,,,,,,,,,,,,,,,,,,,,,,,,,,,,,,,,,,,,,,,AP5DJG,train_x,blue_star,bottom_right,2025-06-23_16h21.23.506,HideSeek_v1,2022.2.5,59.93960484086877,
,8,0,3,0,-5,0,11,,train_dim1_1,25,30,,,,2,0,2,0,,,,,,,,,0,0,0,0,0,24,24,24,4,0,4,0,,,,,,,,,,,,,,,,,,,,,,,,,,,,,,,,,,,,,,,,,,,,,,,,,,,,,,,,,,,,,,,,30,,,,,,,,612.4602113999426,612.4602113999426,612.4602113999426,612.4602113999426,612.4602113999426,left,0.5101424999302253,10,0,0,99,0.07999999999999992,-0.4,left,0.43384339998010546,,,,,,,,,,,,,,,,,,,,,,,,,,,,,,,,,,,,,,,,,,,,,,,,,,,,,,,,,,,,AP5DJG,train_x,blue_star,bottom_right,2025-06-23_16h21.23.506,HideSeek_v1,2022.2.5,59.93960484086877,
,8,0,3,0,-5,0,11,,train_dim1_1,25,30,,,,2,0,2,0,,,,,,,,,0,0,0,0,0,24,24,24,5,0,5,0,,,,,,,,,,,,,,,,,,,,,,,,,,,,,,,,,,,,,,,,,,,,,,,,,,,,,,,,,,,,,,,,30,,,,,,,,612.9781124999281,612.9781124999281,612.9781124999281,612.9781124999281,612.9781124999281,left,0.4098685000790283,10,0,0,99,-8.326672684688674e-17,-0.4,left,0.3290419999975711,,,,,,,,,,,,,,,,,,,,,,,,,,,,,,,,,,,,,,,,,,,,,,,,,,,,,,,,,,,,AP5DJG,train_x,blue_star,bottom_right,2025-06-23_16h21.23.506,HideSeek_v1,2022.2.5,59.93960484086877,
,8,0,3,0,-5,0,11,,train_dim1_1,25,30,,,,2,0,2,0,,,,,,,,,0,0,0,0,0,24,24,24,6,0,6,0,,,,,,,,,,,,,,,,,,,,,,,,,,,,,,,,,,,,,,,,,,,,,,,,,,,,,,,,,,,,,,,,30,,,,,,,,613.3968657000223,613.3968657000223,613.3968657000223,613.3968657000223,613.3968657000223,return,0.6919105000561103,10,1,0,0,-8.326672684688674e-17,-0.4,return,0.6041270999703556,-2,-67,-8.326672684688674e-17,-0.4,,,,,,,,,,,,,,,,,,,,,,,,,,,,,,,,,,,,,,,,,,,,,,,,,,,,,,,,AP5DJG,train_x,blue_star,bottom_right,2025-06-23_16h21.23.506,HideSeek_v1,2022.2.5,59.93960484086877,
,6,1,6,1,0,0,61,,train_dim1_1,26,30,,,,2,0,2,0,,,,,,,,,0,0,0,0,0,25,25,25,0,0,0,0,,,,,,,,,,,,,,,,,,,,,,,,,stimuli/alien_stimuli/61.png,,,,,,,,,,,,,,,,,,,,,,,,,,,,,stimuli/alien_stimuli/11.png,11,8,27,,,,,,,30,,,,,,,,619.6587314999197,619.6587314999197,619.6587314999197,619.6587314999197,619.6587314999197,return,1.865127700031735,11,0,0,1,0.32,-0.32,return,1.7709832999389619,-2,-67,0.32,-0.32,618.0816013999283,619.6587314999197,0.08,-0.4,0.0,0.4,-0.4,0.08,0.27999999999999997,0.08,-0.4,615.6733666999498,615.6733666999498,615.6733666999498,615.6733666999498,615.6733666999498,615.6733666999498,615.6733666999498,615.6733666999498,615.6630362999625,2.537348300102167,return,2.3785973000340164,,,,,,,,,,,,,,,,,,,,,,,,,,,,,,,,,AP5DJG,train_x,blue_star,bottom_right,2025-06-23_16h21.23.506,HideSeek_v1,2022.2.5,59.93960484086877,
,5,1,2,1,-3,0,31,,train_dim1_1,27,30,,,,2,0,2,0,,,,,,,,,0,0,0,0,0,26,26,26,0,0,0,0,,,,,,,,,,,,,,,,,,,,,,,,,stimuli/alien_stimuli/31.png,,,,,,,,,,,,,,,,,,,,,,,,,,,,,stimuli/alien_stimuli/61.png,61,6,28,,,,,,,30,,,,,,,,626.1333290999755,626.1333290999755,626.1333290999755,626.1333290999755,626.1333290999755,left,2.136911900015548,11,0,0,99,0.15999999999999998,-0.32,left,2.037819999968633,,,,,624.5534484999953,626.1333290999755,0.32,-0.32,0.0,0.0,-0.32,0.32,0.32,0.32,-0.32,623.074223899981,623.074223899981,623.074223899981,623.074223899981,623.074223899981,623.074223899981,623.074223899981,623.074223899981,623.0525134000461,1.5866068000905216,return,1.4626319999806583,,,,,,,,,,,,,,,,,,,,,,,,,,,,,,,,,AP5DJG,train_x,blue_star,bottom_right,2025-06-23_16h21.23.506,HideSeek_v1,2022.2.5,59.93960484086877,
,5,1,2,1,-3,0,31,,train_dim1_1,27,30,,,,2,0,2,0,,,,,,,,,0,0,0,0,0,26,26,26,1,0,1,0,,,,,,,,,,,,,,,,,,,,,,,,,,,,,,,,,,,,,,,,,,,,,,,,,,,,,,,,,,,,,,,,30,,,,,,,,628.2548063999275,628.2548063999275,628.2548063999275,628.2548063999275,628.2548063999275,left,0.4094257999677211,11,0,0,99,0.07999999999999997,-0.32,left,0.33507450006436557,,,,,,,,,,,,,,,,,,,,,,,,,,,,,,,,,,,,,,,,,,,,,,,,,,,,,,,,,,,,AP5DJG,train_x,blue_star,bottom_right,2025-06-23_16h21.23.506,HideSeek_v1,2022.2.5,59.93960484086877,
,5,1,2,1,-3,0,31,,train_dim1_1,27,30,,,,2,0,2,0,,,,,,,,,0,0,0,0,0,26,26,26,2,0,2,0,,,,,,,,,,,,,,,,,,,,,,,,,,,,,,,,,,,,,,,,,,,,,,,,,,,,,,,,,,,,,,,,30,,,,,,,,628.670954399975,628.670954399975,628.670954399975,628.670954399975,628.670954399975,left,0.4264527999330312,11,0,0,99,-2.7755575615628914e-17,-0.32,left,0.35095280001405627,,,,,,,,,,,,,,,,,,,,,,,,,,,,,,,,,,,,,,,,,,,,,,,,,,,,,,,,,,,,AP5DJG,train_x,blue_star,bottom_right,2025-06-23_16h21.23.506,HideSeek_v1,2022.2.5,59.93960484086877,
,5,1,2,1,-3,0,31,,train_dim1_1,27,30,,,,2,0,2,0,,,,,,,,,0,0,0,0,0,26,26,26,3,0,3,0,,,,,,,,,,,,,,,,,,,,,,,,,,,,,,,,,,,,,,,,,,,,,,,,,,,,,,,,,,,,,,,,30,,,,,,,,629.1040651999647,629.1040651999647,629.1040651999647,629.1040651999647,629.1040651999647,return,0.5103346999967471,12,0,0,1,-2.7755575615628914e-17,-0.32,return,0.4297958000097424,-2,-70,-2.7755575615628914e-17,-0.32,,,,,,,,,,,,,,,,,,,,,,,,,,,,,,,,,,,,,,,,,,,,,,,,,,,,,,,,AP5DJG,train_x,blue_star,bottom_right,2025-06-23_16h21.23.506,HideSeek_v1,2022.2.5,59.93960484086877,
,8,1,4,1,-4,0,21,,train_dim1_1,28,30,,,,2,0,2,0,,,,,,,,,0,0,0,0,0,27,27,27,0,0,0,0,,,,,,,,,,,,,,,,,,,,,,,,,stimuli/alien_stimuli/21.png,,,,,,,,,,,,,,,,,,,,,,,,,,,,,stimuli/alien_stimuli/31.png,31,5,29,,,,,,,30,,,,,,,,634.2024852000177,634.2024852000177,634.2024852000177,634.2024852000177,634.2024852000177,left,1.1546786000253633,12,0,0,99,0.39999999999999997,-0.32,left,1.0552499999757856,,,,,632.6270172999939,634.2024852000177,0,-0.32,0.0,0.24,-0.32,0,0.12,0,-0.32,631.1817076000152,631.1817076000152,631.1817076000152,631.1817076000152,631.1817076000152,631.1817076000152,631.1817076000152,631.1817076000152,631.1592087000142,1.5531940000364557,return,1.4242020000237972,,,,,,,,,,,,,,,,,,,,,,,,,,,,,,,,,AP5DJG,train_x,blue_star,bottom_right,2025-06-23_16h21.23.506,HideSeek_v1,2022.2.5,59.93960484086877,
,8,1,4,1,-4,0,21,,train_dim1_1,28,30,,,,2,0,2,0,,,,,,,,,0,0,0,0,0,27,27,27,1,0,1,0,,,,,,,,,,,,,,,,,,,,,,,,,,,,,,,,,,,,,,,,,,,,,,,,,,,,,,,,,,,,,,,,30,,,,,,,,635.351543399971,635.351543399971,635.351543399971,635.351543399971,635.351543399971,left,0.372658200096339,12,0,0,99,0.31999999999999995,-0.32,left,0.29258459992706776,,,,,,,,,,,,,,,,,,,,,,,,,,,,,,,,,,,,,,,,,,,,,,,,,,,,,,,,,,,,AP5DJG,train_x,blue_star,bottom_right,2025-06-23_16h21.23.506,HideSeek_v1,2022.2.5,59.93960484086877,
,8,1,4,1,-4,0,21,,train_dim1_1,28,30,,,,2,0,2,0,,,,,,,,,0,0,0,0,0,27,27,27,2,0,2,0,,,,,,,,,,,,,,,,,,,,,,,,,,,,,,,,,,,,,,,,,,,,,,,,,,,,,,,,,,,,,,,,30,,,,,,,,635.7304205999244,635.7304205999244,635.7304205999244,635.7304205999244,635.7304205999244,left,0.42679559998214245,12,0,0,99,0.23999999999999994,-0.32,left,0.3377636999357492,,,,,,,,,,,,,,,,,,,,,,,,,,,,,,,,,,,,,,,,,,,,,,,,,,,,,,,,,,,,AP5DJG,train_x,blue_star,bottom_right,2025-06-23_16h21.23.506,HideSeek_v1,2022.2.5,59.93960484086877,
,8,1,4,1,-4,0,21,,train_dim1_1,28,30,,,,2,0,2,0,,,,,,,,,0,0,0,0,0,27,27,27,3,0,3,0,,,,,,,,,,,,,,,,,,,,,,,,,,,,,,,,,,,,,,,,,,,,,,,,,,,,,,,,,,,,,,,,30,,,,,,,,636.1671422999352,636.1671422999352,636.1671422999352,636.1671422999352,636.1671422999352,right,1.7910448000766337,12,0,0,99,0.31999999999999995,-0.32,right,1.7043232000432909,,,,,,,,,,,,,,,,,,,,,,,,,,,,,,,,,,,,,,,,,,,,,,,,,,,,,,,,,,,,AP5DJG,train_x,blue_star,bottom_right,2025-06-23_16h21.23.506,HideSeek_v1,2022.2.5,59.93960484086877,
,8,1,4,1,-4,0,21,,train_dim1_1,28,30,,,,2,0,2,0,,,,,,,,,0,0,0,0,0,27,27,27,4,0,4,0,,,,,,,,,,,,,,,,,,,,,,,,,,,,,,,,,,,,,,,,,,,,,,,,,,,,,,,,,,,,,,,,30,,,,,,,,637.9669424999738,637.9669424999738,637.9669424999738,637.9669424999738,637.9669424999738,right,0.37618480005767196,12,0,0,99,0.39999999999999997,-0.32,right,0.2874763000290841,,,,,,,,,,,,,,,,,,,,,,,,,,,,,,,,,,,,,,,,,,,,,,,,,,,,,,,,,,,,AP5DJG,train_x,blue_star,bottom_right,2025-06-23_16h21.23.506,HideSeek_v1,2022.2.5,59.93960484086877,
,8,1,4,1,-4,0,21,,train_dim1_1,28,30,,,,2,0,2,0,,,,,,,,,0,0,0,0,0,27,27,27,5,0,5,0,,,,,,,,,,,,,,,,,,,,,,,,,,,,,,,,,,,,,,,,,,,,,,,,,,,,,,,,,,,,,,,,30,,,,,,,,638.3483524000039,638.3483524000039,638.3483524000039,638.3483524000039,638.3483524000039,right,0.41005379997659475,12,0,0,99,0.48,-0.32,right,0.32083569990936667,,,,,,,,,,,,,,,,,,,,,,,,,,,,,,,,,,,,,,,,,,,,,,,,,,,,,,,,,,,,AP5DJG,train_x,blue_star,bottom_right,2025-06-23_16h21.23.506,HideSeek_v1,2022.2.5,59.93960484086877,
,8,1,4,1,-4,0,21,,train_dim1_1,28,30,,,,2,0,2,0,,,,,,,,,0,0,0,0,0,27,27,27,6,0,6,0,,,,,,,,,,,,,,,,,,,,,,,,,,,,,,,,,,,,,,,,,,,,,,,,,,,,,,,,,,,,,,,,30,,,,,,,,638.7659651999129,638.7659651999129,638.7659651999129,638.7659651999129,638.7659651999129,left,0.960338499979116,12,0,0,99,0.39999999999999997,-0.32,left,0.8753754999488592,,,,,,,,,,,,,,,,,,,,,,,,,,,,,,,,,,,,,,,,,,,,,,,,,,,,,,,,,,,,AP5DJG,train_x,blue_star,bottom_right,2025-06-23_16h21.23.506,HideSeek_v1,2022.2.5,59.93960484086877,
,8,1,4,1,-4,0,21,,train_dim1_1,28,30,,,,2,0,2,0,,,,,,,,,0,0,0,0,0,27,27,27,7,0,7,0,,,,,,,,,,,,,,,,,,,,,,,,,,,,,,,,,,,,,,,,,,,,,,,,,,,,,,,,,,,,,,,,30,,,,,,,,639.733147699968,639.733147699968,639.733147699968,639.733147699968,639.733147699968,left,0.492648100014776,12,0,0,99,0.31999999999999995,-0.32,left,0.4167232000036165,,,,,,,,,,,,,,,,,,,,,,,,,,,,,,,,,,,,,,,,,,,,,,,,,,,,,,,,,,,,AP5DJG,train_x,blue_star,bottom_right,2025-06-23_16h21.23.506,HideSeek_v1,2022.2.5,59.93960484086877,
,8,1,4,1,-4,0,21,,train_dim1_1,28,30,,,,2,0,2,0,,,,,,,,,0,0,0,0,0,27,27,27,8,0,8,0,,,,,,,,,,,,,,,,,,,,,,,,,,,,,,,,,,,,,,,,,,,,,,,,,,,,,,,,,,,,,,,,30,,,,,,,,640.2338152999291,640.2338152999291,640.2338152999291,640.2338152999291,640.2338152999291,left,0.5932648000307381,12,0,0,99,0.23999999999999994,-0.32,left,0.5123524999944493,,,,,,,,,,,,,,,,,,,,,,,,,,,,,,,,,,,,,,,,,,,,,,,,,,,,,,,,,,,,AP5DJG,train_x,blue_star,bottom_right,2025-06-23_16h21.23.506,HideSeek_v1,2022.2.5,59.93960484086877,
,8,1,4,1,-4,0,21,,train_dim1_1,28,30,,,,2,0,2,0,,,,,,,,,0,0,0,0,0,27,27,27,9,0,9,0,,,,,,,,,,,,,,,,,,,,,,,,,,,,,,,,,,,,,,,,,,,,,,,,,,,,,,,,,,,,,,,,30,,,,,,,,640.834362499998,640.834362499998,640.834362499998,640.834362499998,640.834362499998,left,0.5599688000511378,12,0,0,99,0.15999999999999992,-0.32,left,0.48294829996302724,,,,,,,,,,,,,,,,,,,,,,,,,,,,,,,,,,,,,,,,,,,,,,,,,,,,,,,,,,,,AP5DJG,train_x,blue_star,bottom_right,2025-06-23_16h21.23.506,HideSeek_v1,2022.2.5,59.93960484086877,
,8,1,4,1,-4,0,21,,train_dim1_1,28,30,,,,2,0,2,0,,,,,,,,,0,0,0,0,0,27,27,27,10,0,10,0,,,,,,,,,,,,,,,,,,,,,,,,,,,,,,,,,,,,,,,,,,,,,,,,,,,,,,,,,,,,,,,,30,,,,,,,,641.4009884999832,641.4009884999832,641.4009884999832,641.4009884999832,641.4009884999832,return,0.8103562000906095,13,0,0,1,0.15999999999999992,-0.32,return,0.7227169999387115,-2,-74,0.15999999999999992,-0.32,,,,,,,,,,,,,,,,,,,,,,,,,,,,,,,,,,,,,,,,,,,,,,,,,,,,,,,,AP5DJG,train_x,blue_star,bottom_right,2025-06-23_16h21.23.506,HideSeek_v1,2022.2.5,59.93960484086877,
,9,0,8,0,-1,0,51,,train_dim1_1,29,30,,,,2,0,2,0,,,,,,,,,0,0,0,0,0,28,28,28,0,0,0,0,,,,,,,,,,,,,,,,,,,,,,,,,stimuli/alien_stimuli/51.png,,,,,,,,,,,,,,,,,,,,,,,,,,,,,stimuli/alien_stimuli/21.png,21,8,30,,,,,,,30,,,,,,,,647.6150621999986,647.6150621999986,647.6150621999986,647.6150621999986,647.6150621999986,left,2.572495299973525,13,0,0,99,0.48000000000000004,-0.4,left,2.4766241000033915,,,,,646.038083899999,647.6150621999986,0.16,-0.32,0.0,0.32,-0.32,0.16,0.32,0.16,-0.32,643.7919324999675,643.7919324999675,643.7919324999675,643.7919324999675,643.7919324999675,643.7919324999675,643.7919324999675,643.7919324999675,643.785905800038,2.3708785999333486,return,2.2149740000022575,,,,,,,,,,,,,,,,,,,,,,,,,,,,,,,,,AP5DJG,train_x,blue_star,bottom_right,2025-06-23_16h21.23.506,HideSeek_v1,2022.2.5,59.93960484086877,
,9,0,8,0,-1,0,51,,train_dim1_1,29,30,,,,2,0,2,0,,,,,,,,,0,0,0,0,0,28,28,28,1,0,1,0,,,,,,,,,,,,,,,,,,,,,,,,,,,,,,,,,,,,,,,,,,,,,,,,,,,,,,,,,,,,,,,,30,,,,,,,,650.1777382999426,650.1777382999426,650.1777382999426,650.1777382999426,650.1777382999426,return,0.49073050008155406,14,0,0,1,0.48000000000000004,-0.4,return,0.4132852000184357,-2,-75,0.48000000000000004,-0.4,,,,,,,,,,,,,,,,,,,,,,,,,,,,,,,,,,,,,,,,,,,,,,,,,,,,,,,,AP5DJG,train_x,blue_star,bottom_right,2025-06-23_16h21.23.506,HideSeek_v1,2022.2.5,59.93960484086877,
,7,2,2,2,-5,0,11,,train_dim1_1,30,30,,,,2,0,2,0,,,,,,,,,0,0,0,0,0,29,29,29,0,0,0,0,,,,,,,,,,,,,,,,,,,,,,,,,stimuli/alien_stimuli/11.png,,,,,,,,,,,,,,,,,,,,,,,,,,,,,stimuli/alien_stimuli/51.png,51,9,31,,,,,,,30,,,,,,,,654.9205322000198,654.9205322000198,654.9205322000198,654.9205322000198,654.9205322000198,left,1.2045115999644622,14,0,0,99,0.32,-0.24,left,1.1081927999621257,,,,,653.3441510000266,654.9205322000198,0.48,-0.4,0.0,0.08,-0.4,0.48,0.52,0.48,-0.4,652.2380212999415,652.2380212999415,652.2380212999415,652.2380212999415,652.2380212999415,652.2380212999415,652.2380212999415,652.2380212999415,652.2266385999624,1.2196324999677017,return,1.0855662999674678,,,,,,,,,,,,,,,,,,,,,,,,,,,,,,,,,AP5DJG,train_x,blue_star,bottom_right,2025-06-23_16h21.23.506,HideSeek_v1,2022.2.5,59.93960484086877,
,7,2,2,2,-5,0,11,,train_dim1_1,30,30,,,,2,0,2,0,,,,,,,,,0,0,0,0,0,29,29,29,1,0,1,0,,,,,,,,,,,,,,,,,,,,,,,,,,,,,,,,,,,,,,,,,,,,,,,,,,,,,,,,,,,,,,,,30,,,,,,,,656.1148911999771,656.1148911999771,656.1148911999771,656.1148911999771,656.1148911999771,left,0.3589147999882698,14,0,0,99,0.24,-0.24,left,0.26668270002119243,,,,,,,,,,,,,,,,,,,,,,,,,,,,,,,,,,,,,,,,,,,,,,,,,,,,,,,,,,,,AP5DJG,train_x,blue_star,bottom_right,2025-06-23_16h21.23.506,HideSeek_v1,2022.2.5,59.93960484086877,
,7,2,2,2,-5,0,11,,train_dim1_1,30,30,,,,2,0,2,0,,,,,,,,,0,0,0,0,0,29,29,29,2,0,2,0,,,,,,,,,,,,,,,,,,,,,,,,,,,,,,,,,,,,,,,,,,,,,,,,,,,,,,,,,,,,,,,,30,,,,,,,,656.4802679999266,656.4802679999266,656.4802679999266,656.4802679999266,656.4802679999266,left,0.3934913999401033,14,0,0,99,0.15999999999999998,-0.24,left,0.3068286000052467,,,,,,,,,,,,,,,,,,,,,,,,,,,,,,,,,,,,,,,,,,,,,,,,,,,,,,,,,,,,AP5DJG,train_x,blue_star,bottom_right,2025-06-23_16h21.23.506,HideSeek_v1,2022.2.5,59.93960484086877,
,7,2,2,2,-5,0,11,,train_dim1_1,30,30,,,,2,0,2,0,,,,,,,,,0,0,0,0,0,29,29,29,3,0,3,0,,,,,,,,,,,,,,,,,,,,,,,,,,,,,,,,,,,,,,,,,,,,,,,,,,,,,,,,,,,,,,,,30,,,,,,,,656.8808697999921,656.8808697999921,656.8808697999921,656.8808697999921,656.8808697999921,left,0.8267504000104964,14,0,0,99,0.07999999999999997,-0.24,left,0.7479007999645546,,,,,,,,,,,,,,,,,,,,,,,,,,,,,,,,,,,,,,,,,,,,,,,,,,,,,,,,,,,,AP5DJG,train_x,blue_star,bottom_right,2025-06-23_16h21.23.506,HideSeek_v1,2022.2.5,59.93960484086877,
,7,2,2,2,-5,0,11,,train_dim1_1,30,30,,,,2,0,2,0,,,,,,,,,0,0,0,0,0,29,29,29,4,0,4,0,,,,,,,,,,,,,,,,,,,,,,,,,,,,,,,,,,,,,,,,,,,,,,,,,,,,,,,,,,,,,,,,30,,,,,,,,657.7146672999952,657.7146672999952,657.7146672999952,657.7146672999952,657.7146672999952,left,0.42676979990210384,14,0,0,99,-2.7755575615628914e-17,-0.24,left,0.33658040000591427,,,,,,,,,,,,,,,,,,,,,,,,,,,,,,,,,,,,,,,,,,,,,,,,,,,,,,,,,,,,AP5DJG,train_x,blue_star,bottom_right,2025-06-23_16h21.23.506,HideSeek_v1,2022.2.5,59.93960484086877,
,7,2,2,2,-5,0,11,,train_dim1_1,30,30,,,,2,0,2,0,,,,,,,,,0,0,0,0,0,29,29,29,5,0,5,0,,,,,,,,,,,,,,,,,,,,,,,,,,,,,,,,,,,,,,,,,,,,,,,,,,,,,,,,,,,,,,,,30,,,,,,,,658.1494175000116,658.1494175000116,658.1494175000116,658.1494175000116,658.1494175000116,return,0.3922875999705866,15,0,0,1,-2.7755575615628914e-17,-0.24,return,0.304132999968715,-2,-80,-2.7755575615628914e-17,-0.24,,,,,,,,,,,,,,,,,,,,,,,,,,,,,,,,,,,,,,,,,,,,,,,,,,,,,,,,AP5DJG,train_x,blue_star,bottom_right,2025-06-23_16h21.23.506,HideSeek_v1,2022.2.5,59.93960484086877,
,,,,,,,,,,,30,,,,2,0,2,0,,,,,,,,,,,,,,,,,,,,,,,,,,,,,,,,,,,,,,,,,,,,,,,,,,,,,,,,,,,,,,,,,,,,,,,,,,stimuli/alien_stimuli/11.png,11,7,32,21,0.7,0.625,1,1,1,30,0,conditions/schedules/train_x_first/blue_star_00/bottom_right/inputTrain_2.1.xlsx,99,1,2,1,0,,,,,,,,,,,1,,,,,,,,,661.3007894000039,662.8627251000144,0,-0.24,0.0,0.4,-0.24,0,0.2,0,-0.24,660.1078112999676,660.1078112999676,660.1078112999676,660.1078112999676,660.1078112999676,660.1078112999676,660.1078112999676,660.1078112999676,660.09983159994,1.3032352000009269,return,1.172034699935466,0,0.9,0,1,15,,,,,,,,,,,,,,,,,,,,,,,,,,,,AP5DJG,train_x,blue_star,bottom_right,2025-06-23_16h21.23.506,HideSeek_v1,2022.2.5,59.93960484086877,
,,,,,,,,,,,,,,,3,0,3,0,0,0,0,0,,,,,,,,,,,,,,,,,,,,,,,,,,,,,,,conditions/schedules/train_x_first/blue_star_00/bottom_right/instructions/Slide17.png,conditions/schedules/train_x_first/blue_star_00/bottom_right/instructions/Audio17.wav,662.8627251000144,662.8521893999306,17,"[10.774241599952802, 17.647570699919015, 16.362287000054494, 19.01850010000635, 4.253028800012544, 4.735405700048432, 4.852304400061257, 11.30457449995447, 5.535605800105259, 6.716676100040786, 9.351275600027293, 12.302358800079674, 16.79994459997397, 12.743469400098547, 30.73450410005171, 21.258879099972546, 11.731373999966308]","[0.00021730002481490374, 17.647577799973078, 16.36229370010551, 0.0002098999684676528, 0.03154480003286153, 0.0479379000607878, 0.06331070000305772, 0.03093910007737577, 0.04565420001745224, 0.014157900004647672, 0.03146209998521954, 12.302365400013514, 0.033033300074748695, 12.743477100040764, 0.03700609994120896, 21.258887400035746, 11.731382500031032]",0,,,,,,,,,,,,,,,,,,,,,,,,,,,,,,,,,,,,,,,,,,,,,,,,,,,,,,,,,,,,,,,,,,,,,,,,,,,,,,,,,,,,,,,,,,,,,,,,,,,,,,,,,,,,,,,,,,,,,,,,,,,,AP5DJG,train_x,blue_star,bottom_right,2025-06-23_16h21.23.506,HideSeek_v1,2022.2.5,59.93960484086877,
,,,,,,,,,,,,,,,3,0,3,0,1,0,1,0,,,,,,,,,,,,,,,,,,,,,,,,,,,,,,,conditions/schedules/train_x_first/blue_star_00/bottom_right/instructions/Slide18.png,conditions/schedules/train_x_first/blue_star_00/bottom_right/instructions/Audio18.wav,674.6654584999196,674.6618357999832,18,"[10.774241599952802, 17.647570699919015, 16.362287000054494, 19.01850010000635, 4.253028800012544, 4.735405700048432, 4.852304400061257, 11.30457449995447, 5.535605800105259, 6.716676100040786, 9.351275600027293, 12.302358800079674, 16.79994459997397, 12.743469400098547, 30.73450410005171, 21.258879099972546, 11.731373999966308, 7.2669474999420345]","[0.00021730002481490374, 17.647577799973078, 16.36229370010551, 0.0002098999684676528, 0.03154480003286153, 0.0479379000607878, 0.06331070000305772, 0.03093910007737577, 0.04565420001745224, 0.014157900004647672, 0.03146209998521954, 12.302365400013514, 0.033033300074748695, 12.743477100040764, 0.03700609994120896, 21.258887400035746, 0.00022389995865523815, 7.266955099999905]",0,,,,,,,,,,,,,,,,,,,,,,,,,,,,,,,,,,,,,,,,,,,,,,,,,,,,,,,,,,,,,,,,,,,,,,,,,,,,,,,,,,,,,,,,,,,,,,,,,,,,,,,,,,,,,,,,,,,,,,,,,,,,AP5DJG,train_x,blue_star,bottom_right,2025-06-23_16h21.23.506,HideSeek_v1,2022.2.5,59.93960484086877,
,,,,,,,,,,,,,,,3,0,3,0,2,0,2,0,,,,,,,,,,,,,,,,,,,,,,,,,,,,,,,conditions/schedules/train_x_first/blue_star_00/bottom_right/instructions/Slide19.png,conditions/schedules/train_x_first/blue_star_00/bottom_right/instructions/Audio19.wav,681.9721364999423,681.9680545999785,19,"[10.774241599952802, 17.647570699919015, 16.362287000054494, 19.01850010000635, 4.253028800012544, 4.735405700048432, 4.852304400061257, 11.30457449995447, 5.535605800105259, 6.716676100040786, 9.351275600027293, 12.302358800079674, 16.79994459997397, 12.743469400098547, 30.73450410005171, 21.258879099972546, 11.731373999966308, 7.2669474999420345, 18.025136800017208]","[0.00021730002481490374, 17.647577799973078, 16.36229370010551, 0.0002098999684676528, 0.03154480003286153, 0.0479379000607878, 0.06331070000305772, 0.03093910007737577, 0.04565420001745224, 0.014157900004647672, 0.03146209998521954, 12.302365400013514, 0.033033300074748695, 12.743477100040764, 0.03700609994120896, 21.258887400035746, 0.00022389995865523815, 0.046555600012652576, 18.025142699945718]",0,,,,,,,,,,,,,,,,,,,,,,,,,,,,,,,,,,,,,,,,,,,,,,,,,,,,,,,,,,,,,,,,,,,,,,,,,,,,,,,,,,,,,,,,,,,,,,,,,,,,,,,,,,,,,,,,,,,,,,,,,,,,AP5DJG,train_x,blue_star,bottom_right,2025-06-23_16h21.23.506,HideSeek_v1,2022.2.5,59.93960484086877,
,,,,,,,,,,,,,,,3,0,3,0,3,0,3,0,,,,,,,,,,,,,,,,,,,,,,,,,,,,,,,conditions/schedules/train_x_first/blue_star_00/bottom_right/instructions/Slide20.png,conditions/schedules/train_x_first/blue_star_00/bottom_right/instructions/Audio20.wav,700.0696067999816,700.0668980000191,20,"[10.774241599952802, 17.647570699919015, 16.362287000054494, 19.01850010000635, 4.253028800012544, 4.735405700048432, 4.852304400061257, 11.30457449995447, 5.535605800105259, 6.716676100040786, 9.351275600027293, 12.302358800079674, 16.79994459997397, 12.743469400098547, 30.73450410005171, 21.258879099972546, 11.731373999966308, 7.2669474999420345, 18.025136800017208, 13.68866980005987]","[0.00021730002481490374, 17.647577799973078, 16.36229370010551, 0.0002098999684676528, 0.03154480003286153, 0.0479379000607878, 0.06331070000305772, 0.03093910007737577, 0.04565420001745224, 0.014157900004647672, 0.03146209998521954, 12.302365400013514, 0.033033300074748695, 12.743477100040764, 0.03700609994120896, 21.258887400035746, 0.00022389995865523815, 0.046555600012652576, 0.00021490000654011965, 13.688676799996756]",0,,,,,,,,,,,,,,,,,,,,,,,,,,,,,,,,,,,,,,,,,,,,,,,,,,,,,,,,,,,,,,,,,,,,,,,,,,,,,,,,,,,,,,,,,,,,,,,,,,,,,,,,,,,,,,,,,,,,,,,,,,,,AP5DJG,train_x,blue_star,bottom_right,2025-06-23_16h21.23.506,HideSeek_v1,2022.2.5,59.93960484086877,
