trialInstr,x_fixStart,y_fixStart,x_corrSteps,y_corrSteps,x_nrSteps,y_nrSteps,alienID,trialLength,version,trialTrain,praclen,testlen,trial_label,break_on_off,beforeExpLoop.thisRepN,beforeExpLoop.thisTrialN,beforeExpLoop.thisN,beforeExpLoop.thisIndex,mini_instr_trials.thisRepN,mini_instr_trials.thisTrialN,mini_instr_trials.thisN,mini_instr_trials.thisIndex,instrLoop.thisRepN,instrLoop.thisTrialN,instrLoop.thisN,instrLoop.thisIndex,repeat_prac.thisRepN,repeat_prac.thisTrialN,repeat_prac.thisN,repeat_prac.thisIndex,trainLoop.thisRepN,trainLoop.thisTrialN,trainLoop.thisN,trainLoop.thisIndex,moveLoop_train.thisRepN,moveLoop_train.thisTrialN,moveLoop_train.thisN,moveLoop_train.thisIndex,experiment.thisRepN,experiment.thisTrialN,experiment.thisN,experiment.thisIndex,moveLoop_test.thisRepN,moveLoop_test.thisTrialN,moveLoop_test.thisN,moveLoop_test.thisIndex,mini_instr2_trials.thisRepN,mini_instr2_trials.thisTrialN,mini_instr2_trials.thisN,mini_instr2_trials.thisIndex,start_all_time,url,slideStim,audioStim,slides.started,sounds.started,nextButton.numClicks,nextButton.timesOn,nextButton.timesOff,prev_but.numClicks,prev_but.timesOn,prev_but.timesOff,alienStim,instrFile,alienStim_instr,gridImage_instr.started,startPos_3.started,key_instr.started,alienImage_3.started,sounds_1.started,key_instr.keys,key_instr.rt,all_x,all_y,FBy_corrSteps,FBy_fixStart,FBx_corrSteps,FBx_fixStart,FBy_pathSize_check,FBx_pathSize_check,gridImage_9.started,alienImageFB_3.started,startPosFB_3.started,keyFB_3.started,pathLine_ydir_2.started,pathLine_xdir_2.started,alienFace_3.started,sounds_2.started,RTFB_instr,keyFB_3.keys,keyFB_3.rt,draw_alienStim,draw_alienID,test_x,nrepcount,perfthres,percthres,earlierperf,earlystop,nextPrac,fileidx,praclen,saveACC_train,pracFile,nextPrac_train,addNrep,fileidx_endr,repExp,showearly,gridImage_4.started,startPos.started,movePos.started,key_resp.started,alienImage.started,buttonPress_train,RTchoice_train,cumAcctrain,aCorr,saveACC_choice,corrAns,x_movePos_end,y_movePos_end,key_resp.keys,key_resp.rt,wLy_dir,wLx_dir,x_movePos,y_movePos,text_2.started,text_2.stopped,aft_x_corrPos,aft_y_corrPos,y_pathSize_check,x_pathSize_check,y_pathdirY,x_pathdirY,x_pathdirX,x_corrPos,y_corrPos,gridImage_6.started,alienImageFB_2.started,startPosFB_2.started,movePosFB_2.started,keyFB_2.started,pathLine_xdir.started,pathLine_ydir.started,alienFace.started,sounds_4.started,RT_FBtrain,keyFB_2.keys,keyFB_2.rt,saveACC_pre,ACC,within_saveACC_train,earlystop_wloop,cumAcctrain_check,gridImage_3.started,alienImage_test.started,startPos_test.started,movePos_test.started,key_resp_test.started,wLy_dir_test,wLx_dir_test,buttonPress_test,RTchoice_test,cumAcctest,corrAns_test,key_resp_test.keys,key_resp_test.rt,text_3.started,text_3.stopped,total_time,end_all_time,key_resp_3.keys,slides_2.started,sounds_3.started,nextButton_2.numClicks,nextButton_2.timesOn,nextButton_2.timesOff,prev_but_2.numClicks,prev_but_2.timesOn,prev_but_2.timesOff,bye.started,participant,train_first,00_coordinate,starting corner,date,expName,psychopyVersion,frameRate,
,,,,,,,,,,,,,,,0,0,0,0,0,0,0,0,,,,,,,,,,,,,,,,,,,,,,,,,,,,,start_all_time,testround,conditions/schedules/train_y_first/blue_star_00/bottom_right/instructions/Slide1.png,conditions/schedules/train_y_first/blue_star_00/bottom_right/instructions/Audio1.wav,740.446224699961,740.3816219601315,1,[3.253175999969244],[3.2531830000225455],0,,,,,,,,,,,,,,,,,,,,,,,,,,,,,,,,,,,,,,,,,,,,,,,,,,,,,,,,,,,,,,,,,,,,,,,,,,,,,,,,,,,,,,,,,,,,,,,,,,,,,,,,,,,,,,,,,,,,,,,,,,,,ATJF2G,train_y,blue_star,bottom_right,2025-03-15_13h02.40.869,HideSeek_v1,2022.2.5,59.95096010413987,
,,,,,,,,,,,,,,,0,0,0,0,1,0,1,0,,,,,,,,,,,,,,,,,,,,,,,,,,,,,,,conditions/schedules/train_y_first/blue_star_00/bottom_right/instructions/Slide2.png,conditions/schedules/train_y_first/blue_star_00/bottom_right/instructions/Audio2.wav,743.7121646999149,743.700251520006,2,"[3.253175999969244, 18.767902299994603]","[0.014444999978877604, 18.76790900004562]",0,,,,,,,,,,,,,,,,,,,,,,,,,,,,,,,,,,,,,,,,,,,,,,,,,,,,,,,,,,,,,,,,,,,,,,,,,,,,,,,,,,,,,,,,,,,,,,,,,,,,,,,,,,,,,,,,,,,,,,,,,,,,ATJF2G,train_y,blue_star,bottom_right,2025-03-15_13h02.40.869,HideSeek_v1,2022.2.5,59.95096010413987,
,,,,,,,,,,,,,,,0,0,0,0,2,0,2,0,,,,,,,,,,,,,,,,,,,,,,,,,,,,,,,conditions/schedules/train_y_first/blue_star_00/bottom_right/instructions/Slide3.png,conditions/schedules/train_y_first/blue_star_00/bottom_right/instructions/Audio3.wav,762.5500275999075,762.5488541999366,3,"[3.253175999969244, 18.767902299994603, 16.460681000025943]","[0.014444999978877604, 0.014341800007969141, 16.46068799996283]",0,,,,,,,,,,,,,,,,,,,,,,,,,,,,,,,,,,,,,,,,,,,,,,,,,,,,,,,,,,,,,,,,,,,,,,,,,,,,,,,,,,,,,,,,,,,,,,,,,,,,,,,,,,,,,,,,,,,,,,,,,,,,ATJF2G,train_y,blue_star,bottom_right,2025-03-15_13h02.40.869,HideSeek_v1,2022.2.5,59.95096010413987,
,,,,,,,,,,,,,,,0,0,0,0,3,0,3,0,,,,,,,,,,,,,,,,,,,,,,,,,,,,,,,conditions/schedules/train_y_first/blue_star_00/bottom_right/instructions/Slide4.png,conditions/schedules/train_y_first/blue_star_00/bottom_right/instructions/Audio4.wav,779.0903613999253,779.0797109999694,4,"[3.253175999969244, 18.767902299994603, 16.460681000025943, 19.3362322000321]","[0.014444999978877604, 0.014341800007969141, 0.0704635001020506, 19.336238800082356]",0,,,,,,,,,,,,,,,,,,,,,,,,,,,,,,,,,,,,,,,,,,,,,,,,,,,,,,,,,,,,,,,,,,,,,,,,,,,,,,,,,,,,,,,,,,,,,,,,,,,,,,,,,,,,,,,,,,,,,,,,,,,,ATJF2G,train_y,blue_star,bottom_right,2025-03-15_13h02.40.869,HideSeek_v1,2022.2.5,59.95096010413987,
,,,,,,,,,,,,,,,0,0,0,0,4,0,4,0,,,,,,,,,,,,,,,,,,,,,,,,,,,,,,,conditions/schedules/train_y_first/blue_star_00/bottom_right/instructions/Slide5.png,conditions/schedules/train_y_first/blue_star_00/bottom_right/instructions/Audio5.wav,798.4972584999632,798.495471799979,5,"[3.253175999969244, 18.767902299994603, 16.460681000025943, 19.3362322000321, 4.766160700004548]","[0.014444999978877604, 0.014341800007969141, 0.0704635001020506, 0.04648629995062947, 4.766167499939911]",0,,,,,,,,,,,,,,,,,,,,,,,,,,,,,,,,,,,,,,,,,,,,,,,,,,,,,,,,,,,,,,,,,,,,,,,,,,,,,,,,,,,,,,,,,,,,,,,,,,,,,,,,,,,,,,,,,,,,,,,,,,,,ATJF2G,train_y,blue_star,bottom_right,2025-03-15_13h02.40.869,HideSeek_v1,2022.2.5,59.95096010413987,
,,,,,,,,,,,,,,,0,0,0,0,5,0,5,0,,,,,,,,,,,,,,,,,,,,,,,,,,,,,,,conditions/schedules/train_y_first/blue_star_00/bottom_right/instructions/Slide6.png,conditions/schedules/train_y_first/blue_star_00/bottom_right/instructions/Audio6.wav,803.3145605999744,803.3159113200148,6,"[3.253175999969244, 18.767902299994603, 16.460681000025943, 19.3362322000321, 4.766160700004548, 4.519508800003678]","[0.014444999978877604, 0.014341800007969141, 0.0704635001020506, 0.04648629995062947, 0.06566530000418425, 4.519515099935234]",0,,,,,,,,,,,,,,,,,,,,,,,,,,,,,,,,,,,,,,,,,,,,,,,,,,,,,,,,,,,,,,,,,,,,,,,,,,,,,,,,,,,,,,,,,,,,,,,,,,,,,,,,,,,,,,,,,,,,,,,,,,,,ATJF2G,train_y,blue_star,bottom_right,2025-03-15_13h02.40.869,HideSeek_v1,2022.2.5,59.95096010413987,
,,,,,,,,,,,,,,,0,0,0,0,6,0,6,0,,,,,,,,,,,,,,,,,,,,,,,,,,,,,,,conditions/schedules/train_y_first/blue_star_00/bottom_right/instructions/Slide7.png,conditions/schedules/train_y_first/blue_star_00/bottom_right/instructions/Audio7.wav,807.8877434999449,807.8866803199984,7,"[3.253175999969244, 18.767902299994603, 16.460681000025943, 19.3362322000321, 4.766160700004548, 4.519508800003678, 5.167622599983588]","[0.014444999978877604, 0.014341800007969141, 0.0704635001020506, 0.04648629995062947, 0.06566530000418425, 0.08024339994881302, 5.167629900039174]",0,,,,,,,,,,,,,,,,,,,,,,,,,,,,,,,,,,,,,,,,,,,,,,,,,,,,,,,,,,,,,,,,,,,,,,,,,,,,,,,,,,,,,,,,,,,,,,,,,,,,,,,,,,,,,,,,,,,,,,,,,,,,ATJF2G,train_y,blue_star,bottom_right,2025-03-15_13h02.40.869,HideSeek_v1,2022.2.5,59.95096010413987,
,,,,,,,,,,,,,,,0,0,0,0,7,0,7,0,,,,,,,,,,,,,,,,,,,,,,,,,,,,,,,conditions/schedules/train_y_first/blue_star_00/bottom_right/instructions/Slide8.png,conditions/schedules/train_y_first/blue_star_00/bottom_right/instructions/Audio8.wav,813.1090427999152,813.107493319991,8,"[3.253175999969244, 18.767902299994603, 16.460681000025943, 19.3362322000321, 4.766160700004548, 4.519508800003678, 5.167622599983588, 11.772000500001013]","[0.014444999978877604, 0.014341800007969141, 0.0704635001020506, 0.04648629995062947, 0.06566530000418425, 0.08024339994881302, 0.06315099995117635, 11.772006699931808]",0,,,,,,,,,,,,,,,,,,,,,,,,,,,,,,,,,,,,,,,,,,,,,,,,,,,,,,,,,,,,,,,,,,,,,,,,,,,,,,,,,,,,,,,,,,,,,,,,,,,,,,,,,,,,,,,,,,,,,,,,,,,,ATJF2G,train_y,blue_star,bottom_right,2025-03-15_13h02.40.869,HideSeek_v1,2022.2.5,59.95096010413987,
,,,,,,,,,,,,,,,0,0,0,0,8,0,8,0,,,,,,,,,,,,,,,,,,,,,,,,,,,,,,,conditions/schedules/train_y_first/blue_star_00/bottom_right/instructions/Slide9.png,conditions/schedules/train_y_first/blue_star_00/bottom_right/instructions/Audio9.wav,824.9532220999245,824.9501242999686,9,"[3.253175999969244, 18.767902299994603, 16.460681000025943, 19.3362322000321, 4.766160700004548, 4.519508800003678, 5.167622599983588, 11.772000500001013, 6.767201500013471]","[0.014444999978877604, 0.014341800007969141, 0.0704635001020506, 0.04648629995062947, 0.06566530000418425, 0.08024339994881302, 0.06315099995117635, 0.03040389996021986, 6.767208499950357]",0,,,,,,,,,,,,,,,,,,,,,,,,,,,,,,,,,,,,,,,,,,,,,,,,,,,,,,,,,,,,,,,,,,,,,,,,,,,,,,,,,,,,,,,,,,,,,,,,,,,,,,,,,,,,,,,,,,,,,,,,,,,,ATJF2G,train_y,blue_star,bottom_right,2025-03-15_13h02.40.869,HideSeek_v1,2022.2.5,59.95096010413987,
,,,,,,,,,,,,,,,0,0,0,0,9,0,9,0,,,,,,,,,,,,,,,,,,,,,,,,,,,,,,,conditions/schedules/train_y_first/blue_star_00/bottom_right/instructions/Slide10.png,conditions/schedules/train_y_first/blue_star_00/bottom_right/instructions/Audio10.wav,831.7584236999974,831.7562961399789,10,"[3.253175999969244, 18.767902299994603, 16.460681000025943, 19.3362322000321, 4.766160700004548, 4.519508800003678, 5.167622599983588, 11.772000500001013, 6.767201500013471, 20.82918390003033]","[0.014444999978877604, 0.014341800007969141, 0.0704635001020506, 0.04648629995062947, 0.06566530000418425, 0.08024339994881302, 0.06315099995117635, 0.03040389996021986, 0.11238730000331998, 20.829190300079063]",0,,,,,,,,,,,,,,,,,,,,,,,,,,,,,,,,,,,,,,,,,,,,,,,,,,,,,,,,,,,,,,,,,,,,,,,,,,,,,,,,,,,,,,,,,,,,,,,,,,,,,,,,,,,,,,,,,,,,,,,,,,,,ATJF2G,train_y,blue_star,bottom_right,2025-03-15_13h02.40.869,HideSeek_v1,2022.2.5,59.95096010413987,
,,,,,,,,,,,,,,,0,0,0,0,10,0,10,0,,,,,,,,,,,,,,,,,,,,,,,,,,,,,,,conditions/schedules/train_y_first/blue_star_00/bottom_right/instructions/Slide11.png,conditions/schedules/train_y_first/blue_star_00/bottom_right/instructions/Audio11.wav,852.6461078999564,852.640273620002,11,"[3.253175999969244, 18.767902299994603, 16.460681000025943, 19.3362322000321, 4.766160700004548, 4.519508800003678, 5.167622599983588, 11.772000500001013, 6.767201500013471, 20.82918390003033, 10.333779799984768]","[0.014444999978877604, 0.014341800007969141, 0.0704635001020506, 0.04648629995062947, 0.06566530000418425, 0.08024339994881302, 0.06315099995117635, 0.03040389996021986, 0.11238730000331998, 0.04739770002197474, 10.333786000031978]",0,,,,,,,,,,,,,,,,,,,,,,,,,,,,,,,,,,,,,,,,,,,,,,,,,,,,,,,,,,,,,,,,,,,,,,,,,,,,,,,,,,,,,,,,,,,,,,,,,,,,,,,,,,,,,,,,,,,,,,,,,,,,ATJF2G,train_y,blue_star,bottom_right,2025-03-15_13h02.40.869,HideSeek_v1,2022.2.5,59.95096010413987,
,,,,,,,,,,,,,,,0,0,0,0,11,0,11,0,,,,,,,,,,,,,,,,,,,,,,,,,,,,,,,conditions/schedules/train_y_first/blue_star_00/bottom_right/instructions/Slide12.png,conditions/schedules/train_y_first/blue_star_00/bottom_right/instructions/Audio12.wav,863.0492878999794,863.0490226999391,12,"[3.253175999969244, 18.767902299994603, 16.460681000025943, 19.3362322000321, 4.766160700004548, 4.519508800003678, 5.167622599983588, 11.772000500001013, 6.767201500013471, 20.82918390003033, 10.333779799984768, 14.092762600048445]","[0.014444999978877604, 0.014341800007969141, 0.0704635001020506, 0.04648629995062947, 0.06566530000418425, 0.08024339994881302, 0.06315099995117635, 0.03040389996021986, 0.11238730000331998, 0.04739770002197474, 0.03129030007403344, 14.092769099981524]",0,,,,,,,,,,,,,,,,,,,,,,,,,,,,,,,,,,,,,,,,,,,,,,,,,,,,,,,,,,,,,,,,,,,,,,,,,,,,,,,,,,,,,,,,,,,,,,,,,,,,,,,,,,,,,,,,,,,,,,,,,,,,ATJF2G,train_y,blue_star,bottom_right,2025-03-15_13h02.40.869,HideSeek_v1,2022.2.5,59.95096010413987,
1,5,3,5,8,0,5,66,2,instr_dim1_1,,,,,,0,0,0,0,,,,,0,0,0,0,,,,,,,,,,,,,,,,,,,,,,,,,,,,,,,,,,,,,stimuli/alien_stimuli/66.png,conditions/schedules/train_y_first/blue_star_00/bottom_right/inputInstr_1.xlsx,stimuli/alien_stimuli/66.png,877.2433423999464,877.2433423999464,877.2433423999464,877.2433423999464,877.2440022599651,return,10.848650700063445,"[-0.16, -0.08, 0, 0.08, 0.16, 0.24, 0.32, 0.4, 0.48, 0.56]","[-0.4, -0.32, -0.24, -0.16, -0.08, 0, 0.08, 0.16, 0.24, 0.32]",8,3,5,5,0.4,0.0,888.2510413000127,888.2510413000127,888.2510413000127,888.2510413000127,888.2510413000127,888.2510413000127,888.2510413000127,888.2363889399684,8.708188999909908,return,8.5452273999108,stimuli/alien_stimuli/66.png,66,5,1,,,,,,,,,,,,,,,,,,,,,,,,,,,,,,,,,,,,,,,,,,,,,,,,,,,,,,,,,,,,,,,,,,,,,,,,,,,,,,,,,,,,,,,,,ATJF2G,train_y,blue_star,bottom_right,2025-03-15_13h02.40.869,HideSeek_v1,2022.2.5,59.95096010413987,
,,,,,,,,,,,30,,,,0,0,0,0,,,,,,,,,,,,,,,,,,,,,,,,,,,,,,,,,,,,,,,,,,,,,,,,,,,,,,,,,,,,,,,,,,,,,,,,,,,,,,21,0.7,0,0,99,1,30,0,conditions/schedules/train_y_first/blue_star_00/bottom_right/inputTrain_1.1.xlsx,99,1,1,1,0,,,,,,,,,,,,,,,,,,,,,,,,,,,,,,,,,,,,,,,,,,,,,,,,,,,,,,,,,,,,,,,,,,,,,,,,,,,ATJF2G,train_y,blue_star,bottom_right,2025-03-15_13h02.40.869,HideSeek_v1,2022.2.5,59.95096010413987,
,,,,,,,,,,,,,,,1,0,1,0,0,0,0,0,,,,,,,,,,,,,,,,,,,,,,,,,,,,,,,conditions/schedules/train_y_first/blue_star_00/bottom_right/instructions/Slide13.png,conditions/schedules/train_y_first/blue_star_00/bottom_right/instructions/Audio13.wav,896.9581987999845,896.9601951199351,13,"[3.253175999969244, 18.767902299994603, 16.460681000025943, 19.3362322000321, 4.766160700004548, 4.519508800003678, 5.167622599983588, 11.772000500001013, 6.767201500013471, 20.82918390003033, 10.333779799984768, 14.092762600048445, 18.23129849997349]","[0.014444999978877604, 0.014341800007969141, 0.0704635001020506, 0.04648629995062947, 0.06566530000418425, 0.08024339994881302, 0.06315099995117635, 0.03040389996021986, 0.11238730000331998, 0.04739770002197474, 0.03129030007403344, 14.092769099981524, 18.231312999967486]",0,,,,,,,,,,,,,,,,,,,,,,,,,,,,,,,,,,,,,,,,,,,,,,,,,,,,,,,,,,,,,,,,,,,,,,,,,,,,,,,,,,,,,,,,,,,,,,,,,,,,,,,,,,,,,,,,,,,,,,,,,,,,ATJF2G,train_y,blue_star,bottom_right,2025-03-15_13h02.40.869,HideSeek_v1,2022.2.5,59.95096010413987,
,,,,,,,,,,,,,,,1,0,1,0,1,0,1,0,,,,,,,,,,,,,,,,,,,,,,,,,,,,,,,conditions/schedules/train_y_first/blue_star_00/bottom_right/instructions/Slide14.png,conditions/schedules/train_y_first/blue_star_00/bottom_right/instructions/Audio14.wav,915.2572224999312,915.2590199999977,14,"[3.253175999969244, 18.767902299994603, 16.460681000025943, 19.3362322000321, 4.766160700004548, 4.519508800003678, 5.167622599983588, 11.772000500001013, 6.767201500013471, 20.82918390003033, 10.333779799984768, 14.092762600048445, 18.23129849997349, 16.81354050000664]","[0.014444999978877604, 0.014341800007969141, 0.0704635001020506, 0.04648629995062947, 0.06566530000418425, 0.08024339994881302, 0.06315099995117635, 0.03040389996021986, 0.11238730000331998, 0.04739770002197474, 0.03129030007403344, 14.092769099981524, 0.06589720002375543, 16.81354779994581]",0,,,,,,,,,,,,,,,,,,,,,,,,,,,,,,,,,,,,,,,,,,,,,,,,,,,,,,,,,,,,,,,,,,,,,,,,,,,,,,,,,,,,,,,,,,,,,,,,,,,,,,,,,,,,,,,,,,,,,,,,,,,,ATJF2G,train_y,blue_star,bottom_right,2025-03-15_13h02.40.869,HideSeek_v1,2022.2.5,59.95096010413987,
2,7,3,7,3,0,0,61,2,instr_dim1_1,,,,,,1,0,1,0,,,,,0,0,0,0,,,,,,,,,,,,,,,,,,,,,,,,,,,,,,,,,,,,,stimuli/alien_stimuli/61.png,conditions/schedules/train_y_first/blue_star_00/bottom_right/inputInstr_1.xlsx,stimuli/alien_stimuli/61.png,932.1635913000209,932.1635913000209,932.1635913000209,932.1635913000209,932.1561878799927,return,6.454993100021966,"[-0.16, -0.08, 0, 0.08, 0.16, 0.24, 0.32, 0.4, 0.48, 0.56]","[-0.4, -0.32, -0.24, -0.16, -0.08, 0, 0.08, 0.16, 0.24, 0.32]",3,3,7,7,0.0,0.0,938.7637933999067,938.7637933999067,938.7637933999067,938.7637933999067,938.7637933999067,938.7637933999067,938.7637933999067,938.7618374399143,8.274273100076243,return,8.129446199978702,stimuli/alien_stimuli/61.png,61,7,2,,,,,,,,,,,,,,,,,,,,,,,,,,,,,,,,,,,,,,,,,,,,,,,,,,,,,,,,,,,,,,,,,,,,,,,,,,,,,,,,,,,,,,,,,ATJF2G,train_y,blue_star,bottom_right,2025-03-15_13h02.40.869,HideSeek_v1,2022.2.5,59.95096010413987,
,,,,,,,,,,,30,,,,1,0,1,0,,,,,,,,,,,,,,,,,,,,,,,,,,,,,,,,,,,,,,,,,,,,,,,,,,,,,,,,,,,,,,,,,,,,,,,,,,,,,,21,0.7,0,0,99,1,30,0,conditions/schedules/train_y_first/blue_star_00/bottom_right/inputTrain_1.1.xlsx,99,1,1,1,0,,,,,,,,,,,,,,,,,,,,,,,,,,,,,,,,,,,,,,,,,,,,,,,,,,,,,,,,,,,,,,,,,,,,,,,,,,,ATJF2G,train_y,blue_star,bottom_right,2025-03-15_13h02.40.869,HideSeek_v1,2022.2.5,59.95096010413987,
,,,,,,,,,,,,,,,2,0,2,0,0,0,0,0,,,,,,,,,,,,,,,,,,,,,,,,,,,,,,,conditions/schedules/train_y_first/blue_star_00/bottom_right/instructions/Slide15.png,conditions/schedules/train_y_first/blue_star_00/bottom_right/instructions/Audio15.wav,947.0699545999523,947.0685559000121,15,"[3.253175999969244, 18.767902299994603, 16.460681000025943, 19.3362322000321, 4.766160700004548, 4.519508800003678, 5.167622599983588, 11.772000500001013, 6.767201500013471, 20.82918390003033, 10.333779799984768, 14.092762600048445, 18.23129849997349, 16.81354050000664, 46.534481299924664]","[0.014444999978877604, 0.014341800007969141, 0.0704635001020506, 0.04648629995062947, 0.06566530000418425, 0.08024339994881302, 0.06315099995117635, 0.03040389996021986, 0.11238730000331998, 0.04739770002197474, 0.03129030007403344, 14.092769099981524, 0.06589720002375543, 16.81354779994581, 46.53448789997492]",0,,,,,,,,,,,,,,,,,,,,,,,,,,,,,,,,,,,,,,,,,,,,,,,,,,,,,,,,,,,,,,,,,,,,,,,,,,,,,,,,,,,,,,,,,,,,,,,,,,,,,,,,,,,,,,,,,,,,,,,,,,,,ATJF2G,train_y,blue_star,bottom_right,2025-03-15_13h02.40.869,HideSeek_v1,2022.2.5,59.95096010413987,
,,,,,,,,,,,,,,,2,0,2,0,1,0,1,0,,,,,,,,,,,,,,,,,,,,,,,,,,,,,,,conditions/schedules/train_y_first/blue_star_00/bottom_right/instructions/Slide16.png,conditions/schedules/train_y_first/blue_star_00/bottom_right/instructions/Audio16.wav,993.6761058999691,993.6737375999801,16,"[3.253175999969244, 18.767902299994603, 16.460681000025943, 19.3362322000321, 4.766160700004548, 4.519508800003678, 5.167622599983588, 11.772000500001013, 6.767201500013471, 20.82918390003033, 10.333779799984768, 14.092762600048445, 18.23129849997349, 16.81354050000664, 46.534481299924664, 22.730913200066425]","[0.014444999978877604, 0.014341800007969141, 0.0704635001020506, 0.04648629995062947, 0.06566530000418425, 0.08024339994881302, 0.06315099995117635, 0.03040389996021986, 0.11238730000331998, 0.04739770002197474, 0.03129030007403344, 14.092769099981524, 0.06589720002375543, 16.81354779994581, 0.013830100069753826, 22.730920400004834]",0,,,,,,,,,,,,,,,,,,,,,,,,,,,,,,,,,,,,,,,,,,,,,,,,,,,,,,,,,,,,,,,,,,,,,,,,,,,,,,,,,,,,,,,,,,,,,,,,,,,,,,,,,,,,,,,,,,,,,,,,,,,,ATJF2G,train_y,blue_star,bottom_right,2025-03-15_13h02.40.869,HideSeek_v1,2022.2.5,59.95096010413987,
,5,0,5,4,0,4,65,,train_dim1_1,1,30,,,,2,0,2,0,,,,,,,,,0,0,0,0,0,0,0,0,0,0,0,0,,,,,,,,,,,,,,,,,,,,,,,,,stimuli/alien_stimuli/65.png,,,,,,,,,,,,,,,,,,,,,,,,,,,,,,,,,,,,,,,30,,,,,,,,1016.5098325000145,1016.5098325000145,1016.5098325000145,1016.5098325000145,1016.5098325000145,up,8.26875999988988,0,0,0,99,0.24,-0.32,up,8.168048199964687,,,,,,,,,,,,,,,,,,,,,,,,,,,,,,,,,,,,,,,,,,,,,,,,,,,,,,,,,,,,ATJF2G,train_y,blue_star,bottom_right,2025-03-15_13h02.40.869,HideSeek_v1,2022.2.5,59.95096010413987,
,5,0,5,4,0,4,65,,train_dim1_1,1,30,,,,2,0,2,0,,,,,,,,,0,0,0,0,0,0,0,0,1,0,1,0,,,,,,,,,,,,,,,,,,,,,,,,,,,,,,,,,,,,,,,,,,,,,,,,,,,,,,,,,,,,,,,,30,,,,,,,,1024.7640099999262,1024.7640099999262,1024.7640099999262,1024.7640099999262,1024.7640099999262,up,0.693169999984093,0,0,0,99,0.24,-0.24,up,0.6196230000350624,,,,,,,,,,,,,,,,,,,,,,,,,,,,,,,,,,,,,,,,,,,,,,,,,,,,,,,,,,,,ATJF2G,train_y,blue_star,bottom_right,2025-03-15_13h02.40.869,HideSeek_v1,2022.2.5,59.95096010413987,
,5,0,5,4,0,4,65,,train_dim1_1,1,30,,,,2,0,2,0,,,,,,,,,0,0,0,0,0,0,0,0,2,0,2,0,,,,,,,,,,,,,,,,,,,,,,,,,,,,,,,,,,,,,,,,,,,,,,,,,,,,,,,,,,,,,,,,30,,,,,,,,1025.4661630999763,1025.4661630999763,1025.4661630999763,1025.4661630999763,1025.4661630999763,up,2.3115226000081748,0,0,0,99,0.24,-0.15999999999999998,up,2.221350200008601,,,,,,,,,,,,,,,,,,,,,,,,,,,,,,,,,,,,,,,,,,,,,,,,,,,,,,,,,,,,ATJF2G,train_y,blue_star,bottom_right,2025-03-15_13h02.40.869,HideSeek_v1,2022.2.5,59.95096010413987,
,5,0,5,4,0,4,65,,train_dim1_1,1,30,,,,2,0,2,0,,,,,,,,,0,0,0,0,0,0,0,0,3,0,3,0,,,,,,,,,,,,,,,,,,,,,,,,,,,,,,,,,,,,,,,,,,,,,,,,,,,,,,,,,,,,,,,,30,,,,,,,,1027.782158899936,1027.782158899936,1027.782158899936,1027.782158899936,1027.782158899936,up,0.7104403000557795,0,0,0,99,0.24,-0.07999999999999997,up,0.6382151999277994,,,,,,,,,,,,,,,,,,,,,,,,,,,,,,,,,,,,,,,,,,,,,,,,,,,,,,,,,,,,ATJF2G,train_y,blue_star,bottom_right,2025-03-15_13h02.40.869,HideSeek_v1,2022.2.5,59.95096010413987,
,5,0,5,4,0,4,65,,train_dim1_1,1,30,,,,2,0,2,0,,,,,,,,,0,0,0,0,0,0,0,0,4,0,4,0,,,,,,,,,,,,,,,,,,,,,,,,,,,,,,,,,,,,,,,,,,,,,,,,,,,,,,,,,,,,,,,,30,,,,,,,,1028.4995607999153,1028.4995607999153,1028.4995607999153,1028.4995607999153,1028.4995607999153,up,0.643405600101687,0,0,0,99,0.24,2.7755575615628914e-17,up,0.560806299909018,,,,,,,,,,,,,,,,,,,,,,,,,,,,,,,,,,,,,,,,,,,,,,,,,,,,,,,,,,,,ATJF2G,train_y,blue_star,bottom_right,2025-03-15_13h02.40.869,HideSeek_v1,2022.2.5,59.95096010413987,
,5,0,5,4,0,4,65,,train_dim1_1,1,30,,,,2,0,2,0,,,,,,,,,0,0,0,0,0,0,0,0,5,0,5,0,,,,,,,,,,,,,,,,,,,,,,,,,,,,,,,,,,,,,,,,,,,,,,,,,,,,,,,,,,,,,,,,30,,,,,,,,1029.1574211999541,1029.1574211999541,1029.1574211999541,1029.1574211999541,1029.1574211999541,return,0.8270171999465674,0,1,0,0,0.24,2.7755575615628914e-17,return,0.7342641000868753,5,0,0.24,2.7755575615628914e-17,,,,,,,,,,,,,,,,,,,,,,,,,,,,,,,,,,,,,,,,,,,,,,,,,,,,,,,,ATJF2G,train_y,blue_star,bottom_right,2025-03-15_13h02.40.869,HideSeek_v1,2022.2.5,59.95096010413987,
,8,2,8,7,0,5,66,,train_dim1_1,2,30,,,,2,0,2,0,,,,,,,,,0,0,0,0,0,1,1,1,0,0,0,0,,,,,,,,,,,,,,,,,,,,,,,,,stimuli/alien_stimuli/66.png,,,,,,,,,,,,,,,,,,,,,,,,,,,,,stimuli/alien_stimuli/65.png,65,5,3,,,,,,,30,,,,,,,,1057.3339912999654,1057.3339912999654,1057.3339912999654,1057.3339912999654,1057.3339912999654,up,26.07524299994111,0,1,0,99,0.48,-0.15999999999999998,up,25.99399430002086,,,,,1055.7754199999617,1057.3339912999654,0.24,-0.08,0.32,0.0,-0.24000000000000002,0.24,0.24,0.24,-0.08,1031.5559783999342,1031.5559783999342,1031.5559783999342,1031.5559783999342,1031.5559783999342,1031.5559783999342,1031.5559783999342,1031.5559783999342,1031.5383932599098,24.33913710003253,return,24.19388869998511,,,,,,,,,,,,,,,,,,,,,,,,,,,,,,,,,ATJF2G,train_y,blue_star,bottom_right,2025-03-15_13h02.40.869,HideSeek_v1,2022.2.5,59.95096010413987,
,8,2,8,7,0,5,66,,train_dim1_1,2,30,,,,2,0,2,0,,,,,,,,,0,0,0,0,0,1,1,1,1,0,1,0,,,,,,,,,,,,,,,,,,,,,,,,,,,,,,,,,,,,,,,,,,,,,,,,,,,,,,,,,,,,,,,,30,,,,,,,,1083.4344830999617,1083.4344830999617,1083.4344830999617,1083.4344830999617,1083.4344830999617,up,0.5594985999632627,0,1,0,99,0.48,-0.07999999999999997,up,0.45119739999063313,,,,,,,,,,,,,,,,,,,,,,,,,,,,,,,,,,,,,,,,,,,,,,,,,,,,,,,,,,,,ATJF2G,train_y,blue_star,bottom_right,2025-03-15_13h02.40.869,HideSeek_v1,2022.2.5,59.95096010413987,
,8,2,8,7,0,5,66,,train_dim1_1,2,30,,,,2,0,2,0,,,,,,,,,0,0,0,0,0,1,1,1,2,0,2,0,,,,,,,,,,,,,,,,,,,,,,,,,,,,,,,,,,,,,,,,,,,,,,,,,,,,,,,,,,,,,,,,30,,,,,,,,1083.9800170999952,1083.9800170999952,1083.9800170999952,1083.9800170999952,1083.9800170999952,up,0.6930105000501499,0,1,0,99,0.48,2.7755575615628914e-17,up,0.6196908999700099,,,,,,,,,,,,,,,,,,,,,,,,,,,,,,,,,,,,,,,,,,,,,,,,,,,,,,,,,,,,ATJF2G,train_y,blue_star,bottom_right,2025-03-15_13h02.40.869,HideSeek_v1,2022.2.5,59.95096010413987,
,8,2,8,7,0,5,66,,train_dim1_1,2,30,,,,2,0,2,0,,,,,,,,,0,0,0,0,0,1,1,1,3,0,3,0,,,,,,,,,,,,,,,,,,,,,,,,,,,,,,,,,,,,,,,,,,,,,,,,,,,,,,,,,,,,,,,,30,,,,,,,,1084.678815399995,1084.678815399995,1084.678815399995,1084.678815399995,1084.678815399995,up,0.5771078000543639,0,1,0,99,0.48,0.08000000000000003,up,0.5029222000157461,,,,,,,,,,,,,,,,,,,,,,,,,,,,,,,,,,,,,,,,,,,,,,,,,,,,,,,,,,,,ATJF2G,train_y,blue_star,bottom_right,2025-03-15_13h02.40.869,HideSeek_v1,2022.2.5,59.95096010413987,
,8,2,8,7,0,5,66,,train_dim1_1,2,30,,,,2,0,2,0,,,,,,,,,0,0,0,0,0,1,1,1,4,0,4,0,,,,,,,,,,,,,,,,,,,,,,,,,,,,,,,,,,,,,,,,,,,,,,,,,,,,,,,,,,,,,,,,30,,,,,,,,1085.2634453999344,1085.2634453999344,1085.2634453999344,1085.2634453999344,1085.2634453999344,up,0.6594587001018226,0,1,0,99,0.48,0.16000000000000003,up,0.5767772000981495,,,,,,,,,,,,,,,,,,,,,,,,,,,,,,,,,,,,,,,,,,,,,,,,,,,,,,,,,,,,ATJF2G,train_y,blue_star,bottom_right,2025-03-15_13h02.40.869,HideSeek_v1,2022.2.5,59.95096010413987,
,8,2,8,7,0,5,66,,train_dim1_1,2,30,,,,2,0,2,0,,,,,,,,,0,0,0,0,0,1,1,1,5,0,5,0,,,,,,,,,,,,,,,,,,,,,,,,,,,,,,,,,,,,,,,,,,,,,,,,,,,,,,,,,,,,,,,,30,,,,,,,,1085.930455799913,1085.930455799913,1085.930455799913,1085.930455799913,1085.930455799913,return,0.5769657000200823,1,0,0,1,0.48,0.16000000000000003,return,0.4971008999273181,10,0,0.48,0.16000000000000003,,,,,,,,,,,,,,,,,,,,,,,,,,,,,,,,,,,,,,,,,,,,,,,,,,,,,,,,ATJF2G,train_y,blue_star,bottom_right,2025-03-15_13h02.40.869,HideSeek_v1,2022.2.5,59.95096010413987,
,7,3,7,6,0,3,64,,train_dim1_1,3,30,,,,2,0,2,0,,,,,,,,,0,0,0,0,0,2,2,2,0,0,0,0,,,,,,,,,,,,,,,,,,,,,,,,,stimuli/alien_stimuli/64.png,,,,,,,,,,,,,,,,,,,,,,,,,,,,,stimuli/alien_stimuli/66.png,66,8,4,,,,,,,30,,,,,,,,1097.2781296999892,1097.2781296999892,1097.2781296999892,1097.2781296999892,1097.2781296999892,up,20.70552499999758,1,0,0,99,0.4,-0.08,up,20.62616949994117,,,,,1095.7252071999246,1097.2781296999892,0.48,0.16,0.4,0.0,-0.039999999999999994,0.48,0.48,0.48,0.16,1088.081236399943,1088.081236399943,1088.081236399943,1088.081236399943,1088.081236399943,1088.081236399943,1088.081236399943,1088.081236399943,1088.068684959947,7.758947699912824,return,7.625488099991344,,,,,,,,,,,,,,,,,,,,,,,,,,,,,,,,,ATJF2G,train_y,blue_star,bottom_right,2025-03-15_13h02.40.869,HideSeek_v1,2022.2.5,59.95096010413987,
,7,3,7,6,0,3,64,,train_dim1_1,3,30,,,,2,0,2,0,,,,,,,,,0,0,0,0,0,2,2,2,1,0,1,0,,,,,,,,,,,,,,,,,,,,,,,,,,,,,,,,,,,,,,,,,,,,,,,,,,,,,,,,,,,,,,,,30,,,,,,,,1118.0129830999067,1118.0129830999067,1118.0129830999067,1118.0129830999067,1118.0129830999067,up,0.5903529999777675,1,0,0,99,0.4,0.0,up,0.493567599914968,,,,,,,,,,,,,,,,,,,,,,,,,,,,,,,,,,,,,,,,,,,,,,,,,,,,,,,,,,,,ATJF2G,train_y,blue_star,bottom_right,2025-03-15_13h02.40.869,HideSeek_v1,2022.2.5,59.95096010413987,
,7,3,7,6,0,3,64,,train_dim1_1,3,30,,,,2,0,2,0,,,,,,,,,0,0,0,0,0,2,2,2,2,0,2,0,,,,,,,,,,,,,,,,,,,,,,,,,,,,,,,,,,,,,,,,,,,,,,,,,,,,,,,,,,,,,,,,30,,,,,,,,1118.5916269000154,1118.5916269000154,1118.5916269000154,1118.5916269000154,1118.5916269000154,up,0.5600146000506356,1,0,0,99,0.4,0.08,up,0.4745736999902874,,,,,,,,,,,,,,,,,,,,,,,,,,,,,,,,,,,,,,,,,,,,,,,,,,,,,,,,,,,,ATJF2G,train_y,blue_star,bottom_right,2025-03-15_13h02.40.869,HideSeek_v1,2022.2.5,59.95096010413987,
,7,3,7,6,0,3,64,,train_dim1_1,3,30,,,,2,0,2,0,,,,,,,,,0,0,0,0,0,2,2,2,3,0,3,0,,,,,,,,,,,,,,,,,,,,,,,,,,,,,,,,,,,,,,,,,,,,,,,,,,,,,,,,,,,,,,,,30,,,,,,,,1119.1579173000064,1119.1579173000064,1119.1579173000064,1119.1579173000064,1119.1579173000064,return,1.9115123000228778,2,0,0,1,0.4,0.08,return,1.8376367000164464,13,0,0.4,0.08,,,,,,,,,,,,,,,,,,,,,,,,,,,,,,,,,,,,,,,,,,,,,,,,,,,,,,,,ATJF2G,train_y,blue_star,bottom_right,2025-03-15_13h02.40.869,HideSeek_v1,2022.2.5,59.95096010413987,
,5,1,5,2,0,1,62,,train_dim1_1,4,30,,,,2,0,2,0,,,,,,,,,0,0,0,0,0,3,3,3,0,0,0,0,,,,,,,,,,,,,,,,,,,,,,,,,stimuli/alien_stimuli/62.png,,,,,,,,,,,,,,,,,,,,,,,,,,,,,stimuli/alien_stimuli/64.png,64,7,5,,,,,,,30,,,,,,,,1128.7601256999187,1128.7601256999187,1128.7601256999187,1128.7601256999187,1128.7601256999187,return,7.973623300087638,2,1,0,0,0.24,-0.32,return,7.895774299977347,13,0,0.24,-0.32,1127.2010896999855,1128.7601256999187,0.4,0.08,0.24,0.0,-0.04,0.4,0.4,0.4,0.08,1122.6389912000159,1122.6389912000159,1122.6389912000159,1122.6389912000159,1122.6389912000159,1122.6389912000159,1122.6389912000159,1122.6389912000159,1122.6308154599274,4.672524300054647,return,4.534447999903932,,,,,,,,,,,,,,,,,,,,,,,,,,,,,,,,,ATJF2G,train_y,blue_star,bottom_right,2025-03-15_13h02.40.869,HideSeek_v1,2022.2.5,59.95096010413987,
,8,3,8,3,0,0,61,,train_dim1_1,5,30,,,,2,0,2,0,,,,,,,,,0,0,0,0,0,4,4,4,0,0,0,0,,,,,,,,,,,,,,,,,,,,,,,,,stimuli/alien_stimuli/61.png,,,,,,,,,,,,,,,,,,,,,,,,,,,,,stimuli/alien_stimuli/62.png,62,5,6,,,,,,,30,,,,,,,,1153.7300509000197,1153.7300509000197,1153.7300509000197,1153.7300509000197,1153.7300509000197,up,6.85794919996988,2,1,0,99,0.48,-0.08,up,6.754218799993396,,,,,1152.1549129999476,1153.7300509000197,0.24,-0.24,0.08,0.0,-0.28,0.24,0.24,0.24,-0.24,1138.297722099931,1138.297722099931,1138.297722099931,1138.297722099931,1138.297722099931,1138.297722099931,1138.297722099931,1138.297722099931,1138.294092359999,13.963090299977921,return,13.82534179999493,,,,,,,,,,,,,,,,,,,,,,,,,,,,,,,,,ATJF2G,train_y,blue_star,bottom_right,2025-03-15_13h02.40.869,HideSeek_v1,2022.2.5,59.95096010413987,
,8,3,8,3,0,0,61,,train_dim1_1,5,30,,,,2,0,2,0,,,,,,,,,0,0,0,0,0,4,4,4,1,0,1,0,,,,,,,,,,,,,,,,,,,,,,,,,,,,,,,,,,,,,,,,,,,,,,,,,,,,,,,,,,,,,,,,30,,,,,,,,1160.578738900018,1160.578738900018,1160.578738900018,1160.578738900018,1160.578738900018,return,0.6255727999377996,2,1,0,0,0.48,-0.08,return,0.5371659999946132,14,0,0.48,-0.08,,,,,,,,,,,,,,,,,,,,,,,,,,,,,,,,,,,,,,,,,,,,,,,,,,,,,,,,ATJF2G,train_y,blue_star,bottom_right,2025-03-15_13h02.40.869,HideSeek_v1,2022.2.5,59.95096010413987,
,6,4,6,5,0,1,62,,train_dim1_1,6,30,,,,2,0,2,0,,,,,,,,,0,0,0,0,0,5,5,5,0,0,0,0,,,,,,,,,,,,,,,,,,,,,,,,,stimuli/alien_stimuli/62.png,,,,,,,,,,,,,,,,,,,,,,,,,,,,,stimuli/alien_stimuli/61.png,61,8,7,,,,,,,30,,,,,,,,1170.7081473999424,1170.7081473999424,1170.7081473999424,1170.7081473999424,1170.7081473999424,up,9.912102399975993,2,1,0,99,0.32,0.0,up,9.827522800071165,,,,,1169.1526825999608,1170.7081473999424,0.48,-0.16,0.0,0.0,-0.16,0.48,0.48,0.48,-0.16,1162.7813691999763,1162.7813691999763,1162.7813691999763,1162.7813691999763,1162.7813691999763,1162.7813691999763,1162.7813691999763,1162.7813691999763,1162.780663639959,6.490748399985023,return,6.342435900005512,,,,,,,,,,,,,,,,,,,,,,,,,,,,,,,,,ATJF2G,train_y,blue_star,bottom_right,2025-03-15_13h02.40.869,HideSeek_v1,2022.2.5,59.95096010413987,
,6,4,6,5,0,1,62,,train_dim1_1,6,30,,,,2,0,2,0,,,,,,,,,0,0,0,0,0,5,5,5,1,0,1,0,,,,,,,,,,,,,,,,,,,,,,,,,,,,,,,,,,,,,,,,,,,,,,,,,,,,,,,,,,,,,,,,30,,,,,,,,1180.6379743999569,1180.6379743999569,1180.6379743999569,1180.6379743999569,1180.6379743999569,return,1.2759224999463186,3,0,0,1,0.32,0.0,return,1.1771402000449598,15,0,0.32,0.0,,,,,,,,,,,,,,,,,,,,,,,,,,,,,,,,,,,,,,,,,,,,,,,,,,,,,,,,ATJF2G,train_y,blue_star,bottom_right,2025-03-15_13h02.40.869,HideSeek_v1,2022.2.5,59.95096010413987,
,6,3,6,6,0,3,64,,train_dim1_1,7,30,,,,2,0,2,0,,,,,,,,,0,0,0,0,0,6,6,6,0,0,0,0,,,,,,,,,,,,,,,,,,,,,,,,,stimuli/alien_stimuli/64.png,,,,,,,,,,,,,,,,,,,,,,,,,,,,,stimuli/alien_stimuli/62.png,62,6,8,,,,,,,30,,,,,,,,1188.335333499941,1188.335333499941,1188.335333499941,1188.335333499941,1188.335333499941,up,5.360449200030416,3,0,0,99,0.32,-0.08,up,5.272571500041522,,,,,1186.783042899915,1188.335333499941,0.32,0,0.08,0.0,-0.04,0.32,0.32,0.32,0,1183.4706944000209,1183.4706944000209,1183.4706944000209,1183.4706944000209,1183.4706944000209,1183.4706944000209,1183.4706944000209,1183.4706944000209,1183.4636245599713,3.421864700037986,return,3.2930541000096127,,,,,,,,,,,,,,,,,,,,,,,,,,,,,,,,,ATJF2G,train_y,blue_star,bottom_right,2025-03-15_13h02.40.869,HideSeek_v1,2022.2.5,59.95096010413987,
,6,3,6,6,0,3,64,,train_dim1_1,7,30,,,,2,0,2,0,,,,,,,,,0,0,0,0,0,6,6,6,1,0,1,0,,,,,,,,,,,,,,,,,,,,,,,,,,,,,,,,,,,,,,,,,,,,,,,,,,,,,,,,,,,,,,,,30,,,,,,,,1193.707764199935,1193.707764199935,1193.707764199935,1193.707764199935,1193.707764199935,up,0.693199000088498,3,0,0,99,0.32,0.0,up,0.6119456000160426,,,,,,,,,,,,,,,,,,,,,,,,,,,,,,,,,,,,,,,,,,,,,,,,,,,,,,,,,,,,ATJF2G,train_y,blue_star,bottom_right,2025-03-15_13h02.40.869,HideSeek_v1,2022.2.5,59.95096010413987,
,6,3,6,6,0,3,64,,train_dim1_1,7,30,,,,2,0,2,0,,,,,,,,,0,0,0,0,0,6,6,6,2,0,2,0,,,,,,,,,,,,,,,,,,,,,,,,,,,,,,,,,,,,,,,,,,,,,,,,,,,,,,,,,,,,,,,,30,,,,,,,,1194.4053829999175,1194.4053829999175,1194.4053829999175,1194.4053829999175,1194.4053829999175,up,0.6275735000381246,3,0,0,99,0.32,0.08,up,0.5499077000422403,,,,,,,,,,,,,,,,,,,,,,,,,,,,,,,,,,,,,,,,,,,,,,,,,,,,,,,,,,,,ATJF2G,train_y,blue_star,bottom_right,2025-03-15_13h02.40.869,HideSeek_v1,2022.2.5,59.95096010413987,
,6,3,6,6,0,3,64,,train_dim1_1,7,30,,,,2,0,2,0,,,,,,,,,0,0,0,0,0,6,6,6,3,0,3,0,,,,,,,,,,,,,,,,,,,,,,,,,,,,,,,,,,,,,,,,,,,,,,,,,,,,,,,,,,,,,,,,30,,,,,,,,1195.0401285999687,1195.0401285999687,1195.0401285999687,1195.0401285999687,1195.0401285999687,return,0.8926078000804409,4,0,0,1,0.32,0.08,return,0.8025464999955148,18,0,0.32,0.08,,,,,,,,,,,,,,,,,,,,,,,,,,,,,,,,,,,,,,,,,,,,,,,,,,,,,,,,ATJF2G,train_y,blue_star,bottom_right,2025-03-15_13h02.40.869,HideSeek_v1,2022.2.5,59.95096010413987,
,9,2,9,2,0,0,61,,train_dim1_1,8,30,,,,2,0,2,0,,,,,,,,,0,0,0,0,0,7,7,7,0,0,0,0,,,,,,,,,,,,,,,,,,,,,,,,,stimuli/alien_stimuli/61.png,,,,,,,,,,,,,,,,,,,,,,,,,,,,,stimuli/alien_stimuli/64.png,64,6,9,,,,,,,30,,,,,,,,1201.3672187000047,1201.3672187000047,1201.3672187000047,1201.3672187000047,1201.3672187000047,return,4.606181100010872,5,0,0,1,0.56,-0.24,return,4.53218179999385,18,0,0.56,-0.24,1199.811367599992,1201.3672187000047,0.32,0.08,0.24,0.0,-0.04,0.32,0.32,0.32,0.08,1197.497420199914,1197.497420199914,1197.497420199914,1197.497420199914,1197.497420199914,1197.497420199914,1197.497420199914,1197.497420199914,1197.4929043599868,2.4206358999945223,return,2.2861312999157235,,,,,,,,,,,,,,,,,,,,,,,,,,,,,,,,,ATJF2G,train_y,blue_star,bottom_right,2025-03-15_13h02.40.869,HideSeek_v1,2022.2.5,59.95096010413987,
,9,3,9,7,0,4,65,,train_dim1_1,9,30,,,,2,0,2,0,,,,,,,,,0,0,0,0,0,8,8,8,0,0,0,0,,,,,,,,,,,,,,,,,,,,,,,,,stimuli/alien_stimuli/65.png,,,,,,,,,,,,,,,,,,,,,,,,,,,,,stimuli/alien_stimuli/61.png,61,9,10,,,,,,,30,,,,,,,,1214.0092766999733,1214.0092766999733,1214.0092766999733,1214.0092766999733,1214.0092766999733,left,8.96167550003156,5,0,0,99,0.48000000000000004,-0.16,left,8.875847700051963,,,,,1212.455028599943,1214.0092766999733,0.56,-0.24,0.0,0.0,-0.24,0.56,0.56,0.56,-0.24,1207.5248020999134,1207.5248020999134,1207.5248020999134,1207.5248020999134,1207.5248020999134,1207.5248020999134,1207.5248020999134,1207.5248020999134,1207.5176508799427,5.023203799966723,return,4.898277300060727,,,,,,,,,,,,,,,,,,,,,,,,,,,,,,,,,ATJF2G,train_y,blue_star,bottom_right,2025-03-15_13h02.40.869,HideSeek_v1,2022.2.5,59.95096010413987,
,9,3,9,7,0,4,65,,train_dim1_1,9,30,,,,2,0,2,0,,,,,,,,,0,0,0,0,0,8,8,8,1,0,1,0,,,,,,,,,,,,,,,,,,,,,,,,,,,,,,,,,,,,,,,,,,,,,,,,,,,,,,,,,,,,,,,,30,,,,,,,,1222.9787032000022,1222.9787032000022,1222.9787032000022,1222.9787032000022,1222.9787032000022,left,0.5089893999975175,5,0,0,99,0.4,-0.16,left,0.43512769998051226,,,,,,,,,,,,,,,,,,,,,,,,,,,,,,,,,,,,,,,,,,,,,,,,,,,,,,,,,,,,ATJF2G,train_y,blue_star,bottom_right,2025-03-15_13h02.40.869,HideSeek_v1,2022.2.5,59.95096010413987,
,9,3,9,7,0,4,65,,train_dim1_1,9,30,,,,2,0,2,0,,,,,,,,,0,0,0,0,0,8,8,8,2,0,2,0,,,,,,,,,,,,,,,,,,,,,,,,,,,,,,,,,,,,,,,,,,,,,,,,,,,,,,,,,,,,,,,,30,,,,,,,,1223.4952945999103,1223.4952945999103,1223.4952945999103,1223.4952945999103,1223.4952945999103,left,0.6099450999172404,5,0,0,99,0.32,-0.16,left,0.5235399999655783,,,,,,,,,,,,,,,,,,,,,,,,,,,,,,,,,,,,,,,,,,,,,,,,,,,,,,,,,,,,ATJF2G,train_y,blue_star,bottom_right,2025-03-15_13h02.40.869,HideSeek_v1,2022.2.5,59.95096010413987,
,9,3,9,7,0,4,65,,train_dim1_1,9,30,,,,2,0,2,0,,,,,,,,,0,0,0,0,0,8,8,8,3,0,3,0,,,,,,,,,,,,,,,,,,,,,,,,,,,,,,,,,,,,,,,,,,,,,,,,,,,,,,,,,,,,,,,,30,,,,,,,,1224.1120721999323,1224.1120721999323,1224.1120721999323,1224.1120721999323,1224.1120721999323,left,0.526525599998422,5,0,0,99,0.24,-0.16,left,0.43767049990128726,,,,,,,,,,,,,,,,,,,,,,,,,,,,,,,,,,,,,,,,,,,,,,,,,,,,,,,,,,,,ATJF2G,train_y,blue_star,bottom_right,2025-03-15_13h02.40.869,HideSeek_v1,2022.2.5,59.95096010413987,
,9,3,9,7,0,4,65,,train_dim1_1,9,30,,,,2,0,2,0,,,,,,,,,0,0,0,0,0,8,8,8,4,0,4,0,,,,,,,,,,,,,,,,,,,,,,,,,,,,,,,,,,,,,,,,,,,,,,,,,,,,,,,,,,,,,,,,30,,,,,,,,1224.645160999964,1224.645160999964,1224.645160999964,1224.645160999964,1224.645160999964,left,0.526598900090903,5,0,0,99,0.15999999999999998,-0.16,left,0.45282889995723963,,,,,,,,,,,,,,,,,,,,,,,,,,,,,,,,,,,,,,,,,,,,,,,,,,,,,,,,,,,,ATJF2G,train_y,blue_star,bottom_right,2025-03-15_13h02.40.869,HideSeek_v1,2022.2.5,59.95096010413987,
,9,3,9,7,0,4,65,,train_dim1_1,9,30,,,,2,0,2,0,,,,,,,,,0,0,0,0,0,8,8,8,5,0,5,0,,,,,,,,,,,,,,,,,,,,,,,,,,,,,,,,,,,,,,,,,,,,,,,,,,,,,,,,,,,,,,,,30,,,,,,,,1225.1793426999357,1225.1793426999357,1225.1793426999357,1225.1793426999357,1225.1793426999357,return,3.245911299949512,5,0,0,0,0.15999999999999998,-0.16,return,3.1680098000215366,18,-5,0.15999999999999998,-0.16,,,,,,,,,,,,,,,,,,,,,,,,,,,,,,,,,,,,,,,,,,,,,,,,,,,,,,,,ATJF2G,train_y,blue_star,bottom_right,2025-03-15_13h02.40.869,HideSeek_v1,2022.2.5,59.95096010413987,
,7,2,7,7,0,5,66,,train_dim1_1,10,30,,,,2,0,2,0,,,,,,,,,0,0,0,0,0,9,9,9,0,0,0,0,,,,,,,,,,,,,,,,,,,,,,,,,stimuli/alien_stimuli/66.png,,,,,,,,,,,,,,,,,,,,,,,,,,,,,stimuli/alien_stimuli/65.png,65,9,11,,,,,,,30,,,,,,,,1236.4929856999079,1236.4929856999079,1236.4929856999079,1236.4929856999079,1236.4929856999079,up,5.093099999940023,5,0,0,99,0.4,-0.15999999999999998,up,5.005199900013395,,,,,1234.9404502999969,1236.4929856999079,0.56,0.16,0.32,0.0,0.0,0.56,0.56,0.56,0.16,1229.9929618999595,1229.9929618999595,1229.9929618999595,1229.9929618999595,1229.9929618999595,1229.9929618999595,1229.9929618999595,1229.9929618999595,1229.986504659918,5.056190900038928,return,4.924625499988906,,,,,,,,,,,,,,,,,,,,,,,,,,,,,,,,,ATJF2G,train_y,blue_star,bottom_right,2025-03-15_13h02.40.869,HideSeek_v1,2022.2.5,59.95096010413987,
,7,2,7,7,0,5,66,,train_dim1_1,10,30,,,,2,0,2,0,,,,,,,,,0,0,0,0,0,9,9,9,1,0,1,0,,,,,,,,,,,,,,,,,,,,,,,,,,,,,,,,,,,,,,,,,,,,,,,,,,,,,,,,,,,,,,,,30,,,,,,,,1241.6079802999739,1241.6079802999739,1241.6079802999739,1241.6079802999739,1241.6079802999739,up,0.4926772000035271,5,0,0,99,0.4,-0.07999999999999997,up,0.39506710006389767,,,,,,,,,,,,,,,,,,,,,,,,,,,,,,,,,,,,,,,,,,,,,,,,,,,,,,,,,,,,ATJF2G,train_y,blue_star,bottom_right,2025-03-15_13h02.40.869,HideSeek_v1,2022.2.5,59.95096010413987,
,7,2,7,7,0,5,66,,train_dim1_1,10,30,,,,2,0,2,0,,,,,,,,,0,0,0,0,0,9,9,9,2,0,2,0,,,,,,,,,,,,,,,,,,,,,,,,,,,,,,,,,,,,,,,,,,,,,,,,,,,,,,,,,,,,,,,,30,,,,,,,,1242.0988285000203,1242.0988285000203,1242.0988285000203,1242.0988285000203,1242.0988285000203,up,0.8938268000492826,5,0,0,99,0.4,2.7755575615628914e-17,up,0.8055553000885993,,,,,,,,,,,,,,,,,,,,,,,,,,,,,,,,,,,,,,,,,,,,,,,,,,,,,,,,,,,,ATJF2G,train_y,blue_star,bottom_right,2025-03-15_13h02.40.869,HideSeek_v1,2022.2.5,59.95096010413987,
,7,2,7,7,0,5,66,,train_dim1_1,10,30,,,,2,0,2,0,,,,,,,,,0,0,0,0,0,9,9,9,3,0,3,0,,,,,,,,,,,,,,,,,,,,,,,,,,,,,,,,,,,,,,,,,,,,,,,,,,,,,,,,,,,,,,,,30,,,,,,,,1242.9934406999964,1242.9934406999964,1242.9934406999964,1242.9934406999964,1242.9934406999964,up,0.5768666999647394,5,0,0,99,0.4,0.08000000000000003,up,0.5033535999245942,,,,,,,,,,,,,,,,,,,,,,,,,,,,,,,,,,,,,,,,,,,,,,,,,,,,,,,,,,,,ATJF2G,train_y,blue_star,bottom_right,2025-03-15_13h02.40.869,HideSeek_v1,2022.2.5,59.95096010413987,
,7,2,7,7,0,5,66,,train_dim1_1,10,30,,,,2,0,2,0,,,,,,,,,0,0,0,0,0,9,9,9,4,0,4,0,,,,,,,,,,,,,,,,,,,,,,,,,,,,,,,,,,,,,,,,,,,,,,,,,,,,,,,,,,,,,,,,30,,,,,,,,1243.578367399983,1243.578367399983,1243.578367399983,1243.578367399983,1243.578367399983,return,1.0436519000213593,5,1,0,0,0.4,0.08000000000000003,return,0.9626599999610335,22,-5,0.4,0.08000000000000003,,,,,,,,,,,,,,,,,,,,,,,,,,,,,,,,,,,,,,,,,,,,,,,,,,,,,,,,ATJF2G,train_y,blue_star,bottom_right,2025-03-15_13h02.40.869,HideSeek_v1,2022.2.5,59.95096010413987,
,9,1,9,5,0,4,65,,train_dim1_1,11,30,,,,2,0,2,0,,,,,,,,,0,0,0,0,0,10,10,10,0,0,0,0,,,,,,,,,,,,,,,,,,,,,,,,,stimuli/alien_stimuli/65.png,,,,,,,,,,,,,,,,,,,,,,,,,,,,,stimuli/alien_stimuli/66.png,66,7,12,,,,,,,30,,,,,,,,1251.9724400999257,1251.9724400999257,1251.9724400999257,1251.9724400999257,1251.9724400999257,up,6.944252699962817,5,1,0,99,0.56,-0.24,up,6.861962100025266,,,,,1250.4202117999084,1251.9724400999257,0.4,0.16,0.4,0.0,-0.039999999999999994,0.4,0.4,0.4,0.16,1246.192364999908,1246.192364999908,1246.192364999908,1246.192364999908,1246.192364999908,1246.192364999908,1246.192364999908,1246.192364999908,1246.1830289599484,4.3390791999408975,return,4.208790499949828,,,,,,,,,,,,,,,,,,,,,,,,,,,,,,,,,ATJF2G,train_y,blue_star,bottom_right,2025-03-15_13h02.40.869,HideSeek_v1,2022.2.5,59.95096010413987,
,9,1,9,5,0,4,65,,train_dim1_1,11,30,,,,2,0,2,0,,,,,,,,,0,0,0,0,0,10,10,10,1,0,1,0,,,,,,,,,,,,,,,,,,,,,,,,,,,,,,,,,,,,,,,,,,,,,,,,,,,,,,,,,,,,,,,,30,,,,,,,,1258.9256879999302,1258.9256879999302,1258.9256879999302,1258.9256879999302,1258.9256879999302,up,0.47571899998001754,5,1,0,99,0.56,-0.15999999999999998,up,0.3864426000509411,,,,,,,,,,,,,,,,,,,,,,,,,,,,,,,,,,,,,,,,,,,,,,,,,,,,,,,,,,,,ATJF2G,train_y,blue_star,bottom_right,2025-03-15_13h02.40.869,HideSeek_v1,2022.2.5,59.95096010413987,
,9,1,9,5,0,4,65,,train_dim1_1,11,30,,,,2,0,2,0,,,,,,,,,0,0,0,0,0,10,10,10,2,0,2,0,,,,,,,,,,,,,,,,,,,,,,,,,,,,,,,,,,,,,,,,,,,,,,,,,,,,,,,,,,,,,,,,30,,,,,,,,1259.4083711999701,1259.4083711999701,1259.4083711999701,1259.4083711999701,1259.4083711999701,up,0.8098380999872461,5,1,0,99,0.56,-0.07999999999999997,up,0.7294279999332502,,,,,,,,,,,,,,,,,,,,,,,,,,,,,,,,,,,,,,,,,,,,,,,,,,,,,,,,,,,,ATJF2G,train_y,blue_star,bottom_right,2025-03-15_13h02.40.869,HideSeek_v1,2022.2.5,59.95096010413987,
,9,1,9,5,0,4,65,,train_dim1_1,11,30,,,,2,0,2,0,,,,,,,,,0,0,0,0,0,10,10,10,3,0,3,0,,,,,,,,,,,,,,,,,,,,,,,,,,,,,,,,,,,,,,,,,,,,,,,,,,,,,,,,,,,,,,,,30,,,,,,,,1260.22489339998,1260.22489339998,1260.22489339998,1260.22489339998,1260.22489339998,up,0.6430784000549465,5,1,0,99,0.56,2.7755575615628914e-17,up,0.5703067999565974,,,,,,,,,,,,,,,,,,,,,,,,,,,,,,,,,,,,,,,,,,,,,,,,,,,,,,,,,,,,ATJF2G,train_y,blue_star,bottom_right,2025-03-15_13h02.40.869,HideSeek_v1,2022.2.5,59.95096010413987,
,9,1,9,5,0,4,65,,train_dim1_1,11,30,,,,2,0,2,0,,,,,,,,,0,0,0,0,0,10,10,10,4,0,4,0,,,,,,,,,,,,,,,,,,,,,,,,,,,,,,,,,,,,,,,,,,,,,,,,,,,,,,,,,,,,,,,,30,,,,,,,,1260.8778704999713,1260.8778704999713,1260.8778704999713,1260.8778704999713,1260.8778704999713,up,0.696143800043501,5,1,0,99,0.56,0.08000000000000003,up,0.6204472000245005,,,,,,,,,,,,,,,,,,,,,,,,,,,,,,,,,,,,,,,,,,,,,,,,,,,,,,,,,,,,ATJF2G,train_y,blue_star,bottom_right,2025-03-15_13h02.40.869,HideSeek_v1,2022.2.5,59.95096010413987,
,9,1,9,5,0,4,65,,train_dim1_1,11,30,,,,2,0,2,0,,,,,,,,,0,0,0,0,0,10,10,10,5,0,5,0,,,,,,,,,,,,,,,,,,,,,,,,,,,,,,,,,,,,,,,,,,,,,,,,,,,,,,,,,,,,,,,,30,,,,,,,,1261.5837013999699,1261.5837013999699,1261.5837013999699,1261.5837013999699,1261.5837013999699,return,0.8204511000076309,5,1,0,0,0.56,0.08000000000000003,return,0.7411775999935344,27,-5,0.56,0.08000000000000003,,,,,,,,,,,,,,,,,,,,,,,,,,,,,,,,,,,,,,,,,,,,,,,,,,,,,,,,ATJF2G,train_y,blue_star,bottom_right,2025-03-15_13h02.40.869,HideSeek_v1,2022.2.5,59.95096010413987,
,5,0,5,0,0,0,61,,train_dim1_1,12,30,,,,2,0,2,0,,,,,,,,,0,0,0,0,0,11,11,11,0,0,0,0,,,,,,,,,,,,,,,,,,,,,,,,,stimuli/alien_stimuli/61.png,,,,,,,,,,,,,,,,,,,,,,,,,,,,,stimuli/alien_stimuli/65.png,65,9,13,,,,,,,30,,,,,,,,1269.8900557999732,1269.8900557999732,1269.8900557999732,1269.8900557999732,1269.8900557999732,up,8.894103199942037,5,1,0,99,0.24,-0.32,up,8.819234800059348,,,,,1268.334778499906,1269.8900557999732,0.56,0,0.32,0.0,-0.16,0.56,0.56,0.56,0,1263.9688651999459,1263.9688651999459,1263.9688651999459,1263.9688651999459,1263.9688651999459,1263.9688651999459,1263.9688651999459,1263.9688651999459,1263.964708159957,4.4726612999802455,return,4.3484816999407485,,,,,,,,,,,,,,,,,,,,,,,,,,,,,,,,,ATJF2G,train_y,blue_star,bottom_right,2025-03-15_13h02.40.869,HideSeek_v1,2022.2.5,59.95096010413987,
,5,0,5,0,0,0,61,,train_dim1_1,12,30,,,,2,0,2,0,,,,,,,,,0,0,0,0,0,11,11,11,1,0,1,0,,,,,,,,,,,,,,,,,,,,,,,,,,,,,,,,,,,,,,,,,,,,,,,,,,,,,,,,,,,,,,,,30,,,,,,,,1278.792144499952,1278.792144499952,1278.792144499952,1278.792144499952,1278.792144499952,return,0.4928622000152245,5,1,0,0,0.24,-0.32,return,0.4142019000137225,28,-5,0.24,-0.32,,,,,,,,,,,,,,,,,,,,,,,,,,,,,,,,,,,,,,,,,,,,,,,,,,,,,,,,ATJF2G,train_y,blue_star,bottom_right,2025-03-15_13h02.40.869,HideSeek_v1,2022.2.5,59.95096010413987,
,9,3,9,4,0,1,62,,train_dim1_1,13,30,,,,2,0,2,0,,,,,,,,,0,0,0,0,0,12,12,12,0,0,0,0,,,,,,,,,,,,,,,,,,,,,,,,,stimuli/alien_stimuli/62.png,,,,,,,,,,,,,,,,,,,,,,,,,,,,,stimuli/alien_stimuli/61.png,61,5,14,,,,,,,30,,,,,,,,1284.555413999944,1284.555413999944,1284.555413999944,1284.555413999944,1284.555413999944,up,10.559451900073327,5,1,0,99,0.56,-0.08,up,10.48137170006521,,,,,1282.9969375999644,1284.555413999944,0.24,-0.4,0.0,0.0,-0.4,0.24,0.24,0.24,-0.4,1280.8579821999883,1280.8579821999883,1280.8579821999883,1280.8579821999883,1280.8579821999883,1280.8579821999883,1280.8579821999883,1280.8579821999883,1280.845588259911,2.253194299992174,return,2.114273799932562,,,,,,,,,,,,,,,,,,,,,,,,,,,,,,,,,ATJF2G,train_y,blue_star,bottom_right,2025-03-15_13h02.40.869,HideSeek_v1,2022.2.5,59.95096010413987,
,9,3,9,4,0,1,62,,train_dim1_1,13,30,,,,2,0,2,0,,,,,,,,,0,0,0,0,0,12,12,12,1,0,1,0,,,,,,,,,,,,,,,,,,,,,,,,,,,,,,,,,,,,,,,,,,,,,,,,,,,,,,,,,,,,,,,,30,,,,,,,,1295.1390966000035,1295.1390966000035,1295.1390966000035,1295.1390966000035,1295.1390966000035,return,0.8432774000102654,6,0,0,1,0.56,-0.08,return,0.7373240999877453,29,-5,0.56,-0.08,,,,,,,,,,,,,,,,,,,,,,,,,,,,,,,,,,,,,,,,,,,,,,,,,,,,,,,,ATJF2G,train_y,blue_star,bottom_right,2025-03-15_13h02.40.869,HideSeek_v1,2022.2.5,59.95096010413987,
,7,2,7,7,0,5,66,,train_dim1_1,14,30,,,,2,0,2,0,,,,,,,,,0,0,0,0,0,13,13,13,0,0,0,0,,,,,,,,,,,,,,,,,,,,,,,,,stimuli/alien_stimuli/66.png,,,,,,,,,,,,,,,,,,,,,,,,,,,,,stimuli/alien_stimuli/62.png,62,9,15,,,,,,,30,,,,,,,,1302.0019598000217,1302.0019598000217,1302.0019598000217,1302.0019598000217,1302.0019598000217,up,4.305246200063266,6,0,0,99,0.4,-0.15999999999999998,up,4.217505999957211,,,,,1300.444969699951,1302.0019598000217,0.56,-0.08,0.08,0.0,-0.12,0.56,0.56,0.56,-0.08,1297.5329160999972,1297.5329160999972,1297.5329160999972,1297.5329160999972,1297.5329160999972,1297.5329160999972,1297.5329160999972,1297.5329160999972,1297.5257430599768,3.021530400030315,return,2.8945834999904037,,,,,,,,,,,,,,,,,,,,,,,,,,,,,,,,,ATJF2G,train_y,blue_star,bottom_right,2025-03-15_13h02.40.869,HideSeek_v1,2022.2.5,59.95096010413987,
,7,2,7,7,0,5,66,,train_dim1_1,14,30,,,,2,0,2,0,,,,,,,,,0,0,0,0,0,13,13,13,1,0,1,0,,,,,,,,,,,,,,,,,,,,,,,,,,,,,,,,,,,,,,,,,,,,,,,,,,,,,,,,,,,,,,,,30,,,,,,,,1306.3136391999433,1306.3136391999433,1306.3136391999433,1306.3136391999433,1306.3136391999433,up,0.6264964999863878,6,0,0,99,0.4,-0.07999999999999997,up,0.5390221000416204,,,,,,,,,,,,,,,,,,,,,,,,,,,,,,,,,,,,,,,,,,,,,,,,,,,,,,,,,,,,ATJF2G,train_y,blue_star,bottom_right,2025-03-15_13h02.40.869,HideSeek_v1,2022.2.5,59.95096010413987,
,7,2,7,7,0,5,66,,train_dim1_1,14,30,,,,2,0,2,0,,,,,,,,,0,0,0,0,0,13,13,13,2,0,2,0,,,,,,,,,,,,,,,,,,,,,,,,,,,,,,,,,,,,,,,,,,,,,,,,,,,,,,,,,,,,,,,,30,,,,,,,,1306.9471238999395,1306.9471238999395,1306.9471238999395,1306.9471238999395,1306.9471238999395,up,0.5438651000149548,6,0,0,99,0.4,2.7755575615628914e-17,up,0.4684560000896454,,,,,,,,,,,,,,,,,,,,,,,,,,,,,,,,,,,,,,,,,,,,,,,,,,,,,,,,,,,,ATJF2G,train_y,blue_star,bottom_right,2025-03-15_13h02.40.869,HideSeek_v1,2022.2.5,59.95096010413987,
,7,2,7,7,0,5,66,,train_dim1_1,14,30,,,,2,0,2,0,,,,,,,,,0,0,0,0,0,13,13,13,3,0,3,0,,,,,,,,,,,,,,,,,,,,,,,,,,,,,,,,,,,,,,,,,,,,,,,,,,,,,,,,,,,,,,,,30,,,,,,,,1307.4984153999249,1307.4984153999249,1307.4984153999249,1307.4984153999249,1307.4984153999249,up,0.5261795000405982,6,0,0,99,0.4,0.08000000000000003,up,0.4458343000151217,,,,,,,,,,,,,,,,,,,,,,,,,,,,,,,,,,,,,,,,,,,,,,,,,,,,,,,,,,,,ATJF2G,train_y,blue_star,bottom_right,2025-03-15_13h02.40.869,HideSeek_v1,2022.2.5,59.95096010413987,
,7,2,7,7,0,5,66,,train_dim1_1,14,30,,,,2,0,2,0,,,,,,,,,0,0,0,0,0,13,13,13,4,0,4,0,,,,,,,,,,,,,,,,,,,,,,,,,,,,,,,,,,,,,,,,,,,,,,,,,,,,,,,,,,,,,,,,30,,,,,,,,1308.0411029999377,1308.0411029999377,1308.0411029999377,1308.0411029999377,1308.0411029999377,up,0.47648599999956787,6,0,0,99,0.4,0.16000000000000003,up,0.3939097000984475,,,,,,,,,,,,,,,,,,,,,,,,,,,,,,,,,,,,,,,,,,,,,,,,,,,,,,,,,,,,ATJF2G,train_y,blue_star,bottom_right,2025-03-15_13h02.40.869,HideSeek_v1,2022.2.5,59.95096010413987,
,7,2,7,7,0,5,66,,train_dim1_1,14,30,,,,2,0,2,0,,,,,,,,,0,0,0,0,0,13,13,13,5,0,5,0,,,,,,,,,,,,,,,,,,,,,,,,,,,,,,,,,,,,,,,,,,,,,,,,,,,,,,,,,,,,,,,,30,,,,,,,,1308.5159795000218,1308.5159795000218,1308.5159795000218,1308.5159795000218,1308.5159795000218,return,1.1603410000680014,7,0,0,1,0.4,0.16000000000000003,return,1.0712574999779463,34,-5,0.4,0.16000000000000003,,,,,,,,,,,,,,,,,,,,,,,,,,,,,,,,,,,,,,,,,,,,,,,,,,,,,,,,ATJF2G,train_y,blue_star,bottom_right,2025-03-15_13h02.40.869,HideSeek_v1,2022.2.5,59.95096010413987,
,6,4,6,7,0,3,64,,train_dim1_1,15,30,,,,2,0,2,0,,,,,,,,,0,0,0,0,0,14,14,14,0,0,0,0,,,,,,,,,,,,,,,,,,,,,,,,,stimuli/alien_stimuli/64.png,,,,,,,,,,,,,,,,,,,,,,,,,,,,,stimuli/alien_stimuli/66.png,66,7,16,,,,,,,30,,,,,,,,1315.8268220999744,1315.8268220999744,1315.8268220999744,1315.8268220999744,1315.8268220999744,up,3.7397294000256807,7,0,0,99,0.32,0.0,up,3.6598840999649838,,,,,1314.2730943999486,1315.8268220999744,0.4,0.16,0.4,0.0,-0.039999999999999994,0.4,0.4,0.4,0.16,1311.2415906999959,1311.2415906999959,1311.2415906999959,1311.2415906999959,1311.2415906999959,1311.2415906999959,1311.2415906999959,1311.2415906999959,1311.2371501599437,3.1380358999595046,return,3.0040425000479445,,,,,,,,,,,,,,,,,,,,,,,,,,,,,,,,,ATJF2G,train_y,blue_star,bottom_right,2025-03-15_13h02.40.869,HideSeek_v1,2022.2.5,59.95096010413987,
,6,4,6,7,0,3,64,,train_dim1_1,15,30,,,,2,0,2,0,,,,,,,,,0,0,0,0,0,14,14,14,1,0,1,0,,,,,,,,,,,,,,,,,,,,,,,,,,,,,,,,,,,,,,,,,,,,,,,,,,,,,,,,,,,,,,,,30,,,,,,,,1319.5741784999846,1319.5741784999846,1319.5741784999846,1319.5741784999846,1319.5741784999846,up,0.5598993999883533,7,0,0,99,0.32,0.08,up,0.472279499983415,,,,,,,,,,,,,,,,,,,,,,,,,,,,,,,,,,,,,,,,,,,,,,,,,,,,,,,,,,,,ATJF2G,train_y,blue_star,bottom_right,2025-03-15_13h02.40.869,HideSeek_v1,2022.2.5,59.95096010413987,
,6,4,6,7,0,3,64,,train_dim1_1,15,30,,,,2,0,2,0,,,,,,,,,0,0,0,0,0,14,14,14,2,0,2,0,,,,,,,,,,,,,,,,,,,,,,,,,,,,,,,,,,,,,,,,,,,,,,,,,,,,,,,,,,,,,,,,30,,,,,,,,1320.1413276999956,1320.1413276999956,1320.1413276999956,1320.1413276999956,1320.1413276999956,up,0.6434144000522792,7,0,0,99,0.32,0.16,up,0.5600289999274537,,,,,,,,,,,,,,,,,,,,,,,,,,,,,,,,,,,,,,,,,,,,,,,,,,,,,,,,,,,,ATJF2G,train_y,blue_star,bottom_right,2025-03-15_13h02.40.869,HideSeek_v1,2022.2.5,59.95096010413987,
,6,4,6,7,0,3,64,,train_dim1_1,15,30,,,,2,0,2,0,,,,,,,,,0,0,0,0,0,14,14,14,3,0,3,0,,,,,,,,,,,,,,,,,,,,,,,,,,,,,,,,,,,,,,,,,,,,,,,,,,,,,,,,,,,,,,,,30,,,,,,,,1320.7913040999556,1320.7913040999556,1320.7913040999556,1320.7913040999556,1320.7913040999556,return,1.7277803999604657,8,0,0,1,0.32,0.16,return,1.6449633999727666,37,-5,0.32,0.16,,,,,,,,,,,,,,,,,,,,,,,,,,,,,,,,,,,,,,,,,,,,,,,,,,,,,,,,ATJF2G,train_y,blue_star,bottom_right,2025-03-15_13h02.40.869,HideSeek_v1,2022.2.5,59.95096010413987,
,9,0,9,4,0,4,65,,train_dim1_1,16,30,,,,2,0,2,0,,,,,,,,,0,0,0,0,0,15,15,15,0,0,0,0,,,,,,,,,,,,,,,,,,,,,,,,,stimuli/alien_stimuli/65.png,,,,,,,,,,,,,,,,,,,,,,,,,,,,,stimuli/alien_stimuli/64.png,64,6,17,,,,,,,30,,,,,,,,1326.8834111000178,1326.8834111000178,1326.8834111000178,1326.8834111000178,1326.8834111000178,up,4.992950799991377,8,0,0,99,0.56,-0.32,up,4.894267600029707,,,,,1325.3155255999882,1326.8834111000178,0.32,0.16,0.24,0.0,0.04,0.32,0.32,0.32,0.16,1324.0868804999627,1324.0868804999627,1324.0868804999627,1324.0868804999627,1324.0868804999627,1324.0868804999627,1324.0868804999627,1324.0868804999627,1324.0809168599544,1.336884199990891,return,1.209023299976252,,,,,,,,,,,,,,,,,,,,,,,,,,,,,,,,,ATJF2G,train_y,blue_star,bottom_right,2025-03-15_13h02.40.869,HideSeek_v1,2022.2.5,59.95096010413987,
,9,0,9,4,0,4,65,,train_dim1_1,16,30,,,,2,0,2,0,,,,,,,,,0,0,0,0,0,15,15,15,1,0,1,0,,,,,,,,,,,,,,,,,,,,,,,,,,,,,,,,,,,,,,,,,,,,,,,,,,,,,,,,,,,,,,,,30,,,,,,,,1331.869838399929,1331.869838399929,1331.869838399929,1331.869838399929,1331.869838399929,up,0.5090397000312805,8,0,0,99,0.56,-0.24,up,0.4304568999214098,,,,,,,,,,,,,,,,,,,,,,,,,,,,,,,,,,,,,,,,,,,,,,,,,,,,,,,,,,,,ATJF2G,train_y,blue_star,bottom_right,2025-03-15_13h02.40.869,HideSeek_v1,2022.2.5,59.95096010413987,
,9,0,9,4,0,4,65,,train_dim1_1,16,30,,,,2,0,2,0,,,,,,,,,0,0,0,0,0,15,15,15,2,0,2,0,,,,,,,,,,,,,,,,,,,,,,,,,,,,,,,,,,,,,,,,,,,,,,,,,,,,,,,,,,,,,,,,30,,,,,,,,1332.3849106999114,1332.3849106999114,1332.3849106999114,1332.3849106999114,1332.3849106999114,up,0.5436236000386998,8,0,0,99,0.56,-0.15999999999999998,up,0.46226069994736463,,,,,,,,,,,,,,,,,,,,,,,,,,,,,,,,,,,,,,,,,,,,,,,,,,,,,,,,,,,,ATJF2G,train_y,blue_star,bottom_right,2025-03-15_13h02.40.869,HideSeek_v1,2022.2.5,59.95096010413987,
,9,0,9,4,0,4,65,,train_dim1_1,16,30,,,,2,0,2,0,,,,,,,,,0,0,0,0,0,15,15,15,3,0,3,0,,,,,,,,,,,,,,,,,,,,,,,,,,,,,,,,,,,,,,,,,,,,,,,,,,,,,,,,,,,,,,,,30,,,,,,,,1332.9354502999922,1332.9354502999922,1332.9354502999922,1332.9354502999922,1332.9354502999922,up,0.5430711000226438,8,0,0,99,0.56,-0.07999999999999997,up,0.46596090006642044,,,,,,,,,,,,,,,,,,,,,,,,,,,,,,,,,,,,,,,,,,,,,,,,,,,,,,,,,,,,ATJF2G,train_y,blue_star,bottom_right,2025-03-15_13h02.40.869,HideSeek_v1,2022.2.5,59.95096010413987,
,9,0,9,4,0,4,65,,train_dim1_1,16,30,,,,2,0,2,0,,,,,,,,,0,0,0,0,0,15,15,15,4,0,4,0,,,,,,,,,,,,,,,,,,,,,,,,,,,,,,,,,,,,,,,,,,,,,,,,,,,,,,,,,,,,,,,,30,,,,,,,,1333.4862635999452,1333.4862635999452,1333.4862635999452,1333.4862635999452,1333.4862635999452,return,0.5931124000344425,9,0,0,1,0.56,-0.07999999999999997,return,0.5156922000460327,41,-5,0.56,-0.07999999999999997,,,,,,,,,,,,,,,,,,,,,,,,,,,,,,,,,,,,,,,,,,,,,,,,,,,,,,,,ATJF2G,train_y,blue_star,bottom_right,2025-03-15_13h02.40.869,HideSeek_v1,2022.2.5,59.95096010413987,
,8,3,8,6,0,3,64,,train_dim1_1,17,30,,,,2,0,2,0,,,,,,,,,0,0,0,0,0,16,16,16,0,0,0,0,,,,,,,,,,,,,,,,,,,,,,,,,stimuli/alien_stimuli/64.png,,,,,,,,,,,,,,,,,,,,,,,,,,,,,stimuli/alien_stimuli/65.png,65,9,18,,,,,,,30,,,,,,,,1338.1608347999863,1338.1608347999863,1338.1608347999863,1338.1608347999863,1338.1608347999863,up,7.411184099968523,9,0,0,99,0.48,-0.08,up,7.333789100055583,,,,,1336.607998099993,1338.1608347999863,0.56,-0.08,0.32,0.0,-0.24000000000000002,0.56,0.56,0.56,-0.08,1335.6459787000204,1335.6459787000204,1335.6459787000204,1335.6459787000204,1335.6459787000204,1335.6459787000204,1335.6459787000204,1335.6459787000204,1335.640574159962,1.0692945000482723,return,0.9382514000171795,,,,,,,,,,,,,,,,,,,,,,,,,,,,,,,,,ATJF2G,train_y,blue_star,bottom_right,2025-03-15_13h02.40.869,HideSeek_v1,2022.2.5,59.95096010413987,
,8,3,8,6,0,3,64,,train_dim1_1,17,30,,,,2,0,2,0,,,,,,,,,0,0,0,0,0,16,16,16,1,0,1,0,,,,,,,,,,,,,,,,,,,,,,,,,,,,,,,,,,,,,,,,,,,,,,,,,,,,,,,,,,,,,,,,30,,,,,,,,1345.5805693999864,1345.5805693999864,1345.5805693999864,1345.5805693999864,1345.5805693999864,up,0.5423475001007318,9,0,0,99,0.48,0.0,up,0.4636179000372067,,,,,,,,,,,,,,,,,,,,,,,,,,,,,,,,,,,,,,,,,,,,,,,,,,,,,,,,,,,,ATJF2G,train_y,blue_star,bottom_right,2025-03-15_13h02.40.869,HideSeek_v1,2022.2.5,59.95096010413987,
,8,3,8,6,0,3,64,,train_dim1_1,17,30,,,,2,0,2,0,,,,,,,,,0,0,0,0,0,16,16,16,2,0,2,0,,,,,,,,,,,,,,,,,,,,,,,,,,,,,,,,,,,,,,,,,,,,,,,,,,,,,,,,,,,,,,,,30,,,,,,,,1346.131114799995,1346.131114799995,1346.131114799995,1346.131114799995,1346.131114799995,up,0.44368799997027963,9,0,0,99,0.48,0.08,up,0.36722540005575866,,,,,,,,,,,,,,,,,,,,,,,,,,,,,,,,,,,,,,,,,,,,,,,,,,,,,,,,,,,,ATJF2G,train_y,blue_star,bottom_right,2025-03-15_13h02.40.869,HideSeek_v1,2022.2.5,59.95096010413987,
,8,3,8,6,0,3,64,,train_dim1_1,17,30,,,,2,0,2,0,,,,,,,,,0,0,0,0,0,16,16,16,3,0,3,0,,,,,,,,,,,,,,,,,,,,,,,,,,,,,,,,,,,,,,,,,,,,,,,,,,,,,,,,,,,,,,,,30,,,,,,,,1346.581285299966,1346.581285299966,1346.581285299966,1346.581285299966,1346.581285299966,return,0.8599257000023499,10,0,0,1,0.48,0.08,return,0.7845372000010684,44,-5,0.48,0.08,,,,,,,,,,,,,,,,,,,,,,,,,,,,,,,,,,,,,,,,,,,,,,,,,,,,,,,,ATJF2G,train_y,blue_star,bottom_right,2025-03-15_13h02.40.869,HideSeek_v1,2022.2.5,59.95096010413987,
,7,1,7,1,0,0,61,,train_dim1_1,18,30,,,,2,0,2,0,,,,,,,,,0,0,0,0,0,17,17,17,0,0,0,0,,,,,,,,,,,,,,,,,,,,,,,,,stimuli/alien_stimuli/61.png,,,,,,,,,,,,,,,,,,,,,,,,,,,,,stimuli/alien_stimuli/64.png,64,8,19,,,,,,,30,,,,,,,,1351.0557046999456,1351.0557046999456,1351.0557046999456,1351.0557046999456,1351.0557046999456,return,2.2242238000035286,11,0,0,1,0.4,-0.32,return,2.134663200005889,44,-5,0.4,-0.32,1349.5020253999392,1351.0557046999456,0.48,0.08,0.24,0.0,-0.04,0.48,0.48,0.48,0.08,1349.0065628999146,1349.0065628999146,1349.0065628999146,1349.0065628999146,1349.0065628999146,1349.0065628999146,1349.0065628999146,1349.0065628999146,1349.002091559977,0.6022013999754563,return,0.47550940001383424,,,,,,,,,,,,,,,,,,,,,,,,,,,,,,,,,ATJF2G,train_y,blue_star,bottom_right,2025-03-15_13h02.40.869,HideSeek_v1,2022.2.5,59.95096010413987,
,5,4,5,5,0,1,62,,train_dim1_1,19,30,,,,2,0,2,0,,,,,,,,,0,0,0,0,0,18,18,18,0,0,0,0,,,,,,,,,,,,,,,,,,,,,,,,,stimuli/alien_stimuli/62.png,,,,,,,,,,,,,,,,,,,,,,,,,,,,,stimuli/alien_stimuli/61.png,61,7,20,,,,,,,30,,,,,,,,1357.8172310999362,1357.8172310999362,1357.8172310999362,1357.8172310999362,1357.8172310999362,up,7.004960700054653,11,0,0,99,0.24,0.0,up,6.917919600033201,,,,,1356.2576305000111,1357.8172310999362,0.4,-0.32,0.0,0.0,-0.32,0.4,0.4,0.4,-0.32,1354.8326995999087,1354.8326995999087,1354.8326995999087,1354.8326995999087,1354.8326995999087,1354.8326995999087,1354.8326995999087,1354.8326995999087,1354.823207779927,1.5199646999826655,return,1.3987531999591738,,,,,,,,,,,,,,,,,,,,,,,,,,,,,,,,,ATJF2G,train_y,blue_star,bottom_right,2025-03-15_13h02.40.869,HideSeek_v1,2022.2.5,59.95096010413987,
,5,4,5,5,0,1,62,,train_dim1_1,19,30,,,,2,0,2,0,,,,,,,,,0,0,0,0,0,18,18,18,1,0,1,0,,,,,,,,,,,,,,,,,,,,,,,,,,,,,,,,,,,,,,,,,,,,,,,,,,,,,,,,,,,,,,,,30,,,,,,,,1364.8463870999403,1364.8463870999403,1364.8463870999403,1364.8463870999403,1364.8463870999403,return,0.7259361000033095,12,0,0,1,0.24,0.0,return,0.6265247000847012,45,-5,0.24,0.0,,,,,,,,,,,,,,,,,,,,,,,,,,,,,,,,,,,,,,,,,,,,,,,,,,,,,,,,ATJF2G,train_y,blue_star,bottom_right,2025-03-15_13h02.40.869,HideSeek_v1,2022.2.5,59.95096010413987,
,7,0,7,5,0,5,66,,train_dim1_1,20,30,,,,2,0,2,0,,,,,,,,,0,0,0,0,0,19,19,19,0,0,0,0,,,,,,,,,,,,,,,,,,,,,,,,,stimuli/alien_stimuli/66.png,,,,,,,,,,,,,,,,,,,,,,,,,,,,,stimuli/alien_stimuli/62.png,62,5,21,,,,,,,30,,,,,,,,1370.1397910999367,1370.1397910999367,1370.1397910999367,1370.1397910999367,1370.1397910999367,up,2.1878109000390396,12,0,0,99,0.4,-0.32,up,2.102939400007017,,,,,1368.5844226999907,1370.1397910999367,0.24,0,0.08,0.0,-0.04,0.24,0.24,0.24,0,1367.1277173999697,1367.1277173999697,1367.1277173999697,1367.1277173999697,1367.1277173999697,1367.1277173999697,1367.1277173999697,1367.1277173999697,1367.1167048599336,1.5698479999555275,return,1.4248881000094116,,,,,,,,,,,,,,,,,,,,,,,,,,,,,,,,,ATJF2G,train_y,blue_star,bottom_right,2025-03-15_13h02.40.869,HideSeek_v1,2022.2.5,59.95096010413987,
,7,0,7,5,0,5,66,,train_dim1_1,20,30,,,,2,0,2,0,,,,,,,,,0,0,0,0,0,19,19,19,1,0,1,0,,,,,,,,,,,,,,,,,,,,,,,,,,,,,,,,,,,,,,,,,,,,,,,,,,,,,,,,,,,,,,,,30,,,,,,,,1372.3357647999655,1372.3357647999655,1372.3357647999655,1372.3357647999655,1372.3357647999655,up,0.5431817000498995,12,0,0,99,0.4,-0.24,up,0.4603769000386819,,,,,,,,,,,,,,,,,,,,,,,,,,,,,,,,,,,,,,,,,,,,,,,,,,,,,,,,,,,,ATJF2G,train_y,blue_star,bottom_right,2025-03-15_13h02.40.869,HideSeek_v1,2022.2.5,59.95096010413987,
,7,0,7,5,0,5,66,,train_dim1_1,20,30,,,,2,0,2,0,,,,,,,,,0,0,0,0,0,19,19,19,2,0,2,0,,,,,,,,,,,,,,,,,,,,,,,,,,,,,,,,,,,,,,,,,,,,,,,,,,,,,,,,,,,,,,,,30,,,,,,,,1372.8846681999275,1372.8846681999275,1372.8846681999275,1372.8846681999275,1372.8846681999275,up,0.5436932999873534,12,0,0,99,0.4,-0.15999999999999998,up,0.46362120006233454,,,,,,,,,,,,,,,,,,,,,,,,,,,,,,,,,,,,,,,,,,,,,,,,,,,,,,,,,,,,ATJF2G,train_y,blue_star,bottom_right,2025-03-15_13h02.40.869,HideSeek_v1,2022.2.5,59.95096010413987,
,7,0,7,5,0,5,66,,train_dim1_1,20,30,,,,2,0,2,0,,,,,,,,,0,0,0,0,0,19,19,19,3,0,3,0,,,,,,,,,,,,,,,,,,,,,,,,,,,,,,,,,,,,,,,,,,,,,,,,,,,,,,,,,,,,,,,,30,,,,,,,,1373.4359581000172,1373.4359581000172,1373.4359581000172,1373.4359581000172,1373.4359581000172,up,0.6430701999925077,12,0,0,99,0.4,-0.07999999999999997,up,0.5540959999198094,,,,,,,,,,,,,,,,,,,,,,,,,,,,,,,,,,,,,,,,,,,,,,,,,,,,,,,,,,,,ATJF2G,train_y,blue_star,bottom_right,2025-03-15_13h02.40.869,HideSeek_v1,2022.2.5,59.95096010413987,
,7,0,7,5,0,5,66,,train_dim1_1,20,30,,,,2,0,2,0,,,,,,,,,0,0,0,0,0,19,19,19,4,0,4,0,,,,,,,,,,,,,,,,,,,,,,,,,,,,,,,,,,,,,,,,,,,,,,,,,,,,,,,,,,,,,,,,30,,,,,,,,1374.0898017999716,1374.0898017999716,1374.0898017999716,1374.0898017999716,1374.0898017999716,up,0.590576900052838,12,0,0,99,0.4,2.7755575615628914e-17,up,0.51536830002442,,,,,,,,,,,,,,,,,,,,,,,,,,,,,,,,,,,,,,,,,,,,,,,,,,,,,,,,,,,,ATJF2G,train_y,blue_star,bottom_right,2025-03-15_13h02.40.869,HideSeek_v1,2022.2.5,59.95096010413987,
,7,0,7,5,0,5,66,,train_dim1_1,20,30,,,,2,0,2,0,,,,,,,,,0,0,0,0,0,19,19,19,5,0,5,0,,,,,,,,,,,,,,,,,,,,,,,,,,,,,,,,,,,,,,,,,,,,,,,,,,,,,,,,,,,,,,,,30,,,,,,,,1374.6871859999374,1374.6871859999374,1374.6871859999374,1374.6871859999374,1374.6871859999374,return,0.5770017000613734,13,0,0,1,0.4,2.7755575615628914e-17,return,0.49995889991987497,50,-5,0.4,2.7755575615628914e-17,,,,,,,,,,,,,,,,,,,,,,,,,,,,,,,,,,,,,,,,,,,,,,,,,,,,,,,,ATJF2G,train_y,blue_star,bottom_right,2025-03-15_13h02.40.869,HideSeek_v1,2022.2.5,59.95096010413987,
,7,4,7,8,0,4,65,,train_dim1_1,21,30,,,,2,0,2,0,,,,,,,,,0,0,0,0,0,20,20,20,0,0,0,0,,,,,,,,,,,,,,,,,,,,,,,,,stimuli/alien_stimuli/65.png,,,,,,,,,,,,,,,,,,,,,,,,,,,,,stimuli/alien_stimuli/66.png,66,7,22,,,,,,,30,,,,,,,,1379.334157699952,1379.334157699952,1379.334157699952,1379.334157699952,1379.334157699952,up,2.7083368999883533,13,0,0,99,0.4,0.0,up,2.621838800027035,,,,,1377.7755104999524,1379.334157699952,0.4,0,0.4,0.0,-0.2,0.4,0.4,0.4,0,1376.8198069999926,1376.8198069999926,1376.8198069999926,1376.8198069999926,1376.8198069999926,1376.8198069999926,1376.8198069999926,1376.8198069999926,1376.8081551799783,1.0529086999595165,return,0.9318919000215828,,,,,,,,,,,,,,,,,,,,,,,,,,,,,,,,,ATJF2G,train_y,blue_star,bottom_right,2025-03-15_13h02.40.869,HideSeek_v1,2022.2.5,59.95096010413987,
,7,4,7,8,0,4,65,,train_dim1_1,21,30,,,,2,0,2,0,,,,,,,,,0,0,0,0,0,20,20,20,1,0,1,0,,,,,,,,,,,,,,,,,,,,,,,,,,,,,,,,,,,,,,,,,,,,,,,,,,,,,,,,,,,,,,,,30,,,,,,,,1382.044485099963,1382.044485099963,1382.044485099963,1382.044485099963,1382.044485099963,up,0.5589592000469565,13,0,0,99,0.4,0.08,up,0.48041610000655055,,,,,,,,,,,,,,,,,,,,,,,,,,,,,,,,,,,,,,,,,,,,,,,,,,,,,,,,,,,,ATJF2G,train_y,blue_star,bottom_right,2025-03-15_13h02.40.869,HideSeek_v1,2022.2.5,59.95096010413987,
,7,4,7,8,0,4,65,,train_dim1_1,21,30,,,,2,0,2,0,,,,,,,,,0,0,0,0,0,20,20,20,2,0,2,0,,,,,,,,,,,,,,,,,,,,,,,,,,,,,,,,,,,,,,,,,,,,,,,,,,,,,,,,,,,,,,,,30,,,,,,,,1382.6095128000015,1382.6095128000015,1382.6095128000015,1382.6095128000015,1382.6095128000015,up,0.6602753000333905,13,0,0,99,0.4,0.16,up,0.5726079000160098,,,,,,,,,,,,,,,,,,,,,,,,,,,,,,,,,,,,,,,,,,,,,,,,,,,,,,,,,,,,ATJF2G,train_y,blue_star,bottom_right,2025-03-15_13h02.40.869,HideSeek_v1,2022.2.5,59.95096010413987,
,7,4,7,8,0,4,65,,train_dim1_1,21,30,,,,2,0,2,0,,,,,,,,,0,0,0,0,0,20,20,20,3,0,3,0,,,,,,,,,,,,,,,,,,,,,,,,,,,,,,,,,,,,,,,,,,,,,,,,,,,,,,,,,,,,,,,,30,,,,,,,,1383.2775736999465,1383.2775736999465,1383.2775736999465,1383.2775736999465,1383.2775736999465,up,0.5768360000802204,13,0,0,99,0.4,0.24,up,0.4883281000657007,,,,,,,,,,,,,,,,,,,,,,,,,,,,,,,,,,,,,,,,,,,,,,,,,,,,,,,,,,,,ATJF2G,train_y,blue_star,bottom_right,2025-03-15_13h02.40.869,HideSeek_v1,2022.2.5,59.95096010413987,
,7,4,7,8,0,4,65,,train_dim1_1,21,30,,,,2,0,2,0,,,,,,,,,0,0,0,0,0,20,20,20,4,0,4,0,,,,,,,,,,,,,,,,,,,,,,,,,,,,,,,,,,,,,,,,,,,,,,,,,,,,,,,,,,,,,,,,30,,,,,,,,1383.8637634000042,1383.8637634000042,1383.8637634000042,1383.8637634000042,1383.8637634000042,return,0.6100442999741063,14,0,0,1,0.4,0.24,return,0.5343044999754056,54,-5,0.4,0.24,,,,,,,,,,,,,,,,,,,,,,,,,,,,,,,,,,,,,,,,,,,,,,,,,,,,,,,,ATJF2G,train_y,blue_star,bottom_right,2025-03-15_13h02.40.869,HideSeek_v1,2022.2.5,59.95096010413987,
,5,2,5,5,0,3,64,,train_dim1_1,22,30,,,,2,0,2,0,,,,,,,,,0,0,0,0,0,21,21,21,0,0,0,0,,,,,,,,,,,,,,,,,,,,,,,,,stimuli/alien_stimuli/64.png,,,,,,,,,,,,,,,,,,,,,,,,,,,,,stimuli/alien_stimuli/65.png,65,7,23,,,,,,,30,,,,,,,,1388.4728646000149,1388.4728646000149,1388.4728646000149,1388.4728646000149,1388.4728646000149,up,3.521385000087321,14,0,0,99,0.24,-0.15999999999999998,up,3.4400887999217957,,,,,1386.9162726999493,1388.4728646000149,0.4,0.24,0.32,0.0,0.07999999999999999,0.4,0.4,0.4,0.24,1386.021999699995,1386.021999699995,1386.021999699995,1386.021999699995,1386.021999699995,1386.021999699995,1386.021999699995,1386.021999699995,1386.0156574800144,0.9863517999183387,return,0.8706583000021055,,,,,,,,,,,,,,,,,,,,,,,,,,,,,,,,,ATJF2G,train_y,blue_star,bottom_right,2025-03-15_13h02.40.869,HideSeek_v1,2022.2.5,59.95096010413987,
,5,2,5,5,0,3,64,,train_dim1_1,22,30,,,,2,0,2,0,,,,,,,,,0,0,0,0,0,21,21,21,1,0,1,0,,,,,,,,,,,,,,,,,,,,,,,,,,,,,,,,,,,,,,,,,,,,,,,,,,,,,,,,,,,,,,,,30,,,,,,,,1392.000929599977,1392.000929599977,1392.000929599977,1392.000929599977,1392.000929599977,up,0.5265772000420839,14,0,0,99,0.24,-0.07999999999999997,up,0.4387550000101328,,,,,,,,,,,,,,,,,,,,,,,,,,,,,,,,,,,,,,,,,,,,,,,,,,,,,,,,,,,,ATJF2G,train_y,blue_star,bottom_right,2025-03-15_13h02.40.869,HideSeek_v1,2022.2.5,59.95096010413987,
,5,2,5,5,0,3,64,,train_dim1_1,22,30,,,,2,0,2,0,,,,,,,,,0,0,0,0,0,21,21,21,2,0,2,0,,,,,,,,,,,,,,,,,,,,,,,,,,,,,,,,,,,,,,,,,,,,,,,,,,,,,,,,,,,,,,,,30,,,,,,,,1392.5338940999936,1392.5338940999936,1392.5338940999936,1392.5338940999936,1392.5338940999936,up,0.4601109999930486,14,0,0,99,0.24,2.7755575615628914e-17,up,0.37375589995644987,,,,,,,,,,,,,,,,,,,,,,,,,,,,,,,,,,,,,,,,,,,,,,,,,,,,,,,,,,,,ATJF2G,train_y,blue_star,bottom_right,2025-03-15_13h02.40.869,HideSeek_v1,2022.2.5,59.95096010413987,
,5,2,5,5,0,3,64,,train_dim1_1,22,30,,,,2,0,2,0,,,,,,,,,0,0,0,0,0,21,21,21,3,0,3,0,,,,,,,,,,,,,,,,,,,,,,,,,,,,,,,,,,,,,,,,,,,,,,,,,,,,,,,,,,,,,,,,30,,,,,,,,1393.0037261999678,1393.0037261999678,1393.0037261999678,1393.0037261999678,1393.0037261999678,return,0.9103408000664786,15,0,0,1,0.24,2.7755575615628914e-17,return,0.8276064000092447,57,-5,0.24,2.7755575615628914e-17,,,,,,,,,,,,,,,,,,,,,,,,,,,,,,,,,,,,,,,,,,,,,,,,,,,,,,,,ATJF2G,train_y,blue_star,bottom_right,2025-03-15_13h02.40.869,HideSeek_v1,2022.2.5,59.95096010413987,
,5,3,5,3,0,0,61,,train_dim1_1,23,30,,,,2,0,2,0,,,,,,,,,0,0,0,0,0,22,22,22,0,0,0,0,,,,,,,,,,,,,,,,,,,,,,,,,stimuli/alien_stimuli/61.png,,,,,,,,,,,,,,,,,,,,,,,,,,,,,stimuli/alien_stimuli/64.png,64,5,24,,,,,,,30,,,,,,,,1401.6823836999247,1401.6823836999247,1401.6823836999247,1401.6823836999247,1401.6823836999247,return,1.6550992999691516,16,0,0,1,0.24,-0.16,return,1.5767051000148058,57,-5,0.24,-0.16,1400.1275424999185,1401.6823836999247,0.24,0,0.24,0.0,-0.12,0.24,0.24,0.24,0,1395.480781499995,1395.480781499995,1395.480781499995,1395.480781499995,1395.480781499995,1395.480781499995,1395.480781499995,1395.480781499995,1395.4735138599526,4.756330100004561,return,4.626023999997415,,,,,,,,,,,,,,,,,,,,,,,,,,,,,,,,,ATJF2G,train_y,blue_star,bottom_right,2025-03-15_13h02.40.869,HideSeek_v1,2022.2.5,59.95096010413987,
,8,2,8,7,0,5,66,,train_dim1_1,24,30,,,,2,0,2,0,,,,,,,,,0,0,0,0,0,23,23,23,0,0,0,0,,,,,,,,,,,,,,,,,,,,,,,,,stimuli/alien_stimuli/66.png,,,,,,,,,,,,,,,,,,,,,,,,,,,,,stimuli/alien_stimuli/61.png,61,5,25,,,,,,,30,,,,,,,,1407.5185799999163,1407.5185799999163,1407.5185799999163,1407.5185799999163,1407.5185799999163,up,2.4398736999137327,16,0,0,99,0.48,-0.15999999999999998,up,2.3620131999487057,,,,,1405.9656867999583,1407.5185799999163,0.24,-0.16,0.0,0.0,-0.16,0.24,0.24,0.24,-0.16,1404.8912419999251,1404.8912419999251,1404.8912419999251,1404.8912419999251,1404.8912419999251,1404.8912419999251,1404.8912419999251,1404.8912419999251,1404.8815615800208,1.169698299956508,return,1.0568032000446692,,,,,,,,,,,,,,,,,,,,,,,,,,,,,,,,,ATJF2G,train_y,blue_star,bottom_right,2025-03-15_13h02.40.869,HideSeek_v1,2022.2.5,59.95096010413987,
,8,2,8,7,0,5,66,,train_dim1_1,24,30,,,,2,0,2,0,,,,,,,,,0,0,0,0,0,23,23,23,1,0,1,0,,,,,,,,,,,,,,,,,,,,,,,,,,,,,,,,,,,,,,,,,,,,,,,,,,,,,,,,,,,,,,,,30,,,,,,,,1409.9672914999537,1409.9672914999537,1409.9672914999537,1409.9672914999537,1409.9672914999537,up,0.4590045000659302,16,0,0,99,0.48,-0.07999999999999997,up,0.37368920003063977,,,,,,,,,,,,,,,,,,,,,,,,,,,,,,,,,,,,,,,,,,,,,,,,,,,,,,,,,,,,ATJF2G,train_y,blue_star,bottom_right,2025-03-15_13h02.40.869,HideSeek_v1,2022.2.5,59.95096010413987,
,8,2,8,7,0,5,66,,train_dim1_1,24,30,,,,2,0,2,0,,,,,,,,,0,0,0,0,0,23,23,23,2,0,2,0,,,,,,,,,,,,,,,,,,,,,,,,,,,,,,,,,,,,,,,,,,,,,,,,,,,,,,,,,,,,,,,,30,,,,,,,,1410.4330755999545,1410.4330755999545,1410.4330755999545,1410.4330755999545,1410.4330755999545,up,0.5100853000767529,16,0,0,99,0.48,2.7755575615628914e-17,up,0.4214763999916613,,,,,,,,,,,,,,,,,,,,,,,,,,,,,,,,,,,,,,,,,,,,,,,,,,,,,,,,,,,,ATJF2G,train_y,blue_star,bottom_right,2025-03-15_13h02.40.869,HideSeek_v1,2022.2.5,59.95096010413987,
,8,2,8,7,0,5,66,,train_dim1_1,24,30,,,,2,0,2,0,,,,,,,,,0,0,0,0,0,23,23,23,3,0,3,0,,,,,,,,,,,,,,,,,,,,,,,,,,,,,,,,,,,,,,,,,,,,,,,,,,,,,,,,,,,,,,,,30,,,,,,,,1410.9508471000008,1410.9508471000008,1410.9508471000008,1410.9508471000008,1410.9508471000008,up,0.6268552999245003,16,0,0,99,0.48,0.08000000000000003,up,0.5443199999863282,,,,,,,,,,,,,,,,,,,,,,,,,,,,,,,,,,,,,,,,,,,,,,,,,,,,,,,,,,,,ATJF2G,train_y,blue_star,bottom_right,2025-03-15_13h02.40.869,HideSeek_v1,2022.2.5,59.95096010413987,
,8,2,8,7,0,5,66,,train_dim1_1,24,30,,,,2,0,2,0,,,,,,,,,0,0,0,0,0,23,23,23,4,0,4,0,,,,,,,,,,,,,,,,,,,,,,,,,,,,,,,,,,,,,,,,,,,,,,,,,,,,,,,,,,,,,,,,30,,,,,,,,1411.583677999908,1411.583677999908,1411.583677999908,1411.583677999908,1411.583677999908,up,0.509939800016582,16,0,0,99,0.48,0.16000000000000003,up,0.4288278999738395,,,,,,,,,,,,,,,,,,,,,,,,,,,,,,,,,,,,,,,,,,,,,,,,,,,,,,,,,,,,ATJF2G,train_y,blue_star,bottom_right,2025-03-15_13h02.40.869,HideSeek_v1,2022.2.5,59.95096010413987,
,8,2,8,7,0,5,66,,train_dim1_1,24,30,,,,2,0,2,0,,,,,,,,,0,0,0,0,0,23,23,23,5,0,5,0,,,,,,,,,,,,,,,,,,,,,,,,,,,,,,,,,,,,,,,,,,,,,,,,,,,,,,,,,,,,,,,,30,,,,,,,,1412.1009693999076,1412.1009693999076,1412.1009693999076,1412.1009693999076,1412.1009693999076,return,0.40957709995564073,17,0,0,1,0.48,0.16000000000000003,return,0.3288909000111744,62,-5,0.48,0.16000000000000003,,,,,,,,,,,,,,,,,,,,,,,,,,,,,,,,,,,,,,,,,,,,,,,,,,,,,,,,ATJF2G,train_y,blue_star,bottom_right,2025-03-15_13h02.40.869,HideSeek_v1,2022.2.5,59.95096010413987,
,8,3,8,4,0,1,62,,train_dim1_1,25,30,,,,2,0,2,0,,,,,,,,,0,0,0,0,0,24,24,24,0,0,0,0,,,,,,,,,,,,,,,,,,,,,,,,,stimuli/alien_stimuli/62.png,,,,,,,,,,,,,,,,,,,,,,,,,,,,,stimuli/alien_stimuli/66.png,66,8,26,,,,,,,30,,,,,,,,1416.4749416999985,1416.4749416999985,1416.4749416999985,1416.4749416999985,1416.4749416999985,up,2.2242919999407604,17,0,0,99,0.48,-0.08,up,2.1369131000246853,,,,,1414.9230790999718,1416.4749416999985,0.48,0.16,0.4,0.0,-0.039999999999999994,0.48,0.48,0.48,0.16,1414.0655825999565,1414.0655825999565,1414.0655825999565,1414.0655825999565,1414.0655825999565,1414.0655825999565,1414.0655825999565,1414.0655825999565,1414.055639679916,0.9532040000194684,return,0.827627299935557,,,,,,,,,,,,,,,,,,,,,,,,,,,,,,,,,ATJF2G,train_y,blue_star,bottom_right,2025-03-15_13h02.40.869,HideSeek_v1,2022.2.5,59.95096010413987,
,8,3,8,4,0,1,62,,train_dim1_1,25,30,,,,2,0,2,0,,,,,,,,,0,0,0,0,0,24,24,24,1,0,1,0,,,,,,,,,,,,,,,,,,,,,,,,,,,,,,,,,,,,,,,,,,,,,,,,,,,,,,,,,,,,,,,,30,,,,,,,,1418.7074181999778,1418.7074181999778,1418.7074181999778,1418.7074181999778,1418.7074181999778,return,0.5593486999860033,18,0,0,1,0.48,-0.08,return,0.4837562999455258,63,-5,0.48,-0.08,,,,,,,,,,,,,,,,,,,,,,,,,,,,,,,,,,,,,,,,,,,,,,,,,,,,,,,,ATJF2G,train_y,blue_star,bottom_right,2025-03-15_13h02.40.869,HideSeek_v1,2022.2.5,59.95096010413987,
,9,4,9,7,0,3,64,,train_dim1_1,26,30,,,,2,0,2,0,,,,,,,,,0,0,0,0,0,25,25,25,0,0,0,0,,,,,,,,,,,,,,,,,,,,,,,,,stimuli/alien_stimuli/64.png,,,,,,,,,,,,,,,,,,,,,,,,,,,,,stimuli/alien_stimuli/62.png,62,8,27,,,,,,,30,,,,,,,,1423.4653062999714,1423.4653062999714,1423.4653062999714,1423.4653062999714,1423.4653062999714,up,2.623077500029467,18,0,0,99,0.56,0.0,up,2.5386907999636605,,,,,1421.9121013999684,1423.4653062999714,0.48,-0.08,0.08,0.0,-0.12,0.48,0.48,0.48,-0.08,1420.8258855999447,1420.8258855999447,1420.8258855999447,1420.8258855999447,1420.8258855999447,1420.8258855999447,1420.8258855999447,1420.8258855999447,1420.8114680799422,1.1860550000565127,return,1.0555246999720111,,,,,,,,,,,,,,,,,,,,,,,,,,,,,,,,,ATJF2G,train_y,blue_star,bottom_right,2025-03-15_13h02.40.869,HideSeek_v1,2022.2.5,59.95096010413987,
,9,4,9,7,0,3,64,,train_dim1_1,26,30,,,,2,0,2,0,,,,,,,,,0,0,0,0,0,25,25,25,1,0,1,0,,,,,,,,,,,,,,,,,,,,,,,,,,,,,,,,,,,,,,,,,,,,,,,,,,,,,,,,,,,,,,,,30,,,,,,,,1426.0960495999316,1426.0960495999316,1426.0960495999316,1426.0960495999316,1426.0960495999316,up,0.4762780999299139,18,0,0,99,0.56,0.08,up,0.4029461001046002,,,,,,,,,,,,,,,,,,,,,,,,,,,,,,,,,,,,,,,,,,,,,,,,,,,,,,,,,,,,ATJF2G,train_y,blue_star,bottom_right,2025-03-15_13h02.40.869,HideSeek_v1,2022.2.5,59.95096010413987,
,9,4,9,7,0,3,64,,train_dim1_1,26,30,,,,2,0,2,0,,,,,,,,,0,0,0,0,0,25,25,25,2,0,2,0,,,,,,,,,,,,,,,,,,,,,,,,,,,,,,,,,,,,,,,,,,,,,,,,,,,,,,,,,,,,,,,,30,,,,,,,,1426.5821638000198,1426.5821638000198,1426.5821638000198,1426.5821638000198,1426.5821638000198,up,0.5100898999953642,18,0,0,99,0.56,0.16,up,0.4296787000494078,,,,,,,,,,,,,,,,,,,,,,,,,,,,,,,,,,,,,,,,,,,,,,,,,,,,,,,,,,,,ATJF2G,train_y,blue_star,bottom_right,2025-03-15_13h02.40.869,HideSeek_v1,2022.2.5,59.95096010413987,
,9,4,9,7,0,3,64,,train_dim1_1,26,30,,,,2,0,2,0,,,,,,,,,0,0,0,0,0,25,25,25,3,0,3,0,,,,,,,,,,,,,,,,,,,,,,,,,,,,,,,,,,,,,,,,,,,,,,,,,,,,,,,,,,,,,,,,30,,,,,,,,1427.0962609999115,1427.0962609999115,1427.0962609999115,1427.0962609999115,1427.0962609999115,return,0.4936992999864742,19,0,0,1,0.56,0.16,return,0.4083086000755429,66,-5,0.56,0.16,,,,,,,,,,,,,,,,,,,,,,,,,,,,,,,,,,,,,,,,,,,,,,,,,,,,,,,,ATJF2G,train_y,blue_star,bottom_right,2025-03-15_13h02.40.869,HideSeek_v1,2022.2.5,59.95096010413987,
,8,4,8,9,0,5,66,,train_dim1_1,27,30,,,,2,0,2,0,,,,,,,,,0,0,0,0,0,26,26,26,0,0,0,0,,,,,,,,,,,,,,,,,,,,,,,,,stimuli/alien_stimuli/66.png,,,,,,,,,,,,,,,,,,,,,,,,,,,,,stimuli/alien_stimuli/64.png,64,9,28,,,,,,,30,,,,,,,,1431.437308799941,1431.437308799941,1431.437308799941,1431.437308799941,1431.437308799941,up,1.7408658999484032,19,0,0,99,0.48,0.0,up,1.657242999994196,,,,,1429.8852432999993,1431.437308799941,0.56,0.16,0.24,0.0,0.04,0.56,0.56,0.56,0.16,1429.1482594999252,1429.1482594999252,1429.1482594999252,1429.1482594999252,1429.1482594999252,1429.1482594999252,1429.1482594999252,1429.1482594999252,1429.1349141799378,0.8356902999803424,return,0.7121814999263734,,,,,,,,,,,,,,,,,,,,,,,,,,,,,,,,,ATJF2G,train_y,blue_star,bottom_right,2025-03-15_13h02.40.869,HideSeek_v1,2022.2.5,59.95096010413987,
,8,4,8,9,0,5,66,,train_dim1_1,27,30,,,,2,0,2,0,,,,,,,,,0,0,0,0,0,26,26,26,1,0,1,0,,,,,,,,,,,,,,,,,,,,,,,,,,,,,,,,,,,,,,,,,,,,,,,,,,,,,,,,,,,,,,,,30,,,,,,,,1433.1859767999267,1433.1859767999267,1433.1859767999267,1433.1859767999267,1433.1859767999267,up,0.4754197000293061,19,0,0,99,0.48,0.08,up,0.403554700082168,,,,,,,,,,,,,,,,,,,,,,,,,,,,,,,,,,,,,,,,,,,,,,,,,,,,,,,,,,,,ATJF2G,train_y,blue_star,bottom_right,2025-03-15_13h02.40.869,HideSeek_v1,2022.2.5,59.95096010413987,
,8,4,8,9,0,5,66,,train_dim1_1,27,30,,,,2,0,2,0,,,,,,,,,0,0,0,0,0,26,26,26,2,0,2,0,,,,,,,,,,,,,,,,,,,,,,,,,,,,,,,,,,,,,,,,,,,,,,,,,,,,,,,,,,,,,,,,30,,,,,,,,1433.668687599944,1433.668687599944,1433.668687599944,1433.668687599944,1433.668687599944,up,0.5433722999878228,19,0,0,99,0.48,0.16,up,0.45671719999518245,,,,,,,,,,,,,,,,,,,,,,,,,,,,,,,,,,,,,,,,,,,,,,,,,,,,,,,,,,,,ATJF2G,train_y,blue_star,bottom_right,2025-03-15_13h02.40.869,HideSeek_v1,2022.2.5,59.95096010413987,
,8,4,8,9,0,5,66,,train_dim1_1,27,30,,,,2,0,2,0,,,,,,,,,0,0,0,0,0,26,26,26,3,0,3,0,,,,,,,,,,,,,,,,,,,,,,,,,,,,,,,,,,,,,,,,,,,,,,,,,,,,,,,,,,,,,,,,30,,,,,,,,1434.2193851999473,1434.2193851999473,1434.2193851999473,1434.2193851999473,1434.2193851999473,up,0.9607187999645248,19,0,0,99,0.48,0.24,up,0.8871122000273317,,,,,,,,,,,,,,,,,,,,,,,,,,,,,,,,,,,,,,,,,,,,,,,,,,,,,,,,,,,,ATJF2G,train_y,blue_star,bottom_right,2025-03-15_13h02.40.869,HideSeek_v1,2022.2.5,59.95096010413987,
,8,4,8,9,0,5,66,,train_dim1_1,27,30,,,,2,0,2,0,,,,,,,,,0,0,0,0,0,26,26,26,4,0,4,0,,,,,,,,,,,,,,,,,,,,,,,,,,,,,,,,,,,,,,,,,,,,,,,,,,,,,,,,,,,,,,,,30,,,,,,,,1435.186924999929,1435.186924999929,1435.186924999929,1435.186924999929,1435.186924999929,up,0.4933636999921873,19,0,0,99,0.48,0.32,up,0.40966050000861287,,,,,,,,,,,,,,,,,,,,,,,,,,,,,,,,,,,,,,,,,,,,,,,,,,,,,,,,,,,,ATJF2G,train_y,blue_star,bottom_right,2025-03-15_13h02.40.869,HideSeek_v1,2022.2.5,59.95096010413987,
,8,4,8,9,0,5,66,,train_dim1_1,27,30,,,,2,0,2,0,,,,,,,,,0,0,0,0,0,26,26,26,5,0,5,0,,,,,,,,,,,,,,,,,,,,,,,,,,,,,,,,,,,,,,,,,,,,,,,,,,,,,,,,,,,,,,,,30,,,,,,,,1435.6874640999595,1435.6874640999595,1435.6874640999595,1435.6874640999595,1435.6874640999595,return,0.5095778999384493,20,0,0,1,0.48,0.32,return,0.4223252000520006,71,-5,0.48,0.32,,,,,,,,,,,,,,,,,,,,,,,,,,,,,,,,,,,,,,,,,,,,,,,,,,,,,,,,ATJF2G,train_y,blue_star,bottom_right,2025-03-15_13h02.40.869,HideSeek_v1,2022.2.5,59.95096010413987,
,9,1,9,1,0,0,61,,train_dim1_1,28,30,,,,2,0,2,0,,,,,,,,,0,0,0,0,0,27,27,27,0,0,0,0,,,,,,,,,,,,,,,,,,,,,,,,,stimuli/alien_stimuli/61.png,,,,,,,,,,,,,,,,,,,,,,,,,,,,,stimuli/alien_stimuli/66.png,66,8,29,,,,,,,30,,,,,,,,1440.2800433000084,1440.2800433000084,1440.2800433000084,1440.2800433000084,1440.2800433000084,return,2.589501000009477,21,0,0,1,0.56,-0.32,return,2.5085958000272512,71,-5,0.56,-0.32,1438.7261615999741,1440.2800433000084,0.48,0.32,0.4,0.0,0.12,0.48,0.48,0.48,0.32,1437.7528759000124,1437.7528759000124,1437.7528759000124,1437.7528759000124,1437.7528759000124,1437.7528759000124,1437.7528759000124,1437.7528759000124,1437.7421069799689,1.0693190000019968,return,0.952353100059554,,,,,,,,,,,,,,,,,,,,,,,,,,,,,,,,,ATJF2G,train_y,blue_star,bottom_right,2025-03-15_13h02.40.869,HideSeek_v1,2022.2.5,59.95096010413987,
,7,2,7,3,0,1,62,,train_dim1_1,29,30,,,,2,0,2,0,,,,,,,,,0,0,0,0,0,28,28,28,0,0,0,0,,,,,,,,,,,,,,,,,,,,,,,,,stimuli/alien_stimuli/62.png,,,,,,,,,,,,,,,,,,,,,,,,,,,,,stimuli/alien_stimuli/61.png,61,9,30,,,,,,,30,,,,,,,,1447.3349916000152,1447.3349916000152,1447.3349916000152,1447.3349916000152,1447.3349916000152,up,1.7057446000399068,21,0,0,99,0.4,-0.15999999999999998,up,1.6202054999303073,,,,,1445.7820605000015,1447.3349916000152,0.56,-0.32,0.0,0.0,-0.32,0.56,0.56,0.56,-0.32,1444.4215377999935,1444.4215377999935,1444.4215377999935,1444.4215377999935,1444.4215377999935,1444.4215377999935,1444.4215377999935,1444.4215377999935,1444.4143490799702,1.453128100023605,return,1.3329681999748573,,,,,,,,,,,,,,,,,,,,,,,,,,,,,,,,,ATJF2G,train_y,blue_star,bottom_right,2025-03-15_13h02.40.869,HideSeek_v1,2022.2.5,59.95096010413987,
,7,2,7,3,0,1,62,,train_dim1_1,29,30,,,,2,0,2,0,,,,,,,,,0,0,0,0,0,28,28,28,1,0,1,0,,,,,,,,,,,,,,,,,,,,,,,,,,,,,,,,,,,,,,,,,,,,,,,,,,,,,,,,,,,,,,,,30,,,,,,,,1449.049034699914,1449.049034699914,1449.049034699914,1449.049034699914,1449.049034699914,return,0.4760792999295518,22,0,0,1,0.4,-0.15999999999999998,return,0.40152070007752627,72,-5,0.4,-0.15999999999999998,,,,,,,,,,,,,,,,,,,,,,,,,,,,,,,,,,,,,,,,,,,,,,,,,,,,,,,,ATJF2G,train_y,blue_star,bottom_right,2025-03-15_13h02.40.869,HideSeek_v1,2022.2.5,59.95096010413987,
,5,1,5,5,0,4,65,,train_dim1_1,30,30,,,,2,0,2,0,,,,,,,,,0,0,0,0,0,29,29,29,0,0,0,0,,,,,,,,,,,,,,,,,,,,,,,,,stimuli/alien_stimuli/65.png,,,,,,,,,,,,,,,,,,,,,,,,,,,,,stimuli/alien_stimuli/62.png,62,7,31,,,,,,,30,,,,,,,,1453.2927452999866,1453.2927452999866,1453.2927452999866,1453.2927452999866,1453.2927452999866,up,2.3209711000090465,22,0,0,99,0.24,-0.24,up,2.2407123999437317,,,,,1451.7368705999106,1453.2927452999866,0.4,-0.16,0.08,0.0,-0.2,0.4,0.4,0.4,-0.16,1451.0782576999627,1451.0782576999627,1451.0782576999627,1451.0782576999627,1451.0782576999627,1451.0782576999627,1451.0782576999627,1451.0782576999627,1451.069549780013,0.7527386000147089,return,0.6265559999737889,,,,,,,,,,,,,,,,,,,,,,,,,,,,,,,,,ATJF2G,train_y,blue_star,bottom_right,2025-03-15_13h02.40.869,HideSeek_v1,2022.2.5,59.95096010413987,
,5,1,5,5,0,4,65,,train_dim1_1,30,30,,,,2,0,2,0,,,,,,,,,0,0,0,0,0,29,29,29,1,0,1,0,,,,,,,,,,,,,,,,,,,,,,,,,,,,,,,,,,,,,,,,,,,,,,,,,,,,,,,,,,,,,,,,30,,,,,,,,1455.6202852999559,1455.6202852999559,1455.6202852999559,1455.6202852999559,1455.6202852999559,up,0.4930213000625372,22,0,0,99,0.24,-0.15999999999999998,up,0.4064287000801414,,,,,,,,,,,,,,,,,,,,,,,,,,,,,,,,,,,,,,,,,,,,,,,,,,,,,,,,,,,,ATJF2G,train_y,blue_star,bottom_right,2025-03-15_13h02.40.869,HideSeek_v1,2022.2.5,59.95096010413987,
,5,1,5,5,0,4,65,,train_dim1_1,30,30,,,,2,0,2,0,,,,,,,,,0,0,0,0,0,29,29,29,2,0,2,0,,,,,,,,,,,,,,,,,,,,,,,,,,,,,,,,,,,,,,,,,,,,,,,,,,,,,,,,,,,,,,,,30,,,,,,,,1456.1215413999744,1456.1215413999744,1456.1215413999744,1456.1215413999744,1456.1215413999744,up,0.5267675999784842,22,0,0,99,0.24,-0.07999999999999997,up,0.44184690003748983,,,,,,,,,,,,,,,,,,,,,,,,,,,,,,,,,,,,,,,,,,,,,,,,,,,,,,,,,,,,ATJF2G,train_y,blue_star,bottom_right,2025-03-15_13h02.40.869,HideSeek_v1,2022.2.5,59.95096010413987,
,5,1,5,5,0,4,65,,train_dim1_1,30,30,,,,2,0,2,0,,,,,,,,,0,0,0,0,0,29,29,29,3,0,3,0,,,,,,,,,,,,,,,,,,,,,,,,,,,,,,,,,,,,,,,,,,,,,,,,,,,,,,,,,,,,,,,,30,,,,,,,,1456.654013799969,1456.654013799969,1456.654013799969,1456.654013799969,1456.654013799969,up,0.5268005999969319,22,0,0,99,0.24,2.7755575615628914e-17,up,0.4474751999368891,,,,,,,,,,,,,,,,,,,,,,,,,,,,,,,,,,,,,,,,,,,,,,,,,,,,,,,,,,,,ATJF2G,train_y,blue_star,bottom_right,2025-03-15_13h02.40.869,HideSeek_v1,2022.2.5,59.95096010413987,
,5,1,5,5,0,4,65,,train_dim1_1,30,30,,,,2,0,2,0,,,,,,,,,0,0,0,0,0,29,29,29,4,0,4,0,,,,,,,,,,,,,,,,,,,,,,,,,,,,,,,,,,,,,,,,,,,,,,,,,,,,,,,,,,,,,,,,30,,,,,,,,1457.1881007999182,1457.1881007999182,1457.1881007999182,1457.1881007999182,1457.1881007999182,return,0.4600031999871135,23,0,0,1,0.24,2.7755575615628914e-17,return,0.3744692999171093,76,-5,0.24,2.7755575615628914e-17,,,,,,,,,,,,,,,,,,,,,,,,,,,,,,,,,,,,,,,,,,,,,,,,,,,,,,,,ATJF2G,train_y,blue_star,bottom_right,2025-03-15_13h02.40.869,HideSeek_v1,2022.2.5,59.95096010413987,
,,,,,,,,,,,30,,,,2,0,2,0,,,,,,,,,,,,,,,,,,,,,,,,,,,,,,,,,,,,,,,,,,,,,,,,,,,,,,,,,,,,,,,,,,,,,,,,,,stimuli/alien_stimuli/65.png,65,5,32,21,0.7,0.9583333333333335,1,1,1,30,0,conditions/schedules/train_y_first/blue_star_00/bottom_right/inputTrain_2.1.xlsx,99,1,2,1,0,,,,,,,,,,,1,,,,,,,,,1459.9935489000054,1461.5516300000018,0.24,0,0.32,0.0,-0.16,0.24,0.24,0.24,0,1459.1999688999495,1459.1999688999495,1459.1999688999495,1459.1999688999495,1459.1999688999495,1459.1999688999495,1459.1999688999495,1459.1999688999495,1459.1928733799373,0.8864789999788627,return,0.769229199970141,0,0.9,0,1,23,,,,,,,,,,,,,,,,,,,,,,,,,,,,ATJF2G,train_y,blue_star,bottom_right,2025-03-15_13h02.40.869,HideSeek_v1,2022.2.5,59.95096010413987,
,,,,,,,,,,,,,,,3,0,3,0,0,0,0,0,,,,,,,,,,,,,,,,,,,,,,,,,,,,,,,conditions/schedules/train_y_first/blue_star_00/bottom_right/instructions/Slide17.png,conditions/schedules/train_y_first/blue_star_00/bottom_right/instructions/Audio17.wav,1461.5516300000018,1461.5448150199138,17,"[3.253175999969244, 18.767902299994603, 16.460681000025943, 19.3362322000321, 4.766160700004548, 4.519508800003678, 5.167622599983588, 11.772000500001013, 6.767201500013471, 20.82918390003033, 10.333779799984768, 14.092762600048445, 18.23129849997349, 16.81354050000664, 46.534481299924664, 22.730913200066425, 39.27480120002292]","[0.014444999978877604, 0.014341800007969141, 0.0704635001020506, 0.04648629995062947, 0.06566530000418425, 0.08024339994881302, 0.06315099995117635, 0.03040389996021986, 0.11238730000331998, 0.04739770002197474, 0.03129030007403344, 14.092769099981524, 0.06589720002375543, 16.81354779994581, 0.013830100069753826, 22.730920400004834, 39.27480740007013]",0,,,,,,,,,,,,,,,,,,,,,,,,,,,,,,,,,,,,,,,,,,,,,,,,,,,,,,,,,,,,,,,,,,,,,,,,,,,,,,,,,,,,,,,,,,,,,,,,,,,,,,,,,,,,,,,,,,,,,,,,,,,,ATJF2G,train_y,blue_star,bottom_right,2025-03-15_13h02.40.869,HideSeek_v1,2022.2.5,59.95096010413987,
,,,,,,,,,,,,,,,3,0,3,0,1,0,1,0,,,,,,,,,,,,,,,,,,,,,,,,,,,,,,,conditions/schedules/train_y_first/blue_star_00/bottom_right/instructions/Slide18.png,conditions/schedules/train_y_first/blue_star_00/bottom_right/instructions/Audio18.wav,1500.892806799966,1500.8790608199545,18,"[3.253175999969244, 18.767902299994603, 16.460681000025943, 19.3362322000321, 4.766160700004548, 4.519508800003678, 5.167622599983588, 11.772000500001013, 6.767201500013471, 20.82918390003033, 10.333779799984768, 14.092762600048445, 18.23129849997349, 16.81354050000664, 46.534481299924664, 22.730913200066425, 39.27480120002292, 6.638425900018774]","[0.014444999978877604, 0.014341800007969141, 0.0704635001020506, 0.04648629995062947, 0.06566530000418425, 0.08024339994881302, 0.06315099995117635, 0.03040389996021986, 0.11238730000331998, 0.04739770002197474, 0.03129030007403344, 14.092769099981524, 0.06589720002375543, 16.81354779994581, 0.013830100069753826, 22.730920400004834, 0.0002183000324293971, 6.6384320999495685]",0,,,,,,,,,,,,,,,,,,,,,,,,,,,,,,,,,,,,,,,,,,,,,,,,,,,,,,,,,,,,,,,,,,,,,,,,,,,,,,,,,,,,,,,,,,,,,,,,,,,,,,,,,,,,,,,,,,,,,,,,,,,,ATJF2G,train_y,blue_star,bottom_right,2025-03-15_13h02.40.869,HideSeek_v1,2022.2.5,59.95096010413987,
,,,,,,,,,,,,,,,3,0,3,0,2,0,2,0,,,,,,,,,,,,,,,,,,,,,,,,,,,,,,,conditions/schedules/train_y_first/blue_star_00/bottom_right/instructions/Slide19.png,conditions/schedules/train_y_first/blue_star_00/bottom_right/instructions/Audio19.wav,1507.5850768999662,1507.5835233200107,19,"[3.253175999969244, 18.767902299994603, 16.460681000025943, 19.3362322000321, 4.766160700004548, 4.519508800003678, 5.167622599983588, 11.772000500001013, 6.767201500013471, 20.82918390003033, 10.333779799984768, 14.092762600048445, 18.23129849997349, 16.81354050000664, 46.534481299924664, 22.730913200066425, 39.27480120002292, 6.638425900018774, 10.12128390010912]","[0.014444999978877604, 0.014341800007969141, 0.0704635001020506, 0.04648629995062947, 0.06566530000418425, 0.08024339994881302, 0.06315099995117635, 0.03040389996021986, 0.11238730000331998, 0.04739770002197474, 0.03129030007403344, 14.092769099981524, 0.06589720002375543, 16.81354779994581, 0.013830100069753826, 22.730920400004834, 0.0002183000324293971, 0.047587000066414475, 10.121292000054382]",0,,,,,,,,,,,,,,,,,,,,,,,,,,,,,,,,,,,,,,,,,,,,,,,,,,,,,,,,,,,,,,,,,,,,,,,,,,,,,,,,,,,,,,,,,,,,,,,,,,,,,,,,,,,,,,,,,,,,,,,,,,,,ATJF2G,train_y,blue_star,bottom_right,2025-03-15_13h02.40.869,HideSeek_v1,2022.2.5,59.95096010413987,
,,,,,,,,,,,,,,,3,0,3,0,3,0,3,0,,,,,,,,,,,,,,,,,,,,,,,,,,,,,,,conditions/schedules/train_y_first/blue_star_00/bottom_right/instructions/Slide20.png,conditions/schedules/train_y_first/blue_star_00/bottom_right/instructions/Audio20.wav,1517.7755969999125,1517.7748667999404,20,"[3.253175999969244, 18.767902299994603, 16.460681000025943, 19.3362322000321, 4.766160700004548, 4.519508800003678, 5.167622599983588, 11.772000500001013, 6.767201500013471, 20.82918390003033, 10.333779799984768, 14.092762600048445, 18.23129849997349, 16.81354050000664, 46.534481299924664, 22.730913200066425, 39.27480120002292, 6.638425900018774, 10.12128390010912, 12.524122799979523]","[0.014444999978877604, 0.014341800007969141, 0.0704635001020506, 0.04648629995062947, 0.06566530000418425, 0.08024339994881302, 0.06315099995117635, 0.03040389996021986, 0.11238730000331998, 0.04739770002197474, 0.03129030007403344, 14.092769099981524, 0.06589720002375543, 16.81354779994581, 0.013830100069753826, 22.730920400004834, 0.0002183000324293971, 0.047587000066414475, 10.121292000054382, 12.52412950003054]",0,,,,,,,,,,,,,,,,,,,,,,,,,,,,,,,,,,,,,,,,,,,,,,,,,,,,,,,,,,,,,,,,,,,,,,,,,,,,,,,,,,,,,,,,,,,,,,,,,,,,,,,,,,,,,,,,,,,,,,,,,,,,ATJF2G,train_y,blue_star,bottom_right,2025-03-15_13h02.40.869,HideSeek_v1,2022.2.5,59.95096010413987,
1,9,0,4,0,-5,0,11,2,instr_dim1_2,,,,,,3,0,3,0,,,,,0,0,0,0,,,,,,,,,,,,,,,,,,,,,,,,,,,,,,,,,,,,,stimuli/alien_stimuli/11.png,conditions/schedules/train_y_first/blue_star_00/bottom_right/inputInstr_2.xlsx,stimuli/alien_stimuli/11.png,1530.4101739999605,1530.4101739999605,1530.4101739999605,1530.4101739999605,1530.4020369599339,return,6.580674699973315,"[-0.16, -0.08, 0, 0.08, 0.16, 0.24, 0.32, 0.4, 0.48, 0.56]","[-0.4, -0.32, -0.24, -0.16, -0.08, 0, 0.08, 0.16, 0.24, 0.32]",0,0,4,9,0.0,0.4,1537.153341599973,1537.153341599973,1537.153341599973,1537.153341599973,1537.153341599973,1537.153341599973,1537.153341599973,1537.1409302199957,6.806354400003329,return,6.636048199958168,stimuli/alien_stimuli/11.png,11,9,1,,,,,,,,,,,,,,,,,,,,,,,,,,,,,,,,,,,,,,,,,,,,,,,,,,,,,,,,,,,,,,,,,,,,,,,,,,,,,,,,,,,,,,,,,ATJF2G,train_y,blue_star,bottom_right,2025-03-15_13h02.40.869,HideSeek_v1,2022.2.5,59.95096010413987,
,,,,,,,,,,,30,,,,3,0,3,0,,,,,,,,,,,,,,,,,,,,,,,,,,,,,,,,,,,,,,,,,,,,,,,,,,,,,,,,,,,,,,,,,,,,,,,,,,,,,,21,0.7,0.9583333333333335,1,99,2,30,0,conditions/schedules/train_y_first/blue_star_00/bottom_right/inputTrain_2.1.xlsx,99,1,2,1,0,,,,,,,,,,,,,,,,,,,,,,,,,,,,,,,,,,,,,,,,,,,,,,,,,,,,,,,,,,,,,,,,,,,,,,,,,,,ATJF2G,train_y,blue_star,bottom_right,2025-03-15_13h02.40.869,HideSeek_v1,2022.2.5,59.95096010413987,
,,,,,,,,,,,,,,,4,0,4,0,0,0,0,0,,,,,,,,,,,,,,,,,,,,,,,,,,,,,,,conditions/schedules/train_y_first/blue_star_00/bottom_right/instructions/Slide21.png,conditions/schedules/train_y_first/blue_star_00/bottom_right/instructions/Audio21.wav,1543.9450102999108,1543.9465534200192,21,"[3.253175999969244, 18.767902299994603, 16.460681000025943, 19.3362322000321, 4.766160700004548, 4.519508800003678, 5.167622599983588, 11.772000500001013, 6.767201500013471, 20.82918390003033, 10.333779799984768, 14.092762600048445, 18.23129849997349, 16.81354050000664, 46.534481299924664, 22.730913200066425, 39.27480120002292, 6.638425900018774, 10.12128390010912, 12.524122799979523, 13.09401150001213]","[0.014444999978877604, 0.014341800007969141, 0.0704635001020506, 0.04648629995062947, 0.06566530000418425, 0.08024339994881302, 0.06315099995117635, 0.03040389996021986, 0.11238730000331998, 0.04739770002197474, 0.03129030007403344, 14.092769099981524, 0.06589720002375543, 16.81354779994581, 0.013830100069753826, 22.730920400004834, 0.0002183000324293971, 0.047587000066414475, 10.121292000054382, 12.52412950003054, 13.094018899952061]",0,,,,,,,,,,,,,,,,,,,,,,,,,,,,,,,,,,,,,,,,,,,,,,,,,,,,,,,,,,,,,,,,,,,,,,,,,,,,,,,,,,,,,,,,,,,,,,,,,,,,,,,,,,,,,,,,,,,,,,,,,,,,ATJF2G,train_y,blue_star,bottom_right,2025-03-15_13h02.40.869,HideSeek_v1,2022.2.5,59.95096010413987,
2,8,2,8,2,0,0,61,2,instr_dim1_2,,,,,,4,0,4,0,,,,,0,0,0,0,,,,,,,,,,,,,,,,,,,,,,,,,,,,,,,,,,,,,stimuli/alien_stimuli/61.png,conditions/schedules/train_y_first/blue_star_00/bottom_right/inputInstr_2.xlsx,stimuli/alien_stimuli/61.png,1557.1300259999698,1557.1300259999698,1557.1300259999698,1557.1300259999698,1557.1243738800054,return,5.741886199917644,"[-0.16, -0.08, 0, 0.08, 0.16, 0.24, 0.32, 0.4, 0.48, 0.56]","[-0.4, -0.32, -0.24, -0.16, -0.08, 0, 0.08, 0.16, 0.24, 0.32]",2,2,8,8,0.0,0.0,1563.0271178999683,1563.0271178999683,1563.0271178999683,1563.0271178999683,1563.0271178999683,1563.0271178999683,1563.0271178999683,1563.0125878399238,6.405988099984825,return,6.24843320006039,stimuli/alien_stimuli/61.png,61,8,2,,,,,,,,,,,,,,,,,,,,,,,,,,,,,,,,,,,,,,,,,,,,,,,,,,,,,,,,,,,,,,,,,,,,,,,,,,,,,,,,,,,,,,,,,ATJF2G,train_y,blue_star,bottom_right,2025-03-15_13h02.40.869,HideSeek_v1,2022.2.5,59.95096010413987,
,,,,,,,,,,,30,,,,4,0,4,0,,,,,,,,,,,,,,,,,,,,,,,,,,,,,,,,,,,,,,,,,,,,,,,,,,,,,,,,,,,,,,,,,,,,,,,,,,,,,,21,0.7,0.9583333333333335,1,99,2,30,0,conditions/schedules/train_y_first/blue_star_00/bottom_right/inputTrain_2.1.xlsx,99,1,2,1,0,,,,,,,,,,,,,,,,,,,,,,,,,,,,,,,,,,,,,,,,,,,,,,,,,,,,,,,,,,,,,,,,,,,,,,,,,,,ATJF2G,train_y,blue_star,bottom_right,2025-03-15_13h02.40.869,HideSeek_v1,2022.2.5,59.95096010413987,
,,,,,,,,,,,,,,,5,0,5,0,0,0,0,0,,,,,,,,,,,,,,,,,,,,,,,,,,,,,,,conditions/schedules/train_y_first/blue_star_00/bottom_right/instructions/Slide22.png,conditions/schedules/train_y_first/blue_star_00/bottom_right/instructions/Audio22.wav,1569.4374443999259,1569.434543519956,22,"[3.253175999969244, 18.767902299994603, 16.460681000025943, 19.3362322000321, 4.766160700004548, 4.519508800003678, 5.167622599983588, 11.772000500001013, 6.767201500013471, 20.82918390003033, 10.333779799984768, 14.092762600048445, 18.23129849997349, 16.81354050000664, 46.534481299924664, 22.730913200066425, 39.27480120002292, 6.638425900018774, 10.12128390010912, 12.524122799979523, 13.09401150001213, 29.803197899949737]","[0.014444999978877604, 0.014341800007969141, 0.0704635001020506, 0.04648629995062947, 0.06566530000418425, 0.08024339994881302, 0.06315099995117635, 0.03040389996021986, 0.11238730000331998, 0.04739770002197474, 0.03129030007403344, 14.092769099981524, 0.06589720002375543, 16.81354779994581, 0.013830100069753826, 22.730920400004834, 0.0002183000324293971, 0.047587000066414475, 10.121292000054382, 12.52412950003054, 13.094018899952061, 29.80320510000456]",0,,,,,,,,,,,,,,,,,,,,,,,,,,,,,,,,,,,,,,,,,,,,,,,,,,,,,,,,,,,,,,,,,,,,,,,,,,,,,,,,,,,,,,,,,,,,,,,,,,,,,,,,,,,,,,,,,,,,,,,,,,,,ATJF2G,train_y,blue_star,bottom_right,2025-03-15_13h02.40.869,HideSeek_v1,2022.2.5,59.95096010413987,
,7,1,4,1,-3,0,31,,train_dim1_2,1,30,,,,5,0,5,0,,,,,,,,,0,0,0,0,0,0,0,0,0,0,0,0,,,,,,,,,,,,,,,,,,,,,,,,,stimuli/alien_stimuli/31.png,,,,,,,,,,,,,,,,,,,,,,,,,,,,,,,,,,,,,,,30,,,,,,,,1599.333253199933,1599.333253199933,1599.333253199933,1599.333253199933,1599.333253199933,return,7.3815497000468895,0,0,0,0,0.4,-0.32,return,7.29068560001906,76,-5,0.4,-0.32,,,,,,,,,,,,,,,,,,,,,,,,,,,,,,,,,,,,,,,,,,,,,,,,,,,,,,,,ATJF2G,train_y,blue_star,bottom_right,2025-03-15_13h02.40.869,HideSeek_v1,2022.2.5,59.95096010413987,
,7,4,2,4,-5,0,11,,train_dim1_2,2,30,,,,5,0,5,0,,,,,,,,,0,0,0,0,0,1,1,1,0,0,0,0,,,,,,,,,,,,,,,,,,,,,,,,,stimuli/alien_stimuli/11.png,,,,,,,,,,,,,,,,,,,,,,,,,,,,,stimuli/alien_stimuli/31.png,31,7,3,,,,,,,30,,,,,,,,1615.405951899942,1615.405951899942,1615.405951899942,1615.405951899942,1615.405951899942,left,5.054764700005762,0,0,0,99,0.32,-0.08,left,4.96590870001819,,,,,1613.837903699954,1615.405951899942,0.16,-0.32,0.0,0.24,-0.32,0.16,0.28,0.16,-0.32,1608.2829509999137,1608.2829509999137,1608.2829509999137,1608.2829509999137,1608.2829509999137,1608.2829509999137,1608.2829509999137,1608.2829509999137,1608.2666258599374,5.673408100032248,return,5.526878300006501,,,,,,,,,,,,,,,,,,,,,,,,,,,,,,,,,ATJF2G,train_y,blue_star,bottom_right,2025-03-15_13h02.40.869,HideSeek_v1,2022.2.5,59.95096010413987,
,7,4,2,4,-5,0,11,,train_dim1_2,2,30,,,,5,0,5,0,,,,,,,,,0,0,0,0,0,1,1,1,1,0,1,0,,,,,,,,,,,,,,,,,,,,,,,,,,,,,,,,,,,,,,,,,,,,,,,,,,,,,,,,,,,,,,,,30,,,,,,,,1620.4650948999915,1620.4650948999915,1620.4650948999915,1620.4650948999915,1620.4650948999915,return,2.4762352999532595,0,0,0,0,0.32,-0.08,return,2.3966806000098586,76,-6,0.32,-0.08,,,,,,,,,,,,,,,,,,,,,,,,,,,,,,,,,,,,,,,,,,,,,,,,,,,,,,,,ATJF2G,train_y,blue_star,bottom_right,2025-03-15_13h02.40.869,HideSeek_v1,2022.2.5,59.95096010413987,
,9,4,5,4,-4,0,21,,train_dim1_2,3,30,,,,5,0,5,0,,,,,,,,,0,0,0,0,0,2,2,2,0,0,0,0,,,,,,,,,,,,,,,,,,,,,,,,,stimuli/alien_stimuli/21.png,,,,,,,,,,,,,,,,,,,,,,,,,,,,,stimuli/alien_stimuli/11.png,11,7,4,,,,,,,30,,,,,,,,1629.6486204999965,1629.6486204999965,1629.6486204999965,1629.6486204999965,1629.6486204999965,left,5.29015180002898,0,0,0,99,0.48000000000000004,-0.08,left,5.202327300095931,,,,,1628.0832137999823,1629.6486204999965,0,-0.08,0.0,0.4,-0.08,0,0.2,0,-0.08,1624.5219703000039,1624.5219703000039,1624.5219703000039,1624.5219703000039,1624.5219703000039,1624.5219703000039,1624.5219703000039,1624.5219703000039,1624.5133386399364,3.6884793000062928,return,3.5304011000553146,,,,,,,,,,,,,,,,,,,,,,,,,,,,,,,,,ATJF2G,train_y,blue_star,bottom_right,2025-03-15_13h02.40.869,HideSeek_v1,2022.2.5,59.95096010413987,
,9,4,5,4,-4,0,21,,train_dim1_2,3,30,,,,5,0,5,0,,,,,,,,,0,0,0,0,0,2,2,2,1,0,1,0,,,,,,,,,,,,,,,,,,,,,,,,,,,,,,,,,,,,,,,,,,,,,,,,,,,,,,,,,,,,,,,,30,,,,,,,,1634.9407660999568,1634.9407660999568,1634.9407660999568,1634.9407660999568,1634.9407660999568,left,1.0102555000921711,0,0,0,99,0.4,-0.08,left,0.920856700045988,,,,,,,,,,,,,,,,,,,,,,,,,,,,,,,,,,,,,,,,,,,,,,,,,,,,,,,,,,,,ATJF2G,train_y,blue_star,bottom_right,2025-03-15_13h02.40.869,HideSeek_v1,2022.2.5,59.95096010413987,
,9,4,5,4,-4,0,21,,train_dim1_2,3,30,,,,5,0,5,0,,,,,,,,,0,0,0,0,0,2,2,2,2,0,2,0,,,,,,,,,,,,,,,,,,,,,,,,,,,,,,,,,,,,,,,,,,,,,,,,,,,,,,,,,,,,,,,,30,,,,,,,,1635.956937299925,1635.956937299925,1635.956937299925,1635.956937299925,1635.956937299925,left,0.9103579999646172,0,0,0,99,0.32,-0.08,left,0.8250203001080081,,,,,,,,,,,,,,,,,,,,,,,,,,,,,,,,,,,,,,,,,,,,,,,,,,,,,,,,,,,,ATJF2G,train_y,blue_star,bottom_right,2025-03-15_13h02.40.869,HideSeek_v1,2022.2.5,59.95096010413987,
,9,4,5,4,-4,0,21,,train_dim1_2,3,30,,,,5,0,5,0,,,,,,,,,0,0,0,0,0,2,2,2,3,0,3,0,,,,,,,,,,,,,,,,,,,,,,,,,,,,,,,,,,,,,,,,,,,,,,,,,,,,,,,,,,,,,,,,30,,,,,,,,1636.873874999932,1636.873874999932,1636.873874999932,1636.873874999932,1636.873874999932,left,1.4940696000121534,0,0,0,99,0.24,-0.08,left,1.4129353000316769,,,,,,,,,,,,,,,,,,,,,,,,,,,,,,,,,,,,,,,,,,,,,,,,,,,,,,,,,,,,ATJF2G,train_y,blue_star,bottom_right,2025-03-15_13h02.40.869,HideSeek_v1,2022.2.5,59.95096010413987,
,9,4,5,4,-4,0,21,,train_dim1_2,3,30,,,,5,0,5,0,,,,,,,,,0,0,0,0,0,2,2,2,4,0,4,0,,,,,,,,,,,,,,,,,,,,,,,,,,,,,,,,,,,,,,,,,,,,,,,,,,,,,,,,,,,,,,,,30,,,,,,,,1638.37646639999,1638.37646639999,1638.37646639999,1638.37646639999,1638.37646639999,return,2.7947898999555036,1,0,0,1,0.24,-0.08,return,2.7132172000128776,76,-10,0.24,-0.08,,,,,,,,,,,,,,,,,,,,,,,,,,,,,,,,,,,,,,,,,,,,,,,,,,,,,,,,ATJF2G,train_y,blue_star,bottom_right,2025-03-15_13h02.40.869,HideSeek_v1,2022.2.5,59.95096010413987,
,7,3,6,3,-1,0,51,,train_dim1_2,4,30,,,,5,0,5,0,,,,,,,,,0,0,0,0,0,3,3,3,0,0,0,0,,,,,,,,,,,,,,,,,,,,,,,,,stimuli/alien_stimuli/51.png,,,,,,,,,,,,,,,,,,,,,,,,,,,,,stimuli/alien_stimuli/21.png,21,9,5,,,,,,,30,,,,,,,,1646.7064150999067,1646.7064150999067,1646.7064150999067,1646.7064150999067,1646.7064150999067,up,7.427767000044696,1,0,0,99,0.4,-0.08,up,7.321377499960363,,,,,1645.1306245999876,1646.7064150999067,0.24,-0.08,0.0,0.32,-0.08,0.24,0.4,0.24,-0.08,1642.771337299957,1642.771337299957,1642.771337299957,1642.771337299957,1642.771337299957,1642.771337299957,1642.771337299957,1642.771337299957,1642.7618574199498,2.5041309000225738,return,2.328643799992278,,,,,,,,,,,,,,,,,,,,,,,,,,,,,,,,,ATJF2G,train_y,blue_star,bottom_right,2025-03-15_13h02.40.869,HideSeek_v1,2022.2.5,59.95096010413987,
,7,3,6,3,-1,0,51,,train_dim1_2,4,30,,,,5,0,5,0,,,,,,,,,0,0,0,0,0,3,3,3,1,0,1,0,,,,,,,,,,,,,,,,,,,,,,,,,,,,,,,,,,,,,,,,,,,,,,,,,,,,,,,,,,,,,,,,30,,,,,,,,1654.1212404000107,1654.1212404000107,1654.1212404000107,1654.1212404000107,1654.1212404000107,up,0.6097391999792308,1,0,0,99,0.4,0.0,up,0.5182982999831438,,,,,,,,,,,,,,,,,,,,,,,,,,,,,,,,,,,,,,,,,,,,,,,,,,,,,,,,,,,,ATJF2G,train_y,blue_star,bottom_right,2025-03-15_13h02.40.869,HideSeek_v1,2022.2.5,59.95096010413987,
