trialInstr,x_fixStart,y_fixStart,x_corrSteps,y_corrSteps,x_nrSteps,y_nrSteps,alienID,trialLength,version,trialTrain,praclen,testlen,trial_label,break_on_off,beforeExpLoop.thisRepN,beforeExpLoop.thisTrialN,beforeExpLoop.thisN,beforeExpLoop.thisIndex,mini_instr_trials.thisRepN,mini_instr_trials.thisTrialN,mini_instr_trials.thisN,mini_instr_trials.thisIndex,instrLoop.thisRepN,instrLoop.thisTrialN,instrLoop.thisN,instrLoop.thisIndex,repeat_prac.thisRepN,repeat_prac.thisTrialN,repeat_prac.thisN,repeat_prac.thisIndex,trainLoop.thisRepN,trainLoop.thisTrialN,trainLoop.thisN,trainLoop.thisIndex,moveLoop_train.thisRepN,moveLoop_train.thisTrialN,moveLoop_train.thisN,moveLoop_train.thisIndex,experiment.thisRepN,experiment.thisTrialN,experiment.thisN,experiment.thisIndex,moveLoop_test.thisRepN,moveLoop_test.thisTrialN,moveLoop_test.thisN,moveLoop_test.thisIndex,mini_instr2_trials.thisRepN,mini_instr2_trials.thisTrialN,mini_instr2_trials.thisN,mini_instr2_trials.thisIndex,start_all_time,url,slideStim,audioStim,slides.started,sounds.started,nextButton.numClicks,nextButton.timesOn,nextButton.timesOff,prev_but.numClicks,prev_but.timesOn,prev_but.timesOff,alienStim,instrFile,alienStim_instr,gridImage_instr.started,startPos_3.started,key_instr.started,alienImage_3.started,sounds_1.started,key_instr.keys,key_instr.rt,all_x,all_y,FBy_corrSteps,FBy_fixStart,FBx_corrSteps,FBx_fixStart,FBy_pathSize_check,FBx_pathSize_check,gridImage_9.started,alienImageFB_3.started,startPosFB_3.started,keyFB_3.started,pathLine_ydir_2.started,pathLine_xdir_2.started,alienFace_3.started,sounds_2.started,RTFB_instr,keyFB_3.keys,keyFB_3.rt,draw_alienStim,draw_alienID,test_x,nrepcount,perfthres,percthres,earlierperf,earlystop,nextPrac,fileidx,praclen,saveACC_train,pracFile,nextPrac_train,addNrep,fileidx_endr,repExp,showearly,gridImage_4.started,startPos.started,movePos.started,key_resp.started,alienImage.started,wLy_dir,wLx_dir,x_movePos,y_movePos,buttonPress_train,RTchoice_train,cumAcctrain,aCorr,saveACC_choice,corrAns,x_movePos_end,y_movePos_end,key_resp.keys,key_resp.rt,text_2.started,aft_x_corrPos,aft_y_corrPos,y_pathSize_check,x_pathSize_check,y_pathdirY,x_pathdirY,x_pathdirX,x_corrPos,y_corrPos,gridImage_6.started,alienImageFB_2.started,startPosFB_2.started,movePosFB_2.started,keyFB_2.started,pathLine_xdir.started,pathLine_ydir.started,alienFace.started,sounds_4.started,RT_FBtrain,keyFB_2.keys,keyFB_2.rt,text_2.stopped,saveACC_pre,ACC,within_saveACC_train,earlystop_wloop,cumAcctrain_check,gridImage_3.started,alienImage_test.started,startPos_test.started,movePos_test.started,key_resp_test.started,wLy_dir_test,wLx_dir_test,buttonPress_test,RTchoice_test,cumAcctest,corrAns_test,key_resp_test.keys,key_resp_test.rt,text_3.started,text_3.stopped,total_time,end_all_time,key_resp_3.keys,slides_2.started,sounds_3.started,nextButton_2.numClicks,nextButton_2.timesOn,nextButton_2.timesOff,prev_but_2.numClicks,prev_but_2.timesOn,prev_but_2.timesOff,bye.started,participant,train_first,00_coordinate,starting corner,date,expName,psychopyVersion,frameRate,
,,,,,,,,,,,,,,,0,0,0,0,0,0,0,0,,,,,,,,,,,,,,,,,,,,,,,,,,,,,start_all_time,testround,conditions/schedules/train_y_first/red_square_00/top_left/instructions/Slide1.png,conditions/schedules/train_y_first/red_square_00/top_left/instructions/Audio1.wav,911.3496759999543,911.296186147281,1,[6.5296471999026835],[6.529653700068593],0,,,,,,,,,,,,,,,,,,,,,,,,,,,,,,,,,,,,,,,,,,,,,,,,,,,,,,,,,,,,,,,,,,,,,,,,,,,,,,,,,,,,,,,,,,,,,,,,,,,,,,,,,,,,,,,,,,,,,,,,,,,,C65A0M,train_y,red_square,top_left,2025-07-24_16h04.13.383,HideSeek_v1,2022.2.5,60.16434494333748,
,,,,,,,,,,,,,,,0,0,0,0,1,0,1,0,,,,,,,,,,,,,,,,,,,,,,,,,,,,,,,conditions/schedules/train_y_first/red_square_00/top_left/instructions/Slide2.png,conditions/schedules/train_y_first/red_square_00/top_left/instructions/Audio2.wav,917.9055082001723,917.9003898500232,2,"[6.5296471999026835, 19.354873900068924]","[0.01432269997894764, 19.354881200008094]",0,,,,,,,,,,,,,,,,,,,,,,,,,,,,,,,,,,,,,,,,,,,,,,,,,,,,,,,,,,,,,,,,,,,,,,,,,,,,,,,,,,,,,,,,,,,,,,,,,,,,,,,,,,,,,,,,,,,,,,,,,,,,C65A0M,train_y,red_square,top_left,2025-07-24_16h04.13.383,HideSeek_v1,2022.2.5,60.16434494333748,
,,,,,,,,,,,,,,,0,0,0,0,2,0,2,0,,,,,,,,,,,,,,,,,,,,,,,,,,,,,,,conditions/schedules/train_y_first/red_square_00/top_left/instructions/Slide3.png,conditions/schedules/train_y_first/red_square_00/top_left/instructions/Audio3.wav,937.330892900005,937.3291047500679,3,"[6.5296471999026835, 19.354873900068924, 17.93151450017467]","[0.01432269997894764, 0.01433770009316504, 17.931521699996665]",0,,,,,,,,,,,,,,,,,,,,,,,,,,,,,,,,,,,,,,,,,,,,,,,,,,,,,,,,,,,,,,,,,,,,,,,,,,,,,,,,,,,,,,,,,,,,,,,,,,,,,,,,,,,,,,,,,,,,,,,,,,,,C65A0M,train_y,red_square,top_left,2025-07-24_16h04.13.383,HideSeek_v1,2022.2.5,60.16434494333748,
,,,,,,,,,,,,,,,0,0,0,0,3,0,3,0,,,,,,,,,,,,,,,,,,,,,,,,,,,,,,,conditions/schedules/train_y_first/red_square_00/top_left/instructions/Slide4.png,conditions/schedules/train_y_first/red_square_00/top_left/instructions/Audio4.wav,955.3498254001606,955.3476791999768,4,"[6.5296471999026835, 19.354873900068924, 17.93151450017467, 18.551725500030443]","[0.01432269997894764, 0.01433770009316504, 0.07739460002630949, 18.551732399966568]",0,,,,,,,,,,,,,,,,,,,,,,,,,,,,,,,,,,,,,,,,,,,,,,,,,,,,,,,,,,,,,,,,,,,,,,,,,,,,,,,,,,,,,,,,,,,,,,,,,,,,,,,,,,,,,,,,,,,,,,,,,,,,C65A0M,train_y,red_square,top_left,2025-07-24_16h04.13.383,HideSeek_v1,2022.2.5,60.16434494333748,
,,,,,,,,,,,,,,,0,0,0,0,4,0,4,0,,,,,,,,,,,,,,,,,,,,,,,,,,,,,,,conditions/schedules/train_y_first/red_square_00/top_left/instructions/Slide5.png,conditions/schedules/train_y_first/red_square_00/top_left/instructions/Audio5.wav,973.9737893000711,973.9699612500845,5,"[6.5296471999026835, 19.354873900068924, 17.93151450017467, 18.551725500030443, 3.892149900086224]","[0.01432269997894764, 0.01433770009316504, 0.07739460002630949, 0.033723700093105435, 3.892156300134957]",0,,,,,,,,,,,,,,,,,,,,,,,,,,,,,,,,,,,,,,,,,,,,,,,,,,,,,,,,,,,,,,,,,,,,,,,,,,,,,,,,,,,,,,,,,,,,,,,,,,,,,,,,,,,,,,,,,,,,,,,,,,,,C65A0M,train_y,red_square,top_left,2025-07-24_16h04.13.383,HideSeek_v1,2022.2.5,60.16434494333748,
,,,,,,,,,,,,,,,0,0,0,0,5,0,5,0,,,,,,,,,,,,,,,,,,,,,,,,,,,,,,,conditions/schedules/train_y_first/red_square_00/top_left/instructions/Slide6.png,conditions/schedules/train_y_first/red_square_00/top_left/instructions/Audio6.wav,977.9163973999675,977.9181795999408,6,"[6.5296471999026835, 19.354873900068924, 17.93151450017467, 18.551725500030443, 3.892149900086224, 4.332442999817431]","[0.01432269997894764, 0.01433770009316504, 0.07739460002630949, 0.033723700093105435, 0.014161800034344196, 4.332449399866164]",0,,,,,,,,,,,,,,,,,,,,,,,,,,,,,,,,,,,,,,,,,,,,,,,,,,,,,,,,,,,,,,,,,,,,,,,,,,,,,,,,,,,,,,,,,,,,,,,,,,,,,,,,,,,,,,,,,,,,,,,,,,,,C65A0M,train_y,red_square,top_left,2025-07-24_16h04.13.383,HideSeek_v1,2022.2.5,60.16434494333748,
,,,,,,,,,,,,,,,0,0,0,0,6,0,6,0,,,,,,,,,,,,,,,,,,,,,,,,,,,,,,,conditions/schedules/train_y_first/red_square_00/top_left/instructions/Slide7.png,conditions/schedules/train_y_first/red_square_00/top_left/instructions/Audio7.wav,982.3003516001627,982.3011599000544,7,"[6.5296471999026835, 19.354873900068924, 17.93151450017467, 18.551725500030443, 3.892149900086224, 4.332442999817431, 5.935972800012678]","[0.01432269997894764, 0.01433770009316504, 0.07739460002630949, 0.033723700093105435, 0.014161800034344196, 0.032870500115677714, 5.935980699956417]",0,,,,,,,,,,,,,,,,,,,,,,,,,,,,,,,,,,,,,,,,,,,,,,,,,,,,,,,,,,,,,,,,,,,,,,,,,,,,,,,,,,,,,,,,,,,,,,,,,,,,,,,,,,,,,,,,,,,,,,,,,,,,C65A0M,train_y,red_square,top_left,2025-07-24_16h04.13.383,HideSeek_v1,2022.2.5,60.16434494333748,
,,,,,,,,,,,,,,,0,0,0,0,7,0,7,0,,,,,,,,,,,,,,,,,,,,,,,,,,,,,,,conditions/schedules/train_y_first/red_square_00/top_left/instructions/Slide8.png,conditions/schedules/train_y_first/red_square_00/top_left/instructions/Audio8.wav,988.2889282000251,988.2880574000534,8,"[6.5296471999026835, 19.354873900068924, 17.93151450017467, 18.551725500030443, 3.892149900086224, 4.332442999817431, 5.935972800012678, 11.77451610006392]","[0.01432269997894764, 0.01433770009316504, 0.07739460002630949, 0.033723700093105435, 0.014161800034344196, 0.032870500115677714, 0.03232580004259944, 11.774523000000045]",0,,,,,,,,,,,,,,,,,,,,,,,,,,,,,,,,,,,,,,,,,,,,,,,,,,,,,,,,,,,,,,,,,,,,,,,,,,,,,,,,,,,,,,,,,,,,,,,,,,,,,,,,,,,,,,,,,,,,,,,,,,,,C65A0M,train_y,red_square,top_left,2025-07-24_16h04.13.383,HideSeek_v1,2022.2.5,60.16434494333748,
,,,,,,,,,,,,,,,0,0,0,0,8,0,8,0,,,,,,,,,,,,,,,,,,,,,,,,,,,,,,,conditions/schedules/train_y_first/red_square_00/top_left/instructions/Slide9.png,conditions/schedules/train_y_first/red_square_00/top_left/instructions/Audio9.wav,1000.1358686999884,1000.1325774501311,9,"[6.5296471999026835, 19.354873900068924, 17.93151450017467, 18.551725500030443, 3.892149900086224, 4.332442999817431, 5.935972800012678, 11.77451610006392, 5.341432099929079]","[0.01432269997894764, 0.01433770009316504, 0.07739460002630949, 0.033723700093105435, 0.014161800034344196, 0.032870500115677714, 0.03232580004259944, 0.03683419991284609, 5.341438899980858]",0,,,,,,,,,,,,,,,,,,,,,,,,,,,,,,,,,,,,,,,,,,,,,,,,,,,,,,,,,,,,,,,,,,,,,,,,,,,,,,,,,,,,,,,,,,,,,,,,,,,,,,,,,,,,,,,,,,,,,,,,,,,,C65A0M,train_y,red_square,top_left,2025-07-24_16h04.13.383,HideSeek_v1,2022.2.5,60.16434494333748,
,,,,,,,,,,,,,,,0,0,0,0,9,0,9,0,,,,,,,,,,,,,,,,,,,,,,,,,,,,,,,conditions/schedules/train_y_first/red_square_00/top_left/instructions/Slide10.png,conditions/schedules/train_y_first/red_square_00/top_left/instructions/Audio10.wav,1005.5169294001535,1005.5130002500256,10,"[6.5296471999026835, 19.354873900068924, 17.93151450017467, 18.551725500030443, 3.892149900086224, 4.332442999817431, 5.935972800012678, 11.77451610006392, 5.341432099929079, 6.332515500020236]","[0.01432269997894764, 0.01433770009316504, 0.07739460002630949, 0.033723700093105435, 0.014161800034344196, 0.032870500115677714, 0.03232580004259944, 0.03683419991284609, 0.032928200205788016, 6.33252300019376]",0,,,,,,,,,,,,,,,,,,,,,,,,,,,,,,,,,,,,,,,,,,,,,,,,,,,,,,,,,,,,,,,,,,,,,,,,,,,,,,,,,,,,,,,,,,,,,,,,,,,,,,,,,,,,,,,,,,,,,,,,,,,,C65A0M,train_y,red_square,top_left,2025-07-24_16h04.13.383,HideSeek_v1,2022.2.5,60.16434494333748,
,,,,,,,,,,,,,,,0,0,0,0,10,0,10,0,,,,,,,,,,,,,,,,,,,,,,,,,,,,,,,conditions/schedules/train_y_first/red_square_00/top_left/instructions/Slide11.png,conditions/schedules/train_y_first/red_square_00/top_left/instructions/Audio11.wav,1011.8923369999975,1011.8850115499691,11,"[6.5296471999026835, 19.354873900068924, 17.93151450017467, 18.551725500030443, 3.892149900086224, 4.332442999817431, 5.935972800012678, 11.77451610006392, 5.341432099929079, 6.332515500020236, 10.143549999920651]","[0.01432269997894764, 0.01433770009316504, 0.07739460002630949, 0.033723700093105435, 0.014161800034344196, 0.032870500115677714, 0.03232580004259944, 0.03683419991284609, 0.032928200205788016, 0.06865699985064566, 10.143558099865913]",0,,,,,,,,,,,,,,,,,,,,,,,,,,,,,,,,,,,,,,,,,,,,,,,,,,,,,,,,,,,,,,,,,,,,,,,,,,,,,,,,,,,,,,,,,,,,,,,,,,,,,,,,,,,,,,,,,,,,,,,,,,,,C65A0M,train_y,red_square,top_left,2025-07-24_16h04.13.383,HideSeek_v1,2022.2.5,60.16434494333748,
,,,,,,,,,,,,,,,0,0,0,0,11,0,11,0,,,,,,,,,,,,,,,,,,,,,,,,,,,,,,,conditions/schedules/train_y_first/red_square_00/top_left/instructions/Slide12.png,conditions/schedules/train_y_first/red_square_00/top_left/instructions/Audio12.wav,1022.1069012000225,1022.1049032501178,12,"[6.5296471999026835, 19.354873900068924, 17.93151450017467, 18.551725500030443, 3.892149900086224, 4.332442999817431, 5.935972800012678, 11.77451610006392, 5.341432099929079, 6.332515500020236, 10.143549999920651, 13.38661150005646]","[0.01432269997894764, 0.01433770009316504, 0.07739460002630949, 0.033723700093105435, 0.014161800034344196, 0.032870500115677714, 0.03232580004259944, 0.03683419991284609, 0.032928200205788016, 0.06865699985064566, 0.03458049986511469, 13.386618199991062]",0,,,,,,,,,,,,,,,,,,,,,,,,,,,,,,,,,,,,,,,,,,,,,,,,,,,,,,,,,,,,,,,,,,,,,,,,,,,,,,,,,,,,,,,,,,,,,,,,,,,,,,,,,,,,,,,,,,,,,,,,,,,,C65A0M,train_y,red_square,top_left,2025-07-24_16h04.13.383,HideSeek_v1,2022.2.5,60.16434494333748,
1,2,8,2,3,0,-5,11,2,instr_dim1_1,,,,,,0,0,0,0,,,,,0,0,0,0,,,,,,,,,,,,,,,,,,,,,,,,,,,,,,,,,,,,,stimuli/alien_stimuli/11.png,conditions/schedules/train_y_first/red_square_00/top_left/inputInstr_1.xlsx,stimuli/alien_stimuli/11.png,1035.6141725999769,1035.6141725999769,1035.6141725999769,1035.6141725999769,1035.6124483000488,return,11.4199928001035,"[-0.16, -0.08, 0, 0.08, 0.16, 0.24, 0.32, 0.4, 0.48, 0.56]","[-0.4, -0.32, -0.24, -0.16, -0.08, 0, 0.08, 0.16, 0.24, 0.32]",3,8,2,2,0.4,0.0,1047.1927470001392,1047.1927470001392,1047.1927470001392,1047.1927470001392,1047.1927470001392,1047.1927470001392,1047.1927470001392,1047.186923349998,9.57774049998261,return,9.41745449998416,stimuli/alien_stimuli/11.png,11,2,1,,,,,,,,,,,,,,,,,,,,,,,,,,,,,,,,,,,,,,,,,,,,,,,,,,,,,,,,,,,,,,,,,,,,,,,,,,,,,,,,,,,,,,,,,C65A0M,train_y,red_square,top_left,2025-07-24_16h04.13.383,HideSeek_v1,2022.2.5,60.16434494333748,
,,,,,,,,,,,30,,,,0,0,0,0,,,,,,,,,,,,,,,,,,,,,,,,,,,,,,,,,,,,,,,,,,,,,,,,,,,,,,,,,,,,,,,,,,,,,,,,,,,,,,21,0.7,0,0,99,1,30,0,conditions/schedules/train_y_first/red_square_00/top_left/inputTrain_1.1.xlsx,99,1,1,1,0,,,,,,,,,,,,,,,,,,,,,,,,,,,,,,,,,,,,,,,,,,,,,,,,,,,,,,,,,,,,,,,,,,,,,,,,,,,C65A0M,train_y,red_square,top_left,2025-07-24_16h04.13.383,HideSeek_v1,2022.2.5,60.16434494333748,
,,,,,,,,,,,,,,,1,0,1,0,0,0,0,0,,,,,,,,,,,,,,,,,,,,,,,,,,,,,,,conditions/schedules/train_y_first/red_square_00/top_left/instructions/Slide13.png,conditions/schedules/train_y_first/red_square_00/top_left/instructions/Audio13.wav,1056.7637301001232,1056.7637299499709,13,"[6.5296471999026835, 19.354873900068924, 17.93151450017467, 18.551725500030443, 3.892149900086224, 4.332442999817431, 5.935972800012678, 11.77451610006392, 5.341432099929079, 6.332515500020236, 10.143549999920651, 13.38661150005646, 17.549241699976847]","[0.01432269997894764, 0.01433770009316504, 0.07739460002630949, 0.033723700093105435, 0.014161800034344196, 0.032870500115677714, 0.03232580004259944, 0.03683419991284609, 0.032928200205788016, 0.06865699985064566, 0.03458049986511469, 13.386618199991062, 17.549248200142756]",0,,,,,,,,,,,,,,,,,,,,,,,,,,,,,,,,,,,,,,,,,,,,,,,,,,,,,,,,,,,,,,,,,,,,,,,,,,,,,,,,,,,,,,,,,,,,,,,,,,,,,,,,,,,,,,,,,,,,,,,,,,,,C65A0M,train_y,red_square,top_left,2025-07-24_16h04.13.383,HideSeek_v1,2022.2.5,60.16434494333748,
,,,,,,,,,,,,,,,1,0,1,0,1,0,1,0,,,,,,,,,,,,,,,,,,,,,,,,,,,,,,,conditions/schedules/train_y_first/red_square_00/top_left/instructions/Slide14.png,conditions/schedules/train_y_first/red_square_00/top_left/instructions/Audio14.wav,1074.3867920001503,1074.3819189501228,14,"[6.5296471999026835, 19.354873900068924, 17.93151450017467, 18.551725500030443, 3.892149900086224, 4.332442999817431, 5.935972800012678, 11.77451610006392, 5.341432099929079, 6.332515500020236, 10.143549999920651, 13.38661150005646, 17.549241699976847, 17.44104909989983]","[0.01432269997894764, 0.01433770009316504, 0.07739460002630949, 0.033723700093105435, 0.014161800034344196, 0.032870500115677714, 0.03232580004259944, 0.03683419991284609, 0.032928200205788016, 0.06865699985064566, 0.03458049986511469, 13.386618199991062, 0.00024500000290572643, 17.441055999835953]",0,,,,,,,,,,,,,,,,,,,,,,,,,,,,,,,,,,,,,,,,,,,,,,,,,,,,,,,,,,,,,,,,,,,,,,,,,,,,,,,,,,,,,,,,,,,,,,,,,,,,,,,,,,,,,,,,,,,,,,,,,,,,C65A0M,train_y,red_square,top_left,2025-07-24_16h04.13.383,HideSeek_v1,2022.2.5,60.16434494333748,
2,0,8,0,8,0,0,16,2,instr_dim1_1,,,,,,1,0,1,0,,,,,0,0,0,0,,,,,,,,,,,,,,,,,,,,,,,,,,,,,,,,,,,,,stimuli/alien_stimuli/16.png,conditions/schedules/train_y_first/red_square_00/top_left/inputInstr_1.xlsx,stimuli/alien_stimuli/16.png,1091.9283720001113,1091.9283720001113,1091.9283720001113,1091.9283720001113,1091.929289149889,return,10.7403498000931,"[-0.16, -0.08, 0, 0.08, 0.16, 0.24, 0.32, 0.4, 0.48, 0.56]","[-0.4, -0.32, -0.24, -0.16, -0.08, 0, 0.08, 0.16, 0.24, 0.32]",8,8,0,0,0.0,0.0,1102.8411185999867,1102.8411185999867,1102.8411185999867,1102.8411185999867,1102.8411185999867,1102.8411185999867,1102.8411185999867,1102.8332735500533,25.077743800124153,return,24.91693879989907,stimuli/alien_stimuli/16.png,16,0,2,,,,,,,,,,,,,,,,,,,,,,,,,,,,,,,,,,,,,,,,,,,,,,,,,,,,,,,,,,,,,,,,,,,,,,,,,,,,,,,,,,,,,,,,,C65A0M,train_y,red_square,top_left,2025-07-24_16h04.13.383,HideSeek_v1,2022.2.5,60.16434494333748,
,,,,,,,,,,,30,,,,1,0,1,0,,,,,,,,,,,,,,,,,,,,,,,,,,,,,,,,,,,,,,,,,,,,,,,,,,,,,,,,,,,,,,,,,,,,,,,,,,,,,,21,0.7,0,0,99,1,30,0,conditions/schedules/train_y_first/red_square_00/top_left/inputTrain_1.1.xlsx,99,1,1,1,0,,,,,,,,,,,,,,,,,,,,,,,,,,,,,,,,,,,,,,,,,,,,,,,,,,,,,,,,,,,,,,,,,,,,,,,,,,,C65A0M,train_y,red_square,top_left,2025-07-24_16h04.13.383,HideSeek_v1,2022.2.5,60.16434494333748,
,,,,,,,,,,,,,,,2,0,2,0,0,0,0,0,,,,,,,,,,,,,,,,,,,,,,,,,,,,,,,conditions/schedules/train_y_first/red_square_00/top_left/instructions/Slide15.png,conditions/schedules/train_y_first/red_square_00/top_left/instructions/Audio15.wav,1127.9413509001024,1127.9432442500024,15,"[6.5296471999026835, 19.354873900068924, 17.93151450017467, 18.551725500030443, 3.892149900086224, 4.332442999817431, 5.935972800012678, 11.77451610006392, 5.341432099929079, 6.332515500020236, 10.143549999920651, 13.38661150005646, 17.549241699976847, 17.44104909989983, 43.999487000051886]","[0.01432269997894764, 0.01433770009316504, 0.07739460002630949, 0.033723700093105435, 0.014161800034344196, 0.032870500115677714, 0.03232580004259944, 0.03683419991284609, 0.032928200205788016, 0.06865699985064566, 0.03458049986511469, 13.386618199991062, 0.00024500000290572643, 17.441055999835953, 43.99949399987236]",0,,,,,,,,,,,,,,,,,,,,,,,,,,,,,,,,,,,,,,,,,,,,,,,,,,,,,,,,,,,,,,,,,,,,,,,,,,,,,,,,,,,,,,,,,,,,,,,,,,,,,,,,,,,,,,,,,,,,,,,,,,,,C65A0M,train_y,red_square,top_left,2025-07-24_16h04.13.383,HideSeek_v1,2022.2.5,60.16434494333748,
,,,,,,,,,,,,,,,2,0,2,0,1,0,1,0,,,,,,,,,,,,,,,,,,,,,,,,,,,,,,,conditions/schedules/train_y_first/red_square_00/top_left/instructions/Slide16.png,conditions/schedules/train_y_first/red_square_00/top_left/instructions/Audio16.wav,1172.015213200124,1172.0098345499719,16,"[6.5296471999026835, 19.354873900068924, 17.93151450017467, 18.551725500030443, 3.892149900086224, 4.332442999817431, 5.935972800012678, 11.77451610006392, 5.341432099929079, 6.332515500020236, 10.143549999920651, 13.38661150005646, 17.549241699976847, 17.44104909989983, 43.999487000051886, 21.24146609986201]","[0.01432269997894764, 0.01433770009316504, 0.07739460002630949, 0.033723700093105435, 0.014161800034344196, 0.032870500115677714, 0.03232580004259944, 0.03683419991284609, 0.032928200205788016, 0.06865699985064566, 0.03458049986511469, 13.386618199991062, 0.00024500000290572643, 17.441055999835953, 0.00020829983986914158, 21.24147309991531]",0,,,,,,,,,,,,,,,,,,,,,,,,,,,,,,,,,,,,,,,,,,,,,,,,,,,,,,,,,,,,,,,,,,,,,,,,,,,,,,,,,,,,,,,,,,,,,,,,,,,,,,,,,,,,,,,,,,,,,,,,,,,,C65A0M,train_y,red_square,top_left,2025-07-24_16h04.13.383,HideSeek_v1,2022.2.5,60.16434494333748,
,0,5,0,4,0,-1,15,,train_dim1_1,1,30,,,,2,0,2,0,,,,,,,,,0,0,0,0,0,0,0,0,0,0,0,0,,,,,,,,,,,,,,,,,,,,,,,,,stimuli/alien_stimuli/15.png,,,,,,,,,,,,,,,,,,,,,,,,,,,,,,,,,,,,,,,30,,,,,,,,1193.362270800164,1193.362270800164,1193.362270800164,1193.362270800164,1193.362270800164,0,0,-0.16,0,return,9.30009389994666,0,1,0,0,-0.16,0,return,9.196817200165242,,,,,,,,,,,,,,,,,,,,,,,,,,,,,,,,,,,,,,,,,,,,,,,,,,,,,,,,C65A0M,train_y,red_square,top_left,2025-07-24_16h04.13.383,HideSeek_v1,2022.2.5,60.16434494333748,
,3,7,3,7,0,0,16,,train_dim1_1,2,30,,,,2,0,2,0,,,,,,,,,0,0,0,0,0,1,1,1,0,0,0,0,,,,,,,,,,,,,,,,,,,,,,,,,stimuli/alien_stimuli/16.png,,,,,,,,,,,,,,,,,,,,,,,,,,,,,stimuli/alien_stimuli/15.png,15,0,3,,,,,,,30,,,,,,,,1213.446802600054,1213.446802600054,1213.446802600054,1213.446802600054,1213.446802600054,,,,,right,5.810662399977446,0,1,0,99,0.16,0.16,right,5.725572200026363,1211.8790154000744,-0.16,-0.08,0.08,0.0,-0.04,-0.16,-0.16,-0.16,-0.08,1204.2622013001237,1204.2622013001237,1204.2622013001237,1204.2622013001237,1204.2622013001237,1204.2622013001237,1204.2622013001237,1204.2622013001237,1204.2508443498753,7.764887100085616,return,7.600591300055385,,,,,,,,,,,,,,,,,,,,,,,,,,,,,,,,,,C65A0M,train_y,red_square,top_left,2025-07-24_16h04.13.383,HideSeek_v1,2022.2.5,60.16434494333748,
,3,7,3,7,0,0,16,,train_dim1_1,2,30,,,,2,0,2,0,,,,,,,,,0,0,0,0,0,1,1,1,1,0,1,0,,,,,,,,,,,,,,,,,,,,,,,,,,,,,,,,,,,,,,,,,,,,,,,,,,,,,,,,,,,,,,,,30,,,,,,,,1219.2654681000859,1219.2654681000859,1219.2654681000859,1219.2654681000859,1219.2654681000859,,,,,up,2.962301899911836,0,1,0,99,0.16,0.24,up,2.8769400001037866,,,,,,,,,,,,,,,,,,,,,,,,,,,,,,,,,,,,,,,,,,,,,,,,,,,,,,,,C65A0M,train_y,red_square,top_left,2025-07-24_16h04.13.383,HideSeek_v1,2022.2.5,60.16434494333748,
,3,7,3,7,0,0,16,,train_dim1_1,2,30,,,,2,0,2,0,,,,,,,,,0,0,0,0,0,1,1,1,2,0,2,0,,,,,,,,,,,,,,,,,,,,,,,,,,,,,,,,,,,,,,,,,,,,,,,,,,,,,,,,,,,,,,,,30,,,,,,,,1222.2345439000055,1222.2345439000055,1222.2345439000055,1222.2345439000055,1222.2345439000055,,,,,left,0.7772067000623792,0,1,0,99,0.08,0.24,left,0.689334399998188,,,,,,,,,,,,,,,,,,,,,,,,,,,,,,,,,,,,,,,,,,,,,,,,,,,,,,,,C65A0M,train_y,red_square,top_left,2025-07-24_16h04.13.383,HideSeek_v1,2022.2.5,60.16434494333748,
,3,7,3,7,0,0,16,,train_dim1_1,2,30,,,,2,0,2,0,,,,,,,,,0,0,0,0,0,1,1,1,3,0,3,0,,,,,,,,,,,,,,,,,,,,,,,,,,,,,,,,,,,,,,,,,,,,,,,,,,,,,,,,,,,,,,,,30,,,,,,,,1223.019549000077,1223.019549000077,1223.019549000077,1223.019549000077,1223.019549000077,,,,,left,1.9937203000299633,0,1,0,99,0.0,0.24,left,1.9144009000156075,,,,,,,,,,,,,,,,,,,,,,,,,,,,,,,,,,,,,,,,,,,,,,,,,,,,,,,,C65A0M,train_y,red_square,top_left,2025-07-24_16h04.13.383,HideSeek_v1,2022.2.5,60.16434494333748,
,3,7,3,7,0,0,16,,train_dim1_1,2,30,,,,2,0,2,0,,,,,,,,,0,0,0,0,0,1,1,1,4,0,4,0,,,,,,,,,,,,,,,,,,,,,,,,,,,,,,,,,,,,,,,,,,,,,,,,,,,,,,,,,,,,,,,,30,,,,,,,,1225.020454700105,1225.020454700105,1225.020454700105,1225.020454700105,1225.020454700105,,,,,down,2.461583400145173,0,1,0,99,0.0,0.15999999999999998,down,2.3749788999557495,,,,,,,,,,,,,,,,,,,,,,,,,,,,,,,,,,,,,,,,,,,,,,,,,,,,,,,,C65A0M,train_y,red_square,top_left,2025-07-24_16h04.13.383,HideSeek_v1,2022.2.5,60.16434494333748,
,3,7,3,7,0,0,16,,train_dim1_1,2,30,,,,2,0,2,0,,,,,,,,,0,0,0,0,0,1,1,1,5,0,5,0,,,,,,,,,,,,,,,,,,,,,,,,,,,,,,,,,,,,,,,,,,,,,,,,,,,,,,,,,,,,,,,,30,,,,,,,,1227.488342200173,1227.488342200173,1227.488342200173,1227.488342200173,1227.488342200173,,,,,down,0.6432785999495536,0,1,0,99,0.0,0.07999999999999997,down,0.5533625998068601,,,,,,,,,,,,,,,,,,,,,,,,,,,,,,,,,,,,,,,,,,,,,,,,,,,,,,,,C65A0M,train_y,red_square,top_left,2025-07-24_16h04.13.383,HideSeek_v1,2022.2.5,60.16434494333748,
,3,7,3,7,0,0,16,,train_dim1_1,2,30,,,,2,0,2,0,,,,,,,,,0,0,0,0,0,1,1,1,6,0,6,0,,,,,,,,,,,,,,,,,,,,,,,,,,,,,,,,,,,,,,,,,,,,,,,,,,,,,,,,,,,,,,,,30,,,,,,,,1228.1382822000887,1228.1382822000887,1228.1382822000887,1228.1382822000887,1228.1382822000887,,,,,right,2.1446924000047147,0,1,0,99,0.08,0.07999999999999997,right,2.0583268001209944,,,,,,,,,,,,,,,,,,,,,,,,,,,,,,,,,,,,,,,,,,,,,,,,,,,,,,,,C65A0M,train_y,red_square,top_left,2025-07-24_16h04.13.383,HideSeek_v1,2022.2.5,60.16434494333748,
,3,7,3,7,0,0,16,,train_dim1_1,2,30,,,,2,0,2,0,,,,,,,,,0,0,0,0,0,1,1,1,7,0,7,0,,,,,,,,,,,,,,,,,,,,,,,,,,,,,,,,,,,,,,,,,,,,,,,,,,,,,,,,,,,,,,,,30,,,,,,,,1230.291347200051,1230.291347200051,1230.291347200051,1230.291347200051,1230.291347200051,,,,,down,0.7942349000368267,0,1,0,99,0.08,-2.7755575615628914e-17,down,0.7033448999281973,,,,,,,,,,,,,,,,,,,,,,,,,,,,,,,,,,,,,,,,,,,,,,,,,,,,,,,,C65A0M,train_y,red_square,top_left,2025-07-24_16h04.13.383,HideSeek_v1,2022.2.5,60.16434494333748,
,3,7,3,7,0,0,16,,train_dim1_1,2,30,,,,2,0,2,0,,,,,,,,,0,0,0,0,0,1,1,1,8,0,8,0,,,,,,,,,,,,,,,,,,,,,,,,,,,,,,,,,,,,,,,,,,,,,,,,,,,,,,,,,,,,,,,,30,,,,,,,,1231.0922112001572,1231.0922112001572,1231.0922112001572,1231.0922112001572,1231.0922112001572,-2,0,0.08,-2.7755575615628914e-17,return,1.4771028999239206,0,0,0,0,0.08,-2.7755575615628914e-17,return,1.4001499998848885,,,,,,,,,,,,,,,,,,,,,,,,,,,,,,,,,,,,,,,,,,,,,,,,,,,,,,,,C65A0M,train_y,red_square,top_left,2025-07-24_16h04.13.383,HideSeek_v1,2022.2.5,60.16434494333748,
,2,8,2,5,0,-3,13,,train_dim1_1,3,30,,,,2,0,2,0,,,,,,,,,0,0,0,0,0,2,2,2,0,0,0,0,,,,,,,,,,,,,,,,,,,,,,,,,stimuli/alien_stimuli/13.png,,,,,,,,,,,,,,,,,,,,,,,,,,,,,stimuli/alien_stimuli/16.png,16,3,4,,,,,,,30,,,,,,,,1242.8738655000925,1242.8738655000925,1242.8738655000925,1242.8738655000925,1242.8738655000925,,,,,down,6.843820400070399,0,0,0,99,0,0.15999999999999998,down,6.755339400144294,1241.3153560000937,0.08,0.16,0.0,0.0,0.16,0.08,0.08,0.08,0.16,1234.1557114999741,1234.1557114999741,1234.1557114999741,1234.1557114999741,1234.1557114999741,1234.1557114999741,1234.1557114999741,1234.1557114999741,1234.1424803499367,7.269712599925697,return,7.13250120007433,,,,,,,,,,,,,,,,,,,,,,,,,,,,,,,,,,C65A0M,train_y,red_square,top_left,2025-07-24_16h04.13.383,HideSeek_v1,2022.2.5,60.16434494333748,
,2,8,2,5,0,-3,13,,train_dim1_1,3,30,,,,2,0,2,0,,,,,,,,,0,0,0,0,0,2,2,2,1,0,1,0,,,,,,,,,,,,,,,,,,,,,,,,,,,,,,,,,,,,,,,,,,,,,,,,,,,,,,,,,,,,,,,,30,,,,,,,,1249.7239270999562,1249.7239270999562,1249.7239270999562,1249.7239270999562,1249.7239270999562,,,,,down,1.4778669001534581,0,0,0,99,0,0.07999999999999997,down,1.3944343999028206,,,,,,,,,,,,,,,,,,,,,,,,,,,,,,,,,,,,,,,,,,,,,,,,,,,,,,,,C65A0M,train_y,red_square,top_left,2025-07-24_16h04.13.383,HideSeek_v1,2022.2.5,60.16434494333748,
,2,8,2,5,0,-3,13,,train_dim1_1,3,30,,,,2,0,2,0,,,,,,,,,0,0,0,0,0,2,2,2,2,0,2,0,,,,,,,,,,,,,,,,,,,,,,,,,,,,,,,,,,,,,,,,,,,,,,,,,,,,,,,,,,,,,,,,30,,,,,,,,1251.207674600184,1251.207674600184,1251.207674600184,1251.207674600184,1251.207674600184,,,,,down,1.0439750000368804,0,0,0,99,0,-2.7755575615628914e-17,down,0.9683389000128955,,,,,,,,,,,,,,,,,,,,,,,,,,,,,,,,,,,,,,,,,,,,,,,,,,,,,,,,C65A0M,train_y,red_square,top_left,2025-07-24_16h04.13.383,HideSeek_v1,2022.2.5,60.16434494333748,
,2,8,2,5,0,-3,13,,train_dim1_1,3,30,,,,2,0,2,0,,,,,,,,,0,0,0,0,0,2,2,2,3,0,3,0,,,,,,,,,,,,,,,,,,,,,,,,,,,,,,,,,,,,,,,,,,,,,,,,,,,,,,,,,,,,,,,,30,,,,,,,,1252.2597903001588,1252.2597903001588,1252.2597903001588,1252.2597903001588,1252.2597903001588,-5,0,0,-2.7755575615628914e-17,return,4.562488300027326,1,0,0,1,0,-2.7755575615628914e-17,return,4.471570300171152,,,,,,,,,,,,,,,,,,,,,,,,,,,,,,,,,,,,,,,,,,,,,,,,,,,,,,,,C65A0M,train_y,red_square,top_left,2025-07-24_16h04.13.383,HideSeek_v1,2022.2.5,60.16434494333748,
,0,6,0,2,0,-4,12,,train_dim1_1,4,30,,,,2,0,2,0,,,,,,,,,0,0,0,0,0,3,3,3,0,0,0,0,,,,,,,,,,,,,,,,,,,,,,,,,stimuli/alien_stimuli/12.png,,,,,,,,,,,,,,,,,,,,,,,,,,,,,stimuli/alien_stimuli/13.png,13,2,5,,,,,,,30,,,,,,,,1265.401339800097,1265.401339800097,1265.401339800097,1265.401339800097,1265.401339800097,,,,,right,6.335054500028491,1,0,0,99,-0.08,0.08,right,6.249842799967155,1263.8233112001326,0,0,0.24,0.0,0.12,0,0.0,0,0,1258.395204000175,1258.395204000175,1258.395204000175,1258.395204000175,1258.395204000175,1258.395204000175,1258.395204000175,1258.395204000175,1258.395929700043,5.544772199820727,return,5.397082799812779,1258.395204000175,,,,,,,,,,,,,,,,,,,,,,,,,,,,,,,,,C65A0M,train_y,red_square,top_left,2025-07-24_16h04.13.383,HideSeek_v1,2022.2.5,60.16434494333748,
,0,6,0,2,0,-4,12,,train_dim1_1,4,30,,,,2,0,2,0,,,,,,,,,0,0,0,0,0,3,3,3,1,0,1,0,,,,,,,,,,,,,,,,,,,,,,,,,,,,,,,,,,,,,,,,,,,,,,,,,,,,,,,,,,,,,,,,30,,,,,,,,1271.7438309001736,1271.7438309001736,1271.7438309001736,1271.7438309001736,1271.7438309001736,,,,,right,1.3602246998343617,1,0,0,99,0.0,0.08,right,1.2751660998910666,,,,,,,,,,,,,,,,,,,,,,,,,,,,,,,,,,,,,,,,,,,,,,,,,,,,,,,,C65A0M,train_y,red_square,top_left,2025-07-24_16h04.13.383,HideSeek_v1,2022.2.5,60.16434494333748,
,0,6,0,2,0,-4,12,,train_dim1_1,4,30,,,,2,0,2,0,,,,,,,,,0,0,0,0,0,3,3,3,2,0,2,0,,,,,,,,,,,,,,,,,,,,,,,,,,,,,,,,,,,,,,,,,,,,,,,,,,,,,,,,,,,,,,,,30,,,,,,,,1273.110257100081,1273.110257100081,1273.110257100081,1273.110257100081,1273.110257100081,-5,2,0.0,0.08,return,3.012408300070092,1,0,0,0,0.0,0.08,return,2.9288925000000745,,,,,,,,,,,,,,,,,,,,,,,,,,,,,,,,,,,,,,,,,,,,,,,,,,,,,,,,C65A0M,train_y,red_square,top_left,2025-07-24_16h04.13.383,HideSeek_v1,2022.2.5,60.16434494333748,
,3,8,3,3,0,-5,11,,train_dim1_1,5,30,,,,2,0,2,0,,,,,,,,,0,0,0,0,0,4,4,4,0,0,0,0,,,,,,,,,,,,,,,,,,,,,,,,,stimuli/alien_stimuli/11.png,,,,,,,,,,,,,,,,,,,,,,,,,,,,,stimuli/alien_stimuli/12.png,12,0,6,,,,,,,30,,,,,,,,1286.0942371001001,1286.0942371001001,1286.0942371001001,1286.0942371001001,1286.0942371001001,,,,,down,4.389880999922752,1,0,0,99,0.08,0.15999999999999998,down,4.303529400145635,1284.5360767999664,-0.16,-0.24,0.32,0.0,-0.07999999999999999,-0.16,-0.16,-0.16,-0.24,1277.6928597001825,1277.6928597001825,1277.6928597001825,1277.6928597001825,1277.6928597001825,1277.6928597001825,1277.6928597001825,1277.6928597001825,1277.6787074499998,6.958436300046742,return,6.808277199976146,1286.0942371001001,,,,,,,,,,,,,,,,,,,,,,,,,,,,,,,,,C65A0M,train_y,red_square,top_left,2025-07-24_16h04.13.383,HideSeek_v1,2022.2.5,60.16434494333748,
,3,8,3,3,0,-5,11,,train_dim1_1,5,30,,,,2,0,2,0,,,,,,,,,0,0,0,0,0,4,4,4,1,0,1,0,,,,,,,,,,,,,,,,,,,,,,,,,,,,,,,,,,,,,,,,,,,,,,,,,,,,,,,,,,,,,,,,30,,,,,,,,1290.4914498999715,1290.4914498999715,1290.4914498999715,1290.4914498999715,1290.4914498999715,,,,,down,0.6808597999624908,1,0,0,99,0.08,0.07999999999999997,down,0.5881882000248879,,,,,,,,,,,,,,,,,,,,,,,,,,,,,,,,,,,,,,,,,,,,,,,,,,,,,,,,C65A0M,train_y,red_square,top_left,2025-07-24_16h04.13.383,HideSeek_v1,2022.2.5,60.16434494333748,
,3,8,3,3,0,-5,11,,train_dim1_1,5,30,,,,2,0,2,0,,,,,,,,,0,0,0,0,0,4,4,4,2,0,2,0,,,,,,,,,,,,,,,,,,,,,,,,,,,,,,,,,,,,,,,,,,,,,,,,,,,,,,,,,,,,,,,,30,,,,,,,,1291.1791141000576,1291.1791141000576,1291.1791141000576,1291.1791141000576,1291.1791141000576,,,,,down,0.6951979000587016,1,0,0,99,0.08,-2.7755575615628914e-17,down,0.6166956000961363,,,,,,,,,,,,,,,,,,,,,,,,,,,,,,,,,,,,,,,,,,,,,,,,,,,,,,,,C65A0M,train_y,red_square,top_left,2025-07-24_16h04.13.383,HideSeek_v1,2022.2.5,60.16434494333748,
,3,8,3,3,0,-5,11,,train_dim1_1,5,30,,,,2,0,2,0,,,,,,,,,0,0,0,0,0,4,4,4,3,0,3,0,,,,,,,,,,,,,,,,,,,,,,,,,,,,,,,,,,,,,,,,,,,,,,,,,,,,,,,,,,,,,,,,30,,,,,,,,1291.880711400183,1291.880711400183,1291.880711400183,1291.880711400183,1291.880711400183,-8,2,0.08,-2.7755575615628914e-17,return,1.287808399880305,1,0,0,0,0.08,-2.7755575615628914e-17,return,1.20726879988797,,,,,,,,,,,,,,,,,,,,,,,,,,,,,,,,,,,,,,,,,,,,,,,,,,,,,,,,C65A0M,train_y,red_square,top_left,2025-07-24_16h04.13.383,HideSeek_v1,2022.2.5,60.16434494333748,
,1,9,1,5,0,-4,12,,train_dim1_1,6,30,,,,2,0,2,0,,,,,,,,,0,0,0,0,0,5,5,5,0,0,0,0,,,,,,,,,,,,,,,,,,,,,,,,,stimuli/alien_stimuli/12.png,,,,,,,,,,,,,,,,,,,,,,,,,,,,,stimuli/alien_stimuli/11.png,11,3,7,,,,,,,30,,,,,,,,1304.5912286001258,1304.5912286001258,1304.5912286001258,1304.5912286001258,1304.5912286001258,,,,,down,2.2905182999093086,1,0,0,99,-0.08,0.24,down,2.208735399879515,1303.0207583999727,0.08,-0.16,0.4,0.0,0.039999999999999994,0.08,0.08,0.08,-0.16,1294.7667863001116,1294.7667863001116,1294.7667863001116,1294.7667863001116,1294.7667863001116,1294.7667863001116,1294.7667863001116,1294.7667863001116,1294.7595996000339,8.379658699966967,return,8.220141900004819,,,,,,,,,,,,,,,,,,,,,,,,,,,,,,,,,,C65A0M,train_y,red_square,top_left,2025-07-24_16h04.13.383,HideSeek_v1,2022.2.5,60.16434494333748,
,1,9,1,5,0,-4,12,,train_dim1_1,6,30,,,,2,0,2,0,,,,,,,,,0,0,0,0,0,5,5,5,1,0,1,0,,,,,,,,,,,,,,,,,,,,,,,,,,,,,,,,,,,,,,,,,,,,,,,,,,,,,,,,,,,,,,,,30,,,,,,,,1306.8884593001567,1306.8884593001567,1306.8884593001567,1306.8884593001567,1306.8884593001567,,,,,down,0.6263405999634415,1,0,0,99,-0.08,0.15999999999999998,down,0.5390614999923855,,,,,,,,,,,,,,,,,,,,,,,,,,,,,,,,,,,,,,,,,,,,,,,,,,,,,,,,C65A0M,train_y,red_square,top_left,2025-07-24_16h04.13.383,HideSeek_v1,2022.2.5,60.16434494333748,
,1,9,1,5,0,-4,12,,train_dim1_1,6,30,,,,2,0,2,0,,,,,,,,,0,0,0,0,0,5,5,5,2,0,2,0,,,,,,,,,,,,,,,,,,,,,,,,,,,,,,,,,,,,,,,,,,,,,,,,,,,,,,,,,,,,,,,,30,,,,,,,,1307.521628000075,1307.521628000075,1307.521628000075,1307.521628000075,1307.521628000075,,,,,down,0.7269735999871045,1,0,0,99,-0.08,0.07999999999999997,down,0.63704749988392,,,,,,,,,,,,,,,,,,,,,,,,,,,,,,,,,,,,,,,,,,,,,,,,,,,,,,,,C65A0M,train_y,red_square,top_left,2025-07-24_16h04.13.383,HideSeek_v1,2022.2.5,60.16434494333748,
,1,9,1,5,0,-4,12,,train_dim1_1,6,30,,,,2,0,2,0,,,,,,,,,0,0,0,0,0,5,5,5,3,0,3,0,,,,,,,,,,,,,,,,,,,,,,,,,,,,,,,,,,,,,,,,,,,,,,,,,,,,,,,,,,,,,,,,30,,,,,,,,1308.257174700033,1308.257174700033,1308.257174700033,1308.257174700033,1308.257174700033,,,,,down,2.1996182000730187,1,0,0,99,-0.08,-2.7755575615628914e-17,down,2.1035295999608934,,,,,,,,,,,,,,,,,,,,,,,,,,,,,,,,,,,,,,,,,,,,,,,,,,,,,,,,C65A0M,train_y,red_square,top_left,2025-07-24_16h04.13.383,HideSeek_v1,2022.2.5,60.16434494333748,
,1,9,1,5,0,-4,12,,train_dim1_1,6,30,,,,2,0,2,0,,,,,,,,,0,0,0,0,0,5,5,5,4,0,4,0,,,,,,,,,,,,,,,,,,,,,,,,,,,,,,,,,,,,,,,,,,,,,,,,,,,,,,,,,,,,,,,,30,,,,,,,,1310.4658089000732,1310.4658089000732,1310.4658089000732,1310.4658089000732,1310.4658089000732,,,,,down,0.901962700067088,1,0,0,99,-0.08,-0.08000000000000003,down,0.812279999954626,,,,,,,,,,,,,,,,,,,,,,,,,,,,,,,,,,,,,,,,,,,,,,,,,,,,,,,,C65A0M,train_y,red_square,top_left,2025-07-24_16h04.13.383,HideSeek_v1,2022.2.5,60.16434494333748,
,1,9,1,5,0,-4,12,,train_dim1_1,6,30,,,,2,0,2,0,,,,,,,,,0,0,0,0,0,5,5,5,5,0,5,0,,,,,,,,,,,,,,,,,,,,,,,,,,,,,,,,,,,,,,,,,,,,,,,,,,,,,,,,,,,,,,,,30,,,,,,,,1311.375285499962,1311.375285499962,1311.375285499962,1311.375285499962,1311.375285499962,-13,2,-0.08,-0.08000000000000003,return,0.9437084000092,1,1,0,0,-0.08,-0.08000000000000003,return,0.8502372000366449,,,,,,,,,,,,,,,,,,,,,,,,,,,,,,,,,,,,,,,,,,,,,,,,,,,,,,,,C65A0M,train_y,red_square,top_left,2025-07-24_16h04.13.383,HideSeek_v1,2022.2.5,60.16434494333748,
,1,8,1,5,0,-3,13,,train_dim1_1,7,30,,,,2,0,2,0,,,,,,,,,0,0,0,0,0,6,6,6,0,0,0,0,,,,,,,,,,,,,,,,,,,,,,,,,stimuli/alien_stimuli/13.png,,,,,,,,,,,,,,,,,,,,,,,,,,,,,stimuli/alien_stimuli/12.png,12,1,8,,,,,,,30,,,,,,,,1324.0815579001792,1324.0815579001792,1324.0815579001792,1324.0815579001792,1324.0815579001792,,,,,down,5.6260536999907345,1,1,0,99,-0.08,0.15999999999999998,down,5.528706100070849,1322.516944900155,-0.08,0,0.32,0.0,0.16,-0.08,-0.08,-0.08,0,1313.8892885001842,1313.8892885001842,1313.8892885001842,1313.8892885001842,1313.8892885001842,1313.8892885001842,1313.8892885001842,1313.8892885001842,1313.875452450081,8.742768000112846,return,8.59291939996183,1324.0815579001792,,,,,,,,,,,,,,,,,,,,,,,,,,,,,,,,,C65A0M,train_y,red_square,top_left,2025-07-24_16h04.13.383,HideSeek_v1,2022.2.5,60.16434494333748,
,1,8,1,5,0,-3,13,,train_dim1_1,7,30,,,,2,0,2,0,,,,,,,,,0,0,0,0,0,6,6,6,1,0,1,0,,,,,,,,,,,,,,,,,,,,,,,,,,,,,,,,,,,,,,,,,,,,,,,,,,,,,,,,,,,,,,,,30,,,,,,,,1329.7067516001407,1329.7067516001407,1329.7067516001407,1329.7067516001407,1329.7067516001407,,,,,down,0.594485400011763,1,1,0,99,-0.08,0.07999999999999997,down,0.5091126998886466,,,,,,,,,,,,,,,,,,,,,,,,,,,,,,,,,,,,,,,,,,,,,,,,,,,,,,,,C65A0M,train_y,red_square,top_left,2025-07-24_16h04.13.383,HideSeek_v1,2022.2.5,60.16434494333748,
,1,8,1,5,0,-3,13,,train_dim1_1,7,30,,,,2,0,2,0,,,,,,,,,0,0,0,0,0,6,6,6,2,0,2,0,,,,,,,,,,,,,,,,,,,,,,,,,,,,,,,,,,,,,,,,,,,,,,,,,,,,,,,,,,,,,,,,30,,,,,,,,1330.3081361001823,1330.3081361001823,1330.3081361001823,1330.3081361001823,1330.3081361001823,,,,,down,1.0921932999044657,1,1,0,99,-0.08,-2.7755575615628914e-17,down,0.9998856000602245,,,,,,,,,,,,,,,,,,,,,,,,,,,,,,,,,,,,,,,,,,,,,,,,,,,,,,,,C65A0M,train_y,red_square,top_left,2025-07-24_16h04.13.383,HideSeek_v1,2022.2.5,60.16434494333748,
,1,8,1,5,0,-3,13,,train_dim1_1,7,30,,,,2,0,2,0,,,,,,,,,0,0,0,0,0,6,6,6,3,0,3,0,,,,,,,,,,,,,,,,,,,,,,,,,,,,,,,,,,,,,,,,,,,,,,,,,,,,,,,,,,,,,,,,30,,,,,,,,1331.4123670000117,1331.4123670000117,1331.4123670000117,1331.4123670000117,1331.4123670000117,-16,2,-0.08,-2.7755575615628914e-17,return,1.3772597999777645,2,0,0,1,-0.08,-2.7755575615628914e-17,return,1.287434099940583,,,,,,,,,,,,,,,,,,,,,,,,,,,,,,,,,,,,,,,,,,,,,,,,,,,,,,,,C65A0M,train_y,red_square,top_left,2025-07-24_16h04.13.383,HideSeek_v1,2022.2.5,60.16434494333748,
,4,7,4,2,0,-5,11,,train_dim1_1,8,30,,,,2,0,2,0,,,,,,,,,0,0,0,0,0,7,7,7,0,0,0,0,,,,,,,,,,,,,,,,,,,,,,,,,stimuli/alien_stimuli/11.png,,,,,,,,,,,,,,,,,,,,,,,,,,,,,stimuli/alien_stimuli/13.png,13,1,9,,,,,,,30,,,,,,,,1344.241660100175,1344.241660100175,1344.241660100175,1344.241660100175,1344.241660100175,,,,,down,2.690069600008428,2,0,0,99,0.16,0.08,down,2.611570900073275,1342.670137700159,-0.08,0,0.24,0.0,0.12,-0.08,-0.08,-0.08,0,1334.3598909000866,1334.3598909000866,1334.3598909000866,1334.3598909000866,1334.3598909000866,1334.3598909000866,1334.3598909000866,1334.3598909000866,1334.359109500004,8.428548800060526,return,8.28119230014272,1334.3598909000866,,,,,,,,,,,,,,,,,,,,,,,,,,,,,,,,,C65A0M,train_y,red_square,top_left,2025-07-24_16h04.13.383,HideSeek_v1,2022.2.5,60.16434494333748,
,4,7,4,2,0,-5,11,,train_dim1_1,8,30,,,,2,0,2,0,,,,,,,,,0,0,0,0,0,7,7,7,1,0,1,0,,,,,,,,,,,,,,,,,,,,,,,,,,,,,,,,,,,,,,,,,,,,,,,,,,,,,,,,,,,,,,,,30,,,,,,,,1346.9393716000486,1346.9393716000486,1346.9393716000486,1346.9393716000486,1346.9393716000486,,,,,down,0.23079219995997846,2,0,0,99,0.16,0.0,down,0.15037810010835528,,,,,,,,,,,,,,,,,,,,,,,,,,,,,,,,,,,,,,,,,,,,,,,,,,,,,,,,C65A0M,train_y,red_square,top_left,2025-07-24_16h04.13.383,HideSeek_v1,2022.2.5,60.16434494333748,
,4,7,4,2,0,-5,11,,train_dim1_1,8,30,,,,2,0,2,0,,,,,,,,,0,0,0,0,0,7,7,7,2,0,2,0,,,,,,,,,,,,,,,,,,,,,,,,,,,,,,,,,,,,,,,,,,,,,,,,,,,,,,,,,,,,,,,,30,,,,,,,,1347.1832135999575,1347.1832135999575,1347.1832135999575,1347.1832135999575,1347.1832135999575,,,,,down,0.8543978999368846,2,0,0,99,0.16,-0.08,down,0.7644175998866558,,,,,,,,,,,,,,,,,,,,,,,,,,,,,,,,,,,,,,,,,,,,,,,,,,,,,,,,C65A0M,train_y,red_square,top_left,2025-07-24_16h04.13.383,HideSeek_v1,2022.2.5,60.16434494333748,
,4,7,4,2,0,-5,11,,train_dim1_1,8,30,,,,2,0,2,0,,,,,,,,,0,0,0,0,0,7,7,7,3,0,3,0,,,,,,,,,,,,,,,,,,,,,,,,,,,,,,,,,,,,,,,,,,,,,,,,,,,,,,,,,,,,,,,,30,,,,,,,,1348.0392937001307,1348.0392937001307,1348.0392937001307,1348.0392937001307,1348.0392937001307,,,,,down,0.49342820001766086,2,0,0,99,0.16,-0.16,down,0.4124294000212103,,,,,,,,,,,,,,,,,,,,,,,,,,,,,,,,,,,,,,,,,,,,,,,,,,,,,,,,C65A0M,train_y,red_square,top_left,2025-07-24_16h04.13.383,HideSeek_v1,2022.2.5,60.16434494333748,
,4,7,4,2,0,-5,11,,train_dim1_1,8,30,,,,2,0,2,0,,,,,,,,,0,0,0,0,0,7,7,7,4,0,4,0,,,,,,,,,,,,,,,,,,,,,,,,,,,,,,,,,,,,,,,,,,,,,,,,,,,,,,,,,,,,,,,,30,,,,,,,,1348.5399295999669,1348.5399295999669,1348.5399295999669,1348.5399295999669,1348.5399295999669,-20,2,0.16,-0.16,return,1.1112488000653684,2,1,0,0,0.16,-0.16,return,1.0326787000522017,,,,,,,,,,,,,,,,,,,,,,,,,,,,,,,,,,,,,,,,,,,,,,,,,,,,,,,,C65A0M,train_y,red_square,top_left,2025-07-24_16h04.13.383,HideSeek_v1,2022.2.5,60.16434494333748,
,4,8,4,7,0,-1,15,,train_dim1_1,9,30,,,,2,0,2,0,,,,,,,,,0,0,0,0,0,8,8,8,0,0,0,0,,,,,,,,,,,,,,,,,,,,,,,,,stimuli/alien_stimuli/15.png,,,,,,,,,,,,,,,,,,,,,,,,,,,,,stimuli/alien_stimuli/11.png,11,4,10,,,,,,,30,,,,,,,,1360.6590887999628,1360.6590887999628,1360.6590887999628,1360.6590887999628,1360.6590887999628,,,,,down,2.4038490999955684,2,1,0,99,0.16,0.15999999999999998,down,2.323991500074044,1359.0906132999808,0.16,-0.24,0.4,0.0,-0.039999999999999994,0.16,0.16,0.16,-0.24,1351.2393412000965,1351.2393412000965,1351.2393412000965,1351.2393412000965,1351.2393412000965,1351.2393412000965,1351.2393412000965,1351.2393412000965,1351.2398508000654,7.964530100114644,return,7.811642900109291,,,,,,,,,,,,,,,,,,,,,,,,,,,,,,,,,,C65A0M,train_y,red_square,top_left,2025-07-24_16h04.13.383,HideSeek_v1,2022.2.5,60.16434494333748,
,4,8,4,7,0,-1,15,,train_dim1_1,9,30,,,,2,0,2,0,,,,,,,,,0,0,0,0,0,8,8,8,1,0,1,0,,,,,,,,,,,,,,,,,,,,,,,,,,,,,,,,,,,,,,,,,,,,,,,,,,,,,,,,,,,,,,,,30,,,,,,,,1363.0703386000823,1363.0703386000823,1363.0703386000823,1363.0703386000823,1363.0703386000823,-21,2,0.16,0.15999999999999998,return,2.3782702998723835,3,0,0,1,0.16,0.15999999999999998,return,2.2911402999889106,,,,,,,,,,,,,,,,,,,,,,,,,,,,,,,,,,,,,,,,,,,,,,,,,,,,,,,,C65A0M,train_y,red_square,top_left,2025-07-24_16h04.13.383,HideSeek_v1,2022.2.5,60.16434494333748,
,2,7,2,7,0,0,16,,train_dim1_1,10,30,,,,2,0,2,0,,,,,,,,,0,0,0,0,0,9,9,9,0,0,0,0,,,,,,,,,,,,,,,,,,,,,,,,,stimuli/alien_stimuli/16.png,,,,,,,,,,,,,,,,,,,,,,,,,,,,,stimuli/alien_stimuli/15.png,15,4,11,,,,,,,30,,,,,,,,1372.6830545000266,1372.6830545000266,1372.6830545000266,1372.6830545000266,1372.6830545000266,-21,2,0,0.16,return,2.8739579000975937,4,0,0,1,0,0.16,return,2.7796936999075115,1371.1174667000305,0.16,0.16,0.08,0.0,0.2,0.16,0.16,0.16,0.16,1367.0220508000348,1367.0220508000348,1367.0220508000348,1367.0220508000348,1367.0220508000348,1367.0220508000348,1367.0220508000348,1367.0220508000348,1367.0198738000356,4.2115607999730855,return,4.065685000037774,1367.0220508000348,,,,,,,,,,,,,,,,,,,,,,,,,,,,,,,,,C65A0M,train_y,red_square,top_left,2025-07-24_16h04.13.383,HideSeek_v1,2022.2.5,60.16434494333748,
,4,6,4,5,0,-1,15,,train_dim1_1,11,30,,,,2,0,2,0,,,,,,,,,0,0,0,0,0,10,10,10,0,0,0,0,,,,,,,,,,,,,,,,,,,,,,,,,stimuli/alien_stimuli/15.png,,,,,,,,,,,,,,,,,,,,,,,,,,,,,stimuli/alien_stimuli/16.png,16,2,12,,,,,,,30,,,,,,,,1383.6767916001845,1383.6767916001845,1383.6767916001845,1383.6767916001845,1383.6767916001845,-21,2,0.16,0.08,return,2.70390099985525,4,1,0,0,0.16,0.08,return,2.616471900139004,1382.1166874000337,0,0.16,0.0,0.0,0.16,0,0.0,0,0.16,1377.1306597001385,1377.1306597001385,1377.1306597001385,1377.1306597001385,1377.1306597001385,1377.1306597001385,1377.1306597001385,1377.1306597001385,1377.1282182499535,5.090048300102353,return,4.953636300051585,1383.6767916001845,,,,,,,,,,,,,,,,,,,,,,,,,,,,,,,,,C65A0M,train_y,red_square,top_left,2025-07-24_16h04.13.383,HideSeek_v1,2022.2.5,60.16434494333748,
,0,5,0,0,0,-5,11,,train_dim1_1,12,30,,,,2,0,2,0,,,,,,,,,0,0,0,0,0,11,11,11,0,0,0,0,,,,,,,,,,,,,,,,,,,,,,,,,stimuli/alien_stimuli/11.png,,,,,,,,,,,,,,,,,,,,,,,,,,,,,stimuli/alien_stimuli/15.png,15,4,13,,,,,,,30,,,,,,,,1392.5366678000428,1392.5366678000428,1392.5366678000428,1392.5366678000428,1392.5366678000428,,,,,down,4.509014300070703,4,1,0,99,-0.16,-0.08,down,4.417881299974397,1390.9672420001589,0.16,0,0.08,0.0,0.04,0.16,0.16,0.16,0,1387.9723464001436,1387.9723464001436,1387.9723464001436,1387.9723464001436,1387.9723464001436,1387.9723464001436,1387.9723464001436,1387.9723464001436,1387.9704674000852,3.110632299911231,return,2.9637527999002486,,,,,,,,,,,,,,,,,,,,,,,,,,,,,,,,,,C65A0M,train_y,red_square,top_left,2025-07-24_16h04.13.383,HideSeek_v1,2022.2.5,60.16434494333748,
,0,5,0,0,0,-5,11,,train_dim1_1,12,30,,,,2,0,2,0,,,,,,,,,0,0,0,0,0,11,11,11,1,0,1,0,,,,,,,,,,,,,,,,,,,,,,,,,,,,,,,,,,,,,,,,,,,,,,,,,,,,,,,,,,,,,,,,30,,,,,,,,1397.047969999956,1397.047969999956,1397.047969999956,1397.047969999956,1397.047969999956,,,,,down,1.2430555999744684,4,1,0,99,-0.16,-0.16,down,1.1604658998548985,,,,,,,,,,,,,,,,,,,,,,,,,,,,,,,,,,,,,,,,,,,,,,,,,,,,,,,,C65A0M,train_y,red_square,top_left,2025-07-24_16h04.13.383,HideSeek_v1,2022.2.5,60.16434494333748,
,0,5,0,0,0,-5,11,,train_dim1_1,12,30,,,,2,0,2,0,,,,,,,,,0,0,0,0,0,11,11,11,2,0,2,0,,,,,,,,,,,,,,,,,,,,,,,,,,,,,,,,,,,,,,,,,,,,,,,,,,,,,,,,,,,,,,,,30,,,,,,,,1398.30554020009,1398.30554020009,1398.30554020009,1398.30554020009,1398.30554020009,,,,,down,1.1621321998536587,4,1,0,99,-0.16,-0.24,down,1.0593388001434505,,,,,,,,,,,,,,,,,,,,,,,,,,,,,,,,,,,,,,,,,,,,,,,,,,,,,,,,C65A0M,train_y,red_square,top_left,2025-07-24_16h04.13.383,HideSeek_v1,2022.2.5,60.16434494333748,
,0,5,0,0,0,-5,11,,train_dim1_1,12,30,,,,2,0,2,0,,,,,,,,,0,0,0,0,0,11,11,11,3,0,3,0,,,,,,,,,,,,,,,,,,,,,,,,,,,,,,,,,,,,,,,,,,,,,,,,,,,,,,,,,,,,,,,,30,,,,,,,,1399.4743317000102,1399.4743317000102,1399.4743317000102,1399.4743317000102,1399.4743317000102,,,,,down,1.0375787001103163,4,1,0,99,-0.16,-0.32,down,0.9559504999779165,,,,,,,,,,,,,,,,,,,,,,,,,,,,,,,,,,,,,,,,,,,,,,,,,,,,,,,,C65A0M,train_y,red_square,top_left,2025-07-24_16h04.13.383,HideSeek_v1,2022.2.5,60.16434494333748,
,0,5,0,0,0,-5,11,,train_dim1_1,12,30,,,,2,0,2,0,,,,,,,,,0,0,0,0,0,11,11,11,4,0,4,0,,,,,,,,,,,,,,,,,,,,,,,,,,,,,,,,,,,,,,,,,,,,,,,,,,,,,,,,,,,,,,,,30,,,,,,,,1400.5163074000739,1400.5163074000739,1400.5163074000739,1400.5163074000739,1400.5163074000739,,,,,down,1.0772455998230726,4,1,0,99,-0.16,-0.4,down,0.9904087998438627,,,,,,,,,,,,,,,,,,,,,,,,,,,,,,,,,,,,,,,,,,,,,,,,,,,,,,,,C65A0M,train_y,red_square,top_left,2025-07-24_16h04.13.383,HideSeek_v1,2022.2.5,60.16434494333748,
,0,5,0,0,0,-5,11,,train_dim1_1,12,30,,,,2,0,2,0,,,,,,,,,0,0,0,0,0,11,11,11,5,0,5,0,,,,,,,,,,,,,,,,,,,,,,,,,,,,,,,,,,,,,,,,,,,,,,,,,,,,,,,,,,,,,,,,30,,,,,,,,1401.6001248999964,1401.6001248999964,1401.6001248999964,1401.6001248999964,1401.6001248999964,-26,2,-0.16,-0.4,return,1.1104755999986082,5,0,0,1,-0.16,-0.4,return,1.0325700000394136,,,,,,,,,,,,,,,,,,,,,,,,,,,,,,,,,,,,,,,,,,,,,,,,,,,,,,,,C65A0M,train_y,red_square,top_left,2025-07-24_16h04.13.383,HideSeek_v1,2022.2.5,60.16434494333748,
,4,8,4,4,0,-4,12,,train_dim1_1,13,30,,,,2,0,2,0,,,,,,,,,0,0,0,0,0,12,12,12,0,0,0,0,,,,,,,,,,,,,,,,,,,,,,,,,stimuli/alien_stimuli/12.png,,,,,,,,,,,,,,,,,,,,,,,,,,,,,stimuli/alien_stimuli/11.png,11,0,14,,,,,,,30,,,,,,,,1409.8448968001176,1409.8448968001176,1409.8448968001176,1409.8448968001176,1409.8448968001176,,,,,down,3.9419195998925716,5,0,0,99,0.16,0.15999999999999998,down,3.851818999974057,1408.2762206001207,-0.16,-0.4,0.4,0.0,-0.2,-0.16,-0.16,-0.16,-0.4,1404.282932100119,1404.282932100119,1404.282932100119,1404.282932100119,1404.282932100119,1404.282932100119,1404.282932100119,1404.282932100119,1404.284084799979,4.109794199932367,return,3.976120400009677,1404.282932100119,,,,,,,,,,,,,,,,,,,,,,,,,,,,,,,,,C65A0M,train_y,red_square,top_left,2025-07-24_16h04.13.383,HideSeek_v1,2022.2.5,60.16434494333748,
,4,8,4,4,0,-4,12,,train_dim1_1,13,30,,,,2,0,2,0,,,,,,,,,0,0,0,0,0,12,12,12,1,0,1,0,,,,,,,,,,,,,,,,,,,,,,,,,,,,,,,,,,,,,,,,,,,,,,,,,,,,,,,,,,,,,,,,30,,,,,,,,1413.7941209001,1413.7941209001,1413.7941209001,1413.7941209001,1413.7941209001,,,,,down,0.6596154998987913,5,0,0,99,0.16,0.07999999999999997,down,0.5732591999694705,,,,,,,,,,,,,,,,,,,,,,,,,,,,,,,,,,,,,,,,,,,,,,,,,,,,,,,,C65A0M,train_y,red_square,top_left,2025-07-24_16h04.13.383,HideSeek_v1,2022.2.5,60.16434494333748,
,4,8,4,4,0,-4,12,,train_dim1_1,13,30,,,,2,0,2,0,,,,,,,,,0,0,0,0,0,12,12,12,2,0,2,0,,,,,,,,,,,,,,,,,,,,,,,,,,,,,,,,,,,,,,,,,,,,,,,,,,,,,,,,,,,,,,,,30,,,,,,,,1414.4607649000827,1414.4607649000827,1414.4607649000827,1414.4607649000827,1414.4607649000827,,,,,down,0.7769158000592142,5,0,0,99,0.16,-2.7755575615628914e-17,down,0.692097500199452,,,,,,,,,,,,,,,,,,,,,,,,,,,,,,,,,,,,,,,,,,,,,,,,,,,,,,,,C65A0M,train_y,red_square,top_left,2025-07-24_16h04.13.383,HideSeek_v1,2022.2.5,60.16434494333748,
,4,8,4,4,0,-4,12,,train_dim1_1,13,30,,,,2,0,2,0,,,,,,,,,0,0,0,0,0,12,12,12,3,0,3,0,,,,,,,,,,,,,,,,,,,,,,,,,,,,,,,,,,,,,,,,,,,,,,,,,,,,,,,,,,,,,,,,30,,,,,,,,1415.250464900164,1415.250464900164,1415.250464900164,1415.250464900164,1415.250464900164,,,,,down,1.210476699983701,5,0,0,99,0.16,-0.08000000000000003,down,1.1122685999143869,,,,,,,,,,,,,,,,,,,,,,,,,,,,,,,,,,,,,,,,,,,,,,,,,,,,,,,,C65A0M,train_y,red_square,top_left,2025-07-24_16h04.13.383,HideSeek_v1,2022.2.5,60.16434494333748,
,4,8,4,4,0,-4,12,,train_dim1_1,13,30,,,,2,0,2,0,,,,,,,,,0,0,0,0,0,12,12,12,4,0,4,0,,,,,,,,,,,,,,,,,,,,,,,,,,,,,,,,,,,,,,,,,,,,,,,,,,,,,,,,,,,,,,,,30,,,,,,,,1416.4675120001193,1416.4675120001193,1416.4675120001193,1416.4675120001193,1416.4675120001193,-30,2,0.16,-0.08000000000000003,return,0.7436293999198824,6,0,0,1,0.16,-0.08000000000000003,return,0.6504470999352634,,,,,,,,,,,,,,,,,,,,,,,,,,,,,,,,,,,,,,,,,,,,,,,,,,,,,,,,C65A0M,train_y,red_square,top_left,2025-07-24_16h04.13.383,HideSeek_v1,2022.2.5,60.16434494333748,
,2,7,2,7,0,0,16,,train_dim1_1,14,30,,,,2,0,2,0,,,,,,,,,0,0,0,0,0,13,13,13,0,0,0,0,,,,,,,,,,,,,,,,,,,,,,,,,stimuli/alien_stimuli/16.png,,,,,,,,,,,,,,,,,,,,,,,,,,,,,stimuli/alien_stimuli/12.png,12,4,15,,,,,,,30,,,,,,,,1426.1249617000576,1426.1249617000576,1426.1249617000576,1426.1249617000576,1426.1249617000576,,,,,down,2.4241985001135617,6,0,0,99,0,0.08,down,2.3372085001319647,1424.5690876001026,0.16,-0.08,0.32,0.0,0.07999999999999999,0.16,0.16,0.16,-0.08,1418.77642140002,1418.77642140002,1418.77642140002,1418.77642140002,1418.77642140002,1418.77642140002,1418.77642140002,1418.77642140002,1418.7628262500048,5.907592199975625,return,5.775303900009021,1426.1249617000576,,,,,,,,,,,,,,,,,,,,,,,,,,,,,,,,,C65A0M,train_y,red_square,top_left,2025-07-24_16h04.13.383,HideSeek_v1,2022.2.5,60.16434494333748,
,2,7,2,7,0,0,16,,train_dim1_1,14,30,,,,2,0,2,0,,,,,,,,,0,0,0,0,0,13,13,13,1,0,1,0,,,,,,,,,,,,,,,,,,,,,,,,,,,,,,,,,,,,,,,,,,,,,,,,,,,,,,,,,,,,,,,,30,,,,,,,,1428.5560086001642,1428.5560086001642,1428.5560086001642,1428.5560086001642,1428.5560086001642,-31,2,0,0.08,return,2.077458899933845,6,1,0,0,0,0.08,return,1.9888326001819223,,,,,,,,,,,,,,,,,,,,,,,,,,,,,,,,,,,,,,,,,,,,,,,,,,,,,,,,C65A0M,train_y,red_square,top_left,2025-07-24_16h04.13.383,HideSeek_v1,2022.2.5,60.16434494333748,
,1,9,1,6,0,-3,13,,train_dim1_1,15,30,,,,2,0,2,0,,,,,,,,,0,0,0,0,0,14,14,14,0,0,0,0,,,,,,,,,,,,,,,,,,,,,,,,,stimuli/alien_stimuli/13.png,,,,,,,,,,,,,,,,,,,,,,,,,,,,,stimuli/alien_stimuli/16.png,16,2,16,,,,,,,30,,,,,,,,1437.8502378000412,1437.8502378000412,1437.8502378000412,1437.8502378000412,1437.8502378000412,,,,,down,2.209401300176978,6,1,0,99,-0.08,0.24,down,2.1255065998993814,1436.2827260000631,0,0.16,0.0,0.0,0.16,0,0.0,0,0.16,1432.2232984001748,1432.2232984001748,1432.2232984001748,1432.2232984001748,1432.2232984001748,1432.2232984001748,1432.2232984001748,1432.2232984001748,1432.2240656000097,4.17734789988026,return,4.029134899843484,,,,,,,,,,,,,,,,,,,,,,,,,,,,,,,,,,C65A0M,train_y,red_square,top_left,2025-07-24_16h04.13.383,HideSeek_v1,2022.2.5,60.16434494333748,
,1,9,1,6,0,-3,13,,train_dim1_1,15,30,,,,2,0,2,0,,,,,,,,,0,0,0,0,0,14,14,14,1,0,1,0,,,,,,,,,,,,,,,,,,,,,,,,,,,,,,,,,,,,,,,,,,,,,,,,,,,,,,,,,,,,,,,,30,,,,,,,,1440.066930500092,1440.066930500092,1440.066930500092,1440.066930500092,1440.066930500092,,,,,down,0.8413420999422669,6,1,0,99,-0.08,0.15999999999999998,down,0.7597842998802662,,,,,,,,,,,,,,,,,,,,,,,,,,,,,,,,,,,,,,,,,,,,,,,,,,,,,,,,C65A0M,train_y,red_square,top_left,2025-07-24_16h04.13.383,HideSeek_v1,2022.2.5,60.16434494333748,
,1,9,1,6,0,-3,13,,train_dim1_1,15,30,,,,2,0,2,0,,,,,,,,,0,0,0,0,0,14,14,14,2,0,2,0,,,,,,,,,,,,,,,,,,,,,,,,,,,,,,,,,,,,,,,,,,,,,,,,,,,,,,,,,,,,,,,,30,,,,,,,,1440.9152810999658,1440.9152810999658,1440.9152810999658,1440.9152810999658,1440.9152810999658,-33,2,-0.08,0.15999999999999998,return,1.3776334000285715,6,1,0,0,-0.08,0.15999999999999998,return,1.2986763999797404,,,,,,,,,,,,,,,,,,,,,,,,,,,,,,,,,,,,,,,,,,,,,,,,,,,,,,,,C65A0M,train_y,red_square,top_left,2025-07-24_16h04.13.383,HideSeek_v1,2022.2.5,60.16434494333748,
,4,5,4,4,0,-1,15,,train_dim1_1,16,30,,,,2,0,2,0,,,,,,,,,0,0,0,0,0,15,15,15,0,0,0,0,,,,,,,,,,,,,,,,,,,,,,,,,stimuli/alien_stimuli/15.png,,,,,,,,,,,,,,,,,,,,,,,,,,,,,stimuli/alien_stimuli/13.png,13,1,17,,,,,,,30,,,,,,,,1447.7932114000432,1447.7932114000432,1447.7932114000432,1447.7932114000432,1447.7932114000432,,,,,down,2.0735681999940425,6,1,0,99,0.16,-0.08,down,1.9825051999650896,1446.2358309000265,-0.08,0.08,0.24,0.0,0.2,-0.08,-0.08,-0.08,0.08,1443.8669390999712,1443.8669390999712,1443.8669390999712,1443.8669390999712,1443.8669390999712,1443.8669390999712,1443.8669390999712,1443.8669390999712,1443.8667891999241,2.4817901998758316,return,2.344087699893862,1443.8669390999712,,,,,,,,,,,,,,,,,,,,,,,,,,,,,,,,,C65A0M,train_y,red_square,top_left,2025-07-24_16h04.13.383,HideSeek_v1,2022.2.5,60.16434494333748,
,4,5,4,4,0,-1,15,,train_dim1_1,16,30,,,,2,0,2,0,,,,,,,,,0,0,0,0,0,15,15,15,1,0,1,0,,,,,,,,,,,,,,,,,,,,,,,,,,,,,,,,,,,,,,,,,,,,,,,,,,,,,,,,,,,,,,,,30,,,,,,,,1449.8739551000763,1449.8739551000763,1449.8739551000763,1449.8739551000763,1449.8739551000763,,,,,down,0.7446227001491934,6,1,0,99,0.16,-0.16,down,0.6592099999543279,,,,,,,,,,,,,,,,,,,,,,,,,,,,,,,,,,,,,,,,,,,,,,,,,,,,,,,,C65A0M,train_y,red_square,top_left,2025-07-24_16h04.13.383,HideSeek_v1,2022.2.5,60.16434494333748,
,4,5,4,4,0,-1,15,,train_dim1_1,16,30,,,,2,0,2,0,,,,,,,,,0,0,0,0,0,15,15,15,2,0,2,0,,,,,,,,,,,,,,,,,,,,,,,,,,,,,,,,,,,,,,,,,,,,,,,,,,,,,,,,,,,,,,,,30,,,,,,,,1450.6262559001334,1450.6262559001334,1450.6262559001334,1450.6262559001334,1450.6262559001334,,,,,down,1.7932573999278247,6,1,0,99,0.16,-0.24,down,1.7026258001569659,,,,,,,,,,,,,,,,,,,,,,,,,,,,,,,,,,,,,,,,,,,,,,,,,,,,,,,,C65A0M,train_y,red_square,top_left,2025-07-24_16h04.13.383,HideSeek_v1,2022.2.5,60.16434494333748,
,4,5,4,4,0,-1,15,,train_dim1_1,16,30,,,,2,0,2,0,,,,,,,,,0,0,0,0,0,15,15,15,3,0,3,0,,,,,,,,,,,,,,,,,,,,,,,,,,,,,,,,,,,,,,,,,,,,,,,,,,,,,,,,,,,,,,,,30,,,,,,,,1452.425459700171,1452.425459700171,1452.425459700171,1452.425459700171,1452.425459700171,,,,,up,1.7441656000446528,6,1,0,99,0.16,-0.15999999999999998,up,1.662781999912113,,,,,,,,,,,,,,,,,,,,,,,,,,,,,,,,,,,,,,,,,,,,,,,,,,,,,,,,C65A0M,train_y,red_square,top_left,2025-07-24_16h04.13.383,HideSeek_v1,2022.2.5,60.16434494333748,
,4,5,4,4,0,-1,15,,train_dim1_1,16,30,,,,2,0,2,0,,,,,,,,,0,0,0,0,0,15,15,15,4,0,4,0,,,,,,,,,,,,,,,,,,,,,,,,,,,,,,,,,,,,,,,,,,,,,,,,,,,,,,,,,,,,,,,,30,,,,,,,,1454.1777945000213,1454.1777945000213,1454.1777945000213,1454.1777945000213,1454.1777945000213,,,,,up,0.5971503001637757,6,1,0,99,0.16,-0.07999999999999997,up,0.5117295999079943,,,,,,,,,,,,,,,,,,,,,,,,,,,,,,,,,,,,,,,,,,,,,,,,,,,,,,,,C65A0M,train_y,red_square,top_left,2025-07-24_16h04.13.383,HideSeek_v1,2022.2.5,60.16434494333748,
,4,5,4,4,0,-1,15,,train_dim1_1,16,30,,,,2,0,2,0,,,,,,,,,0,0,0,0,0,15,15,15,5,0,5,0,,,,,,,,,,,,,,,,,,,,,,,,,,,,,,,,,,,,,,,,,,,,,,,,,,,,,,,,,,,,,,,,30,,,,,,,,1454.785850299988,1454.785850299988,1454.785850299988,1454.785850299988,1454.785850299988,,,,,up,0.5221375999972224,6,1,0,99,0.16,2.7755575615628914e-17,up,0.4376002000644803,,,,,,,,,,,,,,,,,,,,,,,,,,,,,,,,,,,,,,,,,,,,,,,,,,,,,,,,C65A0M,train_y,red_square,top_left,2025-07-24_16h04.13.383,HideSeek_v1,2022.2.5,60.16434494333748,
,4,5,4,4,0,-1,15,,train_dim1_1,16,30,,,,2,0,2,0,,,,,,,,,0,0,0,0,0,15,15,15,6,0,6,0,,,,,,,,,,,,,,,,,,,,,,,,,,,,,,,,,,,,,,,,,,,,,,,,,,,,,,,,,,,,,,,,30,,,,,,,,1455.311717600096,1455.311717600096,1455.311717600096,1455.311717600096,1455.311717600096,-33,2,0.16,2.7755575615628914e-17,return,1.077019500080496,6,1,0,0,0.16,2.7755575615628914e-17,return,0.9920715000480413,,,,,,,,,,,,,,,,,,,,,,,,,,,,,,,,,,,,,,,,,,,,,,,,,,,,,,,,C65A0M,train_y,red_square,top_left,2025-07-24_16h04.13.383,HideSeek_v1,2022.2.5,60.16434494333748,
,3,8,3,5,0,-3,13,,train_dim1_1,17,30,,,,2,0,2,0,,,,,,,,,0,0,0,0,0,16,16,16,0,0,0,0,,,,,,,,,,,,,,,,,,,,,,,,,stimuli/alien_stimuli/13.png,,,,,,,,,,,,,,,,,,,,,,,,,,,,,stimuli/alien_stimuli/15.png,15,4,18,,,,,,,30,,,,,,,,1461.58732530009,1461.58732530009,1461.58732530009,1461.58732530009,1461.58732530009,,,,,down,1.7732200999744236,6,1,0,99,0.08,0.15999999999999998,down,1.6863573000300676,1460.0325160999782,0.16,-0.08,0.08,0.0,-0.04,0.16,0.16,0.16,-0.08,1457.9594565001316,1457.9594565001316,1457.9594565001316,1457.9594565001316,1457.9594565001316,1457.9594565001316,1457.9594565001316,1457.9594565001316,1457.9453335500557,2.188768699998036,return,2.04435330000706,1461.58732530009,,,,,,,,,,,,,,,,,,,,,,,,,,,,,,,,,C65A0M,train_y,red_square,top_left,2025-07-24_16h04.13.383,HideSeek_v1,2022.2.5,60.16434494333748,
,3,8,3,5,0,-3,13,,train_dim1_1,17,30,,,,2,0,2,0,,,,,,,,,0,0,0,0,0,16,16,16,1,0,1,0,,,,,,,,,,,,,,,,,,,,,,,,,,,,,,,,,,,,,,,,,,,,,,,,,,,,,,,,,,,,,,,,30,,,,,,,,1463.368159700185,1463.368159700185,1463.368159700185,1463.368159700185,1463.368159700185,,,,,down,2.2280198999214917,6,1,0,99,0.08,0.07999999999999997,down,2.139499800046906,,,,,,,,,,,,,,,,,,,,,,,,,,,,,,,,,,,,,,,,,,,,,,,,,,,,,,,,C65A0M,train_y,red_square,top_left,2025-07-24_16h04.13.383,HideSeek_v1,2022.2.5,60.16434494333748,
,3,8,3,5,0,-3,13,,train_dim1_1,17,30,,,,2,0,2,0,,,,,,,,,0,0,0,0,0,16,16,16,2,0,2,0,,,,,,,,,,,,,,,,,,,,,,,,,,,,,,,,,,,,,,,,,,,,,,,,,,,,,,,,,,,,,,,,30,,,,,,,,1465.6037699000444,1465.6037699000444,1465.6037699000444,1465.6037699000444,1465.6037699000444,,,,,down,0.9594323001801968,6,1,0,99,0.08,-2.7755575615628914e-17,down,0.8790673001203686,,,,,,,,,,,,,,,,,,,,,,,,,,,,,,,,,,,,,,,,,,,,,,,,,,,,,,,,C65A0M,train_y,red_square,top_left,2025-07-24_16h04.13.383,HideSeek_v1,2022.2.5,60.16434494333748,
,3,8,3,5,0,-3,13,,train_dim1_1,17,30,,,,2,0,2,0,,,,,,,,,0,0,0,0,0,16,16,16,3,0,3,0,,,,,,,,,,,,,,,,,,,,,,,,,,,,,,,,,,,,,,,,,,,,,,,,,,,,,,,,,,,,,,,,30,,,,,,,,1466.5693185001146,1466.5693185001146,1466.5693185001146,1466.5693185001146,1466.5693185001146,-36,2,0.08,-2.7755575615628914e-17,return,0.6937082000076771,7,0,0,1,0.08,-2.7755575615628914e-17,return,0.6029691000003368,,,,,,,,,,,,,,,,,,,,,,,,,,,,,,,,,,,,,,,,,,,,,,,,,,,,,,,,C65A0M,train_y,red_square,top_left,2025-07-24_16h04.13.383,HideSeek_v1,2022.2.5,60.16434494333748,
,2,6,2,1,0,-5,11,,train_dim1_1,18,30,,,,2,0,2,0,,,,,,,,,0,0,0,0,0,17,17,17,0,0,0,0,,,,,,,,,,,,,,,,,,,,,,,,,stimuli/alien_stimuli/11.png,,,,,,,,,,,,,,,,,,,,,,,,,,,,,stimuli/alien_stimuli/13.png,13,3,19,,,,,,,30,,,,,,,,1475.5995110999793,1475.5995110999793,1475.5995110999793,1475.5995110999793,1475.5995110999793,,,,,down,2.673513700021431,7,0,0,99,0,0.0,down,2.583104900084436,1474.042390699964,0.08,0,0.24,0.0,0.12,0.08,0.08,0.08,0,1468.8512891000137,1468.8512891000137,1468.8512891000137,1468.8512891000137,1468.8512891000137,1468.8512891000137,1468.8512891000137,1468.8512891000137,1468.8378735499691,5.3014179999008775,return,5.160325199831277,,,,,,,,,,,,,,,,,,,,,,,,,,,,,,,,,,C65A0M,train_y,red_square,top_left,2025-07-24_16h04.13.383,HideSeek_v1,2022.2.5,60.16434494333748,
,2,6,2,1,0,-5,11,,train_dim1_1,18,30,,,,2,0,2,0,,,,,,,,,0,0,0,0,0,17,17,17,1,0,1,0,,,,,,,,,,,,,,,,,,,,,,,,,,,,,,,,,,,,,,,,,,,,,,,,,,,,,,,,,,,,,,,,30,,,,,,,,1478.2805698001757,1478.2805698001757,1478.2805698001757,1478.2805698001757,1478.2805698001757,,,,,down,0.8443042000290006,7,0,0,99,0,-0.08,down,0.7523151999339461,,,,,,,,,,,,,,,,,,,,,,,,,,,,,,,,,,,,,,,,,,,,,,,,,,,,,,,,C65A0M,train_y,red_square,top_left,2025-07-24_16h04.13.383,HideSeek_v1,2022.2.5,60.16434494333748,
,2,6,2,1,0,-5,11,,train_dim1_1,18,30,,,,2,0,2,0,,,,,,,,,0,0,0,0,0,17,17,17,2,0,2,0,,,,,,,,,,,,,,,,,,,,,,,,,,,,,,,,,,,,,,,,,,,,,,,,,,,,,,,,,,,,,,,,30,,,,,,,,1479.1324852001853,1479.1324852001853,1479.1324852001853,1479.1324852001853,1479.1324852001853,,,,,down,0.8474163000937551,7,0,0,99,0,-0.16,down,0.7587758998852223,,,,,,,,,,,,,,,,,,,,,,,,,,,,,,,,,,,,,,,,,,,,,,,,,,,,,,,,C65A0M,train_y,red_square,top_left,2025-07-24_16h04.13.383,HideSeek_v1,2022.2.5,60.16434494333748,
,2,6,2,1,0,-5,11,,train_dim1_1,18,30,,,,2,0,2,0,,,,,,,,,0,0,0,0,0,17,17,17,3,0,3,0,,,,,,,,,,,,,,,,,,,,,,,,,,,,,,,,,,,,,,,,,,,,,,,,,,,,,,,,,,,,,,,,30,,,,,,,,1479.9873689999804,1479.9873689999804,1479.9873689999804,1479.9873689999804,1479.9873689999804,,,,,down,0.9046693998388946,7,0,0,99,0,-0.24,down,0.8242856999859214,,,,,,,,,,,,,,,,,,,,,,,,,,,,,,,,,,,,,,,,,,,,,,,,,,,,,,,,C65A0M,train_y,red_square,top_left,2025-07-24_16h04.13.383,HideSeek_v1,2022.2.5,60.16434494333748,
,2,6,2,1,0,-5,11,,train_dim1_1,18,30,,,,2,0,2,0,,,,,,,,,0,0,0,0,0,17,17,17,4,0,4,0,,,,,,,,,,,,,,,,,,,,,,,,,,,,,,,,,,,,,,,,,,,,,,,,,,,,,,,,,,,,,,,,30,,,,,,,,1480.8990283999592,1480.8990283999592,1480.8990283999592,1480.8990283999592,1480.8990283999592,,,,,down,0.943752899998799,7,0,0,99,0,-0.32,down,0.8631745998281986,,,,,,,,,,,,,,,,,,,,,,,,,,,,,,,,,,,,,,,,,,,,,,,,,,,,,,,,C65A0M,train_y,red_square,top_left,2025-07-24_16h04.13.383,HideSeek_v1,2022.2.5,60.16434494333748,
,2,6,2,1,0,-5,11,,train_dim1_1,18,30,,,,2,0,2,0,,,,,,,,,0,0,0,0,0,17,17,17,5,0,5,0,,,,,,,,,,,,,,,,,,,,,,,,,,,,,,,,,,,,,,,,,,,,,,,,,,,,,,,,,,,,,,,,30,,,,,,,,1481.8497083000839,1481.8497083000839,1481.8497083000839,1481.8497083000839,1481.8497083000839,-41,2,0,-0.32,return,0.9147193999961019,8,0,0,1,0,-0.32,return,0.8255535999778658,,,,,,,,,,,,,,,,,,,,,,,,,,,,,,,,,,,,,,,,,,,,,,,,,,,,,,,,C65A0M,train_y,red_square,top_left,2025-07-24_16h04.13.383,HideSeek_v1,2022.2.5,60.16434494333748,
,0,9,0,5,0,-4,12,,train_dim1_1,19,30,,,,2,0,2,0,,,,,,,,,0,0,0,0,0,18,18,18,0,0,0,0,,,,,,,,,,,,,,,,,,,,,,,,,stimuli/alien_stimuli/12.png,,,,,,,,,,,,,,,,,,,,,,,,,,,,,stimuli/alien_stimuli/11.png,11,2,20,,,,,,,30,,,,,,,,1491.1625684001483,1491.1625684001483,1491.1625684001483,1491.1625684001483,1491.1625684001483,,,,,down,3.7083562000188977,8,0,0,99,-0.16,0.24,down,3.627444199984893,1489.5991075001657,0,-0.32,0.4,0.0,-0.12,0,0.0,0,-0.32,1484.3470303001814,1484.3470303001814,1484.3470303001814,1484.3470303001814,1484.3470303001814,1484.3470303001814,1484.3470303001814,1484.3470303001814,1484.3338589499008,5.363056299975142,return,5.225171299884096,,,,,,,,,,,,,,,,,,,,,,,,,,,,,,,,,,C65A0M,train_y,red_square,top_left,2025-07-24_16h04.13.383,HideSeek_v1,2022.2.5,60.16434494333748,
,0,9,0,5,0,-4,12,,train_dim1_1,19,30,,,,2,0,2,0,,,,,,,,,0,0,0,0,0,18,18,18,1,0,1,0,,,,,,,,,,,,,,,,,,,,,,,,,,,,,,,,,,,,,,,,,,,,,,,,,,,,,,,,,,,,,,,,30,,,,,,,,1494.8780586000066,1494.8780586000066,1494.8780586000066,1494.8780586000066,1494.8780586000066,,,,,down,0.6656976998783648,8,0,0,99,-0.16,0.15999999999999998,down,0.5759622000623494,,,,,,,,,,,,,,,,,,,,,,,,,,,,,,,,,,,,,,,,,,,,,,,,,,,,,,,,C65A0M,train_y,red_square,top_left,2025-07-24_16h04.13.383,HideSeek_v1,2022.2.5,60.16434494333748,
,0,9,0,5,0,-4,12,,train_dim1_1,19,30,,,,2,0,2,0,,,,,,,,,0,0,0,0,0,18,18,18,2,0,2,0,,,,,,,,,,,,,,,,,,,,,,,,,,,,,,,,,,,,,,,,,,,,,,,,,,,,,,,,,,,,,,,,30,,,,,,,,1495.5509206000715,1495.5509206000715,1495.5509206000715,1495.5509206000715,1495.5509206000715,,,,,down,0.7199258001055568,8,0,0,99,-0.16,0.07999999999999997,down,0.642932299990207,,,,,,,,,,,,,,,,,,,,,,,,,,,,,,,,,,,,,,,,,,,,,,,,,,,,,,,,C65A0M,train_y,red_square,top_left,2025-07-24_16h04.13.383,HideSeek_v1,2022.2.5,60.16434494333748,
,0,9,0,5,0,-4,12,,train_dim1_1,19,30,,,,2,0,2,0,,,,,,,,,0,0,0,0,0,18,18,18,3,0,3,0,,,,,,,,,,,,,,,,,,,,,,,,,,,,,,,,,,,,,,,,,,,,,,,,,,,,,,,,,,,,,,,,30,,,,,,,,1496.2794173001312,1496.2794173001312,1496.2794173001312,1496.2794173001312,1496.2794173001312,,,,,down,0.845172300003469,8,0,0,99,-0.16,-2.7755575615628914e-17,down,0.7657717000693083,,,,,,,,,,,,,,,,,,,,,,,,,,,,,,,,,,,,,,,,,,,,,,,,,,,,,,,,C65A0M,train_y,red_square,top_left,2025-07-24_16h04.13.383,HideSeek_v1,2022.2.5,60.16434494333748,
,0,9,0,5,0,-4,12,,train_dim1_1,19,30,,,,2,0,2,0,,,,,,,,,0,0,0,0,0,18,18,18,4,0,4,0,,,,,,,,,,,,,,,,,,,,,,,,,,,,,,,,,,,,,,,,,,,,,,,,,,,,,,,,,,,,,,,,30,,,,,,,,1497.1307826000266,1497.1307826000266,1497.1307826000266,1497.1307826000266,1497.1307826000266,-45,2,-0.16,-2.7755575615628914e-17,return,0.6097885998897254,9,0,0,1,-0.16,-2.7755575615628914e-17,return,0.5189886998850852,,,,,,,,,,,,,,,,,,,,,,,,,,,,,,,,,,,,,,,,,,,,,,,,,,,,,,,,C65A0M,train_y,red_square,top_left,2025-07-24_16h04.13.383,HideSeek_v1,2022.2.5,60.16434494333748,
,2,5,2,5,0,0,16,,train_dim1_1,20,30,,,,2,0,2,0,,,,,,,,,0,0,0,0,0,19,19,19,0,0,0,0,,,,,,,,,,,,,,,,,,,,,,,,,stimuli/alien_stimuli/16.png,,,,,,,,,,,,,,,,,,,,,,,,,,,,,stimuli/alien_stimuli/12.png,12,0,21,,,,,,,30,,,,,,,,1505.0912295000162,1505.0912295000162,1505.0912295000162,1505.0912295000162,1505.0912295000162,-45,2,0,0,return,2.3405683001037687,10,0,0,1,0,0,return,2.258434899849817,1503.521926500136,-0.16,0,0.32,0.0,0.16,-0.16,-0.16,-0.16,0,1499.327112399973,1499.327112399973,1499.327112399973,1499.327112399973,1499.327112399973,1499.327112399973,1499.327112399973,1499.327112399973,1499.3131441500273,4.3117517998907715,return,4.178369899978861,,,,,,,,,,,,,,,,,,,,,,,,,,,,,,,,,,C65A0M,train_y,red_square,top_left,2025-07-24_16h04.13.383,HideSeek_v1,2022.2.5,60.16434494333748,
,2,9,2,8,0,-1,15,,train_dim1_1,21,30,,,,2,0,2,0,,,,,,,,,0,0,0,0,0,20,20,20,0,0,0,0,,,,,,,,,,,,,,,,,,,,,,,,,stimuli/alien_stimuli/15.png,,,,,,,,,,,,,,,,,,,,,,,,,,,,,stimuli/alien_stimuli/16.png,16,2,22,,,,,,,30,,,,,,,,1513.4303500000387,1513.4303500000387,1513.4303500000387,1513.4303500000387,1513.4303500000387,,,,,down,1.7241352000273764,10,0,0,99,0,0.24,down,1.6379732999484986,1511.8599465000443,0,0,0.0,0.0,0.0,0,0.0,0,0,1509.0030853999779,1509.0030853999779,1509.0030853999779,1509.0030853999779,1509.0030853999779,1509.0030853999779,1509.0030853999779,1509.0030853999779,1509.0046049499188,2.9566694998648018,return,2.8349045999348164,,,,,,,,,,,,,,,,,,,,,,,,,,,,,,,,,,C65A0M,train_y,red_square,top_left,2025-07-24_16h04.13.383,HideSeek_v1,2022.2.5,60.16434494333748,
,2,9,2,8,0,-1,15,,train_dim1_1,21,30,,,,2,0,2,0,,,,,,,,,0,0,0,0,0,20,20,20,1,0,1,0,,,,,,,,,,,,,,,,,,,,,,,,,,,,,,,,,,,,,,,,,,,,,,,,,,,,,,,,,,,,,,,,30,,,,,,,,1515.1616359001491,1515.1616359001491,1515.1616359001491,1515.1616359001491,1515.1616359001491,-46,2,0,0.24,return,0.41136049991473556,11,0,0,1,0,0.24,return,0.31929969997145236,,,,,,,,,,,,,,,,,,,,,,,,,,,,,,,,,,,,,,,,,,,,,,,,,,,,,,,,C65A0M,train_y,red_square,top_left,2025-07-24_16h04.13.383,HideSeek_v1,2022.2.5,60.16434494333748,
,0,7,0,4,0,-3,13,,train_dim1_1,22,30,,,,2,0,2,0,,,,,,,,,0,0,0,0,0,21,21,21,0,0,0,0,,,,,,,,,,,,,,,,,,,,,,,,,stimuli/alien_stimuli/13.png,,,,,,,,,,,,,,,,,,,,,,,,,,,,,stimuli/alien_stimuli/15.png,15,2,23,,,,,,,30,,,,,,,,1520.7020084001124,1520.7020084001124,1520.7020084001124,1520.7020084001124,1520.7020084001124,,,,,down,2.675246800063178,11,0,0,99,-0.16,0.08,down,2.5913533999118954,1519.1352145001292,0,0.24,0.08,0.0,0.28,0,0.0,0,0.24,1517.1430057999678,1517.1430057999678,1517.1430057999678,1517.1430057999678,1517.1430057999678,1517.1430057999678,1517.1430057999678,1517.1430057999678,1517.144544950058,2.0922699999064207,return,1.974358799867332,,,,,,,,,,,,,,,,,,,,,,,,,,,,,,,,,,C65A0M,train_y,red_square,top_left,2025-07-24_16h04.13.383,HideSeek_v1,2022.2.5,60.16434494333748,
,0,7,0,4,0,-3,13,,train_dim1_1,22,30,,,,2,0,2,0,,,,,,,,,0,0,0,0,0,21,21,21,1,0,1,0,,,,,,,,,,,,,,,,,,,,,,,,,,,,,,,,,,,,,,,,,,,,,,,,,,,,,,,,,,,,,,,,30,,,,,,,,1523.3851895001717,1523.3851895001717,1523.3851895001717,1523.3851895001717,1523.3851895001717,,,,,down,0.5750315000768751,11,0,0,99,-0.16,0.0,down,0.4926861999556422,,,,,,,,,,,,,,,,,,,,,,,,,,,,,,,,,,,,,,,,,,,,,,,,,,,,,,,,C65A0M,train_y,red_square,top_left,2025-07-24_16h04.13.383,HideSeek_v1,2022.2.5,60.16434494333748,
,0,7,0,4,0,-3,13,,train_dim1_1,22,30,,,,2,0,2,0,,,,,,,,,0,0,0,0,0,21,21,21,2,0,2,0,,,,,,,,,,,,,,,,,,,,,,,,,,,,,,,,,,,,,,,,,,,,,,,,,,,,,,,,,,,,,,,,30,,,,,,,,1523.9680427999701,1523.9680427999701,1523.9680427999701,1523.9680427999701,1523.9680427999701,,,,,down,0.8614221999887377,11,0,0,99,-0.16,-0.08,down,0.7733466001227498,,,,,,,,,,,,,,,,,,,,,,,,,,,,,,,,,,,,,,,,,,,,,,,,,,,,,,,,C65A0M,train_y,red_square,top_left,2025-07-24_16h04.13.383,HideSeek_v1,2022.2.5,60.16434494333748,
,0,7,0,4,0,-3,13,,train_dim1_1,22,30,,,,2,0,2,0,,,,,,,,,0,0,0,0,0,21,21,21,3,0,3,0,,,,,,,,,,,,,,,,,,,,,,,,,,,,,,,,,,,,,,,,,,,,,,,,,,,,,,,,,,,,,,,,30,,,,,,,,1524.83680200018,1524.83680200018,1524.83680200018,1524.83680200018,1524.83680200018,-49,2,-0.16,-0.08,return,0.7426185999065638,12,0,0,1,-0.16,-0.08,return,0.6607187001500279,,,,,,,,,,,,,,,,,,,,,,,,,,,,,,,,,,,,,,,,,,,,,,,,,,,,,,,,C65A0M,train_y,red_square,top_left,2025-07-24_16h04.13.383,HideSeek_v1,2022.2.5,60.16434494333748,
,0,8,0,3,0,-5,11,,train_dim1_1,23,30,,,,2,0,2,0,,,,,,,,,0,0,0,0,0,22,22,22,0,0,0,0,,,,,,,,,,,,,,,,,,,,,,,,,stimuli/alien_stimuli/11.png,,,,,,,,,,,,,,,,,,,,,,,,,,,,,stimuli/alien_stimuli/13.png,13,0,24,,,,,,,30,,,,,,,,1531.1289929000195,1531.1289929000195,1531.1289929000195,1531.1289929000195,1531.1289929000195,,,,,down,2.1230375000741333,12,0,0,99,-0.16,0.15999999999999998,down,2.0313544999808073,1529.5577359001618,-0.16,-0.08,0.24,0.0,0.04,-0.16,-0.16,-0.16,-0.08,1527.1507847001776,1527.1507847001776,1527.1507847001776,1527.1507847001776,1527.1507847001776,1527.1507847001776,1527.1507847001776,1527.1507847001776,1527.1362031000667,2.5064032999798656,return,2.381038200110197,,,,,,,,,,,,,,,,,,,,,,,,,,,,,,,,,,C65A0M,train_y,red_square,top_left,2025-07-24_16h04.13.383,HideSeek_v1,2022.2.5,60.16434494333748,
,0,8,0,3,0,-5,11,,train_dim1_1,23,30,,,,2,0,2,0,,,,,,,,,0,0,0,0,0,22,22,22,1,0,1,0,,,,,,,,,,,,,,,,,,,,,,,,,,,,,,,,,,,,,,,,,,,,,,,,,,,,,,,,,,,,,,,,30,,,,,,,,1533.2742892999668,1533.2742892999668,1533.2742892999668,1533.2742892999668,1533.2742892999668,,,,,down,0.6247300999239087,12,0,0,99,-0.16,0.07999999999999997,down,0.524316200055182,,,,,,,,,,,,,,,,,,,,,,,,,,,,,,,,,,,,,,,,,,,,,,,,,,,,,,,,C65A0M,train_y,red_square,top_left,2025-07-24_16h04.13.383,HideSeek_v1,2022.2.5,60.16434494333748,
,0,8,0,3,0,-5,11,,train_dim1_1,23,30,,,,2,0,2,0,,,,,,,,,0,0,0,0,0,22,22,22,2,0,2,0,,,,,,,,,,,,,,,,,,,,,,,,,,,,,,,,,,,,,,,,,,,,,,,,,,,,,,,,,,,,,,,,30,,,,,,,,1533.8931015999988,1533.8931015999988,1533.8931015999988,1533.8931015999988,1533.8931015999988,,,,,down,0.5603455000091344,12,0,0,99,-0.16,-2.7755575615628914e-17,down,0.48070330009795725,,,,,,,,,,,,,,,,,,,,,,,,,,,,,,,,,,,,,,,,,,,,,,,,,,,,,,,,C65A0M,train_y,red_square,top_left,2025-07-24_16h04.13.383,HideSeek_v1,2022.2.5,60.16434494333748,
,0,8,0,3,0,-5,11,,train_dim1_1,23,30,,,,2,0,2,0,,,,,,,,,0,0,0,0,0,22,22,22,3,0,3,0,,,,,,,,,,,,,,,,,,,,,,,,,,,,,,,,,,,,,,,,,,,,,,,,,,,,,,,,,,,,,,,,30,,,,,,,,1534.4606467999984,1534.4606467999984,1534.4606467999984,1534.4606467999984,1534.4606467999984,,,,,down,0.6321584999095649,12,0,0,99,-0.16,-0.08000000000000003,down,0.548131899908185,,,,,,,,,,,,,,,,,,,,,,,,,,,,,,,,,,,,,,,,,,,,,,,,,,,,,,,,C65A0M,train_y,red_square,top_left,2025-07-24_16h04.13.383,HideSeek_v1,2022.2.5,60.16434494333748,
,0,8,0,3,0,-5,11,,train_dim1_1,23,30,,,,2,0,2,0,,,,,,,,,0,0,0,0,0,22,22,22,4,0,4,0,,,,,,,,,,,,,,,,,,,,,,,,,,,,,,,,,,,,,,,,,,,,,,,,,,,,,,,,,,,,,,,,30,,,,,,,,1535.1006613001227,1535.1006613001227,1535.1006613001227,1535.1006613001227,1535.1006613001227,,,,,down,0.6208879000041634,12,0,0,99,-0.16,-0.16000000000000003,down,0.5432949000969529,,,,,,,,,,,,,,,,,,,,,,,,,,,,,,,,,,,,,,,,,,,,,,,,,,,,,,,,C65A0M,train_y,red_square,top_left,2025-07-24_16h04.13.383,HideSeek_v1,2022.2.5,60.16434494333748,
,0,8,0,3,0,-5,11,,train_dim1_1,23,30,,,,2,0,2,0,,,,,,,,,0,0,0,0,0,22,22,22,5,0,5,0,,,,,,,,,,,,,,,,,,,,,,,,,,,,,,,,,,,,,,,,,,,,,,,,,,,,,,,,,,,,,,,,30,,,,,,,,1535.72915070015,1535.72915070015,1535.72915070015,1535.72915070015,1535.72915070015,-54,2,-0.16,-0.16000000000000003,return,0.6263631000183523,13,0,0,1,-0.16,-0.16000000000000003,return,0.5470688999630511,,,,,,,,,,,,,,,,,,,,,,,,,,,,,,,,,,,,,,,,,,,,,,,,,,,,,,,,C65A0M,train_y,red_square,top_left,2025-07-24_16h04.13.383,HideSeek_v1,2022.2.5,60.16434494333748,
,3,7,3,7,0,0,16,,train_dim1_1,24,30,,,,2,0,2,0,,,,,,,,,0,0,0,0,0,23,23,23,0,0,0,0,,,,,,,,,,,,,,,,,,,,,,,,,stimuli/alien_stimuli/16.png,,,,,,,,,,,,,,,,,,,,,,,,,,,,,stimuli/alien_stimuli/11.png,11,0,25,,,,,,,30,,,,,,,,1542.6236254000105,1542.6236254000105,1542.6236254000105,1542.6236254000105,1542.6236254000105,-54,2,0.08,0.16,return,2.73953690007329,14,0,0,1,0.08,0.16,return,2.658926700009033,1541.0528617000673,-0.16,-0.16,0.4,0.0,0.039999999999999994,-0.16,-0.16,-0.16,-0.16,1537.9322800000664,1537.9322800000664,1537.9322800000664,1537.9322800000664,1537.9322800000664,1537.9322800000664,1537.9322800000664,1537.9322800000664,1537.9286151999142,3.241693500196561,return,3.096514199860394,1537.9322800000664,,,,,,,,,,,,,,,,,,,,,,,,,,,,,,,,,C65A0M,train_y,red_square,top_left,2025-07-24_16h04.13.383,HideSeek_v1,2022.2.5,60.16434494333748,
,3,8,3,4,0,-4,12,,train_dim1_1,25,30,,,,2,0,2,0,,,,,,,,,0,0,0,0,0,24,24,24,0,0,0,0,,,,,,,,,,,,,,,,,,,,,,,,,stimuli/alien_stimuli/12.png,,,,,,,,,,,,,,,,,,,,,,,,,,,,,stimuli/alien_stimuli/16.png,16,3,26,,,,,,,30,,,,,,,,1552.797895600088,1552.797895600088,1552.797895600088,1552.797895600088,1552.797895600088,,,,,down,2.7741717000026256,14,0,0,99,0.08,0.15999999999999998,down,2.6902159000746906,1551.2278366000392,0.08,0.16,0.0,0.0,0.16,0.08,0.08,0.08,0.16,1546.9338257000782,1546.9338257000782,1546.9338257000782,1546.9338257000782,1546.9338257000782,1546.9338257000782,1546.9338257000782,1546.9338257000782,1546.9193761999254,4.393196400022134,return,4.266189199872315,,,,,,,,,,,,,,,,,,,,,,,,,,,,,,,,,,C65A0M,train_y,red_square,top_left,2025-07-24_16h04.13.383,HideSeek_v1,2022.2.5,60.16434494333748,
,3,8,3,4,0,-4,12,,train_dim1_1,25,30,,,,2,0,2,0,,,,,,,,,0,0,0,0,0,24,24,24,1,0,1,0,,,,,,,,,,,,,,,,,,,,,,,,,,,,,,,,,,,,,,,,,,,,,,,,,,,,,,,,,,,,,,,,30,,,,,,,,1555.5789197999984,1555.5789197999984,1555.5789197999984,1555.5789197999984,1555.5789197999984,,,,,down,0.6425249001476914,14,0,0,99,0.08,0.07999999999999997,down,0.5616587998811156,,,,,,,,,,,,,,,,,,,,,,,,,,,,,,,,,,,,,,,,,,,,,,,,,,,,,,,,C65A0M,train_y,red_square,top_left,2025-07-24_16h04.13.383,HideSeek_v1,2022.2.5,60.16434494333748,
,3,8,3,4,0,-4,12,,train_dim1_1,25,30,,,,2,0,2,0,,,,,,,,,0,0,0,0,0,24,24,24,2,0,2,0,,,,,,,,,,,,,,,,,,,,,,,,,,,,,,,,,,,,,,,,,,,,,,,,,,,,,,,,,,,,,,,,30,,,,,,,,1556.229453700129,1556.229453700129,1556.229453700129,1556.229453700129,1556.229453700129,,,,,down,0.576532700099051,14,0,0,99,0.08,-2.7755575615628914e-17,down,0.4976682998239994,,,,,,,,,,,,,,,,,,,,,,,,,,,,,,,,,,,,,,,,,,,,,,,,,,,,,,,,C65A0M,train_y,red_square,top_left,2025-07-24_16h04.13.383,HideSeek_v1,2022.2.5,60.16434494333748,
,3,8,3,4,0,-4,12,,train_dim1_1,25,30,,,,2,0,2,0,,,,,,,,,0,0,0,0,0,24,24,24,3,0,3,0,,,,,,,,,,,,,,,,,,,,,,,,,,,,,,,,,,,,,,,,,,,,,,,,,,,,,,,,,,,,,,,,30,,,,,,,,1556.8126697000116,1556.8126697000116,1556.8126697000116,1556.8126697000116,1556.8126697000116,,,,,down,0.7102777999825776,14,0,0,99,0.08,-0.08000000000000003,down,0.6322985000442713,,,,,,,,,,,,,,,,,,,,,,,,,,,,,,,,,,,,,,,,,,,,,,,,,,,,,,,,C65A0M,train_y,red_square,top_left,2025-07-24_16h04.13.383,HideSeek_v1,2022.2.5,60.16434494333748,
,3,8,3,4,0,-4,12,,train_dim1_1,25,30,,,,2,0,2,0,,,,,,,,,0,0,0,0,0,24,24,24,4,0,4,0,,,,,,,,,,,,,,,,,,,,,,,,,,,,,,,,,,,,,,,,,,,,,,,,,,,,,,,,,,,,,,,,30,,,,,,,,1557.5362715001684,1557.5362715001684,1557.5362715001684,1557.5362715001684,1557.5362715001684,-58,2,0.08,-0.08000000000000003,return,0.5600783000700176,15,0,0,1,0.08,-0.08000000000000003,return,0.4769407999701798,,,,,,,,,,,,,,,,,,,,,,,,,,,,,,,,,,,,,,,,,,,,,,,,,,,,,,,,C65A0M,train_y,red_square,top_left,2025-07-24_16h04.13.383,HideSeek_v1,2022.2.5,60.16434494333748,
,4,9,4,6,0,-3,13,,train_dim1_1,26,30,,,,2,0,2,0,,,,,,,,,0,0,0,0,0,25,25,25,0,0,0,0,,,,,,,,,,,,,,,,,,,,,,,,,stimuli/alien_stimuli/13.png,,,,,,,,,,,,,,,,,,,,,,,,,,,,,stimuli/alien_stimuli/12.png,12,3,27,,,,,,,30,,,,,,,,1566.2405285001732,1566.2405285001732,1566.2405285001732,1566.2405285001732,1566.2405285001732,,,,,down,2.9255935000255704,15,0,0,99,0.16,0.24,down,2.8333264999091625,1564.6714620001148,0.08,-0.08,0.32,0.0,0.07999999999999999,0.08,0.08,0.08,-0.08,1559.6778904001694,1559.6778904001694,1559.6778904001694,1559.6778904001694,1559.6778904001694,1559.6778904001694,1559.6778904001694,1559.6778904001694,1559.6633417499952,5.1096264000516385,return,4.963126600021496,,,,,,,,,,,,,,,,,,,,,,,,,,,,,,,,,,C65A0M,train_y,red_square,top_left,2025-07-24_16h04.13.383,HideSeek_v1,2022.2.5,60.16434494333748,
,4,9,4,6,0,-3,13,,train_dim1_1,26,30,,,,2,0,2,0,,,,,,,,,0,0,0,0,0,25,25,25,1,0,1,0,,,,,,,,,,,,,,,,,,,,,,,,,,,,,,,,,,,,,,,,,,,,,,,,,,,,,,,,,,,,,,,,30,,,,,,,,1569.1805465000216,1569.1805465000216,1569.1805465000216,1569.1805465000216,1569.1805465000216,,,,,down,0.6423835000023246,15,0,0,99,0.16,0.15999999999999998,down,0.5551716999616474,,,,,,,,,,,,,,,,,,,,,,,,,,,,,,,,,,,,,,,,,,,,,,,,,,,,,,,,C65A0M,train_y,red_square,top_left,2025-07-24_16h04.13.383,HideSeek_v1,2022.2.5,60.16434494333748,
,4,9,4,6,0,-3,13,,train_dim1_1,26,30,,,,2,0,2,0,,,,,,,,,0,0,0,0,0,25,25,25,2,0,2,0,,,,,,,,,,,,,,,,,,,,,,,,,,,,,,,,,,,,,,,,,,,,,,,,,,,,,,,,,,,,,,,,30,,,,,,,,1569.8228174999822,1569.8228174999822,1569.8228174999822,1569.8228174999822,1569.8228174999822,,,,,down,0.6431487000081688,15,0,0,99,0.16,0.07999999999999997,down,0.5550831998698413,,,,,,,,,,,,,,,,,,,,,,,,,,,,,,,,,,,,,,,,,,,,,,,,,,,,,,,,C65A0M,train_y,red_square,top_left,2025-07-24_16h04.13.383,HideSeek_v1,2022.2.5,60.16434494333748,
,4,9,4,6,0,-3,13,,train_dim1_1,26,30,,,,2,0,2,0,,,,,,,,,0,0,0,0,0,25,25,25,3,0,3,0,,,,,,,,,,,,,,,,,,,,,,,,,,,,,,,,,,,,,,,,,,,,,,,,,,,,,,,,,,,,,,,,30,,,,,,,,1570.4740150000434,1570.4740150000434,1570.4740150000434,1570.4740150000434,1570.4740150000434,-61,2,0.16,0.07999999999999997,return,1.3275079999584705,16,0,0,1,0.16,0.07999999999999997,return,1.239504899829626,,,,,,,,,,,,,,,,,,,,,,,,,,,,,,,,,,,,,,,,,,,,,,,,,,,,,,,,C65A0M,train_y,red_square,top_left,2025-07-24_16h04.13.383,HideSeek_v1,2022.2.5,60.16434494333748,
,3,9,3,9,0,0,16,,train_dim1_1,27,30,,,,2,0,2,0,,,,,,,,,0,0,0,0,0,26,26,26,0,0,0,0,,,,,,,,,,,,,,,,,,,,,,,,,stimuli/alien_stimuli/16.png,,,,,,,,,,,,,,,,,,,,,,,,,,,,,stimuli/alien_stimuli/13.png,13,4,28,,,,,,,30,,,,,,,,1578.668798699975,1578.668798699975,1578.668798699975,1578.668798699975,1578.668798699975,-61,2,0.08,0.32,return,4.091368000023067,17,0,0,1,0.08,0.32,return,4.0005845001433045,1577.1139603001066,0.16,0.08,0.24,0.0,0.2,0.16,0.16,0.16,0.08,1573.3708719999995,1573.3708719999995,1573.3708719999995,1573.3708719999995,1573.3708719999995,1573.3708719999995,1573.3708719999995,1573.3708719999995,1573.3580890501153,3.8572728999424726,return,3.7217916999943554,1578.668798699975,,,,,,,,,,,,,,,,,,,,,,,,,,,,,,,,,C65A0M,train_y,red_square,top_left,2025-07-24_16h04.13.383,HideSeek_v1,2022.2.5,60.16434494333748,
,4,6,4,1,0,-5,11,,train_dim1_1,28,30,,,,2,0,2,0,,,,,,,,,0,0,0,0,0,27,27,27,0,0,0,0,,,,,,,,,,,,,,,,,,,,,,,,,stimuli/alien_stimuli/11.png,,,,,,,,,,,,,,,,,,,,,,,,,,,,,stimuli/alien_stimuli/16.png,16,3,29,,,,,,,30,,,,,,,,1588.6601432000753,1588.6601432000753,1588.6601432000753,1588.6601432000753,1588.6601432000753,,,,,down,2.2073667999356985,17,0,0,99,0.16,0.0,down,2.1198893000837415,1587.0899406999815,0.08,0.32,0.0,0.0,0.32,0.08,0.08,0.08,0.32,1584.3467123000883,1584.3467123000883,1584.3467123000883,1584.3467123000883,1584.3467123000883,1584.3467123000883,1584.3467123000883,1584.3467123000883,1584.3337218499046,2.8579166000708938,return,2.7211427001748234,,,,,,,,,,,,,,,,,,,,,,,,,,,,,,,,,,C65A0M,train_y,red_square,top_left,2025-07-24_16h04.13.383,HideSeek_v1,2022.2.5,60.16434494333748,
,4,6,4,1,0,-5,11,,train_dim1_1,28,30,,,,2,0,2,0,,,,,,,,,0,0,0,0,0,27,27,27,1,0,1,0,,,,,,,,,,,,,,,,,,,,,,,,,,,,,,,,,,,,,,,,,,,,,,,,,,,,,,,,,,,,,,,,30,,,,,,,,1590.875024100067,1590.875024100067,1590.875024100067,1590.875024100067,1590.875024100067,,,,,down,0.5935084000229836,17,0,0,99,0.16,-0.08,down,0.5130474998150021,,,,,,,,,,,,,,,,,,,,,,,,,,,,,,,,,,,,,,,,,,,,,,,,,,,,,,,,C65A0M,train_y,red_square,top_left,2025-07-24_16h04.13.383,HideSeek_v1,2022.2.5,60.16434494333748,
,4,6,4,1,0,-5,11,,train_dim1_1,28,30,,,,2,0,2,0,,,,,,,,,0,0,0,0,0,27,27,27,2,0,2,0,,,,,,,,,,,,,,,,,,,,,,,,,,,,,,,,,,,,,,,,,,,,,,,,,,,,,,,,,,,,,,,,30,,,,,,,,1591.47598200012,1591.47598200012,1591.47598200012,1591.47598200012,1591.47598200012,,,,,down,1.1936268999706954,17,0,0,99,0.16,-0.16,down,1.1019397000782192,,,,,,,,,,,,,,,,,,,,,,,,,,,,,,,,,,,,,,,,,,,,,,,,,,,,,,,,C65A0M,train_y,red_square,top_left,2025-07-24_16h04.13.383,HideSeek_v1,2022.2.5,60.16434494333748,
,4,6,4,1,0,-5,11,,train_dim1_1,28,30,,,,2,0,2,0,,,,,,,,,0,0,0,0,0,27,27,27,3,0,3,0,,,,,,,,,,,,,,,,,,,,,,,,,,,,,,,,,,,,,,,,,,,,,,,,,,,,,,,,,,,,,,,,30,,,,,,,,1592.6749599000905,1592.6749599000905,1592.6749599000905,1592.6749599000905,1592.6749599000905,,,,,down,0.7937574000097811,17,0,0,99,0.16,-0.24,down,0.7135767000727355,,,,,,,,,,,,,,,,,,,,,,,,,,,,,,,,,,,,,,,,,,,,,,,,,,,,,,,,C65A0M,train_y,red_square,top_left,2025-07-24_16h04.13.383,HideSeek_v1,2022.2.5,60.16434494333748,
,4,6,4,1,0,-5,11,,train_dim1_1,28,30,,,,2,0,2,0,,,,,,,,,0,0,0,0,0,27,27,27,4,0,4,0,,,,,,,,,,,,,,,,,,,,,,,,,,,,,,,,,,,,,,,,,,,,,,,,,,,,,,,,,,,,,,,,30,,,,,,,,1593.476986200083,1593.476986200083,1593.476986200083,1593.476986200083,1593.476986200083,,,,,down,0.6926053001079708,17,0,0,99,0.16,-0.32,down,0.6131923999637365,,,,,,,,,,,,,,,,,,,,,,,,,,,,,,,,,,,,,,,,,,,,,,,,,,,,,,,,C65A0M,train_y,red_square,top_left,2025-07-24_16h04.13.383,HideSeek_v1,2022.2.5,60.16434494333748,
,4,6,4,1,0,-5,11,,train_dim1_1,28,30,,,,2,0,2,0,,,,,,,,,0,0,0,0,0,27,27,27,5,0,5,0,,,,,,,,,,,,,,,,,,,,,,,,,,,,,,,,,,,,,,,,,,,,,,,,,,,,,,,,,,,,,,,,30,,,,,,,,1594.176029900089,1594.176029900089,1594.176029900089,1594.176029900089,1594.176029900089,-66,2,0.16,-0.32,return,0.7937400001101196,18,0,0,1,0.16,-0.32,return,0.7064030000474304,,,,,,,,,,,,,,,,,,,,,,,,,,,,,,,,,,,,,,,,,,,,,,,,,,,,,,,,C65A0M,train_y,red_square,top_left,2025-07-24_16h04.13.383,HideSeek_v1,2022.2.5,60.16434494333748,
,2,7,2,3,0,-4,12,,train_dim1_1,29,30,,,,2,0,2,0,,,,,,,,,0,0,0,0,0,28,28,28,0,0,0,0,,,,,,,,,,,,,,,,,,,,,,,,,stimuli/alien_stimuli/12.png,,,,,,,,,,,,,,,,,,,,,,,,,,,,,stimuli/alien_stimuli/11.png,11,4,30,,,,,,,30,,,,,,,,1600.970870200079,1600.970870200079,1600.970870200079,1600.970870200079,1600.970870200079,,,,,down,1.974057599902153,18,0,0,99,0,0.08,down,1.8868480001110584,1599.4132459999528,0.16,-0.32,0.4,0.0,-0.12,0.16,0.16,0.16,-0.32,1596.5409962001722,1596.5409962001722,1596.5409962001722,1596.5409962001722,1596.5409962001722,1596.5409962001722,1596.5409962001722,1596.5409962001722,1596.527490249905,2.981984500074759,return,2.8484587999992073,1596.5409962001722,,,,,,,,,,,,,,,,,,,,,,,,,,,,,,,,,C65A0M,train_y,red_square,top_left,2025-07-24_16h04.13.383,HideSeek_v1,2022.2.5,60.16434494333748,
,2,7,2,3,0,-4,12,,train_dim1_1,29,30,,,,2,0,2,0,,,,,,,,,0,0,0,0,0,28,28,28,1,0,1,0,,,,,,,,,,,,,,,,,,,,,,,,,,,,,,,,,,,,,,,,,,,,,,,,,,,,,,,,,,,,,,,,30,,,,,,,,1602.9658045000397,1602.9658045000397,1602.9658045000397,1602.9658045000397,1602.9658045000397,,,,,down,0.7099816000554711,18,0,0,99,0,0.0,down,0.6151503999717534,,,,,,,,,,,,,,,,,,,,,,,,,,,,,,,,,,,,,,,,,,,,,,,,,,,,,,,,C65A0M,train_y,red_square,top_left,2025-07-24_16h04.13.383,HideSeek_v1,2022.2.5,60.16434494333748,
,2,7,2,3,0,-4,12,,train_dim1_1,29,30,,,,2,0,2,0,,,,,,,,,0,0,0,0,0,28,28,28,2,0,2,0,,,,,,,,,,,,,,,,,,,,,,,,,,,,,,,,,,,,,,,,,,,,,,,,,,,,,,,,,,,,,,,,30,,,,,,,,1603.6691416001413,1603.6691416001413,1603.6691416001413,1603.6691416001413,1603.6691416001413,,,,,down,0.27642439980991185,18,0,0,99,0,-0.08,down,0.1920891001354903,,,,,,,,,,,,,,,,,,,,,,,,,,,,,,,,,,,,,,,,,,,,,,,,,,,,,,,,C65A0M,train_y,red_square,top_left,2025-07-24_16h04.13.383,HideSeek_v1,2022.2.5,60.16434494333748,
,2,7,2,3,0,-4,12,,train_dim1_1,29,30,,,,2,0,2,0,,,,,,,,,0,0,0,0,0,28,28,28,3,0,3,0,,,,,,,,,,,,,,,,,,,,,,,,,,,,,,,,,,,,,,,,,,,,,,,,,,,,,,,,,,,,,,,,30,,,,,,,,1603.951937200036,1603.951937200036,1603.951937200036,1603.951937200036,1603.951937200036,,,,,up,3.5458579000551254,18,0,0,99,0,0.0,up,3.4534081001766026,,,,,,,,,,,,,,,,,,,,,,,,,,,,,,,,,,,,,,,,,,,,,,,,,,,,,,,,C65A0M,train_y,red_square,top_left,2025-07-24_16h04.13.383,HideSeek_v1,2022.2.5,60.16434494333748,
,2,7,2,3,0,-4,12,,train_dim1_1,29,30,,,,2,0,2,0,,,,,,,,,0,0,0,0,0,28,28,28,4,0,4,0,,,,,,,,,,,,,,,,,,,,,,,,,,,,,,,,,,,,,,,,,,,,,,,,,,,,,,,,,,,,,,,,30,,,,,,,,1607.505212499993,1607.505212499993,1607.505212499993,1607.505212499993,1607.505212499993,,,,,up,0.6261898998636752,18,0,0,99,0,0.08,up,0.5457142000086606,,,,,,,,,,,,,,,,,,,,,,,,,,,,,,,,,,,,,,,,,,,,,,,,,,,,,,,,C65A0M,train_y,red_square,top_left,2025-07-24_16h04.13.383,HideSeek_v1,2022.2.5,60.16434494333748,
,2,7,2,3,0,-4,12,,train_dim1_1,29,30,,,,2,0,2,0,,,,,,,,,0,0,0,0,0,28,28,28,5,0,5,0,,,,,,,,,,,,,,,,,,,,,,,,,,,,,,,,,,,,,,,,,,,,,,,,,,,,,,,,,,,,,,,,30,,,,,,,,1608.1383899999782,1608.1383899999782,1608.1383899999782,1608.1383899999782,1608.1383899999782,,,,,up,0.5103749998379499,18,0,0,99,0,0.16,up,0.4236416001804173,,,,,,,,,,,,,,,,,,,,,,,,,,,,,,,,,,,,,,,,,,,,,,,,,,,,,,,,C65A0M,train_y,red_square,top_left,2025-07-24_16h04.13.383,HideSeek_v1,2022.2.5,60.16434494333748,
,2,7,2,3,0,-4,12,,train_dim1_1,29,30,,,,2,0,2,0,,,,,,,,,0,0,0,0,0,28,28,28,6,0,6,0,,,,,,,,,,,,,,,,,,,,,,,,,,,,,,,,,,,,,,,,,,,,,,,,,,,,,,,,,,,,,,,,30,,,,,,,,1608.6556463001762,1608.6556463001762,1608.6556463001762,1608.6556463001762,1608.6556463001762,,,,,down,1.54423200013116,18,0,0,99,0,0.08,down,1.4591560000553727,,,,,,,,,,,,,,,,,,,,,,,,,,,,,,,,,,,,,,,,,,,,,,,,,,,,,,,,C65A0M,train_y,red_square,top_left,2025-07-24_16h04.13.383,HideSeek_v1,2022.2.5,60.16434494333748,
,2,7,2,3,0,-4,12,,train_dim1_1,29,30,,,,2,0,2,0,,,,,,,,,0,0,0,0,0,28,28,28,7,0,7,0,,,,,,,,,,,,,,,,,,,,,,,,,,,,,,,,,,,,,,,,,,,,,,,,,,,,,,,,,,,,,,,,30,,,,,,,,1610.2065367000178,1610.2065367000178,1610.2065367000178,1610.2065367000178,1610.2065367000178,,,,,down,0.6933099997695535,18,0,0,99,0,0.0,down,0.6066076999995857,,,,,,,,,,,,,,,,,,,,,,,,,,,,,,,,,,,,,,,,,,,,,,,,,,,,,,,,C65A0M,train_y,red_square,top_left,2025-07-24_16h04.13.383,HideSeek_v1,2022.2.5,60.16434494333748,
,2,7,2,3,0,-4,12,,train_dim1_1,29,30,,,,2,0,2,0,,,,,,,,,0,0,0,0,0,28,28,28,8,0,8,0,,,,,,,,,,,,,,,,,,,,,,,,,,,,,,,,,,,,,,,,,,,,,,,,,,,,,,,,,,,,,,,,30,,,,,,,,1610.9068022000138,1610.9068022000138,1610.9068022000138,1610.9068022000138,1610.9068022000138,,,,,down,0.7771703000180423,18,0,0,99,0,-0.08,down,0.691599499899894,,,,,,,,,,,,,,,,,,,,,,,,,,,,,,,,,,,,,,,,,,,,,,,,,,,,,,,,C65A0M,train_y,red_square,top_left,2025-07-24_16h04.13.383,HideSeek_v1,2022.2.5,60.16434494333748,
,2,7,2,3,0,-4,12,,train_dim1_1,29,30,,,,2,0,2,0,,,,,,,,,0,0,0,0,0,28,28,28,9,0,9,0,,,,,,,,,,,,,,,,,,,,,,,,,,,,,,,,,,,,,,,,,,,,,,,,,,,,,,,,,,,,,,,,30,,,,,,,,1611.6919952000026,1611.6919952000026,1611.6919952000026,1611.6919952000026,1611.6919952000026,,,,,down,0.8100605001673102,18,0,0,99,0,-0.16,down,0.7269202000461519,,,,,,,,,,,,,,,,,,,,,,,,,,,,,,,,,,,,,,,,,,,,,,,,,,,,,,,,C65A0M,train_y,red_square,top_left,2025-07-24_16h04.13.383,HideSeek_v1,2022.2.5,60.16434494333748,
,2,7,2,3,0,-4,12,,train_dim1_1,29,30,,,,2,0,2,0,,,,,,,,,0,0,0,0,0,28,28,28,10,0,10,0,,,,,,,,,,,,,,,,,,,,,,,,,,,,,,,,,,,,,,,,,,,,,,,,,,,,,,,,,,,,,,,,30,,,,,,,,1612.508582800161,1612.508582800161,1612.508582800161,1612.508582800161,1612.508582800161,-70,2,0,-0.16,return,1.3944211998023093,19,0,0,1,0,-0.16,return,1.3036582998465747,,,,,,,,,,,,,,,,,,,,,,,,,,,,,,,,,,,,,,,,,,,,,,,,,,,,,,,,C65A0M,train_y,red_square,top_left,2025-07-24_16h04.13.383,HideSeek_v1,2022.2.5,60.16434494333748,
,0,6,0,5,0,-1,15,,train_dim1_1,30,30,,,,2,0,2,0,,,,,,,,,0,0,0,0,0,29,29,29,0,0,0,0,,,,,,,,,,,,,,,,,,,,,,,,,stimuli/alien_stimuli/15.png,,,,,,,,,,,,,,,,,,,,,,,,,,,,,stimuli/alien_stimuli/12.png,12,2,31,,,,,,,30,,,,,,,,1619.3692060001194,1619.3692060001194,1619.3692060001194,1619.3692060001194,1619.3692060001194,,,,,down,5.492570099886507,19,0,0,99,-0.16,0.0,down,5.412825300125405,1617.81280230009,0,-0.16,0.32,0.0,0.0,0,0.0,0,-0.16,1615.4895138000138,1615.4895138000138,1615.4895138000138,1615.4895138000138,1615.4895138000138,1615.4895138000138,1615.4895138000138,1615.4895138000138,1615.476387450076,2.438040900044143,return,2.3021937999874353,1619.3692060001194,,,,,,,,,,,,,,,,,,,,,,,,,,,,,,,,,C65A0M,train_y,red_square,top_left,2025-07-24_16h04.13.383,HideSeek_v1,2022.2.5,60.16434494333748,
,0,6,0,5,0,-1,15,,train_dim1_1,30,30,,,,2,0,2,0,,,,,,,,,0,0,0,0,0,29,29,29,1,0,1,0,,,,,,,,,,,,,,,,,,,,,,,,,,,,,,,,,,,,,,,,,,,,,,,,,,,,,,,,,,,,,,,,30,,,,,,,,1624.8706624000333,1624.8706624000333,1624.8706624000333,1624.8706624000333,1624.8706624000333,-71,2,-0.16,0.0,return,0.29247420001775026,20,0,0,1,-0.16,0.0,return,0.21192610007710755,,,,,,,,,,,,,,,,,,,,,,,,,,,,,,,,,,,,,,,,,,,,,,,,,,,,,,,,C65A0M,train_y,red_square,top_left,2025-07-24_16h04.13.383,HideSeek_v1,2022.2.5,60.16434494333748,
,,,,,,,,,,,30,,,,2,0,2,0,,,,,,,,,,,,,,,,,,,,,,,,,,,,,,,,,,,,,,,,,,,,,,,,,,,,,,,,,,,,,,,,,,,,,,,,,,stimuli/alien_stimuli/15.png,15,0,32,21,0.7,0.8333333333333335,1,1,1,30,0,conditions/schedules/train_y_first/red_square_00/top_left/inputTrain_2.1.xlsx,99,1,2,1,0,,,,,,,,,,,,,,,1,,,,,1629.626804200001,-0.16,0,0.08,0.0,0.04,-0.16,-0.16,-0.16,0,1626.7524698001798,1626.7524698001798,1626.7524698001798,1626.7524698001798,1626.7524698001798,1626.7524698001798,1626.7524698001798,1626.7524698001798,1626.7523681000341,2.9934232998639345,return,2.841285200091079,,0,0.9,0,1,20,,,,,,,,,,,,,,,,,,,,,,,,,,,,C65A0M,train_y,red_square,top_left,2025-07-24_16h04.13.383,HideSeek_v1,2022.2.5,60.16434494333748,
,,,,,,,,,,,,,,,3,0,3,0,0,0,0,0,,,,,,,,,,,,,,,,,,,,,,,,,,,,,,,conditions/schedules/train_y_first/red_square_00/top_left/instructions/Slide17.png,conditions/schedules/train_y_first/red_square_00/top_left/instructions/Audio17.wav,1631.2070858001243,1631.2064643501071,17,"[6.5296471999026835, 19.354873900068924, 17.93151450017467, 18.551725500030443, 3.892149900086224, 4.332442999817431, 5.935972800012678, 11.77451610006392, 5.341432099929079, 6.332515500020236, 10.143549999920651, 13.38661150005646, 17.549241699976847, 17.44104909989983, 43.999487000051886, 21.24146609986201, 41.80929640005343]","[0.01432269997894764, 0.01433770009316504, 0.07739460002630949, 0.033723700093105435, 0.014161800034344196, 0.032870500115677714, 0.03232580004259944, 0.03683419991284609, 0.032928200205788016, 0.06865699985064566, 0.03458049986511469, 13.386618199991062, 0.00024500000290572643, 17.441055999835953, 0.00020829983986914158, 21.24147309991531, 41.80930389999412]",0,,,,,,,,,,,,,,,,,,,,,,,,,,,,,,,,,,,,,,,,,,,,,,,,,,,,,,,,,,,,,,,,,,,,,,,,,,,,,,,,,,,,,,,,,,,,,,,,,,,,,,,,,,,,,,,,,,,,,,,,,,,,C65A0M,train_y,red_square,top_left,2025-07-24_16h04.13.383,HideSeek_v1,2022.2.5,60.16434494333748,
,,,,,,,,,,,,,,,3,0,3,0,1,0,1,0,,,,,,,,,,,,,,,,,,,,,,,,,,,,,,,conditions/schedules/train_y_first/red_square_00/top_left/instructions/Slide18.png,conditions/schedules/train_y_first/red_square_00/top_left/instructions/Audio18.wav,1673.0860618001316,1673.0851650499972,18,"[6.5296471999026835, 19.354873900068924, 17.93151450017467, 18.551725500030443, 3.892149900086224, 4.332442999817431, 5.935972800012678, 11.77451610006392, 5.341432099929079, 6.332515500020236, 10.143549999920651, 13.38661150005646, 17.549241699976847, 17.44104909989983, 43.999487000051886, 21.24146609986201, 41.80929640005343, 5.840774999931455]","[0.01432269997894764, 0.01433770009316504, 0.07739460002630949, 0.033723700093105435, 0.014161800034344196, 0.032870500115677714, 0.03232580004259944, 0.03683419991284609, 0.032928200205788016, 0.06865699985064566, 0.03458049986511469, 13.386618199991062, 0.00024500000290572643, 17.441055999835953, 0.00020829983986914158, 21.24147309991531, 0.014130400028079748, 5.840786600019783]",0,,,,,,,,,,,,,,,,,,,,,,,,,,,,,,,,,,,,,,,,,,,,,,,,,,,,,,,,,,,,,,,,,,,,,,,,,,,,,,,,,,,,,,,,,,,,,,,,,,,,,,,,,,,,,,,,,,,,,,,,,,,,C65A0M,train_y,red_square,top_left,2025-07-24_16h04.13.383,HideSeek_v1,2022.2.5,60.16434494333748,
,,,,,,,,,,,,,,,3,0,3,0,2,0,2,0,,,,,,,,,,,,,,,,,,,,,,,,,,,,,,,conditions/schedules/train_y_first/red_square_00/top_left/instructions/Slide19.png,conditions/schedules/train_y_first/red_square_00/top_left/instructions/Audio19.wav,1678.9817486000247,1678.9793057999575,19,"[6.5296471999026835, 19.354873900068924, 17.93151450017467, 18.551725500030443, 3.892149900086224, 4.332442999817431, 5.935972800012678, 11.77451610006392, 5.341432099929079, 6.332515500020236, 10.143549999920651, 13.38661150005646, 17.549241699976847, 17.44104909989983, 43.999487000051886, 21.24146609986201, 41.80929640005343, 5.840774999931455, 9.286756000015885]","[0.01432269997894764, 0.01433770009316504, 0.07739460002630949, 0.033723700093105435, 0.014161800034344196, 0.032870500115677714, 0.03232580004259944, 0.03683419991284609, 0.032928200205788016, 0.06865699985064566, 0.03458049986511469, 13.386618199991062, 0.00024500000290572643, 17.441055999835953, 0.00020829983986914158, 21.24147309991531, 0.014130400028079748, 0.014009100152179599, 9.286762700183317]",0,,,,,,,,,,,,,,,,,,,,,,,,,,,,,,,,,,,,,,,,,,,,,,,,,,,,,,,,,,,,,,,,,,,,,,,,,,,,,,,,,,,,,,,,,,,,,,,,,,,,,,,,,,,,,,,,,,,,,,,,,,,,C65A0M,train_y,red_square,top_left,2025-07-24_16h04.13.383,HideSeek_v1,2022.2.5,60.16434494333748,
,,,,,,,,,,,,,,,3,0,3,0,3,0,3,0,,,,,,,,,,,,,,,,,,,,,,,,,,,,,,,conditions/schedules/train_y_first/red_square_00/top_left/instructions/Slide20.png,conditions/schedules/train_y_first/red_square_00/top_left/instructions/Audio20.wav,1688.3256924001034,1688.320868600067,20,"[6.5296471999026835, 19.354873900068924, 17.93151450017467, 18.551725500030443, 3.892149900086224, 4.332442999817431, 5.935972800012678, 11.77451610006392, 5.341432099929079, 6.332515500020236, 10.143549999920651, 13.38661150005646, 17.549241699976847, 17.44104909989983, 43.999487000051886, 21.24146609986201, 41.80929640005343, 5.840774999931455, 9.286756000015885, 12.119115799898282]","[0.01432269997894764, 0.01433770009316504, 0.07739460002630949, 0.033723700093105435, 0.014161800034344196, 0.032870500115677714, 0.03232580004259944, 0.03683419991284609, 0.032928200205788016, 0.06865699985064566, 0.03458049986511469, 13.386618199991062, 0.00024500000290572643, 17.441055999835953, 0.00020829983986914158, 21.24147309991531, 0.014130400028079748, 0.014009100152179599, 0.0592459999024868, 12.119122999953106]",0,,,,,,,,,,,,,,,,,,,,,,,,,,,,,,,,,,,,,,,,,,,,,,,,,,,,,,,,,,,,,,,,,,,,,,,,,,,,,,,,,,,,,,,,,,,,,,,,,,,,,,,,,,,,,,,,,,,,,,,,,,,,C65A0M,train_y,red_square,top_left,2025-07-24_16h04.13.383,HideSeek_v1,2022.2.5,60.16434494333748,
1,3,7,8,7,5,0,66,2,instr_dim1_2,,,,,,3,0,3,0,,,,,0,0,0,0,,,,,,,,,,,,,,,,,,,,,,,,,,,,,,,,,,,,,stimuli/alien_stimuli/66.png,conditions/schedules/train_y_first/red_square_00/top_left/inputInstr_2.xlsx,stimuli/alien_stimuli/66.png,1700.5507432001177,1700.5507432001177,1700.5507432001177,1700.5507432001177,1700.5473121500809,return,7.674980100011453,"[-0.16, -0.08, 0, 0.08, 0.16, 0.24, 0.32, 0.4, 0.48, 0.56]","[-0.4, -0.32, -0.24, -0.16, -0.08, 0, 0.08, 0.16, 0.24, 0.32]",7,7,8,3,0.0,0.4,1708.374955000123,1708.374955000123,1708.374955000123,1708.374955000123,1708.374955000123,1708.374955000123,1708.374955000123,1708.3535091500498,8.830265800002962,return,8.680885599926114,stimuli/alien_stimuli/66.png,66,3,1,,,,,,,,,,,,,,,,,,,,,,,,,,,,,,,,,,,,,,,,,,,,,,,,,,,,,,,,,,,,,,,,,,,,,,,,,,,,,,,,,,,,,,,,,C65A0M,train_y,red_square,top_left,2025-07-24_16h04.13.383,HideSeek_v1,2022.2.5,60.16434494333748,
,,,,,,,,,,,30,,,,3,0,3,0,,,,,,,,,,,,,,,,,,,,,,,,,,,,,,,,,,,,,,,,,,,,,,,,,,,,,,,,,,,,,,,,,,,,,,,,,,,,,,21,0.7,0.8333333333333335,1,99,2,30,0,conditions/schedules/train_y_first/red_square_00/top_left/inputTrain_2.1.xlsx,99,1,2,1,0,,,,,,,,,,,,,,,,,,,,,,,,,,,,,,,,,,,,,,,,,,,,,,,,,,,,,,,,,,,,,,,,,,,,,,,,,,,C65A0M,train_y,red_square,top_left,2025-07-24_16h04.13.383,HideSeek_v1,2022.2.5,60.16434494333748,
,,,,,,,,,,,,,,,4,0,4,0,0,0,0,0,,,,,,,,,,,,,,,,,,,,,,,,,,,,,,,conditions/schedules/train_y_first/red_square_00/top_left/instructions/Slide21.png,conditions/schedules/train_y_first/red_square_00/top_left/instructions/Audio21.wav,1717.2248784000985,1717.2159800499446,21,"[6.5296471999026835, 19.354873900068924, 17.93151450017467, 18.551725500030443, 3.892149900086224, 4.332442999817431, 5.935972800012678, 11.77451610006392, 5.341432099929079, 6.332515500020236, 10.143549999920651, 13.38661150005646, 17.549241699976847, 17.44104909989983, 43.999487000051886, 21.24146609986201, 41.80929640005343, 5.840774999931455, 9.286756000015885, 12.119115799898282, 15.268993099918589]","[0.01432269997894764, 0.01433770009316504, 0.07739460002630949, 0.033723700093105435, 0.014161800034344196, 0.032870500115677714, 0.03232580004259944, 0.03683419991284609, 0.032928200205788016, 0.06865699985064566, 0.03458049986511469, 13.386618199991062, 0.00024500000290572643, 17.441055999835953, 0.00020829983986914158, 21.24147309991531, 0.014130400028079748, 0.014009100152179599, 0.0592459999024868, 12.119122999953106, 15.269000499974936]",0,,,,,,,,,,,,,,,,,,,,,,,,,,,,,,,,,,,,,,,,,,,,,,,,,,,,,,,,,,,,,,,,,,,,,,,,,,,,,,,,,,,,,,,,,,,,,,,,,,,,,,,,,,,,,,,,,,,,,,,,,,,,C65A0M,train_y,red_square,top_left,2025-07-24_16h04.13.383,HideSeek_v1,2022.2.5,60.16434494333748,
2,4,5,4,5,0,0,16,2,instr_dim1_2,,,,,,4,0,4,0,,,,,0,0,0,0,,,,,,,,,,,,,,,,,,,,,,,,,,,,,,,,,,,,,stimuli/alien_stimuli/16.png,conditions/schedules/train_y_first/red_square_00/top_left/inputInstr_2.xlsx,stimuli/alien_stimuli/16.png,1732.594005400082,1732.594005400082,1732.594005400082,1732.594005400082,1732.5792949000374,return,5.9910324001684785,"[-0.16, -0.08, 0, 0.08, 0.16, 0.24, 0.32, 0.4, 0.48, 0.56]","[-0.4, -0.32, -0.24, -0.16, -0.08, 0, 0.08, 0.16, 0.24, 0.32]",5,5,4,4,0.0,0.0,1738.7590326000936,1738.7590326000936,1738.7590326000936,1738.7590326000936,1738.7590326000936,1738.7590326000936,1738.7590326000936,1738.7455137500308,7.997515700059012,return,7.828353200107813,stimuli/alien_stimuli/16.png,16,4,2,,,,,,,,,,,,,,,,,,,,,,,,,,,,,,,,,,,,,,,,,,,,,,,,,,,,,,,,,,,,,,,,,,,,,,,,,,,,,,,,,,,,,,,,,C65A0M,train_y,red_square,top_left,2025-07-24_16h04.13.383,HideSeek_v1,2022.2.5,60.16434494333748,
,,,,,,,,,,,30,,,,4,0,4,0,,,,,,,,,,,,,,,,,,,,,,,,,,,,,,,,,,,,,,,,,,,,,,,,,,,,,,,,,,,,,,,,,,,,,,,,,,,,,,21,0.7,0.8333333333333335,1,99,2,30,0,conditions/schedules/train_y_first/red_square_00/top_left/inputTrain_2.1.xlsx,99,1,2,1,0,,,,,,,,,,,,,,,,,,,,,,,,,,,,,,,,,,,,,,,,,,,,,,,,,,,,,,,,,,,,,,,,,,,,,,,,,,,C65A0M,train_y,red_square,top_left,2025-07-24_16h04.13.383,HideSeek_v1,2022.2.5,60.16434494333748,
,,,,,,,,,,,,,,,5,0,5,0,0,0,0,0,,,,,,,,,,,,,,,,,,,,,,,,,,,,,,,conditions/schedules/train_y_first/red_square_00/top_left/instructions/Slide22.png,conditions/schedules/train_y_first/red_square_00/top_left/instructions/Audio22.wav,1746.7490992001258,1746.7415132499534,22,"[6.5296471999026835, 19.354873900068924, 17.93151450017467, 18.551725500030443, 3.892149900086224, 4.332442999817431, 5.935972800012678, 11.77451610006392, 5.341432099929079, 6.332515500020236, 10.143549999920651, 13.38661150005646, 17.549241699976847, 17.44104909989983, 43.999487000051886, 21.24146609986201, 41.80929640005343, 5.840774999931455, 9.286756000015885, 12.119115799898282, 15.268993099918589, 31.533351599937305]","[0.01432269997894764, 0.01433770009316504, 0.07739460002630949, 0.033723700093105435, 0.014161800034344196, 0.032870500115677714, 0.03232580004259944, 0.03683419991284609, 0.032928200205788016, 0.06865699985064566, 0.03458049986511469, 13.386618199991062, 0.00024500000290572643, 17.441055999835953, 0.00020829983986914158, 21.24147309991531, 0.014130400028079748, 0.014009100152179599, 0.0592459999024868, 12.119122999953106, 15.269000499974936, 31.533357599982992]",0,,,,,,,,,,,,,,,,,,,,,,,,,,,,,,,,,,,,,,,,,,,,,,,,,,,,,,,,,,,,,,,,,,,,,,,,,,,,,,,,,,,,,,,,,,,,,,,,,,,,,,,,,,,,,,,,,,,,,,,,,,,,C65A0M,train_y,red_square,top_left,2025-07-24_16h04.13.383,HideSeek_v1,2022.2.5,60.16434494333748,
,2,6,5,6,3,0,46,,train_dim1_2,1,30,,,,5,0,5,0,,,,,,,,,0,0,0,0,0,0,0,0,0,0,0,0,,,,,,,,,,,,,,,,,,,,,,,,,stimuli/alien_stimuli/46.png,,,,,,,,,,,,,,,,,,,,,,,,,,,,,,,,,,,,,,,30,,,,,,,,1778.377242400078,1778.377242400078,1778.377242400078,1778.377242400078,1778.377242400078,,,,,right,6.961433199932799,0,0,0,99,0.08,0.08,right,6.8739467998966575,,,,,,,,,,,,,,,,,,,,,,,,,,,,,,,,,,,,,,,,,,,,,,,,,,,,,,,,C65A0M,train_y,red_square,top_left,2025-07-24_16h04.13.383,HideSeek_v1,2022.2.5,60.16434494333748,
,2,6,5,6,3,0,46,,train_dim1_2,1,30,,,,5,0,5,0,,,,,,,,,0,0,0,0,0,0,0,0,1,0,1,0,,,,,,,,,,,,,,,,,,,,,,,,,,,,,,,,,,,,,,,,,,,,,,,,,,,,,,,,,,,,,,,,30,,,,,,,,1785.3344676000997,1785.3344676000997,1785.3344676000997,1785.3344676000997,1785.3344676000997,,,,,right,1.0092469002120197,0,0,0,99,0.16,0.08,right,0.9273586000781506,,,,,,,,,,,,,,,,,,,,,,,,,,,,,,,,,,,,,,,,,,,,,,,,,,,,,,,,C65A0M,train_y,red_square,top_left,2025-07-24_16h04.13.383,HideSeek_v1,2022.2.5,60.16434494333748,
,2,6,5,6,3,0,46,,train_dim1_2,1,30,,,,5,0,5,0,,,,,,,,,0,0,0,0,0,0,0,0,2,0,2,0,,,,,,,,,,,,,,,,,,,,,,,,,,,,,,,,,,,,,,,,,,,,,,,,,,,,,,,,,,,,,,,,30,,,,,,,,1786.3501718000043,1786.3501718000043,1786.3501718000043,1786.3501718000043,1786.3501718000043,,,,,right,1.277344899950549,0,0,0,99,0.24,0.08,right,1.1929174000397325,,,,,,,,,,,,,,,,,,,,,,,,,,,,,,,,,,,,,,,,,,,,,,,,,,,,,,,,C65A0M,train_y,red_square,top_left,2025-07-24_16h04.13.383,HideSeek_v1,2022.2.5,60.16434494333748,
