trialInstr,x_fixStart,y_fixStart,x_corrSteps,y_corrSteps,x_nrSteps,y_nrSteps,alienID,trialLength,version,trialTrain,praclen,testlen,trial_label,break_on_off,beforeExpLoop.thisRepN,beforeExpLoop.thisTrialN,beforeExpLoop.thisN,beforeExpLoop.thisIndex,mini_instr_trials.thisRepN,mini_instr_trials.thisTrialN,mini_instr_trials.thisN,mini_instr_trials.thisIndex,instrLoop.thisRepN,instrLoop.thisTrialN,instrLoop.thisN,instrLoop.thisIndex,repeat_prac.thisRepN,repeat_prac.thisTrialN,repeat_prac.thisN,repeat_prac.thisIndex,trainLoop.thisRepN,trainLoop.thisTrialN,trainLoop.thisN,trainLoop.thisIndex,moveLoop_train.thisRepN,moveLoop_train.thisTrialN,moveLoop_train.thisN,moveLoop_train.thisIndex,experiment.thisRepN,experiment.thisTrialN,experiment.thisN,experiment.thisIndex,moveLoop_test.thisRepN,moveLoop_test.thisTrialN,moveLoop_test.thisN,moveLoop_test.thisIndex,mini_instr2_trials.thisRepN,mini_instr2_trials.thisTrialN,mini_instr2_trials.thisN,mini_instr2_trials.thisIndex,start_all_time,url,slideStim,audioStim,slides.started,sounds.started,nextButton.numClicks,nextButton.timesOn,nextButton.timesOff,prev_but.numClicks,prev_but.timesOn,prev_but.timesOff,alienStim,instrFile,alienStim_instr,gridImage_instr.started,startPos_3.started,key_instr.started,alienImage_3.started,sounds_1.started,key_instr.keys,key_instr.rt,all_x,all_y,FBy_corrSteps,FBy_fixStart,FBx_corrSteps,FBx_fixStart,FBy_pathSize_check,FBx_pathSize_check,gridImage_9.started,alienImageFB_3.started,startPosFB_3.started,keyFB_3.started,pathLine_ydir_2.started,pathLine_xdir_2.started,alienFace_3.started,sounds_2.started,RTFB_instr,keyFB_3.keys,keyFB_3.rt,draw_alienStim,draw_alienID,test_x,nrepcount,perfthres,percthres,earlierperf,earlystop,nextPrac,fileidx,praclen,saveACC_train,pracFile,nextPrac_train,addNrep,fileidx_endr,repExp,showearly,gridImage_4.started,startPos.started,movePos.started,key_resp.started,alienImage.started,buttonPress_train,RTchoice_train,cumAcctrain,aCorr,saveACC_choice,corrAns,x_movePos_end,y_movePos_end,key_resp.keys,key_resp.rt,wLy_dir,wLx_dir,x_movePos,y_movePos,text_2.started,text_2.stopped,aft_x_corrPos,aft_y_corrPos,y_pathSize_check,x_pathSize_check,y_pathdirY,x_pathdirY,x_pathdirX,x_corrPos,y_corrPos,gridImage_6.started,alienImageFB_2.started,startPosFB_2.started,movePosFB_2.started,keyFB_2.started,pathLine_xdir.started,pathLine_ydir.started,alienFace.started,sounds_4.started,RT_FBtrain,keyFB_2.keys,keyFB_2.rt,saveACC_pre,ACC,within_saveACC_train,earlystop_wloop,cumAcctrain_check,gridImage_3.started,alienImage_test.started,startPos_test.started,movePos_test.started,key_resp_test.started,wLy_dir_test,wLx_dir_test,buttonPress_test,RTchoice_test,cumAcctest,corrAns_test,key_resp_test.keys,key_resp_test.rt,text_3.started,text_3.stopped,total_time,end_all_time,key_resp_3.keys,slides_2.started,sounds_3.started,nextButton_2.numClicks,nextButton_2.timesOn,nextButton_2.timesOff,prev_but_2.numClicks,prev_but_2.timesOn,prev_but_2.timesOff,bye.started,participant,train_first,00_coordinate,starting corner,date,expName,psychopyVersion,frameRate,
,,,,,,,,,,,,,,,0,0,0,0,0,0,0,0,,,,,,,,,,,,,,,,,,,,,,,,,,,,,start_all_time,testround,conditions/schedules/train_x_first/blue_star_00/top_left/instructions/Slide1.png,conditions/schedules/train_x_first/blue_star_00/top_left/instructions/Audio1.wav,1216.213620699942,1216.1497945595531,1,[5.526283899787813],[5.5262929000891745],0,,,,,,,,,,,,,,,,,,,,,,,,,,,,,,,,,,,,,,,,,,,,,,,,,,,,,,,,,,,,,,,,,,,,,,,,,,,,,,,,,,,,,,,,,,,,,,,,,,,,,,,,,,,,,,,,,,,,,,,,,,,,CCN3FA,train_x,blue_star,top_left,2025-05-05_15h10.15.457,HideSeek_v1,2022.2.5,59.60598056795264,
,,,,,,,,,,,,,,,0,0,0,0,1,0,1,0,,,,,,,,,,,,,,,,,,,,,,,,,,,,,,,conditions/schedules/train_x_first/blue_star_00/top_left/instructions/Slide2.png,conditions/schedules/train_x_first/blue_star_00/top_left/instructions/Audio2.wav,1221.752623199951,1221.7523376001045,2,"[5.526283899787813, 18.546960100065917]","[0.00021789968013763428, 18.546967799775302]",0,,,,,,,,,,,,,,,,,,,,,,,,,,,,,,,,,,,,,,,,,,,,,,,,,,,,,,,,,,,,,,,,,,,,,,,,,,,,,,,,,,,,,,,,,,,,,,,,,,,,,,,,,,,,,,,,,,,,,,,,,,,,CCN3FA,train_x,blue_star,top_left,2025-05-05_15h10.15.457,HideSeek_v1,2022.2.5,59.60598056795264,
,,,,,,,,,,,,,,,0,0,0,0,2,0,2,0,,,,,,,,,,,,,,,,,,,,,,,,,,,,,,,conditions/schedules/train_x_first/blue_star_00/top_left/instructions/Slide3.png,conditions/schedules/train_x_first/blue_star_00/top_left/instructions/Audio3.wav,1240.3807806000113,1240.3687124000862,3,"[5.526283899787813, 18.546960100065917, 16.715170100331306]","[0.00021789968013763428, 0.014163400046527386, 16.71517790015787]",0,,,,,,,,,,,,,,,,,,,,,,,,,,,,,,,,,,,,,,,,,,,,,,,,,,,,,,,,,,,,,,,,,,,,,,,,,,,,,,,,,,,,,,,,,,,,,,,,,,,,,,,,,,,,,,,,,,,,,,,,,,,,CCN3FA,train_x,blue_star,top_left,2025-05-05_15h10.15.457,HideSeek_v1,2022.2.5,59.60598056795264,
,,,,,,,,,,,,,,,0,0,0,0,3,0,3,0,,,,,,,,,,,,,,,,,,,,,,,,,,,,,,,conditions/schedules/train_x_first/blue_star_00/top_left/instructions/Slide4.png,conditions/schedules/train_x_first/blue_star_00/top_left/instructions/Audio4.wav,1257.1798984003253,1257.181889920216,4,"[5.526283899787813, 18.546960100065917, 16.715170100331306, 19.382364499848336]","[0.00021789968013763428, 0.014163400046527386, 0.014098499901592731, 19.382372499909252]",0,,,,,,,,,,,,,,,,,,,,,,,,,,,,,,,,,,,,,,,,,,,,,,,,,,,,,,,,,,,,,,,,,,,,,,,,,,,,,,,,,,,,,,,,,,,,,,,,,,,,,,,,,,,,,,,,,,,,,,,,,,,,CCN3FA,train_x,blue_star,top_left,2025-05-05_15h10.15.457,HideSeek_v1,2022.2.5,59.60598056795264,
,,,,,,,,,,,,,,,0,0,0,0,4,0,4,0,,,,,,,,,,,,,,,,,,,,,,,,,,,,,,,conditions/schedules/train_x_first/blue_star_00/top_left/instructions/Slide5.png,conditions/schedules/train_x_first/blue_star_00/top_left/instructions/Audio5.wav,1276.6311455001123,1276.6313674002886,5,"[5.526283899787813, 18.546960100065917, 16.715170100331306, 19.382364499848336, 3.9343404001556337]","[0.00021789968013763428, 0.014163400046527386, 0.014098499901592731, 0.0644311998039484, 3.934348199982196]",0,,,,,,,,,,,,,,,,,,,,,,,,,,,,,,,,,,,,,,,,,,,,,,,,,,,,,,,,,,,,,,,,,,,,,,,,,,,,,,,,,,,,,,,,,,,,,,,,,,,,,,,,,,,,,,,,,,,,,,,,,,,,CCN3FA,train_x,blue_star,top_left,2025-05-05_15h10.15.457,HideSeek_v1,2022.2.5,59.60598056795264,
,,,,,,,,,,,,,,,0,0,0,0,5,0,5,0,,,,,,,,,,,,,,,,,,,,,,,,,,,,,,,conditions/schedules/train_x_first/blue_star_00/top_left/instructions/Slide6.png,conditions/schedules/train_x_first/blue_star_00/top_left/instructions/Audio6.wav,1280.6169960000552,1280.6181458801032,6,"[5.526283899787813, 18.546960100065917, 16.715170100331306, 19.382364499848336, 3.9343404001556337, 4.435694099869579]","[0.00021789968013763428, 0.014163400046527386, 0.014098499901592731, 0.0644311998039484, 0.08205220010131598, 4.435701900161803]",0,,,,,,,,,,,,,,,,,,,,,,,,,,,,,,,,,,,,,,,,,,,,,,,,,,,,,,,,,,,,,,,,,,,,,,,,,,,,,,,,,,,,,,,,,,,,,,,,,,,,,,,,,,,,,,,,,,,,,,,,,,,,CCN3FA,train_x,blue_star,top_left,2025-05-05_15h10.15.457,HideSeek_v1,2022.2.5,59.60598056795264,
,,,,,,,,,,,,,,,0,0,0,0,6,0,6,0,,,,,,,,,,,,,,,,,,,,,,,,,,,,,,,conditions/schedules/train_x_first/blue_star_00/top_left/instructions/Slide7.png,conditions/schedules/train_x_first/blue_star_00/top_left/instructions/Audio7.wav,1285.1040004999377,1285.1051896799356,7,"[5.526283899787813, 18.546960100065917, 16.715170100331306, 19.382364499848336, 3.9343404001556337, 4.435694099869579, 5.386714299675077]","[0.00021789968013763428, 0.014163400046527386, 0.014098499901592731, 0.0644311998039484, 0.08205220010131598, 0.06564659997820854, 5.386722299735993]",0,,,,,,,,,,,,,,,,,,,,,,,,,,,,,,,,,,,,,,,,,,,,,,,,,,,,,,,,,,,,,,,,,,,,,,,,,,,,,,,,,,,,,,,,,,,,,,,,,,,,,,,,,,,,,,,,,,,,,,,,,,,,CCN3FA,train_x,blue_star,top_left,2025-05-05_15h10.15.457,HideSeek_v1,2022.2.5,59.60598056795264,
,,,,,,,,,,,,,,,0,0,0,0,7,0,7,0,,,,,,,,,,,,,,,,,,,,,,,,,,,,,,,conditions/schedules/train_x_first/blue_star_00/top_left/instructions/Slide8.png,conditions/schedules/train_x_first/blue_star_00/top_left/instructions/Audio8.wav,1290.5637566000223,1290.5598750002682,8,"[5.526283899787813, 18.546960100065917, 16.715170100331306, 19.382364499848336, 3.9343404001556337, 4.435694099869579, 5.386714299675077, 11.919989499729127]","[0.00021789968013763428, 0.014163400046527386, 0.014098499901592731, 0.0644311998039484, 0.08205220010131598, 0.06564659997820854, 0.030940799973905087, 11.91999699966982]",0,,,,,,,,,,,,,,,,,,,,,,,,,,,,,,,,,,,,,,,,,,,,,,,,,,,,,,,,,,,,,,,,,,,,,,,,,,,,,,,,,,,,,,,,,,,,,,,,,,,,,,,,,,,,,,,,,,,,,,,,,,,,CCN3FA,train_x,blue_star,top_left,2025-05-05_15h10.15.457,HideSeek_v1,2022.2.5,59.60598056795264,
,,,,,,,,,,,,,,,0,0,0,0,8,0,8,0,,,,,,,,,,,,,,,,,,,,,,,,,,,,,,,conditions/schedules/train_x_first/blue_star_00/top_left/instructions/Slide9.png,conditions/schedules/train_x_first/blue_star_00/top_left/instructions/Audio9.wav,1302.5473756999709,1302.5364701801911,9,"[5.526283899787813, 18.546960100065917, 16.715170100331306, 19.382364499848336, 3.9343404001556337, 4.435694099869579, 5.386714299675077, 11.919989499729127, 6.241485199891031]","[0.00021789968013763428, 0.014163400046527386, 0.014098499901592731, 0.0644311998039484, 0.08205220010131598, 0.06564659997820854, 0.030940799973905087, 0.03631450003013015, 6.2414933000691235]",0,,,,,,,,,,,,,,,,,,,,,,,,,,,,,,,,,,,,,,,,,,,,,,,,,,,,,,,,,,,,,,,,,,,,,,,,,,,,,,,,,,,,,,,,,,,,,,,,,,,,,,,,,,,,,,,,,,,,,,,,,,,,CCN3FA,train_x,blue_star,top_left,2025-05-05_15h10.15.457,HideSeek_v1,2022.2.5,59.60598056795264,
,,,,,,,,,,,,,,,0,0,0,0,9,0,9,0,,,,,,,,,,,,,,,,,,,,,,,,,,,,,,,conditions/schedules/train_x_first/blue_star_00/top_left/instructions/Slide10.png,conditions/schedules/train_x_first/blue_star_00/top_left/instructions/Audio10.wav,1308.846554200165,1308.8415301798843,10,"[5.526283899787813, 18.546960100065917, 16.715170100331306, 19.382364499848336, 3.9343404001556337, 4.435694099869579, 5.386714299675077, 11.919989499729127, 6.241485199891031, 7.281802999787033]","[0.00021789968013763428, 0.014163400046527386, 0.014098499901592731, 0.0644311998039484, 0.08205220010131598, 0.06564659997820854, 0.030940799973905087, 0.03631450003013015, 0.06302929995581508, 7.2818109998479486]",0,,,,,,,,,,,,,,,,,,,,,,,,,,,,,,,,,,,,,,,,,,,,,,,,,,,,,,,,,,,,,,,,,,,,,,,,,,,,,,,,,,,,,,,,,,,,,,,,,,,,,,,,,,,,,,,,,,,,,,,,,,,,CCN3FA,train_x,blue_star,top_left,2025-05-05_15h10.15.457,HideSeek_v1,2022.2.5,59.60598056795264,
,,,,,,,,,,,,,,,0,0,0,0,10,0,10,0,,,,,,,,,,,,,,,,,,,,,,,,,,,,,,,conditions/schedules/train_x_first/blue_star_00/top_left/instructions/Slide11.png,conditions/schedules/train_x_first/blue_star_00/top_left/instructions/Audio11.wav,1316.2041962002404,1316.1975517002866,11,"[5.526283899787813, 18.546960100065917, 16.715170100331306, 19.382364499848336, 3.9343404001556337, 4.435694099869579, 5.386714299675077, 11.919989499729127, 6.241485199891031, 7.281802999787033, 10.149281099904329]","[0.00021789968013763428, 0.014163400046527386, 0.014098499901592731, 0.0644311998039484, 0.08205220010131598, 0.06564659997820854, 0.030940799973905087, 0.03631450003013015, 0.06302929995581508, 0.029782299883663654, 10.149288999848068]",0,,,,,,,,,,,,,,,,,,,,,,,,,,,,,,,,,,,,,,,,,,,,,,,,,,,,,,,,,,,,,,,,,,,,,,,,,,,,,,,,,,,,,,,,,,,,,,,,,,,,,,,,,,,,,,,,,,,,,,,,,,,,CCN3FA,train_x,blue_star,top_left,2025-05-05_15h10.15.457,HideSeek_v1,2022.2.5,59.60598056795264,
,,,,,,,,,,,,,,,0,0,0,0,11,0,11,0,,,,,,,,,,,,,,,,,,,,,,,,,,,,,,,conditions/schedules/train_x_first/blue_star_00/top_left/instructions/Slide12.png,conditions/schedules/train_x_first/blue_star_00/top_left/instructions/Audio12.wav,1326.4246904999018,1326.4228501003236,12,"[5.526283899787813, 18.546960100065917, 16.715170100331306, 19.382364499848336, 3.9343404001556337, 4.435694099869579, 5.386714299675077, 11.919989499729127, 6.241485199891031, 7.281802999787033, 10.149281099904329, 12.455472400411963]","[0.00021789968013763428, 0.014163400046527386, 0.014098499901592731, 0.0644311998039484, 0.08205220010131598, 0.06564659997820854, 0.030940799973905087, 0.03631450003013015, 0.06302929995581508, 0.029782299883663654, 0.013757000211626291, 12.455480000004172]",0,,,,,,,,,,,,,,,,,,,,,,,,,,,,,,,,,,,,,,,,,,,,,,,,,,,,,,,,,,,,,,,,,,,,,,,,,,,,,,,,,,,,,,,,,,,,,,,,,,,,,,,,,,,,,,,,,,,,,,,,,,,,CCN3FA,train_x,blue_star,top_left,2025-05-05_15h10.15.457,HideSeek_v1,2022.2.5,59.60598056795264,
1,4,5,9,5,5,0,11,2,instr_dim1_1,,,,,,0,0,0,0,,,,,0,0,0,0,,,,,,,,,,,,,,,,,,,,,,,,,,,,,,,,,,,,,stimuli/alien_stimuli/11.png,conditions/schedules/train_x_first/blue_star_00/top_left/inputInstr_1.xlsx,stimuli/alien_stimuli/11.png,1338.987130000256,1338.987130000256,1338.987130000256,1338.987130000256,1338.9832612400874,return,9.466896399855614,"[-0.16, -0.08, 0, 0.08, 0.16, 0.24, 0.32, 0.4, 0.48, 0.56]","[-0.4, -0.32, -0.24, -0.16, -0.08, 0, 0.08, 0.16, 0.24, 0.32]",5,5,9,4,0.0,0.4,1348.613162400201,1348.613162400201,1348.613162400201,1348.613162400201,1348.613162400201,1348.613162400201,1348.613162400201,1348.6084380799905,10.158437200356275,return,9.999401800334454,stimuli/alien_stimuli/11.png,11,4,1,,,,,,,,,,,,,,,,,,,,,,,,,,,,,,,,,,,,,,,,,,,,,,,,,,,,,,,,,,,,,,,,,,,,,,,,,,,,,,,,,,,,,,,,,CCN3FA,train_x,blue_star,top_left,2025-05-05_15h10.15.457,HideSeek_v1,2022.2.5,59.60598056795264,
,,,,,,,,,,,30,,,,0,0,0,0,,,,,,,,,,,,,,,,,,,,,,,,,,,,,,,,,,,,,,,,,,,,,,,,,,,,,,,,,,,,,,,,,,,,,,,,,,,,,,21,0.7,0,0,99,1,30,0,conditions/schedules/train_x_first/blue_star_00/top_left/inputTrain_1.1.xlsx,99,1,1,1,0,,,,,,,,,,,,,,,,,,,,,,,,,,,,,,,,,,,,,,,,,,,,,,,,,,,,,,,,,,,,,,,,,,,,,,,,,,,CCN3FA,train_x,blue_star,top_left,2025-05-05_15h10.15.457,HideSeek_v1,2022.2.5,59.60598056795264,
,,,,,,,,,,,,,,,1,0,1,0,0,0,0,0,,,,,,,,,,,,,,,,,,,,,,,,,,,,,,,conditions/schedules/train_x_first/blue_star_00/top_left/instructions/Slide13.png,conditions/schedules/train_x_first/blue_star_00/top_left/instructions/Audio13.wav,1358.7643782999367,1358.766474980209,13,"[5.526283899787813, 18.546960100065917, 16.715170100331306, 19.382364499848336, 3.9343404001556337, 4.435694099869579, 5.386714299675077, 11.919989499729127, 6.241485199891031, 7.281802999787033, 10.149281099904329, 12.455472400411963, 18.114785199984908]","[0.00021789968013763428, 0.014163400046527386, 0.014098499901592731, 0.0644311998039484, 0.08205220010131598, 0.06564659997820854, 0.030940799973905087, 0.03631450003013015, 0.06302929995581508, 0.029782299883663654, 0.013757000211626291, 12.455480000004172, 18.114793099928647]",0,,,,,,,,,,,,,,,,,,,,,,,,,,,,,,,,,,,,,,,,,,,,,,,,,,,,,,,,,,,,,,,,,,,,,,,,,,,,,,,,,,,,,,,,,,,,,,,,,,,,,,,,,,,,,,,,,,,,,,,,,,,,CCN3FA,train_x,blue_star,top_left,2025-05-05_15h10.15.457,HideSeek_v1,2022.2.5,59.60598056795264,
,,,,,,,,,,,,,,,1,0,1,0,1,0,1,0,,,,,,,,,,,,,,,,,,,,,,,,,,,,,,,conditions/schedules/train_x_first/blue_star_00/top_left/instructions/Slide14.png,conditions/schedules/train_x_first/blue_star_00/top_left/instructions/Audio14.wav,1376.9523272002116,1376.9483292000368,14,"[5.526283899787813, 18.546960100065917, 16.715170100331306, 19.382364499848336, 3.9343404001556337, 4.435694099869579, 5.386714299675077, 11.919989499729127, 6.241485199891031, 7.281802999787033, 10.149281099904329, 12.455472400411963, 18.114785199984908, 13.008697099983692]","[0.00021789968013763428, 0.014163400046527386, 0.014098499901592731, 0.0644311998039484, 0.08205220010131598, 0.06564659997820854, 0.030940799973905087, 0.03631450003013015, 0.06302929995581508, 0.029782299883663654, 0.013757000211626291, 12.455480000004172, 0.01367209991440177, 13.008704700041562]",0,,,,,,,,,,,,,,,,,,,,,,,,,,,,,,,,,,,,,,,,,,,,,,,,,,,,,,,,,,,,,,,,,,,,,,,,,,,,,,,,,,,,,,,,,,,,,,,,,,,,,,,,,,,,,,,,,,,,,,,,,,,,CCN3FA,train_x,blue_star,top_left,2025-05-05_15h10.15.457,HideSeek_v1,2022.2.5,59.60598056795264,
2,3,7,3,7,0,0,61,2,instr_dim1_1,,,,,,1,0,1,0,,,,,0,0,0,0,,,,,,,,,,,,,,,,,,,,,,,,,,,,,,,,,,,,,stimuli/alien_stimuli/61.png,conditions/schedules/train_x_first/blue_star_00/top_left/inputInstr_1.xlsx,stimuli/alien_stimuli/61.png,1390.0733535001054,1390.0733535001054,1390.0733535001054,1390.0733535001054,1390.0638504399917,return,7.396661100443453,"[-0.16, -0.08, 0, 0.08, 0.16, 0.24, 0.32, 0.4, 0.48, 0.56]","[-0.4, -0.32, -0.24, -0.16, -0.08, 0, 0.08, 0.16, 0.24, 0.32]",7,7,3,3,0.0,0.0,1397.6271458002739,1397.6271458002739,1397.6271458002739,1397.6271458002739,1397.6271458002739,1397.6271458002739,1397.6271458002739,1397.6153654601424,9.142216099891812,return,8.995782600250095,stimuli/alien_stimuli/61.png,61,3,2,,,,,,,,,,,,,,,,,,,,,,,,,,,,,,,,,,,,,,,,,,,,,,,,,,,,,,,,,,,,,,,,,,,,,,,,,,,,,,,,,,,,,,,,,CCN3FA,train_x,blue_star,top_left,2025-05-05_15h10.15.457,HideSeek_v1,2022.2.5,59.60598056795264,
,,,,,,,,,,,30,,,,1,0,1,0,,,,,,,,,,,,,,,,,,,,,,,,,,,,,,,,,,,,,,,,,,,,,,,,,,,,,,,,,,,,,,,,,,,,,,,,,,,,,,21,0.7,0,0,99,1,30,0,conditions/schedules/train_x_first/blue_star_00/top_left/inputTrain_1.1.xlsx,99,1,1,1,0,,,,,,,,,,,,,,,,,,,,,,,,,,,,,,,,,,,,,,,,,,,,,,,,,,,,,,,,,,,,,,,,,,,,,,,,,,,CCN3FA,train_x,blue_star,top_left,2025-05-05_15h10.15.457,HideSeek_v1,2022.2.5,59.60598056795264,
,,,,,,,,,,,,,,,2,0,2,0,0,0,0,0,,,,,,,,,,,,,,,,,,,,,,,,,,,,,,,conditions/schedules/train_x_first/blue_star_00/top_left/instructions/Slide15.png,conditions/schedules/train_x_first/blue_star_00/top_left/instructions/Audio15.wav,1406.7801602003165,1406.7728395800107,15,"[5.526283899787813, 18.546960100065917, 16.715170100331306, 19.382364499848336, 3.9343404001556337, 4.435694099869579, 5.386714299675077, 11.919989499729127, 6.241485199891031, 7.281802999787033, 10.149281099904329, 12.455472400411963, 18.114785199984908, 13.008697099983692, 31.16601200029254]","[0.00021789968013763428, 0.014163400046527386, 0.014098499901592731, 0.0644311998039484, 0.08205220010131598, 0.06564659997820854, 0.030940799973905087, 0.03631450003013015, 0.06302929995581508, 0.029782299883663654, 0.013757000211626291, 12.455480000004172, 0.01367209991440177, 13.008704700041562, 31.16601929999888]",0,,,,,,,,,,,,,,,,,,,,,,,,,,,,,,,,,,,,,,,,,,,,,,,,,,,,,,,,,,,,,,,,,,,,,,,,,,,,,,,,,,,,,,,,,,,,,,,,,,,,,,,,,,,,,,,,,,,,,,,,,,,,CCN3FA,train_x,blue_star,top_left,2025-05-05_15h10.15.457,HideSeek_v1,2022.2.5,59.60598056795264,
,,,,,,,,,,,,,,,2,0,2,0,1,0,1,0,,,,,,,,,,,,,,,,,,,,,,,,,,,,,,,conditions/schedules/train_x_first/blue_star_00/top_left/instructions/Slide16.png,conditions/schedules/train_x_first/blue_star_00/top_left/instructions/Audio16.wav,1438.0129092000425,1438.0155024002306,16,"[5.526283899787813, 18.546960100065917, 16.715170100331306, 19.382364499848336, 3.9343404001556337, 4.435694099869579, 5.386714299675077, 11.919989499729127, 6.241485199891031, 7.281802999787033, 10.149281099904329, 12.455472400411963, 18.114785199984908, 13.008697099983692, 31.16601200029254, 22.685340899974108]","[0.00021789968013763428, 0.014163400046527386, 0.014098499901592731, 0.0644311998039484, 0.08205220010131598, 0.06564659997820854, 0.030940799973905087, 0.03631450003013015, 0.06302929995581508, 0.029782299883663654, 0.013757000211626291, 12.455480000004172, 0.01367209991440177, 13.008704700041562, 31.16601929999888, 22.685348799917847]",0,,,,,,,,,,,,,,,,,,,,,,,,,,,,,,,,,,,,,,,,,,,,,,,,,,,,,,,,,,,,,,,,,,,,,,,,,,,,,,,,,,,,,,,,,,,,,,,,,,,,,,,,,,,,,,,,,,,,,,,,,,,,CCN3FA,train_x,blue_star,top_left,2025-05-05_15h10.15.457,HideSeek_v1,2022.2.5,59.60598056795264,
,2,6,5,6,3,0,31,,train_dim1_1,1,30,,,,2,0,2,0,,,,,,,,,0,0,0,0,0,0,0,0,0,0,0,0,,,,,,,,,,,,,,,,,,,,,,,,,stimuli/alien_stimuli/31.png,,,,,,,,,,,,,,,,,,,,,,,,,,,,,,,,,,,,,,,30,,,,,,,,1460.7997710001655,1460.7997710001655,1460.7997710001655,1460.7997710001655,1460.7997710001655,right,6.450339399743825,0,0,0,99,0.08,0.08,right,6.354710199870169,,,,,,,,,,,,,,,,,,,,,,,,,,,,,,,,,,,,,,,,,,,,,,,,,,,,,,,,,,,,CCN3FA,train_x,blue_star,top_left,2025-05-05_15h10.15.457,HideSeek_v1,2022.2.5,59.60598056795264,
,2,6,5,6,3,0,31,,train_dim1_1,1,30,,,,2,0,2,0,,,,,,,,,0,0,0,0,0,0,0,0,1,0,1,0,,,,,,,,,,,,,,,,,,,,,,,,,,,,,,,,,,,,,,,,,,,,,,,,,,,,,,,,,,,,,,,,30,,,,,,,,1467.237276200205,1467.237276200205,1467.237276200205,1467.237276200205,1467.237276200205,right,1.1434840997681022,0,0,0,99,0.16,0.08,right,1.0566622000187635,,,,,,,,,,,,,,,,,,,,,,,,,,,,,,,,,,,,,,,,,,,,,,,,,,,,,,,,,,,,CCN3FA,train_x,blue_star,top_left,2025-05-05_15h10.15.457,HideSeek_v1,2022.2.5,59.60598056795264,
,2,6,5,6,3,0,31,,train_dim1_1,1,30,,,,2,0,2,0,,,,,,,,,0,0,0,0,0,0,0,0,2,0,2,0,,,,,,,,,,,,,,,,,,,,,,,,,,,,,,,,,,,,,,,,,,,,,,,,,,,,,,,,,,,,,,,,30,,,,,,,,1468.3871901999228,1468.3871901999228,1468.3871901999228,1468.3871901999228,1468.3871901999228,right,1.6613457999192178,0,0,0,99,0.24,0.08,right,1.5764902997761965,,,,,,,,,,,,,,,,,,,,,,,,,,,,,,,,,,,,,,,,,,,,,,,,,,,,,,,,,,,,CCN3FA,train_x,blue_star,top_left,2025-05-05_15h10.15.457,HideSeek_v1,2022.2.5,59.60598056795264,
,2,6,5,6,3,0,31,,train_dim1_1,1,30,,,,2,0,2,0,,,,,,,,,0,0,0,0,0,0,0,0,3,0,3,0,,,,,,,,,,,,,,,,,,,,,,,,,,,,,,,,,,,,,,,,,,,,,,,,,,,,,,,,,,,,,,,,30,,,,,,,,1470.0552483000793,1470.0552483000793,1470.0552483000793,1470.0552483000793,1470.0552483000793,right,2.3115467000752687,0,0,0,99,0.32,0.08,right,2.2362974998541176,,,,,,,,,,,,,,,,,,,,,,,,,,,,,,,,,,,,,,,,,,,,,,,,,,,,,,,,,,,,CCN3FA,train_x,blue_star,top_left,2025-05-05_15h10.15.457,HideSeek_v1,2022.2.5,59.60598056795264,
,2,6,5,6,3,0,31,,train_dim1_1,1,30,,,,2,0,2,0,,,,,,,,,0,0,0,0,0,0,0,0,4,0,4,0,,,,,,,,,,,,,,,,,,,,,,,,,,,,,,,,,,,,,,,,,,,,,,,,,,,,,,,,,,,,,,,,30,,,,,,,,1472.3734830999747,1472.3734830999747,1472.3734830999747,1472.3734830999747,1472.3734830999747,left,1.6109956000000238,0,0,0,99,0.24,0.08,left,1.530105700250715,,,,,,,,,,,,,,,,,,,,,,,,,,,,,,,,,,,,,,,,,,,,,,,,,,,,,,,,,,,,CCN3FA,train_x,blue_star,top_left,2025-05-05_15h10.15.457,HideSeek_v1,2022.2.5,59.60598056795264,
,2,6,5,6,3,0,31,,train_dim1_1,1,30,,,,2,0,2,0,,,,,,,,,0,0,0,0,0,0,0,0,5,0,5,0,,,,,,,,,,,,,,,,,,,,,,,,,,,,,,,,,,,,,,,,,,,,,,,,,,,,,,,,,,,,,,,,30,,,,,,,,1473.9914073003456,1473.9914073003456,1473.9914073003456,1473.9914073003456,1473.9914073003456,left,0.9104646998457611,0,0,0,99,0.15999999999999998,0.08,left,0.8373603001236916,,,,,,,,,,,,,,,,,,,,,,,,,,,,,,,,,,,,,,,,,,,,,,,,,,,,,,,,,,,,CCN3FA,train_x,blue_star,top_left,2025-05-05_15h10.15.457,HideSeek_v1,2022.2.5,59.60598056795264,
,2,6,5,6,3,0,31,,train_dim1_1,1,30,,,,2,0,2,0,,,,,,,,,0,0,0,0,0,0,0,0,6,0,6,0,,,,,,,,,,,,,,,,,,,,,,,,,,,,,,,,,,,,,,,,,,,,,,,,,,,,,,,,,,,,,,,,30,,,,,,,,1474.9102039001882,1474.9102039001882,1474.9102039001882,1474.9102039001882,1474.9102039001882,right,4.53009819984436,0,0,0,99,0.24,0.08,right,4.447817100211978,,,,,,,,,,,,,,,,,,,,,,,,,,,,,,,,,,,,,,,,,,,,,,,,,,,,,,,,,,,,CCN3FA,train_x,blue_star,top_left,2025-05-05_15h10.15.457,HideSeek_v1,2022.2.5,59.60598056795264,
,2,6,5,6,3,0,31,,train_dim1_1,1,30,,,,2,0,2,0,,,,,,,,,0,0,0,0,0,0,0,0,7,0,7,0,,,,,,,,,,,,,,,,,,,,,,,,,,,,,,,,,,,,,,,,,,,,,,,,,,,,,,,,,,,,,,,,30,,,,,,,,1479.447758700233,1479.447758700233,1479.447758700233,1479.447758700233,1479.447758700233,return,7.449197900015861,1,0,0,1,0.24,0.08,return,7.37089730007574,0,3,0.24,0.08,,,,,,,,,,,,,,,,,,,,,,,,,,,,,,,,,,,,,,,,,,,,,,,,,,,,,,,,CCN3FA,train_x,blue_star,top_left,2025-05-05_15h10.15.457,HideSeek_v1,2022.2.5,59.60598056795264,
,2,9,7,9,5,0,11,,train_dim1_1,2,30,,,,2,0,2,0,,,,,,,,,0,0,0,0,0,1,1,1,0,0,0,0,,,,,,,,,,,,,,,,,,,,,,,,,stimuli/alien_stimuli/11.png,,,,,,,,,,,,,,,,,,,,,,,,,,,,,stimuli/alien_stimuli/31.png,31,2,3,,,,,,,30,,,,,,,,1500.7916363999248,1500.7916363999248,1500.7916363999248,1500.7916363999248,1500.7916363999248,right,5.410789000336081,1,0,0,99,0.08,0.32,right,5.3019560999237,,,,,1499.2165219001472,1500.7916363999248,0.24,0.08,0.0,0.24,0.08,0.24,0.12,0.24,0.08,1488.4824867001735,1488.4824867001735,1488.4824867001735,1488.4824867001735,1488.4824867001735,1488.4824867001735,1488.4824867001735,1488.4824867001735,1488.4744851599446,10.86067650001496,return,10.718115199822932,,,,,,,,,,,,,,,,,,,,,,,,,,,,,,,,,CCN3FA,train_x,blue_star,top_left,2025-05-05_15h10.15.457,HideSeek_v1,2022.2.5,59.60598056795264,
,2,9,7,9,5,0,11,,train_dim1_1,2,30,,,,2,0,2,0,,,,,,,,,0,0,0,0,0,1,1,1,1,0,1,0,,,,,,,,,,,,,,,,,,,,,,,,,,,,,,,,,,,,,,,,,,,,,,,,,,,,,,,,,,,,,,,,30,,,,,,,,1506.1898604002781,1506.1898604002781,1506.1898604002781,1506.1898604002781,1506.1898604002781,right,1.4937308002263308,1,0,0,99,0.16,0.32,right,1.4175284998491406,,,,,,,,,,,,,,,,,,,,,,,,,,,,,,,,,,,,,,,,,,,,,,,,,,,,,,,,,,,,CCN3FA,train_x,blue_star,top_left,2025-05-05_15h10.15.457,HideSeek_v1,2022.2.5,59.60598056795264,
,2,9,7,9,5,0,11,,train_dim1_1,2,30,,,,2,0,2,0,,,,,,,,,0,0,0,0,0,1,1,1,2,0,2,0,,,,,,,,,,,,,,,,,,,,,,,,,,,,,,,,,,,,,,,,,,,,,,,,,,,,,,,,,,,,,,,,30,,,,,,,,1507.6900142999366,1507.6900142999366,1507.6900142999366,1507.6900142999366,1507.6900142999366,right,1.544594000093639,1,0,0,99,0.24,0.32,right,1.4629927999339998,,,,,,,,,,,,,,,,,,,,,,,,,,,,,,,,,,,,,,,,,,,,,,,,,,,,,,,,,,,,CCN3FA,train_x,blue_star,top_left,2025-05-05_15h10.15.457,HideSeek_v1,2022.2.5,59.60598056795264,
,2,9,7,9,5,0,11,,train_dim1_1,2,30,,,,2,0,2,0,,,,,,,,,0,0,0,0,0,1,1,1,3,0,3,0,,,,,,,,,,,,,,,,,,,,,,,,,,,,,,,,,,,,,,,,,,,,,,,,,,,,,,,,,,,,,,,,30,,,,,,,,1509.2412113999017,1509.2412113999017,1509.2412113999017,1509.2412113999017,1509.2412113999017,right,2.311854399740696,1,0,0,99,0.32,0.32,right,2.2211199002340436,,,,,,,,,,,,,,,,,,,,,,,,,,,,,,,,,,,,,,,,,,,,,,,,,,,,,,,,,,,,CCN3FA,train_x,blue_star,top_left,2025-05-05_15h10.15.457,HideSeek_v1,2022.2.5,59.60598056795264,
,2,9,7,9,5,0,11,,train_dim1_1,2,30,,,,2,0,2,0,,,,,,,,,0,0,0,0,0,1,1,1,4,0,4,0,,,,,,,,,,,,,,,,,,,,,,,,,,,,,,,,,,,,,,,,,,,,,,,,,,,,,,,,,,,,,,,,30,,,,,,,,1511.5608323002234,1511.5608323002234,1511.5608323002234,1511.5608323002234,1511.5608323002234,return,3.0616941996850073,1,1,0,0,0.32,0.32,return,2.969925200100988,0,7,0.32,0.32,,,,,,,,,,,,,,,,,,,,,,,,,,,,,,,,,,,,,,,,,,,,,,,,,,,,,,,,CCN3FA,train_x,blue_star,top_left,2025-05-05_15h10.15.457,HideSeek_v1,2022.2.5,59.60598056795264,
,4,9,8,9,4,0,21,,train_dim1_1,3,30,,,,2,0,2,0,,,,,,,,,0,0,0,0,0,2,2,2,0,0,0,0,,,,,,,,,,,,,,,,,,,,,,,,,stimuli/alien_stimuli/21.png,,,,,,,,,,,,,,,,,,,,,,,,,,,,,stimuli/alien_stimuli/11.png,11,2,4,,,,,,,30,,,,,,,,1539.2784404000267,1539.2784404000267,1539.2784404000267,1539.2784404000267,1539.2784404000267,right,3.19041240029037,1,1,0,99,0.24,0.32,right,3.0770578999072313,,,,,1537.6981501001865,1539.2784404000267,0.4,0.32,0.0,0.4,0.32,0.4,0.2,0.4,0.32,1516.2276401999407,1516.2276401999407,1516.2276401999407,1516.2276401999407,1516.2276401999407,1516.2276401999407,1516.2276401999407,1516.2276401999407,1516.2138490800746,21.620219100266695,return,21.45424049999565,,,,,,,,,,,,,,,,,,,,,,,,,,,,,,,,,CCN3FA,train_x,blue_star,top_left,2025-05-05_15h10.15.457,HideSeek_v1,2022.2.5,59.60598056795264,
,4,9,8,9,4,0,21,,train_dim1_1,3,30,,,,2,0,2,0,,,,,,,,,0,0,0,0,0,2,2,2,1,0,1,0,,,,,,,,,,,,,,,,,,,,,,,,,,,,,,,,,,,,,,,,,,,,,,,,,,,,,,,,,,,,,,,,30,,,,,,,,1542.454002900049,1542.454002900049,1542.454002900049,1542.454002900049,1542.454002900049,right,0.7431741999462247,1,1,0,99,0.32,0.32,right,0.6639403002336621,,,,,,,,,,,,,,,,,,,,,,,,,,,,,,,,,,,,,,,,,,,,,,,,,,,,,,,,,,,,CCN3FA,train_x,blue_star,top_left,2025-05-05_15h10.15.457,HideSeek_v1,2022.2.5,59.60598056795264,
,4,9,8,9,4,0,21,,train_dim1_1,3,30,,,,2,0,2,0,,,,,,,,,0,0,0,0,0,2,2,2,2,0,2,0,,,,,,,,,,,,,,,,,,,,,,,,,,,,,,,,,,,,,,,,,,,,,,,,,,,,,,,,,,,,,,,,30,,,,,,,,1543.2031692001037,1543.2031692001037,1543.2031692001037,1543.2031692001037,1543.2031692001037,right,0.7602190002799034,1,1,0,99,0.4,0.32,right,0.6813425002619624,,,,,,,,,,,,,,,,,,,,,,,,,,,,,,,,,,,,,,,,,,,,,,,,,,,,,,,,,,,,CCN3FA,train_x,blue_star,top_left,2025-05-05_15h10.15.457,HideSeek_v1,2022.2.5,59.60598056795264,
,4,9,8,9,4,0,21,,train_dim1_1,3,30,,,,2,0,2,0,,,,,,,,,0,0,0,0,0,2,2,2,3,0,3,0,,,,,,,,,,,,,,,,,,,,,,,,,,,,,,,,,,,,,,,,,,,,,,,,,,,,,,,,,,,,,,,,30,,,,,,,,1543.9702019002289,1543.9702019002289,1543.9702019002289,1543.9702019002289,1543.9702019002289,right,0.7939189998432994,1,1,0,99,0.48000000000000004,0.32,right,0.7119828001596034,,,,,,,,,,,,,,,,,,,,,,,,,,,,,,,,,,,,,,,,,,,,,,,,,,,,,,,,,,,,CCN3FA,train_x,blue_star,top_left,2025-05-05_15h10.15.457,HideSeek_v1,2022.2.5,59.60598056795264,
,4,9,8,9,4,0,21,,train_dim1_1,3,30,,,,2,0,2,0,,,,,,,,,0,0,0,0,0,2,2,2,4,0,4,0,,,,,,,,,,,,,,,,,,,,,,,,,,,,,,,,,,,,,,,,,,,,,,,,,,,,,,,,,,,,,,,,30,,,,,,,,1544.7708995002322,1544.7708995002322,1544.7708995002322,1544.7708995002322,1544.7708995002322,right,0.7935017999261618,1,1,0,99,0.56,0.32,right,0.7155626001767814,,,,,,,,,,,,,,,,,,,,,,,,,,,,,,,,,,,,,,,,,,,,,,,,,,,,,,,,,,,,CCN3FA,train_x,blue_star,top_left,2025-05-05_15h10.15.457,HideSeek_v1,2022.2.5,59.60598056795264,
,4,9,8,9,4,0,21,,train_dim1_1,3,30,,,,2,0,2,0,,,,,,,,,0,0,0,0,0,2,2,2,5,0,5,0,,,,,,,,,,,,,,,,,,,,,,,,,,,,,,,,,,,,,,,,,,,,,,,,,,,,,,,,,,,,,,,,30,,,,,,,,1545.5717242001556,1545.5717242001556,1545.5717242001556,1545.5717242001556,1545.5717242001556,return,1.3443618998862803,1,1,0,0,0.56,0.32,return,1.264885200187564,0,12,0.56,0.32,,,,,,,,,,,,,,,,,,,,,,,,,,,,,,,,,,,,,,,,,,,,,,,,,,,,,,,,CCN3FA,train_x,blue_star,top_left,2025-05-05_15h10.15.457,HideSeek_v1,2022.2.5,59.60598056795264,
,2,8,3,8,1,0,51,,train_dim1_1,4,30,,,,2,0,2,0,,,,,,,,,0,0,0,0,0,3,3,3,0,0,0,0,,,,,,,,,,,,,,,,,,,,,,,,,stimuli/alien_stimuli/51.png,,,,,,,,,,,,,,,,,,,,,,,,,,,,,stimuli/alien_stimuli/21.png,21,4,5,,,,,,,30,,,,,,,,1562.792134700343,1562.792134700343,1562.792134700343,1562.792134700343,1562.792134700343,return,3.741634899750352,1,1,0,0,0,0.24,return,3.6463432000018656,0,12,0,0.24,1561.2178254001774,1562.792134700343,0.48,0.32,0.0,0.32,0.32,0.48,0.32,0.48,0.32,1548.501716000028,1548.501716000028,1548.501716000028,1548.501716000028,1548.501716000028,1548.501716000028,1548.501716000028,1548.501716000028,1548.4905498601495,12.845891200006008,return,12.685957300011069,,,,,,,,,,,,,,,,,,,,,,,,,,,,,,,,,CCN3FA,train_x,blue_star,top_left,2025-05-05_15h10.15.457,HideSeek_v1,2022.2.5,59.60598056795264,
,0,7,0,7,0,0,61,,train_dim1_1,5,30,,,,2,0,2,0,,,,,,,,,0,0,0,0,0,4,4,4,0,0,0,0,,,,,,,,,,,,,,,,,,,,,,,,,stimuli/alien_stimuli/61.png,,,,,,,,,,,,,,,,,,,,,,,,,,,,,stimuli/alien_stimuli/51.png,51,2,6,,,,,,,30,,,,,,,,1580.0960933999158,1580.0960933999158,1580.0960933999158,1580.0960933999158,1580.0960933999158,right,6.945235600229353,1,1,0,99,-0.08,0.16,right,6.83636450022459,,,,,1578.5154534000903,1580.0960933999158,0.08,0.24,0.0,0.08,0.24,0.08,0.04,0.08,0.24,1568.0958099002019,1568.0958099002019,1568.0958099002019,1568.0958099002019,1568.0958099002019,1568.0958099002019,1568.0958099002019,1568.0958099002019,1568.0902415598741,10.543953400105238,return,10.396512900013477,,,,,,,,,,,,,,,,,,,,,,,,,,,,,,,,,CCN3FA,train_x,blue_star,top_left,2025-05-05_15h10.15.457,HideSeek_v1,2022.2.5,59.60598056795264,
,0,7,0,7,0,0,61,,train_dim1_1,5,30,,,,2,0,2,0,,,,,,,,,0,0,0,0,0,4,4,4,1,0,1,0,,,,,,,,,,,,,,,,,,,,,,,,,,,,,,,,,,,,,,,,,,,,,,,,,,,,,,,,,,,,,,,,30,,,,,,,,1587.0194454002194,1587.0194454002194,1587.0194454002194,1587.0194454002194,1587.0194454002194,return,1.3772039995528758,1,1,0,0,-0.08,0.16,return,1.2982748998329043,0,13,-0.08,0.16,,,,,,,,,,,,,,,,,,,,,,,,,,,,,,,,,,,,,,,,,,,,,,,,,,,,,,,,CCN3FA,train_x,blue_star,top_left,2025-05-05_15h10.15.457,HideSeek_v1,2022.2.5,59.60598056795264,
,0,5,4,5,4,0,21,,train_dim1_1,6,30,,,,2,0,2,0,,,,,,,,,0,0,0,0,0,5,5,5,0,0,0,0,,,,,,,,,,,,,,,,,,,,,,,,,stimuli/alien_stimuli/21.png,,,,,,,,,,,,,,,,,,,,,,,,,,,,,stimuli/alien_stimuli/61.png,61,0,7,,,,,,,30,,,,,,,,1594.1454401002266,1594.1454401002266,1594.1454401002266,1594.1454401002266,1594.1454401002266,right,2.640485799871385,1,1,0,99,-0.08,0,right,2.5223556999117136,,,,,1592.56039889995,1594.1454401002266,-0.16,0.16,0.0,0.0,0.16,-0.16,-0.16,-0.16,0.16,1589.962043300271,1589.962043300271,1589.962043300271,1589.962043300271,1589.962043300271,1589.962043300271,1589.962043300271,1589.962043300271,1589.9416969201527,2.704243500251323,return,2.5678058001212776,,,,,,,,,,,,,,,,,,,,,,,,,,,,,,,,,CCN3FA,train_x,blue_star,top_left,2025-05-05_15h10.15.457,HideSeek_v1,2022.2.5,59.60598056795264,
,0,5,4,5,4,0,21,,train_dim1_1,6,30,,,,2,0,2,0,,,,,,,,,0,0,0,0,0,5,5,5,1,0,1,0,,,,,,,,,,,,,,,,,,,,,,,,,,,,,,,,,,,,,,,,,,,,,,,,,,,,,,,,,,,,,,,,30,,,,,,,,1596.765593400225,1596.765593400225,1596.765593400225,1596.765593400225,1596.765593400225,right,1.0934979999437928,1,1,0,99,0.0,0,right,1.011132000014186,,,,,,,,,,,,,,,,,,,,,,,,,,,,,,,,,,,,,,,,,,,,,,,,,,,,,,,,,,,,CCN3FA,train_x,blue_star,top_left,2025-05-05_15h10.15.457,HideSeek_v1,2022.2.5,59.60598056795264,
,0,5,4,5,4,0,21,,train_dim1_1,6,30,,,,2,0,2,0,,,,,,,,,0,0,0,0,0,5,5,5,2,0,2,0,,,,,,,,,,,,,,,,,,,,,,,,,,,,,,,,,,,,,,,,,,,,,,,,,,,,,,,,,,,,,,,,30,,,,,,,,1597.8661956000142,1597.8661956000142,1597.8661956000142,1597.8661956000142,1597.8661956000142,right,1.0605509001761675,1,1,0,99,0.08,0,right,0.9804790001362562,,,,,,,,,,,,,,,,,,,,,,,,,,,,,,,,,,,,,,,,,,,,,,,,,,,,,,,,,,,,CCN3FA,train_x,blue_star,top_left,2025-05-05_15h10.15.457,HideSeek_v1,2022.2.5,59.60598056795264,
,0,5,4,5,4,0,21,,train_dim1_1,6,30,,,,2,0,2,0,,,,,,,,,0,0,0,0,0,5,5,5,3,0,3,0,,,,,,,,,,,,,,,,,,,,,,,,,,,,,,,,,,,,,,,,,,,,,,,,,,,,,,,,,,,,,,,,30,,,,,,,,1598.9332559001632,1598.9332559001632,1598.9332559001632,1598.9332559001632,1598.9332559001632,right,1.0771594997495413,1,1,0,99,0.16,0,right,0.9935548002831638,,,,,,,,,,,,,,,,,,,,,,,,,,,,,,,,,,,,,,,,,,,,,,,,,,,,,,,,,,,,CCN3FA,train_x,blue_star,top_left,2025-05-05_15h10.15.457,HideSeek_v1,2022.2.5,59.60598056795264,
,0,5,4,5,4,0,21,,train_dim1_1,6,30,,,,2,0,2,0,,,,,,,,,0,0,0,0,0,5,5,5,4,0,4,0,,,,,,,,,,,,,,,,,,,,,,,,,,,,,,,,,,,,,,,,,,,,,,,,,,,,,,,,,,,,,,,,30,,,,,,,,1600.01791090006,1600.01791090006,1600.01791090006,1600.01791090006,1600.01791090006,return,1.5443762000650167,2,0,0,1,0.16,0,return,1.4547282997518778,0,17,0.16,0,,,,,,,,,,,,,,,,,,,,,,,,,,,,,,,,,,,,,,,,,,,,,,,,,,,,,,,,CCN3FA,train_x,blue_star,top_left,2025-05-05_15h10.15.457,HideSeek_v1,2022.2.5,59.60598056795264,
,3,5,3,5,0,0,61,,train_dim1_1,7,30,,,,2,0,2,0,,,,,,,,,0,0,0,0,0,6,6,6,0,0,0,0,,,,,,,,,,,,,,,,,,,,,,,,,stimuli/alien_stimuli/61.png,,,,,,,,,,,,,,,,,,,,,,,,,,,,,stimuli/alien_stimuli/21.png,21,0,8,,,,,,,30,,,,,,,,1607.2998637002893,1607.2998637002893,1607.2998637002893,1607.2998637002893,1607.2998637002893,return,3.2247807001695037,3,0,0,1,0.08,0,return,3.1138814999721944,0,17,0.08,0,1605.7213833001442,1607.2998637002893,0.16,0,0.0,0.32,0.0,0.16,0.0,0.16,0,1603.1295600002632,1603.1295600002632,1603.1295600002632,1603.1295600002632,1603.1295600002632,1603.1295600002632,1603.1295600002632,1603.1295600002632,1603.119367440138,2.704310499597341,return,2.5625039003789425,,,,,,,,,,,,,,,,,,,,,,,,,,,,,,,,,CCN3FA,train_x,blue_star,top_left,2025-05-05_15h10.15.457,HideSeek_v1,2022.2.5,59.60598056795264,
,0,9,3,9,3,0,31,,train_dim1_1,8,30,,,,2,0,2,0,,,,,,,,,0,0,0,0,0,7,7,7,0,0,0,0,,,,,,,,,,,,,,,,,,,,,,,,,stimuli/alien_stimuli/31.png,,,,,,,,,,,,,,,,,,,,,,,,,,,,,stimuli/alien_stimuli/61.png,61,3,9,,,,,,,30,,,,,,,,1615.2829030998982,1615.2829030998982,1615.2829030998982,1615.2829030998982,1615.2829030998982,right,2.274405899923295,3,0,0,99,-0.08,0.32,right,2.171550499740988,,,,,1613.711277199909,1615.2829030998982,0.08,0,0.0,0.0,0.0,0.08,0.08,0.08,0,1612.0628315000795,1612.0628315000795,1612.0628315000795,1612.0628315000795,1612.0628315000795,1612.0628315000795,1612.0628315000795,1612.0628315000795,1612.0433692202903,1.753449599724263,return,1.6312525998800993,,,,,,,,,,,,,,,,,,,,,,,,,,,,,,,,,CCN3FA,train_x,blue_star,top_left,2025-05-05_15h10.15.457,HideSeek_v1,2022.2.5,59.60598056795264,
,0,9,3,9,3,0,31,,train_dim1_1,8,30,,,,2,0,2,0,,,,,,,,,0,0,0,0,0,7,7,7,1,0,1,0,,,,,,,,,,,,,,,,,,,,,,,,,,,,,,,,,,,,,,,,,,,,,,,,,,,,,,,,,,,,,,,,30,,,,,,,,1617.5449630003422,1617.5449630003422,1617.5449630003422,1617.5449630003422,1617.5449630003422,right,0.7766436003148556,3,0,0,99,0.0,0.32,right,0.7044769995845854,,,,,,,,,,,,,,,,,,,,,,,,,,,,,,,,,,,,,,,,,,,,,,,,,,,,,,,,,,,,CCN3FA,train_x,blue_star,top_left,2025-05-05_15h10.15.457,HideSeek_v1,2022.2.5,59.60598056795264,
,0,9,3,9,3,0,31,,train_dim1_1,8,30,,,,2,0,2,0,,,,,,,,,0,0,0,0,0,7,7,7,2,0,2,0,,,,,,,,,,,,,,,,,,,,,,,,,,,,,,,,,,,,,,,,,,,,,,,,,,,,,,,,,,,,,,,,30,,,,,,,,1618.328956299927,1618.328956299927,1618.328956299927,1618.328956299927,1618.328956299927,right,0.8264930001460016,3,0,0,99,0.08,0.32,right,0.7452200995758176,,,,,,,,,,,,,,,,,,,,,,,,,,,,,,,,,,,,,,,,,,,,,,,,,,,,,,,,,,,,CCN3FA,train_x,blue_star,top_left,2025-05-05_15h10.15.457,HideSeek_v1,2022.2.5,59.60598056795264,
,0,9,3,9,3,0,31,,train_dim1_1,8,30,,,,2,0,2,0,,,,,,,,,0,0,0,0,0,7,7,7,3,0,3,0,,,,,,,,,,,,,,,,,,,,,,,,,,,,,,,,,,,,,,,,,,,,,,,,,,,,,,,,,,,,,,,,30,,,,,,,,1619.1624747999012,1619.1624747999012,1619.1624747999012,1619.1624747999012,1619.1624747999012,return,1.0274033998139203,4,0,0,1,0.08,0.32,return,0.9485034001991153,0,20,0.08,0.32,,,,,,,,,,,,,,,,,,,,,,,,,,,,,,,,,,,,,,,,,,,,,,,,,,,,,,,,CCN3FA,train_x,blue_star,top_left,2025-05-05_15h10.15.457,HideSeek_v1,2022.2.5,59.60598056795264,
,1,5,2,5,1,0,51,,train_dim1_1,9,30,,,,2,0,2,0,,,,,,,,,0,0,0,0,0,8,8,8,0,0,0,0,,,,,,,,,,,,,,,,,,,,,,,,,stimuli/alien_stimuli/51.png,,,,,,,,,,,,,,,,,,,,,,,,,,,,,stimuli/alien_stimuli/31.png,31,0,10,,,,,,,30,,,,,,,,1624.6262079002336,1624.6262079002336,1624.6262079002336,1624.6262079002336,1624.6262079002336,right,2.2240666998550296,4,0,0,99,0.0,0,right,2.121207999996841,,,,,1623.0525831999257,1624.6262079002336,0.08,0.32,0.0,0.24,0.32,0.08,-0.04,0.08,0.32,1621.7523020999506,1621.7523020999506,1621.7523020999506,1621.7523020999506,1621.7523020999506,1621.7523020999506,1621.7523020999506,1621.7523020999506,1621.7347619200125,1.403457900043577,return,1.279888499993831,,,,,,,,,,,,,,,,,,,,,,,,,,,,,,,,,CCN3FA,train_x,blue_star,top_left,2025-05-05_15h10.15.457,HideSeek_v1,2022.2.5,59.60598056795264,
,1,5,2,5,1,0,51,,train_dim1_1,9,30,,,,2,0,2,0,,,,,,,,,0,0,0,0,0,8,8,8,1,0,1,0,,,,,,,,,,,,,,,,,,,,,,,,,,,,,,,,,,,,,,,,,,,,,,,,,,,,,,,,,,,,,,,,30,,,,,,,,1626.8395731002092,1626.8395731002092,1626.8395731002092,1626.8395731002092,1626.8395731002092,return,1.0763751999475062,5,0,0,1,0.0,0,return,0.991026199888438,0,21,0.0,0,,,,,,,,,,,,,,,,,,,,,,,,,,,,,,,,,,,,,,,,,,,,,,,,,,,,,,,,CCN3FA,train_x,blue_star,top_left,2025-05-05_15h10.15.457,HideSeek_v1,2022.2.5,59.60598056795264,
,0,8,5,8,5,0,11,,train_dim1_1,10,30,,,,2,0,2,0,,,,,,,,,0,0,0,0,0,9,9,9,0,0,0,0,,,,,,,,,,,,,,,,,,,,,,,,,stimuli/alien_stimuli/11.png,,,,,,,,,,,,,,,,,,,,,,,,,,,,,stimuli/alien_stimuli/51.png,51,1,11,,,,,,,30,,,,,,,,1632.2776251002215,1632.2776251002215,1632.2776251002215,1632.2776251002215,1632.2776251002215,right,1.7526966002769768,5,0,0,99,-0.08,0.24,right,1.6360905999317765,,,,,1630.6922007999383,1632.2776251002215,0,0,0.0,0.08,0.0,0,-0.04,0,0,1629.4810411003418,1629.4810411003418,1629.4810411003418,1629.4810411003418,1629.4810411003418,1629.4810411003418,1629.4810411003418,1629.4810411003418,1629.4745047398842,1.3203026996925473,return,1.1953096999786794,,,,,,,,,,,,,,,,,,,,,,,,,,,,,,,,,CCN3FA,train_x,blue_star,top_left,2025-05-05_15h10.15.457,HideSeek_v1,2022.2.5,59.60598056795264,
,0,8,5,8,5,0,11,,train_dim1_1,10,30,,,,2,0,2,0,,,,,,,,,0,0,0,0,0,9,9,9,1,0,1,0,,,,,,,,,,,,,,,,,,,,,,,,,,,,,,,,,,,,,,,,,,,,,,,,,,,,,,,,,,,,,,,,30,,,,,,,,1634.0126227000728,1634.0126227000728,1634.0126227000728,1634.0126227000728,1634.0126227000728,right,0.6599620999768376,5,0,0,99,0.0,0.24,right,0.5703683998435736,,,,,,,,,,,,,,,,,,,,,,,,,,,,,,,,,,,,,,,,,,,,,,,,,,,,,,,,,,,,CCN3FA,train_x,blue_star,top_left,2025-05-05_15h10.15.457,HideSeek_v1,2022.2.5,59.60598056795264,
,0,8,5,8,5,0,11,,train_dim1_1,10,30,,,,2,0,2,0,,,,,,,,,0,0,0,0,0,9,9,9,2,0,2,0,,,,,,,,,,,,,,,,,,,,,,,,,,,,,,,,,,,,,,,,,,,,,,,,,,,,,,,,,,,,,,,,30,,,,,,,,1634.6799320001155,1634.6799320001155,1634.6799320001155,1634.6799320001155,1634.6799320001155,right,0.6099056997336447,5,0,0,99,0.08,0.24,right,0.5169915999285877,,,,,,,,,,,,,,,,,,,,,,,,,,,,,,,,,,,,,,,,,,,,,,,,,,,,,,,,,,,,CCN3FA,train_x,blue_star,top_left,2025-05-05_15h10.15.457,HideSeek_v1,2022.2.5,59.60598056795264,
,0,8,5,8,5,0,11,,train_dim1_1,10,30,,,,2,0,2,0,,,,,,,,,0,0,0,0,0,9,9,9,3,0,3,0,,,,,,,,,,,,,,,,,,,,,,,,,,,,,,,,,,,,,,,,,,,,,,,,,,,,,,,,,,,,,,,,30,,,,,,,,1635.2969357999973,1635.2969357999973,1635.2969357999973,1635.2969357999973,1635.2969357999973,right,0.6101742996834219,5,0,0,99,0.16,0.24,right,0.525898499879986,,,,,,,,,,,,,,,,,,,,,,,,,,,,,,,,,,,,,,,,,,,,,,,,,,,,,,,,,,,,CCN3FA,train_x,blue_star,top_left,2025-05-05_15h10.15.457,HideSeek_v1,2022.2.5,59.60598056795264,
,0,8,5,8,5,0,11,,train_dim1_1,10,30,,,,2,0,2,0,,,,,,,,,0,0,0,0,0,9,9,9,4,0,4,0,,,,,,,,,,,,,,,,,,,,,,,,,,,,,,,,,,,,,,,,,,,,,,,,,,,,,,,,,,,,,,,,30,,,,,,,,1635.9137742002495,1635.9137742002495,1635.9137742002495,1635.9137742002495,1635.9137742002495,return,2.2115617999807,5,1,0,0,0.16,0.24,return,2.1344682001508772,0,25,0.16,0.24,,,,,,,,,,,,,,,,,,,,,,,,,,,,,,,,,,,,,,,,,,,,,,,,,,,,,,,,CCN3FA,train_x,blue_star,top_left,2025-05-05_15h10.15.457,HideSeek_v1,2022.2.5,59.60598056795264,
,2,7,5,7,3,0,31,,train_dim1_1,11,30,,,,2,0,2,0,,,,,,,,,0,0,0,0,0,10,10,10,0,0,0,0,,,,,,,,,,,,,,,,,,,,,,,,,stimuli/alien_stimuli/31.png,,,,,,,,,,,,,,,,,,,,,,,,,,,,,stimuli/alien_stimuli/11.png,11,0,12,,,,,,,30,,,,,,,,1642.893006700091,1642.893006700091,1642.893006700091,1642.893006700091,1642.893006700091,right,1.5890279999002814,5,1,0,99,0.08,0.16,right,1.481651599984616,,,,,1641.3175405999646,1642.893006700091,0.24,0.24,0.0,0.4,0.24,0.24,0.039999999999999994,0.24,0.24,1639.690024500247,1639.690024500247,1639.690024500247,1639.690024500247,1639.690024500247,1639.690024500247,1639.690024500247,1639.690024500247,1639.6828855400904,1.7373135997913778,return,1.6026226002722979,,,,,,,,,,,,,,,,,,,,,,,,,,,,,,,,,CCN3FA,train_x,blue_star,top_left,2025-05-05_15h10.15.457,HideSeek_v1,2022.2.5,59.60598056795264,
,2,7,5,7,3,0,31,,train_dim1_1,11,30,,,,2,0,2,0,,,,,,,,,0,0,0,0,0,10,10,10,1,0,1,0,,,,,,,,,,,,,,,,,,,,,,,,,,,,,,,,,,,,,,,,,,,,,,,,,,,,,,,,,,,,,,,,30,,,,,,,,1644.468160700053,1644.468160700053,1644.468160700053,1644.468160700053,1644.468160700053,right,0.5931396000087261,5,1,0,99,0.16,0.16,right,0.504774899687618,,,,,,,,,,,,,,,,,,,,,,,,,,,,,,,,,,,,,,,,,,,,,,,,,,,,,,,,,,,,CCN3FA,train_x,blue_star,top_left,2025-05-05_15h10.15.457,HideSeek_v1,2022.2.5,59.60598056795264,
,2,7,5,7,3,0,31,,train_dim1_1,11,30,,,,2,0,2,0,,,,,,,,,0,0,0,0,0,10,10,10,2,0,2,0,,,,,,,,,,,,,,,,,,,,,,,,,,,,,,,,,,,,,,,,,,,,,,,,,,,,,,,,,,,,,,,,30,,,,,,,,1645.0676220003515,1645.0676220003515,1645.0676220003515,1645.0676220003515,1645.0676220003515,right,1.2437283000908792,5,1,0,99,0.24,0.16,right,1.1583523000590503,,,,,,,,,,,,,,,,,,,,,,,,,,,,,,,,,,,,,,,,,,,,,,,,,,,,,,,,,,,,CCN3FA,train_x,blue_star,top_left,2025-05-05_15h10.15.457,HideSeek_v1,2022.2.5,59.60598056795264,
,2,7,5,7,3,0,31,,train_dim1_1,11,30,,,,2,0,2,0,,,,,,,,,0,0,0,0,0,10,10,10,3,0,3,0,,,,,,,,,,,,,,,,,,,,,,,,,,,,,,,,,,,,,,,,,,,,,,,,,,,,,,,,,,,,,,,,30,,,,,,,,1646.3182524000295,1646.3182524000295,1646.3182524000295,1646.3182524000295,1646.3182524000295,right,0.1763827996328473,5,1,0,99,0.32,0.16,right,0.09592430014163256,,,,,,,,,,,,,,,,,,,,,,,,,,,,,,,,,,,,,,,,,,,,,,,,,,,,,,,,,,,,CCN3FA,train_x,blue_star,top_left,2025-05-05_15h10.15.457,HideSeek_v1,2022.2.5,59.60598056795264,
,2,7,5,7,3,0,31,,train_dim1_1,11,30,,,,2,0,2,0,,,,,,,,,0,0,0,0,0,10,10,10,4,0,4,0,,,,,,,,,,,,,,,,,,,,,,,,,,,,,,,,,,,,,,,,,,,,,,,,,,,,,,,,,,,,,,,,30,,,,,,,,1646.5014869002625,1646.5014869002625,1646.5014869002625,1646.5014869002625,1646.5014869002625,left,1.7611996000632644,5,1,0,99,0.24,0.16,left,1.686317099723965,,,,,,,,,,,,,,,,,,,,,,,,,,,,,,,,,,,,,,,,,,,,,,,,,,,,,,,,,,,,CCN3FA,train_x,blue_star,top_left,2025-05-05_15h10.15.457,HideSeek_v1,2022.2.5,59.60598056795264,
,2,7,5,7,3,0,31,,train_dim1_1,11,30,,,,2,0,2,0,,,,,,,,,0,0,0,0,0,10,10,10,5,0,5,0,,,,,,,,,,,,,,,,,,,,,,,,,,,,,,,,,,,,,,,,,,,,,,,,,,,,,,,,,,,,,,,,30,,,,,,,,1648.270157800056,1648.270157800056,1648.270157800056,1648.270157800056,1648.270157800056,return,1.544266799930483,6,0,0,1,0.24,0.16,return,1.466007400304079,0,28,0.24,0.16,,,,,,,,,,,,,,,,,,,,,,,,,,,,,,,,,,,,,,,,,,,,,,,,,,,,,,,,CCN3FA,train_x,blue_star,top_left,2025-05-05_15h10.15.457,HideSeek_v1,2022.2.5,59.60598056795264,
,0,5,4,5,4,0,21,,train_dim1_1,12,30,,,,2,0,2,0,,,,,,,,,0,0,0,0,0,11,11,11,0,0,0,0,,,,,,,,,,,,,,,,,,,,,,,,,stimuli/alien_stimuli/21.png,,,,,,,,,,,,,,,,,,,,,,,,,,,,,stimuli/alien_stimuli/31.png,31,2,13,,,,,,,30,,,,,,,,1654.3176931999624,1654.3176931999624,1654.3176931999624,1654.3176931999624,1654.3176931999624,right,2.3239543000236154,6,0,0,99,-0.08,0,right,2.2137424000538886,,,,,1652.7437770003453,1654.3176931999624,0.24,0.16,0.0,0.24,0.16,0.24,0.12,0.24,0.16,1651.393181399908,1651.393181399908,1651.393181399908,1651.393181399908,1651.393181399908,1651.393181399908,1651.393181399908,1651.393181399908,1651.3759326403028,1.4701082999818027,return,1.3345834999345243,,,,,,,,,,,,,,,,,,,,,,,,,,,,,,,,,CCN3FA,train_x,blue_star,top_left,2025-05-05_15h10.15.457,HideSeek_v1,2022.2.5,59.60598056795264,
,0,5,4,5,4,0,21,,train_dim1_1,12,30,,,,2,0,2,0,,,,,,,,,0,0,0,0,0,11,11,11,1,0,1,0,,,,,,,,,,,,,,,,,,,,,,,,,,,,,,,,,,,,,,,,,,,,,,,,,,,,,,,,,,,,,,,,30,,,,,,,,1656.631441200152,1656.631441200152,1656.631441200152,1656.631441200152,1656.631441200152,right,0.6431725001893938,6,0,0,99,0.0,0,right,0.5628455998376012,,,,,,,,,,,,,,,,,,,,,,,,,,,,,,,,,,,,,,,,,,,,,,,,,,,,,,,,,,,,CCN3FA,train_x,blue_star,top_left,2025-05-05_15h10.15.457,HideSeek_v1,2022.2.5,59.60598056795264,
,0,5,4,5,4,0,21,,train_dim1_1,12,30,,,,2,0,2,0,,,,,,,,,0,0,0,0,0,11,11,11,2,0,2,0,,,,,,,,,,,,,,,,,,,,,,,,,,,,,,,,,,,,,,,,,,,,,,,,,,,,,,,,,,,,,,,,30,,,,,,,,1657.2812022003345,1657.2812022003345,1657.2812022003345,1657.2812022003345,1657.2812022003345,right,0.7939713997766376,6,0,0,99,0.08,0,right,0.7072041998617351,,,,,,,,,,,,,,,,,,,,,,,,,,,,,,,,,,,,,,,,,,,,,,,,,,,,,,,,,,,,CCN3FA,train_x,blue_star,top_left,2025-05-05_15h10.15.457,HideSeek_v1,2022.2.5,59.60598056795264,
,0,5,4,5,4,0,21,,train_dim1_1,12,30,,,,2,0,2,0,,,,,,,,,0,0,0,0,0,11,11,11,3,0,3,0,,,,,,,,,,,,,,,,,,,,,,,,,,,,,,,,,,,,,,,,,,,,,,,,,,,,,,,,,,,,,,,,30,,,,,,,,1658.0818103002384,1658.0818103002384,1658.0818103002384,1658.0818103002384,1658.0818103002384,right,5.146788400132209,6,0,0,99,0.16,0,right,5.0702212997712195,,,,,,,,,,,,,,,,,,,,,,,,,,,,,,,,,,,,,,,,,,,,,,,,,,,,,,,,,,,,CCN3FA,train_x,blue_star,top_left,2025-05-05_15h10.15.457,HideSeek_v1,2022.2.5,59.60598056795264,
,0,5,4,5,4,0,21,,train_dim1_1,12,30,,,,2,0,2,0,,,,,,,,,0,0,0,0,0,11,11,11,4,0,4,0,,,,,,,,,,,,,,,,,,,,,,,,,,,,,,,,,,,,,,,,,,,,,,,,,,,,,,,,,,,,,,,,30,,,,,,,,1663.2373092002235,1663.2373092002235,1663.2373092002235,1663.2373092002235,1663.2373092002235,return,0.9602574999444187,7,0,0,1,0.16,0,return,0.8809781996533275,0,32,0.16,0,,,,,,,,,,,,,,,,,,,,,,,,,,,,,,,,,,,,,,,,,,,,,,,,,,,,,,,,CCN3FA,train_x,blue_star,top_left,2025-05-05_15h10.15.457,HideSeek_v1,2022.2.5,59.60598056795264,
,0,9,1,9,1,0,51,,train_dim1_1,13,30,,,,2,0,2,0,,,,,,,,,0,0,0,0,0,12,12,12,0,0,0,0,,,,,,,,,,,,,,,,,,,,,,,,,stimuli/alien_stimuli/51.png,,,,,,,,,,,,,,,,,,,,,,,,,,,,,stimuli/alien_stimuli/21.png,21,0,14,,,,,,,30,,,,,,,,1668.5920301000588,1668.5920301000588,1668.5920301000588,1668.5920301000588,1668.5920301000588,right,4.291236800141633,7,0,0,99,-0.08,0.32,right,4.20084790000692,,,,,1667.0223836000077,1668.5920301000588,0.16,0,0.0,0.32,0.0,0.16,0.0,0.16,0,1665.7848249999806,1665.7848249999806,1665.7848249999806,1665.7848249999806,1665.7848249999806,1665.7848249999806,1665.7848249999806,1665.7848249999806,1665.771243560221,1.370128400158137,return,1.2059277999214828,,,,,,,,,,,,,,,,,,,,,,,,,,,,,,,,,CCN3FA,train_x,blue_star,top_left,2025-05-05_15h10.15.457,HideSeek_v1,2022.2.5,59.60598056795264,
,0,9,1,9,1,0,51,,train_dim1_1,13,30,,,,2,0,2,0,,,,,,,,,0,0,0,0,0,12,12,12,1,0,1,0,,,,,,,,,,,,,,,,,,,,,,,,,,,,,,,,,,,,,,,,,,,,,,,,,,,,,,,,,,,,,,,,30,,,,,,,,1672.8772265999578,1672.8772265999578,1672.8772265999578,1672.8772265999578,1672.8772265999578,return,0.9098853999748826,8,0,0,1,-0.08,0.32,return,0.8274154998362064,0,33,-0.08,0.32,,,,,,,,,,,,,,,,,,,,,,,,,,,,,,,,,,,,,,,,,,,,,,,,,,,,,,,,CCN3FA,train_x,blue_star,top_left,2025-05-05_15h10.15.457,HideSeek_v1,2022.2.5,59.60598056795264,
,4,8,9,8,5,0,11,,train_dim1_1,14,30,,,,2,0,2,0,,,,,,,,,0,0,0,0,0,13,13,13,0,0,0,0,,,,,,,,,,,,,,,,,,,,,,,,,stimuli/alien_stimuli/11.png,,,,,,,,,,,,,,,,,,,,,,,,,,,,,stimuli/alien_stimuli/51.png,51,0,15,,,,,,,30,,,,,,,,1677.997970300261,1677.997970300261,1677.997970300261,1677.997970300261,1677.997970300261,right,1.4884212999604642,8,0,0,99,0.24,0.24,right,1.3889182000420988,,,,,1676.43018939998,1677.997970300261,-0.08,0.32,0.0,0.08,0.32,-0.08,-0.12,-0.08,0.32,1675.3527798000723,1675.3527798000723,1675.3527798000723,1675.3527798000723,1675.3527798000723,1675.3527798000723,1675.3527798000723,1675.3527798000723,1675.3458993401377,1.1864604000002146,return,1.0468280999921262,,,,,,,,,,,,,,,,,,,,,,,,,,,,,,,,,CCN3FA,train_x,blue_star,top_left,2025-05-05_15h10.15.457,HideSeek_v1,2022.2.5,59.60598056795264,
,4,8,9,8,5,0,11,,train_dim1_1,14,30,,,,2,0,2,0,,,,,,,,,0,0,0,0,0,13,13,13,1,0,1,0,,,,,,,,,,,,,,,,,,,,,,,,,,,,,,,,,,,,,,,,,,,,,,,,,,,,,,,,,,,,,,,,30,,,,,,,,1679.4838176001795,1679.4838176001795,1679.4838176001795,1679.4838176001795,1679.4838176001795,right,0.609617100097239,8,0,0,99,0.32,0.24,right,0.525672699790448,,,,,,,,,,,,,,,,,,,,,,,,,,,,,,,,,,,,,,,,,,,,,,,,,,,,,,,,,,,,CCN3FA,train_x,blue_star,top_left,2025-05-05_15h10.15.457,HideSeek_v1,2022.2.5,59.60598056795264,
,4,8,9,8,5,0,11,,train_dim1_1,14,30,,,,2,0,2,0,,,,,,,,,0,0,0,0,0,13,13,13,2,0,2,0,,,,,,,,,,,,,,,,,,,,,,,,,,,,,,,,,,,,,,,,,,,,,,,,,,,,,,,,,,,,,,,,30,,,,,,,,1680.1004647002555,1680.1004647002555,1680.1004647002555,1680.1004647002555,1680.1004647002555,right,0.6270347000099719,8,0,0,99,0.4,0.24,right,0.5423914999701083,,,,,,,,,,,,,,,,,,,,,,,,,,,,,,,,,,,,,,,,,,,,,,,,,,,,,,,,,,,,CCN3FA,train_x,blue_star,top_left,2025-05-05_15h10.15.457,HideSeek_v1,2022.2.5,59.60598056795264,
,4,8,9,8,5,0,11,,train_dim1_1,14,30,,,,2,0,2,0,,,,,,,,,0,0,0,0,0,13,13,13,3,0,3,0,,,,,,,,,,,,,,,,,,,,,,,,,,,,,,,,,,,,,,,,,,,,,,,,,,,,,,,,,,,,,,,,30,,,,,,,,1680.734633100219,1680.734633100219,1680.734633100219,1680.734633100219,1680.734633100219,right,0.6935582999140024,8,0,0,99,0.48000000000000004,0.24,right,0.6130097997374833,,,,,,,,,,,,,,,,,,,,,,,,,,,,,,,,,,,,,,,,,,,,,,,,,,,,,,,,,,,,CCN3FA,train_x,blue_star,top_left,2025-05-05_15h10.15.457,HideSeek_v1,2022.2.5,59.60598056795264,
,4,8,9,8,5,0,11,,train_dim1_1,14,30,,,,2,0,2,0,,,,,,,,,0,0,0,0,0,13,13,13,4,0,4,0,,,,,,,,,,,,,,,,,,,,,,,,,,,,,,,,,,,,,,,,,,,,,,,,,,,,,,,,,,,,,,,,30,,,,,,,,1681.43461270025,1681.43461270025,1681.43461270025,1681.43461270025,1681.43461270025,right,0.5934417997486889,8,0,0,99,0.56,0.24,right,0.5093868002295494,,,,,,,,,,,,,,,,,,,,,,,,,,,,,,,,,,,,,,,,,,,,,,,,,,,,,,,,,,,,CCN3FA,train_x,blue_star,top_left,2025-05-05_15h10.15.457,HideSeek_v1,2022.2.5,59.60598056795264,
,4,8,9,8,5,0,11,,train_dim1_1,14,30,,,,2,0,2,0,,,,,,,,,0,0,0,0,0,13,13,13,5,0,5,0,,,,,,,,,,,,,,,,,,,,,,,,,,,,,,,,,,,,,,,,,,,,,,,,,,,,,,,,,,,,,,,,30,,,,,,,,1682.0357960001566,1682.0357960001566,1682.0357960001566,1682.0357960001566,1682.0357960001566,return,0.8103892998769879,9,0,0,1,0.56,0.24,return,0.7304091001860797,0,38,0.56,0.24,,,,,,,,,,,,,,,,,,,,,,,,,,,,,,,,,,,,,,,,,,,,,,,,,,,,,,,,CCN3FA,train_x,blue_star,top_left,2025-05-05_15h10.15.457,HideSeek_v1,2022.2.5,59.60598056795264,
,4,7,4,7,0,0,61,,train_dim1_1,15,30,,,,2,0,2,0,,,,,,,,,0,0,0,0,0,14,14,14,0,0,0,0,,,,,,,,,,,,,,,,,,,,,,,,,stimuli/alien_stimuli/61.png,,,,,,,,,,,,,,,,,,,,,,,,,,,,,stimuli/alien_stimuli/11.png,11,4,16,,,,,,,30,,,,,,,,1687.0926729002967,1687.0926729002967,1687.0926729002967,1687.0926729002967,1687.0926729002967,return,1.8736828998662531,10,0,0,1,0.16,0.16,return,1.7671994999982417,0,38,0.16,0.16,1685.5210510999896,1687.0926729002967,0.56,0.24,0.0,0.4,0.24,0.56,0.36000000000000004,0.56,0.24,1684.4100927002728,1684.4100927002728,1684.4100927002728,1684.4100927002728,1684.4100927002728,1684.4100927002728,1684.4100927002728,1684.4100927002728,1684.4035079399123,1.2199040995910764,return,1.0877842996269464,,,,,,,,,,,,,,,,,,,,,,,,,,,,,,,,,CCN3FA,train_x,blue_star,top_left,2025-05-05_15h10.15.457,HideSeek_v1,2022.2.5,59.60598056795264,
,3,8,4,8,1,0,51,,train_dim1_1,16,30,,,,2,0,2,0,,,,,,,,,0,0,0,0,0,15,15,15,0,0,0,0,,,,,,,,,,,,,,,,,,,,,,,,,stimuli/alien_stimuli/51.png,,,,,,,,,,,,,,,,,,,,,,,,,,,,,stimuli/alien_stimuli/61.png,61,4,17,,,,,,,30,,,,,,,,1693.4903911999427,1693.4903911999427,1693.4903911999427,1693.4903911999427,1693.4903911999427,right,1.3404986998066306,10,0,0,99,0.16,0.24,right,1.254191099666059,,,,,1691.9261708003469,1693.4903911999427,0.16,0.16,0.0,0.0,0.16,0.16,0.16,0.16,0.16,1690.5117291002534,1690.5117291002534,1690.5117291002534,1690.5117291002534,1690.5117291002534,1690.5117291002534,1690.5117291002534,1690.5117291002534,1690.4919817202724,1.520157900173217,return,1.3981628003530204,,,,,,,,,,,,,,,,,,,,,,,,,,,,,,,,,CCN3FA,train_x,blue_star,top_left,2025-05-05_15h10.15.457,HideSeek_v1,2022.2.5,59.60598056795264,
,3,8,4,8,1,0,51,,train_dim1_1,16,30,,,,2,0,2,0,,,,,,,,,0,0,0,0,0,15,15,15,1,0,1,0,,,,,,,,,,,,,,,,,,,,,,,,,,,,,,,,,,,,,,,,,,,,,,,,,,,,,,,,,,,,,,,,30,,,,,,,,1694.8279265002348,1694.8279265002348,1694.8279265002348,1694.8279265002348,1694.8279265002348,return,0.9932530000805855,11,0,0,1,0.16,0.24,return,0.9031243999488652,0,39,0.16,0.24,,,,,,,,,,,,,,,,,,,,,,,,,,,,,,,,,,,,,,,,,,,,,,,,,,,,,,,,CCN3FA,train_x,blue_star,top_left,2025-05-05_15h10.15.457,HideSeek_v1,2022.2.5,59.60598056795264,
,2,9,6,9,4,0,21,,train_dim1_1,17,30,,,,2,0,2,0,,,,,,,,,0,0,0,0,0,16,16,16,0,0,0,0,,,,,,,,,,,,,,,,,,,,,,,,,stimuli/alien_stimuli/21.png,,,,,,,,,,,,,,,,,,,,,,,,,,,,,stimuli/alien_stimuli/51.png,51,3,18,,,,,,,30,,,,,,,,1699.8319548000582,1699.8319548000582,1699.8319548000582,1699.8319548000582,1699.8319548000582,right,1.4864452998153865,11,0,0,99,0.08,0.32,right,1.4007916003465652,,,,,1698.264879300259,1699.8319548000582,0.16,0.24,0.0,0.08,0.24,0.16,0.12,0.16,0.24,1697.3855993002653,1697.3855993002653,1697.3855993002653,1697.3855993002653,1697.3855993002653,1697.3855993002653,1697.3855993002653,1697.3855993002653,1697.3640719202347,0.9863136000931263,return,0.857243400067091,,,,,,,,,,,,,,,,,,,,,,,,,,,,,,,,,CCN3FA,train_x,blue_star,top_left,2025-05-05_15h10.15.457,HideSeek_v1,2022.2.5,59.60598056795264,
,2,9,6,9,4,0,21,,train_dim1_1,17,30,,,,2,0,2,0,,,,,,,,,0,0,0,0,0,16,16,16,1,0,1,0,,,,,,,,,,,,,,,,,,,,,,,,,,,,,,,,,,,,,,,,,,,,,,,,,,,,,,,,,,,,,,,,30,,,,,,,,1701.318875099998,1701.318875099998,1701.318875099998,1701.318875099998,1701.318875099998,right,2.728037499822676,11,0,0,99,0.16,0.32,right,2.643714100122452,,,,,,,,,,,,,,,,,,,,,,,,,,,,,,,,,,,,,,,,,,,,,,,,,,,,,,,,,,,,CCN3FA,train_x,blue_star,top_left,2025-05-05_15h10.15.457,HideSeek_v1,2022.2.5,59.60598056795264,
,2,9,6,9,4,0,21,,train_dim1_1,17,30,,,,2,0,2,0,,,,,,,,,0,0,0,0,0,16,16,16,2,0,2,0,,,,,,,,,,,,,,,,,,,,,,,,,,,,,,,,,,,,,,,,,,,,,,,,,,,,,,,,,,,,,,,,30,,,,,,,,1704.0531751001254,1704.0531751001254,1704.0531751001254,1704.0531751001254,1704.0531751001254,right,2.11116289999336,11,0,0,99,0.24,0.32,right,2.027171100024134,,,,,,,,,,,,,,,,,,,,,,,,,,,,,,,,,,,,,,,,,,,,,,,,,,,,,,,,,,,,CCN3FA,train_x,blue_star,top_left,2025-05-05_15h10.15.457,HideSeek_v1,2022.2.5,59.60598056795264,
,2,9,6,9,4,0,21,,train_dim1_1,17,30,,,,2,0,2,0,,,,,,,,,0,0,0,0,0,16,16,16,3,0,3,0,,,,,,,,,,,,,,,,,,,,,,,,,,,,,,,,,,,,,,,,,,,,,,,,,,,,,,,,,,,,,,,,30,,,,,,,,1706.1712221000344,1706.1712221000344,1706.1712221000344,1706.1712221000344,1706.1712221000344,right,1.4108526003547013,11,0,0,99,0.32,0.32,right,1.3348751002922654,,,,,,,,,,,,,,,,,,,,,,,,,,,,,,,,,,,,,,,,,,,,,,,,,,,,,,,,,,,,CCN3FA,train_x,blue_star,top_left,2025-05-05_15h10.15.457,HideSeek_v1,2022.2.5,59.60598056795264,
,2,9,6,9,4,0,21,,train_dim1_1,17,30,,,,2,0,2,0,,,,,,,,,0,0,0,0,0,16,16,16,4,0,4,0,,,,,,,,,,,,,,,,,,,,,,,,,,,,,,,,,,,,,,,,,,,,,,,,,,,,,,,,,,,,,,,,30,,,,,,,,1707.5899360999465,1707.5899360999465,1707.5899360999465,1707.5899360999465,1707.5899360999465,return,1.1607458996586502,12,0,0,1,0.32,0.32,return,1.0841113002970815,0,43,0.32,0.32,,,,,,,,,,,,,,,,,,,,,,,,,,,,,,,,,,,,,,,,,,,,,,,,,,,,,,,,CCN3FA,train_x,blue_star,top_left,2025-05-05_15h10.15.457,HideSeek_v1,2022.2.5,59.60598056795264,
,2,6,2,6,0,0,61,,train_dim1_1,18,30,,,,2,0,2,0,,,,,,,,,0,0,0,0,0,17,17,17,0,0,0,0,,,,,,,,,,,,,,,,,,,,,,,,,stimuli/alien_stimuli/61.png,,,,,,,,,,,,,,,,,,,,,,,,,,,,,stimuli/alien_stimuli/21.png,21,2,19,,,,,,,30,,,,,,,,1713.5659270002507,1713.5659270002507,1713.5659270002507,1713.5659270002507,1713.5659270002507,return,2.074521299917251,13,0,0,1,0,0.08,return,1.9734157999046147,0,43,0,0.08,1711.993059300352,1713.5659270002507,0.32,0.32,0.0,0.32,0.32,0.32,0.16,0.32,0.32,1710.3155272002332,1710.3155272002332,1710.3155272002332,1710.3155272002332,1710.3155272002332,1710.3155272002332,1710.3155272002332,1710.3155272002332,1710.3084015402942,1.786900700069964,return,1.6508949999697506,,,,,,,,,,,,,,,,,,,,,,,,,,,,,,,,,CCN3FA,train_x,blue_star,top_left,2025-05-05_15h10.15.457,HideSeek_v1,2022.2.5,59.60598056795264,
,0,8,3,8,3,0,31,,train_dim1_1,19,30,,,,2,0,2,0,,,,,,,,,0,0,0,0,0,18,18,18,0,0,0,0,,,,,,,,,,,,,,,,,,,,,,,,,stimuli/alien_stimuli/31.png,,,,,,,,,,,,,,,,,,,,,,,,,,,,,stimuli/alien_stimuli/61.png,61,2,20,,,,,,,30,,,,,,,,1719.7749165003188,1719.7749165003188,1719.7749165003188,1719.7749165003188,1719.7749165003188,right,1.305261299945414,13,0,0,99,-0.08,0.24,right,1.2100064000114799,,,,,1718.2148878001608,1719.7749165003188,0,0.08,0.0,0.0,0.08,0,0.0,0,0.08,1717.1800005999394,1717.1800005999394,1717.1800005999394,1717.1800005999394,1717.1800005999394,1717.1800005999394,1717.1800005999394,1717.1800005999394,1717.1639318202622,1.1364335999824107,return,1.017908999696374,,,,,,,,,,,,,,,,,,,,,,,,,,,,,,,,,CCN3FA,train_x,blue_star,top_left,2025-05-05_15h10.15.457,HideSeek_v1,2022.2.5,59.60598056795264,
,0,8,3,8,3,0,31,,train_dim1_1,19,30,,,,2,0,2,0,,,,,,,,,0,0,0,0,0,18,18,18,1,0,1,0,,,,,,,,,,,,,,,,,,,,,,,,,,,,,,,,,,,,,,,,,,,,,,,,,,,,,,,,,,,,,,,,30,,,,,,,,1721.0808108001947,1721.0808108001947,1721.0808108001947,1721.0808108001947,1721.0808108001947,right,0.5598140000365674,13,0,0,99,0.0,0.24,right,0.47829779982566833,,,,,,,,,,,,,,,,,,,,,,,,,,,,,,,,,,,,,,,,,,,,,,,,,,,,,,,,,,,,CCN3FA,train_x,blue_star,top_left,2025-05-05_15h10.15.457,HideSeek_v1,2022.2.5,59.60598056795264,
,0,8,3,8,3,0,31,,train_dim1_1,19,30,,,,2,0,2,0,,,,,,,,,0,0,0,0,0,18,18,18,2,0,2,0,,,,,,,,,,,,,,,,,,,,,,,,,,,,,,,,,,,,,,,,,,,,,,,,,,,,,,,,,,,,,,,,30,,,,,,,,1721.647403900046,1721.647403900046,1721.647403900046,1721.647403900046,1721.647403900046,right,0.8937602997757494,13,0,0,99,0.08,0.24,right,0.8182269996032119,,,,,,,,,,,,,,,,,,,,,,,,,,,,,,,,,,,,,,,,,,,,,,,,,,,,,,,,,,,,CCN3FA,train_x,blue_star,top_left,2025-05-05_15h10.15.457,HideSeek_v1,2022.2.5,59.60598056795264,
,0,8,3,8,3,0,31,,train_dim1_1,19,30,,,,2,0,2,0,,,,,,,,,0,0,0,0,0,18,18,18,3,0,3,0,,,,,,,,,,,,,,,,,,,,,,,,,,,,,,,,,,,,,,,,,,,,,,,,,,,,,,,,,,,,,,,,30,,,,,,,,1722.5482103000395,1722.5482103000395,1722.5482103000395,1722.5482103000395,1722.5482103000395,return,2.4120969003997743,14,0,0,1,0.08,0.24,return,2.33868410019204,0,46,0.08,0.24,,,,,,,,,,,,,,,,,,,,,,,,,,,,,,,,,,,,,,,,,,,,,,,,,,,,,,,,CCN3FA,train_x,blue_star,top_left,2025-05-05_15h10.15.457,HideSeek_v1,2022.2.5,59.60598056795264,
,0,6,5,6,5,0,11,,train_dim1_1,20,30,,,,2,0,2,0,,,,,,,,,0,0,0,0,0,19,19,19,0,0,0,0,,,,,,,,,,,,,,,,,,,,,,,,,stimuli/alien_stimuli/11.png,,,,,,,,,,,,,,,,,,,,,,,,,,,,,stimuli/alien_stimuli/31.png,31,0,21,,,,,,,30,,,,,,,,1728.9485400998965,1728.9485400998965,1728.9485400998965,1728.9485400998965,1728.9485400998965,right,0.9547244999557734,14,0,0,99,-0.08,0.08,right,0.8562187999486923,,,,,1727.372547100298,1728.9485400998965,0.08,0.24,0.0,0.24,0.24,0.08,-0.04,0.08,0.24,1726.5242138002068,1726.5242138002068,1726.5242138002068,1726.5242138002068,1726.5242138002068,1726.5242138002068,1726.5242138002068,1726.5242138002068,1726.5051438200287,0.9531590002588928,return,0.8298309999518096,,,,,,,,,,,,,,,,,,,,,,,,,,,,,,,,,CCN3FA,train_x,blue_star,top_left,2025-05-05_15h10.15.457,HideSeek_v1,2022.2.5,59.60598056795264,
,0,6,5,6,5,0,11,,train_dim1_1,20,30,,,,2,0,2,0,,,,,,,,,0,0,0,0,0,19,19,19,1,0,1,0,,,,,,,,,,,,,,,,,,,,,,,,,,,,,,,,,,,,,,,,,,,,,,,,,,,,,,,,,,,,,,,,30,,,,,,,,1729.892115100287,1729.892115100287,1729.892115100287,1729.892115100287,1729.892115100287,right,0.49289509980008006,14,0,0,99,0.0,0.08,right,0.4169574002735317,,,,,,,,,,,,,,,,,,,,,,,,,,,,,,,,,,,,,,,,,,,,,,,,,,,,,,,,,,,,CCN3FA,train_x,blue_star,top_left,2025-05-05_15h10.15.457,HideSeek_v1,2022.2.5,59.60598056795264,
,0,6,5,6,5,0,11,,train_dim1_1,20,30,,,,2,0,2,0,,,,,,,,,0,0,0,0,0,19,19,19,2,0,2,0,,,,,,,,,,,,,,,,,,,,,,,,,,,,,,,,,,,,,,,,,,,,,,,,,,,,,,,,,,,,,,,,30,,,,,,,,1730.3918511001393,1730.3918511001393,1730.3918511001393,1730.3918511001393,1730.3918511001393,right,0.49337679985910654,14,0,0,99,0.08,0.08,right,0.41361270006746054,,,,,,,,,,,,,,,,,,,,,,,,,,,,,,,,,,,,,,,,,,,,,,,,,,,,,,,,,,,,CCN3FA,train_x,blue_star,top_left,2025-05-05_15h10.15.457,HideSeek_v1,2022.2.5,59.60598056795264,
,0,6,5,6,5,0,11,,train_dim1_1,20,30,,,,2,0,2,0,,,,,,,,,0,0,0,0,0,19,19,19,3,0,3,0,,,,,,,,,,,,,,,,,,,,,,,,,,,,,,,,,,,,,,,,,,,,,,,,,,,,,,,,,,,,,,,,30,,,,,,,,1730.8924444001168,1730.8924444001168,1730.8924444001168,1730.8924444001168,1730.8924444001168,right,0.5601092004217207,14,0,0,99,0.16,0.08,right,0.47163650020956993,,,,,,,,,,,,,,,,,,,,,,,,,,,,,,,,,,,,,,,,,,,,,,,,,,,,,,,,,,,,CCN3FA,train_x,blue_star,top_left,2025-05-05_15h10.15.457,HideSeek_v1,2022.2.5,59.60598056795264,
,0,6,5,6,5,0,11,,train_dim1_1,20,30,,,,2,0,2,0,,,,,,,,,0,0,0,0,0,19,19,19,4,0,4,0,,,,,,,,,,,,,,,,,,,,,,,,,,,,,,,,,,,,,,,,,,,,,,,,,,,,,,,,,,,,,,,,30,,,,,,,,1731.4596266001463,1731.4596266001463,1731.4596266001463,1731.4596266001463,1731.4596266001463,right,0.743561000097543,14,0,0,99,0.24,0.08,right,0.6619669003412127,,,,,,,,,,,,,,,,,,,,,,,,,,,,,,,,,,,,,,,,,,,,,,,,,,,,,,,,,,,,CCN3FA,train_x,blue_star,top_left,2025-05-05_15h10.15.457,HideSeek_v1,2022.2.5,59.60598056795264,
,0,6,5,6,5,0,11,,train_dim1_1,20,30,,,,2,0,2,0,,,,,,,,,0,0,0,0,0,19,19,19,5,0,5,0,,,,,,,,,,,,,,,,,,,,,,,,,,,,,,,,,,,,,,,,,,,,,,,,,,,,,,,,,,,,,,,,30,,,,,,,,1732.2100355001166,1732.2100355001166,1732.2100355001166,1732.2100355001166,1732.2100355001166,return,3.7795155001804233,15,0,0,1,0.24,0.08,return,3.6940188999287784,0,51,0.24,0.08,,,,,,,,,,,,,,,,,,,,,,,,,,,,,,,,,,,,,,,,,,,,,,,,,,,,,,,,CCN3FA,train_x,blue_star,top_left,2025-05-05_15h10.15.457,HideSeek_v1,2022.2.5,59.60598056795264,
,4,7,7,7,3,0,31,,train_dim1_1,21,30,,,,2,0,2,0,,,,,,,,,0,0,0,0,0,20,20,20,0,0,0,0,,,,,,,,,,,,,,,,,,,,,,,,,stimuli/alien_stimuli/31.png,,,,,,,,,,,,,,,,,,,,,,,,,,,,,stimuli/alien_stimuli/11.png,11,0,22,,,,,,,30,,,,,,,,1740.2330885999836,1740.2330885999836,1740.2330885999836,1740.2330885999836,1740.2330885999836,right,1.5073031997308135,15,0,0,99,0.24,0.16,right,1.4137244997546077,,,,,1738.66520530032,1740.2330885999836,0.24,0.08,0.0,0.4,0.08,0.24,0.039999999999999994,0.24,0.08,1737.5721280002035,1737.5721280002035,1737.5721280002035,1737.5721280002035,1737.5721280002035,1737.5721280002035,1737.5721280002035,1737.5721280002035,1737.564303659927,1.2197741996496916,return,1.0633800998330116,,,,,,,,,,,,,,,,,,,,,,,,,,,,,,,,,CCN3FA,train_x,blue_star,top_left,2025-05-05_15h10.15.457,HideSeek_v1,2022.2.5,59.60598056795264,
,4,7,7,7,3,0,31,,train_dim1_1,21,30,,,,2,0,2,0,,,,,,,,,0,0,0,0,0,20,20,20,1,0,1,0,,,,,,,,,,,,,,,,,,,,,,,,,,,,,,,,,,,,,,,,,,,,,,,,,,,,,,,,,,,,,,,,30,,,,,,,,1741.7312914002687,1741.7312914002687,1741.7312914002687,1741.7312914002687,1741.7312914002687,right,1.877504900097847,15,0,0,99,0.32,0.16,right,1.8009763001464307,,,,,,,,,,,,,,,,,,,,,,,,,,,,,,,,,,,,,,,,,,,,,,,,,,,,,,,,,,,,CCN3FA,train_x,blue_star,top_left,2025-05-05_15h10.15.457,HideSeek_v1,2022.2.5,59.60598056795264,
,4,7,7,7,3,0,31,,train_dim1_1,21,30,,,,2,0,2,0,,,,,,,,,0,0,0,0,0,20,20,20,2,0,2,0,,,,,,,,,,,,,,,,,,,,,,,,,,,,,,,,,,,,,,,,,,,,,,,,,,,,,,,,,,,,,,,,30,,,,,,,,1743.6161688999273,1743.6161688999273,1743.6161688999273,1743.6161688999273,1743.6161688999273,return,0.7770960996858776,15,1,0,0,0.32,0.16,return,0.7036569002084434,0,53,0.32,0.16,,,,,,,,,,,,,,,,,,,,,,,,,,,,,,,,,,,,,,,,,,,,,,,,,,,,,,,,CCN3FA,train_x,blue_star,top_left,2025-05-05_15h10.15.457,HideSeek_v1,2022.2.5,59.60598056795264,
,1,5,5,5,4,0,21,,train_dim1_1,22,30,,,,2,0,2,0,,,,,,,,,0,0,0,0,0,21,21,21,0,0,0,0,,,,,,,,,,,,,,,,,,,,,,,,,stimuli/alien_stimuli/21.png,,,,,,,,,,,,,,,,,,,,,,,,,,,,,stimuli/alien_stimuli/31.png,31,4,23,,,,,,,30,,,,,,,,1749.1644790000282,1749.1644790000282,1749.1644790000282,1749.1644790000282,1749.1644790000282,right,2.140921600162983,15,1,0,99,0.0,0,right,2.0354859000071883,,,,,1747.5891732000746,1749.1644790000282,0.4,0.16,0.0,0.24,0.16,0.4,0.28,0.4,0.16,1745.9563341001049,1745.9563341001049,1745.9563341001049,1745.9563341001049,1745.9563341001049,1745.9563341001049,1745.9563341001049,1745.9563341001049,1745.938045920059,1.736971199978143,return,1.612038199789822,,,,,,,,,,,,,,,,,,,,,,,,,,,,,,,,,CCN3FA,train_x,blue_star,top_left,2025-05-05_15h10.15.457,HideSeek_v1,2022.2.5,59.60598056795264,
,1,5,5,5,4,0,21,,train_dim1_1,22,30,,,,2,0,2,0,,,,,,,,,0,0,0,0,0,21,21,21,1,0,1,0,,,,,,,,,,,,,,,,,,,,,,,,,,,,,,,,,,,,,,,,,,,,,,,,,,,,,,,,,,,,,,,,30,,,,,,,,1751.2948130001314,1751.2948130001314,1751.2948130001314,1751.2948130001314,1751.2948130001314,right,0.5597258000634611,15,1,0,99,0.08,0,right,0.46885160030797124,,,,,,,,,,,,,,,,,,,,,,,,,,,,,,,,,,,,,,,,,,,,,,,,,,,,,,,,,,,,CCN3FA,train_x,blue_star,top_left,2025-05-05_15h10.15.457,HideSeek_v1,2022.2.5,59.60598056795264,
,1,5,5,5,4,0,21,,train_dim1_1,22,30,,,,2,0,2,0,,,,,,,,,0,0,0,0,0,21,21,21,2,0,2,0,,,,,,,,,,,,,,,,,,,,,,,,,,,,,,,,,,,,,,,,,,,,,,,,,,,,,,,,,,,,,,,,30,,,,,,,,1751.8595882002264,1751.8595882002264,1751.8595882002264,1751.8595882002264,1751.8595882002264,right,0.6939266002736986,15,1,0,99,0.16,0,right,0.6107554999180138,,,,,,,,,,,,,,,,,,,,,,,,,,,,,,,,,,,,,,,,,,,,,,,,,,,,,,,,,,,,CCN3FA,train_x,blue_star,top_left,2025-05-05_15h10.15.457,HideSeek_v1,2022.2.5,59.60598056795264,
,1,5,5,5,4,0,21,,train_dim1_1,22,30,,,,2,0,2,0,,,,,,,,,0,0,0,0,0,21,21,21,3,0,3,0,,,,,,,,,,,,,,,,,,,,,,,,,,,,,,,,,,,,,,,,,,,,,,,,,,,,,,,,,,,,,,,,30,,,,,,,,1752.5611086999997,1752.5611086999997,1752.5611086999997,1752.5611086999997,1752.5611086999997,right,1.3606595997698605,15,1,0,99,0.24,0,right,1.2739884997718036,,,,,,,,,,,,,,,,,,,,,,,,,,,,,,,,,,,,,,,,,,,,,,,,,,,,,,,,,,,,CCN3FA,train_x,blue_star,top_left,2025-05-05_15h10.15.457,HideSeek_v1,2022.2.5,59.60598056795264,
,1,5,5,5,4,0,21,,train_dim1_1,22,30,,,,2,0,2,0,,,,,,,,,0,0,0,0,0,21,21,21,4,0,4,0,,,,,,,,,,,,,,,,,,,,,,,,,,,,,,,,,,,,,,,,,,,,,,,,,,,,,,,,,,,,,,,,30,,,,,,,,1753.9278485001996,1753.9278485001996,1753.9278485001996,1753.9278485001996,1753.9278485001996,return,1.0606309003196657,16,0,0,1,0.24,0,return,0.978530699852854,0,57,0.24,0,,,,,,,,,,,,,,,,,,,,,,,,,,,,,,,,,,,,,,,,,,,,,,,,,,,,,,,,CCN3FA,train_x,blue_star,top_left,2025-05-05_15h10.15.457,HideSeek_v1,2022.2.5,59.60598056795264,
,2,6,2,6,0,0,61,,train_dim1_1,23,30,,,,2,0,2,0,,,,,,,,,0,0,0,0,0,22,22,22,0,0,0,0,,,,,,,,,,,,,,,,,,,,,,,,,stimuli/alien_stimuli/61.png,,,,,,,,,,,,,,,,,,,,,,,,,,,,,stimuli/alien_stimuli/21.png,21,1,24,,,,,,,30,,,,,,,,1759.2494761999696,1759.2494761999696,1759.2494761999696,1759.2494761999696,1759.2494761999696,return,1.4240055000409484,17,0,0,1,0,0.08,return,1.320326799992472,0,57,0,0.08,1757.668226300273,1756.5758902002126,0.24,0,0.0,0.32,0.0,0.24,0.07999999999999999,0.24,0,1756.5758902002126,1756.5758902002126,1756.5758902002126,1756.5758902002126,1756.5758902002126,1756.5758902002126,1756.5758902002126,1756.5758902002126,1756.5634070603176,1.2248291000723839,return,1.0652882000431418,,,,,,,,,,,,,,,,,,,,,,,,,,,,,,,,,CCN3FA,train_x,blue_star,top_left,2025-05-05_15h10.15.457,HideSeek_v1,2022.2.5,59.60598056795264,
,4,9,5,9,1,0,51,,train_dim1_1,24,30,,,,2,0,2,0,,,,,,,,,0,0,0,0,0,23,23,23,0,0,0,0,,,,,,,,,,,,,,,,,,,,,,,,,stimuli/alien_stimuli/51.png,,,,,,,,,,,,,,,,,,,,,,,,,,,,,stimuli/alien_stimuli/61.png,61,2,25,,,,,,,30,,,,,,,,1764.5647795000114,1764.5647795000114,1764.5647795000114,1764.5647795000114,1764.5647795000114,right,2.3232505000196397,17,0,0,99,0.24,0.32,right,2.23899930017069,,,,,1763.002205800265,1764.5647795000114,0,0.08,0.0,0.0,0.08,0,0.0,0,0.08,1762.218557999935,1762.218557999935,1762.218557999935,1762.218557999935,1762.218557999935,1762.218557999935,1762.218557999935,1762.218557999935,1762.2014725200831,0.8865928002633154,return,0.767775199841708,,,,,,,,,,,,,,,,,,,,,,,,,,,,,,,,,CCN3FA,train_x,blue_star,top_left,2025-05-05_15h10.15.457,HideSeek_v1,2022.2.5,59.60598056795264,
,4,9,5,9,1,0,51,,train_dim1_1,24,30,,,,2,0,2,0,,,,,,,,,0,0,0,0,0,23,23,23,1,0,1,0,,,,,,,,,,,,,,,,,,,,,,,,,,,,,,,,,,,,,,,,,,,,,,,,,,,,,,,,,,,,,,,,30,,,,,,,,1766.8892680001445,1766.8892680001445,1766.8892680001445,1766.8892680001445,1766.8892680001445,return,0.7103268001228571,18,0,0,1,0.24,0.32,return,0.6320083001628518,0,58,0.24,0.32,,,,,,,,,,,,,,,,,,,,,,,,,,,,,,,,,,,,,,,,,,,,,,,,,,,,,,,,CCN3FA,train_x,blue_star,top_left,2025-05-05_15h10.15.457,HideSeek_v1,2022.2.5,59.60598056795264,
,3,5,8,5,5,0,11,,train_dim1_1,25,30,,,,2,0,2,0,,,,,,,,,0,0,0,0,0,24,24,24,0,0,0,0,,,,,,,,,,,,,,,,,,,,,,,,,stimuli/alien_stimuli/11.png,,,,,,,,,,,,,,,,,,,,,,,,,,,,,stimuli/alien_stimuli/51.png,51,4,26,,,,,,,30,,,,,,,,1772.4598417999223,1772.4598417999223,1772.4598417999223,1772.4598417999223,1772.4598417999223,right,1.4382127998396754,18,0,0,99,0.16,0,right,1.333034799899906,,,,,1770.8754043001682,1772.4598417999223,0.24,0.32,0.0,0.08,0.32,0.24,0.2,0.24,0.32,1769.1627084999345,1769.1627084999345,1769.1627084999345,1769.1627084999345,1769.1627084999345,1769.1627084999345,1769.1627084999345,1769.1627084999345,1769.140609520208,1.8204920999705791,return,1.6942036002874374,,,,,,,,,,,,,,,,,,,,,,,,,,,,,,,,,CCN3FA,train_x,blue_star,top_left,2025-05-05_15h10.15.457,HideSeek_v1,2022.2.5,59.60598056795264,
,3,5,8,5,5,0,11,,train_dim1_1,25,30,,,,2,0,2,0,,,,,,,,,0,0,0,0,0,24,24,24,1,0,1,0,,,,,,,,,,,,,,,,,,,,,,,,,,,,,,,,,,,,,,,,,,,,,,,,,,,,,,,,,,,,,,,,30,,,,,,,,1773.8789869002067,1773.8789869002067,1773.8789869002067,1773.8789869002067,1773.8789869002067,right,0.7099423999898136,18,0,0,99,0.24,0,right,0.6261791000142694,,,,,,,,,,,,,,,,,,,,,,,,,,,,,,,,,,,,,,,,,,,,,,,,,,,,,,,,,,,,CCN3FA,train_x,blue_star,top_left,2025-05-05_15h10.15.457,HideSeek_v1,2022.2.5,59.60598056795264,
,3,5,8,5,5,0,11,,train_dim1_1,25,30,,,,2,0,2,0,,,,,,,,,0,0,0,0,0,24,24,24,2,0,2,0,,,,,,,,,,,,,,,,,,,,,,,,,,,,,,,,,,,,,,,,,,,,,,,,,,,,,,,,,,,,,,,,30,,,,,,,,1774.595153900329,1774.595153900329,1774.595153900329,1774.595153900329,1774.595153900329,right,0.8772089001722634,18,0,0,99,0.32,0,right,0.796452300157398,,,,,,,,,,,,,,,,,,,,,,,,,,,,,,,,,,,,,,,,,,,,,,,,,,,,,,,,,,,,CCN3FA,train_x,blue_star,top_left,2025-05-05_15h10.15.457,HideSeek_v1,2022.2.5,59.60598056795264,
,3,5,8,5,5,0,11,,train_dim1_1,25,30,,,,2,0,2,0,,,,,,,,,0,0,0,0,0,24,24,24,3,0,3,0,,,,,,,,,,,,,,,,,,,,,,,,,,,,,,,,,,,,,,,,,,,,,,,,,,,,,,,,,,,,,,,,30,,,,,,,,1775.4794896999374,1775.4794896999374,1775.4794896999374,1775.4794896999374,1775.4794896999374,right,2.328278200235218,18,0,0,99,0.4,0,right,2.2410695999860764,,,,,,,,,,,,,,,,,,,,,,,,,,,,,,,,,,,,,,,,,,,,,,,,,,,,,,,,,,,,CCN3FA,train_x,blue_star,top_left,2025-05-05_15h10.15.457,HideSeek_v1,2022.2.5,59.60598056795264,
,3,5,8,5,5,0,11,,train_dim1_1,25,30,,,,2,0,2,0,,,,,,,,,0,0,0,0,0,24,24,24,4,0,4,0,,,,,,,,,,,,,,,,,,,,,,,,,,,,,,,,,,,,,,,,,,,,,,,,,,,,,,,,,,,,,,,,30,,,,,,,,1777.8146877000108,1777.8146877000108,1777.8146877000108,1777.8146877000108,1777.8146877000108,return,1.6443829997442663,18,1,0,0,0.4,0,return,1.5597148002125323,0,62,0.4,0,,,,,,,,,,,,,,,,,,,,,,,,,,,,,,,,,,,,,,,,,,,,,,,,,,,,,,,,CCN3FA,train_x,blue_star,top_left,2025-05-05_15h10.15.457,HideSeek_v1,2022.2.5,59.60598056795264,
,1,6,1,6,0,0,61,,train_dim1_1,26,30,,,,2,0,2,0,,,,,,,,,0,0,0,0,0,25,25,25,0,0,0,0,,,,,,,,,,,,,,,,,,,,,,,,,stimuli/alien_stimuli/61.png,,,,,,,,,,,,,,,,,,,,,,,,,,,,,stimuli/alien_stimuli/11.png,11,3,27,,,,,,,30,,,,,,,,1783.7037011999637,1783.7037011999637,1783.7037011999637,1783.7037011999637,1783.7037011999637,return,1.3906850996427238,19,0,0,1,-0.08,0.08,return,1.2868739999830723,0,62,-0.08,0.08,1782.1345643000677,1783.7037011999637,0.48,0,0.0,0.4,0.0,0.48,0.27999999999999997,0.48,0,1781.04122429993,1781.04122429993,1781.04122429993,1781.04122429993,1781.04122429993,1781.04122429993,1781.04122429993,1781.04122429993,1781.03389146002,1.219780100043863,return,1.0764918001368642,,,,,,,,,,,,,,,,,,,,,,,,,,,,,,,,,CCN3FA,train_x,blue_star,top_left,2025-05-05_15h10.15.457,HideSeek_v1,2022.2.5,59.60598056795264,
,0,6,3,6,3,0,31,,train_dim1_1,27,30,,,,2,0,2,0,,,,,,,,,0,0,0,0,0,26,26,26,0,0,0,0,,,,,,,,,,,,,,,,,,,,,,,,,stimuli/alien_stimuli/31.png,,,,,,,,,,,,,,,,,,,,,,,,,,,,,stimuli/alien_stimuli/61.png,61,1,28,,,,,,,30,,,,,,,,1789.2329585002735,1789.2329585002735,1789.2329585002735,1789.2329585002735,1789.2329585002735,right,1.288056599907577,19,0,0,99,-0.08,0.08,right,1.2083224998787045,,,,,1787.6726363003254,1789.2329585002735,-0.08,0.08,0.0,0.0,0.08,-0.08,-0.08,-0.08,0.08,1786.6377642001025,1786.6377642001025,1786.6377642001025,1786.6377642001025,1786.6377642001025,1786.6377642001025,1786.6377642001025,1786.6377642001025,1786.62174741989,1.1365815000608563,return,1.0111634000204504,,,,,,,,,,,,,,,,,,,,,,,,,,,,,,,,,CCN3FA,train_x,blue_star,top_left,2025-05-05_15h10.15.457,HideSeek_v1,2022.2.5,59.60598056795264,
,0,6,3,6,3,0,31,,train_dim1_1,27,30,,,,2,0,2,0,,,,,,,,,0,0,0,0,0,26,26,26,1,0,1,0,,,,,,,,,,,,,,,,,,,,,,,,,,,,,,,,,,,,,,,,,,,,,,,,,,,,,,,,,,,,,,,,30,,,,,,,,1790.5217745001428,1790.5217745001428,1790.5217745001428,1790.5217745001428,1790.5217745001428,right,0.7601592000573874,19,0,0,99,0.0,0.08,right,0.6800307999365032,,,,,,,,,,,,,,,,,,,,,,,,,,,,,,,,,,,,,,,,,,,,,,,,,,,,,,,,,,,,CCN3FA,train_x,blue_star,top_left,2025-05-05_15h10.15.457,HideSeek_v1,2022.2.5,59.60598056795264,
,0,6,3,6,3,0,31,,train_dim1_1,27,30,,,,2,0,2,0,,,,,,,,,0,0,0,0,0,26,26,26,2,0,2,0,,,,,,,,,,,,,,,,,,,,,,,,,,,,,,,,,,,,,,,,,,,,,,,,,,,,,,,,,,,,,,,,30,,,,,,,,1791.2890029000118,1791.2890029000118,1791.2890029000118,1791.2890029000118,1791.2890029000118,right,1.0437231003306806,19,0,0,99,0.08,0.08,right,0.9632371999323368,,,,,,,,,,,,,,,,,,,,,,,,,,,,,,,,,,,,,,,,,,,,,,,,,,,,,,,,,,,,CCN3FA,train_x,blue_star,top_left,2025-05-05_15h10.15.457,HideSeek_v1,2022.2.5,59.60598056795264,
,0,6,3,6,3,0,31,,train_dim1_1,27,30,,,,2,0,2,0,,,,,,,,,0,0,0,0,0,26,26,26,3,0,3,0,,,,,,,,,,,,,,,,,,,,,,,,,,,,,,,,,,,,,,,,,,,,,,,,,,,,,,,,,,,,,,,,30,,,,,,,,1792.3395116999745,1792.3395116999745,1792.3395116999745,1792.3395116999745,1792.3395116999745,return,2.8622495997697115,20,0,0,1,0.08,0.08,return,2.776427600067109,0,65,0.08,0.08,,,,,,,,,,,,,,,,,,,,,,,,,,,,,,,,,,,,,,,,,,,,,,,,,,,,,,,,CCN3FA,train_x,blue_star,top_left,2025-05-05_15h10.15.457,HideSeek_v1,2022.2.5,59.60598056795264,
,3,6,7,6,4,0,21,,train_dim1_1,28,30,,,,2,0,2,0,,,,,,,,,0,0,0,0,0,27,27,27,0,0,0,0,,,,,,,,,,,,,,,,,,,,,,,,,stimuli/alien_stimuli/21.png,,,,,,,,,,,,,,,,,,,,,,,,,,,,,stimuli/alien_stimuli/31.png,31,0,29,,,,,,,30,,,,,,,,1799.3705283999443,1799.3705283999443,1799.3705283999443,1799.3705283999443,1799.3705283999443,right,1.2401117999106646,20,0,0,99,0.16,0.08,right,1.1361487000249326,,,,,1797.7848060000688,1796.78027030034,0.08,0.08,0.0,0.24,0.08,0.08,-0.04,0.08,0.08,1796.78027030034,1796.78027030034,1796.78027030034,1796.78027030034,1796.78027030034,1796.78027030034,1796.78027030034,1796.78027030034,1796.7635726401581,1.1246425001882017,return,0.9879105999134481,,,,,,,,,,,,,,,,,,,,,,,,,,,,,,,,,CCN3FA,train_x,blue_star,top_left,2025-05-05_15h10.15.457,HideSeek_v1,2022.2.5,59.60598056795264,
,3,6,7,6,4,0,21,,train_dim1_1,28,30,,,,2,0,2,0,,,,,,,,,0,0,0,0,0,27,27,27,1,0,1,0,,,,,,,,,,,,,,,,,,,,,,,,,,,,,,,,,,,,,,,,,,,,,,,,,,,,,,,,,,,,,,,,30,,,,,,,,1800.6006539999507,1800.6006539999507,1800.6006539999507,1800.6006539999507,1800.6006539999507,right,0.6097661000676453,20,0,0,99,0.24,0.08,right,0.5334816998802125,,,,,,,,,,,,,,,,,,,,,,,,,,,,,,,,,,,,,,,,,,,,,,,,,,,,,,,,,,,,CCN3FA,train_x,blue_star,top_left,2025-05-05_15h10.15.457,HideSeek_v1,2022.2.5,59.60598056795264,
,3,6,7,6,4,0,21,,train_dim1_1,28,30,,,,2,0,2,0,,,,,,,,,0,0,0,0,0,27,27,27,2,0,2,0,,,,,,,,,,,,,,,,,,,,,,,,,,,,,,,,,,,,,,,,,,,,,,,,,,,,,,,,,,,,,,,,30,,,,,,,,1801.2172710001469,1801.2172710001469,1801.2172710001469,1801.2172710001469,1801.2172710001469,right,0.6434621000662446,20,0,0,99,0.32,0.08,right,0.5623824000358582,,,,,,,,,,,,,,,,,,,,,,,,,,,,,,,,,,,,,,,,,,,,,,,,,,,,,,,,,,,,CCN3FA,train_x,blue_star,top_left,2025-05-05_15h10.15.457,HideSeek_v1,2022.2.5,59.60598056795264,
,3,6,7,6,4,0,21,,train_dim1_1,28,30,,,,2,0,2,0,,,,,,,,,0,0,0,0,0,27,27,27,3,0,3,0,,,,,,,,,,,,,,,,,,,,,,,,,,,,,,,,,,,,,,,,,,,,,,,,,,,,,,,,,,,,,,,,30,,,,,,,,1801.8684026002884,1801.8684026002884,1801.8684026002884,1801.8684026002884,1801.8684026002884,right,0.7770716999657452,20,0,0,99,0.4,0.08,right,0.6846229997463524,,,,,,,,,,,,,,,,,,,,,,,,,,,,,,,,,,,,,,,,,,,,,,,,,,,,,,,,,,,,CCN3FA,train_x,blue_star,top_left,2025-05-05_15h10.15.457,HideSeek_v1,2022.2.5,59.60598056795264,
,3,6,7,6,4,0,21,,train_dim1_1,28,30,,,,2,0,2,0,,,,,,,,,0,0,0,0,0,27,27,27,4,0,4,0,,,,,,,,,,,,,,,,,,,,,,,,,,,,,,,,,,,,,,,,,,,,,,,,,,,,,,,,,,,,,,,,30,,,,,,,,1802.6533788000233,1802.6533788000233,1802.6533788000233,1802.6533788000233,1802.6533788000233,return,0.7938377000391483,21,0,0,1,0.4,0.08,return,0.7055832999758422,0,69,0.4,0.08,,,,,,,,,,,,,,,,,,,,,,,,,,,,,,,,,,,,,,,,,,,,,,,,,,,,,,,,CCN3FA,train_x,blue_star,top_left,2025-05-05_15h10.15.457,HideSeek_v1,2022.2.5,59.60598056795264,
,4,5,5,5,1,0,51,,train_dim1_1,29,30,,,,2,0,2,0,,,,,,,,,0,0,0,0,0,28,28,28,0,0,0,0,,,,,,,,,,,,,,,,,,,,,,,,,stimuli/alien_stimuli/51.png,,,,,,,,,,,,,,,,,,,,,,,,,,,,,stimuli/alien_stimuli/21.png,21,3,30,,,,,,,30,,,,,,,,1808.164912499953,1808.164912499953,1808.164912499953,1808.164912499953,1808.164912499953,right,2.007716199848801,21,0,0,99,0.24,0,right,1.9109717002138495,,,,,1806.6048916000873,1808.164912499953,0.4,0.08,0.0,0.32,0.08,0.4,0.24000000000000002,0.4,0.08,1805.0115347001702,1805.0115347001702,1805.0115347001702,1805.0115347001702,1805.0115347001702,1805.0115347001702,1805.0115347001702,1805.0115347001702,1805.0038041401654,1.7034741002134979,return,1.5724904998205602,,,,,,,,,,,,,,,,,,,,,,,,,,,,,,,,,CCN3FA,train_x,blue_star,top_left,2025-05-05_15h10.15.457,HideSeek_v1,2022.2.5,59.60598056795264,
,4,5,5,5,1,0,51,,train_dim1_1,29,30,,,,2,0,2,0,,,,,,,,,0,0,0,0,0,28,28,28,1,0,1,0,,,,,,,,,,,,,,,,,,,,,,,,,,,,,,,,,,,,,,,,,,,,,,,,,,,,,,,,,,,,,,,,30,,,,,,,,1810.1737299999222,1810.1737299999222,1810.1737299999222,1810.1737299999222,1810.1737299999222,return,0.9265036000870168,22,0,0,1,0.24,0,return,0.8389717000536621,0,70,0.24,0,,,,,,,,,,,,,,,,,,,,,,,,,,,,,,,,,,,,,,,,,,,,,,,,,,,,,,,,CCN3FA,train_x,blue_star,top_left,2025-05-05_15h10.15.457,HideSeek_v1,2022.2.5,59.60598056795264,
,2,7,7,7,5,0,11,,train_dim1_1,30,30,,,,2,0,2,0,,,,,,,,,0,0,0,0,0,29,29,29,0,0,0,0,,,,,,,,,,,,,,,,,,,,,,,,,stimuli/alien_stimuli/11.png,,,,,,,,,,,,,,,,,,,,,,,,,,,,,stimuli/alien_stimuli/51.png,51,4,31,,,,,,,30,,,,,,,,1815.2088445001282,1815.2088445001282,1815.2088445001282,1815.2088445001282,1815.2088445001282,right,1.2881131996400654,22,0,0,99,0.08,0.16,right,1.1861573001369834,,,,,1813.6274858000688,1815.2088445001282,0.24,0,0.0,0.08,0.0,0.24,0.2,0.24,0,1812.666170600336,1812.666170600336,1812.666170600336,1812.666170600336,1812.666170600336,1812.666170600336,1812.666170600336,1812.666170600336,1812.6599748399108,1.0695183002389967,return,0.9416306996718049,,,,,,,,,,,,,,,,,,,,,,,,,,,,,,,,,CCN3FA,train_x,blue_star,top_left,2025-05-05_15h10.15.457,HideSeek_v1,2022.2.5,59.60598056795264,
,2,7,7,7,5,0,11,,train_dim1_1,30,30,,,,2,0,2,0,,,,,,,,,0,0,0,0,0,29,29,29,1,0,1,0,,,,,,,,,,,,,,,,,,,,,,,,,,,,,,,,,,,,,,,,,,,,,,,,,,,,,,,,,,,,,,,,30,,,,,,,,1816.4853198002093,1816.4853198002093,1816.4853198002093,1816.4853198002093,1816.4853198002093,right,0.5929792001843452,22,0,0,99,0.16,0.16,right,0.4963310998864472,,,,,,,,,,,,,,,,,,,,,,,,,,,,,,,,,,,,,,,,,,,,,,,,,,,,,,,,,,,,CCN3FA,train_x,blue_star,top_left,2025-05-05_15h10.15.457,HideSeek_v1,2022.2.5,59.60598056795264,
,2,7,7,7,5,0,11,,train_dim1_1,30,30,,,,2,0,2,0,,,,,,,,,0,0,0,0,0,29,29,29,2,0,2,0,,,,,,,,,,,,,,,,,,,,,,,,,,,,,,,,,,,,,,,,,,,,,,,,,,,,,,,,,,,,,,,,30,,,,,,,,1817.0811915001832,1817.0811915001832,1817.0811915001832,1817.0811915001832,1817.0811915001832,right,0.5767378997988999,22,0,0,99,0.24,0.16,right,0.4880276997573674,,,,,,,,,,,,,,,,,,,,,,,,,,,,,,,,,,,,,,,,,,,,,,,,,,,,,,,,,,,,CCN3FA,train_x,blue_star,top_left,2025-05-05_15h10.15.457,HideSeek_v1,2022.2.5,59.60598056795264,
,2,7,7,7,5,0,11,,train_dim1_1,30,30,,,,2,0,2,0,,,,,,,,,0,0,0,0,0,29,29,29,3,0,3,0,,,,,,,,,,,,,,,,,,,,,,,,,,,,,,,,,,,,,,,,,,,,,,,,,,,,,,,,,,,,,,,,30,,,,,,,,1817.6649326002225,1817.6649326002225,1817.6649326002225,1817.6649326002225,1817.6649326002225,right,0.6269972999580204,22,0,0,99,0.32,0.16,right,0.5379209998063743,,,,,,,,,,,,,,,,,,,,,,,,,,,,,,,,,,,,,,,,,,,,,,,,,,,,,,,,,,,,CCN3FA,train_x,blue_star,top_left,2025-05-05_15h10.15.457,HideSeek_v1,2022.2.5,59.60598056795264,
,2,7,7,7,5,0,11,,train_dim1_1,30,30,,,,2,0,2,0,,,,,,,,,0,0,0,0,0,29,29,29,4,0,4,0,,,,,,,,,,,,,,,,,,,,,,,,,,,,,,,,,,,,,,,,,,,,,,,,,,,,,,,,,,,,,,,,30,,,,,,,,1818.2989107002504,1818.2989107002504,1818.2989107002504,1818.2989107002504,1818.2989107002504,right,1.2941962997429073,22,0,0,99,0.4,0.16,right,1.2120932000689209,,,,,,,,,,,,,,,,,,,,,,,,,,,,,,,,,,,,,,,,,,,,,,,,,,,,,,,,,,,,CCN3FA,train_x,blue_star,top_left,2025-05-05_15h10.15.457,HideSeek_v1,2022.2.5,59.60598056795264,
,2,7,7,7,5,0,11,,train_dim1_1,30,30,,,,2,0,2,0,,,,,,,,,0,0,0,0,0,29,29,29,5,0,5,0,,,,,,,,,,,,,,,,,,,,,,,,,,,,,,,,,,,,,,,,,,,,,,,,,,,,,,,,,,,,,,,,30,,,,,,,,1819.5987868001685,1819.5987868001685,1819.5987868001685,1819.5987868001685,1819.5987868001685,return,0.6602846002206206,23,0,0,1,0.4,0.16,return,0.5719074001535773,0,75,0.4,0.16,,,,,,,,,,,,,,,,,,,,,,,,,,,,,,,,,,,,,,,,,,,,,,,,,,,,,,,,CCN3FA,train_x,blue_star,top_left,2025-05-05_15h10.15.457,HideSeek_v1,2022.2.5,59.60598056795264,
,,,,,,,,,,,30,,,,2,0,2,0,,,,,,,,,,,,,,,,,,,,,,,,,,,,,,,,,,,,,,,,,,,,,,,,,,,,,,,,,,,,,,,,,,,,,,,,,,stimuli/alien_stimuli/11.png,11,2,32,21,0.7,0.9583333333333335,1,1,1,30,0,conditions/schedules/train_x_first/blue_star_00/top_left/inputTrain_2.1.xlsx,99,1,2,1,0,,,,,,,,,,,1,,,,,,,,,1822.9520109998994,1824.5111179999076,0.4,0.16,0.0,0.4,0.16,0.4,0.2,0.4,0.16,1821.8251277999952,1821.8251277999952,1821.8251277999952,1821.8251277999952,1821.8251277999952,1821.8251277999952,1821.8251277999952,1821.8251277999952,1821.8175912400707,1.236808099783957,return,1.0961087998002768,0,0.9,0,1,23,,,,,,,,,,,,,,,,,,,,,,,,,,,,CCN3FA,train_x,blue_star,top_left,2025-05-05_15h10.15.457,HideSeek_v1,2022.2.5,59.60598056795264,
,,,,,,,,,,,,,,,3,0,3,0,0,0,0,0,,,,,,,,,,,,,,,,,,,,,,,,,,,,,,,conditions/schedules/train_x_first/blue_star_00/top_left/instructions/Slide17.png,conditions/schedules/train_x_first/blue_star_00/top_left/instructions/Audio17.wav,1824.5111179999076,1824.5033359800466,17,"[5.526283899787813, 18.546960100065917, 16.715170100331306, 19.382364499848336, 3.9343404001556337, 4.435694099869579, 5.386714299675077, 11.919989499729127, 6.241485199891031, 7.281802999787033, 10.149281099904329, 12.455472400411963, 18.114785199984908, 13.008697099983692, 31.16601200029254, 22.685340899974108, 41.37474100012332]","[0.00021789968013763428, 0.014163400046527386, 0.014098499901592731, 0.0644311998039484, 0.08205220010131598, 0.06564659997820854, 0.030940799973905087, 0.03631450003013015, 0.06302929995581508, 0.029782299883663654, 0.013757000211626291, 12.455480000004172, 0.01367209991440177, 13.008704700041562, 31.16601929999888, 22.685348799917847, 41.37475069984794]",0,,,,,,,,,,,,,,,,,,,,,,,,,,,,,,,,,,,,,,,,,,,,,,,,,,,,,,,,,,,,,,,,,,,,,,,,,,,,,,,,,,,,,,,,,,,,,,,,,,,,,,,,,,,,,,,,,,,,,,,,,,,,CCN3FA,train_x,blue_star,top_left,2025-05-05_15h10.15.457,HideSeek_v1,2022.2.5,59.60598056795264,
,,,,,,,,,,,,,,,3,0,3,0,1,0,1,0,,,,,,,,,,,,,,,,,,,,,,,,,,,,,,,conditions/schedules/train_x_first/blue_star_00/top_left/instructions/Slide18.png,conditions/schedules/train_x_first/blue_star_00/top_left/instructions/Audio18.wav,1865.9526575999334,1865.9542824001983,18,"[5.526283899787813, 18.546960100065917, 16.715170100331306, 19.382364499848336, 3.9343404001556337, 4.435694099869579, 5.386714299675077, 11.919989499729127, 6.241485199891031, 7.281802999787033, 10.149281099904329, 12.455472400411963, 18.114785199984908, 13.008697099983692, 31.16601200029254, 22.685340899974108, 41.37474100012332, 6.170340400189161]","[0.00021789968013763428, 0.014163400046527386, 0.014098499901592731, 0.0644311998039484, 0.08205220010131598, 0.06564659997820854, 0.030940799973905087, 0.03631450003013015, 0.06302929995581508, 0.029782299883663654, 0.013757000211626291, 12.455480000004172, 0.01367209991440177, 13.008704700041562, 31.16601929999888, 22.685348799917847, 41.37475069984794, 6.170348399784416]",0,,,,,,,,,,,,,,,,,,,,,,,,,,,,,,,,,,,,,,,,,,,,,,,,,,,,,,,,,,,,,,,,,,,,,,,,,,,,,,,,,,,,,,,,,,,,,,,,,,,,,,,,,,,,,,,,,,,,,,,,,,,,CCN3FA,train_x,blue_star,top_left,2025-05-05_15h10.15.457,HideSeek_v1,2022.2.5,59.60598056795264,
,,,,,,,,,,,,,,,3,0,3,0,2,0,2,0,,,,,,,,,,,,,,,,,,,,,,,,,,,,,,,conditions/schedules/train_x_first/blue_star_00/top_left/instructions/Slide19.png,conditions/schedules/train_x_first/blue_star_00/top_left/instructions/Audio19.wav,1872.162789199967,1872.1593863601795,19,"[5.526283899787813, 18.546960100065917, 16.715170100331306, 19.382364499848336, 3.9343404001556337, 4.435694099869579, 5.386714299675077, 11.919989499729127, 6.241485199891031, 7.281802999787033, 10.149281099904329, 12.455472400411963, 18.114785199984908, 13.008697099983692, 31.16601200029254, 22.685340899974108, 41.37474100012332, 6.170340400189161, 10.352808199822903]","[0.00021789968013763428, 0.014163400046527386, 0.014098499901592731, 0.0644311998039484, 0.08205220010131598, 0.06564659997820854, 0.030940799973905087, 0.03631450003013015, 0.06302929995581508, 0.029782299883663654, 0.013757000211626291, 12.455480000004172, 0.01367209991440177, 13.008704700041562, 31.16601929999888, 22.685348799917847, 41.37475069984794, 0.0477723996154964, 10.352816199883819]",0,,,,,,,,,,,,,,,,,,,,,,,,,,,,,,,,,,,,,,,,,,,,,,,,,,,,,,,,,,,,,,,,,,,,,,,,,,,,,,,,,,,,,,,,,,,,,,,,,,,,,,,,,,,,,,,,,,,,,,,,,,,,CCN3FA,train_x,blue_star,top_left,2025-05-05_15h10.15.457,HideSeek_v1,2022.2.5,59.60598056795264,
,,,,,,,,,,,,,,,3,0,3,0,3,0,3,0,,,,,,,,,,,,,,,,,,,,,,,,,,,,,,,conditions/schedules/train_x_first/blue_star_00/top_left/instructions/Slide20.png,conditions/schedules/train_x_first/blue_star_00/top_left/instructions/Audio20.wav,1882.5871081999503,1882.5849005002528,20,"[5.526283899787813, 18.546960100065917, 16.715170100331306, 19.382364499848336, 3.9343404001556337, 4.435694099869579, 5.386714299675077, 11.919989499729127, 6.241485199891031, 7.281802999787033, 10.149281099904329, 12.455472400411963, 18.114785199984908, 13.008697099983692, 31.16601200029254, 22.685340899974108, 41.37474100012332, 6.170340400189161, 10.352808199822903, 13.823494399897754]","[0.00021789968013763428, 0.014163400046527386, 0.014098499901592731, 0.0644311998039484, 0.08205220010131598, 0.06564659997820854, 0.030940799973905087, 0.03631450003013015, 0.06302929995581508, 0.029782299883663654, 0.013757000211626291, 12.455480000004172, 0.01367209991440177, 13.008704700041562, 31.16601929999888, 22.685348799917847, 41.37475069984794, 0.0477723996154964, 0.014322100207209587, 13.823502100072801]",0,,,,,,,,,,,,,,,,,,,,,,,,,,,,,,,,,,,,,,,,,,,,,,,,,,,,,,,,,,,,,,,,,,,,,,,,,,,,,,,,,,,,,,,,,,,,,,,,,,,,,,,,,,,,,,,,,,,,,,,,,,,,CCN3FA,train_x,blue_star,top_left,2025-05-05_15h10.15.457,HideSeek_v1,2022.2.5,59.60598056795264,
1,0,8,0,3,0,-5,66,2,instr_dim1_2,,,,,,3,0,3,0,,,,,0,0,0,0,,,,,,,,,,,,,,,,,,,,,,,,,,,,,,,,,,,,,stimuli/alien_stimuli/66.png,conditions/schedules/train_x_first/blue_star_00/top_left/inputInstr_2.xlsx,stimuli/alien_stimuli/66.png,1896.50447480008,1896.50447480008,1896.50447480008,1896.50447480008,1896.496417320054,return,6.640177899971604,"[-0.16, -0.08, 0, 0.08, 0.16, 0.24, 0.32, 0.4, 0.48, 0.56]","[-0.4, -0.32, -0.24, -0.16, -0.08, 0, 0.08, 0.16, 0.24, 0.32]",3,8,0,0,0.4,0.0,1903.2886361000128,1903.2886361000128,1903.2886361000128,1903.2886361000128,1903.2886361000128,1903.2886361000128,1903.2886361000128,1903.2851928599177,7.60733629995957,return,7.4590757000260055,stimuli/alien_stimuli/66.png,66,0,1,,,,,,,,,,,,,,,,,,,,,,,,,,,,,,,,,,,,,,,,,,,,,,,,,,,,,,,,,,,,,,,,,,,,,,,,,,,,,,,,,,,,,,,,,CCN3FA,train_x,blue_star,top_left,2025-05-05_15h10.15.457,HideSeek_v1,2022.2.5,59.60598056795264,
,,,,,,,,,,,30,,,,3,0,3,0,,,,,,,,,,,,,,,,,,,,,,,,,,,,,,,,,,,,,,,,,,,,,,,,,,,,,,,,,,,,,,,,,,,,,,,,,,,,,,21,0.7,0.9583333333333335,1,99,2,30,0,conditions/schedules/train_x_first/blue_star_00/top_left/inputTrain_2.1.xlsx,99,1,2,1,0,,,,,,,,,,,,,,,,,,,,,,,,,,,,,,,,,,,,,,,,,,,,,,,,,,,,,,,,,,,,,,,,,,,,,,,,,,,CCN3FA,train_x,blue_star,top_left,2025-05-05_15h10.15.457,HideSeek_v1,2022.2.5,59.60598056795264,
,,,,,,,,,,,,,,,4,0,4,0,0,0,0,0,,,,,,,,,,,,,,,,,,,,,,,,,,,,,,,conditions/schedules/train_x_first/blue_star_00/top_left/instructions/Slide21.png,conditions/schedules/train_x_first/blue_star_00/top_left/instructions/Audio21.wav,1910.924604400061,1910.9249024000019,21,"[5.526283899787813, 18.546960100065917, 16.715170100331306, 19.382364499848336, 3.9343404001556337, 4.435694099869579, 5.386714299675077, 11.919989499729127, 6.241485199891031, 7.281802999787033, 10.149281099904329, 12.455472400411963, 18.114785199984908, 13.008697099983692, 31.16601200029254, 22.685340899974108, 41.37474100012332, 6.170340400189161, 10.352808199822903, 13.823494399897754, 16.57816099980846]","[0.00021789968013763428, 0.014163400046527386, 0.014098499901592731, 0.0644311998039484, 0.08205220010131598, 0.06564659997820854, 0.030940799973905087, 0.03631450003013015, 0.06302929995581508, 0.029782299883663654, 0.013757000211626291, 12.455480000004172, 0.01367209991440177, 13.008704700041562, 31.16601929999888, 22.685348799917847, 41.37475069984794, 0.0477723996154964, 0.014322100207209587, 13.823502100072801, 16.578168500214815]",0,,,,,,,,,,,,,,,,,,,,,,,,,,,,,,,,,,,,,,,,,,,,,,,,,,,,,,,,,,,,,,,,,,,,,,,,,,,,,,,,,,,,,,,,,,,,,,,,,,,,,,,,,,,,,,,,,,,,,,,,,,,,CCN3FA,train_x,blue_star,top_left,2025-05-05_15h10.15.457,HideSeek_v1,2022.2.5,59.60598056795264,
2,2,8,2,8,0,0,61,2,instr_dim1_2,,,,,,4,0,4,0,,,,,0,0,0,0,,,,,,,,,,,,,,,,,,,,,,,,,,,,,,,,,,,,,stimuli/alien_stimuli/61.png,conditions/schedules/train_x_first/blue_star_00/top_left/inputInstr_2.xlsx,stimuli/alien_stimuli/61.png,1927.5974194002338,1927.5974194002338,1927.5974194002338,1927.5974194002338,1927.5887648199684,return,6.4092156002298,"[-0.16, -0.08, 0, 0.08, 0.16, 0.24, 0.32, 0.4, 0.48, 0.56]","[-0.4, -0.32, -0.24, -0.16, -0.08, 0, 0.08, 0.16, 0.24, 0.32]",8,8,2,2,0.0,0.0,1934.149005400017,1934.149005400017,1934.149005400017,1934.149005400017,1934.149005400017,1934.149005400017,1934.149005400017,1934.1443987601435,5.955654000397772,return,5.811675299890339,stimuli/alien_stimuli/61.png,61,2,2,,,,,,,,,,,,,,,,,,,,,,,,,,,,,,,,,,,,,,,,,,,,,,,,,,,,,,,,,,,,,,,,,,,,,,,,,,,,,,,,,,,,,,,,,CCN3FA,train_x,blue_star,top_left,2025-05-05_15h10.15.457,HideSeek_v1,2022.2.5,59.60598056795264,
,,,,,,,,,,,30,,,,4,0,4,0,,,,,,,,,,,,,,,,,,,,,,,,,,,,,,,,,,,,,,,,,,,,,,,,,,,,,,,,,,,,,,,,,,,,,,,,,,,,,,21,0.7,0.9583333333333335,1,99,2,30,0,conditions/schedules/train_x_first/blue_star_00/top_left/inputTrain_2.1.xlsx,99,1,2,1,0,,,,,,,,,,,,,,,,,,,,,,,,,,,,,,,,,,,,,,,,,,,,,,,,,,,,,,,,,,,,,,,,,,,,,,,,,,,CCN3FA,train_x,blue_star,top_left,2025-05-05_15h10.15.457,HideSeek_v1,2022.2.5,59.60598056795264,
,,,,,,,,,,,,,,,5,0,5,0,0,0,0,0,,,,,,,,,,,,,,,,,,,,,,,,,,,,,,,conditions/schedules/train_x_first/blue_star_00/top_left/instructions/Slide22.png,conditions/schedules/train_x_first/blue_star_00/top_left/instructions/Audio22.wav,1940.1329777003266,1940.1326486002654,22,"[5.526283899787813, 18.546960100065917, 16.715170100331306, 19.382364499848336, 3.9343404001556337, 4.435694099869579, 5.386714299675077, 11.919989499729127, 6.241485199891031, 7.281802999787033, 10.149281099904329, 12.455472400411963, 18.114785199984908, 13.008697099983692, 31.16601200029254, 22.685340899974108, 41.37474100012332, 6.170340400189161, 10.352808199822903, 13.823494399897754, 16.57816099980846, 42.38347220001742]","[0.00021789968013763428, 0.014163400046527386, 0.014098499901592731, 0.0644311998039484, 0.08205220010131598, 0.06564659997820854, 0.030940799973905087, 0.03631450003013015, 0.06302929995581508, 0.029782299883663654, 0.013757000211626291, 12.455480000004172, 0.01367209991440177, 13.008704700041562, 31.16601929999888, 22.685348799917847, 41.37475069984794, 0.0477723996154964, 0.014322100207209587, 13.823502100072801, 16.578168500214815, 42.383479999843985]",0,,,,,,,,,,,,,,,,,,,,,,,,,,,,,,,,,,,,,,,,,,,,,,,,,,,,,,,,,,,,,,,,,,,,,,,,,,,,,,,,,,,,,,,,,,,,,,,,,,,,,,,,,,,,,,,,,,,,,,,,,,,,CCN3FA,train_x,blue_star,top_left,2025-05-05_15h10.15.457,HideSeek_v1,2022.2.5,59.60598056795264,
,0,5,0,1,0,-4,65,,train_dim1_2,1,30,,,,5,0,5,0,,,,,,,,,0,0,0,0,0,0,0,0,0,0,0,0,,,,,,,,,,,,,,,,,,,,,,,,,stimuli/alien_stimuli/65.png,,,,,,,,,,,,,,,,,,,,,,,,,,,,,,,,,,,,,,,30,,,,,,,,1982.61872030003,1982.61872030003,1982.61872030003,1982.61872030003,1982.61872030003,down,5.881162500008941,0,0,0,99,-0.16,-0.08,down,5.772194200195372,,,,,,,,,,,,,,,,,,,,,,,,,,,,,,,,,,,,,,,,,,,,,,,,,,,,,,,,,,,,CCN3FA,train_x,blue_star,top_left,2025-05-05_15h10.15.457,HideSeek_v1,2022.2.5,59.60598056795264,
,0,5,0,1,0,-4,65,,train_dim1_2,1,30,,,,5,0,5,0,,,,,,,,,0,0,0,0,0,0,0,0,1,0,1,0,,,,,,,,,,,,,,,,,,,,,,,,,,,,,,,,,,,,,,,,,,,,,,,,,,,,,,,,,,,,,,,,30,,,,,,,,1988.4880106002092,1988.4880106002092,1988.4880106002092,1988.4880106002092,1988.4880106002092,down,0.992904799990356,0,0,0,99,-0.16,-0.16,down,0.9178339000791311,,,,,,,,,,,,,,,,,,,,,,,,,,,,,,,,,,,,,,,,,,,,,,,,,,,,,,,,,,,,CCN3FA,train_x,blue_star,top_left,2025-05-05_15h10.15.457,HideSeek_v1,2022.2.5,59.60598056795264,
,0,5,0,1,0,-4,65,,train_dim1_2,1,30,,,,5,0,5,0,,,,,,,,,0,0,0,0,0,0,0,0,2,0,2,0,,,,,,,,,,,,,,,,,,,,,,,,,,,,,,,,,,,,,,,,,,,,,,,,,,,,,,,,,,,,,,,,30,,,,,,,,1989.4863080000505,1989.4863080000505,1989.4863080000505,1989.4863080000505,1989.4863080000505,down,1.0438047996722162,0,0,0,99,-0.16,-0.24,down,0.9650562000460923,,,,,,,,,,,,,,,,,,,,,,,,,,,,,,,,,,,,,,,,,,,,,,,,,,,,,,,,,,,,CCN3FA,train_x,blue_star,top_left,2025-05-05_15h10.15.457,HideSeek_v1,2022.2.5,59.60598056795264,
,0,5,0,1,0,-4,65,,train_dim1_2,1,30,,,,5,0,5,0,,,,,,,,,0,0,0,0,0,0,0,0,3,0,3,0,,,,,,,,,,,,,,,,,,,,,,,,,,,,,,,,,,,,,,,,,,,,,,,,,,,,,,,,,,,,,,,,30,,,,,,,,1990.537111000158,1990.537111000158,1990.537111000158,1990.537111000158,1990.537111000158,down,0.9605300999246538,0,0,0,99,-0.16,-0.32,down,0.8837962998077273,,,,,,,,,,,,,,,,,,,,,,,,,,,,,,,,,,,,,,,,,,,,,,,,,,,,,,,,,,,,CCN3FA,train_x,blue_star,top_left,2025-05-05_15h10.15.457,HideSeek_v1,2022.2.5,59.60598056795264,
,0,5,0,1,0,-4,65,,train_dim1_2,1,30,,,,5,0,5,0,,,,,,,,,0,0,0,0,0,0,0,0,4,0,4,0,,,,,,,,,,,,,,,,,,,,,,,,,,,,,,,,,,,,,,,,,,,,,,,,,,,,,,,,,,,,,,,,30,,,,,,,,1991.5052578002214,1991.5052578002214,1991.5052578002214,1991.5052578002214,1991.5052578002214,down,1.0104629998095334,0,0,0,99,-0.16,-0.4,down,0.93833849998191,,,,,,,,,,,,,,,,,,,,,,,,,,,,,,,,,,,,,,,,,,,,,,,,,,,,,,,,,,,,CCN3FA,train_x,blue_star,top_left,2025-05-05_15h10.15.457,HideSeek_v1,2022.2.5,59.60598056795264,
,0,5,0,1,0,-4,65,,train_dim1_2,1,30,,,,5,0,5,0,,,,,,,,,0,0,0,0,0,0,0,0,5,0,5,0,,,,,,,,,,,,,,,,,,,,,,,,,,,,,,,,,,,,,,,,,,,,,,,,,,,,,,,,,,,,,,,,30,,,,,,,,1992.5212373998947,1992.5212373998947,1992.5212373998947,1992.5212373998947,1992.5212373998947,return,1.111164900008589,0,1,0,0,-0.16,-0.4,return,1.0279033998958766,-5,75,-0.16,-0.4,,,,,,,,,,,,,,,,,,,,,,,,,,,,,,,,,,,,,,,,,,,,,,,,,,,,,,,,CCN3FA,train_x,blue_star,top_left,2025-05-05_15h10.15.457,HideSeek_v1,2022.2.5,59.60598056795264,
,3,7,3,2,0,-5,66,,train_dim1_2,2,30,,,,5,0,5,0,,,,,,,,,0,0,0,0,0,1,1,1,0,0,0,0,,,,,,,,,,,,,,,,,,,,,,,,,stimuli/alien_stimuli/66.png,,,,,,,,,,,,,,,,,,,,,,,,,,,,,stimuli/alien_stimuli/65.png,65,0,3,,,,,,,30,,,,,,,,2000.5186288999394,2000.5186288999394,2000.5186288999394,2000.5186288999394,2000.5186288999394,down,4.642633999697864,0,1,0,99,0.08,0.08,down,4.552947700023651,,,,,1998.9646862000227,2000.5186288999394,-0.16,-0.32,0.32,0.0,-0.16,-0.16,-0.16,-0.16,-0.32,1995.2122301002964,1995.2122301002964,1995.2122301002964,1995.2122301002964,1995.2122301002964,1995.2122301002964,1995.2122301002964,1995.2122301002964,1995.1949068400077,3.8723856997676194,return,3.7357919001951814,,,,,,,,,,,,,,,,,,,,,,,,,,,,,,,,,CCN3FA,train_x,blue_star,top_left,2025-05-05_15h10.15.457,HideSeek_v1,2022.2.5,59.60598056795264,
,3,7,3,2,0,-5,66,,train_dim1_2,2,30,,,,5,0,5,0,,,,,,,,,0,0,0,0,0,1,1,1,1,0,1,0,,,,,,,,,,,,,,,,,,,,,,,,,,,,,,,,,,,,,,,,,,,,,,,,,,,,,,,,,,,,,,,,30,,,,,,,,2005.167686900124,2005.167686900124,2005.167686900124,2005.167686900124,2005.167686900124,down,0.7597959004342556,0,1,0,99,0.08,0.0,down,0.6754260999150574,,,,,,,,,,,,,,,,,,,,,,,,,,,,,,,,,,,,,,,,,,,,,,,,,,,,,,,,,,,,CCN3FA,train_x,blue_star,top_left,2025-05-05_15h10.15.457,HideSeek_v1,2022.2.5,59.60598056795264,
,3,7,3,2,0,-5,66,,train_dim1_2,2,30,,,,5,0,5,0,,,,,,,,,0,0,0,0,0,1,1,1,2,0,2,0,,,,,,,,,,,,,,,,,,,,,,,,,,,,,,,,,,,,,,,,,,,,,,,,,,,,,,,,,,,,,,,,30,,,,,,,,2005.9327647001483,2005.9327647001483,2005.9327647001483,2005.9327647001483,2005.9327647001483,down,1.010707899928093,0,1,0,99,0.08,-0.08,down,0.9365916000679135,,,,,,,,,,,,,,,,,,,,,,,,,,,,,,,,,,,,,,,,,,,,,,,,,,,,,,,,,,,,CCN3FA,train_x,blue_star,top_left,2025-05-05_15h10.15.457,HideSeek_v1,2022.2.5,59.60598056795264,
,3,7,3,2,0,-5,66,,train_dim1_2,2,30,,,,5,0,5,0,,,,,,,,,0,0,0,0,0,1,1,1,3,0,3,0,,,,,,,,,,,,,,,,,,,,,,,,,,,,,,,,,,,,,,,,,,,,,,,,,,,,,,,,,,,,,,,,30,,,,,,,,2006.9514299002476,2006.9514299002476,2006.9514299002476,2006.9514299002476,2006.9514299002476,return,1.8944182000122964,0,0,0,0,0.08,-0.08,return,1.8173783998936415,-8,75,0.08,-0.08,,,,,,,,,,,,,,,,,,,,,,,,,,,,,,,,,,,,,,,,,,,,,,,,,,,,,,,,CCN3FA,train_x,blue_star,top_left,2025-05-05_15h10.15.457,HideSeek_v1,2022.2.5,59.60598056795264,
,2,8,2,5,0,-3,64,,train_dim1_2,3,30,,,,5,0,5,0,,,,,,,,,0,0,0,0,0,2,2,2,0,0,0,0,,,,,,,,,,,,,,,,,,,,,,,,,stimuli/alien_stimuli/64.png,,,,,,,,,,,,,,,,,,,,,,,,,,,,,stimuli/alien_stimuli/66.png,66,3,4,,,,,,,30,,,,,,,,2015.1304643000476,2015.1304643000476,2015.1304643000476,2015.1304643000476,2015.1304643000476,down,2.958303699735552,0,0,0,99,0,0.15999999999999998,down,2.8817786001600325,,,,,2013.5770177002996,2015.1304643000476,0.08,-0.24,0.4,0.0,-0.039999999999999994,0.08,0.08,0.08,-0.24,2010.4154449002817,2010.4154449002817,2010.4154449002817,2010.4154449002817,2010.4154449002817,2010.4154449002817,2010.4154449002817,2010.4154449002817,2010.4076491402461,3.2719028000719845,return,3.1456694998778403,,,,,,,,,,,,,,,,,,,,,,,,,,,,,,,,,CCN3FA,train_x,blue_star,top_left,2025-05-05_15h10.15.457,HideSeek_v1,2022.2.5,59.60598056795264,
,2,8,2,5,0,-3,64,,train_dim1_2,3,30,,,,5,0,5,0,,,,,,,,,0,0,0,0,0,2,2,2,1,0,1,0,,,,,,,,,,,,,,,,,,,,,,,,,,,,,,,,,,,,,,,,,,,,,,,,,,,,,,,,,,,,,,,,30,,,,,,,,2018.0933273001574,2018.0933273001574,2018.0933273001574,2018.0933273001574,2018.0933273001574,down,0.7764996998012066,0,0,0,99,0,0.07999999999999997,down,0.6923925001174212,,,,,,,,,,,,,,,,,,,,,,,,,,,,,,,,,,,,,,,,,,,,,,,,,,,,,,,,,,,,CCN3FA,train_x,blue_star,top_left,2025-05-05_15h10.15.457,HideSeek_v1,2022.2.5,59.60598056795264,
,2,8,2,5,0,-3,64,,train_dim1_2,3,30,,,,5,0,5,0,,,,,,,,,0,0,0,0,0,2,2,2,2,0,2,0,,,,,,,,,,,,,,,,,,,,,,,,,,,,,,,,,,,,,,,,,,,,,,,,,,,,,,,,,,,,,,,,30,,,,,,,,2018.8767800000496,2018.8767800000496,2018.8767800000496,2018.8767800000496,2018.8767800000496,down,1.444397300016135,0,0,0,99,0,-2.7755575615628914e-17,down,1.3688465999439359,,,,,,,,,,,,,,,,,,,,,,,,,,,,,,,,,,,,,,,,,,,,,,,,,,,,,,,,,,,,CCN3FA,train_x,blue_star,top_left,2025-05-05_15h10.15.457,HideSeek_v1,2022.2.5,59.60598056795264,
,2,8,2,5,0,-3,64,,train_dim1_2,3,30,,,,5,0,5,0,,,,,,,,,0,0,0,0,0,2,2,2,3,0,3,0,,,,,,,,,,,,,,,,,,,,,,,,,,,,,,,,,,,,,,,,,,,,,,,,,,,,,,,,,,,,,,,,30,,,,,,,,2020.3295515999198,2020.3295515999198,2020.3295515999198,2020.3295515999198,2020.3295515999198,down,2.0775655996985734,0,0,0,99,0,-0.08000000000000003,down,2.0050142998807132,,,,,,,,,,,,,,,,,,,,,,,,,,,,,,,,,,,,,,,,,,,,,,,,,,,,,,,,,,,,CCN3FA,train_x,blue_star,top_left,2025-05-05_15h10.15.457,HideSeek_v1,2022.2.5,59.60598056795264,
