trialInstr,x_fixStart,y_fixStart,x_corrSteps,y_corrSteps,x_nrSteps,y_nrSteps,alienID,trialLength,version,trialTrain,praclen,testlen,trial_label,break_on_off,beforeExpLoop.thisRepN,beforeExpLoop.thisTrialN,beforeExpLoop.thisN,beforeExpLoop.thisIndex,mini_instr_trials.thisRepN,mini_instr_trials.thisTrialN,mini_instr_trials.thisN,mini_instr_trials.thisIndex,instrLoop.thisRepN,instrLoop.thisTrialN,instrLoop.thisN,instrLoop.thisIndex,repeat_prac.thisRepN,repeat_prac.thisTrialN,repeat_prac.thisN,repeat_prac.thisIndex,trainLoop.thisRepN,trainLoop.thisTrialN,trainLoop.thisN,trainLoop.thisIndex,moveLoop_train.thisRepN,moveLoop_train.thisTrialN,moveLoop_train.thisN,moveLoop_train.thisIndex,experiment.thisRepN,experiment.thisTrialN,experiment.thisN,experiment.thisIndex,moveLoop_test.thisRepN,moveLoop_test.thisTrialN,moveLoop_test.thisN,moveLoop_test.thisIndex,mini_instr2_trials.thisRepN,mini_instr2_trials.thisTrialN,mini_instr2_trials.thisN,mini_instr2_trials.thisIndex,start_all_time,url,slideStim,audioStim,slides.started,sounds.started,nextButton.numClicks,nextButton.timesOn,nextButton.timesOff,prev_but.numClicks,prev_but.timesOn,prev_but.timesOff,alienStim,instrFile,alienStim_instr,gridImage_instr.started,startPos_3.started,key_instr.started,alienImage_3.started,sounds_1.started,key_instr.keys,key_instr.rt,all_x,all_y,FBy_corrSteps,FBy_fixStart,FBx_corrSteps,FBx_fixStart,FBy_pathSize_check,FBx_pathSize_check,gridImage_9.started,alienImageFB_3.started,startPosFB_3.started,keyFB_3.started,pathLine_ydir_2.started,pathLine_xdir_2.started,alienFace_3.started,sounds_2.started,RTFB_instr,keyFB_3.keys,keyFB_3.rt,draw_alienStim,draw_alienID,test_x,nrepcount,perfthres,percthres,earlierperf,earlystop,nextPrac,fileidx,praclen,saveACC_train,pracFile,nextPrac_train,addNrep,fileidx_endr,repExp,showearly,gridImage_4.started,startPos.started,movePos.started,key_resp.started,alienImage.started,buttonPress_train,RTchoice_train,cumAcctrain,aCorr,saveACC_choice,corrAns,x_movePos_end,y_movePos_end,key_resp.keys,key_resp.rt,wLy_dir,wLx_dir,x_movePos,y_movePos,text_2.started,text_2.stopped,aft_x_corrPos,aft_y_corrPos,y_pathSize_check,x_pathSize_check,y_pathdirY,x_pathdirY,x_pathdirX,x_corrPos,y_corrPos,gridImage_6.started,alienImageFB_2.started,startPosFB_2.started,movePosFB_2.started,keyFB_2.started,pathLine_xdir.started,pathLine_ydir.started,alienFace.started,sounds_4.started,RT_FBtrain,keyFB_2.keys,keyFB_2.rt,saveACC_pre,ACC,within_saveACC_train,earlystop_wloop,cumAcctrain_check,gridImage_3.started,alienImage_test.started,startPos_test.started,movePos_test.started,key_resp_test.started,wLy_dir_test,wLx_dir_test,buttonPress_test,RTchoice_test,cumAcctest,corrAns_test,key_resp_test.keys,key_resp_test.rt,fixation_text.started,fixation_text.stopped,total_time,end_all_time,key_resp_3.keys,slides_2.started,sounds_3.started,nextButton_2.numClicks,nextButton_2.timesOn,nextButton_2.timesOff,prev_but_2.numClicks,prev_but_2.timesOn,prev_but_2.timesOff,bye.started,participant,train_first,00_coordinate,starting corner,date,expName,psychopyVersion,frameRate,
,,,,,,,,,,,,,,,0,0,0,0,0,0,0,0,,,,,,,,,,,,,,,,,,,,,,,,,,,,,start_all_time,testround,conditions/schedules/train_x_first/red_square_00/top_right/instructions/Slide1.png,conditions/schedules/train_x_first/red_square_00/top_right/instructions/Audio1.wav,884.2534347998444,884.2029475034215,1,[6.546605299925432],[6.546628599986434],0,,,,,,,,,,,,,,,,,,,,,,,,,,,,,,,,,,,,,,,,,,,,,,,,,,,,,,,,,,,,,,,,,,,,,,,,,,,,,,,,,,,,,,,,,,,,,,,,,,,,,,,,,,,,,,,,,,,,,,,,,,,,CLY40D,train_x,red_square,top_right,2024-11-25_15h09.19.742,HideSeek_v1,2022.2.5,60.340198041971654,
,,,,,,,,,,,,,,,0,0,0,0,1,0,1,0,,,,,,,,,,,,,,,,,,,,,,,,,,,,,,,conditions/schedules/train_x_first/red_square_00/top_right/instructions/Slide2.png,conditions/schedules/train_x_first/red_square_00/top_right/instructions/Audio2.wav,890.8237123000436,890.8254227999132,2,"[6.546605299925432, 20.69993760017678]","[6.546628599986434, 20.69994920003228]",0,,,,,,,,,,,,,,,,,,,,,,,,,,,,,,,,,,,,,,,,,,,,,,,,,,,,,,,,,,,,,,,,,,,,,,,,,,,,,,,,,,,,,,,,,,,,,,,,,,,,,,,,,,,,,,,,,,,,,,,,,,,,CLY40D,train_x,red_square,top_right,2024-11-25_15h09.19.742,HideSeek_v1,2022.2.5,60.340198041971654,
,,,,,,,,,,,,,,,0,0,0,0,2,0,2,0,,,,,,,,,,,,,,,,,,,,,,,,,,,,,,,conditions/schedules/train_x_first/red_square_00/top_right/instructions/Slide3.png,conditions/schedules/train_x_first/red_square_00/top_right/instructions/Audio3.wav,911.5929836998694,911.5926361999009,3,"[6.546605299925432, 20.69993760017678, 17.095043200068176]","[6.546628599986434, 20.69994920003228, 17.095057599944994]",0,,,,,,,,,,,,,,,,,,,,,,,,,,,,,,,,,,,,,,,,,,,,,,,,,,,,,,,,,,,,,,,,,,,,,,,,,,,,,,,,,,,,,,,,,,,,,,,,,,,,,,,,,,,,,,,,,,,,,,,,,,,,CLY40D,train_x,red_square,top_right,2024-11-25_15h09.19.742,HideSeek_v1,2022.2.5,60.340198041971654,
,,,,,,,,,,,,,,,0,0,0,0,3,0,3,0,,,,,,,,,,,,,,,,,,,,,,,,,,,,,,,conditions/schedules/train_x_first/red_square_00/top_right/instructions/Slide4.png,conditions/schedules/train_x_first/red_square_00/top_right/instructions/Audio4.wav,928.7573076998815,928.7569315000437,4,"[6.546605299925432, 20.69993760017678, 17.095043200068176, 28.921495500020683]","[6.546628599986434, 20.69994920003228, 0.01444249995984137, 28.921505199978128]",0,,,,,,,,,,,,,,,,,,,,,,,,,,,,,,,,,,,,,,,,,,,,,,,,,,,,,,,,,,,,,,,,,,,,,,,,,,,,,,,,,,,,,,,,,,,,,,,,,,,,,,,,,,,,,,,,,,,,,,,,,,,,CLY40D,train_x,red_square,top_right,2024-11-25_15h09.19.742,HideSeek_v1,2022.2.5,60.340198041971654,
,,,,,,,,,,,,,,,0,0,0,0,4,0,4,0,,,,,,,,,,,,,,,,,,,,,,,,,,,,,,,conditions/schedules/train_x_first/red_square_00/top_right/instructions/Slide5.png,conditions/schedules/train_x_first/red_square_00/top_right/instructions/Audio5.wav,957.7497681998648,957.7477506999858,5,"[6.546605299925432, 20.69993760017678, 17.095043200068176, 28.921495500020683, 4.665922699961811]","[6.546628599986434, 20.69994920003228, 0.01444249995984137, 0.030808999901637435, 4.665931799914688]",0,,,,,,,,,,,,,,,,,,,,,,,,,,,,,,,,,,,,,,,,,,,,,,,,,,,,,,,,,,,,,,,,,,,,,,,,,,,,,,,,,,,,,,,,,,,,,,,,,,,,,,,,,,,,,,,,,,,,,,,,,,,,CLY40D,train_x,red_square,top_right,2024-11-25_15h09.19.742,HideSeek_v1,2022.2.5,60.340198041971654,
,,,,,,,,,,,,,,,0,0,0,0,5,0,5,0,,,,,,,,,,,,,,,,,,,,,,,,,,,,,,,conditions/schedules/train_x_first/red_square_00/top_right/instructions/Slide6.png,conditions/schedules/train_x_first/red_square_00/top_right/instructions/Audio6.wav,962.470868299948,962.4682994399219,6,"[6.546605299925432, 20.69993760017678, 17.095043200068176, 28.921495500020683, 4.665922699961811, 4.732074199942872]","[6.546628599986434, 20.69994920003228, 0.01444249995984137, 0.030808999901637435, 0.047192599857226014, 4.732083800015971]",0,,,,,,,,,,,,,,,,,,,,,,,,,,,,,,,,,,,,,,,,,,,,,,,,,,,,,,,,,,,,,,,,,,,,,,,,,,,,,,,,,,,,,,,,,,,,,,,,,,,,,,,,,,,,,,,,,,,,,,,,,,,,CLY40D,train_x,red_square,top_right,2024-11-25_15h09.19.742,HideSeek_v1,2022.2.5,60.340198041971654,
,,,,,,,,,,,,,,,0,0,0,0,6,0,6,0,,,,,,,,,,,,,,,,,,,,,,,,,,,,,,,conditions/schedules/train_x_first/red_square_00/top_right/instructions/Slide7.png,conditions/schedules/train_x_first/red_square_00/top_right/instructions/Audio7.wav,967.2545409998856,967.2556954399216,7,"[6.546605299925432, 20.69993760017678, 17.095043200068176, 28.921495500020683, 4.665922699961811, 4.732074199942872, 5.420285900123417]","[6.546628599986434, 20.69994920003228, 0.01444249995984137, 0.030808999901637435, 0.047192599857226014, 0.014612900093197823, 5.420296200085431]",0,,,,,,,,,,,,,,,,,,,,,,,,,,,,,,,,,,,,,,,,,,,,,,,,,,,,,,,,,,,,,,,,,,,,,,,,,,,,,,,,,,,,,,,,,,,,,,,,,,,,,,,,,,,,,,,,,,,,,,,,,,,,CLY40D,train_x,red_square,top_right,2024-11-25_15h09.19.742,HideSeek_v1,2022.2.5,60.340198041971654,
,,,,,,,,,,,,,,,0,0,0,0,7,0,7,0,,,,,,,,,,,,,,,,,,,,,,,,,,,,,,,conditions/schedules/train_x_first/red_square_00/top_right/instructions/Slide8.png,conditions/schedules/train_x_first/red_square_00/top_right/instructions/Audio8.wav,972.7263396999333,972.7269398400559,8,"[6.546605299925432, 20.69993760017678, 17.095043200068176, 28.921495500020683, 4.665922699961811, 4.732074199942872, 5.420285900123417, 12.041446899995208]","[6.546628599986434, 20.69994920003228, 0.01444249995984137, 0.030808999901637435, 0.047192599857226014, 0.014612900093197823, 0.03141699987463653, 12.04145749984309]",0,,,,,,,,,,,,,,,,,,,,,,,,,,,,,,,,,,,,,,,,,,,,,,,,,,,,,,,,,,,,,,,,,,,,,,,,,,,,,,,,,,,,,,,,,,,,,,,,,,,,,,,,,,,,,,,,,,,,,,,,,,,,CLY40D,train_x,red_square,top_right,2024-11-25_15h09.19.742,HideSeek_v1,2022.2.5,60.340198041971654,
,,,,,,,,,,,,,,,0,0,0,0,8,0,8,0,,,,,,,,,,,,,,,,,,,,,,,,,,,,,,,conditions/schedules/train_x_first/red_square_00/top_right/instructions/Slide9.png,conditions/schedules/train_x_first/red_square_00/top_right/instructions/Audio9.wav,984.8349180000369,984.8370012000669,9,"[6.546605299925432, 20.69993760017678, 17.095043200068176, 28.921495500020683, 4.665922699961811, 4.732074199942872, 5.420285900123417, 12.041446899995208, 6.471655300119892]","[6.546628599986434, 20.69994920003228, 0.01444249995984137, 0.030808999901637435, 0.047192599857226014, 0.014612900093197823, 0.03141699987463653, 0.05009740008972585, 6.47166489996016]",0,,,,,,,,,,,,,,,,,,,,,,,,,,,,,,,,,,,,,,,,,,,,,,,,,,,,,,,,,,,,,,,,,,,,,,,,,,,,,,,,,,,,,,,,,,,,,,,,,,,,,,,,,,,,,,,,,,,,,,,,,,,,CLY40D,train_x,red_square,top_right,2024-11-25_15h09.19.742,HideSeek_v1,2022.2.5,60.340198041971654,
,,,,,,,,,,,,,,,0,0,0,0,9,0,9,0,,,,,,,,,,,,,,,,,,,,,,,,,,,,,,,conditions/schedules/train_x_first/red_square_00/top_right/instructions/Slide10.png,conditions/schedules/train_x_first/red_square_00/top_right/instructions/Audio10.wav,991.3435907999519,991.3423904800787,10,"[6.546605299925432, 20.69993760017678, 17.095043200068176, 28.921495500020683, 4.665922699961811, 4.732074199942872, 5.420285900123417, 12.041446899995208, 6.471655300119892, 7.902708600042388]","[6.546628599986434, 20.69994920003228, 0.01444249995984137, 0.030808999901637435, 0.047192599857226014, 0.014612900093197823, 0.03141699987463653, 0.05009740008972585, 0.06428180006332695, 7.9027195000089705]",0,,,,,,,,,,,,,,,,,,,,,,,,,,,,,,,,,,,,,,,,,,,,,,,,,,,,,,,,,,,,,,,,,,,,,,,,,,,,,,,,,,,,,,,,,,,,,,,,,,,,,,,,,,,,,,,,,,,,,,,,,,,,CLY40D,train_x,red_square,top_right,2024-11-25_15h09.19.742,HideSeek_v1,2022.2.5,60.340198041971654,
,,,,,,,,,,,,,,,0,0,0,0,10,0,10,0,,,,,,,,,,,,,,,,,,,,,,,,,,,,,,,conditions/schedules/train_x_first/red_square_00/top_right/instructions/Slide11.png,conditions/schedules/train_x_first/red_square_00/top_right/instructions/Audio11.wav,999.3167011998594,999.3155984999612,11,"[6.546605299925432, 20.69993760017678, 17.095043200068176, 28.921495500020683, 4.665922699961811, 4.732074199942872, 5.420285900123417, 12.041446899995208, 6.471655300119892, 7.902708600042388, 10.188268099911511]","[6.546628599986434, 20.69994920003228, 0.01444249995984137, 0.030808999901637435, 0.047192599857226014, 0.014612900093197823, 0.03141699987463653, 0.05009740008972585, 0.06428180006332695, 0.046962699852883816, 10.188278099987656]",0,,,,,,,,,,,,,,,,,,,,,,,,,,,,,,,,,,,,,,,,,,,,,,,,,,,,,,,,,,,,,,,,,,,,,,,,,,,,,,,,,,,,,,,,,,,,,,,,,,,,,,,,,,,,,,,,,,,,,,,,,,,,CLY40D,train_x,red_square,top_right,2024-11-25_15h09.19.742,HideSeek_v1,2022.2.5,60.340198041971654,
,,,,,,,,,,,,,,,0,0,0,0,11,0,11,0,,,,,,,,,,,,,,,,,,,,,,,,,,,,,,,conditions/schedules/train_x_first/red_square_00/top_right/instructions/Slide12.png,conditions/schedules/train_x_first/red_square_00/top_right/instructions/Audio12.wav,1009.5743509000167,1009.5739716999233,12,"[6.546605299925432, 20.69993760017678, 17.095043200068176, 28.921495500020683, 4.665922699961811, 4.732074199942872, 5.420285900123417, 12.041446899995208, 6.471655300119892, 7.902708600042388, 10.188268099911511, 12.94071609992534]","[6.546628599986434, 20.69994920003228, 0.01444249995984137, 0.030808999901637435, 0.047192599857226014, 0.014612900093197823, 0.03141699987463653, 0.05009740008972585, 0.06428180006332695, 0.046962699852883816, 0.013799299951642752, 12.940724899992347]",0,,,,,,,,,,,,,,,,,,,,,,,,,,,,,,,,,,,,,,,,,,,,,,,,,,,,,,,,,,,,,,,,,,,,,,,,,,,,,,,,,,,,,,,,,,,,,,,,,,,,,,,,,,,,,,,,,,,,,,,,,,,,CLY40D,train_x,red_square,top_right,2024-11-25_15h09.19.742,HideSeek_v1,2022.2.5,60.340198041971654,
1,8,7,3,7,-5,0,66,2,instr_dim1_1,,,,,,0,0,0,0,,,,,0,0,0,0,,,,,,,,,,,,,,,,,,,,,,,,,,,,,,,,,,,,,stimuli/alien_stimuli/66.png,conditions/schedules/train_x_first/red_square_00/top_right/inputInstr_1.xlsx,stimuli/alien_stimuli/66.png,1022.621609200025,1022.621609200025,1022.621609200025,1022.621609200025,1022.6178843201137,return,12.507454599952325,"[-0.16, -0.08, 0, 0.08, 0.16, 0.24, 0.32, 0.4, 0.48, 0.56]","[-0.4, -0.32, -0.24, -0.16, -0.08, 0, 0.08, 0.16, 0.24, 0.32]",7,7,3,8,0.0,0.4,1035.3193157999776,1035.3193157999776,1035.3193157999776,1035.3193157999776,1035.3193157999776,1035.3193157999776,1035.3193157999776,1035.3119388001505,0.36771999998018146,return,0.18185109994374216,stimuli/alien_stimuli/66.png,66,8,1,,,,,,,,,,,,,,,,,,,,,,,,,,,,,,,,,,,,,,,,,,,,,,,,,,,,,,,,,,,,,,,,,,,,,,,,,,,,,,,,,,,,,,,,,CLY40D,train_x,red_square,top_right,2024-11-25_15h09.19.742,HideSeek_v1,2022.2.5,60.340198041971654,
,,,,,,,,,,,30,,,,0,0,0,0,,,,,,,,,,,,,,,,,,,,,,,,,,,,,,,,,,,,,,,,,,,,,,,,,,,,,,,,,,,,,,,,,,,,,,,,,,,,,,17,0.7,0,0,99,1,30,0,conditions/schedules/train_x_first/red_square_00/top_right/inputTrain_1.1.xlsx,99,1,1,1,0,,,,,,,,,,,,,,,,,,,,,,,,,,,,,,,,,,,,,,,,,,,,,,,,,,,,,,,,,,,,,,,,,,,,,,,,,,,CLY40D,train_x,red_square,top_right,2024-11-25_15h09.19.742,HideSeek_v1,2022.2.5,60.340198041971654,
,,,,,,,,,,,,,,,1,0,1,0,0,0,0,0,,,,,,,,,,,,,,,,,,,,,,,,,,,,,,,conditions/schedules/train_x_first/red_square_00/top_right/instructions/Slide13.png,conditions/schedules/train_x_first/red_square_00/top_right/instructions/Audio13.wav,1035.6861630999483,1035.6786625001114,13,"[6.546605299925432, 20.69993760017678, 17.095043200068176, 28.921495500020683, 4.665922699961811, 4.732074199942872, 5.420285900123417, 12.041446899995208, 6.471655300119892, 7.902708600042388, 10.188268099911511, 12.94071609992534, 34.0845995999407]","[6.546628599986434, 20.69994920003228, 0.01444249995984137, 0.030808999901637435, 0.047192599857226014, 0.014612900093197823, 0.03141699987463653, 0.05009740008972585, 0.06428180006332695, 0.046962699852883816, 0.013799299951642752, 12.940724899992347, 34.08460750011727]",0,,,,,,,,,,,,,,,,,,,,,,,,,,,,,,,,,,,,,,,,,,,,,,,,,,,,,,,,,,,,,,,,,,,,,,,,,,,,,,,,,,,,,,,,,,,,,,,,,,,,,,,,,,,,,,,,,,,,,,,,,,,,CLY40D,train_x,red_square,top_right,2024-11-25_15h09.19.742,HideSeek_v1,2022.2.5,60.340198041971654,
,,,,,,,,,,,,,,,1,0,1,0,1,0,1,0,,,,,,,,,,,,,,,,,,,,,,,,,,,,,,,conditions/schedules/train_x_first/red_square_00/top_right/instructions/Slide14.png,conditions/schedules/train_x_first/red_square_00/top_right/instructions/Audio14.wav,1069.8460803998169,1069.8404302001,14,"[6.546605299925432, 20.69993760017678, 17.095043200068176, 28.921495500020683, 4.665922699961811, 4.732074199942872, 5.420285900123417, 12.041446899995208, 6.471655300119892, 7.902708600042388, 10.188268099911511, 12.94071609992534, 34.0845995999407, 12.93646080000326]","[6.546628599986434, 20.69994920003228, 0.01444249995984137, 0.030808999901637435, 0.047192599857226014, 0.014612900093197823, 0.03141699987463653, 0.05009740008972585, 0.06428180006332695, 0.046962699852883816, 0.013799299951642752, 12.940724899992347, 0.013774699997156858, 12.936470799846575]",0,,,,,,,,,,,,,,,,,,,,,,,,,,,,,,,,,,,,,,,,,,,,,,,,,,,,,,,,,,,,,,,,,,,,,,,,,,,,,,,,,,,,,,,,,,,,,,,,,,,,,,,,,,,,,,,,,,,,,,,,,,,,CLY40D,train_x,red_square,top_right,2024-11-25_15h09.19.742,HideSeek_v1,2022.2.5,60.340198041971654,
2,9,5,9,5,0,0,16,2,instr_dim1_1,,,,,,1,0,1,0,,,,,0,0,0,0,,,,,,,,,,,,,,,,,,,,,,,,,,,,,,,,,,,,,stimuli/alien_stimuli/16.png,conditions/schedules/train_x_first/red_square_00/top_right/inputInstr_1.xlsx,stimuli/alien_stimuli/16.png,1082.9017562998924,1082.9017562998924,1082.9017562998924,1082.9017562998924,1082.9018829801118,return,6.909248600015417,"[-0.16, -0.08, 0, 0.08, 0.16, 0.24, 0.32, 0.4, 0.48, 0.56]","[-0.4, -0.32, -0.24, -0.16, -0.08, 0, 0.08, 0.16, 0.24, 0.32]",5,5,9,9,0.0,0.0,1089.9902714998461,1089.9902714998461,1089.9902714998461,1089.9902714998461,1089.9902714998461,1089.9902714998461,1089.9902714998461,1089.9739737399389,0.21862590010277927,return,0.048659299965947866,stimuli/alien_stimuli/16.png,16,9,2,,,,,,,,,,,,,,,,,,,,,,,,,,,,,,,,,,,,,,,,,,,,,,,,,,,,,,,,,,,,,,,,,,,,,,,,,,,,,,,,,,,,,,,,,CLY40D,train_x,red_square,top_right,2024-11-25_15h09.19.742,HideSeek_v1,2022.2.5,60.340198041971654,
,,,,,,,,,,,30,,,,1,0,1,0,,,,,,,,,,,,,,,,,,,,,,,,,,,,,,,,,,,,,,,,,,,,,,,,,,,,,,,,,,,,,,,,,,,,,,,,,,,,,,17,0.7,0,0,99,1,30,0,conditions/schedules/train_x_first/red_square_00/top_right/inputTrain_1.1.xlsx,99,1,1,1,0,,,,,,,,,,,,,,,,,,,,,,,,,,,,,,,,,,,,,,,,,,,,,,,,,,,,,,,,,,,,,,,,,,,,,,,,,,,CLY40D,train_x,red_square,top_right,2024-11-25_15h09.19.742,HideSeek_v1,2022.2.5,60.340198041971654,
,,,,,,,,,,,,,,,2,0,2,0,0,0,0,0,,,,,,,,,,,,,,,,,,,,,,,,,,,,,,,conditions/schedules/train_x_first/red_square_00/top_right/instructions/Slide15.png,conditions/schedules/train_x_first/red_square_00/top_right/instructions/Audio15.wav,1090.2171314000152,1090.2080250999425,15,"[6.546605299925432, 20.69993760017678, 17.095043200068176, 28.921495500020683, 4.665922699961811, 4.732074199942872, 5.420285900123417, 12.041446899995208, 6.471655300119892, 7.902708600042388, 10.188268099911511, 12.94071609992534, 34.0845995999407, 12.93646080000326, 55.36792859993875]","[6.546628599986434, 20.69994920003228, 0.01444249995984137, 0.030808999901637435, 0.047192599857226014, 0.014612900093197823, 0.03141699987463653, 0.05009740008972585, 0.06428180006332695, 0.046962699852883816, 0.013799299951642752, 12.940724899992347, 0.013774699997156858, 12.936470799846575, 55.36793680000119]",0,,,,,,,,,,,,,,,,,,,,,,,,,,,,,,,,,,,,,,,,,,,,,,,,,,,,,,,,,,,,,,,,,,,,,,,,,,,,,,,,,,,,,,,,,,,,,,,,,,,,,,,,,,,,,,,,,,,,,,,,,,,,CLY40D,train_x,red_square,top_right,2024-11-25_15h09.19.742,HideSeek_v1,2022.2.5,60.340198041971654,
,,,,,,,,,,,,,,,2,0,2,0,1,0,1,0,,,,,,,,,,,,,,,,,,,,,,,,,,,,,,,conditions/schedules/train_x_first/red_square_00/top_right/instructions/Slide16.png,conditions/schedules/train_x_first/red_square_00/top_right/instructions/Audio16.wav,1145.6464283999521,1145.637268740032,16,"[6.546605299925432, 20.69993760017678, 17.095043200068176, 28.921495500020683, 4.665922699961811, 4.732074199942872, 5.420285900123417, 12.041446899995208, 6.471655300119892, 7.902708600042388, 10.188268099911511, 12.94071609992534, 34.0845995999407, 12.93646080000326, 55.36792859993875, 22.67381429998204]","[6.546628599986434, 20.69994920003228, 0.01444249995984137, 0.030808999901637435, 0.047192599857226014, 0.014612900093197823, 0.03141699987463653, 0.05009740008972585, 0.06428180006332695, 0.046962699852883816, 0.013799299951642752, 12.940724899992347, 0.013774699997156858, 12.936470799846575, 0.014116200152784586, 22.67382450005971]",0,,,,,,,,,,,,,,,,,,,,,,,,,,,,,,,,,,,,,,,,,,,,,,,,,,,,,,,,,,,,,,,,,,,,,,,,,,,,,,,,,,,,,,,,,,,,,,,,,,,,,,,,,,,,,,,,,,,,,,,,,,,,CLY40D,train_x,red_square,top_right,2024-11-25_15h09.19.742,HideSeek_v1,2022.2.5,60.340198041971654,
,7,6,5,6,-2,0,36,,train_dim1_1,1,30,,,,2,0,2,0,,,,,,,,,0,0,0,0,0,0,0,0,0,0,0,0,,,,,,,,,,,,,,,,,,,,,,,,,stimuli/alien_stimuli/36.png,,,,,,,,,,,,,,,,,,,,,,,,,,,,,,,,,,,,,,,30,,,,,,,,1168.422730299877,1168.422730299877,1168.422730299877,1168.422730299877,1168.422730299877,left,10.401883699931204,0,0,0,99,0.32,0.08,left,10.303617099998519,,,,,,,,,,,,,,,,,,,,,,,,,,,,,,,,,,,,,,,,,,,,,,,,,,,,,,,,,,,,CLY40D,train_x,red_square,top_right,2024-11-25_15h09.19.742,HideSeek_v1,2022.2.5,60.340198041971654,
,7,6,5,6,-2,0,36,,train_dim1_1,1,30,,,,2,0,2,0,,,,,,,,,0,0,0,0,0,0,0,0,1,0,1,0,,,,,,,,,,,,,,,,,,,,,,,,,,,,,,,,,,,,,,,,,,,,,,,,,,,,,,,,,,,,,,,,30,,,,,,,,1178.8288193999324,1178.8288193999324,1178.8288193999324,1178.8288193999324,1178.8288193999324,left,0.193187499884516,0,0,0,99,0.24,0.08,left,0.09129000012762845,,,,,,,,,,,,,,,,,,,,,,,,,,,,,,,,,,,,,,,,,,,,,,,,,,,,,,,,,,,,CLY40D,train_x,red_square,top_right,2024-11-25_15h09.19.742,HideSeek_v1,2022.2.5,60.340198041971654,
,7,6,5,6,-2,0,36,,train_dim1_1,1,30,,,,2,0,2,0,,,,,,,,,0,0,0,0,0,0,0,0,2,0,2,0,,,,,,,,,,,,,,,,,,,,,,,,,,,,,,,,,,,,,,,,,,,,,,,,,,,,,,,,,,,,,,,,30,,,,,,,,1179.0213068998419,1179.0213068998419,1179.0213068998419,1179.0213068998419,1179.0213068998419,left,1.4259118000045419,0,0,0,99,0.15999999999999998,0.08,left,1.337534299818799,,,,,,,,,,,,,,,,,,,,,,,,,,,,,,,,,,,,,,,,,,,,,,,,,,,,,,,,,,,,CLY40D,train_x,red_square,top_right,2024-11-25_15h09.19.742,HideSeek_v1,2022.2.5,60.340198041971654,
,7,6,5,6,-2,0,36,,train_dim1_1,1,30,,,,2,0,2,0,,,,,,,,,0,0,0,0,0,0,0,0,3,0,3,0,,,,,,,,,,,,,,,,,,,,,,,,,,,,,,,,,,,,,,,,,,,,,,,,,,,,,,,,,,,,,,,,30,,,,,,,,1180.4461782998405,1180.4461782998405,1180.4461782998405,1180.4461782998405,1180.4461782998405,left,0.17649420001544058,0,0,0,99,0.07999999999999997,0.08,left,0.08905750000849366,,,,,,,,,,,,,,,,,,,,,,,,,,,,,,,,,,,,,,,,,,,,,,,,,,,,,,,,,,,,CLY40D,train_x,red_square,top_right,2024-11-25_15h09.19.742,HideSeek_v1,2022.2.5,60.340198041971654,
,7,6,5,6,-2,0,36,,train_dim1_1,1,30,,,,2,0,2,0,,,,,,,,,0,0,0,0,0,0,0,0,4,0,4,0,,,,,,,,,,,,,,,,,,,,,,,,,,,,,,,,,,,,,,,,,,,,,,,,,,,,,,,,,,,,,,,,30,,,,,,,,1180.633160599973,1180.633160599973,1180.633160599973,1180.633160599973,1180.633160599973,up,7.665783100062981,0,0,0,99,0.07999999999999997,0.16,up,7.5902235000394285,,,,,,,,,,,,,,,,,,,,,,,,,,,,,,,,,,,,,,,,,,,,,,,,,,,,,,,,,,,,CLY40D,train_x,red_square,top_right,2024-11-25_15h09.19.742,HideSeek_v1,2022.2.5,60.340198041971654,
,7,6,5,6,-2,0,36,,train_dim1_1,1,30,,,,2,0,2,0,,,,,,,,,0,0,0,0,0,0,0,0,5,0,5,0,,,,,,,,,,,,,,,,,,,,,,,,,,,,,,,,,,,,,,,,,,,,,,,,,,,,,,,,,,,,,,,,30,,,,,,,,1188.3031186000444,1188.3031186000444,1188.3031186000444,1188.3031186000444,1188.3031186000444,up,0.3437344999983907,0,0,0,99,0.07999999999999997,0.24,up,0.2574297001119703,,,,,,,,,,,,,,,,,,,,,,,,,,,,,,,,,,,,,,,,,,,,,,,,,,,,,,,,,,,,CLY40D,train_x,red_square,top_right,2024-11-25_15h09.19.742,HideSeek_v1,2022.2.5,60.340198041971654,
,7,6,5,6,-2,0,36,,train_dim1_1,1,30,,,,2,0,2,0,,,,,,,,,0,0,0,0,0,0,0,0,6,0,6,0,,,,,,,,,,,,,,,,,,,,,,,,,,,,,,,,,,,,,,,,,,,,,,,,,,,,,,,,,,,,,,,,30,,,,,,,,1188.6547979998868,1188.6547979998868,1188.6547979998868,1188.6547979998868,1188.6547979998868,down,6.865197899984196,0,0,0,99,0.07999999999999997,0.15999999999999998,down,6.789114099927247,,,,,,,,,,,,,,,,,,,,,,,,,,,,,,,,,,,,,,,,,,,,,,,,,,,,,,,,,,,,CLY40D,train_x,red_square,top_right,2024-11-25_15h09.19.742,HideSeek_v1,2022.2.5,60.340198041971654,
,7,6,5,6,-2,0,36,,train_dim1_1,1,30,,,,2,0,2,0,,,,,,,,,0,0,0,0,0,0,0,0,7,0,7,0,,,,,,,,,,,,,,,,,,,,,,,,,,,,,,,,,,,,,,,,,,,,,,,,,,,,,,,,,,,,,,,,30,,,,,,,,1195.5288344998844,1195.5288344998844,1195.5288344998844,1195.5288344998844,1195.5288344998844,down,9.984612800180912,0,0,0,99,0.07999999999999997,0.07999999999999997,down,9.897992700105533,,,,,,,,,,,,,,,,,,,,,,,,,,,,,,,,,,,,,,,,,,,,,,,,,,,,,,,,,,,,CLY40D,train_x,red_square,top_right,2024-11-25_15h09.19.742,HideSeek_v1,2022.2.5,60.340198041971654,
,7,6,5,6,-2,0,36,,train_dim1_1,1,30,,,,2,0,2,0,,,,,,,,,0,0,0,0,0,0,0,0,8,0,8,0,,,,,,,,,,,,,,,,,,,,,,,,,,,,,,,,,,,,,,,,,,,,,,,,,,,,,,,,,,,,,,,,30,,,,,,,,1205.5172804999165,1205.5172804999165,1205.5172804999165,1205.5172804999165,1205.5172804999165,down,1.1772533000912517,0,0,0,99,0.07999999999999997,-2.7755575615628914e-17,down,1.1036618000362068,,,,,,,,,,,,,,,,,,,,,,,,,,,,,,,,,,,,,,,,,,,,,,,,,,,,,,,,,,,,CLY40D,train_x,red_square,top_right,2024-11-25_15h09.19.742,HideSeek_v1,2022.2.5,60.340198041971654,
,7,6,5,6,-2,0,36,,train_dim1_1,1,30,,,,2,0,2,0,,,,,,,,,0,0,0,0,0,0,0,0,9,0,9,0,,,,,,,,,,,,,,,,,,,,,,,,,,,,,,,,,,,,,,,,,,,,,,,,,,,,,,,,,,,,,,,,30,,,,,,,,1206.7009771999437,1206.7009771999437,1206.7009771999437,1206.7009771999437,1206.7009771999437,down,0.8937728998716921,0,0,0,99,0.07999999999999997,-0.08000000000000003,down,0.8162157998885959,,,,,,,,,,,,,,,,,,,,,,,,,,,,,,,,,,,,,,,,,,,,,,,,,,,,,,,,,,,,CLY40D,train_x,red_square,top_right,2024-11-25_15h09.19.742,HideSeek_v1,2022.2.5,60.340198041971654,
,7,6,5,6,-2,0,36,,train_dim1_1,1,30,,,,2,0,2,0,,,,,,,,,0,0,0,0,0,0,0,0,10,0,10,0,,,,,,,,,,,,,,,,,,,,,,,,,,,,,,,,,,,,,,,,,,,,,,,,,,,,,,,,,,,,,,,,30,,,,,,,,1207.603121299995,1207.603121299995,1207.603121299995,1207.603121299995,1207.603121299995,down,1.1937353999819607,0,0,0,99,0.07999999999999997,-0.16000000000000003,down,1.1153262997977436,,,,,,,,,,,,,,,,,,,,,,,,,,,,,,,,,,,,,,,,,,,,,,,,,,,,,,,,,,,,CLY40D,train_x,red_square,top_right,2024-11-25_15h09.19.742,HideSeek_v1,2022.2.5,60.340198041971654,
,7,6,5,6,-2,0,36,,train_dim1_1,1,30,,,,2,0,2,0,,,,,,,,,0,0,0,0,0,0,0,0,11,0,11,0,,,,,,,,,,,,,,,,,,,,,,,,,,,,,,,,,,,,,,,,,,,,,,,,,,,,,,,,,,,,,,,,30,,,,,,,,1208.802331399871,1208.802331399871,1208.802331399871,1208.802331399871,1208.802331399871,down,0.49338799994438887,0,0,0,99,0.07999999999999997,-0.24000000000000005,down,0.419644600013271,,,,,,,,,,,,,,,,,,,,,,,,,,,,,,,,,,,,,,,,,,,,,,,,,,,,,,,,,,,,CLY40D,train_x,red_square,top_right,2024-11-25_15h09.19.742,HideSeek_v1,2022.2.5,60.340198041971654,
,7,6,5,6,-2,0,36,,train_dim1_1,1,30,,,,2,0,2,0,,,,,,,,,0,0,0,0,0,0,0,0,12,0,12,0,,,,,,,,,,,,,,,,,,,,,,,,,,,,,,,,,,,,,,,,,,,,,,,,,,,,,,,,,,,,,,,,30,,,,,,,,1209.3048520998564,1209.3048520998564,1209.3048520998564,1209.3048520998564,1209.3048520998564,right,1.76067900005728,0,0,0,99,0.15999999999999998,-0.24000000000000005,right,1.679194200085476,,,,,,,,,,,,,,,,,,,,,,,,,,,,,,,,,,,,,,,,,,,,,,,,,,,,,,,,,,,,CLY40D,train_x,red_square,top_right,2024-11-25_15h09.19.742,HideSeek_v1,2022.2.5,60.340198041971654,
,7,6,5,6,-2,0,36,,train_dim1_1,1,30,,,,2,0,2,0,,,,,,,,,0,0,0,0,0,0,0,0,13,0,13,0,,,,,,,,,,,,,,,,,,,,,,,,,,,,,,,,,,,,,,,,,,,,,,,,,,,,,,,,,,,,,,,,30,,,,,,,,1211.074355599936,1211.074355599936,1211.074355599936,1211.074355599936,1211.074355599936,right,0.1758697999175638,0,0,0,99,0.24,-0.24000000000000005,right,0.0852325998712331,,,,,,,,,,,,,,,,,,,,,,,,,,,,,,,,,,,,,,,,,,,,,,,,,,,,,,,,,,,,CLY40D,train_x,red_square,top_right,2024-11-25_15h09.19.742,HideSeek_v1,2022.2.5,60.340198041971654,
,7,6,5,6,-2,0,36,,train_dim1_1,1,30,,,,2,0,2,0,,,,,,,,,0,0,0,0,0,0,0,0,14,0,14,0,,,,,,,,,,,,,,,,,,,,,,,,,,,,,,,,,,,,,,,,,,,,,,,,,,,,,,,,,,,,,,,,30,,,,,,,,1211.2581756999716,1211.2581756999716,1211.2581756999716,1211.2581756999716,1211.2581756999716,right,0.20948920003138483,0,0,0,99,0.32,-0.24000000000000005,right,0.11886440007947385,,,,,,,,,,,,,,,,,,,,,,,,,,,,,,,,,,,,,,,,,,,,,,,,,,,,,,,,,,,,CLY40D,train_x,red_square,top_right,2024-11-25_15h09.19.742,HideSeek_v1,2022.2.5,60.340198041971654,
,7,6,5,6,-2,0,36,,train_dim1_1,1,30,,,,2,0,2,0,,,,,,,,,0,0,0,0,0,0,0,0,15,0,15,0,,,,,,,,,,,,,,,,,,,,,,,,,,,,,,,,,,,,,,,,,,,,,,,,,,,,,,,,,,,,,,,,30,,,,,,,,1211.4732466000132,1211.4732466000132,1211.4732466000132,1211.4732466000132,1211.4732466000132,right,1.294283000053838,0,0,0,99,0.4,-0.24000000000000005,right,1.2069685000460595,,,,,,,,,,,,,,,,,,,,,,,,,,,,,,,,,,,,,,,,,,,,,,,,,,,,,,,,,,,,CLY40D,train_x,red_square,top_right,2024-11-25_15h09.19.742,HideSeek_v1,2022.2.5,60.340198041971654,
,7,6,5,6,-2,0,36,,train_dim1_1,1,30,,,,2,0,2,0,,,,,,,,,0,0,0,0,0,0,0,0,16,0,16,0,,,,,,,,,,,,,,,,,,,,,,,,,,,,,,,,,,,,,,,,,,,,,,,,,,,,,,,,,,,,,,,,30,,,,,,,,1212.7747422000393,1212.7747422000393,1212.7747422000393,1212.7747422000393,1212.7747422000393,right,0.19317759992554784,0,0,0,99,0.48000000000000004,-0.24000000000000005,right,0.1177666001021862,,,,,,,,,,,,,,,,,,,,,,,,,,,,,,,,,,,,,,,,,,,,,,,,,,,,,,,,,,,,CLY40D,train_x,red_square,top_right,2024-11-25_15h09.19.742,HideSeek_v1,2022.2.5,60.340198041971654,
,7,6,5,6,-2,0,36,,train_dim1_1,1,30,,,,2,0,2,0,,,,,,,,,0,0,0,0,0,0,0,0,17,0,17,0,,,,,,,,,,,,,,,,,,,,,,,,,,,,,,,,,,,,,,,,,,,,,,,,,,,,,,,,,,,,,,,,30,,,,,,,,1212.9753153999336,1212.9753153999336,1212.9753153999336,1212.9753153999336,1212.9753153999336,right,1.1773289002012461,0,0,0,99,0.56,-0.24000000000000005,right,1.092798599973321,,,,,,,,,,,,,,,,,,,,,,,,,,,,,,,,,,,,,,,,,,,,,,,,,,,,,,,,,,,,CLY40D,train_x,red_square,top_right,2024-11-25_15h09.19.742,HideSeek_v1,2022.2.5,60.340198041971654,
,7,6,5,6,-2,0,36,,train_dim1_1,1,30,,,,2,0,2,0,,,,,,,,,0,0,0,0,0,0,0,0,18,0,18,0,,,,,,,,,,,,,,,,,,,,,,,,,,,,,,,,,,,,,,,,,,,,,,,,,,,,,,,,,,,,,,,,30,,,,,,,,1214.159023199929,1214.159023199929,1214.159023199929,1214.159023199929,1214.159023199929,right,0.12688610004261136,0,0,0,99,0.64,-0.24000000000000005,right,0.041389300022274256,,,,,,,,,,,,,,,,,,,,,,,,,,,,,,,,,,,,,,,,,,,,,,,,,,,,,,,,,,,,CLY40D,train_x,red_square,top_right,2024-11-25_15h09.19.742,HideSeek_v1,2022.2.5,60.340198041971654,
,7,6,5,6,-2,0,36,,train_dim1_1,1,30,,,,2,0,2,0,,,,,,,,,0,0,0,0,0,0,0,0,19,0,19,0,,,,,,,,,,,,,,,,,,,,,,,,,,,,,,,,,,,,,,,,,,,,,,,,,,,,,,,,,,,,,,,,30,,,,,,,,1214.2940370999277,1214.2940370999277,1214.2940370999277,1214.2940370999277,1214.2940370999277,up,1.5938695000950247,0,0,0,99,0.64,-0.16000000000000003,up,1.5122389001771808,,,,,,,,,,,,,,,,,,,,,,,,,,,,,,,,,,,,,,,,,,,,,,,,,,,,,,,,,,,,CLY40D,train_x,red_square,top_right,2024-11-25_15h09.19.742,HideSeek_v1,2022.2.5,60.340198041971654,
,7,6,5,6,-2,0,36,,train_dim1_1,1,30,,,,2,0,2,0,,,,,,,,,0,0,0,0,0,0,0,0,20,0,20,0,,,,,,,,,,,,,,,,,,,,,,,,,,,,,,,,,,,,,,,,,,,,,,,,,,,,,,,,,,,,,,,,30,,,,,,,,1215.8935697998386,1215.8935697998386,1215.8935697998386,1215.8935697998386,1215.8935697998386,left,1.010860500158742,0,0,0,99,0.56,-0.16000000000000003,left,0.9268334000371397,,,,,,,,,,,,,,,,,,,,,,,,,,,,,,,,,,,,,,,,,,,,,,,,,,,,,,,,,,,,CLY40D,train_x,red_square,top_right,2024-11-25_15h09.19.742,HideSeek_v1,2022.2.5,60.340198041971654,
,7,6,5,6,-2,0,36,,train_dim1_1,1,30,,,,2,0,2,0,,,,,,,,,0,0,0,0,0,0,0,0,21,0,21,0,,,,,,,,,,,,,,,,,,,,,,,,,,,,,,,,,,,,,,,,,,,,,,,,,,,,,,,,,,,,,,,,30,,,,,,,,1216.9102302999236,1216.9102302999236,1216.9102302999236,1216.9102302999236,1216.9102302999236,left,0.27666909992694855,0,0,0,99,0.48000000000000004,-0.16000000000000003,left,0.19703439995646477,,,,,,,,,,,,,,,,,,,,,,,,,,,,,,,,,,,,,,,,,,,,,,,,,,,,,,,,,,,,CLY40D,train_x,red_square,top_right,2024-11-25_15h09.19.742,HideSeek_v1,2022.2.5,60.340198041971654,
,7,6,5,6,-2,0,36,,train_dim1_1,1,30,,,,2,0,2,0,,,,,,,,,0,0,0,0,0,0,0,0,22,0,22,0,,,,,,,,,,,,,,,,,,,,,,,,,,,,,,,,,,,,,,,,,,,,,,,,,,,,,,,,,,,,,,,,30,,,,,,,,1217.1969943998847,1217.1969943998847,1217.1969943998847,1217.1969943998847,1217.1969943998847,right,1.110514200059697,0,0,0,99,0.56,-0.16000000000000003,right,1.0252961998339742,,,,,,,,,,,,,,,,,,,,,,,,,,,,,,,,,,,,,,,,,,,,,,,,,,,,,,,,,,,,CLY40D,train_x,red_square,top_right,2024-11-25_15h09.19.742,HideSeek_v1,2022.2.5,60.340198041971654,
,7,6,5,6,-2,0,36,,train_dim1_1,1,30,,,,2,0,2,0,,,,,,,,,0,0,0,0,0,0,0,0,23,0,23,0,,,,,,,,,,,,,,,,,,,,,,,,,,,,,,,,,,,,,,,,,,,,,,,,,,,,,,,,,,,,,,,,30,,,,,,,,1218.3143356000073,1218.3143356000073,1218.3143356000073,1218.3143356000073,1218.3143356000073,return,1.5440169000066817,0,0,0,0,0.56,-0.16000000000000003,return,1.4522895000409335,-3,2,0.56,-0.16000000000000003,,,,,,,,,,,,,,,,,,,,,,,,,,,,,,,,,,,,,,,,,,,,,,,,,,,,,,,,CLY40D,train_x,red_square,top_right,2024-11-25_15h09.19.742,HideSeek_v1,2022.2.5,60.340198041971654,
,7,9,7,9,0,0,16,,train_dim1_1,2,30,,,,2,0,2,0,,,,,,,,,0,0,0,0,0,1,1,1,0,0,0,0,,,,,,,,,,,,,,,,,,,,,,,,,stimuli/alien_stimuli/16.png,,,,,,,,,,,,,,,,,,,,,,,,,,,,,stimuli/alien_stimuli/36.png,36,7,3,,,,,,,30,,,,,,,,1235.2553446998354,1235.2553446998354,1235.2553446998354,1235.2553446998354,1235.2553446998354,down,2.154045599978417,0,0,0,99,0.4,0.24,down,2.029108199989423,,,,,1233.6602578000166,1235.2553446998354,0.24,0.08,0.0,0.16,0.08,0.24,0.32,0.24,0.08,1221.4362282999791,1221.4362282999791,1221.4362282999791,1221.4362282999791,1221.4362282999791,1221.4362282999791,1221.4362282999791,1221.4362282999791,1221.4166127200237,12.345859199995175,return,12.194591999985278,,,,,,,,,,,,,,,,,,,,,,,,,,,,,,,,,CLY40D,train_x,red_square,top_right,2024-11-25_15h09.19.742,HideSeek_v1,2022.2.5,60.340198041971654,
,7,9,7,9,0,0,16,,train_dim1_1,2,30,,,,2,0,2,0,,,,,,,,,0,0,0,0,0,1,1,1,1,0,1,0,,,,,,,,,,,,,,,,,,,,,,,,,,,,,,,,,,,,,,,,,,,,,,,,,,,,,,,,,,,,,,,,30,,,,,,,,1237.3846682999283,1237.3846682999283,1237.3846682999283,1237.3846682999283,1237.3846682999283,down,0.5929419999010861,0,0,0,99,0.4,0.15999999999999998,down,0.49793760012835264,,,,,,,,,,,,,,,,,,,,,,,,,,,,,,,,,,,,,,,,,,,,,,,,,,,,,,,,,,,,CLY40D,train_x,red_square,top_right,2024-11-25_15h09.19.742,HideSeek_v1,2022.2.5,60.340198041971654,
,7,9,7,9,0,0,16,,train_dim1_1,2,30,,,,2,0,2,0,,,,,,,,,0,0,0,0,0,1,1,1,2,0,2,0,,,,,,,,,,,,,,,,,,,,,,,,,,,,,,,,,,,,,,,,,,,,,,,,,,,,,,,,,,,,,,,,30,,,,,,,,1237.9811805000063,1237.9811805000063,1237.9811805000063,1237.9811805000063,1237.9811805000063,down,0.5601951000280678,0,0,0,99,0.4,0.07999999999999997,down,0.4734930000267923,,,,,,,,,,,,,,,,,,,,,,,,,,,,,,,,,,,,,,,,,,,,,,,,,,,,,,,,,,,,CLY40D,train_x,red_square,top_right,2024-11-25_15h09.19.742,HideSeek_v1,2022.2.5,60.340198041971654,
,7,9,7,9,0,0,16,,train_dim1_1,2,30,,,,2,0,2,0,,,,,,,,,0,0,0,0,0,1,1,1,3,0,3,0,,,,,,,,,,,,,,,,,,,,,,,,,,,,,,,,,,,,,,,,,,,,,,,,,,,,,,,,,,,,,,,,30,,,,,,,,1238.5499140999746,1238.5499140999746,1238.5499140999746,1238.5499140999746,1238.5499140999746,down,0.7600264998618513,0,0,0,99,0.4,-2.7755575615628914e-17,down,0.6800275999121368,,,,,,,,,,,,,,,,,,,,,,,,,,,,,,,,,,,,,,,,,,,,,,,,,,,,,,,,,,,,CLY40D,train_x,red_square,top_right,2024-11-25_15h09.19.742,HideSeek_v1,2022.2.5,60.340198041971654,
,7,9,7,9,0,0,16,,train_dim1_1,2,30,,,,2,0,2,0,,,,,,,,,0,0,0,0,0,1,1,1,4,0,4,0,,,,,,,,,,,,,,,,,,,,,,,,,,,,,,,,,,,,,,,,,,,,,,,,,,,,,,,,,,,,,,,,30,,,,,,,,1239.317233499838,1239.317233499838,1239.317233499838,1239.317233499838,1239.317233499838,down,0.4763254001736641,0,0,0,99,0.4,-0.08000000000000003,down,0.38952560001052916,,,,,,,,,,,,,,,,,,,,,,,,,,,,,,,,,,,,,,,,,,,,,,,,,,,,,,,,,,,,CLY40D,train_x,red_square,top_right,2024-11-25_15h09.19.742,HideSeek_v1,2022.2.5,60.340198041971654,
,7,9,7,9,0,0,16,,train_dim1_1,2,30,,,,2,0,2,0,,,,,,,,,0,0,0,0,0,1,1,1,5,0,5,0,,,,,,,,,,,,,,,,,,,,,,,,,,,,,,,,,,,,,,,,,,,,,,,,,,,,,,,,,,,,,,,,30,,,,,,,,1239.800468500005,1239.800468500005,1239.800468500005,1239.800468500005,1239.800468500005,down,0.1767802000977099,0,0,0,99,0.4,-0.16000000000000003,down,0.08609270001761615,,,,,,,,,,,,,,,,,,,,,,,,,,,,,,,,,,,,,,,,,,,,,,,,,,,,,,,,,,,,CLY40D,train_x,red_square,top_right,2024-11-25_15h09.19.742,HideSeek_v1,2022.2.5,60.340198041971654,
,7,9,7,9,0,0,16,,train_dim1_1,2,30,,,,2,0,2,0,,,,,,,,,0,0,0,0,0,1,1,1,6,0,6,0,,,,,,,,,,,,,,,,,,,,,,,,,,,,,,,,,,,,,,,,,,,,,,,,,,,,,,,,,,,,,,,,30,,,,,,,,1239.9845769999083,1239.9845769999083,1239.9845769999083,1239.9845769999083,1239.9845769999083,right,1.4445396000519395,0,0,0,99,0.48000000000000004,-0.16000000000000003,right,1.35930210002698,,,,,,,,,,,,,,,,,,,,,,,,,,,,,,,,,,,,,,,,,,,,,,,,,,,,,,,,,,,,CLY40D,train_x,red_square,top_right,2024-11-25_15h09.19.742,HideSeek_v1,2022.2.5,60.340198041971654,
,7,9,7,9,0,0,16,,train_dim1_1,2,30,,,,2,0,2,0,,,,,,,,,0,0,0,0,0,1,1,1,7,0,7,0,,,,,,,,,,,,,,,,,,,,,,,,,,,,,,,,,,,,,,,,,,,,,,,,,,,,,,,,,,,,,,,,30,,,,,,,,1241.4434580998495,1241.4434580998495,1241.4434580998495,1241.4434580998495,1241.4434580998495,right,0.19304820010438561,0,0,0,99,0.56,-0.16000000000000003,right,0.10619810014031827,,,,,,,,,,,,,,,,,,,,,,,,,,,,,,,,,,,,,,,,,,,,,,,,,,,,,,,,,,,,CLY40D,train_x,red_square,top_right,2024-11-25_15h09.19.742,HideSeek_v1,2022.2.5,60.340198041971654,
,7,9,7,9,0,0,16,,train_dim1_1,2,30,,,,2,0,2,0,,,,,,,,,0,0,0,0,0,1,1,1,8,0,8,0,,,,,,,,,,,,,,,,,,,,,,,,,,,,,,,,,,,,,,,,,,,,,,,,,,,,,,,,,,,,,,,,30,,,,,,,,1241.6365712999832,1241.6365712999832,1241.6365712999832,1241.6365712999832,1241.6365712999832,up,2.0110502999741584,0,0,0,99,0.56,-0.08000000000000003,up,1.931032800115645,,,,,,,,,,,,,,,,,,,,,,,,,,,,,,,,,,,,,,,,,,,,,,,,,,,,,,,,,,,,CLY40D,train_x,red_square,top_right,2024-11-25_15h09.19.742,HideSeek_v1,2022.2.5,60.340198041971654,
,7,9,7,9,0,0,16,,train_dim1_1,2,30,,,,2,0,2,0,,,,,,,,,0,0,0,0,0,1,1,1,9,0,9,0,,,,,,,,,,,,,,,,,,,,,,,,,,,,,,,,,,,,,,,,,,,,,,,,,,,,,,,,,,,,,,,,30,,,,,,,,1243.6531452999916,1243.6531452999916,1243.6531452999916,1243.6531452999916,1243.6531452999916,left,8.466398099903017,0,0,0,99,0.48000000000000004,-0.08000000000000003,left,8.376446000067517,,,,,,,,,,,,,,,,,,,,,,,,,,,,,,,,,,,,,,,,,,,,,,,,,,,,,,,,,,,,CLY40D,train_x,red_square,top_right,2024-11-25_15h09.19.742,HideSeek_v1,2022.2.5,60.340198041971654,
,7,9,7,9,0,0,16,,train_dim1_1,2,30,,,,2,0,2,0,,,,,,,,,0,0,0,0,0,1,1,1,10,0,10,0,,,,,,,,,,,,,,,,,,,,,,,,,,,,,,,,,,,,,,,,,,,,,,,,,,,,,,,,,,,,,,,,30,,,,,,,,1252.1411364998203,1252.1411364998203,1252.1411364998203,1252.1411364998203,1252.1411364998203,left,0.6110441000200808,0,0,0,99,0.4,-0.08000000000000003,left,0.5163626000285149,,,,,,,,,,,,,,,,,,,,,,,,,,,,,,,,,,,,,,,,,,,,,,,,,,,,,,,,,,,,CLY40D,train_x,red_square,top_right,2024-11-25_15h09.19.742,HideSeek_v1,2022.2.5,60.340198041971654,
,7,9,7,9,0,0,16,,train_dim1_1,2,30,,,,2,0,2,0,,,,,,,,,0,0,0,0,0,1,1,1,11,0,11,0,,,,,,,,,,,,,,,,,,,,,,,,,,,,,,,,,,,,,,,,,,,,,,,,,,,,,,,,,,,,,,,,30,,,,,,,,1252.745564899873,1252.745564899873,1252.745564899873,1252.745564899873,1252.745564899873,left,0.6265149000100791,0,0,0,99,0.32,-0.08000000000000003,left,0.5447641999926418,,,,,,,,,,,,,,,,,,,,,,,,,,,,,,,,,,,,,,,,,,,,,,,,,,,,,,,,,,,,CLY40D,train_x,red_square,top_right,2024-11-25_15h09.19.742,HideSeek_v1,2022.2.5,60.340198041971654,
,7,9,7,9,0,0,16,,train_dim1_1,2,30,,,,2,0,2,0,,,,,,,,,0,0,0,0,0,1,1,1,12,0,12,0,,,,,,,,,,,,,,,,,,,,,,,,,,,,,,,,,,,,,,,,,,,,,,,,,,,,,,,,,,,,,,,,30,,,,,,,,1253.377717499854,1253.377717499854,1253.377717499854,1253.377717499854,1253.377717499854,left,0.16012070002034307,0,0,0,99,0.24,-0.08000000000000003,left,0.07182489987462759,,,,,,,,,,,,,,,,,,,,,,,,,,,,,,,,,,,,,,,,,,,,,,,,,,,,,,,,,,,,CLY40D,train_x,red_square,top_right,2024-11-25_15h09.19.742,HideSeek_v1,2022.2.5,60.340198041971654,
,7,9,7,9,0,0,16,,train_dim1_1,2,30,,,,2,0,2,0,,,,,,,,,0,0,0,0,0,1,1,1,13,0,13,0,,,,,,,,,,,,,,,,,,,,,,,,,,,,,,,,,,,,,,,,,,,,,,,,,,,,,,,,,,,,,,,,30,,,,,,,,1253.5474431999028,1253.5474431999028,1253.5474431999028,1253.5474431999028,1253.5474431999028,up,0.8763690998312086,0,0,0,99,0.24,-2.7755575615628914e-17,up,0.7823880999349058,,,,,,,,,,,,,,,,,,,,,,,,,,,,,,,,,,,,,,,,,,,,,,,,,,,,,,,,,,,,CLY40D,train_x,red_square,top_right,2024-11-25_15h09.19.742,HideSeek_v1,2022.2.5,60.340198041971654,
,7,9,7,9,0,0,16,,train_dim1_1,2,30,,,,2,0,2,0,,,,,,,,,0,0,0,0,0,1,1,1,14,0,14,0,,,,,,,,,,,,,,,,,,,,,,,,,,,,,,,,,,,,,,,,,,,,,,,,,,,,,,,,,,,,,,,,30,,,,,,,,1254.4292651999276,1254.4292651999276,1254.4292651999276,1254.4292651999276,1254.4292651999276,up,1.544335100101307,0,0,0,99,0.24,0.07999999999999997,up,1.4623362999409437,,,,,,,,,,,,,,,,,,,,,,,,,,,,,,,,,,,,,,,,,,,,,,,,,,,,,,,,,,,,CLY40D,train_x,red_square,top_right,2024-11-25_15h09.19.742,HideSeek_v1,2022.2.5,60.340198041971654,
,7,9,7,9,0,0,16,,train_dim1_1,2,30,,,,2,0,2,0,,,,,,,,,0,0,0,0,0,1,1,1,15,0,15,0,,,,,,,,,,,,,,,,,,,,,,,,,,,,,,,,,,,,,,,,,,,,,,,,,,,,,,,,,,,,,,,,30,,,,,,,,1255.9809158998542,1255.9809158998542,1255.9809158998542,1255.9809158998542,1255.9809158998542,up,0.1764454001095146,0,0,0,99,0.24,0.15999999999999998,up,0.08960369997657835,,,,,,,,,,,,,,,,,,,,,,,,,,,,,,,,,,,,,,,,,,,,,,,,,,,,,,,,,,,,CLY40D,train_x,red_square,top_right,2024-11-25_15h09.19.742,HideSeek_v1,2022.2.5,60.340198041971654,
,7,9,7,9,0,0,16,,train_dim1_1,2,30,,,,2,0,2,0,,,,,,,,,0,0,0,0,0,1,1,1,16,0,16,0,,,,,,,,,,,,,,,,,,,,,,,,,,,,,,,,,,,,,,,,,,,,,,,,,,,,,,,,,,,,,,,,30,,,,,,,,1256.164676599903,1256.164676599903,1256.164676599903,1256.164676599903,1256.164676599903,return,8.282864299835637,0,0,0,0,0.24,0.15999999999999998,return,8.188843300100416,-5,0,0.24,0.15999999999999998,,,,,,,,,,,,,,,,,,,,,,,,,,,,,,,,,,,,,,,,,,,,,,,,,,,,,,,,CLY40D,train_x,red_square,top_right,2024-11-25_15h09.19.742,HideSeek_v1,2022.2.5,60.340198041971654,
,9,9,8,9,-1,0,26,,train_dim1_1,3,30,,,,2,0,2,0,,,,,,,,,0,0,0,0,0,2,2,2,0,0,0,0,,,,,,,,,,,,,,,,,,,,,,,,,stimuli/alien_stimuli/26.png,,,,,,,,,,,,,,,,,,,,,,,,,,,,,stimuli/alien_stimuli/16.png,16,7,4,,,,,,,30,,,,,,,,1274.9458273998462,1274.9458273998462,1274.9458273998462,1274.9458273998462,1274.9458273998462,up,4.038927900139242,0,0,0,99,0.56,0.4,up,3.9474269000347704,,,,,1273.3764482999686,1274.9458273998462,0.4,0.32,0.0,0.0,0.32,0.4,0.4,0.4,0.32,1266.0493184998631,1266.0493184998631,1266.0493184998631,1266.0493184998631,1266.0493184998631,1266.0493184998631,1266.0493184998631,1266.0493184998631,1266.037028040085,7.475114200031385,return,7.294954299926758,,,,,,,,,,,,,,,,,,,,,,,,,,,,,,,,,CLY40D,train_x,red_square,top_right,2024-11-25_15h09.19.742,HideSeek_v1,2022.2.5,60.340198041971654,
,9,9,8,9,-1,0,26,,train_dim1_1,3,30,,,,2,0,2,0,,,,,,,,,0,0,0,0,0,2,2,2,1,0,1,0,,,,,,,,,,,,,,,,,,,,,,,,,,,,,,,,,,,,,,,,,,,,,,,,,,,,,,,,,,,,,,,,30,,,,,,,,1278.9874864998274,1278.9874864998274,1278.9874864998274,1278.9874864998274,1278.9874864998274,up,0.22357710008509457,0,0,0,99,0.56,0.48000000000000004,up,0.13038119999691844,,,,,,,,,,,,,,,,,,,,,,,,,,,,,,,,,,,,,,,,,,,,,,,,,,,,,,,,,,,,CLY40D,train_x,red_square,top_right,2024-11-25_15h09.19.742,HideSeek_v1,2022.2.5,60.340198041971654,
,9,9,8,9,-1,0,26,,train_dim1_1,3,30,,,,2,0,2,0,,,,,,,,,0,0,0,0,0,2,2,2,2,0,2,0,,,,,,,,,,,,,,,,,,,,,,,,,,,,,,,,,,,,,,,,,,,,,,,,,,,,,,,,,,,,,,,,30,,,,,,,,1279.2171284998767,1279.2171284998767,1279.2171284998767,1279.2171284998767,1279.2171284998767,down,1.077096400083974,0,0,0,99,0.56,0.4,down,0.9897811999544501,,,,,,,,,,,,,,,,,,,,,,,,,,,,,,,,,,,,,,,,,,,,,,,,,,,,,,,,,,,,CLY40D,train_x,red_square,top_right,2024-11-25_15h09.19.742,HideSeek_v1,2022.2.5,60.340198041971654,
,9,9,8,9,-1,0,26,,train_dim1_1,3,30,,,,2,0,2,0,,,,,,,,,0,0,0,0,0,2,2,2,3,0,3,0,,,,,,,,,,,,,,,,,,,,,,,,,,,,,,,,,,,,,,,,,,,,,,,,,,,,,,,,,,,,,,,,30,,,,,,,,1280.2995413998142,1280.2995413998142,1280.2995413998142,1280.2995413998142,1280.2995413998142,down,0.6934207000304013,0,0,0,99,0.56,0.32,down,0.6140258999075741,,,,,,,,,,,,,,,,,,,,,,,,,,,,,,,,,,,,,,,,,,,,,,,,,,,,,,,,,,,,CLY40D,train_x,red_square,top_right,2024-11-25_15h09.19.742,HideSeek_v1,2022.2.5,60.340198041971654,
,9,9,8,9,-1,0,26,,train_dim1_1,3,30,,,,2,0,2,0,,,,,,,,,0,0,0,0,0,2,2,2,4,0,4,0,,,,,,,,,,,,,,,,,,,,,,,,,,,,,,,,,,,,,,,,,,,,,,,,,,,,,,,,,,,,,,,,30,,,,,,,,1280.999769799877,1280.999769799877,1280.999769799877,1280.999769799877,1280.999769799877,left,1.0605880001094192,0,0,0,99,0.48000000000000004,0.32,left,0.9757485000882298,,,,,,,,,,,,,,,,,,,,,,,,,,,,,,,,,,,,,,,,,,,,,,,,,,,,,,,,,,,,CLY40D,train_x,red_square,top_right,2024-11-25_15h09.19.742,HideSeek_v1,2022.2.5,60.340198041971654,
,9,9,8,9,-1,0,26,,train_dim1_1,3,30,,,,2,0,2,0,,,,,,,,,0,0,0,0,0,2,2,2,5,0,5,0,,,,,,,,,,,,,,,,,,,,,,,,,,,,,,,,,,,,,,,,,,,,,,,,,,,,,,,,,,,,,,,,30,,,,,,,,1282.0679786999244,1282.0679786999244,1282.0679786999244,1282.0679786999244,1282.0679786999244,left,0.24308180017396808,0,0,0,99,0.4,0.32,left,0.1619905000552535,,,,,,,,,,,,,,,,,,,,,,,,,,,,,,,,,,,,,,,,,,,,,,,,,,,,,,,,,,,,CLY40D,train_x,red_square,top_right,2024-11-25_15h09.19.742,HideSeek_v1,2022.2.5,60.340198041971654,
,9,9,8,9,-1,0,26,,train_dim1_1,3,30,,,,2,0,2,0,,,,,,,,,0,0,0,0,0,2,2,2,6,0,6,0,,,,,,,,,,,,,,,,,,,,,,,,,,,,,,,,,,,,,,,,,,,,,,,,,,,,,,,,,,,,,,,,30,,,,,,,,1282.3196461999323,1282.3196461999323,1282.3196461999323,1282.3196461999323,1282.3196461999323,return,1.1608800000976771,0,1,0,0,0.4,0.32,return,1.0742293000221252,-5,-2,0.4,0.32,,,,,,,,,,,,,,,,,,,,,,,,,,,,,,,,,,,,,,,,,,,,,,,,,,,,,,,,CLY40D,train_x,red_square,top_right,2024-11-25_15h09.19.742,HideSeek_v1,2022.2.5,60.340198041971654,
,7,8,3,8,-4,0,56,,train_dim1_1,4,30,,,,2,0,2,0,,,,,,,,,0,0,0,0,0,3,3,3,0,0,0,0,,,,,,,,,,,,,,,,,,,,,,,,,stimuli/alien_stimuli/56.png,,,,,,,,,,,,,,,,,,,,,,,,,,,,,stimuli/alien_stimuli/26.png,26,9,5,,,,,,,30,,,,,,,,1305.4690849999897,1305.4690849999897,1305.4690849999897,1305.4690849999897,1305.4690849999897,left,3.524203199893236,0,1,0,99,0.32,0.24,left,3.4228863001335412,,,,,1303.9018538999371,1305.4690849999897,0.48,0.32,0.0,0.08,0.32,0.48,0.52,0.48,0.32,1285.0730540000368,1285.0730540000368,1285.0730540000368,1285.0730540000368,1285.0730540000368,1285.0730540000368,1285.0730540000368,1285.0730540000368,1285.0527188799808,18.968238200061023,return,18.808363700052723,,,,,,,,,,,,,,,,,,,,,,,,,,,,,,,,,CLY40D,train_x,red_square,top_right,2024-11-25_15h09.19.742,HideSeek_v1,2022.2.5,60.340198041971654,
,7,8,3,8,-4,0,56,,train_dim1_1,4,30,,,,2,0,2,0,,,,,,,,,0,0,0,0,0,3,3,3,1,0,1,0,,,,,,,,,,,,,,,,,,,,,,,,,,,,,,,,,,,,,,,,,,,,,,,,,,,,,,,,,,,,,,,,30,,,,,,,,1308.9896040000021,1308.9896040000021,1308.9896040000021,1308.9896040000021,1308.9896040000021,left,0.409739299910143,0,1,0,99,0.24,0.24,left,0.32863959996029735,,,,,,,,,,,,,,,,,,,,,,,,,,,,,,,,,,,,,,,,,,,,,,,,,,,,,,,,,,,,CLY40D,train_x,red_square,top_right,2024-11-25_15h09.19.742,HideSeek_v1,2022.2.5,60.340198041971654,
,7,8,3,8,-4,0,56,,train_dim1_1,4,30,,,,2,0,2,0,,,,,,,,,0,0,0,0,0,3,3,3,2,0,2,0,,,,,,,,,,,,,,,,,,,,,,,,,,,,,,,,,,,,,,,,,,,,,,,,,,,,,,,,,,,,,,,,30,,,,,,,,1309.4088085999247,1309.4088085999247,1309.4088085999247,1309.4088085999247,1309.4088085999247,left,0.11003999994136393,0,1,0,99,0.15999999999999998,0.24,left,0.029132899828255177,,,,,,,,,,,,,,,,,,,,,,,,,,,,,,,,,,,,,,,,,,,,,,,,,,,,,,,,,,,,CLY40D,train_x,red_square,top_right,2024-11-25_15h09.19.742,HideSeek_v1,2022.2.5,60.340198041971654,
,7,8,3,8,-4,0,56,,train_dim1_1,4,30,,,,2,0,2,0,,,,,,,,,0,0,0,0,0,3,3,3,3,0,3,0,,,,,,,,,,,,,,,,,,,,,,,,,,,,,,,,,,,,,,,,,,,,,,,,,,,,,,,,,,,,,,,,30,,,,,,,,1309.52602869994,1309.52602869994,1309.52602869994,1309.52602869994,1309.52602869994,left,0.46001449995674193,0,1,0,99,0.07999999999999997,0.24,left,0.3817189000546932,,,,,,,,,,,,,,,,,,,,,,,,,,,,,,,,,,,,,,,,,,,,,,,,,,,,,,,,,,,,CLY40D,train_x,red_square,top_right,2024-11-25_15h09.19.742,HideSeek_v1,2022.2.5,60.340198041971654,
,7,8,3,8,-4,0,56,,train_dim1_1,4,30,,,,2,0,2,0,,,,,,,,,0,0,0,0,0,3,3,3,4,0,4,0,,,,,,,,,,,,,,,,,,,,,,,,,,,,,,,,,,,,,,,,,,,,,,,,,,,,,,,,,,,,,,,,30,,,,,,,,1309.991844699951,1309.991844699951,1309.991844699951,1309.991844699951,1309.991844699951,right,0.9751121001318097,0,1,0,99,0.15999999999999998,0.24,right,0.8898642999120057,,,,,,,,,,,,,,,,,,,,,,,,,,,,,,,,,,,,,,,,,,,,,,,,,,,,,,,,,,,,CLY40D,train_x,red_square,top_right,2024-11-25_15h09.19.742,HideSeek_v1,2022.2.5,60.340198041971654,
,7,8,3,8,-4,0,56,,train_dim1_1,4,30,,,,2,0,2,0,,,,,,,,,0,0,0,0,0,3,3,3,5,0,5,0,,,,,,,,,,,,,,,,,,,,,,,,,,,,,,,,,,,,,,,,,,,,,,,,,,,,,,,,,,,,,,,,30,,,,,,,,1310.9722652998753,1310.9722652998753,1310.9722652998753,1310.9722652998753,1310.9722652998753,right,0.15987269999459386,0,1,0,99,0.24,0.24,right,0.07636660011485219,,,,,,,,,,,,,,,,,,,,,,,,,,,,,,,,,,,,,,,,,,,,,,,,,,,,,,,,,,,,CLY40D,train_x,red_square,top_right,2024-11-25_15h09.19.742,HideSeek_v1,2022.2.5,60.340198041971654,
,7,8,3,8,-4,0,56,,train_dim1_1,4,30,,,,2,0,2,0,,,,,,,,,0,0,0,0,0,3,3,3,6,0,6,0,,,,,,,,,,,,,,,,,,,,,,,,,,,,,,,,,,,,,,,,,,,,,,,,,,,,,,,,,,,,,,,,30,,,,,,,,1311.1408285000362,1311.1408285000362,1311.1408285000362,1311.1408285000362,1311.1408285000362,right,1.1440434001851827,0,1,0,99,0.32,0.24,right,1.0595327999908477,,,,,,,,,,,,,,,,,,,,,,,,,,,,,,,,,,,,,,,,,,,,,,,,,,,,,,,,,,,,CLY40D,train_x,red_square,top_right,2024-11-25_15h09.19.742,HideSeek_v1,2022.2.5,60.340198041971654,
,7,8,3,8,-4,0,56,,train_dim1_1,4,30,,,,2,0,2,0,,,,,,,,,0,0,0,0,0,3,3,3,7,0,7,0,,,,,,,,,,,,,,,,,,,,,,,,,,,,,,,,,,,,,,,,,,,,,,,,,,,,,,,,,,,,,,,,30,,,,,,,,1312.2905439999886,1312.2905439999886,1312.2905439999886,1312.2905439999886,1312.2905439999886,right,0.07647600001655519,0,1,0,99,0.4,0.24,right,0.0008213999681174755,,,,,,,,,,,,,,,,,,,,,,,,,,,,,,,,,,,,,,,,,,,,,,,,,,,,,,,,,,,,CLY40D,train_x,red_square,top_right,2024-11-25_15h09.19.742,HideSeek_v1,2022.2.5,60.340198041971654,
,7,8,3,8,-4,0,56,,train_dim1_1,4,30,,,,2,0,2,0,,,,,,,,,0,0,0,0,0,3,3,3,8,0,8,0,,,,,,,,,,,,,,,,,,,,,,,,,,,,,,,,,,,,,,,,,,,,,,,,,,,,,,,,,,,,,,,,30,,,,,,,,1312.3887274998706,1312.3887274998706,1312.3887274998706,1312.3887274998706,1312.3887274998706,left,1.31076840008609,0,1,0,99,0.32,0.24,left,1.213707499904558,,,,,,,,,,,,,,,,,,,,,,,,,,,,,,,,,,,,,,,,,,,,,,,,,,,,,,,,,,,,CLY40D,train_x,red_square,top_right,2024-11-25_15h09.19.742,HideSeek_v1,2022.2.5,60.340198041971654,
,7,8,3,8,-4,0,56,,train_dim1_1,4,30,,,,2,0,2,0,,,,,,,,,0,0,0,0,0,3,3,3,9,0,9,0,,,,,,,,,,,,,,,,,,,,,,,,,,,,,,,,,,,,,,,,,,,,,,,,,,,,,,,,,,,,,,,,30,,,,,,,,1313.692115199985,1313.692115199985,1313.692115199985,1313.692115199985,1313.692115199985,left,0.5934568999800831,0,1,0,99,0.24,0.24,left,0.5075992001220584,,,,,,,,,,,,,,,,,,,,,,,,,,,,,,,,,,,,,,,,,,,,,,,,,,,,,,,,,,,,CLY40D,train_x,red_square,top_right,2024-11-25_15h09.19.742,HideSeek_v1,2022.2.5,60.340198041971654,
,7,8,3,8,-4,0,56,,train_dim1_1,4,30,,,,2,0,2,0,,,,,,,,,0,0,0,0,0,3,3,3,10,0,10,0,,,,,,,,,,,,,,,,,,,,,,,,,,,,,,,,,,,,,,,,,,,,,,,,,,,,,,,,,,,,,,,,30,,,,,,,,1314.2920706998557,1314.2920706998557,1314.2920706998557,1314.2920706998557,1314.2920706998557,left,0.2102030001115054,0,1,0,99,0.15999999999999998,0.24,left,0.12713450007140636,,,,,,,,,,,,,,,,,,,,,,,,,,,,,,,,,,,,,,,,,,,,,,,,,,,,,,,,,,,,CLY40D,train_x,red_square,top_right,2024-11-25_15h09.19.742,HideSeek_v1,2022.2.5,60.340198041971654,
,7,8,3,8,-4,0,56,,train_dim1_1,4,30,,,,2,0,2,0,,,,,,,,,0,0,0,0,0,3,3,3,11,0,11,0,,,,,,,,,,,,,,,,,,,,,,,,,,,,,,,,,,,,,,,,,,,,,,,,,,,,,,,,,,,,,,,,30,,,,,,,,1314.509950999869,1314.509950999869,1314.509950999869,1314.509950999869,1314.509950999869,right,1.026896399911493,0,1,0,99,0.24,0.24,right,0.9421196000184864,,,,,,,,,,,,,,,,,,,,,,,,,,,,,,,,,,,,,,,,,,,,,,,,,,,,,,,,,,,,CLY40D,train_x,red_square,top_right,2024-11-25_15h09.19.742,HideSeek_v1,2022.2.5,60.340198041971654,
,7,8,3,8,-4,0,56,,train_dim1_1,4,30,,,,2,0,2,0,,,,,,,,,0,0,0,0,0,3,3,3,12,0,12,0,,,,,,,,,,,,,,,,,,,,,,,,,,,,,,,,,,,,,,,,,,,,,,,,,,,,,,,,,,,,,,,,30,,,,,,,,1315.5442554999609,1315.5442554999609,1315.5442554999609,1315.5442554999609,1315.5442554999609,right,0.4769635999109596,0,1,0,99,0.32,0.24,right,0.4001986999064684,,,,,,,,,,,,,,,,,,,,,,,,,,,,,,,,,,,,,,,,,,,,,,,,,,,,,,,,,,,,CLY40D,train_x,red_square,top_right,2024-11-25_15h09.19.742,HideSeek_v1,2022.2.5,60.340198041971654,
,7,8,3,8,-4,0,56,,train_dim1_1,4,30,,,,2,0,2,0,,,,,,,,,0,0,0,0,0,3,3,3,13,0,13,0,,,,,,,,,,,,,,,,,,,,,,,,,,,,,,,,,,,,,,,,,,,,,,,,,,,,,,,,,,,,,,,,30,,,,,,,,1316.027807699982,1316.027807699982,1316.027807699982,1316.027807699982,1316.027807699982,right,0.910561400000006,0,1,0,99,0.4,0.24,right,0.8278371999040246,,,,,,,,,,,,,,,,,,,,,,,,,,,,,,,,,,,,,,,,,,,,,,,,,,,,,,,,,,,,CLY40D,train_x,red_square,top_right,2024-11-25_15h09.19.742,HideSeek_v1,2022.2.5,60.340198041971654,
,7,8,3,8,-4,0,56,,train_dim1_1,4,30,,,,2,0,2,0,,,,,,,,,0,0,0,0,0,3,3,3,14,0,14,0,,,,,,,,,,,,,,,,,,,,,,,,,,,,,,,,,,,,,,,,,,,,,,,,,,,,,,,,,,,,,,,,30,,,,,,,,1316.9445098999422,1316.9445098999422,1316.9445098999422,1316.9445098999422,1316.9445098999422,left,1.0774322000797838,0,1,0,99,0.32,0.24,left,0.9921881000045687,,,,,,,,,,,,,,,,,,,,,,,,,,,,,,,,,,,,,,,,,,,,,,,,,,,,,,,,,,,,CLY40D,train_x,red_square,top_right,2024-11-25_15h09.19.742,HideSeek_v1,2022.2.5,60.340198041971654,
,7,8,3,8,-4,0,56,,train_dim1_1,4,30,,,,2,0,2,0,,,,,,,,,0,0,0,0,0,3,3,3,15,0,15,0,,,,,,,,,,,,,,,,,,,,,,,,,,,,,,,,,,,,,,,,,,,,,,,,,,,,,,,,,,,,,,,,30,,,,,,,,1318.0299676998984,1318.0299676998984,1318.0299676998984,1318.0299676998984,1318.0299676998984,left,2.762169900117442,0,1,0,99,0.24,0.24,left,2.6784156002104282,,,,,,,,,,,,,,,,,,,,,,,,,,,,,,,,,,,,,,,,,,,,,,,,,,,,,,,,,,,,CLY40D,train_x,red_square,top_right,2024-11-25_15h09.19.742,HideSeek_v1,2022.2.5,60.340198041971654,
,7,8,3,8,-4,0,56,,train_dim1_1,4,30,,,,2,0,2,0,,,,,,,,,0,0,0,0,0,3,3,3,16,0,16,0,,,,,,,,,,,,,,,,,,,,,,,,,,,,,,,,,,,,,,,,,,,,,,,,,,,,,,,,,,,,,,,,30,,,,,,,,1320.802113799844,1320.802113799844,1320.802113799844,1320.802113799844,1320.802113799844,left,0.9743622001260519,0,1,0,99,0.15999999999999998,0.24,left,0.8976711998693645,,,,,,,,,,,,,,,,,,,,,,,,,,,,,,,,,,,,,,,,,,,,,,,,,,,,,,,,,,,,CLY40D,train_x,red_square,top_right,2024-11-25_15h09.19.742,HideSeek_v1,2022.2.5,60.340198041971654,
,7,8,3,8,-4,0,56,,train_dim1_1,4,30,,,,2,0,2,0,,,,,,,,,0,0,0,0,0,3,3,3,17,0,17,0,,,,,,,,,,,,,,,,,,,,,,,,,,,,,,,,,,,,,,,,,,,,,,,,,,,,,,,,,,,,,,,,30,,,,,,,,1321.7814666999038,1321.7814666999038,1321.7814666999038,1321.7814666999038,1321.7814666999038,left,0.7101219000760466,0,1,0,99,0.07999999999999997,0.24,left,0.6367732998915017,,,,,,,,,,,,,,,,,,,,,,,,,,,,,,,,,,,,,,,,,,,,,,,,,,,,,,,,,,,,CLY40D,train_x,red_square,top_right,2024-11-25_15h09.19.742,HideSeek_v1,2022.2.5,60.340198041971654,
,7,8,3,8,-4,0,56,,train_dim1_1,4,30,,,,2,0,2,0,,,,,,,,,0,0,0,0,0,3,3,3,18,0,18,0,,,,,,,,,,,,,,,,,,,,,,,,,,,,,,,,,,,,,,,,,,,,,,,,,,,,,,,,,,,,,,,,30,,,,,,,,1322.498915999895,1322.498915999895,1322.498915999895,1322.498915999895,1322.498915999895,left,0.8105673999525607,0,1,0,99,-2.7755575615628914e-17,0.24,left,0.72755610011518,,,,,,,,,,,,,,,,,,,,,,,,,,,,,,,,,,,,,,,,,,,,,,,,,,,,,,,,,,,,CLY40D,train_x,red_square,top_right,2024-11-25_15h09.19.742,HideSeek_v1,2022.2.5,60.340198041971654,
,7,8,3,8,-4,0,56,,train_dim1_1,4,30,,,,2,0,2,0,,,,,,,,,0,0,0,0,0,3,3,3,19,0,19,0,,,,,,,,,,,,,,,,,,,,,,,,,,,,,,,,,,,,,,,,,,,,,,,,,,,,,,,,,,,,,,,,30,,,,,,,,1323.3166684999596,1323.3166684999596,1323.3166684999596,1323.3166684999596,1323.3166684999596,return,1.2774751000106335,0,1,0,0,-2.7755575615628914e-17,0.24,return,1.201932800002396,-5,-7,-2.7755575615628914e-17,0.24,,,,,,,,,,,,,,,,,,,,,,,,,,,,,,,,,,,,,,,,,,,,,,,,,,,,,,,,CLY40D,train_x,red_square,top_right,2024-11-25_15h09.19.742,HideSeek_v1,2022.2.5,60.340198041971654,
,5,7,0,7,-5,0,66,,train_dim1_1,5,30,,,,2,0,2,0,,,,,,,,,0,0,0,0,0,4,4,4,0,0,0,0,,,,,,,,,,,,,,,,,,,,,,,,,stimuli/alien_stimuli/66.png,,,,,,,,,,,,,,,,,,,,,,,,,,,,,stimuli/alien_stimuli/56.png,56,7,6,,,,,,,30,,,,,,,,1338.8470763999503,1338.8470763999503,1338.8470763999503,1338.8470763999503,1338.8470763999503,left,4.189573500072584,0,1,0,99,0.15999999999999998,0.16,left,4.09480300010182,,,,,1337.2795865000226,1338.8470763999503,0.08,0.24,0.0,0.32,0.24,0.08,0.24000000000000002,0.08,0.24,1326.1797078999225,1326.1797078999225,1326.1797078999225,1326.1797078999225,1326.1797078999225,1326.1797078999225,1326.1797078999225,1326.1797078999225,1326.1703727800398,11.22830169997178,return,11.06804580008611,,,,,,,,,,,,,,,,,,,,,,,,,,,,,,,,,CLY40D,train_x,red_square,top_right,2024-11-25_15h09.19.742,HideSeek_v1,2022.2.5,60.340198041971654,
,5,7,0,7,-5,0,66,,train_dim1_1,5,30,,,,2,0,2,0,,,,,,,,,0,0,0,0,0,4,4,4,1,0,1,0,,,,,,,,,,,,,,,,,,,,,,,,,,,,,,,,,,,,,,,,,,,,,,,,,,,,,,,,,,,,,,,,30,,,,,,,,1343.03124079993,1343.03124079993,1343.03124079993,1343.03124079993,1343.03124079993,left,1.060141900088638,0,1,0,99,0.07999999999999997,0.16,left,0.9751802000682801,,,,,,,,,,,,,,,,,,,,,,,,,,,,,,,,,,,,,,,,,,,,,,,,,,,,,,,,,,,,CLY40D,train_x,red_square,top_right,2024-11-25_15h09.19.742,HideSeek_v1,2022.2.5,60.340198041971654,
,5,7,0,7,-5,0,66,,train_dim1_1,5,30,,,,2,0,2,0,,,,,,,,,0,0,0,0,0,4,4,4,2,0,2,0,,,,,,,,,,,,,,,,,,,,,,,,,,,,,,,,,,,,,,,,,,,,,,,,,,,,,,,,,,,,,,,,30,,,,,,,,1344.0989941000007,1344.0989941000007,1344.0989941000007,1344.0989941000007,1344.0989941000007,down,2.06164319999516,0,1,0,99,0.07999999999999997,0.08,down,1.9737025999929756,,,,,,,,,,,,,,,,,,,,,,,,,,,,,,,,,,,,,,,,,,,,,,,,,,,,,,,,,,,,CLY40D,train_x,red_square,top_right,2024-11-25_15h09.19.742,HideSeek_v1,2022.2.5,60.340198041971654,
,5,7,0,7,-5,0,66,,train_dim1_1,5,30,,,,2,0,2,0,,,,,,,,,0,0,0,0,0,4,4,4,3,0,3,0,,,,,,,,,,,,,,,,,,,,,,,,,,,,,,,,,,,,,,,,,,,,,,,,,,,,,,,,,,,,,,,,30,,,,,,,,1346.1671334998682,1346.1671334998682,1346.1671334998682,1346.1671334998682,1346.1671334998682,right,2.511703599942848,0,1,0,99,0.15999999999999998,0.08,right,2.437619699863717,,,,,,,,,,,,,,,,,,,,,,,,,,,,,,,,,,,,,,,,,,,,,,,,,,,,,,,,,,,,CLY40D,train_x,red_square,top_right,2024-11-25_15h09.19.742,HideSeek_v1,2022.2.5,60.340198041971654,
,5,7,0,7,-5,0,66,,train_dim1_1,5,30,,,,2,0,2,0,,,,,,,,,0,0,0,0,0,4,4,4,4,0,4,0,,,,,,,,,,,,,,,,,,,,,,,,,,,,,,,,,,,,,,,,,,,,,,,,,,,,,,,,,,,,,,,,30,,,,,,,,1348.6850462998264,1348.6850462998264,1348.6850462998264,1348.6850462998264,1348.6850462998264,right,0.24332310003228486,0,1,0,99,0.24,0.08,right,0.16637830017134547,,,,,,,,,,,,,,,,,,,,,,,,,,,,,,,,,,,,,,,,,,,,,,,,,,,,,,,,,,,,CLY40D,train_x,red_square,top_right,2024-11-25_15h09.19.742,HideSeek_v1,2022.2.5,60.340198041971654,
,5,7,0,7,-5,0,66,,train_dim1_1,5,30,,,,2,0,2,0,,,,,,,,,0,0,0,0,0,4,4,4,5,0,5,0,,,,,,,,,,,,,,,,,,,,,,,,,,,,,,,,,,,,,,,,,,,,,,,,,,,,,,,,,,,,,,,,30,,,,,,,,1348.9380572999362,1348.9380572999362,1348.9380572999362,1348.9380572999362,1348.9380572999362,up,1.5946907000616193,0,1,0,99,0.24,0.16,up,1.5192221999168396,,,,,,,,,,,,,,,,,,,,,,,,,,,,,,,,,,,,,,,,,,,,,,,,,,,,,,,,,,,,CLY40D,train_x,red_square,top_right,2024-11-25_15h09.19.742,HideSeek_v1,2022.2.5,60.340198041971654,
,5,7,0,7,-5,0,66,,train_dim1_1,5,30,,,,2,0,2,0,,,,,,,,,0,0,0,0,0,4,4,4,6,0,6,0,,,,,,,,,,,,,,,,,,,,,,,,,,,,,,,,,,,,,,,,,,,,,,,,,,,,,,,,,,,,,,,,30,,,,,,,,1350.538190399995,1350.538190399995,1350.538190399995,1350.538190399995,1350.538190399995,left,3.7292793998494744,0,1,0,99,0.15999999999999998,0.16,left,3.6503455000929534,,,,,,,,,,,,,,,,,,,,,,,,,,,,,,,,,,,,,,,,,,,,,,,,,,,,,,,,,,,,CLY40D,train_x,red_square,top_right,2024-11-25_15h09.19.742,HideSeek_v1,2022.2.5,60.340198041971654,
,5,7,0,7,-5,0,66,,train_dim1_1,5,30,,,,2,0,2,0,,,,,,,,,0,0,0,0,0,4,4,4,7,0,7,0,,,,,,,,,,,,,,,,,,,,,,,,,,,,,,,,,,,,,,,,,,,,,,,,,,,,,,,,,,,,,,,,30,,,,,,,,1354.2730069998652,1354.2730069998652,1354.2730069998652,1354.2730069998652,1354.2730069998652,left,0.7271350000519305,0,1,0,99,0.07999999999999997,0.16,left,0.6554926999378949,,,,,,,,,,,,,,,,,,,,,,,,,,,,,,,,,,,,,,,,,,,,,,,,,,,,,,,,,,,,CLY40D,train_x,red_square,top_right,2024-11-25_15h09.19.742,HideSeek_v1,2022.2.5,60.340198041971654,
,5,7,0,7,-5,0,66,,train_dim1_1,5,30,,,,2,0,2,0,,,,,,,,,0,0,0,0,0,4,4,4,8,0,8,0,,,,,,,,,,,,,,,,,,,,,,,,,,,,,,,,,,,,,,,,,,,,,,,,,,,,,,,,,,,,,,,,30,,,,,,,,1355.007395699853,1355.007395699853,1355.007395699853,1355.007395699853,1355.007395699853,left,0.24313329998403788,0,1,0,99,-2.7755575615628914e-17,0.16,left,0.15491969999857247,,,,,,,,,,,,,,,,,,,,,,,,,,,,,,,,,,,,,,,,,,,,,,,,,,,,,,,,,,,,CLY40D,train_x,red_square,top_right,2024-11-25_15h09.19.742,HideSeek_v1,2022.2.5,60.340198041971654,
,5,7,0,7,-5,0,66,,train_dim1_1,5,30,,,,2,0,2,0,,,,,,,,,0,0,0,0,0,4,4,4,9,0,9,0,,,,,,,,,,,,,,,,,,,,,,,,,,,,,,,,,,,,,,,,,,,,,,,,,,,,,,,,,,,,,,,,30,,,,,,,,1355.2571695998777,1355.2571695998777,1355.2571695998777,1355.2571695998777,1355.2571695998777,right,1.0943600998725742,0,1,0,99,0.07999999999999997,0.16,right,1.0224459001328796,,,,,,,,,,,,,,,,,,,,,,,,,,,,,,,,,,,,,,,,,,,,,,,,,,,,,,,,,,,,CLY40D,train_x,red_square,top_right,2024-11-25_15h09.19.742,HideSeek_v1,2022.2.5,60.340198041971654,
,5,7,0,7,-5,0,66,,train_dim1_1,5,30,,,,2,0,2,0,,,,,,,,,0,0,0,0,0,4,4,4,10,0,10,0,,,,,,,,,,,,,,,,,,,,,,,,,,,,,,,,,,,,,,,,,,,,,,,,,,,,,,,,,,,,,,,,30,,,,,,,,1356.35807499988,1356.35807499988,1356.35807499988,1356.35807499988,1356.35807499988,right,1.0604443999473006,0,1,0,99,0.15999999999999998,0.16,right,0.9881148000713438,,,,,,,,,,,,,,,,,,,,,,,,,,,,,,,,,,,,,,,,,,,,,,,,,,,,,,,,,,,,CLY40D,train_x,red_square,top_right,2024-11-25_15h09.19.742,HideSeek_v1,2022.2.5,60.340198041971654,
,5,7,0,7,-5,0,66,,train_dim1_1,5,30,,,,2,0,2,0,,,,,,,,,0,0,0,0,0,4,4,4,11,0,11,0,,,,,,,,,,,,,,,,,,,,,,,,,,,,,,,,,,,,,,,,,,,,,,,,,,,,,,,,,,,,,,,,30,,,,,,,,1357.425366499927,1357.425366499927,1357.425366499927,1357.425366499927,1357.425366499927,right,0.643817099975422,0,1,0,99,0.24,0.16,right,0.5687478000763804,,,,,,,,,,,,,,,,,,,,,,,,,,,,,,,,,,,,,,,,,,,,,,,,,,,,,,,,,,,,CLY40D,train_x,red_square,top_right,2024-11-25_15h09.19.742,HideSeek_v1,2022.2.5,60.340198041971654,
,5,7,0,7,-5,0,66,,train_dim1_1,5,30,,,,2,0,2,0,,,,,,,,,0,0,0,0,0,4,4,4,12,0,12,0,,,,,,,,,,,,,,,,,,,,,,,,,,,,,,,,,,,,,,,,,,,,,,,,,,,,,,,,,,,,,,,,30,,,,,,,,1358.0761956998613,1358.0761956998613,1358.0761956998613,1358.0761956998613,1358.0761956998613,left,1.7612717000301927,0,1,0,99,0.15999999999999998,0.16,left,1.6812515000347048,,,,,,,,,,,,,,,,,,,,,,,,,,,,,,,,,,,,,,,,,,,,,,,,,,,,,,,,,,,,CLY40D,train_x,red_square,top_right,2024-11-25_15h09.19.742,HideSeek_v1,2022.2.5,60.340198041971654,
,5,7,0,7,-5,0,66,,train_dim1_1,5,30,,,,2,0,2,0,,,,,,,,,0,0,0,0,0,4,4,4,13,0,13,0,,,,,,,,,,,,,,,,,,,,,,,,,,,,,,,,,,,,,,,,,,,,,,,,,,,,,,,,,,,,,,,,30,,,,,,,,1359.8455592999235,1359.8455592999235,1359.8455592999235,1359.8455592999235,1359.8455592999235,left,0.6272356999106705,0,1,0,99,0.07999999999999997,0.16,left,0.5457272999919951,,,,,,,,,,,,,,,,,,,,,,,,,,,,,,,,,,,,,,,,,,,,,,,,,,,,,,,,,,,,CLY40D,train_x,red_square,top_right,2024-11-25_15h09.19.742,HideSeek_v1,2022.2.5,60.340198041971654,
,5,7,0,7,-5,0,66,,train_dim1_1,5,30,,,,2,0,2,0,,,,,,,,,0,0,0,0,0,4,4,4,14,0,14,0,,,,,,,,,,,,,,,,,,,,,,,,,,,,,,,,,,,,,,,,,,,,,,,,,,,,,,,,,,,,,,,,30,,,,,,,,1360.4791792000178,1360.4791792000178,1360.4791792000178,1360.4791792000178,1360.4791792000178,left,0.7435890000779182,0,1,0,99,-2.7755575615628914e-17,0.16,left,0.656003599986434,,,,,,,,,,,,,,,,,,,,,,,,,,,,,,,,,,,,,,,,,,,,,,,,,,,,,,,,,,,,CLY40D,train_x,red_square,top_right,2024-11-25_15h09.19.742,HideSeek_v1,2022.2.5,60.340198041971654,
,5,7,0,7,-5,0,66,,train_dim1_1,5,30,,,,2,0,2,0,,,,,,,,,0,0,0,0,0,4,4,4,15,0,15,0,,,,,,,,,,,,,,,,,,,,,,,,,,,,,,,,,,,,,,,,,,,,,,,,,,,,,,,,,,,,,,,,30,,,,,,,,1361.2296770999674,1361.2296770999674,1361.2296770999674,1361.2296770999674,1361.2296770999674,left,0.6935346000827849,0,1,0,99,-0.08000000000000003,0.16,left,0.6173113998956978,,,,,,,,,,,,,,,,,,,,,,,,,,,,,,,,,,,,,,,,,,,,,,,,,,,,,,,,,,,,CLY40D,train_x,red_square,top_right,2024-11-25_15h09.19.742,HideSeek_v1,2022.2.5,60.340198041971654,
,5,7,0,7,-5,0,66,,train_dim1_1,5,30,,,,2,0,2,0,,,,,,,,,0,0,0,0,0,4,4,4,16,0,16,0,,,,,,,,,,,,,,,,,,,,,,,,,,,,,,,,,,,,,,,,,,,,,,,,,,,,,,,,,,,,,,,,30,,,,,,,,1361.9297716999426,1361.9297716999426,1361.9297716999426,1361.9297716999426,1361.9297716999426,right,1.1106184001546353,0,1,0,99,-2.7755575615628914e-17,0.16,right,1.0345707999076694,,,,,,,,,,,,,,,,,,,,,,,,,,,,,,,,,,,,,,,,,,,,,,,,,,,,,,,,,,,,CLY40D,train_x,red_square,top_right,2024-11-25_15h09.19.742,HideSeek_v1,2022.2.5,60.340198041971654,
,5,7,0,7,-5,0,66,,train_dim1_1,5,30,,,,2,0,2,0,,,,,,,,,0,0,0,0,0,4,4,4,17,0,17,0,,,,,,,,,,,,,,,,,,,,,,,,,,,,,,,,,,,,,,,,,,,,,,,,,,,,,,,,,,,,,,,,30,,,,,,,,1363.0617803998757,1363.0617803998757,1363.0617803998757,1363.0617803998757,1363.0617803998757,right,0.24331070017069578,0,1,0,99,0.07999999999999997,0.16,right,0.14083670009858906,,,,,,,,,,,,,,,,,,,,,,,,,,,,,,,,,,,,,,,,,,,,,,,,,,,,,,,,,,,,CLY40D,train_x,red_square,top_right,2024-11-25_15h09.19.742,HideSeek_v1,2022.2.5,60.340198041971654,
,5,7,0,7,-5,0,66,,train_dim1_1,5,30,,,,2,0,2,0,,,,,,,,,0,0,0,0,0,4,4,4,18,0,18,0,,,,,,,,,,,,,,,,,,,,,,,,,,,,,,,,,,,,,,,,,,,,,,,,,,,,,,,,,,,,,,,,30,,,,,,,,1363.2978521999903,1363.2978521999903,1363.2978521999903,1363.2978521999903,1363.2978521999903,left,1.0936201999429613,0,1,0,99,-2.7755575615628914e-17,0.16,left,1.0125685001257807,,,,,,,,,,,,,,,,,,,,,,,,,,,,,,,,,,,,,,,,,,,,,,,,,,,,,,,,,,,,CLY40D,train_x,red_square,top_right,2024-11-25_15h09.19.742,HideSeek_v1,2022.2.5,60.340198041971654,
,5,7,0,7,-5,0,66,,train_dim1_1,5,30,,,,2,0,2,0,,,,,,,,,0,0,0,0,0,4,4,4,19,0,19,0,,,,,,,,,,,,,,,,,,,,,,,,,,,,,,,,,,,,,,,,,,,,,,,,,,,,,,,,,,,,,,,,30,,,,,,,,1364.3988554000389,1364.3988554000389,1364.3988554000389,1364.3988554000389,1364.3988554000389,return,4.446755500044674,0,0,0,0,-2.7755575615628914e-17,0.16,return,4.362479399889708,-5,-10,-2.7755575615628914e-17,0.16,,,,,,,,,,,,,,,,,,,,,,,,,,,,,,,,,,,,,,,,,,,,,,,,,,,,,,,,CLY40D,train_x,red_square,top_right,2024-11-25_15h09.19.742,HideSeek_v1,2022.2.5,60.340198041971654,
,5,5,4,5,-1,0,26,,train_dim1_1,6,30,,,,2,0,2,0,,,,,,,,,0,0,0,0,0,5,5,5,0,0,0,0,,,,,,,,,,,,,,,,,,,,,,,,,stimuli/alien_stimuli/26.png,,,,,,,,,,,,,,,,,,,,,,,,,,,,,stimuli/alien_stimuli/66.png,66,5,7,,,,,,,30,,,,,,,,1375.9492778000422,1375.9492778000422,1375.9492778000422,1375.9492778000422,1375.9492778000422,left,4.791790899820626,0,0,0,99,0.15999999999999998,0,left,4.697780999820679,,,,,1374.37708929996,1375.9492778000422,-0.16,0.16,0.0,0.4,0.16,-0.16,0.039999999999999994,-0.16,0.16,1370.4315803998616,1370.4315803998616,1370.4315803998616,1370.4315803998616,1370.4315803998616,1370.4315803998616,1370.4315803998616,1370.4315803998616,1370.423731180001,4.0722652999684215,return,3.9185039000585675,,,,,,,,,,,,,,,,,,,,,,,,,,,,,,,,,CLY40D,train_x,red_square,top_right,2024-11-25_15h09.19.742,HideSeek_v1,2022.2.5,60.340198041971654,
,5,5,4,5,-1,0,26,,train_dim1_1,6,30,,,,2,0,2,0,,,,,,,,,0,0,0,0,0,5,5,5,1,0,1,0,,,,,,,,,,,,,,,,,,,,,,,,,,,,,,,,,,,,,,,,,,,,,,,,,,,,,,,,,,,,,,,,30,,,,,,,,1380.7341747998726,1380.7341747998726,1380.7341747998726,1380.7341747998726,1380.7341747998726,left,0.19257870013825595,0,0,0,99,0.07999999999999997,0,left,0.11131140007637441,,,,,,,,,,,,,,,,,,,,,,,,,,,,,,,,,,,,,,,,,,,,,,,,,,,,,,,,,,,,CLY40D,train_x,red_square,top_right,2024-11-25_15h09.19.742,HideSeek_v1,2022.2.5,60.340198041971654,
,5,5,4,5,-1,0,26,,train_dim1_1,6,30,,,,2,0,2,0,,,,,,,,,0,0,0,0,0,5,5,5,2,0,2,0,,,,,,,,,,,,,,,,,,,,,,,,,,,,,,,,,,,,,,,,,,,,,,,,,,,,,,,,,,,,,,,,30,,,,,,,,1380.9428509999998,1380.9428509999998,1380.9428509999998,1380.9428509999998,1380.9428509999998,right,0.9606705000624061,0,0,0,99,0.15999999999999998,0,right,0.8687738999724388,,,,,,,,,,,,,,,,,,,,,,,,,,,,,,,,,,,,,,,,,,,,,,,,,,,,,,,,,,,,CLY40D,train_x,red_square,top_right,2024-11-25_15h09.19.742,HideSeek_v1,2022.2.5,60.340198041971654,
,5,5,4,5,-1,0,26,,train_dim1_1,6,30,,,,2,0,2,0,,,,,,,,,0,0,0,0,0,5,5,5,3,0,3,0,,,,,,,,,,,,,,,,,,,,,,,,,,,,,,,,,,,,,,,,,,,,,,,,,,,,,,,,,,,,,,,,30,,,,,,,,1381.9007233998273,1381.9007233998273,1381.9007233998273,1381.9007233998273,1381.9007233998273,right,1.977924000006169,0,0,0,99,0.24,0,right,1.8876600998919457,,,,,,,,,,,,,,,,,,,,,,,,,,,,,,,,,,,,,,,,,,,,,,,,,,,,,,,,,,,,CLY40D,train_x,red_square,top_right,2024-11-25_15h09.19.742,HideSeek_v1,2022.2.5,60.340198041971654,
,5,5,4,5,-1,0,26,,train_dim1_1,6,30,,,,2,0,2,0,,,,,,,,,0,0,0,0,0,5,5,5,4,0,4,0,,,,,,,,,,,,,,,,,,,,,,,,,,,,,,,,,,,,,,,,,,,,,,,,,,,,,,,,,,,,,,,,30,,,,,,,,1383.8858164998237,1383.8858164998237,1383.8858164998237,1383.8858164998237,1383.8858164998237,left,2.0944986999966204,0,0,0,99,0.15999999999999998,0,left,2.00396759994328,,,,,,,,,,,,,,,,,,,,,,,,,,,,,,,,,,,,,,,,,,,,,,,,,,,,,,,,,,,,CLY40D,train_x,red_square,top_right,2024-11-25_15h09.19.742,HideSeek_v1,2022.2.5,60.340198041971654,
,5,5,4,5,-1,0,26,,train_dim1_1,6,30,,,,2,0,2,0,,,,,,,,,0,0,0,0,0,5,5,5,5,0,5,0,,,,,,,,,,,,,,,,,,,,,,,,,,,,,,,,,,,,,,,,,,,,,,,,,,,,,,,,,,,,,,,,30,,,,,,,,1385.9879632999655,1385.9879632999655,1385.9879632999655,1385.9879632999655,1385.9879632999655,return,11.936228499980643,1,0,0,1,0.15999999999999998,0,return,11.850572700146586,-5,-11,0.15999999999999998,0,,,,,,,,,,,,,,,,,,,,,,,,,,,,,,,,,,,,,,,,,,,,,,,,,,,,,,,,CLY40D,train_x,red_square,top_right,2024-11-25_15h09.19.742,HideSeek_v1,2022.2.5,60.340198041971654,
,8,5,3,5,-5,0,66,,train_dim1_1,7,30,,,,2,0,2,0,,,,,,,,,0,0,0,0,0,6,6,6,0,0,0,0,,,,,,,,,,,,,,,,,,,,,,,,,stimuli/alien_stimuli/66.png,,,,,,,,,,,,,,,,,,,,,,,,,,,,,stimuli/alien_stimuli/26.png,26,5,8,,,,,,,30,,,,,,,,1409.0221277000383,1409.0221277000383,1409.0221277000383,1409.0221277000383,1409.0221277000383,left,2.4221733000595123,1,0,0,99,0.39999999999999997,0,left,2.326456599868834,,,,,1407.4544786999468,1409.0221277000383,0.16,0,0.0,0.08,0.0,0.16,0.2,0.16,0,1399.5385400999803,1399.5385400999803,1399.5385400999803,1399.5385400999803,1399.5385400999803,1399.5385400999803,1399.5385400999803,1399.5385400999803,1399.5314154000953,8.07509549986571,return,7.8873527001123875,,,,,,,,,,,,,,,,,,,,,,,,,,,,,,,,,CLY40D,train_x,red_square,top_right,2024-11-25_15h09.19.742,HideSeek_v1,2022.2.5,60.340198041971654,
,8,5,3,5,-5,0,66,,train_dim1_1,7,30,,,,2,0,2,0,,,,,,,,,0,0,0,0,0,6,6,6,1,0,1,0,,,,,,,,,,,,,,,,,,,,,,,,,,,,,,,,,,,,,,,,,,,,,,,,,,,,,,,,,,,,,,,,30,,,,,,,,1411.4378219998907,1411.4378219998907,1411.4378219998907,1411.4378219998907,1411.4378219998907,left,0.1261859000660479,1,0,0,99,0.31999999999999995,0,left,0.04078679997473955,,,,,,,,,,,,,,,,,,,,,,,,,,,,,,,,,,,,,,,,,,,,,,,,,,,,,,,,,,,,CLY40D,train_x,red_square,top_right,2024-11-25_15h09.19.742,HideSeek_v1,2022.2.5,60.340198041971654,
,8,5,3,5,-5,0,66,,train_dim1_1,7,30,,,,2,0,2,0,,,,,,,,,0,0,0,0,0,6,6,6,2,0,2,0,,,,,,,,,,,,,,,,,,,,,,,,,,,,,,,,,,,,,,,,,,,,,,,,,,,,,,,,,,,,,,,,30,,,,,,,,1411.5729000999127,1411.5729000999127,1411.5729000999127,1411.5729000999127,1411.5729000999127,left,0.4267877000384033,1,0,0,99,0.23999999999999994,0,left,0.3472859999164939,,,,,,,,,,,,,,,,,,,,,,,,,,,,,,,,,,,,,,,,,,,,,,,,,,,,,,,,,,,,CLY40D,train_x,red_square,top_right,2024-11-25_15h09.19.742,HideSeek_v1,2022.2.5,60.340198041971654,
,8,5,3,5,-5,0,66,,train_dim1_1,7,30,,,,2,0,2,0,,,,,,,,,0,0,0,0,0,6,6,6,3,0,3,0,,,,,,,,,,,,,,,,,,,,,,,,,,,,,,,,,,,,,,,,,,,,,,,,,,,,,,,,,,,,,,,,30,,,,,,,,1412.0080530999694,1412.0080530999694,1412.0080530999694,1412.0080530999694,1412.0080530999694,right,0.9772361000068486,1,0,0,99,0.31999999999999995,0,right,0.8919387001078576,,,,,,,,,,,,,,,,,,,,,,,,,,,,,,,,,,,,,,,,,,,,,,,,,,,,,,,,,,,,CLY40D,train_x,red_square,top_right,2024-11-25_15h09.19.742,HideSeek_v1,2022.2.5,60.340198041971654,
,8,5,3,5,-5,0,66,,train_dim1_1,7,30,,,,2,0,2,0,,,,,,,,,0,0,0,0,0,6,6,6,4,0,4,0,,,,,,,,,,,,,,,,,,,,,,,,,,,,,,,,,,,,,,,,,,,,,,,,,,,,,,,,,,,,,,,,30,,,,,,,,1412.9908802998252,1412.9908802998252,1412.9908802998252,1412.9908802998252,1412.9908802998252,right,0.7599758000578731,1,0,0,99,0.39999999999999997,0,right,0.6864239000715315,,,,,,,,,,,,,,,,,,,,,,,,,,,,,,,,,,,,,,,,,,,,,,,,,,,,,,,,,,,,CLY40D,train_x,red_square,top_right,2024-11-25_15h09.19.742,HideSeek_v1,2022.2.5,60.340198041971654,
,8,5,3,5,-5,0,66,,train_dim1_1,7,30,,,,2,0,2,0,,,,,,,,,0,0,0,0,0,6,6,6,5,0,5,0,,,,,,,,,,,,,,,,,,,,,,,,,,,,,,,,,,,,,,,,,,,,,,,,,,,,,,,,,,,,,,,,30,,,,,,,,1413.756314799888,1413.756314799888,1413.756314799888,1413.756314799888,1413.756314799888,right,0.5100143000017852,1,0,0,99,0.48,0,right,0.43628619983792305,,,,,,,,,,,,,,,,,,,,,,,,,,,,,,,,,,,,,,,,,,,,,,,,,,,,,,,,,,,,CLY40D,train_x,red_square,top_right,2024-11-25_15h09.19.742,HideSeek_v1,2022.2.5,60.340198041971654,
,8,5,3,5,-5,0,66,,train_dim1_1,7,30,,,,2,0,2,0,,,,,,,,,0,0,0,0,0,6,6,6,6,0,6,0,,,,,,,,,,,,,,,,,,,,,,,,,,,,,,,,,,,,,,,,,,,,,,,,,,,,,,,,,,,,,,,,30,,,,,,,,1414.2790566999465,1414.2790566999465,1414.2790566999465,1414.2790566999465,1414.2790566999465,left,0.8099858998320997,1,0,0,99,0.39999999999999997,0,left,0.7312630000524223,,,,,,,,,,,,,,,,,,,,,,,,,,,,,,,,,,,,,,,,,,,,,,,,,,,,,,,,,,,,CLY40D,train_x,red_square,top_right,2024-11-25_15h09.19.742,HideSeek_v1,2022.2.5,60.340198041971654,
,8,5,3,5,-5,0,66,,train_dim1_1,7,30,,,,2,0,2,0,,,,,,,,,0,0,0,0,0,6,6,6,7,0,7,0,,,,,,,,,,,,,,,,,,,,,,,,,,,,,,,,,,,,,,,,,,,,,,,,,,,,,,,,,,,,,,,,30,,,,,,,,1415.09098969982,1415.09098969982,1415.09098969982,1415.09098969982,1415.09098969982,left,0.4601974000688642,1,0,0,99,0.31999999999999995,0,left,0.3730826999526471,,,,,,,,,,,,,,,,,,,,,,,,,,,,,,,,,,,,,,,,,,,,,,,,,,,,,,,,,,,,CLY40D,train_x,red_square,top_right,2024-11-25_15h09.19.742,HideSeek_v1,2022.2.5,60.340198041971654,
,8,5,3,5,-5,0,66,,train_dim1_1,7,30,,,,2,0,2,0,,,,,,,,,0,0,0,0,0,6,6,6,8,0,8,0,,,,,,,,,,,,,,,,,,,,,,,,,,,,,,,,,,,,,,,,,,,,,,,,,,,,,,,,,,,,,,,,30,,,,,,,,1415.5580491998699,1415.5580491998699,1415.5580491998699,1415.5580491998699,1415.5580491998699,left,0.4097589000593871,1,0,0,99,0.23999999999999994,0,left,0.33244939986616373,,,,,,,,,,,,,,,,,,,,,,,,,,,,,,,,,,,,,,,,,,,,,,,,,,,,,,,,,,,,CLY40D,train_x,red_square,top_right,2024-11-25_15h09.19.742,HideSeek_v1,2022.2.5,60.340198041971654,
,8,5,3,5,-5,0,66,,train_dim1_1,7,30,,,,2,0,2,0,,,,,,,,,0,0,0,0,0,6,6,6,9,0,9,0,,,,,,,,,,,,,,,,,,,,,,,,,,,,,,,,,,,,,,,,,,,,,,,,,,,,,,,,,,,,,,,,30,,,,,,,,1415.9765019000042,1415.9765019000042,1415.9765019000042,1415.9765019000042,1415.9765019000042,left,0.4099910999648273,1,0,0,99,0.15999999999999992,0,left,0.33279679995030165,,,,,,,,,,,,,,,,,,,,,,,,,,,,,,,,,,,,,,,,,,,,,,,,,,,,,,,,,,,,CLY40D,train_x,red_square,top_right,2024-11-25_15h09.19.742,HideSeek_v1,2022.2.5,60.340198041971654,
,8,5,3,5,-5,0,66,,train_dim1_1,7,30,,,,2,0,2,0,,,,,,,,,0,0,0,0,0,6,6,6,10,0,10,0,,,,,,,,,,,,,,,,,,,,,,,,,,,,,,,,,,,,,,,,,,,,,,,,,,,,,,,,,,,,,,,,30,,,,,,,,1416.3938948998693,1416.3938948998693,1416.3938948998693,1416.3938948998693,1416.3938948998693,left,0.427133500110358,1,0,0,99,0.07999999999999992,0,left,0.3410249000880867,,,,,,,,,,,,,,,,,,,,,,,,,,,,,,,,,,,,,,,,,,,,,,,,,,,,,,,,,,,,CLY40D,train_x,red_square,top_right,2024-11-25_15h09.19.742,HideSeek_v1,2022.2.5,60.340198041971654,
,8,5,3,5,-5,0,66,,train_dim1_1,7,30,,,,2,0,2,0,,,,,,,,,0,0,0,0,0,6,6,6,11,0,11,0,,,,,,,,,,,,,,,,,,,,,,,,,,,,,,,,,,,,,,,,,,,,,,,,,,,,,,,,,,,,,,,,30,,,,,,,,1416.824807799887,1416.824807799887,1416.824807799887,1416.824807799887,1416.824807799887,left,0.4267977001145482,1,0,0,99,-8.326672684688674e-17,0,left,0.3489991999231279,,,,,,,,,,,,,,,,,,,,,,,,,,,,,,,,,,,,,,,,,,,,,,,,,,,,,,,,,,,,CLY40D,train_x,red_square,top_right,2024-11-25_15h09.19.742,HideSeek_v1,2022.2.5,60.340198041971654,
,8,5,3,5,-5,0,66,,train_dim1_1,7,30,,,,2,0,2,0,,,,,,,,,0,0,0,0,0,6,6,6,12,0,12,0,,,,,,,,,,,,,,,,,,,,,,,,,,,,,,,,,,,,,,,,,,,,,,,,,,,,,,,,,,,,,,,,30,,,,,,,,1417.2603916998487,1417.2603916998487,1417.2603916998487,1417.2603916998487,1417.2603916998487,return,1.260757700074464,1,1,0,0,-8.326672684688674e-17,0,return,1.1710826000198722,-5,-17,-8.326672684688674e-17,0,,,,,,,,,,,,,,,,,,,,,,,,,,,,,,,,,,,,,,,,,,,,,,,,,,,,,,,,CLY40D,train_x,red_square,top_right,2024-11-25_15h09.19.742,HideSeek_v1,2022.2.5,60.340198041971654,
,5,9,3,9,-2,0,36,,train_dim1_1,8,30,,,,2,0,2,0,,,,,,,,,0,0,0,0,0,7,7,7,0,0,0,0,,,,,,,,,,,,,,,,,,,,,,,,,stimuli/alien_stimuli/36.png,,,,,,,,,,,,,,,,,,,,,,,,,,,,,stimuli/alien_stimuli/66.png,66,8,9,,,,,,,30,,,,,,,,1428.7463793000206,1428.7463793000206,1428.7463793000206,1428.7463793000206,1428.7463793000206,down,3.724028200143948,1,1,0,99,0.24,0.24,down,3.6452709999866784,,,,,1427.1876487999689,1428.7463793000206,0.08,0,0.0,0.4,0.0,0.08,0.27999999999999997,0.08,0,1420.1039896998554,1420.1039896998554,1420.1039896998554,1420.1039896998554,1420.1039896998554,1420.1039896998554,1420.1039896998554,1420.1039896998554,1420.0816922200843,7.208332899957895,return,7.064803499961272,,,,,,,,,,,,,,,,,,,,,,,,,,,,,,,,,CLY40D,train_x,red_square,top_right,2024-11-25_15h09.19.742,HideSeek_v1,2022.2.5,60.340198041971654,
,5,9,3,9,-2,0,36,,train_dim1_1,8,30,,,,2,0,2,0,,,,,,,,,0,0,0,0,0,7,7,7,1,0,1,0,,,,,,,,,,,,,,,,,,,,,,,,,,,,,,,,,,,,,,,,,,,,,,,,,,,,,,,,,,,,,,,,30,,,,,,,,1432.4724102998152,1432.4724102998152,1432.4724102998152,1432.4724102998152,1432.4724102998152,down,0.49299250007607043,1,1,0,99,0.24,0.15999999999999998,down,0.41948599996976554,,,,,,,,,,,,,,,,,,,,,,,,,,,,,,,,,,,,,,,,,,,,,,,,,,,,,,,,,,,,CLY40D,train_x,red_square,top_right,2024-11-25_15h09.19.742,HideSeek_v1,2022.2.5,60.340198041971654,
,5,9,3,9,-2,0,36,,train_dim1_1,8,30,,,,2,0,2,0,,,,,,,,,0,0,0,0,0,7,7,7,2,0,2,0,,,,,,,,,,,,,,,,,,,,,,,,,,,,,,,,,,,,,,,,,,,,,,,,,,,,,,,,,,,,,,,,30,,,,,,,,1432.9738472998142,1432.9738472998142,1432.9738472998142,1432.9738472998142,1432.9738472998142,return,1.160502500133589,1,0,0,0,0.24,0.15999999999999998,return,1.0785398001316935,-7,-17,0.24,0.15999999999999998,,,,,,,,,,,,,,,,,,,,,,,,,,,,,,,,,,,,,,,,,,,,,,,,,,,,,,,,CLY40D,train_x,red_square,top_right,2024-11-25_15h09.19.742,HideSeek_v1,2022.2.5,60.340198041971654,
,6,5,2,5,-4,0,56,,train_dim1_1,9,30,,,,2,0,2,0,,,,,,,,,0,0,0,0,0,8,8,8,0,0,0,0,,,,,,,,,,,,,,,,,,,,,,,,,stimuli/alien_stimuli/56.png,,,,,,,,,,,,,,,,,,,,,,,,,,,,,stimuli/alien_stimuli/36.png,36,5,10,,,,,,,30,,,,,,,,1442.6829313000198,1442.6829313000198,1442.6829313000198,1442.6829313000198,1442.6829313000198,left,2.9028513999655843,1,0,0,99,0.24,0,left,2.8154347999952734,,,,,1441.1159102998208,1442.6829313000198,0.08,0.32,0.0,0.16,0.32,0.08,0.16,0.08,0.32,1435.719546499895,1435.719546499895,1435.719546499895,1435.719546499895,1435.719546499895,1435.719546499895,1435.719546499895,1435.719546499895,1435.7113100801128,5.5233412000816315,return,5.364780199946836,,,,,,,,,,,,,,,,,,,,,,,,,,,,,,,,,CLY40D,train_x,red_square,top_right,2024-11-25_15h09.19.742,HideSeek_v1,2022.2.5,60.340198041971654,
,6,5,2,5,-4,0,56,,train_dim1_1,9,30,,,,2,0,2,0,,,,,,,,,0,0,0,0,0,8,8,8,1,0,1,0,,,,,,,,,,,,,,,,,,,,,,,,,,,,,,,,,,,,,,,,,,,,,,,,,,,,,,,,,,,,,,,,30,,,,,,,,1445.5868088998832,1445.5868088998832,1445.5868088998832,1445.5868088998832,1445.5868088998832,left,0.4261364000849426,1,0,0,99,0.15999999999999998,0,left,0.34483049996197224,,,,,,,,,,,,,,,,,,,,,,,,,,,,,,,,,,,,,,,,,,,,,,,,,,,,,,,,,,,,CLY40D,train_x,red_square,top_right,2024-11-25_15h09.19.742,HideSeek_v1,2022.2.5,60.340198041971654,
,6,5,2,5,-4,0,56,,train_dim1_1,9,30,,,,2,0,2,0,,,,,,,,,0,0,0,0,0,8,8,8,2,0,2,0,,,,,,,,,,,,,,,,,,,,,,,,,,,,,,,,,,,,,,,,,,,,,,,,,,,,,,,,,,,,,,,,30,,,,,,,,1446.0200598998927,1446.0200598998927,1446.0200598998927,1446.0200598998927,1446.0200598998927,left,0.4102847999893129,1,0,0,99,0.07999999999999997,0,left,0.330339000094682,,,,,,,,,,,,,,,,,,,,,,,,,,,,,,,,,,,,,,,,,,,,,,,,,,,,,,,,,,,,CLY40D,train_x,red_square,top_right,2024-11-25_15h09.19.742,HideSeek_v1,2022.2.5,60.340198041971654,
,6,5,2,5,-4,0,56,,train_dim1_1,9,30,,,,2,0,2,0,,,,,,,,,0,0,0,0,0,8,8,8,3,0,3,0,,,,,,,,,,,,,,,,,,,,,,,,,,,,,,,,,,,,,,,,,,,,,,,,,,,,,,,,,,,,,,,,30,,,,,,,,1446.4535123000387,1446.4535123000387,1446.4535123000387,1446.4535123000387,1446.4535123000387,left,0.3836475999560207,1,0,0,99,-2.7755575615628914e-17,0,left,0.2989982001017779,,,,,,,,,,,,,,,,,,,,,,,,,,,,,,,,,,,,,,,,,,,,,,,,,,,,,,,,,,,,CLY40D,train_x,red_square,top_right,2024-11-25_15h09.19.742,HideSeek_v1,2022.2.5,60.340198041971654,
,6,5,2,5,-4,0,56,,train_dim1_1,9,30,,,,2,0,2,0,,,,,,,,,0,0,0,0,0,8,8,8,4,0,4,0,,,,,,,,,,,,,,,,,,,,,,,,,,,,,,,,,,,,,,,,,,,,,,,,,,,,,,,,,,,,,,,,30,,,,,,,,1446.8371347000357,1446.8371347000357,1446.8371347000357,1446.8371347000357,1446.8371347000357,left,0.4096729999873787,1,0,0,99,-0.08000000000000003,0,left,0.32184670004062355,,,,,,,,,,,,,,,,,,,,,,,,,,,,,,,,,,,,,,,,,,,,,,,,,,,,,,,,,,,,CLY40D,train_x,red_square,top_right,2024-11-25_15h09.19.742,HideSeek_v1,2022.2.5,60.340198041971654,
,6,5,2,5,-4,0,56,,train_dim1_1,9,30,,,,2,0,2,0,,,,,,,,,0,0,0,0,0,8,8,8,5,0,5,0,,,,,,,,,,,,,,,,,,,,,,,,,,,,,,,,,,,,,,,,,,,,,,,,,,,,,,,,,,,,,,,,30,,,,,,,,1447.2572717999574,1447.2572717999574,1447.2572717999574,1447.2572717999574,1447.2572717999574,return,1.794455299852416,1,1,0,0,-0.08000000000000003,0,return,1.7028500000014901,-7,-22,-0.08000000000000003,0,,,,,,,,,,,,,,,,,,,,,,,,,,,,,,,,,,,,,,,,,,,,,,,,,,,,,,,,CLY40D,train_x,red_square,top_right,2024-11-25_15h09.19.742,HideSeek_v1,2022.2.5,60.340198041971654,
,5,8,5,8,0,0,16,,train_dim1_1,10,30,,,,2,0,2,0,,,,,,,,,0,0,0,0,0,9,9,9,0,0,0,0,,,,,,,,,,,,,,,,,,,,,,,,,stimuli/alien_stimuli/16.png,,,,,,,,,,,,,,,,,,,,,,,,,,,,,stimuli/alien_stimuli/56.png,56,6,11,,,,,,,30,,,,,,,,1456.6414576999377,1456.6414576999377,1456.6414576999377,1456.6414576999377,1456.6414576999377,return,3.42446929984726,2,0,0,1,0.24,0.24,return,3.339613600168377,-7,-22,0.24,0.24,1455.077556999866,1456.6414576999377,0,0,0.0,0.32,0.0,0,0.16,0,0,1450.626504899934,1450.626504899934,1450.626504899934,1450.626504899934,1450.626504899934,1450.626504899934,1450.626504899934,1450.626504899934,1450.6070315198972,4.5727153001353145,return,4.429891700157896,,,,,,,,,,,,,,,,,,,,,,,,,,,,,,,,,CLY40D,train_x,red_square,top_right,2024-11-25_15h09.19.742,HideSeek_v1,2022.2.5,60.340198041971654,
,7,7,5,7,-2,0,36,,train_dim1_1,11,30,,,,2,0,2,0,,,,,,,,,0,0,0,0,0,10,10,10,0,0,0,0,,,,,,,,,,,,,,,,,,,,,,,,,stimuli/alien_stimuli/36.png,,,,,,,,,,,,,,,,,,,,,,,,,,,,,stimuli/alien_stimuli/16.png,16,5,12,,,,,,,30,,,,,,,,1466.6449348998722,1466.6449348998722,1466.6449348998722,1466.6449348998722,1466.6449348998722,left,3.5583695000968874,2,0,0,99,0.32,0.16,left,3.4675410999916494,,,,,1465.085721499985,1466.6449348998722,0.24,0.24,0.0,0.0,0.24,0.24,0.24,0.24,0.24,1461.6481731999665,1461.6481731999665,1461.6481731999665,1461.6481731999665,1461.6481731999665,1461.6481731999665,1461.6481731999665,1461.6481731999665,1461.6329150799195,3.5720043999608606,return,3.41716150008142,,,,,,,,,,,,,,,,,,,,,,,,,,,,,,,,,CLY40D,train_x,red_square,top_right,2024-11-25_15h09.19.742,HideSeek_v1,2022.2.5,60.340198041971654,
,7,7,5,7,-2,0,36,,train_dim1_1,11,30,,,,2,0,2,0,,,,,,,,,0,0,0,0,0,10,10,10,1,0,1,0,,,,,,,,,,,,,,,,,,,,,,,,,,,,,,,,,,,,,,,,,,,,,,,,,,,,,,,,,,,,,,,,30,,,,,,,,1470.2055526999757,1470.2055526999757,1470.2055526999757,1470.2055526999757,1470.2055526999757,left,0.14230030006729066,2,0,0,99,0.24,0.16,left,0.05859709996730089,,,,,,,,,,,,,,,,,,,,,,,,,,,,,,,,,,,,,,,,,,,,,,,,,,,,,,,,,,,,CLY40D,train_x,red_square,top_right,2024-11-25_15h09.19.742,HideSeek_v1,2022.2.5,60.340198041971654,
,7,7,5,7,-2,0,36,,train_dim1_1,11,30,,,,2,0,2,0,,,,,,,,,0,0,0,0,0,10,10,10,2,0,2,0,,,,,,,,,,,,,,,,,,,,,,,,,,,,,,,,,,,,,,,,,,,,,,,,,,,,,,,,,,,,,,,,30,,,,,,,,1470.3563993999269,1470.3563993999269,1470.3563993999269,1470.3563993999269,1470.3563993999269,left,0.36012499989010394,2,0,0,99,0.15999999999999998,0.16,left,0.2737529000733048,,,,,,,,,,,,,,,,,,,,,,,,,,,,,,,,,,,,,,,,,,,,,,,,,,,,,,,,,,,,CLY40D,train_x,red_square,top_right,2024-11-25_15h09.19.742,HideSeek_v1,2022.2.5,60.340198041971654,
,7,7,5,7,-2,0,36,,train_dim1_1,11,30,,,,2,0,2,0,,,,,,,,,0,0,0,0,0,10,10,10,3,0,3,0,,,,,,,,,,,,,,,,,,,,,,,,,,,,,,,,,,,,,,,,,,,,,,,,,,,,,,,,,,,,,,,,30,,,,,,,,1470.7225667999592,1470.7225667999592,1470.7225667999592,1470.7225667999592,1470.7225667999592,return,0.9269485999830067,2,1,0,0,0.15999999999999998,0.16,return,0.8429102001246065,-7,-25,0.15999999999999998,0.16,,,,,,,,,,,,,,,,,,,,,,,,,,,,,,,,,,,,,,,,,,,,,,,,,,,,,,,,CLY40D,train_x,red_square,top_right,2024-11-25_15h09.19.742,HideSeek_v1,2022.2.5,60.340198041971654,
,5,5,4,5,-1,0,26,,train_dim1_1,12,30,,,,2,0,2,0,,,,,,,,,0,0,0,0,0,11,11,11,0,0,0,0,,,,,,,,,,,,,,,,,,,,,,,,,stimuli/alien_stimuli/26.png,,,,,,,,,,,,,,,,,,,,,,,,,,,,,stimuli/alien_stimuli/36.png,36,7,13,,,,,,,30,,,,,,,,1476.783924399875,1476.783924399875,1476.783924399875,1476.783924399875,1476.783924399875,left,3.505896999966353,2,1,0,99,0.15999999999999998,0,left,3.38565899990499,,,,,1475.1941680999007,1476.783924399875,0.24,0.16,0.0,0.16,0.16,0.24,0.32,0.24,0.16,1473.2283159999643,1473.2283159999643,1473.2283159999643,1473.2283159999643,1473.2283159999643,1473.2283159999643,1473.2283159999643,1473.2283159999643,1473.2090668200049,2.0873970000538975,return,1.9430525000207126,,,,,,,,,,,,,,,,,,,,,,,,,,,,,,,,,CLY40D,train_x,red_square,top_right,2024-11-25_15h09.19.742,HideSeek_v1,2022.2.5,60.340198041971654,
,5,5,4,5,-1,0,26,,train_dim1_1,12,30,,,,2,0,2,0,,,,,,,,,0,0,0,0,0,11,11,11,1,0,1,0,,,,,,,,,,,,,,,,,,,,,,,,,,,,,,,,,,,,,,,,,,,,,,,,,,,,,,,,,,,,,,,,30,,,,,,,,1480.2991438999306,1480.2991438999306,1480.2991438999306,1480.2991438999306,1480.2991438999306,return,1.0267139000352472,3,0,0,1,0.15999999999999998,0,return,0.9025586000643671,-7,-26,0.15999999999999998,0,,,,,,,,,,,,,,,,,,,,,,,,,,,,,,,,,,,,,,,,,,,,,,,,,,,,,,,,CLY40D,train_x,red_square,top_right,2024-11-25_15h09.19.742,HideSeek_v1,2022.2.5,60.340198041971654,
,5,9,1,9,-4,0,56,,train_dim1_1,13,30,,,,2,0,2,0,,,,,,,,,0,0,0,0,0,12,12,12,0,0,0,0,,,,,,,,,,,,,,,,,,,,,,,,,stimuli/alien_stimuli/56.png,,,,,,,,,,,,,,,,,,,,,,,,,,,,,stimuli/alien_stimuli/26.png,26,5,14,,,,,,,30,,,,,,,,1487.0981925998349,1487.0981925998349,1487.0981925998349,1487.0981925998349,1487.0981925998349,left,2.6068426999263465,3,0,0,99,0.15999999999999998,0.32,left,2.5200502001680434,,,,,1485.5360429999419,1487.0981925998349,0.16,0,0.0,0.08,0.0,0.16,0.2,0.16,0,1482.863082199823,1482.863082199823,1482.863082199823,1482.863082199823,1482.863082199823,1482.863082199823,1482.863082199823,1482.863082199823,1482.8504316200501,2.7875942001119256,return,2.6477545998059213,,,,,,,,,,,,,,,,,,,,,,,,,,,,,,,,,CLY40D,train_x,red_square,top_right,2024-11-25_15h09.19.742,HideSeek_v1,2022.2.5,60.340198041971654,
,5,9,1,9,-4,0,56,,train_dim1_1,13,30,,,,2,0,2,0,,,,,,,,,0,0,0,0,0,12,12,12,1,0,1,0,,,,,,,,,,,,,,,,,,,,,,,,,,,,,,,,,,,,,,,,,,,,,,,,,,,,,,,,,,,,,,,,30,,,,,,,,1489.7064419998787,1489.7064419998787,1489.7064419998787,1489.7064419998787,1489.7064419998787,left,0.5757186999544501,3,0,0,99,0.07999999999999997,0.32,left,0.4956165999174118,,,,,,,,,,,,,,,,,,,,,,,,,,,,,,,,,,,,,,,,,,,,,,,,,,,,,,,,,,,,CLY40D,train_x,red_square,top_right,2024-11-25_15h09.19.742,HideSeek_v1,2022.2.5,60.340198041971654,
,5,9,1,9,-4,0,56,,train_dim1_1,13,30,,,,2,0,2,0,,,,,,,,,0,0,0,0,0,12,12,12,2,0,2,0,,,,,,,,,,,,,,,,,,,,,,,,,,,,,,,,,,,,,,,,,,,,,,,,,,,,,,,,,,,,,,,,30,,,,,,,,1490.2890012999997,1490.2890012999997,1490.2890012999997,1490.2890012999997,1490.2890012999997,left,0.5267306000459939,3,0,0,99,-2.7755575615628914e-17,0.32,left,0.4428709999192506,,,,,,,,,,,,,,,,,,,,,,,,,,,,,,,,,,,,,,,,,,,,,,,,,,,,,,,,,,,,CLY40D,train_x,red_square,top_right,2024-11-25_15h09.19.742,HideSeek_v1,2022.2.5,60.340198041971654,
,5,9,1,9,-4,0,56,,train_dim1_1,13,30,,,,2,0,2,0,,,,,,,,,0,0,0,0,0,12,12,12,3,0,3,0,,,,,,,,,,,,,,,,,,,,,,,,,,,,,,,,,,,,,,,,,,,,,,,,,,,,,,,,,,,,,,,,30,,,,,,,,1490.8259729999118,1490.8259729999118,1490.8259729999118,1490.8259729999118,1490.8259729999118,left,0.6105557000264525,3,0,0,99,-0.08000000000000003,0.32,left,0.5294104998465627,,,,,,,,,,,,,,,,,,,,,,,,,,,,,,,,,,,,,,,,,,,,,,,,,,,,,,,,,,,,CLY40D,train_x,red_square,top_right,2024-11-25_15h09.19.742,HideSeek_v1,2022.2.5,60.340198041971654,
,5,9,1,9,-4,0,56,,train_dim1_1,13,30,,,,2,0,2,0,,,,,,,,,0,0,0,0,0,12,12,12,4,0,4,0,,,,,,,,,,,,,,,,,,,,,,,,,,,,,,,,,,,,,,,,,,,,,,,,,,,,,,,,,,,,,,,,30,,,,,,,,1491.439061800018,1491.439061800018,1491.439061800018,1491.439061800018,1491.439061800018,return,0.8271398001816124,4,0,0,1,-0.08000000000000003,0.32,return,0.7374547000508755,-7,-30,-0.08000000000000003,0.32,,,,,,,,,,,,,,,,,,,,,,,,,,,,,,,,,,,,,,,,,,,,,,,,,,,,,,,,CLY40D,train_x,red_square,top_right,2024-11-25_15h09.19.742,HideSeek_v1,2022.2.5,60.340198041971654,
,9,8,9,8,0,0,16,,train_dim1_1,14,30,,,,2,0,2,0,,,,,,,,,0,0,0,0,0,13,13,13,0,0,0,0,,,,,,,,,,,,,,,,,,,,,,,,,stimuli/alien_stimuli/16.png,,,,,,,,,,,,,,,,,,,,,,,,,,,,,stimuli/alien_stimuli/56.png,56,5,15,,,,,,,30,,,,,,,,1497.278992000036,1497.278992000036,1497.278992000036,1497.278992000036,1497.278992000036,return,2.2219920000061393,5,0,0,1,0.56,0.24,return,2.109516599914059,-7,-30,0.56,0.24,1495.6944587999023,1497.278992000036,-0.08,0.32,0.0,0.32,0.32,-0.08,0.07999999999999999,-0.08,0.32,1493.836041699862,1493.836041699862,1493.836041699862,1493.836041699862,1493.836041699862,1493.836041699862,1493.836041699862,1493.836041699862,1493.8262675201054,1.9701251001097262,return,1.831416699802503,,,,,,,,,,,,,,,,,,,,,,,,,,,,,,,,,CLY40D,train_x,red_square,top_right,2024-11-25_15h09.19.742,HideSeek_v1,2022.2.5,60.340198041971654,
,9,7,4,7,-5,0,66,,train_dim1_1,15,30,,,,2,0,2,0,,,,,,,,,0,0,0,0,0,14,14,14,0,0,0,0,,,,,,,,,,,,,,,,,,,,,,,,,stimuli/alien_stimuli/66.png,,,,,,,,,,,,,,,,,,,,,,,,,,,,,stimuli/alien_stimuli/16.png,16,9,16,,,,,,,30,,,,,,,,1504.2000380998943,1504.2000380998943,1504.2000380998943,1504.2000380998943,1504.2000380998943,left,1.8048336000647396,5,0,0,99,0.48000000000000004,0.16,left,1.7133152999449521,,,,,1502.633513199864,1504.2000380998943,0.56,0.24,0.0,0.0,0.24,0.56,0.56,0.56,0.24,1501.0478044999763,1501.0478044999763,1501.0478044999763,1501.0478044999763,1501.0478044999763,1501.0478044999763,1501.0478044999763,1501.0478044999763,1501.0323227200656,1.7031799000687897,return,1.5646472999360412,,,,,,,,,,,,,,,,,,,,,,,,,,,,,,,,,CLY40D,train_x,red_square,top_right,2024-11-25_15h09.19.742,HideSeek_v1,2022.2.5,60.340198041971654,
,9,7,4,7,-5,0,66,,train_dim1_1,15,30,,,,2,0,2,0,,,,,,,,,0,0,0,0,0,14,14,14,1,0,1,0,,,,,,,,,,,,,,,,,,,,,,,,,,,,,,,,,,,,,,,,,,,,,,,,,,,,,,,,,,,,,,,,30,,,,,,,,1506.0020987000316,1506.0020987000316,1506.0020987000316,1506.0020987000316,1506.0020987000316,left,0.34316870011389256,5,0,0,99,0.4,0.16,left,0.2582066999748349,,,,,,,,,,,,,,,,,,,,,,,,,,,,,,,,,,,,,,,,,,,,,,,,,,,,,,,,,,,,CLY40D,train_x,red_square,top_right,2024-11-25_15h09.19.742,HideSeek_v1,2022.2.5,60.340198041971654,
,9,7,4,7,-5,0,66,,train_dim1_1,15,30,,,,2,0,2,0,,,,,,,,,0,0,0,0,0,14,14,14,2,0,2,0,,,,,,,,,,,,,,,,,,,,,,,,,,,,,,,,,,,,,,,,,,,,,,,,,,,,,,,,,,,,,,,,30,,,,,,,,1506.350185399875,1506.350185399875,1506.350185399875,1506.350185399875,1506.350185399875,left,0.10954140010289848,5,0,0,99,0.32,0.16,left,0.03734120004810393,,,,,,,,,,,,,,,,,,,,,,,,,,,,,,,,,,,,,,,,,,,,,,,,,,,,,,,,,,,,CLY40D,train_x,red_square,top_right,2024-11-25_15h09.19.742,HideSeek_v1,2022.2.5,60.340198041971654,
,9,7,4,7,-5,0,66,,train_dim1_1,15,30,,,,2,0,2,0,,,,,,,,,0,0,0,0,0,14,14,14,3,0,3,0,,,,,,,,,,,,,,,,,,,,,,,,,,,,,,,,,,,,,,,,,,,,,,,,,,,,,,,,,,,,,,,,30,,,,,,,,1506.4689160999842,1506.4689160999842,1506.4689160999842,1506.4689160999842,1506.4689160999842,left,0.24333930015563965,5,0,0,99,0.24,0.16,left,0.1550179000478238,,,,,,,,,,,,,,,,,,,,,,,,,,,,,,,,,,,,,,,,,,,,,,,,,,,,,,,,,,,,CLY40D,train_x,red_square,top_right,2024-11-25_15h09.19.742,HideSeek_v1,2022.2.5,60.340198041971654,
,9,7,4,7,-5,0,66,,train_dim1_1,15,30,,,,2,0,2,0,,,,,,,,,0,0,0,0,0,14,14,14,4,0,4,0,,,,,,,,,,,,,,,,,,,,,,,,,,,,,,,,,,,,,,,,,,,,,,,,,,,,,,,,,,,,,,,,30,,,,,,,,1506.7195810000412,1506.7195810000412,1506.7195810000412,1506.7195810000412,1506.7195810000412,right,0.9939737999811769,5,0,0,99,0.32,0.16,right,0.9079396000597626,,,,,,,,,,,,,,,,,,,,,,,,,,,,,,,,,,,,,,,,,,,,,,,,,,,,,,,,,,,,CLY40D,train_x,red_square,top_right,2024-11-25_15h09.19.742,HideSeek_v1,2022.2.5,60.340198041971654,
,9,7,4,7,-5,0,66,,train_dim1_1,15,30,,,,2,0,2,0,,,,,,,,,0,0,0,0,0,14,14,14,5,0,5,0,,,,,,,,,,,,,,,,,,,,,,,,,,,,,,,,,,,,,,,,,,,,,,,,,,,,,,,,,,,,,,,,30,,,,,,,,1507.7190457000397,1507.7190457000397,1507.7190457000397,1507.7190457000397,1507.7190457000397,right,0.35983810015022755,5,0,0,99,0.4,0.16,right,0.2845952999778092,,,,,,,,,,,,,,,,,,,,,,,,,,,,,,,,,,,,,,,,,,,,,,,,,,,,,,,,,,,,CLY40D,train_x,red_square,top_right,2024-11-25_15h09.19.742,HideSeek_v1,2022.2.5,60.340198041971654,
,9,7,4,7,-5,0,66,,train_dim1_1,15,30,,,,2,0,2,0,,,,,,,,,0,0,0,0,0,14,14,14,6,0,6,0,,,,,,,,,,,,,,,,,,,,,,,,,,,,,,,,,,,,,,,,,,,,,,,,,,,,,,,,,,,,,,,,30,,,,,,,,1508.0866461999249,1508.0866461999249,1508.0866461999249,1508.0866461999249,1508.0866461999249,right,0.7264045001938939,5,0,0,99,0.48000000000000004,0.16,right,0.636487599927932,,,,,,,,,,,,,,,,,,,,,,,,,,,,,,,,,,,,,,,,,,,,,,,,,,,,,,,,,,,,CLY40D,train_x,red_square,top_right,2024-11-25_15h09.19.742,HideSeek_v1,2022.2.5,60.340198041971654,
,9,7,4,7,-5,0,66,,train_dim1_1,15,30,,,,2,0,2,0,,,,,,,,,0,0,0,0,0,14,14,14,7,0,7,0,,,,,,,,,,,,,,,,,,,,,,,,,,,,,,,,,,,,,,,,,,,,,,,,,,,,,,,,,,,,,,,,30,,,,,,,,1508.8190454000141,1508.8190454000141,1508.8190454000141,1508.8190454000141,1508.8190454000141,right,0.4435211999807507,5,0,0,99,0.56,0.16,right,0.3614016999490559,,,,,,,,,,,,,,,,,,,,,,,,,,,,,,,,,,,,,,,,,,,,,,,,,,,,,,,,,,,,CLY40D,train_x,red_square,top_right,2024-11-25_15h09.19.742,HideSeek_v1,2022.2.5,60.340198041971654,
,9,7,4,7,-5,0,66,,train_dim1_1,15,30,,,,2,0,2,0,,,,,,,,,0,0,0,0,0,14,14,14,8,0,8,0,,,,,,,,,,,,,,,,,,,,,,,,,,,,,,,,,,,,,,,,,,,,,,,,,,,,,,,,,,,,,,,,30,,,,,,,,1509.2711661998183,1509.2711661998183,1509.2711661998183,1509.2711661998183,1509.2711661998183,left,0.7767577001359314,5,0,0,99,0.48000000000000004,0.16,left,0.6994292999152094,,,,,,,,,,,,,,,,,,,,,,,,,,,,,,,,,,,,,,,,,,,,,,,,,,,,,,,,,,,,CLY40D,train_x,red_square,top_right,2024-11-25_15h09.19.742,HideSeek_v1,2022.2.5,60.340198041971654,
,9,7,4,7,-5,0,66,,train_dim1_1,15,30,,,,2,0,2,0,,,,,,,,,0,0,0,0,0,14,14,14,9,0,9,0,,,,,,,,,,,,,,,,,,,,,,,,,,,,,,,,,,,,,,,,,,,,,,,,,,,,,,,,,,,,,,,,30,,,,,,,,1510.052781400038,1510.052781400038,1510.052781400038,1510.052781400038,1510.052781400038,left,0.8609388000331819,5,0,0,99,0.4,0.16,left,0.7727816000115126,,,,,,,,,,,,,,,,,,,,,,,,,,,,,,,,,,,,,,,,,,,,,,,,,,,,,,,,,,,,CLY40D,train_x,red_square,top_right,2024-11-25_15h09.19.742,HideSeek_v1,2022.2.5,60.340198041971654,
,9,7,4,7,-5,0,66,,train_dim1_1,15,30,,,,2,0,2,0,,,,,,,,,0,0,0,0,0,14,14,14,10,0,10,0,,,,,,,,,,,,,,,,,,,,,,,,,,,,,,,,,,,,,,,,,,,,,,,,,,,,,,,,,,,,,,,,30,,,,,,,,1510.9209380999673,1510.9209380999673,1510.9209380999673,1510.9209380999673,1510.9209380999673,left,0.5095341000705957,5,0,0,99,0.32,0.16,left,0.4256184999831021,,,,,,,,,,,,,,,,,,,,,,,,,,,,,,,,,,,,,,,,,,,,,,,,,,,,,,,,,,,,CLY40D,train_x,red_square,top_right,2024-11-25_15h09.19.742,HideSeek_v1,2022.2.5,60.340198041971654,
,9,7,4,7,-5,0,66,,train_dim1_1,15,30,,,,2,0,2,0,,,,,,,,,0,0,0,0,0,14,14,14,11,0,11,0,,,,,,,,,,,,,,,,,,,,,,,,,,,,,,,,,,,,,,,,,,,,,,,,,,,,,,,,,,,,,,,,30,,,,,,,,1511.437842699932,1511.437842699932,1511.437842699932,1511.437842699932,1511.437842699932,left,0.5266934998799115,5,0,0,99,0.24,0.16,left,0.4377115999814123,,,,,,,,,,,,,,,,,,,,,,,,,,,,,,,,,,,,,,,,,,,,,,,,,,,,,,,,,,,,CLY40D,train_x,red_square,top_right,2024-11-25_15h09.19.742,HideSeek_v1,2022.2.5,60.340198041971654,
,9,7,4,7,-5,0,66,,train_dim1_1,15,30,,,,2,0,2,0,,,,,,,,,0,0,0,0,0,14,14,14,12,0,12,0,,,,,,,,,,,,,,,,,,,,,,,,,,,,,,,,,,,,,,,,,,,,,,,,,,,,,,,,,,,,,,,,30,,,,,,,,1511.9716608999297,1511.9716608999297,1511.9716608999297,1511.9716608999297,1511.9716608999297,left,0.5443109998013824,5,0,0,99,0.15999999999999998,0.16,left,0.455359400017187,,,,,,,,,,,,,,,,,,,,,,,,,,,,,,,,,,,,,,,,,,,,,,,,,,,,,,,,,,,,CLY40D,train_x,red_square,top_right,2024-11-25_15h09.19.742,HideSeek_v1,2022.2.5,60.340198041971654,
,9,7,4,7,-5,0,66,,train_dim1_1,15,30,,,,2,0,2,0,,,,,,,,,0,0,0,0,0,14,14,14,13,0,13,0,,,,,,,,,,,,,,,,,,,,,,,,,,,,,,,,,,,,,,,,,,,,,,,,,,,,,,,,,,,,,,,,30,,,,,,,,1512.5221994000021,1512.5221994000021,1512.5221994000021,1512.5221994000021,1512.5221994000021,return,1.0597193001303822,6,0,0,1,0.15999999999999998,0.16,return,0.9829200999811292,-7,-35,0.15999999999999998,0.16,,,,,,,,,,,,,,,,,,,,,,,,,,,,,,,,,,,,,,,,,,,,,,,,,,,,,,,,CLY40D,train_x,red_square,top_right,2024-11-25_15h09.19.742,HideSeek_v1,2022.2.5,60.340198041971654,
,8,8,4,8,-4,0,56,,train_dim1_1,16,30,,,,2,0,2,0,,,,,,,,,0,0,0,0,0,15,15,15,0,0,0,0,,,,,,,,,,,,,,,,,,,,,,,,,stimuli/alien_stimuli/56.png,,,,,,,,,,,,,,,,,,,,,,,,,,,,,stimuli/alien_stimuli/66.png,66,9,17,,,,,,,30,,,,,,,,1518.2789191999473,1518.2789191999473,1518.2789191999473,1518.2789191999473,1518.2789191999473,left,1.7684654998593032,6,0,0,99,0.39999999999999997,0.24,left,1.6609921001363546,,,,,1516.6953342999332,1518.2789191999473,0.16,0.16,0.0,0.4,0.16,0.16,0.36000000000000004,0.16,0.16,1515.166412399849,1515.166412399849,1515.166412399849,1515.166412399849,1515.166412399849,1515.166412399849,1515.166412399849,1515.166412399849,1515.144049720047,1.6534027999732643,return,1.497192099923268,,,,,,,,,,,,,,,,,,,,,,,,,,,,,,,,,CLY40D,train_x,red_square,top_right,2024-11-25_15h09.19.742,HideSeek_v1,2022.2.5,60.340198041971654,
,8,8,4,8,-4,0,56,,train_dim1_1,16,30,,,,2,0,2,0,,,,,,,,,0,0,0,0,0,15,15,15,1,0,1,0,,,,,,,,,,,,,,,,,,,,,,,,,,,,,,,,,,,,,,,,,,,,,,,,,,,,,,,,,,,,,,,,30,,,,,,,,1520.0340729998425,1520.0340729998425,1520.0340729998425,1520.0340729998425,1520.0340729998425,left,0.39265640010125935,6,0,0,99,0.31999999999999995,0.24,left,0.31000999989919364,,,,,,,,,,,,,,,,,,,,,,,,,,,,,,,,,,,,,,,,,,,,,,,,,,,,,,,,,,,,CLY40D,train_x,red_square,top_right,2024-11-25_15h09.19.742,HideSeek_v1,2022.2.5,60.340198041971654,
,8,8,4,8,-4,0,56,,train_dim1_1,16,30,,,,2,0,2,0,,,,,,,,,0,0,0,0,0,15,15,15,2,0,2,0,,,,,,,,,,,,,,,,,,,,,,,,,,,,,,,,,,,,,,,,,,,,,,,,,,,,,,,,,,,,,,,,30,,,,,,,,1520.4311352998484,1520.4311352998484,1520.4311352998484,1520.4311352998484,1520.4311352998484,left,0.360080000013113,6,0,0,99,0.23999999999999994,0.24,left,0.27432590001262724,,,,,,,,,,,,,,,,,,,,,,,,,,,,,,,,,,,,,,,,,,,,,,,,,,,,,,,,,,,,CLY40D,train_x,red_square,top_right,2024-11-25_15h09.19.742,HideSeek_v1,2022.2.5,60.340198041971654,
,8,8,4,8,-4,0,56,,train_dim1_1,16,30,,,,2,0,2,0,,,,,,,,,0,0,0,0,0,15,15,15,3,0,3,0,,,,,,,,,,,,,,,,,,,,,,,,,,,,,,,,,,,,,,,,,,,,,,,,,,,,,,,,,,,,,,,,30,,,,,,,,1520.7980804999825,1520.7980804999825,1520.7980804999825,1520.7980804999825,1520.7980804999825,left,0.3932056000921875,6,0,0,99,0.15999999999999992,0.24,left,0.30771419988013804,,,,,,,,,,,,,,,,,,,,,,,,,,,,,,,,,,,,,,,,,,,,,,,,,,,,,,,,,,,,CLY40D,train_x,red_square,top_right,2024-11-25_15h09.19.742,HideSeek_v1,2022.2.5,60.340198041971654,
,8,8,4,8,-4,0,56,,train_dim1_1,16,30,,,,2,0,2,0,,,,,,,,,0,0,0,0,0,15,15,15,4,0,4,0,,,,,,,,,,,,,,,,,,,,,,,,,,,,,,,,,,,,,,,,,,,,,,,,,,,,,,,,,,,,,,,,30,,,,,,,,1521.2004279999528,1521.2004279999528,1521.2004279999528,1521.2004279999528,1521.2004279999528,return,0.810304599814117,7,0,0,1,0.15999999999999992,0.24,return,0.7316972999833524,-7,-39,0.15999999999999992,0.24,,,,,,,,,,,,,,,,,,,,,,,,,,,,,,,,,,,,,,,,,,,,,,,,,,,,,,,,CLY40D,train_x,red_square,top_right,2024-11-25_15h09.19.742,HideSeek_v1,2022.2.5,60.340198041971654,
,7,9,6,9,-1,0,26,,train_dim1_1,17,30,,,,2,0,2,0,,,,,,,,,0,0,0,0,0,16,16,16,0,0,0,0,,,,,,,,,,,,,,,,,,,,,,,,,stimuli/alien_stimuli/26.png,,,,,,,,,,,,,,,,,,,,,,,,,,,,,stimuli/alien_stimuli/56.png,56,8,18,,,,,,,30,,,,,,,,1526.7335987999104,1526.7335987999104,1526.7335987999104,1526.7335987999104,1526.7335987999104,left,2.156205100007355,7,0,0,99,0.32,0.32,left,2.0470292000100017,,,,,1525.1523525998928,1526.7335987999104,0.16,0.24,0.0,0.32,0.24,0.16,0.32,0.16,0.24,1523.577595199924,1523.577595199924,1523.577595199924,1523.577595199924,1523.577595199924,1523.577595199924,1523.577595199924,1523.577595199924,1523.5678190199192,1.6872040999587625,return,1.5487023000605404,,,,,,,,,,,,,,,,,,,,,,,,,,,,,,,,,CLY40D,train_x,red_square,top_right,2024-11-25_15h09.19.742,HideSeek_v1,2022.2.5,60.340198041971654,
,7,9,6,9,-1,0,26,,train_dim1_1,17,30,,,,2,0,2,0,,,,,,,,,0,0,0,0,0,16,16,16,1,0,1,0,,,,,,,,,,,,,,,,,,,,,,,,,,,,,,,,,,,,,,,,,,,,,,,,,,,,,,,,,,,,,,,,30,,,,,,,,1528.8750115998555,1528.8750115998555,1528.8750115998555,1528.8750115998555,1528.8750115998555,left,0.32548510003834963,7,0,0,99,0.24,0.32,left,0.24211019999347627,,,,,,,,,,,,,,,,,,,,,,,,,,,,,,,,,,,,,,,,,,,,,,,,,,,,,,,,,,,,CLY40D,train_x,red_square,top_right,2024-11-25_15h09.19.742,HideSeek_v1,2022.2.5,60.340198041971654,
,7,9,6,9,-1,0,26,,train_dim1_1,17,30,,,,2,0,2,0,,,,,,,,,0,0,0,0,0,16,16,16,2,0,2,0,,,,,,,,,,,,,,,,,,,,,,,,,,,,,,,,,,,,,,,,,,,,,,,,,,,,,,,,,,,,,,,,30,,,,,,,,1529.2081973999739,1529.2081973999739,1529.2081973999739,1529.2081973999739,1529.2081973999739,return,0.7275832002051175,7,1,0,0,0.24,0.32,return,0.6356571998912841,-7,-41,0.24,0.32,,,,,,,,,,,,,,,,,,,,,,,,,,,,,,,,,,,,,,,,,,,,,,,,,,,,,,,,CLY40D,train_x,red_square,top_right,2024-11-25_15h09.19.742,HideSeek_v1,2022.2.5,60.340198041971654,
,7,6,2,6,-5,0,66,,train_dim1_1,18,30,,,,2,0,2,0,,,,,,,,,0,0,0,0,0,17,17,17,0,0,0,0,,,,,,,,,,,,,,,,,,,,,,,,,stimuli/alien_stimuli/66.png,,,,,,,,,,,,,,,,,,,,,,,,,,,,,stimuli/alien_stimuli/26.png,26,7,19,,,,,,,30,,,,,,,,1537.08855879982,1537.08855879982,1537.08855879982,1537.08855879982,1537.08855879982,left,1.5386873001698405,7,1,0,99,0.32,0.08,left,1.443770800018683,,,,,1535.5275184998754,1537.08855879982,0.32,0.32,0.0,0.08,0.32,0.32,0.36,0.32,0.32,1531.500608399976,1531.500608399976,1531.500608399976,1531.500608399976,1531.500608399976,1531.500608399976,1531.500608399976,1531.500608399976,1531.49086261997,4.138844799948856,return,3.996340800076723,,,,,,,,,,,,,,,,,,,,,,,,,,,,,,,,,CLY40D,train_x,red_square,top_right,2024-11-25_15h09.19.742,HideSeek_v1,2022.2.5,60.340198041971654,
,7,6,2,6,-5,0,66,,train_dim1_1,18,30,,,,2,0,2,0,,,,,,,,,0,0,0,0,0,17,17,17,1,0,1,0,,,,,,,,,,,,,,,,,,,,,,,,,,,,,,,,,,,,,,,,,,,,,,,,,,,,,,,,,,,,,,,,30,,,,,,,,1538.6277522998862,1538.6277522998862,1538.6277522998862,1538.6277522998862,1538.6277522998862,left,0.3592147999443114,7,1,0,99,0.24,0.08,left,0.28561760019510984,,,,,,,,,,,,,,,,,,,,,,,,,,,,,,,,,,,,,,,,,,,,,,,,,,,,,,,,,,,,CLY40D,train_x,red_square,top_right,2024-11-25_15h09.19.742,HideSeek_v1,2022.2.5,60.340198041971654,
