trialInstr,x_fixStart,y_fixStart,x_corrSteps,y_corrSteps,x_nrSteps,y_nrSteps,alienID,trialLength,version,trialTrain,praclen,testlen,trial_label,break_on_off,beforeExpLoop.thisRepN,beforeExpLoop.thisTrialN,beforeExpLoop.thisN,beforeExpLoop.thisIndex,mini_instr_trials.thisRepN,mini_instr_trials.thisTrialN,mini_instr_trials.thisN,mini_instr_trials.thisIndex,instrLoop.thisRepN,instrLoop.thisTrialN,instrLoop.thisN,instrLoop.thisIndex,repeat_prac.thisRepN,repeat_prac.thisTrialN,repeat_prac.thisN,repeat_prac.thisIndex,trainLoop.thisRepN,trainLoop.thisTrialN,trainLoop.thisN,trainLoop.thisIndex,moveLoop_train.thisRepN,moveLoop_train.thisTrialN,moveLoop_train.thisN,moveLoop_train.thisIndex,experiment.thisRepN,experiment.thisTrialN,experiment.thisN,experiment.thisIndex,moveLoop_test.thisRepN,moveLoop_test.thisTrialN,moveLoop_test.thisN,moveLoop_test.thisIndex,mini_instr2_trials.thisRepN,mini_instr2_trials.thisTrialN,mini_instr2_trials.thisN,mini_instr2_trials.thisIndex,start_all_time,url,slideStim,audioStim,slides.started,sounds.started,nextButton.numClicks,nextButton.timesOn,nextButton.timesOff,prev_but.numClicks,prev_but.timesOn,prev_but.timesOff,alienStim,instrFile,alienStim_instr,gridImage_instr.started,startPos_3.started,key_instr.started,alienImage_3.started,sounds_1.started,key_instr.keys,key_instr.rt,all_x,all_y,FBy_corrSteps,FBy_fixStart,FBx_corrSteps,FBx_fixStart,FBy_pathSize_check,FBx_pathSize_check,gridImage_9.started,alienImageFB_3.started,startPosFB_3.started,keyFB_3.started,pathLine_ydir_2.started,pathLine_xdir_2.started,alienFace_3.started,sounds_2.started,RTFB_instr,keyFB_3.keys,keyFB_3.rt,draw_alienStim,draw_alienID,test_x,nrepcount,perfthres,percthres,earlierperf,earlystop,nextPrac,fileidx,praclen,saveACC_train,pracFile,nextPrac_train,addNrep,fileidx_endr,repExp,showearly,gridImage_4.started,startPos.started,movePos.started,key_resp.started,alienImage.started,wLy_dir,wLx_dir,x_movePos,y_movePos,buttonPress_train,RTchoice_train,cumAcctrain,aCorr,saveACC_choice,corrAns,x_movePos_end,y_movePos_end,key_resp.keys,key_resp.rt,text_2.started,text_2.stopped,aft_x_corrPos,aft_y_corrPos,y_pathSize_check,x_pathSize_check,y_pathdirY,x_pathdirY,x_pathdirX,x_corrPos,y_corrPos,gridImage_6.started,alienImageFB_2.started,startPosFB_2.started,movePosFB_2.started,keyFB_2.started,pathLine_xdir.started,pathLine_ydir.started,alienFace.started,sounds_4.started,RT_FBtrain,keyFB_2.keys,keyFB_2.rt,saveACC_pre,ACC,within_saveACC_train,earlystop_wloop,cumAcctrain_check,gridImage_3.started,alienImage_test.started,startPos_test.started,movePos_test.started,key_resp_test.started,wLy_dir_test,wLx_dir_test,buttonPress_test,RTchoice_test,cumAcctest,corrAns_test,key_resp_test.keys,key_resp_test.rt,text_3.started,text_3.stopped,total_time,end_all_time,key_resp_3.keys,slides_2.started,sounds_3.started,nextButton_2.numClicks,nextButton_2.timesOn,nextButton_2.timesOff,prev_but_2.numClicks,prev_but_2.timesOn,prev_but_2.timesOff,bye.started,participant,train_first,00_coordinate,starting corner,date,expName,psychopyVersion,frameRate,
,,,,,,,,,,,,,,,0,0,0,0,0,0,0,0,,,,,,,,,,,,,,,,,,,,,,,,,,,,,start_all_time,testround,conditions/schedules/train_x_first/red_square_00/bottom_right/instructions/Slide1.png,conditions/schedules/train_x_first/red_square_00/bottom_right/instructions/Audio1.wav,218.4274557,218.38182779999892,1,[26.925668300000098],[26.925679100000025],0,,,,,,,,,,,,,,,,,,,,,,,,,,,,,,,,,,,,,,,,,,,,,,,,,,,,,,,,,,,,,,,,,,,,,,,,,,,,,,,,,,,,,,,,,,,,,,,,,,,,,,,,,,,,,,,,,,,,,,,,,,,,CNP1QV,train_x,red_square,bottom_right,2025-01-15_16h29.25.678,HideSeek_v1,2022.2.5,59.93385699542876,
,,,,,,,,,,,,,,,0,0,0,0,1,0,1,0,,,,,,,,,,,,,,,,,,,,,,,,,,,,,,,conditions/schedules/train_x_first/red_square_00/bottom_right/instructions/Slide2.png,conditions/schedules/train_x_first/red_square_00/bottom_right/instructions/Audio2.wav,245.38988599999993,245.39049719999997,2,"[26.925668300000098, 19.03221819999999]","[0.00021570000001247536, 19.032225799999992]",0,,,,,,,,,,,,,,,,,,,,,,,,,,,,,,,,,,,,,,,,,,,,,,,,,,,,,,,,,,,,,,,,,,,,,,,,,,,,,,,,,,,,,,,,,,,,,,,,,,,,,,,,,,,,,,,,,,,,,,,,,,,,CNP1QV,train_x,red_square,bottom_right,2025-01-15_16h29.25.678,HideSeek_v1,2022.2.5,59.93385699542876,
,,,,,,,,,,,,,,,0,0,0,0,2,0,2,0,,,,,,,,,,,,,,,,,,,,,,,,,,,,,,,conditions/schedules/train_x_first/red_square_00/bottom_right/instructions/Slide3.png,conditions/schedules/train_x_first/red_square_00/bottom_right/instructions/Audio3.wav,264.4889565,264.48996079999995,3,"[26.925668300000098, 19.03221819999999, 16.829563500000063]","[0.00021570000001247536, 0.032581400000026406, 16.82957060000001]",0,,,,,,,,,,,,,,,,,,,,,,,,,,,,,,,,,,,,,,,,,,,,,,,,,,,,,,,,,,,,,,,,,,,,,,,,,,,,,,,,,,,,,,,,,,,,,,,,,,,,,,,,,,,,,,,,,,,,,,,,,,,,CNP1QV,train_x,red_square,bottom_right,2025-01-15_16h29.25.678,HideSeek_v1,2022.2.5,59.93385699542876,
,,,,,,,,,,,,,,,0,0,0,0,3,0,3,0,,,,,,,,,,,,,,,,,,,,,,,,,,,,,,,conditions/schedules/train_x_first/red_square_00/bottom_right/instructions/Slide4.png,conditions/schedules/train_x_first/red_square_00/bottom_right/instructions/Audio4.wav,281.3915257,281.3871888,4,"[26.925668300000098, 19.03221819999999, 16.829563500000063, 19.643565099999932]","[0.00021570000001247536, 0.032581400000026406, 0.03185380000002169, 19.643571899999984]",0,,,,,,,,,,,,,,,,,,,,,,,,,,,,,,,,,,,,,,,,,,,,,,,,,,,,,,,,,,,,,,,,,,,,,,,,,,,,,,,,,,,,,,,,,,,,,,,,,,,,,,,,,,,,,,,,,,,,,,,,,,,,CNP1QV,train_x,red_square,bottom_right,2025-01-15_16h29.25.678,HideSeek_v1,2022.2.5,59.93385699542876,
,,,,,,,,,,,,,,,0,0,0,0,4,0,4,0,,,,,,,,,,,,,,,,,,,,,,,,,,,,,,,conditions/schedules/train_x_first/red_square_00/bottom_right/instructions/Slide5.png,conditions/schedules/train_x_first/red_square_00/bottom_right/instructions/Audio5.wav,301.0919447,301.08698609999993,5,"[26.925668300000098, 19.03221819999999, 16.829563500000063, 19.643565099999932, 5.113906600000064]","[0.00021570000001247536, 0.032581400000026406, 0.03185380000002169, 0.06573800000001029, 5.113913300000036]",0,,,,,,,,,,,,,,,,,,,,,,,,,,,,,,,,,,,,,,,,,,,,,,,,,,,,,,,,,,,,,,,,,,,,,,,,,,,,,,,,,,,,,,,,,,,,,,,,,,,,,,,,,,,,,,,,,,,,,,,,,,,,CNP1QV,train_x,red_square,bottom_right,2025-01-15_16h29.25.678,HideSeek_v1,2022.2.5,59.93385699542876,
,,,,,,,,,,,,,,,0,0,0,0,5,0,5,0,,,,,,,,,,,,,,,,,,,,,,,,,,,,,,,conditions/schedules/train_x_first/red_square_00/bottom_right/instructions/Slide6.png,conditions/schedules/train_x_first/red_square_00/bottom_right/instructions/Audio6.wav,306.252835,306.24144699999994,6,"[26.925668300000098, 19.03221819999999, 16.829563500000063, 19.643565099999932, 5.113906600000064, 4.906733600000052]","[0.00021570000001247536, 0.032581400000026406, 0.03185380000002169, 0.06573800000001029, 0.08612080000000333, 4.906740099999979]",0,,,,,,,,,,,,,,,,,,,,,,,,,,,,,,,,,,,,,,,,,,,,,,,,,,,,,,,,,,,,,,,,,,,,,,,,,,,,,,,,,,,,,,,,,,,,,,,,,,,,,,,,,,,,,,,,,,,,,,,,,,,,CNP1QV,train_x,red_square,bottom_right,2025-01-15_16h29.25.678,HideSeek_v1,2022.2.5,59.93385699542876,
,,,,,,,,,,,,,,,0,0,0,0,6,0,6,0,,,,,,,,,,,,,,,,,,,,,,,,,,,,,,,conditions/schedules/train_x_first/red_square_00/bottom_right/instructions/Slide7.png,conditions/schedules/train_x_first/red_square_00/bottom_right/instructions/Audio7.wav,311.22166259999995,311.21207899999996,7,"[26.925668300000098, 19.03221819999999, 16.829563500000063, 19.643565099999932, 5.113906600000064, 4.906733600000052, 5.226151899999991]","[0.00021570000001247536, 0.032581400000026406, 0.03185380000002169, 0.06573800000001029, 0.08612080000000333, 0.07234789999995428, 5.22615959999996]",0,,,,,,,,,,,,,,,,,,,,,,,,,,,,,,,,,,,,,,,,,,,,,,,,,,,,,,,,,,,,,,,,,,,,,,,,,,,,,,,,,,,,,,,,,,,,,,,,,,,,,,,,,,,,,,,,,,,,,,,,,,,,CNP1QV,train_x,red_square,bottom_right,2025-01-15_16h29.25.678,HideSeek_v1,2022.2.5,59.93385699542876,
,,,,,,,,,,,,,,,0,0,0,0,7,0,7,0,,,,,,,,,,,,,,,,,,,,,,,,,,,,,,,conditions/schedules/train_x_first/red_square_00/bottom_right/instructions/Slide8.png,conditions/schedules/train_x_first/red_square_00/bottom_right/instructions/Audio8.wav,316.49735439999995,316.49974530000003,8,"[26.925668300000098, 19.03221819999999, 16.829563500000063, 19.643565099999932, 5.113906600000064, 4.906733600000052, 5.226151899999991, 11.743046699999923]","[0.00021570000001247536, 0.032581400000026406, 0.03185380000002169, 0.06573800000001029, 0.08612080000000333, 0.07234789999995428, 0.06713830000001053, 11.74305359999994]",0,,,,,,,,,,,,,,,,,,,,,,,,,,,,,,,,,,,,,,,,,,,,,,,,,,,,,,,,,,,,,,,,,,,,,,,,,,,,,,,,,,,,,,,,,,,,,,,,,,,,,,,,,,,,,,,,,,,,,,,,,,,,CNP1QV,train_x,red_square,bottom_right,2025-01-15_16h29.25.678,HideSeek_v1,2022.2.5,59.93385699542876,
,,,,,,,,,,,,,,,0,0,0,0,8,0,8,0,,,,,,,,,,,,,,,,,,,,,,,,,,,,,,,conditions/schedules/train_x_first/red_square_00/bottom_right/instructions/Slide9.png,conditions/schedules/train_x_first/red_square_00/bottom_right/instructions/Audio9.wav,328.2940401000001,328.292745,9,"[26.925668300000098, 19.03221819999999, 16.829563500000063, 19.643565099999932, 5.113906600000064, 4.906733600000052, 5.226151899999991, 11.743046699999923, 6.184622999999874]","[0.00021570000001247536, 0.032581400000026406, 0.03185380000002169, 0.06573800000001029, 0.08612080000000333, 0.07234789999995428, 0.06713830000001053, 0.0965860999999677, 6.184631899999886]",0,,,,,,,,,,,,,,,,,,,,,,,,,,,,,,,,,,,,,,,,,,,,,,,,,,,,,,,,,,,,,,,,,,,,,,,,,,,,,,,,,,,,,,,,,,,,,,,,,,,,,,,,,,,,,,,,,,,,,,,,,,,,CNP1QV,train_x,red_square,bottom_right,2025-01-15_16h29.25.678,HideSeek_v1,2022.2.5,59.93385699542876,
,,,,,,,,,,,,,,,0,0,0,0,9,0,9,0,,,,,,,,,,,,,,,,,,,,,,,,,,,,,,,conditions/schedules/train_x_first/red_square_00/bottom_right/instructions/Slide10.png,conditions/schedules/train_x_first/red_square_00/bottom_right/instructions/Audio10.wav,334.5130769,334.51458139999994,10,"[26.925668300000098, 19.03221819999999, 16.829563500000063, 19.643565099999932, 5.113906600000064, 4.906733600000052, 5.226151899999991, 11.743046699999923, 6.184622999999874, 7.038390899999968]","[0.00021570000001247536, 0.032581400000026406, 0.03185380000002169, 0.06573800000001029, 0.08612080000000333, 0.07234789999995428, 0.06713830000001053, 0.0965860999999677, 0.06590689999984534, 7.038397599999826]",0,,,,,,,,,,,,,,,,,,,,,,,,,,,,,,,,,,,,,,,,,,,,,,,,,,,,,,,,,,,,,,,,,,,,,,,,,,,,,,,,,,,,,,,,,,,,,,,,,,,,,,,,,,,,,,,,,,,,,,,,,,,,CNP1QV,train_x,red_square,bottom_right,2025-01-15_16h29.25.678,HideSeek_v1,2022.2.5,59.93385699542876,
,,,,,,,,,,,,,,,0,0,0,0,10,0,10,0,,,,,,,,,,,,,,,,,,,,,,,,,,,,,,,conditions/schedules/train_x_first/red_square_00/bottom_right/instructions/Slide11.png,conditions/schedules/train_x_first/red_square_00/bottom_right/instructions/Audio11.wav,341.6163251999999,341.6038546999999,11,"[26.925668300000098, 19.03221819999999, 16.829563500000063, 19.643565099999932, 5.113906600000064, 4.906733600000052, 5.226151899999991, 11.743046699999923, 6.184622999999874, 7.038390899999968, 10.01061350000009]","[0.00021570000001247536, 0.032581400000026406, 0.03185380000002169, 0.06573800000001029, 0.08612080000000333, 0.07234789999995428, 0.06713830000001053, 0.0965860999999677, 0.06590689999984534, 0.03546690000007402, 10.010620700000118]",0,,,,,,,,,,,,,,,,,,,,,,,,,,,,,,,,,,,,,,,,,,,,,,,,,,,,,,,,,,,,,,,,,,,,,,,,,,,,,,,,,,,,,,,,,,,,,,,,,,,,,,,,,,,,,,,,,,,,,,,,,,,,CNP1QV,train_x,red_square,bottom_right,2025-01-15_16h29.25.678,HideSeek_v1,2022.2.5,59.93385699542876,
,,,,,,,,,,,,,,,0,0,0,0,11,0,11,0,,,,,,,,,,,,,,,,,,,,,,,,,,,,,,,conditions/schedules/train_x_first/red_square_00/bottom_right/instructions/Slide12.png,conditions/schedules/train_x_first/red_square_00/bottom_right/instructions/Audio12.wav,351.6935719999999,351.69574550000004,12,"[26.925668300000098, 19.03221819999999, 16.829563500000063, 19.643565099999932, 5.113906600000064, 4.906733600000052, 5.226151899999991, 11.743046699999923, 6.184622999999874, 7.038390899999968, 10.01061350000009, 12.877333399999998]","[0.00021570000001247536, 0.032581400000026406, 0.03185380000002169, 0.06573800000001029, 0.08612080000000333, 0.07234789999995428, 0.06713830000001053, 0.0965860999999677, 0.06590689999984534, 0.03546690000007402, 0.033312300000034156, 12.877341299999898]",0,,,,,,,,,,,,,,,,,,,,,,,,,,,,,,,,,,,,,,,,,,,,,,,,,,,,,,,,,,,,,,,,,,,,,,,,,,,,,,,,,,,,,,,,,,,,,,,,,,,,,,,,,,,,,,,,,,,,,,,,,,,,CNP1QV,train_x,red_square,bottom_right,2025-01-15_16h29.25.678,HideSeek_v1,2022.2.5,59.93385699542876,
1,8,2,3,2,-5,0,66,2,instr_dim1_1,,,,,,0,0,0,0,,,,,0,0,0,0,,,,,,,,,,,,,,,,,,,,,,,,,,,,,,,,,,,,,stimuli/alien_stimuli/66.png,conditions/schedules/train_x_first/red_square_00/bottom_right/inputInstr_1.xlsx,stimuli/alien_stimuli/66.png,364.6564515,364.6564515,364.6564515,364.6564515,364.6564908,return,15.954313499999898,"[-0.16, -0.08, 0, 0.08, 0.16, 0.24, 0.32, 0.4, 0.48, 0.56]","[-0.4, -0.32, -0.24, -0.16, -0.08, 0, 0.08, 0.16, 0.24, 0.32]",2,2,3,8,0.0,0.4,380.7705877000001,380.7705877000001,380.7705877000001,380.7705877000001,380.7705877000001,380.7705877000001,380.7705877000001,380.7529722,12.96128520000002,return,12.801578999999947,stimuli/alien_stimuli/66.png,66,8,1,,,,,,,,,,,,,,,,,,,,,,,,,,,,,,,,,,,,,,,,,,,,,,,,,,,,,,,,,,,,,,,,,,,,,,,,,,,,,,,,,,,,,,,,,CNP1QV,train_x,red_square,bottom_right,2025-01-15_16h29.25.678,HideSeek_v1,2022.2.5,59.93385699542876,
,,,,,,,,,,,30,,,,0,0,0,0,,,,,,,,,,,,,,,,,,,,,,,,,,,,,,,,,,,,,,,,,,,,,,,,,,,,,,,,,,,,,,,,,,,,,,,,,,,,,,21,0.7,0,0,99,1,30,0,conditions/schedules/train_x_first/red_square_00/bottom_right/inputTrain_1.1.xlsx,99,1,1,1,0,,,,,,,,,,,,,,,,,,,,,,,,,,,,,,,,,,,,,,,,,,,,,,,,,,,,,,,,,,,,,,,,,,,,,,,,,,,CNP1QV,train_x,red_square,bottom_right,2025-01-15_16h29.25.678,HideSeek_v1,2022.2.5,59.93385699542876,
,,,,,,,,,,,,,,,1,0,1,0,0,0,0,0,,,,,,,,,,,,,,,,,,,,,,,,,,,,,,,conditions/schedules/train_x_first/red_square_00/bottom_right/instructions/Slide13.png,conditions/schedules/train_x_first/red_square_00/bottom_right/instructions/Audio13.wav,393.7325415,393.73044410000006,13,"[26.925668300000098, 19.03221819999999, 16.829563500000063, 19.643565099999932, 5.113906600000064, 4.906733600000052, 5.226151899999991, 11.743046699999923, 6.184622999999874, 7.038390899999968, 10.01061350000009, 12.877333399999998, 20.17985130000011]","[0.00021570000001247536, 0.032581400000026406, 0.03185380000002169, 0.06573800000001029, 0.08612080000000333, 0.07234789999995428, 0.06713830000001053, 0.0965860999999677, 0.06590689999984534, 0.03546690000007402, 0.033312300000034156, 12.877341299999898, 20.179858200000126]",0,,,,,,,,,,,,,,,,,,,,,,,,,,,,,,,,,,,,,,,,,,,,,,,,,,,,,,,,,,,,,,,,,,,,,,,,,,,,,,,,,,,,,,,,,,,,,,,,,,,,,,,,,,,,,,,,,,,,,,,,,,,,CNP1QV,train_x,red_square,bottom_right,2025-01-15_16h29.25.678,HideSeek_v1,2022.2.5,59.93385699542876,
,,,,,,,,,,,,,,,1,0,1,0,1,0,1,0,,,,,,,,,,,,,,,,,,,,,,,,,,,,,,,conditions/schedules/train_x_first/red_square_00/bottom_right/instructions/Slide14.png,conditions/schedules/train_x_first/red_square_00/bottom_right/instructions/Audio14.wav,413.9697549,413.9638889000001,14,"[26.925668300000098, 19.03221819999999, 16.829563500000063, 19.643565099999932, 5.113906600000064, 4.906733600000052, 5.226151899999991, 11.743046699999923, 6.184622999999874, 7.038390899999968, 10.01061350000009, 12.877333399999998, 20.17985130000011, 13.003471700000091]","[0.00021570000001247536, 0.032581400000026406, 0.03185380000002169, 0.06573800000001029, 0.08612080000000333, 0.07234789999995428, 0.06713830000001053, 0.0965860999999677, 0.06590689999984534, 0.03546690000007402, 0.033312300000034156, 12.877341299999898, 0.0318589000000884, 13.003478600000108]",0,,,,,,,,,,,,,,,,,,,,,,,,,,,,,,,,,,,,,,,,,,,,,,,,,,,,,,,,,,,,,,,,,,,,,,,,,,,,,,,,,,,,,,,,,,,,,,,,,,,,,,,,,,,,,,,,,,,,,,,,,,,,CNP1QV,train_x,red_square,bottom_right,2025-01-15_16h29.25.678,HideSeek_v1,2022.2.5,59.93385699542876,
2,9,0,9,0,0,0,16,2,instr_dim1_1,,,,,,1,0,1,0,,,,,0,0,0,0,,,,,,,,,,,,,,,,,,,,,,,,,,,,,,,,,,,,,stimuli/alien_stimuli/16.png,conditions/schedules/train_x_first/red_square_00/bottom_right/inputInstr_1.xlsx,stimuli/alien_stimuli/16.png,427.0665019999999,427.0665019999999,427.0665019999999,427.0665019999999,427.05827930000004,return,17.060902299999952,"[-0.16, -0.08, 0, 0.08, 0.16, 0.24, 0.32, 0.4, 0.48, 0.56]","[-0.4, -0.32, -0.24, -0.16, -0.08, 0, 0.08, 0.16, 0.24, 0.32]",0,0,9,9,0.0,0.0,444.31420520000006,444.31420520000006,444.31420520000006,444.31420520000006,444.31420520000006,444.31420520000006,444.31420520000006,444.30587779999996,7.57364860000007,return,7.387027900000021,stimuli/alien_stimuli/16.png,16,9,2,,,,,,,,,,,,,,,,,,,,,,,,,,,,,,,,,,,,,,,,,,,,,,,,,,,,,,,,,,,,,,,,,,,,,,,,,,,,,,,,,,,,,,,,,CNP1QV,train_x,red_square,bottom_right,2025-01-15_16h29.25.678,HideSeek_v1,2022.2.5,59.93385699542876,
,,,,,,,,,,,30,,,,1,0,1,0,,,,,,,,,,,,,,,,,,,,,,,,,,,,,,,,,,,,,,,,,,,,,,,,,,,,,,,,,,,,,,,,,,,,,,,,,,,,,,21,0.7,0,0,99,1,30,0,conditions/schedules/train_x_first/red_square_00/bottom_right/inputTrain_1.1.xlsx,99,1,1,1,0,,,,,,,,,,,,,,,,,,,,,,,,,,,,,,,,,,,,,,,,,,,,,,,,,,,,,,,,,,,,,,,,,,,,,,,,,,,CNP1QV,train_x,red_square,bottom_right,2025-01-15_16h29.25.678,HideSeek_v1,2022.2.5,59.93385699542876,
,,,,,,,,,,,,,,,2,0,2,0,0,0,0,0,,,,,,,,,,,,,,,,,,,,,,,,,,,,,,,conditions/schedules/train_x_first/red_square_00/bottom_right/instructions/Slide15.png,conditions/schedules/train_x_first/red_square_00/bottom_right/instructions/Audio15.wav,451.8642746999999,451.8620731999999,15,"[26.925668300000098, 19.03221819999999, 16.829563500000063, 19.643565099999932, 5.113906600000064, 4.906733600000052, 5.226151899999991, 11.743046699999923, 6.184622999999874, 7.038390899999968, 10.01061350000009, 12.877333399999998, 20.17985130000011, 13.003471700000091, 31.638415000000123]","[0.00021570000001247536, 0.032581400000026406, 0.03185380000002169, 0.06573800000001029, 0.08612080000000333, 0.07234789999995428, 0.06713830000001053, 0.0965860999999677, 0.06590689999984534, 0.03546690000007402, 0.033312300000034156, 12.877341299999898, 0.0318589000000884, 13.003478600000108, 31.63842210000007]",0,,,,,,,,,,,,,,,,,,,,,,,,,,,,,,,,,,,,,,,,,,,,,,,,,,,,,,,,,,,,,,,,,,,,,,,,,,,,,,,,,,,,,,,,,,,,,,,,,,,,,,,,,,,,,,,,,,,,,,,,,,,,CNP1QV,train_x,red_square,bottom_right,2025-01-15_16h29.25.678,HideSeek_v1,2022.2.5,59.93385699542876,
,,,,,,,,,,,,,,,2,0,2,0,1,0,1,0,,,,,,,,,,,,,,,,,,,,,,,,,,,,,,,conditions/schedules/train_x_first/red_square_00/bottom_right/instructions/Slide16.png,conditions/schedules/train_x_first/red_square_00/bottom_right/instructions/Audio16.wav,483.57199790000004,483.5720720999999,16,"[26.925668300000098, 19.03221819999999, 16.829563500000063, 19.643565099999932, 5.113906600000064, 4.906733600000052, 5.226151899999991, 11.743046699999923, 6.184622999999874, 7.038390899999968, 10.01061350000009, 12.877333399999998, 20.17985130000011, 13.003471700000091, 31.638415000000123, 55.077190900000005]","[0.00021570000001247536, 0.032581400000026406, 0.03185380000002169, 0.06573800000001029, 0.08612080000000333, 0.07234789999995428, 0.06713830000001053, 0.0965860999999677, 0.06590689999984534, 0.03546690000007402, 0.033312300000034156, 12.877341299999898, 0.0318589000000884, 13.003478600000108, 0.014389200000096025, 55.077198700000054]",0,,,,,,,,,,,,,,,,,,,,,,,,,,,,,,,,,,,,,,,,,,,,,,,,,,,,,,,,,,,,,,,,,,,,,,,,,,,,,,,,,,,,,,,,,,,,,,,,,,,,,,,,,,,,,,,,,,,,,,,,,,,,CNP1QV,train_x,red_square,bottom_right,2025-01-15_16h29.25.678,HideSeek_v1,2022.2.5,59.93385699542876,
,7,1,4,1,-3,0,46,,train_dim1_1,1,30,,,,2,0,2,0,,,,,,,,,0,0,0,0,0,0,0,0,0,0,0,0,,,,,,,,,,,,,,,,,,,,,,,,,stimuli/alien_stimuli/46.png,,,,,,,,,,,,,,,,,,,,,,,,,,,,,,,,,,,,,,,30,,,,,,,,538.7452788,538.7452788,538.7452788,538.7452788,538.7452788,0,0,0.4,-0.32,return,6.482199499999979,0,0,0,0,0.4,-0.32,return,6.394140200000038,,,,,,,,,,,,,,,,,,,,,,,,,,,,,,,,,,,,,,,,,,,,,,,,,,,,,,,,CNP1QV,train_x,red_square,bottom_right,2025-01-15_16h29.25.678,HideSeek_v1,2022.2.5,59.93385699542876,
,7,4,7,4,0,0,16,,train_dim1_1,2,30,,,,2,0,2,0,,,,,,,,,0,0,0,0,0,1,1,1,0,0,0,0,,,,,,,,,,,,,,,,,,,,,,,,,stimuli/alien_stimuli/16.png,,,,,,,,,,,,,,,,,,,,,,,,,,,,,stimuli/alien_stimuli/46.png,46,7,3,,,,,,,30,,,,,,,,575.2596005,575.2596005,575.2596005,575.2596005,575.2596005,,,,,down,8.594691499999954,0,0,0,99,0.4,-0.16,down,8.483059599999933,573.6799819,575.2596005,0.16,-0.32,0.0,0.24,-0.32,0.16,0.28,0.16,-0.32,546.7902469999999,546.7902469999999,546.7902469999999,546.7902469999999,546.7902469999999,546.7902469999999,546.7902469999999,546.7902469999999,546.7741589000001,27.008051999999907,return,26.865248500000007,,,,,,,,,,,,,,,,,,,,,,,,,,,,,,,,,CNP1QV,train_x,red_square,bottom_right,2025-01-15_16h29.25.678,HideSeek_v1,2022.2.5,59.93385699542876,
,7,4,7,4,0,0,16,,train_dim1_1,2,30,,,,2,0,2,0,,,,,,,,,0,0,0,0,0,1,1,1,1,0,1,0,,,,,,,,,,,,,,,,,,,,,,,,,,,,,,,,,,,,,,,,,,,,,,,,,,,,,,,,,,,,,,,,30,,,,,,,,583.8398018999999,583.8398018999999,583.8398018999999,583.8398018999999,583.8398018999999,-1,0,0.4,-0.16,return,3.99595649999992,0,1,0,0,0.4,-0.16,return,3.9179795999998532,,,,,,,,,,,,,,,,,,,,,,,,,,,,,,,,,,,,,,,,,,,,,,,,,,,,,,,,CNP1QV,train_x,red_square,bottom_right,2025-01-15_16h29.25.678,HideSeek_v1,2022.2.5,59.93385699542876,
,9,4,8,4,-1,0,26,,train_dim1_1,3,30,,,,2,0,2,0,,,,,,,,,0,0,0,0,0,2,2,2,0,0,0,0,,,,,,,,,,,,,,,,,,,,,,,,,stimuli/alien_stimuli/26.png,,,,,,,,,,,,,,,,,,,,,,,,,,,,,stimuli/alien_stimuli/16.png,16,7,4,,,,,,,30,,,,,,,,635.0228668,635.0228668,635.0228668,635.0228668,635.0228668,,,,,right,14.429964600000176,0,1,0,99,0.64,-0.08,right,14.33043930000008,633.4463737000001,635.0228668,0.4,-0.08,0.0,0.0,-0.08,0.4,0.4,0.4,-0.08,589.4221361,589.4221361,589.4221361,589.4221361,589.4221361,589.4221361,589.4221361,589.4221361,589.4096642000001,44.155340000000024,return,44.005373499999905,,,,,,,,,,,,,,,,,,,,,,,,,,,,,,,,,CNP1QV,train_x,red_square,bottom_right,2025-01-15_16h29.25.678,HideSeek_v1,2022.2.5,59.93385699542876,
,9,4,8,4,-1,0,26,,train_dim1_1,3,30,,,,2,0,2,0,,,,,,,,,0,0,0,0,0,2,2,2,1,0,1,0,,,,,,,,,,,,,,,,,,,,,,,,,,,,,,,,,,,,,,,,,,,,,,,,,,,,,,,,,,,,,,,,30,,,,,,,,649.4518157,649.4518157,649.4518157,649.4518157,649.4518157,-1,1,0.64,-0.08,return,11.232753199999934,0,0,0,0,0.64,-0.08,return,11.143231999999898,,,,,,,,,,,,,,,,,,,,,,,,,,,,,,,,,,,,,,,,,,,,,,,,,,,,,,,,CNP1QV,train_x,red_square,bottom_right,2025-01-15_16h29.25.678,HideSeek_v1,2022.2.5,59.93385699542876,
,7,3,3,3,-4,0,56,,train_dim1_1,4,30,,,,2,0,2,0,,,,,,,,,0,0,0,0,0,3,3,3,0,0,0,0,,,,,,,,,,,,,,,,,,,,,,,,,stimuli/alien_stimuli/56.png,,,,,,,,,,,,,,,,,,,,,,,,,,,,,stimuli/alien_stimuli/26.png,26,9,5,,,,,,,30,,,,,,,,671.2381559,671.2381559,671.2381559,671.2381559,671.2381559,,,,,up,19.086058400000184,0,0,0,99,0.4,-0.08,up,19.002174200000127,669.6764315,671.2381559,0.48,-0.08,0.0,0.08,-0.08,0.48,0.52,0.48,-0.08,662.2650768999999,662.2650768999999,662.2650768999999,662.2650768999999,662.2650768999999,662.2650768999999,662.2650768999999,662.2650768999999,662.2534832,7.541983200000004,return,7.3889888999999584,,,,,,,,,,,,,,,,,,,,,,,,,,,,,,,,,CNP1QV,train_x,red_square,bottom_right,2025-01-15_16h29.25.678,HideSeek_v1,2022.2.5,59.93385699542876,
,7,3,3,3,-4,0,56,,train_dim1_1,4,30,,,,2,0,2,0,,,,,,,,,0,0,0,0,0,3,3,3,1,0,1,0,,,,,,,,,,,,,,,,,,,,,,,,,,,,,,,,,,,,,,,,,,,,,,,,,,,,,,,,,,,,,,,,30,,,,,,,,690.3393057000001,690.3393057000001,690.3393057000001,690.3393057000001,690.3393057000001,0,1,0.4,-0.08,return,2.3611049999999523,0,0,0,0,0.4,-0.08,return,2.2719190000000253,,,,,,,,,,,,,,,,,,,,,,,,,,,,,,,,,,,,,,,,,,,,,,,,,,,,,,,,CNP1QV,train_x,red_square,bottom_right,2025-01-15_16h29.25.678,HideSeek_v1,2022.2.5,59.93385699542876,
,5,2,0,2,-5,0,66,,train_dim1_1,5,30,,,,2,0,2,0,,,,,,,,,0,0,0,0,0,4,4,4,0,0,0,0,,,,,,,,,,,,,,,,,,,,,,,,,stimuli/alien_stimuli/66.png,,,,,,,,,,,,,,,,,,,,,,,,,,,,,stimuli/alien_stimuli/56.png,56,7,6,,,,,,,30,,,,,,,,710.1398684000001,710.1398684000001,710.1398684000001,710.1398684000001,710.1398684000001,,,,,right,10.429503700000168,0,0,0,99,0.32,-0.24,right,10.3397066,708.5754483999999,710.1398684000001,0.08,-0.16,0.0,0.32,-0.16,0.08,0.24000000000000002,0.08,-0.16,694.265551,694.265551,694.265551,694.265551,694.265551,694.265551,694.265551,694.265551,694.2468205000001,14.430620600000111,return,14.278572600000189,,,,,,,,,,,,,,,,,,,,,,,,,,,,,,,,,CNP1QV,train_x,red_square,bottom_right,2025-01-15_16h29.25.678,HideSeek_v1,2022.2.5,59.93385699542876,
,5,2,0,2,-5,0,66,,train_dim1_1,5,30,,,,2,0,2,0,,,,,,,,,0,0,0,0,0,4,4,4,1,0,1,0,,,,,,,,,,,,,,,,,,,,,,,,,,,,,,,,,,,,,,,,,,,,,,,,,,,,,,,,,,,,,,,,30,,,,,,,,720.565255,720.565255,720.565255,720.565255,720.565255,0,2,0.32,-0.24,return,1.2102770000001328,0,0,0,0,0.32,-0.24,return,1.1276060000000143,,,,,,,,,,,,,,,,,,,,,,,,,,,,,,,,,,,,,,,,,,,,,,,,,,,,,,,,CNP1QV,train_x,red_square,bottom_right,2025-01-15_16h29.25.678,HideSeek_v1,2022.2.5,59.93385699542876,
,5,0,4,0,-1,0,26,,train_dim1_1,6,30,,,,2,0,2,0,,,,,,,,,0,0,0,0,0,5,5,5,0,0,0,0,,,,,,,,,,,,,,,,,,,,,,,,,stimuli/alien_stimuli/26.png,,,,,,,,,,,,,,,,,,,,,,,,,,,,,stimuli/alien_stimuli/66.png,66,5,7,,,,,,,30,,,,,,,,753.7238636,753.7238636,753.7238636,753.7238636,753.7238636,0,2,0.24,-0.4,return,5.541314399999919,0,1,0,0,0.24,-0.4,return,5.430038200000126,752.1449069,753.7238636,-0.16,-0.24,0.0,0.4,-0.24,-0.16,0.039999999999999994,-0.16,-0.24,723.3538796999999,723.3538796999999,723.3538796999999,723.3538796999999,723.3538796999999,723.3538796999999,723.3538796999999,723.3538796999999,723.3376823,28.909595800000034,return,28.774191599999995,,,,,,,,,,,,,,,,,,,,,,,,,,,,,,,,,CNP1QV,train_x,red_square,bottom_right,2025-01-15_16h29.25.678,HideSeek_v1,2022.2.5,59.93385699542876,
,8,0,3,0,-5,0,66,,train_dim1_1,7,30,,,,2,0,2,0,,,,,,,,,0,0,0,0,0,6,6,6,0,0,0,0,,,,,,,,,,,,,,,,,,,,,,,,,stimuli/alien_stimuli/66.png,,,,,,,,,,,,,,,,,,,,,,,,,,,,,stimuli/alien_stimuli/26.png,26,5,8,,,,,,,30,,,,,,,,775.1452248,775.1452248,775.1452248,775.1452248,775.1452248,,,,,up,5.1912322999999105,0,1,0,99,0.48,-0.32,up,5.0941715999999815,773.5796622999999,775.1452248,0.16,-0.4,0.0,0.08,-0.4,0.16,0.2,0.16,-0.4,760.8258696,760.8258696,760.8258696,760.8258696,760.8258696,760.8258696,760.8258696,760.8258696,760.8187156999999,12.880187400000068,return,12.736556600000085,,,,,,,,,,,,,,,,,,,,,,,,,,,,,,,,,CNP1QV,train_x,red_square,bottom_right,2025-01-15_16h29.25.678,HideSeek_v1,2022.2.5,59.93385699542876,
,8,0,3,0,-5,0,66,,train_dim1_1,7,30,,,,2,0,2,0,,,,,,,,,0,0,0,0,0,6,6,6,1,0,1,0,,,,,,,,,,,,,,,,,,,,,,,,,,,,,,,,,,,,,,,,,,,,,,,,,,,,,,,,,,,,,,,,30,,,,,,,,780.3309658999999,780.3309658999999,780.3309658999999,780.3309658999999,780.3309658999999,1,2,0.48,-0.32,return,1.4608974000000217,0,0,0,0,0.48,-0.32,return,1.3826595999998972,,,,,,,,,,,,,,,,,,,,,,,,,,,,,,,,,,,,,,,,,,,,,,,,,,,,,,,,CNP1QV,train_x,red_square,bottom_right,2025-01-15_16h29.25.678,HideSeek_v1,2022.2.5,59.93385699542876,
,5,4,2,4,-3,0,46,,train_dim1_1,8,30,,,,2,0,2,0,,,,,,,,,0,0,0,0,0,7,7,7,0,0,0,0,,,,,,,,,,,,,,,,,,,,,,,,,stimuli/alien_stimuli/46.png,,,,,,,,,,,,,,,,,,,,,,,,,,,,,stimuli/alien_stimuli/66.png,66,8,9,,,,,,,30,,,,,,,,789.9165482999999,789.9165482999999,789.9165482999999,789.9165482999999,789.9165482999999,1,2,0.24,-0.08,return,4.32458419999989,0,0,0,0,0.24,-0.08,return,4.2354629999999815,788.3583699999999,789.9165482999999,0.08,-0.4,0.0,0.4,-0.4,0.08,0.27999999999999997,0.08,-0.4,783.3552884000001,783.3552884000001,783.3552884000001,783.3552884000001,783.3552884000001,783.3552884000001,783.3552884000001,783.3552884000001,783.3374771000001,5.106365300000107,return,4.979387899999892,,,,,,,,,,,,,,,,,,,,,,,,,,,,,,,,,CNP1QV,train_x,red_square,bottom_right,2025-01-15_16h29.25.678,HideSeek_v1,2022.2.5,59.93385699542876,
,6,0,2,0,-4,0,56,,train_dim1_1,9,30,,,,2,0,2,0,,,,,,,,,0,0,0,0,0,8,8,8,0,0,0,0,,,,,,,,,,,,,,,,,,,,,,,,,stimuli/alien_stimuli/56.png,,,,,,,,,,,,,,,,,,,,,,,,,,,,,stimuli/alien_stimuli/46.png,46,5,10,,,,,,,30,,,,,,,,803.2150042000001,803.2150042000001,803.2150042000001,803.2150042000001,803.2150042000001,,,,,left,4.590843000000177,0,0,0,99,0.24,-0.4,left,4.50628329999995,801.6526016999999,803.2150042000001,0,-0.08,0.0,0.24,-0.08,0,0.12,0,-0.08,795.8119928000001,795.8119928000001,795.8119928000001,795.8119928000001,795.8119928000001,795.8119928000001,795.8119928000001,795.8119928000001,795.7978179,5.957226900000023,return,5.820490600000085,,,,,,,,,,,,,,,,,,,,,,,,,,,,,,,,,CNP1QV,train_x,red_square,bottom_right,2025-01-15_16h29.25.678,HideSeek_v1,2022.2.5,59.93385699542876,
,6,0,2,0,-4,0,56,,train_dim1_1,9,30,,,,2,0,2,0,,,,,,,,,0,0,0,0,0,8,8,8,1,0,1,0,,,,,,,,,,,,,,,,,,,,,,,,,,,,,,,,,,,,,,,,,,,,,,,,,,,,,,,,,,,,,,,,30,,,,,,,,807.8059802999999,807.8059802999999,807.8059802999999,807.8059802999999,807.8059802999999,1,1,0.24,-0.4,return,1.2433192999999392,0,0,0,0,0.24,-0.4,return,1.1656917000000249,,,,,,,,,,,,,,,,,,,,,,,,,,,,,,,,,,,,,,,,,,,,,,,,,,,,,,,,CNP1QV,train_x,red_square,bottom_right,2025-01-15_16h29.25.678,HideSeek_v1,2022.2.5,59.93385699542876,
,5,3,5,3,0,0,16,,train_dim1_1,10,30,,,,2,0,2,0,,,,,,,,,0,0,0,0,0,9,9,9,0,0,0,0,,,,,,,,,,,,,,,,,,,,,,,,,stimuli/alien_stimuli/16.png,,,,,,,,,,,,,,,,,,,,,,,,,,,,,stimuli/alien_stimuli/56.png,56,6,11,,,,,,,30,,,,,,,,827.8207061999999,827.8207061999999,827.8207061999999,827.8207061999999,827.8207061999999,1,1,0.24,-0.16,return,3.305826799999977,1,0,0,1,0.24,-0.16,return,3.1940366999999696,826.239806,827.8207061999999,0,-0.4,0.0,0.32,-0.4,0,0.16,0,-0.4,810.6131622,810.6131622,810.6131622,810.6131622,810.6131622,810.6131622,810.6131622,810.6131622,810.5934589999999,15.73172640000007,return,15.59451839999997,,,,,,,,,,,,,,,,,,,,,,,,,,,,,,,,,CNP1QV,train_x,red_square,bottom_right,2025-01-15_16h29.25.678,HideSeek_v1,2022.2.5,59.93385699542876,
,7,2,4,2,-3,0,46,,train_dim1_1,11,30,,,,2,0,2,0,,,,,,,,,0,0,0,0,0,10,10,10,0,0,0,0,,,,,,,,,,,,,,,,,,,,,,,,,stimuli/alien_stimuli/46.png,,,,,,,,,,,,,,,,,,,,,,,,,,,,,stimuli/alien_stimuli/16.png,16,5,12,,,,,,,30,,,,,,,,841.512088,841.512088,841.512088,841.512088,841.512088,,,,,left,3.306402700000035,1,0,0,99,0.32,-0.24,left,3.22593350000011,839.9511388000001,841.512088,0.24,-0.16,0.0,0.0,-0.16,0.24,0.24,0.24,-0.16,832.6818705999999,832.6818705999999,832.6818705999999,832.6818705999999,832.6818705999999,832.6818705999999,832.6818705999999,832.6818705999999,832.6619428,7.39112810000006,return,7.245958100000053,,,,,,,,,,,,,,,,,,,,,,,,,,,,,,,,,CNP1QV,train_x,red_square,bottom_right,2025-01-15_16h29.25.678,HideSeek_v1,2022.2.5,59.93385699542876,
,7,2,4,2,-3,0,46,,train_dim1_1,11,30,,,,2,0,2,0,,,,,,,,,0,0,0,0,0,10,10,10,1,0,1,0,,,,,,,,,,,,,,,,,,,,,,,,,,,,,,,,,,,,,,,,,,,,,,,,,,,,,,,,,,,,,,,,30,,,,,,,,844.8169637999999,844.8169637999999,844.8169637999999,844.8169637999999,844.8169637999999,,,,,left,0.7933680999999524,1,0,0,99,0.24,-0.24,left,0.7125064000001657,,,,,,,,,,,,,,,,,,,,,,,,,,,,,,,,,,,,,,,,,,,,,,,,,,,,,,,,CNP1QV,train_x,red_square,bottom_right,2025-01-15_16h29.25.678,HideSeek_v1,2022.2.5,59.93385699542876,
,7,2,4,2,-3,0,46,,train_dim1_1,11,30,,,,2,0,2,0,,,,,,,,,0,0,0,0,0,10,10,10,2,0,2,0,,,,,,,,,,,,,,,,,,,,,,,,,,,,,,,,,,,,,,,,,,,,,,,,,,,,,,,,,,,,,,,,30,,,,,,,,845.6188382999999,845.6188382999999,845.6188382999999,845.6188382999999,845.6188382999999,,,,,left,0.8605667999997877,1,0,0,99,0.15999999999999998,-0.24,left,0.7826961000000665,,,,,,,,,,,,,,,,,,,,,,,,,,,,,,,,,,,,,,,,,,,,,,,,,,,,,,,,CNP1QV,train_x,red_square,bottom_right,2025-01-15_16h29.25.678,HideSeek_v1,2022.2.5,59.93385699542876,
,7,2,4,2,-3,0,46,,train_dim1_1,11,30,,,,2,0,2,0,,,,,,,,,0,0,0,0,0,10,10,10,3,0,3,0,,,,,,,,,,,,,,,,,,,,,,,,,,,,,,,,,,,,,,,,,,,,,,,,,,,,,,,,,,,,,,,,30,,,,,,,,846.4854601,846.4854601,846.4854601,846.4854601,846.4854601,,,,,up,2.494988300000159,1,0,0,99,0.15999999999999998,-0.15999999999999998,up,2.423990899999808,,,,,,,,,,,,,,,,,,,,,,,,,,,,,,,,,,,,,,,,,,,,,,,,,,,,,,,,CNP1QV,train_x,red_square,bottom_right,2025-01-15_16h29.25.678,HideSeek_v1,2022.2.5,59.93385699542876,
,7,2,4,2,-3,0,46,,train_dim1_1,11,30,,,,2,0,2,0,,,,,,,,,0,0,0,0,0,10,10,10,4,0,4,0,,,,,,,,,,,,,,,,,,,,,,,,,,,,,,,,,,,,,,,,,,,,,,,,,,,,,,,,,,,,,,,,30,,,,,,,,848.9872955999999,848.9872955999999,848.9872955999999,848.9872955999999,848.9872955999999,,,,,right,1.3772742000001017,1,0,0,99,0.24,-0.15999999999999998,right,1.3014745000000403,,,,,,,,,,,,,,,,,,,,,,,,,,,,,,,,,,,,,,,,,,,,,,,,,,,,,,,,CNP1QV,train_x,red_square,bottom_right,2025-01-15_16h29.25.678,HideSeek_v1,2022.2.5,59.93385699542876,
,7,2,4,2,-3,0,46,,train_dim1_1,11,30,,,,2,0,2,0,,,,,,,,,0,0,0,0,0,10,10,10,5,0,5,0,,,,,,,,,,,,,,,,,,,,,,,,,,,,,,,,,,,,,,,,,,,,,,,,,,,,,,,,,,,,,,,,30,,,,,,,,850.3720427000001,850.3720427000001,850.3720427000001,850.3720427000001,850.3720427000001,,,,,right,0.260095500000034,1,0,0,99,0.32,-0.15999999999999998,right,0.17396599999983664,,,,,,,,,,,,,,,,,,,,,,,,,,,,,,,,,,,,,,,,,,,,,,,,,,,,,,,,CNP1QV,train_x,red_square,bottom_right,2025-01-15_16h29.25.678,HideSeek_v1,2022.2.5,59.93385699542876,
,7,2,4,2,-3,0,46,,train_dim1_1,11,30,,,,2,0,2,0,,,,,,,,,0,0,0,0,0,10,10,10,6,0,6,0,,,,,,,,,,,,,,,,,,,,,,,,,,,,,,,,,,,,,,,,,,,,,,,,,,,,,,,,,,,,,,,,30,,,,,,,,850.6385766000001,850.6385766000001,850.6385766000001,850.6385766000001,850.6385766000001,,,,,right,0.27702690000000985,1,0,0,99,0.4,-0.15999999999999998,right,0.19068240000001424,,,,,,,,,,,,,,,,,,,,,,,,,,,,,,,,,,,,,,,,,,,,,,,,,,,,,,,,CNP1QV,train_x,red_square,bottom_right,2025-01-15_16h29.25.678,HideSeek_v1,2022.2.5,59.93385699542876,
,7,2,4,2,-3,0,46,,train_dim1_1,11,30,,,,2,0,2,0,,,,,,,,,0,0,0,0,0,10,10,10,7,0,7,0,,,,,,,,,,,,,,,,,,,,,,,,,,,,,,,,,,,,,,,,,,,,,,,,,,,,,,,,,,,,,,,,30,,,,,,,,850.9220945,850.9220945,850.9220945,850.9220945,850.9220945,,,,,up,1.6108432999999422,1,0,0,99,0.4,-0.07999999999999997,up,1.5296719000000394,,,,,,,,,,,,,,,,,,,,,,,,,,,,,,,,,,,,,,,,,,,,,,,,,,,,,,,,CNP1QV,train_x,red_square,bottom_right,2025-01-15_16h29.25.678,HideSeek_v1,2022.2.5,59.93385699542876,
,7,2,4,2,-3,0,46,,train_dim1_1,11,30,,,,2,0,2,0,,,,,,,,,0,0,0,0,0,10,10,10,8,0,8,0,,,,,,,,,,,,,,,,,,,,,,,,,,,,,,,,,,,,,,,,,,,,,,,,,,,,,,,,,,,,,,,,30,,,,,,,,852.5404662999999,852.5404662999999,852.5404662999999,852.5404662999999,852.5404662999999,,,,,up,2.3450368000001163,1,0,0,99,0.4,2.7755575615628914e-17,up,2.265601199999992,,,,,,,,,,,,,,,,,,,,,,,,,,,,,,,,,,,,,,,,,,,,,,,,,,,,,,,,CNP1QV,train_x,red_square,bottom_right,2025-01-15_16h29.25.678,HideSeek_v1,2022.2.5,59.93385699542876,
,7,2,4,2,-3,0,46,,train_dim1_1,11,30,,,,2,0,2,0,,,,,,,,,0,0,0,0,0,10,10,10,9,0,9,0,,,,,,,,,,,,,,,,,,,,,,,,,,,,,,,,,,,,,,,,,,,,,,,,,,,,,,,,,,,,,,,,30,,,,,,,,854.8934773000001,854.8934773000001,854.8934773000001,854.8934773000001,854.8934773000001,4,1,0.4,2.7755575615628914e-17,return,2.1615529999999126,1,0,0,0,0.4,2.7755575615628914e-17,return,2.07628109999996,,,,,,,,,,,,,,,,,,,,,,,,,,,,,,,,,,,,,,,,,,,,,,,,,,,,,,,,CNP1QV,train_x,red_square,bottom_right,2025-01-15_16h29.25.678,HideSeek_v1,2022.2.5,59.93385699542876,
,5,0,4,0,-1,0,26,,train_dim1_1,12,30,,,,2,0,2,0,,,,,,,,,0,0,0,0,0,11,11,11,0,0,0,0,,,,,,,,,,,,,,,,,,,,,,,,,stimuli/alien_stimuli/26.png,,,,,,,,,,,,,,,,,,,,,,,,,,,,,stimuli/alien_stimuli/46.png,46,7,13,,,,,,,30,,,,,,,,863.3158626,863.3158626,863.3158626,863.3158626,863.3158626,,,,,up,4.2905753,1,0,0,99,0.24,-0.32,up,4.2081494000001385,861.7521839000001,863.3158626,0.16,-0.24,0.0,0.24,-0.24,0.16,0.28,0.16,-0.24,858.6370786,858.6370786,858.6370786,858.6370786,858.6370786,858.6370786,858.6370786,858.6370786,858.6167506,3.238364000000047,return,3.0921619000000646,,,,,,,,,,,,,,,,,,,,,,,,,,,,,,,,,CNP1QV,train_x,red_square,bottom_right,2025-01-15_16h29.25.678,HideSeek_v1,2022.2.5,59.93385699542876,
,5,0,4,0,-1,0,26,,train_dim1_1,12,30,,,,2,0,2,0,,,,,,,,,0,0,0,0,0,11,11,11,1,0,1,0,,,,,,,,,,,,,,,,,,,,,,,,,,,,,,,,,,,,,,,,,,,,,,,,,,,,,,,,,,,,,,,,30,,,,,,,,867.6074716999999,867.6074716999999,867.6074716999999,867.6074716999999,867.6074716999999,,,,,left,3.3454365000000053,1,0,0,99,0.15999999999999998,-0.32,left,3.2582855999999083,,,,,,,,,,,,,,,,,,,,,,,,,,,,,,,,,,,,,,,,,,,,,,,,,,,,,,,,CNP1QV,train_x,red_square,bottom_right,2025-01-15_16h29.25.678,HideSeek_v1,2022.2.5,59.93385699542876,
,5,0,4,0,-1,0,26,,train_dim1_1,12,30,,,,2,0,2,0,,,,,,,,,0,0,0,0,0,11,11,11,2,0,2,0,,,,,,,,,,,,,,,,,,,,,,,,,,,,,,,,,,,,,,,,,,,,,,,,,,,,,,,,,,,,,,,,30,,,,,,,,870.9595454,870.9595454,870.9595454,870.9595454,870.9595454,,,,,left,0.25958220000006804,1,0,0,99,0.07999999999999997,-0.32,left,0.16977650000012545,,,,,,,,,,,,,,,,,,,,,,,,,,,,,,,,,,,,,,,,,,,,,,,,,,,,,,,,CNP1QV,train_x,red_square,bottom_right,2025-01-15_16h29.25.678,HideSeek_v1,2022.2.5,59.93385699542876,
,5,0,4,0,-1,0,26,,train_dim1_1,12,30,,,,2,0,2,0,,,,,,,,,0,0,0,0,0,11,11,11,3,0,3,0,,,,,,,,,,,,,,,,,,,,,,,,,,,,,,,,,,,,,,,,,,,,,,,,,,,,,,,,,,,,,,,,30,,,,,,,,871.2274950000001,871.2274950000001,871.2274950000001,871.2274950000001,871.2274950000001,,,,,down,1.1601196999999956,1,0,0,99,0.07999999999999997,-0.4,down,1.0762171999999737,,,,,,,,,,,,,,,,,,,,,,,,,,,,,,,,,,,,,,,,,,,,,,,,,,,,,,,,CNP1QV,train_x,red_square,bottom_right,2025-01-15_16h29.25.678,HideSeek_v1,2022.2.5,59.93385699542876,
,5,0,4,0,-1,0,26,,train_dim1_1,12,30,,,,2,0,2,0,,,,,,,,,0,0,0,0,0,11,11,11,4,0,4,0,,,,,,,,,,,,,,,,,,,,,,,,,,,,,,,,,,,,,,,,,,,,,,,,,,,,,,,,,,,,,,,,30,,,,,,,,872.3942704000001,872.3942704000001,872.3942704000001,872.3942704000001,872.3942704000001,,,,,right,0.47660350000001017,1,0,0,99,0.15999999999999998,-0.4,right,0.38837869999997565,,,,,,,,,,,,,,,,,,,,,,,,,,,,,,,,,,,,,,,,,,,,,,,,,,,,,,,,CNP1QV,train_x,red_square,bottom_right,2025-01-15_16h29.25.678,HideSeek_v1,2022.2.5,59.93385699542876,
,5,0,4,0,-1,0,26,,train_dim1_1,12,30,,,,2,0,2,0,,,,,,,,,0,0,0,0,0,11,11,11,5,0,5,0,,,,,,,,,,,,,,,,,,,,,,,,,,,,,,,,,,,,,,,,,,,,,,,,,,,,,,,,,,,,,,,,30,,,,,,,,872.8795358,872.8795358,872.8795358,872.8795358,872.8795358,4,0,0.15999999999999998,-0.4,return,0.943952999999965,2,0,0,1,0.15999999999999998,-0.4,return,0.854880600000115,,,,,,,,,,,,,,,,,,,,,,,,,,,,,,,,,,,,,,,,,,,,,,,,,,,,,,,,CNP1QV,train_x,red_square,bottom_right,2025-01-15_16h29.25.678,HideSeek_v1,2022.2.5,59.93385699542876,
,5,4,1,4,-4,0,56,,train_dim1_1,13,30,,,,2,0,2,0,,,,,,,,,0,0,0,0,0,12,12,12,0,0,0,0,,,,,,,,,,,,,,,,,,,,,,,,,stimuli/alien_stimuli/56.png,,,,,,,,,,,,,,,,,,,,,,,,,,,,,stimuli/alien_stimuli/26.png,26,5,14,,,,,,,30,,,,,,,,879.9807128,879.9807128,879.9807128,879.9807128,879.9807128,,,,,left,4.520915500000001,2,0,0,99,0.15999999999999998,-0.08,left,4.440279299999929,878.4164857999999,879.9807128,0.16,-0.4,0.0,0.08,-0.4,0.16,0.2,0.16,-0.4,875.3865271,875.3865271,875.3865271,875.3865271,875.3865271,875.3865271,875.3865271,875.3865271,875.3803630000001,3.1379532999999356,return,3.009939400000121,,,,,,,,,,,,,,,,,,,,,,,,,,,,,,,,,CNP1QV,train_x,red_square,bottom_right,2025-01-15_16h29.25.678,HideSeek_v1,2022.2.5,59.93385699542876,
,5,4,1,4,-4,0,56,,train_dim1_1,13,30,,,,2,0,2,0,,,,,,,,,0,0,0,0,0,12,12,12,1,0,1,0,,,,,,,,,,,,,,,,,,,,,,,,,,,,,,,,,,,,,,,,,,,,,,,,,,,,,,,,,,,,,,,,30,,,,,,,,884.5038784999999,884.5038784999999,884.5038784999999,884.5038784999999,884.5038784999999,,,,,left,0.6096390000000156,2,0,0,99,0.07999999999999997,-0.08,left,0.5246583999999075,,,,,,,,,,,,,,,,,,,,,,,,,,,,,,,,,,,,,,,,,,,,,,,,,,,,,,,,CNP1QV,train_x,red_square,bottom_right,2025-01-15_16h29.25.678,HideSeek_v1,2022.2.5,59.93385699542876,
,5,4,1,4,-4,0,56,,train_dim1_1,13,30,,,,2,0,2,0,,,,,,,,,0,0,0,0,0,12,12,12,2,0,2,0,,,,,,,,,,,,,,,,,,,,,,,,,,,,,,,,,,,,,,,,,,,,,,,,,,,,,,,,,,,,,,,,30,,,,,,,,885.1211675,885.1211675,885.1211675,885.1211675,885.1211675,,,,,left,1.0771762000001672,2,0,0,99,-2.7755575615628914e-17,-0.08,left,0.993439300000091,,,,,,,,,,,,,,,,,,,,,,,,,,,,,,,,,,,,,,,,,,,,,,,,,,,,,,,,CNP1QV,train_x,red_square,bottom_right,2025-01-15_16h29.25.678,HideSeek_v1,2022.2.5,59.93385699542876,
,5,4,1,4,-4,0,56,,train_dim1_1,13,30,,,,2,0,2,0,,,,,,,,,0,0,0,0,0,12,12,12,3,0,3,0,,,,,,,,,,,,,,,,,,,,,,,,,,,,,,,,,,,,,,,,,,,,,,,,,,,,,,,,,,,,,,,,30,,,,,,,,886.2043925,886.2043925,886.2043925,886.2043925,886.2043925,,,,,left,0.8937389000000167,2,0,0,99,-0.08000000000000003,-0.08,left,0.8141296999999668,,,,,,,,,,,,,,,,,,,,,,,,,,,,,,,,,,,,,,,,,,,,,,,,,,,,,,,,CNP1QV,train_x,red_square,bottom_right,2025-01-15_16h29.25.678,HideSeek_v1,2022.2.5,59.93385699542876,
,5,4,1,4,-4,0,56,,train_dim1_1,13,30,,,,2,0,2,0,,,,,,,,,0,0,0,0,0,12,12,12,4,0,4,0,,,,,,,,,,,,,,,,,,,,,,,,,,,,,,,,,,,,,,,,,,,,,,,,,,,,,,,,,,,,,,,,30,,,,,,,,887.1046938,887.1046938,887.1046938,887.1046938,887.1046938,4,-4,-0.08000000000000003,-0.08,return,0.9605341000001317,3,0,0,1,-0.08000000000000003,-0.08,return,0.8848127999999633,,,,,,,,,,,,,,,,,,,,,,,,,,,,,,,,,,,,,,,,,,,,,,,,,,,,,,,,CNP1QV,train_x,red_square,bottom_right,2025-01-15_16h29.25.678,HideSeek_v1,2022.2.5,59.93385699542876,
,9,3,9,3,0,0,16,,train_dim1_1,14,30,,,,2,0,2,0,,,,,,,,,0,0,0,0,0,13,13,13,0,0,0,0,,,,,,,,,,,,,,,,,,,,,,,,,stimuli/alien_stimuli/16.png,,,,,,,,,,,,,,,,,,,,,,,,,,,,,stimuli/alien_stimuli/56.png,56,5,15,,,,,,,30,,,,,,,,894.0754320000001,894.0754320000001,894.0754320000001,894.0754320000001,894.0754320000001,,,,,left,5.89171680000004,3,0,0,99,0.48000000000000004,-0.16,left,5.796500799999876,892.5116958000001,894.0754320000001,-0.08,-0.08,0.0,0.32,-0.08,-0.08,0.07999999999999999,-0.08,-0.08,889.6308773000001,889.6308773000001,889.6308773000001,889.6308773000001,889.6308773000001,889.6308773000001,889.6308773000001,889.6308773000001,889.608995,2.9880794999999125,return,2.8557882999998583,,,,,,,,,,,,,,,,,,,,,,,,,,,,,,,,,CNP1QV,train_x,red_square,bottom_right,2025-01-15_16h29.25.678,HideSeek_v1,2022.2.5,59.93385699542876,
,9,3,9,3,0,0,16,,train_dim1_1,14,30,,,,2,0,2,0,,,,,,,,,0,0,0,0,0,13,13,13,1,0,1,0,,,,,,,,,,,,,,,,,,,,,,,,,,,,,,,,,,,,,,,,,,,,,,,,,,,,,,,,,,,,,,,,30,,,,,,,,899.9696099,899.9696099,899.9696099,899.9696099,899.9696099,,,,,up,1.5764469000000645,3,0,0,99,0.48000000000000004,-0.08,up,1.4954231000001528,,,,,,,,,,,,,,,,,,,,,,,,,,,,,,,,,,,,,,,,,,,,,,,,,,,,,,,,CNP1QV,train_x,red_square,bottom_right,2025-01-15_16h29.25.678,HideSeek_v1,2022.2.5,59.93385699542876,
,9,3,9,3,0,0,16,,train_dim1_1,14,30,,,,2,0,2,0,,,,,,,,,0,0,0,0,0,13,13,13,2,0,2,0,,,,,,,,,,,,,,,,,,,,,,,,,,,,,,,,,,,,,,,,,,,,,,,,,,,,,,,,,,,,,,,,30,,,,,,,,901.5514542999999,901.5514542999999,901.5514542999999,901.5514542999999,901.5514542999999,,,,,down,1.8447229999999308,3,0,0,99,0.48000000000000004,-0.16,down,1.760273300000108,,,,,,,,,,,,,,,,,,,,,,,,,,,,,,,,,,,,,,,,,,,,,,,,,,,,,,,,CNP1QV,train_x,red_square,bottom_right,2025-01-15_16h29.25.678,HideSeek_v1,2022.2.5,59.93385699542876,
,9,3,9,3,0,0,16,,train_dim1_1,14,30,,,,2,0,2,0,,,,,,,,,0,0,0,0,0,13,13,13,3,0,3,0,,,,,,,,,,,,,,,,,,,,,,,,,,,,,,,,,,,,,,,,,,,,,,,,,,,,,,,,,,,,,,,,30,,,,,,,,903.4040712999999,903.4040712999999,903.4040712999999,903.4040712999999,903.4040712999999,,,,,right,2.661754799999926,3,0,0,99,0.56,-0.16,right,2.574296600000025,,,,,,,,,,,,,,,,,,,,,,,,,,,,,,,,,,,,,,,,,,,,,,,,,,,,,,,,CNP1QV,train_x,red_square,bottom_right,2025-01-15_16h29.25.678,HideSeek_v1,2022.2.5,59.93385699542876,
,9,3,9,3,0,0,16,,train_dim1_1,14,30,,,,2,0,2,0,,,,,,,,,0,0,0,0,0,13,13,13,4,0,4,0,,,,,,,,,,,,,,,,,,,,,,,,,,,,,,,,,,,,,,,,,,,,,,,,,,,,,,,,,,,,,,,,30,,,,,,,,906.0761130000001,906.0761130000001,906.0761130000001,906.0761130000001,906.0761130000001,4,-4,0.56,-0.16,return,1.3773417000002155,4,0,0,1,0.56,-0.16,return,1.2850539999999455,,,,,,,,,,,,,,,,,,,,,,,,,,,,,,,,,,,,,,,,,,,,,,,,,,,,,,,,CNP1QV,train_x,red_square,bottom_right,2025-01-15_16h29.25.678,HideSeek_v1,2022.2.5,59.93385699542876,
,9,2,4,2,-5,0,66,,train_dim1_1,15,30,,,,2,0,2,0,,,,,,,,,0,0,0,0,0,14,14,14,0,0,0,0,,,,,,,,,,,,,,,,,,,,,,,,,stimuli/alien_stimuli/66.png,,,,,,,,,,,,,,,,,,,,,,,,,,,,,stimuli/alien_stimuli/16.png,16,9,16,,,,,,,30,,,,,,,,915.5223713,915.5223713,915.5223713,915.5223713,915.5223713,,,,,left,4.107052000000067,4,0,0,99,0.48000000000000004,-0.24,left,4.026715700000068,913.9626291,915.5223713,0.56,-0.16,0.0,0.0,-0.16,0.56,0.56,0.56,-0.16,909.0326014,909.0326014,909.0326014,909.0326014,909.0326014,909.0326014,909.0326014,909.0326014,909.0252523999999,5.056071199999906,return,4.900633799999923,,,,,,,,,,,,,,,,,,,,,,,,,,,,,,,,,CNP1QV,train_x,red_square,bottom_right,2025-01-15_16h29.25.678,HideSeek_v1,2022.2.5,59.93385699542876,
,9,2,4,2,-5,0,66,,train_dim1_1,15,30,,,,2,0,2,0,,,,,,,,,0,0,0,0,0,14,14,14,1,0,1,0,,,,,,,,,,,,,,,,,,,,,,,,,,,,,,,,,,,,,,,,,,,,,,,,,,,,,,,,,,,,,,,,30,,,,,,,,919.6304674,919.6304674,919.6304674,919.6304674,919.6304674,,,,,left,1.644364099999848,4,0,0,99,0.4,-0.24,left,1.5645187000000078,,,,,,,,,,,,,,,,,,,,,,,,,,,,,,,,,,,,,,,,,,,,,,,,,,,,,,,,CNP1QV,train_x,red_square,bottom_right,2025-01-15_16h29.25.678,HideSeek_v1,2022.2.5,59.93385699542876,
,9,2,4,2,-5,0,66,,train_dim1_1,15,30,,,,2,0,2,0,,,,,,,,,0,0,0,0,0,14,14,14,2,0,2,0,,,,,,,,,,,,,,,,,,,,,,,,,,,,,,,,,,,,,,,,,,,,,,,,,,,,,,,,,,,,,,,,30,,,,,,,,921.2810629999999,921.2810629999999,921.2810629999999,921.2810629999999,921.2810629999999,,,,,left,1.9116731999999956,4,0,0,99,0.32,-0.24,left,1.8315503999999692,,,,,,,,,,,,,,,,,,,,,,,,,,,,,,,,,,,,,,,,,,,,,,,,,,,,,,,,CNP1QV,train_x,red_square,bottom_right,2025-01-15_16h29.25.678,HideSeek_v1,2022.2.5,59.93385699542876,
,9,2,4,2,-5,0,66,,train_dim1_1,15,30,,,,2,0,2,0,,,,,,,,,0,0,0,0,0,14,14,14,3,0,3,0,,,,,,,,,,,,,,,,,,,,,,,,,,,,,,,,,,,,,,,,,,,,,,,,,,,,,,,,,,,,,,,,30,,,,,,,,923.1996052,923.1996052,923.1996052,923.1996052,923.1996052,,,,,left,0.9937380000001212,4,0,0,99,0.24,-0.24,left,0.9129393000000618,,,,,,,,,,,,,,,,,,,,,,,,,,,,,,,,,,,,,,,,,,,,,,,,,,,,,,,,CNP1QV,train_x,red_square,bottom_right,2025-01-15_16h29.25.678,HideSeek_v1,2022.2.5,59.93385699542876,
,9,2,4,2,-5,0,66,,train_dim1_1,15,30,,,,2,0,2,0,,,,,,,,,0,0,0,0,0,14,14,14,4,0,4,0,,,,,,,,,,,,,,,,,,,,,,,,,,,,,,,,,,,,,,,,,,,,,,,,,,,,,,,,,,,,,,,,30,,,,,,,,924.2004841999999,924.2004841999999,924.2004841999999,924.2004841999999,924.2004841999999,4,-8,0.24,-0.24,return,1.1102957000000515,4,1,0,0,0.24,-0.24,return,1.0347528000002058,,,,,,,,,,,,,,,,,,,,,,,,,,,,,,,,,,,,,,,,,,,,,,,,,,,,,,,,CNP1QV,train_x,red_square,bottom_right,2025-01-15_16h29.25.678,HideSeek_v1,2022.2.5,59.93385699542876,
,8,3,4,3,-4,0,56,,train_dim1_1,16,30,,,,2,0,2,0,,,,,,,,,0,0,0,0,0,15,15,15,0,0,0,0,,,,,,,,,,,,,,,,,,,,,,,,,stimuli/alien_stimuli/56.png,,,,,,,,,,,,,,,,,,,,,,,,,,,,,stimuli/alien_stimuli/66.png,66,9,17,,,,,,,30,,,,,,,,931.9853734999999,931.9853734999999,931.9853734999999,931.9853734999999,931.9853734999999,,,,,left,6.244413399999985,4,1,0,99,0.39999999999999997,-0.16,left,6.163577600000053,930.4263223999999,931.9853734999999,0.16,-0.24,0.0,0.4,-0.24,0.16,0.36000000000000004,0.16,-0.24,926.8937037000001,926.8937037000001,926.8937037000001,926.8937037000001,926.8937037000001,926.8937037000001,926.8937037000001,926.8937037000001,926.873264,3.6551156999998966,return,3.5020473000001857,,,,,,,,,,,,,,,,,,,,,,,,,,,,,,,,,CNP1QV,train_x,red_square,bottom_right,2025-01-15_16h29.25.678,HideSeek_v1,2022.2.5,59.93385699542876,
,8,3,4,3,-4,0,56,,train_dim1_1,16,30,,,,2,0,2,0,,,,,,,,,0,0,0,0,0,15,15,15,1,0,1,0,,,,,,,,,,,,,,,,,,,,,,,,,,,,,,,,,,,,,,,,,,,,,,,,,,,,,,,,,,,,,,,,30,,,,,,,,938.2330258,938.2330258,938.2330258,938.2330258,938.2330258,,,,,left,1.9770493999999417,4,1,0,99,0.31999999999999995,-0.16,left,1.8941601999999875,,,,,,,,,,,,,,,,,,,,,,,,,,,,,,,,,,,,,,,,,,,,,,,,,,,,,,,,CNP1QV,train_x,red_square,bottom_right,2025-01-15_16h29.25.678,HideSeek_v1,2022.2.5,59.93385699542876,
,8,3,4,3,-4,0,56,,train_dim1_1,16,30,,,,2,0,2,0,,,,,,,,,0,0,0,0,0,15,15,15,2,0,2,0,,,,,,,,,,,,,,,,,,,,,,,,,,,,,,,,,,,,,,,,,,,,,,,,,,,,,,,,,,,,,,,,30,,,,,,,,940.2153616,940.2153616,940.2153616,940.2153616,940.2153616,,,,,left,0.6269592999999531,4,1,0,99,0.23999999999999994,-0.16,left,0.5487964000001284,,,,,,,,,,,,,,,,,,,,,,,,,,,,,,,,,,,,,,,,,,,,,,,,,,,,,,,,CNP1QV,train_x,red_square,bottom_right,2025-01-15_16h29.25.678,HideSeek_v1,2022.2.5,59.93385699542876,
,8,3,4,3,-4,0,56,,train_dim1_1,16,30,,,,2,0,2,0,,,,,,,,,0,0,0,0,0,15,15,15,3,0,3,0,,,,,,,,,,,,,,,,,,,,,,,,,,,,,,,,,,,,,,,,,,,,,,,,,,,,,,,,,,,,,,,,30,,,,,,,,940.8501443,940.8501443,940.8501443,940.8501443,940.8501443,,,,,left,0.6935914000000594,4,1,0,99,0.15999999999999992,-0.16,left,0.6079502000000048,,,,,,,,,,,,,,,,,,,,,,,,,,,,,,,,,,,,,,,,,,,,,,,,,,,,,,,,CNP1QV,train_x,red_square,bottom_right,2025-01-15_16h29.25.678,HideSeek_v1,2022.2.5,59.93385699542876,
,8,3,4,3,-4,0,56,,train_dim1_1,16,30,,,,2,0,2,0,,,,,,,,,0,0,0,0,0,15,15,15,4,0,4,0,,,,,,,,,,,,,,,,,,,,,,,,,,,,,,,,,,,,,,,,,,,,,,,,,,,,,,,,,,,,,,,,30,,,,,,,,941.5504692,941.5504692,941.5504692,941.5504692,941.5504692,4,-12,0.15999999999999992,-0.16,return,2.511742500000082,5,0,0,1,0.15999999999999992,-0.16,return,2.426622800000132,,,,,,,,,,,,,,,,,,,,,,,,,,,,,,,,,,,,,,,,,,,,,,,,,,,,,,,,CNP1QV,train_x,red_square,bottom_right,2025-01-15_16h29.25.678,HideSeek_v1,2022.2.5,59.93385699542876,
,7,4,6,4,-1,0,26,,train_dim1_1,17,30,,,,2,0,2,0,,,,,,,,,0,0,0,0,0,16,16,16,0,0,0,0,,,,,,,,,,,,,,,,,,,,,,,,,stimuli/alien_stimuli/26.png,,,,,,,,,,,,,,,,,,,,,,,,,,,,,stimuli/alien_stimuli/56.png,56,8,18,,,,,,,30,,,,,,,,949.8517205999999,949.8517205999999,949.8517205999999,949.8517205999999,949.8517205999999,4,-12,0.4,-0.08,return,4.224119199999905,5,1,0,0,0.4,-0.08,return,4.124532799999997,948.2745232,949.8517205999999,0.16,-0.16,0.0,0.32,-0.16,0.16,0.32,0.16,-0.16,945.6417683,945.6417683,945.6417683,945.6417683,945.6417683,945.6417683,945.6417683,945.6417683,945.6223459000001,2.7544107999999596,return,2.615938799999867,,,,,,,,,,,,,,,,,,,,,,,,,,,,,,,,,CNP1QV,train_x,red_square,bottom_right,2025-01-15_16h29.25.678,HideSeek_v1,2022.2.5,59.93385699542876,
,7,1,2,1,-5,0,66,,train_dim1_1,18,30,,,,2,0,2,0,,,,,,,,,0,0,0,0,0,17,17,17,0,0,0,0,,,,,,,,,,,,,,,,,,,,,,,,,stimuli/alien_stimuli/66.png,,,,,,,,,,,,,,,,,,,,,,,,,,,,,stimuli/alien_stimuli/26.png,26,7,19,,,,,,,30,,,,,,,,960.3248200999999,960.3248200999999,960.3248200999999,960.3248200999999,960.3248200999999,,,,,left,3.306702200000018,5,1,0,99,0.32,-0.32,left,3.224515399999973,958.7666821999999,960.3248200999999,0.32,-0.08,0.0,0.08,-0.08,0.32,0.36,0.32,-0.08,955.6229295,955.6229295,955.6229295,955.6229295,955.6229295,955.6229295,955.6229295,955.6229295,955.6139256,3.2547319000000243,return,3.1188953999999285,,,,,,,,,,,,,,,,,,,,,,,,,,,,,,,,,CNP1QV,train_x,red_square,bottom_right,2025-01-15_16h29.25.678,HideSeek_v1,2022.2.5,59.93385699542876,
,7,1,2,1,-5,0,66,,train_dim1_1,18,30,,,,2,0,2,0,,,,,,,,,0,0,0,0,0,17,17,17,1,0,1,0,,,,,,,,,,,,,,,,,,,,,,,,,,,,,,,,,,,,,,,,,,,,,,,,,,,,,,,,,,,,,,,,30,,,,,,,,963.6332964999999,963.6332964999999,963.6332964999999,963.6332964999999,963.6332964999999,,,,,left,0.5761907999999494,5,1,0,99,0.24,-0.32,left,0.5003778999998758,,,,,,,,,,,,,,,,,,,,,,,,,,,,,,,,,,,,,,,,,,,,,,,,,,,,,,,,CNP1QV,train_x,red_square,bottom_right,2025-01-15_16h29.25.678,HideSeek_v1,2022.2.5,59.93385699542876,
,7,1,2,1,-5,0,66,,train_dim1_1,18,30,,,,2,0,2,0,,,,,,,,,0,0,0,0,0,17,17,17,2,0,2,0,,,,,,,,,,,,,,,,,,,,,,,,,,,,,,,,,,,,,,,,,,,,,,,,,,,,,,,,,,,,,,,,30,,,,,,,,964.2195394999999,964.2195394999999,964.2195394999999,964.2195394999999,964.2195394999999,,,,,left,1.2090428999999858,5,1,0,99,0.15999999999999998,-0.32,left,1.1322202000001198,,,,,,,,,,,,,,,,,,,,,,,,,,,,,,,,,,,,,,,,,,,,,,,,,,,,,,,,CNP1QV,train_x,red_square,bottom_right,2025-01-15_16h29.25.678,HideSeek_v1,2022.2.5,59.93385699542876,
,7,1,2,1,-5,0,66,,train_dim1_1,18,30,,,,2,0,2,0,,,,,,,,,0,0,0,0,0,17,17,17,3,0,3,0,,,,,,,,,,,,,,,,,,,,,,,,,,,,,,,,,,,,,,,,,,,,,,,,,,,,,,,,,,,,,,,,30,,,,,,,,965.4347269,965.4347269,965.4347269,965.4347269,965.4347269,,,,,left,0.46009239999989404,5,1,0,99,0.07999999999999997,-0.32,left,0.387505899999951,,,,,,,,,,,,,,,,,,,,,,,,,,,,,,,,,,,,,,,,,,,,,,,,,,,,,,,,CNP1QV,train_x,red_square,bottom_right,2025-01-15_16h29.25.678,HideSeek_v1,2022.2.5,59.93385699542876,
,7,1,2,1,-5,0,66,,train_dim1_1,18,30,,,,2,0,2,0,,,,,,,,,0,0,0,0,0,17,17,17,4,0,4,0,,,,,,,,,,,,,,,,,,,,,,,,,,,,,,,,,,,,,,,,,,,,,,,,,,,,,,,,,,,,,,,,30,,,,,,,,965.9016933999999,965.9016933999999,965.9016933999999,965.9016933999999,965.9016933999999,,,,,right,4.37995479999995,5,1,0,99,0.15999999999999998,-0.32,right,4.307960699999967,,,,,,,,,,,,,,,,,,,,,,,,,,,,,,,,,,,,,,,,,,,,,,,,,,,,,,,,CNP1QV,train_x,red_square,bottom_right,2025-01-15_16h29.25.678,HideSeek_v1,2022.2.5,59.93385699542876,
,7,1,2,1,-5,0,66,,train_dim1_1,18,30,,,,2,0,2,0,,,,,,,,,0,0,0,0,0,17,17,17,5,0,5,0,,,,,,,,,,,,,,,,,,,,,,,,,,,,,,,,,,,,,,,,,,,,,,,,,,,,,,,,,,,,,,,,30,,,,,,,,970.2890439999999,970.2890439999999,970.2890439999999,970.2890439999999,970.2890439999999,,,,,right,0.6103615999998055,5,1,0,99,0.24,-0.32,right,0.521978499999932,,,,,,,,,,,,,,,,,,,,,,,,,,,,,,,,,,,,,,,,,,,,,,,,,,,,,,,,CNP1QV,train_x,red_square,bottom_right,2025-01-15_16h29.25.678,HideSeek_v1,2022.2.5,59.93385699542876,
,7,1,2,1,-5,0,66,,train_dim1_1,18,30,,,,2,0,2,0,,,,,,,,,0,0,0,0,0,17,17,17,6,0,6,0,,,,,,,,,,,,,,,,,,,,,,,,,,,,,,,,,,,,,,,,,,,,,,,,,,,,,,,,,,,,,,,,30,,,,,,,,970.9050325000001,970.9050325000001,970.9050325000001,970.9050325000001,970.9050325000001,,,,,right,0.727138400000058,5,1,0,99,0.32,-0.32,right,0.6551101999998536,,,,,,,,,,,,,,,,,,,,,,,,,,,,,,,,,,,,,,,,,,,,,,,,,,,,,,,,CNP1QV,train_x,red_square,bottom_right,2025-01-15_16h29.25.678,HideSeek_v1,2022.2.5,59.93385699542876,
,7,1,2,1,-5,0,66,,train_dim1_1,18,30,,,,2,0,2,0,,,,,,,,,0,0,0,0,0,17,17,17,7,0,7,0,,,,,,,,,,,,,,,,,,,,,,,,,,,,,,,,,,,,,,,,,,,,,,,,,,,,,,,,,,,,,,,,30,,,,,,,,971.6395594,971.6395594,971.6395594,971.6395594,971.6395594,4,-13,0.32,-0.32,return,1.5443050000001222,5,0,0,0,0.32,-0.32,return,1.4652634999999918,,,,,,,,,,,,,,,,,,,,,,,,,,,,,,,,,,,,,,,,,,,,,,,,,,,,,,,,CNP1QV,train_x,red_square,bottom_right,2025-01-15_16h29.25.678,HideSeek_v1,2022.2.5,59.93385699542876,
,5,3,2,3,-3,0,46,,train_dim1_1,19,30,,,,2,0,2,0,,,,,,,,,0,0,0,0,0,18,18,18,0,0,0,0,,,,,,,,,,,,,,,,,,,,,,,,,stimuli/alien_stimuli/46.png,,,,,,,,,,,,,,,,,,,,,,,,,,,,,stimuli/alien_stimuli/66.png,66,7,20,,,,,,,30,,,,,,,,980.0919031999999,980.0919031999999,980.0919031999999,980.0919031999999,980.0919031999999,,,,,left,5.758184899999833,5,0,0,99,0.15999999999999998,-0.16,left,5.670289599999933,978.5329594,980.0919031999999,0,-0.32,0.0,0.4,-0.32,0,0.2,0,-0.32,974.7679489,974.7679489,974.7679489,974.7679489,974.7679489,974.7679489,974.7679489,974.7679489,974.7463939,3.8890509999998812,return,3.7440710999999283,,,,,,,,,,,,,,,,,,,,,,,,,,,,,,,,,CNP1QV,train_x,red_square,bottom_right,2025-01-15_16h29.25.678,HideSeek_v1,2022.2.5,59.93385699542876,
,5,3,2,3,-3,0,46,,train_dim1_1,19,30,,,,2,0,2,0,,,,,,,,,0,0,0,0,0,18,18,18,1,0,1,0,,,,,,,,,,,,,,,,,,,,,,,,,,,,,,,,,,,,,,,,,,,,,,,,,,,,,,,,,,,,,,,,30,,,,,,,,985.8521909000001,985.8521909000001,985.8521909000001,985.8521909000001,985.8521909000001,,,,,left,0.4767751999997927,5,0,0,99,0.07999999999999997,-0.16,left,0.393579999999929,,,,,,,,,,,,,,,,,,,,,,,,,,,,,,,,,,,,,,,,,,,,,,,,,,,,,,,,CNP1QV,train_x,red_square,bottom_right,2025-01-15_16h29.25.678,HideSeek_v1,2022.2.5,59.93385699542876,
,5,3,2,3,-3,0,46,,train_dim1_1,19,30,,,,2,0,2,0,,,,,,,,,0,0,0,0,0,18,18,18,2,0,2,0,,,,,,,,,,,,,,,,,,,,,,,,,,,,,,,,,,,,,,,,,,,,,,,,,,,,,,,,,,,,,,,,30,,,,,,,,986.3354193,986.3354193,986.3354193,986.3354193,986.3354193,,,,,left,0.7602303000001029,5,0,0,99,-2.7755575615628914e-17,-0.16,left,0.6759491000000253,,,,,,,,,,,,,,,,,,,,,,,,,,,,,,,,,,,,,,,,,,,,,,,,,,,,,,,,CNP1QV,train_x,red_square,bottom_right,2025-01-15_16h29.25.678,HideSeek_v1,2022.2.5,59.93385699542876,
,5,3,2,3,-3,0,46,,train_dim1_1,19,30,,,,2,0,2,0,,,,,,,,,0,0,0,0,0,18,18,18,3,0,3,0,,,,,,,,,,,,,,,,,,,,,,,,,,,,,,,,,,,,,,,,,,,,,,,,,,,,,,,,,,,,,,,,30,,,,,,,,987.1026419,987.1026419,987.1026419,987.1026419,987.1026419,,,,,left,0.7603593999999703,5,0,0,99,-0.08000000000000003,-0.16,left,0.6775649000001067,,,,,,,,,,,,,,,,,,,,,,,,,,,,,,,,,,,,,,,,,,,,,,,,,,,,,,,,CNP1QV,train_x,red_square,bottom_right,2025-01-15_16h29.25.678,HideSeek_v1,2022.2.5,59.93385699542876,
,5,3,2,3,-3,0,46,,train_dim1_1,19,30,,,,2,0,2,0,,,,,,,,,0,0,0,0,0,18,18,18,4,0,4,0,,,,,,,,,,,,,,,,,,,,,,,,,,,,,,,,,,,,,,,,,,,,,,,,,,,,,,,,,,,,,,,,30,,,,,,,,987.870263,987.870263,987.870263,987.870263,987.870263,4,-17,-0.08000000000000003,-0.16,return,0.7772695999999542,5,1,0,0,-0.08000000000000003,-0.16,return,0.7050956999999016,,,,,,,,,,,,,,,,,,,,,,,,,,,,,,,,,,,,,,,,,,,,,,,,,,,,,,,,CNP1QV,train_x,red_square,bottom_right,2025-01-15_16h29.25.678,HideSeek_v1,2022.2.5,59.93385699542876,
,5,1,5,1,0,0,16,,train_dim1_1,20,30,,,,2,0,2,0,,,,,,,,,0,0,0,0,0,19,19,19,0,0,0,0,,,,,,,,,,,,,,,,,,,,,,,,,stimuli/alien_stimuli/16.png,,,,,,,,,,,,,,,,,,,,,,,,,,,,,stimuli/alien_stimuli/46.png,46,5,21,,,,,,,30,,,,,,,,994.9579507000001,994.9579507000001,994.9579507000001,994.9579507000001,994.9579507000001,4,-17,0.24,-0.32,return,2.222830699999804,6,0,0,1,0.24,-0.32,return,2.1358076999999867,993.3953764999999,994.9579507000001,0,-0.16,0.0,0.24,-0.16,0,0.12,0,-0.16,990.2263734999999,990.2263734999999,990.2263734999999,990.2263734999999,990.2263734999999,990.2263734999999,990.2263734999999,990.2263734999999,990.2092729,3.2881932999998753,return,3.1498635000000377,,,,,,,,,,,,,,,,,,,,,,,,,,,,,,,,,CNP1QV,train_x,red_square,bottom_right,2025-01-15_16h29.25.678,HideSeek_v1,2022.2.5,59.93385699542876,
,9,2,6,2,-3,0,46,,train_dim1_1,21,30,,,,2,0,2,0,,,,,,,,,0,0,0,0,0,20,20,20,0,0,0,0,,,,,,,,,,,,,,,,,,,,,,,,,stimuli/alien_stimuli/46.png,,,,,,,,,,,,,,,,,,,,,,,,,,,,,stimuli/alien_stimuli/16.png,16,5,22,,,,,,,30,,,,,,,,1004.6957745,1004.6957745,1004.6957745,1004.6957745,1004.6957745,,,,,left,3.839810400000033,6,0,0,99,0.48000000000000004,-0.24,left,3.7541595000000143,1003.1367594000001,1004.6957745,0.24,-0.32,0.0,0.0,-0.32,0.24,0.24,0.24,-0.32,998.7615166,998.7615166,998.7615166,998.7615166,998.7615166,998.7615166,998.7615166,998.7615166,998.7496642,4.5059879000000365,return,4.34799380000004,,,,,,,,,,,,,,,,,,,,,,,,,,,,,,,,,CNP1QV,train_x,red_square,bottom_right,2025-01-15_16h29.25.678,HideSeek_v1,2022.2.5,59.93385699542876,
,9,2,6,2,-3,0,46,,train_dim1_1,21,30,,,,2,0,2,0,,,,,,,,,0,0,0,0,0,20,20,20,1,0,1,0,,,,,,,,,,,,,,,,,,,,,,,,,,,,,,,,,,,,,,,,,,,,,,,,,,,,,,,,,,,,,,,,30,,,,,,,,1008.5374821999999,1008.5374821999999,1008.5374821999999,1008.5374821999999,1008.5374821999999,4,-18,0.48000000000000004,-0.24,return,2.7120275999998285,6,0,0,0,0.48000000000000004,-0.24,return,2.6342227000000094,,,,,,,,,,,,,,,,,,,,,,,,,,,,,,,,,,,,,,,,,,,,,,,,,,,,,,,,CNP1QV,train_x,red_square,bottom_right,2025-01-15_16h29.25.678,HideSeek_v1,2022.2.5,59.93385699542876,
,6,0,5,0,-1,0,26,,train_dim1_1,22,30,,,,2,0,2,0,,,,,,,,,0,0,0,0,0,21,21,21,0,0,0,0,,,,,,,,,,,,,,,,,,,,,,,,,stimuli/alien_stimuli/26.png,,,,,,,,,,,,,,,,,,,,,,,,,,,,,stimuli/alien_stimuli/46.png,46,9,23,,,,,,,30,,,,,,,,1017.7095088000001,1017.7095088000001,1017.7095088000001,1017.7095088000001,1017.7095088000001,,,,,left,4.224836500000038,6,0,0,99,0.24,-0.4,left,4.135575600000038,1016.1475009999999,1017.7095088000001,0.32,-0.24,0.0,0.24,-0.24,0.32,0.44000000000000006,0.32,-0.24,1012.8246812,1012.8246812,1012.8246812,1012.8246812,1012.8246812,1012.8246812,1012.8246812,1012.8246812,1012.8114115,3.438336700000036,return,3.292015400000082,,,,,,,,,,,,,,,,,,,,,,,,,,,,,,,,,CNP1QV,train_x,red_square,bottom_right,2025-01-15_16h29.25.678,HideSeek_v1,2022.2.5,59.93385699542876,
,6,0,5,0,-1,0,26,,train_dim1_1,22,30,,,,2,0,2,0,,,,,,,,,0,0,0,0,0,21,21,21,1,0,1,0,,,,,,,,,,,,,,,,,,,,,,,,,,,,,,,,,,,,,,,,,,,,,,,,,,,,,,,,,,,,,,,,30,,,,,,,,1021.9362252000001,1021.9362252000001,1021.9362252000001,1021.9362252000001,1021.9362252000001,4,-19,0.24,-0.4,return,1.4438081000000693,7,0,0,1,0.24,-0.4,return,1.3523241000000326,,,,,,,,,,,,,,,,,,,,,,,,,,,,,,,,,,,,,,,,,,,,,,,,,,,,,,,,CNP1QV,train_x,red_square,bottom_right,2025-01-15_16h29.25.678,HideSeek_v1,2022.2.5,59.93385699542876,
,7,1,2,1,-5,0,66,,train_dim1_1,23,30,,,,2,0,2,0,,,,,,,,,0,0,0,0,0,22,22,22,0,0,0,0,,,,,,,,,,,,,,,,,,,,,,,,,stimuli/alien_stimuli/66.png,,,,,,,,,,,,,,,,,,,,,,,,,,,,,stimuli/alien_stimuli/26.png,26,6,24,,,,,,,30,,,,,,,,1028.1835846,1028.1835846,1028.1835846,1028.1835846,1028.1835846,,,,,left,16.16705960000013,7,0,0,99,0.32,-0.32,left,16.06347669999991,1026.6061695,1028.1835846,0.24,-0.4,0.0,0.08,-0.4,0.24,0.28,0.24,-0.4,1024.9626633,1024.9626633,1024.9626633,1024.9626633,1024.9626633,1024.9626633,1024.9626633,1024.9626633,1024.9549878999999,1.7699850999999853,return,1.6181280999999217,,,,,,,,,,,,,,,,,,,,,,,,,,,,,,,,,CNP1QV,train_x,red_square,bottom_right,2025-01-15_16h29.25.678,HideSeek_v1,2022.2.5,59.93385699542876,
,7,1,2,1,-5,0,66,,train_dim1_1,23,30,,,,2,0,2,0,,,,,,,,,0,0,0,0,0,22,22,22,1,0,1,0,,,,,,,,,,,,,,,,,,,,,,,,,,,,,,,,,,,,,,,,,,,,,,,,,,,,,,,,,,,,,,,,30,,,,,,,,1044.3503766,1044.3503766,1044.3503766,1044.3503766,1044.3503766,,,,,left,0.7261324000000968,7,0,0,99,0.24,-0.32,left,0.6328395000000455,,,,,,,,,,,,,,,,,,,,,,,,,,,,,,,,,,,,,,,,,,,,,,,,,,,,,,,,CNP1QV,train_x,red_square,bottom_right,2025-01-15_16h29.25.678,HideSeek_v1,2022.2.5,59.93385699542876,
,7,1,2,1,-5,0,66,,train_dim1_1,23,30,,,,2,0,2,0,,,,,,,,,0,0,0,0,0,22,22,22,2,0,2,0,,,,,,,,,,,,,,,,,,,,,,,,,,,,,,,,,,,,,,,,,,,,,,,,,,,,,,,,,,,,,,,,30,,,,,,,,1045.0664469,1045.0664469,1045.0664469,1045.0664469,1045.0664469,,,,,left,1.177519699999948,7,0,0,99,0.15999999999999998,-0.32,left,1.1014052999998967,,,,,,,,,,,,,,,,,,,,,,,,,,,,,,,,,,,,,,,,,,,,,,,,,,,,,,,,CNP1QV,train_x,red_square,bottom_right,2025-01-15_16h29.25.678,HideSeek_v1,2022.2.5,59.93385699542876,
,7,1,2,1,-5,0,66,,train_dim1_1,23,30,,,,2,0,2,0,,,,,,,,,0,0,0,0,0,22,22,22,3,0,3,0,,,,,,,,,,,,,,,,,,,,,,,,,,,,,,,,,,,,,,,,,,,,,,,,,,,,,,,,,,,,,,,,30,,,,,,,,1046.2511091,1046.2511091,1046.2511091,1046.2511091,1046.2511091,,,,,left,0.49346669999999904,7,0,0,99,0.07999999999999997,-0.32,left,0.42273999999997613,,,,,,,,,,,,,,,,,,,,,,,,,,,,,,,,,,,,,,,,,,,,,,,,,,,,,,,,CNP1QV,train_x,red_square,bottom_right,2025-01-15_16h29.25.678,HideSeek_v1,2022.2.5,59.93385699542876,
,7,1,2,1,-5,0,66,,train_dim1_1,23,30,,,,2,0,2,0,,,,,,,,,0,0,0,0,0,22,22,22,4,0,4,0,,,,,,,,,,,,,,,,,,,,,,,,,,,,,,,,,,,,,,,,,,,,,,,,,,,,,,,,,,,,,,,,30,,,,,,,,1046.753317,1046.753317,1046.753317,1046.753317,1046.753317,4,-23,0.07999999999999997,-0.32,return,0.6604486999999608,7,1,0,0,0.07999999999999997,-0.32,return,0.5818199999998797,,,,,,,,,,,,,,,,,,,,,,,,,,,,,,,,,,,,,,,,,,,,,,,,,,,,,,,,CNP1QV,train_x,red_square,bottom_right,2025-01-15_16h29.25.678,HideSeek_v1,2022.2.5,59.93385699542876,
,9,4,5,4,-4,0,56,,train_dim1_1,24,30,,,,2,0,2,0,,,,,,,,,0,0,0,0,0,23,23,23,0,0,0,0,,,,,,,,,,,,,,,,,,,,,,,,,stimuli/alien_stimuli/56.png,,,,,,,,,,,,,,,,,,,,,,,,,,,,,stimuli/alien_stimuli/66.png,66,7,25,,,,,,,30,,,,,,,,1053.0024043,1053.0024043,1053.0024043,1053.0024043,1053.0024043,,,,,down,5.660594499999888,7,1,0,99,0.56,-0.16,down,5.552034000000049,1051.4268076,1053.0024043,0,-0.32,0.0,0.4,-0.32,0,0.2,0,-0.32,1048.9922278,1048.9922278,1048.9922278,1048.9922278,1048.9922278,1048.9922278,1048.9922278,1048.9922278,1048.9749213,2.553846799999974,return,2.410575400000198,,,,,,,,,,,,,,,,,,,,,,,,,,,,,,,,,CNP1QV,train_x,red_square,bottom_right,2025-01-15_16h29.25.678,HideSeek_v1,2022.2.5,59.93385699542876,
,9,4,5,4,-4,0,56,,train_dim1_1,24,30,,,,2,0,2,0,,,,,,,,,0,0,0,0,0,23,23,23,1,0,1,0,,,,,,,,,,,,,,,,,,,,,,,,,,,,,,,,,,,,,,,,,,,,,,,,,,,,,,,,,,,,,,,,30,,,,,,,,1058.6508603,1058.6508603,1058.6508603,1058.6508603,1058.6508603,3,-23,0.56,-0.16,return,0.8741024000000834,7,0,0,0,0.56,-0.16,return,0.7988820000000487,,,,,,,,,,,,,,,,,,,,,,,,,,,,,,,,,,,,,,,,,,,,,,,,,,,,,,,,CNP1QV,train_x,red_square,bottom_right,2025-01-15_16h29.25.678,HideSeek_v1,2022.2.5,59.93385699542876,
,8,0,8,0,0,0,16,,train_dim1_1,25,30,,,,2,0,2,0,,,,,,,,,0,0,0,0,0,24,24,24,0,0,0,0,,,,,,,,,,,,,,,,,,,,,,,,,stimuli/alien_stimuli/16.png,,,,,,,,,,,,,,,,,,,,,,,,,,,,,stimuli/alien_stimuli/56.png,56,9,26,,,,,,,30,,,,,,,,1064.5498592,1064.5498592,1064.5498592,1064.5498592,1064.5498592,3,-23,0.48,-0.4,return,3.8388041000000612,8,0,0,1,0.48,-0.4,return,3.7339120999999977,1062.9697128999999,1064.5498592,0.24,-0.08,0.0,0.32,-0.08,0.24,0.4,0.24,-0.08,1061.090692,1061.090692,1061.090692,1061.090692,1061.090692,1061.090692,1061.090692,1061.090692,1061.0682671,1.9871957000000293,return,1.8586038000000826,,,,,,,,,,,,,,,,,,,,,,,,,,,,,,,,,CNP1QV,train_x,red_square,bottom_right,2025-01-15_16h29.25.678,HideSeek_v1,2022.2.5,59.93385699542876,
,6,1,1,1,-5,0,66,,train_dim1_1,26,30,,,,2,0,2,0,,,,,,,,,0,0,0,0,0,25,25,25,0,0,0,0,,,,,,,,,,,,,,,,,,,,,,,,,stimuli/alien_stimuli/66.png,,,,,,,,,,,,,,,,,,,,,,,,,,,,,stimuli/alien_stimuli/16.png,16,8,27,,,,,,,30,,,,,,,,1073.635375,1073.635375,1073.635375,1073.635375,1073.635375,,,,,left,4.638065599999891,8,0,0,99,0.24,-0.32,left,4.545085999999856,1072.060711,1073.635375,0.48,-0.4,0.0,0.0,-0.4,0.48,0.48,0.48,-0.4,1069.9339206,1069.9339206,1069.9339206,1069.9339206,1069.9339206,1069.9339206,1069.9339206,1069.9339206,1069.9253892,2.2370817000000898,return,2.103620699999965,,,,,,,,,,,,,,,,,,,,,,,,,,,,,,,,,CNP1QV,train_x,red_square,bottom_right,2025-01-15_16h29.25.678,HideSeek_v1,2022.2.5,59.93385699542876,
,6,1,1,1,-5,0,66,,train_dim1_1,26,30,,,,2,0,2,0,,,,,,,,,0,0,0,0,0,25,25,25,1,0,1,0,,,,,,,,,,,,,,,,,,,,,,,,,,,,,,,,,,,,,,,,,,,,,,,,,,,,,,,,,,,,,,,,30,,,,,,,,1078.2628434,1078.2628434,1078.2628434,1078.2628434,1078.2628434,,,,,left,0.42639139999982945,8,0,0,99,0.15999999999999998,-0.32,left,0.35077929999988555,,,,,,,,,,,,,,,,,,,,,,,,,,,,,,,,,,,,,,,,,,,,,,,,,,,,,,,,CNP1QV,train_x,red_square,bottom_right,2025-01-15_16h29.25.678,HideSeek_v1,2022.2.5,59.93385699542876,
,6,1,1,1,-5,0,66,,train_dim1_1,26,30,,,,2,0,2,0,,,,,,,,,0,0,0,0,0,25,25,25,2,0,2,0,,,,,,,,,,,,,,,,,,,,,,,,,,,,,,,,,,,,,,,,,,,,,,,,,,,,,,,,,,,,,,,,30,,,,,,,,1078.6963701,1078.6963701,1078.6963701,1078.6963701,1078.6963701,,,,,left,0.4266898000000765,8,0,0,99,0.07999999999999997,-0.32,left,0.3409379000001991,,,,,,,,,,,,,,,,,,,,,,,,,,,,,,,,,,,,,,,,,,,,,,,,,,,,,,,,CNP1QV,train_x,red_square,bottom_right,2025-01-15_16h29.25.678,HideSeek_v1,2022.2.5,59.93385699542876,
,6,1,1,1,-5,0,66,,train_dim1_1,26,30,,,,2,0,2,0,,,,,,,,,0,0,0,0,0,25,25,25,3,0,3,0,,,,,,,,,,,,,,,,,,,,,,,,,,,,,,,,,,,,,,,,,,,,,,,,,,,,,,,,,,,,,,,,30,,,,,,,,1079.1407462,1079.1407462,1079.1407462,1079.1407462,1079.1407462,3,-26,0.07999999999999997,-0.32,return,0.8603365999999824,8,0,0,0,0.07999999999999997,-0.32,return,0.773814399999992,,,,,,,,,,,,,,,,,,,,,,,,,,,,,,,,,,,,,,,,,,,,,,,,,,,,,,,,CNP1QV,train_x,red_square,bottom_right,2025-01-15_16h29.25.678,HideSeek_v1,2022.2.5,59.93385699542876,
,5,1,2,1,-3,0,46,,train_dim1_1,27,30,,,,2,0,2,0,,,,,,,,,0,0,0,0,0,26,26,26,0,0,0,0,,,,,,,,,,,,,,,,,,,,,,,,,stimuli/alien_stimuli/46.png,,,,,,,,,,,,,,,,,,,,,,,,,,,,,stimuli/alien_stimuli/66.png,66,6,28,,,,,,,30,,,,,,,,1085.5973122,1085.5973122,1085.5973122,1085.5973122,1085.5973122,,,,,left,4.9391052000000855,8,0,0,99,0.15999999999999998,-0.32,left,4.83929820000003,1084.0207218,1085.5973122,-0.08,-0.32,0.0,0.4,-0.32,-0.08,0.12,-0.08,-0.32,1081.5506404,1081.5506404,1081.5506404,1081.5506404,1081.5506404,1081.5506404,1081.5506404,1081.5506404,1081.5351115999997,2.5708534000000327,return,2.4529958999999053,,,,,,,,,,,,,,,,,,,,,,,,,,,,,,,,,CNP1QV,train_x,red_square,bottom_right,2025-01-15_16h29.25.678,HideSeek_v1,2022.2.5,59.93385699542876,
,5,1,2,1,-3,0,46,,train_dim1_1,27,30,,,,2,0,2,0,,,,,,,,,0,0,0,0,0,26,26,26,1,0,1,0,,,,,,,,,,,,,,,,,,,,,,,,,,,,,,,,,,,,,,,,,,,,,,,,,,,,,,,,,,,,,,,,30,,,,,,,,1090.5221397999999,1090.5221397999999,1090.5221397999999,1090.5221397999999,1090.5221397999999,3,-27,0.15999999999999998,-0.32,return,0.9937110000000757,8,0,0,0,0.15999999999999998,-0.32,return,0.9079942000000756,,,,,,,,,,,,,,,,,,,,,,,,,,,,,,,,,,,,,,,,,,,,,,,,,,,,,,,,CNP1QV,train_x,red_square,bottom_right,2025-01-15_16h29.25.678,HideSeek_v1,2022.2.5,59.93385699542876,
,8,1,7,1,-1,0,26,,train_dim1_1,28,30,,,,2,0,2,0,,,,,,,,,0,0,0,0,0,27,27,27,0,0,0,0,,,,,,,,,,,,,,,,,,,,,,,,,stimuli/alien_stimuli/26.png,,,,,,,,,,,,,,,,,,,,,,,,,,,,,stimuli/alien_stimuli/46.png,46,5,29,,,,,,,30,,,,,,,,1097.8093149,1097.8093149,1097.8093149,1097.8093149,1097.8093149,,,,,left,5.409070700000029,8,0,0,99,0.39999999999999997,-0.32,left,5.315627199999881,1096.2473155,1097.8093149,0,-0.32,0.0,0.24,-0.32,0,0.12,0,-0.32,1093.0965376,1093.0965376,1093.0965376,1093.0965376,1093.0965376,1093.0965376,1093.0965376,1093.0965376,1093.0781226,3.2716795999999704,return,3.135087399999975,,,,,,,,,,,,,,,,,,,,,,,,,,,,,,,,,CNP1QV,train_x,red_square,bottom_right,2025-01-15_16h29.25.678,HideSeek_v1,2022.2.5,59.93385699542876,
,8,1,7,1,-1,0,26,,train_dim1_1,28,30,,,,2,0,2,0,,,,,,,,,0,0,0,0,0,27,27,27,1,0,1,0,,,,,,,,,,,,,,,,,,,,,,,,,,,,,,,,,,,,,,,,,,,,,,,,,,,,,,,,,,,,,,,,30,,,,,,,,1103.2205787999999,1103.2205787999999,1103.2205787999999,1103.2205787999999,1103.2205787999999,,,,,left,2.6451898999998775,8,0,0,99,0.31999999999999995,-0.32,left,2.5536385000000337,,,,,,,,,,,,,,,,,,,,,,,,,,,,,,,,,,,,,,,,,,,,,,,,,,,,,,,,CNP1QV,train_x,red_square,bottom_right,2025-01-15_16h29.25.678,HideSeek_v1,2022.2.5,59.93385699542876,
,8,1,7,1,-1,0,26,,train_dim1_1,28,30,,,,2,0,2,0,,,,,,,,,0,0,0,0,0,27,27,27,2,0,2,0,,,,,,,,,,,,,,,,,,,,,,,,,,,,,,,,,,,,,,,,,,,,,,,,,,,,,,,,,,,,,,,,30,,,,,,,,1105.8712555,1105.8712555,1105.8712555,1105.8712555,1105.8712555,,,,,left,4.747061699999904,8,0,0,99,0.23999999999999994,-0.32,left,4.6626214000000346,,,,,,,,,,,,,,,,,,,,,,,,,,,,,,,,,,,,,,,,,,,,,,,,,,,,,,,,CNP1QV,train_x,red_square,bottom_right,2025-01-15_16h29.25.678,HideSeek_v1,2022.2.5,59.93385699542876,
,8,1,7,1,-1,0,26,,train_dim1_1,28,30,,,,2,0,2,0,,,,,,,,,0,0,0,0,0,27,27,27,3,0,3,0,,,,,,,,,,,,,,,,,,,,,,,,,,,,,,,,,,,,,,,,,,,,,,,,,,,,,,,,,,,,,,,,30,,,,,,,,1110.6267652,1110.6267652,1110.6267652,1110.6267652,1110.6267652,3,-30,0.23999999999999994,-0.32,return,1.2604054999999335,8,0,0,0,0.23999999999999994,-0.32,return,1.17180529999996,,,,,,,,,,,,,,,,,,,,,,,,,,,,,,,,,,,,,,,,,,,,,,,,,,,,,,,,CNP1QV,train_x,red_square,bottom_right,2025-01-15_16h29.25.678,HideSeek_v1,2022.2.5,59.93385699542876,
,9,0,5,0,-4,0,56,,train_dim1_1,29,30,,,,2,0,2,0,,,,,,,,,0,0,0,0,0,28,28,28,0,0,0,0,,,,,,,,,,,,,,,,,,,,,,,,,stimuli/alien_stimuli/56.png,,,,,,,,,,,,,,,,,,,,,,,,,,,,,stimuli/alien_stimuli/26.png,26,8,30,,,,,,,30,,,,,,,,1117.2744504,1117.2744504,1117.2744504,1117.2744504,1117.2744504,,,,,left,6.842261600000029,8,0,0,99,0.48000000000000004,-0.4,left,6.735031400000025,1115.6968822,1117.2744504,0.4,-0.32,0.0,0.08,-0.32,0.4,0.44,0.4,-0.32,1113.4682022,1113.4682022,1113.4682022,1113.4682022,1113.4682022,1113.4682022,1113.4682022,1113.4682022,1113.4616291999998,2.354196100000081,return,2.2104261999998016,,,,,,,,,,,,,,,,,,,,,,,,,,,,,,,,,CNP1QV,train_x,red_square,bottom_right,2025-01-15_16h29.25.678,HideSeek_v1,2022.2.5,59.93385699542876,
,9,0,5,0,-4,0,56,,train_dim1_1,29,30,,,,2,0,2,0,,,,,,,,,0,0,0,0,0,28,28,28,1,0,1,0,,,,,,,,,,,,,,,,,,,,,,,,,,,,,,,,,,,,,,,,,,,,,,,,,,,,,,,,,,,,,,,,30,,,,,,,,1124.1033807,1124.1033807,1124.1033807,1124.1033807,1124.1033807,,,,,left,0.44230849999985367,8,0,0,99,0.4,-0.4,left,0.3530003000000761,,,,,,,,,,,,,,,,,,,,,,,,,,,,,,,,,,,,,,,,,,,,,,,,,,,,,,,,CNP1QV,train_x,red_square,bottom_right,2025-01-15_16h29.25.678,HideSeek_v1,2022.2.5,59.93385699542876,
,9,0,5,0,-4,0,56,,train_dim1_1,29,30,,,,2,0,2,0,,,,,,,,,0,0,0,0,0,28,28,28,2,0,2,0,,,,,,,,,,,,,,,,,,,,,,,,,,,,,,,,,,,,,,,,,,,,,,,,,,,,,,,,,,,,,,,,30,,,,,,,,1124.5521474,1124.5521474,1124.5521474,1124.5521474,1124.5521474,,,,,left,0.49351950000004763,8,0,0,99,0.32,-0.4,left,0.40741400000001704,,,,,,,,,,,,,,,,,,,,,,,,,,,,,,,,,,,,,,,,,,,,,,,,,,,,,,,,CNP1QV,train_x,red_square,bottom_right,2025-01-15_16h29.25.678,HideSeek_v1,2022.2.5,59.93385699542876,
,9,0,5,0,-4,0,56,,train_dim1_1,29,30,,,,2,0,2,0,,,,,,,,,0,0,0,0,0,28,28,28,3,0,3,0,,,,,,,,,,,,,,,,,,,,,,,,,,,,,,,,,,,,,,,,,,,,,,,,,,,,,,,,,,,,,,,,30,,,,,,,,1125.0521562,1125.0521562,1125.0521562,1125.0521562,1125.0521562,,,,,left,1.0604691000000912,8,0,0,99,0.24,-0.4,left,0.9824211000000105,,,,,,,,,,,,,,,,,,,,,,,,,,,,,,,,,,,,,,,,,,,,,,,,,,,,,,,,CNP1QV,train_x,red_square,bottom_right,2025-01-15_16h29.25.678,HideSeek_v1,2022.2.5,59.93385699542876,
,9,0,5,0,-4,0,56,,train_dim1_1,29,30,,,,2,0,2,0,,,,,,,,,0,0,0,0,0,28,28,28,4,0,4,0,,,,,,,,,,,,,,,,,,,,,,,,,,,,,,,,,,,,,,,,,,,,,,,,,,,,,,,,,,,,,,,,30,,,,,,,,1126.1206016,1126.1206016,1126.1206016,1126.1206016,1126.1206016,,,,,left,0.6095952999999099,8,0,0,99,0.15999999999999998,-0.4,left,0.5334772000001067,,,,,,,,,,,,,,,,,,,,,,,,,,,,,,,,,,,,,,,,,,,,,,,,,,,,,,,,CNP1QV,train_x,red_square,bottom_right,2025-01-15_16h29.25.678,HideSeek_v1,2022.2.5,59.93385699542876,
,9,0,5,0,-4,0,56,,train_dim1_1,29,30,,,,2,0,2,0,,,,,,,,,0,0,0,0,0,28,28,28,5,0,5,0,,,,,,,,,,,,,,,,,,,,,,,,,,,,,,,,,,,,,,,,,,,,,,,,,,,,,,,,,,,,,,,,30,,,,,,,,1126.737454,1126.737454,1126.737454,1126.737454,1126.737454,3,-35,0.15999999999999998,-0.4,return,1.1610627000000022,8,1,0,0,0.15999999999999998,-0.4,return,1.0753325000000586,,,,,,,,,,,,,,,,,,,,,,,,,,,,,,,,,,,,,,,,,,,,,,,,,,,,,,,,CNP1QV,train_x,red_square,bottom_right,2025-01-15_16h29.25.678,HideSeek_v1,2022.2.5,59.93385699542876,
,7,2,7,2,0,0,16,,train_dim1_1,30,30,,,,2,0,2,0,,,,,,,,,0,0,0,0,0,29,29,29,0,0,0,0,,,,,,,,,,,,,,,,,,,,,,,,,stimuli/alien_stimuli/16.png,,,,,,,,,,,,,,,,,,,,,,,,,,,,,stimuli/alien_stimuli/56.png,56,9,31,,,,,,,30,,,,,,,,1135.2077245,1135.2077245,1135.2077245,1135.2077245,1135.2077245,3,-35,0.4,-0.24,return,3.5907724999999573,9,0,0,1,0.4,-0.24,return,3.5032936000000063,1133.6453066,1135.2077245,0.24,-0.4,0.0,0.32,-0.4,0.24,0.4,0.24,-0.4,1129.4835237,1129.4835237,1129.4835237,1129.4835237,1129.4835237,1129.4835237,1129.4835237,1129.4835237,1129.4747558999998,4.289424500000223,return,4.140303899999935,,,,,,,,,,,,,,,,,,,,,,,,,,,,,,,,,CNP1QV,train_x,red_square,bottom_right,2025-01-15_16h29.25.678,HideSeek_v1,2022.2.5,59.93385699542876,
,,,,,,,,,,,30,,,,2,0,2,0,,,,,,,,,,,,,,,,,,,,,,,,,,,,,,,,,,,,,,,,,,,,,,,,,,,,,,,,,,,,,,,,,,,,,,,,,,stimuli/alien_stimuli/16.png,16,7,32,21,0.7,0.375,1,1,1,30,0,conditions/schedules/train_x_first/red_square_00/bottom_right/inputTrain_2.1.xlsx,99,1,2,1,0,,,,,,,,,,,,,,,1,,,,,1146.4554105,1147.9950864,0.4,-0.24,0.0,0.0,-0.24,0.4,0.4,0.4,-0.24,1140.3723511,1140.3723511,1140.3723511,1140.3723511,1140.3723511,1140.3723511,1140.3723511,1140.3723511,1140.3673172,6.207018699999935,return,6.061825400000089,0,0.9,0,1,9,,,,,,,,,,,,,,,,,,,,,,,,,,,,CNP1QV,train_x,red_square,bottom_right,2025-01-15_16h29.25.678,HideSeek_v1,2022.2.5,59.93385699542876,
,,,,,,,,,,,,,,,3,0,3,0,0,0,0,0,,,,,,,,,,,,,,,,,,,,,,,,,,,,,,,conditions/schedules/train_x_first/red_square_00/bottom_right/instructions/Slide17.png,conditions/schedules/train_x_first/red_square_00/bottom_right/instructions/Audio17.wav,1147.9950864,1147.990314,17,"[26.925668300000098, 19.03221819999999, 16.829563500000063, 19.643565099999932, 5.113906600000064, 4.906733600000052, 5.226151899999991, 11.743046699999923, 6.184622999999874, 7.038390899999968, 10.01061350000009, 12.877333399999998, 20.17985130000011, 13.003471700000091, 31.638415000000123, 55.077190900000005, 129.35061800000017]","[0.00021570000001247536, 0.032581400000026406, 0.03185380000002169, 0.06573800000001029, 0.08612080000000333, 0.07234789999995428, 0.06713830000001053, 0.0965860999999677, 0.06590689999984534, 0.03546690000007402, 0.033312300000034156, 12.877341299999898, 0.0318589000000884, 13.003478600000108, 0.014389200000096025, 55.077198700000054, 129.35062490000018]",0,,,,,,,,,,,,,,,,,,,,,,,,,,,,,,,,,,,,,,,,,,,,,,,,,,,,,,,,,,,,,,,,,,,,,,,,,,,,,,,,,,,,,,,,,,,,,,,,,,,,,,,,,,,,,,,,,,,,,,,,,,,,CNP1QV,train_x,red_square,bottom_right,2025-01-15_16h29.25.678,HideSeek_v1,2022.2.5,59.93385699542876,
,,,,,,,,,,,,,,,3,0,3,0,1,0,1,0,,,,,,,,,,,,,,,,,,,,,,,,,,,,,,,conditions/schedules/train_x_first/red_square_00/bottom_right/instructions/Slide18.png,conditions/schedules/train_x_first/red_square_00/bottom_right/instructions/Audio18.wav,1277.4083922,1277.3975839,18,"[26.925668300000098, 19.03221819999999, 16.829563500000063, 19.643565099999932, 5.113906600000064, 4.906733600000052, 5.226151899999991, 11.743046699999923, 6.184622999999874, 7.038390899999968, 10.01061350000009, 12.877333399999998, 20.17985130000011, 13.003471700000091, 31.638415000000123, 55.077190900000005, 129.35061800000017, 6.225582799999984]","[0.00021570000001247536, 0.032581400000026406, 0.03185380000002169, 0.06573800000001029, 0.08612080000000333, 0.07234789999995428, 0.06713830000001053, 0.0965860999999677, 0.06590689999984534, 0.03546690000007402, 0.033312300000034156, 12.877341299999898, 0.0318589000000884, 13.003478600000108, 0.014389200000096025, 55.077198700000054, 0.037601199999926394, 6.225589500000069]",0,,,,,,,,,,,,,,,,,,,,,,,,,,,,,,,,,,,,,,,,,,,,,,,,,,,,,,,,,,,,,,,,,,,,,,,,,,,,,,,,,,,,,,,,,,,,,,,,,,,,,,,,,,,,,,,,,,,,,,,,,,,,CNP1QV,train_x,red_square,bottom_right,2025-01-15_16h29.25.678,HideSeek_v1,2022.2.5,59.93385699542876,
,,,,,,,,,,,,,,,3,0,3,0,2,0,2,0,,,,,,,,,,,,,,,,,,,,,,,,,,,,,,,conditions/schedules/train_x_first/red_square_00/bottom_right/instructions/Slide19.png,conditions/schedules/train_x_first/red_square_00/bottom_right/instructions/Audio19.wav,1283.6699084,1283.6698783,19,"[26.925668300000098, 19.03221819999999, 16.829563500000063, 19.643565099999932, 5.113906600000064, 4.906733600000052, 5.226151899999991, 11.743046699999923, 6.184622999999874, 7.038390899999968, 10.01061350000009, 12.877333399999998, 20.17985130000011, 13.003471700000091, 31.638415000000123, 55.077190900000005, 129.35061800000017, 6.225582799999984, 11.306505700000116]","[0.00021570000001247536, 0.032581400000026406, 0.03185380000002169, 0.06573800000001029, 0.08612080000000333, 0.07234789999995428, 0.06713830000001053, 0.0965860999999677, 0.06590689999984534, 0.03546690000007402, 0.033312300000034156, 12.877341299999898, 0.0318589000000884, 13.003478600000108, 0.014389200000096025, 55.077198700000054, 0.037601199999926394, 0.06422889999998915, 11.306512699999985]",0,,,,,,,,,,,,,,,,,,,,,,,,,,,,,,,,,,,,,,,,,,,,,,,,,,,,,,,,,,,,,,,,,,,,,,,,,,,,,,,,,,,,,,,,,,,,,,,,,,,,,,,,,,,,,,,,,,,,,,,,,,,,CNP1QV,train_x,red_square,bottom_right,2025-01-15_16h29.25.678,HideSeek_v1,2022.2.5,59.93385699542876,
,,,,,,,,,,,,,,,3,0,3,0,3,0,3,0,,,,,,,,,,,,,,,,,,,,,,,,,,,,,,,conditions/schedules/train_x_first/red_square_00/bottom_right/instructions/Slide20.png,conditions/schedules/train_x_first/red_square_00/bottom_right/instructions/Audio20.wav,1295.0421283,1295.0290676999998,20,"[26.925668300000098, 19.03221819999999, 16.829563500000063, 19.643565099999932, 5.113906600000064, 4.906733600000052, 5.226151899999991, 11.743046699999923, 6.184622999999874, 7.038390899999968, 10.01061350000009, 12.877333399999998, 20.17985130000011, 13.003471700000091, 31.638415000000123, 55.077190900000005, 129.35061800000017, 6.225582799999984, 11.306505700000116, 14.046859699999914]","[0.00021570000001247536, 0.032581400000026406, 0.03185380000002169, 0.06573800000001029, 0.08612080000000333, 0.07234789999995428, 0.06713830000001053, 0.0965860999999677, 0.06590689999984534, 0.03546690000007402, 0.033312300000034156, 12.877341299999898, 0.0318589000000884, 13.003478600000108, 0.014389200000096025, 55.077198700000054, 0.037601199999926394, 0.06422889999998915, 0.035537700000077166, 14.04686629999992]",0,,,,,,,,,,,,,,,,,,,,,,,,,,,,,,,,,,,,,,,,,,,,,,,,,,,,,,,,,,,,,,,,,,,,,,,,,,,,,,,,,,,,,,,,,,,,,,,,,,,,,,,,,,,,,,,,,,,,,,,,,,,,CNP1QV,train_x,red_square,bottom_right,2025-01-15_16h29.25.678,HideSeek_v1,2022.2.5,59.93385699542876,
1,7,3,7,8,0,5,11,2,instr_dim1_2,,,,,,3,0,3,0,,,,,0,0,0,0,,,,,,,,,,,,,,,,,,,,,,,,,,,,,,,,,,,,,stimuli/alien_stimuli/11.png,conditions/schedules/train_x_first/red_square_00/bottom_right/inputInstr_2.xlsx,stimuli/alien_stimuli/11.png,1309.1791971,1309.1791971,1309.1791971,1309.1791971,1309.1743453,return,7.394159400000035,"[-0.16, -0.08, 0, 0.08, 0.16, 0.24, 0.32, 0.4, 0.48, 0.56]","[-0.4, -0.32, -0.24, -0.16, -0.08, 0, 0.08, 0.16, 0.24, 0.32]",8,3,7,7,0.4,0.0,1316.7386354,1316.7386354,1316.7386354,1316.7386354,1316.7386354,1316.7386354,1316.7386354,1316.7306907999998,8.27435330000003,return,8.114653500000031,stimuli/alien_stimuli/11.png,11,7,1,,,,,,,,,,,,,,,,,,,,,,,,,,,,,,,,,,,,,,,,,,,,,,,,,,,,,,,,,,,,,,,,,,,,,,,,,,,,,,,,,,,,,,,,,CNP1QV,train_x,red_square,bottom_right,2025-01-15_16h29.25.678,HideSeek_v1,2022.2.5,59.93385699542876,
,,,,,,,,,,,30,,,,3,0,3,0,,,,,,,,,,,,,,,,,,,,,,,,,,,,,,,,,,,,,,,,,,,,,,,,,,,,,,,,,,,,,,,,,,,,,,,,,,,,,,21,0.7,0.375,1,99,2,30,0,conditions/schedules/train_x_first/red_square_00/bottom_right/inputTrain_2.1.xlsx,99,1,2,1,0,,,,,,,,,,,,,,,,,,,,,,,,,,,,,,,,,,,,,,,,,,,,,,,,,,,,,,,,,,,,,,,,,,,,,,,,,,,CNP1QV,train_x,red_square,bottom_right,2025-01-15_16h29.25.678,HideSeek_v1,2022.2.5,59.93385699542876,
,,,,,,,,,,,,,,,4,0,4,0,0,0,0,0,,,,,,,,,,,,,,,,,,,,,,,,,,,,,,,conditions/schedules/train_x_first/red_square_00/bottom_right/instructions/Slide21.png,conditions/schedules/train_x_first/red_square_00/bottom_right/instructions/Audio21.wav,1325.0048616,1325.0039674999998,21,"[26.925668300000098, 19.03221819999999, 16.829563500000063, 19.643565099999932, 5.113906600000064, 4.906733600000052, 5.226151899999991, 11.743046699999923, 6.184622999999874, 7.038390899999968, 10.01061350000009, 12.877333399999998, 20.17985130000011, 13.003471700000091, 31.638415000000123, 55.077190900000005, 129.35061800000017, 6.225582799999984, 11.306505700000116, 14.046859699999914, 17.066765400000122]","[0.00021570000001247536, 0.032581400000026406, 0.03185380000002169, 0.06573800000001029, 0.08612080000000333, 0.07234789999995428, 0.06713830000001053, 0.0965860999999677, 0.06590689999984534, 0.03546690000007402, 0.033312300000034156, 12.877341299999898, 0.0318589000000884, 13.003478600000108, 0.014389200000096025, 55.077198700000054, 0.037601199999926394, 0.06422889999998915, 0.035537700000077166, 14.04686629999992, 17.066774699999996]",0,,,,,,,,,,,,,,,,,,,,,,,,,,,,,,,,,,,,,,,,,,,,,,,,,,,,,,,,,,,,,,,,,,,,,,,,,,,,,,,,,,,,,,,,,,,,,,,,,,,,,,,,,,,,,,,,,,,,,,,,,,,,CNP1QV,train_x,red_square,bottom_right,2025-01-15_16h29.25.678,HideSeek_v1,2022.2.5,59.93385699542876,
2,5,3,5,3,0,0,16,2,instr_dim1_2,,,,,,4,0,4,0,,,,,0,0,0,0,,,,,,,,,,,,,,,,,,,,,,,,,,,,,,,,,,,,,stimuli/alien_stimuli/16.png,conditions/schedules/train_x_first/red_square_00/bottom_right/inputInstr_2.xlsx,stimuli/alien_stimuli/16.png,1342.1652544,1342.1652544,1342.1652544,1342.1652544,1342.1572822999997,return,7.6590294999998605,"[-0.16, -0.08, 0, 0.08, 0.16, 0.24, 0.32, 0.4, 0.48, 0.56]","[-0.4, -0.32, -0.24, -0.16, -0.08, 0, 0.08, 0.16, 0.24, 0.32]",3,3,5,5,0.0,0.0,1349.9699658000002,1349.9699658000002,1349.9699658000002,1349.9699658000002,1349.9699658000002,1349.9699658000002,1349.9699658000002,1349.9578618999997,6.305972300000121,return,6.147319500000322,stimuli/alien_stimuli/16.png,16,5,2,,,,,,,,,,,,,,,,,,,,,,,,,,,,,,,,,,,,,,,,,,,,,,,,,,,,,,,,,,,,,,,,,,,,,,,,,,,,,,,,,,,,,,,,,CNP1QV,train_x,red_square,bottom_right,2025-01-15_16h29.25.678,HideSeek_v1,2022.2.5,59.93385699542876,
,,,,,,,,,,,30,,,,4,0,4,0,,,,,,,,,,,,,,,,,,,,,,,,,,,,,,,,,,,,,,,,,,,,,,,,,,,,,,,,,,,,,,,,,,,,,,,,,,,,,,21,0.7,0.375,1,99,2,30,0,conditions/schedules/train_x_first/red_square_00/bottom_right/inputTrain_2.1.xlsx,99,1,2,1,0,,,,,,,,,,,,,,,,,,,,,,,,,,,,,,,,,,,,,,,,,,,,,,,,,,,,,,,,,,,,,,,,,,,,,,,,,,,CNP1QV,train_x,red_square,bottom_right,2025-01-15_16h29.25.678,HideSeek_v1,2022.2.5,59.93385699542876,
,,,,,,,,,,,,,,,5,0,5,0,0,0,0,0,,,,,,,,,,,,,,,,,,,,,,,,,,,,,,,conditions/schedules/train_x_first/red_square_00/bottom_right/instructions/Slide22.png,conditions/schedules/train_x_first/red_square_00/bottom_right/instructions/Audio22.wav,1356.2926052,1356.2797935999997,22,"[26.925668300000098, 19.03221819999999, 16.829563500000063, 19.643565099999932, 5.113906600000064, 4.906733600000052, 5.226151899999991, 11.743046699999923, 6.184622999999874, 7.038390899999968, 10.01061350000009, 12.877333399999998, 20.17985130000011, 13.003471700000091, 31.638415000000123, 55.077190900000005, 129.35061800000017, 6.225582799999984, 11.306505700000116, 14.046859699999914, 17.066765400000122, 43.33690539999998]","[0.00021570000001247536, 0.032581400000026406, 0.03185380000002169, 0.06573800000001029, 0.08612080000000333, 0.07234789999995428, 0.06713830000001053, 0.0965860999999677, 0.06590689999984534, 0.03546690000007402, 0.033312300000034156, 12.877341299999898, 0.0318589000000884, 13.003478600000108, 0.014389200000096025, 55.077198700000054, 0.037601199999926394, 0.06422889999998915, 0.035537700000077166, 14.04686629999992, 17.066774699999996, 43.336911899999905]",0,,,,,,,,,,,,,,,,,,,,,,,,,,,,,,,,,,,,,,,,,,,,,,,,,,,,,,,,,,,,,,,,,,,,,,,,,,,,,,,,,,,,,,,,,,,,,,,,,,,,,,,,,,,,,,,,,,,,,,,,,,,,CNP1QV,train_x,red_square,bottom_right,2025-01-15_16h29.25.678,HideSeek_v1,2022.2.5,59.93385699542876,
,5,0,5,1,0,1,15,,train_dim1_2,1,30,,,,5,0,5,0,,,,,,,,,0,0,0,0,0,0,0,0,0,0,0,0,,,,,,,,,,,,,,,,,,,,,,,,,stimuli/alien_stimuli/15.png,,,,,,,,,,,,,,,,,,,,,,,,,,,,,,,,,,,,,,,30,,,,,,,,1399.7300069,1399.7300069,1399.7300069,1399.7300069,1399.7300069,3,-35,0.24,-0.4,return,8.017533900000217,0,1,0,0,0.24,-0.4,return,7.925699899999927,,,,,,,,,,,,,,,,,,,,,,,,,,,,,,,,,,,,,,,,,,,,,,,,,,,,,,,,CNP1QV,train_x,red_square,bottom_right,2025-01-15_16h29.25.678,HideSeek_v1,2022.2.5,59.93385699542876,
,8,2,8,2,0,0,16,,train_dim1_2,2,30,,,,5,0,5,0,,,,,,,,,0,0,0,0,0,1,1,1,0,0,0,0,,,,,,,,,,,,,,,,,,,,,,,,,stimuli/alien_stimuli/16.png,,,,,,,,,,,,,,,,,,,,,,,,,,,,,stimuli/alien_stimuli/15.png,15,5,3,,,,,,,30,,,,,,,,1422.5482301,1422.5482301,1422.5482301,1422.5482301,1422.5482301,,,,,up,9.294591699999728,0,1,0,99,0.48,-0.15999999999999998,up,9.206155099999705,1420.9838474,1422.5482301,0.24,-0.32,0.08,0.0,-0.36,0.24,0.24,0.24,-0.32,1409.2980003,1409.2980003,1409.2980003,1409.2980003,1409.2980003,1409.2980003,1409.2980003,1409.2980003,1409.2907095,11.79524530000026,return,11.66862749999973,,,,,,,,,,,,,,,,,,,,,,,,,,,,,,,,,CNP1QV,train_x,red_square,bottom_right,2025-01-15_16h29.25.678,HideSeek_v1,2022.2.5,59.93385699542876,
,8,2,8,2,0,0,16,,train_dim1_2,2,30,,,,5,0,5,0,,,,,,,,,0,0,0,0,0,1,1,1,1,0,1,0,,,,,,,,,,,,,,,,,,,,,,,,,,,,,,,,,,,,,,,,,,,,,,,,,,,,,,,,,,,,,,,,30,,,,,,,,1431.8439562,1431.8439562,1431.8439562,1431.8439562,1431.8439562,4,-35,0.48,-0.15999999999999998,return,0.9599367000000711,0,1,0,0,0.48,-0.15999999999999998,return,0.8782766000003903,,,,,,,,,,,,,,,,,,,,,,,,,,,,,,,,,,,,,,,,,,,,,,,,,,,,,,,,CNP1QV,train_x,red_square,bottom_right,2025-01-15_16h29.25.678,HideSeek_v1,2022.2.5,59.93385699542876,
,7,3,7,6,0,3,13,,train_dim1_2,3,30,,,,5,0,5,0,,,,,,,,,0,0,0,0,0,2,2,2,0,0,0,0,,,,,,,,,,,,,,,,,,,,,,,,,stimuli/alien_stimuli/13.png,,,,,,,,,,,,,,,,,,,,,,,,,,,,,stimuli/alien_stimuli/16.png,16,8,4,,,,,,,30,,,,,,,,1440.9034441000001,1440.9034441000001,1440.9034441000001,1440.9034441000001,1440.9034441000001,,,,,left,7.1451170000000275,0,1,0,99,0.32,-0.16,left,7.06746800000019,1439.3486928,1440.9034441000001,0.48,-0.24,0.0,0.0,-0.24,0.48,0.48,0.48,-0.24,1434.3762215,1434.3762215,1434.3762215,1434.3762215,1434.3762215,1434.3762215,1434.3762215,1434.3762215,1434.3781552999997,5.091208499999993,return,4.948552699999709,,,,,,,,,,,,,,,,,,,,,,,,,,,,,,,,,CNP1QV,train_x,red_square,bottom_right,2025-01-15_16h29.25.678,HideSeek_v1,2022.2.5,59.93385699542876,
,7,3,7,6,0,3,13,,train_dim1_2,3,30,,,,5,0,5,0,,,,,,,,,0,0,0,0,0,2,2,2,1,0,1,0,,,,,,,,,,,,,,,,,,,,,,,,,,,,,,,,,,,,,,,,,,,,,,,,,,,,,,,,,,,,,,,,30,,,,,,,,1448.0746772,1448.0746772,1448.0746772,1448.0746772,1448.0746772,,,,,left,0.5821769999997741,0,1,0,99,0.24,-0.16,left,0.48642259999996895,,,,,,,,,,,,,,,,,,,,,,,,,,,,,,,,,,,,,,,,,,,,,,,,,,,,,,,,CNP1QV,train_x,red_square,bottom_right,2025-01-15_16h29.25.678,HideSeek_v1,2022.2.5,59.93385699542876,
,7,3,7,6,0,3,13,,train_dim1_2,3,30,,,,5,0,5,0,,,,,,,,,0,0,0,0,0,2,2,2,2,0,2,0,,,,,,,,,,,,,,,,,,,,,,,,,,,,,,,,,,,,,,,,,,,,,,,,,,,,,,,,,,,,,,,,30,,,,,,,,1448.6728698999998,1448.6728698999998,1448.6728698999998,1448.6728698999998,1448.6728698999998,,,,,left,1.33522449999964,0,1,0,99,0.15999999999999998,-0.16,left,1.2511735000002773,,,,,,,,,,,,,,,,,,,,,,,,,,,,,,,,,,,,,,,,,,,,,,,,,,,,,,,,CNP1QV,train_x,red_square,bottom_right,2025-01-15_16h29.25.678,HideSeek_v1,2022.2.5,59.93385699542876,
,7,3,7,6,0,3,13,,train_dim1_2,3,30,,,,5,0,5,0,,,,,,,,,0,0,0,0,0,2,2,2,3,0,3,0,,,,,,,,,,,,,,,,,,,,,,,,,,,,,,,,,,,,,,,,,,,,,,,,,,,,,,,,,,,,,,,,30,,,,,,,,1450.0067173999998,1450.0067173999998,1450.0067173999998,1450.0067173999998,1450.0067173999998,4,-38,0.15999999999999998,-0.16,return,0.8439758000004076,0,0,0,0,0.15999999999999998,-0.16,return,0.7671666000001096,,,,,,,,,,,,,,,,,,,,,,,,,,,,,,,,,,,,,,,,,,,,,,,,,,,,,,,,CNP1QV,train_x,red_square,bottom_right,2025-01-15_16h29.25.678,HideSeek_v1,2022.2.5,59.93385699542876,
,5,1,5,5,0,4,12,,train_dim1_2,4,30,,,,5,0,5,0,,,,,,,,,0,0,0,0,0,3,3,3,0,0,0,0,,,,,,,,,,,,,,,,,,,,,,,,,stimuli/alien_stimuli/12.png,,,,,,,,,,,,,,,,,,,,,,,,,,,,,stimuli/alien_stimuli/13.png,13,7,5,,,,,,,30,,,,,,,,1457.9360626999999,1457.9360626999999,1457.9360626999999,1457.9360626999999,1457.9360626999999,,,,,right,6.36073929999975,0,0,0,99,0.32,-0.32,right,6.27318809999997,1456.3667882000002,1452.4303591999999,0.4,0.08,0.24,0.0,-0.04,0.4,0.4,0.4,0.08,1452.4303591999999,1452.4303591999999,1452.4303591999999,1452.4303591999999,1452.4303591999999,1452.4303591999999,1452.4303591999999,1452.4303591999999,1452.4267506999997,4.05945070000007,return,3.915635299999849,,,,,,,,,,,,,,,,,,,,,,,,,,,,,,,,,CNP1QV,train_x,red_square,bottom_right,2025-01-15_16h29.25.678,HideSeek_v1,2022.2.5,59.93385699542876,
,5,1,5,5,0,4,12,,train_dim1_2,4,30,,,,5,0,5,0,,,,,,,,,0,0,0,0,0,3,3,3,1,0,1,0,,,,,,,,,,,,,,,,,,,,,,,,,,,,,,,,,,,,,,,,,,,,,,,,,,,,,,,,,,,,,,,,30,,,,,,,,1464.3045672,1464.3045672,1464.3045672,1464.3045672,1464.3045672,,,,,right,0.4762679999998909,0,0,0,99,0.4,-0.32,right,0.3844232999999804,,,,,,,,,,,,,,,,,,,,,,,,,,,,,,,,,,,,,,,,,,,,,,,,,,,,,,,,CNP1QV,train_x,red_square,bottom_right,2025-01-15_16h29.25.678,HideSeek_v1,2022.2.5,59.93385699542876,
,5,1,5,5,0,4,12,,train_dim1_2,4,30,,,,5,0,5,0,,,,,,,,,0,0,0,0,0,3,3,3,2,0,2,0,,,,,,,,,,,,,,,,,,,,,,,,,,,,,,,,,,,,,,,,,,,,,,,,,,,,,,,,,,,,,,,,30,,,,,,,,1464.7866878000002,1464.7866878000002,1464.7866878000002,1464.7866878000002,1464.7866878000002,4,-36,0.4,-0.32,return,0.9438881000000947,0,0,0,0,0.4,-0.32,return,0.8672612999998819,,,,,,,,,,,,,,,,,,,,,,,,,,,,,,,,,,,,,,,,,,,,,,,,,,,,,,,,CNP1QV,train_x,red_square,bottom_right,2025-01-15_16h29.25.678,HideSeek_v1,2022.2.5,59.93385699542876,
,8,3,8,8,0,5,11,,train_dim1_2,5,30,,,,5,0,5,0,,,,,,,,,0,0,0,0,0,4,4,4,0,0,0,0,,,,,,,,,,,,,,,,,,,,,,,,,stimuli/alien_stimuli/11.png,,,,,,,,,,,,,,,,,,,,,,,,,,,,,stimuli/alien_stimuli/12.png,12,5,6,,,,,,,30,,,,,,,,1472.3850223000002,1472.3850223000002,1472.3850223000002,1472.3850223000002,1472.3850223000002,,,,,up,7.40835399999969,0,0,0,99,0.48,-0.08,up,7.330568099999709,1470.8250781999998,1472.3850223000002,0.24,0,0.32,0.0,-0.16,0.24,0.24,0.24,0,1467.3050700000001,1467.3050700000001,1467.3050700000001,1467.3050700000001,1467.3050700000001,1467.3050700000001,1467.3050700000001,1467.3050700000001,1467.3055035999998,3.6384640000001127,return,3.4900243000001865,,,,,,,,,,,,,,,,,,,,,,,,,,,,,,,,,CNP1QV,train_x,red_square,bottom_right,2025-01-15_16h29.25.678,HideSeek_v1,2022.2.5,59.93385699542876,
,8,3,8,8,0,5,11,,train_dim1_2,5,30,,,,5,0,5,0,,,,,,,,,0,0,0,0,0,4,4,4,1,0,1,0,,,,,,,,,,,,,,,,,,,,,,,,,,,,,,,,,,,,,,,,,,,,,,,,,,,,,,,,,,,,,,,,30,,,,,,,,1479.8007221999999,1479.8007221999999,1479.8007221999999,1479.8007221999999,1479.8007221999999,5,-36,0.48,-0.08,return,0.6595847999997204,0,0,0,0,0.48,-0.08,return,0.5750490999998874,,,,,,,,,,,,,,,,,,,,,,,,,,,,,,,,,,,,,,,,,,,,,,,,,,,,,,,,CNP1QV,train_x,red_square,bottom_right,2025-01-15_16h29.25.678,HideSeek_v1,2022.2.5,59.93385699542876,
,6,4,6,8,0,4,12,,train_dim1_2,6,30,,,,5,0,5,0,,,,,,,,,0,0,0,0,0,5,5,5,0,0,0,0,,,,,,,,,,,,,,,,,,,,,,,,,stimuli/alien_stimuli/12.png,,,,,,,,,,,,,,,,,,,,,,,,,,,,,stimuli/alien_stimuli/11.png,11,8,7,,,,,,,30,,,,,,,,1487.6145672,1487.6145672,1487.6145672,1487.6145672,1487.6145672,,,,,up,14.297054600000138,0,0,0,99,0.32,0.0,up,14.2094404999998,1486.0544226999998,1487.6145672,0.48,0.24,0.4,0.0,0.039999999999999994,0.48,0.48,0.48,0.24,1482.0287738,1482.0287738,1482.0287738,1482.0287738,1482.0287738,1482.0287738,1482.0287738,1482.0287738,1482.0176917,4.139228900000035,return,4.004488999999921,,,,,,,,,,,,,,,,,,,,,,,,,,,,,,,,,CNP1QV,train_x,red_square,bottom_right,2025-01-15_16h29.25.678,HideSeek_v1,2022.2.5,59.93385699542876,
,6,4,6,8,0,4,12,,train_dim1_2,6,30,,,,5,0,5,0,,,,,,,,,0,0,0,0,0,5,5,5,1,0,1,0,,,,,,,,,,,,,,,,,,,,,,,,,,,,,,,,,,,,,,,,,,,,,,,,,,,,,,,,,,,,,,,,30,,,,,,,,1501.9284289,1501.9284289,1501.9284289,1501.9284289,1501.9284289,,,,,up,0.4595960000001469,0,0,0,99,0.32,0.08,up,0.36228380000011384,,,,,,,,,,,,,,,,,,,,,,,,,,,,,,,,,,,,,,,,,,,,,,,,,,,,,,,,CNP1QV,train_x,red_square,bottom_right,2025-01-15_16h29.25.678,HideSeek_v1,2022.2.5,59.93385699542876,
,6,4,6,8,0,4,12,,train_dim1_2,6,30,,,,5,0,5,0,,,,,,,,,0,0,0,0,0,5,5,5,2,0,2,0,,,,,,,,,,,,,,,,,,,,,,,,,,,,,,,,,,,,,,,,,,,,,,,,,,,,,,,,,,,,,,,,30,,,,,,,,1502.3851778,1502.3851778,1502.3851778,1502.3851778,1502.3851778,,,,,up,0.39334099999996397,0,0,0,99,0.32,0.16,up,0.31220710000025065,,,,,,,,,,,,,,,,,,,,,,,,,,,,,,,,,,,,,,,,,,,,,,,,,,,,,,,,CNP1QV,train_x,red_square,bottom_right,2025-01-15_16h29.25.678,HideSeek_v1,2022.2.5,59.93385699542876,
,6,4,6,8,0,4,12,,train_dim1_2,6,30,,,,5,0,5,0,,,,,,,,,0,0,0,0,0,5,5,5,3,0,3,0,,,,,,,,,,,,,,,,,,,,,,,,,,,,,,,,,,,,,,,,,,,,,,,,,,,,,,,,,,,,,,,,30,,,,,,,,1502.7916671,1502.7916671,1502.7916671,1502.7916671,1502.7916671,,,,,up,0.4598511999997754,0,0,0,99,0.32,0.24,up,0.36458349999975326,,,,,,,,,,,,,,,,,,,,,,,,,,,,,,,,,,,,,,,,,,,,,,,,,,,,,,,,CNP1QV,train_x,red_square,bottom_right,2025-01-15_16h29.25.678,HideSeek_v1,2022.2.5,59.93385699542876,
,6,4,6,8,0,4,12,,train_dim1_2,6,30,,,,5,0,5,0,,,,,,,,,0,0,0,0,0,5,5,5,4,0,4,0,,,,,,,,,,,,,,,,,,,,,,,,,,,,,,,,,,,,,,,,,,,,,,,,,,,,,,,,,,,,,,,,30,,,,,,,,1503.2528215999998,1503.2528215999998,1503.2528215999998,1503.2528215999998,1503.2528215999998,9,-36,0.32,0.24,return,1.1774894000000131,1,0,0,1,0.32,0.24,return,1.0901089999997566,,,,,,,,,,,,,,,,,,,,,,,,,,,,,,,,,,,,,,,,,,,,,,,,,,,,,,,,CNP1QV,train_x,red_square,bottom_right,2025-01-15_16h29.25.678,HideSeek_v1,2022.2.5,59.93385699542876,
,6,3,6,6,0,3,13,,train_dim1_2,7,30,,,,5,0,5,0,,,,,,,,,0,0,0,0,0,6,6,6,0,0,0,0,,,,,,,,,,,,,,,,,,,,,,,,,stimuli/alien_stimuli/13.png,,,,,,,,,,,,,,,,,,,,,,,,,,,,,stimuli/alien_stimuli/12.png,12,6,8,,,,,,,30,,,,,,,,1509.9292650999998,1509.9292650999998,1509.9292650999998,1509.9292650999998,1509.9292650999998,,,,,left,3.874171599999954,1,0,0,99,0.24,-0.16,left,3.783944199999951,1508.3729111999999,1509.9292650999998,0.32,0.24,0.32,0.0,0.07999999999999999,0.32,0.32,0.32,0.24,1506.0020318999998,1506.0020318999998,1506.0020318999998,1506.0020318999998,1506.0020318999998,1506.0020318999998,1506.0020318999998,1506.0020318999998,1505.9878768999997,2.4873757000000296,return,2.3496282999999494,,,,,,,,,,,,,,,,,,,,,,,,,,,,,,,,,CNP1QV,train_x,red_square,bottom_right,2025-01-15_16h29.25.678,HideSeek_v1,2022.2.5,59.93385699542876,
,6,3,6,6,0,3,13,,train_dim1_2,7,30,,,,5,0,5,0,,,,,,,,,0,0,0,0,0,6,6,6,1,0,1,0,,,,,,,,,,,,,,,,,,,,,,,,,,,,,,,,,,,,,,,,,,,,,,,,,,,,,,,,,,,,,,,,30,,,,,,,,1513.8112614999998,1513.8112614999998,1513.8112614999998,1513.8112614999998,1513.8112614999998,9,-37,0.24,-0.16,return,0.8929711999999199,1,0,0,0,0.24,-0.16,return,0.8028004999996483,,,,,,,,,,,,,,,,,,,,,,,,,,,,,,,,,,,,,,,,,,,,,,,,,,,,,,,,CNP1QV,train_x,red_square,bottom_right,2025-01-15_16h29.25.678,HideSeek_v1,2022.2.5,59.93385699542876,
,9,2,9,7,0,5,11,,train_dim1_2,8,30,,,,5,0,5,0,,,,,,,,,0,0,0,0,0,7,7,7,0,0,0,0,,,,,,,,,,,,,,,,,,,,,,,,,stimuli/alien_stimuli/11.png,,,,,,,,,,,,,,,,,,,,,,,,,,,,,stimuli/alien_stimuli/13.png,13,6,9,,,,,,,30,,,,,,,,1520.3904086999999,1520.3904086999999,1520.3904086999999,1520.3904086999999,1520.3904086999999,,,,,left,4.138552100000197,1,0,0,99,0.48000000000000004,-0.24,left,4.059358299999985,1518.831888,1520.3904086999999,0.32,0.08,0.24,0.0,-0.04,0.32,0.32,0.32,0.08,1516.2797448,1516.2797448,1516.2797448,1516.2797448,1516.2797448,1516.2797448,1516.2797448,1516.2797448,1516.2795948,2.6711921999999504,return,2.5301574000000073,,,,,,,,,,,,,,,,,,,,,,,,,,,,,,,,,CNP1QV,train_x,red_square,bottom_right,2025-01-15_16h29.25.678,HideSeek_v1,2022.2.5,59.93385699542876,
,9,2,9,7,0,5,11,,train_dim1_2,8,30,,,,5,0,5,0,,,,,,,,,0,0,0,0,0,7,7,7,1,0,1,0,,,,,,,,,,,,,,,,,,,,,,,,,,,,,,,,,,,,,,,,,,,,,,,,,,,,,,,,,,,,,,,,30,,,,,,,,1524.5380164,1524.5380164,1524.5380164,1524.5380164,1524.5380164,,,,,left,3.6616767000000436,1,0,0,99,0.4,-0.24,left,3.5748663000003944,,,,,,,,,,,,,,,,,,,,,,,,,,,,,,,,,,,,,,,,,,,,,,,,,,,,,,,,CNP1QV,train_x,red_square,bottom_right,2025-01-15_16h29.25.678,HideSeek_v1,2022.2.5,59.93385699542876,
,9,2,9,7,0,5,11,,train_dim1_2,8,30,,,,5,0,5,0,,,,,,,,,0,0,0,0,0,7,7,7,2,0,2,0,,,,,,,,,,,,,,,,,,,,,,,,,,,,,,,,,,,,,,,,,,,,,,,,,,,,,,,,,,,,,,,,30,,,,,,,,1528.2064925000002,1528.2064925000002,1528.2064925000002,1528.2064925000002,1528.2064925000002,,,,,left,1.2106628999999884,1,0,0,99,0.32,-0.24,left,1.133646299999782,,,,,,,,,,,,,,,,,,,,,,,,,,,,,,,,,,,,,,,,,,,,,,,,,,,,,,,,CNP1QV,train_x,red_square,bottom_right,2025-01-15_16h29.25.678,HideSeek_v1,2022.2.5,59.93385699542876,
,9,2,9,7,0,5,11,,train_dim1_2,8,30,,,,5,0,5,0,,,,,,,,,0,0,0,0,0,7,7,7,3,0,3,0,,,,,,,,,,,,,,,,,,,,,,,,,,,,,,,,,,,,,,,,,,,,,,,,,,,,,,,,,,,,,,,,30,,,,,,,,1529.4241478000001,1529.4241478000001,1529.4241478000001,1529.4241478000001,1529.4241478000001,9,-40,0.32,-0.24,return,1.1773989000002985,1,0,0,0,0.32,-0.24,return,1.0961128000003555,,,,,,,,,,,,,,,,,,,,,,,,,,,,,,,,,,,,,,,,,,,,,,,,,,,,,,,,CNP1QV,train_x,red_square,bottom_right,2025-01-15_16h29.25.678,HideSeek_v1,2022.2.5,59.93385699542876,
,9,3,9,4,0,1,15,,train_dim1_2,9,30,,,,5,0,5,0,,,,,,,,,0,0,0,0,0,8,8,8,0,0,0,0,,,,,,,,,,,,,,,,,,,,,,,,,stimuli/alien_stimuli/15.png,,,,,,,,,,,,,,,,,,,,,,,,,,,,,stimuli/alien_stimuli/11.png,11,9,10,,,,,,,30,,,,,,,,1537.1372334,1537.1372334,1537.1372334,1537.1372334,1537.1372334,,,,,up,2.855969599999753,1,0,0,99,0.56,-0.08,up,2.7783297999999377,1535.5789198999998,1537.1372334,0.56,0.16,0.4,0.0,-0.039999999999999994,0.56,0.56,0.56,0.16,1532.1674234999998,1532.1674234999998,1532.1674234999998,1532.1674234999998,1532.1674234999998,1532.1674234999998,1532.1674234999998,1532.1674234999998,1532.1596034,3.5214578999998594,return,3.3848026000000573,,,,,,,,,,,,,,,,,,,,,,,,,,,,,,,,,CNP1QV,train_x,red_square,bottom_right,2025-01-15_16h29.25.678,HideSeek_v1,2022.2.5,59.93385699542876,
,9,3,9,4,0,1,15,,train_dim1_2,9,30,,,,5,0,5,0,,,,,,,,,0,0,0,0,0,8,8,8,1,0,1,0,,,,,,,,,,,,,,,,,,,,,,,,,,,,,,,,,,,,,,,,,,,,,,,,,,,,,,,,,,,,,,,,30,,,,,,,,1540.0007883,1540.0007883,1540.0007883,1540.0007883,1540.0007883,10,-40,0.56,-0.08,return,1.910656999999901,2,0,0,1,0.56,-0.08,return,1.829256500000156,,,,,,,,,,,,,,,,,,,,,,,,,,,,,,,,,,,,,,,,,,,,,,,,,,,,,,,,CNP1QV,train_x,red_square,bottom_right,2025-01-15_16h29.25.678,HideSeek_v1,2022.2.5,59.93385699542876,
,7,2,7,2,0,0,16,,train_dim1_2,10,30,,,,5,0,5,0,,,,,,,,,0,0,0,0,0,9,9,9,0,0,0,0,,,,,,,,,,,,,,,,,,,,,,,,,stimuli/alien_stimuli/16.png,,,,,,,,,,,,,,,,,,,,,,,,,,,,,stimuli/alien_stimuli/15.png,15,9,11,,,,,,,30,,,,,,,,1547.4423629,1547.4423629,1547.4423629,1547.4423629,1547.4423629,10,-40,0.4,-0.24,return,2.057526399999915,3,0,0,1,0.4,-0.24,return,1.9734857999997075,1545.8875964000001,1547.4423629,0.56,-0.08,0.08,0.0,-0.12,0.56,0.56,0.56,-0.08,1543.4784183999998,1543.4784183999998,1543.4784183999998,1543.4784183999998,1543.4784183999998,1543.4784183999998,1543.4784183999998,1543.4784183999998,1543.4689005,2.520772699999725,return,2.377824299999702,,,,,,,,,,,,,,,,,,,,,,,,,,,,,,,,,CNP1QV,train_x,red_square,bottom_right,2025-01-15_16h29.25.678,HideSeek_v1,2022.2.5,59.93385699542876,
,9,1,9,2,0,1,15,,train_dim1_2,11,30,,,,5,0,5,0,,,,,,,,,0,0,0,0,0,10,10,10,0,0,0,0,,,,,,,,,,,,,,,,,,,,,,,,,stimuli/alien_stimuli/15.png,,,,,,,,,,,,,,,,,,,,,,,,,,,,,stimuli/alien_stimuli/16.png,16,7,12,,,,,,,30,,,,,,,,1555.1210867000002,1555.1210867000002,1555.1210867000002,1555.1210867000002,1555.1210867000002,,,,,up,2.0038604000001214,3,0,0,99,0.56,-0.24,up,1.9208825000000616,1553.5606089,1555.1210867000002,0.4,-0.24,0.0,0.0,-0.24,0.4,0.4,0.4,-0.24,1551.0569331999998,1551.0569331999998,1551.0569331999998,1551.0569331999998,1551.0569331999998,1551.0569331999998,1551.0569331999998,1551.0569331999998,1551.0586257999998,2.604174999999941,return,2.4846941999999217,,,,,,,,,,,,,,,,,,,,,,,,,,,,,,,,,CNP1QV,train_x,red_square,bottom_right,2025-01-15_16h29.25.678,HideSeek_v1,2022.2.5,59.93385699542876,
