trialInstr,x_fixStart,y_fixStart,x_corrSteps,y_corrSteps,x_nrSteps,y_nrSteps,alienID,trialLength,version,trialTrain,praclen,testlen,trial_label,break_on_off,beforeExpLoop.thisRepN,beforeExpLoop.thisTrialN,beforeExpLoop.thisN,beforeExpLoop.thisIndex,mini_instr_trials.thisRepN,mini_instr_trials.thisTrialN,mini_instr_trials.thisN,mini_instr_trials.thisIndex,instrLoop.thisRepN,instrLoop.thisTrialN,instrLoop.thisN,instrLoop.thisIndex,repeat_prac.thisRepN,repeat_prac.thisTrialN,repeat_prac.thisN,repeat_prac.thisIndex,trainLoop.thisRepN,trainLoop.thisTrialN,trainLoop.thisN,trainLoop.thisIndex,moveLoop_train.thisRepN,moveLoop_train.thisTrialN,moveLoop_train.thisN,moveLoop_train.thisIndex,experiment.thisRepN,experiment.thisTrialN,experiment.thisN,experiment.thisIndex,moveLoop_test.thisRepN,moveLoop_test.thisTrialN,moveLoop_test.thisN,moveLoop_test.thisIndex,mini_instr2_trials.thisRepN,mini_instr2_trials.thisTrialN,mini_instr2_trials.thisN,mini_instr2_trials.thisIndex,start_all_time,url,slideStim,audioStim,slides.started,sounds.started,nextButton.numClicks,nextButton.timesOn,nextButton.timesOff,prev_but.numClicks,prev_but.timesOn,prev_but.timesOff,alienStim,instrFile,alienStim_instr,gridImage_instr.started,startPos_3.started,key_instr.started,alienImage_3.started,sounds_1.started,key_instr.keys,key_instr.rt,all_x,all_y,FBy_corrSteps,FBy_fixStart,FBx_corrSteps,FBx_fixStart,FBy_pathSize_check,FBx_pathSize_check,gridImage_9.started,alienImageFB_3.started,startPosFB_3.started,keyFB_3.started,pathLine_ydir_2.started,pathLine_xdir_2.started,alienFace_3.started,sounds_2.started,RTFB_instr,keyFB_3.keys,keyFB_3.rt,draw_alienStim,draw_alienID,test_x,nrepcount,perfthres,percthres,earlierperf,earlystop,nextPrac,fileidx,praclen,saveACC_train,pracFile,nextPrac_train,addNrep,fileidx_endr,repExp,showearly,gridImage_4.started,startPos.started,movePos.started,key_resp.started,alienImage.started,buttonPress_train,RTchoice_train,cumAcctrain,aCorr,saveACC_choice,corrAns,x_movePos_end,y_movePos_end,key_resp.keys,key_resp.rt,wLy_dir,wLx_dir,x_movePos,y_movePos,text_2.started,text_2.stopped,aft_x_corrPos,aft_y_corrPos,y_pathSize_check,x_pathSize_check,y_pathdirY,x_pathdirY,x_pathdirX,x_corrPos,y_corrPos,gridImage_6.started,alienImageFB_2.started,startPosFB_2.started,movePosFB_2.started,keyFB_2.started,pathLine_xdir.started,pathLine_ydir.started,alienFace.started,sounds_4.started,RT_FBtrain,keyFB_2.keys,keyFB_2.rt,saveACC_pre,ACC,within_saveACC_train,earlystop_wloop,cumAcctrain_check,gridImage_3.started,alienImage_test.started,startPos_test.started,movePos_test.started,key_resp_test.started,wLy_dir_test,wLx_dir_test,buttonPress_test,RTchoice_test,cumAcctest,corrAns_test,key_resp_test.keys,key_resp_test.rt,text_3.started,text_3.stopped,total_time,end_all_time,key_resp_3.keys,slides_2.started,sounds_3.started,nextButton_2.numClicks,nextButton_2.timesOn,nextButton_2.timesOff,prev_but_2.numClicks,prev_but_2.timesOn,prev_but_2.timesOff,bye.started,participant,train_first,00_coordinate,starting corner,date,expName,psychopyVersion,frameRate,
,,,,,,,,,,,,,,,0,0,0,0,0,0,0,0,,,,,,,,,,,,,,,,,,,,,,,,,,,,,start_all_time,testround,conditions/schedules/train_y_first/red_square_00/top_left/instructions/Slide1.png,conditions/schedules/train_y_first/red_square_00/top_left/instructions/Audio1.wav,373.91938949999985,373.8625370400083,1,[4.352154600000176],[4.352162000000135],0,,,,,,,,,,,,,,,,,,,,,,,,,,,,,,,,,,,,,,,,,,,,,,,,,,,,,,,,,,,,,,,,,,,,,,,,,,,,,,,,,,,,,,,,,,,,,,,,,,,,,,,,,,,,,,,,,,,,,,,,,,,,CXEYLX,train_y,red_square,top_left,2025-01-15_17h54.10.544,HideSeek_v1,2022.2.5,59.97857565274638,
,,,,,,,,,,,,,,,0,0,0,0,1,0,1,0,,,,,,,,,,,,,,,,,,,,,,,,,,,,,,,conditions/schedules/train_y_first/red_square_00/top_left/instructions/Slide2.png,conditions/schedules/train_y_first/red_square_00/top_left/instructions/Audio2.wav,378.28901419999966,378.2801888799997,2,"[4.352154600000176, 11.064815899999303]","[0.0002884999994421378, 11.064823999999135]",0,,,,,,,,,,,,,,,,,,,,,,,,,,,,,,,,,,,,,,,,,,,,,,,,,,,,,,,,,,,,,,,,,,,,,,,,,,,,,,,,,,,,,,,,,,,,,,,,,,,,,,,,,,,,,,,,,,,,,,,,,,,,CXEYLX,train_y,red_square,top_left,2025-01-15_17h54.10.544,HideSeek_v1,2022.2.5,59.97857565274638,
,,,,,,,,,,,,,,,0,0,0,0,2,0,2,0,,,,,,,,,,,,,,,,,,,,,,,,,,,,,,,conditions/schedules/train_y_first/red_square_00/top_left/instructions/Slide3.png,conditions/schedules/train_y_first/red_square_00/top_left/instructions/Audio3.wav,389.4312689999997,389.42249809999976,3,"[4.352154600000176, 11.064815899999303, 16.435914000000594]","[0.0002884999994421378, 0.03508779999992839, 16.43592390000049]",0,,,,,,,,,,,,,,,,,,,,,,,,,,,,,,,,,,,,,,,,,,,,,,,,,,,,,,,,,,,,,,,,,,,,,,,,,,,,,,,,,,,,,,,,,,,,,,,,,,,,,,,,,,,,,,,,,,,,,,,,,,,,CXEYLX,train_y,red_square,top_left,2025-01-15_17h54.10.544,HideSeek_v1,2022.2.5,59.97857565274638,
,,,,,,,,,,,,,,,0,0,0,0,3,0,3,0,,,,,,,,,,,,,,,,,,,,,,,,,,,,,,,conditions/schedules/train_y_first/red_square_00/top_left/instructions/Slide4.png,conditions/schedules/train_y_first/red_square_00/top_left/instructions/Audio4.wav,405.9364276999995,405.9361352999995,4,"[4.352154600000176, 11.064815899999303, 16.435914000000594, 19.26333380000051]","[0.0002884999994421378, 0.03508779999992839, 0.03143770000042423, 19.26334560000032]",0,,,,,,,,,,,,,,,,,,,,,,,,,,,,,,,,,,,,,,,,,,,,,,,,,,,,,,,,,,,,,,,,,,,,,,,,,,,,,,,,,,,,,,,,,,,,,,,,,,,,,,,,,,,,,,,,,,,,,,,,,,,,CXEYLX,train_y,red_square,top_left,2025-01-15_17h54.10.544,HideSeek_v1,2022.2.5,59.97857565274638,
,,,,,,,,,,,,,,,0,0,0,0,4,0,4,0,,,,,,,,,,,,,,,,,,,,,,,,,,,,,,,conditions/schedules/train_y_first/red_square_00/top_left/instructions/Slide5.png,conditions/schedules/train_y_first/red_square_00/top_left/instructions/Audio5.wav,425.26581219999935,425.2687098999995,5,"[4.352154600000176, 11.064815899999303, 16.435914000000594, 19.26333380000051, 5.0373811999998]","[0.0002884999994421378, 0.03508779999992839, 0.03143770000042423, 0.03362159999960568, 5.037389399999483]",0,,,,,,,,,,,,,,,,,,,,,,,,,,,,,,,,,,,,,,,,,,,,,,,,,,,,,,,,,,,,,,,,,,,,,,,,,,,,,,,,,,,,,,,,,,,,,,,,,,,,,,,,,,,,,,,,,,,,,,,,,,,,CXEYLX,train_y,red_square,top_left,2025-01-15_17h54.10.544,HideSeek_v1,2022.2.5,59.97857565274638,
,,,,,,,,,,,,,,,0,0,0,0,5,0,5,0,,,,,,,,,,,,,,,,,,,,,,,,,,,,,,,conditions/schedules/train_y_first/red_square_00/top_left/instructions/Slide6.png,conditions/schedules/train_y_first/red_square_00/top_left/instructions/Audio6.wav,430.3525460000001,430.33921525999943,6,"[4.352154600000176, 11.064815899999303, 16.435914000000594, 19.26333380000051, 5.0373811999998, 5.890048299999762]","[0.0002884999994421378, 0.03508779999992839, 0.03143770000042423, 0.03362159999960568, 0.08532160000049771, 5.89005619999989]",0,,,,,,,,,,,,,,,,,,,,,,,,,,,,,,,,,,,,,,,,,,,,,,,,,,,,,,,,,,,,,,,,,,,,,,,,,,,,,,,,,,,,,,,,,,,,,,,,,,,,,,,,,,,,,,,,,,,,,,,,,,,,CXEYLX,train_y,red_square,top_left,2025-01-15_17h54.10.544,HideSeek_v1,2022.2.5,59.97857565274638,
,,,,,,,,,,,,,,,0,0,0,0,6,0,6,0,,,,,,,,,,,,,,,,,,,,,,,,,,,,,,,conditions/schedules/train_y_first/red_square_00/top_left/instructions/Slide7.png,conditions/schedules/train_y_first/red_square_00/top_left/instructions/Audio7.wav,436.2916000999994,436.2779374599999,7,"[4.352154600000176, 11.064815899999303, 16.435914000000594, 19.26333380000051, 5.0373811999998, 5.890048299999762, 5.305173299999296]","[0.0002884999994421378, 0.03508779999992839, 0.03143770000042423, 0.03362159999960568, 0.08532160000049771, 0.08396379999976489, 5.305181099999572]",0,,,,,,,,,,,,,,,,,,,,,,,,,,,,,,,,,,,,,,,,,,,,,,,,,,,,,,,,,,,,,,,,,,,,,,,,,,,,,,,,,,,,,,,,,,,,,,,,,,,,,,,,,,,,,,,,,,,,,,,,,,,,CXEYLX,train_y,red_square,top_left,2025-01-15_17h54.10.544,HideSeek_v1,2022.2.5,59.97857565274638,
,,,,,,,,,,,,,,,0,0,0,0,7,0,7,0,,,,,,,,,,,,,,,,,,,,,,,,,,,,,,,conditions/schedules/train_y_first/red_square_00/top_left/instructions/Slide8.png,conditions/schedules/train_y_first/red_square_00/top_left/instructions/Audio8.wav,441.6468691,441.6489913799998,8,"[4.352154600000176, 11.064815899999303, 16.435914000000594, 19.26333380000051, 5.0373811999998, 5.890048299999762, 5.305173299999296, 11.67613160000019]","[0.0002884999994421378, 0.03508779999992839, 0.03143770000042423, 0.03362159999960568, 0.08532160000049771, 0.08396379999976489, 0.049612400000114576, 11.676139500000318]",0,,,,,,,,,,,,,,,,,,,,,,,,,,,,,,,,,,,,,,,,,,,,,,,,,,,,,,,,,,,,,,,,,,,,,,,,,,,,,,,,,,,,,,,,,,,,,,,,,,,,,,,,,,,,,,,,,,,,,,,,,,,,CXEYLX,train_y,red_square,top_left,2025-01-15_17h54.10.544,HideSeek_v1,2022.2.5,59.97857565274638,
,,,,,,,,,,,,,,,0,0,0,0,8,0,8,0,,,,,,,,,,,,,,,,,,,,,,,,,,,,,,,conditions/schedules/train_y_first/red_square_00/top_left/instructions/Slide9.png,conditions/schedules/train_y_first/red_square_00/top_left/instructions/Audio9.wav,453.3893935999995,453.39206300000023,9,"[4.352154600000176, 11.064815899999303, 16.435914000000594, 19.26333380000051, 5.0373811999998, 5.890048299999762, 5.305173299999296, 11.67613160000019, 5.971711199999845]","[0.0002884999994421378, 0.03508779999992839, 0.03143770000042423, 0.03362159999960568, 0.08532160000049771, 0.08396379999976489, 0.049612400000114576, 0.01403039999968314, 5.971718699999656]",0,,,,,,,,,,,,,,,,,,,,,,,,,,,,,,,,,,,,,,,,,,,,,,,,,,,,,,,,,,,,,,,,,,,,,,,,,,,,,,,,,,,,,,,,,,,,,,,,,,,,,,,,,,,,,,,,,,,,,,,,,,,,CXEYLX,train_y,red_square,top_left,2025-01-15_17h54.10.544,HideSeek_v1,2022.2.5,59.97857565274638,
,,,,,,,,,,,,,,,0,0,0,0,9,0,9,0,,,,,,,,,,,,,,,,,,,,,,,,,,,,,,,conditions/schedules/train_y_first/red_square_00/top_left/instructions/Slide10.png,conditions/schedules/train_y_first/red_square_00/top_left/instructions/Audio10.wav,459.3976550999996,459.3970288599998,10,"[4.352154600000176, 11.064815899999303, 16.435914000000594, 19.26333380000051, 5.0373811999998, 5.890048299999762, 5.305173299999296, 11.67613160000019, 5.971711199999845, 7.13632779999989]","[0.0002884999994421378, 0.03508779999992839, 0.03143770000042423, 0.03362159999960568, 0.08532160000049771, 0.08396379999976489, 0.049612400000114576, 0.01403039999968314, 0.06418130000020028, 7.13633579999987]",0,,,,,,,,,,,,,,,,,,,,,,,,,,,,,,,,,,,,,,,,,,,,,,,,,,,,,,,,,,,,,,,,,,,,,,,,,,,,,,,,,,,,,,,,,,,,,,,,,,,,,,,,,,,,,,,,,,,,,,,,,,,,CXEYLX,train_y,red_square,top_left,2025-01-15_17h54.10.544,HideSeek_v1,2022.2.5,59.97857565274638,
,,,,,,,,,,,,,,,0,0,0,0,10,0,10,0,,,,,,,,,,,,,,,,,,,,,,,,,,,,,,,conditions/schedules/train_y_first/red_square_00/top_left/instructions/Slide11.png,conditions/schedules/train_y_first/red_square_00/top_left/instructions/Audio11.wav,466.58958600000005,466.58646827999945,11,"[4.352154600000176, 11.064815899999303, 16.435914000000594, 19.26333380000051, 5.0373811999998, 5.890048299999762, 5.305173299999296, 11.67613160000019, 5.971711199999845, 7.13632779999989, 10.485845499999414]","[0.0002884999994421378, 0.03508779999992839, 0.03143770000042423, 0.03362159999960568, 0.08532160000049771, 0.08396379999976489, 0.049612400000114576, 0.01403039999968314, 0.06418130000020028, 0.06374159999995754, 10.48585279999952]",0,,,,,,,,,,,,,,,,,,,,,,,,,,,,,,,,,,,,,,,,,,,,,,,,,,,,,,,,,,,,,,,,,,,,,,,,,,,,,,,,,,,,,,,,,,,,,,,,,,,,,,,,,,,,,,,,,,,,,,,,,,,,CXEYLX,train_y,red_square,top_left,2025-01-15_17h54.10.544,HideSeek_v1,2022.2.5,59.97857565274638,
,,,,,,,,,,,,,,,0,0,0,0,11,0,11,0,,,,,,,,,,,,,,,,,,,,,,,,,,,,,,,conditions/schedules/train_y_first/red_square_00/top_left/instructions/Slide12.png,conditions/schedules/train_y_first/red_square_00/top_left/instructions/Audio12.wav,477.1430448000001,477.14507739999954,12,"[4.352154600000176, 11.064815899999303, 16.435914000000594, 19.26333380000051, 5.0373811999998, 5.890048299999762, 5.305173299999296, 11.67613160000019, 5.971711199999845, 7.13632779999989, 10.485845499999414, 13.610351500000434]","[0.0002884999994421378, 0.03508779999992839, 0.03143770000042423, 0.03362159999960568, 0.08532160000049771, 0.08396379999976489, 0.049612400000114576, 0.01403039999968314, 0.06418130000020028, 0.06374159999995754, 0.00020839999979216373, 13.610359100000096]",0,,,,,,,,,,,,,,,,,,,,,,,,,,,,,,,,,,,,,,,,,,,,,,,,,,,,,,,,,,,,,,,,,,,,,,,,,,,,,,,,,,,,,,,,,,,,,,,,,,,,,,,,,,,,,,,,,,,,,,,,,,,,CXEYLX,train_y,red_square,top_left,2025-01-15_17h54.10.544,HideSeek_v1,2022.2.5,59.97857565274638,
1,2,8,2,3,0,-5,11,2,instr_dim1_1,,,,,,0,0,0,0,,,,,0,0,0,0,,,,,,,,,,,,,,,,,,,,,,,,,,,,,,,,,,,,,stimuli/alien_stimuli/11.png,conditions/schedules/train_y_first/red_square_00/top_left/inputInstr_1.xlsx,stimuli/alien_stimuli/11.png,490.85809939999945,490.85809939999945,490.85809939999945,490.85809939999945,490.85618734,return,9.23598740000125,"[-0.16, -0.08, 0, 0.08, 0.16, 0.24, 0.32, 0.4, 0.48, 0.56]","[-0.4, -0.32, -0.24, -0.16, -0.08, 0, 0.08, 0.16, 0.24, 0.32]",3,8,2,2,0.4,0.0,500.2747176999992,500.2747176999992,500.2747176999992,500.2747176999992,500.2747176999992,500.2747176999992,500.2747176999992,500.26467070000035,10.342359900000702,return,10.160514300000614,stimuli/alien_stimuli/11.png,11,2,1,,,,,,,,,,,,,,,,,,,,,,,,,,,,,,,,,,,,,,,,,,,,,,,,,,,,,,,,,,,,,,,,,,,,,,,,,,,,,,,,,,,,,,,,,CXEYLX,train_y,red_square,top_left,2025-01-15_17h54.10.544,HideSeek_v1,2022.2.5,59.97857565274638,
,,,,,,,,,,,30,,,,0,0,0,0,,,,,,,,,,,,,,,,,,,,,,,,,,,,,,,,,,,,,,,,,,,,,,,,,,,,,,,,,,,,,,,,,,,,,,,,,,,,,,21,0.7,0,0,99,1,30,0,conditions/schedules/train_y_first/red_square_00/top_left/inputTrain_1.1.xlsx,99,1,1,1,0,,,,,,,,,,,,,,,,,,,,,,,,,,,,,,,,,,,,,,,,,,,,,,,,,,,,,,,,,,,,,,,,,,,,,,,,,,,CXEYLX,train_y,red_square,top_left,2025-01-15_17h54.10.544,HideSeek_v1,2022.2.5,59.97857565274638,
,,,,,,,,,,,,,,,1,0,1,0,0,0,0,0,,,,,,,,,,,,,,,,,,,,,,,,,,,,,,,conditions/schedules/train_y_first/red_square_00/top_left/instructions/Slide13.png,conditions/schedules/train_y_first/red_square_00/top_left/instructions/Audio13.wav,510.60184599999957,510.58955987999997,13,"[4.352154600000176, 11.064815899999303, 16.435914000000594, 19.26333380000051, 5.0373811999998, 5.890048299999762, 5.305173299999296, 11.67613160000019, 5.971711199999845, 7.13632779999989, 10.485845499999414, 13.610351500000434, 42.186376499999824]","[0.0002884999994421378, 0.03508779999992839, 0.03143770000042423, 0.03362159999960568, 0.08532160000049771, 0.08396379999976489, 0.049612400000114576, 0.01403039999968314, 0.06418130000020028, 0.06374159999995754, 0.00020839999979216373, 13.610359100000096, 42.18638389999978]",0,,,,,,,,,,,,,,,,,,,,,,,,,,,,,,,,,,,,,,,,,,,,,,,,,,,,,,,,,,,,,,,,,,,,,,,,,,,,,,,,,,,,,,,,,,,,,,,,,,,,,,,,,,,,,,,,,,,,,,,,,,,,CXEYLX,train_y,red_square,top_left,2025-01-15_17h54.10.544,HideSeek_v1,2022.2.5,59.97857565274638,
,,,,,,,,,,,,,,,1,0,1,0,1,0,1,0,,,,,,,,,,,,,,,,,,,,,,,,,,,,,,,conditions/schedules/train_y_first/red_square_00/top_left/instructions/Slide14.png,conditions/schedules/train_y_first/red_square_00/top_left/instructions/Audio14.wav,552.8572136999992,552.8580714,14,"[4.352154600000176, 11.064815899999303, 16.435914000000594, 19.26333380000051, 5.0373811999998, 5.890048299999762, 5.305173299999296, 11.67613160000019, 5.971711199999845, 7.13632779999989, 10.485845499999414, 13.610351500000434, 42.186376499999824, 16.328889099999287]","[0.0002884999994421378, 0.03508779999992839, 0.03143770000042423, 0.03362159999960568, 0.08532160000049771, 0.08396379999976489, 0.049612400000114576, 0.01403039999968314, 0.06418130000020028, 0.06374159999995754, 0.00020839999979216373, 13.610359100000096, 0.014351499999975204, 16.328896099999838]",0,,,,,,,,,,,,,,,,,,,,,,,,,,,,,,,,,,,,,,,,,,,,,,,,,,,,,,,,,,,,,,,,,,,,,,,,,,,,,,,,,,,,,,,,,,,,,,,,,,,,,,,,,,,,,,,,,,,,,,,,,,,,CXEYLX,train_y,red_square,top_left,2025-01-15_17h54.10.544,HideSeek_v1,2022.2.5,59.97857565274638,
2,0,8,0,8,0,0,16,2,instr_dim1_1,,,,,,1,0,1,0,,,,,0,0,0,0,,,,,,,,,,,,,,,,,,,,,,,,,,,,,,,,,,,,,stimuli/alien_stimuli/16.png,conditions/schedules/train_y_first/red_square_00/top_left/inputInstr_1.xlsx,stimuli/alien_stimuli/16.png,569.2870245999993,569.2870245999993,569.2870245999993,569.2870245999993,569.2883589399994,return,6.408399500000996,"[-0.16, -0.08, 0, 0.08, 0.16, 0.24, 0.32, 0.4, 0.48, 0.56]","[-0.4, -0.32, -0.24, -0.16, -0.08, 0, 0.08, 0.16, 0.24, 0.32]",8,8,0,0,0.0,0.0,575.8595443999993,575.8595443999993,575.8595443999993,575.8595443999993,575.8595443999993,575.8595443999993,575.8595443999993,575.8605569799994,6.7733141999997315,return,6.61838489999991,stimuli/alien_stimuli/16.png,16,0,2,,,,,,,,,,,,,,,,,,,,,,,,,,,,,,,,,,,,,,,,,,,,,,,,,,,,,,,,,,,,,,,,,,,,,,,,,,,,,,,,,,,,,,,,,CXEYLX,train_y,red_square,top_left,2025-01-15_17h54.10.544,HideSeek_v1,2022.2.5,59.97857565274638,
,,,,,,,,,,,30,,,,1,0,1,0,,,,,,,,,,,,,,,,,,,,,,,,,,,,,,,,,,,,,,,,,,,,,,,,,,,,,,,,,,,,,,,,,,,,,,,,,,,,,,21,0.7,0,0,99,1,30,0,conditions/schedules/train_y_first/red_square_00/top_left/inputTrain_1.1.xlsx,99,1,1,1,0,,,,,,,,,,,,,,,,,,,,,,,,,,,,,,,,,,,,,,,,,,,,,,,,,,,,,,,,,,,,,,,,,,,,,,,,,,,CXEYLX,train_y,red_square,top_left,2025-01-15_17h54.10.544,HideSeek_v1,2022.2.5,59.97857565274638,
,,,,,,,,,,,,,,,2,0,2,0,0,0,0,0,,,,,,,,,,,,,,,,,,,,,,,,,,,,,,,conditions/schedules/train_y_first/red_square_00/top_left/instructions/Slide15.png,conditions/schedules/train_y_first/red_square_00/top_left/instructions/Audio15.wav,582.6348178999997,582.6326858799995,15,"[4.352154600000176, 11.064815899999303, 16.435914000000594, 19.26333380000051, 5.0373811999998, 5.890048299999762, 5.305173299999296, 11.67613160000019, 5.971711199999845, 7.13632779999989, 10.485845499999414, 13.610351500000434, 42.186376499999824, 16.328889099999287, 44.13177600000017]","[0.0002884999994421378, 0.03508779999992839, 0.03143770000042423, 0.03362159999960568, 0.08532160000049771, 0.08396379999976489, 0.049612400000114576, 0.01403039999968314, 0.06418130000020028, 0.06374159999995754, 0.00020839999979216373, 13.610359100000096, 0.014351499999975204, 16.328896099999838, 44.13178280000011]",0,,,,,,,,,,,,,,,,,,,,,,,,,,,,,,,,,,,,,,,,,,,,,,,,,,,,,,,,,,,,,,,,,,,,,,,,,,,,,,,,,,,,,,,,,,,,,,,,,,,,,,,,,,,,,,,,,,,,,,,,,,,,CXEYLX,train_y,red_square,top_left,2025-01-15_17h54.10.544,HideSeek_v1,2022.2.5,59.97857565274638,
,,,,,,,,,,,,,,,2,0,2,0,1,0,1,0,,,,,,,,,,,,,,,,,,,,,,,,,,,,,,,conditions/schedules/train_y_first/red_square_00/top_left/instructions/Slide16.png,conditions/schedules/train_y_first/red_square_00/top_left/instructions/Audio16.wav,626.8405716999996,626.8362433000002,16,"[4.352154600000176, 11.064815899999303, 16.435914000000594, 19.26333380000051, 5.0373811999998, 5.890048299999762, 5.305173299999296, 11.67613160000019, 5.971711199999845, 7.13632779999989, 10.485845499999414, 13.610351500000434, 42.186376499999824, 16.328889099999287, 44.13177600000017, 21.427373200000147]","[0.0002884999994421378, 0.03508779999992839, 0.03143770000042423, 0.03362159999960568, 0.08532160000049771, 0.08396379999976489, 0.049612400000114576, 0.01403039999968314, 0.06418130000020028, 0.06374159999995754, 0.00020839999979216373, 13.610359100000096, 0.014351499999975204, 16.328896099999838, 0.0140027999996164, 21.427380000000085]",0,,,,,,,,,,,,,,,,,,,,,,,,,,,,,,,,,,,,,,,,,,,,,,,,,,,,,,,,,,,,,,,,,,,,,,,,,,,,,,,,,,,,,,,,,,,,,,,,,,,,,,,,,,,,,,,,,,,,,,,,,,,,CXEYLX,train_y,red_square,top_left,2025-01-15_17h54.10.544,HideSeek_v1,2022.2.5,59.97857565274638,
,0,5,0,4,0,-1,15,,train_dim1_1,1,30,,,,2,0,2,0,,,,,,,,,0,0,0,0,0,0,0,0,0,0,0,0,,,,,,,,,,,,,,,,,,,,,,,,,stimuli/alien_stimuli/15.png,,,,,,,,,,,,,,,,,,,,,,,,,,,,,,,,,,,,,,,30,,,,,,,,648.3726600999998,648.3726600999998,648.3726600999998,648.3726600999998,648.3726600999998,right,5.233004899999287,0,0,0,99,-0.08,0,right,5.1286752000005436,,,,,,,,,,,,,,,,,,,,,,,,,,,,,,,,,,,,,,,,,,,,,,,,,,,,,,,,,,,,CXEYLX,train_y,red_square,top_left,2025-01-15_17h54.10.544,HideSeek_v1,2022.2.5,59.97857565274638,
,0,5,0,4,0,-1,15,,train_dim1_1,1,30,,,,2,0,2,0,,,,,,,,,0,0,0,0,0,0,0,0,1,0,1,0,,,,,,,,,,,,,,,,,,,,,,,,,,,,,,,,,,,,,,,,,,,,,,,,,,,,,,,,,,,,,,,,30,,,,,,,,653.5949737999999,653.5949737999999,653.5949737999999,653.5949737999999,653.5949737999999,return,5.396956299999147,0,0,0,0,-0.08,0,return,5.318226900000809,0,1,-0.08,0,,,,,,,,,,,,,,,,,,,,,,,,,,,,,,,,,,,,,,,,,,,,,,,,,,,,,,,,CXEYLX,train_y,red_square,top_left,2025-01-15_17h54.10.544,HideSeek_v1,2022.2.5,59.97857565274638,
,3,7,3,7,0,0,16,,train_dim1_1,2,30,,,,2,0,2,0,,,,,,,,,0,0,0,0,0,1,1,1,0,0,0,0,,,,,,,,,,,,,,,,,,,,,,,,,stimuli/alien_stimuli/16.png,,,,,,,,,,,,,,,,,,,,,,,,,,,,,stimuli/alien_stimuli/15.png,15,0,3,,,,,,,30,,,,,,,,678.5319003999994,678.5319003999994,678.5319003999994,678.5319003999994,678.5319003999994,down,5.0411305000006905,0,0,0,99,0.08,0.08,down,4.94295239999974,,,,,676.9610167000001,678.5319003999994,-0.16,-0.08,0.08,0.0,-0.04,-0.16,-0.16,-0.16,-0.08,660.5734920999994,660.5734920999994,660.5734920999994,660.5734920999994,660.5734920999994,660.5734920999994,660.5734920999994,660.5734920999994,660.5642337599996,16.516011499999877,return,16.35809320000044,,,,,,,,,,,,,,,,,,,,,,,,,,,,,,,,,CXEYLX,train_y,red_square,top_left,2025-01-15_17h54.10.544,HideSeek_v1,2022.2.5,59.97857565274638,
,3,7,3,7,0,0,16,,train_dim1_1,2,30,,,,2,0,2,0,,,,,,,,,0,0,0,0,0,1,1,1,1,0,1,0,,,,,,,,,,,,,,,,,,,,,,,,,,,,,,,,,,,,,,,,,,,,,,,,,,,,,,,,,,,,,,,,30,,,,,,,,683.5697437999997,683.5697437999997,683.5697437999997,683.5697437999997,683.5697437999997,return,1.377251800000522,0,1,0,0,0.08,0.08,return,1.288601700000072,-1,1,0.08,0.08,,,,,,,,,,,,,,,,,,,,,,,,,,,,,,,,,,,,,,,,,,,,,,,,,,,,,,,,CXEYLX,train_y,red_square,top_left,2025-01-15_17h54.10.544,HideSeek_v1,2022.2.5,59.97857565274638,
,2,8,2,5,0,-3,13,,train_dim1_1,3,30,,,,2,0,2,0,,,,,,,,,0,0,0,0,0,2,2,2,0,0,0,0,,,,,,,,,,,,,,,,,,,,,,,,,stimuli/alien_stimuli/13.png,,,,,,,,,,,,,,,,,,,,,,,,,,,,,stimuli/alien_stimuli/16.png,16,3,4,,,,,,,30,,,,,,,,716.4473699,716.4473699,716.4473699,716.4473699,716.4473699,down,6.843434100000195,0,1,0,99,0,0.15999999999999998,down,6.7433772000003955,,,,,714.8759301,716.4473699,0.08,0.16,0.0,0.0,0.16,0.08,0.08,0.08,0.16,686.5188762999996,686.5188762999996,686.5188762999996,686.5188762999996,686.5188762999996,686.5188762999996,686.5188762999996,686.5188762999996,686.5193296599995,28.47592750000058,return,28.341353300001174,,,,,,,,,,,,,,,,,,,,,,,,,,,,,,,,,CXEYLX,train_y,red_square,top_left,2025-01-15_17h54.10.544,HideSeek_v1,2022.2.5,59.97857565274638,
,2,8,2,5,0,-3,13,,train_dim1_1,3,30,,,,2,0,2,0,,,,,,,,,0,0,0,0,0,2,2,2,1,0,1,0,,,,,,,,,,,,,,,,,,,,,,,,,,,,,,,,,,,,,,,,,,,,,,,,,,,,,,,,,,,,,,,,30,,,,,,,,723.2851941999998,723.2851941999998,723.2851941999998,723.2851941999998,723.2851941999998,down,1.3436410000003889,0,1,0,99,0,0.07999999999999997,down,1.264572400000361,,,,,,,,,,,,,,,,,,,,,,,,,,,,,,,,,,,,,,,,,,,,,,,,,,,,,,,,,,,,CXEYLX,train_y,red_square,top_left,2025-01-15_17h54.10.544,HideSeek_v1,2022.2.5,59.97857565274638,
,2,8,2,5,0,-3,13,,train_dim1_1,3,30,,,,2,0,2,0,,,,,,,,,0,0,0,0,0,2,2,2,2,0,2,0,,,,,,,,,,,,,,,,,,,,,,,,,,,,,,,,,,,,,,,,,,,,,,,,,,,,,,,,,,,,,,,,30,,,,,,,,724.6350442999992,724.6350442999992,724.6350442999992,724.6350442999992,724.6350442999992,down,1.1933662000001277,0,1,0,99,0,-2.7755575615628914e-17,down,1.1029032000005827,,,,,,,,,,,,,,,,,,,,,,,,,,,,,,,,,,,,,,,,,,,,,,,,,,,,,,,,,,,,CXEYLX,train_y,red_square,top_left,2025-01-15_17h54.10.544,HideSeek_v1,2022.2.5,59.97857565274638,
,2,8,2,5,0,-3,13,,train_dim1_1,3,30,,,,2,0,2,0,,,,,,,,,0,0,0,0,0,2,2,2,3,0,3,0,,,,,,,,,,,,,,,,,,,,,,,,,,,,,,,,,,,,,,,,,,,,,,,,,,,,,,,,,,,,,,,,30,,,,,,,,725.8375739999992,725.8375739999992,725.8375739999992,725.8375739999992,725.8375739999992,down,1.0940307000000757,0,1,0,99,0,-0.08000000000000003,down,1.0006732000001648,,,,,,,,,,,,,,,,,,,,,,,,,,,,,,,,,,,,,,,,,,,,,,,,,,,,,,,,,,,,CXEYLX,train_y,red_square,top_left,2025-01-15_17h54.10.544,HideSeek_v1,2022.2.5,59.97857565274638,
,2,8,2,5,0,-3,13,,train_dim1_1,3,30,,,,2,0,2,0,,,,,,,,,0,0,0,0,0,2,2,2,4,0,4,0,,,,,,,,,,,,,,,,,,,,,,,,,,,,,,,,,,,,,,,,,,,,,,,,,,,,,,,,,,,,,,,,30,,,,,,,,726.9390387999993,726.9390387999993,726.9390387999993,726.9390387999993,726.9390387999993,down,1.4260583000004772,0,1,0,99,0,-0.16000000000000003,down,1.3360196000012365,,,,,,,,,,,,,,,,,,,,,,,,,,,,,,,,,,,,,,,,,,,,,,,,,,,,,,,,,,,,CXEYLX,train_y,red_square,top_left,2025-01-15_17h54.10.544,HideSeek_v1,2022.2.5,59.97857565274638,
,2,8,2,5,0,-3,13,,train_dim1_1,3,30,,,,2,0,2,0,,,,,,,,,0,0,0,0,0,2,2,2,5,0,5,0,,,,,,,,,,,,,,,,,,,,,,,,,,,,,,,,,,,,,,,,,,,,,,,,,,,,,,,,,,,,,,,,30,,,,,,,,728.3715763999999,728.3715763999999,728.3715763999999,728.3715763999999,728.3715763999999,return,5.881066500000088,0,0,0,0,0,-0.16000000000000003,return,5.794478000000709,-6,1,0,-0.16000000000000003,,,,,,,,,,,,,,,,,,,,,,,,,,,,,,,,,,,,,,,,,,,,,,,,,,,,,,,,CXEYLX,train_y,red_square,top_left,2025-01-15_17h54.10.544,HideSeek_v1,2022.2.5,59.97857565274638,
,0,6,0,2,0,-4,12,,train_dim1_1,4,30,,,,2,0,2,0,,,,,,,,,0,0,0,0,0,3,3,3,0,0,0,0,,,,,,,,,,,,,,,,,,,,,,,,,stimuli/alien_stimuli/12.png,,,,,,,,,,,,,,,,,,,,,,,,,,,,,stimuli/alien_stimuli/13.png,13,2,5,,,,,,,30,,,,,,,,742.1069938,742.1069938,742.1069938,742.1069938,742.1069938,right,5.341093399999409,0,0,0,99,-0.08,0.08,right,5.255012900000111,,,,,740.5471619999998,742.1069938,0,0,0.24,0.0,0.12,0,0.0,0,0,735.8252487,735.8252487,735.8252487,735.8252487,735.8252487,735.8252487,735.8252487,735.8252487,735.8267074600002,4.839952899999844,return,4.6995708000004015,,,,,,,,,,,,,,,,,,,,,,,,,,,,,,,,,CXEYLX,train_y,red_square,top_left,2025-01-15_17h54.10.544,HideSeek_v1,2022.2.5,59.97857565274638,
,0,6,0,2,0,-4,12,,train_dim1_1,4,30,,,,2,0,2,0,,,,,,,,,0,0,0,0,0,3,3,3,1,0,1,0,,,,,,,,,,,,,,,,,,,,,,,,,,,,,,,,,,,,,,,,,,,,,,,,,,,,,,,,,,,,,,,,30,,,,,,,,747.4548317999997,747.4548317999997,747.4548317999997,747.4548317999997,747.4548317999997,right,0.17633660000046802,0,0,0,99,0.0,0.08,right,0.08370140000079118,,,,,,,,,,,,,,,,,,,,,,,,,,,,,,,,,,,,,,,,,,,,,,,,,,,,,,,,,,,,CXEYLX,train_y,red_square,top_left,2025-01-15_17h54.10.544,HideSeek_v1,2022.2.5,59.97857565274638,
,0,6,0,2,0,-4,12,,train_dim1_1,4,30,,,,2,0,2,0,,,,,,,,,0,0,0,0,0,3,3,3,2,0,2,0,,,,,,,,,,,,,,,,,,,,,,,,,,,,,,,,,,,,,,,,,,,,,,,,,,,,,,,,,,,,,,,,30,,,,,,,,747.6373422999995,747.6373422999995,747.6373422999995,747.6373422999995,747.6373422999995,right,1.3445025000000896,0,0,0,99,0.08,0.08,right,1.251498200000242,,,,,,,,,,,,,,,,,,,,,,,,,,,,,,,,,,,,,,,,,,,,,,,,,,,,,,,,,,,,CXEYLX,train_y,red_square,top_left,2025-01-15_17h54.10.544,HideSeek_v1,2022.2.5,59.97857565274638,
,0,6,0,2,0,-4,12,,train_dim1_1,4,30,,,,2,0,2,0,,,,,,,,,0,0,0,0,0,3,3,3,3,0,3,0,,,,,,,,,,,,,,,,,,,,,,,,,,,,,,,,,,,,,,,,,,,,,,,,,,,,,,,,,,,,,,,,30,,,,,,,,748.9902820999996,748.9902820999996,748.9902820999996,748.9902820999996,748.9902820999996,right,1.7607615000006263,0,0,0,99,0.16,0.08,right,1.681974099999934,,,,,,,,,,,,,,,,,,,,,,,,,,,,,,,,,,,,,,,,,,,,,,,,,,,,,,,,,,,,CXEYLX,train_y,red_square,top_left,2025-01-15_17h54.10.544,HideSeek_v1,2022.2.5,59.97857565274638,
,0,6,0,2,0,-4,12,,train_dim1_1,4,30,,,,2,0,2,0,,,,,,,,,0,0,0,0,0,3,3,3,4,0,4,0,,,,,,,,,,,,,,,,,,,,,,,,,,,,,,,,,,,,,,,,,,,,,,,,,,,,,,,,,,,,,,,,30,,,,,,,,750.7573453999994,750.7573453999994,750.7573453999994,750.7573453999994,750.7573453999994,return,0.8605987000000823,0,0,0,0,0.16,0.08,return,0.7693125000005239,-6,5,0.16,0.08,,,,,,,,,,,,,,,,,,,,,,,,,,,,,,,,,,,,,,,,,,,,,,,,,,,,,,,,CXEYLX,train_y,red_square,top_left,2025-01-15_17h54.10.544,HideSeek_v1,2022.2.5,59.97857565274638,
,3,8,3,3,0,-5,11,,train_dim1_1,5,30,,,,2,0,2,0,,,,,,,,,0,0,0,0,0,4,4,4,0,0,0,0,,,,,,,,,,,,,,,,,,,,,,,,,stimuli/alien_stimuli/11.png,,,,,,,,,,,,,,,,,,,,,,,,,,,,,stimuli/alien_stimuli/12.png,12,0,6,,,,,,,30,,,,,,,,758.9707249999992,758.9707249999992,758.9707249999992,758.9707249999992,758.9707249999992,right,9.777980300000308,0,0,0,99,0.16,0.24,right,9.692696800000704,,,,,757.4111829999993,758.9707249999992,-0.16,-0.24,0.32,0.0,-0.07999999999999999,-0.16,-0.16,-0.16,-0.24,753.1927532999998,753.1927532999998,753.1927532999998,753.1927532999998,753.1927532999998,753.1927532999998,753.1927532999998,753.1927532999998,753.1912591599997,4.339027500000157,return,4.196278800000073,,,,,,,,,,,,,,,,,,,,,,,,,,,,,,,,,CXEYLX,train_y,red_square,top_left,2025-01-15_17h54.10.544,HideSeek_v1,2022.2.5,59.97857565274638,
,3,8,3,3,0,-5,11,,train_dim1_1,5,30,,,,2,0,2,0,,,,,,,,,0,0,0,0,0,4,4,4,1,0,1,0,,,,,,,,,,,,,,,,,,,,,,,,,,,,,,,,,,,,,,,,,,,,,,,,,,,,,,,,,,,,,,,,30,,,,,,,,768.7560401000001,768.7560401000001,768.7560401000001,768.7560401000001,768.7560401000001,left,1.493842500000028,0,0,0,99,0.08,0.24,left,1.4142028000005666,,,,,,,,,,,,,,,,,,,,,,,,,,,,,,,,,,,,,,,,,,,,,,,,,,,,,,,,,,,,CXEYLX,train_y,red_square,top_left,2025-01-15_17h54.10.544,HideSeek_v1,2022.2.5,59.97857565274638,
,3,8,3,3,0,-5,11,,train_dim1_1,5,30,,,,2,0,2,0,,,,,,,,,0,0,0,0,0,4,4,4,2,0,2,0,,,,,,,,,,,,,,,,,,,,,,,,,,,,,,,,,,,,,,,,,,,,,,,,,,,,,,,,,,,,,,,,30,,,,,,,,770.2564859999993,770.2564859999993,770.2564859999993,770.2564859999993,770.2564859999993,down,2.2115672999998424,0,0,0,99,0.08,0.15999999999999998,down,2.124029700000392,,,,,,,,,,,,,,,,,,,,,,,,,,,,,,,,,,,,,,,,,,,,,,,,,,,,,,,,,,,,CXEYLX,train_y,red_square,top_left,2025-01-15_17h54.10.544,HideSeek_v1,2022.2.5,59.97857565274638,
,3,8,3,3,0,-5,11,,train_dim1_1,5,30,,,,2,0,2,0,,,,,,,,,0,0,0,0,0,4,4,4,3,0,3,0,,,,,,,,,,,,,,,,,,,,,,,,,,,,,,,,,,,,,,,,,,,,,,,,,,,,,,,,,,,,,,,,30,,,,,,,,772.4751507999999,772.4751507999999,772.4751507999999,772.4751507999999,772.4751507999999,down,2.895386099999996,0,0,0,99,0.08,0.07999999999999997,down,2.8082325000004857,,,,,,,,,,,,,,,,,,,,,,,,,,,,,,,,,,,,,,,,,,,,,,,,,,,,,,,,,,,,CXEYLX,train_y,red_square,top_left,2025-01-15_17h54.10.544,HideSeek_v1,2022.2.5,59.97857565274638,
,3,8,3,3,0,-5,11,,train_dim1_1,5,30,,,,2,0,2,0,,,,,,,,,0,0,0,0,0,4,4,4,4,0,4,0,,,,,,,,,,,,,,,,,,,,,,,,,,,,,,,,,,,,,,,,,,,,,,,,,,,,,,,,,,,,,,,,30,,,,,,,,775.3773971,775.3773971,775.3773971,775.3773971,775.3773971,down,1.9778587999999218,0,0,0,99,0.08,-2.7755575615628914e-17,down,1.8891606000006504,,,,,,,,,,,,,,,,,,,,,,,,,,,,,,,,,,,,,,,,,,,,,,,,,,,,,,,,,,,,CXEYLX,train_y,red_square,top_left,2025-01-15_17h54.10.544,HideSeek_v1,2022.2.5,59.97857565274638,
,3,8,3,3,0,-5,11,,train_dim1_1,5,30,,,,2,0,2,0,,,,,,,,,0,0,0,0,0,4,4,4,5,0,5,0,,,,,,,,,,,,,,,,,,,,,,,,,,,,,,,,,,,,,,,,,,,,,,,,,,,,,,,,,,,,,,,,30,,,,,,,,777.3621079999994,777.3621079999994,777.3621079999994,777.3621079999994,777.3621079999994,return,1.377661999999873,0,0,0,0,0.08,-2.7755575615628914e-17,return,1.2871414999999615,-9,5,0.08,-2.7755575615628914e-17,,,,,,,,,,,,,,,,,,,,,,,,,,,,,,,,,,,,,,,,,,,,,,,,,,,,,,,,CXEYLX,train_y,red_square,top_left,2025-01-15_17h54.10.544,HideSeek_v1,2022.2.5,59.97857565274638,
,1,9,1,5,0,-4,12,,train_dim1_1,6,30,,,,2,0,2,0,,,,,,,,,0,0,0,0,0,5,5,5,0,0,0,0,,,,,,,,,,,,,,,,,,,,,,,,,stimuli/alien_stimuli/12.png,,,,,,,,,,,,,,,,,,,,,,,,,,,,,stimuli/alien_stimuli/11.png,11,3,7,,,,,,,30,,,,,,,,786.1762393999998,786.1762393999998,786.1762393999998,786.1762393999998,786.1762393999998,right,6.32569919999969,0,0,0,99,0.0,0.32,right,6.232688099999905,,,,,784.6172491999996,786.1762393999998,0.08,-0.16,0.4,0.0,0.039999999999999994,0.08,0.08,0.08,-0.16,780.3151257999998,780.3151257999998,780.3151257999998,780.3151257999998,780.3151257999998,780.3151257999998,780.3151257999998,780.3151257999998,780.3138203599996,4.42247049999969,return,4.2715588000000935,,,,,,,,,,,,,,,,,,,,,,,,,,,,,,,,,CXEYLX,train_y,red_square,top_left,2025-01-15_17h54.10.544,HideSeek_v1,2022.2.5,59.97857565274638,
,1,9,1,5,0,-4,12,,train_dim1_1,6,30,,,,2,0,2,0,,,,,,,,,0,0,0,0,0,5,5,5,1,0,1,0,,,,,,,,,,,,,,,,,,,,,,,,,,,,,,,,,,,,,,,,,,,,,,,,,,,,,,,,,,,,,,,,30,,,,,,,,792.5098482999992,792.5098482999992,792.5098482999992,792.5098482999992,792.5098482999992,right,1.2601353999998537,0,0,0,99,0.08,0.32,right,1.1706831000010425,,,,,,,,,,,,,,,,,,,,,,,,,,,,,,,,,,,,,,,,,,,,,,,,,,,,,,,,,,,,CXEYLX,train_y,red_square,top_left,2025-01-15_17h54.10.544,HideSeek_v1,2022.2.5,59.97857565274638,
,1,9,1,5,0,-4,12,,train_dim1_1,6,30,,,,2,0,2,0,,,,,,,,,0,0,0,0,0,5,5,5,2,0,2,0,,,,,,,,,,,,,,,,,,,,,,,,,,,,,,,,,,,,,,,,,,,,,,,,,,,,,,,,,,,,,,,,30,,,,,,,,793.7763839999998,793.7763839999998,793.7763839999998,793.7763839999998,793.7763839999998,right,1.4776389999997264,0,0,0,99,0.16,0.32,right,1.3878471000007266,,,,,,,,,,,,,,,,,,,,,,,,,,,,,,,,,,,,,,,,,,,,,,,,,,,,,,,,,,,,CXEYLX,train_y,red_square,top_left,2025-01-15_17h54.10.544,HideSeek_v1,2022.2.5,59.97857565274638,
,1,9,1,5,0,-4,12,,train_dim1_1,6,30,,,,2,0,2,0,,,,,,,,,0,0,0,0,0,5,5,5,3,0,3,0,,,,,,,,,,,,,,,,,,,,,,,,,,,,,,,,,,,,,,,,,,,,,,,,,,,,,,,,,,,,,,,,30,,,,,,,,795.2602683999994,795.2602683999994,795.2602683999994,795.2602683999994,795.2602683999994,right,1.1939968000006047,0,0,0,99,0.24,0.32,right,1.1157364000000598,,,,,,,,,,,,,,,,,,,,,,,,,,,,,,,,,,,,,,,,,,,,,,,,,,,,,,,,,,,,CXEYLX,train_y,red_square,top_left,2025-01-15_17h54.10.544,HideSeek_v1,2022.2.5,59.97857565274638,
,1,9,1,5,0,-4,12,,train_dim1_1,6,30,,,,2,0,2,0,,,,,,,,,0,0,0,0,0,5,5,5,4,0,4,0,,,,,,,,,,,,,,,,,,,,,,,,,,,,,,,,,,,,,,,,,,,,,,,,,,,,,,,,,,,,,,,,30,,,,,,,,796.4607186999992,796.4607186999992,796.4607186999992,796.4607186999992,796.4607186999992,return,0.9105327000006582,0,0,0,0,0.24,0.32,return,0.8294446000008975,-9,9,0.24,0.32,,,,,,,,,,,,,,,,,,,,,,,,,,,,,,,,,,,,,,,,,,,,,,,,,,,,,,,,CXEYLX,train_y,red_square,top_left,2025-01-15_17h54.10.544,HideSeek_v1,2022.2.5,59.97857565274638,
,1,8,1,5,0,-3,13,,train_dim1_1,7,30,,,,2,0,2,0,,,,,,,,,0,0,0,0,0,6,6,6,0,0,0,0,,,,,,,,,,,,,,,,,,,,,,,,,stimuli/alien_stimuli/13.png,,,,,,,,,,,,,,,,,,,,,,,,,,,,,stimuli/alien_stimuli/12.png,12,1,8,,,,,,,30,,,,,,,,803.6213279999993,803.6213279999993,803.6213279999993,803.6213279999993,803.6213279999993,right,6.8950542000002315,0,0,0,99,0.0,0.24,right,6.804152700000486,,,,,802.0650134999996,803.6213279999993,-0.08,0,0.32,0.0,0.16,-0.08,-0.08,-0.08,0,798.9485218999998,798.9485218999998,798.9485218999998,798.9485218999998,798.9485218999998,798.9485218999998,798.9485218999998,798.9485218999998,798.9459563599997,3.23818940000001,return,3.095173300001079,,,,,,,,,,,,,,,,,,,,,,,,,,,,,,,,,CXEYLX,train_y,red_square,top_left,2025-01-15_17h54.10.544,HideSeek_v1,2022.2.5,59.97857565274638,
,1,8,1,5,0,-3,13,,train_dim1_1,7,30,,,,2,0,2,0,,,,,,,,,0,0,0,0,0,6,6,6,1,0,1,0,,,,,,,,,,,,,,,,,,,,,,,,,,,,,,,,,,,,,,,,,,,,,,,,,,,,,,,,,,,,,,,,30,,,,,,,,810.5240160999992,810.5240160999992,810.5240160999992,810.5240160999992,810.5240160999992,right,1.1436984000001758,0,0,0,99,0.08,0.24,right,1.0605480000003809,,,,,,,,,,,,,,,,,,,,,,,,,,,,,,,,,,,,,,,,,,,,,,,,,,,,,,,,,,,,CXEYLX,train_y,red_square,top_left,2025-01-15_17h54.10.544,HideSeek_v1,2022.2.5,59.97857565274638,
,1,8,1,5,0,-3,13,,train_dim1_1,7,30,,,,2,0,2,0,,,,,,,,,0,0,0,0,0,6,6,6,2,0,2,0,,,,,,,,,,,,,,,,,,,,,,,,,,,,,,,,,,,,,,,,,,,,,,,,,,,,,,,,,,,,,,,,30,,,,,,,,811.6737397999996,811.6737397999996,811.6737397999996,811.6737397999996,811.6737397999996,right,0.6936465999997381,0,0,0,99,0.16,0.24,right,0.6162058999998408,,,,,,,,,,,,,,,,,,,,,,,,,,,,,,,,,,,,,,,,,,,,,,,,,,,,,,,,,,,,CXEYLX,train_y,red_square,top_left,2025-01-15_17h54.10.544,HideSeek_v1,2022.2.5,59.97857565274638,
,1,8,1,5,0,-3,13,,train_dim1_1,7,30,,,,2,0,2,0,,,,,,,,,0,0,0,0,0,6,6,6,3,0,3,0,,,,,,,,,,,,,,,,,,,,,,,,,,,,,,,,,,,,,,,,,,,,,,,,,,,,,,,,,,,,,,,,30,,,,,,,,812.3747000999992,812.3747000999992,812.3747000999992,812.3747000999992,812.3747000999992,return,1.7773901999998998,0,0,0,0,0.16,0.24,return,1.691870600000584,-9,12,0.16,0.24,,,,,,,,,,,,,,,,,,,,,,,,,,,,,,,,,,,,,,,,,,,,,,,,,,,,,,,,CXEYLX,train_y,red_square,top_left,2025-01-15_17h54.10.544,HideSeek_v1,2022.2.5,59.97857565274638,
,4,7,4,2,0,-5,11,,train_dim1_1,8,30,,,,2,0,2,0,,,,,,,,,0,0,0,0,0,7,7,7,0,0,0,0,,,,,,,,,,,,,,,,,,,,,,,,,stimuli/alien_stimuli/11.png,,,,,,,,,,,,,,,,,,,,,,,,,,,,,stimuli/alien_stimuli/13.png,13,1,9,,,,,,,30,,,,,,,,819.4068686999999,819.4068686999999,819.4068686999999,819.4068686999999,819.4068686999999,down,1.317858299999898,0,0,0,99,0.16,0.08,down,1.2310691000002407,,,,,817.8448394999996,819.4068686999999,-0.08,0,0.24,0.0,0.12,-0.08,-0.08,-0.08,0,815.7205795,815.7205795,815.7205795,815.7205795,815.7205795,815.7205795,815.7205795,815.7205795,815.7093141399996,2.2378443999996307,return,2.0936736000003293,,,,,,,,,,,,,,,,,,,,,,,,,,,,,,,,,CXEYLX,train_y,red_square,top_left,2025-01-15_17h54.10.544,HideSeek_v1,2022.2.5,59.97857565274638,
,4,7,4,2,0,-5,11,,train_dim1_1,8,30,,,,2,0,2,0,,,,,,,,,0,0,0,0,0,7,7,7,1,0,1,0,,,,,,,,,,,,,,,,,,,,,,,,,,,,,,,,,,,,,,,,,,,,,,,,,,,,,,,,,,,,,,,,30,,,,,,,,820.7321782999998,820.7321782999998,820.7321782999998,820.7321782999998,820.7321782999998,down,0.7266548000006878,0,0,0,99,0.16,0.0,down,0.6452789000004486,,,,,,,,,,,,,,,,,,,,,,,,,,,,,,,,,,,,,,,,,,,,,,,,,,,,,,,,,,,,CXEYLX,train_y,red_square,top_left,2025-01-15_17h54.10.544,HideSeek_v1,2022.2.5,59.97857565274638,
,4,7,4,2,0,-5,11,,train_dim1_1,8,30,,,,2,0,2,0,,,,,,,,,0,0,0,0,0,7,7,7,2,0,2,0,,,,,,,,,,,,,,,,,,,,,,,,,,,,,,,,,,,,,,,,,,,,,,,,,,,,,,,,,,,,,,,,30,,,,,,,,821.4652110999996,821.4652110999996,821.4652110999996,821.4652110999996,821.4652110999996,down,1.294059699999707,0,0,0,99,0.16,-0.08,down,1.2085268000000724,,,,,,,,,,,,,,,,,,,,,,,,,,,,,,,,,,,,,,,,,,,,,,,,,,,,,,,,,,,,CXEYLX,train_y,red_square,top_left,2025-01-15_17h54.10.544,HideSeek_v1,2022.2.5,59.97857565274638,
,4,7,4,2,0,-5,11,,train_dim1_1,8,30,,,,2,0,2,0,,,,,,,,,0,0,0,0,0,7,7,7,3,0,3,0,,,,,,,,,,,,,,,,,,,,,,,,,,,,,,,,,,,,,,,,,,,,,,,,,,,,,,,,,,,,,,,,30,,,,,,,,822.7669698,822.7669698,822.7669698,822.7669698,822.7669698,return,0.7605417999993733,0,0,0,0,0.16,-0.08,return,0.6788998000001811,-12,12,0.16,-0.08,,,,,,,,,,,,,,,,,,,,,,,,,,,,,,,,,,,,,,,,,,,,,,,,,,,,,,,,CXEYLX,train_y,red_square,top_left,2025-01-15_17h54.10.544,HideSeek_v1,2022.2.5,59.97857565274638,
,4,8,4,7,0,-1,15,,train_dim1_1,9,30,,,,2,0,2,0,,,,,,,,,0,0,0,0,0,8,8,8,0,0,0,0,,,,,,,,,,,,,,,,,,,,,,,,,stimuli/alien_stimuli/15.png,,,,,,,,,,,,,,,,,,,,,,,,,,,,,stimuli/alien_stimuli/11.png,11,4,10,,,,,,,30,,,,,,,,829.5620646999996,829.5620646999996,829.5620646999996,829.5620646999996,829.5620646999996,down,3.0576434000004156,0,0,0,99,0.16,0.15999999999999998,down,2.9634125000002314,,,,,828.0031919999992,829.5620646999996,0.16,-0.24,0.4,0.0,-0.039999999999999994,0.16,0.16,0.16,-0.24,825.0835133999999,825.0835133999999,825.0835133999999,825.0835133999999,825.0835133999999,825.0835133999999,825.0835133999999,825.0835133999999,825.0842505400001,3.0215336000001116,return,2.9030635999997685,,,,,,,,,,,,,,,,,,,,,,,,,,,,,,,,,CXEYLX,train_y,red_square,top_left,2025-01-15_17h54.10.544,HideSeek_v1,2022.2.5,59.97857565274638,
,4,8,4,7,0,-1,15,,train_dim1_1,9,30,,,,2,0,2,0,,,,,,,,,0,0,0,0,0,8,8,8,1,0,1,0,,,,,,,,,,,,,,,,,,,,,,,,,,,,,,,,,,,,,,,,,,,,,,,,,,,,,,,,,,,,,,,,30,,,,,,,,832.6256656999994,832.6256656999994,832.6256656999994,832.6256656999994,832.6256656999994,return,0.7933820000007472,1,0,0,1,0.16,0.15999999999999998,return,0.7079573000009987,-13,12,0.16,0.15999999999999998,,,,,,,,,,,,,,,,,,,,,,,,,,,,,,,,,,,,,,,,,,,,,,,,,,,,,,,,CXEYLX,train_y,red_square,top_left,2025-01-15_17h54.10.544,HideSeek_v1,2022.2.5,59.97857565274638,
,2,7,2,7,0,0,16,,train_dim1_1,10,30,,,,2,0,2,0,,,,,,,,,0,0,0,0,0,9,9,9,0,0,0,0,,,,,,,,,,,,,,,,,,,,,,,,,stimuli/alien_stimuli/16.png,,,,,,,,,,,,,,,,,,,,,,,,,,,,,stimuli/alien_stimuli/15.png,15,4,11,,,,,,,30,,,,,,,,846.7099909999997,846.7099909999997,846.7099909999997,846.7099909999997,846.7099909999997,right,2.8561909999998534,1,0,0,99,0.08,0.16,right,2.7501942000008057,,,,,845.1340504999998,846.7099909999997,0.16,0.16,0.08,0.0,0.2,0.16,0.16,0.16,0.16,834.9753097999992,834.9753097999992,834.9753097999992,834.9753097999992,834.9753097999992,834.9753097999992,834.9753097999992,834.9753097999992,834.9761049399999,10.260163100000682,return,10.135646000000634,,,,,,,,,,,,,,,,,,,,,,,,,,,,,,,,,CXEYLX,train_y,red_square,top_left,2025-01-15_17h54.10.544,HideSeek_v1,2022.2.5,59.97857565274638,
,2,7,2,7,0,0,16,,train_dim1_1,10,30,,,,2,0,2,0,,,,,,,,,0,0,0,0,0,9,9,9,1,0,1,0,,,,,,,,,,,,,,,,,,,,,,,,,,,,,,,,,,,,,,,,,,,,,,,,,,,,,,,,,,,,,,,,30,,,,,,,,849.5572486000001,849.5572486000001,849.5572486000001,849.5572486000001,849.5572486000001,left,1.1938433000004807,1,0,0,99,0.0,0.16,left,1.1027428000006694,,,,,,,,,,,,,,,,,,,,,,,,,,,,,,,,,,,,,,,,,,,,,,,,,,,,,,,,,,,,CXEYLX,train_y,red_square,top_left,2025-01-15_17h54.10.544,HideSeek_v1,2022.2.5,59.97857565274638,
,2,7,2,7,0,0,16,,train_dim1_1,10,30,,,,2,0,2,0,,,,,,,,,0,0,0,0,0,9,9,9,2,0,2,0,,,,,,,,,,,,,,,,,,,,,,,,,,,,,,,,,,,,,,,,,,,,,,,,,,,,,,,,,,,,,,,,30,,,,,,,,850.7581606999993,850.7581606999993,850.7581606999993,850.7581606999993,850.7581606999993,right,2.74522750000051,1,0,0,99,0.08,0.16,right,2.6657471000007718,,,,,,,,,,,,,,,,,,,,,,,,,,,,,,,,,,,,,,,,,,,,,,,,,,,,,,,,,,,,CXEYLX,train_y,red_square,top_left,2025-01-15_17h54.10.544,HideSeek_v1,2022.2.5,59.97857565274638,
,2,7,2,7,0,0,16,,train_dim1_1,10,30,,,,2,0,2,0,,,,,,,,,0,0,0,0,0,9,9,9,3,0,3,0,,,,,,,,,,,,,,,,,,,,,,,,,,,,,,,,,,,,,,,,,,,,,,,,,,,,,,,,,,,,,,,,30,,,,,,,,853.5085702999995,853.5085702999995,853.5085702999995,853.5085702999995,853.5085702999995,return,0.7102675000005547,1,1,0,0,0.08,0.16,return,0.6178103000002011,-13,13,0.08,0.16,,,,,,,,,,,,,,,,,,,,,,,,,,,,,,,,,,,,,,,,,,,,,,,,,,,,,,,,CXEYLX,train_y,red_square,top_left,2025-01-15_17h54.10.544,HideSeek_v1,2022.2.5,59.97857565274638,
,4,6,4,5,0,-1,15,,train_dim1_1,11,30,,,,2,0,2,0,,,,,,,,,0,0,0,0,0,10,10,10,0,0,0,0,,,,,,,,,,,,,,,,,,,,,,,,,stimuli/alien_stimuli/15.png,,,,,,,,,,,,,,,,,,,,,,,,,,,,,stimuli/alien_stimuli/16.png,16,2,12,,,,,,,30,,,,,,,,868.0131782999997,868.0131782999997,868.0131782999997,868.0131782999997,868.0131782999997,right,5.107530400000542,1,1,0,99,0.24,0.08,right,5.001337599999715,,,,,866.4350498999993,868.0131782999997,0,0.16,0.0,0.0,0.16,0,0.0,0,0.16,855.7930524999992,855.7930524999992,855.7930524999992,855.7930524999992,855.7930524999992,855.7930524999992,855.7930524999992,855.7930524999992,855.7931812599994,10.761164700000336,return,10.61773390000053,,,,,,,,,,,,,,,,,,,,,,,,,,,,,,,,,CXEYLX,train_y,red_square,top_left,2025-01-15_17h54.10.544,HideSeek_v1,2022.2.5,59.97857565274638,
,4,6,4,5,0,-1,15,,train_dim1_1,11,30,,,,2,0,2,0,,,,,,,,,0,0,0,0,0,10,10,10,1,0,1,0,,,,,,,,,,,,,,,,,,,,,,,,,,,,,,,,,,,,,,,,,,,,,,,,,,,,,,,,,,,,,,,,30,,,,,,,,873.1099667999997,873.1099667999997,873.1099667999997,873.1099667999997,873.1099667999997,right,2.4113972999994076,1,1,0,99,0.32,0.08,right,2.3244664000003468,,,,,,,,,,,,,,,,,,,,,,,,,,,,,,,,,,,,,,,,,,,,,,,,,,,,,,,,,,,,CXEYLX,train_y,red_square,top_left,2025-01-15_17h54.10.544,HideSeek_v1,2022.2.5,59.97857565274638,
,4,6,4,5,0,-1,15,,train_dim1_1,11,30,,,,2,0,2,0,,,,,,,,,0,0,0,0,0,10,10,10,2,0,2,0,,,,,,,,,,,,,,,,,,,,,,,,,,,,,,,,,,,,,,,,,,,,,,,,,,,,,,,,,,,,,,,,30,,,,,,,,875.5287616999994,875.5287616999994,875.5287616999994,875.5287616999994,875.5287616999994,left,1.8609350000006089,1,1,0,99,0.24,0.08,left,1.7823882000002413,,,,,,,,,,,,,,,,,,,,,,,,,,,,,,,,,,,,,,,,,,,,,,,,,,,,,,,,,,,,CXEYLX,train_y,red_square,top_left,2025-01-15_17h54.10.544,HideSeek_v1,2022.2.5,59.97857565274638,
,4,6,4,5,0,-1,15,,train_dim1_1,11,30,,,,2,0,2,0,,,,,,,,,0,0,0,0,0,10,10,10,3,0,3,0,,,,,,,,,,,,,,,,,,,,,,,,,,,,,,,,,,,,,,,,,,,,,,,,,,,,,,,,,,,,,,,,30,,,,,,,,877.3970059999992,877.3970059999992,877.3970059999992,877.3970059999992,877.3970059999992,left,4.612911399999575,1,1,0,99,0.15999999999999998,0.08,left,4.520688300000074,,,,,,,,,,,,,,,,,,,,,,,,,,,,,,,,,,,,,,,,,,,,,,,,,,,,,,,,,,,,CXEYLX,train_y,red_square,top_left,2025-01-15_17h54.10.544,HideSeek_v1,2022.2.5,59.97857565274638,
,4,6,4,5,0,-1,15,,train_dim1_1,11,30,,,,2,0,2,0,,,,,,,,,0,0,0,0,0,10,10,10,4,0,4,0,,,,,,,,,,,,,,,,,,,,,,,,,,,,,,,,,,,,,,,,,,,,,,,,,,,,,,,,,,,,,,,,30,,,,,,,,882.0174392999998,882.0174392999998,882.0174392999998,882.0174392999998,882.0174392999998,down,0.7937477000004947,1,1,0,99,0.15999999999999998,0.0,down,0.7120242000000871,,,,,,,,,,,,,,,,,,,,,,,,,,,,,,,,,,,,,,,,,,,,,,,,,,,,,,,,,,,,CXEYLX,train_y,red_square,top_left,2025-01-15_17h54.10.544,HideSeek_v1,2022.2.5,59.97857565274638,
,4,6,4,5,0,-1,15,,train_dim1_1,11,30,,,,2,0,2,0,,,,,,,,,0,0,0,0,0,10,10,10,5,0,5,0,,,,,,,,,,,,,,,,,,,,,,,,,,,,,,,,,,,,,,,,,,,,,,,,,,,,,,,,,,,,,,,,30,,,,,,,,882.8166464999995,882.8166464999995,882.8166464999995,882.8166464999995,882.8166464999995,return,0.7937774000001809,2,0,0,1,0.15999999999999998,0.0,return,0.7119530000009036,-14,13,0.15999999999999998,0.0,,,,,,,,,,,,,,,,,,,,,,,,,,,,,,,,,,,,,,,,,,,,,,,,,,,,,,,,CXEYLX,train_y,red_square,top_left,2025-01-15_17h54.10.544,HideSeek_v1,2022.2.5,59.97857565274638,
,0,5,0,0,0,-5,11,,train_dim1_1,12,30,,,,2,0,2,0,,,,,,,,,0,0,0,0,0,11,11,11,0,0,0,0,,,,,,,,,,,,,,,,,,,,,,,,,stimuli/alien_stimuli/11.png,,,,,,,,,,,,,,,,,,,,,,,,,,,,,stimuli/alien_stimuli/15.png,15,4,13,,,,,,,30,,,,,,,,889.7610600999997,889.7610600999997,889.7610600999997,889.7610600999997,889.7610600999997,right,2.4568921000000046,2,0,0,99,-0.08,0,right,2.370824700000412,,,,,888.2032408999994,889.7610600999997,0.16,0,0.08,0.0,0.04,0.16,0.16,0.16,0,885.1874023999999,885.1874023999999,885.1874023999999,885.1874023999999,885.1874023999999,885.1874023999999,885.1874023999999,885.1874023999999,885.1842195599996,3.137965599999916,return,2.989373900000828,,,,,,,,,,,,,,,,,,,,,,,,,,,,,,,,,CXEYLX,train_y,red_square,top_left,2025-01-15_17h54.10.544,HideSeek_v1,2022.2.5,59.97857565274638,
,0,5,0,0,0,-5,11,,train_dim1_1,12,30,,,,2,0,2,0,,,,,,,,,0,0,0,0,0,11,11,11,1,0,1,0,,,,,,,,,,,,,,,,,,,,,,,,,,,,,,,,,,,,,,,,,,,,,,,,,,,,,,,,,,,,,,,,30,,,,,,,,892.2253661999994,892.2253661999994,892.2253661999994,892.2253661999994,892.2253661999994,right,1.2098720000003595,2,0,0,99,0.0,0,right,1.1316843000004155,,,,,,,,,,,,,,,,,,,,,,,,,,,,,,,,,,,,,,,,,,,,,,,,,,,,,,,,,,,,CXEYLX,train_y,red_square,top_left,2025-01-15_17h54.10.544,HideSeek_v1,2022.2.5,59.97857565274638,
,0,5,0,0,0,-5,11,,train_dim1_1,12,30,,,,2,0,2,0,,,,,,,,,0,0,0,0,0,11,11,11,2,0,2,0,,,,,,,,,,,,,,,,,,,,,,,,,,,,,,,,,,,,,,,,,,,,,,,,,,,,,,,,,,,,,,,,30,,,,,,,,893.4418597999993,893.4418597999993,893.4418597999993,893.4418597999993,893.4418597999993,right,0.9778432999992219,2,0,0,99,0.08,0,right,0.898502300000473,,,,,,,,,,,,,,,,,,,,,,,,,,,,,,,,,,,,,,,,,,,,,,,,,,,,,,,,,,,,CXEYLX,train_y,red_square,top_left,2025-01-15_17h54.10.544,HideSeek_v1,2022.2.5,59.97857565274638,
,0,5,0,0,0,-5,11,,train_dim1_1,12,30,,,,2,0,2,0,,,,,,,,,0,0,0,0,0,11,11,11,3,0,3,0,,,,,,,,,,,,,,,,,,,,,,,,,,,,,,,,,,,,,,,,,,,,,,,,,,,,,,,,,,,,,,,,30,,,,,,,,894.426993,894.426993,894.426993,894.426993,894.426993,right,0.9766503999999259,2,0,0,99,0.16,0,right,0.8864058000008299,,,,,,,,,,,,,,,,,,,,,,,,,,,,,,,,,,,,,,,,,,,,,,,,,,,,,,,,,,,,CXEYLX,train_y,red_square,top_left,2025-01-15_17h54.10.544,HideSeek_v1,2022.2.5,59.97857565274638,
,0,5,0,0,0,-5,11,,train_dim1_1,12,30,,,,2,0,2,0,,,,,,,,,0,0,0,0,0,11,11,11,4,0,4,0,,,,,,,,,,,,,,,,,,,,,,,,,,,,,,,,,,,,,,,,,,,,,,,,,,,,,,,,,,,,,,,,30,,,,,,,,895.4109407999995,895.4109407999995,895.4109407999995,895.4109407999995,895.4109407999995,return,1.6776221000000078,2,0,0,0,0.16,0,return,1.5840478000000076,-14,17,0.16,0,,,,,,,,,,,,,,,,,,,,,,,,,,,,,,,,,,,,,,,,,,,,,,,,,,,,,,,,CXEYLX,train_y,red_square,top_left,2025-01-15_17h54.10.544,HideSeek_v1,2022.2.5,59.97857565274638,
,4,8,4,4,0,-4,12,,train_dim1_1,13,30,,,,2,0,2,0,,,,,,,,,0,0,0,0,0,12,12,12,0,0,0,0,,,,,,,,,,,,,,,,,,,,,,,,,stimuli/alien_stimuli/12.png,,,,,,,,,,,,,,,,,,,,,,,,,,,,,stimuli/alien_stimuli/11.png,11,0,14,,,,,,,30,,,,,,,,902.0765036999992,902.0765036999992,902.0765036999992,902.0765036999992,902.0765036999992,down,2.9198959000004834,2,0,0,99,0.16,0.15999999999999998,down,2.828453800000716,,,,,900.5134555999994,902.0765036999992,-0.16,-0.4,0.4,0.0,-0.2,-0.16,-0.16,-0.16,-0.4,898.6622429999998,898.6622429999998,898.6622429999998,898.6622429999998,898.6622429999998,898.6622429999998,898.6622429999998,898.6622429999998,898.6620555599997,1.9703687999999602,return,1.823574500000177,,,,,,,,,,,,,,,,,,,,,,,,,,,,,,,,,CXEYLX,train_y,red_square,top_left,2025-01-15_17h54.10.544,HideSeek_v1,2022.2.5,59.97857565274638,
,4,8,4,4,0,-4,12,,train_dim1_1,13,30,,,,2,0,2,0,,,,,,,,,0,0,0,0,0,12,12,12,1,0,1,0,,,,,,,,,,,,,,,,,,,,,,,,,,,,,,,,,,,,,,,,,,,,,,,,,,,,,,,,,,,,,,,,30,,,,,,,,905.0019867999999,905.0019867999999,905.0019867999999,905.0019867999999,905.0019867999999,down,0.6259903999998642,2,0,0,99,0.16,0.07999999999999997,down,0.5442266000000018,,,,,,,,,,,,,,,,,,,,,,,,,,,,,,,,,,,,,,,,,,,,,,,,,,,,,,,,,,,,CXEYLX,train_y,red_square,top_left,2025-01-15_17h54.10.544,HideSeek_v1,2022.2.5,59.97857565274638,
,4,8,4,4,0,-4,12,,train_dim1_1,13,30,,,,2,0,2,0,,,,,,,,,0,0,0,0,0,12,12,12,2,0,2,0,,,,,,,,,,,,,,,,,,,,,,,,,,,,,,,,,,,,,,,,,,,,,,,,,,,,,,,,,,,,,,,,30,,,,,,,,905.6360829999994,905.6360829999994,905.6360829999994,905.6360829999994,905.6360829999994,down,0.660338600000614,2,0,0,99,0.16,-2.7755575615628914e-17,down,0.5671340000008058,,,,,,,,,,,,,,,,,,,,,,,,,,,,,,,,,,,,,,,,,,,,,,,,,,,,,,,,,,,,CXEYLX,train_y,red_square,top_left,2025-01-15_17h54.10.544,HideSeek_v1,2022.2.5,59.97857565274638,
,4,8,4,4,0,-4,12,,train_dim1_1,13,30,,,,2,0,2,0,,,,,,,,,0,0,0,0,0,12,12,12,3,0,3,0,,,,,,,,,,,,,,,,,,,,,,,,,,,,,,,,,,,,,,,,,,,,,,,,,,,,,,,,,,,,,,,,30,,,,,,,,906.3029085999997,906.3029085999997,906.3029085999997,906.3029085999997,906.3029085999997,down,3.529250499999762,2,0,0,99,0.16,-0.08000000000000003,down,3.436353100000815,,,,,,,,,,,,,,,,,,,,,,,,,,,,,,,,,,,,,,,,,,,,,,,,,,,,,,,,,,,,CXEYLX,train_y,red_square,top_left,2025-01-15_17h54.10.544,HideSeek_v1,2022.2.5,59.97857565274638,
,4,8,4,4,0,-4,12,,train_dim1_1,13,30,,,,2,0,2,0,,,,,,,,,0,0,0,0,0,12,12,12,4,0,4,0,,,,,,,,,,,,,,,,,,,,,,,,,,,,,,,,,,,,,,,,,,,,,,,,,,,,,,,,,,,,,,,,30,,,,,,,,909.8397335,909.8397335,909.8397335,909.8397335,909.8397335,return,0.6270586000000549,3,0,0,1,0.16,-0.08000000000000003,return,0.541499400000248,-18,17,0.16,-0.08000000000000003,,,,,,,,,,,,,,,,,,,,,,,,,,,,,,,,,,,,,,,,,,,,,,,,,,,,,,,,CXEYLX,train_y,red_square,top_left,2025-01-15_17h54.10.544,HideSeek_v1,2022.2.5,59.97857565274638,
,2,7,2,7,0,0,16,,train_dim1_1,14,30,,,,2,0,2,0,,,,,,,,,0,0,0,0,0,13,13,13,0,0,0,0,,,,,,,,,,,,,,,,,,,,,,,,,stimuli/alien_stimuli/16.png,,,,,,,,,,,,,,,,,,,,,,,,,,,,,stimuli/alien_stimuli/12.png,12,4,15,,,,,,,30,,,,,,,,915.0813396999993,915.0813396999993,915.0813396999993,915.0813396999993,915.0813396999993,right,3.641065900000285,3,0,0,99,0.08,0.16,right,3.5602002000005086,,,,,913.5241477,912.0438655999997,0.16,-0.08,0.32,0.0,0.07999999999999999,0.16,0.16,0.16,-0.08,912.0438655999997,912.0438655999997,912.0438655999997,912.0438655999997,912.0438655999997,912.0438655999997,912.0438655999997,912.0438655999997,912.0398304599997,1.5997294999997393,return,1.45021750000069,,,,,,,,,,,,,,,,,,,,,,,,,,,,,,,,,CXEYLX,train_y,red_square,top_left,2025-01-15_17h54.10.544,HideSeek_v1,2022.2.5,59.97857565274638,
,2,7,2,7,0,0,16,,train_dim1_1,14,30,,,,2,0,2,0,,,,,,,,,0,0,0,0,0,13,13,13,1,0,1,0,,,,,,,,,,,,,,,,,,,,,,,,,,,,,,,,,,,,,,,,,,,,,,,,,,,,,,,,,,,,,,,,30,,,,,,,,918.7299297,918.7299297,918.7299297,918.7299297,918.7299297,left,1.4276212999993732,3,0,0,99,0.0,0.16,left,1.334866900000634,,,,,,,,,,,,,,,,,,,,,,,,,,,,,,,,,,,,,,,,,,,,,,,,,,,,,,,,,,,,CXEYLX,train_y,red_square,top_left,2025-01-15_17h54.10.544,HideSeek_v1,2022.2.5,59.97857565274638,
,2,7,2,7,0,0,16,,train_dim1_1,14,30,,,,2,0,2,0,,,,,,,,,0,0,0,0,0,13,13,13,2,0,2,0,,,,,,,,,,,,,,,,,,,,,,,,,,,,,,,,,,,,,,,,,,,,,,,,,,,,,,,,,,,,,,,,30,,,,,,,,920.1634711999995,920.1634711999995,920.1634711999995,920.1634711999995,920.1634711999995,return,1.027097500000309,4,0,0,1,0.0,0.16,return,0.9433238000001438,-18,17,0.0,0.16,,,,,,,,,,,,,,,,,,,,,,,,,,,,,,,,,,,,,,,,,,,,,,,,,,,,,,,,CXEYLX,train_y,red_square,top_left,2025-01-15_17h54.10.544,HideSeek_v1,2022.2.5,59.97857565274638,
,1,9,1,6,0,-3,13,,train_dim1_1,15,30,,,,2,0,2,0,,,,,,,,,0,0,0,0,0,14,14,14,0,0,0,0,,,,,,,,,,,,,,,,,,,,,,,,,stimuli/alien_stimuli/13.png,,,,,,,,,,,,,,,,,,,,,,,,,,,,,stimuli/alien_stimuli/16.png,16,2,16,,,,,,,30,,,,,,,,925.8400351999999,925.8400351999999,925.8400351999999,925.8400351999999,925.8400351999999,down,2.889999799999714,4,0,0,99,-0.08,0.24,down,2.809239800000796,,,,,924.2831354,925.8400351999999,0,0.16,0.0,0.0,0.16,0,0.0,0,0.16,922.7603388999996,922.7603388999996,922.7603388999996,922.7603388999996,922.7603388999996,922.7603388999996,922.7603388999996,922.7603388999996,922.7485140399999,1.6368222999999489,return,1.5005620000001727,,,,,,,,,,,,,,,,,,,,,,,,,,,,,,,,,CXEYLX,train_y,red_square,top_left,2025-01-15_17h54.10.544,HideSeek_v1,2022.2.5,59.97857565274638,
,1,9,1,6,0,-3,13,,train_dim1_1,15,30,,,,2,0,2,0,,,,,,,,,0,0,0,0,0,14,14,14,1,0,1,0,,,,,,,,,,,,,,,,,,,,,,,,,,,,,,,,,,,,,,,,,,,,,,,,,,,,,,,,,,,,,,,,30,,,,,,,,928.7372522999995,928.7372522999995,928.7372522999995,928.7372522999995,928.7372522999995,down,0.9435461999992185,4,0,0,99,-0.08,0.15999999999999998,down,0.8628515000000334,,,,,,,,,,,,,,,,,,,,,,,,,,,,,,,,,,,,,,,,,,,,,,,,,,,,,,,,,,,,CXEYLX,train_y,red_square,top_left,2025-01-15_17h54.10.544,HideSeek_v1,2022.2.5,59.97857565274638,
,1,9,1,6,0,-3,13,,train_dim1_1,15,30,,,,2,0,2,0,,,,,,,,,0,0,0,0,0,14,14,14,2,0,2,0,,,,,,,,,,,,,,,,,,,,,,,,,,,,,,,,,,,,,,,,,,,,,,,,,,,,,,,,,,,,,,,,30,,,,,,,,929.6890900999997,929.6890900999997,929.6890900999997,929.6890900999997,929.6890900999997,up,1.8447126999999455,4,0,0,99,-0.08,0.24,up,1.7563161000007312,,,,,,,,,,,,,,,,,,,,,,,,,,,,,,,,,,,,,,,,,,,,,,,,,,,,,,,,,,,,CXEYLX,train_y,red_square,top_left,2025-01-15_17h54.10.544,HideSeek_v1,2022.2.5,59.97857565274638,
,1,9,1,6,0,-3,13,,train_dim1_1,15,30,,,,2,0,2,0,,,,,,,,,0,0,0,0,0,14,14,14,3,0,3,0,,,,,,,,,,,,,,,,,,,,,,,,,,,,,,,,,,,,,,,,,,,,,,,,,,,,,,,,,,,,,,,,30,,,,,,,,931.5396680999993,931.5396680999993,931.5396680999993,931.5396680999993,931.5396680999993,up,0.39320280000083585,4,0,0,99,-0.08,0.32,up,0.3149482999997417,,,,,,,,,,,,,,,,,,,,,,,,,,,,,,,,,,,,,,,,,,,,,,,,,,,,,,,,,,,,CXEYLX,train_y,red_square,top_left,2025-01-15_17h54.10.544,HideSeek_v1,2022.2.5,59.97857565274638,
,1,9,1,6,0,-3,13,,train_dim1_1,15,30,,,,2,0,2,0,,,,,,,,,0,0,0,0,0,14,14,14,4,0,4,0,,,,,,,,,,,,,,,,,,,,,,,,,,,,,,,,,,,,,,,,,,,,,,,,,,,,,,,,,,,,,,,,30,,,,,,,,931.9404740999998,931.9404740999998,931.9404740999998,931.9404740999998,931.9404740999998,right,0.810483799999929,4,0,0,99,0.0,0.32,right,0.7286701000002722,,,,,,,,,,,,,,,,,,,,,,,,,,,,,,,,,,,,,,,,,,,,,,,,,,,,,,,,,,,,CXEYLX,train_y,red_square,top_left,2025-01-15_17h54.10.544,HideSeek_v1,2022.2.5,59.97857565274638,
,1,9,1,6,0,-3,13,,train_dim1_1,15,30,,,,2,0,2,0,,,,,,,,,0,0,0,0,0,14,14,14,5,0,5,0,,,,,,,,,,,,,,,,,,,,,,,,,,,,,,,,,,,,,,,,,,,,,,,,,,,,,,,,,,,,,,,,30,,,,,,,,932.7569809999995,932.7569809999995,932.7569809999995,932.7569809999995,932.7569809999995,right,0.460075400000278,4,0,0,99,0.08,0.32,right,0.37920649999978195,,,,,,,,,,,,,,,,,,,,,,,,,,,,,,,,,,,,,,,,,,,,,,,,,,,,,,,,,,,,CXEYLX,train_y,red_square,top_left,2025-01-15_17h54.10.544,HideSeek_v1,2022.2.5,59.97857565274638,
,1,9,1,6,0,-3,13,,train_dim1_1,15,30,,,,2,0,2,0,,,,,,,,,0,0,0,0,0,14,14,14,6,0,6,0,,,,,,,,,,,,,,,,,,,,,,,,,,,,,,,,,,,,,,,,,,,,,,,,,,,,,,,,,,,,,,,,30,,,,,,,,933.2266811,933.2266811,933.2266811,933.2266811,933.2266811,right,0.476871800000481,4,0,0,99,0.16,0.32,right,0.3839653000004546,,,,,,,,,,,,,,,,,,,,,,,,,,,,,,,,,,,,,,,,,,,,,,,,,,,,,,,,,,,,CXEYLX,train_y,red_square,top_left,2025-01-15_17h54.10.544,HideSeek_v1,2022.2.5,59.97857565274638,
,1,9,1,6,0,-3,13,,train_dim1_1,15,30,,,,2,0,2,0,,,,,,,,,0,0,0,0,0,14,14,14,7,0,7,0,,,,,,,,,,,,,,,,,,,,,,,,,,,,,,,,,,,,,,,,,,,,,,,,,,,,,,,,,,,,,,,,30,,,,,,,,933.7083624999996,933.7083624999996,933.7083624999996,933.7083624999996,933.7083624999996,right,1.6445763000001534,4,0,0,99,0.24,0.32,right,1.5646340000002965,,,,,,,,,,,,,,,,,,,,,,,,,,,,,,,,,,,,,,,,,,,,,,,,,,,,,,,,,,,,CXEYLX,train_y,red_square,top_left,2025-01-15_17h54.10.544,HideSeek_v1,2022.2.5,59.97857565274638,
,1,9,1,6,0,-3,13,,train_dim1_1,15,30,,,,2,0,2,0,,,,,,,,,0,0,0,0,0,14,14,14,8,0,8,0,,,,,,,,,,,,,,,,,,,,,,,,,,,,,,,,,,,,,,,,,,,,,,,,,,,,,,,,,,,,,,,,30,,,,,,,,935.3606385999992,935.3606385999992,935.3606385999992,935.3606385999992,935.3606385999992,return,0.8273392000000968,4,0,0,0,0.24,0.32,return,0.749239700000544,-18,21,0.24,0.32,,,,,,,,,,,,,,,,,,,,,,,,,,,,,,,,,,,,,,,,,,,,,,,,,,,,,,,,CXEYLX,train_y,red_square,top_left,2025-01-15_17h54.10.544,HideSeek_v1,2022.2.5,59.97857565274638,
,4,5,4,4,0,-1,15,,train_dim1_1,16,30,,,,2,0,2,0,,,,,,,,,0,0,0,0,0,15,15,15,0,0,0,0,,,,,,,,,,,,,,,,,,,,,,,,,stimuli/alien_stimuli/15.png,,,,,,,,,,,,,,,,,,,,,,,,,,,,,stimuli/alien_stimuli/13.png,13,1,17,,,,,,,30,,,,,,,,940.8209317999999,940.8209317999999,940.8209317999999,940.8209317999999,940.8209317999999,down,3.706906700000218,4,0,0,99,0.16,-0.08,down,3.6257089999999152,,,,,939.2623073999994,940.8209317999999,-0.08,0.08,0.24,0.0,0.2,-0.08,-0.08,-0.08,0.08,937.7634932000001,937.7634932000001,937.7634932000001,937.7634932000001,937.7634932000001,937.7634932000001,937.7634932000001,937.7634932000001,937.7611430599994,1.6205327000006946,return,1.4821895000004588,,,,,,,,,,,,,,,,,,,,,,,,,,,,,,,,,CXEYLX,train_y,red_square,top_left,2025-01-15_17h54.10.544,HideSeek_v1,2022.2.5,59.97857565274638,
,4,5,4,4,0,-1,15,,train_dim1_1,16,30,,,,2,0,2,0,,,,,,,,,0,0,0,0,0,15,15,15,1,0,1,0,,,,,,,,,,,,,,,,,,,,,,,,,,,,,,,,,,,,,,,,,,,,,,,,,,,,,,,,,,,,,,,,30,,,,,,,,944.5351154999998,944.5351154999998,944.5351154999998,944.5351154999998,944.5351154999998,return,1.9607531000001472,5,0,0,1,0.16,-0.08,return,1.871791700000358,-19,21,0.16,-0.08,,,,,,,,,,,,,,,,,,,,,,,,,,,,,,,,,,,,,,,,,,,,,,,,,,,,,,,,CXEYLX,train_y,red_square,top_left,2025-01-15_17h54.10.544,HideSeek_v1,2022.2.5,59.97857565274638,
,3,8,3,5,0,-3,13,,train_dim1_1,17,30,,,,2,0,2,0,,,,,,,,,0,0,0,0,0,16,16,16,0,0,0,0,,,,,,,,,,,,,,,,,,,,,,,,,stimuli/alien_stimuli/13.png,,,,,,,,,,,,,,,,,,,,,,,,,,,,,stimuli/alien_stimuli/15.png,15,4,18,,,,,,,30,,,,,,,,950.9426913999996,950.9426913999996,950.9426913999996,950.9426913999996,950.9426913999996,down,3.6591635000004317,5,0,0,99,0.08,0.15999999999999998,down,3.572919500000353,,,,,949.3874552999996,950.9426913999996,0.16,-0.08,0.08,0.0,-0.04,0.16,0.16,0.16,-0.08,948.0735489999997,948.0735489999997,948.0735489999997,948.0735489999997,948.0735489999997,948.0735489999997,948.0735489999997,948.0735489999997,948.0695844599999,1.436866299999565,return,1.2943740000000616,,,,,,,,,,,,,,,,,,,,,,,,,,,,,,,,,CXEYLX,train_y,red_square,top_left,2025-01-15_17h54.10.544,HideSeek_v1,2022.2.5,59.97857565274638,
,3,8,3,5,0,-3,13,,train_dim1_1,17,30,,,,2,0,2,0,,,,,,,,,0,0,0,0,0,16,16,16,1,0,1,0,,,,,,,,,,,,,,,,,,,,,,,,,,,,,,,,,,,,,,,,,,,,,,,,,,,,,,,,,,,,,,,,30,,,,,,,,954.6102824999998,954.6102824999998,954.6102824999998,954.6102824999998,954.6102824999998,down,0.5263530999991417,5,0,0,99,0.08,0.07999999999999997,down,0.43350379999992583,,,,,,,,,,,,,,,,,,,,,,,,,,,,,,,,,,,,,,,,,,,,,,,,,,,,,,,,,,,,CXEYLX,train_y,red_square,top_left,2025-01-15_17h54.10.544,HideSeek_v1,2022.2.5,59.97857565274638,
,3,8,3,5,0,-3,13,,train_dim1_1,17,30,,,,2,0,2,0,,,,,,,,,0,0,0,0,0,16,16,16,2,0,2,0,,,,,,,,,,,,,,,,,,,,,,,,,,,,,,,,,,,,,,,,,,,,,,,,,,,,,,,,,,,,,,,,30,,,,,,,,955.1435622999998,955.1435622999998,955.1435622999998,955.1435622999998,955.1435622999998,down,0.46013399999992544,5,0,0,99,0.08,-2.7755575615628914e-17,down,0.3758504000006724,,,,,,,,,,,,,,,,,,,,,,,,,,,,,,,,,,,,,,,,,,,,,,,,,,,,,,,,,,,,CXEYLX,train_y,red_square,top_left,2025-01-15_17h54.10.544,HideSeek_v1,2022.2.5,59.97857565274638,
,3,8,3,5,0,-3,13,,train_dim1_1,17,30,,,,2,0,2,0,,,,,,,,,0,0,0,0,0,16,16,16,3,0,3,0,,,,,,,,,,,,,,,,,,,,,,,,,,,,,,,,,,,,,,,,,,,,,,,,,,,,,,,,,,,,,,,,30,,,,,,,,955.6098529000001,955.6098529000001,955.6098529000001,955.6098529000001,955.6098529000001,down,0.9607171999996353,5,0,0,99,0.08,-0.08000000000000003,down,0.8740732000005664,,,,,,,,,,,,,,,,,,,,,,,,,,,,,,,,,,,,,,,,,,,,,,,,,,,,,,,,,,,,CXEYLX,train_y,red_square,top_left,2025-01-15_17h54.10.544,HideSeek_v1,2022.2.5,59.97857565274638,
,3,8,3,5,0,-3,13,,train_dim1_1,17,30,,,,2,0,2,0,,,,,,,,,0,0,0,0,0,16,16,16,4,0,4,0,,,,,,,,,,,,,,,,,,,,,,,,,,,,,,,,,,,,,,,,,,,,,,,,,,,,,,,,,,,,,,,,30,,,,,,,,956.5784332999992,956.5784332999992,956.5784332999992,956.5784332999992,956.5784332999992,return,0.6606127999993987,5,1,0,0,0.08,-0.08000000000000003,return,0.5666868000007526,-23,21,0.08,-0.08000000000000003,,,,,,,,,,,,,,,,,,,,,,,,,,,,,,,,,,,,,,,,,,,,,,,,,,,,,,,,CXEYLX,train_y,red_square,top_left,2025-01-15_17h54.10.544,HideSeek_v1,2022.2.5,59.97857565274638,
,2,6,2,1,0,-5,11,,train_dim1_1,18,30,,,,2,0,2,0,,,,,,,,,0,0,0,0,0,17,17,17,0,0,0,0,,,,,,,,,,,,,,,,,,,,,,,,,stimuli/alien_stimuli/11.png,,,,,,,,,,,,,,,,,,,,,,,,,,,,,stimuli/alien_stimuli/13.png,13,3,19,,,,,,,30,,,,,,,,961.8555472999997,961.8555472999997,961.8555472999997,961.8555472999997,961.8555472999997,down,4.724045200000546,5,1,0,99,0,0.0,down,4.64315280000028,,,,,960.2964263999993,961.8555472999997,0.08,0,0.24,0.0,0.12,0.08,0.08,0.08,0,958.8122301999992,958.8122301999992,958.8122301999992,958.8122301999992,958.8122301999992,958.8122301999992,958.8122301999992,958.8122301999992,958.8119436599994,1.6033897999996043,return,1.45279390000087,,,,,,,,,,,,,,,,,,,,,,,,,,,,,,,,,CXEYLX,train_y,red_square,top_left,2025-01-15_17h54.10.544,HideSeek_v1,2022.2.5,59.97857565274638,
,2,6,2,1,0,-5,11,,train_dim1_1,18,30,,,,2,0,2,0,,,,,,,,,0,0,0,0,0,17,17,17,1,0,1,0,,,,,,,,,,,,,,,,,,,,,,,,,,,,,,,,,,,,,,,,,,,,,,,,,,,,,,,,,,,,,,,,30,,,,,,,,966.5912613,966.5912613,966.5912613,966.5912613,966.5912613,down,0.7736616000001959,5,1,0,99,0,-0.08,down,0.6902169000004506,,,,,,,,,,,,,,,,,,,,,,,,,,,,,,,,,,,,,,,,,,,,,,,,,,,,,,,,,,,,CXEYLX,train_y,red_square,top_left,2025-01-15_17h54.10.544,HideSeek_v1,2022.2.5,59.97857565274638,
,2,6,2,1,0,-5,11,,train_dim1_1,18,30,,,,2,0,2,0,,,,,,,,,0,0,0,0,0,17,17,17,2,0,2,0,,,,,,,,,,,,,,,,,,,,,,,,,,,,,,,,,,,,,,,,,,,,,,,,,,,,,,,,,,,,,,,,30,,,,,,,,967.3697990999999,967.3697990999999,967.3697990999999,967.3697990999999,967.3697990999999,down,0.7272477000005892,5,1,0,99,0,-0.16,down,0.6436046000007991,,,,,,,,,,,,,,,,,,,,,,,,,,,,,,,,,,,,,,,,,,,,,,,,,,,,,,,,,,,,CXEYLX,train_y,red_square,top_left,2025-01-15_17h54.10.544,HideSeek_v1,2022.2.5,59.97857565274638,
,2,6,2,1,0,-5,11,,train_dim1_1,18,30,,,,2,0,2,0,,,,,,,,,0,0,0,0,0,17,17,17,3,0,3,0,,,,,,,,,,,,,,,,,,,,,,,,,,,,,,,,,,,,,,,,,,,,,,,,,,,,,,,,,,,,,,,,30,,,,,,,,968.1040656999994,968.1040656999994,968.1040656999994,968.1040656999994,968.1040656999994,down,2.2283360999999786,5,1,0,99,0,-0.24,down,2.141079900000477,,,,,,,,,,,,,,,,,,,,,,,,,,,,,,,,,,,,,,,,,,,,,,,,,,,,,,,,,,,,CXEYLX,train_y,red_square,top_left,2025-01-15_17h54.10.544,HideSeek_v1,2022.2.5,59.97857565274638,
,2,6,2,1,0,-5,11,,train_dim1_1,18,30,,,,2,0,2,0,,,,,,,,,0,0,0,0,0,17,17,17,4,0,4,0,,,,,,,,,,,,,,,,,,,,,,,,,,,,,,,,,,,,,,,,,,,,,,,,,,,,,,,,,,,,,,,,30,,,,,,,,970.3395731,970.3395731,970.3395731,970.3395731,970.3395731,up,2.311761199999637,5,1,0,99,0,-0.15999999999999998,up,2.222850699999981,,,,,,,,,,,,,,,,,,,,,,,,,,,,,,,,,,,,,,,,,,,,,,,,,,,,,,,,,,,,CXEYLX,train_y,red_square,top_left,2025-01-15_17h54.10.544,HideSeek_v1,2022.2.5,59.97857565274638,
,2,6,2,1,0,-5,11,,train_dim1_1,18,30,,,,2,0,2,0,,,,,,,,,0,0,0,0,0,17,17,17,5,0,5,0,,,,,,,,,,,,,,,,,,,,,,,,,,,,,,,,,,,,,,,,,,,,,,,,,,,,,,,,,,,,,,,,30,,,,,,,,972.6581055999995,972.6581055999995,972.6581055999995,972.6581055999995,972.6581055999995,up,0.3266282000004139,5,1,0,99,0,-0.07999999999999997,up,0.23785320000115462,,,,,,,,,,,,,,,,,,,,,,,,,,,,,,,,,,,,,,,,,,,,,,,,,,,,,,,,,,,,CXEYLX,train_y,red_square,top_left,2025-01-15_17h54.10.544,HideSeek_v1,2022.2.5,59.97857565274638,
,2,6,2,1,0,-5,11,,train_dim1_1,18,30,,,,2,0,2,0,,,,,,,,,0,0,0,0,0,17,17,17,6,0,6,0,,,,,,,,,,,,,,,,,,,,,,,,,,,,,,,,,,,,,,,,,,,,,,,,,,,,,,,,,,,,,,,,30,,,,,,,,972.9921560999992,972.9921560999992,972.9921560999992,972.9921560999992,972.9921560999992,up,0.30997500000012224,5,1,0,99,0,2.7755575615628914e-17,up,0.2253368000010596,,,,,,,,,,,,,,,,,,,,,,,,,,,,,,,,,,,,,,,,,,,,,,,,,,,,,,,,,,,,CXEYLX,train_y,red_square,top_left,2025-01-15_17h54.10.544,HideSeek_v1,2022.2.5,59.97857565274638,
,2,6,2,1,0,-5,11,,train_dim1_1,18,30,,,,2,0,2,0,,,,,,,,,0,0,0,0,0,17,17,17,7,0,7,0,,,,,,,,,,,,,,,,,,,,,,,,,,,,,,,,,,,,,,,,,,,,,,,,,,,,,,,,,,,,,,,,30,,,,,,,,973.3078800999992,973.3078800999992,973.3078800999992,973.3078800999992,973.3078800999992,up,0.3600586000002295,5,1,0,99,0,0.08000000000000003,up,0.2781191000003673,,,,,,,,,,,,,,,,,,,,,,,,,,,,,,,,,,,,,,,,,,,,,,,,,,,,,,,,,,,,CXEYLX,train_y,red_square,top_left,2025-01-15_17h54.10.544,HideSeek_v1,2022.2.5,59.97857565274638,
,2,6,2,1,0,-5,11,,train_dim1_1,18,30,,,,2,0,2,0,,,,,,,,,0,0,0,0,0,17,17,17,8,0,8,0,,,,,,,,,,,,,,,,,,,,,,,,,,,,,,,,,,,,,,,,,,,,,,,,,,,,,,,,,,,,,,,,30,,,,,,,,973.6755354999996,973.6755354999996,973.6755354999996,973.6755354999996,973.6755354999996,right,1.1104637999997067,5,1,0,99,0.08,0.08000000000000003,right,1.0219409000001178,,,,,,,,,,,,,,,,,,,,,,,,,,,,,,,,,,,,,,,,,,,,,,,,,,,,,,,,,,,,CXEYLX,train_y,red_square,top_left,2025-01-15_17h54.10.544,HideSeek_v1,2022.2.5,59.97857565274638,
,2,6,2,1,0,-5,11,,train_dim1_1,18,30,,,,2,0,2,0,,,,,,,,,0,0,0,0,0,17,17,17,9,0,9,0,,,,,,,,,,,,,,,,,,,,,,,,,,,,,,,,,,,,,,,,,,,,,,,,,,,,,,,,,,,,,,,,30,,,,,,,,974.7933555,974.7933555,974.7933555,974.7933555,974.7933555,right,0.3600280999999086,5,1,0,99,0.16,0.08000000000000003,right,0.273775000000569,,,,,,,,,,,,,,,,,,,,,,,,,,,,,,,,,,,,,,,,,,,,,,,,,,,,,,,,,,,,CXEYLX,train_y,red_square,top_left,2025-01-15_17h54.10.544,HideSeek_v1,2022.2.5,59.97857565274638,
,2,6,2,1,0,-5,11,,train_dim1_1,18,30,,,,2,0,2,0,,,,,,,,,0,0,0,0,0,17,17,17,10,0,10,0,,,,,,,,,,,,,,,,,,,,,,,,,,,,,,,,,,,,,,,,,,,,,,,,,,,,,,,,,,,,,,,,30,,,,,,,,975.1607778999996,975.1607778999996,975.1607778999996,975.1607778999996,975.1607778999996,right,0.9273456999999325,5,1,0,99,0.24,0.08000000000000003,right,0.8475027000004047,,,,,,,,,,,,,,,,,,,,,,,,,,,,,,,,,,,,,,,,,,,,,,,,,,,,,,,,,,,,CXEYLX,train_y,red_square,top_left,2025-01-15_17h54.10.544,HideSeek_v1,2022.2.5,59.97857565274638,
,2,6,2,1,0,-5,11,,train_dim1_1,18,30,,,,2,0,2,0,,,,,,,,,0,0,0,0,0,17,17,17,11,0,11,0,,,,,,,,,,,,,,,,,,,,,,,,,,,,,,,,,,,,,,,,,,,,,,,,,,,,,,,,,,,,,,,,30,,,,,,,,976.0944327999996,976.0944327999996,976.0944327999996,976.0944327999996,976.0944327999996,right,0.8770319999994172,5,1,0,99,0.32,0.08000000000000003,right,0.7896637000003466,,,,,,,,,,,,,,,,,,,,,,,,,,,,,,,,,,,,,,,,,,,,,,,,,,,,,,,,,,,,CXEYLX,train_y,red_square,top_left,2025-01-15_17h54.10.544,HideSeek_v1,2022.2.5,59.97857565274638,
,2,6,2,1,0,-5,11,,train_dim1_1,18,30,,,,2,0,2,0,,,,,,,,,0,0,0,0,0,17,17,17,12,0,12,0,,,,,,,,,,,,,,,,,,,,,,,,,,,,,,,,,,,,,,,,,,,,,,,,,,,,,,,,,,,,,,,,30,,,,,,,,976.9781912999997,976.9781912999997,976.9781912999997,976.9781912999997,976.9781912999997,return,0.7936763999996401,5,0,0,0,0.32,0.08000000000000003,return,0.7138657000004969,-23,25,0.32,0.08000000000000003,,,,,,,,,,,,,,,,,,,,,,,,,,,,,,,,,,,,,,,,,,,,,,,,,,,,,,,,CXEYLX,train_y,red_square,top_left,2025-01-15_17h54.10.544,HideSeek_v1,2022.2.5,59.97857565274638,
,0,9,0,5,0,-4,12,,train_dim1_1,19,30,,,,2,0,2,0,,,,,,,,,0,0,0,0,0,18,18,18,0,0,0,0,,,,,,,,,,,,,,,,,,,,,,,,,stimuli/alien_stimuli/12.png,,,,,,,,,,,,,,,,,,,,,,,,,,,,,stimuli/alien_stimuli/11.png,11,2,20,,,,,,,30,,,,,,,,984.4107481000001,984.4107481000001,984.4107481000001,984.4107481000001,984.4107481000001,down,5.657238099999631,5,0,0,99,-0.16,0.24,down,5.575750200000584,,,,,982.8481346999997,984.4107481000001,0,-0.32,0.4,0.0,-0.12,0,0.0,0,-0.32,979.3463089999996,979.3463089999996,979.3463089999996,979.3463089999996,979.3463089999996,979.3463089999996,979.3463089999996,979.3463089999996,979.3454640599997,3.6220798000003924,return,3.480512300000555,,,,,,,,,,,,,,,,,,,,,,,,,,,,,,,,,CXEYLX,train_y,red_square,top_left,2025-01-15_17h54.10.544,HideSeek_v1,2022.2.5,59.97857565274638,
,0,9,0,5,0,-4,12,,train_dim1_1,19,30,,,,2,0,2,0,,,,,,,,,0,0,0,0,0,18,18,18,1,0,1,0,,,,,,,,,,,,,,,,,,,,,,,,,,,,,,,,,,,,,,,,,,,,,,,,,,,,,,,,,,,,,,,,30,,,,,,,,990.0740356999995,990.0740356999995,990.0740356999995,990.0740356999995,990.0740356999995,down,1.3607134999992923,5,0,0,99,-0.16,0.15999999999999998,down,1.2736566000003222,,,,,,,,,,,,,,,,,,,,,,,,,,,,,,,,,,,,,,,,,,,,,,,,,,,,,,,,,,,,CXEYLX,train_y,red_square,top_left,2025-01-15_17h54.10.544,HideSeek_v1,2022.2.5,59.97857565274638,
,0,9,0,5,0,-4,12,,train_dim1_1,19,30,,,,2,0,2,0,,,,,,,,,0,0,0,0,0,18,18,18,2,0,2,0,,,,,,,,,,,,,,,,,,,,,,,,,,,,,,,,,,,,,,,,,,,,,,,,,,,,,,,,,,,,,,,,30,,,,,,,,991.4424528999998,991.4424528999998,991.4424528999998,991.4424528999998,991.4424528999998,down,0.8255386000000726,5,0,0,99,-0.16,0.07999999999999997,down,0.734826000000794,,,,,,,,,,,,,,,,,,,,,,,,,,,,,,,,,,,,,,,,,,,,,,,,,,,,,,,,,,,,CXEYLX,train_y,red_square,top_left,2025-01-15_17h54.10.544,HideSeek_v1,2022.2.5,59.97857565274638,
,0,9,0,5,0,-4,12,,train_dim1_1,19,30,,,,2,0,2,0,,,,,,,,,0,0,0,0,0,18,18,18,3,0,3,0,,,,,,,,,,,,,,,,,,,,,,,,,,,,,,,,,,,,,,,,,,,,,,,,,,,,,,,,,,,,,,,,30,,,,,,,,992.2743272999996,992.2743272999996,992.2743272999996,992.2743272999996,992.2743272999996,down,0.8437054000005446,5,0,0,99,-0.16,-2.7755575615628914e-17,down,0.7661164000001008,,,,,,,,,,,,,,,,,,,,,,,,,,,,,,,,,,,,,,,,,,,,,,,,,,,,,,,,,,,,CXEYLX,train_y,red_square,top_left,2025-01-15_17h54.10.544,HideSeek_v1,2022.2.5,59.97857565274638,
,0,9,0,5,0,-4,12,,train_dim1_1,19,30,,,,2,0,2,0,,,,,,,,,0,0,0,0,0,18,18,18,4,0,4,0,,,,,,,,,,,,,,,,,,,,,,,,,,,,,,,,,,,,,,,,,,,,,,,,,,,,,,,,,,,,,,,,30,,,,,,,,993.1249233999997,993.1249233999997,993.1249233999997,993.1249233999997,993.1249233999997,down,0.8271052999998574,5,0,0,99,-0.16,-0.08000000000000003,down,0.7441487000005509,,,,,,,,,,,,,,,,,,,,,,,,,,,,,,,,,,,,,,,,,,,,,,,,,,,,,,,,,,,,CXEYLX,train_y,red_square,top_left,2025-01-15_17h54.10.544,HideSeek_v1,2022.2.5,59.97857565274638,
,0,9,0,5,0,-4,12,,train_dim1_1,19,30,,,,2,0,2,0,,,,,,,,,0,0,0,0,0,18,18,18,5,0,5,0,,,,,,,,,,,,,,,,,,,,,,,,,,,,,,,,,,,,,,,,,,,,,,,,,,,,,,,,,,,,,,,,30,,,,,,,,993.9601605999997,993.9601605999997,993.9601605999997,993.9601605999997,993.9601605999997,return,1.1603998000000502,5,1,0,0,-0.16,-0.08000000000000003,return,1.0662960000008752,-28,25,-0.16,-0.08000000000000003,,,,,,,,,,,,,,,,,,,,,,,,,,,,,,,,,,,,,,,,,,,,,,,,,,,,,,,,CXEYLX,train_y,red_square,top_left,2025-01-15_17h54.10.544,HideSeek_v1,2022.2.5,59.97857565274638,
,2,5,2,5,0,0,16,,train_dim1_1,20,30,,,,2,0,2,0,,,,,,,,,0,0,0,0,0,19,19,19,0,0,0,0,,,,,,,,,,,,,,,,,,,,,,,,,stimuli/alien_stimuli/16.png,,,,,,,,,,,,,,,,,,,,,,,,,,,,,stimuli/alien_stimuli/12.png,12,0,21,,,,,,,30,,,,,,,,999.8546939999997,999.8546939999997,999.8546939999997,999.8546939999997,999.8546939999997,down,4.005366200000026,5,1,0,99,0,-0.08,down,3.920522700001129,,,,,998.2946464999995,999.8546939999997,-0.16,0,0.32,0.0,0.16,-0.16,-0.16,-0.16,0,996.6926748999995,996.6926748999995,996.6926748999995,996.6926748999995,996.6926748999995,996.6926748999995,996.6926748999995,996.6926748999995,996.6934182600002,1.7201623000000836,return,1.5786027000003742,,,,,,,,,,,,,,,,,,,,,,,,,,,,,,,,,CXEYLX,train_y,red_square,top_left,2025-01-15_17h54.10.544,HideSeek_v1,2022.2.5,59.97857565274638,
,2,5,2,5,0,0,16,,train_dim1_1,20,30,,,,2,0,2,0,,,,,,,,,0,0,0,0,0,19,19,19,1,0,1,0,,,,,,,,,,,,,,,,,,,,,,,,,,,,,,,,,,,,,,,,,,,,,,,,,,,,,,,,,,,,,,,,30,,,,,,,,1003.8676608999995,1003.8676608999995,1003.8676608999995,1003.8676608999995,1003.8676608999995,return,1.0263567000001785,5,1,0,0,0,-0.08,return,0.9475951000003988,-29,25,0,-0.08,,,,,,,,,,,,,,,,,,,,,,,,,,,,,,,,,,,,,,,,,,,,,,,,,,,,,,,,CXEYLX,train_y,red_square,top_left,2025-01-15_17h54.10.544,HideSeek_v1,2022.2.5,59.97857565274638,
,2,9,2,8,0,-1,15,,train_dim1_1,21,30,,,,2,0,2,0,,,,,,,,,0,0,0,0,0,20,20,20,0,0,0,0,,,,,,,,,,,,,,,,,,,,,,,,,stimuli/alien_stimuli/15.png,,,,,,,,,,,,,,,,,,,,,,,,,,,,,stimuli/alien_stimuli/16.png,16,2,22,,,,,,,30,,,,,,,,1009.4932019999997,1009.4932019999997,1009.4932019999997,1009.4932019999997,1009.4932019999997,down,1.7063290999994933,5,1,0,99,0,0.24,down,1.6200338000007832,,,,,1007.9362363999999,1009.4932019999997,0,0,0.0,0.0,0.0,0,0.0,0,0,1006.4498082999999,1006.4498082999999,1006.4498082999999,1006.4498082999999,1006.4498082999999,1006.4498082999999,1006.4498082999999,1006.4498082999999,1006.4516644399996,1.5871547999995528,return,1.465815700001258,,,,,,,,,,,,,,,,,,,,,,,,,,,,,,,,,CXEYLX,train_y,red_square,top_left,2025-01-15_17h54.10.544,HideSeek_v1,2022.2.5,59.97857565274638,
,2,9,2,8,0,-1,15,,train_dim1_1,21,30,,,,2,0,2,0,,,,,,,,,0,0,0,0,0,20,20,20,1,0,1,0,,,,,,,,,,,,,,,,,,,,,,,,,,,,,,,,,,,,,,,,,,,,,,,,,,,,,,,,,,,,,,,,30,,,,,,,,1011.2093222999993,1011.2093222999993,1011.2093222999993,1011.2093222999993,1011.2093222999993,return,0.6931636000008439,6,0,0,1,0,0.24,return,0.6121513000007326,-30,25,0,0.24,,,,,,,,,,,,,,,,,,,,,,,,,,,,,,,,,,,,,,,,,,,,,,,,,,,,,,,,CXEYLX,train_y,red_square,top_left,2025-01-15_17h54.10.544,HideSeek_v1,2022.2.5,59.97857565274638,
,0,7,0,4,0,-3,13,,train_dim1_1,22,30,,,,2,0,2,0,,,,,,,,,0,0,0,0,0,21,21,21,0,0,0,0,,,,,,,,,,,,,,,,,,,,,,,,,stimuli/alien_stimuli/13.png,,,,,,,,,,,,,,,,,,,,,,,,,,,,,stimuli/alien_stimuli/15.png,15,2,23,,,,,,,30,,,,,,,,1016.3979764999995,1016.3979764999995,1016.3979764999995,1016.3979764999995,1016.3979764999995,down,3.4752270999997563,6,0,0,99,-0.16,0.08,down,3.3858906000004936,,,,,1014.8415513,1016.3979764999995,0,0.24,0.08,0.0,0.28,0,0.0,0,0.24,1013.4565661999995,1013.4565661999995,1013.4565661999995,1013.4565661999995,1013.4565661999995,1013.4565661999995,1013.4565661999995,1013.4565661999995,1013.4574890399995,1.4868407000003572,return,1.3662611000008837,,,,,,,,,,,,,,,,,,,,,,,,,,,,,,,,,CXEYLX,train_y,red_square,top_left,2025-01-15_17h54.10.544,HideSeek_v1,2022.2.5,59.97857565274638,
,0,7,0,4,0,-3,13,,train_dim1_1,22,30,,,,2,0,2,0,,,,,,,,,0,0,0,0,0,21,21,21,1,0,1,0,,,,,,,,,,,,,,,,,,,,,,,,,,,,,,,,,,,,,,,,,,,,,,,,,,,,,,,,,,,,,,,,30,,,,,,,,1019.8804366999993,1019.8804366999993,1019.8804366999993,1019.8804366999993,1019.8804366999993,down,0.6097215999998298,6,0,0,99,-0.16,0.0,down,0.5193075000006502,,,,,,,,,,,,,,,,,,,,,,,,,,,,,,,,,,,,,,,,,,,,,,,,,,,,,,,,,,,,CXEYLX,train_y,red_square,top_left,2025-01-15_17h54.10.544,HideSeek_v1,2022.2.5,59.97857565274638,
,0,7,0,4,0,-3,13,,train_dim1_1,22,30,,,,2,0,2,0,,,,,,,,,0,0,0,0,0,21,21,21,2,0,2,0,,,,,,,,,,,,,,,,,,,,,,,,,,,,,,,,,,,,,,,,,,,,,,,,,,,,,,,,,,,,,,,,30,,,,,,,,1020.4975993999997,1020.4975993999997,1020.4975993999997,1020.4975993999997,1020.4975993999997,down,0.6435461000000942,6,0,0,99,-0.16,-0.08,down,0.5534753000010824,,,,,,,,,,,,,,,,,,,,,,,,,,,,,,,,,,,,,,,,,,,,,,,,,,,,,,,,,,,,CXEYLX,train_y,red_square,top_left,2025-01-15_17h54.10.544,HideSeek_v1,2022.2.5,59.97857565274638,
,0,7,0,4,0,-3,13,,train_dim1_1,22,30,,,,2,0,2,0,,,,,,,,,0,0,0,0,0,21,21,21,3,0,3,0,,,,,,,,,,,,,,,,,,,,,,,,,,,,,,,,,,,,,,,,,,,,,,,,,,,,,,,,,,,,,,,,30,,,,,,,,1021.1476912999997,1021.1476912999997,1021.1476912999997,1021.1476912999997,1021.1476912999997,down,0.7268822999994882,6,0,0,99,-0.16,-0.16,down,0.639578000000256,,,,,,,,,,,,,,,,,,,,,,,,,,,,,,,,,,,,,,,,,,,,,,,,,,,,,,,,,,,,CXEYLX,train_y,red_square,top_left,2025-01-15_17h54.10.544,HideSeek_v1,2022.2.5,59.97857565274638,
,0,7,0,4,0,-3,13,,train_dim1_1,22,30,,,,2,0,2,0,,,,,,,,,0,0,0,0,0,21,21,21,4,0,4,0,,,,,,,,,,,,,,,,,,,,,,,,,,,,,,,,,,,,,,,,,,,,,,,,,,,,,,,,,,,,,,,,30,,,,,,,,1021.8815992999998,1021.8815992999998,1021.8815992999998,1021.8815992999998,1021.8815992999998,return,1.4440488999998706,6,1,0,0,-0.16,-0.16,return,1.363462199999958,-34,25,-0.16,-0.16,,,,,,,,,,,,,,,,,,,,,,,,,,,,,,,,,,,,,,,,,,,,,,,,,,,,,,,,CXEYLX,train_y,red_square,top_left,2025-01-15_17h54.10.544,HideSeek_v1,2022.2.5,59.97857565274638,
,0,8,0,3,0,-5,11,,train_dim1_1,23,30,,,,2,0,2,0,,,,,,,,,0,0,0,0,0,22,22,22,0,0,0,0,,,,,,,,,,,,,,,,,,,,,,,,,stimuli/alien_stimuli/11.png,,,,,,,,,,,,,,,,,,,,,,,,,,,,,stimuli/alien_stimuli/13.png,13,0,24,,,,,,,30,,,,,,,,1027.761493,1027.761493,1027.761493,1027.761493,1027.761493,right,4.256112699999903,6,1,0,99,-0.08,0.24,right,4.16805530000056,,,,,1026.2011441999994,1027.761493,-0.16,-0.08,0.24,0.0,0.04,-0.16,-0.16,-0.16,-0.08,1024.8967798999993,1024.8967798999993,1024.8967798999993,1024.8967798999993,1024.8967798999993,1024.8967798999993,1024.8967798999993,1024.8967798999993,1024.88352334,1.4198616000003312,return,1.2835267000000385,,,,,,,,,,,,,,,,,,,,,,,,,,,,,,,,,CXEYLX,train_y,red_square,top_left,2025-01-15_17h54.10.544,HideSeek_v1,2022.2.5,59.97857565274638,
,0,8,0,3,0,-5,11,,train_dim1_1,23,30,,,,2,0,2,0,,,,,,,,,0,0,0,0,0,22,22,22,1,0,1,0,,,,,,,,,,,,,,,,,,,,,,,,,,,,,,,,,,,,,,,,,,,,,,,,,,,,,,,,,,,,,,,,30,,,,,,,,1032.0247910999997,1032.0247910999997,1032.0247910999997,1032.0247910999997,1032.0247910999997,right,1.2605204999999842,6,1,0,99,0.0,0.24,right,1.1762158000001364,,,,,,,,,,,,,,,,,,,,,,,,,,,,,,,,,,,,,,,,,,,,,,,,,,,,,,,,,,,,CXEYLX,train_y,red_square,top_left,2025-01-15_17h54.10.544,HideSeek_v1,2022.2.5,59.97857565274638,
,0,8,0,3,0,-5,11,,train_dim1_1,23,30,,,,2,0,2,0,,,,,,,,,0,0,0,0,0,22,22,22,2,0,2,0,,,,,,,,,,,,,,,,,,,,,,,,,,,,,,,,,,,,,,,,,,,,,,,,,,,,,,,,,,,,,,,,30,,,,,,,,1033.2915479999992,1033.2915479999992,1033.2915479999992,1033.2915479999992,1033.2915479999992,right,1.344025999999758,6,1,0,99,0.08,0.24,right,1.256961300000512,,,,,,,,,,,,,,,,,,,,,,,,,,,,,,,,,,,,,,,,,,,,,,,,,,,,,,,,,,,,CXEYLX,train_y,red_square,top_left,2025-01-15_17h54.10.544,HideSeek_v1,2022.2.5,59.97857565274638,
,0,8,0,3,0,-5,11,,train_dim1_1,23,30,,,,2,0,2,0,,,,,,,,,0,0,0,0,0,22,22,22,3,0,3,0,,,,,,,,,,,,,,,,,,,,,,,,,,,,,,,,,,,,,,,,,,,,,,,,,,,,,,,,,,,,,,,,30,,,,,,,,1034.6421573999996,1034.6421573999996,1034.6421573999996,1034.6421573999996,1034.6421573999996,right,1.2276041000004625,6,1,0,99,0.16,0.24,right,1.1512255000006917,,,,,,,,,,,,,,,,,,,,,,,,,,,,,,,,,,,,,,,,,,,,,,,,,,,,,,,,,,,,CXEYLX,train_y,red_square,top_left,2025-01-15_17h54.10.544,HideSeek_v1,2022.2.5,59.97857565274638,
,0,8,0,3,0,-5,11,,train_dim1_1,23,30,,,,2,0,2,0,,,,,,,,,0,0,0,0,0,22,22,22,4,0,4,0,,,,,,,,,,,,,,,,,,,,,,,,,,,,,,,,,,,,,,,,,,,,,,,,,,,,,,,,,,,,,,,,30,,,,,,,,1035.8779940999993,1035.8779940999993,1035.8779940999993,1035.8779940999993,1035.8779940999993,return,0.9933085000002393,6,0,0,0,0.16,0.24,return,0.9081672000002072,-34,29,0.16,0.24,,,,,,,,,,,,,,,,,,,,,,,,,,,,,,,,,,,,,,,,,,,,,,,,,,,,,,,,CXEYLX,train_y,red_square,top_left,2025-01-15_17h54.10.544,HideSeek_v1,2022.2.5,59.97857565274638,
,3,7,3,7,0,0,16,,train_dim1_1,24,30,,,,2,0,2,0,,,,,,,,,0,0,0,0,0,23,23,23,0,0,0,0,,,,,,,,,,,,,,,,,,,,,,,,,stimuli/alien_stimuli/16.png,,,,,,,,,,,,,,,,,,,,,,,,,,,,,stimuli/alien_stimuli/11.png,11,0,25,,,,,,,30,,,,,,,,1041.1200411,1041.1200411,1041.1200411,1041.1200411,1041.1200411,return,4.341934500000207,7,0,0,1,0.08,0.16,return,4.251729100000375,-34,29,0.08,0.16,1039.5623078999997,1041.1200411,-0.16,-0.16,0.4,0.0,0.039999999999999994,-0.16,-0.16,-0.16,-0.16,1038.4451489999992,1038.4451489999992,1038.4451489999992,1038.4451489999992,1038.4451489999992,1038.4451489999992,1038.4451489999992,1038.4451489999992,1038.4447688599996,1.2364803999998912,return,1.0969749000005322,,,,,,,,,,,,,,,,,,,,,,,,,,,,,,,,,CXEYLX,train_y,red_square,top_left,2025-01-15_17h54.10.544,HideSeek_v1,2022.2.5,59.97857565274638,
,3,8,3,4,0,-4,12,,train_dim1_1,25,30,,,,2,0,2,0,,,,,,,,,0,0,0,0,0,24,24,24,0,0,0,0,,,,,,,,,,,,,,,,,,,,,,,,,stimuli/alien_stimuli/12.png,,,,,,,,,,,,,,,,,,,,,,,,,,,,,stimuli/alien_stimuli/16.png,16,3,26,,,,,,,30,,,,,,,,1051.8819018999993,1051.8819018999993,1051.8819018999993,1051.8819018999993,1051.8819018999993,down,2.6894408999996813,7,0,0,99,0.08,0.15999999999999998,down,2.6015996000005543,,,,,1050.3212832999998,1051.8819018999993,0.08,0.16,0.0,0.0,0.16,0.08,0.08,0.08,0.16,1047.0197715999993,1047.0197715999993,1047.0197715999993,1047.0197715999993,1047.0197715999993,1047.0197715999993,1047.0197715999993,1047.0197715999993,1047.01845774,3.40519200000017,return,3.284424100000251,,,,,,,,,,,,,,,,,,,,,,,,,,,,,,,,,CXEYLX,train_y,red_square,top_left,2025-01-15_17h54.10.544,HideSeek_v1,2022.2.5,59.97857565274638,
,3,8,3,4,0,-4,12,,train_dim1_1,25,30,,,,2,0,2,0,,,,,,,,,0,0,0,0,0,24,24,24,1,0,1,0,,,,,,,,,,,,,,,,,,,,,,,,,,,,,,,,,,,,,,,,,,,,,,,,,,,,,,,,,,,,,,,,30,,,,,,,,1054.5781420999992,1054.5781420999992,1054.5781420999992,1054.5781420999992,1054.5781420999992,down,0.6929277999997794,7,0,0,99,0.08,0.07999999999999997,down,0.6037872000006246,,,,,,,,,,,,,,,,,,,,,,,,,,,,,,,,,,,,,,,,,,,,,,,,,,,,,,,,,,,,CXEYLX,train_y,red_square,top_left,2025-01-15_17h54.10.544,HideSeek_v1,2022.2.5,59.97857565274638,
,3,8,3,4,0,-4,12,,train_dim1_1,25,30,,,,2,0,2,0,,,,,,,,,0,0,0,0,0,24,24,24,2,0,2,0,,,,,,,,,,,,,,,,,,,,,,,,,,,,,,,,,,,,,,,,,,,,,,,,,,,,,,,,,,,,,,,,30,,,,,,,,1055.2759686,1055.2759686,1055.2759686,1055.2759686,1055.2759686,down,0.5436736999999994,7,0,0,99,0.08,-2.7755575615628914e-17,down,0.4628705000004629,,,,,,,,,,,,,,,,,,,,,,,,,,,,,,,,,,,,,,,,,,,,,,,,,,,,,,,,,,,,CXEYLX,train_y,red_square,top_left,2025-01-15_17h54.10.544,HideSeek_v1,2022.2.5,59.97857565274638,
,3,8,3,4,0,-4,12,,train_dim1_1,25,30,,,,2,0,2,0,,,,,,,,,0,0,0,0,0,24,24,24,3,0,3,0,,,,,,,,,,,,,,,,,,,,,,,,,,,,,,,,,,,,,,,,,,,,,,,,,,,,,,,,,,,,,,,,30,,,,,,,,1055.82924,1055.82924,1055.82924,1055.82924,1055.82924,down,0.5242267000003267,7,0,0,99,0.08,-0.08000000000000003,down,0.4322064000007231,,,,,,,,,,,,,,,,,,,,,,,,,,,,,,,,,,,,,,,,,,,,,,,,,,,,,,,,,,,,CXEYLX,train_y,red_square,top_left,2025-01-15_17h54.10.544,HideSeek_v1,2022.2.5,59.97857565274638,
,3,8,3,4,0,-4,12,,train_dim1_1,25,30,,,,2,0,2,0,,,,,,,,,0,0,0,0,0,24,24,24,4,0,4,0,,,,,,,,,,,,,,,,,,,,,,,,,,,,,,,,,,,,,,,,,,,,,,,,,,,,,,,,,,,,,,,,30,,,,,,,,1056.3611891,1056.3611891,1056.3611891,1056.3611891,1056.3611891,return,1.7776617999998052,8,0,0,1,0.08,-0.08000000000000003,return,1.6845084000005954,-38,29,0.08,-0.08000000000000003,,,,,,,,,,,,,,,,,,,,,,,,,,,,,,,,,,,,,,,,,,,,,,,,,,,,,,,,CXEYLX,train_y,red_square,top_left,2025-01-15_17h54.10.544,HideSeek_v1,2022.2.5,59.97857565274638,
,4,9,4,6,0,-3,13,,train_dim1_1,26,30,,,,2,0,2,0,,,,,,,,,0,0,0,0,0,25,25,25,0,0,0,0,,,,,,,,,,,,,,,,,,,,,,,,,stimuli/alien_stimuli/13.png,,,,,,,,,,,,,,,,,,,,,,,,,,,,,stimuli/alien_stimuli/12.png,12,3,27,,,,,,,30,,,,,,,,1063.2891691999994,1063.2891691999994,1063.2891691999994,1063.2891691999994,1063.2891691999994,right,3.4900411000007807,8,0,0,99,0.24,0.32,right,3.397190400000909,,,,,1061.7307861,1063.2891691999994,0.08,-0.08,0.32,0.0,0.07999999999999999,0.08,0.08,0.08,-0.08,1059.715507,1059.715507,1059.715507,1059.715507,1059.715507,1059.715507,1059.715507,1059.715507,1059.71250746,2.137433400000191,return,1.9979509000004327,,,,,,,,,,,,,,,,,,,,,,,,,,,,,,,,,CXEYLX,train_y,red_square,top_left,2025-01-15_17h54.10.544,HideSeek_v1,2022.2.5,59.97857565274638,
,4,9,4,6,0,-3,13,,train_dim1_1,26,30,,,,2,0,2,0,,,,,,,,,0,0,0,0,0,25,25,25,1,0,1,0,,,,,,,,,,,,,,,,,,,,,,,,,,,,,,,,,,,,,,,,,,,,,,,,,,,,,,,,,,,,,,,,30,,,,,,,,1066.7857668999995,1066.7857668999995,1066.7857668999995,1066.7857668999995,1066.7857668999995,right,0.4929849000000104,8,0,0,99,0.32,0.32,right,0.40383100000053673,,,,,,,,,,,,,,,,,,,,,,,,,,,,,,,,,,,,,,,,,,,,,,,,,,,,,,,,,,,,CXEYLX,train_y,red_square,top_left,2025-01-15_17h54.10.544,HideSeek_v1,2022.2.5,59.97857565274638,
,4,9,4,6,0,-3,13,,train_dim1_1,26,30,,,,2,0,2,0,,,,,,,,,0,0,0,0,0,25,25,25,2,0,2,0,,,,,,,,,,,,,,,,,,,,,,,,,,,,,,,,,,,,,,,,,,,,,,,,,,,,,,,,,,,,,,,,30,,,,,,,,1067.2860943999995,1067.2860943999995,1067.2860943999995,1067.2860943999995,1067.2860943999995,right,0.46021529999961786,8,0,0,99,0.4,0.32,right,0.3710149000007732,,,,,,,,,,,,,,,,,,,,,,,,,,,,,,,,,,,,,,,,,,,,,,,,,,,,,,,,,,,,CXEYLX,train_y,red_square,top_left,2025-01-15_17h54.10.544,HideSeek_v1,2022.2.5,59.97857565274638,
,4,9,4,6,0,-3,13,,train_dim1_1,26,30,,,,2,0,2,0,,,,,,,,,0,0,0,0,0,25,25,25,3,0,3,0,,,,,,,,,,,,,,,,,,,,,,,,,,,,,,,,,,,,,,,,,,,,,,,,,,,,,,,,,,,,,,,,30,,,,,,,,1067.7534704,1067.7534704,1067.7534704,1067.7534704,1067.7534704,right,1.0773684999994657,8,0,0,99,0.48000000000000004,0.32,right,0.9876143000010416,,,,,,,,,,,,,,,,,,,,,,,,,,,,,,,,,,,,,,,,,,,,,,,,,,,,,,,,,,,,CXEYLX,train_y,red_square,top_left,2025-01-15_17h54.10.544,HideSeek_v1,2022.2.5,59.97857565274638,
,4,9,4,6,0,-3,13,,train_dim1_1,26,30,,,,2,0,2,0,,,,,,,,,0,0,0,0,0,25,25,25,4,0,4,0,,,,,,,,,,,,,,,,,,,,,,,,,,,,,,,,,,,,,,,,,,,,,,,,,,,,,,,,,,,,,,,,30,,,,,,,,1068.8374409999997,1068.8374409999997,1068.8374409999997,1068.8374409999997,1068.8374409999997,return,0.7102413000002343,8,0,0,0,0.48000000000000004,0.32,return,0.6305621000010433,-38,33,0.48000000000000004,0.32,,,,,,,,,,,,,,,,,,,,,,,,,,,,,,,,,,,,,,,,,,,,,,,,,,,,,,,,CXEYLX,train_y,red_square,top_left,2025-01-15_17h54.10.544,HideSeek_v1,2022.2.5,59.97857565274638,
,3,9,3,9,0,0,16,,train_dim1_1,27,30,,,,2,0,2,0,,,,,,,,,0,0,0,0,0,26,26,26,0,0,0,0,,,,,,,,,,,,,,,,,,,,,,,,,stimuli/alien_stimuli/16.png,,,,,,,,,,,,,,,,,,,,,,,,,,,,,stimuli/alien_stimuli/13.png,13,4,28,,,,,,,30,,,,,,,,1073.8495475999998,1073.8495475999998,1073.8495475999998,1073.8495475999998,1073.8495475999998,return,2.3721514999997453,9,0,0,1,0.08,0.32,return,2.2777726000003895,-38,33,0.08,0.32,1072.2895071999992,1073.8495475999998,0.16,0.08,0.24,0.0,0.2,0.16,0.16,0.16,0.08,1071.1169461,1071.1169461,1071.1169461,1071.1169461,1071.1169461,1071.1169461,1071.1169461,1071.1169461,1071.1052266399997,1.2865570000003572,return,1.1482717000008051,,,,,,,,,,,,,,,,,,,,,,,,,,,,,,,,,CXEYLX,train_y,red_square,top_left,2025-01-15_17h54.10.544,HideSeek_v1,2022.2.5,59.97857565274638,
,4,6,4,1,0,-5,11,,train_dim1_1,28,30,,,,2,0,2,0,,,,,,,,,0,0,0,0,0,27,27,27,0,0,0,0,,,,,,,,,,,,,,,,,,,,,,,,,stimuli/alien_stimuli/11.png,,,,,,,,,,,,,,,,,,,,,,,,,,,,,stimuli/alien_stimuli/16.png,16,3,29,,,,,,,30,,,,,,,,1082.1218116,1082.1218116,1082.1218116,1082.1218116,1082.1218116,down,3.1244894000001295,9,0,0,99,0.16,0.0,down,3.038363499999832,,,,,1080.5631094999999,1082.1218116,0.08,0.32,0.0,0.0,0.32,0.08,0.08,0.08,0.32,1077.7764134,1077.7764134,1077.7764134,1077.7764134,1077.7764134,1077.7764134,1077.7764134,1077.7764134,1077.7773413399996,2.8879753000001074,return,2.7566242000002603,,,,,,,,,,,,,,,,,,,,,,,,,,,,,,,,,CXEYLX,train_y,red_square,top_left,2025-01-15_17h54.10.544,HideSeek_v1,2022.2.5,59.97857565274638,
,4,6,4,1,0,-5,11,,train_dim1_1,28,30,,,,2,0,2,0,,,,,,,,,0,0,0,0,0,27,27,27,1,0,1,0,,,,,,,,,,,,,,,,,,,,,,,,,,,,,,,,,,,,,,,,,,,,,,,,,,,,,,,,,,,,,,,,30,,,,,,,,1085.2515237999996,1085.2515237999996,1085.2515237999996,1085.2515237999996,1085.2515237999996,down,0.8435183000001416,9,0,0,99,0.16,-0.08,down,0.7551502000005712,,,,,,,,,,,,,,,,,,,,,,,,,,,,,,,,,,,,,,,,,,,,,,,,,,,,,,,,,,,,CXEYLX,train_y,red_square,top_left,2025-01-15_17h54.10.544,HideSeek_v1,2022.2.5,59.97857565274638,
,4,6,4,1,0,-5,11,,train_dim1_1,28,30,,,,2,0,2,0,,,,,,,,,0,0,0,0,0,27,27,27,2,0,2,0,,,,,,,,,,,,,,,,,,,,,,,,,,,,,,,,,,,,,,,,,,,,,,,,,,,,,,,,,,,,,,,,30,,,,,,,,1086.1029657,1086.1029657,1086.1029657,1086.1029657,1086.1029657,down,0.9272672999995848,9,0,0,99,0.16,-0.16,down,0.8331426000004285,,,,,,,,,,,,,,,,,,,,,,,,,,,,,,,,,,,,,,,,,,,,,,,,,,,,,,,,,,,,CXEYLX,train_y,red_square,top_left,2025-01-15_17h54.10.544,HideSeek_v1,2022.2.5,59.97857565274638,
,4,6,4,1,0,-5,11,,train_dim1_1,28,30,,,,2,0,2,0,,,,,,,,,0,0,0,0,0,27,27,27,3,0,3,0,,,,,,,,,,,,,,,,,,,,,,,,,,,,,,,,,,,,,,,,,,,,,,,,,,,,,,,,,,,,,,,,30,,,,,,,,1087.0359879999996,1087.0359879999996,1087.0359879999996,1087.0359879999996,1087.0359879999996,down,0.8767748000000211,9,0,0,99,0.16,-0.24,down,0.7946557000004759,,,,,,,,,,,,,,,,,,,,,,,,,,,,,,,,,,,,,,,,,,,,,,,,,,,,,,,,,,,,CXEYLX,train_y,red_square,top_left,2025-01-15_17h54.10.544,HideSeek_v1,2022.2.5,59.97857565274638,
,4,6,4,1,0,-5,11,,train_dim1_1,28,30,,,,2,0,2,0,,,,,,,,,0,0,0,0,0,27,27,27,4,0,4,0,,,,,,,,,,,,,,,,,,,,,,,,,,,,,,,,,,,,,,,,,,,,,,,,,,,,,,,,,,,,,,,,30,,,,,,,,1087.9194159999997,1087.9194159999997,1087.9194159999997,1087.9194159999997,1087.9194159999997,return,1.8445833000005223,9,1,0,0,0.16,-0.24,return,1.7541462000008323,-42,33,0.16,-0.24,,,,,,,,,,,,,,,,,,,,,,,,,,,,,,,,,,,,,,,,,,,,,,,,,,,,,,,,CXEYLX,train_y,red_square,top_left,2025-01-15_17h54.10.544,HideSeek_v1,2022.2.5,59.97857565274638,
,2,7,2,3,0,-4,12,,train_dim1_1,29,30,,,,2,0,2,0,,,,,,,,,0,0,0,0,0,28,28,28,0,0,0,0,,,,,,,,,,,,,,,,,,,,,,,,,stimuli/alien_stimuli/12.png,,,,,,,,,,,,,,,,,,,,,,,,,,,,,stimuli/alien_stimuli/11.png,11,4,30,,,,,,,30,,,,,,,,1094.1977090999999,1094.1977090999999,1094.1977090999999,1094.1977090999999,1094.1977090999999,right,2.373517900000479,9,1,0,99,0.08,0.16,right,2.290631700000631,,,,,1092.6397455999995,1094.1977090999999,0.16,-0.32,0.4,0.0,-0.12,0.16,0.16,0.16,-0.32,1091.3376136999996,1091.3376136999996,1091.3376136999996,1091.3376136999996,1091.3376136999996,1091.3376136999996,1091.3376136999996,1091.3376136999996,1091.33861636,1.4199146999999357,return,1.2749607000005199,,,,,,,,,,,,,,,,,,,,,,,,,,,,,,,,,CXEYLX,train_y,red_square,top_left,2025-01-15_17h54.10.544,HideSeek_v1,2022.2.5,59.97857565274638,
,2,7,2,3,0,-4,12,,train_dim1_1,29,30,,,,2,0,2,0,,,,,,,,,0,0,0,0,0,28,28,28,1,0,1,0,,,,,,,,,,,,,,,,,,,,,,,,,,,,,,,,,,,,,,,,,,,,,,,,,,,,,,,,,,,,,,,,30,,,,,,,,1096.5785606,1096.5785606,1096.5785606,1096.5785606,1096.5785606,right,0.4934587999996438,9,1,0,99,0.16,0.16,right,0.40551090000008116,,,,,,,,,,,,,,,,,,,,,,,,,,,,,,,,,,,,,,,,,,,,,,,,,,,,,,,,,,,,CXEYLX,train_y,red_square,top_left,2025-01-15_17h54.10.544,HideSeek_v1,2022.2.5,59.97857565274638,
,2,7,2,3,0,-4,12,,train_dim1_1,29,30,,,,2,0,2,0,,,,,,,,,0,0,0,0,0,28,28,28,2,0,2,0,,,,,,,,,,,,,,,,,,,,,,,,,,,,,,,,,,,,,,,,,,,,,,,,,,,,,,,,,,,,,,,,30,,,,,,,,1097.0788935,1097.0788935,1097.0788935,1097.0788935,1097.0788935,right,0.4765936999992846,9,1,0,99,0.24,0.16,right,0.38756780000039726,,,,,,,,,,,,,,,,,,,,,,,,,,,,,,,,,,,,,,,,,,,,,,,,,,,,,,,,,,,,CXEYLX,train_y,red_square,top_left,2025-01-15_17h54.10.544,HideSeek_v1,2022.2.5,59.97857565274638,
,2,7,2,3,0,-4,12,,train_dim1_1,29,30,,,,2,0,2,0,,,,,,,,,0,0,0,0,0,28,28,28,3,0,3,0,,,,,,,,,,,,,,,,,,,,,,,,,,,,,,,,,,,,,,,,,,,,,,,,,,,,,,,,,,,,,,,,30,,,,,,,,1097.5636347999998,1097.5636347999998,1097.5636347999998,1097.5636347999998,1097.5636347999998,right,0.5104764999996405,9,1,0,99,0.32,0.16,right,0.43022170000040205,,,,,,,,,,,,,,,,,,,,,,,,,,,,,,,,,,,,,,,,,,,,,,,,,,,,,,,,,,,,CXEYLX,train_y,red_square,top_left,2025-01-15_17h54.10.544,HideSeek_v1,2022.2.5,59.97857565274638,
,2,7,2,3,0,-4,12,,train_dim1_1,29,30,,,,2,0,2,0,,,,,,,,,0,0,0,0,0,28,28,28,4,0,4,0,,,,,,,,,,,,,,,,,,,,,,,,,,,,,,,,,,,,,,,,,,,,,,,,,,,,,,,,,,,,,,,,30,,,,,,,,1098.0781167999994,1098.0781167999994,1098.0781167999994,1098.0781167999994,1098.0781167999994,right,1.5440405999997893,9,1,0,99,0.4,0.16,right,1.4589017000007516,,,,,,,,,,,,,,,,,,,,,,,,,,,,,,,,,,,,,,,,,,,,,,,,,,,,,,,,,,,,CXEYLX,train_y,red_square,top_left,2025-01-15_17h54.10.544,HideSeek_v1,2022.2.5,59.97857565274638,
,2,7,2,3,0,-4,12,,train_dim1_1,29,30,,,,2,0,2,0,,,,,,,,,0,0,0,0,0,28,28,28,5,0,5,0,,,,,,,,,,,,,,,,,,,,,,,,,,,,,,,,,,,,,,,,,,,,,,,,,,,,,,,,,,,,,,,,30,,,,,,,,1099.6300422999993,1099.6300422999993,1099.6300422999993,1099.6300422999993,1099.6300422999993,return,4.130031300000155,9,0,0,0,0.4,0.16,return,4.044126500000857,-42,38,0.4,0.16,,,,,,,,,,,,,,,,,,,,,,,,,,,,,,,,,,,,,,,,,,,,,,,,,,,,,,,,CXEYLX,train_y,red_square,top_left,2025-01-15_17h54.10.544,HideSeek_v1,2022.2.5,59.97857565274638,
,0,6,0,5,0,-1,15,,train_dim1_1,30,30,,,,2,0,2,0,,,,,,,,,0,0,0,0,0,29,29,29,0,0,0,0,,,,,,,,,,,,,,,,,,,,,,,,,stimuli/alien_stimuli/15.png,,,,,,,,,,,,,,,,,,,,,,,,,,,,,stimuli/alien_stimuli/12.png,12,2,31,,,,,,,30,,,,,,,,1108.3785905999994,1108.3785905999994,1108.3785905999994,1108.3785905999994,1108.3785905999994,right,2.3053632000001016,9,0,0,99,-0.08,0.08,right,2.2261121999999887,,,,,1106.8182526,1108.3785905999994,0,-0.16,0.32,0.0,0.0,0,0.0,0,-0.16,1105.3354128,1105.3354128,1105.3354128,1105.3354128,1105.3354128,1105.3354128,1105.3354128,1105.3354128,1105.3337245599998,1.603450000000521,return,1.4598907000008694,,,,,,,,,,,,,,,,,,,,,,,,,,,,,,,,,CXEYLX,train_y,red_square,top_left,2025-01-15_17h54.10.544,HideSeek_v1,2022.2.5,59.97857565274638,
,0,6,0,5,0,-1,15,,train_dim1_1,30,30,,,,2,0,2,0,,,,,,,,,0,0,0,0,0,29,29,29,1,0,1,0,,,,,,,,,,,,,,,,,,,,,,,,,,,,,,,,,,,,,,,,,,,,,,,,,,,,,,,,,,,,,,,,30,,,,,,,,1110.6896680999998,1110.6896680999998,1110.6896680999998,1110.6896680999998,1110.6896680999998,left,2.444794600000023,9,0,0,99,-0.16,0.08,left,2.3627322000002096,,,,,,,,,,,,,,,,,,,,,,,,,,,,,,,,,,,,,,,,,,,,,,,,,,,,,,,,,,,,CXEYLX,train_y,red_square,top_left,2025-01-15_17h54.10.544,HideSeek_v1,2022.2.5,59.97857565274638,
,0,6,0,5,0,-1,15,,train_dim1_1,30,30,,,,2,0,2,0,,,,,,,,,0,0,0,0,0,29,29,29,2,0,2,0,,,,,,,,,,,,,,,,,,,,,,,,,,,,,,,,,,,,,,,,,,,,,,,,,,,,,,,,,,,,,,,,30,,,,,,,,1113.1428614999995,1113.1428614999995,1113.1428614999995,1113.1428614999995,1113.1428614999995,down,0.7263446999995722,9,0,0,99,-0.16,0.0,down,0.6321123000006992,,,,,,,,,,,,,,,,,,,,,,,,,,,,,,,,,,,,,,,,,,,,,,,,,,,,,,,,,,,,CXEYLX,train_y,red_square,top_left,2025-01-15_17h54.10.544,HideSeek_v1,2022.2.5,59.97857565274638,
,0,6,0,5,0,-1,15,,train_dim1_1,30,30,,,,2,0,2,0,,,,,,,,,0,0,0,0,0,29,29,29,3,0,3,0,,,,,,,,,,,,,,,,,,,,,,,,,,,,,,,,,,,,,,,,,,,,,,,,,,,,,,,,,,,,,,,,30,,,,,,,,1113.8753910999994,1113.8753910999994,1113.8753910999994,1113.8753910999994,1113.8753910999994,return,0.6437218000000939,10,0,0,1,-0.16,0.0,return,0.5579095000002781,-43,38,-0.16,0.0,,,,,,,,,,,,,,,,,,,,,,,,,,,,,,,,,,,,,,,,,,,,,,,,,,,,,,,,CXEYLX,train_y,red_square,top_left,2025-01-15_17h54.10.544,HideSeek_v1,2022.2.5,59.97857565274638,
,,,,,,,,,,,30,,,,2,0,2,0,,,,,,,,,,,,,,,,,,,,,,,,,,,,,,,,,,,,,,,,,,,,,,,,,,,,,,,,,,,,,,,,,,,,,,,,,,stimuli/alien_stimuli/15.png,15,0,32,21,0.7,0.41666666666666674,1,1,1,30,0,conditions/schedules/train_y_first/red_square_00/top_left/inputTrain_2.1.xlsx,99,1,2,1,0,,,,,,,,,,,1,,,,,,,,,1117.8439911999994,1119.4036140999997,-0.16,0,0.08,0.0,0.04,-0.16,-0.16,-0.16,0,1116.0967200999994,1116.0967200999994,1116.0967200999994,1116.0967200999994,1116.0967200999994,1116.0967200999994,1116.0967200999994,1116.0967200999994,1116.0926978599994,1.8700841999998374,return,1.7188159000006635,0,0.9,0,1,10,,,,,,,,,,,,,,,,,,,,,,,,,,,,CXEYLX,train_y,red_square,top_left,2025-01-15_17h54.10.544,HideSeek_v1,2022.2.5,59.97857565274638,
,,,,,,,,,,,,,,,3,0,3,0,0,0,0,0,,,,,,,,,,,,,,,,,,,,,,,,,,,,,,,conditions/schedules/train_y_first/red_square_00/top_left/instructions/Slide17.png,conditions/schedules/train_y_first/red_square_00/top_left/instructions/Audio17.wav,1119.4036140999997,1119.39540548,17,"[4.352154600000176, 11.064815899999303, 16.435914000000594, 19.26333380000051, 5.0373811999998, 5.890048299999762, 5.305173299999296, 11.67613160000019, 5.971711199999845, 7.13632779999989, 10.485845499999414, 13.610351500000434, 42.186376499999824, 16.328889099999287, 44.13177600000017, 21.427373200000147, 45.37677650000023]","[0.0002884999994421378, 0.03508779999992839, 0.03143770000042423, 0.03362159999960568, 0.08532160000049771, 0.08396379999976489, 0.049612400000114576, 0.01403039999968314, 0.06418130000020028, 0.06374159999995754, 0.00020839999979216373, 13.610359100000096, 0.014351499999975204, 16.328896099999838, 0.0140027999996164, 21.427380000000085, 45.37678450000021]",0,,,,,,,,,,,,,,,,,,,,,,,,,,,,,,,,,,,,,,,,,,,,,,,,,,,,,,,,,,,,,,,,,,,,,,,,,,,,,,,,,,,,,,,,,,,,,,,,,,,,,,,,,,,,,,,,,,,,,,,,,,,,CXEYLX,train_y,red_square,top_left,2025-01-15_17h54.10.544,HideSeek_v1,2022.2.5,59.97857565274638,
,,,,,,,,,,,,,,,3,0,3,0,1,0,1,0,,,,,,,,,,,,,,,,,,,,,,,,,,,,,,,conditions/schedules/train_y_first/red_square_00/top_left/instructions/Slide18.png,conditions/schedules/train_y_first/red_square_00/top_left/instructions/Audio18.wav,1164.8494990999998,1164.8499647999997,18,"[4.352154600000176, 11.064815899999303, 16.435914000000594, 19.26333380000051, 5.0373811999998, 5.890048299999762, 5.305173299999296, 11.67613160000019, 5.971711199999845, 7.13632779999989, 10.485845499999414, 13.610351500000434, 42.186376499999824, 16.328889099999287, 44.13177600000017, 21.427373200000147, 45.37677650000023, 6.23614439999983]","[0.0002884999994421378, 0.03508779999992839, 0.03143770000042423, 0.03362159999960568, 0.08532160000049771, 0.08396379999976489, 0.049612400000114576, 0.01403039999968314, 0.06418130000020028, 0.06374159999995754, 0.00020839999979216373, 13.610359100000096, 0.014351499999975204, 16.328896099999838, 0.0140027999996164, 21.427380000000085, 0.014067199999772129, 6.236151600000085]",0,,,,,,,,,,,,,,,,,,,,,,,,,,,,,,,,,,,,,,,,,,,,,,,,,,,,,,,,,,,,,,,,,,,,,,,,,,,,,,,,,,,,,,,,,,,,,,,,,,,,,,,,,,,,,,,,,,,,,,,,,,,,CXEYLX,train_y,red_square,top_left,2025-01-15_17h54.10.544,HideSeek_v1,2022.2.5,59.97857565274638,
,,,,,,,,,,,,,,,3,0,3,0,2,0,2,0,,,,,,,,,,,,,,,,,,,,,,,,,,,,,,,conditions/schedules/train_y_first/red_square_00/top_left/instructions/Slide19.png,conditions/schedules/train_y_first/red_square_00/top_left/instructions/Audio19.wav,1171.1380036,1171.1383439799995,19,"[4.352154600000176, 11.064815899999303, 16.435914000000594, 19.26333380000051, 5.0373811999998, 5.890048299999762, 5.305173299999296, 11.67613160000019, 5.971711199999845, 7.13632779999989, 10.485845499999414, 13.610351500000434, 42.186376499999824, 16.328889099999287, 44.13177600000017, 21.427373200000147, 45.37677650000023, 6.23614439999983, 10.356653099999676]","[0.0002884999994421378, 0.03508779999992839, 0.03143770000042423, 0.03362159999960568, 0.08532160000049771, 0.08396379999976489, 0.049612400000114576, 0.01403039999968314, 0.06418130000020028, 0.06374159999995754, 0.00020839999979216373, 13.610359100000096, 0.014351499999975204, 16.328896099999838, 0.0140027999996164, 21.427380000000085, 0.014067199999772129, 0.03181620000032126, 10.356659799999761]",0,,,,,,,,,,,,,,,,,,,,,,,,,,,,,,,,,,,,,,,,,,,,,,,,,,,,,,,,,,,,,,,,,,,,,,,,,,,,,,,,,,,,,,,,,,,,,,,,,,,,,,,,,,,,,,,,,,,,,,,,,,,,CXEYLX,train_y,red_square,top_left,2025-01-15_17h54.10.544,HideSeek_v1,2022.2.5,59.97857565274638,
,,,,,,,,,,,,,,,3,0,3,0,3,0,3,0,,,,,,,,,,,,,,,,,,,,,,,,,,,,,,,conditions/schedules/train_y_first/red_square_00/top_left/instructions/Slide20.png,conditions/schedules/train_y_first/red_square_00/top_left/instructions/Audio20.wav,1181.5624775999995,1181.5637299,20,"[4.352154600000176, 11.064815899999303, 16.435914000000594, 19.26333380000051, 5.0373811999998, 5.890048299999762, 5.305173299999296, 11.67613160000019, 5.971711199999845, 7.13632779999989, 10.485845499999414, 13.610351500000434, 42.186376499999824, 16.328889099999287, 44.13177600000017, 21.427373200000147, 45.37677650000023, 6.23614439999983, 10.356653099999676, 12.392138300000624]","[0.0002884999994421378, 0.03508779999992839, 0.03143770000042423, 0.03362159999960568, 0.08532160000049771, 0.08396379999976489, 0.049612400000114576, 0.01403039999968314, 0.06418130000020028, 0.06374159999995754, 0.00020839999979216373, 13.610359100000096, 0.014351499999975204, 16.328896099999838, 0.0140027999996164, 21.427380000000085, 0.014067199999772129, 0.03181620000032126, 0.03183480000006966, 12.392145700000583]",0,,,,,,,,,,,,,,,,,,,,,,,,,,,,,,,,,,,,,,,,,,,,,,,,,,,,,,,,,,,,,,,,,,,,,,,,,,,,,,,,,,,,,,,,,,,,,,,,,,,,,,,,,,,,,,,,,,,,,,,,,,,,CXEYLX,train_y,red_square,top_left,2025-01-15_17h54.10.544,HideSeek_v1,2022.2.5,59.97857565274638,
1,3,7,8,7,5,0,66,2,instr_dim1_2,,,,,,3,0,3,0,,,,,0,0,0,0,,,,,,,,,,,,,,,,,,,,,,,,,,,,,,,,,,,,,stimuli/alien_stimuli/66.png,conditions/schedules/train_y_first/red_square_00/top_left/inputInstr_2.xlsx,stimuli/alien_stimuli/66.png,1194.0587975999997,1194.0587975999997,1194.0587975999997,1194.0587975999997,1194.0574332399997,return,6.576606499999798,"[-0.16, -0.08, 0, 0.08, 0.16, 0.24, 0.32, 0.4, 0.48, 0.56]","[-0.4, -0.32, -0.24, -0.16, -0.08, 0, 0.08, 0.16, 0.24, 0.32]",7,7,8,3,0.0,0.4,1200.7960270999993,1200.7960270999993,1200.7960270999993,1200.7960270999993,1200.7960270999993,1200.7960270999993,1200.7960270999993,1200.7796515599996,7.273704100000032,return,7.10831220000091,stimuli/alien_stimuli/66.png,66,3,1,,,,,,,,,,,,,,,,,,,,,,,,,,,,,,,,,,,,,,,,,,,,,,,,,,,,,,,,,,,,,,,,,,,,,,,,,,,,,,,,,,,,,,,,,CXEYLX,train_y,red_square,top_left,2025-01-15_17h54.10.544,HideSeek_v1,2022.2.5,59.97857565274638,
,,,,,,,,,,,30,,,,3,0,3,0,,,,,,,,,,,,,,,,,,,,,,,,,,,,,,,,,,,,,,,,,,,,,,,,,,,,,,,,,,,,,,,,,,,,,,,,,,,,,,21,0.7,0.41666666666666674,1,99,2,30,0,conditions/schedules/train_y_first/red_square_00/top_left/inputTrain_2.1.xlsx,99,1,2,1,0,,,,,,,,,,,,,,,,,,,,,,,,,,,,,,,,,,,,,,,,,,,,,,,,,,,,,,,,,,,,,,,,,,,,,,,,,,,CXEYLX,train_y,red_square,top_left,2025-01-15_17h54.10.544,HideSeek_v1,2022.2.5,59.97857565274638,
