trialInstr,x_fixStart,y_fixStart,x_corrSteps,y_corrSteps,x_nrSteps,y_nrSteps,alienID,trialLength,version,trialTrain,praclen,testlen,trial_label,break_on_off,beforeExpLoop.thisRepN,beforeExpLoop.thisTrialN,beforeExpLoop.thisN,beforeExpLoop.thisIndex,mini_instr_trials.thisRepN,mini_instr_trials.thisTrialN,mini_instr_trials.thisN,mini_instr_trials.thisIndex,instrLoop.thisRepN,instrLoop.thisTrialN,instrLoop.thisN,instrLoop.thisIndex,repeat_prac.thisRepN,repeat_prac.thisTrialN,repeat_prac.thisN,repeat_prac.thisIndex,trainLoop.thisRepN,trainLoop.thisTrialN,trainLoop.thisN,trainLoop.thisIndex,moveLoop_train.thisRepN,moveLoop_train.thisTrialN,moveLoop_train.thisN,moveLoop_train.thisIndex,experiment.thisRepN,experiment.thisTrialN,experiment.thisN,experiment.thisIndex,moveLoop_test.thisRepN,moveLoop_test.thisTrialN,moveLoop_test.thisN,moveLoop_test.thisIndex,mini_instr2_trials.thisRepN,mini_instr2_trials.thisTrialN,mini_instr2_trials.thisN,mini_instr2_trials.thisIndex,start_all_time,url,slideStim,audioStim,slides.started,sounds.started,nextButton.numClicks,nextButton.timesOn,nextButton.timesOff,prev_but.numClicks,prev_but.timesOn,prev_but.timesOff,alienStim,instrFile,alienStim_instr,gridImage_instr.started,startPos_3.started,key_instr.started,alienImage_3.started,sounds_1.started,key_instr.keys,key_instr.rt,all_x,all_y,FBy_corrSteps,FBy_fixStart,FBx_corrSteps,FBx_fixStart,FBy_pathSize_check,FBx_pathSize_check,gridImage_9.started,alienImageFB_3.started,startPosFB_3.started,keyFB_3.started,pathLine_ydir_2.started,pathLine_xdir_2.started,alienFace_3.started,sounds_2.started,RTFB_instr,keyFB_3.keys,keyFB_3.rt,draw_alienStim,draw_alienID,test_x,nrepcount,perfthres,percthres,earlierperf,earlystop,nextPrac,fileidx,praclen,saveACC_train,pracFile,nextPrac_train,addNrep,fileidx_endr,repExp,showearly,gridImage_4.started,startPos.started,movePos.started,key_resp.started,alienImage.started,buttonPress_train,RTchoice_train,cumAcctrain,aCorr,saveACC_choice,corrAns,x_movePos_end,y_movePos_end,key_resp.keys,key_resp.rt,wLy_dir,wLx_dir,x_movePos,y_movePos,text_2.started,text_2.stopped,aft_x_corrPos,aft_y_corrPos,y_pathSize_check,x_pathSize_check,y_pathdirY,x_pathdirY,x_pathdirX,x_corrPos,y_corrPos,gridImage_6.started,alienImageFB_2.started,startPosFB_2.started,movePosFB_2.started,keyFB_2.started,pathLine_xdir.started,pathLine_ydir.started,alienFace.started,sounds_4.started,RT_FBtrain,keyFB_2.keys,keyFB_2.rt,saveACC_pre,ACC,within_saveACC_train,earlystop_wloop,cumAcctrain_check,gridImage_3.started,alienImage_test.started,startPos_test.started,movePos_test.started,key_resp_test.started,wLy_dir_test,wLx_dir_test,buttonPress_test,RTchoice_test,cumAcctest,corrAns_test,key_resp_test.keys,key_resp_test.rt,text_3.started,text_3.stopped,total_time,end_all_time,key_resp_3.keys,slides_2.started,sounds_3.started,nextButton_2.numClicks,nextButton_2.timesOn,nextButton_2.timesOff,prev_but_2.numClicks,prev_but_2.timesOn,prev_but_2.timesOff,bye.started,participant,train_first,00_coordinate,starting corner,date,expName,psychopyVersion,frameRate,
,,,,,,,,,,,,,,,0,0,0,0,0,0,0,0,,,,,,,,,,,,,,,,,,,,,,,,,,,,,start_all_time,testround,conditions/schedules/train_x_first/blue_star_00/top_left/instructions/Slide1.png,conditions/schedules/train_x_first/blue_star_00/top_left/instructions/Audio1.wav,46.12804939999478,46.080393520265346,1,[10.041898099996615],[10.041910400032066],0,,,,,,,,,,,,,,,,,,,,,,,,,,,,,,,,,,,,,,,,,,,,,,,,,,,,,,,,,,,,,,,,,,,,,,,,,,,,,,,,,,,,,,,,,,,,,,,,,,,,,,,,,,,,,,,,,,,,,,,,,,,,CYDE2H,train_x,blue_star,top_left,2025-03-25_16h13.36.689,HideSeek_v1,2022.2.5,59.9811299255112,
,,,,,,,,,,,,,,,0,0,0,0,1,0,1,0,,,,,,,,,,,,,,,,,,,,,,,,,,,,,,,conditions/schedules/train_x_first/blue_star_00/top_left/instructions/Slide2.png,conditions/schedules/train_x_first/blue_star_00/top_left/instructions/Audio2.wav,56.18726510001579,56.18880100001115,2,"[10.041898099996615, 18.61420840001665]","[0.014097700011916459, 18.614215400011744]",0,,,,,,,,,,,,,,,,,,,,,,,,,,,,,,,,,,,,,,,,,,,,,,,,,,,,,,,,,,,,,,,,,,,,,,,,,,,,,,,,,,,,,,,,,,,,,,,,,,,,,,,,,,,,,,,,,,,,,,,,,,,,CYDE2H,train_x,blue_star,top_left,2025-03-25_16h13.36.689,HideSeek_v1,2022.2.5,59.9811299255112,
,,,,,,,,,,,,,,,0,0,0,0,2,0,2,0,,,,,,,,,,,,,,,,,,,,,,,,,,,,,,,conditions/schedules/train_x_first/blue_star_00/top_left/instructions/Slide3.png,conditions/schedules/train_x_first/blue_star_00/top_left/instructions/Audio3.wav,74.87063630000921,74.87080720002996,3,"[10.041898099996615, 18.61420840001665, 17.529160399979446]","[0.014097700011916459, 0.014310099999420345, 17.529167100030463]",0,,,,,,,,,,,,,,,,,,,,,,,,,,,,,,,,,,,,,,,,,,,,,,,,,,,,,,,,,,,,,,,,,,,,,,,,,,,,,,,,,,,,,,,,,,,,,,,,,,,,,,,,,,,,,,,,,,,,,,,,,,,,CYDE2H,train_x,blue_star,top_left,2025-03-25_16h13.36.689,HideSeek_v1,2022.2.5,59.9811299255112,
,,,,,,,,,,,,,,,0,0,0,0,3,0,3,0,,,,,,,,,,,,,,,,,,,,,,,,,,,,,,,conditions/schedules/train_x_first/blue_star_00/top_left/instructions/Slide4.png,conditions/schedules/train_x_first/blue_star_00/top_left/instructions/Audio4.wav,92.47063960001105,92.46868580003502,4,"[10.041898099996615, 18.61420840001665, 17.529160399979446, 19.59534469997743]","[0.014097700011916459, 0.014310099999420345, 17.529167100030463, 19.59535129996948]",0,,,,,,,,,,,,,,,,,,,,,,,,,,,,,,,,,,,,,,,,,,,,,,,,,,,,,,,,,,,,,,,,,,,,,,,,,,,,,,,,,,,,,,,,,,,,,,,,,,,,,,,,,,,,,,,,,,,,,,,,,,,,CYDE2H,train_x,blue_star,top_left,2025-03-25_16h13.36.689,HideSeek_v1,2022.2.5,59.9811299255112,
,,,,,,,,,,,,,,,0,0,0,0,4,0,4,0,,,,,,,,,,,,,,,,,,,,,,,,,,,,,,,conditions/schedules/train_x_first/blue_star_00/top_left/instructions/Slide5.png,conditions/schedules/train_x_first/blue_star_00/top_left/instructions/Audio5.wav,112.1256525000208,112.11834564000601,5,"[10.041898099996615, 18.61420840001665, 17.529160399979446, 19.59534469997743, 5.027911400015]","[0.014097700011916459, 0.014310099999420345, 17.529167100030463, 0.013998500013258308, 5.027919300016947]",0,,,,,,,,,,,,,,,,,,,,,,,,,,,,,,,,,,,,,,,,,,,,,,,,,,,,,,,,,,,,,,,,,,,,,,,,,,,,,,,,,,,,,,,,,,,,,,,,,,,,,,,,,,,,,,,,,,,,,,,,,,,,CYDE2H,train_x,blue_star,top_left,2025-03-25_16h13.36.689,HideSeek_v1,2022.2.5,59.9811299255112,
,,,,,,,,,,,,,,,0,0,0,0,5,0,5,0,,,,,,,,,,,,,,,,,,,,,,,,,,,,,,,conditions/schedules/train_x_first/blue_star_00/top_left/instructions/Slide6.png,conditions/schedules/train_x_first/blue_star_00/top_left/instructions/Audio6.wav,117.20562830002746,117.20591864000308,6,"[10.041898099996615, 18.61420840001665, 17.529160399979446, 19.59534469997743, 5.027911400015, 4.585261300031561]","[0.014097700011916459, 0.014310099999420345, 17.529167100030463, 0.013998500013258308, 0.08105269999941811, 4.585268200025894]",0,,,,,,,,,,,,,,,,,,,,,,,,,,,,,,,,,,,,,,,,,,,,,,,,,,,,,,,,,,,,,,,,,,,,,,,,,,,,,,,,,,,,,,,,,,,,,,,,,,,,,,,,,,,,,,,,,,,,,,,,,,,,CYDE2H,train_x,blue_star,top_left,2025-03-25_16h13.36.689,HideSeek_v1,2022.2.5,59.9811299255112,
,,,,,,,,,,,,,,,0,0,0,0,6,0,6,0,,,,,,,,,,,,,,,,,,,,,,,,,,,,,,,conditions/schedules/train_x_first/blue_star_00/top_left/instructions/Slide7.png,conditions/schedules/train_x_first/blue_star_00/top_left/instructions/Audio7.wav,121.84543190000113,121.84320444001351,7,"[10.041898099996615, 18.61420840001665, 17.529160399979446, 19.59534469997743, 5.027911400015, 4.585261300031561, 5.349463999969885]","[0.014097700011916459, 0.014310099999420345, 17.529167100030463, 0.013998500013258308, 0.08105269999941811, 0.11179719999199733, 5.349470899964217]",0,,,,,,,,,,,,,,,,,,,,,,,,,,,,,,,,,,,,,,,,,,,,,,,,,,,,,,,,,,,,,,,,,,,,,,,,,,,,,,,,,,,,,,,,,,,,,,,,,,,,,,,,,,,,,,,,,,,,,,,,,,,,CYDE2H,train_x,blue_star,top_left,2025-03-25_16h13.36.689,HideSeek_v1,2022.2.5,59.9811299255112,
,,,,,,,,,,,,,,,0,0,0,0,7,0,7,0,,,,,,,,,,,,,,,,,,,,,,,,,,,,,,,conditions/schedules/train_x_first/blue_star_00/top_left/instructions/Slide8.png,conditions/schedules/train_x_first/blue_star_00/top_left/instructions/Audio8.wav,127.24651040002936,127.24749394004466,8,"[10.041898099996615, 18.61420840001665, 17.529160399979446, 19.59534469997743, 5.027911400015, 4.585261300031561, 5.349463999969885, 11.775076600024477]","[0.014097700011916459, 0.014310099999420345, 17.529167100030463, 0.013998500013258308, 0.08105269999941811, 0.11179719999199733, 0.06498480000300333, 11.775084000022616]",0,,,,,,,,,,,,,,,,,,,,,,,,,,,,,,,,,,,,,,,,,,,,,,,,,,,,,,,,,,,,,,,,,,,,,,,,,,,,,,,,,,,,,,,,,,,,,,,,,,,,,,,,,,,,,,,,,,,,,,,,,,,,CYDE2H,train_x,blue_star,top_left,2025-03-25_16h13.36.689,HideSeek_v1,2022.2.5,59.9811299255112,
,,,,,,,,,,,,,,,0,0,0,0,8,0,8,0,,,,,,,,,,,,,,,,,,,,,,,,,,,,,,,conditions/schedules/train_x_first/blue_star_00/top_left/instructions/Slide9.png,conditions/schedules/train_x_first/blue_star_00/top_left/instructions/Audio9.wav,139.0771173000103,139.07419904000128,9,"[10.041898099996615, 18.61420840001665, 17.529160399979446, 19.59534469997743, 5.027911400015, 4.585261300031561, 5.349463999969885, 11.775076600024477, 6.165977799973916]","[0.014097700011916459, 0.014310099999420345, 17.529167100030463, 0.013998500013258308, 0.08105269999941811, 0.11179719999199733, 0.06498480000300333, 0.03007510001771152, 6.165984699968249]",0,,,,,,,,,,,,,,,,,,,,,,,,,,,,,,,,,,,,,,,,,,,,,,,,,,,,,,,,,,,,,,,,,,,,,,,,,,,,,,,,,,,,,,,,,,,,,,,,,,,,,,,,,,,,,,,,,,,,,,,,,,,,CYDE2H,train_x,blue_star,top_left,2025-03-25_16h13.36.689,HideSeek_v1,2022.2.5,59.9811299255112,
,,,,,,,,,,,,,,,0,0,0,0,9,0,9,0,,,,,,,,,,,,,,,,,,,,,,,,,,,,,,,conditions/schedules/train_x_first/blue_star_00/top_left/instructions/Slide10.png,conditions/schedules/train_x_first/blue_star_00/top_left/instructions/Audio10.wav,145.29583460005233,145.29594474005282,10,"[10.041898099996615, 18.61420840001665, 17.529160399979446, 19.59534469997743, 5.027911400015, 4.585261300031561, 5.349463999969885, 11.775076600024477, 6.165977799973916, 7.103813700028695]","[0.014097700011916459, 0.014310099999420345, 17.529167100030463, 0.013998500013258308, 0.08105269999941811, 0.11179719999199733, 0.06498480000300333, 0.03007510001771152, 0.09801210003206506, 7.103820400021505]",0,,,,,,,,,,,,,,,,,,,,,,,,,,,,,,,,,,,,,,,,,,,,,,,,,,,,,,,,,,,,,,,,,,,,,,,,,,,,,,,,,,,,,,,,,,,,,,,,,,,,,,,,,,,,,,,,,,,,,,,,,,,,CYDE2H,train_x,blue_star,top_left,2025-03-25_16h13.36.689,HideSeek_v1,2022.2.5,59.9811299255112,
,,,,,,,,,,,,,,,0,0,0,0,10,0,10,0,,,,,,,,,,,,,,,,,,,,,,,,,,,,,,,conditions/schedules/train_x_first/blue_star_00/top_left/instructions/Slide11.png,conditions/schedules/train_x_first/blue_star_00/top_left/instructions/Audio11.wav,152.45342120004352,152.45179414002925,11,"[10.041898099996615, 18.61420840001665, 17.529160399979446, 19.59534469997743, 5.027911400015, 4.585261300031561, 5.349463999969885, 11.775076600024477, 6.165977799973916, 7.103813700028695, 9.887761800026055]","[0.014097700011916459, 0.014310099999420345, 17.529167100030463, 0.013998500013258308, 0.08105269999941811, 0.11179719999199733, 0.06498480000300333, 0.03007510001771152, 0.09801210003206506, 0.04790820000926033, 9.887786900042556]",0,,,,,,,,,,,,,,,,,,,,,,,,,,,,,,,,,,,,,,,,,,,,,,,,,,,,,,,,,,,,,,,,,,,,,,,,,,,,,,,,,,,,,,,,,,,,,,,,,,,,,,,,,,,,,,,,,,,,,,,,,,,,CYDE2H,train_x,blue_star,top_left,2025-03-25_16h13.36.689,HideSeek_v1,2022.2.5,59.9811299255112,
,,,,,,,,,,,,,,,0,0,0,0,11,0,11,0,,,,,,,,,,,,,,,,,,,,,,,,,,,,,,,conditions/schedules/train_x_first/blue_star_00/top_left/instructions/Slide12.png,conditions/schedules/train_x_first/blue_star_00/top_left/instructions/Audio12.wav,162.39493380003842,162.39352604000598,12,"[10.041898099996615, 18.61420840001665, 17.529160399979446, 19.59534469997743, 5.027911400015, 4.585261300031561, 5.349463999969885, 11.775076600024477, 6.165977799973916, 7.103813700028695, 9.887761800026055, 13.123551499971654]","[0.014097700011916459, 0.014310099999420345, 17.529167100030463, 0.013998500013258308, 0.08105269999941811, 0.11179719999199733, 0.06498480000300333, 0.03007510001771152, 0.09801210003206506, 0.04790820000926033, 0.06251089996658266, 13.123558099963702]",0,,,,,,,,,,,,,,,,,,,,,,,,,,,,,,,,,,,,,,,,,,,,,,,,,,,,,,,,,,,,,,,,,,,,,,,,,,,,,,,,,,,,,,,,,,,,,,,,,,,,,,,,,,,,,,,,,,,,,,,,,,,,CYDE2H,train_x,blue_star,top_left,2025-03-25_16h13.36.689,HideSeek_v1,2022.2.5,59.9811299255112,
1,4,5,9,5,5,0,11,2,instr_dim1_1,,,,,,0,0,0,0,,,,,0,0,0,0,,,,,,,,,,,,,,,,,,,,,,,,,,,,,,,,,,,,,stimuli/alien_stimuli/11.png,conditions/schedules/train_x_first/blue_star_00/top_left/inputInstr_1.xlsx,stimuli/alien_stimuli/11.png,175.61621740000555,175.61621740000555,175.61621740000555,175.61621740000555,175.604390860023,return,9.422755000006873,"[-0.16, -0.08, 0, 0.08, 0.16, 0.24, 0.32, 0.4, 0.48, 0.56]","[-0.4, -0.32, -0.24, -0.16, -0.08, 0, 0.08, 0.16, 0.24, 0.32]",5,5,9,4,0.0,0.4,185.19202880002558,185.19202880002558,185.19202880002558,185.19202880002558,185.19202880002558,185.19202880002558,185.19202880002558,185.17876058005496,17.18213550001383,return,17.03125150001142,stimuli/alien_stimuli/11.png,11,4,1,,,,,,,,,,,,,,,,,,,,,,,,,,,,,,,,,,,,,,,,,,,,,,,,,,,,,,,,,,,,,,,,,,,,,,,,,,,,,,,,,,,,,,,,,CYDE2H,train_x,blue_star,top_left,2025-03-25_16h13.36.689,HideSeek_v1,2022.2.5,59.9811299255112,
,,,,,,,,,,,30,,,,0,0,0,0,,,,,,,,,,,,,,,,,,,,,,,,,,,,,,,,,,,,,,,,,,,,,,,,,,,,,,,,,,,,,,,,,,,,,,,,,,,,,,21,0.7,0,0,99,1,30,0,conditions/schedules/train_x_first/blue_star_00/top_left/inputTrain_1.1.xlsx,99,1,1,1,0,,,,,,,,,,,,,,,,,,,,,,,,,,,,,,,,,,,,,,,,,,,,,,,,,,,,,,,,,,,,,,,,,,,,,,,,,,,CYDE2H,train_x,blue_star,top_left,2025-03-25_16h13.36.689,HideSeek_v1,2022.2.5,59.9811299255112,
,,,,,,,,,,,,,,,1,0,1,0,0,0,0,0,,,,,,,,,,,,,,,,,,,,,,,,,,,,,,,conditions/schedules/train_x_first/blue_star_00/top_left/instructions/Slide13.png,conditions/schedules/train_x_first/blue_star_00/top_left/instructions/Audio13.wav,202.38760340004228,202.37671634000728,13,"[10.041898099996615, 18.61420840001665, 17.529160399979446, 19.59534469997743, 5.027911400015, 4.585261300031561, 5.349463999969885, 11.775076600024477, 6.165977799973916, 7.103813700028695, 9.887761800026055, 13.123551499971654, 18.218498000002]","[0.014097700011916459, 0.014310099999420345, 17.529167100030463, 0.013998500013258308, 0.08105269999941811, 0.11179719999199733, 0.06498480000300333, 0.03007510001771152, 0.09801210003206506, 0.04790820000926033, 0.06251089996658266, 13.123558099963702, 18.218504499993287]",0,,,,,,,,,,,,,,,,,,,,,,,,,,,,,,,,,,,,,,,,,,,,,,,,,,,,,,,,,,,,,,,,,,,,,,,,,,,,,,,,,,,,,,,,,,,,,,,,,,,,,,,,,,,,,,,,,,,,,,,,,,,,CYDE2H,train_x,blue_star,top_left,2025-03-25_16h13.36.689,HideSeek_v1,2022.2.5,59.9811299255112,
,,,,,,,,,,,,,,,1,0,1,0,1,0,1,0,,,,,,,,,,,,,,,,,,,,,,,,,,,,,,,conditions/schedules/train_x_first/blue_star_00/top_left/instructions/Slide14.png,conditions/schedules/train_x_first/blue_star_00/top_left/instructions/Audio14.wav,220.67047950002598,220.6586229400011,14,"[10.041898099996615, 18.61420840001665, 17.529160399979446, 19.59534469997743, 5.027911400015, 4.585261300031561, 5.349463999969885, 11.775076600024477, 6.165977799973916, 7.103813700028695, 9.887761800026055, 13.123551499971654, 18.218498000002, 13.46334229997592]","[0.014097700011916459, 0.014310099999420345, 17.529167100030463, 0.013998500013258308, 0.08105269999941811, 0.11179719999199733, 0.06498480000300333, 0.03007510001771152, 0.09801210003206506, 0.04790820000926033, 0.06251089996658266, 13.123558099963702, 0.0688042999827303, 13.463348699966446]",0,,,,,,,,,,,,,,,,,,,,,,,,,,,,,,,,,,,,,,,,,,,,,,,,,,,,,,,,,,,,,,,,,,,,,,,,,,,,,,,,,,,,,,,,,,,,,,,,,,,,,,,,,,,,,,,,,,,,,,,,,,,,CYDE2H,train_x,blue_star,top_left,2025-03-25_16h13.36.689,HideSeek_v1,2022.2.5,59.9811299255112,
2,3,7,3,7,0,0,61,2,instr_dim1_1,,,,,,1,0,1,0,,,,,0,0,0,0,,,,,,,,,,,,,,,,,,,,,,,,,,,,,,,,,,,,,stimuli/alien_stimuli/61.png,conditions/schedules/train_x_first/blue_star_00/top_left/inputInstr_1.xlsx,stimuli/alien_stimuli/61.png,234.22398320003413,234.22398320003413,234.22398320003413,234.22398320003413,234.2197809600155,return,7.086709399998654,"[-0.16, -0.08, 0, 0.08, 0.16, 0.24, 0.32, 0.4, 0.48, 0.56]","[-0.4, -0.32, -0.24, -0.16, -0.08, 0, 0.08, 0.16, 0.24, 0.32]",7,7,3,3,0.0,0.0,241.46350630000234,241.46350630000234,241.46350630000234,241.46350630000234,241.46350630000234,241.46350630000234,241.46350630000234,241.44235852002168,7.7744692999986,return,7.62877050001407,stimuli/alien_stimuli/61.png,61,3,2,,,,,,,,,,,,,,,,,,,,,,,,,,,,,,,,,,,,,,,,,,,,,,,,,,,,,,,,,,,,,,,,,,,,,,,,,,,,,,,,,,,,,,,,,CYDE2H,train_x,blue_star,top_left,2025-03-25_16h13.36.689,HideSeek_v1,2022.2.5,59.9811299255112,
,,,,,,,,,,,30,,,,1,0,1,0,,,,,,,,,,,,,,,,,,,,,,,,,,,,,,,,,,,,,,,,,,,,,,,,,,,,,,,,,,,,,,,,,,,,,,,,,,,,,,21,0.7,0,0,99,1,30,0,conditions/schedules/train_x_first/blue_star_00/top_left/inputTrain_1.1.xlsx,99,1,1,1,0,,,,,,,,,,,,,,,,,,,,,,,,,,,,,,,,,,,,,,,,,,,,,,,,,,,,,,,,,,,,,,,,,,,,,,,,,,,CYDE2H,train_x,blue_star,top_left,2025-03-25_16h13.36.689,HideSeek_v1,2022.2.5,59.9811299255112,
,,,,,,,,,,,,,,,2,0,2,0,0,0,0,0,,,,,,,,,,,,,,,,,,,,,,,,,,,,,,,conditions/schedules/train_x_first/blue_star_00/top_left/instructions/Slide15.png,conditions/schedules/train_x_first/blue_star_00/top_left/instructions/Audio15.wav,249.25329910003347,249.24870144004237,15,"[10.041898099996615, 18.61420840001665, 17.529160399979446, 19.59534469997743, 5.027911400015, 4.585261300031561, 5.349463999969885, 11.775076600024477, 6.165977799973916, 7.103813700028695, 9.887761800026055, 13.123551499971654, 18.218498000002, 13.46334229997592, 32.32073100004345]","[0.014097700011916459, 0.014310099999420345, 17.529167100030463, 0.013998500013258308, 0.08105269999941811, 0.11179719999199733, 0.06498480000300333, 0.03007510001771152, 0.09801210003206506, 0.04790820000926033, 0.06251089996658266, 13.123558099963702, 0.0688042999827303, 13.463348699966446, 32.320738600043114]",0,,,,,,,,,,,,,,,,,,,,,,,,,,,,,,,,,,,,,,,,,,,,,,,,,,,,,,,,,,,,,,,,,,,,,,,,,,,,,,,,,,,,,,,,,,,,,,,,,,,,,,,,,,,,,,,,,,,,,,,,,,,,CYDE2H,train_x,blue_star,top_left,2025-03-25_16h13.36.689,HideSeek_v1,2022.2.5,59.9811299255112,
,,,,,,,,,,,,,,,2,0,2,0,1,0,1,0,,,,,,,,,,,,,,,,,,,,,,,,,,,,,,,conditions/schedules/train_x_first/blue_star_00/top_left/instructions/Slide16.png,conditions/schedules/train_x_first/blue_star_00/top_left/instructions/Audio16.wav,281.64075530000264,281.64297260000603,16,"[10.041898099996615, 18.61420840001665, 17.529160399979446, 19.59534469997743, 5.027911400015, 4.585261300031561, 5.349463999969885, 11.775076600024477, 6.165977799973916, 7.103813700028695, 9.887761800026055, 13.123551499971654, 18.218498000002, 13.46334229997592, 32.32073100004345, 21.900825100019574]","[0.014097700011916459, 0.014310099999420345, 17.529167100030463, 0.013998500013258308, 0.08105269999941811, 0.11179719999199733, 0.06498480000300333, 0.03007510001771152, 0.09801210003206506, 0.04790820000926033, 0.06251089996658266, 13.123558099963702, 0.0688042999827303, 13.463348699966446, 0.014221000019460917, 21.900831800012384]",0,,,,,,,,,,,,,,,,,,,,,,,,,,,,,,,,,,,,,,,,,,,,,,,,,,,,,,,,,,,,,,,,,,,,,,,,,,,,,,,,,,,,,,,,,,,,,,,,,,,,,,,,,,,,,,,,,,,,,,,,,,,,CYDE2H,train_x,blue_star,top_left,2025-03-25_16h13.36.689,HideSeek_v1,2022.2.5,59.9811299255112,
,2,6,5,6,3,0,31,,train_dim1_1,1,30,,,,2,0,2,0,,,,,,,,,0,0,0,0,0,0,0,0,0,0,0,0,,,,,,,,,,,,,,,,,,,,,,,,,stimuli/alien_stimuli/31.png,,,,,,,,,,,,,,,,,,,,,,,,,,,,,,,,,,,,,,,30,,,,,,,,303.63171330001205,303.63171330001205,303.63171330001205,303.63171330001205,303.63171330001205,down,6.750377899967134,0,0,0,99,0,0.0,down,6.665841199981514,,,,,,,,,,,,,,,,,,,,,,,,,,,,,,,,,,,,,,,,,,,,,,,,,,,,,,,,,,,,CYDE2H,train_x,blue_star,top_left,2025-03-25_16h13.36.689,HideSeek_v1,2022.2.5,59.9811299255112,
,2,6,5,6,3,0,31,,train_dim1_1,1,30,,,,2,0,2,0,,,,,,,,,0,0,0,0,0,0,0,0,1,0,1,0,,,,,,,,,,,,,,,,,,,,,,,,,,,,,,,,,,,,,,,,,,,,,,,,,,,,,,,,,,,,,,,,30,,,,,,,,310.3795627000509,310.3795627000509,310.3795627000509,310.3795627000509,310.3795627000509,down,0.8430902999825776,0,0,0,99,0,-0.08,down,0.7601766000152566,,,,,,,,,,,,,,,,,,,,,,,,,,,,,,,,,,,,,,,,,,,,,,,,,,,,,,,,,,,,CYDE2H,train_x,blue_star,top_left,2025-03-25_16h13.36.689,HideSeek_v1,2022.2.5,59.9811299255112,
,2,6,5,6,3,0,31,,train_dim1_1,1,30,,,,2,0,2,0,,,,,,,,,0,0,0,0,0,0,0,0,2,0,2,0,,,,,,,,,,,,,,,,,,,,,,,,,,,,,,,,,,,,,,,,,,,,,,,,,,,,,,,,,,,,,,,,30,,,,,,,,311.22919750004075,311.22919750004075,311.22919750004075,311.22919750004075,311.22919750004075,down,0.6936930000083521,0,0,0,99,0,-0.16,down,0.6084171999827959,,,,,,,,,,,,,,,,,,,,,,,,,,,,,,,,,,,,,,,,,,,,,,,,,,,,,,,,,,,,CYDE2H,train_x,blue_star,top_left,2025-03-25_16h13.36.689,HideSeek_v1,2022.2.5,59.9811299255112,
,2,6,5,6,3,0,31,,train_dim1_1,1,30,,,,2,0,2,0,,,,,,,,,0,0,0,0,0,0,0,0,3,0,3,0,,,,,,,,,,,,,,,,,,,,,,,,,,,,,,,,,,,,,,,,,,,,,,,,,,,,,,,,,,,,,,,,30,,,,,,,,311.93028580001555,311.93028580001555,311.93028580001555,311.93028580001555,311.93028580001555,up,2.895687700016424,0,0,0,99,0,-0.08,up,2.81308439996792,,,,,,,,,,,,,,,,,,,,,,,,,,,,,,,,,,,,,,,,,,,,,,,,,,,,,,,,,,,,CYDE2H,train_x,blue_star,top_left,2025-03-25_16h13.36.689,HideSeek_v1,2022.2.5,59.9811299255112,
,2,6,5,6,3,0,31,,train_dim1_1,1,30,,,,2,0,2,0,,,,,,,,,0,0,0,0,0,0,0,0,4,0,4,0,,,,,,,,,,,,,,,,,,,,,,,,,,,,,,,,,,,,,,,,,,,,,,,,,,,,,,,,,,,,,,,,30,,,,,,,,314.83342520002043,314.83342520002043,314.83342520002043,314.83342520002043,314.83342520002043,up,0.5433355999994092,0,0,0,99,0,0.0,up,0.46578010002849624,,,,,,,,,,,,,,,,,,,,,,,,,,,,,,,,,,,,,,,,,,,,,,,,,,,,,,,,,,,,CYDE2H,train_x,blue_star,top_left,2025-03-25_16h13.36.689,HideSeek_v1,2022.2.5,59.9811299255112,
,2,6,5,6,3,0,31,,train_dim1_1,1,30,,,,2,0,2,0,,,,,,,,,0,0,0,0,0,0,0,0,5,0,5,0,,,,,,,,,,,,,,,,,,,,,,,,,,,,,,,,,,,,,,,,,,,,,,,,,,,,,,,,,,,,,,,,30,,,,,,,,315.38389980001375,315.38389980001375,315.38389980001375,315.38389980001375,315.38389980001375,up,0.36014639999484643,0,0,0,99,0,0.08,up,0.27602659998228773,,,,,,,,,,,,,,,,,,,,,,,,,,,,,,,,,,,,,,,,,,,,,,,,,,,,,,,,,,,,CYDE2H,train_x,blue_star,top_left,2025-03-25_16h13.36.689,HideSeek_v1,2022.2.5,59.9811299255112,
,2,6,5,6,3,0,31,,train_dim1_1,1,30,,,,2,0,2,0,,,,,,,,,0,0,0,0,0,0,0,0,6,0,6,0,,,,,,,,,,,,,,,,,,,,,,,,,,,,,,,,,,,,,,,,,,,,,,,,,,,,,,,,,,,,,,,,30,,,,,,,,315.7497454000404,315.7497454000404,315.7497454000404,315.7497454000404,315.7497454000404,right,3.3623736000154167,0,0,0,99,0.08,0.08,right,3.2868776000104845,,,,,,,,,,,,,,,,,,,,,,,,,,,,,,,,,,,,,,,,,,,,,,,,,,,,,,,,,,,,CYDE2H,train_x,blue_star,top_left,2025-03-25_16h13.36.689,HideSeek_v1,2022.2.5,59.9811299255112,
,2,6,5,6,3,0,31,,train_dim1_1,1,30,,,,2,0,2,0,,,,,,,,,0,0,0,0,0,0,0,0,7,0,7,0,,,,,,,,,,,,,,,,,,,,,,,,,,,,,,,,,,,,,,,,,,,,,,,,,,,,,,,,,,,,,,,,30,,,,,,,,319.1189484000206,319.1189484000206,319.1189484000206,319.1189484000206,319.1189484000206,right,0.4600853000301868,0,0,0,99,0.16,0.08,right,0.38093330000992864,,,,,,,,,,,,,,,,,,,,,,,,,,,,,,,,,,,,,,,,,,,,,,,,,,,,,,,,,,,,CYDE2H,train_x,blue_star,top_left,2025-03-25_16h13.36.689,HideSeek_v1,2022.2.5,59.9811299255112,
,2,6,5,6,3,0,31,,train_dim1_1,1,30,,,,2,0,2,0,,,,,,,,,0,0,0,0,0,0,0,0,8,0,8,0,,,,,,,,,,,,,,,,,,,,,,,,,,,,,,,,,,,,,,,,,,,,,,,,,,,,,,,,,,,,,,,,30,,,,,,,,319.5863046000013,319.5863046000013,319.5863046000013,319.5863046000013,319.5863046000013,right,0.4435042000259273,0,0,0,99,0.24,0.08,right,0.36496679997071624,,,,,,,,,,,,,,,,,,,,,,,,,,,,,,,,,,,,,,,,,,,,,,,,,,,,,,,,,,,,CYDE2H,train_x,blue_star,top_left,2025-03-25_16h13.36.689,HideSeek_v1,2022.2.5,59.9811299255112,
,2,6,5,6,3,0,31,,train_dim1_1,1,30,,,,2,0,2,0,,,,,,,,,0,0,0,0,0,0,0,0,9,0,9,0,,,,,,,,,,,,,,,,,,,,,,,,,,,,,,,,,,,,,,,,,,,,,,,,,,,,,,,,,,,,,,,,30,,,,,,,,320.03796899999725,320.03796899999725,320.03796899999725,320.03796899999725,320.03796899999725,return,0.9771183999837376,1,0,0,1,0.24,0.08,return,0.8884760999935679,0,3,0.24,0.08,,,,,,,,,,,,,,,,,,,,,,,,,,,,,,,,,,,,,,,,,,,,,,,,,,,,,,,,CYDE2H,train_x,blue_star,top_left,2025-03-25_16h13.36.689,HideSeek_v1,2022.2.5,59.9811299255112,
,2,9,7,9,5,0,11,,train_dim1_1,2,30,,,,2,0,2,0,,,,,,,,,0,0,0,0,0,1,1,1,0,0,0,0,,,,,,,,,,,,,,,,,,,,,,,,,stimuli/alien_stimuli/11.png,,,,,,,,,,,,,,,,,,,,,,,,,,,,,stimuli/alien_stimuli/31.png,31,2,3,,,,,,,30,,,,,,,,332.69717240001773,332.69717240001773,332.69717240001773,332.69717240001773,332.69717240001773,right,14.550218899967149,1,0,0,99,0.08,0.32,right,14.435899900039658,,,,,331.1168877000455,332.69717240001773,0.24,0.08,0.0,0.24,0.08,0.24,0.12,0.24,0.08,322.5886313000228,322.5886313000228,322.5886313000228,322.5886313000228,322.5886313000228,322.5886313000228,322.5886313000228,322.5886313000228,322.57633252001835,8.642834800004493,return,8.495967900031246,,,,,,,,,,,,,,,,,,,,,,,,,,,,,,,,,CYDE2H,train_x,blue_star,top_left,2025-03-25_16h13.36.689,HideSeek_v1,2022.2.5,59.9811299255112,
,2,9,7,9,5,0,11,,train_dim1_1,2,30,,,,2,0,2,0,,,,,,,,,0,0,0,0,0,1,1,1,1,0,1,0,,,,,,,,,,,,,,,,,,,,,,,,,,,,,,,,,,,,,,,,,,,,,,,,,,,,,,,,,,,,,,,,30,,,,,,,,347.23449210001854,347.23449210001854,347.23449210001854,347.23449210001854,347.23449210001854,right,0.5599530999897979,1,0,0,99,0.16,0.32,right,0.4777618999942206,,,,,,,,,,,,,,,,,,,,,,,,,,,,,,,,,,,,,,,,,,,,,,,,,,,,,,,,,,,,CYDE2H,train_x,blue_star,top_left,2025-03-25_16h13.36.689,HideSeek_v1,2022.2.5,59.9811299255112,
,2,9,7,9,5,0,11,,train_dim1_1,2,30,,,,2,0,2,0,,,,,,,,,0,0,0,0,0,1,1,1,2,0,2,0,,,,,,,,,,,,,,,,,,,,,,,,,,,,,,,,,,,,,,,,,,,,,,,,,,,,,,,,,,,,,,,,30,,,,,,,,347.7973324000486,347.7973324000486,347.7973324000486,347.7973324000486,347.7973324000486,right,0.5765878000529483,1,0,0,99,0.24,0.32,right,0.48859269998501986,,,,,,,,,,,,,,,,,,,,,,,,,,,,,,,,,,,,,,,,,,,,,,,,,,,,,,,,,,,,CYDE2H,train_x,blue_star,top_left,2025-03-25_16h13.36.689,HideSeek_v1,2022.2.5,59.9811299255112,
,2,9,7,9,5,0,11,,train_dim1_1,2,30,,,,2,0,2,0,,,,,,,,,0,0,0,0,0,1,1,1,3,0,3,0,,,,,,,,,,,,,,,,,,,,,,,,,,,,,,,,,,,,,,,,,,,,,,,,,,,,,,,,,,,,,,,,30,,,,,,,,348.3808046000195,348.3808046000195,348.3808046000195,348.3808046000195,348.3808046000195,right,0.5104848999762908,1,0,0,99,0.32,0.32,right,0.425504999991972,,,,,,,,,,,,,,,,,,,,,,,,,,,,,,,,,,,,,,,,,,,,,,,,,,,,,,,,,,,,CYDE2H,train_x,blue_star,top_left,2025-03-25_16h13.36.689,HideSeek_v1,2022.2.5,59.9811299255112,
,2,9,7,9,5,0,11,,train_dim1_1,2,30,,,,2,0,2,0,,,,,,,,,0,0,0,0,0,1,1,1,4,0,4,0,,,,,,,,,,,,,,,,,,,,,,,,,,,,,,,,,,,,,,,,,,,,,,,,,,,,,,,,,,,,,,,,30,,,,,,,,348.898139500001,348.898139500001,348.898139500001,348.898139500001,348.898139500001,right,0.5939687000354752,1,0,0,99,0.4,0.32,right,0.5074398000142537,,,,,,,,,,,,,,,,,,,,,,,,,,,,,,,,,,,,,,,,,,,,,,,,,,,,,,,,,,,,CYDE2H,train_x,blue_star,top_left,2025-03-25_16h13.36.689,HideSeek_v1,2022.2.5,59.9811299255112,
,2,9,7,9,5,0,11,,train_dim1_1,2,30,,,,2,0,2,0,,,,,,,,,0,0,0,0,0,1,1,1,5,0,5,0,,,,,,,,,,,,,,,,,,,,,,,,,,,,,,,,,,,,,,,,,,,,,,,,,,,,,,,,,,,,,,,,30,,,,,,,,349.4987390000024,349.4987390000024,349.4987390000024,349.4987390000024,349.4987390000024,right,2.3445301999454387,1,0,0,99,0.48000000000000004,0.32,right,2.2561825000448152,,,,,,,,,,,,,,,,,,,,,,,,,,,,,,,,,,,,,,,,,,,,,,,,,,,,,,,,,,,,CYDE2H,train_x,blue_star,top_left,2025-03-25_16h13.36.689,HideSeek_v1,2022.2.5,59.9811299255112,
,2,9,7,9,5,0,11,,train_dim1_1,2,30,,,,2,0,2,0,,,,,,,,,0,0,0,0,0,1,1,1,6,0,6,0,,,,,,,,,,,,,,,,,,,,,,,,,,,,,,,,,,,,,,,,,,,,,,,,,,,,,,,,,,,,,,,,30,,,,,,,,351.8506841000053,351.8506841000053,351.8506841000053,351.8506841000053,351.8506841000053,return,0.8102750000543892,1,1,0,0,0.48000000000000004,0.32,return,0.7248074000235647,0,9,0.48000000000000004,0.32,,,,,,,,,,,,,,,,,,,,,,,,,,,,,,,,,,,,,,,,,,,,,,,,,,,,,,,,CYDE2H,train_x,blue_star,top_left,2025-03-25_16h13.36.689,HideSeek_v1,2022.2.5,59.9811299255112,
,4,9,8,9,4,0,21,,train_dim1_1,3,30,,,,2,0,2,0,,,,,,,,,0,0,0,0,0,2,2,2,0,0,0,0,,,,,,,,,,,,,,,,,,,,,,,,,stimuli/alien_stimuli/21.png,,,,,,,,,,,,,,,,,,,,,,,,,,,,,stimuli/alien_stimuli/11.png,11,2,4,,,,,,,30,,,,,,,,369.7854858000064,369.7854858000064,369.7854858000064,369.7854858000064,369.7854858000064,right,3.774979899986647,1,1,0,99,0.24,0.32,right,3.6753784000175074,,,,,368.21418260002974,369.7854858000064,0.4,0.32,0.0,0.4,0.32,0.4,0.2,0.4,0.32,354.2461501000216,354.2461501000216,354.2461501000216,354.2461501000216,354.2461501000216,354.2461501000216,354.2461501000216,354.2461501000216,354.2361703800038,14.097218499984592,return,13.946975099970587,,,,,,,,,,,,,,,,,,,,,,,,,,,,,,,,,CYDE2H,train_x,blue_star,top_left,2025-03-25_16h13.36.689,HideSeek_v1,2022.2.5,59.9811299255112,
,4,9,8,9,4,0,21,,train_dim1_1,3,30,,,,2,0,2,0,,,,,,,,,0,0,0,0,0,2,2,2,1,0,1,0,,,,,,,,,,,,,,,,,,,,,,,,,,,,,,,,,,,,,,,,,,,,,,,,,,,,,,,,,,,,,,,,30,,,,,,,,373.55407569999807,373.55407569999807,373.55407569999807,373.55407569999807,373.55407569999807,right,0.7598408000194468,1,1,0,99,0.32,0.32,right,0.6816344000399113,,,,,,,,,,,,,,,,,,,,,,,,,,,,,,,,,,,,,,,,,,,,,,,,,,,,,,,,,,,,CYDE2H,train_x,blue_star,top_left,2025-03-25_16h13.36.689,HideSeek_v1,2022.2.5,59.9811299255112,
,4,9,8,9,4,0,21,,train_dim1_1,3,30,,,,2,0,2,0,,,,,,,,,0,0,0,0,0,2,2,2,2,0,2,0,,,,,,,,,,,,,,,,,,,,,,,,,,,,,,,,,,,,,,,,,,,,,,,,,,,,,,,,,,,,,,,,30,,,,,,,,374.3203180000419,374.3203180000419,374.3203180000419,374.3203180000419,374.3203180000419,right,0.7604163999785669,1,1,0,99,0.4,0.32,right,0.6795773000339977,,,,,,,,,,,,,,,,,,,,,,,,,,,,,,,,,,,,,,,,,,,,,,,,,,,,,,,,,,,,CYDE2H,train_x,blue_star,top_left,2025-03-25_16h13.36.689,HideSeek_v1,2022.2.5,59.9811299255112,
,4,9,8,9,4,0,21,,train_dim1_1,3,30,,,,2,0,2,0,,,,,,,,,0,0,0,0,0,2,2,2,3,0,3,0,,,,,,,,,,,,,,,,,,,,,,,,,,,,,,,,,,,,,,,,,,,,,,,,,,,,,,,,,,,,,,,,30,,,,,,,,375.08631740004057,375.08631740004057,375.08631740004057,375.08631740004057,375.08631740004057,right,1.2441315000178292,1,1,0,99,0.48000000000000004,0.32,right,1.1535896999994293,,,,,,,,,,,,,,,,,,,,,,,,,,,,,,,,,,,,,,,,,,,,,,,,,,,,,,,,,,,,CYDE2H,train_x,blue_star,top_left,2025-03-25_16h13.36.689,HideSeek_v1,2022.2.5,59.9811299255112,
,4,9,8,9,4,0,21,,train_dim1_1,3,30,,,,2,0,2,0,,,,,,,,,0,0,0,0,0,2,2,2,4,0,4,0,,,,,,,,,,,,,,,,,,,,,,,,,,,,,,,,,,,,,,,,,,,,,,,,,,,,,,,,,,,,,,,,30,,,,,,,,376.33747110003605,376.33747110003605,376.33747110003605,376.33747110003605,376.33747110003605,left,1.194019400049001,1,1,0,99,0.4,0.32,left,1.1074165999889374,,,,,,,,,,,,,,,,,,,,,,,,,,,,,,,,,,,,,,,,,,,,,,,,,,,,,,,,,,,,CYDE2H,train_x,blue_star,top_left,2025-03-25_16h13.36.689,HideSeek_v1,2022.2.5,59.9811299255112,
,4,9,8,9,4,0,21,,train_dim1_1,3,30,,,,2,0,2,0,,,,,,,,,0,0,0,0,0,2,2,2,5,0,5,0,,,,,,,,,,,,,,,,,,,,,,,,,,,,,,,,,,,,,,,,,,,,,,,,,,,,,,,,,,,,,,,,30,,,,,,,,377.538477300026,377.538477300026,377.538477300026,377.538477300026,377.538477300026,return,1.2107103999587707,1,1,0,0,0.4,0.32,return,1.1232757999678142,0,12,0.4,0.32,,,,,,,,,,,,,,,,,,,,,,,,,,,,,,,,,,,,,,,,,,,,,,,,,,,,,,,,CYDE2H,train_x,blue_star,top_left,2025-03-25_16h13.36.689,HideSeek_v1,2022.2.5,59.9811299255112,
,2,8,3,8,1,0,51,,train_dim1_1,4,30,,,,2,0,2,0,,,,,,,,,0,0,0,0,0,3,3,3,0,0,0,0,,,,,,,,,,,,,,,,,,,,,,,,,stimuli/alien_stimuli/51.png,,,,,,,,,,,,,,,,,,,,,,,,,,,,,stimuli/alien_stimuli/21.png,21,4,5,,,,,,,30,,,,,,,,386.04125870001735,386.04125870001735,386.04125870001735,386.04125870001735,386.04125870001735,right,2.7066972000175156,1,1,0,99,0.08,0.24,right,2.6243291000137106,,,,,384.47789999999804,386.04125870001735,0.48,0.32,0.0,0.32,0.32,0.48,0.32,0.48,0.32,380.3339911000221,380.3339911000221,380.3339911000221,380.3339911000221,380.3339911000221,380.3339911000221,380.3339911000221,380.3339911000221,380.32451928002996,4.272469800023828,return,4.114293699967675,,,,,,,,,,,,,,,,,,,,,,,,,,,,,,,,,CYDE2H,train_x,blue_star,top_left,2025-03-25_16h13.36.689,HideSeek_v1,2022.2.5,59.9811299255112,
,2,8,3,8,1,0,51,,train_dim1_1,4,30,,,,2,0,2,0,,,,,,,,,0,0,0,0,0,3,3,3,1,0,1,0,,,,,,,,,,,,,,,,,,,,,,,,,,,,,,,,,,,,,,,,,,,,,,,,,,,,,,,,,,,,,,,,30,,,,,,,,388.7484215000295,388.7484215000295,388.7484215000295,388.7484215000295,388.7484215000295,return,3.5946961999870837,2,0,0,1,0.08,0.24,return,3.5134494999656454,0,13,0.08,0.24,,,,,,,,,,,,,,,,,,,,,,,,,,,,,,,,,,,,,,,,,,,,,,,,,,,,,,,,CYDE2H,train_x,blue_star,top_left,2025-03-25_16h13.36.689,HideSeek_v1,2022.2.5,59.9811299255112,
,0,7,0,7,0,0,61,,train_dim1_1,5,30,,,,2,0,2,0,,,,,,,,,0,0,0,0,0,4,4,4,0,0,0,0,,,,,,,,,,,,,,,,,,,,,,,,,stimuli/alien_stimuli/61.png,,,,,,,,,,,,,,,,,,,,,,,,,,,,,stimuli/alien_stimuli/51.png,51,2,6,,,,,,,30,,,,,,,,398.030516800005,398.030516800005,398.030516800005,398.030516800005,398.030516800005,return,2.340916399960406,3,0,0,1,-0.16,0.16,return,2.2348265000036918,0,13,-0.16,0.16,396.454372600012,398.030516800005,0.08,0.24,0.0,0.08,0.24,0.08,0.04,0.08,0.24,393.92358740000054,393.92358740000054,393.92358740000054,393.92358740000054,393.92358740000054,393.92358740000054,393.92358740000054,393.92358740000054,393.9024375200039,2.6541324999998324,return,2.5004182999837212,,,,,,,,,,,,,,,,,,,,,,,,,,,,,,,,,CYDE2H,train_x,blue_star,top_left,2025-03-25_16h13.36.689,HideSeek_v1,2022.2.5,59.9811299255112,
,0,5,4,5,4,0,21,,train_dim1_1,6,30,,,,2,0,2,0,,,,,,,,,0,0,0,0,0,5,5,5,0,0,0,0,,,,,,,,,,,,,,,,,,,,,,,,,stimuli/alien_stimuli/21.png,,,,,,,,,,,,,,,,,,,,,,,,,,,,,stimuli/alien_stimuli/61.png,61,0,7,,,,,,,30,,,,,,,,405.2893049000413,405.2893049000413,405.2893049000413,405.2893049000413,405.2893049000413,right,3.258892499958165,3,0,0,99,-0.08,0,right,3.162688399956096,,,,,403.72720840002876,405.2893049000413,-0.16,0.16,0.0,0.0,0.16,-0.16,-0.16,-0.16,0.16,401.90828500001226,401.90828500001226,401.90828500001226,401.90828500001226,401.90828500001226,401.90828500001226,401.90828500001226,401.90828500001226,401.89226466005204,1.9205743000493385,return,1.7965192000265233,,,,,,,,,,,,,,,,,,,,,,,,,,,,,,,,,CYDE2H,train_x,blue_star,top_left,2025-03-25_16h13.36.689,HideSeek_v1,2022.2.5,59.9811299255112,
,0,5,4,5,4,0,21,,train_dim1_1,6,30,,,,2,0,2,0,,,,,,,,,0,0,0,0,0,5,5,5,1,0,1,0,,,,,,,,,,,,,,,,,,,,,,,,,,,,,,,,,,,,,,,,,,,,,,,,,,,,,,,,,,,,,,,,30,,,,,,,,408.54830020002555,408.54830020002555,408.54830020002555,408.54830020002555,408.54830020002555,right,0.49306139996042475,3,0,0,99,0.0,0,right,0.4029278000234626,,,,,,,,,,,,,,,,,,,,,,,,,,,,,,,,,,,,,,,,,,,,,,,,,,,,,,,,,,,,CYDE2H,train_x,blue_star,top_left,2025-03-25_16h13.36.689,HideSeek_v1,2022.2.5,59.9811299255112,
,0,5,4,5,4,0,21,,train_dim1_1,6,30,,,,2,0,2,0,,,,,,,,,0,0,0,0,0,5,5,5,2,0,2,0,,,,,,,,,,,,,,,,,,,,,,,,,,,,,,,,,,,,,,,,,,,,,,,,,,,,,,,,,,,,,,,,30,,,,,,,,409.04825180000626,409.04825180000626,409.04825180000626,409.04825180000626,409.04825180000626,right,0.49341729999287054,3,0,0,99,0.08,0,right,0.40296940004918724,,,,,,,,,,,,,,,,,,,,,,,,,,,,,,,,,,,,,,,,,,,,,,,,,,,,,,,,,,,,CYDE2H,train_x,blue_star,top_left,2025-03-25_16h13.36.689,HideSeek_v1,2022.2.5,59.9811299255112,
,0,5,4,5,4,0,21,,train_dim1_1,6,30,,,,2,0,2,0,,,,,,,,,0,0,0,0,0,5,5,5,3,0,3,0,,,,,,,,,,,,,,,,,,,,,,,,,,,,,,,,,,,,,,,,,,,,,,,,,,,,,,,,,,,,,,,,30,,,,,,,,409.5482258000411,409.5482258000411,409.5482258000411,409.5482258000411,409.5482258000411,right,0.493297100008931,3,0,0,99,0.16,0,right,0.4176478000008501,,,,,,,,,,,,,,,,,,,,,,,,,,,,,,,,,,,,,,,,,,,,,,,,,,,,,,,,,,,,CYDE2H,train_x,blue_star,top_left,2025-03-25_16h13.36.689,HideSeek_v1,2022.2.5,59.9811299255112,
,0,5,4,5,4,0,21,,train_dim1_1,6,30,,,,2,0,2,0,,,,,,,,,0,0,0,0,0,5,5,5,4,0,4,0,,,,,,,,,,,,,,,,,,,,,,,,,,,,,,,,,,,,,,,,,,,,,,,,,,,,,,,,,,,,,,,,30,,,,,,,,410.0497024000506,410.0497024000506,410.0497024000506,410.0497024000506,410.0497024000506,right,0.5265601000282913,3,0,0,99,0.24,0,right,0.43618010001955554,,,,,,,,,,,,,,,,,,,,,,,,,,,,,,,,,,,,,,,,,,,,,,,,,,,,,,,,,,,,CYDE2H,train_x,blue_star,top_left,2025-03-25_16h13.36.689,HideSeek_v1,2022.2.5,59.9811299255112,
,0,5,4,5,4,0,21,,train_dim1_1,6,30,,,,2,0,2,0,,,,,,,,,0,0,0,0,0,5,5,5,5,0,5,0,,,,,,,,,,,,,,,,,,,,,,,,,,,,,,,,,,,,,,,,,,,,,,,,,,,,,,,,,,,,,,,,30,,,,,,,,410.58345830003964,410.58345830003964,410.58345830003964,410.58345830003964,410.58345830003964,right,0.4767922000028193,3,0,0,99,0.32,0,right,0.3940348000032827,,,,,,,,,,,,,,,,,,,,,,,,,,,,,,,,,,,,,,,,,,,,,,,,,,,,,,,,,,,,CYDE2H,train_x,blue_star,top_left,2025-03-25_16h13.36.689,HideSeek_v1,2022.2.5,59.9811299255112,
,0,5,4,5,4,0,21,,train_dim1_1,6,30,,,,2,0,2,0,,,,,,,,,0,0,0,0,0,5,5,5,6,0,6,0,,,,,,,,,,,,,,,,,,,,,,,,,,,,,,,,,,,,,,,,,,,,,,,,,,,,,,,,,,,,,,,,30,,,,,,,,411.0671521000331,411.0671521000331,411.0671521000331,411.0671521000331,411.0671521000331,right,0.4766436000354588,3,0,0,99,0.4,0,right,0.38773570000194013,,,,,,,,,,,,,,,,,,,,,,,,,,,,,,,,,,,,,,,,,,,,,,,,,,,,,,,,,,,,CYDE2H,train_x,blue_star,top_left,2025-03-25_16h13.36.689,HideSeek_v1,2022.2.5,59.9811299255112,
,0,5,4,5,4,0,21,,train_dim1_1,6,30,,,,2,0,2,0,,,,,,,,,0,0,0,0,0,5,5,5,7,0,7,0,,,,,,,,,,,,,,,,,,,,,,,,,,,,,,,,,,,,,,,,,,,,,,,,,,,,,,,,,,,,,,,,30,,,,,,,,411.5498379000346,411.5498379000346,411.5498379000346,411.5498379000346,411.5498379000346,return,0.8938381999614649,3,0,0,0,0.4,0,return,0.8042084000189789,0,20,0.4,0,,,,,,,,,,,,,,,,,,,,,,,,,,,,,,,,,,,,,,,,,,,,,,,,,,,,,,,,CYDE2H,train_x,blue_star,top_left,2025-03-25_16h13.36.689,HideSeek_v1,2022.2.5,59.9811299255112,
,3,5,3,5,0,0,61,,train_dim1_1,7,30,,,,2,0,2,0,,,,,,,,,0,0,0,0,0,6,6,6,0,0,0,0,,,,,,,,,,,,,,,,,,,,,,,,,stimuli/alien_stimuli/61.png,,,,,,,,,,,,,,,,,,,,,,,,,,,,,stimuli/alien_stimuli/21.png,21,0,8,,,,,,,30,,,,,,,,419.48133720003534,419.48133720003534,419.48133720003534,419.48133720003534,419.48133720003534,return,2.506551399943419,4,0,0,1,0.08,0,return,2.4261266000103205,0,20,0.08,0,417.92239830002654,419.48133720003534,0.16,0,0.0,0.32,0.0,0.16,0.0,0.16,0,414.0112543000141,414.0112543000141,414.0112543000141,414.0112543000141,414.0112543000141,414.0112543000141,414.0112543000141,414.0112543000141,414.00241102001166,4.022002900019288,return,3.8878054000088014,,,,,,,,,,,,,,,,,,,,,,,,,,,,,,,,,CYDE2H,train_x,blue_star,top_left,2025-03-25_16h13.36.689,HideSeek_v1,2022.2.5,59.9811299255112,
,0,9,3,9,3,0,31,,train_dim1_1,8,30,,,,2,0,2,0,,,,,,,,,0,0,0,0,0,7,7,7,0,0,0,0,,,,,,,,,,,,,,,,,,,,,,,,,stimuli/alien_stimuli/31.png,,,,,,,,,,,,,,,,,,,,,,,,,,,,,stimuli/alien_stimuli/61.png,61,3,9,,,,,,,30,,,,,,,,427.7044080000487,427.7044080000487,427.7044080000487,427.7044080000487,427.7044080000487,right,2.2065690000308678,4,0,0,99,-0.08,0.32,right,2.123813299986068,,,,,426.1458535999991,427.7044080000487,0.08,0,0.0,0.0,0.0,0.08,0.08,0.08,0,423.5612817000365,423.5612817000365,423.5612817000365,423.5612817000365,423.5612817000365,423.5612817000365,423.5612817000365,423.5612817000365,423.54367842003705,2.7044209000305273,return,2.562856600037776,,,,,,,,,,,,,,,,,,,,,,,,,,,,,,,,,CYDE2H,train_x,blue_star,top_left,2025-03-25_16h13.36.689,HideSeek_v1,2022.2.5,59.9811299255112,
,0,9,3,9,3,0,31,,train_dim1_1,8,30,,,,2,0,2,0,,,,,,,,,0,0,0,0,0,7,7,7,1,0,1,0,,,,,,,,,,,,,,,,,,,,,,,,,,,,,,,,,,,,,,,,,,,,,,,,,,,,,,,,,,,,,,,,30,,,,,,,,429.91195070004323,429.91195070004323,429.91195070004323,429.91195070004323,429.91195070004323,right,0.4596509999828413,4,0,0,99,0.0,0.32,right,0.3788640999700874,,,,,,,,,,,,,,,,,,,,,,,,,,,,,,,,,,,,,,,,,,,,,,,,,,,,,,,,,,,,CYDE2H,train_x,blue_star,top_left,2025-03-25_16h13.36.689,HideSeek_v1,2022.2.5,59.9811299255112,
,0,9,3,9,3,0,31,,train_dim1_1,8,30,,,,2,0,2,0,,,,,,,,,0,0,0,0,0,7,7,7,2,0,2,0,,,,,,,,,,,,,,,,,,,,,,,,,,,,,,,,,,,,,,,,,,,,,,,,,,,,,,,,,,,,,,,,30,,,,,,,,430.3784789000056,430.3784789000056,430.3784789000056,430.3784789000056,430.3784789000056,right,0.49338780000107363,4,0,0,99,0.08,0.32,right,0.42012100003194064,,,,,,,,,,,,,,,,,,,,,,,,,,,,,,,,,,,,,,,,,,,,,,,,,,,,,,,,,,,,CYDE2H,train_x,blue_star,top_left,2025-03-25_16h13.36.689,HideSeek_v1,2022.2.5,59.9811299255112,
,0,9,3,9,3,0,31,,train_dim1_1,8,30,,,,2,0,2,0,,,,,,,,,0,0,0,0,0,7,7,7,3,0,3,0,,,,,,,,,,,,,,,,,,,,,,,,,,,,,,,,,,,,,,,,,,,,,,,,,,,,,,,,,,,,,,,,30,,,,,,,,430.8792382000247,430.8792382000247,430.8792382000247,430.8792382000247,430.8792382000247,return,2.9789990999852307,5,0,0,1,0.08,0.32,return,2.894440400006715,0,23,0.08,0.32,,,,,,,,,,,,,,,,,,,,,,,,,,,,,,,,,,,,,,,,,,,,,,,,,,,,,,,,CYDE2H,train_x,blue_star,top_left,2025-03-25_16h13.36.689,HideSeek_v1,2022.2.5,59.9811299255112,
,1,5,2,5,1,0,51,,train_dim1_1,9,30,,,,2,0,2,0,,,,,,,,,0,0,0,0,0,8,8,8,0,0,0,0,,,,,,,,,,,,,,,,,,,,,,,,,stimuli/alien_stimuli/51.png,,,,,,,,,,,,,,,,,,,,,,,,,,,,,stimuli/alien_stimuli/31.png,31,0,10,,,,,,,30,,,,,,,,440.31661160005024,440.31661160005024,440.31661160005024,440.31661160005024,440.31661160005024,right,1.706019799981732,5,0,0,99,0.0,0,right,1.6203016000217758,,,,,438.7564545000205,440.31661160005024,0.08,0.32,0.0,0.24,0.32,0.08,-0.04,0.08,0.32,435.4411674000439,435.4411674000439,435.4411674000439,435.4411674000439,435.4411674000439,435.4411674000439,435.4411674000439,435.4411674000439,435.4204428200261,3.438056199986022,return,3.2851171999936923,,,,,,,,,,,,,,,,,,,,,,,,,,,,,,,,,CYDE2H,train_x,blue_star,top_left,2025-03-25_16h13.36.689,HideSeek_v1,2022.2.5,59.9811299255112,
,1,5,2,5,1,0,51,,train_dim1_1,9,30,,,,2,0,2,0,,,,,,,,,0,0,0,0,0,8,8,8,1,0,1,0,,,,,,,,,,,,,,,,,,,,,,,,,,,,,,,,,,,,,,,,,,,,,,,,,,,,,,,,,,,,,,,,30,,,,,,,,442.0240512000164,442.0240512000164,442.0240512000164,442.0240512000164,442.0240512000164,right,5.830706200038549,5,0,0,99,0.08,0,right,5.748063100036234,,,,,,,,,,,,,,,,,,,,,,,,,,,,,,,,,,,,,,,,,,,,,,,,,,,,,,,,,,,,CYDE2H,train_x,blue_star,top_left,2025-03-25_16h13.36.689,HideSeek_v1,2022.2.5,59.9811299255112,
,1,5,2,5,1,0,51,,train_dim1_1,9,30,,,,2,0,2,0,,,,,,,,,0,0,0,0,0,8,8,8,2,0,2,0,,,,,,,,,,,,,,,,,,,,,,,,,,,,,,,,,,,,,,,,,,,,,,,,,,,,,,,,,,,,,,,,30,,,,,,,,447.8652871000231,447.8652871000231,447.8652871000231,447.8652871000231,447.8652871000231,return,0.9744788000243716,5,1,0,0,0.08,0,return,0.8865427999990061,0,25,0.08,0,,,,,,,,,,,,,,,,,,,,,,,,,,,,,,,,,,,,,,,,,,,,,,,,,,,,,,,,CYDE2H,train_x,blue_star,top_left,2025-03-25_16h13.36.689,HideSeek_v1,2022.2.5,59.9811299255112,
,0,8,5,8,5,0,11,,train_dim1_1,10,30,,,,2,0,2,0,,,,,,,,,0,0,0,0,0,9,9,9,0,0,0,0,,,,,,,,,,,,,,,,,,,,,,,,,stimuli/alien_stimuli/11.png,,,,,,,,,,,,,,,,,,,,,,,,,,,,,stimuli/alien_stimuli/51.png,51,1,11,,,,,,,30,,,,,,,,455.1304201000021,455.1304201000021,455.1304201000021,455.1304201000021,455.1304201000021,right,1.6069544999627396,5,1,0,99,-0.08,0.24,right,1.524045100028161,,,,,453.5685716000153,455.1304201000021,0,0,0.0,0.08,0.0,0,-0.04,0,0,450.4351934000151,450.4351934000151,450.4351934000151,450.4351934000151,450.4351934000151,450.4351934000151,450.4351934000151,450.4351934000151,450.4155853800243,3.2720037000253797,return,3.11223389999941,,,,,,,,,,,,,,,,,,,,,,,,,,,,,,,,,CYDE2H,train_x,blue_star,top_left,2025-03-25_16h13.36.689,HideSeek_v1,2022.2.5,59.9811299255112,
,0,8,5,8,5,0,11,,train_dim1_1,10,30,,,,2,0,2,0,,,,,,,,,0,0,0,0,0,9,9,9,1,0,1,0,,,,,,,,,,,,,,,,,,,,,,,,,,,,,,,,,,,,,,,,,,,,,,,,,,,,,,,,,,,,,,,,30,,,,,,,,456.73819550004555,456.73819550004555,456.73819550004555,456.73819550004555,456.73819550004555,right,0.4433347000158392,5,1,0,99,0.0,0.24,right,0.3595657999976538,,,,,,,,,,,,,,,,,,,,,,,,,,,,,,,,,,,,,,,,,,,,,,,,,,,,,,,,,,,,CYDE2H,train_x,blue_star,top_left,2025-03-25_16h13.36.689,HideSeek_v1,2022.2.5,59.9811299255112,
,0,8,5,8,5,0,11,,train_dim1_1,10,30,,,,2,0,2,0,,,,,,,,,0,0,0,0,0,9,9,9,2,0,2,0,,,,,,,,,,,,,,,,,,,,,,,,,,,,,,,,,,,,,,,,,,,,,,,,,,,,,,,,,,,,,,,,30,,,,,,,,457.1890089000226,457.1890089000226,457.1890089000226,457.1890089000226,457.1890089000226,right,0.4599047999945469,5,1,0,99,0.08,0.24,right,0.37799180002184585,,,,,,,,,,,,,,,,,,,,,,,,,,,,,,,,,,,,,,,,,,,,,,,,,,,,,,,,,,,,CYDE2H,train_x,blue_star,top_left,2025-03-25_16h13.36.689,HideSeek_v1,2022.2.5,59.9811299255112,
,0,8,5,8,5,0,11,,train_dim1_1,10,30,,,,2,0,2,0,,,,,,,,,0,0,0,0,0,9,9,9,3,0,3,0,,,,,,,,,,,,,,,,,,,,,,,,,,,,,,,,,,,,,,,,,,,,,,,,,,,,,,,,,,,,,,,,30,,,,,,,,457.65525460004574,457.65525460004574,457.65525460004574,457.65525460004574,457.65525460004574,right,0.5270080000045709,5,1,0,99,0.16,0.24,right,0.44292900001164526,,,,,,,,,,,,,,,,,,,,,,,,,,,,,,,,,,,,,,,,,,,,,,,,,,,,,,,,,,,,CYDE2H,train_x,blue_star,top_left,2025-03-25_16h13.36.689,HideSeek_v1,2022.2.5,59.9811299255112,
,0,8,5,8,5,0,11,,train_dim1_1,10,30,,,,2,0,2,0,,,,,,,,,0,0,0,0,0,9,9,9,4,0,4,0,,,,,,,,,,,,,,,,,,,,,,,,,,,,,,,,,,,,,,,,,,,,,,,,,,,,,,,,,,,,,,,,30,,,,,,,,458.1910448000417,458.1910448000417,458.1910448000417,458.1910448000417,458.1910448000417,right,0.459624300012365,5,1,0,99,0.24,0.24,right,0.3756125000072643,,,,,,,,,,,,,,,,,,,,,,,,,,,,,,,,,,,,,,,,,,,,,,,,,,,,,,,,,,,,CYDE2H,train_x,blue_star,top_left,2025-03-25_16h13.36.689,HideSeek_v1,2022.2.5,59.9811299255112,
,0,8,5,8,5,0,11,,train_dim1_1,10,30,,,,2,0,2,0,,,,,,,,,0,0,0,0,0,9,9,9,5,0,5,0,,,,,,,,,,,,,,,,,,,,,,,,,,,,,,,,,,,,,,,,,,,,,,,,,,,,,,,,,,,,,,,,30,,,,,,,,458.6566570000141,458.6566570000141,458.6566570000141,458.6566570000141,458.6566570000141,right,0.47683240001788363,5,1,0,99,0.32,0.24,right,0.3947953000315465,,,,,,,,,,,,,,,,,,,,,,,,,,,,,,,,,,,,,,,,,,,,,,,,,,,,,,,,,,,,CYDE2H,train_x,blue_star,top_left,2025-03-25_16h13.36.689,HideSeek_v1,2022.2.5,59.9811299255112,
,0,8,5,8,5,0,11,,train_dim1_1,10,30,,,,2,0,2,0,,,,,,,,,0,0,0,0,0,9,9,9,6,0,6,0,,,,,,,,,,,,,,,,,,,,,,,,,,,,,,,,,,,,,,,,,,,,,,,,,,,,,,,,,,,,,,,,30,,,,,,,,459.1406128000235,459.1406128000235,459.1406128000235,459.1406128000235,459.1406128000235,right,0.4765730000217445,5,1,0,99,0.4,0.24,right,0.3906068000360392,,,,,,,,,,,,,,,,,,,,,,,,,,,,,,,,,,,,,,,,,,,,,,,,,,,,,,,,,,,,CYDE2H,train_x,blue_star,top_left,2025-03-25_16h13.36.689,HideSeek_v1,2022.2.5,59.9811299255112,
,0,8,5,8,5,0,11,,train_dim1_1,10,30,,,,2,0,2,0,,,,,,,,,0,0,0,0,0,9,9,9,7,0,7,0,,,,,,,,,,,,,,,,,,,,,,,,,,,,,,,,,,,,,,,,,,,,,,,,,,,,,,,,,,,,,,,,30,,,,,,,,459.62370990001364,459.62370990001364,459.62370990001364,459.62370990001364,459.62370990001364,return,0.7101901000132784,5,0,0,0,0.4,0.24,return,0.6216805999865755,0,32,0.4,0.24,,,,,,,,,,,,,,,,,,,,,,,,,,,,,,,,,,,,,,,,,,,,,,,,,,,,,,,,CYDE2H,train_x,blue_star,top_left,2025-03-25_16h13.36.689,HideSeek_v1,2022.2.5,59.9811299255112,
,2,7,5,7,3,0,31,,train_dim1_1,11,30,,,,2,0,2,0,,,,,,,,,0,0,0,0,0,10,10,10,0,0,0,0,,,,,,,,,,,,,,,,,,,,,,,,,stimuli/alien_stimuli/31.png,,,,,,,,,,,,,,,,,,,,,,,,,,,,,stimuli/alien_stimuli/11.png,11,0,12,,,,,,,30,,,,,,,,467.43683489999967,467.43683489999967,467.43683489999967,467.43683489999967,467.43683489999967,right,3.1580632999539375,5,0,0,99,0.08,0.16,right,3.071336399996653,,,,,465.878713800048,467.43683489999967,0.24,0.24,0.0,0.4,0.24,0.24,0.039999999999999994,0.24,0.24,461.9151823000284,461.9151823000284,461.9151823000284,461.9151823000284,461.9151823000284,461.9151823000284,461.9151823000284,461.9151823000284,461.9088171800017,4.088806999963708,return,3.931716100021731,,,,,,,,,,,,,,,,,,,,,,,,,,,,,,,,,CYDE2H,train_x,blue_star,top_left,2025-03-25_16h13.36.689,HideSeek_v1,2022.2.5,59.9811299255112,
,2,7,5,7,3,0,31,,train_dim1_1,11,30,,,,2,0,2,0,,,,,,,,,0,0,0,0,0,10,10,10,1,0,1,0,,,,,,,,,,,,,,,,,,,,,,,,,,,,,,,,,,,,,,,,,,,,,,,,,,,,,,,,,,,,,,,,30,,,,,,,,470.5969856000156,470.5969856000156,470.5969856000156,470.5969856000156,470.5969856000156,right,0.44252649997361004,5,0,0,99,0.16,0.16,right,0.3591209999867715,,,,,,,,,,,,,,,,,,,,,,,,,,,,,,,,,,,,,,,,,,,,,,,,,,,,,,,,,,,,CYDE2H,train_x,blue_star,top_left,2025-03-25_16h13.36.689,HideSeek_v1,2022.2.5,59.9811299255112,
,2,7,5,7,3,0,31,,train_dim1_1,11,30,,,,2,0,2,0,,,,,,,,,0,0,0,0,0,10,10,10,2,0,2,0,,,,,,,,,,,,,,,,,,,,,,,,,,,,,,,,,,,,,,,,,,,,,,,,,,,,,,,,,,,,,,,,30,,,,,,,,471.0457055000006,471.0457055000006,471.0457055000006,471.0457055000006,471.0457055000006,right,0.4100705999881029,5,0,0,99,0.24,0.16,right,0.33611329999985173,,,,,,,,,,,,,,,,,,,,,,,,,,,,,,,,,,,,,,,,,,,,,,,,,,,,,,,,,,,,CYDE2H,train_x,blue_star,top_left,2025-03-25_16h13.36.689,HideSeek_v1,2022.2.5,59.9811299255112,
,2,7,5,7,3,0,31,,train_dim1_1,11,30,,,,2,0,2,0,,,,,,,,,0,0,0,0,0,10,10,10,3,0,3,0,,,,,,,,,,,,,,,,,,,,,,,,,,,,,,,,,,,,,,,,,,,,,,,,,,,,,,,,,,,,,,,,30,,,,,,,,471.46287550003035,471.46287550003035,471.46287550003035,471.46287550003035,471.46287550003035,right,0.41015409998362884,5,0,0,99,0.32,0.16,right,0.33062810002593324,,,,,,,,,,,,,,,,,,,,,,,,,,,,,,,,,,,,,,,,,,,,,,,,,,,,,,,,,,,,CYDE2H,train_x,blue_star,top_left,2025-03-25_16h13.36.689,HideSeek_v1,2022.2.5,59.9811299255112,
,2,7,5,7,3,0,31,,train_dim1_1,11,30,,,,2,0,2,0,,,,,,,,,0,0,0,0,0,10,10,10,4,0,4,0,,,,,,,,,,,,,,,,,,,,,,,,,,,,,,,,,,,,,,,,,,,,,,,,,,,,,,,,,,,,,,,,30,,,,,,,,471.8807256,471.8807256,471.8807256,471.8807256,471.8807256,right,0.4597119999816641,5,0,0,99,0.4,0.16,right,0.38634360005380586,,,,,,,,,,,,,,,,,,,,,,,,,,,,,,,,,,,,,,,,,,,,,,,,,,,,,,,,,,,,CYDE2H,train_x,blue_star,top_left,2025-03-25_16h13.36.689,HideSeek_v1,2022.2.5,59.9811299255112,
,2,7,5,7,3,0,31,,train_dim1_1,11,30,,,,2,0,2,0,,,,,,,,,0,0,0,0,0,10,10,10,5,0,5,0,,,,,,,,,,,,,,,,,,,,,,,,,,,,,,,,,,,,,,,,,,,,,,,,,,,,,,,,,,,,,,,,30,,,,,,,,472.3482645000331,472.3482645000331,472.3482645000331,472.3482645000331,472.3482645000331,return,1.1268753000185825,5,0,0,0,0.4,0.16,return,1.0487581999623217,0,37,0.4,0.16,,,,,,,,,,,,,,,,,,,,,,,,,,,,,,,,,,,,,,,,,,,,,,,,,,,,,,,,CYDE2H,train_x,blue_star,top_left,2025-03-25_16h13.36.689,HideSeek_v1,2022.2.5,59.9811299255112,
,0,5,4,5,4,0,21,,train_dim1_1,12,30,,,,2,0,2,0,,,,,,,,,0,0,0,0,0,11,11,11,0,0,0,0,,,,,,,,,,,,,,,,,,,,,,,,,stimuli/alien_stimuli/21.png,,,,,,,,,,,,,,,,,,,,,,,,,,,,,stimuli/alien_stimuli/31.png,31,2,13,,,,,,,30,,,,,,,,479.7332125999965,479.7332125999965,479.7332125999965,479.7332125999965,479.7332125999965,right,1.8908051999751478,5,0,0,99,-0.08,0,right,1.7932598000043072,,,,,478.1724960000138,479.7332125999965,0.24,0.16,0.0,0.24,0.16,0.24,0.12,0.24,0.16,475.0518643000396,475.0518643000396,475.0518643000396,475.0518643000396,475.0518643000396,475.0518643000396,475.0518643000396,475.0518643000396,475.0364551200415,3.238387399993371,return,3.1038942000013776,,,,,,,,,,,,,,,,,,,,,,,,,,,,,,,,,CYDE2H,train_x,blue_star,top_left,2025-03-25_16h13.36.689,HideSeek_v1,2022.2.5,59.9811299255112,
,0,5,4,5,4,0,21,,train_dim1_1,12,30,,,,2,0,2,0,,,,,,,,,0,0,0,0,0,11,11,11,1,0,1,0,,,,,,,,,,,,,,,,,,,,,,,,,,,,,,,,,,,,,,,,,,,,,,,,,,,,,,,,,,,,,,,,30,,,,,,,,481.6262756000506,481.6262756000506,481.6262756000506,481.6262756000506,481.6262756000506,right,0.859963399998378,5,0,0,99,0.0,0,right,0.7830037000239827,,,,,,,,,,,,,,,,,,,,,,,,,,,,,,,,,,,,,,,,,,,,,,,,,,,,,,,,,,,,CYDE2H,train_x,blue_star,top_left,2025-03-25_16h13.36.689,HideSeek_v1,2022.2.5,59.9811299255112,
,0,5,4,5,4,0,21,,train_dim1_1,12,30,,,,2,0,2,0,,,,,,,,,0,0,0,0,0,11,11,11,2,0,2,0,,,,,,,,,,,,,,,,,,,,,,,,,,,,,,,,,,,,,,,,,,,,,,,,,,,,,,,,,,,,,,,,30,,,,,,,,482.492485099996,482.492485099996,482.492485099996,482.492485099996,482.492485099996,right,0.7270443000015803,5,0,0,99,0.08,0,right,0.6506464999984019,,,,,,,,,,,,,,,,,,,,,,,,,,,,,,,,,,,,,,,,,,,,,,,,,,,,,,,,,,,,CYDE2H,train_x,blue_star,top_left,2025-03-25_16h13.36.689,HideSeek_v1,2022.2.5,59.9811299255112,
,0,5,4,5,4,0,21,,train_dim1_1,12,30,,,,2,0,2,0,,,,,,,,,0,0,0,0,0,11,11,11,3,0,3,0,,,,,,,,,,,,,,,,,,,,,,,,,,,,,,,,,,,,,,,,,,,,,,,,,,,,,,,,,,,,,,,,30,,,,,,,,483.2262999000377,483.2262999000377,483.2262999000377,483.2262999000377,483.2262999000377,right,0.6600095999892801,5,0,0,99,0.16,0,right,0.5825574999907985,,,,,,,,,,,,,,,,,,,,,,,,,,,,,,,,,,,,,,,,,,,,,,,,,,,,,,,,,,,,CYDE2H,train_x,blue_star,top_left,2025-03-25_16h13.36.689,HideSeek_v1,2022.2.5,59.9811299255112,
,0,5,4,5,4,0,21,,train_dim1_1,12,30,,,,2,0,2,0,,,,,,,,,0,0,0,0,0,11,11,11,4,0,4,0,,,,,,,,,,,,,,,,,,,,,,,,,,,,,,,,,,,,,,,,,,,,,,,,,,,,,,,,,,,,,,,,30,,,,,,,,483.89323410001816,483.89323410001816,483.89323410001816,483.89323410001816,483.89323410001816,right,2.845045200025197,5,0,0,99,0.24,0,right,2.7679711999953724,,,,,,,,,,,,,,,,,,,,,,,,,,,,,,,,,,,,,,,,,,,,,,,,,,,,,,,,,,,,CYDE2H,train_x,blue_star,top_left,2025-03-25_16h13.36.689,HideSeek_v1,2022.2.5,59.9811299255112,
,0,5,4,5,4,0,21,,train_dim1_1,12,30,,,,2,0,2,0,,,,,,,,,0,0,0,0,0,11,11,11,5,0,5,0,,,,,,,,,,,,,,,,,,,,,,,,,,,,,,,,,,,,,,,,,,,,,,,,,,,,,,,,,,,,,,,,30,,,,,,,,486.74571620003553,486.74571620003553,486.74571620003553,486.74571620003553,486.74571620003553,return,0.9105884000309743,5,1,0,0,0.24,0,return,0.8256338000064716,0,42,0.24,0,,,,,,,,,,,,,,,,,,,,,,,,,,,,,,,,,,,,,,,,,,,,,,,,,,,,,,,,CYDE2H,train_x,blue_star,top_left,2025-03-25_16h13.36.689,HideSeek_v1,2022.2.5,59.9811299255112,
,0,9,1,9,1,0,51,,train_dim1_1,13,30,,,,2,0,2,0,,,,,,,,,0,0,0,0,0,12,12,12,0,0,0,0,,,,,,,,,,,,,,,,,,,,,,,,,stimuli/alien_stimuli/51.png,,,,,,,,,,,,,,,,,,,,,,,,,,,,,stimuli/alien_stimuli/21.png,21,0,14,,,,,,,30,,,,,,,,492.6247053000261,492.6247053000261,492.6247053000261,492.6247053000261,492.6247053000261,right,1.623032100033015,5,1,0,99,-0.08,0.32,right,1.5163636999786831,,,,,491.04984170000535,492.6247053000261,0.16,0,0.0,0.32,0.0,0.16,0.0,0.16,0,489.24268000002485,489.24268000002485,489.24268000002485,489.24268000002485,489.24268000002485,489.24268000002485,489.24268000002485,489.24268000002485,489.2316407800303,1.9369230999727733,return,1.7780433000298217,,,,,,,,,,,,,,,,,,,,,,,,,,,,,,,,,CYDE2H,train_x,blue_star,top_left,2025-03-25_16h13.36.689,HideSeek_v1,2022.2.5,59.9811299255112,
,0,9,1,9,1,0,51,,train_dim1_1,13,30,,,,2,0,2,0,,,,,,,,,0,0,0,0,0,12,12,12,1,0,1,0,,,,,,,,,,,,,,,,,,,,,,,,,,,,,,,,,,,,,,,,,,,,,,,,,,,,,,,,,,,,,,,,30,,,,,,,,494.2351685000467,494.2351685000467,494.2351685000467,494.2351685000467,494.2351685000467,return,0.8098916999879293,6,0,0,1,-0.08,0.32,return,0.7313084999914281,0,43,-0.08,0.32,,,,,,,,,,,,,,,,,,,,,,,,,,,,,,,,,,,,,,,,,,,,,,,,,,,,,,,,CYDE2H,train_x,blue_star,top_left,2025-03-25_16h13.36.689,HideSeek_v1,2022.2.5,59.9811299255112,
,4,8,9,8,5,0,11,,train_dim1_1,14,30,,,,2,0,2,0,,,,,,,,,0,0,0,0,0,13,13,13,0,0,0,0,,,,,,,,,,,,,,,,,,,,,,,,,stimuli/alien_stimuli/11.png,,,,,,,,,,,,,,,,,,,,,,,,,,,,,stimuli/alien_stimuli/51.png,51,0,15,,,,,,,30,,,,,,,,499.9063079000334,499.9063079000334,499.9063079000334,499.9063079000334,499.9063079000334,right,1.4549685000092722,6,0,0,99,0.24,0.24,right,1.3469693000079133,,,,,498.32235580001725,499.9063079000334,-0.08,0.32,0.0,0.08,0.32,-0.08,-0.12,-0.08,0.32,496.61057430005167,496.61057430005167,496.61057430005167,496.61057430005167,496.61057430005167,496.61057430005167,496.61057430005167,496.61057430005167,496.5876814600313,1.8201603000052273,return,1.6867452999576926,,,,,,,,,,,,,,,,,,,,,,,,,,,,,,,,,CYDE2H,train_x,blue_star,top_left,2025-03-25_16h13.36.689,HideSeek_v1,2022.2.5,59.9811299255112,
,4,8,9,8,5,0,11,,train_dim1_1,14,30,,,,2,0,2,0,,,,,,,,,0,0,0,0,0,13,13,13,1,0,1,0,,,,,,,,,,,,,,,,,,,,,,,,,,,,,,,,,,,,,,,,,,,,,,,,,,,,,,,,,,,,,,,,30,,,,,,,,501.342833600007,501.342833600007,501.342833600007,501.342833600007,501.342833600007,right,0.47603979997802526,6,0,0,99,0.32,0.24,right,0.3838691000128165,,,,,,,,,,,,,,,,,,,,,,,,,,,,,,,,,,,,,,,,,,,,,,,,,,,,,,,,,,,,CYDE2H,train_x,blue_star,top_left,2025-03-25_16h13.36.689,HideSeek_v1,2022.2.5,59.9811299255112,
,4,8,9,8,5,0,11,,train_dim1_1,14,30,,,,2,0,2,0,,,,,,,,,0,0,0,0,0,13,13,13,2,0,2,0,,,,,,,,,,,,,,,,,,,,,,,,,,,,,,,,,,,,,,,,,,,,,,,,,,,,,,,,,,,,,,,,30,,,,,,,,501.8254673000192,501.8254673000192,501.8254673000192,501.8254673000192,501.8254673000192,right,0.4099930999800563,6,0,0,99,0.4,0.24,right,0.3288990000146441,,,,,,,,,,,,,,,,,,,,,,,,,,,,,,,,,,,,,,,,,,,,,,,,,,,,,,,,,,,,CYDE2H,train_x,blue_star,top_left,2025-03-25_16h13.36.689,HideSeek_v1,2022.2.5,59.9811299255112,
,4,8,9,8,5,0,11,,train_dim1_1,14,30,,,,2,0,2,0,,,,,,,,,0,0,0,0,0,13,13,13,3,0,3,0,,,,,,,,,,,,,,,,,,,,,,,,,,,,,,,,,,,,,,,,,,,,,,,,,,,,,,,,,,,,,,,,30,,,,,,,,502.24172120000003,502.24172120000003,502.24172120000003,502.24172120000003,502.24172120000003,right,0.3764705000212416,6,0,0,99,0.48000000000000004,0.24,right,0.29031260003102943,,,,,,,,,,,,,,,,,,,,,,,,,,,,,,,,,,,,,,,,,,,,,,,,,,,,,,,,,,,,CYDE2H,train_x,blue_star,top_left,2025-03-25_16h13.36.689,HideSeek_v1,2022.2.5,59.9811299255112,
,4,8,9,8,5,0,11,,train_dim1_1,14,30,,,,2,0,2,0,,,,,,,,,0,0,0,0,0,13,13,13,4,0,4,0,,,,,,,,,,,,,,,,,,,,,,,,,,,,,,,,,,,,,,,,,,,,,,,,,,,,,,,,,,,,,,,,30,,,,,,,,502.6298850000021,502.6298850000021,502.6298850000021,502.6298850000021,502.6298850000021,right,0.4086972000077367,6,0,0,99,0.56,0.24,right,0.32163740001851693,,,,,,,,,,,,,,,,,,,,,,,,,,,,,,,,,,,,,,,,,,,,,,,,,,,,,,,,,,,,CYDE2H,train_x,blue_star,top_left,2025-03-25_16h13.36.689,HideSeek_v1,2022.2.5,59.9811299255112,
,4,8,9,8,5,0,11,,train_dim1_1,14,30,,,,2,0,2,0,,,,,,,,,0,0,0,0,0,13,13,13,5,0,5,0,,,,,,,,,,,,,,,,,,,,,,,,,,,,,,,,,,,,,,,,,,,,,,,,,,,,,,,,,,,,,,,,30,,,,,,,,503.0457698000246,503.0457698000246,503.0457698000246,503.0457698000246,503.0457698000246,return,1.5437552999937907,7,0,0,1,0.56,0.24,return,1.4502990000182763,0,48,0.56,0.24,,,,,,,,,,,,,,,,,,,,,,,,,,,,,,,,,,,,,,,,,,,,,,,,,,,,,,,,CYDE2H,train_x,blue_star,top_left,2025-03-25_16h13.36.689,HideSeek_v1,2022.2.5,59.9811299255112,
,4,7,4,7,0,0,61,,train_dim1_1,15,30,,,,2,0,2,0,,,,,,,,,0,0,0,0,0,14,14,14,0,0,0,0,,,,,,,,,,,,,,,,,,,,,,,,,stimuli/alien_stimuli/61.png,,,,,,,,,,,,,,,,,,,,,,,,,,,,,stimuli/alien_stimuli/11.png,11,4,16,,,,,,,30,,,,,,,,508.9977605000022,508.9977605000022,508.9977605000022,508.9977605000022,508.9977605000022,return,1.7877278000232764,8,0,0,1,0.16,0.16,return,1.6893257000483572,0,48,0.16,0.16,507.43000380002195,508.9977605000022,0.56,0.24,0.0,0.4,0.24,0.56,0.36000000000000004,0.56,0.24,506.14987490000203,506.14987490000203,506.14987490000203,506.14987490000203,506.14987490000203,506.14987490000203,506.14987490000203,506.14987490000203,506.12891486003065,1.3868561999988742,return,1.2630704999901354,,,,,,,,,,,,,,,,,,,,,,,,,,,,,,,,,CYDE2H,train_x,blue_star,top_left,2025-03-25_16h13.36.689,HideSeek_v1,2022.2.5,59.9811299255112,
,3,8,4,8,1,0,51,,train_dim1_1,16,30,,,,2,0,2,0,,,,,,,,,0,0,0,0,0,15,15,15,0,0,0,0,,,,,,,,,,,,,,,,,,,,,,,,,stimuli/alien_stimuli/51.png,,,,,,,,,,,,,,,,,,,,,,,,,,,,,stimuli/alien_stimuli/61.png,61,4,17,,,,,,,30,,,,,,,,515.000091199996,515.000091199996,515.000091199996,515.000091199996,515.000091199996,right,1.388712999993004,8,0,0,99,0.16,0.24,right,1.2987155999871902,,,,,513.435073300032,515.000091199996,0.16,0.16,0.0,0.0,0.16,0.16,0.16,0.16,0.16,512.3336626000237,512.3336626000237,512.3336626000237,512.3336626000237,512.3336626000237,512.3336626000237,512.3336626000237,512.3336626000237,512.3174006600282,1.2031325999996625,return,1.0699118999764323,,,,,,,,,,,,,,,,,,,,,,,,,,,,,,,,,CYDE2H,train_x,blue_star,top_left,2025-03-25_16h13.36.689,HideSeek_v1,2022.2.5,59.9811299255112,
,3,8,4,8,1,0,51,,train_dim1_1,16,30,,,,2,0,2,0,,,,,,,,,0,0,0,0,0,15,15,15,1,0,1,0,,,,,,,,,,,,,,,,,,,,,,,,,,,,,,,,,,,,,,,,,,,,,,,,,,,,,,,,,,,,,,,,30,,,,,,,,516.3859922999982,516.3859922999982,516.3859922999982,516.3859922999982,516.3859922999982,return,0.5262655999977142,9,0,0,1,0.16,0.24,return,0.439032300026156,0,49,0.16,0.24,,,,,,,,,,,,,,,,,,,,,,,,,,,,,,,,,,,,,,,,,,,,,,,,,,,,,,,,CYDE2H,train_x,blue_star,top_left,2025-03-25_16h13.36.689,HideSeek_v1,2022.2.5,59.9811299255112,
,2,9,6,9,4,0,21,,train_dim1_1,17,30,,,,2,0,2,0,,,,,,,,,0,0,0,0,0,16,16,16,0,0,0,0,,,,,,,,,,,,,,,,,,,,,,,,,stimuli/alien_stimuli/21.png,,,,,,,,,,,,,,,,,,,,,,,,,,,,,stimuli/alien_stimuli/51.png,51,3,18,,,,,,,30,,,,,,,,521.004264200048,521.004264200048,521.004264200048,521.004264200048,521.004264200048,right,1.487170199980028,9,0,0,99,0.08,0.32,right,1.4059735999908298,,,,,519.4401945000282,521.004264200048,0.16,0.24,0.0,0.08,0.24,0.16,0.12,0.16,0.24,518.4790763000492,518.4790763000492,518.4790763000492,518.4790763000492,518.4790763000492,518.4790763000492,518.4790763000492,518.4790763000492,518.4560451600235,1.0696192999603227,return,0.9330696999677457,,,,,,,,,,,,,,,,,,,,,,,,,,,,,,,,,CYDE2H,train_x,blue_star,top_left,2025-03-25_16h13.36.689,HideSeek_v1,2022.2.5,59.9811299255112,
,2,9,6,9,4,0,21,,train_dim1_1,17,30,,,,2,0,2,0,,,,,,,,,0,0,0,0,0,16,16,16,1,0,1,0,,,,,,,,,,,,,,,,,,,,,,,,,,,,,,,,,,,,,,,,,,,,,,,,,,,,,,,,,,,,,,,,30,,,,,,,,522.4935867000022,522.4935867000022,522.4935867000022,522.4935867000022,522.4935867000022,right,0.5263453999650665,9,0,0,99,0.16,0.32,right,0.4339162999531254,,,,,,,,,,,,,,,,,,,,,,,,,,,,,,,,,,,,,,,,,,,,,,,,,,,,,,,,,,,,CYDE2H,train_x,blue_star,top_left,2025-03-25_16h13.36.689,HideSeek_v1,2022.2.5,59.9811299255112,
,2,9,6,9,4,0,21,,train_dim1_1,17,30,,,,2,0,2,0,,,,,,,,,0,0,0,0,0,16,16,16,2,0,2,0,,,,,,,,,,,,,,,,,,,,,,,,,,,,,,,,,,,,,,,,,,,,,,,,,,,,,,,,,,,,,,,,30,,,,,,,,523.0271794000291,523.0271794000291,523.0271794000291,523.0271794000291,523.0271794000291,right,0.5096147999865934,9,0,0,99,0.24,0.32,right,0.41783619998022914,,,,,,,,,,,,,,,,,,,,,,,,,,,,,,,,,,,,,,,,,,,,,,,,,,,,,,,,,,,,CYDE2H,train_x,blue_star,top_left,2025-03-25_16h13.36.689,HideSeek_v1,2022.2.5,59.9811299255112,
,2,9,6,9,4,0,21,,train_dim1_1,17,30,,,,2,0,2,0,,,,,,,,,0,0,0,0,0,16,16,16,3,0,3,0,,,,,,,,,,,,,,,,,,,,,,,,,,,,,,,,,,,,,,,,,,,,,,,,,,,,,,,,,,,,,,,,30,,,,,,,,523.5443248000229,523.5443248000229,523.5443248000229,523.5443248000229,523.5443248000229,right,0.526751100027468,9,0,0,99,0.32,0.32,right,0.43735570000717416,,,,,,,,,,,,,,,,,,,,,,,,,,,,,,,,,,,,,,,,,,,,,,,,,,,,,,,,,,,,CYDE2H,train_x,blue_star,top_left,2025-03-25_16h13.36.689,HideSeek_v1,2022.2.5,59.9811299255112,
,2,9,6,9,4,0,21,,train_dim1_1,17,30,,,,2,0,2,0,,,,,,,,,0,0,0,0,0,16,16,16,4,0,4,0,,,,,,,,,,,,,,,,,,,,,,,,,,,,,,,,,,,,,,,,,,,,,,,,,,,,,,,,,,,,,,,,30,,,,,,,,524.0765673000133,524.0765673000133,524.0765673000133,524.0765673000133,524.0765673000133,return,1.027069500007201,10,0,0,1,0.32,0.32,return,0.9378633999731392,0,53,0.32,0.32,,,,,,,,,,,,,,,,,,,,,,,,,,,,,,,,,,,,,,,,,,,,,,,,,,,,,,,,CYDE2H,train_x,blue_star,top_left,2025-03-25_16h13.36.689,HideSeek_v1,2022.2.5,59.9811299255112,
,2,6,2,6,0,0,61,,train_dim1_1,18,30,,,,2,0,2,0,,,,,,,,,0,0,0,0,0,17,17,17,0,0,0,0,,,,,,,,,,,,,,,,,,,,,,,,,stimuli/alien_stimuli/61.png,,,,,,,,,,,,,,,,,,,,,,,,,,,,,stimuli/alien_stimuli/21.png,21,2,19,,,,,,,30,,,,,,,,529.1730199000449,529.1730199000449,529.1730199000449,529.1730199000449,529.1730199000449,return,1.2551629000226967,11,0,0,1,0,0.08,return,1.1516110000084154,0,53,0,0.08,527.5967743000365,529.1730199000449,0.32,0.32,0.0,0.32,0.32,0.32,0.16,0.32,0.32,526.666955200024,526.666955200024,526.666955200024,526.666955200024,526.666955200024,526.666955200024,526.666955200024,526.666955200024,526.6620933200115,1.0369015000178479,return,0.9019015000085346,,,,,,,,,,,,,,,,,,,,,,,,,,,,,,,,,CYDE2H,train_x,blue_star,top_left,2025-03-25_16h13.36.689,HideSeek_v1,2022.2.5,59.9811299255112,
,0,8,3,8,3,0,31,,train_dim1_1,19,30,,,,2,0,2,0,,,,,,,,,0,0,0,0,0,18,18,18,0,0,0,0,,,,,,,,,,,,,,,,,,,,,,,,,stimuli/alien_stimuli/31.png,,,,,,,,,,,,,,,,,,,,,,,,,,,,,stimuli/alien_stimuli/61.png,61,2,20,,,,,,,30,,,,,,,,534.5927419000072,534.5927419000072,534.5927419000072,534.5927419000072,534.5927419000072,right,1.456216000020504,11,0,0,99,-0.08,0.24,right,1.3700841999961995,,,,,533.0346834000084,534.5927419000072,0,0.08,0.0,0.0,0.08,0,0.0,0,0.08,531.9653875000076,531.9653875000076,531.9653875000076,531.9653875000076,531.9653875000076,531.9653875000076,531.9653875000076,531.9653875000076,531.9502165600541,1.1703175000147894,return,1.0527916999999434,,,,,,,,,,,,,,,,,,,,,,,,,,,,,,,,,CYDE2H,train_x,blue_star,top_left,2025-03-25_16h13.36.689,HideSeek_v1,2022.2.5,59.9811299255112,
,0,8,3,8,3,0,31,,train_dim1_1,19,30,,,,2,0,2,0,,,,,,,,,0,0,0,0,0,18,18,18,1,0,1,0,,,,,,,,,,,,,,,,,,,,,,,,,,,,,,,,,,,,,,,,,,,,,,,,,,,,,,,,,,,,,,,,30,,,,,,,,536.0503992000013,536.0503992000013,536.0503992000013,536.0503992000013,536.0503992000013,right,0.45956459996523336,11,0,0,99,0.0,0.24,right,0.37459970003692433,,,,,,,,,,,,,,,,,,,,,,,,,,,,,,,,,,,,,,,,,,,,,,,,,,,,,,,,,,,,CYDE2H,train_x,blue_star,top_left,2025-03-25_16h13.36.689,HideSeek_v1,2022.2.5,59.9811299255112,
,0,8,3,8,3,0,31,,train_dim1_1,19,30,,,,2,0,2,0,,,,,,,,,0,0,0,0,0,18,18,18,2,0,2,0,,,,,,,,,,,,,,,,,,,,,,,,,,,,,,,,,,,,,,,,,,,,,,,,,,,,,,,,,,,,,,,,30,,,,,,,,536.5163312000223,536.5163312000223,536.5163312000223,536.5163312000223,536.5163312000223,right,0.15994730003876612,11,0,0,99,0.08,0.24,right,0.08372560003772378,,,,,,,,,,,,,,,,,,,,,,,,,,,,,,,,,,,,,,,,,,,,,,,,,,,,,,,,,,,,CYDE2H,train_x,blue_star,top_left,2025-03-25_16h13.36.689,HideSeek_v1,2022.2.5,59.9811299255112,
,0,8,3,8,3,0,31,,train_dim1_1,19,30,,,,2,0,2,0,,,,,,,,,0,0,0,0,0,18,18,18,3,0,3,0,,,,,,,,,,,,,,,,,,,,,,,,,,,,,,,,,,,,,,,,,,,,,,,,,,,,,,,,,,,,,,,,30,,,,,,,,536.6849404000095,536.6849404000095,536.6849404000095,536.6849404000095,536.6849404000095,return,1.260488500003703,12,0,0,1,0.08,0.24,return,1.1744253000360914,0,56,0.08,0.24,,,,,,,,,,,,,,,,,,,,,,,,,,,,,,,,,,,,,,,,,,,,,,,,,,,,,,,,CYDE2H,train_x,blue_star,top_left,2025-03-25_16h13.36.689,HideSeek_v1,2022.2.5,59.9811299255112,
,0,6,5,6,5,0,11,,train_dim1_1,20,30,,,,2,0,2,0,,,,,,,,,0,0,0,0,0,19,19,19,0,0,0,0,,,,,,,,,,,,,,,,,,,,,,,,,stimuli/alien_stimuli/11.png,,,,,,,,,,,,,,,,,,,,,,,,,,,,,stimuli/alien_stimuli/31.png,31,0,21,,,,,,,30,,,,,,,,542.149988899997,542.149988899997,542.149988899997,542.149988899997,542.149988899997,right,1.2238528999732807,12,0,0,99,-0.08,0.08,right,1.1385235999478027,,,,,540.5910024000332,542.149988899997,0.08,0.24,0.0,0.24,0.24,0.08,-0.04,0.08,0.24,539.5101509000524,539.5101509000524,539.5101509000524,539.5101509000524,539.5101509000524,539.5101509000524,539.5101509000524,539.5101509000524,539.4896817600354,1.1867864000378177,return,1.053741000010632,,,,,,,,,,,,,,,,,,,,,,,,,,,,,,,,,CYDE2H,train_x,blue_star,top_left,2025-03-25_16h13.36.689,HideSeek_v1,2022.2.5,59.9811299255112,
,0,6,5,6,5,0,11,,train_dim1_1,20,30,,,,2,0,2,0,,,,,,,,,0,0,0,0,0,19,19,19,1,0,1,0,,,,,,,,,,,,,,,,,,,,,,,,,,,,,,,,,,,,,,,,,,,,,,,,,,,,,,,,,,,,,,,,30,,,,,,,,543.3768148000236,543.3768148000236,543.3768148000236,543.3768148000236,543.3768148000236,right,0.576489600003697,12,0,0,99,0.0,0.08,right,0.48950470000272617,,,,,,,,,,,,,,,,,,,,,,,,,,,,,,,,,,,,,,,,,,,,,,,,,,,,,,,,,,,,CYDE2H,train_x,blue_star,top_left,2025-03-25_16h13.36.689,HideSeek_v1,2022.2.5,59.9811299255112,
,0,6,5,6,5,0,11,,train_dim1_1,20,30,,,,2,0,2,0,,,,,,,,,0,0,0,0,0,19,19,19,2,0,2,0,,,,,,,,,,,,,,,,,,,,,,,,,,,,,,,,,,,,,,,,,,,,,,,,,,,,,,,,,,,,,,,,30,,,,,,,,543.9605216000346,543.9605216000346,543.9605216000346,543.9605216000346,543.9605216000346,right,0.4434053000295535,12,0,0,99,0.08,0.08,right,0.36165440001059324,,,,,,,,,,,,,,,,,,,,,,,,,,,,,,,,,,,,,,,,,,,,,,,,,,,,,,,,,,,,CYDE2H,train_x,blue_star,top_left,2025-03-25_16h13.36.689,HideSeek_v1,2022.2.5,59.9811299255112,
,0,6,5,6,5,0,11,,train_dim1_1,20,30,,,,2,0,2,0,,,,,,,,,0,0,0,0,0,19,19,19,3,0,3,0,,,,,,,,,,,,,,,,,,,,,,,,,,,,,,,,,,,,,,,,,,,,,,,,,,,,,,,,,,,,,,,,30,,,,,,,,544.4099913000246,544.4099913000246,544.4099913000246,544.4099913000246,544.4099913000246,right,0.4430876999977045,12,0,0,99,0.16,0.08,right,0.3529413000214845,,,,,,,,,,,,,,,,,,,,,,,,,,,,,,,,,,,,,,,,,,,,,,,,,,,,,,,,,,,,CYDE2H,train_x,blue_star,top_left,2025-03-25_16h13.36.689,HideSeek_v1,2022.2.5,59.9811299255112,
,0,6,5,6,5,0,11,,train_dim1_1,20,30,,,,2,0,2,0,,,,,,,,,0,0,0,0,0,19,19,19,4,0,4,0,,,,,,,,,,,,,,,,,,,,,,,,,,,,,,,,,,,,,,,,,,,,,,,,,,,,,,,,,,,,,,,,30,,,,,,,,544.8607438000035,544.8607438000035,544.8607438000035,544.8607438000035,544.8607438000035,right,3.4795891999965534,12,0,0,99,0.24,0.08,right,3.4041989000397734,,,,,,,,,,,,,,,,,,,,,,,,,,,,,,,,,,,,,,,,,,,,,,,,,,,,,,,,,,,,CYDE2H,train_x,blue_star,top_left,2025-03-25_16h13.36.689,HideSeek_v1,2022.2.5,59.9811299255112,
,0,6,5,6,5,0,11,,train_dim1_1,20,30,,,,2,0,2,0,,,,,,,,,0,0,0,0,0,19,19,19,5,0,5,0,,,,,,,,,,,,,,,,,,,,,,,,,,,,,,,,,,,,,,,,,,,,,,,,,,,,,,,,,,,,,,,,30,,,,,,,,548.3476315000444,548.3476315000444,548.3476315000444,548.3476315000444,548.3476315000444,right,0.5763164000236429,12,0,0,99,0.32,0.08,right,0.49411019997205585,,,,,,,,,,,,,,,,,,,,,,,,,,,,,,,,,,,,,,,,,,,,,,,,,,,,,,,,,,,,CYDE2H,train_x,blue_star,top_left,2025-03-25_16h13.36.689,HideSeek_v1,2022.2.5,59.9811299255112,
,0,6,5,6,5,0,11,,train_dim1_1,20,30,,,,2,0,2,0,,,,,,,,,0,0,0,0,0,19,19,19,6,0,6,0,,,,,,,,,,,,,,,,,,,,,,,,,,,,,,,,,,,,,,,,,,,,,,,,,,,,,,,,,,,,,,,,30,,,,,,,,548.93178730004,548.93178730004,548.93178730004,548.93178730004,548.93178730004,left,1.5109755999874324,12,0,0,99,0.24,0.08,left,1.4335749999736436,,,,,,,,,,,,,,,,,,,,,,,,,,,,,,,,,,,,,,,,,,,,,,,,,,,,,,,,,,,,CYDE2H,train_x,blue_star,top_left,2025-03-25_16h13.36.689,HideSeek_v1,2022.2.5,59.9811299255112,
,0,6,5,6,5,0,11,,train_dim1_1,20,30,,,,2,0,2,0,,,,,,,,,0,0,0,0,0,19,19,19,7,0,7,0,,,,,,,,,,,,,,,,,,,,,,,,,,,,,,,,,,,,,,,,,,,,,,,,,,,,,,,,,,,,,,,,30,,,,,,,,550.4489302000147,550.4489302000147,550.4489302000147,550.4489302000147,550.4489302000147,return,0.6933970999671146,13,0,0,1,0.24,0.08,return,0.6163582999724895,0,61,0.24,0.08,,,,,,,,,,,,,,,,,,,,,,,,,,,,,,,,,,,,,,,,,,,,,,,,,,,,,,,,CYDE2H,train_x,blue_star,top_left,2025-03-25_16h13.36.689,HideSeek_v1,2022.2.5,59.9811299255112,
,4,7,7,7,3,0,31,,train_dim1_1,21,30,,,,2,0,2,0,,,,,,,,,0,0,0,0,0,20,20,20,0,0,0,0,,,,,,,,,,,,,,,,,,,,,,,,,stimuli/alien_stimuli/31.png,,,,,,,,,,,,,,,,,,,,,,,,,,,,,stimuli/alien_stimuli/11.png,11,0,22,,,,,,,30,,,,,,,,555.2401812000317,555.2401812000317,555.2401812000317,555.2401812000317,555.2401812000317,right,2.10774120001588,13,0,0,99,0.24,0.16,right,2.006232200015802,,,,,553.6540149000357,552.7274780000444,0.24,0.08,0.0,0.4,0.08,0.24,0.039999999999999994,0.24,0.08,552.7274780000444,552.7274780000444,552.7274780000444,552.7274780000444,552.7274780000444,552.7274780000444,552.7274780000444,552.7274780000444,552.7176845800481,1.0565465999534354,return,0.9073122999980114,,,,,,,,,,,,,,,,,,,,,,,,,,,,,,,,,CYDE2H,train_x,blue_star,top_left,2025-03-25_16h13.36.689,HideSeek_v1,2022.2.5,59.9811299255112,
,4,7,7,7,3,0,31,,train_dim1_1,21,30,,,,2,0,2,0,,,,,,,,,0,0,0,0,0,20,20,20,1,0,1,0,,,,,,,,,,,,,,,,,,,,,,,,,,,,,,,,,,,,,,,,,,,,,,,,,,,,,,,,,,,,,,,,30,,,,,,,,557.3350473000319,557.3350473000319,557.3350473000319,557.3350473000319,557.3350473000319,right,0.4092843999969773,13,0,0,99,0.32,0.16,right,0.32626399997388944,,,,,,,,,,,,,,,,,,,,,,,,,,,,,,,,,,,,,,,,,,,,,,,,,,,,,,,,,,,,CYDE2H,train_x,blue_star,top_left,2025-03-25_16h13.36.689,HideSeek_v1,2022.2.5,59.9811299255112,
,4,7,7,7,3,0,31,,train_dim1_1,21,30,,,,2,0,2,0,,,,,,,,,0,0,0,0,0,20,20,20,2,0,2,0,,,,,,,,,,,,,,,,,,,,,,,,,,,,,,,,,,,,,,,,,,,,,,,,,,,,,,,,,,,,,,,,30,,,,,,,,557.7511080999975,557.7511080999975,557.7511080999975,557.7511080999975,557.7511080999975,right,2.8287296000053175,13,0,0,99,0.4,0.16,right,2.7552292000036687,,,,,,,,,,,,,,,,,,,,,,,,,,,,,,,,,,,,,,,,,,,,,,,,,,,,,,,,,,,,CYDE2H,train_x,blue_star,top_left,2025-03-25_16h13.36.689,HideSeek_v1,2022.2.5,59.9811299255112,
,4,7,7,7,3,0,31,,train_dim1_1,21,30,,,,2,0,2,0,,,,,,,,,0,0,0,0,0,20,20,20,3,0,3,0,,,,,,,,,,,,,,,,,,,,,,,,,,,,,,,,,,,,,,,,,,,,,,,,,,,,,,,,,,,,,,,,30,,,,,,,,560.5867129000253,560.5867129000253,560.5867129000253,560.5867129000253,560.5867129000253,return,0.8937443000031635,14,0,0,1,0.4,0.16,return,0.8079590999986976,0,64,0.4,0.16,,,,,,,,,,,,,,,,,,,,,,,,,,,,,,,,,,,,,,,,,,,,,,,,,,,,,,,,CYDE2H,train_x,blue_star,top_left,2025-03-25_16h13.36.689,HideSeek_v1,2022.2.5,59.9811299255112,
,1,5,5,5,4,0,21,,train_dim1_1,22,30,,,,2,0,2,0,,,,,,,,,0,0,0,0,0,21,21,21,0,0,0,0,,,,,,,,,,,,,,,,,,,,,,,,,stimuli/alien_stimuli/21.png,,,,,,,,,,,,,,,,,,,,,,,,,,,,,stimuli/alien_stimuli/31.png,31,4,23,,,,,,,30,,,,,,,,565.668453100021,565.668453100021,565.668453100021,565.668453100021,565.668453100021,right,1.5238901000120677,14,0,0,99,0.0,0,right,1.4276277999742888,,,,,564.0938369000214,565.668453100021,0.4,0.16,0.0,0.24,0.16,0.4,0.28,0.4,0.16,563.0598497000174,563.0598497000174,563.0598497000174,563.0598497000174,563.0598497000174,563.0598497000174,563.0598497000174,563.0598497000174,563.0429417200153,1.1530001999926753,return,1.0119165999931283,,,,,,,,,,,,,,,,,,,,,,,,,,,,,,,,,CYDE2H,train_x,blue_star,top_left,2025-03-25_16h13.36.689,HideSeek_v1,2022.2.5,59.9811299255112,
,1,5,5,5,4,0,21,,train_dim1_1,22,30,,,,2,0,2,0,,,,,,,,,0,0,0,0,0,21,21,21,1,0,1,0,,,,,,,,,,,,,,,,,,,,,,,,,,,,,,,,,,,,,,,,,,,,,,,,,,,,,,,,,,,,,,,,30,,,,,,,,567.1793484000373,567.1793484000373,567.1793484000373,567.1793484000373,567.1793484000373,right,0.4427630999707617,14,0,0,99,0.08,0,right,0.3529306999989785,,,,,,,,,,,,,,,,,,,,,,,,,,,,,,,,,,,,,,,,,,,,,,,,,,,,,,,,,,,,CYDE2H,train_x,blue_star,top_left,2025-03-25_16h13.36.689,HideSeek_v1,2022.2.5,59.9811299255112,
,1,5,5,5,4,0,21,,train_dim1_1,22,30,,,,2,0,2,0,,,,,,,,,0,0,0,0,0,21,21,21,2,0,2,0,,,,,,,,,,,,,,,,,,,,,,,,,,,,,,,,,,,,,,,,,,,,,,,,,,,,,,,,,,,,,,,,30,,,,,,,,567.6307362000225,567.6307362000225,567.6307362000225,567.6307362000225,567.6307362000225,right,0.4102295999764465,14,0,0,99,0.16,0,right,0.31847759999800473,,,,,,,,,,,,,,,,,,,,,,,,,,,,,,,,,,,,,,,,,,,,,,,,,,,,,,,,,,,,CYDE2H,train_x,blue_star,top_left,2025-03-25_16h13.36.689,HideSeek_v1,2022.2.5,59.9811299255112,
,1,5,5,5,4,0,21,,train_dim1_1,22,30,,,,2,0,2,0,,,,,,,,,0,0,0,0,0,21,21,21,3,0,3,0,,,,,,,,,,,,,,,,,,,,,,,,,,,,,,,,,,,,,,,,,,,,,,,,,,,,,,,,,,,,,,,,30,,,,,,,,568.0467532000039,568.0467532000039,568.0467532000039,568.0467532000039,568.0467532000039,right,1.5772196000325494,14,0,0,99,0.24,0,right,1.5002179999719374,,,,,,,,,,,,,,,,,,,,,,,,,,,,,,,,,,,,,,,,,,,,,,,,,,,,,,,,,,,,CYDE2H,train_x,blue_star,top_left,2025-03-25_16h13.36.689,HideSeek_v1,2022.2.5,59.9811299255112,
,1,5,5,5,4,0,21,,train_dim1_1,22,30,,,,2,0,2,0,,,,,,,,,0,0,0,0,0,21,21,21,4,0,4,0,,,,,,,,,,,,,,,,,,,,,,,,,,,,,,,,,,,,,,,,,,,,,,,,,,,,,,,,,,,,,,,,30,,,,,,,,569.6321622999967,569.6321622999967,569.6321622999967,569.6321622999967,569.6321622999967,return,3.3290066000190563,15,0,0,1,0.24,0,return,3.2367043000413105,0,68,0.24,0,,,,,,,,,,,,,,,,,,,,,,,,,,,,,,,,,,,,,,,,,,,,,,,,,,,,,,,,CYDE2H,train_x,blue_star,top_left,2025-03-25_16h13.36.689,HideSeek_v1,2022.2.5,59.9811299255112,
,2,6,2,6,0,0,61,,train_dim1_1,23,30,,,,2,0,2,0,,,,,,,,,0,0,0,0,0,22,22,22,0,0,0,0,,,,,,,,,,,,,,,,,,,,,,,,,stimuli/alien_stimuli/61.png,,,,,,,,,,,,,,,,,,,,,,,,,,,,,stimuli/alien_stimuli/21.png,21,1,24,,,,,,,30,,,,,,,,577.0826746000093,577.0826746000093,577.0826746000093,577.0826746000093,577.0826746000093,return,1.270562699995935,16,0,0,1,0,0.08,return,1.1728592999861576,0,68,0,0.08,575.5035296000424,577.0826746000093,0.24,0,0.0,0.32,0.0,0.24,0.07999999999999999,0.24,0,574.5399414999993,574.5399414999993,574.5399414999993,574.5399414999993,574.5399414999993,574.5399414999993,574.5399414999993,574.5399414999993,574.5192348200012,1.0864282000111416,return,0.9421282000257634,,,,,,,,,,,,,,,,,,,,,,,,,,,,,,,,,CYDE2H,train_x,blue_star,top_left,2025-03-25_16h13.36.689,HideSeek_v1,2022.2.5,59.9811299255112,
,4,9,5,9,1,0,51,,train_dim1_1,24,30,,,,2,0,2,0,,,,,,,,,0,0,0,0,0,23,23,23,0,0,0,0,,,,,,,,,,,,,,,,,,,,,,,,,stimuli/alien_stimuli/51.png,,,,,,,,,,,,,,,,,,,,,,,,,,,,,stimuli/alien_stimuli/61.png,61,2,25,,,,,,,30,,,,,,,,582.3858213000349,582.3858213000349,582.3858213000349,582.3858213000349,582.3858213000349,right,1.3218859999906272,16,0,0,99,0.24,0.32,right,1.2289021000033244,,,,,580.8244226000388,582.3858213000349,0,0.08,0.0,0.0,0.08,0,0.0,0,0.08,579.8925160000217,579.8925160000217,579.8925160000217,579.8925160000217,579.8925160000217,579.8925160000217,579.8925160000217,579.8925160000217,579.8734915600041,1.0365747000323609,return,0.9071276999893598,,,,,,,,,,,,,,,,,,,,,,,,,,,,,,,,,CYDE2H,train_x,blue_star,top_left,2025-03-25_16h13.36.689,HideSeek_v1,2022.2.5,59.9811299255112,
,4,9,5,9,1,0,51,,train_dim1_1,24,30,,,,2,0,2,0,,,,,,,,,0,0,0,0,0,23,23,23,1,0,1,0,,,,,,,,,,,,,,,,,,,,,,,,,,,,,,,,,,,,,,,,,,,,,,,,,,,,,,,,,,,,,,,,30,,,,,,,,583.7109660000424,583.7109660000424,583.7109660000424,583.7109660000424,583.7109660000424,return,0.7265445000375621,17,0,0,1,0.24,0.32,return,0.6435394000145607,0,69,0.24,0.32,,,,,,,,,,,,,,,,,,,,,,,,,,,,,,,,,,,,,,,,,,,,,,,,,,,,,,,,CYDE2H,train_x,blue_star,top_left,2025-03-25_16h13.36.689,HideSeek_v1,2022.2.5,59.9811299255112,
,3,5,8,5,5,0,11,,train_dim1_1,25,30,,,,2,0,2,0,,,,,,,,,0,0,0,0,0,24,24,24,0,0,0,0,,,,,,,,,,,,,,,,,,,,,,,,,stimuli/alien_stimuli/11.png,,,,,,,,,,,,,,,,,,,,,,,,,,,,,stimuli/alien_stimuli/51.png,51,4,26,,,,,,,30,,,,,,,,588.8607936000335,588.8607936000335,588.8607936000335,588.8607936000335,588.8607936000335,right,1.1710964000085369,17,0,0,99,0.16,0,right,1.0862060000072233,,,,,587.2964997999952,588.8607936000335,0.24,0.32,0.0,0.08,0.32,0.24,0.2,0.24,0.32,585.9980447000125,585.9980447000125,585.9980447000125,585.9980447000125,585.9980447000125,585.9980447000125,585.9980447000125,585.9980447000125,585.9786843600566,1.403125100012403,return,1.2704629999934696,,,,,,,,,,,,,,,,,,,,,,,,,,,,,,,,,CYDE2H,train_x,blue_star,top_left,2025-03-25_16h13.36.689,HideSeek_v1,2022.2.5,59.9811299255112,
,3,5,8,5,5,0,11,,train_dim1_1,25,30,,,,2,0,2,0,,,,,,,,,0,0,0,0,0,24,24,24,1,0,1,0,,,,,,,,,,,,,,,,,,,,,,,,,,,,,,,,,,,,,,,,,,,,,,,,,,,,,,,,,,,,,,,,30,,,,,,,,590.0327068000333,590.0327068000333,590.0327068000333,590.0327068000333,590.0327068000333,right,0.4432433000183664,17,0,0,99,0.24,0,right,0.3659006000380032,,,,,,,,,,,,,,,,,,,,,,,,,,,,,,,,,,,,,,,,,,,,,,,,,,,,,,,,,,,,CYDE2H,train_x,blue_star,top_left,2025-03-25_16h13.36.689,HideSeek_v1,2022.2.5,59.9811299255112,
,3,5,8,5,5,0,11,,train_dim1_1,25,30,,,,2,0,2,0,,,,,,,,,0,0,0,0,0,24,24,24,2,0,2,0,,,,,,,,,,,,,,,,,,,,,,,,,,,,,,,,,,,,,,,,,,,,,,,,,,,,,,,,,,,,,,,,30,,,,,,,,590.4835260999971,590.4835260999971,590.4835260999971,590.4835260999971,590.4835260999971,right,0.3275457000127062,17,0,0,99,0.32,0,right,0.24101539998082444,,,,,,,,,,,,,,,,,,,,,,,,,,,,,,,,,,,,,,,,,,,,,,,,,,,,,,,,,,,,CYDE2H,train_x,blue_star,top_left,2025-03-25_16h13.36.689,HideSeek_v1,2022.2.5,59.9811299255112,
,3,5,8,5,5,0,11,,train_dim1_1,25,30,,,,2,0,2,0,,,,,,,,,0,0,0,0,0,24,24,24,3,0,3,0,,,,,,,,,,,,,,,,,,,,,,,,,,,,,,,,,,,,,,,,,,,,,,,,,,,,,,,,,,,,,,,,30,,,,,,,,590.8170711999992,590.8170711999992,590.8170711999992,590.8170711999992,590.8170711999992,right,0.27586360002169386,17,0,0,99,0.4,0,right,0.19404490001033992,,,,,,,,,,,,,,,,,,,,,,,,,,,,,,,,,,,,,,,,,,,,,,,,,,,,,,,,,,,,CYDE2H,train_x,blue_star,top_left,2025-03-25_16h13.36.689,HideSeek_v1,2022.2.5,59.9811299255112,
,3,5,8,5,5,0,11,,train_dim1_1,25,30,,,,2,0,2,0,,,,,,,,,0,0,0,0,0,24,24,24,4,0,4,0,,,,,,,,,,,,,,,,,,,,,,,,,,,,,,,,,,,,,,,,,,,,,,,,,,,,,,,,,,,,,,,,30,,,,,,,,591.1014360000263,591.1014360000263,591.1014360000263,591.1014360000263,591.1014360000263,right,1.1772113000042737,17,0,0,99,0.48000000000000004,0,right,1.0989111000089906,,,,,,,,,,,,,,,,,,,,,,,,,,,,,,,,,,,,,,,,,,,,,,,,,,,,,,,,,,,,CYDE2H,train_x,blue_star,top_left,2025-03-25_16h13.36.689,HideSeek_v1,2022.2.5,59.9811299255112,
,3,5,8,5,5,0,11,,train_dim1_1,25,30,,,,2,0,2,0,,,,,,,,,0,0,0,0,0,24,24,24,5,0,5,0,,,,,,,,,,,,,,,,,,,,,,,,,,,,,,,,,,,,,,,,,,,,,,,,,,,,,,,,,,,,,,,,30,,,,,,,,592.2840906000347,592.2840906000347,592.2840906000347,592.2840906000347,592.2840906000347,right,0.5268991999910213,17,0,0,99,0.56,0,right,0.43960849998984486,,,,,,,,,,,,,,,,,,,,,,,,,,,,,,,,,,,,,,,,,,,,,,,,,,,,,,,,,,,,CYDE2H,train_x,blue_star,top_left,2025-03-25_16h13.36.689,HideSeek_v1,2022.2.5,59.9811299255112,
,3,5,8,5,5,0,11,,train_dim1_1,25,30,,,,2,0,2,0,,,,,,,,,0,0,0,0,0,24,24,24,6,0,6,0,,,,,,,,,,,,,,,,,,,,,,,,,,,,,,,,,,,,,,,,,,,,,,,,,,,,,,,,,,,,,,,,30,,,,,,,,592.8175881000352,592.8175881000352,592.8175881000352,592.8175881000352,592.8175881000352,return,0.49364370002876967,17,1,0,0,0.56,0,return,0.40298089996213093,0,75,0.56,0,,,,,,,,,,,,,,,,,,,,,,,,,,,,,,,,,,,,,,,,,,,,,,,,,,,,,,,,CYDE2H,train_x,blue_star,top_left,2025-03-25_16h13.36.689,HideSeek_v1,2022.2.5,59.9811299255112,
,1,6,1,6,0,0,61,,train_dim1_1,26,30,,,,2,0,2,0,,,,,,,,,0,0,0,0,0,25,25,25,0,0,0,0,,,,,,,,,,,,,,,,,,,,,,,,,stimuli/alien_stimuli/61.png,,,,,,,,,,,,,,,,,,,,,,,,,,,,,stimuli/alien_stimuli/11.png,11,3,27,,,,,,,30,,,,,,,,598.0852029999951,598.0852029999951,598.0852029999951,598.0852029999951,598.0852029999951,return,1.3571604000171646,18,0,0,1,-0.08,0.08,return,1.268425300018862,0,75,-0.08,0.08,596.5206045000232,598.0852029999951,0.48,0,0.0,0.4,0.0,0.48,0.27999999999999997,0.48,0,594.8762769000023,594.8762769000023,594.8762769000023,594.8762769000023,594.8762769000023,594.8762769000023,594.8762769000023,594.8762769000023,594.8693992200074,1.753517799952533,return,1.6122449000249617,,,,,,,,,,,,,,,,,,,,,,,,,,,,,,,,,CYDE2H,train_x,blue_star,top_left,2025-03-25_16h13.36.689,HideSeek_v1,2022.2.5,59.9811299255112,
,0,6,3,6,3,0,31,,train_dim1_1,27,30,,,,2,0,2,0,,,,,,,,,0,0,0,0,0,26,26,26,0,0,0,0,,,,,,,,,,,,,,,,,,,,,,,,,stimuli/alien_stimuli/31.png,,,,,,,,,,,,,,,,,,,,,,,,,,,,,stimuli/alien_stimuli/61.png,61,1,28,,,,,,,30,,,,,,,,603.5680597000173,603.5680597000173,603.5680597000173,603.5680597000173,603.5680597000173,right,1.5063236999558285,18,0,0,99,-0.08,0.08,right,1.4141302999923937,,,,,602.0085529000498,603.5680597000173,-0.08,0.08,0.0,0.0,0.08,-0.08,-0.08,-0.08,0.08,600.9921222000266,600.9921222000266,600.9921222000266,600.9921222000266,600.9921222000266,600.9921222000266,600.9921222000266,600.9921222000266,600.9744595600175,1.1196736000129022,return,0.9945947000524029,,,,,,,,,,,,,,,,,,,,,,,,,,,,,,,,,CYDE2H,train_x,blue_star,top_left,2025-03-25_16h13.36.689,HideSeek_v1,2022.2.5,59.9811299255112,
,0,6,3,6,3,0,31,,train_dim1_1,27,30,,,,2,0,2,0,,,,,,,,,0,0,0,0,0,26,26,26,1,0,1,0,,,,,,,,,,,,,,,,,,,,,,,,,,,,,,,,,,,,,,,,,,,,,,,,,,,,,,,,,,,,,,,,30,,,,,,,,605.0745982000371,605.0745982000371,605.0745982000371,605.0745982000371,605.0745982000371,right,0.7427070999983698,18,0,0,99,0.0,0.08,right,0.6707773999660276,,,,,,,,,,,,,,,,,,,,,,,,,,,,,,,,,,,,,,,,,,,,,,,,,,,,,,,,,,,,CYDE2H,train_x,blue_star,top_left,2025-03-25_16h13.36.689,HideSeek_v1,2022.2.5,59.9811299255112,
,0,6,3,6,3,0,31,,train_dim1_1,27,30,,,,2,0,2,0,,,,,,,,,0,0,0,0,0,26,26,26,2,0,2,0,,,,,,,,,,,,,,,,,,,,,,,,,,,,,,,,,,,,,,,,,,,,,,,,,,,,,,,,,,,,,,,,30,,,,,,,,605.8235044000321,605.8235044000321,605.8235044000321,605.8235044000321,605.8235044000321,right,0.5104502000031061,18,0,0,99,0.08,0.08,right,0.4381199000054039,,,,,,,,,,,,,,,,,,,,,,,,,,,,,,,,,,,,,,,,,,,,,,,,,,,,,,,,,,,,CYDE2H,train_x,blue_star,top_left,2025-03-25_16h13.36.689,HideSeek_v1,2022.2.5,59.9811299255112,
,0,6,3,6,3,0,31,,train_dim1_1,27,30,,,,2,0,2,0,,,,,,,,,0,0,0,0,0,26,26,26,3,0,3,0,,,,,,,,,,,,,,,,,,,,,,,,,,,,,,,,,,,,,,,,,,,,,,,,,,,,,,,,,,,,,,,,30,,,,,,,,606.3409429000458,606.3409429000458,606.3409429000458,606.3409429000458,606.3409429000458,return,0.8105939000379294,19,0,0,1,0.08,0.08,return,0.7267968999803998,0,78,0.08,0.08,,,,,,,,,,,,,,,,,,,,,,,,,,,,,,,,,,,,,,,,,,,,,,,,,,,,,,,,CYDE2H,train_x,blue_star,top_left,2025-03-25_16h13.36.689,HideSeek_v1,2022.2.5,59.9811299255112,
,3,6,7,6,4,0,21,,train_dim1_1,28,30,,,,2,0,2,0,,,,,,,,,0,0,0,0,0,27,27,27,0,0,0,0,,,,,,,,,,,,,,,,,,,,,,,,,stimuli/alien_stimuli/21.png,,,,,,,,,,,,,,,,,,,,,,,,,,,,,stimuli/alien_stimuli/31.png,31,0,29,,,,,,,30,,,,,,,,611.2402506000362,611.2402506000362,611.2402506000362,611.2402506000362,611.2402506000362,right,1.5740020000375807,19,0,0,99,0.16,0.08,right,1.467227500048466,,,,,609.664770500036,611.2402506000362,0.08,0.08,0.0,0.24,0.08,0.08,-0.04,0.08,0.08,608.7170416000299,608.7170416000299,608.7170416000299,608.7170416000299,608.7170416000299,608.7170416000299,608.7170416000299,608.7170416000299,608.6974818600108,1.0528916000039317,return,0.9184303999645635,,,,,,,,,,,,,,,,,,,,,,,,,,,,,,,,,CYDE2H,train_x,blue_star,top_left,2025-03-25_16h13.36.689,HideSeek_v1,2022.2.5,59.9811299255112,
,3,6,7,6,4,0,21,,train_dim1_1,28,30,,,,2,0,2,0,,,,,,,,,0,0,0,0,0,27,27,27,1,0,1,0,,,,,,,,,,,,,,,,,,,,,,,,,,,,,,,,,,,,,,,,,,,,,,,,,,,,,,,,,,,,,,,,30,,,,,,,,612.8020300000207,612.8020300000207,612.8020300000207,612.8020300000207,612.8020300000207,right,0.5264925999799743,19,0,0,99,0.24,0.08,right,0.4378421999863349,,,,,,,,,,,,,,,,,,,,,,,,,,,,,,,,,,,,,,,,,,,,,,,,,,,,,,,,,,,,CYDE2H,train_x,blue_star,top_left,2025-03-25_16h13.36.689,HideSeek_v1,2022.2.5,59.9811299255112,
,3,6,7,6,4,0,21,,train_dim1_1,28,30,,,,2,0,2,0,,,,,,,,,0,0,0,0,0,27,27,27,2,0,2,0,,,,,,,,,,,,,,,,,,,,,,,,,,,,,,,,,,,,,,,,,,,,,,,,,,,,,,,,,,,,,,,,30,,,,,,,,613.334082300018,613.334082300018,613.334082300018,613.334082300018,613.334082300018,right,0.4600964999990538,19,0,0,99,0.32,0.08,right,0.3760454000439495,,,,,,,,,,,,,,,,,,,,,,,,,,,,,,,,,,,,,,,,,,,,,,,,,,,,,,,,,,,,CYDE2H,train_x,blue_star,top_left,2025-03-25_16h13.36.689,HideSeek_v1,2022.2.5,59.9811299255112,
,3,6,7,6,4,0,21,,train_dim1_1,28,30,,,,2,0,2,0,,,,,,,,,0,0,0,0,0,27,27,27,3,0,3,0,,,,,,,,,,,,,,,,,,,,,,,,,,,,,,,,,,,,,,,,,,,,,,,,,,,,,,,,,,,,,,,,30,,,,,,,,613.8019539000234,613.8019539000234,613.8019539000234,613.8019539000234,613.8019539000234,right,1.8276813000557013,19,0,0,99,0.4,0.08,right,1.7462918999954127,,,,,,,,,,,,,,,,,,,,,,,,,,,,,,,,,,,,,,,,,,,,,,,,,,,,,,,,,,,,CYDE2H,train_x,blue_star,top_left,2025-03-25_16h13.36.689,HideSeek_v1,2022.2.5,59.9811299255112,
,3,6,7,6,4,0,21,,train_dim1_1,28,30,,,,2,0,2,0,,,,,,,,,0,0,0,0,0,27,27,27,4,0,4,0,,,,,,,,,,,,,,,,,,,,,,,,,,,,,,,,,,,,,,,,,,,,,,,,,,,,,,,,,,,,,,,,30,,,,,,,,615.6359624000033,615.6359624000033,615.6359624000033,615.6359624000033,615.6359624000033,return,1.127224900003057,20,0,0,1,0.4,0.08,return,1.0366271000239067,0,82,0.4,0.08,,,,,,,,,,,,,,,,,,,,,,,,,,,,,,,,,,,,,,,,,,,,,,,,,,,,,,,,CYDE2H,train_x,blue_star,top_left,2025-03-25_16h13.36.689,HideSeek_v1,2022.2.5,59.9811299255112,
,4,5,5,5,1,0,51,,train_dim1_1,29,30,,,,2,0,2,0,,,,,,,,,0,0,0,0,0,28,28,28,0,0,0,0,,,,,,,,,,,,,,,,,,,,,,,,,stimuli/alien_stimuli/51.png,,,,,,,,,,,,,,,,,,,,,,,,,,,,,stimuli/alien_stimuli/21.png,21,3,30,,,,,,,30,,,,,,,,620.7815716000041,620.7815716000041,620.7815716000041,620.7815716000041,620.7815716000041,right,1.403791899967473,20,0,0,99,0.24,0,right,1.3016451000003144,,,,,619.2060472000157,620.7815716000041,0.4,0.08,0.0,0.32,0.08,0.4,0.24000000000000002,0.4,0.08,618.3304893000168,618.3304893000168,618.3304893000168,618.3304893000168,618.3304893000168,618.3304893000168,618.3304893000168,618.3304893000168,618.3222205200232,0.9859242999809794,return,0.8494649000349455,,,,,,,,,,,,,,,,,,,,,,,,,,,,,,,,,CYDE2H,train_x,blue_star,top_left,2025-03-25_16h13.36.689,HideSeek_v1,2022.2.5,59.9811299255112,
,4,5,5,5,1,0,51,,train_dim1_1,29,30,,,,2,0,2,0,,,,,,,,,0,0,0,0,0,28,28,28,1,0,1,0,,,,,,,,,,,,,,,,,,,,,,,,,,,,,,,,,,,,,,,,,,,,,,,,,,,,,,,,,,,,,,,,30,,,,,,,,622.1771749000181,622.1771749000181,622.1771749000181,622.1771749000181,622.1771749000181,return,0.5431187000358477,21,0,0,1,0.24,0,return,0.45876539999153465,0,83,0.24,0,,,,,,,,,,,,,,,,,,,,,,,,,,,,,,,,,,,,,,,,,,,,,,,,,,,,,,,,CYDE2H,train_x,blue_star,top_left,2025-03-25_16h13.36.689,HideSeek_v1,2022.2.5,59.9811299255112,
,2,7,7,7,5,0,11,,train_dim1_1,30,30,,,,2,0,2,0,,,,,,,,,0,0,0,0,0,29,29,29,0,0,0,0,,,,,,,,,,,,,,,,,,,,,,,,,stimuli/alien_stimuli/11.png,,,,,,,,,,,,,,,,,,,,,,,,,,,,,stimuli/alien_stimuli/51.png,51,4,31,,,,,,,30,,,,,,,,627.0921700000181,627.0921700000181,627.0921700000181,627.0921700000181,627.0921700000181,right,1.3867582999519072,21,0,0,99,0.08,0.16,right,1.290080400009174,,,,,625.5282170000137,627.0921700000181,0.24,0,0.0,0.08,0.0,0.24,0.2,0.24,0,624.2823490000446,624.2823490000446,624.2823490000446,624.2823490000446,624.2823490000446,624.2823490000446,624.2823490000446,624.2823490000446,624.2602295600343,1.3538219000329264,return,1.2254511000355706,,,,,,,,,,,,,,,,,,,,,,,,,,,,,,,,,CYDE2H,train_x,blue_star,top_left,2025-03-25_16h13.36.689,HideSeek_v1,2022.2.5,59.9811299255112,
,2,7,7,7,5,0,11,,train_dim1_1,30,30,,,,2,0,2,0,,,,,,,,,0,0,0,0,0,29,29,29,1,0,1,0,,,,,,,,,,,,,,,,,,,,,,,,,,,,,,,,,,,,,,,,,,,,,,,,,,,,,,,,,,,,,,,,30,,,,,,,,628.4830650000367,628.4830650000367,628.4830650000367,628.4830650000367,628.4830650000367,right,0.5248721000389196,21,0,0,99,0.16,0.16,right,0.44028229999821633,,,,,,,,,,,,,,,,,,,,,,,,,,,,,,,,,,,,,,,,,,,,,,,,,,,,,,,,,,,,CYDE2H,train_x,blue_star,top_left,2025-03-25_16h13.36.689,HideSeek_v1,2022.2.5,59.9811299255112,
,2,7,7,7,5,0,11,,train_dim1_1,30,30,,,,2,0,2,0,,,,,,,,,0,0,0,0,0,29,29,29,2,0,2,0,,,,,,,,,,,,,,,,,,,,,,,,,,,,,,,,,,,,,,,,,,,,,,,,,,,,,,,,,,,,,,,,30,,,,,,,,629.0150281999959,629.0150281999959,629.0150281999959,629.0150281999959,629.0150281999959,right,0.4593291999772191,21,0,0,99,0.24,0.16,right,0.3826491000363603,,,,,,,,,,,,,,,,,,,,,,,,,,,,,,,,,,,,,,,,,,,,,,,,,,,,,,,,,,,,CYDE2H,train_x,blue_star,top_left,2025-03-25_16h13.36.689,HideSeek_v1,2022.2.5,59.9811299255112,
,2,7,7,7,5,0,11,,train_dim1_1,30,30,,,,2,0,2,0,,,,,,,,,0,0,0,0,0,29,29,29,3,0,3,0,,,,,,,,,,,,,,,,,,,,,,,,,,,,,,,,,,,,,,,,,,,,,,,,,,,,,,,,,,,,,,,,30,,,,,,,,629.4816039000289,629.4816039000289,629.4816039000289,629.4816039000289,629.4816039000289,right,1.9947047000168823,21,0,0,99,0.32,0.16,right,1.9191635000170209,,,,,,,,,,,,,,,,,,,,,,,,,,,,,,,,,,,,,,,,,,,,,,,,,,,,,,,,,,,,CYDE2H,train_x,blue_star,top_left,2025-03-25_16h13.36.689,HideSeek_v1,2022.2.5,59.9811299255112,
,2,7,7,7,5,0,11,,train_dim1_1,30,30,,,,2,0,2,0,,,,,,,,,0,0,0,0,0,29,29,29,4,0,4,0,,,,,,,,,,,,,,,,,,,,,,,,,,,,,,,,,,,,,,,,,,,,,,,,,,,,,,,,,,,,,,,,30,,,,,,,,631.48350880004,631.48350880004,631.48350880004,631.48350880004,631.48350880004,right,1.6443471999955364,21,0,0,99,0.4,0.16,right,1.5541437999927439,,,,,,,,,,,,,,,,,,,,,,,,,,,,,,,,,,,,,,,,,,,,,,,,,,,,,,,,,,,,CYDE2H,train_x,blue_star,top_left,2025-03-25_16h13.36.689,HideSeek_v1,2022.2.5,59.9811299255112,
,2,7,7,7,5,0,11,,train_dim1_1,30,30,,,,2,0,2,0,,,,,,,,,0,0,0,0,0,29,29,29,5,0,5,0,,,,,,,,,,,,,,,,,,,,,,,,,,,,,,,,,,,,,,,,,,,,,,,,,,,,,,,,,,,,,,,,30,,,,,,,,633.1343732000096,633.1343732000096,633.1343732000096,633.1343732000096,633.1343732000096,right,0.5602934999624267,21,0,0,99,0.48000000000000004,0.16,right,0.4755055000423454,,,,,,,,,,,,,,,,,,,,,,,,,,,,,,,,,,,,,,,,,,,,,,,,,,,,,,,,,,,,CYDE2H,train_x,blue_star,top_left,2025-03-25_16h13.36.689,HideSeek_v1,2022.2.5,59.9811299255112,
,2,7,7,7,5,0,11,,train_dim1_1,30,30,,,,2,0,2,0,,,,,,,,,0,0,0,0,0,29,29,29,6,0,6,0,,,,,,,,,,,,,,,,,,,,,,,,,,,,,,,,,,,,,,,,,,,,,,,,,,,,,,,,,,,,,,,,30,,,,,,,,633.7010121000349,633.7010121000349,633.7010121000349,633.7010121000349,633.7010121000349,left,1.944717700011097,21,0,0,99,0.4,0.16,left,1.8640604999964125,,,,,,,,,,,,,,,,,,,,,,,,,,,,,,,,,,,,,,,,,,,,,,,,,,,,,,,,,,,,CYDE2H,train_x,blue_star,top_left,2025-03-25_16h13.36.689,HideSeek_v1,2022.2.5,59.9811299255112,
,2,7,7,7,5,0,11,,train_dim1_1,30,30,,,,2,0,2,0,,,,,,,,,0,0,0,0,0,29,29,29,7,0,7,0,,,,,,,,,,,,,,,,,,,,,,,,,,,,,,,,,,,,,,,,,,,,,,,,,,,,,,,,,,,,,,,,30,,,,,,,,635.653655400034,635.653655400034,635.653655400034,635.653655400034,635.653655400034,return,1.2773481999756768,22,0,0,1,0.4,0.16,return,1.18593580002198,0,88,0.4,0.16,,,,,,,,,,,,,,,,,,,,,,,,,,,,,,,,,,,,,,,,,,,,,,,,,,,,,,,,CYDE2H,train_x,blue_star,top_left,2025-03-25_16h13.36.689,HideSeek_v1,2022.2.5,59.9811299255112,
,,,,,,,,,,,30,,,,2,0,2,0,,,,,,,,,,,,,,,,,,,,,,,,,,,,,,,,,,,,,,,,,,,,,,,,,,,,,,,,,,,,,,,,,,,,,,,,,,stimuli/alien_stimuli/11.png,11,2,32,21,0.7,0.9166666666666667,1,1,1,30,0,conditions/schedules/train_x_first/blue_star_00/top_left/inputTrain_2.1.xlsx,99,1,2,1,0,,,,,,,,,,,1,,,,,,,,,639.4897519000224,641.0474331000005,0.4,0.16,0.0,0.4,0.16,0.4,0.2,0.4,0.16,638.5103080000263,638.5103080000263,638.5103080000263,638.5103080000263,638.5103080000263,638.5103080000263,638.5103080000263,638.5103080000263,638.4889284200267,1.1029955999692902,return,0.9578719000564888,0,0.9,0,1,22,,,,,,,,,,,,,,,,,,,,,,,,,,,,CYDE2H,train_x,blue_star,top_left,2025-03-25_16h13.36.689,HideSeek_v1,2022.2.5,59.9811299255112,
,,,,,,,,,,,,,,,3,0,3,0,0,0,0,0,,,,,,,,,,,,,,,,,,,,,,,,,,,,,,,conditions/schedules/train_x_first/blue_star_00/top_left/instructions/Slide17.png,conditions/schedules/train_x_first/blue_star_00/top_left/instructions/Audio17.wav,641.0474331000005,641.0409879400278,17,"[10.041898099996615, 18.61420840001665, 17.529160399979446, 19.59534469997743, 5.027911400015, 4.585261300031561, 5.349463999969885, 11.775076600024477, 6.165977799973916, 7.103813700028695, 9.887761800026055, 13.123551499971654, 18.218498000002, 13.46334229997592, 32.32073100004345, 21.900825100019574, 31.38371740002185]","[0.014097700011916459, 0.014310099999420345, 17.529167100030463, 0.013998500013258308, 0.08105269999941811, 0.11179719999199733, 0.06498480000300333, 0.03007510001771152, 0.09801210003206506, 0.04790820000926033, 0.06251089996658266, 13.123558099963702, 0.0688042999827303, 13.463348699966446, 0.014221000019460917, 21.900831800012384, 31.383724200015422]",0,,,,,,,,,,,,,,,,,,,,,,,,,,,,,,,,,,,,,,,,,,,,,,,,,,,,,,,,,,,,,,,,,,,,,,,,,,,,,,,,,,,,,,,,,,,,,,,,,,,,,,,,,,,,,,,,,,,,,,,,,,,,CYDE2H,train_x,blue_star,top_left,2025-03-25_16h13.36.689,HideSeek_v1,2022.2.5,59.9811299255112,
,,,,,,,,,,,,,,,3,0,3,0,1,0,1,0,,,,,,,,,,,,,,,,,,,,,,,,,,,,,,,conditions/schedules/train_x_first/blue_star_00/top_left/instructions/Slide18.png,conditions/schedules/train_x_first/blue_star_00/top_left/instructions/Audio18.wav,672.4993358000065,672.5006837000255,18,"[10.041898099996615, 18.61420840001665, 17.529160399979446, 19.59534469997743, 5.027911400015, 4.585261300031561, 5.349463999969885, 11.775076600024477, 6.165977799973916, 7.103813700028695, 9.887761800026055, 13.123551499971654, 18.218498000002, 13.46334229997592, 32.32073100004345, 21.900825100019574, 31.38371740002185, 8.672706299985293]","[0.014097700011916459, 0.014310099999420345, 17.529167100030463, 0.013998500013258308, 0.08105269999941811, 0.11179719999199733, 0.06498480000300333, 0.03007510001771152, 0.09801210003206506, 0.04790820000926033, 0.06251089996658266, 13.123558099963702, 0.0688042999827303, 13.463348699966446, 0.014221000019460917, 21.900831800012384, 0.01409739995142445, 8.672713199979626]",0,,,,,,,,,,,,,,,,,,,,,,,,,,,,,,,,,,,,,,,,,,,,,,,,,,,,,,,,,,,,,,,,,,,,,,,,,,,,,,,,,,,,,,,,,,,,,,,,,,,,,,,,,,,,,,,,,,,,,,,,,,,,CYDE2H,train_x,blue_star,top_left,2025-03-25_16h13.36.689,HideSeek_v1,2022.2.5,59.9811299255112,
,,,,,,,,,,,,,,,3,0,3,0,2,0,2,0,,,,,,,,,,,,,,,,,,,,,,,,,,,,,,,conditions/schedules/train_x_first/blue_star_00/top_left/instructions/Slide19.png,conditions/schedules/train_x_first/blue_star_00/top_left/instructions/Audio19.wav,681.2099463000195,681.2078038800158,19,"[10.041898099996615, 18.61420840001665, 17.529160399979446, 19.59534469997743, 5.027911400015, 4.585261300031561, 5.349463999969885, 11.775076600024477, 6.165977799973916, 7.103813700028695, 9.887761800026055, 13.123551499971654, 18.218498000002, 13.46334229997592, 32.32073100004345, 21.900825100019574, 31.38371740002185, 8.672706299985293, 10.12019499996677]","[0.014097700011916459, 0.014310099999420345, 17.529167100030463, 0.013998500013258308, 0.08105269999941811, 0.11179719999199733, 0.06498480000300333, 0.03007510001771152, 0.09801210003206506, 0.04790820000926033, 0.06251089996658266, 13.123558099963702, 0.0688042999827303, 13.463348699966446, 0.014221000019460917, 21.900831800012384, 0.01409739995142445, 0.00021329999435693026, 10.120201099955011]",0,,,,,,,,,,,,,,,,,,,,,,,,,,,,,,,,,,,,,,,,,,,,,,,,,,,,,,,,,,,,,,,,,,,,,,,,,,,,,,,,,,,,,,,,,,,,,,,,,,,,,,,,,,,,,,,,,,,,,,,,,,,,CYDE2H,train_x,blue_star,top_left,2025-03-25_16h13.36.689,HideSeek_v1,2022.2.5,59.9811299255112,
,,,,,,,,,,,,,,,3,0,3,0,3,0,3,0,,,,,,,,,,,,,,,,,,,,,,,,,,,,,,,conditions/schedules/train_x_first/blue_star_00/top_left/instructions/Slide20.png,conditions/schedules/train_x_first/blue_star_00/top_left/instructions/Audio20.wav,691.3833844000474,691.3828716400195,20,"[10.041898099996615, 18.61420840001665, 17.529160399979446, 19.59534469997743, 5.027911400015, 4.585261300031561, 5.349463999969885, 11.775076600024477, 6.165977799973916, 7.103813700028695, 9.887761800026055, 13.123551499971654, 18.218498000002, 13.46334229997592, 32.32073100004345, 21.900825100019574, 31.38371740002185, 8.672706299985293, 10.12019499996677, 14.025466200022493]","[0.014097700011916459, 0.014310099999420345, 17.529167100030463, 0.013998500013258308, 0.08105269999941811, 0.11179719999199733, 0.06498480000300333, 0.03007510001771152, 0.09801210003206506, 0.04790820000926033, 0.06251089996658266, 13.123558099963702, 0.0688042999827303, 13.463348699966446, 0.014221000019460917, 21.900831800012384, 0.01409739995142445, 0.00021329999435693026, 0.00022660003742203116, 14.025473000016063]",0,,,,,,,,,,,,,,,,,,,,,,,,,,,,,,,,,,,,,,,,,,,,,,,,,,,,,,,,,,,,,,,,,,,,,,,,,,,,,,,,,,,,,,,,,,,,,,,,,,,,,,,,,,,,,,,,,,,,,,,,,,,,CYDE2H,train_x,blue_star,top_left,2025-03-25_16h13.36.689,HideSeek_v1,2022.2.5,59.9811299255112,
1,0,8,0,3,0,-5,66,2,instr_dim1_2,,,,,,3,0,3,0,,,,,0,0,0,0,,,,,,,,,,,,,,,,,,,,,,,,,,,,,,,,,,,,,stimuli/alien_stimuli/66.png,conditions/schedules/train_x_first/blue_star_00/top_left/inputInstr_2.xlsx,stimuli/alien_stimuli/66.png,705.4941706000245,705.4941706000245,705.4941706000245,705.4941706000245,705.494602160016,return,10.685715999978129,"[-0.16, -0.08, 0, 0.08, 0.16, 0.24, 0.32, 0.4, 0.48, 0.56]","[-0.4, -0.32, -0.24, -0.16, -0.08, 0, 0.08, 0.16, 0.24, 0.32]",3,8,0,0,0.4,0.0,716.3354723000084,716.3354723000084,716.3354723000084,716.3354723000084,716.3354723000084,716.3354723000084,716.3354723000084,716.319985680026,8.357964299968444,return,8.194569699990097,stimuli/alien_stimuli/66.png,66,0,1,,,,,,,,,,,,,,,,,,,,,,,,,,,,,,,,,,,,,,,,,,,,,,,,,,,,,,,,,,,,,,,,,,,,,,,,,,,,,,,,,,,,,,,,,CYDE2H,train_x,blue_star,top_left,2025-03-25_16h13.36.689,HideSeek_v1,2022.2.5,59.9811299255112,
,,,,,,,,,,,30,,,,3,0,3,0,,,,,,,,,,,,,,,,,,,,,,,,,,,,,,,,,,,,,,,,,,,,,,,,,,,,,,,,,,,,,,,,,,,,,,,,,,,,,,21,0.7,0.9166666666666667,1,99,2,30,0,conditions/schedules/train_x_first/blue_star_00/top_left/inputTrain_2.1.xlsx,99,1,2,1,0,,,,,,,,,,,,,,,,,,,,,,,,,,,,,,,,,,,,,,,,,,,,,,,,,,,,,,,,,,,,,,,,,,,,,,,,,,,CYDE2H,train_x,blue_star,top_left,2025-03-25_16h13.36.689,HideSeek_v1,2022.2.5,59.9811299255112,
,,,,,,,,,,,,,,,4,0,4,0,0,0,0,0,,,,,,,,,,,,,,,,,,,,,,,,,,,,,,,conditions/schedules/train_x_first/blue_star_00/top_left/instructions/Slide21.png,conditions/schedules/train_x_first/blue_star_00/top_left/instructions/Audio21.wav,724.6963378000073,724.6938789400039,21,"[10.041898099996615, 18.61420840001665, 17.529160399979446, 19.59534469997743, 5.027911400015, 4.585261300031561, 5.349463999969885, 11.775076600024477, 6.165977799973916, 7.103813700028695, 9.887761800026055, 13.123551499971654, 18.218498000002, 13.46334229997592, 32.32073100004345, 21.900825100019574, 31.38371740002185, 8.672706299985293, 10.12019499996677, 14.025466200022493, 17.575921099982224]","[0.014097700011916459, 0.014310099999420345, 17.529167100030463, 0.013998500013258308, 0.08105269999941811, 0.11179719999199733, 0.06498480000300333, 0.03007510001771152, 0.09801210003206506, 0.04790820000926033, 0.06251089996658266, 13.123558099963702, 0.0688042999827303, 13.463348699966446, 0.014221000019460917, 21.900831800012384, 0.01409739995142445, 0.00021329999435693026, 0.00022660003742203116, 14.025473000016063, 17.575927799975034]",0,,,,,,,,,,,,,,,,,,,,,,,,,,,,,,,,,,,,,,,,,,,,,,,,,,,,,,,,,,,,,,,,,,,,,,,,,,,,,,,,,,,,,,,,,,,,,,,,,,,,,,,,,,,,,,,,,,,,,,,,,,,,CYDE2H,train_x,blue_star,top_left,2025-03-25_16h13.36.689,HideSeek_v1,2022.2.5,59.9811299255112,
2,2,8,2,8,0,0,61,2,instr_dim1_2,,,,,,4,0,4,0,,,,,0,0,0,0,,,,,,,,,,,,,,,,,,,,,,,,,,,,,,,,,,,,,stimuli/alien_stimuli/61.png,conditions/schedules/train_x_first/blue_star_00/top_left/inputInstr_2.xlsx,stimuli/alien_stimuli/61.png,742.3634619000368,742.3634619000368,742.3634619000368,742.3634619000368,742.3586044600349,return,6.53447860002052,"[-0.16, -0.08, 0, 0.08, 0.16, 0.24, 0.32, 0.4, 0.48, 0.56]","[-0.4, -0.32, -0.24, -0.16, -0.08, 0, 0.08, 0.16, 0.24, 0.32]",8,8,2,2,0.0,0.0,749.0495314000291,749.0495314000291,749.0495314000291,749.0495314000291,749.0495314000291,749.0495314000291,749.0495314000291,749.0476345800329,7.506635300000198,return,7.356591700052377,stimuli/alien_stimuli/61.png,61,2,2,,,,,,,,,,,,,,,,,,,,,,,,,,,,,,,,,,,,,,,,,,,,,,,,,,,,,,,,,,,,,,,,,,,,,,,,,,,,,,,,,,,,,,,,,CYDE2H,train_x,blue_star,top_left,2025-03-25_16h13.36.689,HideSeek_v1,2022.2.5,59.9811299255112,
,,,,,,,,,,,30,,,,4,0,4,0,,,,,,,,,,,,,,,,,,,,,,,,,,,,,,,,,,,,,,,,,,,,,,,,,,,,,,,,,,,,,,,,,,,,,,,,,,,,,,21,0.7,0.9166666666666667,1,99,2,30,0,conditions/schedules/train_x_first/blue_star_00/top_left/inputTrain_2.1.xlsx,99,1,2,1,0,,,,,,,,,,,,,,,,,,,,,,,,,,,,,,,,,,,,,,,,,,,,,,,,,,,,,,,,,,,,,,,,,,,,,,,,,,,CYDE2H,train_x,blue_star,top_left,2025-03-25_16h13.36.689,HideSeek_v1,2022.2.5,59.9811299255112,
