trialInstr,x_fixStart,y_fixStart,x_corrSteps,y_corrSteps,x_nrSteps,y_nrSteps,alienID,trialLength,version,trialTrain,praclen,testlen,trial_label,break_on_off,beforeExpLoop.thisRepN,beforeExpLoop.thisTrialN,beforeExpLoop.thisN,beforeExpLoop.thisIndex,mini_instr_trials.thisRepN,mini_instr_trials.thisTrialN,mini_instr_trials.thisN,mini_instr_trials.thisIndex,instrLoop.thisRepN,instrLoop.thisTrialN,instrLoop.thisN,instrLoop.thisIndex,repeat_prac.thisRepN,repeat_prac.thisTrialN,repeat_prac.thisN,repeat_prac.thisIndex,trainLoop.thisRepN,trainLoop.thisTrialN,trainLoop.thisN,trainLoop.thisIndex,moveLoop_train.thisRepN,moveLoop_train.thisTrialN,moveLoop_train.thisN,moveLoop_train.thisIndex,experiment.thisRepN,experiment.thisTrialN,experiment.thisN,experiment.thisIndex,moveLoop_test.thisRepN,moveLoop_test.thisTrialN,moveLoop_test.thisN,moveLoop_test.thisIndex,mini_instr2_trials.thisRepN,mini_instr2_trials.thisTrialN,mini_instr2_trials.thisN,mini_instr2_trials.thisIndex,start_all_time,url,slideStim,audioStim,slides.started,sounds.started,nextButton.numClicks,nextButton.timesOn,nextButton.timesOff,prev_but.numClicks,prev_but.timesOn,prev_but.timesOff,alienStim,instrFile,alienStim_instr,gridImage_instr.started,startPos_3.started,key_instr.started,alienImage_3.started,sounds_1.started,key_instr.keys,key_instr.rt,all_x,all_y,FBy_corrSteps,FBy_fixStart,FBx_corrSteps,FBx_fixStart,FBy_pathSize_check,FBx_pathSize_check,gridImage_9.started,alienImageFB_3.started,startPosFB_3.started,keyFB_3.started,pathLine_ydir_2.started,pathLine_xdir_2.started,alienFace_3.started,sounds_2.started,RTFB_instr,keyFB_3.keys,keyFB_3.rt,draw_alienStim,draw_alienID,test_x,nrepcount,perfthres,percthres,earlierperf,earlystop,nextPrac,fileidx,praclen,saveACC_train,pracFile,nextPrac_train,addNrep,fileidx_endr,repExp,showearly,gridImage_4.started,startPos.started,movePos.started,key_resp.started,alienImage.started,buttonPress_train,RTchoice_train,cumAcctrain,aCorr,saveACC_choice,corrAns,x_movePos_end,y_movePos_end,key_resp.keys,key_resp.rt,wLy_dir,wLx_dir,x_movePos,y_movePos,text_2.started,text_2.stopped,aft_x_corrPos,aft_y_corrPos,y_pathSize_check,x_pathSize_check,y_pathdirY,x_pathdirY,x_pathdirX,x_corrPos,y_corrPos,gridImage_6.started,alienImageFB_2.started,startPosFB_2.started,movePosFB_2.started,keyFB_2.started,pathLine_xdir.started,pathLine_ydir.started,alienFace.started,sounds_4.started,RT_FBtrain,keyFB_2.keys,keyFB_2.rt,saveACC_pre,ACC,within_saveACC_train,earlystop_wloop,cumAcctrain_check,gridImage_3.started,alienImage_test.started,startPos_test.started,movePos_test.started,key_resp_test.started,wLy_dir_test,wLx_dir_test,buttonPress_test,RTchoice_test,cumAcctest,corrAns_test,key_resp_test.keys,key_resp_test.rt,text_3.started,text_3.stopped,total_time,end_all_time,key_resp_3.keys,slides_2.started,sounds_3.started,nextButton_2.numClicks,nextButton_2.timesOn,nextButton_2.timesOff,prev_but_2.numClicks,prev_but_2.timesOn,prev_but_2.timesOff,bye.started,bye.stopped,participant,train_first,00_coordinate,starting corner,date,expName,psychopyVersion,frameRate,
,,,,,,,,,,,,,,,0,0,0,0,0,0,0,0,,,,,,,,,,,,,,,,,,,,,,,,,,,,,start_all_time,testround,conditions/schedules/train_y_first/red_square_00/bottom_right/instructions/Slide1.png,conditions/schedules/train_y_first/red_square_00/bottom_right/instructions/Audio1.wav,500.75712450011633,500.6960258398205,1,[3.664919500006363],[3.664926400175318],0,,,,,,,,,,,,,,,,,,,,,,,,,,,,,,,,,,,,,,,,,,,,,,,,,,,,,,,,,,,,,,,,,,,,,,,,,,,,,,,,,,,,,,,,,,,,,,,,,,,,,,,,,,,,,,,,,,,,,,,,,,,,,D369YD,train_y,red_square,bottom_right,2025-06-27_16h09.06.301,HideSeek_v1,2022.2.5,59.95099600377018,
,,,,,,,,,,,,,,,0,0,0,0,1,0,1,0,,,,,,,,,,,,,,,,,,,,,,,,,,,,,,,conditions/schedules/train_y_first/red_square_00/bottom_right/instructions/Slide2.png,conditions/schedules/train_y_first/red_square_00/bottom_right/instructions/Audio2.wav,504.4404778999742,504.4271240200847,2,"[3.664919500006363, 19.083361000055447]","[3.664926400175318, 19.083367499988526]",0,,,,,,,,,,,,,,,,,,,,,,,,,,,,,,,,,,,,,,,,,,,,,,,,,,,,,,,,,,,,,,,,,,,,,,,,,,,,,,,,,,,,,,,,,,,,,,,,,,,,,,,,,,,,,,,,,,,,,,,,,,,,,D369YD,train_y,red_square,bottom_right,2025-06-27_16h09.06.301,HideSeek_v1,2022.2.5,59.95099600377018,
,,,,,,,,,,,,,,,0,0,0,0,2,0,2,0,,,,,,,,,,,,,,,,,,,,,,,,,,,,,,,conditions/schedules/train_y_first/red_square_00/bottom_right/instructions/Slide3.png,conditions/schedules/train_y_first/red_square_00/bottom_right/instructions/Audio3.wav,523.6083188001066,523.6096945799421,3,"[3.664919500006363, 19.083361000055447, 16.845070800045505]","[3.664926400175318, 0.014063100097700953, 16.84507769998163]",0,,,,,,,,,,,,,,,,,,,,,,,,,,,,,,,,,,,,,,,,,,,,,,,,,,,,,,,,,,,,,,,,,,,,,,,,,,,,,,,,,,,,,,,,,,,,,,,,,,,,,,,,,,,,,,,,,,,,,,,,,,,,,D369YD,train_y,red_square,bottom_right,2025-06-27_16h09.06.301,HideSeek_v1,2022.2.5,59.95099600377018,
,,,,,,,,,,,,,,,0,0,0,0,3,0,3,0,,,,,,,,,,,,,,,,,,,,,,,,,,,,,,,conditions/schedules/train_y_first/red_square_00/bottom_right/instructions/Slide4.png,conditions/schedules/train_y_first/red_square_00/bottom_right/instructions/Audio4.wav,540.5360854000319,540.5233142499346,4,"[3.664919500006363, 19.083361000055447, 16.845070800045505, 19.350788000039756]","[3.664926400175318, 0.014063100097700953, 0.00023830006830394268, 19.350795299978927]",0,,,,,,,,,,,,,,,,,,,,,,,,,,,,,,,,,,,,,,,,,,,,,,,,,,,,,,,,,,,,,,,,,,,,,,,,,,,,,,,,,,,,,,,,,,,,,,,,,,,,,,,,,,,,,,,,,,,,,,,,,,,,,D369YD,train_y,red_square,bottom_right,2025-06-27_16h09.06.301,HideSeek_v1,2022.2.5,59.95099600377018,
,,,,,,,,,,,,,,,0,0,0,0,4,0,4,0,,,,,,,,,,,,,,,,,,,,,,,,,,,,,,,conditions/schedules/train_y_first/red_square_00/bottom_right/instructions/Slide5.png,conditions/schedules/train_y_first/red_square_00/bottom_right/instructions/Audio5.wav,559.9497722000815,559.9397258201149,5,"[3.664919500006363, 19.083361000055447, 16.845070800045505, 19.350788000039756, 4.090259399963543]","[3.664926400175318, 0.014063100097700953, 0.00023830006830394268, 0.00021199998445808887, 4.09026649990119]",0,,,,,,,,,,,,,,,,,,,,,,,,,,,,,,,,,,,,,,,,,,,,,,,,,,,,,,,,,,,,,,,,,,,,,,,,,,,,,,,,,,,,,,,,,,,,,,,,,,,,,,,,,,,,,,,,,,,,,,,,,,,,,D369YD,train_y,red_square,bottom_right,2025-06-27_16h09.06.301,HideSeek_v1,2022.2.5,59.95099600377018,
,,,,,,,,,,,,,,,0,0,0,0,5,0,5,0,,,,,,,,,,,,,,,,,,,,,,,,,,,,,,,conditions/schedules/train_y_first/red_square_00/bottom_right/instructions/Slide6.png,conditions/schedules/train_y_first/red_square_00/bottom_right/instructions/Audio6.wav,564.0915079000406,564.0929378200323,6,"[3.664919500006363, 19.083361000055447, 16.845070800045505, 19.350788000039756, 4.090259399963543, 4.452312899986282]","[3.664926400175318, 0.014063100097700953, 0.00023830006830394268, 0.00021199998445808887, 0.03196529997512698, 4.452319899806753]",0,,,,,,,,,,,,,,,,,,,,,,,,,,,,,,,,,,,,,,,,,,,,,,,,,,,,,,,,,,,,,,,,,,,,,,,,,,,,,,,,,,,,,,,,,,,,,,,,,,,,,,,,,,,,,,,,,,,,,,,,,,,,,D369YD,train_y,red_square,bottom_right,2025-06-27_16h09.06.301,HideSeek_v1,2022.2.5,59.95099600377018,
,,,,,,,,,,,,,,,0,0,0,0,6,0,6,0,,,,,,,,,,,,,,,,,,,,,,,,,,,,,,,conditions/schedules/train_y_first/red_square_00/bottom_right/instructions/Slide7.png,conditions/schedules/train_y_first/red_square_00/bottom_right/instructions/Audio7.wav,568.5954694000538,568.5967809200753,7,"[3.664919500006363, 19.083361000055447, 16.845070800045505, 19.350788000039756, 4.090259399963543, 4.452312899986282, 5.669567000120878]","[3.664926400175318, 0.014063100097700953, 0.00023830006830394268, 0.00021199998445808887, 0.03196529997512698, 0.06481960020028055, 5.6695744001772255]",0,,,,,,,,,,,,,,,,,,,,,,,,,,,,,,,,,,,,,,,,,,,,,,,,,,,,,,,,,,,,,,,,,,,,,,,,,,,,,,,,,,,,,,,,,,,,,,,,,,,,,,,,,,,,,,,,,,,,,,,,,,,,,D369YD,train_y,red_square,bottom_right,2025-06-27_16h09.06.301,HideSeek_v1,2022.2.5,59.95099600377018,
,,,,,,,,,,,,,,,0,0,0,0,7,0,7,0,,,,,,,,,,,,,,,,,,,,,,,,,,,,,,,conditions/schedules/train_y_first/red_square_00/bottom_right/instructions/Slide8.png,conditions/schedules/train_y_first/red_square_00/bottom_right/instructions/Audio8.wav,574.3454277000856,574.3348210500553,8,"[3.664919500006363, 19.083361000055447, 16.845070800045505, 19.350788000039756, 4.090259399963543, 4.452312899986282, 5.669567000120878, 12.082583900075406]","[3.664926400175318, 0.014063100097700953, 0.00023830006830394268, 0.00021199998445808887, 0.03196529997512698, 0.06481960020028055, 0.016773200128227472, 12.082590700127184]",0,,,,,,,,,,,,,,,,,,,,,,,,,,,,,,,,,,,,,,,,,,,,,,,,,,,,,,,,,,,,,,,,,,,,,,,,,,,,,,,,,,,,,,,,,,,,,,,,,,,,,,,,,,,,,,,,,,,,,,,,,,,,,D369YD,train_y,red_square,bottom_right,2025-06-27_16h09.06.301,HideSeek_v1,2022.2.5,59.95099600377018,
,,,,,,,,,,,,,,,0,0,0,0,8,0,8,0,,,,,,,,,,,,,,,,,,,,,,,,,,,,,,,conditions/schedules/train_y_first/red_square_00/bottom_right/instructions/Slide9.png,conditions/schedules/train_y_first/red_square_00/bottom_right/instructions/Audio9.wav,586.4781991001219,586.4780966200866,9,"[3.664919500006363, 19.083361000055447, 16.845070800045505, 19.350788000039756, 4.090259399963543, 4.452312899986282, 5.669567000120878, 12.082583900075406, 6.652478399919346]","[3.664926400175318, 0.014063100097700953, 0.00023830006830394268, 0.00021199998445808887, 0.03196529997512698, 0.06481960020028055, 0.016773200128227472, 0.06348769995383918, 6.65248559997417]",0,,,,,,,,,,,,,,,,,,,,,,,,,,,,,,,,,,,,,,,,,,,,,,,,,,,,,,,,,,,,,,,,,,,,,,,,,,,,,,,,,,,,,,,,,,,,,,,,,,,,,,,,,,,,,,,,,,,,,,,,,,,,,D369YD,train_y,red_square,bottom_right,2025-06-27_16h09.06.301,HideSeek_v1,2022.2.5,59.95099600377018,
,,,,,,,,,,,,,,,0,0,0,0,9,0,9,0,,,,,,,,,,,,,,,,,,,,,,,,,,,,,,,conditions/schedules/train_y_first/red_square_00/bottom_right/instructions/Slide10.png,conditions/schedules/train_y_first/red_square_00/bottom_right/instructions/Audio10.wav,593.1910107999574,593.1838102200069,10,"[3.664919500006363, 19.083361000055447, 16.845070800045505, 19.350788000039756, 4.090259399963543, 4.452312899986282, 5.669567000120878, 12.082583900075406, 6.652478399919346, 7.045304599916562]","[3.664926400175318, 0.014063100097700953, 0.00023830006830394268, 0.00021199998445808887, 0.03196529997512698, 0.06481960020028055, 0.016773200128227472, 0.06348769995383918, 0.05595379997976124, 7.0453106998465955]",0,,,,,,,,,,,,,,,,,,,,,,,,,,,,,,,,,,,,,,,,,,,,,,,,,,,,,,,,,,,,,,,,,,,,,,,,,,,,,,,,,,,,,,,,,,,,,,,,,,,,,,,,,,,,,,,,,,,,,,,,,,,,,D369YD,train_y,red_square,bottom_right,2025-06-27_16h09.06.301,HideSeek_v1,2022.2.5,59.95099600377018,
,,,,,,,,,,,,,,,0,0,0,0,10,0,10,0,,,,,,,,,,,,,,,,,,,,,,,,,,,,,,,conditions/schedules/train_y_first/red_square_00/bottom_right/instructions/Slide11.png,conditions/schedules/train_y_first/red_square_00/bottom_right/instructions/Audio11.wav,600.2946053000633,600.2897402200848,11,"[3.664919500006363, 19.083361000055447, 16.845070800045505, 19.350788000039756, 4.090259399963543, 4.452312899986282, 5.669567000120878, 12.082583900075406, 6.652478399919346, 7.045304599916562, 10.234379300149158]","[3.664926400175318, 0.014063100097700953, 0.00023830006830394268, 0.00021199998445808887, 0.03196529997512698, 0.06481960020028055, 0.016773200128227472, 0.06348769995383918, 0.05595379997976124, 0.04691560007631779, 10.23438600008376]",0,,,,,,,,,,,,,,,,,,,,,,,,,,,,,,,,,,,,,,,,,,,,,,,,,,,,,,,,,,,,,,,,,,,,,,,,,,,,,,,,,,,,,,,,,,,,,,,,,,,,,,,,,,,,,,,,,,,,,,,,,,,,,D369YD,train_y,red_square,bottom_right,2025-06-27_16h09.06.301,HideSeek_v1,2022.2.5,59.95099600377018,
,,,,,,,,,,,,,,,0,0,0,0,11,0,11,0,,,,,,,,,,,,,,,,,,,,,,,,,,,,,,,conditions/schedules/train_y_first/red_square_00/bottom_right/instructions/Slide12.png,conditions/schedules/train_y_first/red_square_00/bottom_right/instructions/Audio12.wav,610.6017674999312,610.5983087499626,12,"[3.664919500006363, 19.083361000055447, 16.845070800045505, 19.350788000039756, 4.090259399963543, 4.452312899986282, 5.669567000120878, 12.082583900075406, 6.652478399919346, 7.045304599916562, 10.234379300149158, 13.620771100046113]","[3.664926400175318, 0.014063100097700953, 0.00023830006830394268, 0.00021199998445808887, 0.03196529997512698, 0.06481960020028055, 0.016773200128227472, 0.06348769995383918, 0.05595379997976124, 0.04691560007631779, 0.030213099904358387, 13.620777199976146]",0,,,,,,,,,,,,,,,,,,,,,,,,,,,,,,,,,,,,,,,,,,,,,,,,,,,,,,,,,,,,,,,,,,,,,,,,,,,,,,,,,,,,,,,,,,,,,,,,,,,,,,,,,,,,,,,,,,,,,,,,,,,,,D369YD,train_y,red_square,bottom_right,2025-06-27_16h09.06.301,HideSeek_v1,2022.2.5,59.95099600377018,
1,7,3,7,8,0,5,11,2,instr_dim1_1,,,,,,0,0,0,0,,,,,0,0,0,0,,,,,,,,,,,,,,,,,,,,,,,,,,,,,,,,,,,,,stimuli/alien_stimuli/11.png,conditions/schedules/train_y_first/red_square_00/bottom_right/inputInstr_1.xlsx,stimuli/alien_stimuli/11.png,624.3228500001132,624.3228500001132,624.3228500001132,624.3228500001132,624.3262348100077,return,8.610639299964532,"[-0.16, -0.08, 0, 0.08, 0.16, 0.24, 0.32, 0.4, 0.48, 0.56]","[-0.4, -0.32, -0.24, -0.16, -0.08, 0, 0.08, 0.16, 0.24, 0.32]",8,3,7,7,0.4,0.0,633.0775210000575,633.0775210000575,633.0775210000575,633.0775210000575,633.0775210000575,633.0775210000575,633.0775210000575,633.0673456399701,9.558286800049245,return,9.413098899880424,stimuli/alien_stimuli/11.png,11,7,1,,,,,,,,,,,,,,,,,,,,,,,,,,,,,,,,,,,,,,,,,,,,,,,,,,,,,,,,,,,,,,,,,,,,,,,,,,,,,,,,,,,,,,,,,,D369YD,train_y,red_square,bottom_right,2025-06-27_16h09.06.301,HideSeek_v1,2022.2.5,59.95099600377018,
,,,,,,,,,,,30,,,,0,0,0,0,,,,,,,,,,,,,,,,,,,,,,,,,,,,,,,,,,,,,,,,,,,,,,,,,,,,,,,,,,,,,,,,,,,,,,,,,,,,,,21,0.7,0,0,99,1,30,0,conditions/schedules/train_y_first/red_square_00/bottom_right/inputTrain_1.1.xlsx,99,1,1,1,0,,,,,,,,,,,,,,,,,,,,,,,,,,,,,,,,,,,,,,,,,,,,,,,,,,,,,,,,,,,,,,,,,,,,,,,,,,,,D369YD,train_y,red_square,bottom_right,2025-06-27_16h09.06.301,HideSeek_v1,2022.2.5,59.95099600377018,
,,,,,,,,,,,,,,,1,0,1,0,0,0,0,0,,,,,,,,,,,,,,,,,,,,,,,,,,,,,,,conditions/schedules/train_y_first/red_square_00/bottom_right/instructions/Slide13.png,conditions/schedules/train_y_first/red_square_00/bottom_right/instructions/Audio13.wav,642.6391531999689,642.6417727699969,13,"[3.664919500006363, 19.083361000055447, 16.845070800045505, 19.350788000039756, 4.090259399963543, 4.452312899986282, 5.669567000120878, 12.082583900075406, 6.652478399919346, 7.045304599916562, 10.234379300149158, 13.620771100046113, 17.296947000082582]","[3.664926400175318, 0.014063100097700953, 0.00023830006830394268, 0.00021199998445808887, 0.03196529997512698, 0.06481960020028055, 0.016773200128227472, 0.06348769995383918, 0.05595379997976124, 0.04691560007631779, 0.030213099904358387, 13.620777199976146, 17.29695380013436]",0,,,,,,,,,,,,,,,,,,,,,,,,,,,,,,,,,,,,,,,,,,,,,,,,,,,,,,,,,,,,,,,,,,,,,,,,,,,,,,,,,,,,,,,,,,,,,,,,,,,,,,,,,,,,,,,,,,,,,,,,,,,,,D369YD,train_y,red_square,bottom_right,2025-06-27_16h09.06.301,HideSeek_v1,2022.2.5,59.95099600377018,
,,,,,,,,,,,,,,,1,0,1,0,1,0,1,0,,,,,,,,,,,,,,,,,,,,,,,,,,,,,,,conditions/schedules/train_y_first/red_square_00/bottom_right/instructions/Slide14.png,conditions/schedules/train_y_first/red_square_00/bottom_right/instructions/Audio14.wav,660.0056406001095,660.0058464501053,14,"[3.664919500006363, 19.083361000055447, 16.845070800045505, 19.350788000039756, 4.090259399963543, 4.452312899986282, 5.669567000120878, 12.082583900075406, 6.652478399919346, 7.045304599916562, 10.234379300149158, 13.620771100046113, 17.296947000082582, 16.411160900024697]","[3.664926400175318, 0.014063100097700953, 0.00023830006830394268, 0.00021199998445808887, 0.03196529997512698, 0.06481960020028055, 0.016773200128227472, 0.06348769995383918, 0.05595379997976124, 0.04691560007631779, 0.030213099904358387, 13.620777199976146, 0.013976800022646785, 16.411168799968436]",0,,,,,,,,,,,,,,,,,,,,,,,,,,,,,,,,,,,,,,,,,,,,,,,,,,,,,,,,,,,,,,,,,,,,,,,,,,,,,,,,,,,,,,,,,,,,,,,,,,,,,,,,,,,,,,,,,,,,,,,,,,,,,D369YD,train_y,red_square,bottom_right,2025-06-27_16h09.06.301,HideSeek_v1,2022.2.5,59.95099600377018,
2,5,3,5,3,0,0,16,2,instr_dim1_1,,,,,,1,0,1,0,,,,,0,0,0,0,,,,,,,,,,,,,,,,,,,,,,,,,,,,,,,,,,,,,stimuli/alien_stimuli/16.png,conditions/schedules/train_y_first/red_square_00/bottom_right/inputInstr_1.xlsx,stimuli/alien_stimuli/16.png,676.519236400025,676.519236400025,676.519236400025,676.519236400025,676.5196508101187,return,7.389558299910277,"[-0.16, -0.08, 0, 0.08, 0.16, 0.24, 0.32, 0.4, 0.48, 0.56]","[-0.4, -0.32, -0.24, -0.16, -0.08, 0, 0.08, 0.16, 0.24, 0.32]",3,3,5,5,0.0,0.0,684.0574215000961,684.0574215000961,684.0574215000961,684.0574215000961,684.0574215000961,684.0574215000961,684.0574215000961,684.0427804401144,8.291094299871475,return,8.136013200040907,stimuli/alien_stimuli/16.png,16,5,2,,,,,,,,,,,,,,,,,,,,,,,,,,,,,,,,,,,,,,,,,,,,,,,,,,,,,,,,,,,,,,,,,,,,,,,,,,,,,,,,,,,,,,,,,,D369YD,train_y,red_square,bottom_right,2025-06-27_16h09.06.301,HideSeek_v1,2022.2.5,59.95099600377018,
,,,,,,,,,,,30,,,,1,0,1,0,,,,,,,,,,,,,,,,,,,,,,,,,,,,,,,,,,,,,,,,,,,,,,,,,,,,,,,,,,,,,,,,,,,,,,,,,,,,,,21,0.7,0,0,99,1,30,0,conditions/schedules/train_y_first/red_square_00/bottom_right/inputTrain_1.1.xlsx,99,1,1,1,0,,,,,,,,,,,,,,,,,,,,,,,,,,,,,,,,,,,,,,,,,,,,,,,,,,,,,,,,,,,,,,,,,,,,,,,,,,,,D369YD,train_y,red_square,bottom_right,2025-06-27_16h09.06.301,HideSeek_v1,2022.2.5,59.95099600377018,
,,,,,,,,,,,,,,,2,0,2,0,0,0,0,0,,,,,,,,,,,,,,,,,,,,,,,,,,,,,,,conditions/schedules/train_y_first/red_square_00/bottom_right/instructions/Slide15.png,conditions/schedules/train_y_first/red_square_00/bottom_right/instructions/Audio15.wav,692.3689796999097,692.3664555000141,15,"[3.664919500006363, 19.083361000055447, 16.845070800045505, 19.350788000039756, 4.090259399963543, 4.452312899986282, 5.669567000120878, 12.082583900075406, 6.652478399919346, 7.045304599916562, 10.234379300149158, 13.620771100046113, 17.296947000082582, 16.411160900024697, 43.28045860002749]","[3.664926400175318, 0.014063100097700953, 0.00023830006830394268, 0.00021199998445808887, 0.03196529997512698, 0.06481960020028055, 0.016773200128227472, 0.06348769995383918, 0.05595379997976124, 0.04691560007631779, 0.030213099904358387, 13.620777199976146, 0.013976800022646785, 16.411168799968436, 43.28046550019644]",0,,,,,,,,,,,,,,,,,,,,,,,,,,,,,,,,,,,,,,,,,,,,,,,,,,,,,,,,,,,,,,,,,,,,,,,,,,,,,,,,,,,,,,,,,,,,,,,,,,,,,,,,,,,,,,,,,,,,,,,,,,,,,D369YD,train_y,red_square,bottom_right,2025-06-27_16h09.06.301,HideSeek_v1,2022.2.5,59.95099600377018,
,,,,,,,,,,,,,,,2,0,2,0,1,0,1,0,,,,,,,,,,,,,,,,,,,,,,,,,,,,,,,conditions/schedules/train_y_first/red_square_00/bottom_right/instructions/Slide16.png,conditions/schedules/train_y_first/red_square_00/bottom_right/instructions/Audio16.wav,735.7264245001134,735.7186523498967,16,"[3.664919500006363, 19.083361000055447, 16.845070800045505, 19.350788000039756, 4.090259399963543, 4.452312899986282, 5.669567000120878, 12.082583900075406, 6.652478399919346, 7.045304599916562, 10.234379300149158, 13.620771100046113, 17.296947000082582, 16.411160900024697, 43.28045860002749, 21.640411800006405]","[3.664926400175318, 0.014063100097700953, 0.00023830006830394268, 0.00021199998445808887, 0.03196529997512698, 0.06481960020028055, 0.016773200128227472, 0.06348769995383918, 0.05595379997976124, 0.04691560007631779, 0.030213099904358387, 13.620777199976146, 0.013976800022646785, 16.411168799968436, 0.00021350011229515076, 21.640419099945575]",0,,,,,,,,,,,,,,,,,,,,,,,,,,,,,,,,,,,,,,,,,,,,,,,,,,,,,,,,,,,,,,,,,,,,,,,,,,,,,,,,,,,,,,,,,,,,,,,,,,,,,,,,,,,,,,,,,,,,,,,,,,,,,D369YD,train_y,red_square,bottom_right,2025-06-27_16h09.06.301,HideSeek_v1,2022.2.5,59.95099600377018,
,5,0,5,1,0,1,15,,train_dim1_1,1,30,,,,2,0,2,0,,,,,,,,,0,0,0,0,0,0,0,0,0,0,0,0,,,,,,,,,,,,,,,,,,,,,,,,,stimuli/alien_stimuli/15.png,,,,,,,,,,,,,,,,,,,,,,,,,,,,,,,,,,,,,,,30,,,,,,,,757.4738545999862,757.4738545999862,757.4738545999862,757.4738545999862,757.4738545999862,up,4.882187100127339,0,0,0,99,0.24,-0.32,up,4.7697976001072675,,,,,,,,,,,,,,,,,,,,,,,,,,,,,,,,,,,,,,,,,,,,,,,,,,,,,,,,,,,,,D369YD,train_y,red_square,bottom_right,2025-06-27_16h09.06.301,HideSeek_v1,2022.2.5,59.95099600377018,
,5,0,5,1,0,1,15,,train_dim1_1,1,30,,,,2,0,2,0,,,,,,,,,0,0,0,0,0,0,0,0,1,0,1,0,,,,,,,,,,,,,,,,,,,,,,,,,,,,,,,,,,,,,,,,,,,,,,,,,,,,,,,,,,,,,,,,30,,,,,,,,762.3440155000426,762.3440155000426,762.3440155000426,762.3440155000426,762.3440155000426,up,2.0934403999708593,0,0,0,99,0.24,-0.24,up,2.0094031000044197,,,,,,,,,,,,,,,,,,,,,,,,,,,,,,,,,,,,,,,,,,,,,,,,,,,,,,,,,,,,,D369YD,train_y,red_square,bottom_right,2025-06-27_16h09.06.301,HideSeek_v1,2022.2.5,59.95099600377018,
,5,0,5,1,0,1,15,,train_dim1_1,1,30,,,,2,0,2,0,,,,,,,,,0,0,0,0,0,0,0,0,2,0,2,0,,,,,,,,,,,,,,,,,,,,,,,,,,,,,,,,,,,,,,,,,,,,,,,,,,,,,,,,,,,,,,,,30,,,,,,,,764.4438537000678,764.4438537000678,764.4438537000678,764.4438537000678,764.4438537000678,return,1.2103407999966294,0,1,0,0,0.24,-0.24,return,1.1178772998973727,2,0,0.24,-0.24,,,,,,,,,,,,,,,,,,,,,,,,,,,,,,,,,,,,,,,,,,,,,,,,,,,,,,,,,D369YD,train_y,red_square,bottom_right,2025-06-27_16h09.06.301,HideSeek_v1,2022.2.5,59.95099600377018,
,8,2,8,2,0,0,16,,train_dim1_1,2,30,,,,2,0,2,0,,,,,,,,,0,0,0,0,0,1,1,1,0,0,0,0,,,,,,,,,,,,,,,,,,,,,,,,,stimuli/alien_stimuli/16.png,,,,,,,,,,,,,,,,,,,,,,,,,,,,,stimuli/alien_stimuli/15.png,15,5,3,,,,,,,30,,,,,,,,786.216146599967,786.216146599967,786.216146599967,786.216146599967,786.216146599967,up,3.0077082999050617,0,1,0,99,0.48,-0.15999999999999998,up,2.907150899991393,,,,,784.6420478001237,786.216146599967,0.24,-0.32,0.08,0.0,-0.36,0.24,0.24,0.24,-0.32,767.2367173000239,767.2367173000239,767.2367173000239,767.2367173000239,767.2367173000239,767.2367173000239,767.2367173000239,767.2367173000239,767.2284073399379,17.533200100064278,return,17.37592429993674,,,,,,,,,,,,,,,,,,,,,,,,,,,,,,,,,,D369YD,train_y,red_square,bottom_right,2025-06-27_16h09.06.301,HideSeek_v1,2022.2.5,59.95099600377018,
,8,2,8,2,0,0,16,,train_dim1_1,2,30,,,,2,0,2,0,,,,,,,,,0,0,0,0,0,1,1,1,1,0,1,0,,,,,,,,,,,,,,,,,,,,,,,,,,,,,,,,,,,,,,,,,,,,,,,,,,,,,,,,,,,,,,,,30,,,,,,,,789.213476800127,789.213476800127,789.213476800127,789.213476800127,789.213476800127,return,0.726138100028038,0,1,0,0,0.48,-0.15999999999999998,return,0.6343794001732022,3,0,0.48,-0.15999999999999998,,,,,,,,,,,,,,,,,,,,,,,,,,,,,,,,,,,,,,,,,,,,,,,,,,,,,,,,,D369YD,train_y,red_square,bottom_right,2025-06-27_16h09.06.301,HideSeek_v1,2022.2.5,59.95099600377018,
,7,3,7,6,0,3,13,,train_dim1_1,3,30,,,,2,0,2,0,,,,,,,,,0,0,0,0,0,2,2,2,0,0,0,0,,,,,,,,,,,,,,,,,,,,,,,,,stimuli/alien_stimuli/13.png,,,,,,,,,,,,,,,,,,,,,,,,,,,,,stimuli/alien_stimuli/16.png,16,8,4,,,,,,,30,,,,,,,,799.0641336999834,799.0641336999834,799.0641336999834,799.0641336999834,799.0641336999834,left,2.169359200168401,0,1,0,99,0.32,-0.16,left,2.0915024999994785,,,,,797.5026899999939,799.0641336999834,0.48,-0.24,0.0,0.0,-0.24,0.48,0.48,0.48,-0.24,791.5161528000608,791.5161528000608,791.5161528000608,791.5161528000608,791.5161528000608,791.5161528000608,791.5161528000608,791.5161528000608,791.5150417399592,6.107126200105995,return,5.9565893998369575,,,,,,,,,,,,,,,,,,,,,,,,,,,,,,,,,,D369YD,train_y,red_square,bottom_right,2025-06-27_16h09.06.301,HideSeek_v1,2022.2.5,59.95099600377018,
,7,3,7,6,0,3,13,,train_dim1_1,3,30,,,,2,0,2,0,,,,,,,,,0,0,0,0,0,2,2,2,1,0,1,0,,,,,,,,,,,,,,,,,,,,,,,,,,,,,,,,,,,,,,,,,,,,,,,,,,,,,,,,,,,,,,,,30,,,,,,,,801.2404684000649,801.2404684000649,801.2404684000649,801.2404684000649,801.2404684000649,left,0.5258555000182241,0,1,0,99,0.24,-0.16,left,0.4344868001062423,,,,,,,,,,,,,,,,,,,,,,,,,,,,,,,,,,,,,,,,,,,,,,,,,,,,,,,,,,,,,D369YD,train_y,red_square,bottom_right,2025-06-27_16h09.06.301,HideSeek_v1,2022.2.5,59.95099600377018,
,7,3,7,6,0,3,13,,train_dim1_1,3,30,,,,2,0,2,0,,,,,,,,,0,0,0,0,0,2,2,2,2,0,2,0,,,,,,,,,,,,,,,,,,,,,,,,,,,,,,,,,,,,,,,,,,,,,,,,,,,,,,,,,,,,,,,,30,,,,,,,,801.7730640999507,801.7730640999507,801.7730640999507,801.7730640999507,801.7730640999507,return,0.8269946000073105,0,0,0,0,0.24,-0.16,return,0.7505164002068341,3,-2,0.24,-0.16,,,,,,,,,,,,,,,,,,,,,,,,,,,,,,,,,,,,,,,,,,,,,,,,,,,,,,,,,D369YD,train_y,red_square,bottom_right,2025-06-27_16h09.06.301,HideSeek_v1,2022.2.5,59.95099600377018,
,5,1,5,5,0,4,12,,train_dim1_1,4,30,,,,2,0,2,0,,,,,,,,,0,0,0,0,0,3,3,3,0,0,0,0,,,,,,,,,,,,,,,,,,,,,,,,,stimuli/alien_stimuli/12.png,,,,,,,,,,,,,,,,,,,,,,,,,,,,,stimuli/alien_stimuli/13.png,13,7,5,,,,,,,30,,,,,,,,812.9981307000853,812.9981307000853,812.9981307000853,812.9981307000853,812.9981307000853,up,1.914957599947229,0,0,0,99,0.24,-0.24,up,1.8354976999107748,,,,,811.431101199938,812.9981307000853,0.4,0.08,0.24,0.0,-0.04,0.4,0.4,0.4,0.08,804.176563099958,804.176563099958,804.176563099958,804.176563099958,804.176563099958,804.176563099958,804.176563099958,804.176563099958,804.1758829399943,7.3746293999720365,return,7.225093200104311,,,,,,,,,,,,,,,,,,,,,,,,,,,,,,,,,,D369YD,train_y,red_square,bottom_right,2025-06-27_16h09.06.301,HideSeek_v1,2022.2.5,59.95099600377018,
,5,1,5,5,0,4,12,,train_dim1_1,4,30,,,,2,0,2,0,,,,,,,,,0,0,0,0,0,3,3,3,1,0,1,0,,,,,,,,,,,,,,,,,,,,,,,,,,,,,,,,,,,,,,,,,,,,,,,,,,,,,,,,,,,,,,,,30,,,,,,,,814.9241243000142,814.9241243000142,814.9241243000142,814.9241243000142,814.9241243000142,up,0.571438199840486,0,0,0,99,0.24,-0.15999999999999998,up,0.48756919987499714,,,,,,,,,,,,,,,,,,,,,,,,,,,,,,,,,,,,,,,,,,,,,,,,,,,,,,,,,,,,,D369YD,train_y,red_square,bottom_right,2025-06-27_16h09.06.301,HideSeek_v1,2022.2.5,59.95099600377018,
,5,1,5,5,0,4,12,,train_dim1_1,4,30,,,,2,0,2,0,,,,,,,,,0,0,0,0,0,3,3,3,2,0,2,0,,,,,,,,,,,,,,,,,,,,,,,,,,,,,,,,,,,,,,,,,,,,,,,,,,,,,,,,,,,,,,,,30,,,,,,,,815.5023012999445,815.5023012999445,815.5023012999445,815.5023012999445,815.5023012999445,return,1.9277657999191433,0,0,0,0,0.24,-0.15999999999999998,return,1.8359870000276715,5,-2,0.24,-0.15999999999999998,,,,,,,,,,,,,,,,,,,,,,,,,,,,,,,,,,,,,,,,,,,,,,,,,,,,,,,,,D369YD,train_y,red_square,bottom_right,2025-06-27_16h09.06.301,HideSeek_v1,2022.2.5,59.95099600377018,
,8,3,8,8,0,5,11,,train_dim1_1,5,30,,,,2,0,2,0,,,,,,,,,0,0,0,0,0,4,4,4,0,0,0,0,,,,,,,,,,,,,,,,,,,,,,,,,stimuli/alien_stimuli/11.png,,,,,,,,,,,,,,,,,,,,,,,,,,,,,stimuli/alien_stimuli/12.png,12,5,6,,,,,,,30,,,,,,,,824.7531345000025,824.7531345000025,824.7531345000025,824.7531345000025,824.7531345000025,up,4.170319800032303,0,0,0,99,0.48,-0.08,up,4.082567899953574,,,,,823.1907299999148,824.7531345000025,0.24,0,0.32,0.0,-0.16,0.24,0.24,0.24,0,819.0041316999123,819.0041316999123,819.0041316999123,819.0041316999123,819.0041316999123,819.0041316999123,819.0041316999123,819.0041316999123,819.0046820401213,4.30564759997651,return,4.156981900101528,,,,,,,,,,,,,,,,,,,,,,,,,,,,,,,,,,D369YD,train_y,red_square,bottom_right,2025-06-27_16h09.06.301,HideSeek_v1,2022.2.5,59.95099600377018,
,8,3,8,8,0,5,11,,train_dim1_1,5,30,,,,2,0,2,0,,,,,,,,,0,0,0,0,0,4,4,4,1,0,1,0,,,,,,,,,,,,,,,,,,,,,,,,,,,,,,,,,,,,,,,,,,,,,,,,,,,,,,,,,,,,,,,,30,,,,,,,,828.9307695000898,828.9307695000898,828.9307695000898,828.9307695000898,828.9307695000898,up,0.5757617999333888,0,0,0,99,0.48,0.0,up,0.49010709999129176,,,,,,,,,,,,,,,,,,,,,,,,,,,,,,,,,,,,,,,,,,,,,,,,,,,,,,,,,,,,,D369YD,train_y,red_square,bottom_right,2025-06-27_16h09.06.301,HideSeek_v1,2022.2.5,59.95099600377018,
,8,3,8,8,0,5,11,,train_dim1_1,5,30,,,,2,0,2,0,,,,,,,,,0,0,0,0,0,4,4,4,2,0,2,0,,,,,,,,,,,,,,,,,,,,,,,,,,,,,,,,,,,,,,,,,,,,,,,,,,,,,,,,,,,,,,,,30,,,,,,,,829.5134294999298,829.5134294999298,829.5134294999298,829.5134294999298,829.5134294999298,up,0.34335290011949837,0,0,0,99,0.48,0.08,up,0.2602595000062138,,,,,,,,,,,,,,,,,,,,,,,,,,,,,,,,,,,,,,,,,,,,,,,,,,,,,,,,,,,,,D369YD,train_y,red_square,bottom_right,2025-06-27_16h09.06.301,HideSeek_v1,2022.2.5,59.95099600377018,
,8,3,8,8,0,5,11,,train_dim1_1,5,30,,,,2,0,2,0,,,,,,,,,0,0,0,0,0,4,4,4,3,0,3,0,,,,,,,,,,,,,,,,,,,,,,,,,,,,,,,,,,,,,,,,,,,,,,,,,,,,,,,,,,,,,,,,30,,,,,,,,829.8643177999184,829.8643177999184,829.8643177999184,829.8643177999184,829.8643177999184,return,0.7933793999254704,0,0,0,0,0.48,0.08,return,0.7033643000759184,8,-2,0.48,0.08,,,,,,,,,,,,,,,,,,,,,,,,,,,,,,,,,,,,,,,,,,,,,,,,,,,,,,,,,D369YD,train_y,red_square,bottom_right,2025-06-27_16h09.06.301,HideSeek_v1,2022.2.5,59.95099600377018,
,6,4,6,8,0,4,12,,train_dim1_1,6,30,,,,2,0,2,0,,,,,,,,,0,0,0,0,0,5,5,5,0,0,0,0,,,,,,,,,,,,,,,,,,,,,,,,,stimuli/alien_stimuli/12.png,,,,,,,,,,,,,,,,,,,,,,,,,,,,,stimuli/alien_stimuli/11.png,11,8,7,,,,,,,30,,,,,,,,839.9293855999131,839.9293855999131,839.9293855999131,839.9293855999131,839.9293855999131,up,1.8048734001349658,0,0,0,99,0.32,0.0,up,1.7167807000223547,,,,,838.3700528000481,839.9293855999131,0.48,0.24,0.4,0.0,0.039999999999999994,0.48,0.48,0.48,0.24,832.2285174999852,832.2285174999852,832.2285174999852,832.2285174999852,832.2285174999852,832.2285174999852,832.2285174999852,832.2285174999852,832.2155282101128,6.2575452998280525,return,6.123230399796739,,,,,,,,,,,,,,,,,,,,,,,,,,,,,,,,,,D369YD,train_y,red_square,bottom_right,2025-06-27_16h09.06.301,HideSeek_v1,2022.2.5,59.95099600377018,
,6,4,6,8,0,4,12,,train_dim1_1,6,30,,,,2,0,2,0,,,,,,,,,0,0,0,0,0,5,5,5,1,0,1,0,,,,,,,,,,,,,,,,,,,,,,,,,,,,,,,,,,,,,,,,,,,,,,,,,,,,,,,,,,,,,,,,30,,,,,,,,841.7406687000766,841.7406687000766,841.7406687000766,841.7406687000766,841.7406687000766,up,0.409658299991861,0,0,0,99,0.32,0.08,up,0.32549410010688007,,,,,,,,,,,,,,,,,,,,,,,,,,,,,,,,,,,,,,,,,,,,,,,,,,,,,,,,,,,,,D369YD,train_y,red_square,bottom_right,2025-06-27_16h09.06.301,HideSeek_v1,2022.2.5,59.95099600377018,
,6,4,6,8,0,4,12,,train_dim1_1,6,30,,,,2,0,2,0,,,,,,,,,0,0,0,0,0,5,5,5,2,0,2,0,,,,,,,,,,,,,,,,,,,,,,,,,,,,,,,,,,,,,,,,,,,,,,,,,,,,,,,,,,,,,,,,30,,,,,,,,842.158043900039,842.158043900039,842.158043900039,842.158043900039,842.158043900039,up,0.3766205001156777,0,0,0,99,0.32,0.16,up,0.2923187001142651,,,,,,,,,,,,,,,,,,,,,,,,,,,,,,,,,,,,,,,,,,,,,,,,,,,,,,,,,,,,,D369YD,train_y,red_square,bottom_right,2025-06-27_16h09.06.301,HideSeek_v1,2022.2.5,59.95099600377018,
,6,4,6,8,0,4,12,,train_dim1_1,6,30,,,,2,0,2,0,,,,,,,,,0,0,0,0,0,5,5,5,3,0,3,0,,,,,,,,,,,,,,,,,,,,,,,,,,,,,,,,,,,,,,,,,,,,,,,,,,,,,,,,,,,,,,,,30,,,,,,,,842.5403786001261,842.5403786001261,842.5403786001261,842.5403786001261,842.5403786001261,up,0.3933023000136018,0,0,0,99,0.32,0.24,up,0.3017086999025196,,,,,,,,,,,,,,,,,,,,,,,,,,,,,,,,,,,,,,,,,,,,,,,,,,,,,,,,,,,,,D369YD,train_y,red_square,bottom_right,2025-06-27_16h09.06.301,HideSeek_v1,2022.2.5,59.95099600377018,
,6,4,6,8,0,4,12,,train_dim1_1,6,30,,,,2,0,2,0,,,,,,,,,0,0,0,0,0,5,5,5,4,0,4,0,,,,,,,,,,,,,,,,,,,,,,,,,,,,,,,,,,,,,,,,,,,,,,,,,,,,,,,,,,,,,,,,30,,,,,,,,842.9412233000621,842.9412233000621,842.9412233000621,842.9412233000621,842.9412233000621,return,1.9455122000072151,1,0,0,1,0.32,0.24,return,1.865163299953565,12,-2,0.32,0.24,,,,,,,,,,,,,,,,,,,,,,,,,,,,,,,,,,,,,,,,,,,,,,,,,,,,,,,,,D369YD,train_y,red_square,bottom_right,2025-06-27_16h09.06.301,HideSeek_v1,2022.2.5,59.95099600377018,
,6,3,6,6,0,3,13,,train_dim1_1,7,30,,,,2,0,2,0,,,,,,,,,0,0,0,0,0,6,6,6,0,0,0,0,,,,,,,,,,,,,,,,,,,,,,,,,stimuli/alien_stimuli/13.png,,,,,,,,,,,,,,,,,,,,,,,,,,,,,stimuli/alien_stimuli/12.png,12,6,8,,,,,,,30,,,,,,,,851.2750792000443,851.2750792000443,851.2750792000443,851.2750792000443,851.2750792000443,up,3.670053099980578,1,0,0,99,0.32,-0.08,up,3.5836541999597102,,,,,849.712798899971,851.2750792000443,0.32,0.24,0.32,0.0,0.07999999999999999,0.32,0.32,0.32,0.24,846.4628185001202,846.4628185001202,846.4628185001202,846.4628185001202,846.4628185001202,846.4628185001202,846.4628185001202,846.4628185001202,846.4607648400589,3.3717803000472486,return,3.231685900129378,,,,,,,,,,,,,,,,,,,,,,,,,,,,,,,,,,D369YD,train_y,red_square,bottom_right,2025-06-27_16h09.06.301,HideSeek_v1,2022.2.5,59.95099600377018,
,6,3,6,6,0,3,13,,train_dim1_1,7,30,,,,2,0,2,0,,,,,,,,,0,0,0,0,0,6,6,6,1,0,1,0,,,,,,,,,,,,,,,,,,,,,,,,,,,,,,,,,,,,,,,,,,,,,,,,,,,,,,,,,,,,,,,,30,,,,,,,,854.9510844999459,854.9510844999459,854.9510844999459,854.9510844999459,854.9510844999459,up,0.3928990999702364,1,0,0,99,0.32,0.0,up,0.3172889999113977,,,,,,,,,,,,,,,,,,,,,,,,,,,,,,,,,,,,,,,,,,,,,,,,,,,,,,,,,,,,,D369YD,train_y,red_square,bottom_right,2025-06-27_16h09.06.301,HideSeek_v1,2022.2.5,59.95099600377018,
,6,3,6,6,0,3,13,,train_dim1_1,7,30,,,,2,0,2,0,,,,,,,,,0,0,0,0,0,6,6,6,2,0,2,0,,,,,,,,,,,,,,,,,,,,,,,,,,,,,,,,,,,,,,,,,,,,,,,,,,,,,,,,,,,,,,,,30,,,,,,,,855.3505869000219,855.3505869000219,855.3505869000219,855.3505869000219,855.3505869000219,return,1.1941058000084013,1,1,0,0,0.32,0.0,return,1.1154937997926027,14,-2,0.32,0.0,,,,,,,,,,,,,,,,,,,,,,,,,,,,,,,,,,,,,,,,,,,,,,,,,,,,,,,,,D369YD,train_y,red_square,bottom_right,2025-06-27_16h09.06.301,HideSeek_v1,2022.2.5,59.95099600377018,
,9,2,9,7,0,5,11,,train_dim1_1,8,30,,,,2,0,2,0,,,,,,,,,0,0,0,0,0,7,7,7,0,0,0,0,,,,,,,,,,,,,,,,,,,,,,,,,stimuli/alien_stimuli/11.png,,,,,,,,,,,,,,,,,,,,,,,,,,,,,stimuli/alien_stimuli/13.png,13,6,9,,,,,,,30,,,,,,,,868.6501470000949,868.6501470000949,868.6501470000949,868.6501470000949,868.6501470000949,up,2.2892150999978185,1,1,0,99,0.56,-0.15999999999999998,up,2.1884812999051064,,,,,867.077122699935,868.6501470000949,0.32,0.08,0.24,0.0,-0.04,0.32,0.32,0.32,0.08,858.1150571999606,858.1150571999606,858.1150571999606,858.1150571999606,858.1150571999606,858.1150571999606,858.1150571999606,858.1150571999606,858.1037717100232,9.076334099983796,return,8.944162999978289,,,,,,,,,,,,,,,,,,,,,,,,,,,,,,,,,,D369YD,train_y,red_square,bottom_right,2025-06-27_16h09.06.301,HideSeek_v1,2022.2.5,59.95099600377018,
,9,2,9,7,0,5,11,,train_dim1_1,8,30,,,,2,0,2,0,,,,,,,,,0,0,0,0,0,7,7,7,1,0,1,0,,,,,,,,,,,,,,,,,,,,,,,,,,,,,,,,,,,,,,,,,,,,,,,,,,,,,,,,,,,,,,,,30,,,,,,,,870.931356200017,870.931356200017,870.931356200017,870.931356200017,870.931356200017,up,2.52814509999007,1,1,0,99,0.56,-0.07999999999999997,up,2.4357709002215415,,,,,,,,,,,,,,,,,,,,,,,,,,,,,,,,,,,,,,,,,,,,,,,,,,,,,,,,,,,,,D369YD,train_y,red_square,bottom_right,2025-06-27_16h09.06.301,HideSeek_v1,2022.2.5,59.95099600377018,
,9,2,9,7,0,5,11,,train_dim1_1,8,30,,,,2,0,2,0,,,,,,,,,0,0,0,0,0,7,7,7,2,0,2,0,,,,,,,,,,,,,,,,,,,,,,,,,,,,,,,,,,,,,,,,,,,,,,,,,,,,,,,,,,,,,,,,30,,,,,,,,873.4681381999981,873.4681381999981,873.4681381999981,873.4681381999981,873.4681381999981,up,0.4253782001323998,1,1,0,99,0.56,2.7755575615628914e-17,up,0.33268500003032386,,,,,,,,,,,,,,,,,,,,,,,,,,,,,,,,,,,,,,,,,,,,,,,,,,,,,,,,,,,,,D369YD,train_y,red_square,bottom_right,2025-06-27_16h09.06.301,HideSeek_v1,2022.2.5,59.95099600377018,
,9,2,9,7,0,5,11,,train_dim1_1,8,30,,,,2,0,2,0,,,,,,,,,0,0,0,0,0,7,7,7,3,0,3,0,,,,,,,,,,,,,,,,,,,,,,,,,,,,,,,,,,,,,,,,,,,,,,,,,,,,,,,,,,,,,,,,30,,,,,,,,873.8996302001178,873.8996302001178,873.8996302001178,873.8996302001178,873.8996302001178,return,0.6601527000311762,1,0,0,0,0.56,2.7755575615628914e-17,return,0.5690212000627071,17,-2,0.56,2.7755575615628914e-17,,,,,,,,,,,,,,,,,,,,,,,,,,,,,,,,,,,,,,,,,,,,,,,,,,,,,,,,,D369YD,train_y,red_square,bottom_right,2025-06-27_16h09.06.301,HideSeek_v1,2022.2.5,59.95099600377018,
,9,3,9,4,0,1,15,,train_dim1_1,9,30,,,,2,0,2,0,,,,,,,,,0,0,0,0,0,8,8,8,0,0,0,0,,,,,,,,,,,,,,,,,,,,,,,,,stimuli/alien_stimuli/15.png,,,,,,,,,,,,,,,,,,,,,,,,,,,,,stimuli/alien_stimuli/11.png,11,9,10,,,,,,,30,,,,,,,,882.4641229000408,882.4641229000408,882.4641229000408,882.4641229000408,882.4641229000408,down,2.972855399828404,1,0,0,99,0.56,-0.24,down,2.8850948000326753,,,,,880.9056021000724,882.4641229000408,0.56,0.16,0.4,0.0,-0.039999999999999994,0.56,0.56,0.56,0.16,876.1356645000633,876.1356645000633,876.1356645000633,876.1356645000633,876.1356645000633,876.1356645000633,876.1356645000633,876.1356645000633,876.1353424399159,4.889614900108427,return,4.745713599957526,,,,,,,,,,,,,,,,,,,,,,,,,,,,,,,,,,D369YD,train_y,red_square,bottom_right,2025-06-27_16h09.06.301,HideSeek_v1,2022.2.5,59.95099600377018,
,9,3,9,4,0,1,15,,train_dim1_1,9,30,,,,2,0,2,0,,,,,,,,,0,0,0,0,0,8,8,8,1,0,1,0,,,,,,,,,,,,,,,,,,,,,,,,,,,,,,,,,,,,,,,,,,,,,,,,,,,,,,,,,,,,,,,,30,,,,,,,,885.4471947001293,885.4471947001293,885.4471947001293,885.4471947001293,885.4471947001293,return,4.176800099899992,1,0,0,0,0.56,-0.24,return,4.091450500069186,16,-2,0.56,-0.24,,,,,,,,,,,,,,,,,,,,,,,,,,,,,,,,,,,,,,,,,,,,,,,,,,,,,,,,,D369YD,train_y,red_square,bottom_right,2025-06-27_16h09.06.301,HideSeek_v1,2022.2.5,59.95099600377018,
,7,2,7,2,0,0,16,,train_dim1_1,10,30,,,,2,0,2,0,,,,,,,,,0,0,0,0,0,9,9,9,0,0,0,0,,,,,,,,,,,,,,,,,,,,,,,,,stimuli/alien_stimuli/16.png,,,,,,,,,,,,,,,,,,,,,,,,,,,,,stimuli/alien_stimuli/15.png,15,9,11,,,,,,,30,,,,,,,,896.2936565999407,896.2936565999407,896.2936565999407,896.2936565999407,896.2936565999407,up,1.9871221000794321,1,0,0,99,0.4,-0.15999999999999998,up,1.908781100064516,,,,,894.7333782000933,896.2936565999407,0.56,-0.08,0.08,0.0,-0.12,0.56,0.56,0.56,-0.08,891.1993436999619,891.1993436999619,891.1993436999619,891.1993436999619,891.1993436999619,891.1993436999619,891.1993436999619,891.1993436999619,891.1978956400882,3.65501350001432,return,3.5106909999158233,,,,,,,,,,,,,,,,,,,,,,,,,,,,,,,,,,D369YD,train_y,red_square,bottom_right,2025-06-27_16h09.06.301,HideSeek_v1,2022.2.5,59.95099600377018,
,7,2,7,2,0,0,16,,train_dim1_1,10,30,,,,2,0,2,0,,,,,,,,,0,0,0,0,0,9,9,9,1,0,1,0,,,,,,,,,,,,,,,,,,,,,,,,,,,,,,,,,,,,,,,,,,,,,,,,,,,,,,,,,,,,,,,,30,,,,,,,,898.2876158999279,898.2876158999279,898.2876158999279,898.2876158999279,898.2876158999279,down,3.3955004001036286,1,0,0,99,0.4,-0.24,down,3.3059978000819683,,,,,,,,,,,,,,,,,,,,,,,,,,,,,,,,,,,,,,,,,,,,,,,,,,,,,,,,,,,,,D369YD,train_y,red_square,bottom_right,2025-06-27_16h09.06.301,HideSeek_v1,2022.2.5,59.95099600377018,
,7,2,7,2,0,0,16,,train_dim1_1,10,30,,,,2,0,2,0,,,,,,,,,0,0,0,0,0,9,9,9,2,0,2,0,,,,,,,,,,,,,,,,,,,,,,,,,,,,,,,,,,,,,,,,,,,,,,,,,,,,,,,,,,,,,,,,30,,,,,,,,901.6898407000117,901.6898407000117,901.6898407000117,901.6898407000117,901.6898407000117,return,1.7109823999926448,2,0,0,1,0.4,-0.24,return,1.6261117001995444,16,-2,0.4,-0.24,,,,,,,,,,,,,,,,,,,,,,,,,,,,,,,,,,,,,,,,,,,,,,,,,,,,,,,,,D369YD,train_y,red_square,bottom_right,2025-06-27_16h09.06.301,HideSeek_v1,2022.2.5,59.95099600377018,
,9,1,9,2,0,1,15,,train_dim1_1,11,30,,,,2,0,2,0,,,,,,,,,0,0,0,0,0,10,10,10,0,0,0,0,,,,,,,,,,,,,,,,,,,,,,,,,stimuli/alien_stimuli/15.png,,,,,,,,,,,,,,,,,,,,,,,,,,,,,stimuli/alien_stimuli/16.png,16,7,12,,,,,,,30,,,,,,,,910.1252723000944,910.1252723000944,910.1252723000944,910.1252723000944,910.1252723000944,up,1.417973400093615,2,0,0,99,0.56,-0.24,up,1.3383082000073045,,,,,908.5617037001066,910.1252723000944,0.4,-0.24,0.0,0.0,-0.24,0.4,0.4,0.4,-0.24,904.981359400088,904.981359400088,904.981359400088,904.981359400088,904.981359400088,904.981359400088,904.981359400088,904.981359400088,904.9760863399598,3.7050892000552267,return,3.5611010999418795,,,,,,,,,,,,,,,,,,,,,,,,,,,,,,,,,,D369YD,train_y,red_square,bottom_right,2025-06-27_16h09.06.301,HideSeek_v1,2022.2.5,59.95099600377018,
,9,1,9,2,0,1,15,,train_dim1_1,11,30,,,,2,0,2,0,,,,,,,,,0,0,0,0,0,10,10,10,1,0,1,0,,,,,,,,,,,,,,,,,,,,,,,,,,,,,,,,,,,,,,,,,,,,,,,,,,,,,,,,,,,,,,,,30,,,,,,,,911.5482779000886,911.5482779000886,911.5482779000886,911.5482779000886,911.5482779000886,return,0.7268349002115428,3,0,0,1,0.56,-0.24,return,0.6394054000265896,17,-2,0.56,-0.24,,,,,,,,,,,,,,,,,,,,,,,,,,,,,,,,,,,,,,,,,,,,,,,,,,,,,,,,,D369YD,train_y,red_square,bottom_right,2025-06-27_16h09.06.301,HideSeek_v1,2022.2.5,59.95099600377018,
,5,0,5,5,0,5,11,,train_dim1_1,12,30,,,,2,0,2,0,,,,,,,,,0,0,0,0,0,11,11,11,0,0,0,0,,,,,,,,,,,,,,,,,,,,,,,,,stimuli/alien_stimuli/11.png,,,,,,,,,,,,,,,,,,,,,,,,,,,,,stimuli/alien_stimuli/15.png,15,9,13,,,,,,,30,,,,,,,,917.2916924001183,917.2916924001183,917.2916924001183,917.2916924001183,917.2916924001183,up,1.28844859986566,3,0,0,99,0.24,-0.32,up,1.2063605999574065,,,,,915.7343043999281,917.2916924001183,0.56,-0.24,0.08,0.0,-0.28,0.56,0.56,0.56,-0.24,913.83482800005,913.83482800005,913.83482800005,913.83482800005,913.83482800005,913.83482800005,913.83482800005,913.83482800005,913.8334060098975,2.0033324998803437,return,1.8792679000180215,,,,,,,,,,,,,,,,,,,,,,,,,,,,,,,,,,D369YD,train_y,red_square,bottom_right,2025-06-27_16h09.06.301,HideSeek_v1,2022.2.5,59.95099600377018,
,5,0,5,5,0,5,11,,train_dim1_1,12,30,,,,2,0,2,0,,,,,,,,,0,0,0,0,0,11,11,11,1,0,1,0,,,,,,,,,,,,,,,,,,,,,,,,,,,,,,,,,,,,,,,,,,,,,,,,,,,,,,,,,,,,,,,,30,,,,,,,,918.5876442000736,918.5876442000736,918.5876442000736,918.5876442000736,918.5876442000736,up,0.44303930015303195,3,0,0,99,0.24,-0.24,up,0.3583094000350684,,,,,,,,,,,,,,,,,,,,,,,,,,,,,,,,,,,,,,,,,,,,,,,,,,,,,,,,,,,,,D369YD,train_y,red_square,bottom_right,2025-06-27_16h09.06.301,HideSeek_v1,2022.2.5,59.95099600377018,
,5,0,5,5,0,5,11,,train_dim1_1,12,30,,,,2,0,2,0,,,,,,,,,0,0,0,0,0,11,11,11,2,0,2,0,,,,,,,,,,,,,,,,,,,,,,,,,,,,,,,,,,,,,,,,,,,,,,,,,,,,,,,,,,,,,,,,30,,,,,,,,919.037722399924,919.037722399924,919.037722399924,919.037722399924,919.037722399924,up,0.3932116001378745,3,0,0,99,0.24,-0.15999999999999998,up,0.3154942998662591,,,,,,,,,,,,,,,,,,,,,,,,,,,,,,,,,,,,,,,,,,,,,,,,,,,,,,,,,,,,,D369YD,train_y,red_square,bottom_right,2025-06-27_16h09.06.301,HideSeek_v1,2022.2.5,59.95099600377018,
,5,0,5,5,0,5,11,,train_dim1_1,12,30,,,,2,0,2,0,,,,,,,,,0,0,0,0,0,11,11,11,3,0,3,0,,,,,,,,,,,,,,,,,,,,,,,,,,,,,,,,,,,,,,,,,,,,,,,,,,,,,,,,,,,,,,,,30,,,,,,,,919.4375849000644,919.4375849000644,919.4375849000644,919.4375849000644,919.4375849000644,up,0.40986370015889406,3,0,0,99,0.24,-0.07999999999999997,up,0.3223534000571817,,,,,,,,,,,,,,,,,,,,,,,,,,,,,,,,,,,,,,,,,,,,,,,,,,,,,,,,,,,,,D369YD,train_y,red_square,bottom_right,2025-06-27_16h09.06.301,HideSeek_v1,2022.2.5,59.95099600377018,
,5,0,5,5,0,5,11,,train_dim1_1,12,30,,,,2,0,2,0,,,,,,,,,0,0,0,0,0,11,11,11,4,0,4,0,,,,,,,,,,,,,,,,,,,,,,,,,,,,,,,,,,,,,,,,,,,,,,,,,,,,,,,,,,,,,,,,30,,,,,,,,919.854460200062,919.854460200062,919.854460200062,919.854460200062,919.854460200062,up,0.37658099993132055,3,0,0,99,0.24,2.7755575615628914e-17,up,0.2922374000772834,,,,,,,,,,,,,,,,,,,,,,,,,,,,,,,,,,,,,,,,,,,,,,,,,,,,,,,,,,,,,D369YD,train_y,red_square,bottom_right,2025-06-27_16h09.06.301,HideSeek_v1,2022.2.5,59.95099600377018,
,5,0,5,5,0,5,11,,train_dim1_1,12,30,,,,2,0,2,0,,,,,,,,,0,0,0,0,0,11,11,11,5,0,5,0,,,,,,,,,,,,,,,,,,,,,,,,,,,,,,,,,,,,,,,,,,,,,,,,,,,,,,,,,,,,,,,,30,,,,,,,,920.2381168999709,920.2381168999709,920.2381168999709,920.2381168999709,920.2381168999709,return,0.4935886999592185,4,0,0,1,0.24,2.7755575615628914e-17,return,0.4058446998242289,22,-2,0.24,2.7755575615628914e-17,,,,,,,,,,,,,,,,,,,,,,,,,,,,,,,,,,,,,,,,,,,,,,,,,,,,,,,,,D369YD,train_y,red_square,bottom_right,2025-06-27_16h09.06.301,HideSeek_v1,2022.2.5,59.95099600377018,
,9,3,9,7,0,4,12,,train_dim1_1,13,30,,,,2,0,2,0,,,,,,,,,0,0,0,0,0,12,12,12,0,0,0,0,,,,,,,,,,,,,,,,,,,,,,,,,stimuli/alien_stimuli/12.png,,,,,,,,,,,,,,,,,,,,,,,,,,,,,stimuli/alien_stimuli/11.png,11,5,14,,,,,,,30,,,,,,,,925.7543371999636,925.7543371999636,925.7543371999636,925.7543371999636,925.7543371999636,up,1.3009973999578506,4,0,0,99,0.56,-0.08,up,1.2079843000974506,,,,,924.1909602000378,925.7543371999636,0.24,0,0.4,0.0,-0.2,0.24,0.24,0.24,0,922.2943863999099,922.2943863999099,922.2943863999099,922.2943863999099,922.2943863999099,922.2943863999099,922.2943863999099,922.2943863999099,922.2902754100039,2.003673000028357,return,1.872569799888879,,,,,,,,,,,,,,,,,,,,,,,,,,,,,,,,,,D369YD,train_y,red_square,bottom_right,2025-06-27_16h09.06.301,HideSeek_v1,2022.2.5,59.95099600377018,
,9,3,9,7,0,4,12,,train_dim1_1,13,30,,,,2,0,2,0,,,,,,,,,0,0,0,0,0,12,12,12,1,0,1,0,,,,,,,,,,,,,,,,,,,,,,,,,,,,,,,,,,,,,,,,,,,,,,,,,,,,,,,,,,,,,,,,30,,,,,,,,927.0610339001287,927.0610339001287,927.0610339001287,927.0610339001287,927.0610339001287,up,0.4096416998654604,4,0,0,99,0.56,0.0,up,0.31911629997193813,,,,,,,,,,,,,,,,,,,,,,,,,,,,,,,,,,,,,,,,,,,,,,,,,,,,,,,,,,,,,D369YD,train_y,red_square,bottom_right,2025-06-27_16h09.06.301,HideSeek_v1,2022.2.5,59.95099600377018,
,9,3,9,7,0,4,12,,train_dim1_1,13,30,,,,2,0,2,0,,,,,,,,,0,0,0,0,0,12,12,12,2,0,2,0,,,,,,,,,,,,,,,,,,,,,,,,,,,,,,,,,,,,,,,,,,,,,,,,,,,,,,,,,,,,,,,,30,,,,,,,,927.4782893999945,927.4782893999945,927.4782893999945,927.4782893999945,927.4782893999945,up,0.37653120001778007,4,0,0,99,0.56,0.08,up,0.29696210008114576,,,,,,,,,,,,,,,,,,,,,,,,,,,,,,,,,,,,,,,,,,,,,,,,,,,,,,,,,,,,,D369YD,train_y,red_square,bottom_right,2025-06-27_16h09.06.301,HideSeek_v1,2022.2.5,59.95099600377018,
,9,3,9,7,0,4,12,,train_dim1_1,13,30,,,,2,0,2,0,,,,,,,,,0,0,0,0,0,12,12,12,3,0,3,0,,,,,,,,,,,,,,,,,,,,,,,,,,,,,,,,,,,,,,,,,,,,,,,,,,,,,,,,,,,,,,,,30,,,,,,,,927.8614006000571,927.8614006000571,927.8614006000571,927.8614006000571,927.8614006000571,up,0.37646169983781874,4,0,0,99,0.56,0.16,up,0.28422250016592443,,,,,,,,,,,,,,,,,,,,,,,,,,,,,,,,,,,,,,,,,,,,,,,,,,,,,,,,,,,,,D369YD,train_y,red_square,bottom_right,2025-06-27_16h09.06.301,HideSeek_v1,2022.2.5,59.95099600377018,
,9,3,9,7,0,4,12,,train_dim1_1,13,30,,,,2,0,2,0,,,,,,,,,0,0,0,0,0,12,12,12,4,0,4,0,,,,,,,,,,,,,,,,,,,,,,,,,,,,,,,,,,,,,,,,,,,,,,,,,,,,,,,,,,,,,,,,30,,,,,,,,928.24522599997,928.24522599997,928.24522599997,928.24522599997,928.24522599997,return,0.5602706999052316,5,0,0,1,0.56,0.16,return,0.47644919995218515,26,-2,0.56,0.16,,,,,,,,,,,,,,,,,,,,,,,,,,,,,,,,,,,,,,,,,,,,,,,,,,,,,,,,,D369YD,train_y,red_square,bottom_right,2025-06-27_16h09.06.301,HideSeek_v1,2022.2.5,59.95099600377018,
,7,2,7,2,0,0,16,,train_dim1_1,14,30,,,,2,0,2,0,,,,,,,,,0,0,0,0,0,13,13,13,0,0,0,0,,,,,,,,,,,,,,,,,,,,,,,,,stimuli/alien_stimuli/16.png,,,,,,,,,,,,,,,,,,,,,,,,,,,,,stimuli/alien_stimuli/12.png,12,9,15,,,,,,,30,,,,,,,,933.1730949000921,933.1730949000921,933.1730949000921,933.1730949000921,933.1730949000921,return,4.773057900136337,6,0,0,1,0.4,-0.24,return,4.685162000125274,26,-2,0.4,-0.24,931.6139778001234,933.1730949000921,0.56,0.16,0.32,0.0,0.0,0.56,0.56,0.56,0.16,930.370205800049,930.370205800049,930.370205800049,930.370205800049,930.370205800049,930.370205800049,930.370205800049,930.370205800049,930.3637817101087,1.3526765999849886,return,1.2161793999839574,,,,,,,,,,,,,,,,,,,,,,,,,,,,,,,,,,D369YD,train_y,red_square,bottom_right,2025-06-27_16h09.06.301,HideSeek_v1,2022.2.5,59.95099600377018,
,6,4,6,7,0,3,13,,train_dim1_1,15,30,,,,2,0,2,0,,,,,,,,,0,0,0,0,0,14,14,14,0,0,0,0,,,,,,,,,,,,,,,,,,,,,,,,,stimuli/alien_stimuli/13.png,,,,,,,,,,,,,,,,,,,,,,,,,,,,,stimuli/alien_stimuli/16.png,16,7,16,,,,,,,30,,,,,,,,942.2139582000673,942.2139582000673,942.2139582000673,942.2139582000673,942.2139582000673,up,1.2047936001326889,6,0,0,99,0.32,0.0,up,1.1265954999253154,,,,,940.654837799957,942.2139582000673,0.4,-0.24,0.0,0.0,-0.24,0.4,0.4,0.4,-0.24,939.5214496001136,939.5214496001136,939.5214496001136,939.5214496001136,939.5214496001136,939.5214496001136,939.5214496001136,939.5214496001136,939.5211245399433,1.2530300000216812,return,1.1018801999744028,,,,,,,,,,,,,,,,,,,,,,,,,,,,,,,,,,D369YD,train_y,red_square,bottom_right,2025-06-27_16h09.06.301,HideSeek_v1,2022.2.5,59.95099600377018,
,6,4,6,7,0,3,13,,train_dim1_1,15,30,,,,2,0,2,0,,,,,,,,,0,0,0,0,0,14,14,14,1,0,1,0,,,,,,,,,,,,,,,,,,,,,,,,,,,,,,,,,,,,,,,,,,,,,,,,,,,,,,,,,,,,,,,,30,,,,,,,,943.424868900096,943.424868900096,943.424868900096,943.424868900096,943.424868900096,up,0.42626870004460216,6,0,0,99,0.32,0.08,up,0.3343729998450726,,,,,,,,,,,,,,,,,,,,,,,,,,,,,,,,,,,,,,,,,,,,,,,,,,,,,,,,,,,,,D369YD,train_y,red_square,bottom_right,2025-06-27_16h09.06.301,HideSeek_v1,2022.2.5,59.95099600377018,
,6,4,6,7,0,3,13,,train_dim1_1,15,30,,,,2,0,2,0,,,,,,,,,0,0,0,0,0,14,14,14,2,0,2,0,,,,,,,,,,,,,,,,,,,,,,,,,,,,,,,,,,,,,,,,,,,,,,,,,,,,,,,,,,,,,,,,30,,,,,,,,943.8584626000375,943.8584626000375,943.8584626000375,943.8584626000375,943.8584626000375,up,0.2929969001561403,6,0,0,99,0.32,0.16,up,0.20863030012696981,,,,,,,,,,,,,,,,,,,,,,,,,,,,,,,,,,,,,,,,,,,,,,,,,,,,,,,,,,,,,D369YD,train_y,red_square,bottom_right,2025-06-27_16h09.06.301,HideSeek_v1,2022.2.5,59.95099600377018,
,6,4,6,7,0,3,13,,train_dim1_1,15,30,,,,2,0,2,0,,,,,,,,,0,0,0,0,0,14,14,14,3,0,3,0,,,,,,,,,,,,,,,,,,,,,,,,,,,,,,,,,,,,,,,,,,,,,,,,,,,,,,,,,,,,,,,,30,,,,,,,,944.1580562999006,944.1580562999006,944.1580562999006,944.1580562999006,944.1580562999006,return,0.827234499854967,7,0,0,1,0.32,0.16,return,0.7358975999522954,29,-2,0.32,0.16,,,,,,,,,,,,,,,,,,,,,,,,,,,,,,,,,,,,,,,,,,,,,,,,,,,,,,,,,D369YD,train_y,red_square,bottom_right,2025-06-27_16h09.06.301,HideSeek_v1,2022.2.5,59.95099600377018,
,9,0,9,1,0,1,15,,train_dim1_1,16,30,,,,2,0,2,0,,,,,,,,,0,0,0,0,0,15,15,15,0,0,0,0,,,,,,,,,,,,,,,,,,,,,,,,,stimuli/alien_stimuli/15.png,,,,,,,,,,,,,,,,,,,,,,,,,,,,,stimuli/alien_stimuli/13.png,13,6,17,,,,,,,30,,,,,,,,949.2031702999957,949.2031702999957,949.2031702999957,949.2031702999957,949.2031702999957,up,1.320062299957499,7,0,0,99,0.56,-0.32,up,1.238910699961707,,,,,947.6440584999509,949.2031702999957,0.32,0.16,0.24,0.0,0.04,0.32,0.32,0.32,0.16,946.5463211000897,946.5463211000897,946.5463211000897,946.5463211000897,946.5463211000897,946.5463211000897,946.5463211000897,946.5463211000897,946.5438754099421,1.2028993999119848,return,1.0730469999834895,,,,,,,,,,,,,,,,,,,,,,,,,,,,,,,,,,D369YD,train_y,red_square,bottom_right,2025-06-27_16h09.06.301,HideSeek_v1,2022.2.5,59.95099600377018,
,9,0,9,1,0,1,15,,train_dim1_1,16,30,,,,2,0,2,0,,,,,,,,,0,0,0,0,0,15,15,15,1,0,1,0,,,,,,,,,,,,,,,,,,,,,,,,,,,,,,,,,,,,,,,,,,,,,,,,,,,,,,,,,,,,,,,,30,,,,,,,,950.5305957000237,950.5305957000237,950.5305957000237,950.5305957000237,950.5305957000237,return,0.7598948997911066,8,0,0,1,0.56,-0.32,return,0.6720559000968933,30,-2,0.56,-0.32,,,,,,,,,,,,,,,,,,,,,,,,,,,,,,,,,,,,,,,,,,,,,,,,,,,,,,,,,D369YD,train_y,red_square,bottom_right,2025-06-27_16h09.06.301,HideSeek_v1,2022.2.5,59.95099600377018,
,8,3,8,6,0,3,13,,train_dim1_1,17,30,,,,2,0,2,0,,,,,,,,,0,0,0,0,0,16,16,16,0,0,0,0,,,,,,,,,,,,,,,,,,,,,,,,,stimuli/alien_stimuli/13.png,,,,,,,,,,,,,,,,,,,,,,,,,,,,,stimuli/alien_stimuli/15.png,15,9,18,,,,,,,30,,,,,,,,955.2440551999025,955.2440551999025,955.2440551999025,955.2440551999025,955.2440551999025,up,1.0846775001846254,8,0,0,99,0.48,-0.08,up,1.0034278999082744,,,,,953.6822015000507,955.2440551999025,0.56,-0.32,0.08,0.0,-0.36,0.56,0.56,0.56,-0.32,952.847264100099,952.847264100099,952.847264100099,952.847264100099,952.847264100099,952.847264100099,952.847264100099,952.847264100099,952.8488979099318,0.9363276001531631,return,0.81809790013358,,,,,,,,,,,,,,,,,,,,,,,,,,,,,,,,,,D369YD,train_y,red_square,bottom_right,2025-06-27_16h09.06.301,HideSeek_v1,2022.2.5,59.95099600377018,
,8,3,8,6,0,3,13,,train_dim1_1,17,30,,,,2,0,2,0,,,,,,,,,0,0,0,0,0,16,16,16,1,0,1,0,,,,,,,,,,,,,,,,,,,,,,,,,,,,,,,,,,,,,,,,,,,,,,,,,,,,,,,,,,,,,,,,30,,,,,,,,956.3345147001091,956.3345147001091,956.3345147001091,956.3345147001091,956.3345147001091,up,0.30967499990947545,8,0,0,99,0.48,0.0,up,0.2331034999806434,,,,,,,,,,,,,,,,,,,,,,,,,,,,,,,,,,,,,,,,,,,,,,,,,,,,,,,,,,,,,D369YD,train_y,red_square,bottom_right,2025-06-27_16h09.06.301,HideSeek_v1,2022.2.5,59.95099600377018,
,8,3,8,6,0,3,13,,train_dim1_1,17,30,,,,2,0,2,0,,,,,,,,,0,0,0,0,0,16,16,16,2,0,2,0,,,,,,,,,,,,,,,,,,,,,,,,,,,,,,,,,,,,,,,,,,,,,,,,,,,,,,,,,,,,,,,,30,,,,,,,,956.65124929999,956.65124929999,956.65124929999,956.65124929999,956.65124929999,up,0.2932696999050677,8,0,0,99,0.48,0.08,up,0.21491959993727505,,,,,,,,,,,,,,,,,,,,,,,,,,,,,,,,,,,,,,,,,,,,,,,,,,,,,,,,,,,,,D369YD,train_y,red_square,bottom_right,2025-06-27_16h09.06.301,HideSeek_v1,2022.2.5,59.95099600377018,
,8,3,8,6,0,3,13,,train_dim1_1,17,30,,,,2,0,2,0,,,,,,,,,0,0,0,0,0,16,16,16,3,0,3,0,,,,,,,,,,,,,,,,,,,,,,,,,,,,,,,,,,,,,,,,,,,,,,,,,,,,,,,,,,,,,,,,30,,,,,,,,956.951756699942,956.951756699942,956.951756699942,956.951756699942,956.951756699942,return,0.4264649001415819,9,0,0,1,0.48,0.08,return,0.34070820012129843,33,-2,0.48,0.08,,,,,,,,,,,,,,,,,,,,,,,,,,,,,,,,,,,,,,,,,,,,,,,,,,,,,,,,,D369YD,train_y,red_square,bottom_right,2025-06-27_16h09.06.301,HideSeek_v1,2022.2.5,59.95099600377018,
,7,1,7,6,0,5,11,,train_dim1_1,18,30,,,,2,0,2,0,,,,,,,,,0,0,0,0,0,17,17,17,0,0,0,0,,,,,,,,,,,,,,,,,,,,,,,,,stimuli/alien_stimuli/11.png,,,,,,,,,,,,,,,,,,,,,,,,,,,,,stimuli/alien_stimuli/13.png,13,8,19,,,,,,,30,,,,,,,,961.4010262000374,961.4010262000374,961.4010262000374,961.4010262000374,961.4010262000374,up,1.7836812001187354,9,0,0,99,0.4,-0.24,up,1.7014830999542028,,,,,959.8374797001015,961.4010262000374,0.48,0.08,0.24,0.0,-0.04,0.48,0.48,0.48,0.08,958.9400309999473,958.9400309999473,958.9400309999473,958.9400309999473,958.9400309999473,958.9400309999473,958.9400309999473,958.9400309999473,958.937455709977,1.0025546001270413,return,0.865886100102216,,,,,,,,,,,,,,,,,,,,,,,,,,,,,,,,,,D369YD,train_y,red_square,bottom_right,2025-06-27_16h09.06.301,HideSeek_v1,2022.2.5,59.95099600377018,
,7,1,7,6,0,5,11,,train_dim1_1,18,30,,,,2,0,2,0,,,,,,,,,0,0,0,0,0,17,17,17,1,0,1,0,,,,,,,,,,,,,,,,,,,,,,,,,,,,,,,,,,,,,,,,,,,,,,,,,,,,,,,,,,,,,,,,30,,,,,,,,963.1907762999181,963.1907762999181,963.1907762999181,963.1907762999181,963.1907762999181,up,0.34293129993602633,9,0,0,99,0.4,-0.15999999999999998,up,0.26718359999358654,,,,,,,,,,,,,,,,,,,,,,,,,,,,,,,,,,,,,,,,,,,,,,,,,,,,,,,,,,,,,D369YD,train_y,red_square,bottom_right,2025-06-27_16h09.06.301,HideSeek_v1,2022.2.5,59.95099600377018,
,7,1,7,6,0,5,11,,train_dim1_1,18,30,,,,2,0,2,0,,,,,,,,,0,0,0,0,0,17,17,17,2,0,2,0,,,,,,,,,,,,,,,,,,,,,,,,,,,,,,,,,,,,,,,,,,,,,,,,,,,,,,,,,,,,,,,,30,,,,,,,,963.5407521000598,963.5407521000598,963.5407521000598,963.5407521000598,963.5407521000598,up,0.42678319988772273,9,0,0,99,0.4,-0.07999999999999997,up,0.33964439993724227,,,,,,,,,,,,,,,,,,,,,,,,,,,,,,,,,,,,,,,,,,,,,,,,,,,,,,,,,,,,,D369YD,train_y,red_square,bottom_right,2025-06-27_16h09.06.301,HideSeek_v1,2022.2.5,59.95099600377018,
,7,1,7,6,0,5,11,,train_dim1_1,18,30,,,,2,0,2,0,,,,,,,,,0,0,0,0,0,17,17,17,3,0,3,0,,,,,,,,,,,,,,,,,,,,,,,,,,,,,,,,,,,,,,,,,,,,,,,,,,,,,,,,,,,,,,,,30,,,,,,,,963.9750175999943,963.9750175999943,963.9750175999943,963.9750175999943,963.9750175999943,up,0.3600748998578638,9,0,0,99,0.4,2.7755575615628914e-17,up,0.26840710011310875,,,,,,,,,,,,,,,,,,,,,,,,,,,,,,,,,,,,,,,,,,,,,,,,,,,,,,,,,,,,,D369YD,train_y,red_square,bottom_right,2025-06-27_16h09.06.301,HideSeek_v1,2022.2.5,59.95099600377018,
,7,1,7,6,0,5,11,,train_dim1_1,18,30,,,,2,0,2,0,,,,,,,,,0,0,0,0,0,17,17,17,4,0,4,0,,,,,,,,,,,,,,,,,,,,,,,,,,,,,,,,,,,,,,,,,,,,,,,,,,,,,,,,,,,,,,,,30,,,,,,,,964.3418332999572,964.3418332999572,964.3418332999572,964.3418332999572,964.3418332999572,return,0.6269167999271303,9,1,0,0,0.4,2.7755575615628914e-17,return,0.5397626999765635,37,-2,0.4,2.7755575615628914e-17,,,,,,,,,,,,,,,,,,,,,,,,,,,,,,,,,,,,,,,,,,,,,,,,,,,,,,,,,D369YD,train_y,red_square,bottom_right,2025-06-27_16h09.06.301,HideSeek_v1,2022.2.5,59.95099600377018,
,5,4,5,8,0,4,12,,train_dim1_1,19,30,,,,2,0,2,0,,,,,,,,,0,0,0,0,0,18,18,18,0,0,0,0,,,,,,,,,,,,,,,,,,,,,,,,,stimuli/alien_stimuli/12.png,,,,,,,,,,,,,,,,,,,,,,,,,,,,,stimuli/alien_stimuli/11.png,11,7,20,,,,,,,30,,,,,,,,970.2448609999847,970.2448609999847,970.2448609999847,970.2448609999847,970.2448609999847,up,1.1636572000570595,9,1,0,99,0.24,0.0,up,1.0798468999564648,,,,,968.6780372001231,970.2448609999847,0.4,0.08,0.4,0.0,-0.12,0.4,0.4,0.4,0.08,966.541315499926,966.541315499926,966.541315499926,966.541315499926,966.541315499926,966.541315499926,966.541315499926,966.541315499926,966.5267510099336,2.2542603998444974,return,2.1192246000282466,,,,,,,,,,,,,,,,,,,,,,,,,,,,,,,,,,D369YD,train_y,red_square,bottom_right,2025-06-27_16h09.06.301,HideSeek_v1,2022.2.5,59.95099600377018,
,5,4,5,8,0,4,12,,train_dim1_1,19,30,,,,2,0,2,0,,,,,,,,,0,0,0,0,0,18,18,18,1,0,1,0,,,,,,,,,,,,,,,,,,,,,,,,,,,,,,,,,,,,,,,,,,,,,,,,,,,,,,,,,,,,,,,,30,,,,,,,,971.4149398000445,971.4149398000445,971.4149398000445,971.4149398000445,971.4149398000445,up,0.40904819988645613,9,1,0,99,0.24,0.08,up,0.32814079988747835,,,,,,,,,,,,,,,,,,,,,,,,,,,,,,,,,,,,,,,,,,,,,,,,,,,,,,,,,,,,,D369YD,train_y,red_square,bottom_right,2025-06-27_16h09.06.301,HideSeek_v1,2022.2.5,59.95099600377018,
,5,4,5,8,0,4,12,,train_dim1_1,19,30,,,,2,0,2,0,,,,,,,,,0,0,0,0,0,18,18,18,2,0,2,0,,,,,,,,,,,,,,,,,,,,,,,,,,,,,,,,,,,,,,,,,,,,,,,,,,,,,,,,,,,,,,,,30,,,,,,,,971.8311169000808,971.8311169000808,971.8311169000808,971.8311169000808,971.8311169000808,up,0.4938732001464814,9,1,0,99,0.24,0.16,up,0.4051220000255853,,,,,,,,,,,,,,,,,,,,,,,,,,,,,,,,,,,,,,,,,,,,,,,,,,,,,,,,,,,,,D369YD,train_y,red_square,bottom_right,2025-06-27_16h09.06.301,HideSeek_v1,2022.2.5,59.95099600377018,
,5,4,5,8,0,4,12,,train_dim1_1,19,30,,,,2,0,2,0,,,,,,,,,0,0,0,0,0,18,18,18,3,0,3,0,,,,,,,,,,,,,,,,,,,,,,,,,,,,,,,,,,,,,,,,,,,,,,,,,,,,,,,,,,,,,,,,30,,,,,,,,972.3319640001282,972.3319640001282,972.3319640001282,972.3319640001282,972.3319640001282,up,0.37645679991692305,9,1,0,99,0.24,0.24,up,0.2971427000593394,,,,,,,,,,,,,,,,,,,,,,,,,,,,,,,,,,,,,,,,,,,,,,,,,,,,,,,,,,,,,D369YD,train_y,red_square,bottom_right,2025-06-27_16h09.06.301,HideSeek_v1,2022.2.5,59.95099600377018,
,5,4,5,8,0,4,12,,train_dim1_1,19,30,,,,2,0,2,0,,,,,,,,,0,0,0,0,0,18,18,18,4,0,4,0,,,,,,,,,,,,,,,,,,,,,,,,,,,,,,,,,,,,,,,,,,,,,,,,,,,,,,,,,,,,,,,,30,,,,,,,,972.7162295000162,972.7162295000162,972.7162295000162,972.7162295000162,972.7162295000162,return,0.6104179001413286,10,0,0,1,0.24,0.24,return,0.5239480999298394,41,-2,0.24,0.24,,,,,,,,,,,,,,,,,,,,,,,,,,,,,,,,,,,,,,,,,,,,,,,,,,,,,,,,,D369YD,train_y,red_square,bottom_right,2025-06-27_16h09.06.301,HideSeek_v1,2022.2.5,59.95099600377018,
,7,0,7,0,0,0,16,,train_dim1_1,20,30,,,,2,0,2,0,,,,,,,,,0,0,0,0,0,19,19,19,0,0,0,0,,,,,,,,,,,,,,,,,,,,,,,,,stimuli/alien_stimuli/16.png,,,,,,,,,,,,,,,,,,,,,,,,,,,,,stimuli/alien_stimuli/12.png,12,5,21,,,,,,,30,,,,,,,,977.242953900015,977.242953900015,977.242953900015,977.242953900015,977.242953900015,return,1.9712070000823587,11,0,0,1,0.4,-0.4,return,1.8832560998853296,41,-2,0.4,-0.4,975.6839910000563,977.242953900015,0.24,0.24,0.32,0.0,0.07999999999999999,0.24,0.24,0.24,0.24,974.8869588999078,974.8869588999078,974.8869588999078,974.8869588999078,974.8869588999078,974.8869588999078,974.8869588999078,974.8869588999078,974.8840282100252,0.9027401998173445,return,0.7658614001702517,,,,,,,,,,,,,,,,,,,,,,,,,,,,,,,,,,D369YD,train_y,red_square,bottom_right,2025-06-27_16h09.06.301,HideSeek_v1,2022.2.5,59.95099600377018,
,7,4,7,5,0,1,15,,train_dim1_1,21,30,,,,2,0,2,0,,,,,,,,,0,0,0,0,0,20,20,20,0,0,0,0,,,,,,,,,,,,,,,,,,,,,,,,,stimuli/alien_stimuli/15.png,,,,,,,,,,,,,,,,,,,,,,,,,,,,,stimuli/alien_stimuli/16.png,16,7,22,,,,,,,30,,,,,,,,982.9819479000289,982.9819479000289,982.9819479000289,982.9819479000289,982.9819479000289,up,1.0868407001253217,11,0,0,99,0.4,0.0,up,0.9938460998237133,,,,,981.4219494999852,982.9819479000289,0.4,-0.4,0.0,0.0,-0.4,0.4,0.4,0.4,-0.4,980.7743643999565,980.7743643999565,980.7743643999565,980.7743643999565,980.7743643999565,980.7743643999565,980.7743643999565,980.7743643999565,980.7721126100048,0.7529432000592351,return,0.6294901000801474,,,,,,,,,,,,,,,,,,,,,,,,,,,,,,,,,,D369YD,train_y,red_square,bottom_right,2025-06-27_16h09.06.301,HideSeek_v1,2022.2.5,59.95099600377018,
,7,4,7,5,0,1,15,,train_dim1_1,21,30,,,,2,0,2,0,,,,,,,,,0,0,0,0,0,20,20,20,1,0,1,0,,,,,,,,,,,,,,,,,,,,,,,,,,,,,,,,,,,,,,,,,,,,,,,,,,,,,,,,,,,,,,,,30,,,,,,,,984.0759437999222,984.0759437999222,984.0759437999222,984.0759437999222,984.0759437999222,return,0.4762734000105411,12,0,0,1,0.4,0.0,return,0.386709000216797,42,-2,0.4,0.0,,,,,,,,,,,,,,,,,,,,,,,,,,,,,,,,,,,,,,,,,,,,,,,,,,,,,,,,,D369YD,train_y,red_square,bottom_right,2025-06-27_16h09.06.301,HideSeek_v1,2022.2.5,59.95099600377018,
,5,2,5,5,0,3,13,,train_dim1_1,22,30,,,,2,0,2,0,,,,,,,,,0,0,0,0,0,21,21,21,0,0,0,0,,,,,,,,,,,,,,,,,,,,,,,,,stimuli/alien_stimuli/13.png,,,,,,,,,,,,,,,,,,,,,,,,,,,,,stimuli/alien_stimuli/15.png,15,7,23,,,,,,,30,,,,,,,,988.8833465999924,988.8833465999924,988.8833465999924,988.8833465999924,988.8833465999924,up,1.7384854999836534,12,0,0,99,0.24,-0.15999999999999998,up,1.6547193999867886,,,,,987.3268685999792,988.8833465999924,0.4,0,0.08,0.0,-0.04,0.4,0.4,0.4,0,986.1112234999891,986.1112234999891,986.1112234999891,986.1112234999891,986.1112234999891,986.1112234999891,986.1112234999891,986.1112234999891,986.1098920099437,1.3197596999816597,return,1.1865350999869406,,,,,,,,,,,,,,,,,,,,,,,,,,,,,,,,,,D369YD,train_y,red_square,bottom_right,2025-06-27_16h09.06.301,HideSeek_v1,2022.2.5,59.95099600377018,
,5,2,5,5,0,3,13,,train_dim1_1,22,30,,,,2,0,2,0,,,,,,,,,0,0,0,0,0,21,21,21,1,0,1,0,,,,,,,,,,,,,,,,,,,,,,,,,,,,,,,,,,,,,,,,,,,,,,,,,,,,,,,,,,,,,,,,30,,,,,,,,990.6315826000646,990.6315826000646,990.6315826000646,990.6315826000646,990.6315826000646,up,0.40762219997122884,12,0,0,99,0.24,-0.07999999999999997,up,0.3287527000065893,,,,,,,,,,,,,,,,,,,,,,,,,,,,,,,,,,,,,,,,,,,,,,,,,,,,,,,,,,,,,D369YD,train_y,red_square,bottom_right,2025-06-27_16h09.06.301,HideSeek_v1,2022.2.5,59.95099600377018,
,5,2,5,5,0,3,13,,train_dim1_1,22,30,,,,2,0,2,0,,,,,,,,,0,0,0,0,0,21,21,21,2,0,2,0,,,,,,,,,,,,,,,,,,,,,,,,,,,,,,,,,,,,,,,,,,,,,,,,,,,,,,,,,,,,,,,,30,,,,,,,,991.0462809000164,991.0462809000164,991.0462809000164,991.0462809000164,991.0462809000164,up,0.5609714998863637,12,0,0,99,0.24,2.7755575615628914e-17,up,0.46952019981108606,,,,,,,,,,,,,,,,,,,,,,,,,,,,,,,,,,,,,,,,,,,,,,,,,,,,,,,,,,,,,D369YD,train_y,red_square,bottom_right,2025-06-27_16h09.06.301,HideSeek_v1,2022.2.5,59.95099600377018,
,5,2,5,5,0,3,13,,train_dim1_1,22,30,,,,2,0,2,0,,,,,,,,,0,0,0,0,0,21,21,21,3,0,3,0,,,,,,,,,,,,,,,,,,,,,,,,,,,,,,,,,,,,,,,,,,,,,,,,,,,,,,,,,,,,,,,,30,,,,,,,,991.6187173000071,991.6187173000071,991.6187173000071,991.6187173000071,991.6187173000071,return,2.458648700034246,13,0,0,1,0.24,2.7755575615628914e-17,return,2.369995899964124,45,-2,0.24,2.7755575615628914e-17,,,,,,,,,,,,,,,,,,,,,,,,,,,,,,,,,,,,,,,,,,,,,,,,,,,,,,,,,D369YD,train_y,red_square,bottom_right,2025-06-27_16h09.06.301,HideSeek_v1,2022.2.5,59.95099600377018,
,5,3,5,8,0,5,11,,train_dim1_1,23,30,,,,2,0,2,0,,,,,,,,,0,0,0,0,0,22,22,22,0,0,0,0,,,,,,,,,,,,,,,,,,,,,,,,,stimuli/alien_stimuli/11.png,,,,,,,,,,,,,,,,,,,,,,,,,,,,,stimuli/alien_stimuli/13.png,13,5,24,,,,,,,30,,,,,,,,998.1448548000772,998.1448548000772,998.1448548000772,998.1448548000772,998.1448548000772,up,1.0698762000538409,13,0,0,99,0.24,-0.08,up,0.9875712001230568,,,,,996.5846530001145,998.1448548000772,0.24,0,0.24,0.0,-0.12,0.24,0.24,0.24,0,995.6342575000599,995.6342575000599,995.6342575000599,995.6342575000599,995.6342575000599,995.6342575000599,995.6342575000599,995.6342575000599,995.6344727100338,1.0529908000025898,return,0.9338747998699546,,,,,,,,,,,,,,,,,,,,,,,,,,,,,,,,,,D369YD,train_y,red_square,bottom_right,2025-06-27_16h09.06.301,HideSeek_v1,2022.2.5,59.95099600377018,
,5,3,5,8,0,5,11,,train_dim1_1,23,30,,,,2,0,2,0,,,,,,,,,0,0,0,0,0,22,22,22,1,0,1,0,,,,,,,,,,,,,,,,,,,,,,,,,,,,,,,,,,,,,,,,,,,,,,,,,,,,,,,,,,,,,,,,30,,,,,,,,999.2207732999232,999.2207732999232,999.2207732999232,999.2207732999232,999.2207732999232,up,0.3428631001152098,13,0,0,99,0.24,0.0,up,0.257992000086233,,,,,,,,,,,,,,,,,,,,,,,,,,,,,,,,,,,,,,,,,,,,,,,,,,,,,,,,,,,,,D369YD,train_y,red_square,bottom_right,2025-06-27_16h09.06.301,HideSeek_v1,2022.2.5,59.95099600377018,
,5,3,5,8,0,5,11,,train_dim1_1,23,30,,,,2,0,2,0,,,,,,,,,0,0,0,0,0,22,22,22,2,0,2,0,,,,,,,,,,,,,,,,,,,,,,,,,,,,,,,,,,,,,,,,,,,,,,,,,,,,,,,,,,,,,,,,30,,,,,,,,999.5706353001297,999.5706353001297,999.5706353001297,999.5706353001297,999.5706353001297,up,1.0105489999987185,13,0,0,99,0.24,0.08,up,0.9210071999114007,,,,,,,,,,,,,,,,,,,,,,,,,,,,,,,,,,,,,,,,,,,,,,,,,,,,,,,,,,,,,D369YD,train_y,red_square,bottom_right,2025-06-27_16h09.06.301,HideSeek_v1,2022.2.5,59.95099600377018,
,5,3,5,8,0,5,11,,train_dim1_1,23,30,,,,2,0,2,0,,,,,,,,,0,0,0,0,0,22,22,22,3,0,3,0,,,,,,,,,,,,,,,,,,,,,,,,,,,,,,,,,,,,,,,,,,,,,,,,,,,,,,,,,,,,,,,,30,,,,,,,,1000.5892849999946,1000.5892849999946,1000.5892849999946,1000.5892849999946,1000.5892849999946,up,0.4093204999808222,13,0,0,99,0.24,0.16,up,0.3238362998235971,,,,,,,,,,,,,,,,,,,,,,,,,,,,,,,,,,,,,,,,,,,,,,,,,,,,,,,,,,,,,D369YD,train_y,red_square,bottom_right,2025-06-27_16h09.06.301,HideSeek_v1,2022.2.5,59.95099600377018,
,5,3,5,8,0,5,11,,train_dim1_1,23,30,,,,2,0,2,0,,,,,,,,,0,0,0,0,0,22,22,22,4,0,4,0,,,,,,,,,,,,,,,,,,,,,,,,,,,,,,,,,,,,,,,,,,,,,,,,,,,,,,,,,,,,,,,,30,,,,,,,,1001.0061214999296,1001.0061214999296,1001.0061214999296,1001.0061214999296,1001.0061214999296,up,0.3268907000310719,13,0,0,99,0.24,0.24,up,0.24205750017426908,,,,,,,,,,,,,,,,,,,,,,,,,,,,,,,,,,,,,,,,,,,,,,,,,,,,,,,,,,,,,D369YD,train_y,red_square,bottom_right,2025-06-27_16h09.06.301,HideSeek_v1,2022.2.5,59.95099600377018,
,5,3,5,8,0,5,11,,train_dim1_1,23,30,,,,2,0,2,0,,,,,,,,,0,0,0,0,0,22,22,22,5,0,5,0,,,,,,,,,,,,,,,,,,,,,,,,,,,,,,,,,,,,,,,,,,,,,,,,,,,,,,,,,,,,,,,,30,,,,,,,,1001.3392894000281,1001.3392894000281,1001.3392894000281,1001.3392894000281,1001.3392894000281,return,0.4600839999038726,14,0,0,1,0.24,0.24,return,0.37415100005455315,50,-2,0.24,0.24,,,,,,,,,,,,,,,,,,,,,,,,,,,,,,,,,,,,,,,,,,,,,,,,,,,,,,,,,D369YD,train_y,red_square,bottom_right,2025-06-27_16h09.06.301,HideSeek_v1,2022.2.5,59.95099600377018,
,8,2,8,2,0,0,16,,train_dim1_1,24,30,,,,2,0,2,0,,,,,,,,,0,0,0,0,0,23,23,23,0,0,0,0,,,,,,,,,,,,,,,,,,,,,,,,,stimuli/alien_stimuli/16.png,,,,,,,,,,,,,,,,,,,,,,,,,,,,,stimuli/alien_stimuli/11.png,11,5,25,,,,,,,30,,,,,,,,1005.7506254999898,1005.7506254999898,1005.7506254999898,1005.7506254999898,1005.7506254999898,return,1.320562900044024,15,0,0,1,0.48,-0.24,return,1.2384688998572528,50,-2,0.48,-0.24,1004.190823199926,1005.7506254999898,0.24,0.24,0.4,0.0,0.039999999999999994,0.24,0.24,0.24,0.24,1003.3601236001123,1003.3601236001123,1003.3601236001123,1003.3601236001123,1003.3601236001123,1003.3601236001123,1003.3601236001123,1003.3601236001123,1003.3575871099717,0.9359751001466066,return,0.8011568000074476,,,,,,,,,,,,,,,,,,,,,,,,,,,,,,,,,,D369YD,train_y,red_square,bottom_right,2025-06-27_16h09.06.301,HideSeek_v1,2022.2.5,59.95099600377018,
,8,3,8,7,0,4,12,,train_dim1_1,25,30,,,,2,0,2,0,,,,,,,,,0,0,0,0,0,24,24,24,0,0,0,0,,,,,,,,,,,,,,,,,,,,,,,,,stimuli/alien_stimuli/12.png,,,,,,,,,,,,,,,,,,,,,,,,,,,,,stimuli/alien_stimuli/16.png,16,8,26,,,,,,,30,,,,,,,,1011.0561174999457,1011.0561174999457,1011.0561174999457,1011.0561174999457,1011.0561174999457,up,2.168901499826461,15,0,0,99,0.48,-0.08,up,2.0823296001181006,,,,,1009.4953763000667,1011.0561174999457,0.48,-0.24,0.0,0.0,-0.24,0.48,0.48,0.48,-0.24,1008.6259089000523,1008.6259089000523,1008.6259089000523,1008.6259089000523,1008.6259089000523,1008.6259089000523,1008.6259089000523,1008.6259089000523,1008.6119209798984,0.9692313000559807,return,0.8506742999888957,,,,,,,,,,,,,,,,,,,,,,,,,,,,,,,,,,D369YD,train_y,red_square,bottom_right,2025-06-27_16h09.06.301,HideSeek_v1,2022.2.5,59.95099600377018,
,8,3,8,7,0,4,12,,train_dim1_1,25,30,,,,2,0,2,0,,,,,,,,,0,0,0,0,0,24,24,24,1,0,1,0,,,,,,,,,,,,,,,,,,,,,,,,,,,,,,,,,,,,,,,,,,,,,,,,,,,,,,,,,,,,,,,,30,,,,,,,,1013.2330364000518,1013.2330364000518,1013.2330364000518,1013.2330364000518,1013.2330364000518,up,0.442704200046137,15,0,0,99,0.48,0.0,up,0.3641391000710428,,,,,,,,,,,,,,,,,,,,,,,,,,,,,,,,,,,,,,,,,,,,,,,,,,,,,,,,,,,,,D369YD,train_y,red_square,bottom_right,2025-06-27_16h09.06.301,HideSeek_v1,2022.2.5,59.95099600377018,
,8,3,8,7,0,4,12,,train_dim1_1,25,30,,,,2,0,2,0,,,,,,,,,0,0,0,0,0,24,24,24,2,0,2,0,,,,,,,,,,,,,,,,,,,,,,,,,,,,,,,,,,,,,,,,,,,,,,,,,,,,,,,,,,,,,,,,30,,,,,,,,1013.6829391000792,1013.6829391000792,1013.6829391000792,1013.6829391000792,1013.6829391000792,up,0.3932173999492079,15,0,0,99,0.48,0.08,up,0.3147038999013603,,,,,,,,,,,,,,,,,,,,,,,,,,,,,,,,,,,,,,,,,,,,,,,,,,,,,,,,,,,,,D369YD,train_y,red_square,bottom_right,2025-06-27_16h09.06.301,HideSeek_v1,2022.2.5,59.95099600377018,
,8,3,8,7,0,4,12,,train_dim1_1,25,30,,,,2,0,2,0,,,,,,,,,0,0,0,0,0,24,24,24,3,0,3,0,,,,,,,,,,,,,,,,,,,,,,,,,,,,,,,,,,,,,,,,,,,,,,,,,,,,,,,,,,,,,,,,30,,,,,,,,1014.0854619001038,1014.0854619001038,1014.0854619001038,1014.0854619001038,1014.0854619001038,up,0.3418940999545157,15,0,0,99,0.48,0.16,up,0.26375450007617474,,,,,,,,,,,,,,,,,,,,,,,,,,,,,,,,,,,,,,,,,,,,,,,,,,,,,,,,,,,,,D369YD,train_y,red_square,bottom_right,2025-06-27_16h09.06.301,HideSeek_v1,2022.2.5,59.95099600377018,
,8,3,8,7,0,4,12,,train_dim1_1,25,30,,,,2,0,2,0,,,,,,,,,0,0,0,0,0,24,24,24,4,0,4,0,,,,,,,,,,,,,,,,,,,,,,,,,,,,,,,,,,,,,,,,,,,,,,,,,,,,,,,,,,,,,,,,30,,,,,,,,1014.4344935999252,1014.4344935999252,1014.4344935999252,1014.4344935999252,1014.4344935999252,return,0.4433540999889374,16,0,0,1,0.48,0.16,return,0.356780500151217,54,-2,0.48,0.16,,,,,,,,,,,,,,,,,,,,,,,,,,,,,,,,,,,,,,,,,,,,,,,,,,,,,,,,,D369YD,train_y,red_square,bottom_right,2025-06-27_16h09.06.301,HideSeek_v1,2022.2.5,59.95099600377018,
,9,4,9,7,0,3,13,,train_dim1_1,26,30,,,,2,0,2,0,,,,,,,,,0,0,0,0,0,25,25,25,0,0,0,0,,,,,,,,,,,,,,,,,,,,,,,,,stimuli/alien_stimuli/13.png,,,,,,,,,,,,,,,,,,,,,,,,,,,,,stimuli/alien_stimuli/12.png,12,8,27,,,,,,,30,,,,,,,,1018.6786770001054,1018.6786770001054,1018.6786770001054,1018.6786770001054,1018.6786770001054,up,1.0518155000172555,16,0,0,99,0.56,0.0,up,0.965639199828729,,,,,1017.1181421999354,1018.6786770001054,0.48,0.16,0.32,0.0,0.0,0.48,0.48,0.48,0.16,1016.4352820001077,1016.4352820001077,1016.4352820001077,1016.4352820001077,1016.4352820001077,1016.4352820001077,1016.4352820001077,1016.4352820001077,1016.4351154099684,0.7858682000078261,return,0.662565799895674,,,,,,,,,,,,,,,,,,,,,,,,,,,,,,,,,,D369YD,train_y,red_square,bottom_right,2025-06-27_16h09.06.301,HideSeek_v1,2022.2.5,59.95099600377018,
,9,4,9,7,0,3,13,,train_dim1_1,26,30,,,,2,0,2,0,,,,,,,,,0,0,0,0,0,25,25,25,1,0,1,0,,,,,,,,,,,,,,,,,,,,,,,,,,,,,,,,,,,,,,,,,,,,,,,,,,,,,,,,,,,,,,,,30,,,,,,,,1019.7379550000187,1019.7379550000187,1019.7379550000187,1019.7379550000187,1019.7379550000187,up,0.3764712999109179,16,0,0,99,0.56,0.08,up,0.2861995999701321,,,,,,,,,,,,,,,,,,,,,,,,,,,,,,,,,,,,,,,,,,,,,,,,,,,,,,,,,,,,,D369YD,train_y,red_square,bottom_right,2025-06-27_16h09.06.301,HideSeek_v1,2022.2.5,59.95099600377018,
,9,4,9,7,0,3,13,,train_dim1_1,26,30,,,,2,0,2,0,,,,,,,,,0,0,0,0,0,25,25,25,2,0,2,0,,,,,,,,,,,,,,,,,,,,,,,,,,,,,,,,,,,,,,,,,,,,,,,,,,,,,,,,,,,,,,,,30,,,,,,,,1020.121186299948,1020.121186299948,1020.121186299948,1020.121186299948,1020.121186299948,up,0.3094593998976052,16,0,0,99,0.56,0.16,up,0.22688620002008975,,,,,,,,,,,,,,,,,,,,,,,,,,,,,,,,,,,,,,,,,,,,,,,,,,,,,,,,,,,,,D369YD,train_y,red_square,bottom_right,2025-06-27_16h09.06.301,HideSeek_v1,2022.2.5,59.95099600377018,
,9,4,9,7,0,3,13,,train_dim1_1,26,30,,,,2,0,2,0,,,,,,,,,0,0,0,0,0,25,25,25,3,0,3,0,,,,,,,,,,,,,,,,,,,,,,,,,,,,,,,,,,,,,,,,,,,,,,,,,,,,,,,,,,,,,,,,30,,,,,,,,1020.4378180000931,1020.4378180000931,1020.4378180000931,1020.4378180000931,1020.4378180000931,return,0.5267994999885559,17,0,0,1,0.56,0.16,return,0.435905700083822,57,-2,0.56,0.16,,,,,,,,,,,,,,,,,,,,,,,,,,,,,,,,,,,,,,,,,,,,,,,,,,,,,,,,,D369YD,train_y,red_square,bottom_right,2025-06-27_16h09.06.301,HideSeek_v1,2022.2.5,59.95099600377018,
,8,4,8,4,0,0,16,,train_dim1_1,27,30,,,,2,0,2,0,,,,,,,,,0,0,0,0,0,26,26,26,0,0,0,0,,,,,,,,,,,,,,,,,,,,,,,,,stimuli/alien_stimuli/16.png,,,,,,,,,,,,,,,,,,,,,,,,,,,,,stimuli/alien_stimuli/13.png,13,9,28,,,,,,,30,,,,,,,,1025.0598393999971,1025.0598393999971,1025.0598393999971,1025.0598393999971,1025.0598393999971,return,1.093665499938652,18,0,0,1,0.48,-0.08,return,1.0066253000404686,57,-2,0.48,-0.08,1023.4901934000663,1025.0598393999971,0.56,0.16,0.24,0.0,0.04,0.56,0.56,0.56,0.16,1022.5241107000038,1022.5241107000038,1022.5241107000038,1022.5241107000038,1022.5241107000038,1022.5241107000038,1022.5241107000038,1022.5241107000038,1022.5234602100215,1.0693600000813603,return,0.9407799001783133,,,,,,,,,,,,,,,,,,,,,,,,,,,,,,,,,,D369YD,train_y,red_square,bottom_right,2025-06-27_16h09.06.301,HideSeek_v1,2022.2.5,59.95099600377018,
,9,1,9,6,0,5,11,,train_dim1_1,28,30,,,,2,0,2,0,,,,,,,,,0,0,0,0,0,27,27,27,0,0,0,0,,,,,,,,,,,,,,,,,,,,,,,,,stimuli/alien_stimuli/11.png,,,,,,,,,,,,,,,,,,,,,,,,,,,,,stimuli/alien_stimuli/16.png,16,8,29,,,,,,,30,,,,,,,,1029.8232664999086,1029.8232664999086,1029.8232664999086,1029.8232664999086,1029.8232664999086,up,0.9839172000065446,18,0,0,99,0.56,-0.24,up,0.8917141000274569,,,,,1028.2610569000244,1029.8232664999086,0.48,-0.08,0.0,0.0,-0.08,0.48,0.48,0.48,-0.08,1027.7154457001016,1027.7154457001016,1027.7154457001016,1027.7154457001016,1027.7154457001016,1027.7154457001016,1027.7154457001016,1027.7154457001016,1027.711101110047,0.6522010997869074,return,0.5244257999584079,,,,,,,,,,,,,,,,,,,,,,,,,,,,,,,,,,D369YD,train_y,red_square,bottom_right,2025-06-27_16h09.06.301,HideSeek_v1,2022.2.5,59.95099600377018,
,9,1,9,6,0,5,11,,train_dim1_1,28,30,,,,2,0,2,0,,,,,,,,,0,0,0,0,0,27,27,27,1,0,1,0,,,,,,,,,,,,,,,,,,,,,,,,,,,,,,,,,,,,,,,,,,,,,,,,,,,,,,,,,,,,,,,,30,,,,,,,,1030.8145836999174,1030.8145836999174,1030.8145836999174,1030.8145836999174,1030.8145836999174,up,0.32646799995563924,18,0,0,99,0.56,-0.15999999999999998,up,0.247704999987036,,,,,,,,,,,,,,,,,,,,,,,,,,,,,,,,,,,,,,,,,,,,,,,,,,,,,,,,,,,,,D369YD,train_y,red_square,bottom_right,2025-06-27_16h09.06.301,HideSeek_v1,2022.2.5,59.95099600377018,
,9,1,9,6,0,5,11,,train_dim1_1,28,30,,,,2,0,2,0,,,,,,,,,0,0,0,0,0,27,27,27,2,0,2,0,,,,,,,,,,,,,,,,,,,,,,,,,,,,,,,,,,,,,,,,,,,,,,,,,,,,,,,,,,,,,,,,30,,,,,,,,1031.147416099906,1031.147416099906,1031.147416099906,1031.147416099906,1031.147416099906,up,0.3594605999533087,18,0,0,99,0.56,-0.07999999999999997,up,0.2790858999360353,,,,,,,,,,,,,,,,,,,,,,,,,,,,,,,,,,,,,,,,,,,,,,,,,,,,,,,,,,,,,D369YD,train_y,red_square,bottom_right,2025-06-27_16h09.06.301,HideSeek_v1,2022.2.5,59.95099600377018,
,9,1,9,6,0,5,11,,train_dim1_1,28,30,,,,2,0,2,0,,,,,,,,,0,0,0,0,0,27,27,27,3,0,3,0,,,,,,,,,,,,,,,,,,,,,,,,,,,,,,,,,,,,,,,,,,,,,,,,,,,,,,,,,,,,,,,,30,,,,,,,,1031.5139806000516,1031.5139806000516,1031.5139806000516,1031.5139806000516,1031.5139806000516,up,0.3432527999393642,18,0,0,99,0.56,2.7755575615628914e-17,up,0.25669000018388033,,,,,,,,,,,,,,,,,,,,,,,,,,,,,,,,,,,,,,,,,,,,,,,,,,,,,,,,,,,,,D369YD,train_y,red_square,bottom_right,2025-06-27_16h09.06.301,HideSeek_v1,2022.2.5,59.95099600377018,
,9,1,9,6,0,5,11,,train_dim1_1,28,30,,,,2,0,2,0,,,,,,,,,0,0,0,0,0,27,27,27,4,0,4,0,,,,,,,,,,,,,,,,,,,,,,,,,,,,,,,,,,,,,,,,,,,,,,,,,,,,,,,,,,,,,,,,30,,,,,,,,1031.8648681999184,1031.8648681999184,1031.8648681999184,1031.8648681999184,1031.8648681999184,up,0.3267431000713259,18,0,0,99,0.56,0.08000000000000003,up,0.24413520004600286,,,,,,,,,,,,,,,,,,,,,,,,,,,,,,,,,,,,,,,,,,,,,,,,,,,,,,,,,,,,,D369YD,train_y,red_square,bottom_right,2025-06-27_16h09.06.301,HideSeek_v1,2022.2.5,59.95099600377018,
,9,1,9,6,0,5,11,,train_dim1_1,28,30,,,,2,0,2,0,,,,,,,,,0,0,0,0,0,27,27,27,5,0,5,0,,,,,,,,,,,,,,,,,,,,,,,,,,,,,,,,,,,,,,,,,,,,,,,,,,,,,,,,,,,,,,,,30,,,,,,,,1032.1978633999825,1032.1978633999825,1032.1978633999825,1032.1978633999825,1032.1978633999825,return,0.42652039998210967,19,0,0,1,0.56,0.08000000000000003,return,0.3495703998487443,62,-2,0.56,0.08000000000000003,,,,,,,,,,,,,,,,,,,,,,,,,,,,,,,,,,,,,,,,,,,,,,,,,,,,,,,,,D369YD,train_y,red_square,bottom_right,2025-06-27_16h09.06.301,HideSeek_v1,2022.2.5,59.95099600377018,
,7,2,7,6,0,4,12,,train_dim1_1,29,30,,,,2,0,2,0,,,,,,,,,0,0,0,0,0,28,28,28,0,0,0,0,,,,,,,,,,,,,,,,,,,,,,,,,stimuli/alien_stimuli/12.png,,,,,,,,,,,,,,,,,,,,,,,,,,,,,stimuli/alien_stimuli/11.png,11,9,30,,,,,,,30,,,,,,,,1036.3589610999916,1036.3589610999916,1036.3589610999916,1036.3589610999916,1036.3589610999916,up,0.8199642999097705,19,0,0,99,0.4,-0.15999999999999998,up,0.737650099908933,,,,,1034.7995953001082,1036.3589610999916,0.56,0.08,0.4,0.0,-0.12,0.56,0.56,0.56,0.08,1034.1800317000598,1034.1800317000598,1034.1800317000598,1034.1800317000598,1034.1800317000598,1034.1800317000598,1034.1800317000598,1034.1800317000598,1034.1663725800813,0.719224700005725,return,0.5958138999994844,,,,,,,,,,,,,,,,,,,,,,,,,,,,,,,,,,D369YD,train_y,red_square,bottom_right,2025-06-27_16h09.06.301,HideSeek_v1,2022.2.5,59.95099600377018,
,7,2,7,6,0,4,12,,train_dim1_1,29,30,,,,2,0,2,0,,,,,,,,,0,0,0,0,0,28,28,28,1,0,1,0,,,,,,,,,,,,,,,,,,,,,,,,,,,,,,,,,,,,,,,,,,,,,,,,,,,,,,,,,,,,,,,,30,,,,,,,,1037.1862319000065,1037.1862319000065,1037.1862319000065,1037.1862319000065,1037.1862319000065,up,0.47565479995682836,19,0,0,99,0.4,-0.07999999999999997,up,0.39485929999500513,,,,,,,,,,,,,,,,,,,,,,,,,,,,,,,,,,,,,,,,,,,,,,,,,,,,,,,,,,,,,D369YD,train_y,red_square,bottom_right,2025-06-27_16h09.06.301,HideSeek_v1,2022.2.5,59.95099600377018,
,7,2,7,6,0,4,12,,train_dim1_1,29,30,,,,2,0,2,0,,,,,,,,,0,0,0,0,0,28,28,28,2,0,2,0,,,,,,,,,,,,,,,,,,,,,,,,,,,,,,,,,,,,,,,,,,,,,,,,,,,,,,,,,,,,,,,,30,,,,,,,,1037.669416199904,1037.669416199904,1037.669416199904,1037.669416199904,1037.669416199904,up,0.4269699000287801,19,0,0,99,0.4,2.7755575615628914e-17,up,0.3340110001154244,,,,,,,,,,,,,,,,,,,,,,,,,,,,,,,,,,,,,,,,,,,,,,,,,,,,,,,,,,,,,D369YD,train_y,red_square,bottom_right,2025-06-27_16h09.06.301,HideSeek_v1,2022.2.5,59.95099600377018,
,7,2,7,6,0,4,12,,train_dim1_1,29,30,,,,2,0,2,0,,,,,,,,,0,0,0,0,0,28,28,28,3,0,3,0,,,,,,,,,,,,,,,,,,,,,,,,,,,,,,,,,,,,,,,,,,,,,,,,,,,,,,,,,,,,,,,,30,,,,,,,,1038.102590000024,1038.102590000024,1038.102590000024,1038.102590000024,1038.102590000024,up,0.34327720012515783,19,0,0,99,0.4,0.08000000000000003,up,0.25922230002470315,,,,,,,,,,,,,,,,,,,,,,,,,,,,,,,,,,,,,,,,,,,,,,,,,,,,,,,,,,,,,D369YD,train_y,red_square,bottom_right,2025-06-27_16h09.06.301,HideSeek_v1,2022.2.5,59.95099600377018,
,7,2,7,6,0,4,12,,train_dim1_1,29,30,,,,2,0,2,0,,,,,,,,,0,0,0,0,0,28,28,28,4,0,4,0,,,,,,,,,,,,,,,,,,,,,,,,,,,,,,,,,,,,,,,,,,,,,,,,,,,,,,,,,,,,,,,,30,,,,,,,,1038.453086799942,1038.453086799942,1038.453086799942,1038.453086799942,1038.453086799942,return,0.3934013000689447,20,0,0,1,0.4,0.08000000000000003,return,0.305750000057742,66,-2,0.4,0.08000000000000003,,,,,,,,,,,,,,,,,,,,,,,,,,,,,,,,,,,,,,,,,,,,,,,,,,,,,,,,,D369YD,train_y,red_square,bottom_right,2025-06-27_16h09.06.301,HideSeek_v1,2022.2.5,59.95099600377018,
,5,1,5,2,0,1,15,,train_dim1_1,30,30,,,,2,0,2,0,,,,,,,,,0,0,0,0,0,29,29,29,0,0,0,0,,,,,,,,,,,,,,,,,,,,,,,,,stimuli/alien_stimuli/15.png,,,,,,,,,,,,,,,,,,,,,,,,,,,,,stimuli/alien_stimuli/12.png,12,7,31,,,,,,,30,,,,,,,,1044.1512522001285,1044.1512522001285,1044.1512522001285,1044.1512522001285,1044.1512522001285,up,1.08450060011819,20,0,0,99,0.24,-0.24,up,1.0032544999849051,,,,,1042.5893272999674,1044.1512522001285,0.4,0.08,0.32,0.0,-0.07999999999999999,0.4,0.4,0.4,0.08,1040.4055922001135,1040.4055922001135,1040.4055922001135,1040.4055922001135,1040.4055922001135,1040.4055922001135,1040.4055922001135,1040.4055922001135,1040.4048772099895,2.2871376001276076,return,2.1584167999681085,,,,,,,,,,,,,,,,,,,,,,,,,,,,,,,,,,D369YD,train_y,red_square,bottom_right,2025-06-27_16h09.06.301,HideSeek_v1,2022.2.5,59.95099600377018,
,5,1,5,2,0,1,15,,train_dim1_1,30,30,,,,2,0,2,0,,,,,,,,,0,0,0,0,0,29,29,29,1,0,1,0,,,,,,,,,,,,,,,,,,,,,,,,,,,,,,,,,,,,,,,,,,,,,,,,,,,,,,,,,,,,,,,,30,,,,,,,,1045.2430587999988,1045.2430587999988,1045.2430587999988,1045.2430587999988,1045.2430587999988,return,0.49324959982186556,21,0,0,1,0.24,-0.24,return,0.4055141001008451,67,-2,0.24,-0.24,,,,,,,,,,,,,,,,,,,,,,,,,,,,,,,,,,,,,,,,,,,,,,,,,,,,,,,,,D369YD,train_y,red_square,bottom_right,2025-06-27_16h09.06.301,HideSeek_v1,2022.2.5,59.95099600377018,
,,,,,,,,,,,30,,,,2,0,2,0,,,,,,,,,,,,,,,,,,,,,,,,,,,,,,,,,,,,,,,,,,,,,,,,,,,,,,,,,,,,,,,,,,,,,,,,,,stimuli/alien_stimuli/15.png,15,5,32,21,0.7,0.875,1,1,1,30,0,conditions/schedules/train_y_first/red_square_00/bottom_right/inputTrain_2.1.xlsx,99,1,2,1,0,,,,,,,,,,,1,,,,,,,,,1047.776977200061,1049.339987799991,0.24,-0.24,0.08,0.0,-0.28,0.24,0.24,0.24,-0.24,1047.2961617999244,1047.2961617999244,1047.2961617999244,1047.2961617999244,1047.2961617999244,1047.2961617999244,1047.2961617999244,1047.2961617999244,1047.2939514100553,0.5859274000395089,return,0.4618857998866588,0,0.9,0,1,21,,,,,,,,,,,,,,,,,,,,,,,,,,,,,D369YD,train_y,red_square,bottom_right,2025-06-27_16h09.06.301,HideSeek_v1,2022.2.5,59.95099600377018,
,,,,,,,,,,,,,,,3,0,3,0,0,0,0,0,,,,,,,,,,,,,,,,,,,,,,,,,,,,,,,conditions/schedules/train_y_first/red_square_00/bottom_right/instructions/Slide17.png,conditions/schedules/train_y_first/red_square_00/bottom_right/instructions/Audio17.wav,1049.339987799991,1049.3285582199694,17,"[3.664919500006363, 19.083361000055447, 16.845070800045505, 19.350788000039756, 4.090259399963543, 4.452312899986282, 5.669567000120878, 12.082583900075406, 6.652478399919346, 7.045304599916562, 10.234379300149158, 13.620771100046113, 17.296947000082582, 16.411160900024697, 43.28045860002749, 21.640411800006405, 31.428353699855506]","[3.664926400175318, 0.014063100097700953, 0.00023830006830394268, 0.00021199998445808887, 0.03196529997512698, 0.06481960020028055, 0.016773200128227472, 0.06348769995383918, 0.05595379997976124, 0.04691560007631779, 0.030213099904358387, 13.620777199976146, 0.013976800022646785, 16.411168799968436, 0.00021350011229515076, 21.640419099945575, 31.42836089991033]",0,,,,,,,,,,,,,,,,,,,,,,,,,,,,,,,,,,,,,,,,,,,,,,,,,,,,,,,,,,,,,,,,,,,,,,,,,,,,,,,,,,,,,,,,,,,,,,,,,,,,,,,,,,,,,,,,,,,,,,,,,,,,,D369YD,train_y,red_square,bottom_right,2025-06-27_16h09.06.301,HideSeek_v1,2022.2.5,59.95099600377018,
,,,,,,,,,,,,,,,3,0,3,0,1,0,1,0,,,,,,,,,,,,,,,,,,,,,,,,,,,,,,,conditions/schedules/train_y_first/red_square_00/bottom_right/instructions/Slide18.png,conditions/schedules/train_y_first/red_square_00/bottom_right/instructions/Audio18.wav,1080.8453434000257,1080.8214315200692,18,"[3.664919500006363, 19.083361000055447, 16.845070800045505, 19.350788000039756, 4.090259399963543, 4.452312899986282, 5.669567000120878, 12.082583900075406, 6.652478399919346, 7.045304599916562, 10.234379300149158, 13.620771100046113, 17.296947000082582, 16.411160900024697, 43.28045860002749, 21.640411800006405, 31.428353699855506, 7.292827299796045]","[3.664926400175318, 0.014063100097700953, 0.00023830006830394268, 0.00021199998445808887, 0.03196529997512698, 0.06481960020028055, 0.016773200128227472, 0.06348769995383918, 0.05595379997976124, 0.04691560007631779, 0.030213099904358387, 13.620777199976146, 0.013976800022646785, 16.411168799968436, 0.00021350011229515076, 21.640419099945575, 0.027462099911645055, 7.2928338998463005]",0,,,,,,,,,,,,,,,,,,,,,,,,,,,,,,,,,,,,,,,,,,,,,,,,,,,,,,,,,,,,,,,,,,,,,,,,,,,,,,,,,,,,,,,,,,,,,,,,,,,,,,,,,,,,,,,,,,,,,,,,,,,,,D369YD,train_y,red_square,bottom_right,2025-06-27_16h09.06.301,HideSeek_v1,2022.2.5,59.95099600377018,
,,,,,,,,,,,,,,,3,0,3,0,2,0,2,0,,,,,,,,,,,,,,,,,,,,,,,,,,,,,,,conditions/schedules/train_y_first/red_square_00/bottom_right/instructions/Slide19.png,conditions/schedules/train_y_first/red_square_00/bottom_right/instructions/Audio19.wav,1088.2040246999823,1088.1943842500914,19,"[3.664919500006363, 19.083361000055447, 16.845070800045505, 19.350788000039756, 4.090259399963543, 4.452312899986282, 5.669567000120878, 12.082583900075406, 6.652478399919346, 7.045304599916562, 10.234379300149158, 13.620771100046113, 17.296947000082582, 16.411160900024697, 43.28045860002749, 21.640411800006405, 31.428353699855506, 7.292827299796045, 10.44589910004288]","[3.664926400175318, 0.014063100097700953, 0.00023830006830394268, 0.00021199998445808887, 0.03196529997512698, 0.06481960020028055, 0.016773200128227472, 0.06348769995383918, 0.05595379997976124, 0.04691560007631779, 0.030213099904358387, 13.620777199976146, 0.013976800022646785, 16.411168799968436, 0.00021350011229515076, 21.640419099945575, 0.027462099911645055, 0.013923099962994456, 10.445906299864873]",0,,,,,,,,,,,,,,,,,,,,,,,,,,,,,,,,,,,,,,,,,,,,,,,,,,,,,,,,,,,,,,,,,,,,,,,,,,,,,,,,,,,,,,,,,,,,,,,,,,,,,,,,,,,,,,,,,,,,,,,,,,,,,D369YD,train_y,red_square,bottom_right,2025-06-27_16h09.06.301,HideSeek_v1,2022.2.5,59.95099600377018,
,,,,,,,,,,,,,,,3,0,3,0,3,0,3,0,,,,,,,,,,,,,,,,,,,,,,,,,,,,,,,conditions/schedules/train_y_first/red_square_00/bottom_right/instructions/Slide20.png,conditions/schedules/train_y_first/red_square_00/bottom_right/instructions/Audio20.wav,1098.7200754999649,1098.7195911500603,20,"[3.664919500006363, 19.083361000055447, 16.845070800045505, 19.350788000039756, 4.090259399963543, 4.452312899986282, 5.669567000120878, 12.082583900075406, 6.652478399919346, 7.045304599916562, 10.234379300149158, 13.620771100046113, 17.296947000082582, 16.411160900024697, 43.28045860002749, 21.640411800006405, 31.428353699855506, 7.292827299796045, 10.44589910004288, 12.241125199943781]","[3.664926400175318, 0.014063100097700953, 0.00023830006830394268, 0.00021199998445808887, 0.03196529997512698, 0.06481960020028055, 0.016773200128227472, 0.06348769995383918, 0.05595379997976124, 0.04691560007631779, 0.030213099904358387, 13.620777199976146, 0.013976800022646785, 16.411168799968436, 0.00021350011229515076, 21.640419099945575, 0.027462099911645055, 0.013923099962994456, 0.04678440000861883, 12.241132299881428]",0,,,,,,,,,,,,,,,,,,,,,,,,,,,,,,,,,,,,,,,,,,,,,,,,,,,,,,,,,,,,,,,,,,,,,,,,,,,,,,,,,,,,,,,,,,,,,,,,,,,,,,,,,,,,,,,,,,,,,,,,,,,,,D369YD,train_y,red_square,bottom_right,2025-06-27_16h09.06.301,HideSeek_v1,2022.2.5,59.95099600377018,
1,8,2,3,2,-5,0,66,2,instr_dim1_2,,,,,,3,0,3,0,,,,,0,0,0,0,,,,,,,,,,,,,,,,,,,,,,,,,,,,,,,,,,,,,stimuli/alien_stimuli/66.png,conditions/schedules/train_y_first/red_square_00/bottom_right/inputInstr_2.xlsx,stimuli/alien_stimuli/66.png,1111.064992400119,1111.064992400119,1111.064992400119,1111.064992400119,1111.0633002100049,return,8.326498500071466,"[-0.16, -0.08, 0, 0.08, 0.16, 0.24, 0.32, 0.4, 0.48, 0.56]","[-0.4, -0.32, -0.24, -0.16, -0.08, 0, 0.08, 0.16, 0.24, 0.32]",2,2,3,8,0.0,0.4,1119.5525847000536,1119.5525847000536,1119.5525847000536,1119.5525847000536,1119.5525847000536,1119.5525847000536,1119.5525847000536,1119.5372808399145,5.73924390017055,return,5.5847968000452965,stimuli/alien_stimuli/66.png,66,8,1,,,,,,,,,,,,,,,,,,,,,,,,,,,,,,,,,,,,,,,,,,,,,,,,,,,,,,,,,,,,,,,,,,,,,,,,,,,,,,,,,,,,,,,,,,D369YD,train_y,red_square,bottom_right,2025-06-27_16h09.06.301,HideSeek_v1,2022.2.5,59.95099600377018,
,,,,,,,,,,,30,,,,3,0,3,0,,,,,,,,,,,,,,,,,,,,,,,,,,,,,,,,,,,,,,,,,,,,,,,,,,,,,,,,,,,,,,,,,,,,,,,,,,,,,,21,0.7,0.875,1,99,2,30,0,conditions/schedules/train_y_first/red_square_00/bottom_right/inputTrain_2.1.xlsx,99,1,2,1,0,,,,,,,,,,,,,,,,,,,,,,,,,,,,,,,,,,,,,,,,,,,,,,,,,,,,,,,,,,,,,,,,,,,,,,,,,,,,D369YD,train_y,red_square,bottom_right,2025-06-27_16h09.06.301,HideSeek_v1,2022.2.5,59.95099600377018,
,,,,,,,,,,,,,,,4,0,4,0,0,0,0,0,,,,,,,,,,,,,,,,,,,,,,,,,,,,,,,conditions/schedules/train_y_first/red_square_00/bottom_right/instructions/Slide21.png,conditions/schedules/train_y_first/red_square_00/bottom_right/instructions/Audio21.wav,1125.29287200002,1125.2920078699478,21,"[3.664919500006363, 19.083361000055447, 16.845070800045505, 19.350788000039756, 4.090259399963543, 4.452312899986282, 5.669567000120878, 12.082583900075406, 6.652478399919346, 7.045304599916562, 10.234379300149158, 13.620771100046113, 17.296947000082582, 16.411160900024697, 43.28045860002749, 21.640411800006405, 31.428353699855506, 7.292827299796045, 10.44589910004288, 12.241125199943781, 12.389302399940789]","[3.664926400175318, 0.014063100097700953, 0.00023830006830394268, 0.00021199998445808887, 0.03196529997512698, 0.06481960020028055, 0.016773200128227472, 0.06348769995383918, 0.05595379997976124, 0.04691560007631779, 0.030213099904358387, 13.620777199976146, 0.013976800022646785, 16.411168799968436, 0.00021350011229515076, 21.640419099945575, 0.027462099911645055, 0.013923099962994456, 0.04678440000861883, 12.241132299881428, 12.389309199992567]",0,,,,,,,,,,,,,,,,,,,,,,,,,,,,,,,,,,,,,,,,,,,,,,,,,,,,,,,,,,,,,,,,,,,,,,,,,,,,,,,,,,,,,,,,,,,,,,,,,,,,,,,,,,,,,,,,,,,,,,,,,,,,,D369YD,train_y,red_square,bottom_right,2025-06-27_16h09.06.301,HideSeek_v1,2022.2.5,59.95099600377018,
2,9,0,9,0,0,0,16,2,instr_dim1_2,,,,,,4,0,4,0,,,,,0,0,0,0,,,,,,,,,,,,,,,,,,,,,,,,,,,,,,,,,,,,,stimuli/alien_stimuli/16.png,conditions/schedules/train_y_first/red_square_00/bottom_right/inputInstr_2.xlsx,stimuli/alien_stimuli/16.png,1137.7896342000458,1137.7896342000458,1137.7896342000458,1137.7896342000458,1137.7856291098988,return,6.373305399902165,"[-0.16, -0.08, 0, 0.08, 0.16, 0.24, 0.32, 0.4, 0.48, 0.56]","[-0.4, -0.32, -0.24, -0.16, -0.08, 0, 0.08, 0.16, 0.24, 0.32]",0,0,9,9,0.0,0.0,1144.3326159999706,1144.3326159999706,1144.3326159999706,1144.3326159999706,1144.3326159999706,1144.3326159999706,1144.3326159999706,1144.3244526699652,6.806284100050107,return,6.640260400017723,stimuli/alien_stimuli/16.png,16,9,2,,,,,,,,,,,,,,,,,,,,,,,,,,,,,,,,,,,,,,,,,,,,,,,,,,,,,,,,,,,,,,,,,,,,,,,,,,,,,,,,,,,,,,,,,,D369YD,train_y,red_square,bottom_right,2025-06-27_16h09.06.301,HideSeek_v1,2022.2.5,59.95099600377018,
,,,,,,,,,,,30,,,,4,0,4,0,,,,,,,,,,,,,,,,,,,,,,,,,,,,,,,,,,,,,,,,,,,,,,,,,,,,,,,,,,,,,,,,,,,,,,,,,,,,,,21,0.7,0.875,1,99,2,30,0,conditions/schedules/train_y_first/red_square_00/bottom_right/inputTrain_2.1.xlsx,99,1,2,1,0,,,,,,,,,,,,,,,,,,,,,,,,,,,,,,,,,,,,,,,,,,,,,,,,,,,,,,,,,,,,,,,,,,,,,,,,,,,,D369YD,train_y,red_square,bottom_right,2025-06-27_16h09.06.301,HideSeek_v1,2022.2.5,59.95099600377018,
,,,,,,,,,,,,,,,5,0,5,0,0,0,0,0,,,,,,,,,,,,,,,,,,,,,,,,,,,,,,,conditions/schedules/train_y_first/red_square_00/bottom_right/instructions/Slide22.png,conditions/schedules/train_y_first/red_square_00/bottom_right/instructions/Audio22.wav,1151.1414169000927,1151.1298773699907,22,"[3.664919500006363, 19.083361000055447, 16.845070800045505, 19.350788000039756, 4.090259399963543, 4.452312899986282, 5.669567000120878, 12.082583900075406, 6.652478399919346, 7.045304599916562, 10.234379300149158, 13.620771100046113, 17.296947000082582, 16.411160900024697, 43.28045860002749, 21.640411800006405, 31.428353699855506, 7.292827299796045, 10.44589910004288, 12.241125199943781, 12.389302399940789, 30.66068339999765]","[3.664926400175318, 0.014063100097700953, 0.00023830006830394268, 0.00021199998445808887, 0.03196529997512698, 0.06481960020028055, 0.016773200128227472, 0.06348769995383918, 0.05595379997976124, 0.04691560007631779, 0.030213099904358387, 13.620777199976146, 0.013976800022646785, 16.411168799968436, 0.00021350011229515076, 21.640419099945575, 0.027462099911645055, 0.013923099962994456, 0.04678440000861883, 12.241132299881428, 12.389309199992567, 30.66069020004943]",0,,,,,,,,,,,,,,,,,,,,,,,,,,,,,,,,,,,,,,,,,,,,,,,,,,,,,,,,,,,,,,,,,,,,,,,,,,,,,,,,,,,,,,,,,,,,,,,,,,,,,,,,,,,,,,,,,,,,,,,,,,,,,D369YD,train_y,red_square,bottom_right,2025-06-27_16h09.06.301,HideSeek_v1,2022.2.5,59.95099600377018,
,7,1,4,1,-3,0,46,,train_dim1_2,1,30,,,,5,0,5,0,,,,,,,,,0,0,0,0,0,0,0,0,0,0,0,0,,,,,,,,,,,,,,,,,,,,,,,,,stimuli/alien_stimuli/46.png,,,,,,,,,,,,,,,,,,,,,,,,,,,,,,,,,,,,,,,30,,,,,,,,1181.9033439001068,1181.9033439001068,1181.9033439001068,1181.9033439001068,1181.9033439001068,left,2.1123607999179512,0,0,0,99,0.32,-0.32,left,2.0111102999653667,,,,,,,,,,,,,,,,,,,,,,,,,,,,,,,,,,,,,,,,,,,,,,,,,,,,,,,,,,,,,D369YD,train_y,red_square,bottom_right,2025-06-27_16h09.06.301,HideSeek_v1,2022.2.5,59.95099600377018,
,7,1,4,1,-3,0,46,,train_dim1_2,1,30,,,,5,0,5,0,,,,,,,,,0,0,0,0,0,0,0,0,1,0,1,0,,,,,,,,,,,,,,,,,,,,,,,,,,,,,,,,,,,,,,,,,,,,,,,,,,,,,,,,,,,,,,,,30,,,,,,,,1184.0033746999688,1184.0033746999688,1184.0033746999688,1184.0033746999688,1184.0033746999688,left,0.4597485999111086,0,0,0,99,0.24,-0.32,left,0.3770886999554932,,,,,,,,,,,,,,,,,,,,,,,,,,,,,,,,,,,,,,,,,,,,,,,,,,,,,,,,,,,,,D369YD,train_y,red_square,bottom_right,2025-06-27_16h09.06.301,HideSeek_v1,2022.2.5,59.95099600377018,
,7,1,4,1,-3,0,46,,train_dim1_2,1,30,,,,5,0,5,0,,,,,,,,,0,0,0,0,0,0,0,0,2,0,2,0,,,,,,,,,,,,,,,,,,,,,,,,,,,,,,,,,,,,,,,,,,,,,,,,,,,,,,,,,,,,,,,,30,,,,,,,,1184.4724793001078,1184.4724793001078,1184.4724793001078,1184.4724793001078,1184.4724793001078,left,0.37466160021722317,0,0,0,99,0.15999999999999998,-0.32,left,0.3000558998901397,,,,,,,,,,,,,,,,,,,,,,,,,,,,,,,,,,,,,,,,,,,,,,,,,,,,,,,,,,,,,D369YD,train_y,red_square,bottom_right,2025-06-27_16h09.06.301,HideSeek_v1,2022.2.5,59.95099600377018,
,7,1,4,1,-3,0,46,,train_dim1_2,1,30,,,,5,0,5,0,,,,,,,,,0,0,0,0,0,0,0,0,3,0,3,0,,,,,,,,,,,,,,,,,,,,,,,,,,,,,,,,,,,,,,,,,,,,,,,,,,,,,,,,,,,,,,,,30,,,,,,,,1184.8559874999337,1184.8559874999337,1184.8559874999337,1184.8559874999337,1184.8559874999337,return,0.5757659000810236,1,0,0,1,0.15999999999999998,-0.32,return,0.4864234998822212,67,-5,0.15999999999999998,-0.32,,,,,,,,,,,,,,,,,,,,,,,,,,,,,,,,,,,,,,,,,,,,,,,,,,,,,,,,,D369YD,train_y,red_square,bottom_right,2025-06-27_16h09.06.301,HideSeek_v1,2022.2.5,59.95099600377018,
,7,4,7,4,0,0,16,,train_dim1_2,2,30,,,,5,0,5,0,,,,,,,,,0,0,0,0,0,1,1,1,0,0,0,0,,,,,,,,,,,,,,,,,,,,,,,,,stimuli/alien_stimuli/16.png,,,,,,,,,,,,,,,,,,,,,,,,,,,,,stimuli/alien_stimuli/46.png,46,7,3,,,,,,,30,,,,,,,,1190.1054801999126,1190.1054801999126,1190.1054801999126,1190.1054801999126,1190.1054801999126,return,1.1530134999193251,2,0,0,1,0.4,-0.08,return,1.055085700005293,67,-5,0.4,-0.08,1188.5269430999178,1190.1054801999126,0.16,-0.32,0.0,0.24,-0.32,0.16,0.28,0.16,-0.32,1187.0056896999013,1187.0056896999013,1187.0056896999013,1187.0056896999013,1187.0056896999013,1187.0056896999013,1187.0056896999013,1187.0056896999013,1186.9927066100763,1.637118099955842,return,1.5030582000035793,,,,,,,,,,,,,,,,,,,,,,,,,,,,,,,,,,D369YD,train_y,red_square,bottom_right,2025-06-27_16h09.06.301,HideSeek_v1,2022.2.5,59.95099600377018,
,9,4,8,4,-1,0,26,,train_dim1_2,3,30,,,,5,0,5,0,,,,,,,,,0,0,0,0,0,2,2,2,0,0,0,0,,,,,,,,,,,,,,,,,,,,,,,,,stimuli/alien_stimuli/26.png,,,,,,,,,,,,,,,,,,,,,,,,,,,,,stimuli/alien_stimuli/16.png,16,7,4,,,,,,,30,,,,,,,,1195.3010126000736,1195.3010126000736,1195.3010126000736,1195.3010126000736,1195.3010126000736,left,1.0509957999456674,2,0,0,99,0.48000000000000004,-0.08,left,0.953898600069806,,,,,1193.7314001000486,1195.3010126000736,0.4,-0.08,0.0,0.0,-0.08,0.4,0.4,0.4,-0.08,1192.808340900112,1192.808340900112,1192.808340900112,1192.808340900112,1192.808340900112,1192.808340900112,1192.808340900112,1192.808340900112,1192.797850510059,1.0361831998452544,return,0.8997661999892443,,,,,,,,,,,,,,,,,,,,,,,,,,,,,,,,,,D369YD,train_y,red_square,bottom_right,2025-06-27_16h09.06.301,HideSeek_v1,2022.2.5,59.95099600377018,
,9,4,8,4,-1,0,26,,train_dim1_2,3,30,,,,5,0,5,0,,,,,,,,,0,0,0,0,0,2,2,2,1,0,1,0,,,,,,,,,,,,,,,,,,,,,,,,,,,,,,,,,,,,,,,,,,,,,,,,,,,,,,,,,,,,,,,,30,,,,,,,,1196.3515419999603,1196.3515419999603,1196.3515419999603,1196.3515419999603,1196.3515419999603,left,0.24216970009729266,2,0,0,99,0.4,-0.08,left,0.16635820013470948,,,,,,,,,,,,,,,,,,,,,,,,,,,,,,,,,,,,,,,,,,,,,,,,,,,,,,,,,,,,,D369YD,train_y,red_square,bottom_right,2025-06-27_16h09.06.301,HideSeek_v1,2022.2.5,59.95099600377018,
,9,4,8,4,-1,0,26,,train_dim1_2,3,30,,,,5,0,5,0,,,,,,,,,0,0,0,0,0,2,2,2,2,0,2,0,,,,,,,,,,,,,,,,,,,,,,,,,,,,,,,,,,,,,,,,,,,,,,,,,,,,,,,,,,,,,,,,30,,,,,,,,1196.5999646999408,1196.5999646999408,1196.5999646999408,1196.5999646999408,1196.5999646999408,right,1.9779977998696268,2,0,0,99,0.48000000000000004,-0.08,right,1.9003860000520945,,,,,,,,,,,,,,,,,,,,,,,,,,,,,,,,,,,,,,,,,,,,,,,,,,,,,,,,,,,,,D369YD,train_y,red_square,bottom_right,2025-06-27_16h09.06.301,HideSeek_v1,2022.2.5,59.95099600377018,
,9,4,8,4,-1,0,26,,train_dim1_2,3,30,,,,5,0,5,0,,,,,,,,,0,0,0,0,0,2,2,2,3,0,3,0,,,,,,,,,,,,,,,,,,,,,,,,,,,,,,,,,,,,,,,,,,,,,,,,,,,,,,,,,,,,,,,,30,,,,,,,,1198.5860651000403,1198.5860651000403,1198.5860651000403,1198.5860651000403,1198.5860651000403,return,0.5600448998156935,3,0,0,1,0.48000000000000004,-0.08,return,0.4743237001821399,67,-6,0.48000000000000004,-0.08,,,,,,,,,,,,,,,,,,,,,,,,,,,,,,,,,,,,,,,,,,,,,,,,,,,,,,,,,D369YD,train_y,red_square,bottom_right,2025-06-27_16h09.06.301,HideSeek_v1,2022.2.5,59.95099600377018,
,7,3,3,3,-4,0,56,,train_dim1_2,4,30,,,,5,0,5,0,,,,,,,,,0,0,0,0,0,3,3,3,0,0,0,0,,,,,,,,,,,,,,,,,,,,,,,,,stimuli/alien_stimuli/56.png,,,,,,,,,,,,,,,,,,,,,,,,,,,,,stimuli/alien_stimuli/26.png,26,9,5,,,,,,,30,,,,,,,,1203.1081483999733,1203.1081483999733,1203.1081483999733,1203.1081483999733,1203.1081483999733,left,0.8876289001200348,3,0,0,99,0.32,-0.16,left,0.7909174000378698,,,,,1201.5377452000976,1203.1081483999733,0.48,-0.08,0.0,0.08,-0.08,0.48,0.52,0.48,-0.08,1200.7173200000543,1200.7173200000543,1200.7173200000543,1200.7173200000543,1200.7173200000543,1200.7173200000543,1200.7173200000543,1200.7173200000543,1200.70449551004,0.9360123998485506,return,0.7997318999841809,,,,,,,,,,,,,,,,,,,,,,,,,,,,,,,,,,D369YD,train_y,red_square,bottom_right,2025-06-27_16h09.06.301,HideSeek_v1,2022.2.5,59.95099600377018,
,7,3,3,3,-4,0,56,,train_dim1_2,4,30,,,,5,0,5,0,,,,,,,,,0,0,0,0,0,3,3,3,1,0,1,0,,,,,,,,,,,,,,,,,,,,,,,,,,,,,,,,,,,,,,,,,,,,,,,,,,,,,,,,,,,,,,,,30,,,,,,,,1203.988791699987,1203.988791699987,1203.988791699987,1203.988791699987,1203.988791699987,left,0.20945349987596273,3,0,0,99,0.24,-0.16,left,0.12014249991625547,,,,,,,,,,,,,,,,,,,,,,,,,,,,,,,,,,,,,,,,,,,,,,,,,,,,,,,,,,,,,D369YD,train_y,red_square,bottom_right,2025-06-27_16h09.06.301,HideSeek_v1,2022.2.5,59.95099600377018,
,7,3,3,3,-4,0,56,,train_dim1_2,4,30,,,,5,0,5,0,,,,,,,,,0,0,0,0,0,3,3,3,2,0,2,0,,,,,,,,,,,,,,,,,,,,,,,,,,,,,,,,,,,,,,,,,,,,,,,,,,,,,,,,,,,,,,,,30,,,,,,,,1204.2078579000663,1204.2078579000663,1204.2078579000663,1204.2078579000663,1204.2078579000663,left,2.008608599891886,3,0,0,99,0.15999999999999998,-0.16,left,1.9244825998321176,,,,,,,,,,,,,,,,,,,,,,,,,,,,,,,,,,,,,,,,,,,,,,,,,,,,,,,,,,,,,D369YD,train_y,red_square,bottom_right,2025-06-27_16h09.06.301,HideSeek_v1,2022.2.5,59.95099600377018,
,7,3,3,3,-4,0,56,,train_dim1_2,4,30,,,,5,0,5,0,,,,,,,,,0,0,0,0,0,3,3,3,3,0,3,0,,,,,,,,,,,,,,,,,,,,,,,,,,,,,,,,,,,,,,,,,,,,,,,,,,,,,,,,,,,,,,,,30,,,,,,,,1206.2245944000315,1206.2245944000315,1206.2245944000315,1206.2245944000315,1206.2245944000315,left,0.42672999994829297,3,0,0,99,0.07999999999999997,-0.16,left,0.3407684999983758,,,,,,,,,,,,,,,,,,,,,,,,,,,,,,,,,,,,,,,,,,,,,,,,,,,,,,,,,,,,,D369YD,train_y,red_square,bottom_right,2025-06-27_16h09.06.301,HideSeek_v1,2022.2.5,59.95099600377018,
,7,3,3,3,-4,0,56,,train_dim1_2,4,30,,,,5,0,5,0,,,,,,,,,0,0,0,0,0,3,3,3,4,0,4,0,,,,,,,,,,,,,,,,,,,,,,,,,,,,,,,,,,,,,,,,,,,,,,,,,,,,,,,,,,,,,,,,30,,,,,,,,1206.6579428000841,1206.6579428000841,1206.6579428000841,1206.6579428000841,1206.6579428000841,left,0.44302330003120005,3,0,0,99,-2.7755575615628914e-17,-0.16,left,0.36891070008277893,,,,,,,,,,,,,,,,,,,,,,,,,,,,,,,,,,,,,,,,,,,,,,,,,,,,,,,,,,,,,D369YD,train_y,red_square,bottom_right,2025-06-27_16h09.06.301,HideSeek_v1,2022.2.5,59.95099600377018,
,7,3,3,3,-4,0,56,,train_dim1_2,4,30,,,,5,0,5,0,,,,,,,,,0,0,0,0,0,3,3,3,5,0,5,0,,,,,,,,,,,,,,,,,,,,,,,,,,,,,,,,,,,,,,,,,,,,,,,,,,,,,,,,,,,,,,,,30,,,,,,,,1207.1071959000546,1207.1071959000546,1207.1071959000546,1207.1071959000546,1207.1071959000546,return,0.7105308000463992,3,1,0,0,-2.7755575615628914e-17,-0.16,return,0.6334939999505877,67,-11,-2.7755575615628914e-17,-0.16,,,,,,,,,,,,,,,,,,,,,,,,,,,,,,,,,,,,,,,,,,,,,,,,,,,,,,,,,D369YD,train_y,red_square,bottom_right,2025-06-27_16h09.06.301,HideSeek_v1,2022.2.5,59.95099600377018,
,5,2,0,2,-5,0,66,,train_dim1_2,5,30,,,,5,0,5,0,,,,,,,,,0,0,0,0,0,4,4,4,0,0,0,0,,,,,,,,,,,,,,,,,,,,,,,,,stimuli/alien_stimuli/66.png,,,,,,,,,,,,,,,,,,,,,,,,,,,,,stimuli/alien_stimuli/56.png,56,7,6,,,,,,,30,,,,,,,,1215.3781459999736,1215.3781459999736,1215.3781459999736,1215.3781459999736,1215.3781459999736,left,0.9367792999837548,3,1,0,99,0.15999999999999998,-0.24,left,0.8464762999210507,,,,,1213.8146182000637,1215.3781459999736,0.08,-0.16,0.0,0.32,-0.16,0.08,0.24000000000000002,0.08,-0.16,1209.3872754999902,1209.3872754999902,1209.3872754999902,1209.3872754999902,1209.3872754999902,1209.3872754999902,1209.3872754999902,1209.3872754999902,1209.3784393099604,4.538913999916986,return,4.409132299944758,,,,,,,,,,,,,,,,,,,,,,,,,,,,,,,,,,D369YD,train_y,red_square,bottom_right,2025-06-27_16h09.06.301,HideSeek_v1,2022.2.5,59.95099600377018,
,5,2,0,2,-5,0,66,,train_dim1_2,5,30,,,,5,0,5,0,,,,,,,,,0,0,0,0,0,4,4,4,1,0,1,0,,,,,,,,,,,,,,,,,,,,,,,,,,,,,,,,,,,,,,,,,,,,,,,,,,,,,,,,,,,,,,,,30,,,,,,,,1216.3135635999497,1216.3135635999497,1216.3135635999497,1216.3135635999497,1216.3135635999497,left,0.3429821999743581,3,1,0,99,0.07999999999999997,-0.24,left,0.26918910001404583,,,,,,,,,,,,,,,,,,,,,,,,,,,,,,,,,,,,,,,,,,,,,,,,,,,,,,,,,,,,,D369YD,train_y,red_square,bottom_right,2025-06-27_16h09.06.301,HideSeek_v1,2022.2.5,59.95099600377018,
