trialInstr,x_fixStart,y_fixStart,x_corrSteps,y_corrSteps,x_nrSteps,y_nrSteps,alienID,trialLength,version,trialTrain,praclen,testlen,trial_label,break_on_off,beforeExpLoop.thisRepN,beforeExpLoop.thisTrialN,beforeExpLoop.thisN,beforeExpLoop.thisIndex,mini_instr_trials.thisRepN,mini_instr_trials.thisTrialN,mini_instr_trials.thisN,mini_instr_trials.thisIndex,instrLoop.thisRepN,instrLoop.thisTrialN,instrLoop.thisN,instrLoop.thisIndex,repeat_prac.thisRepN,repeat_prac.thisTrialN,repeat_prac.thisN,repeat_prac.thisIndex,trainLoop.thisRepN,trainLoop.thisTrialN,trainLoop.thisN,trainLoop.thisIndex,moveLoop_train.thisRepN,moveLoop_train.thisTrialN,moveLoop_train.thisN,moveLoop_train.thisIndex,experiment.thisRepN,experiment.thisTrialN,experiment.thisN,experiment.thisIndex,moveLoop_test.thisRepN,moveLoop_test.thisTrialN,moveLoop_test.thisN,moveLoop_test.thisIndex,mini_instr2_trials.thisRepN,mini_instr2_trials.thisTrialN,mini_instr2_trials.thisN,mini_instr2_trials.thisIndex,start_all_time,url,slideStim,audioStim,slides.started,sounds.started,nextButton.numClicks,nextButton.timesOn,nextButton.timesOff,prev_but.numClicks,prev_but.timesOn,prev_but.timesOff,alienStim,instrFile,alienStim_instr,gridImage_instr.started,startPos_3.started,key_instr.started,alienImage_3.started,sounds_1.started,key_instr.keys,key_instr.rt,all_x,all_y,FBy_corrSteps,FBy_fixStart,FBx_corrSteps,FBx_fixStart,FBy_pathSize_check,FBx_pathSize_check,gridImage_9.started,alienImageFB_3.started,startPosFB_3.started,keyFB_3.started,pathLine_ydir_2.started,pathLine_xdir_2.started,alienFace_3.started,sounds_2.started,RTFB_instr,keyFB_3.keys,keyFB_3.rt,draw_alienStim,draw_alienID,test_x,nrepcount,perfthres,percthres,earlierperf,earlystop,nextPrac,fileidx,praclen,saveACC_train,pracFile,nextPrac_train,addNrep,fileidx_endr,repExp,showearly,gridImage_4.started,startPos.started,movePos.started,key_resp.started,alienImage.started,wLy_dir,wLx_dir,x_movePos,y_movePos,buttonPress_train,RTchoice_train,cumAcctrain,aCorr,saveACC_choice,corrAns,x_movePos_end,y_movePos_end,key_resp.keys,key_resp.rt,text_2.started,text_2.stopped,aft_x_corrPos,aft_y_corrPos,y_pathSize_check,x_pathSize_check,y_pathdirY,x_pathdirY,x_pathdirX,x_corrPos,y_corrPos,gridImage_6.started,alienImageFB_2.started,startPosFB_2.started,movePosFB_2.started,keyFB_2.started,pathLine_xdir.started,pathLine_ydir.started,alienFace.started,sounds_4.started,RT_FBtrain,keyFB_2.keys,keyFB_2.rt,saveACC_pre,ACC,within_saveACC_train,earlystop_wloop,cumAcctrain_check,gridImage_3.started,alienImage_test.started,startPos_test.started,movePos_test.started,key_resp_test.started,wLy_dir_test,wLx_dir_test,buttonPress_test,RTchoice_test,cumAcctest,corrAns_test,key_resp_test.keys,key_resp_test.rt,text_3.started,text_3.stopped,total_time,end_all_time,key_resp_3.keys,slides_2.started,sounds_3.started,nextButton_2.numClicks,nextButton_2.timesOn,nextButton_2.timesOff,prev_but_2.numClicks,prev_but_2.timesOn,prev_but_2.timesOff,bye.started,participant,train_first,00_coordinate,starting corner,date,expName,psychopyVersion,frameRate,
,,,,,,,,,,,,,,,0,0,0,0,0,0,0,0,,,,,,,,,,,,,,,,,,,,,,,,,,,,,start_all_time,testround,conditions/schedules/train_x_first/red_square_00/bottom_right/instructions/Slide1.png,conditions/schedules/train_x_first/red_square_00/bottom_right/instructions/Audio1.wav,1669.2433540000056,1669.1854740600802,1,[20.188066600007005],[20.188075600017328],0,,,,,,,,,,,,,,,,,,,,,,,,,,,,,,,,,,,,,,,,,,,,,,,,,,,,,,,,,,,,,,,,,,,,,,,,,,,,,,,,,,,,,,,,,,,,,,,,,,,,,,,,,,,,,,,,,,,,,,,,,,,,D5QAKR,train_x,red_square,bottom_right,2025-03-22_13h08.24.056,HideSeek_v1,2022.2.5,59.89946474338992,
,,,,,,,,,,,,,,,0,0,0,0,1,0,1,0,,,,,,,,,,,,,,,,,,,,,,,,,,,,,,,conditions/schedules/train_x_first/red_square_00/bottom_right/instructions/Slide2.png,conditions/schedules/train_x_first/red_square_00/bottom_right/instructions/Audio2.wav,1689.4627267000033,1689.4539600000135,2,"[20.188066600007005, 26.01060890001827]","[20.188075600017328, 26.01061510000727]",0,,,,,,,,,,,,,,,,,,,,,,,,,,,,,,,,,,,,,,,,,,,,,,,,,,,,,,,,,,,,,,,,,,,,,,,,,,,,,,,,,,,,,,,,,,,,,,,,,,,,,,,,,,,,,,,,,,,,,,,,,,,,D5QAKR,train_x,red_square,bottom_right,2025-03-22_13h08.24.056,HideSeek_v1,2022.2.5,59.89946474338992,
,,,,,,,,,,,,,,,0,0,0,0,2,0,2,0,,,,,,,,,,,,,,,,,,,,,,,,,,,,,,,conditions/schedules/train_x_first/red_square_00/bottom_right/instructions/Slide3.png,conditions/schedules/train_x_first/red_square_00/bottom_right/instructions/Audio3.wav,1715.553194100008,1715.542369600007,3,"[20.188066600007005, 26.01060890001827, 16.617381599993678]","[20.188075600017328, 0.0003069999802391976, 16.617388699989533]",0,,,,,,,,,,,,,,,,,,,,,,,,,,,,,,,,,,,,,,,,,,,,,,,,,,,,,,,,,,,,,,,,,,,,,,,,,,,,,,,,,,,,,,,,,,,,,,,,,,,,,,,,,,,,,,,,,,,,,,,,,,,,D5QAKR,train_x,red_square,bottom_right,2025-03-22_13h08.24.056,HideSeek_v1,2022.2.5,59.89946474338992,
,,,,,,,,,,,,,,,0,0,0,0,3,0,3,0,,,,,,,,,,,,,,,,,,,,,,,,,,,,,,,conditions/schedules/train_x_first/red_square_00/bottom_right/instructions/Slide4.png,conditions/schedules/train_x_first/red_square_00/bottom_right/instructions/Audio4.wav,1732.2488665999845,1732.2395358000067,4,"[20.188066600007005, 26.01060890001827, 16.617381599993678, 19.320618099998683]","[20.188075600017328, 0.0003069999802391976, 0.013993000000482425, 19.320624600019073]",0,,,,,,,,,,,,,,,,,,,,,,,,,,,,,,,,,,,,,,,,,,,,,,,,,,,,,,,,,,,,,,,,,,,,,,,,,,,,,,,,,,,,,,,,,,,,,,,,,,,,,,,,,,,,,,,,,,,,,,,,,,,,D5QAKR,train_x,red_square,bottom_right,2025-03-22_13h08.24.056,HideSeek_v1,2022.2.5,59.89946474338992,
,,,,,,,,,,,,,,,0,0,0,0,4,0,4,0,,,,,,,,,,,,,,,,,,,,,,,,,,,,,,,conditions/schedules/train_x_first/red_square_00/bottom_right/instructions/Slide5.png,conditions/schedules/train_x_first/red_square_00/bottom_right/instructions/Audio5.wav,1751.6340897000046,1751.6222329199898,5,"[20.188066600007005, 26.01060890001827, 16.617381599993678, 19.320618099998683, 4.773914099991089]","[20.188075600017328, 0.0003069999802391976, 0.013993000000482425, 0.014491900015855208, 4.773921899992274]",0,,,,,,,,,,,,,,,,,,,,,,,,,,,,,,,,,,,,,,,,,,,,,,,,,,,,,,,,,,,,,,,,,,,,,,,,,,,,,,,,,,,,,,,,,,,,,,,,,,,,,,,,,,,,,,,,,,,,,,,,,,,,D5QAKR,train_x,red_square,bottom_right,2025-03-22_13h08.24.056,HideSeek_v1,2022.2.5,59.89946474338992,
,,,,,,,,,,,,,,,0,0,0,0,5,0,5,0,,,,,,,,,,,,,,,,,,,,,,,,,,,,,,,conditions/schedules/train_x_first/red_square_00/bottom_right/instructions/Slide6.png,conditions/schedules/train_x_first/red_square_00/bottom_right/instructions/Audio6.wav,1756.4580987000081,1756.4596568199865,6,"[20.188066600007005, 26.01060890001827, 16.617381599993678, 19.320618099998683, 4.773914099991089, 4.969650100014405]","[20.188075600017328, 0.0003069999802391976, 0.013993000000482425, 0.014491900015855208, 0.032196099986322224, 4.969657899986487]",0,,,,,,,,,,,,,,,,,,,,,,,,,,,,,,,,,,,,,,,,,,,,,,,,,,,,,,,,,,,,,,,,,,,,,,,,,,,,,,,,,,,,,,,,,,,,,,,,,,,,,,,,,,,,,,,,,,,,,,,,,,,,D5QAKR,train_x,red_square,bottom_right,2025-03-22_13h08.24.056,HideSeek_v1,2022.2.5,59.89946474338992,
,,,,,,,,,,,,,,,0,0,0,0,6,0,6,0,,,,,,,,,,,,,,,,,,,,,,,,,,,,,,,conditions/schedules/train_x_first/red_square_00/bottom_right/instructions/Slide7.png,conditions/schedules/train_x_first/red_square_00/bottom_right/instructions/Audio7.wav,1761.4917546999932,1761.4802751199984,7,"[20.188066600007005, 26.01060890001827, 16.617381599993678, 19.320618099998683, 4.773914099991089, 4.969650100014405, 6.174741499999072]","[20.188075600017328, 0.0003069999802391976, 0.013993000000482425, 0.014491900015855208, 0.032196099986322224, 0.03604450001148507, 6.174748200020986]",0,,,,,,,,,,,,,,,,,,,,,,,,,,,,,,,,,,,,,,,,,,,,,,,,,,,,,,,,,,,,,,,,,,,,,,,,,,,,,,,,,,,,,,,,,,,,,,,,,,,,,,,,,,,,,,,,,,,,,,,,,,,,D5QAKR,train_x,red_square,bottom_right,2025-03-22_13h08.24.056,HideSeek_v1,2022.2.5,59.89946474338992,
,,,,,,,,,,,,,,,0,0,0,0,7,0,7,0,,,,,,,,,,,,,,,,,,,,,,,,,,,,,,,conditions/schedules/train_x_first/red_square_00/bottom_right/instructions/Slide8.png,conditions/schedules/train_x_first/red_square_00/bottom_right/instructions/Audio8.wav,1767.732328299986,1767.7189968200053,8,"[20.188066600007005, 26.01060890001827, 16.617381599993678, 19.320618099998683, 4.773914099991089, 4.969650100014405, 6.174741499999072, 11.460252999997465]","[20.188075600017328, 0.0003069999802391976, 0.013993000000482425, 0.014491900015855208, 0.032196099986322224, 0.03604450001148507, 0.03462029999354854, 11.460259499988751]",0,,,,,,,,,,,,,,,,,,,,,,,,,,,,,,,,,,,,,,,,,,,,,,,,,,,,,,,,,,,,,,,,,,,,,,,,,,,,,,,,,,,,,,,,,,,,,,,,,,,,,,,,,,,,,,,,,,,,,,,,,,,,D5QAKR,train_x,red_square,bottom_right,2025-03-22_13h08.24.056,HideSeek_v1,2022.2.5,59.89946474338992,
,,,,,,,,,,,,,,,0,0,0,0,8,0,8,0,,,,,,,,,,,,,,,,,,,,,,,,,,,,,,,conditions/schedules/train_x_first/red_square_00/bottom_right/instructions/Slide9.png,conditions/schedules/train_x_first/red_square_00/bottom_right/instructions/Audio9.wav,1779.262866200006,1779.2617359999858,9,"[20.188066600007005, 26.01060890001827, 16.617381599993678, 19.320618099998683, 4.773914099991089, 4.969650100014405, 6.174741499999072, 11.460252999997465, 6.268189399997937]","[20.188075600017328, 0.0003069999802391976, 0.013993000000482425, 0.014491900015855208, 0.032196099986322224, 0.03604450001148507, 0.03462029999354854, 0.014079199987463653, 6.2681961999915075]",0,,,,,,,,,,,,,,,,,,,,,,,,,,,,,,,,,,,,,,,,,,,,,,,,,,,,,,,,,,,,,,,,,,,,,,,,,,,,,,,,,,,,,,,,,,,,,,,,,,,,,,,,,,,,,,,,,,,,,,,,,,,,D5QAKR,train_x,red_square,bottom_right,2025-03-22_13h08.24.056,HideSeek_v1,2022.2.5,59.89946474338992,
,,,,,,,,,,,,,,,0,0,0,0,9,0,9,0,,,,,,,,,,,,,,,,,,,,,,,,,,,,,,,conditions/schedules/train_x_first/red_square_00/bottom_right/instructions/Slide10.png,conditions/schedules/train_x_first/red_square_00/bottom_right/instructions/Audio10.wav,1785.5684564000112,1785.567081739998,10,"[20.188066600007005, 26.01060890001827, 16.617381599993678, 19.320618099998683, 4.773914099991089, 4.969650100014405, 6.174741499999072, 11.460252999997465, 6.268189399997937, 7.118624199996702]","[20.188075600017328, 0.0003069999802391976, 0.013993000000482425, 0.014491900015855208, 0.032196099986322224, 0.03604450001148507, 0.03462029999354854, 0.014079199987463653, 0.06234790000598878, 7.118631599994842]",0,,,,,,,,,,,,,,,,,,,,,,,,,,,,,,,,,,,,,,,,,,,,,,,,,,,,,,,,,,,,,,,,,,,,,,,,,,,,,,,,,,,,,,,,,,,,,,,,,,,,,,,,,,,,,,,,,,,,,,,,,,,,D5QAKR,train_x,red_square,bottom_right,2025-03-22_13h08.24.056,HideSeek_v1,2022.2.5,59.89946474338992,
,,,,,,,,,,,,,,,0,0,0,0,10,0,10,0,,,,,,,,,,,,,,,,,,,,,,,,,,,,,,,conditions/schedules/train_x_first/red_square_00/bottom_right/instructions/Slide11.png,conditions/schedules/train_x_first/red_square_00/bottom_right/instructions/Audio11.wav,1792.7607880999858,1792.7565166999993,11,"[20.188066600007005, 26.01060890001827, 16.617381599993678, 19.320618099998683, 4.773914099991089, 4.969650100014405, 6.174741499999072, 11.460252999997465, 6.268189399997937, 7.118624199996702, 9.452595300012035]","[20.188075600017328, 0.0003069999802391976, 0.013993000000482425, 0.014491900015855208, 0.032196099986322224, 0.03604450001148507, 0.03462029999354854, 0.014079199987463653, 0.06234790000598878, 0.014259600022342056, 9.45260240000789]",0,,,,,,,,,,,,,,,,,,,,,,,,,,,,,,,,,,,,,,,,,,,,,,,,,,,,,,,,,,,,,,,,,,,,,,,,,,,,,,,,,,,,,,,,,,,,,,,,,,,,,,,,,,,,,,,,,,,,,,,,,,,,D5QAKR,train_x,red_square,bottom_right,2025-03-22_13h08.24.056,HideSeek_v1,2022.2.5,59.89946474338992,
,,,,,,,,,,,,,,,0,0,0,0,11,0,11,0,,,,,,,,,,,,,,,,,,,,,,,,,,,,,,,conditions/schedules/train_x_first/red_square_00/bottom_right/instructions/Slide12.png,conditions/schedules/train_x_first/red_square_00/bottom_right/instructions/Audio12.wav,1802.2852349999885,1802.2810484000074,12,"[20.188066600007005, 26.01060890001827, 16.617381599993678, 19.320618099998683, 4.773914099991089, 4.969650100014405, 6.174741499999072, 11.460252999997465, 6.268189399997937, 7.118624199996702, 9.452595300012035, 12.77060530000017]","[20.188075600017328, 0.0003069999802391976, 0.013993000000482425, 0.014491900015855208, 0.032196099986322224, 0.03604450001148507, 0.03462029999354854, 0.014079199987463653, 0.06234790000598878, 0.014259600022342056, 0.030572099989512935, 12.770615499990527]",0,,,,,,,,,,,,,,,,,,,,,,,,,,,,,,,,,,,,,,,,,,,,,,,,,,,,,,,,,,,,,,,,,,,,,,,,,,,,,,,,,,,,,,,,,,,,,,,,,,,,,,,,,,,,,,,,,,,,,,,,,,,,D5QAKR,train_x,red_square,bottom_right,2025-03-22_13h08.24.056,HideSeek_v1,2022.2.5,59.89946474338992,
1,8,2,3,2,-5,0,66,2,instr_dim1_1,,,,,,0,0,0,0,,,,,0,0,0,0,,,,,,,,,,,,,,,,,,,,,,,,,,,,,,,,,,,,,stimuli/alien_stimuli/66.png,conditions/schedules/train_x_first/red_square_00/bottom_right/inputInstr_1.xlsx,stimuli/alien_stimuli/66.png,1815.1580465000006,1815.1580465000006,1815.1580465000006,1815.1580465000006,1815.1587703600062,return,8.108716699993238,"[-0.16, -0.08, 0, 0.08, 0.16, 0.24, 0.32, 0.4, 0.48, 0.56]","[-0.4, -0.32, -0.24, -0.16, -0.08, 0, 0.08, 0.16, 0.24, 0.32]",2,2,3,8,0.0,0.4,1823.4239573999948,1823.4239573999948,1823.4239573999948,1823.4239573999948,1823.4239573999948,1823.4239573999948,1823.4239573999948,1823.4152291400126,8.524498500017216,return,8.366226100013591,stimuli/alien_stimuli/66.png,66,8,1,,,,,,,,,,,,,,,,,,,,,,,,,,,,,,,,,,,,,,,,,,,,,,,,,,,,,,,,,,,,,,,,,,,,,,,,,,,,,,,,,,,,,,,,,D5QAKR,train_x,red_square,bottom_right,2025-03-22_13h08.24.056,HideSeek_v1,2022.2.5,59.89946474338992,
,,,,,,,,,,,30,,,,0,0,0,0,,,,,,,,,,,,,,,,,,,,,,,,,,,,,,,,,,,,,,,,,,,,,,,,,,,,,,,,,,,,,,,,,,,,,,,,,,,,,,21,0.7,0,0,99,1,30,0,conditions/schedules/train_x_first/red_square_00/bottom_right/inputTrain_1.1.xlsx,99,1,1,1,0,,,,,,,,,,,,,,,,,,,,,,,,,,,,,,,,,,,,,,,,,,,,,,,,,,,,,,,,,,,,,,,,,,,,,,,,,,,D5QAKR,train_x,red_square,bottom_right,2025-03-22_13h08.24.056,HideSeek_v1,2022.2.5,59.89946474338992,
,,,,,,,,,,,,,,,1,0,1,0,0,0,0,0,,,,,,,,,,,,,,,,,,,,,,,,,,,,,,,conditions/schedules/train_x_first/red_square_00/bottom_right/instructions/Slide13.png,conditions/schedules/train_x_first/red_square_00/bottom_right/instructions/Audio13.wav,1831.9500857999956,1831.9388617400139,13,"[20.188066600007005, 26.01060890001827, 16.617381599993678, 19.320618099998683, 4.773914099991089, 4.969650100014405, 6.174741499999072, 11.460252999997465, 6.268189399997937, 7.118624199996702, 9.452595300012035, 12.77060530000017, 18.334654199978104]","[20.188075600017328, 0.0003069999802391976, 0.013993000000482425, 0.014491900015855208, 0.032196099986322224, 0.03604450001148507, 0.03462029999354854, 0.014079199987463653, 0.06234790000598878, 0.014259600022342056, 0.030572099989512935, 12.770615499990527, 18.33466100000078]",0,,,,,,,,,,,,,,,,,,,,,,,,,,,,,,,,,,,,,,,,,,,,,,,,,,,,,,,,,,,,,,,,,,,,,,,,,,,,,,,,,,,,,,,,,,,,,,,,,,,,,,,,,,,,,,,,,,,,,,,,,,,,D5QAKR,train_x,red_square,bottom_right,2025-03-22_13h08.24.056,HideSeek_v1,2022.2.5,59.89946474338992,
,,,,,,,,,,,,,,,1,0,1,0,1,0,1,0,,,,,,,,,,,,,,,,,,,,,,,,,,,,,,,conditions/schedules/train_x_first/red_square_00/bottom_right/instructions/Slide14.png,conditions/schedules/train_x_first/red_square_00/bottom_right/instructions/Audio14.wav,1850.3540760999895,1850.3544129999937,14,"[20.188066600007005, 26.01060890001827, 16.617381599993678, 19.320618099998683, 4.773914099991089, 4.969650100014405, 6.174741499999072, 11.460252999997465, 6.268189399997937, 7.118624199996702, 9.452595300012035, 12.77060530000017, 18.334654199978104, 13.125747099984437]","[20.188075600017328, 0.0003069999802391976, 0.013993000000482425, 0.014491900015855208, 0.032196099986322224, 0.03604450001148507, 0.03462029999354854, 0.014079199987463653, 0.06234790000598878, 0.014259600022342056, 0.030572099989512935, 12.770615499990527, 0.03169430000707507, 13.125753900007112]",0,,,,,,,,,,,,,,,,,,,,,,,,,,,,,,,,,,,,,,,,,,,,,,,,,,,,,,,,,,,,,,,,,,,,,,,,,,,,,,,,,,,,,,,,,,,,,,,,,,,,,,,,,,,,,,,,,,,,,,,,,,,,D5QAKR,train_x,red_square,bottom_right,2025-03-22_13h08.24.056,HideSeek_v1,2022.2.5,59.89946474338992,
2,9,0,9,0,0,0,16,2,instr_dim1_1,,,,,,1,0,1,0,,,,,0,0,0,0,,,,,,,,,,,,,,,,,,,,,,,,,,,,,,,,,,,,,stimuli/alien_stimuli/16.png,conditions/schedules/train_x_first/red_square_00/bottom_right/inputInstr_1.xlsx,stimuli/alien_stimuli/16.png,1863.5827642999939,1863.5827642999939,1863.5827642999939,1863.5827642999939,1863.5821145599884,return,5.489346099988325,"[-0.16, -0.08, 0, 0.08, 0.16, 0.24, 0.32, 0.4, 0.48, 0.56]","[-0.4, -0.32, -0.24, -0.16, -0.08, 0, 0.08, 0.16, 0.24, 0.32]",0,0,9,9,0.0,0.0,1869.2434267000062,1869.2434267000062,1869.2434267000062,1869.2434267000062,1869.2434267000062,1869.2434267000062,1869.2434267000062,1869.2364343200113,9.776259400008712,return,9.616023299982771,stimuli/alien_stimuli/16.png,16,9,2,,,,,,,,,,,,,,,,,,,,,,,,,,,,,,,,,,,,,,,,,,,,,,,,,,,,,,,,,,,,,,,,,,,,,,,,,,,,,,,,,,,,,,,,,D5QAKR,train_x,red_square,bottom_right,2025-03-22_13h08.24.056,HideSeek_v1,2022.2.5,59.89946474338992,
,,,,,,,,,,,30,,,,1,0,1,0,,,,,,,,,,,,,,,,,,,,,,,,,,,,,,,,,,,,,,,,,,,,,,,,,,,,,,,,,,,,,,,,,,,,,,,,,,,,,,21,0.7,0,0,99,1,30,0,conditions/schedules/train_x_first/red_square_00/bottom_right/inputTrain_1.1.xlsx,99,1,1,1,0,,,,,,,,,,,,,,,,,,,,,,,,,,,,,,,,,,,,,,,,,,,,,,,,,,,,,,,,,,,,,,,,,,,,,,,,,,,D5QAKR,train_x,red_square,bottom_right,2025-03-22_13h08.24.056,HideSeek_v1,2022.2.5,59.89946474338992,
,,,,,,,,,,,,,,,2,0,2,0,0,0,0,0,,,,,,,,,,,,,,,,,,,,,,,,,,,,,,,conditions/schedules/train_x_first/red_square_00/bottom_right/instructions/Slide15.png,conditions/schedules/train_x_first/red_square_00/bottom_right/instructions/Audio15.wav,1879.0174383000121,1879.0114740199876,15,"[20.188066600007005, 26.01060890001827, 16.617381599993678, 19.320618099998683, 4.773914099991089, 4.969650100014405, 6.174741499999072, 11.460252999997465, 6.268189399997937, 7.118624199996702, 9.452595300012035, 12.77060530000017, 18.334654199978104, 13.125747099984437, 30.466207399993436]","[20.188075600017328, 0.0003069999802391976, 0.013993000000482425, 0.014491900015855208, 0.032196099986322224, 0.03604450001148507, 0.03462029999354854, 0.014079199987463653, 0.06234790000598878, 0.014259600022342056, 0.030572099989512935, 12.770615499990527, 0.03169430000707507, 13.125753900007112, 30.46621439998853]",0,,,,,,,,,,,,,,,,,,,,,,,,,,,,,,,,,,,,,,,,,,,,,,,,,,,,,,,,,,,,,,,,,,,,,,,,,,,,,,,,,,,,,,,,,,,,,,,,,,,,,,,,,,,,,,,,,,,,,,,,,,,,D5QAKR,train_x,red_square,bottom_right,2025-03-22_13h08.24.056,HideSeek_v1,2022.2.5,59.89946474338992,
,,,,,,,,,,,,,,,2,0,2,0,1,0,1,0,,,,,,,,,,,,,,,,,,,,,,,,,,,,,,,conditions/schedules/train_x_first/red_square_00/bottom_right/instructions/Slide16.png,conditions/schedules/train_x_first/red_square_00/bottom_right/instructions/Audio16.wav,1909.551377099997,1909.553379799996,16,"[20.188066600007005, 26.01060890001827, 16.617381599993678, 19.320618099998683, 4.773914099991089, 4.969650100014405, 6.174741499999072, 11.460252999997465, 6.268189399997937, 7.118624199996702, 9.452595300012035, 12.77060530000017, 18.334654199978104, 13.125747099984437, 30.466207399993436, 21.567596400011098]","[20.188075600017328, 0.0003069999802391976, 0.013993000000482425, 0.014491900015855208, 0.032196099986322224, 0.03604450001148507, 0.03462029999354854, 0.014079199987463653, 0.06234790000598878, 0.014259600022342056, 0.030572099989512935, 12.770615499990527, 0.03169430000707507, 13.125753900007112, 0.099757399992086, 21.567603800009238]",0,,,,,,,,,,,,,,,,,,,,,,,,,,,,,,,,,,,,,,,,,,,,,,,,,,,,,,,,,,,,,,,,,,,,,,,,,,,,,,,,,,,,,,,,,,,,,,,,,,,,,,,,,,,,,,,,,,,,,,,,,,,,D5QAKR,train_x,red_square,bottom_right,2025-03-22_13h08.24.056,HideSeek_v1,2022.2.5,59.89946474338992,
,7,1,4,1,-3,0,46,,train_dim1_1,1,30,,,,2,0,2,0,,,,,,,,,0,0,0,0,0,0,0,0,0,0,0,0,,,,,,,,,,,,,,,,,,,,,,,,,stimuli/alien_stimuli/46.png,,,,,,,,,,,,,,,,,,,,,,,,,,,,,,,,,,,,,,,30,,,,,,,,1931.2164457000035,1931.2164457000035,1931.2164457000035,1931.2164457000035,1931.2164457000035,0,0,0.4,-0.32,return,2.5976583999872673,0,0,0,0,0.4,-0.32,return,2.4942865000048187,,,,,,,,,,,,,,,,,,,,,,,,,,,,,,,,,,,,,,,,,,,,,,,,,,,,,,,,D5QAKR,train_x,red_square,bottom_right,2025-03-22_13h08.24.056,HideSeek_v1,2022.2.5,59.89946474338992,
,7,4,7,4,0,0,16,,train_dim1_1,2,30,,,,2,0,2,0,,,,,,,,,0,0,0,0,0,1,1,1,0,0,0,0,,,,,,,,,,,,,,,,,,,,,,,,,stimuli/alien_stimuli/16.png,,,,,,,,,,,,,,,,,,,,,,,,,,,,,stimuli/alien_stimuli/46.png,46,7,3,,,,,,,30,,,,,,,,1967.0294200000062,1967.0294200000062,1967.0294200000062,1967.0294200000062,1967.0294200000062,,,,,left,19.872104100009892,0,0,0,99,0.32,-0.08,left,19.76002470002277,1965.449511099985,1967.0294200000062,0.16,-0.32,0.0,0.24,-0.32,0.16,0.28,0.16,-0.32,1935.3669932000048,1935.3669932000048,1935.3669932000048,1935.3669932000048,1935.3669932000048,1935.3669932000048,1935.3669932000048,1935.3669932000048,1935.3581894599893,30.193941400008043,return,30.05136459998903,,,,,,,,,,,,,,,,,,,,,,,,,,,,,,,,,D5QAKR,train_x,red_square,bottom_right,2025-03-22_13h08.24.056,HideSeek_v1,2022.2.5,59.89946474338992,
,7,4,7,4,0,0,16,,train_dim1_1,2,30,,,,2,0,2,0,,,,,,,,,0,0,0,0,0,1,1,1,1,0,1,0,,,,,,,,,,,,,,,,,,,,,,,,,,,,,,,,,,,,,,,,,,,,,,,,,,,,,,,,,,,,,,,,30,,,,,,,,1986.9033103999973,1986.9033103999973,1986.9033103999973,1986.9033103999973,1986.9033103999973,,,,,left,2.7606882999825757,0,0,0,99,0.24,-0.08,left,2.656249799998477,,,,,,,,,,,,,,,,,,,,,,,,,,,,,,,,,,,,,,,,,,,,,,,,,,,,,,,,D5QAKR,train_x,red_square,bottom_right,2025-03-22_13h08.24.056,HideSeek_v1,2022.2.5,59.89946474338992,
,7,4,7,4,0,0,16,,train_dim1_1,2,30,,,,2,0,2,0,,,,,,,,,0,0,0,0,0,1,1,1,2,0,2,0,,,,,,,,,,,,,,,,,,,,,,,,,,,,,,,,,,,,,,,,,,,,,,,,,,,,,,,,,,,,,,,,30,,,,,,,,1989.6541623999947,1989.6541623999947,1989.6541623999947,1989.6541623999947,1989.6541623999947,,,,,down,2.1949600000225473,0,0,0,99,0.24,-0.16,down,2.106427699996857,,,,,,,,,,,,,,,,,,,,,,,,,,,,,,,,,,,,,,,,,,,,,,,,,,,,,,,,D5QAKR,train_x,red_square,bottom_right,2025-03-22_13h08.24.056,HideSeek_v1,2022.2.5,59.89946474338992,
,7,4,7,4,0,0,16,,train_dim1_1,2,30,,,,2,0,2,0,,,,,,,,,0,0,0,0,0,1,1,1,3,0,3,0,,,,,,,,,,,,,,,,,,,,,,,,,,,,,,,,,,,,,,,,,,,,,,,,,,,,,,,,,,,,,,,,30,,,,,,,,1991.858417200012,1991.858417200012,1991.858417200012,1991.858417200012,1991.858417200012,-1,-2,0.24,-0.16,return,2.308617900009267,0,0,0,0,0.24,-0.16,return,2.2172148000099696,,,,,,,,,,,,,,,,,,,,,,,,,,,,,,,,,,,,,,,,,,,,,,,,,,,,,,,,D5QAKR,train_x,red_square,bottom_right,2025-03-22_13h08.24.056,HideSeek_v1,2022.2.5,59.89946474338992,
,9,4,8,4,-1,0,26,,train_dim1_1,3,30,,,,2,0,2,0,,,,,,,,,0,0,0,0,0,2,2,2,0,0,0,0,,,,,,,,,,,,,,,,,,,,,,,,,stimuli/alien_stimuli/26.png,,,,,,,,,,,,,,,,,,,,,,,,,,,,,stimuli/alien_stimuli/16.png,16,7,4,,,,,,,30,,,,,,,,2002.7753832000017,2002.7753832000017,2002.7753832000017,2002.7753832000017,2002.7753832000017,,,,,left,19.42182440002216,0,0,0,99,0.48000000000000004,-0.08,left,19.33451790001709,2001.2129217000038,2002.7753832000017,0.4,-0.08,0.0,0.0,-0.08,0.4,0.4,0.4,-0.08,1995.7434889999859,1995.7434889999859,1995.7434889999859,1995.7434889999859,1995.7434889999859,1995.7434889999859,1995.7434889999859,1995.7434889999859,1995.7248546599994,5.590588799997931,return,5.453662699990673,,,,,,,,,,,,,,,,,,,,,,,,,,,,,,,,,D5QAKR,train_x,red_square,bottom_right,2025-03-22_13h08.24.056,HideSeek_v1,2022.2.5,59.89946474338992,
,9,4,8,4,-1,0,26,,train_dim1_1,3,30,,,,2,0,2,0,,,,,,,,,0,0,0,0,0,2,2,2,1,0,1,0,,,,,,,,,,,,,,,,,,,,,,,,,,,,,,,,,,,,,,,,,,,,,,,,,,,,,,,,,,,,,,,,30,,,,,,,,2022.20914739999,2022.20914739999,2022.20914739999,2022.20914739999,2022.20914739999,,,,,left,1.5441274000040721,0,0,0,99,0.4,-0.08,left,1.4462669000204187,,,,,,,,,,,,,,,,,,,,,,,,,,,,,,,,,,,,,,,,,,,,,,,,,,,,,,,,D5QAKR,train_x,red_square,bottom_right,2025-03-22_13h08.24.056,HideSeek_v1,2022.2.5,59.89946474338992,
,9,4,8,4,-1,0,26,,train_dim1_1,3,30,,,,2,0,2,0,,,,,,,,,0,0,0,0,0,2,2,2,2,0,2,0,,,,,,,,,,,,,,,,,,,,,,,,,,,,,,,,,,,,,,,,,,,,,,,,,,,,,,,,,,,,,,,,30,,,,,,,,2023.7489752999973,2023.7489752999973,2023.7489752999973,2023.7489752999973,2023.7489752999973,,,,,left,0.9937863999803085,0,0,0,99,0.32,-0.08,left,0.9166045000310987,,,,,,,,,,,,,,,,,,,,,,,,,,,,,,,,,,,,,,,,,,,,,,,,,,,,,,,,D5QAKR,train_x,red_square,bottom_right,2025-03-22_13h08.24.056,HideSeek_v1,2022.2.5,59.89946474338992,
,9,4,8,4,-1,0,26,,train_dim1_1,3,30,,,,2,0,2,0,,,,,,,,,0,0,0,0,0,2,2,2,3,0,3,0,,,,,,,,,,,,,,,,,,,,,,,,,,,,,,,,,,,,,,,,,,,,,,,,,,,,,,,,,,,,,,,,30,,,,,,,,2024.7491156999895,2024.7491156999895,2024.7491156999895,2024.7491156999895,2024.7491156999895,,,,,up,2.3612911000091117,0,0,0,99,0.32,0.0,up,2.275639300001785,,,,,,,,,,,,,,,,,,,,,,,,,,,,,,,,,,,,,,,,,,,,,,,,,,,,,,,,D5QAKR,train_x,red_square,bottom_right,2025-03-22_13h08.24.056,HideSeek_v1,2022.2.5,59.89946474338992,
,9,4,8,4,-1,0,26,,train_dim1_1,3,30,,,,2,0,2,0,,,,,,,,,0,0,0,0,0,2,2,2,4,0,4,0,,,,,,,,,,,,,,,,,,,,,,,,,,,,,,,,,,,,,,,,,,,,,,,,,,,,,,,,,,,,,,,,30,,,,,,,,2027.1175363000075,2027.1175363000075,2027.1175363000075,2027.1175363000075,2027.1175363000075,0,-5,0.32,0.0,return,1.4774966999830212,0,0,0,0,0.32,0.0,return,1.402033999998821,,,,,,,,,,,,,,,,,,,,,,,,,,,,,,,,,,,,,,,,,,,,,,,,,,,,,,,,D5QAKR,train_x,red_square,bottom_right,2025-03-22_13h08.24.056,HideSeek_v1,2022.2.5,59.89946474338992,
,7,3,3,3,-4,0,56,,train_dim1_1,4,30,,,,2,0,2,0,,,,,,,,,0,0,0,0,0,3,3,3,0,0,0,0,,,,,,,,,,,,,,,,,,,,,,,,,stimuli/alien_stimuli/56.png,,,,,,,,,,,,,,,,,,,,,,,,,,,,,stimuli/alien_stimuli/26.png,26,9,5,,,,,,,30,,,,,,,,2036.9521585000039,2036.9521585000039,2036.9521585000039,2036.9521585000039,2036.9521585000039,,,,,left,3.174374900001567,0,0,0,99,0.32,-0.16,left,3.080751900008181,2035.3913043999928,2036.9521585000039,0.48,-0.08,0.0,0.08,-0.08,0.48,0.52,0.48,-0.08,2030.1741048000113,2030.1741048000113,2030.1741048000113,2030.1741048000113,2030.1741048000113,2030.1741048000113,2030.1741048000113,2030.1741048000113,2030.153310059989,5.34054579999065,return,5.192808599997079,,,,,,,,,,,,,,,,,,,,,,,,,,,,,,,,,D5QAKR,train_x,red_square,bottom_right,2025-03-22_13h08.24.056,HideSeek_v1,2022.2.5,59.89946474338992,
,7,3,3,3,-4,0,56,,train_dim1_1,4,30,,,,2,0,2,0,,,,,,,,,0,0,0,0,0,3,3,3,1,0,1,0,,,,,,,,,,,,,,,,,,,,,,,,,,,,,,,,,,,,,,,,,,,,,,,,,,,,,,,,,,,,,,,,30,,,,,,,,2040.127852000005,2040.127852000005,2040.127852000005,2040.127852000005,2040.127852000005,,,,,down,2.360691500012763,0,0,0,99,0.32,-0.24,down,2.2747757000033744,,,,,,,,,,,,,,,,,,,,,,,,,,,,,,,,,,,,,,,,,,,,,,,,,,,,,,,,D5QAKR,train_x,red_square,bottom_right,2025-03-22_13h08.24.056,HideSeek_v1,2022.2.5,59.89946474338992,
,7,3,3,3,-4,0,56,,train_dim1_1,4,30,,,,2,0,2,0,,,,,,,,,0,0,0,0,0,3,3,3,2,0,2,0,,,,,,,,,,,,,,,,,,,,,,,,,,,,,,,,,,,,,,,,,,,,,,,,,,,,,,,,,,,,,,,,30,,,,,,,,2042.4962643999897,2042.4962643999897,2042.4962643999897,2042.4962643999897,2042.4962643999897,,,,,right,1.3432382000028156,0,0,0,99,0.4,-0.24,right,1.2602661999990232,,,,,,,,,,,,,,,,,,,,,,,,,,,,,,,,,,,,,,,,,,,,,,,,,,,,,,,,D5QAKR,train_x,red_square,bottom_right,2025-03-22_13h08.24.056,HideSeek_v1,2022.2.5,59.89946474338992,
,7,3,3,3,-4,0,56,,train_dim1_1,4,30,,,,2,0,2,0,,,,,,,,,0,0,0,0,0,3,3,3,3,0,3,0,,,,,,,,,,,,,,,,,,,,,,,,,,,,,,,,,,,,,,,,,,,,,,,,,,,,,,,,,,,,,,,,30,,,,,,,,2043.8471350999898,2043.8471350999898,2043.8471350999898,2043.8471350999898,2043.8471350999898,,,,,right,1.0435903000179678,0,0,0,99,0.48000000000000004,-0.24,right,0.9533530000189785,,,,,,,,,,,,,,,,,,,,,,,,,,,,,,,,,,,,,,,,,,,,,,,,,,,,,,,,D5QAKR,train_x,red_square,bottom_right,2025-03-22_13h08.24.056,HideSeek_v1,2022.2.5,59.89946474338992,
,7,3,3,3,-4,0,56,,train_dim1_1,4,30,,,,2,0,2,0,,,,,,,,,0,0,0,0,0,3,3,3,4,0,4,0,,,,,,,,,,,,,,,,,,,,,,,,,,,,,,,,,,,,,,,,,,,,,,,,,,,,,,,,,,,,,,,,30,,,,,,,,2044.8971727000026,2044.8971727000026,2044.8971727000026,2044.8971727000026,2044.8971727000026,,,,,up,0.9769181000010576,0,0,0,99,0.48000000000000004,-0.15999999999999998,up,0.8959605000272859,,,,,,,,,,,,,,,,,,,,,,,,,,,,,,,,,,,,,,,,,,,,,,,,,,,,,,,,D5QAKR,train_x,red_square,bottom_right,2025-03-22_13h08.24.056,HideSeek_v1,2022.2.5,59.89946474338992,
,7,3,3,3,-4,0,56,,train_dim1_1,4,30,,,,2,0,2,0,,,,,,,,,0,0,0,0,0,3,3,3,5,0,5,0,,,,,,,,,,,,,,,,,,,,,,,,,,,,,,,,,,,,,,,,,,,,,,,,,,,,,,,,,,,,,,,,30,,,,,,,,2045.8802851999935,2045.8802851999935,2045.8802851999935,2045.8802851999935,2045.8802851999935,0,-4,0.48000000000000004,-0.15999999999999998,return,0.8107111999997869,0,0,0,0,0.48000000000000004,-0.15999999999999998,return,0.7231776000116952,,,,,,,,,,,,,,,,,,,,,,,,,,,,,,,,,,,,,,,,,,,,,,,,,,,,,,,,D5QAKR,train_x,red_square,bottom_right,2025-03-22_13h08.24.056,HideSeek_v1,2022.2.5,59.89946474338992,
,5,2,0,2,-5,0,66,,train_dim1_1,5,30,,,,2,0,2,0,,,,,,,,,0,0,0,0,0,4,4,4,0,0,0,0,,,,,,,,,,,,,,,,,,,,,,,,,stimuli/alien_stimuli/66.png,,,,,,,,,,,,,,,,,,,,,,,,,,,,,stimuli/alien_stimuli/56.png,56,7,6,,,,,,,30,,,,,,,,2052.4786167999846,2052.4786167999846,2052.4786167999846,2052.4786167999846,2052.4786167999846,,,,,up,3.575422299996717,0,0,0,99,0.24,-0.15999999999999998,up,3.487970000016503,2050.920670499996,2052.4786167999846,0.08,-0.16,0.0,0.32,-0.16,0.08,0.24000000000000002,0.08,-0.16,2048.2671554000117,2048.2671554000117,2048.2671554000117,2048.2671554000117,2048.2671554000117,2048.2671554000117,2048.2671554000117,2048.2671554000117,2048.2519441600134,2.771100200014189,return,2.6320972999965306,,,,,,,,,,,,,,,,,,,,,,,,,,,,,,,,,D5QAKR,train_x,red_square,bottom_right,2025-03-22_13h08.24.056,HideSeek_v1,2022.2.5,59.89946474338992,
,5,2,0,2,-5,0,66,,train_dim1_1,5,30,,,,2,0,2,0,,,,,,,,,0,0,0,0,0,4,4,4,1,0,1,0,,,,,,,,,,,,,,,,,,,,,,,,,,,,,,,,,,,,,,,,,,,,,,,,,,,,,,,,,,,,,,,,30,,,,,,,,2056.0547200999863,2056.0547200999863,2056.0547200999863,2056.0547200999863,2056.0547200999863,,,,,up,1.4102993000124115,0,0,0,99,0.24,-0.07999999999999997,up,1.32307509999373,,,,,,,,,,,,,,,,,,,,,,,,,,,,,,,,,,,,,,,,,,,,,,,,,,,,,,,,D5QAKR,train_x,red_square,bottom_right,2025-03-22_13h08.24.056,HideSeek_v1,2022.2.5,59.89946474338992,
,5,2,0,2,-5,0,66,,train_dim1_1,5,30,,,,2,0,2,0,,,,,,,,,0,0,0,0,0,4,4,4,2,0,2,0,,,,,,,,,,,,,,,,,,,,,,,,,,,,,,,,,,,,,,,,,,,,,,,,,,,,,,,,,,,,,,,,30,,,,,,,,2057.4723196999985,2057.4723196999985,2057.4723196999985,2057.4723196999985,2057.4723196999985,2,-4,0.24,-0.07999999999999997,return,3.3291197999787983,0,0,0,0,0.24,-0.07999999999999997,return,3.255068800004665,,,,,,,,,,,,,,,,,,,,,,,,,,,,,,,,,,,,,,,,,,,,,,,,,,,,,,,,D5QAKR,train_x,red_square,bottom_right,2025-03-22_13h08.24.056,HideSeek_v1,2022.2.5,59.89946474338992,
,5,0,4,0,-1,0,26,,train_dim1_1,6,30,,,,2,0,2,0,,,,,,,,,0,0,0,0,0,5,5,5,0,0,0,0,,,,,,,,,,,,,,,,,,,,,,,,,stimuli/alien_stimuli/26.png,,,,,,,,,,,,,,,,,,,,,,,,,,,,,stimuli/alien_stimuli/66.png,66,5,7,,,,,,,30,,,,,,,,2066.620406000002,2066.620406000002,2066.620406000002,2066.620406000002,2066.620406000002,,,,,up,1.882958400005009,0,0,0,99,0.24,-0.32,up,1.7897722000197973,2065.0492191000085,2066.620406000002,-0.16,-0.24,0.0,0.4,-0.24,-0.16,0.039999999999999994,-0.16,-0.24,2062.3782480999944,2062.3782480999944,2062.3782480999944,2062.3782480999944,2062.3782480999944,2062.3782480999944,2062.3782480999944,2062.3782480999944,2062.363489160006,2.788133399997605,return,2.6414876999915577,,,,,,,,,,,,,,,,,,,,,,,,,,,,,,,,,D5QAKR,train_x,red_square,bottom_right,2025-03-22_13h08.24.056,HideSeek_v1,2022.2.5,59.89946474338992,
,5,0,4,0,-1,0,26,,train_dim1_1,6,30,,,,2,0,2,0,,,,,,,,,0,0,0,0,0,5,5,5,1,0,1,0,,,,,,,,,,,,,,,,,,,,,,,,,,,,,,,,,,,,,,,,,,,,,,,,,,,,,,,,,,,,,,,,30,,,,,,,,2068.5050413999998,2068.5050413999998,2068.5050413999998,2068.5050413999998,2068.5050413999998,,,,,up,0.3092983999813441,0,0,0,99,0.24,-0.24,up,0.22634609998203814,,,,,,,,,,,,,,,,,,,,,,,,,,,,,,,,,,,,,,,,,,,,,,,,,,,,,,,,D5QAKR,train_x,red_square,bottom_right,2025-03-22_13h08.24.056,HideSeek_v1,2022.2.5,59.89946474338992,
,5,0,4,0,-1,0,26,,train_dim1_1,6,30,,,,2,0,2,0,,,,,,,,,0,0,0,0,0,5,5,5,2,0,2,0,,,,,,,,,,,,,,,,,,,,,,,,,,,,,,,,,,,,,,,,,,,,,,,,,,,,,,,,,,,,,,,,30,,,,,,,,2068.818726199999,2068.818726199999,2068.818726199999,2068.818726199999,2068.818726199999,,,,,up,0.3100745999836363,0,0,0,99,0.24,-0.15999999999999998,up,0.2199228000245057,,,,,,,,,,,,,,,,,,,,,,,,,,,,,,,,,,,,,,,,,,,,,,,,,,,,,,,,D5QAKR,train_x,red_square,bottom_right,2025-03-22_13h08.24.056,HideSeek_v1,2022.2.5,59.89946474338992,
,5,0,4,0,-1,0,26,,train_dim1_1,6,30,,,,2,0,2,0,,,,,,,,,0,0,0,0,0,5,5,5,3,0,3,0,,,,,,,,,,,,,,,,,,,,,,,,,,,,,,,,,,,,,,,,,,,,,,,,,,,,,,,,,,,,,,,,30,,,,,,,,2069.135875600012,2069.135875600012,2069.135875600012,2069.135875600012,2069.135875600012,,,,,up,0.5431527000037022,0,0,0,99,0.24,-0.07999999999999997,up,0.457958899991354,,,,,,,,,,,,,,,,,,,,,,,,,,,,,,,,,,,,,,,,,,,,,,,,,,,,,,,,D5QAKR,train_x,red_square,bottom_right,2025-03-22_13h08.24.056,HideSeek_v1,2022.2.5,59.89946474338992,
,5,0,4,0,-1,0,26,,train_dim1_1,6,30,,,,2,0,2,0,,,,,,,,,0,0,0,0,0,5,5,5,4,0,4,0,,,,,,,,,,,,,,,,,,,,,,,,,,,,,,,,,,,,,,,,,,,,,,,,,,,,,,,,,,,,,,,,30,,,,,,,,2069.6866286000004,2069.6866286000004,2069.6866286000004,2069.6866286000004,2069.6866286000004,,,,,left,1.1440057999861892,0,0,0,99,0.15999999999999998,-0.07999999999999997,left,1.059838299988769,,,,,,,,,,,,,,,,,,,,,,,,,,,,,,,,,,,,,,,,,,,,,,,,,,,,,,,,D5QAKR,train_x,red_square,bottom_right,2025-03-22_13h08.24.056,HideSeek_v1,2022.2.5,59.89946474338992,
,5,0,4,0,-1,0,26,,train_dim1_1,6,30,,,,2,0,2,0,,,,,,,,,0,0,0,0,0,5,5,5,5,0,5,0,,,,,,,,,,,,,,,,,,,,,,,,,,,,,,,,,,,,,,,,,,,,,,,,,,,,,,,,,,,,,,,,30,,,,,,,,2070.8378413000028,2070.8378413000028,2070.8378413000028,2070.8378413000028,2070.8378413000028,,,,,left,0.32672650000313297,0,0,0,99,0.07999999999999997,-0.07999999999999997,left,0.24628870000015013,,,,,,,,,,,,,,,,,,,,,,,,,,,,,,,,,,,,,,,,,,,,,,,,,,,,,,,,D5QAKR,train_x,red_square,bottom_right,2025-03-22_13h08.24.056,HideSeek_v1,2022.2.5,59.89946474338992,
,5,0,4,0,-1,0,26,,train_dim1_1,6,30,,,,2,0,2,0,,,,,,,,,0,0,0,0,0,5,5,5,6,0,6,0,,,,,,,,,,,,,,,,,,,,,,,,,,,,,,,,,,,,,,,,,,,,,,,,,,,,,,,,,,,,,,,,30,,,,,,,,2071.172157199995,2071.172157199995,2071.172157199995,2071.172157199995,2071.172157199995,,,,,up,0.7260942999855615,0,0,0,99,0.07999999999999997,2.7755575615628914e-17,up,0.6426599000114948,,,,,,,,,,,,,,,,,,,,,,,,,,,,,,,,,,,,,,,,,,,,,,,,,,,,,,,,D5QAKR,train_x,red_square,bottom_right,2025-03-22_13h08.24.056,HideSeek_v1,2022.2.5,59.89946474338992,
,5,0,4,0,-1,0,26,,train_dim1_1,6,30,,,,2,0,2,0,,,,,,,,,0,0,0,0,0,5,5,5,7,0,7,0,,,,,,,,,,,,,,,,,,,,,,,,,,,,,,,,,,,,,,,,,,,,,,,,,,,,,,,,,,,,,,,,30,,,,,,,,2071.90511349999,2071.90511349999,2071.90511349999,2071.90511349999,2071.90511349999,,,,,right,2.211512700014282,0,0,0,99,0.15999999999999998,2.7755575615628914e-17,right,2.1254406000080053,,,,,,,,,,,,,,,,,,,,,,,,,,,,,,,,,,,,,,,,,,,,,,,,,,,,,,,,D5QAKR,train_x,red_square,bottom_right,2025-03-22_13h08.24.056,HideSeek_v1,2022.2.5,59.89946474338992,
,5,0,4,0,-1,0,26,,train_dim1_1,6,30,,,,2,0,2,0,,,,,,,,,0,0,0,0,0,5,5,5,8,0,8,0,,,,,,,,,,,,,,,,,,,,,,,,,,,,,,,,,,,,,,,,,,,,,,,,,,,,,,,,,,,,,,,,30,,,,,,,,2074.1236038999923,2074.1236038999923,2074.1236038999923,2074.1236038999923,2074.1236038999923,,,,,right,0.7433382000017446,0,0,0,99,0.24,2.7755575615628914e-17,right,0.6553712000022642,,,,,,,,,,,,,,,,,,,,,,,,,,,,,,,,,,,,,,,,,,,,,,,,,,,,,,,,D5QAKR,train_x,red_square,bottom_right,2025-03-22_13h08.24.056,HideSeek_v1,2022.2.5,59.89946474338992,
,5,0,4,0,-1,0,26,,train_dim1_1,6,30,,,,2,0,2,0,,,,,,,,,0,0,0,0,0,5,5,5,9,0,9,0,,,,,,,,,,,,,,,,,,,,,,,,,,,,,,,,,,,,,,,,,,,,,,,,,,,,,,,,,,,,,,,,30,,,,,,,,2074.8742885999964,2074.8742885999964,2074.8742885999964,2074.8742885999964,2074.8742885999964,,,,,right,0.24329330000909977,0,0,0,99,0.32,2.7755575615628914e-17,right,0.15618310001445934,,,,,,,,,,,,,,,,,,,,,,,,,,,,,,,,,,,,,,,,,,,,,,,,,,,,,,,,D5QAKR,train_x,red_square,bottom_right,2025-03-22_13h08.24.056,HideSeek_v1,2022.2.5,59.89946474338992,
,5,0,4,0,-1,0,26,,train_dim1_1,6,30,,,,2,0,2,0,,,,,,,,,0,0,0,0,0,5,5,5,10,0,10,0,,,,,,,,,,,,,,,,,,,,,,,,,,,,,,,,,,,,,,,,,,,,,,,,,,,,,,,,,,,,,,,,30,,,,,,,,2075.1248999999953,2075.1248999999953,2075.1248999999953,2075.1248999999953,2075.1248999999953,,,,,right,0.3763638000236824,0,0,0,99,0.4,2.7755575615628914e-17,right,0.2875637000252027,,,,,,,,,,,,,,,,,,,,,,,,,,,,,,,,,,,,,,,,,,,,,,,,,,,,,,,,D5QAKR,train_x,red_square,bottom_right,2025-03-22_13h08.24.056,HideSeek_v1,2022.2.5,59.89946474338992,
,5,0,4,0,-1,0,26,,train_dim1_1,6,30,,,,2,0,2,0,,,,,,,,,0,0,0,0,0,5,5,5,11,0,11,0,,,,,,,,,,,,,,,,,,,,,,,,,,,,,,,,,,,,,,,,,,,,,,,,,,,,,,,,,,,,,,,,30,,,,,,,,2075.5080614000035,2075.5080614000035,2075.5080614000035,2075.5080614000035,2075.5080614000035,7,-2,0.4,2.7755575615628914e-17,return,1.5774309000116773,0,0,0,0,0.4,2.7755575615628914e-17,return,1.4884196000057273,,,,,,,,,,,,,,,,,,,,,,,,,,,,,,,,,,,,,,,,,,,,,,,,,,,,,,,,D5QAKR,train_x,red_square,bottom_right,2025-03-22_13h08.24.056,HideSeek_v1,2022.2.5,59.89946474338992,
,8,0,3,0,-5,0,66,,train_dim1_1,7,30,,,,2,0,2,0,,,,,,,,,0,0,0,0,0,6,6,6,0,0,0,0,,,,,,,,,,,,,,,,,,,,,,,,,stimuli/alien_stimuli/66.png,,,,,,,,,,,,,,,,,,,,,,,,,,,,,stimuli/alien_stimuli/26.png,26,5,8,,,,,,,30,,,,,,,,2083.087541899993,2083.087541899993,2083.087541899993,2083.087541899993,2083.087541899993,,,,,left,1.82427679997636,0,0,0,99,0.39999999999999997,-0.4,left,1.7294465999875683,2081.529703600012,2083.087541899993,0.16,-0.4,0.0,0.08,-0.4,0.16,0.2,0.16,-0.4,2078.667024800001,2078.667024800001,2078.667024800001,2078.667024800001,2078.667024800001,2078.667024800001,2078.667024800001,2078.667024800001,2078.660352339986,2.9885786999948323,return,2.845458800002234,,,,,,,,,,,,,,,,,,,,,,,,,,,,,,,,,D5QAKR,train_x,red_square,bottom_right,2025-03-22_13h08.24.056,HideSeek_v1,2022.2.5,59.89946474338992,
,8,0,3,0,-5,0,66,,train_dim1_1,7,30,,,,2,0,2,0,,,,,,,,,0,0,0,0,0,6,6,6,1,0,1,0,,,,,,,,,,,,,,,,,,,,,,,,,,,,,,,,,,,,,,,,,,,,,,,,,,,,,,,,,,,,,,,,30,,,,,,,,2084.911258100008,2084.911258100008,2084.911258100008,2084.911258100008,2084.911258100008,7,-3,0.39999999999999997,-0.4,return,1.0602285000204574,0,0,0,0,0.39999999999999997,-0.4,return,0.9881578000204172,,,,,,,,,,,,,,,,,,,,,,,,,,,,,,,,,,,,,,,,,,,,,,,,,,,,,,,,D5QAKR,train_x,red_square,bottom_right,2025-03-22_13h08.24.056,HideSeek_v1,2022.2.5,59.89946474338992,
,5,4,2,4,-3,0,46,,train_dim1_1,8,30,,,,2,0,2,0,,,,,,,,,0,0,0,0,0,7,7,7,0,0,0,0,,,,,,,,,,,,,,,,,,,,,,,,,stimuli/alien_stimuli/46.png,,,,,,,,,,,,,,,,,,,,,,,,,,,,,stimuli/alien_stimuli/66.png,66,8,9,,,,,,,30,,,,,,,,2091.344328600011,2091.344328600011,2091.344328600011,2091.344328600011,2091.344328600011,,,,,down,1.7905859999882523,0,0,0,99,0.24,-0.16,down,1.6905928000051063,2089.7699976000004,2091.344328600011,0.08,-0.4,0.0,0.4,-0.4,0.08,0.27999999999999997,0.08,-0.4,2087.5517798000074,2087.5517798000074,2087.5517798000074,2087.5517798000074,2087.5517798000074,2087.5517798000074,2087.5517798000074,2087.5517798000074,2087.534617259994,2.3372020999959204,return,2.1857951000274625,,,,,,,,,,,,,,,,,,,,,,,,,,,,,,,,,D5QAKR,train_x,red_square,bottom_right,2025-03-22_13h08.24.056,HideSeek_v1,2022.2.5,59.89946474338992,
,5,4,2,4,-3,0,46,,train_dim1_1,8,30,,,,2,0,2,0,,,,,,,,,0,0,0,0,0,7,7,7,1,0,1,0,,,,,,,,,,,,,,,,,,,,,,,,,,,,,,,,,,,,,,,,,,,,,,,,,,,,,,,,,,,,,,,,30,,,,,,,,2093.1191184000054,2093.1191184000054,2093.1191184000054,2093.1191184000054,2093.1191184000054,,,,,down,0.45951240000431426,0,0,0,99,0.24,-0.24,down,0.38035110000055283,,,,,,,,,,,,,,,,,,,,,,,,,,,,,,,,,,,,,,,,,,,,,,,,,,,,,,,,D5QAKR,train_x,red_square,bottom_right,2025-03-22_13h08.24.056,HideSeek_v1,2022.2.5,59.89946474338992,
,5,4,2,4,-3,0,46,,train_dim1_1,8,30,,,,2,0,2,0,,,,,,,,,0,0,0,0,0,7,7,7,2,0,2,0,,,,,,,,,,,,,,,,,,,,,,,,,,,,,,,,,,,,,,,,,,,,,,,,,,,,,,,,,,,,,,,,30,,,,,,,,2093.5858829999925,2093.5858829999925,2093.5858829999925,2093.5858829999925,2093.5858829999925,,,,,down,1.694462100014789,0,0,0,99,0.24,-0.32,down,1.6180923999927472,,,,,,,,,,,,,,,,,,,,,,,,,,,,,,,,,,,,,,,,,,,,,,,,,,,,,,,,D5QAKR,train_x,red_square,bottom_right,2025-03-22_13h08.24.056,HideSeek_v1,2022.2.5,59.89946474338992,
,5,4,2,4,-3,0,46,,train_dim1_1,8,30,,,,2,0,2,0,,,,,,,,,0,0,0,0,0,7,7,7,3,0,3,0,,,,,,,,,,,,,,,,,,,,,,,,,,,,,,,,,,,,,,,,,,,,,,,,,,,,,,,,,,,,,,,,30,,,,,,,,2095.2867042,2095.2867042,2095.2867042,2095.2867042,2095.2867042,,,,,down,0.5102565000124741,0,0,0,99,0.24,-0.4,down,0.4327714999963064,,,,,,,,,,,,,,,,,,,,,,,,,,,,,,,,,,,,,,,,,,,,,,,,,,,,,,,,D5QAKR,train_x,red_square,bottom_right,2025-03-22_13h08.24.056,HideSeek_v1,2022.2.5,59.89946474338992,
,5,4,2,4,-3,0,46,,train_dim1_1,8,30,,,,2,0,2,0,,,,,,,,,0,0,0,0,0,7,7,7,4,0,4,0,,,,,,,,,,,,,,,,,,,,,,,,,,,,,,,,,,,,,,,,,,,,,,,,,,,,,,,,,,,,,,,,30,,,,,,,,2095.8043684999866,2095.8043684999866,2095.8043684999866,2095.8043684999866,2095.8043684999866,3,-3,0.24,-0.4,return,1.1435402999923099,0,0,0,0,0.24,-0.4,return,1.060682099981932,,,,,,,,,,,,,,,,,,,,,,,,,,,,,,,,,,,,,,,,,,,,,,,,,,,,,,,,D5QAKR,train_x,red_square,bottom_right,2025-03-22_13h08.24.056,HideSeek_v1,2022.2.5,59.89946474338992,
,6,0,2,0,-4,0,56,,train_dim1_1,9,30,,,,2,0,2,0,,,,,,,,,0,0,0,0,0,8,8,8,0,0,0,0,,,,,,,,,,,,,,,,,,,,,,,,,stimuli/alien_stimuli/56.png,,,,,,,,,,,,,,,,,,,,,,,,,,,,,stimuli/alien_stimuli/46.png,46,5,10,,,,,,,30,,,,,,,,2103.1565051999933,2103.1565051999933,2103.1565051999933,2103.1565051999933,2103.1565051999933,,,,,up,2.191370399988955,0,0,0,99,0.32,-0.32,up,2.1055237999826204,2101.5962077000004,2103.1565051999933,0,-0.08,0.0,0.24,-0.08,0,0.12,0,-0.08,2098.521134999988,2098.521134999988,2098.521134999988,2098.521134999988,2098.521134999988,2098.521134999988,2098.521134999988,2098.521134999988,2098.510625459993,3.1878473999968264,return,3.048967000009725,,,,,,,,,,,,,,,,,,,,,,,,,,,,,,,,,D5QAKR,train_x,red_square,bottom_right,2025-03-22_13h08.24.056,HideSeek_v1,2022.2.5,59.89946474338992,
,6,0,2,0,-4,0,56,,train_dim1_1,9,30,,,,2,0,2,0,,,,,,,,,0,0,0,0,0,8,8,8,1,0,1,0,,,,,,,,,,,,,,,,,,,,,,,,,,,,,,,,,,,,,,,,,,,,,,,,,,,,,,,,,,,,,,,,30,,,,,,,,2105.3488980999973,2105.3488980999973,2105.3488980999973,2105.3488980999973,2105.3488980999973,,,,,right,1.159713200002443,0,0,0,99,0.4,-0.32,right,1.084456799988402,,,,,,,,,,,,,,,,,,,,,,,,,,,,,,,,,,,,,,,,,,,,,,,,,,,,,,,,D5QAKR,train_x,red_square,bottom_right,2025-03-22_13h08.24.056,HideSeek_v1,2022.2.5,59.89946474338992,
,6,0,2,0,-4,0,56,,train_dim1_1,9,30,,,,2,0,2,0,,,,,,,,,0,0,0,0,0,8,8,8,2,0,2,0,,,,,,,,,,,,,,,,,,,,,,,,,,,,,,,,,,,,,,,,,,,,,,,,,,,,,,,,,,,,,,,,30,,,,,,,,2106.516500400001,2106.516500400001,2106.516500400001,2106.516500400001,2106.516500400001,,,,,down,0.5600198000029195,0,0,0,99,0.4,-0.4,down,0.46986650000326335,,,,,,,,,,,,,,,,,,,,,,,,,,,,,,,,,,,,,,,,,,,,,,,,,,,,,,,,D5QAKR,train_x,red_square,bottom_right,2025-03-22_13h08.24.056,HideSeek_v1,2022.2.5,59.89946474338992,
,6,0,2,0,-4,0,56,,train_dim1_1,9,30,,,,2,0,2,0,,,,,,,,,0,0,0,0,0,8,8,8,3,0,3,0,,,,,,,,,,,,,,,,,,,,,,,,,,,,,,,,,,,,,,,,,,,,,,,,,,,,,,,,,,,,,,,,30,,,,,,,,2107.081895200012,2107.081895200012,2107.081895200012,2107.081895200012,2107.081895200012,,,,,left,1.6943973999877926,0,0,0,99,0.32,-0.4,left,1.6166459000087343,,,,,,,,,,,,,,,,,,,,,,,,,,,,,,,,,,,,,,,,,,,,,,,,,,,,,,,,D5QAKR,train_x,red_square,bottom_right,2025-03-22_13h08.24.056,HideSeek_v1,2022.2.5,59.89946474338992,
,6,0,2,0,-4,0,56,,train_dim1_1,9,30,,,,2,0,2,0,,,,,,,,,0,0,0,0,0,8,8,8,4,0,4,0,,,,,,,,,,,,,,,,,,,,,,,,,,,,,,,,,,,,,,,,,,,,,,,,,,,,,,,,,,,,,,,,30,,,,,,,,2108.784930900001,2108.784930900001,2108.784930900001,2108.784930900001,2108.784930900001,,,,,left,0.5934112000104506,0,0,0,99,0.24,-0.4,left,0.5067846000019927,,,,,,,,,,,,,,,,,,,,,,,,,,,,,,,,,,,,,,,,,,,,,,,,,,,,,,,,D5QAKR,train_x,red_square,bottom_right,2025-03-22_13h08.24.056,HideSeek_v1,2022.2.5,59.89946474338992,
,6,0,2,0,-4,0,56,,train_dim1_1,9,30,,,,2,0,2,0,,,,,,,,,0,0,0,0,0,8,8,8,5,0,5,0,,,,,,,,,,,,,,,,,,,,,,,,,,,,,,,,,,,,,,,,,,,,,,,,,,,,,,,,,,,,,,,,30,,,,,,,,2109.3847105999885,2109.3847105999885,2109.3847105999885,2109.3847105999885,2109.3847105999885,,,,,left,0.30990200000815094,0,0,0,99,0.15999999999999998,-0.4,left,0.22032629998284392,,,,,,,,,,,,,,,,,,,,,,,,,,,,,,,,,,,,,,,,,,,,,,,,,,,,,,,,D5QAKR,train_x,red_square,bottom_right,2025-03-22_13h08.24.056,HideSeek_v1,2022.2.5,59.89946474338992,
,6,0,2,0,-4,0,56,,train_dim1_1,9,30,,,,2,0,2,0,,,,,,,,,0,0,0,0,0,8,8,8,6,0,6,0,,,,,,,,,,,,,,,,,,,,,,,,,,,,,,,,,,,,,,,,,,,,,,,,,,,,,,,,,,,,,,,,30,,,,,,,,2109.7014457999903,2109.7014457999903,2109.7014457999903,2109.7014457999903,2109.7014457999903,,,,,left,0.24286890000803396,0,0,0,99,0.07999999999999997,-0.4,left,0.16902280002250336,,,,,,,,,,,,,,,,,,,,,,,,,,,,,,,,,,,,,,,,,,,,,,,,,,,,,,,,D5QAKR,train_x,red_square,bottom_right,2025-03-22_13h08.24.056,HideSeek_v1,2022.2.5,59.89946474338992,
,6,0,2,0,-4,0,56,,train_dim1_1,9,30,,,,2,0,2,0,,,,,,,,,0,0,0,0,0,8,8,8,7,0,7,0,,,,,,,,,,,,,,,,,,,,,,,,,,,,,,,,,,,,,,,,,,,,,,,,,,,,,,,,,,,,,,,,30,,,,,,,,2109.9515618000005,2109.9515618000005,2109.9515618000005,2109.9515618000005,2109.9515618000005,,,,,left,0.24342410001554526,0,0,0,99,-2.7755575615628914e-17,-0.4,left,0.16795669999555685,,,,,,,,,,,,,,,,,,,,,,,,,,,,,,,,,,,,,,,,,,,,,,,,,,,,,,,,D5QAKR,train_x,red_square,bottom_right,2025-03-22_13h08.24.056,HideSeek_v1,2022.2.5,59.89946474338992,
,6,0,2,0,-4,0,56,,train_dim1_1,9,30,,,,2,0,2,0,,,,,,,,,0,0,0,0,0,8,8,8,8,0,8,0,,,,,,,,,,,,,,,,,,,,,,,,,,,,,,,,,,,,,,,,,,,,,,,,,,,,,,,,,,,,,,,,30,,,,,,,,2110.2018918000103,2110.2018918000103,2110.2018918000103,2110.2018918000103,2110.2018918000103,,,,,left,0.7765916000062134,0,0,0,99,-0.08000000000000003,-0.4,left,0.6897361000010278,,,,,,,,,,,,,,,,,,,,,,,,,,,,,,,,,,,,,,,,,,,,,,,,,,,,,,,,D5QAKR,train_x,red_square,bottom_right,2025-03-22_13h08.24.056,HideSeek_v1,2022.2.5,59.89946474338992,
,6,0,2,0,-4,0,56,,train_dim1_1,9,30,,,,2,0,2,0,,,,,,,,,0,0,0,0,0,8,8,8,9,0,9,0,,,,,,,,,,,,,,,,,,,,,,,,,,,,,,,,,,,,,,,,,,,,,,,,,,,,,,,,,,,,,,,,30,,,,,,,,2110.9866220999975,2110.9866220999975,2110.9866220999975,2110.9866220999975,2110.9866220999975,3,-8,-0.08000000000000003,-0.4,return,0.893290399981197,0,1,0,0,-0.08000000000000003,-0.4,return,0.8131989000248723,,,,,,,,,,,,,,,,,,,,,,,,,,,,,,,,,,,,,,,,,,,,,,,,,,,,,,,,D5QAKR,train_x,red_square,bottom_right,2025-03-22_13h08.24.056,HideSeek_v1,2022.2.5,59.89946474338992,
,5,3,5,3,0,0,16,,train_dim1_1,10,30,,,,2,0,2,0,,,,,,,,,0,0,0,0,0,9,9,9,0,0,0,0,,,,,,,,,,,,,,,,,,,,,,,,,stimuli/alien_stimuli/16.png,,,,,,,,,,,,,,,,,,,,,,,,,,,,,stimuli/alien_stimuli/56.png,56,6,11,,,,,,,30,,,,,,,,2128.1466401999933,2128.1466401999933,2128.1466401999933,2128.1466401999933,2128.1466401999933,,,,,up,1.7578506999998353,0,1,0,99,0.24,-0.08,up,1.655996799992863,2126.5630348999985,2113.4568834000092,0,-0.4,0.0,0.32,-0.4,0,0.16,0,-0.4,2113.4568834000092,2113.4568834000092,2113.4568834000092,2113.4568834000092,2113.4568834000092,2113.4568834000092,2113.4568834000092,2113.4568834000092,2113.439361059992,13.22647710001911,return,13.07668850000482,,,,,,,,,,,,,,,,,,,,,,,,,,,,,,,,,D5QAKR,train_x,red_square,bottom_right,2025-03-22_13h08.24.056,HideSeek_v1,2022.2.5,59.89946474338992,
,5,3,5,3,0,0,16,,train_dim1_1,10,30,,,,2,0,2,0,,,,,,,,,0,0,0,0,0,9,9,9,1,0,1,0,,,,,,,,,,,,,,,,,,,,,,,,,,,,,,,,,,,,,,,,,,,,,,,,,,,,,,,,,,,,,,,,30,,,,,,,,2129.887306699995,2129.887306699995,2129.887306699995,2129.887306699995,2129.887306699995,,,,,up,0.3427757000026759,0,1,0,99,0.24,0.0,up,0.267237699998077,,,,,,,,,,,,,,,,,,,,,,,,,,,,,,,,,,,,,,,,,,,,,,,,,,,,,,,,D5QAKR,train_x,red_square,bottom_right,2025-03-22_13h08.24.056,HideSeek_v1,2022.2.5,59.89946474338992,
,5,3,5,3,0,0,16,,train_dim1_1,10,30,,,,2,0,2,0,,,,,,,,,0,0,0,0,0,9,9,9,2,0,2,0,,,,,,,,,,,,,,,,,,,,,,,,,,,,,,,,,,,,,,,,,,,,,,,,,,,,,,,,,,,,,,,,30,,,,,,,,2130.237695699994,2130.237695699994,2130.237695699994,2130.237695699994,2130.237695699994,,,,,up,0.2764526999962982,0,1,0,99,0.24,0.08,up,0.19792090001283213,,,,,,,,,,,,,,,,,,,,,,,,,,,,,,,,,,,,,,,,,,,,,,,,,,,,,,,,D5QAKR,train_x,red_square,bottom_right,2025-03-22_13h08.24.056,HideSeek_v1,2022.2.5,59.89946474338992,
,5,3,5,3,0,0,16,,train_dim1_1,10,30,,,,2,0,2,0,,,,,,,,,0,0,0,0,0,9,9,9,3,0,3,0,,,,,,,,,,,,,,,,,,,,,,,,,,,,,,,,,,,,,,,,,,,,,,,,,,,,,,,,,,,,,,,,30,,,,,,,,2130.5210755000007,2130.5210755000007,2130.5210755000007,2130.5210755000007,2130.5210755000007,,,,,up,0.25960970000596717,0,1,0,99,0.24,0.16,up,0.17629269999451935,,,,,,,,,,,,,,,,,,,,,,,,,,,,,,,,,,,,,,,,,,,,,,,,,,,,,,,,D5QAKR,train_x,red_square,bottom_right,2025-03-22_13h08.24.056,HideSeek_v1,2022.2.5,59.89946474338992,
,5,3,5,3,0,0,16,,train_dim1_1,10,30,,,,2,0,2,0,,,,,,,,,0,0,0,0,0,9,9,9,4,0,4,0,,,,,,,,,,,,,,,,,,,,,,,,,,,,,,,,,,,,,,,,,,,,,,,,,,,,,,,,,,,,,,,,30,,,,,,,,2130.786977200012,2130.786977200012,2130.786977200012,2130.786977200012,2130.786977200012,,,,,up,0.3102744000207167,0,1,0,99,0.24,0.24,up,0.22176559999934398,,,,,,,,,,,,,,,,,,,,,,,,,,,,,,,,,,,,,,,,,,,,,,,,,,,,,,,,D5QAKR,train_x,red_square,bottom_right,2025-03-22_13h08.24.056,HideSeek_v1,2022.2.5,59.89946474338992,
,5,3,5,3,0,0,16,,train_dim1_1,10,30,,,,2,0,2,0,,,,,,,,,0,0,0,0,0,9,9,9,5,0,5,0,,,,,,,,,,,,,,,,,,,,,,,,,,,,,,,,,,,,,,,,,,,,,,,,,,,,,,,,,,,,,,,,30,,,,,,,,2131.104514100007,2131.104514100007,2131.104514100007,2131.104514100007,2131.104514100007,,,,,left,0.7767529999837279,0,1,0,99,0.15999999999999998,0.24,left,0.684792500018375,,,,,,,,,,,,,,,,,,,,,,,,,,,,,,,,,,,,,,,,,,,,,,,,,,,,,,,,D5QAKR,train_x,red_square,bottom_right,2025-03-22_13h08.24.056,HideSeek_v1,2022.2.5,59.89946474338992,
,5,3,5,3,0,0,16,,train_dim1_1,10,30,,,,2,0,2,0,,,,,,,,,0,0,0,0,0,9,9,9,6,0,6,0,,,,,,,,,,,,,,,,,,,,,,,,,,,,,,,,,,,,,,,,,,,,,,,,,,,,,,,,,,,,,,,,30,,,,,,,,2131.8879772000073,2131.8879772000073,2131.8879772000073,2131.8879772000073,2131.8879772000073,,,,,left,0.2431120999972336,0,1,0,99,0.07999999999999997,0.24,left,0.15348910001921467,,,,,,,,,,,,,,,,,,,,,,,,,,,,,,,,,,,,,,,,,,,,,,,,,,,,,,,,D5QAKR,train_x,red_square,bottom_right,2025-03-22_13h08.24.056,HideSeek_v1,2022.2.5,59.89946474338992,
,5,3,5,3,0,0,16,,train_dim1_1,10,30,,,,2,0,2,0,,,,,,,,,0,0,0,0,0,9,9,9,7,0,7,0,,,,,,,,,,,,,,,,,,,,,,,,,,,,,,,,,,,,,,,,,,,,,,,,,,,,,,,,,,,,,,,,30,,,,,,,,2132.138840600004,2132.138840600004,2132.138840600004,2132.138840600004,2132.138840600004,8,-10,0.07999999999999997,0.24,return,1.610881500004325,0,0,0,0,0.07999999999999997,0.24,return,1.526738499989733,,,,,,,,,,,,,,,,,,,,,,,,,,,,,,,,,,,,,,,,,,,,,,,,,,,,,,,,D5QAKR,train_x,red_square,bottom_right,2025-03-22_13h08.24.056,HideSeek_v1,2022.2.5,59.89946474338992,
,7,2,4,2,-3,0,46,,train_dim1_1,11,30,,,,2,0,2,0,,,,,,,,,0,0,0,0,0,10,10,10,0,0,0,0,,,,,,,,,,,,,,,,,,,,,,,,,stimuli/alien_stimuli/46.png,,,,,,,,,,,,,,,,,,,,,,,,,,,,,stimuli/alien_stimuli/16.png,16,5,12,,,,,,,30,,,,,,,,2141.486182199995,2141.486182199995,2141.486182199995,2141.486182199995,2141.486182199995,,,,,left,1.9904769999848213,0,0,0,99,0.32,-0.24,left,1.9070206999895163,2139.92801209999,2141.486182199995,0.24,-0.16,0.0,0.0,-0.16,0.24,0.24,0.24,-0.16,2135.3285036000016,2135.3285036000016,2135.3285036000016,2135.3285036000016,2135.3285036000016,2135.3285036000016,2135.3285036000016,2135.3285036000016,2135.3076254600137,4.722975400014548,return,4.583183200011263,,,,,,,,,,,,,,,,,,,,,,,,,,,,,,,,,D5QAKR,train_x,red_square,bottom_right,2025-03-22_13h08.24.056,HideSeek_v1,2022.2.5,59.89946474338992,
,7,2,4,2,-3,0,46,,train_dim1_1,11,30,,,,2,0,2,0,,,,,,,,,0,0,0,0,0,10,10,10,1,0,1,0,,,,,,,,,,,,,,,,,,,,,,,,,,,,,,,,,,,,,,,,,,,,,,,,,,,,,,,,,,,,,,,,30,,,,,,,,2143.481905599998,2143.481905599998,2143.481905599998,2143.481905599998,2143.481905599998,,,,,down,1.2932511999970302,0,0,0,99,0.32,-0.32,down,1.209388899995247,,,,,,,,,,,,,,,,,,,,,,,,,,,,,,,,,,,,,,,,,,,,,,,,,,,,,,,,D5QAKR,train_x,red_square,bottom_right,2025-03-22_13h08.24.056,HideSeek_v1,2022.2.5,59.89946474338992,
,7,2,4,2,-3,0,46,,train_dim1_1,11,30,,,,2,0,2,0,,,,,,,,,0,0,0,0,0,10,10,10,2,0,2,0,,,,,,,,,,,,,,,,,,,,,,,,,,,,,,,,,,,,,,,,,,,,,,,,,,,,,,,,,,,,,,,,30,,,,,,,,2144.7776338999975,2144.7776338999975,2144.7776338999975,2144.7776338999975,2144.7776338999975,,,,,down,0.3933415000210516,0,0,0,99,0.32,-0.4,down,0.3065474000177346,,,,,,,,,,,,,,,,,,,,,,,,,,,,,,,,,,,,,,,,,,,,,,,,,,,,,,,,D5QAKR,train_x,red_square,bottom_right,2025-03-22_13h08.24.056,HideSeek_v1,2022.2.5,59.89946474338992,
,7,2,4,2,-3,0,46,,train_dim1_1,11,30,,,,2,0,2,0,,,,,,,,,0,0,0,0,0,10,10,10,3,0,3,0,,,,,,,,,,,,,,,,,,,,,,,,,,,,,,,,,,,,,,,,,,,,,,,,,,,,,,,,,,,,,,,,30,,,,,,,,2145.178627999994,2145.178627999994,2145.178627999994,2145.178627999994,2145.178627999994,,,,,left,1.1437093999993522,0,0,0,99,0.24,-0.4,left,1.0688006000127643,,,,,,,,,,,,,,,,,,,,,,,,,,,,,,,,,,,,,,,,,,,,,,,,,,,,,,,,D5QAKR,train_x,red_square,bottom_right,2025-03-22_13h08.24.056,HideSeek_v1,2022.2.5,59.89946474338992,
,7,2,4,2,-3,0,46,,train_dim1_1,11,30,,,,2,0,2,0,,,,,,,,,0,0,0,0,0,10,10,10,4,0,4,0,,,,,,,,,,,,,,,,,,,,,,,,,,,,,,,,,,,,,,,,,,,,,,,,,,,,,,,,,,,,,,,,30,,,,,,,,2146.329971500003,2146.329971500003,2146.329971500003,2146.329971500003,2146.329971500003,,,,,left,0.24306589999468997,0,0,0,99,0.15999999999999998,-0.4,left,0.1699267000076361,,,,,,,,,,,,,,,,,,,,,,,,,,,,,,,,,,,,,,,,,,,,,,,,,,,,,,,,D5QAKR,train_x,red_square,bottom_right,2025-03-22_13h08.24.056,HideSeek_v1,2022.2.5,59.89946474338992,
,7,2,4,2,-3,0,46,,train_dim1_1,11,30,,,,2,0,2,0,,,,,,,,,0,0,0,0,0,10,10,10,5,0,5,0,,,,,,,,,,,,,,,,,,,,,,,,,,,,,,,,,,,,,,,,,,,,,,,,,,,,,,,,,,,,,,,,30,,,,,,,,2146.5795211000077,2146.5795211000077,2146.5795211000077,2146.5795211000077,2146.5795211000077,6,-13,0.15999999999999998,-0.4,return,2.511549999995623,0,0,0,0,0.15999999999999998,-0.4,return,2.4312028999847826,,,,,,,,,,,,,,,,,,,,,,,,,,,,,,,,,,,,,,,,,,,,,,,,,,,,,,,,D5QAKR,train_x,red_square,bottom_right,2025-03-22_13h08.24.056,HideSeek_v1,2022.2.5,59.89946474338992,
,5,0,4,0,-1,0,26,,train_dim1_1,12,30,,,,2,0,2,0,,,,,,,,,0,0,0,0,0,11,11,11,0,0,0,0,,,,,,,,,,,,,,,,,,,,,,,,,stimuli/alien_stimuli/26.png,,,,,,,,,,,,,,,,,,,,,,,,,,,,,stimuli/alien_stimuli/46.png,46,7,13,,,,,,,30,,,,,,,,2154.7672109999985,2154.7672109999985,2154.7672109999985,2154.7672109999985,2154.7672109999985,,,,,up,2.7584777000010945,0,0,0,99,0.24,-0.32,up,2.6566579999926034,2153.1892828999844,2154.7672109999985,0.16,-0.24,0.0,0.24,-0.24,0.16,0.28,0.16,-0.24,2150.669769100001,2150.669769100001,2150.669769100001,2150.669769100001,2150.669769100001,2150.669769100001,2150.669769100001,2150.669769100001,2150.653371459991,2.6383974000054877,return,2.5019964999810327,,,,,,,,,,,,,,,,,,,,,,,,,,,,,,,,,D5QAKR,train_x,red_square,bottom_right,2025-03-22_13h08.24.056,HideSeek_v1,2022.2.5,59.89946474338992,
,5,0,4,0,-1,0,26,,train_dim1_1,12,30,,,,2,0,2,0,,,,,,,,,0,0,0,0,0,11,11,11,1,0,1,0,,,,,,,,,,,,,,,,,,,,,,,,,,,,,,,,,,,,,,,,,,,,,,,,,,,,,,,,,,,,,,,,30,,,,,,,,2157.5104123000056,2157.5104123000056,2157.5104123000056,2157.5104123000056,2157.5104123000056,,,,,down,1.1599927000061143,0,0,0,99,0.24,-0.4,down,1.0726253000029828,,,,,,,,,,,,,,,,,,,,,,,,,,,,,,,,,,,,,,,,,,,,,,,,,,,,,,,,D5QAKR,train_x,red_square,bottom_right,2025-03-22_13h08.24.056,HideSeek_v1,2022.2.5,59.89946474338992,
,5,0,4,0,-1,0,26,,train_dim1_1,12,30,,,,2,0,2,0,,,,,,,,,0,0,0,0,0,11,11,11,2,0,2,0,,,,,,,,,,,,,,,,,,,,,,,,,,,,,,,,,,,,,,,,,,,,,,,,,,,,,,,,,,,,,,,,30,,,,,,,,2158.677178999991,2158.677178999991,2158.677178999991,2158.677178999991,2158.677178999991,6,-13,0.24,-0.4,return,1.0106184000032954,0,1,0,0,0.24,-0.4,return,0.9217396000167355,,,,,,,,,,,,,,,,,,,,,,,,,,,,,,,,,,,,,,,,,,,,,,,,,,,,,,,,D5QAKR,train_x,red_square,bottom_right,2025-03-22_13h08.24.056,HideSeek_v1,2022.2.5,59.89946474338992,
,5,4,1,4,-4,0,56,,train_dim1_1,13,30,,,,2,0,2,0,,,,,,,,,0,0,0,0,0,12,12,12,0,0,0,0,,,,,,,,,,,,,,,,,,,,,,,,,stimuli/alien_stimuli/56.png,,,,,,,,,,,,,,,,,,,,,,,,,,,,,stimuli/alien_stimuli/26.png,26,5,14,,,,,,,30,,,,,,,,2171.096774000005,2171.096774000005,2171.096774000005,2171.096774000005,2171.096774000005,,,,,down,1.9907510000048205,0,1,0,99,0.24,-0.16,down,1.9076273000100628,2169.5360196999973,2171.096774000005,0.16,-0.4,0.0,0.08,-0.4,0.16,0.2,0.16,-0.4,2161.263659999997,2161.263659999997,2161.263659999997,2161.263659999997,2161.263659999997,2161.263659999997,2161.263659999997,2161.263659999997,2161.24553895999,8.392871099989861,return,8.244631199981086,,,,,,,,,,,,,,,,,,,,,,,,,,,,,,,,,D5QAKR,train_x,red_square,bottom_right,2025-03-22_13h08.24.056,HideSeek_v1,2022.2.5,59.89946474338992,
,5,4,1,4,-4,0,56,,train_dim1_1,13,30,,,,2,0,2,0,,,,,,,,,0,0,0,0,0,12,12,12,1,0,1,0,,,,,,,,,,,,,,,,,,,,,,,,,,,,,,,,,,,,,,,,,,,,,,,,,,,,,,,,,,,,,,,,30,,,,,,,,2173.089860100008,2173.089860100008,2173.089860100008,2173.089860100008,2173.089860100008,,,,,down,0.3093576999963261,0,1,0,99,0.24,-0.24,down,0.2192788000102155,,,,,,,,,,,,,,,,,,,,,,,,,,,,,,,,,,,,,,,,,,,,,,,,,,,,,,,,D5QAKR,train_x,red_square,bottom_right,2025-03-22_13h08.24.056,HideSeek_v1,2022.2.5,59.89946474338992,
,5,4,1,4,-4,0,56,,train_dim1_1,13,30,,,,2,0,2,0,,,,,,,,,0,0,0,0,0,12,12,12,2,0,2,0,,,,,,,,,,,,,,,,,,,,,,,,,,,,,,,,,,,,,,,,,,,,,,,,,,,,,,,,,,,,,,,,30,,,,,,,,2173.4046045999858,2173.4046045999858,2173.4046045999858,2173.4046045999858,2173.4046045999858,,,,,down,0.25941950001288205,0,1,0,99,0.24,-0.32,down,0.1768471999967005,,,,,,,,,,,,,,,,,,,,,,,,,,,,,,,,,,,,,,,,,,,,,,,,,,,,,,,,D5QAKR,train_x,red_square,bottom_right,2025-03-22_13h08.24.056,HideSeek_v1,2022.2.5,59.89946474338992,
,5,4,1,4,-4,0,56,,train_dim1_1,13,30,,,,2,0,2,0,,,,,,,,,0,0,0,0,0,12,12,12,3,0,3,0,,,,,,,,,,,,,,,,,,,,,,,,,,,,,,,,,,,,,,,,,,,,,,,,,,,,,,,,,,,,,,,,30,,,,,,,,2173.6699083999847,2173.6699083999847,2173.6699083999847,2173.6699083999847,2173.6699083999847,,,,,down,0.2600897999946028,0,1,0,99,0.24,-0.4,down,0.18477229998097755,,,,,,,,,,,,,,,,,,,,,,,,,,,,,,,,,,,,,,,,,,,,,,,,,,,,,,,,D5QAKR,train_x,red_square,bottom_right,2025-03-22_13h08.24.056,HideSeek_v1,2022.2.5,59.89946474338992,
,5,4,1,4,-4,0,56,,train_dim1_1,13,30,,,,2,0,2,0,,,,,,,,,0,0,0,0,0,12,12,12,4,0,4,0,,,,,,,,,,,,,,,,,,,,,,,,,,,,,,,,,,,,,,,,,,,,,,,,,,,,,,,,,,,,,,,,30,,,,,,,,2173.9378848999913,2173.9378848999913,2173.9378848999913,2173.9378848999913,2173.9378848999913,,,,,left,2.1281796999974176,0,1,0,99,0.15999999999999998,-0.4,left,2.038758600014262,,,,,,,,,,,,,,,,,,,,,,,,,,,,,,,,,,,,,,,,,,,,,,,,,,,,,,,,D5QAKR,train_x,red_square,bottom_right,2025-03-22_13h08.24.056,HideSeek_v1,2022.2.5,59.89946474338992,
,5,4,1,4,-4,0,56,,train_dim1_1,13,30,,,,2,0,2,0,,,,,,,,,0,0,0,0,0,12,12,12,5,0,5,0,,,,,,,,,,,,,,,,,,,,,,,,,,,,,,,,,,,,,,,,,,,,,,,,,,,,,,,,,,,,,,,,30,,,,,,,,2176.0732347999874,2176.0732347999874,2176.0732347999874,2176.0732347999874,2176.0732347999874,,,,,left,0.3764602999726776,0,1,0,99,0.07999999999999997,-0.4,left,0.29518700001062825,,,,,,,,,,,,,,,,,,,,,,,,,,,,,,,,,,,,,,,,,,,,,,,,,,,,,,,,D5QAKR,train_x,red_square,bottom_right,2025-03-22_13h08.24.056,HideSeek_v1,2022.2.5,59.89946474338992,
,5,4,1,4,-4,0,56,,train_dim1_1,13,30,,,,2,0,2,0,,,,,,,,,0,0,0,0,0,12,12,12,6,0,6,0,,,,,,,,,,,,,,,,,,,,,,,,,,,,,,,,,,,,,,,,,,,,,,,,,,,,,,,,,,,,,,,,30,,,,,,,,2176.4575448000105,2176.4575448000105,2176.4575448000105,2176.4575448000105,2176.4575448000105,,,,,left,0.20968210001592524,0,1,0,99,-2.7755575615628914e-17,-0.4,left,0.11999090001336299,,,,,,,,,,,,,,,,,,,,,,,,,,,,,,,,,,,,,,,,,,,,,,,,,,,,,,,,D5QAKR,train_x,red_square,bottom_right,2025-03-22_13h08.24.056,HideSeek_v1,2022.2.5,59.89946474338992,
,5,4,1,4,-4,0,56,,train_dim1_1,13,30,,,,2,0,2,0,,,,,,,,,0,0,0,0,0,12,12,12,7,0,7,0,,,,,,,,,,,,,,,,,,,,,,,,,,,,,,,,,,,,,,,,,,,,,,,,,,,,,,,,,,,,,,,,30,,,,,,,,2176.6739214999834,2176.6739214999834,2176.6739214999834,2176.6739214999834,2176.6739214999834,,,,,left,0.9433342000120319,0,1,0,99,-0.08000000000000003,-0.4,left,0.8539116000174545,,,,,,,,,,,,,,,,,,,,,,,,,,,,,,,,,,,,,,,,,,,,,,,,,,,,,,,,D5QAKR,train_x,red_square,bottom_right,2025-03-22_13h08.24.056,HideSeek_v1,2022.2.5,59.89946474338992,
,5,4,1,4,-4,0,56,,train_dim1_1,13,30,,,,2,0,2,0,,,,,,,,,0,0,0,0,0,12,12,12,8,0,8,0,,,,,,,,,,,,,,,,,,,,,,,,,,,,,,,,,,,,,,,,,,,,,,,,,,,,,,,,,,,,,,,,30,,,,,,,,2177.6242266999907,2177.6242266999907,2177.6242266999907,2177.6242266999907,2177.6242266999907,,,,,up,0.6100061000033747,0,1,0,99,-0.08000000000000003,-0.32,up,0.5346088999940548,,,,,,,,,,,,,,,,,,,,,,,,,,,,,,,,,,,,,,,,,,,,,,,,,,,,,,,,D5QAKR,train_x,red_square,bottom_right,2025-03-22_13h08.24.056,HideSeek_v1,2022.2.5,59.89946474338992,
,5,4,1,4,-4,0,56,,train_dim1_1,13,30,,,,2,0,2,0,,,,,,,,,0,0,0,0,0,12,12,12,9,0,9,0,,,,,,,,,,,,,,,,,,,,,,,,,,,,,,,,,,,,,,,,,,,,,,,,,,,,,,,,,,,,,,,,30,,,,,,,,2178.2416292999987,2178.2416292999987,2178.2416292999987,2178.2416292999987,2178.2416292999987,,,,,up,0.29315839998889714,0,1,0,99,-0.08000000000000003,-0.24,up,0.2046314000035636,,,,,,,,,,,,,,,,,,,,,,,,,,,,,,,,,,,,,,,,,,,,,,,,,,,,,,,,D5QAKR,train_x,red_square,bottom_right,2025-03-22_13h08.24.056,HideSeek_v1,2022.2.5,59.89946474338992,
,5,4,1,4,-4,0,56,,train_dim1_1,13,30,,,,2,0,2,0,,,,,,,,,0,0,0,0,0,12,12,12,10,0,10,0,,,,,,,,,,,,,,,,,,,,,,,,,,,,,,,,,,,,,,,,,,,,,,,,,,,,,,,,,,,,,,,,30,,,,,,,,2178.541598599986,2178.541598599986,2178.541598599986,2178.541598599986,2178.541598599986,,,,,up,0.3104227000148967,0,1,0,99,-0.08000000000000003,-0.15999999999999998,up,0.23519259999739006,,,,,,,,,,,,,,,,,,,,,,,,,,,,,,,,,,,,,,,,,,,,,,,,,,,,,,,,D5QAKR,train_x,red_square,bottom_right,2025-03-22_13h08.24.056,HideSeek_v1,2022.2.5,59.89946474338992,
,5,4,1,4,-4,0,56,,train_dim1_1,13,30,,,,2,0,2,0,,,,,,,,,0,0,0,0,0,12,12,12,11,0,11,0,,,,,,,,,,,,,,,,,,,,,,,,,,,,,,,,,,,,,,,,,,,,,,,,,,,,,,,,,,,,,,,,30,,,,,,,,2178.861741600005,2178.861741600005,2178.861741600005,2178.861741600005,2178.861741600005,,,,,up,0.3762210999848321,0,1,0,99,-0.08000000000000003,-0.07999999999999997,up,0.29068740000366233,,,,,,,,,,,,,,,,,,,,,,,,,,,,,,,,,,,,,,,,,,,,,,,,,,,,,,,,D5QAKR,train_x,red_square,bottom_right,2025-03-22_13h08.24.056,HideSeek_v1,2022.2.5,59.89946474338992,
,5,4,1,4,-4,0,56,,train_dim1_1,13,30,,,,2,0,2,0,,,,,,,,,0,0,0,0,0,12,12,12,12,0,12,0,,,,,,,,,,,,,,,,,,,,,,,,,,,,,,,,,,,,,,,,,,,,,,,,,,,,,,,,,,,,,,,,30,,,,,,,,2179.2416534000076,2179.2416534000076,2179.2416534000076,2179.2416534000076,2179.2416534000076,6,-17,-0.08000000000000003,-0.07999999999999997,return,0.8935799000028055,1,0,0,1,-0.08000000000000003,-0.07999999999999997,return,0.8107895999855828,,,,,,,,,,,,,,,,,,,,,,,,,,,,,,,,,,,,,,,,,,,,,,,,,,,,,,,,D5QAKR,train_x,red_square,bottom_right,2025-03-22_13h08.24.056,HideSeek_v1,2022.2.5,59.89946474338992,
,9,3,9,3,0,0,16,,train_dim1_1,14,30,,,,2,0,2,0,,,,,,,,,0,0,0,0,0,13,13,13,0,0,0,0,,,,,,,,,,,,,,,,,,,,,,,,,stimuli/alien_stimuli/16.png,,,,,,,,,,,,,,,,,,,,,,,,,,,,,stimuli/alien_stimuli/56.png,56,5,15,,,,,,,30,,,,,,,,2186.477950500004,2186.477950500004,2186.477950500004,2186.477950500004,2186.477950500004,,,,,left,2.441223200003151,1,0,0,99,0.48000000000000004,-0.16,left,2.352597099990817,2184.9155495000014,2186.477950500004,-0.08,-0.08,0.0,0.32,-0.08,-0.08,0.07999999999999999,-0.08,-0.08,2181.7145485999936,2181.7145485999936,2181.7145485999936,2181.7145485999936,2181.7145485999936,2181.7145485999936,2181.7145485999936,2181.7145485999936,2181.69619746001,3.3214692999899853,return,3.183755799982464,,,,,,,,,,,,,,,,,,,,,,,,,,,,,,,,,D5QAKR,train_x,red_square,bottom_right,2025-03-22_13h08.24.056,HideSeek_v1,2022.2.5,59.89946474338992,
,9,3,9,3,0,0,16,,train_dim1_1,14,30,,,,2,0,2,0,,,,,,,,,0,0,0,0,0,13,13,13,1,0,1,0,,,,,,,,,,,,,,,,,,,,,,,,,,,,,,,,,,,,,,,,,,,,,,,,,,,,,,,,,,,,,,,,30,,,,,,,,2188.9199006999843,2188.9199006999843,2188.9199006999843,2188.9199006999843,2188.9199006999843,6,-18,0.48000000000000004,-0.16,return,2.260744600003818,1,1,0,0,0.48000000000000004,-0.16,return,2.1841851999924984,,,,,,,,,,,,,,,,,,,,,,,,,,,,,,,,,,,,,,,,,,,,,,,,,,,,,,,,D5QAKR,train_x,red_square,bottom_right,2025-03-22_13h08.24.056,HideSeek_v1,2022.2.5,59.89946474338992,
,9,2,4,2,-5,0,66,,train_dim1_1,15,30,,,,2,0,2,0,,,,,,,,,0,0,0,0,0,14,14,14,0,0,0,0,,,,,,,,,,,,,,,,,,,,,,,,,stimuli/alien_stimuli/66.png,,,,,,,,,,,,,,,,,,,,,,,,,,,,,stimuli/alien_stimuli/16.png,16,9,16,,,,,,,30,,,,,,,,2198.6344502999855,2198.6344502999855,2198.6344502999855,2198.6344502999855,2198.6344502999855,,,,,left,1.3405291000090074,1,1,0,99,0.48000000000000004,-0.24,left,1.2562555999902543,2197.0756603000045,2198.6344502999855,0.56,-0.16,0.0,0.0,-0.16,0.56,0.56,0.56,-0.16,2192.7612343000073,2192.7612343000073,2192.7612343000073,2192.7612343000073,2192.7612343000073,2192.7612343000073,2192.7612343000073,2192.7612343000073,2192.755191540014,4.4394939999911,return,4.296058699983405,,,,,,,,,,,,,,,,,,,,,,,,,,,,,,,,,D5QAKR,train_x,red_square,bottom_right,2025-03-22_13h08.24.056,HideSeek_v1,2022.2.5,59.89946474338992,
,9,2,4,2,-5,0,66,,train_dim1_1,15,30,,,,2,0,2,0,,,,,,,,,0,0,0,0,0,14,14,14,1,0,1,0,,,,,,,,,,,,,,,,,,,,,,,,,,,,,,,,,,,,,,,,,,,,,,,,,,,,,,,,,,,,,,,,30,,,,,,,,2199.9746591000003,2199.9746591000003,2199.9746591000003,2199.9746591000003,2199.9746591000003,,,,,left,0.22637690001283772,1,1,0,99,0.4,-0.24,left,0.1500942999846302,,,,,,,,,,,,,,,,,,,,,,,,,,,,,,,,,,,,,,,,,,,,,,,,,,,,,,,,D5QAKR,train_x,red_square,bottom_right,2025-03-22_13h08.24.056,HideSeek_v1,2022.2.5,59.89946474338992,
,9,2,4,2,-5,0,66,,train_dim1_1,15,30,,,,2,0,2,0,,,,,,,,,0,0,0,0,0,14,14,14,2,0,2,0,,,,,,,,,,,,,,,,,,,,,,,,,,,,,,,,,,,,,,,,,,,,,,,,,,,,,,,,,,,,,,,,30,,,,,,,,2200.2082410999865,2200.2082410999865,2200.2082410999865,2200.2082410999865,2200.2082410999865,,,,,left,0.19282520000706427,1,1,0,99,0.32,-0.24,left,0.11380560000543483,,,,,,,,,,,,,,,,,,,,,,,,,,,,,,,,,,,,,,,,,,,,,,,,,,,,,,,,D5QAKR,train_x,red_square,bottom_right,2025-03-22_13h08.24.056,HideSeek_v1,2022.2.5,59.89946474338992,
,9,2,4,2,-5,0,66,,train_dim1_1,15,30,,,,2,0,2,0,,,,,,,,,0,0,0,0,0,14,14,14,3,0,3,0,,,,,,,,,,,,,,,,,,,,,,,,,,,,,,,,,,,,,,,,,,,,,,,,,,,,,,,,,,,,,,,,30,,,,,,,,2200.4078463999904,2200.4078463999904,2200.4078463999904,2200.4078463999904,2200.4078463999904,,,,,left,0.19350859997211955,1,1,0,99,0.24,-0.24,left,0.10911940000369214,,,,,,,,,,,,,,,,,,,,,,,,,,,,,,,,,,,,,,,,,,,,,,,,,,,,,,,,D5QAKR,train_x,red_square,bottom_right,2025-03-22_13h08.24.056,HideSeek_v1,2022.2.5,59.89946474338992,
,9,2,4,2,-5,0,66,,train_dim1_1,15,30,,,,2,0,2,0,,,,,,,,,0,0,0,0,0,14,14,14,4,0,4,0,,,,,,,,,,,,,,,,,,,,,,,,,,,,,,,,,,,,,,,,,,,,,,,,,,,,,,,,,,,,,,,,30,,,,,,,,2200.608980399993,2200.608980399993,2200.608980399993,2200.608980399993,2200.608980399993,,,,,left,0.19296299997949973,1,1,0,99,0.15999999999999998,-0.24,left,0.11757280002348125,,,,,,,,,,,,,,,,,,,,,,,,,,,,,,,,,,,,,,,,,,,,,,,,,,,,,,,,D5QAKR,train_x,red_square,bottom_right,2025-03-22_13h08.24.056,HideSeek_v1,2022.2.5,59.89946474338992,
,9,2,4,2,-5,0,66,,train_dim1_1,15,30,,,,2,0,2,0,,,,,,,,,0,0,0,0,0,14,14,14,5,0,5,0,,,,,,,,,,,,,,,,,,,,,,,,,,,,,,,,,,,,,,,,,,,,,,,,,,,,,,,,,,,,,,,,30,,,,,,,,2200.8082664000103,2200.8082664000103,2200.8082664000103,2200.8082664000103,2200.8082664000103,,,,,left,0.17605820001335815,1,1,0,99,0.07999999999999997,-0.24,left,0.09997750000911765,,,,,,,,,,,,,,,,,,,,,,,,,,,,,,,,,,,,,,,,,,,,,,,,,,,,,,,,D5QAKR,train_x,red_square,bottom_right,2025-03-22_13h08.24.056,HideSeek_v1,2022.2.5,59.89946474338992,
,9,2,4,2,-5,0,66,,train_dim1_1,15,30,,,,2,0,2,0,,,,,,,,,0,0,0,0,0,14,14,14,6,0,6,0,,,,,,,,,,,,,,,,,,,,,,,,,,,,,,,,,,,,,,,,,,,,,,,,,,,,,,,,,,,,,,,,30,,,,,,,,2200.991774299997,2200.991774299997,2200.991774299997,2200.991774299997,2200.991774299997,,,,,left,0.17649020001408644,1,1,0,99,-2.7755575615628914e-17,-0.24,left,0.09678180000628345,,,,,,,,,,,,,,,,,,,,,,,,,,,,,,,,,,,,,,,,,,,,,,,,,,,,,,,,D5QAKR,train_x,red_square,bottom_right,2025-03-22_13h08.24.056,HideSeek_v1,2022.2.5,59.89946474338992,
,9,2,4,2,-5,0,66,,train_dim1_1,15,30,,,,2,0,2,0,,,,,,,,,0,0,0,0,0,14,14,14,7,0,7,0,,,,,,,,,,,,,,,,,,,,,,,,,,,,,,,,,,,,,,,,,,,,,,,,,,,,,,,,,,,,,,,,30,,,,,,,,2201.1750323000015,2201.1750323000015,2201.1750323000015,2201.1750323000015,2201.1750323000015,,,,,left,0.5438342000124976,1,1,0,99,-0.08000000000000003,-0.24,left,0.467882200027816,,,,,,,,,,,,,,,,,,,,,,,,,,,,,,,,,,,,,,,,,,,,,,,,,,,,,,,,D5QAKR,train_x,red_square,bottom_right,2025-03-22_13h08.24.056,HideSeek_v1,2022.2.5,59.89946474338992,
,9,2,4,2,-5,0,66,,train_dim1_1,15,30,,,,2,0,2,0,,,,,,,,,0,0,0,0,0,14,14,14,8,0,8,0,,,,,,,,,,,,,,,,,,,,,,,,,,,,,,,,,,,,,,,,,,,,,,,,,,,,,,,,,,,,,,,,30,,,,,,,,2201.7261466000054,2201.7261466000054,2201.7261466000054,2201.7261466000054,2201.7261466000054,6,-26,-0.08000000000000003,-0.24,return,2.2279058000131045,1,0,0,0,-0.08000000000000003,-0.24,return,2.145778200007044,,,,,,,,,,,,,,,,,,,,,,,,,,,,,,,,,,,,,,,,,,,,,,,,,,,,,,,,D5QAKR,train_x,red_square,bottom_right,2025-03-22_13h08.24.056,HideSeek_v1,2022.2.5,59.89946474338992,
,8,3,4,3,-4,0,56,,train_dim1_1,16,30,,,,2,0,2,0,,,,,,,,,0,0,0,0,0,15,15,15,0,0,0,0,,,,,,,,,,,,,,,,,,,,,,,,,stimuli/alien_stimuli/56.png,,,,,,,,,,,,,,,,,,,,,,,,,,,,,stimuli/alien_stimuli/66.png,66,9,17,,,,,,,30,,,,,,,,2208.6577119999856,2208.6577119999856,2208.6577119999856,2208.6577119999856,2208.6577119999856,,,,,left,1.4563683000160381,1,0,0,99,0.39999999999999997,-0.16,left,1.353720200015232,2207.0840186999994,2208.6577119999856,0.16,-0.24,0.0,0.4,-0.24,0.16,0.36000000000000004,0.16,-0.24,2205.5154323999886,2205.5154323999886,2205.5154323999886,2205.5154323999886,2205.5154323999886,2205.5154323999886,2205.5154323999886,2205.5154323999886,2205.499340379995,1.6701602000102866,return,1.5389870000071824,,,,,,,,,,,,,,,,,,,,,,,,,,,,,,,,,D5QAKR,train_x,red_square,bottom_right,2025-03-22_13h08.24.056,HideSeek_v1,2022.2.5,59.89946474338992,
,8,3,4,3,-4,0,56,,train_dim1_1,16,30,,,,2,0,2,0,,,,,,,,,0,0,0,0,0,15,15,15,1,0,1,0,,,,,,,,,,,,,,,,,,,,,,,,,,,,,,,,,,,,,,,,,,,,,,,,,,,,,,,,,,,,,,,,30,,,,,,,,2210.101986099995,2210.101986099995,2210.101986099995,2210.101986099995,2210.101986099995,,,,,left,0.2261405999888666,1,0,0,99,0.31999999999999995,-0.16,left,0.13954330002889037,,,,,,,,,,,,,,,,,,,,,,,,,,,,,,,,,,,,,,,,,,,,,,,,,,,,,,,,D5QAKR,train_x,red_square,bottom_right,2025-03-22_13h08.24.056,HideSeek_v1,2022.2.5,59.89946474338992,
,8,3,4,3,-4,0,56,,train_dim1_1,16,30,,,,2,0,2,0,,,,,,,,,0,0,0,0,0,15,15,15,2,0,2,0,,,,,,,,,,,,,,,,,,,,,,,,,,,,,,,,,,,,,,,,,,,,,,,,,,,,,,,,,,,,,,,,30,,,,,,,,2210.3365245999885,2210.3365245999885,2210.3365245999885,2210.3365245999885,2210.3365245999885,,,,,left,0.20936240002629347,1,0,0,99,0.23999999999999994,-0.16,left,0.12069459998747334,,,,,,,,,,,,,,,,,,,,,,,,,,,,,,,,,,,,,,,,,,,,,,,,,,,,,,,,D5QAKR,train_x,red_square,bottom_right,2025-03-22_13h08.24.056,HideSeek_v1,2022.2.5,59.89946474338992,
,8,3,4,3,-4,0,56,,train_dim1_1,16,30,,,,2,0,2,0,,,,,,,,,0,0,0,0,0,15,15,15,3,0,3,0,,,,,,,,,,,,,,,,,,,,,,,,,,,,,,,,,,,,,,,,,,,,,,,,,,,,,,,,,,,,,,,,30,,,,,,,,2210.5519690999936,2210.5519690999936,2210.5519690999936,2210.5519690999936,2210.5519690999936,,,,,left,0.19299720000708476,1,0,0,99,0.15999999999999992,-0.16,left,0.10959079998428933,,,,,,,,,,,,,,,,,,,,,,,,,,,,,,,,,,,,,,,,,,,,,,,,,,,,,,,,D5QAKR,train_x,red_square,bottom_right,2025-03-22_13h08.24.056,HideSeek_v1,2022.2.5,59.89946474338992,
,8,3,4,3,-4,0,56,,train_dim1_1,16,30,,,,2,0,2,0,,,,,,,,,0,0,0,0,0,15,15,15,4,0,4,0,,,,,,,,,,,,,,,,,,,,,,,,,,,,,,,,,,,,,,,,,,,,,,,,,,,,,,,,,,,,,,,,30,,,,,,,,2210.75167540001,2210.75167540001,2210.75167540001,2210.75167540001,2210.75167540001,,,,,left,0.22674659997574054,1,0,0,99,0.07999999999999992,-0.16,left,0.1404196000075899,,,,,,,,,,,,,,,,,,,,,,,,,,,,,,,,,,,,,,,,,,,,,,,,,,,,,,,,D5QAKR,train_x,red_square,bottom_right,2025-03-22_13h08.24.056,HideSeek_v1,2022.2.5,59.89946474338992,
,8,3,4,3,-4,0,56,,train_dim1_1,16,30,,,,2,0,2,0,,,,,,,,,0,0,0,0,0,15,15,15,5,0,5,0,,,,,,,,,,,,,,,,,,,,,,,,,,,,,,,,,,,,,,,,,,,,,,,,,,,,,,,,,,,,,,,,30,,,,,,,,2210.9849676000013,2210.9849676000013,2210.9849676000013,2210.9849676000013,2210.9849676000013,,,,,right,2.345103500003461,1,0,0,99,0.15999999999999992,-0.16,right,2.261992599989753,,,,,,,,,,,,,,,,,,,,,,,,,,,,,,,,,,,,,,,,,,,,,,,,,,,,,,,,D5QAKR,train_x,red_square,bottom_right,2025-03-22_13h08.24.056,HideSeek_v1,2022.2.5,59.89946474338992,
,8,3,4,3,-4,0,56,,train_dim1_1,16,30,,,,2,0,2,0,,,,,,,,,0,0,0,0,0,15,15,15,6,0,6,0,,,,,,,,,,,,,,,,,,,,,,,,,,,,,,,,,,,,,,,,,,,,,,,,,,,,,,,,,,,,,,,,30,,,,,,,,2213.3386481000052,2213.3386481000052,2213.3386481000052,2213.3386481000052,2213.3386481000052,,,,,right,0.40977159998146817,1,0,0,99,0.23999999999999994,-0.16,right,0.3234058000089135,,,,,,,,,,,,,,,,,,,,,,,,,,,,,,,,,,,,,,,,,,,,,,,,,,,,,,,,D5QAKR,train_x,red_square,bottom_right,2025-03-22_13h08.24.056,HideSeek_v1,2022.2.5,59.89946474338992,
,8,3,4,3,-4,0,56,,train_dim1_1,16,30,,,,2,0,2,0,,,,,,,,,0,0,0,0,0,15,15,15,7,0,7,0,,,,,,,,,,,,,,,,,,,,,,,,,,,,,,,,,,,,,,,,,,,,,,,,,,,,,,,,,,,,,,,,30,,,,,,,,2213.754875399987,2213.754875399987,2213.754875399987,2213.754875399987,2213.754875399987,6,-29,0.23999999999999994,-0.16,return,4.129779099981533,1,1,0,0,0.23999999999999994,-0.16,return,4.04939950001426,,,,,,,,,,,,,,,,,,,,,,,,,,,,,,,,,,,,,,,,,,,,,,,,,,,,,,,,D5QAKR,train_x,red_square,bottom_right,2025-03-22_13h08.24.056,HideSeek_v1,2022.2.5,59.89946474338992,
,7,4,6,4,-1,0,26,,train_dim1_1,17,30,,,,2,0,2,0,,,,,,,,,0,0,0,0,0,16,16,16,0,0,0,0,,,,,,,,,,,,,,,,,,,,,,,,,stimuli/alien_stimuli/26.png,,,,,,,,,,,,,,,,,,,,,,,,,,,,,stimuli/alien_stimuli/56.png,56,8,18,,,,,,,30,,,,,,,,2224.791963399999,2224.791963399999,2224.791963399999,2224.791963399999,2224.791963399999,,,,,left,4.125748899998143,1,1,0,99,0.32,-0.08,left,4.038959500001511,2223.2305621000123,2224.791963399999,0.16,-0.16,0.0,0.32,-0.16,0.16,0.32,0.16,-0.16,2219.4600022000086,2219.4600022000086,2219.4600022000086,2219.4600022000086,2219.4600022000086,2219.4600022000086,2219.4600022000086,2219.4600022000086,2219.4441376600125,3.888877500023227,return,3.7501718000276014,,,,,,,,,,,,,,,,,,,,,,,,,,,,,,,,,D5QAKR,train_x,red_square,bottom_right,2025-03-22_13h08.24.056,HideSeek_v1,2022.2.5,59.89946474338992,
,7,4,6,4,-1,0,26,,train_dim1_1,17,30,,,,2,0,2,0,,,,,,,,,0,0,0,0,0,16,16,16,1,0,1,0,,,,,,,,,,,,,,,,,,,,,,,,,,,,,,,,,,,,,,,,,,,,,,,,,,,,,,,,,,,,,,,,30,,,,,,,,2228.919840799994,2228.919840799994,2228.919840799994,2228.919840799994,2228.919840799994,,,,,right,3.0117560000217054,1,1,0,99,0.4,-0.08,right,2.920646000013221,,,,,,,,,,,,,,,,,,,,,,,,,,,,,,,,,,,,,,,,,,,,,,,,,,,,,,,,D5QAKR,train_x,red_square,bottom_right,2025-03-22_13h08.24.056,HideSeek_v1,2022.2.5,59.89946474338992,
,7,4,6,4,-1,0,26,,train_dim1_1,17,30,,,,2,0,2,0,,,,,,,,,0,0,0,0,0,16,16,16,2,0,2,0,,,,,,,,,,,,,,,,,,,,,,,,,,,,,,,,,,,,,,,,,,,,,,,,,,,,,,,,,,,,,,,,30,,,,,,,,2231.9380739000044,2231.9380739000044,2231.9380739000044,2231.9380739000044,2231.9380739000044,,,,,right,1.260416900011478,1,1,0,99,0.48000000000000004,-0.08,right,1.1736772000149358,,,,,,,,,,,,,,,,,,,,,,,,,,,,,,,,,,,,,,,,,,,,,,,,,,,,,,,,D5QAKR,train_x,red_square,bottom_right,2025-03-22_13h08.24.056,HideSeek_v1,2022.2.5,59.89946474338992,
,7,4,6,4,-1,0,26,,train_dim1_1,17,30,,,,2,0,2,0,,,,,,,,,0,0,0,0,0,16,16,16,3,0,3,0,,,,,,,,,,,,,,,,,,,,,,,,,,,,,,,,,,,,,,,,,,,,,,,,,,,,,,,,,,,,,,,,30,,,,,,,,2233.206517899991,2233.206517899991,2233.206517899991,2233.206517899991,2233.206517899991,,,,,left,3.312405200005742,1,1,0,99,0.4,-0.08,left,3.2250430999847595,,,,,,,,,,,,,,,,,,,,,,,,,,,,,,,,,,,,,,,,,,,,,,,,,,,,,,,,D5QAKR,train_x,red_square,bottom_right,2025-03-22_13h08.24.056,HideSeek_v1,2022.2.5,59.89946474338992,
,7,4,6,4,-1,0,26,,train_dim1_1,17,30,,,,2,0,2,0,,,,,,,,,0,0,0,0,0,16,16,16,4,0,4,0,,,,,,,,,,,,,,,,,,,,,,,,,,,,,,,,,,,,,,,,,,,,,,,,,,,,,,,,,,,,,,,,30,,,,,,,,2236.525575799984,2236.525575799984,2236.525575799984,2236.525575799984,2236.525575799984,6,-29,0.4,-0.08,return,1.0599229999934323,1,1,0,0,0.4,-0.08,return,0.9679236000229139,,,,,,,,,,,,,,,,,,,,,,,,,,,,,,,,,,,,,,,,,,,,,,,,,,,,,,,,D5QAKR,train_x,red_square,bottom_right,2025-03-22_13h08.24.056,HideSeek_v1,2022.2.5,59.89946474338992,
,7,1,2,1,-5,0,66,,train_dim1_1,18,30,,,,2,0,2,0,,,,,,,,,0,0,0,0,0,17,17,17,0,0,0,0,,,,,,,,,,,,,,,,,,,,,,,,,stimuli/alien_stimuli/66.png,,,,,,,,,,,,,,,,,,,,,,,,,,,,,stimuli/alien_stimuli/26.png,26,7,19,,,,,,,30,,,,,,,,2243.954354699992,2243.954354699992,2243.954354699992,2243.954354699992,2243.954354699992,,,,,up,1.924093699984951,1,1,0,99,0.4,-0.24,up,1.8344334999856073,2242.396737400006,2243.954354699992,0.32,-0.08,0.0,0.08,-0.08,0.32,0.36,0.32,-0.08,2239.1629377999925,2239.1629377999925,2239.1629377999925,2239.1629377999925,2239.1629377999925,2239.1629377999925,2239.1629377999925,2239.1629377999925,2239.144010060013,3.3547885000007227,return,3.214592600008473,,,,,,,,,,,,,,,,,,,,,,,,,,,,,,,,,D5QAKR,train_x,red_square,bottom_right,2025-03-22_13h08.24.056,HideSeek_v1,2022.2.5,59.89946474338992,
,7,1,2,1,-5,0,66,,train_dim1_1,18,30,,,,2,0,2,0,,,,,,,,,0,0,0,0,0,17,17,17,1,0,1,0,,,,,,,,,,,,,,,,,,,,,,,,,,,,,,,,,,,,,,,,,,,,,,,,,,,,,,,,,,,,,,,,30,,,,,,,,2245.8790359999985,2245.8790359999985,2245.8790359999985,2245.8790359999985,2245.8790359999985,,,,,up,0.24276750002172776,1,1,0,99,0.4,-0.15999999999999998,up,0.15786170001956634,,,,,,,,,,,,,,,,,,,,,,,,,,,,,,,,,,,,,,,,,,,,,,,,,,,,,,,,D5QAKR,train_x,red_square,bottom_right,2025-03-22_13h08.24.056,HideSeek_v1,2022.2.5,59.89946474338992,
,7,1,2,1,-5,0,66,,train_dim1_1,18,30,,,,2,0,2,0,,,,,,,,,0,0,0,0,0,17,17,17,2,0,2,0,,,,,,,,,,,,,,,,,,,,,,,,,,,,,,,,,,,,,,,,,,,,,,,,,,,,,,,,,,,,,,,,30,,,,,,,,2246.131169900007,2246.131169900007,2246.131169900007,2246.131169900007,2246.131169900007,,,,,up,0.2931275999872014,1,1,0,99,0.4,-0.07999999999999997,up,0.2110230000107549,,,,,,,,,,,,,,,,,,,,,,,,,,,,,,,,,,,,,,,,,,,,,,,,,,,,,,,,D5QAKR,train_x,red_square,bottom_right,2025-03-22_13h08.24.056,HideSeek_v1,2022.2.5,59.89946474338992,
,7,1,2,1,-5,0,66,,train_dim1_1,18,30,,,,2,0,2,0,,,,,,,,,0,0,0,0,0,17,17,17,3,0,3,0,,,,,,,,,,,,,,,,,,,,,,,,,,,,,,,,,,,,,,,,,,,,,,,,,,,,,,,,,,,,,,,,30,,,,,,,,2246.428915299999,2246.428915299999,2246.428915299999,2246.428915299999,2246.428915299999,,,,,up,0.27652539999689907,1,1,0,99,0.4,2.7755575615628914e-17,up,0.1892140000127256,,,,,,,,,,,,,,,,,,,,,,,,,,,,,,,,,,,,,,,,,,,,,,,,,,,,,,,,D5QAKR,train_x,red_square,bottom_right,2025-03-22_13h08.24.056,HideSeek_v1,2022.2.5,59.89946474338992,
,7,1,2,1,-5,0,66,,train_dim1_1,18,30,,,,2,0,2,0,,,,,,,,,0,0,0,0,0,17,17,17,4,0,4,0,,,,,,,,,,,,,,,,,,,,,,,,,,,,,,,,,,,,,,,,,,,,,,,,,,,,,,,,,,,,,,,,30,,,,,,,,2246.7124630000035,2246.7124630000035,2246.7124630000035,2246.7124630000035,2246.7124630000035,,,,,up,0.3101781999866944,1,1,0,99,0.4,0.08000000000000003,up,0.23696550002205186,,,,,,,,,,,,,,,,,,,,,,,,,,,,,,,,,,,,,,,,,,,,,,,,,,,,,,,,D5QAKR,train_x,red_square,bottom_right,2025-03-22_13h08.24.056,HideSeek_v1,2022.2.5,59.89946474338992,
,7,1,2,1,-5,0,66,,train_dim1_1,18,30,,,,2,0,2,0,,,,,,,,,0,0,0,0,0,17,17,17,5,0,5,0,,,,,,,,,,,,,,,,,,,,,,,,,,,,,,,,,,,,,,,,,,,,,,,,,,,,,,,,,,,,,,,,30,,,,,,,,2247.030324099993,2247.030324099993,2247.030324099993,2247.030324099993,2247.030324099993,,,,,down,1.3441129999991972,1,1,0,99,0.4,2.7755575615628914e-17,down,1.2662808999884874,,,,,,,,,,,,,,,,,,,,,,,,,,,,,,,,,,,,,,,,,,,,,,,,,,,,,,,,D5QAKR,train_x,red_square,bottom_right,2025-03-22_13h08.24.056,HideSeek_v1,2022.2.5,59.89946474338992,
,7,1,2,1,-5,0,66,,train_dim1_1,18,30,,,,2,0,2,0,,,,,,,,,0,0,0,0,0,17,17,17,6,0,6,0,,,,,,,,,,,,,,,,,,,,,,,,,,,,,,,,,,,,,,,,,,,,,,,,,,,,,,,,,,,,,,,,30,,,,,,,,2248.3810250000097,2248.3810250000097,2248.3810250000097,2248.3810250000097,2248.3810250000097,,,,,down,0.2766340000089258,1,1,0,99,0.4,-0.07999999999999997,down,0.19880539999576285,,,,,,,,,,,,,,,,,,,,,,,,,,,,,,,,,,,,,,,,,,,,,,,,,,,,,,,,D5QAKR,train_x,red_square,bottom_right,2025-03-22_13h08.24.056,HideSeek_v1,2022.2.5,59.89946474338992,
,7,1,2,1,-5,0,66,,train_dim1_1,18,30,,,,2,0,2,0,,,,,,,,,0,0,0,0,0,17,17,17,7,0,7,0,,,,,,,,,,,,,,,,,,,,,,,,,,,,,,,,,,,,,,,,,,,,,,,,,,,,,,,,,,,,,,,,30,,,,,,,,2248.6646279999986,2248.6646279999986,2248.6646279999986,2248.6646279999986,2248.6646279999986,,,,,up,1.777896299987333,1,1,0,99,0.4,2.7755575615628914e-17,up,1.6957121000159532,,,,,,,,,,,,,,,,,,,,,,,,,,,,,,,,,,,,,,,,,,,,,,,,,,,,,,,,D5QAKR,train_x,red_square,bottom_right,2025-03-22_13h08.24.056,HideSeek_v1,2022.2.5,59.89946474338992,
,7,1,2,1,-5,0,66,,train_dim1_1,18,30,,,,2,0,2,0,,,,,,,,,0,0,0,0,0,17,17,17,8,0,8,0,,,,,,,,,,,,,,,,,,,,,,,,,,,,,,,,,,,,,,,,,,,,,,,,,,,,,,,,,,,,,,,,30,,,,,,,,2250.454469999997,2250.454469999997,2250.454469999997,2250.454469999997,2250.454469999997,,,,,up,1.5743959000101313,1,1,0,99,0.4,0.08000000000000003,up,1.4886960000148974,,,,,,,,,,,,,,,,,,,,,,,,,,,,,,,,,,,,,,,,,,,,,,,,,,,,,,,,D5QAKR,train_x,red_square,bottom_right,2025-03-22_13h08.24.056,HideSeek_v1,2022.2.5,59.89946474338992,
,7,1,2,1,-5,0,66,,train_dim1_1,18,30,,,,2,0,2,0,,,,,,,,,0,0,0,0,0,17,17,17,9,0,9,0,,,,,,,,,,,,,,,,,,,,,,,,,,,,,,,,,,,,,,,,,,,,,,,,,,,,,,,,,,,,,,,,30,,,,,,,,2252.0344856999873,2252.0344856999873,2252.0344856999873,2252.0344856999873,2252.0344856999873,11,-29,0.4,0.08000000000000003,return,0.8767044999985956,1,0,0,0,0.4,0.08000000000000003,return,0.8003389999794308,,,,,,,,,,,,,,,,,,,,,,,,,,,,,,,,,,,,,,,,,,,,,,,,,,,,,,,,D5QAKR,train_x,red_square,bottom_right,2025-03-22_13h08.24.056,HideSeek_v1,2022.2.5,59.89946474338992,
,5,3,2,3,-3,0,46,,train_dim1_1,19,30,,,,2,0,2,0,,,,,,,,,0,0,0,0,0,18,18,18,0,0,0,0,,,,,,,,,,,,,,,,,,,,,,,,,stimuli/alien_stimuli/46.png,,,,,,,,,,,,,,,,,,,,,,,,,,,,,stimuli/alien_stimuli/66.png,66,7,20,,,,,,,30,,,,,,,,2258.159955799987,2258.159955799987,2258.159955799987,2258.159955799987,2258.159955799987,,,,,right,1.9908068999939132,1,0,0,99,0.32,-0.16,right,1.897523399995407,2256.591927500005,2258.159955799987,0,-0.32,0.0,0.4,-0.32,0,0.2,0,-0.32,2254.486336700007,2254.486336700007,2254.486336700007,2254.486336700007,2254.486336700007,2254.486336700007,2254.486336700007,2254.486336700007,2254.47304935999,2.2211857000074815,return,2.0868734999967273,,,,,,,,,,,,,,,,,,,,,,,,,,,,,,,,,D5QAKR,train_x,red_square,bottom_right,2025-03-22_13h08.24.056,HideSeek_v1,2022.2.5,59.89946474338992,
,5,3,2,3,-3,0,46,,train_dim1_1,19,30,,,,2,0,2,0,,,,,,,,,0,0,0,0,0,18,18,18,1,0,1,0,,,,,,,,,,,,,,,,,,,,,,,,,,,,,,,,,,,,,,,,,,,,,,,,,,,,,,,,,,,,,,,,30,,,,,,,,2260.1453387000074,2260.1453387000074,2260.1453387000074,2260.1453387000074,2260.1453387000074,,,,,right,0.27314230002230033,1,0,0,99,0.4,-0.16,right,0.20034389998181723,,,,,,,,,,,,,,,,,,,,,,,,,,,,,,,,,,,,,,,,,,,,,,,,,,,,,,,,D5QAKR,train_x,red_square,bottom_right,2025-03-22_13h08.24.056,HideSeek_v1,2022.2.5,59.89946474338992,
,5,3,2,3,-3,0,46,,train_dim1_1,19,30,,,,2,0,2,0,,,,,,,,,0,0,0,0,0,18,18,18,2,0,2,0,,,,,,,,,,,,,,,,,,,,,,,,,,,,,,,,,,,,,,,,,,,,,,,,,,,,,,,,,,,,,,,,30,,,,,,,,2260.4244967999985,2260.4244967999985,2260.4244967999985,2260.4244967999985,2260.4244967999985,,,,,up,1.6108259000175167,1,0,0,99,0.4,-0.08,up,1.536431899992749,,,,,,,,,,,,,,,,,,,,,,,,,,,,,,,,,,,,,,,,,,,,,,,,,,,,,,,,D5QAKR,train_x,red_square,bottom_right,2025-03-22_13h08.24.056,HideSeek_v1,2022.2.5,59.89946474338992,
,5,3,2,3,-3,0,46,,train_dim1_1,19,30,,,,2,0,2,0,,,,,,,,,0,0,0,0,0,18,18,18,3,0,3,0,,,,,,,,,,,,,,,,,,,,,,,,,,,,,,,,,,,,,,,,,,,,,,,,,,,,,,,,,,,,,,,,30,,,,,,,,2262.0432058000006,2262.0432058000006,2262.0432058000006,2262.0432058000006,2262.0432058000006,,,,,up,0.30965480001759715,1,0,0,99,0.4,0.0,up,0.22695159999420866,,,,,,,,,,,,,,,,,,,,,,,,,,,,,,,,,,,,,,,,,,,,,,,,,,,,,,,,D5QAKR,train_x,red_square,bottom_right,2025-03-22_13h08.24.056,HideSeek_v1,2022.2.5,59.89946474338992,
,5,3,2,3,-3,0,46,,train_dim1_1,19,30,,,,2,0,2,0,,,,,,,,,0,0,0,0,0,18,18,18,4,0,4,0,,,,,,,,,,,,,,,,,,,,,,,,,,,,,,,,,,,,,,,,,,,,,,,,,,,,,,,,,,,,,,,,30,,,,,,,,2262.359279299999,2262.359279299999,2262.359279299999,2262.359279299999,2262.359279299999,,,,,left,1.744299099984346,1,0,0,99,0.32,0.0,left,1.6590615000168327,,,,,,,,,,,,,,,,,,,,,,,,,,,,,,,,,,,,,,,,,,,,,,,,,,,,,,,,D5QAKR,train_x,red_square,bottom_right,2025-03-22_13h08.24.056,HideSeek_v1,2022.2.5,59.89946474338992,
,5,3,2,3,-3,0,46,,train_dim1_1,19,30,,,,2,0,2,0,,,,,,,,,0,0,0,0,0,18,18,18,5,0,5,0,,,,,,,,,,,,,,,,,,,,,,,,,,,,,,,,,,,,,,,,,,,,,,,,,,,,,,,,,,,,,,,,30,,,,,,,,2264.1112083999906,2264.1112083999906,2264.1112083999906,2264.1112083999906,2264.1112083999906,,,,,left,0.2599098999926355,1,0,0,99,0.24,0.0,left,0.1796526999969501,,,,,,,,,,,,,,,,,,,,,,,,,,,,,,,,,,,,,,,,,,,,,,,,,,,,,,,,D5QAKR,train_x,red_square,bottom_right,2025-03-22_13h08.24.056,HideSeek_v1,2022.2.5,59.89946474338992,
,5,3,2,3,-3,0,46,,train_dim1_1,19,30,,,,2,0,2,0,,,,,,,,,0,0,0,0,0,18,18,18,6,0,6,0,,,,,,,,,,,,,,,,,,,,,,,,,,,,,,,,,,,,,,,,,,,,,,,,,,,,,,,,,,,,,,,,30,,,,,,,,2264.3777222000062,2264.3777222000062,2264.3777222000062,2264.3777222000062,2264.3777222000062,13,-29,0.24,0.0,return,1.026410799997393,1,0,0,0,0.24,0.0,return,0.9532870999828447,,,,,,,,,,,,,,,,,,,,,,,,,,,,,,,,,,,,,,,,,,,,,,,,,,,,,,,,D5QAKR,train_x,red_square,bottom_right,2025-03-22_13h08.24.056,HideSeek_v1,2022.2.5,59.89946474338992,
,5,1,5,1,0,0,16,,train_dim1_1,20,30,,,,2,0,2,0,,,,,,,,,0,0,0,0,0,19,19,19,0,0,0,0,,,,,,,,,,,,,,,,,,,,,,,,,stimuli/alien_stimuli/16.png,,,,,,,,,,,,,,,,,,,,,,,,,,,,,stimuli/alien_stimuli/46.png,46,5,21,,,,,,,30,,,,,,,,2272.648582900001,2272.648582900001,2272.648582900001,2272.648582900001,2272.648582900001,,,,,left,4.893729399977019,1,0,0,99,0.15999999999999998,-0.32,left,4.7999564000056125,2271.087197999994,2272.648582900001,0,-0.16,0.0,0.24,-0.16,0,0.12,0,-0.16,2266.9826668000023,2266.9826668000023,2266.9826668000023,2266.9826668000023,2266.9826668000023,2266.9826668000023,2266.9826668000023,2266.9826668000023,2266.9667075600128,4.222734999988461,return,4.084135600016452,,,,,,,,,,,,,,,,,,,,,,,,,,,,,,,,,D5QAKR,train_x,red_square,bottom_right,2025-03-22_13h08.24.056,HideSeek_v1,2022.2.5,59.89946474338992,
,5,1,5,1,0,0,16,,train_dim1_1,20,30,,,,2,0,2,0,,,,,,,,,0,0,0,0,0,19,19,19,1,0,1,0,,,,,,,,,,,,,,,,,,,,,,,,,,,,,,,,,,,,,,,,,,,,,,,,,,,,,,,,,,,,,,,,30,,,,,,,,2277.5443960999837,2277.5443960999837,2277.5443960999837,2277.5443960999837,2277.5443960999837,,,,,right,0.6763725999917369,1,0,0,99,0.24,-0.32,right,0.5867912000103388,,,,,,,,,,,,,,,,,,,,,,,,,,,,,,,,,,,,,,,,,,,,,,,,,,,,,,,,D5QAKR,train_x,red_square,bottom_right,2025-03-22_13h08.24.056,HideSeek_v1,2022.2.5,59.89946474338992,
,5,1,5,1,0,0,16,,train_dim1_1,20,30,,,,2,0,2,0,,,,,,,,,0,0,0,0,0,19,19,19,2,0,2,0,,,,,,,,,,,,,,,,,,,,,,,,,,,,,,,,,,,,,,,,,,,,,,,,,,,,,,,,,,,,,,,,30,,,,,,,,2278.226649999997,2278.226649999997,2278.226649999997,2278.226649999997,2278.226649999997,13,-29,0.24,-0.32,return,1.4275271999940742,2,0,0,1,0.24,-0.32,return,1.3505842000013217,,,,,,,,,,,,,,,,,,,,,,,,,,,,,,,,,,,,,,,,,,,,,,,,,,,,,,,,D5QAKR,train_x,red_square,bottom_right,2025-03-22_13h08.24.056,HideSeek_v1,2022.2.5,59.89946474338992,
,9,2,6,2,-3,0,46,,train_dim1_1,21,30,,,,2,0,2,0,,,,,,,,,0,0,0,0,0,20,20,20,0,0,0,0,,,,,,,,,,,,,,,,,,,,,,,,,stimuli/alien_stimuli/46.png,,,,,,,,,,,,,,,,,,,,,,,,,,,,,stimuli/alien_stimuli/16.png,16,5,22,,,,,,,30,,,,,,,,2286.688805999991,2286.688805999991,2286.688805999991,2286.688805999991,2286.688805999991,,,,,left,1.4072435999987647,2,0,0,99,0.48000000000000004,-0.24,left,1.3194727000081912,2285.1322028999857,2286.688805999991,0.24,-0.32,0.0,0.0,-0.32,0.24,0.24,0.24,-0.32,2281.237309899996,2281.237309899996,2281.237309899996,2281.237309899996,2281.237309899996,2281.237309899996,2281.237309899996,2281.237309899996,2281.2288507399967,4.0219980999827385,return,3.878800800011959,,,,,,,,,,,,,,,,,,,,,,,,,,,,,,,,,D5QAKR,train_x,red_square,bottom_right,2025-03-22_13h08.24.056,HideSeek_v1,2022.2.5,59.89946474338992,
,9,2,6,2,-3,0,46,,train_dim1_1,21,30,,,,2,0,2,0,,,,,,,,,0,0,0,0,0,20,20,20,1,0,1,0,,,,,,,,,,,,,,,,,,,,,,,,,,,,,,,,,,,,,,,,,,,,,,,,,,,,,,,,,,,,,,,,30,,,,,,,,2288.0976916000072,2288.0976916000072,2288.0976916000072,2288.0976916000072,2288.0976916000072,,,,,left,0.22569769999245182,2,0,0,99,0.4,-0.24,left,0.14891240000724792,,,,,,,,,,,,,,,,,,,,,,,,,,,,,,,,,,,,,,,,,,,,,,,,,,,,,,,,D5QAKR,train_x,red_square,bottom_right,2025-03-22_13h08.24.056,HideSeek_v1,2022.2.5,59.89946474338992,
,9,2,6,2,-3,0,46,,train_dim1_1,21,30,,,,2,0,2,0,,,,,,,,,0,0,0,0,0,20,20,20,2,0,2,0,,,,,,,,,,,,,,,,,,,,,,,,,,,,,,,,,,,,,,,,,,,,,,,,,,,,,,,,,,,,,,,,30,,,,,,,,2288.33133690001,2288.33133690001,2288.33133690001,2288.33133690001,2288.33133690001,13,-31,0.4,-0.24,return,1.9112237000081223,2,1,0,0,0.4,-0.24,return,1.831929800013313,,,,,,,,,,,,,,,,,,,,,,,,,,,,,,,,,,,,,,,,,,,,,,,,,,,,,,,,D5QAKR,train_x,red_square,bottom_right,2025-03-22_13h08.24.056,HideSeek_v1,2022.2.5,59.89946474338992,
,6,0,5,0,-1,0,26,,train_dim1_1,22,30,,,,2,0,2,0,,,,,,,,,0,0,0,0,0,21,21,21,0,0,0,0,,,,,,,,,,,,,,,,,,,,,,,,,stimuli/alien_stimuli/26.png,,,,,,,,,,,,,,,,,,,,,,,,,,,,,stimuli/alien_stimuli/46.png,46,9,23,,,,,,,30,,,,,,,,2297.287028199993,2297.287028199993,2297.287028199993,2297.287028199993,2297.287028199993,,,,,left,2.7078436999872793,2,1,0,99,0.24,-0.4,left,2.615004499995848,2295.724499300006,2297.287028199993,0.32,-0.24,0.0,0.24,-0.24,0.32,0.44000000000000006,0.32,-0.24,2291.819977899984,2291.819977899984,2291.819977899984,2291.819977899984,2291.819977899984,2291.819977899984,2291.819977899984,2291.819977899984,2291.8040468600057,4.022233600000618,return,3.8791393999999855,,,,,,,,,,,,,,,,,,,,,,,,,,,,,,,,,D5QAKR,train_x,red_square,bottom_right,2025-03-22_13h08.24.056,HideSeek_v1,2022.2.5,59.89946474338992,
,6,0,5,0,-1,0,26,,train_dim1_1,22,30,,,,2,0,2,0,,,,,,,,,0,0,0,0,0,21,21,21,1,0,1,0,,,,,,,,,,,,,,,,,,,,,,,,,,,,,,,,,,,,,,,,,,,,,,,,,,,,,,,,,,,,,,,,30,,,,,,,,2300.0015445000026,2300.0015445000026,2300.0015445000026,2300.0015445000026,2300.0015445000026,13,-32,0.24,-0.4,return,0.905789399985224,3,0,0,1,0.24,-0.4,return,0.8240586000028998,,,,,,,,,,,,,,,,,,,,,,,,,,,,,,,,,,,,,,,,,,,,,,,,,,,,,,,,D5QAKR,train_x,red_square,bottom_right,2025-03-22_13h08.24.056,HideSeek_v1,2022.2.5,59.89946474338992,
,7,1,2,1,-5,0,66,,train_dim1_1,23,30,,,,2,0,2,0,,,,,,,,,0,0,0,0,0,22,22,22,0,0,0,0,,,,,,,,,,,,,,,,,,,,,,,,,stimuli/alien_stimuli/66.png,,,,,,,,,,,,,,,,,,,,,,,,,,,,,stimuli/alien_stimuli/26.png,26,6,24,,,,,,,30,,,,,,,,2308.1774311999907,2308.1774311999907,2308.1774311999907,2308.1774311999907,2308.1774311999907,,,,,left,2.307433299982222,3,0,0,99,0.32,-0.32,left,2.216279800020857,2306.616526400001,2308.1774311999907,0.24,-0.4,0.0,0.08,-0.4,0.24,0.28,0.24,-0.4,2302.4996006999863,2302.4996006999863,2302.4996006999863,2302.4996006999863,2302.4996006999863,2302.4996006999863,2302.4996006999863,2302.4996006999863,2302.479292140011,4.256081400002586,return,4.092666400014423,,,,,,,,,,,,,,,,,,,,,,,,,,,,,,,,,D5QAKR,train_x,red_square,bottom_right,2025-03-22_13h08.24.056,HideSeek_v1,2022.2.5,59.89946474338992,
,7,1,2,1,-5,0,66,,train_dim1_1,23,30,,,,2,0,2,0,,,,,,,,,0,0,0,0,0,22,22,22,1,0,1,0,,,,,,,,,,,,,,,,,,,,,,,,,,,,,,,,,,,,,,,,,,,,,,,,,,,,,,,,,,,,,,,,30,,,,,,,,2310.4836207999906,2310.4836207999906,2310.4836207999906,2310.4836207999906,2310.4836207999906,,,,,left,0.20995240000775084,3,0,0,99,0.24,-0.32,left,0.13637149997521192,,,,,,,,,,,,,,,,,,,,,,,,,,,,,,,,,,,,,,,,,,,,,,,,,,,,,,,,D5QAKR,train_x,red_square,bottom_right,2025-03-22_13h08.24.056,HideSeek_v1,2022.2.5,59.89946474338992,
,7,1,2,1,-5,0,66,,train_dim1_1,23,30,,,,2,0,2,0,,,,,,,,,0,0,0,0,0,22,22,22,2,0,2,0,,,,,,,,,,,,,,,,,,,,,,,,,,,,,,,,,,,,,,,,,,,,,,,,,,,,,,,,,,,,,,,,30,,,,,,,,2310.701995899988,2310.701995899988,2310.701995899988,2310.701995899988,2310.701995899988,,,,,left,0.20891879999544472,3,0,0,99,0.15999999999999998,-0.32,left,0.13509710002108477,,,,,,,,,,,,,,,,,,,,,,,,,,,,,,,,,,,,,,,,,,,,,,,,,,,,,,,,D5QAKR,train_x,red_square,bottom_right,2025-03-22_13h08.24.056,HideSeek_v1,2022.2.5,59.89946474338992,
,7,1,2,1,-5,0,66,,train_dim1_1,23,30,,,,2,0,2,0,,,,,,,,,0,0,0,0,0,22,22,22,3,0,3,0,,,,,,,,,,,,,,,,,,,,,,,,,,,,,,,,,,,,,,,,,,,,,,,,,,,,,,,,,,,,,,,,30,,,,,,,,2310.9190599999856,2310.9190599999856,2310.9190599999856,2310.9190599999856,2310.9190599999856,,,,,left,0.20867500000167638,3,0,0,99,0.07999999999999997,-0.32,left,0.11914419999811798,,,,,,,,,,,,,,,,,,,,,,,,,,,,,,,,,,,,,,,,,,,,,,,,,,,,,,,,D5QAKR,train_x,red_square,bottom_right,2025-03-22_13h08.24.056,HideSeek_v1,2022.2.5,59.89946474338992,
,7,1,2,1,-5,0,66,,train_dim1_1,23,30,,,,2,0,2,0,,,,,,,,,0,0,0,0,0,22,22,22,4,0,4,0,,,,,,,,,,,,,,,,,,,,,,,,,,,,,,,,,,,,,,,,,,,,,,,,,,,,,,,,,,,,,,,,30,,,,,,,,2311.134785500006,2311.134785500006,2311.134785500006,2311.134785500006,2311.134785500006,,,,,up,0.49307120000594296,3,0,0,99,0.07999999999999997,-0.24,up,0.4090587999962736,,,,,,,,,,,,,,,,,,,,,,,,,,,,,,,,,,,,,,,,,,,,,,,,,,,,,,,,D5QAKR,train_x,red_square,bottom_right,2025-03-22_13h08.24.056,HideSeek_v1,2022.2.5,59.89946474338992,
,7,1,2,1,-5,0,66,,train_dim1_1,23,30,,,,2,0,2,0,,,,,,,,,0,0,0,0,0,22,22,22,5,0,5,0,,,,,,,,,,,,,,,,,,,,,,,,,,,,,,,,,,,,,,,,,,,,,,,,,,,,,,,,,,,,,,,,30,,,,,,,,2311.6418154999847,2311.6418154999847,2311.6418154999847,2311.6418154999847,2311.6418154999847,,,,,up,0.20930800001951866,3,0,0,99,0.07999999999999997,-0.15999999999999998,up,0.1293578000040725,,,,,,,,,,,,,,,,,,,,,,,,,,,,,,,,,,,,,,,,,,,,,,,,,,,,,,,,D5QAKR,train_x,red_square,bottom_right,2025-03-22_13h08.24.056,HideSeek_v1,2022.2.5,59.89946474338992,
,7,1,2,1,-5,0,66,,train_dim1_1,23,30,,,,2,0,2,0,,,,,,,,,0,0,0,0,0,22,22,22,6,0,6,0,,,,,,,,,,,,,,,,,,,,,,,,,,,,,,,,,,,,,,,,,,,,,,,,,,,,,,,,,,,,,,,,30,,,,,,,,2311.852933099988,2311.852933099988,2311.852933099988,2311.852933099988,2311.852933099988,,,,,up,0.24217719997977838,3,0,0,99,0.07999999999999997,-0.07999999999999997,up,0.1560237999947276,,,,,,,,,,,,,,,,,,,,,,,,,,,,,,,,,,,,,,,,,,,,,,,,,,,,,,,,D5QAKR,train_x,red_square,bottom_right,2025-03-22_13h08.24.056,HideSeek_v1,2022.2.5,59.89946474338992,
,7,1,2,1,-5,0,66,,train_dim1_1,23,30,,,,2,0,2,0,,,,,,,,,0,0,0,0,0,22,22,22,7,0,7,0,,,,,,,,,,,,,,,,,,,,,,,,,,,,,,,,,,,,,,,,,,,,,,,,,,,,,,,,,,,,,,,,30,,,,,,,,2312.102670799999,2312.102670799999,2312.102670799999,2312.102670799999,2312.102670799999,16,-36,0.07999999999999997,-0.07999999999999997,return,2.944410300027812,3,0,0,0,0.07999999999999997,-0.07999999999999997,return,2.8640222000249196,,,,,,,,,,,,,,,,,,,,,,,,,,,,,,,,,,,,,,,,,,,,,,,,,,,,,,,,D5QAKR,train_x,red_square,bottom_right,2025-03-22_13h08.24.056,HideSeek_v1,2022.2.5,59.89946474338992,
,9,4,5,4,-4,0,56,,train_dim1_1,24,30,,,,2,0,2,0,,,,,,,,,0,0,0,0,0,23,23,23,0,0,0,0,,,,,,,,,,,,,,,,,,,,,,,,,stimuli/alien_stimuli/56.png,,,,,,,,,,,,,,,,,,,,,,,,,,,,,stimuli/alien_stimuli/66.png,66,7,25,,,,,,,30,,,,,,,,2319.901354700007,2319.901354700007,2319.901354700007,2319.901354700007,2319.901354700007,,,,,left,1.3233173999760766,3,0,0,99,0.48000000000000004,-0.08,left,1.2138214000151493,2318.3263218000066,2319.901354700007,0,-0.32,0.0,0.4,-0.32,0,0.2,0,-0.32,2316.627935800003,2316.627935800003,2316.627935800003,2316.627935800003,2316.627935800003,2316.627935800003,2316.627935800003,2316.627935800003,2316.608332660003,1.8204674000153318,return,1.6773601000022609,,,,,,,,,,,,,,,,,,,,,,,,,,,,,,,,,D5QAKR,train_x,red_square,bottom_right,2025-03-22_13h08.24.056,HideSeek_v1,2022.2.5,59.89946474338992,
,9,4,5,4,-4,0,56,,train_dim1_1,24,30,,,,2,0,2,0,,,,,,,,,0,0,0,0,0,23,23,23,1,0,1,0,,,,,,,,,,,,,,,,,,,,,,,,,,,,,,,,,,,,,,,,,,,,,,,,,,,,,,,,,,,,,,,,30,,,,,,,,2321.2108473999833,2321.2108473999833,2321.2108473999833,2321.2108473999833,2321.2108473999833,,,,,left,0.2429083000170067,3,0,0,99,0.4,-0.08,left,0.15773050001007505,,,,,,,,,,,,,,,,,,,,,,,,,,,,,,,,,,,,,,,,,,,,,,,,,,,,,,,,D5QAKR,train_x,red_square,bottom_right,2025-03-22_13h08.24.056,HideSeek_v1,2022.2.5,59.89946474338992,
,9,4,5,4,-4,0,56,,train_dim1_1,24,30,,,,2,0,2,0,,,,,,,,,0,0,0,0,0,23,23,23,2,0,2,0,,,,,,,,,,,,,,,,,,,,,,,,,,,,,,,,,,,,,,,,,,,,,,,,,,,,,,,,,,,,,,,,30,,,,,,,,2321.461789299996,2321.461789299996,2321.461789299996,2321.461789299996,2321.461789299996,,,,,left,0.22628460000851192,3,0,0,99,0.32,-0.08,left,0.14597719997982495,,,,,,,,,,,,,,,,,,,,,,,,,,,,,,,,,,,,,,,,,,,,,,,,,,,,,,,,D5QAKR,train_x,red_square,bottom_right,2025-03-22_13h08.24.056,HideSeek_v1,2022.2.5,59.89946474338992,
,9,4,5,4,-4,0,56,,train_dim1_1,24,30,,,,2,0,2,0,,,,,,,,,0,0,0,0,0,23,23,23,3,0,3,0,,,,,,,,,,,,,,,,,,,,,,,,,,,,,,,,,,,,,,,,,,,,,,,,,,,,,,,,,,,,,,,,30,,,,,,,,2321.694749599992,2321.694749599992,2321.694749599992,2321.694749599992,2321.694749599992,16,-39,0.32,-0.08,return,1.1606016000150703,3,1,0,0,0.32,-0.08,return,1.0819370000099298,,,,,,,,,,,,,,,,,,,,,,,,,,,,,,,,,,,,,,,,,,,,,,,,,,,,,,,,D5QAKR,train_x,red_square,bottom_right,2025-03-22_13h08.24.056,HideSeek_v1,2022.2.5,59.89946474338992,
,8,0,8,0,0,0,16,,train_dim1_1,25,30,,,,2,0,2,0,,,,,,,,,0,0,0,0,0,24,24,24,0,0,0,0,,,,,,,,,,,,,,,,,,,,,,,,,stimuli/alien_stimuli/16.png,,,,,,,,,,,,,,,,,,,,,,,,,,,,,stimuli/alien_stimuli/56.png,56,9,26,,,,,,,30,,,,,,,,2327.6039271999907,2327.6039271999907,2327.6039271999907,2327.6039271999907,2327.6039271999907,16,-39,0.48,-0.4,return,2.4580740999954287,4,0,0,1,0.48,-0.4,return,2.364861399983056,2326.032886400004,2327.6039271999907,0.24,-0.08,0.0,0.32,-0.08,0.24,0.4,0.24,-0.08,2324.418400099996,2324.418400099996,2324.418400099996,2324.418400099996,2324.418400099996,2324.418400099996,2324.418400099996,2324.418400099996,2324.3980722799956,1.7201196000096388,return,1.5924383999954443,,,,,,,,,,,,,,,,,,,,,,,,,,,,,,,,,D5QAKR,train_x,red_square,bottom_right,2025-03-22_13h08.24.056,HideSeek_v1,2022.2.5,59.89946474338992,
,6,1,1,1,-5,0,66,,train_dim1_1,26,30,,,,2,0,2,0,,,,,,,,,0,0,0,0,0,25,25,25,0,0,0,0,,,,,,,,,,,,,,,,,,,,,,,,,stimuli/alien_stimuli/66.png,,,,,,,,,,,,,,,,,,,,,,,,,,,,,stimuli/alien_stimuli/16.png,16,8,27,,,,,,,30,,,,,,,,2334.5973010000016,2334.5973010000016,2334.5973010000016,2334.5973010000016,2334.5973010000016,,,,,up,1.2072241999849211,4,0,0,99,0.32,-0.24,up,1.1054403000161983,2333.0217884999875,2334.5973010000016,0.48,-0.4,0.0,0.0,-0.4,0.48,0.48,0.48,-0.4,2331.6184949000017,2331.6184949000017,2331.6184949000017,2331.6184949000017,2331.6184949000017,2331.6184949000017,2331.6184949000017,2331.6184949000017,2331.6043119600045,1.5193291000032332,return,1.3803181999828666,,,,,,,,,,,,,,,,,,,,,,,,,,,,,,,,,D5QAKR,train_x,red_square,bottom_right,2025-03-22_13h08.24.056,HideSeek_v1,2022.2.5,59.89946474338992,
,6,1,1,1,-5,0,66,,train_dim1_1,26,30,,,,2,0,2,0,,,,,,,,,0,0,0,0,0,25,25,25,1,0,1,0,,,,,,,,,,,,,,,,,,,,,,,,,,,,,,,,,,,,,,,,,,,,,,,,,,,,,,,,,,,,,,,,30,,,,,,,,2335.78857579999,2335.78857579999,2335.78857579999,2335.78857579999,2335.78857579999,,,,,up,0.19285930000478402,4,0,0,99,0.32,-0.15999999999999998,up,0.11567470000591129,,,,,,,,,,,,,,,,,,,,,,,,,,,,,,,,,,,,,,,,,,,,,,,,,,,,,,,,D5QAKR,train_x,red_square,bottom_right,2025-03-22_13h08.24.056,HideSeek_v1,2022.2.5,59.89946474338992,
,6,1,1,1,-5,0,66,,train_dim1_1,26,30,,,,2,0,2,0,,,,,,,,,0,0,0,0,0,25,25,25,2,0,2,0,,,,,,,,,,,,,,,,,,,,,,,,,,,,,,,,,,,,,,,,,,,,,,,,,,,,,,,,,,,,,,,,30,,,,,,,,2335.9884603999963,2335.9884603999963,2335.9884603999963,2335.9884603999963,2335.9884603999963,,,,,up,0.20900680002523586,4,0,0,99,0.32,-0.07999999999999997,up,0.12292759999400005,,,,,,,,,,,,,,,,,,,,,,,,,,,,,,,,,,,,,,,,,,,,,,,,,,,,,,,,D5QAKR,train_x,red_square,bottom_right,2025-03-22_13h08.24.056,HideSeek_v1,2022.2.5,59.89946474338992,
,6,1,1,1,-5,0,66,,train_dim1_1,26,30,,,,2,0,2,0,,,,,,,,,0,0,0,0,0,25,25,25,3,0,3,0,,,,,,,,,,,,,,,,,,,,,,,,,,,,,,,,,,,,,,,,,,,,,,,,,,,,,,,,,,,,,,,,30,,,,,,,,2336.2041895999864,2336.2041895999864,2336.2041895999864,2336.2041895999864,2336.2041895999864,,,,,up,0.19335580000188202,4,0,0,99,0.32,2.7755575615628914e-17,up,0.12038480001501739,,,,,,,,,,,,,,,,,,,,,,,,,,,,,,,,,,,,,,,,,,,,,,,,,,,,,,,,D5QAKR,train_x,red_square,bottom_right,2025-03-22_13h08.24.056,HideSeek_v1,2022.2.5,59.89946474338992,
,6,1,1,1,-5,0,66,,train_dim1_1,26,30,,,,2,0,2,0,,,,,,,,,0,0,0,0,0,25,25,25,4,0,4,0,,,,,,,,,,,,,,,,,,,,,,,,,,,,,,,,,,,,,,,,,,,,,,,,,,,,,,,,,,,,,,,,30,,,,,,,,2336.404391899996,2336.404391899996,2336.404391899996,2336.404391899996,2336.404391899996,,,,,up,0.6766317999863531,4,0,0,99,0.32,0.08000000000000003,up,0.5994431999861263,,,,,,,,,,,,,,,,,,,,,,,,,,,,,,,,,,,,,,,,,,,,,,,,,,,,,,,,D5QAKR,train_x,red_square,bottom_right,2025-03-22_13h08.24.056,HideSeek_v1,2022.2.5,59.89946474338992,
,6,1,1,1,-5,0,66,,train_dim1_1,26,30,,,,2,0,2,0,,,,,,,,,0,0,0,0,0,25,25,25,5,0,5,0,,,,,,,,,,,,,,,,,,,,,,,,,,,,,,,,,,,,,,,,,,,,,,,,,,,,,,,,,,,,,,,,30,,,,,,,,2337.088166200003,2337.088166200003,2337.088166200003,2337.088166200003,2337.088166200003,21,-39,0.32,0.08000000000000003,return,0.9604142000025604,4,0,0,0,0.32,0.08000000000000003,return,0.8762205000093672,,,,,,,,,,,,,,,,,,,,,,,,,,,,,,,,,,,,,,,,,,,,,,,,,,,,,,,,D5QAKR,train_x,red_square,bottom_right,2025-03-22_13h08.24.056,HideSeek_v1,2022.2.5,59.89946474338992,
