trialInstr,x_fixStart,y_fixStart,x_corrSteps,y_corrSteps,x_nrSteps,y_nrSteps,alienID,trialLength,version,trialTrain,praclen,testlen,trial_label,break_on_off,beforeExpLoop.thisRepN,beforeExpLoop.thisTrialN,beforeExpLoop.thisN,beforeExpLoop.thisIndex,mini_instr_trials.thisRepN,mini_instr_trials.thisTrialN,mini_instr_trials.thisN,mini_instr_trials.thisIndex,instrLoop.thisRepN,instrLoop.thisTrialN,instrLoop.thisN,instrLoop.thisIndex,repeat_prac.thisRepN,repeat_prac.thisTrialN,repeat_prac.thisN,repeat_prac.thisIndex,trainLoop.thisRepN,trainLoop.thisTrialN,trainLoop.thisN,trainLoop.thisIndex,moveLoop_train.thisRepN,moveLoop_train.thisTrialN,moveLoop_train.thisN,moveLoop_train.thisIndex,experiment.thisRepN,experiment.thisTrialN,experiment.thisN,experiment.thisIndex,moveLoop_test.thisRepN,moveLoop_test.thisTrialN,moveLoop_test.thisN,moveLoop_test.thisIndex,mini_instr2_trials.thisRepN,mini_instr2_trials.thisTrialN,mini_instr2_trials.thisN,mini_instr2_trials.thisIndex,start_all_time,url,slideStim,audioStim,slides.started,sounds.started,nextButton.numClicks,nextButton.timesOn,nextButton.timesOff,prev_but.numClicks,prev_but.timesOn,prev_but.timesOff,alienStim,instrFile,alienStim_instr,gridImage_instr.started,startPos_3.started,key_instr.started,alienImage_3.started,sounds_1.started,key_instr.keys,key_instr.rt,all_x,all_y,FBy_corrSteps,FBy_fixStart,FBx_corrSteps,FBx_fixStart,FBy_pathSize_check,FBx_pathSize_check,gridImage_9.started,alienImageFB_3.started,startPosFB_3.started,keyFB_3.started,pathLine_ydir_2.started,pathLine_xdir_2.started,alienFace_3.started,sounds_2.started,RTFB_instr,keyFB_3.keys,keyFB_3.rt,draw_alienStim,draw_alienID,test_x,nrepcount,perfthres,percthres,earlierperf,earlystop,nextPrac,fileidx,praclen,saveACC_train,pracFile,nextPrac_train,addNrep,fileidx_endr,repExp,showearly,gridImage_4.started,startPos.started,movePos.started,key_resp.started,alienImage.started,buttonPress_train,RTchoice_train,cumAcctrain,aCorr,saveACC_choice,corrAns,x_movePos_end,y_movePos_end,key_resp.keys,key_resp.rt,wLy_dir,wLx_dir,x_movePos,y_movePos,text_2.started,text_2.stopped,aft_x_corrPos,aft_y_corrPos,y_pathSize_check,x_pathSize_check,y_pathdirY,x_pathdirY,x_pathdirX,x_corrPos,y_corrPos,gridImage_6.started,alienImageFB_2.started,startPosFB_2.started,movePosFB_2.started,keyFB_2.started,pathLine_xdir.started,pathLine_ydir.started,alienFace.started,sounds_4.started,RT_FBtrain,keyFB_2.keys,keyFB_2.rt,saveACC_pre,ACC,within_saveACC_train,earlystop_wloop,cumAcctrain_check,gridImage_3.started,alienImage_test.started,startPos_test.started,movePos_test.started,key_resp_test.started,wLy_dir_test,wLx_dir_test,buttonPress_test,RTchoice_test,cumAcctest,corrAns_test,key_resp_test.keys,key_resp_test.rt,text_3.started,text_3.stopped,total_time,end_all_time,key_resp_3.keys,slides_2.started,sounds_3.started,nextButton_2.numClicks,nextButton_2.timesOn,nextButton_2.timesOff,prev_but_2.numClicks,prev_but_2.timesOn,prev_but_2.timesOff,bye.started,participant,train_first,00_coordinate,starting corner,date,expName,psychopyVersion,frameRate,
,,,,,,,,,,,,,,,0,0,0,0,0,0,0,0,,,,,,,,,,,,,,,,,,,,,,,,,,,,,start_all_time,testround,conditions/schedules/train_x_first/blue_star_00/bottom_right/instructions/Slide1.png,conditions/schedules/train_x_first/blue_star_00/bottom_right/instructions/Audio1.wav,140.1861743000336,140.12862156087067,1,[3.892921600025147],[3.8929288999643177],0,,,,,,,,,,,,,,,,,,,,,,,,,,,,,,,,,,,,,,,,,,,,,,,,,,,,,,,,,,,,,,,,,,,,,,,,,,,,,,,,,,,,,,,,,,,,,,,,,,,,,,,,,,,,,,,,,,,,,,,,,,,,DG5333,train_x,blue_star,bottom_right,2025-08-19_16h51.37.181,HideSeek_v1,2022.2.5,60.137715352645685,
,,,,,,,,,,,,,,,0,0,0,0,1,0,1,0,,,,,,,,,,,,,,,,,,,,,,,,,,,,,,,conditions/schedules/train_x_first/blue_star_00/bottom_right/instructions/Slide2.png,conditions/schedules/train_x_first/blue_star_00/bottom_right/instructions/Audio2.wav,144.0988769000396,144.09994029987138,2,"[3.892921600025147, 18.31395999994129]","[0.00022569997236132622, 18.31396669987589]",0,,,,,,,,,,,,,,,,,,,,,,,,,,,,,,,,,,,,,,,,,,,,,,,,,,,,,,,,,,,,,,,,,,,,,,,,,,,,,,,,,,,,,,,,,,,,,,,,,,,,,,,,,,,,,,,,,,,,,,,,,,,,DG5333,train_x,blue_star,bottom_right,2025-08-19_16h51.37.181,HideSeek_v1,2022.2.5,60.137715352645685,
,,,,,,,,,,,,,,,0,0,0,0,2,0,2,0,,,,,,,,,,,,,,,,,,,,,,,,,,,,,,,conditions/schedules/train_x_first/blue_star_00/bottom_right/instructions/Slide3.png,conditions/schedules/train_x_first/blue_star_00/bottom_right/instructions/Audio3.wav,162.48166229994968,162.48164449993055,3,"[3.892921600025147, 18.31395999994129, 16.661590999923646]","[0.00022569997236132622, 0.014284999808296561, 16.66159769985825]",0,,,,,,,,,,,,,,,,,,,,,,,,,,,,,,,,,,,,,,,,,,,,,,,,,,,,,,,,,,,,,,,,,,,,,,,,,,,,,,,,,,,,,,,,,,,,,,,,,,,,,,,,,,,,,,,,,,,,,,,,,,,,DG5333,train_x,blue_star,bottom_right,2025-08-19_16h51.37.181,HideSeek_v1,2022.2.5,60.137715352645685,
,,,,,,,,,,,,,,,0,0,0,0,3,0,3,0,,,,,,,,,,,,,,,,,,,,,,,,,,,,,,,conditions/schedules/train_x_first/blue_star_00/bottom_right/instructions/Slide4.png,conditions/schedules/train_x_first/blue_star_00/bottom_right/instructions/Audio4.wav,179.22757559991442,179.2290058399085,4,"[3.892921600025147, 18.31395999994129, 16.661590999923646, 20.03233200008981]","[0.00022569997236132622, 0.014284999808296561, 16.66159769985825, 20.03233930002898]",0,,,,,,,,,,,,,,,,,,,,,,,,,,,,,,,,,,,,,,,,,,,,,,,,,,,,,,,,,,,,,,,,,,,,,,,,,,,,,,,,,,,,,,,,,,,,,,,,,,,,,,,,,,,,,,,,,,,,,,,,,,,,DG5333,train_x,blue_star,bottom_right,2025-08-19_16h51.37.181,HideSeek_v1,2022.2.5,60.137715352645685,
,,,,,,,,,,,,,,,0,0,0,0,4,0,4,0,,,,,,,,,,,,,,,,,,,,,,,,,,,,,,,conditions/schedules/train_x_first/blue_star_00/bottom_right/instructions/Slide5.png,conditions/schedules/train_x_first/blue_star_00/bottom_right/instructions/Audio5.wav,199.33409759984352,199.32896829990204,5,"[3.892921600025147, 18.31395999994129, 16.661590999923646, 20.03233200008981, 4.931037200149149]","[0.00022569997236132622, 0.014284999808296561, 16.66159769985825, 0.014867800055071712, 4.931046399986371]",0,,,,,,,,,,,,,,,,,,,,,,,,,,,,,,,,,,,,,,,,,,,,,,,,,,,,,,,,,,,,,,,,,,,,,,,,,,,,,,,,,,,,,,,,,,,,,,,,,,,,,,,,,,,,,,,,,,,,,,,,,,,,DG5333,train_x,blue_star,bottom_right,2025-08-19_16h51.37.181,HideSeek_v1,2022.2.5,60.137715352645685,
,,,,,,,,,,,,,,,0,0,0,0,5,0,5,0,,,,,,,,,,,,,,,,,,,,,,,,,,,,,,,conditions/schedules/train_x_first/blue_star_00/bottom_right/instructions/Slide6.png,conditions/schedules/train_x_first/blue_star_00/bottom_right/instructions/Audio6.wav,204.31725630001165,204.31675006006844,6,"[3.892921600025147, 18.31395999994129, 16.661590999923646, 20.03233200008981, 4.931037200149149, 5.434586799936369]","[0.00022569997236132622, 0.014284999808296561, 16.66159769985825, 0.014867800055071712, 0.014048099983483553, 5.43459410010837]",0,,,,,,,,,,,,,,,,,,,,,,,,,,,,,,,,,,,,,,,,,,,,,,,,,,,,,,,,,,,,,,,,,,,,,,,,,,,,,,,,,,,,,,,,,,,,,,,,,,,,,,,,,,,,,,,,,,,,,,,,,,,,DG5333,train_x,blue_star,bottom_right,2025-08-19_16h51.37.181,HideSeek_v1,2022.2.5,60.137715352645685,
,,,,,,,,,,,,,,,0,0,0,0,6,0,6,0,,,,,,,,,,,,,,,,,,,,,,,,,,,,,,,conditions/schedules/train_x_first/blue_star_00/bottom_right/instructions/Slide7.png,conditions/schedules/train_x_first/blue_star_00/bottom_right/instructions/Audio7.wav,209.80467019998468,209.80428075999953,7,"[3.892921600025147, 18.31395999994129, 16.661590999923646, 20.03233200008981, 4.931037200149149, 5.434586799936369, 6.22000620001927]","[0.00022569997236132622, 0.014284999808296561, 16.66159769985825, 0.014867800055071712, 0.014048099983483553, 0.030975400004535913, 6.220014399848878]",0,,,,,,,,,,,,,,,,,,,,,,,,,,,,,,,,,,,,,,,,,,,,,,,,,,,,,,,,,,,,,,,,,,,,,,,,,,,,,,,,,,,,,,,,,,,,,,,,,,,,,,,,,,,,,,,,,,,,,,,,,,,,DG5333,train_x,blue_star,bottom_right,2025-08-19_16h51.37.181,HideSeek_v1,2022.2.5,60.137715352645685,
,,,,,,,,,,,,,,,0,0,0,0,7,0,7,0,,,,,,,,,,,,,,,,,,,,,,,,,,,,,,,conditions/schedules/train_x_first/blue_star_00/bottom_right/instructions/Slide8.png,conditions/schedules/train_x_first/blue_star_00/bottom_right/instructions/Audio8.wav,216.0786447999999,216.07624575984664,8,"[3.892921600025147, 18.31395999994129, 16.661590999923646, 20.03233200008981, 4.931037200149149, 5.434586799936369, 6.22000620001927, 11.2879169001244]","[0.00022569997236132622, 0.014284999808296561, 16.66159769985825, 0.014867800055071712, 0.014048099983483553, 0.030975400004535913, 0.047614100156351924, 11.287924400065094]",0,,,,,,,,,,,,,,,,,,,,,,,,,,,,,,,,,,,,,,,,,,,,,,,,,,,,,,,,,,,,,,,,,,,,,,,,,,,,,,,,,,,,,,,,,,,,,,,,,,,,,,,,,,,,,,,,,,,,,,,,,,,,DG5333,train_x,blue_star,bottom_right,2025-08-19_16h51.37.181,HideSeek_v1,2022.2.5,60.137715352645685,
,,,,,,,,,,,,,,,0,0,0,0,8,0,8,0,,,,,,,,,,,,,,,,,,,,,,,,,,,,,,,conditions/schedules/train_x_first/blue_star_00/bottom_right/instructions/Slide9.png,conditions/schedules/train_x_first/blue_star_00/bottom_right/instructions/Audio9.wav,227.43834979995154,227.4356413000496,9,"[3.892921600025147, 18.31395999994129, 16.661590999923646, 20.03233200008981, 4.931037200149149, 5.434586799936369, 6.22000620001927, 11.2879169001244, 5.466647599823773]","[0.00022569997236132622, 0.014284999808296561, 16.66159769985825, 0.014867800055071712, 0.014048099983483553, 0.030975400004535913, 0.047614100156351924, 0.014433099888265133, 5.466660099802539]",0,,,,,,,,,,,,,,,,,,,,,,,,,,,,,,,,,,,,,,,,,,,,,,,,,,,,,,,,,,,,,,,,,,,,,,,,,,,,,,,,,,,,,,,,,,,,,,,,,,,,,,,,,,,,,,,,,,,,,,,,,,,,DG5333,train_x,blue_star,bottom_right,2025-08-19_16h51.37.181,HideSeek_v1,2022.2.5,60.137715352645685,
,,,,,,,,,,,,,,,0,0,0,0,9,0,9,0,,,,,,,,,,,,,,,,,,,,,,,,,,,,,,,conditions/schedules/train_x_first/blue_star_00/bottom_right/instructions/Slide10.png,conditions/schedules/train_x_first/blue_star_00/bottom_right/instructions/Audio10.wav,232.95976889994927,232.95678775990382,10,"[3.892921600025147, 18.31395999994129, 16.661590999923646, 20.03233200008981, 4.931037200149149, 5.434586799936369, 6.22000620001927, 11.2879169001244, 5.466647599823773, 7.234263499965891]","[0.00022569997236132622, 0.014284999808296561, 16.66159769985825, 0.014867800055071712, 0.014048099983483553, 0.030975400004535913, 0.047614100156351924, 0.014433099888265133, 0.031353099970147014, 7.234270200133324]",0,,,,,,,,,,,,,,,,,,,,,,,,,,,,,,,,,,,,,,,,,,,,,,,,,,,,,,,,,,,,,,,,,,,,,,,,,,,,,,,,,,,,,,,,,,,,,,,,,,,,,,,,,,,,,,,,,,,,,,,,,,,,DG5333,train_x,blue_star,bottom_right,2025-08-19_16h51.37.181,HideSeek_v1,2022.2.5,60.137715352645685,
,,,,,,,,,,,,,,,0,0,0,0,10,0,10,0,,,,,,,,,,,,,,,,,,,,,,,,,,,,,,,conditions/schedules/train_x_first/blue_star_00/bottom_right/instructions/Slide11.png,conditions/schedules/train_x_first/blue_star_00/bottom_right/instructions/Audio11.wav,240.26295339991339,240.2628992999671,11,"[3.892921600025147, 18.31395999994129, 16.661590999923646, 20.03233200008981, 4.931037200149149, 5.434586799936369, 6.22000620001927, 11.2879169001244, 5.466647599823773, 7.234263499965891, 9.77196229994297]","[0.00022569997236132622, 0.014284999808296561, 16.66159769985825, 0.014867800055071712, 0.014048099983483553, 0.030975400004535913, 0.047614100156351924, 0.014433099888265133, 0.031353099970147014, 0.013954899972304702, 9.771968699991703]",0,,,,,,,,,,,,,,,,,,,,,,,,,,,,,,,,,,,,,,,,,,,,,,,,,,,,,,,,,,,,,,,,,,,,,,,,,,,,,,,,,,,,,,,,,,,,,,,,,,,,,,,,,,,,,,,,,,,,,,,,,,,,DG5333,train_x,blue_star,bottom_right,2025-08-19_16h51.37.181,HideSeek_v1,2022.2.5,60.137715352645685,
,,,,,,,,,,,,,,,0,0,0,0,11,0,11,0,,,,,,,,,,,,,,,,,,,,,,,,,,,,,,,conditions/schedules/train_x_first/blue_star_00/bottom_right/instructions/Slide12.png,conditions/schedules/train_x_first/blue_star_00/bottom_right/instructions/Audio12.wav,250.0908394998405,250.08771255984902,12,"[3.892921600025147, 18.31395999994129, 16.661590999923646, 20.03233200008981, 4.931037200149149, 5.434586799936369, 6.22000620001927, 11.2879169001244, 5.466647599823773, 7.234263499965891, 9.77196229994297, 13.672246600035578]","[0.00022569997236132622, 0.014284999808296561, 16.66159769985825, 0.014867800055071712, 0.014048099983483553, 0.030975400004535913, 0.047614100156351924, 0.014433099888265133, 0.031353099970147014, 0.013954899972304702, 0.04795669997110963, 13.672253800090402]",0,,,,,,,,,,,,,,,,,,,,,,,,,,,,,,,,,,,,,,,,,,,,,,,,,,,,,,,,,,,,,,,,,,,,,,,,,,,,,,,,,,,,,,,,,,,,,,,,,,,,,,,,,,,,,,,,,,,,,,,,,,,,DG5333,train_x,blue_star,bottom_right,2025-08-19_16h51.37.181,HideSeek_v1,2022.2.5,60.137715352645685,
1,9,0,4,0,-5,0,11,2,instr_dim1_1,,,,,,0,0,0,0,,,,,0,0,0,0,,,,,,,,,,,,,,,,,,,,,,,,,,,,,,,,,,,,,stimuli/alien_stimuli/11.png,conditions/schedules/train_x_first/blue_star_00/bottom_right/inputInstr_1.xlsx,stimuli/alien_stimuli/11.png,263.8677962999791,263.8677962999791,263.8677962999791,263.8677962999791,263.86570367997047,return,33.23849119991064,"[-0.16, -0.08, 0, 0.08, 0.16, 0.24, 0.32, 0.4, 0.48, 0.56]","[-0.4, -0.32, -0.24, -0.16, -0.08, 0, 0.08, 0.16, 0.24, 0.32]",0,0,4,9,0.0,0.4,297.26416839985177,297.26416839985177,297.26416839985177,297.26416839985177,297.26416839985177,297.26416839985177,297.26416839985177,297.2602784599876,18.866617200197652,return,18.697915399912745,stimuli/alien_stimuli/11.png,11,9,1,,,,,,,,,,,,,,,,,,,,,,,,,,,,,,,,,,,,,,,,,,,,,,,,,,,,,,,,,,,,,,,,,,,,,,,,,,,,,,,,,,,,,,,,,DG5333,train_x,blue_star,bottom_right,2025-08-19_16h51.37.181,HideSeek_v1,2022.2.5,60.137715352645685,
,,,,,,,,,,,30,,,,0,0,0,0,,,,,,,,,,,,,,,,,,,,,,,,,,,,,,,,,,,,,,,,,,,,,,,,,,,,,,,,,,,,,,,,,,,,,,,,,,,,,,21,0.7,0,0,99,1,30,0,conditions/schedules/train_x_first/blue_star_00/bottom_right/inputTrain_1.1.xlsx,99,1,1,1,0,,,,,,,,,,,,,,,,,,,,,,,,,,,,,,,,,,,,,,,,,,,,,,,,,,,,,,,,,,,,,,,,,,,,,,,,,,,DG5333,train_x,blue_star,bottom_right,2025-08-19_16h51.37.181,HideSeek_v1,2022.2.5,60.137715352645685,
,,,,,,,,,,,,,,,1,0,1,0,0,0,0,0,,,,,,,,,,,,,,,,,,,,,,,,,,,,,,,conditions/schedules/train_x_first/blue_star_00/bottom_right/instructions/Slide13.png,conditions/schedules/train_x_first/blue_star_00/bottom_right/instructions/Audio13.wav,316.13580429996364,316.12590346008074,13,"[3.892921600025147, 18.31395999994129, 16.661590999923646, 20.03233200008981, 4.931037200149149, 5.434586799936369, 6.22000620001927, 11.2879169001244, 5.466647599823773, 7.234263499965891, 9.77196229994297, 13.672246600035578, 22.97340520005673]","[0.00022569997236132622, 0.014284999808296561, 16.66159769985825, 0.014867800055071712, 0.014048099983483553, 0.030975400004535913, 0.047614100156351924, 0.014433099888265133, 0.031353099970147014, 0.013954899972304702, 0.04795669997110963, 13.672253800090402, 22.97341259988025]",0,,,,,,,,,,,,,,,,,,,,,,,,,,,,,,,,,,,,,,,,,,,,,,,,,,,,,,,,,,,,,,,,,,,,,,,,,,,,,,,,,,,,,,,,,,,,,,,,,,,,,,,,,,,,,,,,,,,,,,,,,,,,DG5333,train_x,blue_star,bottom_right,2025-08-19_16h51.37.181,HideSeek_v1,2022.2.5,60.137715352645685,
,,,,,,,,,,,,,,,1,0,1,0,1,0,1,0,,,,,,,,,,,,,,,,,,,,,,,,,,,,,,,conditions/schedules/train_x_first/blue_star_00/bottom_right/instructions/Slide14.png,conditions/schedules/train_x_first/blue_star_00/bottom_right/instructions/Audio14.wav,339.18063870002516,339.17828429990914,14,"[3.892921600025147, 18.31395999994129, 16.661590999923646, 20.03233200008981, 4.931037200149149, 5.434586799936369, 6.22000620001927, 11.2879169001244, 5.466647599823773, 7.234263499965891, 9.77196229994297, 13.672246600035578, 22.97340520005673, 12.222228900063783]","[0.00022569997236132622, 0.014284999808296561, 16.66159769985825, 0.014867800055071712, 0.014048099983483553, 0.030975400004535913, 0.047614100156351924, 0.014433099888265133, 0.031353099970147014, 0.013954899972304702, 0.04795669997110963, 13.672253800090402, 0.04772410006262362, 12.222234799992293]",0,,,,,,,,,,,,,,,,,,,,,,,,,,,,,,,,,,,,,,,,,,,,,,,,,,,,,,,,,,,,,,,,,,,,,,,,,,,,,,,,,,,,,,,,,,,,,,,,,,,,,,,,,,,,,,,,,,,,,,,,,,,,DG5333,train_x,blue_star,bottom_right,2025-08-19_16h51.37.181,HideSeek_v1,2022.2.5,60.137715352645685,
2,8,2,8,2,0,0,61,2,instr_dim1_1,,,,,,1,0,1,0,,,,,0,0,0,0,,,,,,,,,,,,,,,,,,,,,,,,,,,,,,,,,,,,,stimuli/alien_stimuli/61.png,conditions/schedules/train_x_first/blue_star_00/bottom_right/inputInstr_1.xlsx,stimuli/alien_stimuli/61.png,351.5041175999213,351.5041175999213,351.5041175999213,351.5041175999213,351.5055710800225,return,6.445556299993768,"[-0.16, -0.08, 0, 0.08, 0.16, 0.24, 0.32, 0.4, 0.48, 0.56]","[-0.4, -0.32, -0.24, -0.16, -0.08, 0, 0.08, 0.16, 0.24, 0.32]",2,2,8,8,0.0,0.0,358.101441900013,358.101441900013,358.101441900013,358.101441900013,358.101441900013,358.101441900013,358.101441900013,358.0938953200821,8.7082924998831,return,8.555225900141522,stimuli/alien_stimuli/61.png,61,8,2,,,,,,,,,,,,,,,,,,,,,,,,,,,,,,,,,,,,,,,,,,,,,,,,,,,,,,,,,,,,,,,,,,,,,,,,,,,,,,,,,,,,,,,,,DG5333,train_x,blue_star,bottom_right,2025-08-19_16h51.37.181,HideSeek_v1,2022.2.5,60.137715352645685,
,,,,,,,,,,,30,,,,1,0,1,0,,,,,,,,,,,,,,,,,,,,,,,,,,,,,,,,,,,,,,,,,,,,,,,,,,,,,,,,,,,,,,,,,,,,,,,,,,,,,,21,0.7,0,0,99,1,30,0,conditions/schedules/train_x_first/blue_star_00/bottom_right/inputTrain_1.1.xlsx,99,1,1,1,0,,,,,,,,,,,,,,,,,,,,,,,,,,,,,,,,,,,,,,,,,,,,,,,,,,,,,,,,,,,,,,,,,,,,,,,,,,,DG5333,train_x,blue_star,bottom_right,2025-08-19_16h51.37.181,HideSeek_v1,2022.2.5,60.137715352645685,
,,,,,,,,,,,,,,,2,0,2,0,0,0,0,0,,,,,,,,,,,,,,,,,,,,,,,,,,,,,,,conditions/schedules/train_x_first/blue_star_00/bottom_right/instructions/Slide15.png,conditions/schedules/train_x_first/blue_star_00/bottom_right/instructions/Audio15.wav,366.8236149000004,366.8178297599079,15,"[3.892921600025147, 18.31395999994129, 16.661590999923646, 20.03233200008981, 4.931037200149149, 5.434586799936369, 6.22000620001927, 11.2879169001244, 5.466647599823773, 7.234263499965891, 9.77196229994297, 13.672246600035578, 22.97340520005673, 12.222228900063783, 32.16879309993237]","[0.00022569997236132622, 0.014284999808296561, 16.66159769985825, 0.014867800055071712, 0.014048099983483553, 0.030975400004535913, 0.047614100156351924, 0.014433099888265133, 0.031353099970147014, 0.013954899972304702, 0.04795669997110963, 13.672253800090402, 0.04772410006262362, 12.222234799992293, 32.16880019987002]",0,,,,,,,,,,,,,,,,,,,,,,,,,,,,,,,,,,,,,,,,,,,,,,,,,,,,,,,,,,,,,,,,,,,,,,,,,,,,,,,,,,,,,,,,,,,,,,,,,,,,,,,,,,,,,,,,,,,,,,,,,,,,DG5333,train_x,blue_star,bottom_right,2025-08-19_16h51.37.181,HideSeek_v1,2022.2.5,60.137715352645685,
,,,,,,,,,,,,,,,2,0,2,0,1,0,1,0,,,,,,,,,,,,,,,,,,,,,,,,,,,,,,,conditions/schedules/train_x_first/blue_star_00/bottom_right/instructions/Slide16.png,conditions/schedules/train_x_first/blue_star_00/bottom_right/instructions/Audio16.wav,399.05384599999525,399.04472275986336,16,"[3.892921600025147, 18.31395999994129, 16.661590999923646, 20.03233200008981, 4.931037200149149, 5.434586799936369, 6.22000620001927, 11.2879169001244, 5.466647599823773, 7.234263499965891, 9.77196229994297, 13.672246600035578, 22.97340520005673, 12.222228900063783, 32.16879309993237, 21.373198099900037]","[0.00022569997236132622, 0.014284999808296561, 16.66159769985825, 0.014867800055071712, 0.014048099983483553, 0.030975400004535913, 0.047614100156351924, 0.014433099888265133, 0.031353099970147014, 0.013954899972304702, 0.04795669997110963, 13.672253800090402, 0.04772410006262362, 12.222234799992293, 0.014303999952971935, 21.373204400064424]",0,,,,,,,,,,,,,,,,,,,,,,,,,,,,,,,,,,,,,,,,,,,,,,,,,,,,,,,,,,,,,,,,,,,,,,,,,,,,,,,,,,,,,,,,,,,,,,,,,,,,,,,,,,,,,,,,,,,,,,,,,,,,DG5333,train_x,blue_star,bottom_right,2025-08-19_16h51.37.181,HideSeek_v1,2022.2.5,60.137715352645685,
,7,1,4,1,-3,0,31,,train_dim1_1,1,30,,,,2,0,2,0,,,,,,,,,0,0,0,0,0,0,0,0,0,0,0,0,,,,,,,,,,,,,,,,,,,,,,,,,stimuli/alien_stimuli/31.png,,,,,,,,,,,,,,,,,,,,,,,,,,,,,,,,,,,,,,,30,,,,,,,,420.5269899999257,420.5269899999257,420.5269899999257,420.5269899999257,420.5269899999257,left,20.02722440008074,0,0,0,99,0.32,-0.32,left,19.927373099839315,,,,,,,,,,,,,,,,,,,,,,,,,,,,,,,,,,,,,,,,,,,,,,,,,,,,,,,,,,,,DG5333,train_x,blue_star,bottom_right,2025-08-19_16h51.37.181,HideSeek_v1,2022.2.5,60.137715352645685,
,7,1,4,1,-3,0,31,,train_dim1_1,1,30,,,,2,0,2,0,,,,,,,,,0,0,0,0,0,0,0,0,1,0,1,0,,,,,,,,,,,,,,,,,,,,,,,,,,,,,,,,,,,,,,,,,,,,,,,,,,,,,,,,,,,,,,,,30,,,,,,,,440.5585175000597,440.5585175000597,440.5585175000597,440.5585175000597,440.5585175000597,left,3.8793371999636292,0,0,0,99,0.24,-0.32,left,3.7904999000020325,,,,,,,,,,,,,,,,,,,,,,,,,,,,,,,,,,,,,,,,,,,,,,,,,,,,,,,,,,,,DG5333,train_x,blue_star,bottom_right,2025-08-19_16h51.37.181,HideSeek_v1,2022.2.5,60.137715352645685,
,7,1,4,1,-3,0,31,,train_dim1_1,1,30,,,,2,0,2,0,,,,,,,,,0,0,0,0,0,0,0,0,2,0,2,0,,,,,,,,,,,,,,,,,,,,,,,,,,,,,,,,,,,,,,,,,,,,,,,,,,,,,,,,,,,,,,,,30,,,,,,,,444.4315016998444,444.4315016998444,444.4315016998444,444.4315016998444,444.4315016998444,left,1.2753035000059754,0,0,0,99,0.15999999999999998,-0.32,left,1.194868299877271,,,,,,,,,,,,,,,,,,,,,,,,,,,,,,,,,,,,,,,,,,,,,,,,,,,,,,,,,,,,DG5333,train_x,blue_star,bottom_right,2025-08-19_16h51.37.181,HideSeek_v1,2022.2.5,60.137715352645685,
,7,1,4,1,-3,0,31,,train_dim1_1,1,30,,,,2,0,2,0,,,,,,,,,0,0,0,0,0,0,0,0,3,0,3,0,,,,,,,,,,,,,,,,,,,,,,,,,,,,,,,,,,,,,,,,,,,,,,,,,,,,,,,,,,,,,,,,30,,,,,,,,445.7140285000205,445.7140285000205,445.7140285000205,445.7140285000205,445.7140285000205,left,0.6930984000209719,0,0,0,99,0.07999999999999997,-0.32,left,0.6158759000245482,,,,,,,,,,,,,,,,,,,,,,,,,,,,,,,,,,,,,,,,,,,,,,,,,,,,,,,,,,,,DG5333,train_x,blue_star,bottom_right,2025-08-19_16h51.37.181,HideSeek_v1,2022.2.5,60.137715352645685,
,7,1,4,1,-3,0,31,,train_dim1_1,1,30,,,,2,0,2,0,,,,,,,,,0,0,0,0,0,0,0,0,4,0,4,0,,,,,,,,,,,,,,,,,,,,,,,,,,,,,,,,,,,,,,,,,,,,,,,,,,,,,,,,,,,,,,,,30,,,,,,,,446.4149960000068,446.4149960000068,446.4149960000068,446.4149960000068,446.4149960000068,return,0.49332180013880134,0,1,0,0,0.07999999999999997,-0.32,return,0.41463969997130334,0,-4,0.07999999999999997,-0.32,,,,,,,,,,,,,,,,,,,,,,,,,,,,,,,,,,,,,,,,,,,,,,,,,,,,,,,,DG5333,train_x,blue_star,bottom_right,2025-08-19_16h51.37.181,HideSeek_v1,2022.2.5,60.137715352645685,
,7,4,2,4,-5,0,11,,train_dim1_1,2,30,,,,2,0,2,0,,,,,,,,,0,0,0,0,0,1,1,1,0,0,0,0,,,,,,,,,,,,,,,,,,,,,,,,,stimuli/alien_stimuli/11.png,,,,,,,,,,,,,,,,,,,,,,,,,,,,,stimuli/alien_stimuli/31.png,31,7,3,,,,,,,30,,,,,,,,475.93008089996874,475.93008089996874,475.93008089996874,475.93008089996874,475.93008089996874,left,23.348140300018713,0,1,0,99,0.32,-0.08,left,23.23683960014023,,,,,474.34098149999045,475.93008089996874,0.16,-0.32,0.0,0.24,-0.32,0.16,0.28,0.16,-0.32,448.4889521000441,448.4889521000441,448.4889521000441,448.4889521000441,448.4889521000441,448.4889521000441,448.4889521000441,448.4889521000441,448.485658420017,25.974359499989077,return,25.833798799896613,,,,,,,,,,,,,,,,,,,,,,,,,,,,,,,,,DG5333,train_x,blue_star,bottom_right,2025-08-19_16h51.37.181,HideSeek_v1,2022.2.5,60.137715352645685,
,7,4,2,4,-5,0,11,,train_dim1_1,2,30,,,,2,0,2,0,,,,,,,,,0,0,0,0,0,1,1,1,1,0,1,0,,,,,,,,,,,,,,,,,,,,,,,,,,,,,,,,,,,,,,,,,,,,,,,,,,,,,,,,,,,,,,,,30,,,,,,,,499.278790500015,499.278790500015,499.278790500015,499.278790500015,499.278790500015,left,0.4926114999689162,0,1,0,99,0.24,-0.08,left,0.38600249984301627,,,,,,,,,,,,,,,,,,,,,,,,,,,,,,,,,,,,,,,,,,,,,,,,,,,,,,,,,,,,DG5333,train_x,blue_star,bottom_right,2025-08-19_16h51.37.181,HideSeek_v1,2022.2.5,60.137715352645685,
,7,4,2,4,-5,0,11,,train_dim1_1,2,30,,,,2,0,2,0,,,,,,,,,0,0,0,0,0,1,1,1,2,0,2,0,,,,,,,,,,,,,,,,,,,,,,,,,,,,,,,,,,,,,,,,,,,,,,,,,,,,,,,,,,,,,,,,30,,,,,,,,499.76339179999195,499.76339179999195,499.76339179999195,499.76339179999195,499.76339179999195,left,0.6432328999508172,0,1,0,99,0.15999999999999998,-0.08,left,0.5605071999598294,,,,,,,,,,,,,,,,,,,,,,,,,,,,,,,,,,,,,,,,,,,,,,,,,,,,,,,,,,,,DG5333,train_x,blue_star,bottom_right,2025-08-19_16h51.37.181,HideSeek_v1,2022.2.5,60.137715352645685,
,7,4,2,4,-5,0,11,,train_dim1_1,2,30,,,,2,0,2,0,,,,,,,,,0,0,0,0,0,1,1,1,3,0,3,0,,,,,,,,,,,,,,,,,,,,,,,,,,,,,,,,,,,,,,,,,,,,,,,,,,,,,,,,,,,,,,,,30,,,,,,,,500.4140719999559,500.4140719999559,500.4140719999559,500.4140719999559,500.4140719999559,left,0.5263393998611718,0,1,0,99,0.07999999999999997,-0.08,left,0.4486988000571728,,,,,,,,,,,,,,,,,,,,,,,,,,,,,,,,,,,,,,,,,,,,,,,,,,,,,,,,,,,,DG5333,train_x,blue_star,bottom_right,2025-08-19_16h51.37.181,HideSeek_v1,2022.2.5,60.137715352645685,
,7,4,2,4,-5,0,11,,train_dim1_1,2,30,,,,2,0,2,0,,,,,,,,,0,0,0,0,0,1,1,1,4,0,4,0,,,,,,,,,,,,,,,,,,,,,,,,,,,,,,,,,,,,,,,,,,,,,,,,,,,,,,,,,,,,,,,,30,,,,,,,,500.94761969987303,500.94761969987303,500.94761969987303,500.94761969987303,500.94761969987303,left,5.380693699931726,0,1,0,99,-2.7755575615628914e-17,-0.08,left,5.301912400173023,,,,,,,,,,,,,,,,,,,,,,,,,,,,,,,,,,,,,,,,,,,,,,,,,,,,,,,,,,,,DG5333,train_x,blue_star,bottom_right,2025-08-19_16h51.37.181,HideSeek_v1,2022.2.5,60.137715352645685,
,7,4,2,4,-5,0,11,,train_dim1_1,2,30,,,,2,0,2,0,,,,,,,,,0,0,0,0,0,1,1,1,5,0,5,0,,,,,,,,,,,,,,,,,,,,,,,,,,,,,,,,,,,,,,,,,,,,,,,,,,,,,,,,,,,,,,,,30,,,,,,,,506.3371929998975,506.3371929998975,506.3371929998975,506.3371929998975,506.3371929998975,right,3.894746399950236,0,1,0,99,0.07999999999999997,-0.08,right,3.8139168999623507,,,,,,,,,,,,,,,,,,,,,,,,,,,,,,,,,,,,,,,,,,,,,,,,,,,,,,,,,,,,DG5333,train_x,blue_star,bottom_right,2025-08-19_16h51.37.181,HideSeek_v1,2022.2.5,60.137715352645685,
,7,4,2,4,-5,0,11,,train_dim1_1,2,30,,,,2,0,2,0,,,,,,,,,0,0,0,0,0,1,1,1,6,0,6,0,,,,,,,,,,,,,,,,,,,,,,,,,,,,,,,,,,,,,,,,,,,,,,,,,,,,,,,,,,,,,,,,30,,,,,,,,510.2426799000241,510.2426799000241,510.2426799000241,510.2426799000241,510.2426799000241,right,0.140119600109756,0,1,0,99,0.15999999999999998,-0.08,right,0.05985959991812706,,,,,,,,,,,,,,,,,,,,,,,,,,,,,,,,,,,,,,,,,,,,,,,,,,,,,,,,,,,,DG5333,train_x,blue_star,bottom_right,2025-08-19_16h51.37.181,HideSeek_v1,2022.2.5,60.137715352645685,
,7,4,2,4,-5,0,11,,train_dim1_1,2,30,,,,2,0,2,0,,,,,,,,,0,0,0,0,0,1,1,1,7,0,7,0,,,,,,,,,,,,,,,,,,,,,,,,,,,,,,,,,,,,,,,,,,,,,,,,,,,,,,,,,,,,,,,,30,,,,,,,,510.3887983998284,510.3887983998284,510.3887983998284,510.3887983998284,510.3887983998284,left,0.8268411001190543,0,1,0,99,0.07999999999999997,-0.08,left,0.7398610000964254,,,,,,,,,,,,,,,,,,,,,,,,,,,,,,,,,,,,,,,,,,,,,,,,,,,,,,,,,,,,DG5333,train_x,blue_star,bottom_right,2025-08-19_16h51.37.181,HideSeek_v1,2022.2.5,60.137715352645685,
,7,4,2,4,-5,0,11,,train_dim1_1,2,30,,,,2,0,2,0,,,,,,,,,0,0,0,0,0,1,1,1,8,0,8,0,,,,,,,,,,,,,,,,,,,,,,,,,,,,,,,,,,,,,,,,,,,,,,,,,,,,,,,,,,,,,,,,30,,,,,,,,511.2214396998752,511.2214396998752,511.2214396998752,511.2214396998752,511.2214396998752,return,0.49315780005417764,0,1,0,0,0.07999999999999997,-0.08,return,0.4125169001054019,0,-8,0.07999999999999997,-0.08,,,,,,,,,,,,,,,,,,,,,,,,,,,,,,,,,,,,,,,,,,,,,,,,,,,,,,,,DG5333,train_x,blue_star,bottom_right,2025-08-19_16h51.37.181,HideSeek_v1,2022.2.5,60.137715352645685,
,9,4,5,4,-4,0,21,,train_dim1_1,3,30,,,,2,0,2,0,,,,,,,,,0,0,0,0,0,2,2,2,0,0,0,0,,,,,,,,,,,,,,,,,,,,,,,,,stimuli/alien_stimuli/21.png,,,,,,,,,,,,,,,,,,,,,,,,,,,,,stimuli/alien_stimuli/11.png,11,7,4,,,,,,,30,,,,,,,,523.8959184000269,523.8959184000269,523.8959184000269,523.8959184000269,523.8959184000269,left,13.915064499946311,0,1,0,99,0.48000000000000004,-0.08,left,13.81827519997023,,,,,522.3307288999204,523.8959184000269,0,-0.08,0.0,0.4,-0.08,0,0.2,0,-0.08,513.3084084000438,513.3084084000438,513.3084084000438,513.3084084000438,513.3084084000438,513.3084084000438,513.3084084000438,513.3084084000438,513.2898928199429,9.159758700057864,return,9.000178700080141,,,,,,,,,,,,,,,,,,,,,,,,,,,,,,,,,DG5333,train_x,blue_star,bottom_right,2025-08-19_16h51.37.181,HideSeek_v1,2022.2.5,60.137715352645685,
,9,4,5,4,-4,0,21,,train_dim1_1,3,30,,,,2,0,2,0,,,,,,,,,0,0,0,0,0,2,2,2,1,0,1,0,,,,,,,,,,,,,,,,,,,,,,,,,,,,,,,,,,,,,,,,,,,,,,,,,,,,,,,,,,,,,,,,30,,,,,,,,537.8245953998994,537.8245953998994,537.8245953998994,537.8245953998994,537.8245953998994,left,0.4390233000740409,0,1,0,99,0.4,-0.08,left,0.3373227999545634,,,,,,,,,,,,,,,,,,,,,,,,,,,,,,,,,,,,,,,,,,,,,,,,,,,,,,,,,,,,DG5333,train_x,blue_star,bottom_right,2025-08-19_16h51.37.181,HideSeek_v1,2022.2.5,60.137715352645685,
,9,4,5,4,-4,0,21,,train_dim1_1,3,30,,,,2,0,2,0,,,,,,,,,0,0,0,0,0,2,2,2,2,0,2,0,,,,,,,,,,,,,,,,,,,,,,,,,,,,,,,,,,,,,,,,,,,,,,,,,,,,,,,,,,,,,,,,30,,,,,,,,538.2768665000331,538.2768665000331,538.2768665000331,538.2768665000331,538.2768665000331,left,0.1094182999804616,0,1,0,99,0.32,-0.08,left,0.010321300011128187,,,,,,,,,,,,,,,,,,,,,,,,,,,,,,,,,,,,,,,,,,,,,,,,,,,,,,,,,,,,DG5333,train_x,blue_star,bottom_right,2025-08-19_16h51.37.181,HideSeek_v1,2022.2.5,60.137715352645685,
,9,4,5,4,-4,0,21,,train_dim1_1,3,30,,,,2,0,2,0,,,,,,,,,0,0,0,0,0,2,2,2,3,0,3,0,,,,,,,,,,,,,,,,,,,,,,,,,,,,,,,,,,,,,,,,,,,,,,,,,,,,,,,,,,,,,,,,30,,,,,,,,538.3823692000005,538.3823692000005,538.3823692000005,538.3823692000005,538.3823692000005,return,5.9307635999284685,0,1,0,0,0.32,-0.08,return,5.849027599906549,0,-11,0.32,-0.08,,,,,,,,,,,,,,,,,,,,,,,,,,,,,,,,,,,,,,,,,,,,,,,,,,,,,,,,DG5333,train_x,blue_star,bottom_right,2025-08-19_16h51.37.181,HideSeek_v1,2022.2.5,60.137715352645685,
,7,3,6,3,-1,0,51,,train_dim1_1,4,30,,,,2,0,2,0,,,,,,,,,0,0,0,0,0,3,3,3,0,0,0,0,,,,,,,,,,,,,,,,,,,,,,,,,stimuli/alien_stimuli/51.png,,,,,,,,,,,,,,,,,,,,,,,,,,,,,stimuli/alien_stimuli/21.png,21,9,5,,,,,,,30,,,,,,,,552.518673399929,552.518673399929,552.518673399929,552.518673399929,552.518673399929,left,11.8950306000188,0,1,0,99,0.32,-0.16,left,11.80268369987607,,,,,550.9543881998397,552.518673399929,0.24,-0.08,0.0,0.32,-0.08,0.24,0.4,0.24,-0.08,545.899793599965,545.899793599965,545.899793599965,545.899793599965,545.899793599965,545.899793599965,545.899793599965,545.899793599965,545.883379119914,5.190052499994636,return,5.0247718000318855,,,,,,,,,,,,,,,,,,,,,,,,,,,,,,,,,DG5333,train_x,blue_star,bottom_right,2025-08-19_16h51.37.181,HideSeek_v1,2022.2.5,60.137715352645685,
,7,3,6,3,-1,0,51,,train_dim1_1,4,30,,,,2,0,2,0,,,,,,,,,0,0,0,0,0,3,3,3,1,0,1,0,,,,,,,,,,,,,,,,,,,,,,,,,,,,,,,,,,,,,,,,,,,,,,,,,,,,,,,,,,,,,,,,30,,,,,,,,564.4190956000239,564.4190956000239,564.4190956000239,564.4190956000239,564.4190956000239,return,1.5432272001635283,1,0,0,1,0.32,-0.16,return,1.4523421998601407,0,-12,0.32,-0.16,,,,,,,,,,,,,,,,,,,,,,,,,,,,,,,,,,,,,,,,,,,,,,,,,,,,,,,,DG5333,train_x,blue_star,bottom_right,2025-08-19_16h51.37.181,HideSeek_v1,2022.2.5,60.137715352645685,
,5,2,5,2,0,0,61,,train_dim1_1,5,30,,,,2,0,2,0,,,,,,,,,0,0,0,0,0,4,4,4,0,0,0,0,,,,,,,,,,,,,,,,,,,,,,,,,stimuli/alien_stimuli/61.png,,,,,,,,,,,,,,,,,,,,,,,,,,,,,stimuli/alien_stimuli/51.png,51,7,6,,,,,,,30,,,,,,,,575.5512095999438,575.5512095999438,575.5512095999438,575.5512095999438,575.5512095999438,return,1.9209688999690115,2,0,0,1,0.24,-0.24,return,1.8324919000733644,0,-12,0.24,-0.24,573.990252800053,575.5512095999438,0.32,-0.16,0.0,0.08,-0.16,0.32,0.36,0.32,-0.16,567.5528046998661,567.5528046998661,567.5528046998661,567.5528046998661,567.5528046998661,567.5528046998661,567.5528046998661,567.5528046998661,567.5346037200652,6.57474029995501,return,6.410657099913806,,,,,,,,,,,,,,,,,,,,,,,,,,,,,,,,,DG5333,train_x,blue_star,bottom_right,2025-08-19_16h51.37.181,HideSeek_v1,2022.2.5,60.137715352645685,
,5,0,1,0,-4,0,21,,train_dim1_1,6,30,,,,2,0,2,0,,,,,,,,,0,0,0,0,0,5,5,5,0,0,0,0,,,,,,,,,,,,,,,,,,,,,,,,,stimuli/alien_stimuli/21.png,,,,,,,,,,,,,,,,,,,,,,,,,,,,,stimuli/alien_stimuli/61.png,61,5,7,,,,,,,30,,,,,,,,581.4567380000371,581.4567380000371,581.4567380000371,581.4567380000371,581.4567380000371,up,4.7916109000798315,2,0,0,99,0.24,-0.32,up,4.689166599884629,,,,,579.8785051000305,581.4567380000371,0.24,-0.24,0.0,0.0,-0.24,0.24,0.24,0.24,-0.24,579.0441393998917,579.0441393998917,579.0441393998917,579.0441393998917,579.0441393998917,579.0441393998917,579.0441393998917,579.0441393998917,579.0276131798746,0.9531263001263142,return,0.8172256001271307,,,,,,,,,,,,,,,,,,,,,,,,,,,,,,,,,DG5333,train_x,blue_star,bottom_right,2025-08-19_16h51.37.181,HideSeek_v1,2022.2.5,60.137715352645685,
,5,0,1,0,-4,0,21,,train_dim1_1,6,30,,,,2,0,2,0,,,,,,,,,0,0,0,0,0,5,5,5,1,0,1,0,,,,,,,,,,,,,,,,,,,,,,,,,,,,,,,,,,,,,,,,,,,,,,,,,,,,,,,,,,,,,,,,30,,,,,,,,586.2361828999128,586.2361828999128,586.2361828999128,586.2361828999128,586.2361828999128,up,0.475144200026989,2,0,0,99,0.24,-0.24,up,0.3964790999889374,,,,,,,,,,,,,,,,,,,,,,,,,,,,,,,,,,,,,,,,,,,,,,,,,,,,,,,,,,,,DG5333,train_x,blue_star,bottom_right,2025-08-19_16h51.37.181,HideSeek_v1,2022.2.5,60.137715352645685,
,5,0,1,0,-4,0,21,,train_dim1_1,6,30,,,,2,0,2,0,,,,,,,,,0,0,0,0,0,5,5,5,2,0,2,0,,,,,,,,,,,,,,,,,,,,,,,,,,,,,,,,,,,,,,,,,,,,,,,,,,,,,,,,,,,,,,,,30,,,,,,,,586.7193707998376,586.7193707998376,586.7193707998376,586.7193707998376,586.7193707998376,up,0.5264731999486685,2,0,0,99,0.24,-0.15999999999999998,up,0.4435731000266969,,,,,,,,,,,,,,,,,,,,,,,,,,,,,,,,,,,,,,,,,,,,,,,,,,,,,,,,,,,,DG5333,train_x,blue_star,bottom_right,2025-08-19_16h51.37.181,HideSeek_v1,2022.2.5,60.137715352645685,
,5,0,1,0,-4,0,21,,train_dim1_1,6,30,,,,2,0,2,0,,,,,,,,,0,0,0,0,0,5,5,5,3,0,3,0,,,,,,,,,,,,,,,,,,,,,,,,,,,,,,,,,,,,,,,,,,,,,,,,,,,,,,,,,,,,,,,,30,,,,,,,,587.2530630999245,587.2530630999245,587.2530630999245,587.2530630999245,587.2530630999245,up,0.5594657000619918,2,0,0,99,0.24,-0.07999999999999997,up,0.4747186000458896,,,,,,,,,,,,,,,,,,,,,,,,,,,,,,,,,,,,,,,,,,,,,,,,,,,,,,,,,,,,DG5333,train_x,blue_star,bottom_right,2025-08-19_16h51.37.181,HideSeek_v1,2022.2.5,60.137715352645685,
,5,0,1,0,-4,0,21,,train_dim1_1,6,30,,,,2,0,2,0,,,,,,,,,0,0,0,0,0,5,5,5,4,0,4,0,,,,,,,,,,,,,,,,,,,,,,,,,,,,,,,,,,,,,,,,,,,,,,,,,,,,,,,,,,,,,,,,30,,,,,,,,587.8195529000368,587.8195529000368,587.8195529000368,587.8195529000368,587.8195529000368,up,0.7267301001120359,2,0,0,99,0.24,2.7755575615628914e-17,up,0.648914200020954,,,,,,,,,,,,,,,,,,,,,,,,,,,,,,,,,,,,,,,,,,,,,,,,,,,,,,,,,,,,DG5333,train_x,blue_star,bottom_right,2025-08-19_16h51.37.181,HideSeek_v1,2022.2.5,60.137715352645685,
,5,0,1,0,-4,0,21,,train_dim1_1,6,30,,,,2,0,2,0,,,,,,,,,0,0,0,0,0,5,5,5,5,0,5,0,,,,,,,,,,,,,,,,,,,,,,,,,,,,,,,,,,,,,,,,,,,,,,,,,,,,,,,,,,,,,,,,30,,,,,,,,588.5537113000173,588.5537113000173,588.5537113000173,588.5537113000173,588.5537113000173,return,0.6260134999174625,2,0,0,0,0.24,2.7755575615628914e-17,return,0.5346389000769705,5,-12,0.24,2.7755575615628914e-17,,,,,,,,,,,,,,,,,,,,,,,,,,,,,,,,,,,,,,,,,,,,,,,,,,,,,,,,DG5333,train_x,blue_star,bottom_right,2025-08-19_16h51.37.181,HideSeek_v1,2022.2.5,60.137715352645685,
,8,0,8,0,0,0,61,,train_dim1_1,7,30,,,,2,0,2,0,,,,,,,,,0,0,0,0,0,6,6,6,0,0,0,0,,,,,,,,,,,,,,,,,,,,,,,,,stimuli/alien_stimuli/61.png,,,,,,,,,,,,,,,,,,,,,,,,,,,,,stimuli/alien_stimuli/21.png,21,5,8,,,,,,,30,,,,,,,,597.9032556000166,597.9032556000166,597.9032556000166,597.9032556000166,597.9032556000166,return,1.5199106000363827,3,0,0,1,0.48,-0.4,return,1.4341678000055254,5,-12,0.48,-0.4,596.3420492999721,597.9032556000166,-0.08,-0.4,0.0,0.32,-0.4,-0.08,0.07999999999999999,-0.08,-0.4,590.7590007998515,590.7590007998515,590.7590007998515,590.7590007998515,590.7590007998515,590.7590007998515,590.7590007998515,590.7590007998515,590.7374632799765,5.70701240003109,return,5.551510900026187,,,,,,,,,,,,,,,,,,,,,,,,,,,,,,,,,DG5333,train_x,blue_star,bottom_right,2025-08-19_16h51.37.181,HideSeek_v1,2022.2.5,60.137715352645685,
,5,4,2,4,-3,0,31,,train_dim1_1,8,30,,,,2,0,2,0,,,,,,,,,0,0,0,0,0,7,7,7,0,0,0,0,,,,,,,,,,,,,,,,,,,,,,,,,stimuli/alien_stimuli/31.png,,,,,,,,,,,,,,,,,,,,,,,,,,,,,stimuli/alien_stimuli/61.png,61,8,9,,,,,,,30,,,,,,,,603.5725149998907,603.5725149998907,603.5725149998907,603.5725149998907,603.5725149998907,left,13.462373499991372,3,0,0,99,0.15999999999999998,-0.08,left,13.359041600022465,,,,,601.9969859998673,603.5725149998907,0.48,-0.4,0.0,0.0,-0.4,0.48,0.48,0.48,-0.4,601.0045107998885,601.0045107998885,601.0045107998885,601.0045107998885,601.0045107998885,601.0045107998885,601.0045107998885,601.0045107998885,600.9958729199134,1.1197379000950605,return,0.9644716000184417,,,,,,,,,,,,,,,,,,,,,,,,,,,,,,,,,DG5333,train_x,blue_star,bottom_right,2025-08-19_16h51.37.181,HideSeek_v1,2022.2.5,60.137715352645685,
,5,4,2,4,-3,0,31,,train_dim1_1,8,30,,,,2,0,2,0,,,,,,,,,0,0,0,0,0,7,7,7,1,0,1,0,,,,,,,,,,,,,,,,,,,,,,,,,,,,,,,,,,,,,,,,,,,,,,,,,,,,,,,,,,,,,,,,30,,,,,,,,617.0280361999758,617.0280361999758,617.0280361999758,617.0280361999758,617.0280361999758,left,0.3419288999866694,3,0,0,99,0.07999999999999997,-0.08,left,0.25693560019135475,,,,,,,,,,,,,,,,,,,,,,,,,,,,,,,,,,,,,,,,,,,,,,,,,,,,,,,,,,,,DG5333,train_x,blue_star,bottom_right,2025-08-19_16h51.37.181,HideSeek_v1,2022.2.5,60.137715352645685,
,5,4,2,4,-3,0,31,,train_dim1_1,8,30,,,,2,0,2,0,,,,,,,,,0,0,0,0,0,7,7,7,2,0,2,0,,,,,,,,,,,,,,,,,,,,,,,,,,,,,,,,,,,,,,,,,,,,,,,,,,,,,,,,,,,,,,,,30,,,,,,,,617.3743527999613,617.3743527999613,617.3743527999613,617.3743527999613,617.3743527999613,left,0.32658180012367666,3,0,0,99,-2.7755575615628914e-17,-0.08,left,0.25166919990442693,,,,,,,,,,,,,,,,,,,,,,,,,,,,,,,,,,,,,,,,,,,,,,,,,,,,,,,,,,,,DG5333,train_x,blue_star,bottom_right,2025-08-19_16h51.37.181,HideSeek_v1,2022.2.5,60.137715352645685,
,5,4,2,4,-3,0,31,,train_dim1_1,8,30,,,,2,0,2,0,,,,,,,,,0,0,0,0,0,7,7,7,3,0,3,0,,,,,,,,,,,,,,,,,,,,,,,,,,,,,,,,,,,,,,,,,,,,,,,,,,,,,,,,,,,,,,,,30,,,,,,,,617.7077907999046,617.7077907999046,617.7077907999046,617.7077907999046,617.7077907999046,left,0.4427628999110311,3,0,0,99,-0.08000000000000003,-0.08,left,0.3616179001983255,,,,,,,,,,,,,,,,,,,,,,,,,,,,,,,,,,,,,,,,,,,,,,,,,,,,,,,,,,,,DG5333,train_x,blue_star,bottom_right,2025-08-19_16h51.37.181,HideSeek_v1,2022.2.5,60.137715352645685,
,5,4,2,4,-3,0,31,,train_dim1_1,8,30,,,,2,0,2,0,,,,,,,,,0,0,0,0,0,7,7,7,4,0,4,0,,,,,,,,,,,,,,,,,,,,,,,,,,,,,,,,,,,,,,,,,,,,,,,,,,,,,,,,,,,,,,,,30,,,,,,,,618.1574690998532,618.1574690998532,618.1574690998532,618.1574690998532,618.1574690998532,return,0.7434313998091966,3,1,0,0,-0.08000000000000003,-0.08,return,0.6687564000021666,5,-16,-0.08000000000000003,-0.08,,,,,,,,,,,,,,,,,,,,,,,,,,,,,,,,,,,,,,,,,,,,,,,,,,,,,,,,DG5333,train_x,blue_star,bottom_right,2025-08-19_16h51.37.181,HideSeek_v1,2022.2.5,60.137715352645685,
,6,0,5,0,-1,0,51,,train_dim1_1,9,30,,,,2,0,2,0,,,,,,,,,0,0,0,0,0,8,8,8,0,0,0,0,,,,,,,,,,,,,,,,,,,,,,,,,stimuli/alien_stimuli/51.png,,,,,,,,,,,,,,,,,,,,,,,,,,,,,stimuli/alien_stimuli/31.png,31,5,10,,,,,,,30,,,,,,,,628.9638838998508,628.9638838998508,628.9638838998508,628.9638838998508,628.9638838998508,left,4.1733410998713225,3,1,0,99,0.24,-0.4,left,4.082539899973199,,,,,627.4010972999968,628.9638838998508,0,-0.08,0.0,0.24,-0.08,0,0.12,0,-0.08,620.4891609998886,620.4891609998886,620.4891609998886,620.4891609998886,620.4891609998886,620.4891609998886,620.4891609998886,620.4891609998886,620.4787116199732,7.0415360000915825,return,6.886187799973413,,,,,,,,,,,,,,,,,,,,,,,,,,,,,,,,,DG5333,train_x,blue_star,bottom_right,2025-08-19_16h51.37.181,HideSeek_v1,2022.2.5,60.137715352645685,
,6,0,5,0,-1,0,51,,train_dim1_1,9,30,,,,2,0,2,0,,,,,,,,,0,0,0,0,0,8,8,8,1,0,1,0,,,,,,,,,,,,,,,,,,,,,,,,,,,,,,,,,,,,,,,,,,,,,,,,,,,,,,,,,,,,,,,,30,,,,,,,,633.1402288000099,633.1402288000099,633.1402288000099,633.1402288000099,633.1402288000099,return,0.20885560009628534,4,0,0,1,0.24,-0.4,return,0.12789779994636774,5,-17,0.24,-0.4,,,,,,,,,,,,,,,,,,,,,,,,,,,,,,,,,,,,,,,,,,,,,,,,,,,,,,,,DG5333,train_x,blue_star,bottom_right,2025-08-19_16h51.37.181,HideSeek_v1,2022.2.5,60.137715352645685,
,5,3,0,3,-5,0,11,,train_dim1_1,10,30,,,,2,0,2,0,,,,,,,,,0,0,0,0,0,9,9,9,0,0,0,0,,,,,,,,,,,,,,,,,,,,,,,,,stimuli/alien_stimuli/11.png,,,,,,,,,,,,,,,,,,,,,,,,,,,,,stimuli/alien_stimuli/51.png,51,6,11,,,,,,,30,,,,,,,,638.4567823999096,638.4567823999096,638.4567823999096,638.4567823999096,638.4567823999096,up,9.979294599965215,4,0,0,99,0.24,-0.08,up,9.872264700010419,,,,,636.8756748999003,638.4567823999096,0.24,-0.4,0.0,0.08,-0.4,0.24,0.28,0.24,-0.4,634.9296077999752,634.9296077999752,634.9296077999752,634.9296077999752,634.9296077999752,634.9296077999752,634.9296077999752,634.9296077999752,634.923968320014,2.071045899996534,return,1.9250785999465734,,,,,,,,,,,,,,,,,,,,,,,,,,,,,,,,,DG5333,train_x,blue_star,bottom_right,2025-08-19_16h51.37.181,HideSeek_v1,2022.2.5,60.137715352645685,
,5,3,0,3,-5,0,11,,train_dim1_1,10,30,,,,2,0,2,0,,,,,,,,,0,0,0,0,0,9,9,9,1,0,1,0,,,,,,,,,,,,,,,,,,,,,,,,,,,,,,,,,,,,,,,,,,,,,,,,,,,,,,,,,,,,,,,,30,,,,,,,,648.4210472998675,648.4210472998675,648.4210472998675,648.4210472998675,648.4210472998675,up,0.5592676000669599,4,0,0,99,0.24,0.0,up,0.48121759993955493,,,,,,,,,,,,,,,,,,,,,,,,,,,,,,,,,,,,,,,,,,,,,,,,,,,,,,,,,,,,DG5333,train_x,blue_star,bottom_right,2025-08-19_16h51.37.181,HideSeek_v1,2022.2.5,60.137715352645685,
,5,3,0,3,-5,0,11,,train_dim1_1,10,30,,,,2,0,2,0,,,,,,,,,0,0,0,0,0,9,9,9,2,0,2,0,,,,,,,,,,,,,,,,,,,,,,,,,,,,,,,,,,,,,,,,,,,,,,,,,,,,,,,,,,,,,,,,30,,,,,,,,648.9877201998606,648.9877201998606,648.9877201998606,648.9877201998606,648.9877201998606,up,0.6097928998060524,4,0,0,99,0.24,0.08,up,0.532496300060302,,,,,,,,,,,,,,,,,,,,,,,,,,,,,,,,,,,,,,,,,,,,,,,,,,,,,,,,,,,,DG5333,train_x,blue_star,bottom_right,2025-08-19_16h51.37.181,HideSeek_v1,2022.2.5,60.137715352645685,
,5,3,0,3,-5,0,11,,train_dim1_1,10,30,,,,2,0,2,0,,,,,,,,,0,0,0,0,0,9,9,9,3,0,3,0,,,,,,,,,,,,,,,,,,,,,,,,,,,,,,,,,,,,,,,,,,,,,,,,,,,,,,,,,,,,,,,,30,,,,,,,,649.6166520998813,649.6166520998813,649.6166520998813,649.6166520998813,649.6166520998813,up,0.5427462998777628,4,0,0,99,0.24,0.16,up,0.4516106001101434,,,,,,,,,,,,,,,,,,,,,,,,,,,,,,,,,,,,,,,,,,,,,,,,,,,,,,,,,,,,DG5333,train_x,blue_star,bottom_right,2025-08-19_16h51.37.181,HideSeek_v1,2022.2.5,60.137715352645685,
,5,3,0,3,-5,0,11,,train_dim1_1,10,30,,,,2,0,2,0,,,,,,,,,0,0,0,0,0,9,9,9,4,0,4,0,,,,,,,,,,,,,,,,,,,,,,,,,,,,,,,,,,,,,,,,,,,,,,,,,,,,,,,,,,,,,,,,30,,,,,,,,650.1553441998549,650.1553441998549,650.1553441998549,650.1553441998549,650.1553441998549,up,0.49262780020944774,4,0,0,99,0.24,0.24,up,0.40277229994535446,,,,,,,,,,,,,,,,,,,,,,,,,,,,,,,,,,,,,,,,,,,,,,,,,,,,,,,,,,,,DG5333,train_x,blue_star,bottom_right,2025-08-19_16h51.37.181,HideSeek_v1,2022.2.5,60.137715352645685,
,5,3,0,3,-5,0,11,,train_dim1_1,10,30,,,,2,0,2,0,,,,,,,,,0,0,0,0,0,9,9,9,5,0,5,0,,,,,,,,,,,,,,,,,,,,,,,,,,,,,,,,,,,,,,,,,,,,,,,,,,,,,,,,,,,,,,,,30,,,,,,,,650.6626327999402,650.6626327999402,650.6626327999402,650.6626327999402,650.6626327999402,return,0.6931400999892503,4,0,0,0,0.24,0.24,return,0.5965426000766456,10,-17,0.24,0.24,,,,,,,,,,,,,,,,,,,,,,,,,,,,,,,,,,,,,,,,,,,,,,,,,,,,,,,,DG5333,train_x,blue_star,bottom_right,2025-08-19_16h51.37.181,HideSeek_v1,2022.2.5,60.137715352645685,
,7,2,4,2,-3,0,31,,train_dim1_1,11,30,,,,2,0,2,0,,,,,,,,,0,0,0,0,0,10,10,10,0,0,0,0,,,,,,,,,,,,,,,,,,,,,,,,,stimuli/alien_stimuli/31.png,,,,,,,,,,,,,,,,,,,,,,,,,,,,,stimuli/alien_stimuli/11.png,11,5,12,,,,,,,30,,,,,,,,659.0390359999146,659.0390359999146,659.0390359999146,659.0390359999146,659.0390359999146,left,4.472829000093043,4,0,0,99,0.32,-0.24,left,4.38714180001989,,,,,657.4760596000124,659.0390359999146,-0.16,-0.16,0.0,0.4,-0.16,-0.16,0.039999999999999994,-0.16,-0.16,652.9361382999923,652.9361382999923,652.9361382999923,652.9361382999923,652.9361382999923,652.9361382999923,652.9361382999923,652.9361382999923,652.9222497199662,4.673011600039899,return,4.519396499963477,,,,,,,,,,,,,,,,,,,,,,,,,,,,,,,,,DG5333,train_x,blue_star,bottom_right,2025-08-19_16h51.37.181,HideSeek_v1,2022.2.5,60.137715352645685,
,7,2,4,2,-3,0,31,,train_dim1_1,11,30,,,,2,0,2,0,,,,,,,,,0,0,0,0,0,10,10,10,1,0,1,0,,,,,,,,,,,,,,,,,,,,,,,,,,,,,,,,,,,,,,,,,,,,,,,,,,,,,,,,,,,,,,,,30,,,,,,,,663.5161313000135,663.5161313000135,663.5161313000135,663.5161313000135,663.5161313000135,left,0.3254899999592453,4,0,0,99,0.24,-0.24,left,0.23380659986287355,,,,,,,,,,,,,,,,,,,,,,,,,,,,,,,,,,,,,,,,,,,,,,,,,,,,,,,,,,,,DG5333,train_x,blue_star,bottom_right,2025-08-19_16h51.37.181,HideSeek_v1,2022.2.5,60.137715352645685,
,7,2,4,2,-3,0,31,,train_dim1_1,11,30,,,,2,0,2,0,,,,,,,,,0,0,0,0,0,10,10,10,2,0,2,0,,,,,,,,,,,,,,,,,,,,,,,,,,,,,,,,,,,,,,,,,,,,,,,,,,,,,,,,,,,,,,,,30,,,,,,,,663.8457837998867,663.8457837998867,663.8457837998867,663.8457837998867,663.8457837998867,left,0.29299210011959076,4,0,0,99,0.15999999999999998,-0.24,left,0.214875599835068,,,,,,,,,,,,,,,,,,,,,,,,,,,,,,,,,,,,,,,,,,,,,,,,,,,,,,,,,,,,DG5333,train_x,blue_star,bottom_right,2025-08-19_16h51.37.181,HideSeek_v1,2022.2.5,60.137715352645685,
,7,2,4,2,-3,0,31,,train_dim1_1,11,30,,,,2,0,2,0,,,,,,,,,0,0,0,0,0,10,10,10,3,0,3,0,,,,,,,,,,,,,,,,,,,,,,,,,,,,,,,,,,,,,,,,,,,,,,,,,,,,,,,,,,,,,,,,30,,,,,,,,664.1479153998662,664.1479153998662,664.1479153998662,664.1479153998662,664.1479153998662,return,0.3572131001856178,5,0,0,1,0.15999999999999998,-0.24,return,0.28254209994338453,10,-20,0.15999999999999998,-0.24,,,,,,,,,,,,,,,,,,,,,,,,,,,,,,,,,,,,,,,,,,,,,,,,,,,,,,,,DG5333,train_x,blue_star,bottom_right,2025-08-19_16h51.37.181,HideSeek_v1,2022.2.5,60.137715352645685,
,5,0,1,0,-4,0,21,,train_dim1_1,12,30,,,,2,0,2,0,,,,,,,,,0,0,0,0,0,11,11,11,0,0,0,0,,,,,,,,,,,,,,,,,,,,,,,,,stimuli/alien_stimuli/21.png,,,,,,,,,,,,,,,,,,,,,,,,,,,,,stimuli/alien_stimuli/31.png,31,7,13,,,,,,,30,,,,,,,,669.1666335000191,669.1666335000191,669.1666335000191,669.1666335000191,669.1666335000191,up,7.490708299912512,5,0,0,99,0.24,-0.32,up,7.381485400022939,,,,,667.5847308000084,669.1666335000191,0.16,-0.24,0.0,0.24,-0.24,0.16,0.28,0.16,-0.24,666.077007799875,666.077007799875,666.077007799875,666.077007799875,666.077007799875,666.077007799875,666.077007799875,666.077007799875,666.0667980798753,1.6202332999091595,return,1.4861149000935256,,,,,,,,,,,,,,,,,,,,,,,,,,,,,,,,,DG5333,train_x,blue_star,bottom_right,2025-08-19_16h51.37.181,HideSeek_v1,2022.2.5,60.137715352645685,
,5,0,1,0,-4,0,21,,train_dim1_1,12,30,,,,2,0,2,0,,,,,,,,,0,0,0,0,0,11,11,11,1,0,1,0,,,,,,,,,,,,,,,,,,,,,,,,,,,,,,,,,,,,,,,,,,,,,,,,,,,,,,,,,,,,,,,,30,,,,,,,,676.6470512999222,676.6470512999222,676.6470512999222,676.6470512999222,676.6470512999222,up,0.4259273998904973,5,0,0,99,0.24,-0.24,up,0.333403900032863,,,,,,,,,,,,,,,,,,,,,,,,,,,,,,,,,,,,,,,,,,,,,,,,,,,,,,,,,,,,DG5333,train_x,blue_star,bottom_right,2025-08-19_16h51.37.181,HideSeek_v1,2022.2.5,60.137715352645685,
,5,0,1,0,-4,0,21,,train_dim1_1,12,30,,,,2,0,2,0,,,,,,,,,0,0,0,0,0,11,11,11,2,0,2,0,,,,,,,,,,,,,,,,,,,,,,,,,,,,,,,,,,,,,,,,,,,,,,,,,,,,,,,,,,,,,,,,30,,,,,,,,677.0780698000453,677.0780698000453,677.0780698000453,677.0780698000453,677.0780698000453,up,0.09265089989639819,5,0,0,99,0.24,-0.15999999999999998,up,0.0032486000563949347,,,,,,,,,,,,,,,,,,,,,,,,,,,,,,,,,,,,,,,,,,,,,,,,,,,,,,,,,,,,DG5333,train_x,blue_star,bottom_right,2025-08-19_16h51.37.181,HideSeek_v1,2022.2.5,60.137715352645685,
,5,0,1,0,-4,0,21,,train_dim1_1,12,30,,,,2,0,2,0,,,,,,,,,0,0,0,0,0,11,11,11,3,0,3,0,,,,,,,,,,,,,,,,,,,,,,,,,,,,,,,,,,,,,,,,,,,,,,,,,,,,,,,,,,,,,,,,30,,,,,,,,677.1772131999023,677.1772131999023,677.1772131999023,677.1772131999023,677.1772131999023,up,1.610871700104326,5,0,0,99,0.24,-0.07999999999999997,up,1.52268849988468,,,,,,,,,,,,,,,,,,,,,,,,,,,,,,,,,,,,,,,,,,,,,,,,,,,,,,,,,,,,DG5333,train_x,blue_star,bottom_right,2025-08-19_16h51.37.181,HideSeek_v1,2022.2.5,60.137715352645685,
,5,0,1,0,-4,0,21,,train_dim1_1,12,30,,,,2,0,2,0,,,,,,,,,0,0,0,0,0,11,11,11,4,0,4,0,,,,,,,,,,,,,,,,,,,,,,,,,,,,,,,,,,,,,,,,,,,,,,,,,,,,,,,,,,,,,,,,30,,,,,,,,678.7946367999539,678.7946367999539,678.7946367999539,678.7946367999539,678.7946367999539,up,0.3095539000350982,5,0,0,99,0.24,2.7755575615628914e-17,up,0.2325746000278741,,,,,,,,,,,,,,,,,,,,,,,,,,,,,,,,,,,,,,,,,,,,,,,,,,,,,,,,,,,,DG5333,train_x,blue_star,bottom_right,2025-08-19_16h51.37.181,HideSeek_v1,2022.2.5,60.137715352645685,
,5,0,1,0,-4,0,21,,train_dim1_1,12,30,,,,2,0,2,0,,,,,,,,,0,0,0,0,0,11,11,11,5,0,5,0,,,,,,,,,,,,,,,,,,,,,,,,,,,,,,,,,,,,,,,,,,,,,,,,,,,,,,,,,,,,,,,,30,,,,,,,,679.1119535998441,679.1119535998441,679.1119535998441,679.1119535998441,679.1119535998441,left,1.0267296000383794,5,0,0,99,0.15999999999999998,2.7755575615628914e-17,left,0.9374635999556631,,,,,,,,,,,,,,,,,,,,,,,,,,,,,,,,,,,,,,,,,,,,,,,,,,,,,,,,,,,,DG5333,train_x,blue_star,bottom_right,2025-08-19_16h51.37.181,HideSeek_v1,2022.2.5,60.137715352645685,
,5,0,1,0,-4,0,21,,train_dim1_1,12,30,,,,2,0,2,0,,,,,,,,,0,0,0,0,0,11,11,11,6,0,6,0,,,,,,,,,,,,,,,,,,,,,,,,,,,,,,,,,,,,,,,,,,,,,,,,,,,,,,,,,,,,,,,,30,,,,,,,,680.1609447998926,680.1609447998926,680.1609447998926,680.1609447998926,680.1609447998926,left,0.3761897999793291,5,0,0,99,0.07999999999999997,2.7755575615628914e-17,left,0.2846158999018371,,,,,,,,,,,,,,,,,,,,,,,,,,,,,,,,,,,,,,,,,,,,,,,,,,,,,,,,,,,,DG5333,train_x,blue_star,bottom_right,2025-08-19_16h51.37.181,HideSeek_v1,2022.2.5,60.137715352645685,
,5,0,1,0,-4,0,21,,train_dim1_1,12,30,,,,2,0,2,0,,,,,,,,,0,0,0,0,0,11,11,11,7,0,7,0,,,,,,,,,,,,,,,,,,,,,,,,,,,,,,,,,,,,,,,,,,,,,,,,,,,,,,,,,,,,,,,,30,,,,,,,,680.5292320998851,680.5292320998851,680.5292320998851,680.5292320998851,680.5292320998851,left,0.2427804998587817,5,0,0,99,-2.7755575615628914e-17,2.7755575615628914e-17,left,0.16533780004829168,,,,,,,,,,,,,,,,,,,,,,,,,,,,,,,,,,,,,,,,,,,,,,,,,,,,,,,,,,,,DG5333,train_x,blue_star,bottom_right,2025-08-19_16h51.37.181,HideSeek_v1,2022.2.5,60.137715352645685,
,5,0,1,0,-4,0,21,,train_dim1_1,12,30,,,,2,0,2,0,,,,,,,,,0,0,0,0,0,11,11,11,8,0,8,0,,,,,,,,,,,,,,,,,,,,,,,,,,,,,,,,,,,,,,,,,,,,,,,,,,,,,,,,,,,,,,,,30,,,,,,,,680.7808957998641,680.7808957998641,680.7808957998641,680.7808957998641,680.7808957998641,left,0.17628210014663637,5,0,0,99,-0.08000000000000003,2.7755575615628914e-17,left,0.09091689996421337,,,,,,,,,,,,,,,,,,,,,,,,,,,,,,,,,,,,,,,,,,,,,,,,,,,,,,,,,,,,DG5333,train_x,blue_star,bottom_right,2025-08-19_16h51.37.181,HideSeek_v1,2022.2.5,60.137715352645685,
,5,0,1,0,-4,0,21,,train_dim1_1,12,30,,,,2,0,2,0,,,,,,,,,0,0,0,0,0,11,11,11,9,0,9,0,,,,,,,,,,,,,,,,,,,,,,,,,,,,,,,,,,,,,,,,,,,,,,,,,,,,,,,,,,,,,,,,30,,,,,,,,680.9649298000149,680.9649298000149,680.9649298000149,680.9649298000149,680.9649298000149,right,1.3103432999923825,5,0,0,99,-2.7755575615628914e-17,2.7755575615628914e-17,right,1.2271220998372883,,,,,,,,,,,,,,,,,,,,,,,,,,,,,,,,,,,,,,,,,,,,,,,,,,,,,,,,,,,,DG5333,train_x,blue_star,bottom_right,2025-08-19_16h51.37.181,HideSeek_v1,2022.2.5,60.137715352645685,
,5,0,1,0,-4,0,21,,train_dim1_1,12,30,,,,2,0,2,0,,,,,,,,,0,0,0,0,0,11,11,11,10,0,10,0,,,,,,,,,,,,,,,,,,,,,,,,,,,,,,,,,,,,,,,,,,,,,,,,,,,,,,,,,,,,,,,,30,,,,,,,,682.2864172998816,682.2864172998816,682.2864172998816,682.2864172998816,682.2864172998816,right,0.2568316999822855,5,0,0,99,0.07999999999999997,2.7755575615628914e-17,right,0.1699207997880876,,,,,,,,,,,,,,,,,,,,,,,,,,,,,,,,,,,,,,,,,,,,,,,,,,,,,,,,,,,,DG5333,train_x,blue_star,bottom_right,2025-08-19_16h51.37.181,HideSeek_v1,2022.2.5,60.137715352645685,
,5,0,1,0,-4,0,21,,train_dim1_1,12,30,,,,2,0,2,0,,,,,,,,,0,0,0,0,0,11,11,11,11,0,11,0,,,,,,,,,,,,,,,,,,,,,,,,,,,,,,,,,,,,,,,,,,,,,,,,,,,,,,,,,,,,,,,,30,,,,,,,,682.548724199878,682.548724199878,682.548724199878,682.548724199878,682.548724199878,right,0.25984499999321997,5,0,0,99,0.15999999999999998,2.7755575615628914e-17,right,0.17234369996003807,,,,,,,,,,,,,,,,,,,,,,,,,,,,,,,,,,,,,,,,,,,,,,,,,,,,,,,,,,,,DG5333,train_x,blue_star,bottom_right,2025-08-19_16h51.37.181,HideSeek_v1,2022.2.5,60.137715352645685,
,5,0,1,0,-4,0,21,,train_dim1_1,12,30,,,,2,0,2,0,,,,,,,,,0,0,0,0,0,11,11,11,12,0,12,0,,,,,,,,,,,,,,,,,,,,,,,,,,,,,,,,,,,,,,,,,,,,,,,,,,,,,,,,,,,,,,,,30,,,,,,,,682.814905700041,682.814905700041,682.814905700041,682.814905700041,682.814905700041,right,0.24306410015560687,5,0,0,99,0.24,2.7755575615628914e-17,right,0.15975729981437325,,,,,,,,,,,,,,,,,,,,,,,,,,,,,,,,,,,,,,,,,,,,,,,,,,,,,,,,,,,,DG5333,train_x,blue_star,bottom_right,2025-08-19_16h51.37.181,HideSeek_v1,2022.2.5,60.137715352645685,
,5,0,1,0,-4,0,21,,train_dim1_1,12,30,,,,2,0,2,0,,,,,,,,,0,0,0,0,0,11,11,11,13,0,13,0,,,,,,,,,,,,,,,,,,,,,,,,,,,,,,,,,,,,,,,,,,,,,,,,,,,,,,,,,,,,,,,,30,,,,,,,,683.06558699999,683.06558699999,683.06558699999,683.06558699999,683.06558699999,down,14.38806080003269,5,0,0,99,0.24,-0.07999999999999997,down,14.312344399979338,,,,,,,,,,,,,,,,,,,,,,,,,,,,,,,,,,,,,,,,,,,,,,,,,,,,,,,,,,,,DG5333,train_x,blue_star,bottom_right,2025-08-19_16h51.37.181,HideSeek_v1,2022.2.5,60.137715352645685,
,5,0,1,0,-4,0,21,,train_dim1_1,12,30,,,,2,0,2,0,,,,,,,,,0,0,0,0,0,11,11,11,14,0,14,0,,,,,,,,,,,,,,,,,,,,,,,,,,,,,,,,,,,,,,,,,,,,,,,,,,,,,,,,,,,,,,,,30,,,,,,,,697.4846635998692,697.4846635998692,697.4846635998692,697.4846635998692,697.4846635998692,down,0.22084020008333027,5,0,0,99,0.24,-0.15999999999999998,down,0.116637600120157,,,,,,,,,,,,,,,,,,,,,,,,,,,,,,,,,,,,,,,,,,,,,,,,,,,,,,,,,,,,DG5333,train_x,blue_star,bottom_right,2025-08-19_16h51.37.181,HideSeek_v1,2022.2.5,60.137715352645685,
,5,0,1,0,-4,0,21,,train_dim1_1,12,30,,,,2,0,2,0,,,,,,,,,0,0,0,0,0,11,11,11,15,0,15,0,,,,,,,,,,,,,,,,,,,,,,,,,,,,,,,,,,,,,,,,,,,,,,,,,,,,,,,,,,,,,,,,30,,,,,,,,697.7068495999556,697.7068495999556,697.7068495999556,697.7068495999556,697.7068495999556,down,0.15986169991083443,5,0,0,99,0.24,-0.24,down,0.057664799969643354,,,,,,,,,,,,,,,,,,,,,,,,,,,,,,,,,,,,,,,,,,,,,,,,,,,,,,,,,,,,DG5333,train_x,blue_star,bottom_right,2025-08-19_16h51.37.181,HideSeek_v1,2022.2.5,60.137715352645685,
,5,0,1,0,-4,0,21,,train_dim1_1,12,30,,,,2,0,2,0,,,,,,,,,0,0,0,0,0,11,11,11,16,0,16,0,,,,,,,,,,,,,,,,,,,,,,,,,,,,,,,,,,,,,,,,,,,,,,,,,,,,,,,,,,,,,,,,30,,,,,,,,697.86092310003,697.86092310003,697.86092310003,697.86092310003,697.86092310003,down,0.15961269987747073,5,0,0,99,0.24,-0.32,down,0.07736070011742413,,,,,,,,,,,,,,,,,,,,,,,,,,,,,,,,,,,,,,,,,,,,,,,,,,,,,,,,,,,,DG5333,train_x,blue_star,bottom_right,2025-08-19_16h51.37.181,HideSeek_v1,2022.2.5,60.137715352645685,
,5,0,1,0,-4,0,21,,train_dim1_1,12,30,,,,2,0,2,0,,,,,,,,,0,0,0,0,0,11,11,11,17,0,17,0,,,,,,,,,,,,,,,,,,,,,,,,,,,,,,,,,,,,,,,,,,,,,,,,,,,,,,,,,,,,,,,,30,,,,,,,,698.027883999981,698.027883999981,698.027883999981,698.027883999981,698.027883999981,down,0.19287790008820593,5,0,0,99,0.24,-0.4,down,0.10426460020244122,,,,,,,,,,,,,,,,,,,,,,,,,,,,,,,,,,,,,,,,,,,,,,,,,,,,,,,,,,,,DG5333,train_x,blue_star,bottom_right,2025-08-19_16h51.37.181,HideSeek_v1,2022.2.5,60.137715352645685,
,5,0,1,0,-4,0,21,,train_dim1_1,12,30,,,,2,0,2,0,,,,,,,,,0,0,0,0,0,11,11,11,18,0,18,0,,,,,,,,,,,,,,,,,,,,,,,,,,,,,,,,,,,,,,,,,,,,,,,,,,,,,,,,,,,,,,,,30,,,,,,,,698.2279017998371,698.2279017998371,698.2279017998371,698.2279017998371,698.2279017998371,left,0.34272179985418916,5,0,0,99,0.15999999999999998,-0.4,left,0.25266280001960695,,,,,,,,,,,,,,,,,,,,,,,,,,,,,,,,,,,,,,,,,,,,,,,,,,,,,,,,,,,,DG5333,train_x,blue_star,bottom_right,2025-08-19_16h51.37.181,HideSeek_v1,2022.2.5,60.137715352645685,
,5,0,1,0,-4,0,21,,train_dim1_1,12,30,,,,2,0,2,0,,,,,,,,,0,0,0,0,0,11,11,11,19,0,19,0,,,,,,,,,,,,,,,,,,,,,,,,,,,,,,,,,,,,,,,,,,,,,,,,,,,,,,,,,,,,,,,,30,,,,,,,,698.5787910998333,698.5787910998333,698.5787910998333,698.5787910998333,698.5787910998333,left,0.15967179997824132,5,0,0,99,0.07999999999999997,-0.4,left,0.07718409993685782,,,,,,,,,,,,,,,,,,,,,,,,,,,,,,,,,,,,,,,,,,,,,,,,,,,,,,,,,,,,DG5333,train_x,blue_star,bottom_right,2025-08-19_16h51.37.181,HideSeek_v1,2022.2.5,60.137715352645685,
,5,0,1,0,-4,0,21,,train_dim1_1,12,30,,,,2,0,2,0,,,,,,,,,0,0,0,0,0,11,11,11,20,0,20,0,,,,,,,,,,,,,,,,,,,,,,,,,,,,,,,,,,,,,,,,,,,,,,,,,,,,,,,,,,,,,,,,30,,,,,,,,698.745568000013,698.745568000013,698.745568000013,698.745568000013,698.745568000013,left,0.1759809001814574,5,0,0,99,-2.7755575615628914e-17,-0.4,left,0.0989707000553608,,,,,,,,,,,,,,,,,,,,,,,,,,,,,,,,,,,,,,,,,,,,,,,,,,,,,,,,,,,,DG5333,train_x,blue_star,bottom_right,2025-08-19_16h51.37.181,HideSeek_v1,2022.2.5,60.137715352645685,
,5,0,1,0,-4,0,21,,train_dim1_1,12,30,,,,2,0,2,0,,,,,,,,,0,0,0,0,0,11,11,11,21,0,21,0,,,,,,,,,,,,,,,,,,,,,,,,,,,,,,,,,,,,,,,,,,,,,,,,,,,,,,,,,,,,,,,,30,,,,,,,,698.9283469999209,698.9283469999209,698.9283469999209,698.9283469999209,698.9283469999209,left,0.19281370006501675,5,0,0,99,-0.08000000000000003,-0.4,left,0.11629580007866025,,,,,,,,,,,,,,,,,,,,,,,,,,,,,,,,,,,,,,,,,,,,,,,,,,,,,,,,,,,,DG5333,train_x,blue_star,bottom_right,2025-08-19_16h51.37.181,HideSeek_v1,2022.2.5,60.137715352645685,
,5,0,1,0,-4,0,21,,train_dim1_1,12,30,,,,2,0,2,0,,,,,,,,,0,0,0,0,0,11,11,11,22,0,22,0,,,,,,,,,,,,,,,,,,,,,,,,,,,,,,,,,,,,,,,,,,,,,,,,,,,,,,,,,,,,,,,,30,,,,,,,,699.128883499885,699.128883499885,699.128883499885,699.128883499885,699.128883499885,left,0.17607350018806756,5,0,0,99,-0.16000000000000003,-0.4,left,0.08353019994683564,,,,,,,,,,,,,,,,,,,,,,,,,,,,,,,,,,,,,,,,,,,,,,,,,,,,,,,,,,,,DG5333,train_x,blue_star,bottom_right,2025-08-19_16h51.37.181,HideSeek_v1,2022.2.5,60.137715352645685,
,5,0,1,0,-4,0,21,,train_dim1_1,12,30,,,,2,0,2,0,,,,,,,,,0,0,0,0,0,11,11,11,23,0,23,0,,,,,,,,,,,,,,,,,,,,,,,,,,,,,,,,,,,,,,,,,,,,,,,,,,,,,,,,,,,,,,,,30,,,,,,,,699.3116174000315,699.3116174000315,699.3116174000315,699.3116174000315,699.3116174000315,return,0.39299300010316074,5,1,0,0,-0.16000000000000003,-0.4,return,0.31288270000368357,10,-25,-0.16000000000000003,-0.4,,,,,,,,,,,,,,,,,,,,,,,,,,,,,,,,,,,,,,,,,,,,,,,,,,,,,,,,DG5333,train_x,blue_star,bottom_right,2025-08-19_16h51.37.181,HideSeek_v1,2022.2.5,60.137715352645685,
,5,4,4,4,-1,0,51,,train_dim1_1,13,30,,,,2,0,2,0,,,,,,,,,0,0,0,0,0,12,12,12,0,0,0,0,,,,,,,,,,,,,,,,,,,,,,,,,stimuli/alien_stimuli/51.png,,,,,,,,,,,,,,,,,,,,,,,,,,,,,stimuli/alien_stimuli/21.png,21,5,14,,,,,,,30,,,,,,,,707.0818177999463,707.0818177999463,707.0818177999463,707.0818177999463,707.0818177999463,left,4.455534600187093,5,1,0,99,0.15999999999999998,-0.08,left,4.3577837001066655,,,,,705.5159050999209,707.0818177999463,-0.08,-0.4,0.0,0.32,-0.4,-0.08,0.07999999999999999,-0.08,-0.4,701.2971063998993,701.2971063998993,701.2971063998993,701.2971063998993,701.2971063998993,701.2971063998993,701.2971063998993,701.2971063998993,701.2792650200427,4.35697520012036,return,4.187773899873719,,,,,,,,,,,,,,,,,,,,,,,,,,,,,,,,,DG5333,train_x,blue_star,bottom_right,2025-08-19_16h51.37.181,HideSeek_v1,2022.2.5,60.137715352645685,
,5,4,4,4,-1,0,51,,train_dim1_1,13,30,,,,2,0,2,0,,,,,,,,,0,0,0,0,0,12,12,12,1,0,1,0,,,,,,,,,,,,,,,,,,,,,,,,,,,,,,,,,,,,,,,,,,,,,,,,,,,,,,,,,,,,,,,,30,,,,,,,,711.5375571998302,711.5375571998302,711.5375571998302,711.5375571998302,711.5375571998302,return,0.275868299882859,6,0,0,1,0.15999999999999998,-0.08,return,0.19141330011188984,10,-26,0.15999999999999998,-0.08,,,,,,,,,,,,,,,,,,,,,,,,,,,,,,,,,,,,,,,,,,,,,,,,,,,,,,,,DG5333,train_x,blue_star,bottom_right,2025-08-19_16h51.37.181,HideSeek_v1,2022.2.5,60.137715352645685,
,9,3,4,3,-5,0,11,,train_dim1_1,14,30,,,,2,0,2,0,,,,,,,,,0,0,0,0,0,13,13,13,0,0,0,0,,,,,,,,,,,,,,,,,,,,,,,,,stimuli/alien_stimuli/11.png,,,,,,,,,,,,,,,,,,,,,,,,,,,,,stimuli/alien_stimuli/51.png,51,5,15,,,,,,,30,,,,,,,,715.9877047999762,715.9877047999762,715.9877047999762,715.9877047999762,715.9877047999762,left,4.222967299865559,6,0,0,99,0.48000000000000004,-0.16,left,4.108352999901399,,,,,714.407088899985,715.9877047999762,0.16,-0.08,0.0,0.08,-0.08,0.16,0.2,0.16,-0.08,713.3931815999094,713.3931815999094,713.3931815999094,713.3931815999094,713.3931815999094,713.3931815999094,713.3931815999094,713.3931815999094,713.3725805800641,1.1365513999480754,return,0.9824427000712603,,,,,,,,,,,,,,,,,,,,,,,,,,,,,,,,,DG5333,train_x,blue_star,bottom_right,2025-08-19_16h51.37.181,HideSeek_v1,2022.2.5,60.137715352645685,
,9,3,4,3,-5,0,11,,train_dim1_1,14,30,,,,2,0,2,0,,,,,,,,,0,0,0,0,0,13,13,13,1,0,1,0,,,,,,,,,,,,,,,,,,,,,,,,,,,,,,,,,,,,,,,,,,,,,,,,,,,,,,,,,,,,,,,,30,,,,,,,,720.1968548998702,720.1968548998702,720.1968548998702,720.1968548998702,720.1968548998702,left,0.2925283999647945,6,0,0,99,0.4,-0.16,left,0.2103478000499308,,,,,,,,,,,,,,,,,,,,,,,,,,,,,,,,,,,,,,,,,,,,,,,,,,,,,,,,,,,,DG5333,train_x,blue_star,bottom_right,2025-08-19_16h51.37.181,HideSeek_v1,2022.2.5,60.137715352645685,
,9,3,4,3,-5,0,11,,train_dim1_1,14,30,,,,2,0,2,0,,,,,,,,,0,0,0,0,0,13,13,13,2,0,2,0,,,,,,,,,,,,,,,,,,,,,,,,,,,,,,,,,,,,,,,,,,,,,,,,,,,,,,,,,,,,,,,,30,,,,,,,,720.4959729998372,720.4959729998372,720.4959729998372,720.4959729998372,720.4959729998372,left,0.32620539981871843,6,0,0,99,0.32,-0.16,left,0.23835640004836023,,,,,,,,,,,,,,,,,,,,,,,,,,,,,,,,,,,,,,,,,,,,,,,,,,,,,,,,,,,,DG5333,train_x,blue_star,bottom_right,2025-08-19_16h51.37.181,HideSeek_v1,2022.2.5,60.137715352645685,
,9,3,4,3,-5,0,11,,train_dim1_1,14,30,,,,2,0,2,0,,,,,,,,,0,0,0,0,0,13,13,13,3,0,3,0,,,,,,,,,,,,,,,,,,,,,,,,,,,,,,,,,,,,,,,,,,,,,,,,,,,,,,,,,,,,,,,,30,,,,,,,,720.830273799831,720.830273799831,720.830273799831,720.830273799831,720.830273799831,left,0.35978529998101294,6,0,0,99,0.24,-0.16,left,0.2697566000279039,,,,,,,,,,,,,,,,,,,,,,,,,,,,,,,,,,,,,,,,,,,,,,,,,,,,,,,,,,,,DG5333,train_x,blue_star,bottom_right,2025-08-19_16h51.37.181,HideSeek_v1,2022.2.5,60.137715352645685,
,9,3,4,3,-5,0,11,,train_dim1_1,14,30,,,,2,0,2,0,,,,,,,,,0,0,0,0,0,13,13,13,4,0,4,0,,,,,,,,,,,,,,,,,,,,,,,,,,,,,,,,,,,,,,,,,,,,,,,,,,,,,,,,,,,,,,,,30,,,,,,,,721.196532699978,721.196532699978,721.196532699978,721.196532699978,721.196532699978,left,0.342873299960047,6,0,0,99,0.15999999999999998,-0.16,left,0.2556780001614243,,,,,,,,,,,,,,,,,,,,,,,,,,,,,,,,,,,,,,,,,,,,,,,,,,,,,,,,,,,,DG5333,train_x,blue_star,bottom_right,2025-08-19_16h51.37.181,HideSeek_v1,2022.2.5,60.137715352645685,
,9,3,4,3,-5,0,11,,train_dim1_1,14,30,,,,2,0,2,0,,,,,,,,,0,0,0,0,0,13,13,13,5,0,5,0,,,,,,,,,,,,,,,,,,,,,,,,,,,,,,,,,,,,,,,,,,,,,,,,,,,,,,,,,,,,,,,,30,,,,,,,,721.5501824000385,721.5501824000385,721.5501824000385,721.5501824000385,721.5501824000385,return,1.010226899990812,7,0,0,1,0.15999999999999998,-0.16,return,0.9223493000026792,10,-31,0.15999999999999998,-0.16,,,,,,,,,,,,,,,,,,,,,,,,,,,,,,,,,,,,,,,,,,,,,,,,,,,,,,,,DG5333,train_x,blue_star,bottom_right,2025-08-19_16h51.37.181,HideSeek_v1,2022.2.5,60.137715352645685,
,9,2,9,2,0,0,61,,train_dim1_1,15,30,,,,2,0,2,0,,,,,,,,,0,0,0,0,0,14,14,14,0,0,0,0,,,,,,,,,,,,,,,,,,,,,,,,,stimuli/alien_stimuli/61.png,,,,,,,,,,,,,,,,,,,,,,,,,,,,,stimuli/alien_stimuli/11.png,11,9,16,,,,,,,30,,,,,,,,726.5090461999644,726.5090461999644,726.5090461999644,726.5090461999644,726.5090461999644,return,1.1542460001073778,8,0,0,1,0.56,-0.24,return,1.045648300088942,10,-31,0.56,-0.24,724.932008799864,726.5090461999644,0.16,-0.16,0.0,0.4,-0.16,0.16,0.36000000000000004,0.16,-0.16,724.1493470999412,724.1493470999412,724.1493470999412,724.1493470999412,724.1493470999412,724.1493470999412,724.1493470999412,724.1493470999412,724.1314903199673,0.9195800998713821,return,0.7523646000772715,,,,,,,,,,,,,,,,,,,,,,,,,,,,,,,,,DG5333,train_x,blue_star,bottom_right,2025-08-19_16h51.37.181,HideSeek_v1,2022.2.5,60.137715352645685,
,8,3,7,3,-1,0,51,,train_dim1_1,16,30,,,,2,0,2,0,,,,,,,,,0,0,0,0,0,15,15,15,0,0,0,0,,,,,,,,,,,,,,,,,,,,,,,,,stimuli/alien_stimuli/51.png,,,,,,,,,,,,,,,,,,,,,,,,,,,,,stimuli/alien_stimuli/61.png,61,9,17,,,,,,,30,,,,,,,,731.7700485000387,731.7700485000387,731.7700485000387,731.7700485000387,731.7700485000387,left,2.319690200034529,8,0,0,99,0.39999999999999997,-0.16,left,2.2317621998954564,,,,,730.2034046999179,731.7700485000387,0.56,-0.24,0.0,0.0,-0.24,0.56,0.56,0.56,-0.24,729.2163589999545,729.2163589999545,729.2163589999545,729.2163589999545,729.2163589999545,729.2163589999545,729.2163589999545,729.2163589999545,729.2033376799664,1.1019477001391351,return,0.9553172001615167,,,,,,,,,,,,,,,,,,,,,,,,,,,,,,,,,DG5333,train_x,blue_star,bottom_right,2025-08-19_16h51.37.181,HideSeek_v1,2022.2.5,60.137715352645685,
,8,3,7,3,-1,0,51,,train_dim1_1,16,30,,,,2,0,2,0,,,,,,,,,0,0,0,0,0,15,15,15,1,0,1,0,,,,,,,,,,,,,,,,,,,,,,,,,,,,,,,,,,,,,,,,,,,,,,,,,,,,,,,,,,,,,,,,30,,,,,,,,734.0895221999381,734.0895221999381,734.0895221999381,734.0895221999381,734.0895221999381,return,0.3926520000677556,9,0,0,1,0.39999999999999997,-0.16,return,0.30704729980789125,10,-32,0.39999999999999997,-0.16,,,,,,,,,,,,,,,,,,,,,,,,,,,,,,,,,,,,,,,,,,,,,,,,,,,,,,,,DG5333,train_x,blue_star,bottom_right,2025-08-19_16h51.37.181,HideSeek_v1,2022.2.5,60.137715352645685,
,7,4,3,4,-4,0,21,,train_dim1_1,17,30,,,,2,0,2,0,,,,,,,,,0,0,0,0,0,16,16,16,0,0,0,0,,,,,,,,,,,,,,,,,,,,,,,,,stimuli/alien_stimuli/21.png,,,,,,,,,,,,,,,,,,,,,,,,,,,,,stimuli/alien_stimuli/51.png,51,8,18,,,,,,,30,,,,,,,,738.1561183000449,738.1561183000449,738.1561183000449,738.1561183000449,738.1561183000449,left,3.2565705999732018,9,0,0,99,0.32,-0.08,left,3.1621941002085805,,,,,736.5917340999003,738.1561183000449,0.4,-0.16,0.0,0.08,-0.16,0.4,0.44,0.4,-0.16,736.0512373000383,736.0512373000383,736.0512373000383,736.0512373000383,736.0512373000383,736.0512373000383,736.0512373000383,736.0512373000383,736.0413676799508,0.6527412000577897,return,0.5174322999082506,,,,,,,,,,,,,,,,,,,,,,,,,,,,,,,,,DG5333,train_x,blue_star,bottom_right,2025-08-19_16h51.37.181,HideSeek_v1,2022.2.5,60.137715352645685,
,7,4,3,4,-4,0,21,,train_dim1_1,17,30,,,,2,0,2,0,,,,,,,,,0,0,0,0,0,16,16,16,1,0,1,0,,,,,,,,,,,,,,,,,,,,,,,,,,,,,,,,,,,,,,,,,,,,,,,,,,,,,,,,,,,,,,,,30,,,,,,,,741.4161090999842,741.4161090999842,741.4161090999842,741.4161090999842,741.4161090999842,left,0.324472300009802,9,0,0,99,0.24,-0.08,left,0.23703600000590086,,,,,,,,,,,,,,,,,,,,,,,,,,,,,,,,,,,,,,,,,,,,,,,,,,,,,,,,,,,,DG5333,train_x,blue_star,bottom_right,2025-08-19_16h51.37.181,HideSeek_v1,2022.2.5,60.137715352645685,
,7,4,3,4,-4,0,21,,train_dim1_1,17,30,,,,2,0,2,0,,,,,,,,,0,0,0,0,0,16,16,16,2,0,2,0,,,,,,,,,,,,,,,,,,,,,,,,,,,,,,,,,,,,,,,,,,,,,,,,,,,,,,,,,,,,,,,,30,,,,,,,,741.7476150000002,741.7476150000002,741.7476150000002,741.7476150000002,741.7476150000002,left,0.3931004998739809,9,0,0,99,0.15999999999999998,-0.08,left,0.30459599988535047,,,,,,,,,,,,,,,,,,,,,,,,,,,,,,,,,,,,,,,,,,,,,,,,,,,,,,,,,,,,DG5333,train_x,blue_star,bottom_right,2025-08-19_16h51.37.181,HideSeek_v1,2022.2.5,60.137715352645685,
,7,4,3,4,-4,0,21,,train_dim1_1,17,30,,,,2,0,2,0,,,,,,,,,0,0,0,0,0,16,16,16,3,0,3,0,,,,,,,,,,,,,,,,,,,,,,,,,,,,,,,,,,,,,,,,,,,,,,,,,,,,,,,,,,,,,,,,30,,,,,,,,742.1484521999955,742.1484521999955,742.1484521999955,742.1484521999955,742.1484521999955,left,0.37624290003441274,9,0,0,99,0.07999999999999997,-0.08,left,0.2849827001336962,,,,,,,,,,,,,,,,,,,,,,,,,,,,,,,,,,,,,,,,,,,,,,,,,,,,,,,,,,,,DG5333,train_x,blue_star,bottom_right,2025-08-19_16h51.37.181,HideSeek_v1,2022.2.5,60.137715352645685,
,7,4,3,4,-4,0,21,,train_dim1_1,17,30,,,,2,0,2,0,,,,,,,,,0,0,0,0,0,16,16,16,4,0,4,0,,,,,,,,,,,,,,,,,,,,,,,,,,,,,,,,,,,,,,,,,,,,,,,,,,,,,,,,,,,,,,,,30,,,,,,,,742.5310042998753,742.5310042998753,742.5310042998753,742.5310042998753,742.5310042998753,return,0.49288919987156987,10,0,0,1,0.07999999999999997,-0.08,return,0.41124520008452237,10,-36,0.07999999999999997,-0.08,,,,,,,,,,,,,,,,,,,,,,,,,,,,,,,,,,,,,,,,,,,,,,,,,,,,,,,,DG5333,train_x,blue_star,bottom_right,2025-08-19_16h51.37.181,HideSeek_v1,2022.2.5,60.137715352645685,
,7,1,7,1,0,0,61,,train_dim1_1,18,30,,,,2,0,2,0,,,,,,,,,0,0,0,0,0,17,17,17,0,0,0,0,,,,,,,,,,,,,,,,,,,,,,,,,stimuli/alien_stimuli/61.png,,,,,,,,,,,,,,,,,,,,,,,,,,,,,stimuli/alien_stimuli/21.png,21,7,19,,,,,,,30,,,,,,,,747.0876879000571,747.0876879000571,747.0876879000571,747.0876879000571,747.0876879000571,return,0.8828480001538992,11,0,0,1,0.4,-0.32,return,0.765859300037846,10,-36,0.4,-0.32,745.4993070999626,747.0876879000571,0.08,-0.08,0.0,0.32,-0.08,0.08,0.24000000000000002,0.08,-0.08,744.5952276999597,744.5952276999597,744.5952276999597,744.5952276999597,744.5952276999597,744.5952276999597,744.5952276999597,744.5952276999597,744.5819064798998,1.019839100074023,return,0.8814675998874009,,,,,,,,,,,,,,,,,,,,,,,,,,,,,,,,,DG5333,train_x,blue_star,bottom_right,2025-08-19_16h51.37.181,HideSeek_v1,2022.2.5,60.137715352645685,
,5,3,2,3,-3,0,31,,train_dim1_1,19,30,,,,2,0,2,0,,,,,,,,,0,0,0,0,0,18,18,18,0,0,0,0,,,,,,,,,,,,,,,,,,,,,,,,,stimuli/alien_stimuli/31.png,,,,,,,,,,,,,,,,,,,,,,,,,,,,,stimuli/alien_stimuli/61.png,61,7,20,,,,,,,30,,,,,,,,751.6859820999671,751.6859820999671,751.6859820999671,751.6859820999671,751.6859820999671,up,3.4701265001203865,11,0,0,99,0.24,-0.08,up,3.379106800071895,,,,,750.1198531000409,751.6859820999671,0.4,-0.32,0.0,0.0,-0.32,0.4,0.4,0.4,-0.32,749.5100693998393,749.5100693998393,749.5100693998393,749.5100693998393,749.5100693998393,749.5100693998393,749.5100693998393,749.5100693998393,749.502554079867,0.7196609999518842,return,0.5825186998117715,,,,,,,,,,,,,,,,,,,,,,,,,,,,,,,,,DG5333,train_x,blue_star,bottom_right,2025-08-19_16h51.37.181,HideSeek_v1,2022.2.5,60.137715352645685,
,5,3,2,3,-3,0,31,,train_dim1_1,19,30,,,,2,0,2,0,,,,,,,,,0,0,0,0,0,18,18,18,1,0,1,0,,,,,,,,,,,,,,,,,,,,,,,,,,,,,,,,,,,,,,,,,,,,,,,,,,,,,,,,,,,,,,,,30,,,,,,,,755.1568944000173,755.1568944000173,755.1568944000173,755.1568944000173,755.1568944000173,up,0.275734799914062,11,0,0,99,0.24,0.0,up,0.19961739983409643,,,,,,,,,,,,,,,,,,,,,,,,,,,,,,,,,,,,,,,,,,,,,,,,,,,,,,,,,,,,DG5333,train_x,blue_star,bottom_right,2025-08-19_16h51.37.181,HideSeek_v1,2022.2.5,60.137715352645685,
,5,3,2,3,-3,0,31,,train_dim1_1,19,30,,,,2,0,2,0,,,,,,,,,0,0,0,0,0,18,18,18,2,0,2,0,,,,,,,,,,,,,,,,,,,,,,,,,,,,,,,,,,,,,,,,,,,,,,,,,,,,,,,,,,,,,,,,30,,,,,,,,755.4389455998316,755.4389455998316,755.4389455998316,755.4389455998316,755.4389455998316,up,0.24287059996277094,11,0,0,99,0.24,0.08,up,0.16063779988326132,,,,,,,,,,,,,,,,,,,,,,,,,,,,,,,,,,,,,,,,,,,,,,,,,,,,,,,,,,,,DG5333,train_x,blue_star,bottom_right,2025-08-19_16h51.37.181,HideSeek_v1,2022.2.5,60.137715352645685,
,5,3,2,3,-3,0,31,,train_dim1_1,19,30,,,,2,0,2,0,,,,,,,,,0,0,0,0,0,18,18,18,3,0,3,0,,,,,,,,,,,,,,,,,,,,,,,,,,,,,,,,,,,,,,,,,,,,,,,,,,,,,,,,,,,,,,,,30,,,,,,,,755.6895514000207,755.6895514000207,755.6895514000207,755.6895514000207,755.6895514000207,down,1.5769690000452101,11,0,0,99,0.24,0.0,down,1.4956216998398304,,,,,,,,,,,,,,,,,,,,,,,,,,,,,,,,,,,,,,,,,,,,,,,,,,,,,,,,,,,,DG5333,train_x,blue_star,bottom_right,2025-08-19_16h51.37.181,HideSeek_v1,2022.2.5,60.137715352645685,
,5,3,2,3,-3,0,31,,train_dim1_1,19,30,,,,2,0,2,0,,,,,,,,,0,0,0,0,0,18,18,18,4,0,4,0,,,,,,,,,,,,,,,,,,,,,,,,,,,,,,,,,,,,,,,,,,,,,,,,,,,,,,,,,,,,,,,,30,,,,,,,,757.2750615999103,757.2750615999103,757.2750615999103,757.2750615999103,757.2750615999103,down,0.17521209991537035,11,0,0,99,0.24,-0.08,down,0.0960417001042515,,,,,,,,,,,,,,,,,,,,,,,,,,,,,,,,,,,,,,,,,,,,,,,,,,,,,,,,,,,,DG5333,train_x,blue_star,bottom_right,2025-08-19_16h51.37.181,HideSeek_v1,2022.2.5,60.137715352645685,
,5,3,2,3,-3,0,31,,train_dim1_1,19,30,,,,2,0,2,0,,,,,,,,,0,0,0,0,0,18,18,18,5,0,5,0,,,,,,,,,,,,,,,,,,,,,,,,,,,,,,,,,,,,,,,,,,,,,,,,,,,,,,,,,,,,,,,,30,,,,,,,,757.4563374000136,757.4563374000136,757.4563374000136,757.4563374000136,757.4563374000136,down,0.15961640002205968,11,0,0,99,0.24,-0.16,down,0.07238579983823001,,,,,,,,,,,,,,,,,,,,,,,,,,,,,,,,,,,,,,,,,,,,,,,,,,,,,,,,,,,,DG5333,train_x,blue_star,bottom_right,2025-08-19_16h51.37.181,HideSeek_v1,2022.2.5,60.137715352645685,
,5,3,2,3,-3,0,31,,train_dim1_1,19,30,,,,2,0,2,0,,,,,,,,,0,0,0,0,0,18,18,18,6,0,6,0,,,,,,,,,,,,,,,,,,,,,,,,,,,,,,,,,,,,,,,,,,,,,,,,,,,,,,,,,,,,,,,,30,,,,,,,,757.6233429999556,757.6233429999556,757.6233429999556,757.6233429999556,757.6233429999556,left,0.6932056001387537,11,0,0,99,0.15999999999999998,-0.16,left,0.6079218999948353,,,,,,,,,,,,,,,,,,,,,,,,,,,,,,,,,,,,,,,,,,,,,,,,,,,,,,,,,,,,DG5333,train_x,blue_star,bottom_right,2025-08-19_16h51.37.181,HideSeek_v1,2022.2.5,60.137715352645685,
,5,3,2,3,-3,0,31,,train_dim1_1,19,30,,,,2,0,2,0,,,,,,,,,0,0,0,0,0,18,18,18,7,0,7,0,,,,,,,,,,,,,,,,,,,,,,,,,,,,,,,,,,,,,,,,,,,,,,,,,,,,,,,,,,,,,,,,30,,,,,,,,758.3246585000306,758.3246585000306,758.3246585000306,758.3246585000306,758.3246585000306,left,0.3261599999386817,11,0,0,99,0.07999999999999997,-0.16,left,0.24750529997982085,,,,,,,,,,,,,,,,,,,,,,,,,,,,,,,,,,,,,,,,,,,,,,,,,,,,,,,,,,,,DG5333,train_x,blue_star,bottom_right,2025-08-19_16h51.37.181,HideSeek_v1,2022.2.5,60.137715352645685,
,5,3,2,3,-3,0,31,,train_dim1_1,19,30,,,,2,0,2,0,,,,,,,,,0,0,0,0,0,18,18,18,8,0,8,0,,,,,,,,,,,,,,,,,,,,,,,,,,,,,,,,,,,,,,,,,,,,,,,,,,,,,,,,,,,,,,,,30,,,,,,,,758.657518699998,758.657518699998,758.657518699998,758.657518699998,758.657518699998,left,0.29326880001462996,11,0,0,99,-2.7755575615628914e-17,-0.16,left,0.20536050014197826,,,,,,,,,,,,,,,,,,,,,,,,,,,,,,,,,,,,,,,,,,,,,,,,,,,,,,,,,,,,DG5333,train_x,blue_star,bottom_right,2025-08-19_16h51.37.181,HideSeek_v1,2022.2.5,60.137715352645685,
,5,3,2,3,-3,0,31,,train_dim1_1,19,30,,,,2,0,2,0,,,,,,,,,0,0,0,0,0,18,18,18,9,0,9,0,,,,,,,,,,,,,,,,,,,,,,,,,,,,,,,,,,,,,,,,,,,,,,,,,,,,,,,,,,,,,,,,30,,,,,,,,758.9581249998882,758.9581249998882,758.9581249998882,758.9581249998882,758.9581249998882,return,0.4094999998342246,12,0,0,1,-2.7755575615628914e-17,-0.16,return,0.3367693000473082,10,-39,-2.7755575615628914e-17,-0.16,,,,,,,,,,,,,,,,,,,,,,,,,,,,,,,,,,,,,,,,,,,,,,,,,,,,,,,,DG5333,train_x,blue_star,bottom_right,2025-08-19_16h51.37.181,HideSeek_v1,2022.2.5,60.137715352645685,
,5,1,0,1,-5,0,11,,train_dim1_1,20,30,,,,2,0,2,0,,,,,,,,,0,0,0,0,0,19,19,19,0,0,0,0,,,,,,,,,,,,,,,,,,,,,,,,,stimuli/alien_stimuli/11.png,,,,,,,,,,,,,,,,,,,,,,,,,,,,,stimuli/alien_stimuli/31.png,31,5,21,,,,,,,30,,,,,,,,763.1611134998966,763.1611134998966,763.1611134998966,763.1611134998966,763.1611134998966,up,1.6736999000422657,12,0,0,99,0.24,-0.24,up,1.5654960998799652,,,,,761.57940399996,763.1611134998966,0,-0.16,0.0,0.24,-0.16,0,0.12,0,-0.16,760.9476955998689,760.9476955998689,760.9476955998689,760.9476955998689,760.9476955998689,760.9476955998689,760.9476955998689,760.9476955998689,760.9289797799429,0.7526208001654595,return,0.5997727999929339,,,,,,,,,,,,,,,,,,,,,,,,,,,,,,,,,DG5333,train_x,blue_star,bottom_right,2025-08-19_16h51.37.181,HideSeek_v1,2022.2.5,60.137715352645685,
,5,1,0,1,-5,0,11,,train_dim1_1,20,30,,,,2,0,2,0,,,,,,,,,0,0,0,0,0,19,19,19,1,0,1,0,,,,,,,,,,,,,,,,,,,,,,,,,,,,,,,,,,,,,,,,,,,,,,,,,,,,,,,,,,,,,,,,30,,,,,,,,764.8180406000465,764.8180406000465,764.8180406000465,764.8180406000465,764.8180406000465,up,0.5091731001157314,12,0,0,99,0.24,-0.15999999999999998,up,0.42278539994731545,,,,,,,,,,,,,,,,,,,,,,,,,,,,,,,,,,,,,,,,,,,,,,,,,,,,,,,,,,,,DG5333,train_x,blue_star,bottom_right,2025-08-19_16h51.37.181,HideSeek_v1,2022.2.5,60.137715352645685,
,5,1,0,1,-5,0,11,,train_dim1_1,20,30,,,,2,0,2,0,,,,,,,,,0,0,0,0,0,19,19,19,2,0,2,0,,,,,,,,,,,,,,,,,,,,,,,,,,,,,,,,,,,,,,,,,,,,,,,,,,,,,,,,,,,,,,,,30,,,,,,,,765.3346375999972,765.3346375999972,765.3346375999972,765.3346375999972,765.3346375999972,up,0.4757858000230044,12,0,0,99,0.24,-0.07999999999999997,up,0.39901229995302856,,,,,,,,,,,,,,,,,,,,,,,,,,,,,,,,,,,,,,,,,,,,,,,,,,,,,,,,,,,,DG5333,train_x,blue_star,bottom_right,2025-08-19_16h51.37.181,HideSeek_v1,2022.2.5,60.137715352645685,
,5,1,0,1,-5,0,11,,train_dim1_1,20,30,,,,2,0,2,0,,,,,,,,,0,0,0,0,0,19,19,19,3,0,3,0,,,,,,,,,,,,,,,,,,,,,,,,,,,,,,,,,,,,,,,,,,,,,,,,,,,,,,,,,,,,,,,,30,,,,,,,,765.8191775998566,765.8191775998566,765.8191775998566,765.8191775998566,765.8191775998566,up,0.4761628999840468,12,0,0,99,0.24,2.7755575615628914e-17,up,0.39633100014179945,,,,,,,,,,,,,,,,,,,,,,,,,,,,,,,,,,,,,,,,,,,,,,,,,,,,,,,,,,,,DG5333,train_x,blue_star,bottom_right,2025-08-19_16h51.37.181,HideSeek_v1,2022.2.5,60.137715352645685,
,5,1,0,1,-5,0,11,,train_dim1_1,20,30,,,,2,0,2,0,,,,,,,,,0,0,0,0,0,19,19,19,4,0,4,0,,,,,,,,,,,,,,,,,,,,,,,,,,,,,,,,,,,,,,,,,,,,,,,,,,,,,,,,,,,,,,,,30,,,,,,,,766.3001631000079,766.3001631000079,766.3001631000079,766.3001631000079,766.3001631000079,up,0.4769087000750005,12,0,0,99,0.24,0.08000000000000003,up,0.38467990001663566,,,,,,,,,,,,,,,,,,,,,,,,,,,,,,,,,,,,,,,,,,,,,,,,,,,,,,,,,,,,DG5333,train_x,blue_star,bottom_right,2025-08-19_16h51.37.181,HideSeek_v1,2022.2.5,60.137715352645685,
,5,1,0,1,-5,0,11,,train_dim1_1,20,30,,,,2,0,2,0,,,,,,,,,0,0,0,0,0,19,19,19,5,0,5,0,,,,,,,,,,,,,,,,,,,,,,,,,,,,,,,,,,,,,,,,,,,,,,,,,,,,,,,,,,,,,,,,30,,,,,,,,766.7854969999753,766.7854969999753,766.7854969999753,766.7854969999753,766.7854969999753,return,0.5093816998414695,12,0,0,0,0.24,0.08000000000000003,return,0.41819559992291033,15,-39,0.24,0.08000000000000003,,,,,,,,,,,,,,,,,,,,,,,,,,,,,,,,,,,,,,,,,,,,,,,,,,,,,,,,DG5333,train_x,blue_star,bottom_right,2025-08-19_16h51.37.181,HideSeek_v1,2022.2.5,60.137715352645685,
,9,2,6,2,-3,0,31,,train_dim1_1,21,30,,,,2,0,2,0,,,,,,,,,0,0,0,0,0,20,20,20,0,0,0,0,,,,,,,,,,,,,,,,,,,,,,,,,stimuli/alien_stimuli/31.png,,,,,,,,,,,,,,,,,,,,,,,,,,,,,stimuli/alien_stimuli/11.png,11,5,22,,,,,,,30,,,,,,,,772.1858693999238,772.1858693999238,772.1858693999238,772.1858693999238,772.1858693999238,left,2.813435300020501,12,0,0,99,0.48000000000000004,-0.24,left,2.7061526998877525,,,,,770.6036397998687,772.1858693999238,-0.16,-0.32,0.0,0.4,-0.32,-0.16,0.039999999999999994,-0.16,-0.32,768.8634192999452,768.8634192999452,768.8634192999452,768.8634192999452,768.8634192999452,768.8634192999452,768.8634192999452,768.8634192999452,768.8522263799096,1.8539164001122117,return,1.711293499916792,,,,,,,,,,,,,,,,,,,,,,,,,,,,,,,,,DG5333,train_x,blue_star,bottom_right,2025-08-19_16h51.37.181,HideSeek_v1,2022.2.5,60.137715352645685,
,9,2,6,2,-3,0,31,,train_dim1_1,21,30,,,,2,0,2,0,,,,,,,,,0,0,0,0,0,20,20,20,1,0,1,0,,,,,,,,,,,,,,,,,,,,,,,,,,,,,,,,,,,,,,,,,,,,,,,,,,,,,,,,,,,,,,,,30,,,,,,,,774.990843599895,774.990843599895,774.990843599895,774.990843599895,774.990843599895,left,0.340858600102365,12,0,0,99,0.4,-0.24,left,0.2616851001512259,,,,,,,,,,,,,,,,,,,,,,,,,,,,,,,,,,,,,,,,,,,,,,,,,,,,,,,,,,,,DG5333,train_x,blue_star,bottom_right,2025-08-19_16h51.37.181,HideSeek_v1,2022.2.5,60.137715352645685,
,9,2,6,2,-3,0,31,,train_dim1_1,21,30,,,,2,0,2,0,,,,,,,,,0,0,0,0,0,20,20,20,2,0,2,0,,,,,,,,,,,,,,,,,,,,,,,,,,,,,,,,,,,,,,,,,,,,,,,,,,,,,,,,,,,,,,,,30,,,,,,,,775.3378598999698,775.3378598999698,775.3378598999698,775.3378598999698,775.3378598999698,left,0.3430264999624342,12,0,0,99,0.32,-0.24,left,0.267548699863255,,,,,,,,,,,,,,,,,,,,,,,,,,,,,,,,,,,,,,,,,,,,,,,,,,,,,,,,,,,,DG5333,train_x,blue_star,bottom_right,2025-08-19_16h51.37.181,HideSeek_v1,2022.2.5,60.137715352645685,
,9,2,6,2,-3,0,31,,train_dim1_1,21,30,,,,2,0,2,0,,,,,,,,,0,0,0,0,0,20,20,20,3,0,3,0,,,,,,,,,,,,,,,,,,,,,,,,,,,,,,,,,,,,,,,,,,,,,,,,,,,,,,,,,,,,,,,,30,,,,,,,,775.6884000999853,775.6884000999853,775.6884000999853,775.6884000999853,775.6884000999853,return,0.5598833998665214,13,0,0,1,0.32,-0.24,return,0.472903799964115,15,-42,0.32,-0.24,,,,,,,,,,,,,,,,,,,,,,,,,,,,,,,,,,,,,,,,,,,,,,,,,,,,,,,,DG5333,train_x,blue_star,bottom_right,2025-08-19_16h51.37.181,HideSeek_v1,2022.2.5,60.137715352645685,
,6,0,2,0,-4,0,21,,train_dim1_1,22,30,,,,2,0,2,0,,,,,,,,,0,0,0,0,0,21,21,21,0,0,0,0,,,,,,,,,,,,,,,,,,,,,,,,,stimuli/alien_stimuli/21.png,,,,,,,,,,,,,,,,,,,,,,,,,,,,,stimuli/alien_stimuli/31.png,31,9,23,,,,,,,30,,,,,,,,780.04603759991,780.04603759991,780.04603759991,780.04603759991,780.04603759991,up,2.4898000000976026,13,0,0,99,0.32,-0.32,up,2.382717200089246,,,,,778.4600052998867,780.04603759991,0.32,-0.24,0.0,0.24,-0.24,0.32,0.44000000000000006,0.32,-0.24,777.8132706999313,777.8132706999313,777.8132706999313,777.8132706999313,777.8132706999313,777.8132706999313,777.8132706999313,777.8132706999313,777.7928087399341,0.7530628000386059,return,0.6309667997993529,,,,,,,,,,,,,,,,,,,,,,,,,,,,,,,,,DG5333,train_x,blue_star,bottom_right,2025-08-19_16h51.37.181,HideSeek_v1,2022.2.5,60.137715352645685,
,6,0,2,0,-4,0,21,,train_dim1_1,22,30,,,,2,0,2,0,,,,,,,,,0,0,0,0,0,21,21,21,1,0,1,0,,,,,,,,,,,,,,,,,,,,,,,,,,,,,,,,,,,,,,,,,,,,,,,,,,,,,,,,,,,,,,,,30,,,,,,,,782.5158935999498,782.5158935999498,782.5158935999498,782.5158935999498,782.5158935999498,up,0.29228900000452995,13,0,0,99,0.32,-0.24,up,0.20371500006876886,,,,,,,,,,,,,,,,,,,,,,,,,,,,,,,,,,,,,,,,,,,,,,,,,,,,,,,,,,,,DG5333,train_x,blue_star,bottom_right,2025-08-19_16h51.37.181,HideSeek_v1,2022.2.5,60.137715352645685,
,6,0,2,0,-4,0,21,,train_dim1_1,22,30,,,,2,0,2,0,,,,,,,,,0,0,0,0,0,21,21,21,2,0,2,0,,,,,,,,,,,,,,,,,,,,,,,,,,,,,,,,,,,,,,,,,,,,,,,,,,,,,,,,,,,,,,,,30,,,,,,,,782.8148278000299,782.8148278000299,782.8148278000299,782.8148278000299,782.8148278000299,up,0.29303790000267327,13,0,0,99,0.32,-0.15999999999999998,up,0.207010000012815,,,,,,,,,,,,,,,,,,,,,,,,,,,,,,,,,,,,,,,,,,,,,,,,,,,,,,,,,,,,DG5333,train_x,blue_star,bottom_right,2025-08-19_16h51.37.181,HideSeek_v1,2022.2.5,60.137715352645685,
,6,0,2,0,-4,0,21,,train_dim1_1,22,30,,,,2,0,2,0,,,,,,,,,0,0,0,0,0,21,21,21,3,0,3,0,,,,,,,,,,,,,,,,,,,,,,,,,,,,,,,,,,,,,,,,,,,,,,,,,,,,,,,,,,,,,,,,30,,,,,,,,783.1152898999862,783.1152898999862,783.1152898999862,783.1152898999862,783.1152898999862,up,0.2593207999598235,13,0,0,99,0.32,-0.07999999999999997,up,0.18227320001460612,,,,,,,,,,,,,,,,,,,,,,,,,,,,,,,,,,,,,,,,,,,,,,,,,,,,,,,,,,,,DG5333,train_x,blue_star,bottom_right,2025-08-19_16h51.37.181,HideSeek_v1,2022.2.5,60.137715352645685,
,6,0,2,0,-4,0,21,,train_dim1_1,22,30,,,,2,0,2,0,,,,,,,,,0,0,0,0,0,21,21,21,4,0,4,0,,,,,,,,,,,,,,,,,,,,,,,,,,,,,,,,,,,,,,,,,,,,,,,,,,,,,,,,,,,,,,,,30,,,,,,,,783.3821220998652,783.3821220998652,783.3821220998652,783.3821220998652,783.3821220998652,return,0.4263167001772672,13,0,0,0,0.32,-0.07999999999999997,return,0.3395054000429809,19,-42,0.32,-0.07999999999999997,,,,,,,,,,,,,,,,,,,,,,,,,,,,,,,,,,,,,,,,,,,,,,,,,,,,,,,,DG5333,train_x,blue_star,bottom_right,2025-08-19_16h51.37.181,HideSeek_v1,2022.2.5,60.137715352645685,
,7,1,7,1,0,0,61,,train_dim1_1,23,30,,,,2,0,2,0,,,,,,,,,0,0,0,0,0,22,22,22,0,0,0,0,,,,,,,,,,,,,,,,,,,,,,,,,stimuli/alien_stimuli/61.png,,,,,,,,,,,,,,,,,,,,,,,,,,,,,stimuli/alien_stimuli/21.png,21,6,24,,,,,,,30,,,,,,,,788.2267249999568,788.2267249999568,788.2267249999568,788.2267249999568,788.2267249999568,return,1.5192346000112593,14,0,0,1,0.4,-0.32,return,1.4224577001295984,19,-42,0.4,-0.32,786.6500981999561,788.2267249999568,0,-0.4,0.0,0.32,-0.4,0,0.16,0,-0.4,785.3850686999504,785.3850686999504,785.3850686999504,785.3850686999504,785.3850686999504,785.3850686999504,785.3850686999504,785.3850686999504,785.3664550798712,1.3853153001982719,return,1.2385555000510067,,,,,,,,,,,,,,,,,,,,,,,,,,,,,,,,,DG5333,train_x,blue_star,bottom_right,2025-08-19_16h51.37.181,HideSeek_v1,2022.2.5,60.137715352645685,
,9,4,8,4,-1,0,51,,train_dim1_1,24,30,,,,2,0,2,0,,,,,,,,,0,0,0,0,0,23,23,23,0,0,0,0,,,,,,,,,,,,,,,,,,,,,,,,,stimuli/alien_stimuli/51.png,,,,,,,,,,,,,,,,,,,,,,,,,,,,,stimuli/alien_stimuli/61.png,61,7,25,,,,,,,30,,,,,,,,793.1407469999976,793.1407469999976,793.1407469999976,793.1407469999976,793.1407469999976,left,2.1160993999801576,14,0,0,99,0.48000000000000004,-0.08,left,2.0201878999359906,,,,,791.5708550999407,793.1407469999976,0.4,-0.32,0.0,0.0,-0.32,0.4,0.4,0.4,-0.32,791.290466299979,791.290466299979,791.290466299979,791.290466299979,791.290466299979,791.290466299979,791.290466299979,791.290466299979,791.2708542400505,0.3859590000938624,return,0.26369170006364584,,,,,,,,,,,,,,,,,,,,,,,,,,,,,,,,,DG5333,train_x,blue_star,bottom_right,2025-08-19_16h51.37.181,HideSeek_v1,2022.2.5,60.137715352645685,
,9,4,8,4,-1,0,51,,train_dim1_1,24,30,,,,2,0,2,0,,,,,,,,,0,0,0,0,0,23,23,23,1,0,1,0,,,,,,,,,,,,,,,,,,,,,,,,,,,,,,,,,,,,,,,,,,,,,,,,,,,,,,,,,,,,,,,,30,,,,,,,,795.2575564999133,795.2575564999133,795.2575564999133,795.2575564999133,795.2575564999133,return,0.2760030999779701,15,0,0,1,0.48000000000000004,-0.08,return,0.18986680009402335,19,-43,0.48000000000000004,-0.08,,,,,,,,,,,,,,,,,,,,,,,,,,,,,,,,,,,,,,,,,,,,,,,,,,,,,,,,DG5333,train_x,blue_star,bottom_right,2025-08-19_16h51.37.181,HideSeek_v1,2022.2.5,60.137715352645685,
,8,0,3,0,-5,0,11,,train_dim1_1,25,30,,,,2,0,2,0,,,,,,,,,0,0,0,0,0,24,24,24,0,0,0,0,,,,,,,,,,,,,,,,,,,,,,,,,stimuli/alien_stimuli/11.png,,,,,,,,,,,,,,,,,,,,,,,,,,,,,stimuli/alien_stimuli/51.png,51,9,26,,,,,,,30,,,,,,,,799.3922696998343,799.3922696998343,799.3922696998343,799.3922696998343,799.3922696998343,left,1.887350499862805,15,0,0,99,0.39999999999999997,-0.4,left,1.8028789998497814,,,,,797.8261466999538,799.3922696998343,0.48,-0.08,0.0,0.08,-0.08,0.48,0.52,0.48,-0.08,797.1062031998299,797.1062031998299,797.1062031998299,797.1062031998299,797.1062031998299,797.1062031998299,797.1062031998299,797.1062031998299,797.0921879800735,0.8360967000480741,return,0.694831799948588,,,,,,,,,,,,,,,,,,,,,,,,,,,,,,,,,DG5333,train_x,blue_star,bottom_right,2025-08-19_16h51.37.181,HideSeek_v1,2022.2.5,60.137715352645685,
,8,0,3,0,-5,0,11,,train_dim1_1,25,30,,,,2,0,2,0,,,,,,,,,0,0,0,0,0,24,24,24,1,0,1,0,,,,,,,,,,,,,,,,,,,,,,,,,,,,,,,,,,,,,,,,,,,,,,,,,,,,,,,,,,,,,,,,30,,,,,,,,801.280330499867,801.280330499867,801.280330499867,801.280330499867,801.280330499867,left,0.30941470013931394,15,0,0,99,0.31999999999999995,-0.4,left,0.22999450005590916,,,,,,,,,,,,,,,,,,,,,,,,,,,,,,,,,,,,,,,,,,,,,,,,,,,,,,,,,,,,DG5333,train_x,blue_star,bottom_right,2025-08-19_16h51.37.181,HideSeek_v1,2022.2.5,60.137715352645685,
,8,0,3,0,-5,0,11,,train_dim1_1,25,30,,,,2,0,2,0,,,,,,,,,0,0,0,0,0,24,24,24,2,0,2,0,,,,,,,,,,,,,,,,,,,,,,,,,,,,,,,,,,,,,,,,,,,,,,,,,,,,,,,,,,,,,,,,30,,,,,,,,801.5977552998811,801.5977552998811,801.5977552998811,801.5977552998811,801.5977552998811,left,0.3758529999759048,15,0,0,99,0.23999999999999994,-0.4,left,0.28628910006955266,,,,,,,,,,,,,,,,,,,,,,,,,,,,,,,,,,,,,,,,,,,,,,,,,,,,,,,,,,,,DG5333,train_x,blue_star,bottom_right,2025-08-19_16h51.37.181,HideSeek_v1,2022.2.5,60.137715352645685,
,8,0,3,0,-5,0,11,,train_dim1_1,25,30,,,,2,0,2,0,,,,,,,,,0,0,0,0,0,24,24,24,3,0,3,0,,,,,,,,,,,,,,,,,,,,,,,,,,,,,,,,,,,,,,,,,,,,,,,,,,,,,,,,,,,,,,,,30,,,,,,,,801.980487999972,801.980487999972,801.980487999972,801.980487999972,801.980487999972,left,0.3597191998269409,15,0,0,99,0.15999999999999992,-0.4,left,0.27309209993109107,,,,,,,,,,,,,,,,,,,,,,,,,,,,,,,,,,,,,,,,,,,,,,,,,,,,,,,,,,,,DG5333,train_x,blue_star,bottom_right,2025-08-19_16h51.37.181,HideSeek_v1,2022.2.5,60.137715352645685,
,8,0,3,0,-5,0,11,,train_dim1_1,25,30,,,,2,0,2,0,,,,,,,,,0,0,0,0,0,24,24,24,4,0,4,0,,,,,,,,,,,,,,,,,,,,,,,,,,,,,,,,,,,,,,,,,,,,,,,,,,,,,,,,,,,,,,,,30,,,,,,,,802.3475652998313,802.3475652998313,802.3475652998313,802.3475652998313,802.3475652998313,left,0.5265556999947876,15,0,0,99,0.07999999999999992,-0.4,left,0.443145299796015,,,,,,,,,,,,,,,,,,,,,,,,,,,,,,,,,,,,,,,,,,,,,,,,,,,,,,,,,,,,DG5333,train_x,blue_star,bottom_right,2025-08-19_16h51.37.181,HideSeek_v1,2022.2.5,60.137715352645685,
,8,0,3,0,-5,0,11,,train_dim1_1,25,30,,,,2,0,2,0,,,,,,,,,0,0,0,0,0,24,24,24,5,0,5,0,,,,,,,,,,,,,,,,,,,,,,,,,,,,,,,,,,,,,,,,,,,,,,,,,,,,,,,,,,,,,,,,30,,,,,,,,802.8849954998586,802.8849954998586,802.8849954998586,802.8849954998586,802.8849954998586,return,0.4080495999660343,16,0,0,1,0.07999999999999992,-0.4,return,0.32391589996404946,19,-48,0.07999999999999992,-0.4,,,,,,,,,,,,,,,,,,,,,,,,,,,,,,,,,,,,,,,,,,,,,,,,,,,,,,,,DG5333,train_x,blue_star,bottom_right,2025-08-19_16h51.37.181,HideSeek_v1,2022.2.5,60.137715352645685,
,6,1,6,1,0,0,61,,train_dim1_1,26,30,,,,2,0,2,0,,,,,,,,,0,0,0,0,0,25,25,25,0,0,0,0,,,,,,,,,,,,,,,,,,,,,,,,,stimuli/alien_stimuli/61.png,,,,,,,,,,,,,,,,,,,,,,,,,,,,,stimuli/alien_stimuli/11.png,11,8,27,,,,,,,30,,,,,,,,807.1154906000011,807.1154906000011,807.1154906000011,807.1154906000011,807.1154906000011,return,1.003432400058955,17,0,0,1,0.32,-0.32,return,0.895189099945128,19,-48,0.32,-0.32,805.5327110998333,807.1154906000011,0.08,-0.4,0.0,0.4,-0.4,0.08,0.27999999999999997,0.08,-0.4,804.8644462998491,804.8644462998491,804.8644462998491,804.8644462998491,804.8644462998491,804.8644462998491,804.8644462998491,804.8644462998491,804.8487256799126,0.7860782998614013,return,0.6394382999278605,,,,,,,,,,,,,,,,,,,,,,,,,,,,,,,,,DG5333,train_x,blue_star,bottom_right,2025-08-19_16h51.37.181,HideSeek_v1,2022.2.5,60.137715352645685,
,5,1,2,1,-3,0,31,,train_dim1_1,27,30,,,,2,0,2,0,,,,,,,,,0,0,0,0,0,26,26,26,0,0,0,0,,,,,,,,,,,,,,,,,,,,,,,,,stimuli/alien_stimuli/31.png,,,,,,,,,,,,,,,,,,,,,,,,,,,,,stimuli/alien_stimuli/61.png,61,6,28,,,,,,,30,,,,,,,,811.7339289998636,811.7339289998636,811.7339289998636,811.7339289998636,811.7339289998636,left,2.15303140017204,17,0,0,99,0.15999999999999998,-0.32,left,2.060092000057921,,,,,810.1695021998603,811.7339289998636,0.32,-0.32,0.0,0.0,-0.32,0.32,0.32,0.32,-0.32,809.6561505000573,809.6561505000573,809.6561505000573,809.6561505000573,809.6561505000573,809.6561505000573,809.6561505000573,809.6561505000573,809.6363338399678,0.6189709999598563,return,0.48628020007163286,,,,,,,,,,,,,,,,,,,,,,,,,,,,,,,,,DG5333,train_x,blue_star,bottom_right,2025-08-19_16h51.37.181,HideSeek_v1,2022.2.5,60.137715352645685,
,5,1,2,1,-3,0,31,,train_dim1_1,27,30,,,,2,0,2,0,,,,,,,,,0,0,0,0,0,26,26,26,1,0,1,0,,,,,,,,,,,,,,,,,,,,,,,,,,,,,,,,,,,,,,,,,,,,,,,,,,,,,,,,,,,,,,,,30,,,,,,,,813.8884848000016,813.8884848000016,813.8884848000016,813.8884848000016,813.8884848000016,left,0.2918136001098901,17,0,0,99,0.07999999999999997,-0.32,left,0.21726839989423752,,,,,,,,,,,,,,,,,,,,,,,,,,,,,,,,,,,,,,,,,,,,,,,,,,,,,,,,,,,,DG5333,train_x,blue_star,bottom_right,2025-08-19_16h51.37.181,HideSeek_v1,2022.2.5,60.137715352645685,
,5,1,2,1,-3,0,31,,train_dim1_1,27,30,,,,2,0,2,0,,,,,,,,,0,0,0,0,0,26,26,26,2,0,2,0,,,,,,,,,,,,,,,,,,,,,,,,,,,,,,,,,,,,,,,,,,,,,,,,,,,,,,,,,,,,,,,,30,,,,,,,,814.1868402999826,814.1868402999826,814.1868402999826,814.1868402999826,814.1868402999826,left,0.2766533000394702,17,0,0,99,-2.7755575615628914e-17,-0.32,left,0.19766369997523725,,,,,,,,,,,,,,,,,,,,,,,,,,,,,,,,,,,,,,,,,,,,,,,,,,,,,,,,,,,,DG5333,train_x,blue_star,bottom_right,2025-08-19_16h51.37.181,HideSeek_v1,2022.2.5,60.137715352645685,
,5,1,2,1,-3,0,31,,train_dim1_1,27,30,,,,2,0,2,0,,,,,,,,,0,0,0,0,0,26,26,26,3,0,3,0,,,,,,,,,,,,,,,,,,,,,,,,,,,,,,,,,,,,,,,,,,,,,,,,,,,,,,,,,,,,,,,,30,,,,,,,,814.4713703999296,814.4713703999296,814.4713703999296,814.4713703999296,814.4713703999296,right,0.6429650001227856,17,0,0,99,0.07999999999999997,-0.32,right,0.5703412999864668,,,,,,,,,,,,,,,,,,,,,,,,,,,,,,,,,,,,,,,,,,,,,,,,,,,,,,,,,,,,DG5333,train_x,blue_star,bottom_right,2025-08-19_16h51.37.181,HideSeek_v1,2022.2.5,60.137715352645685,
,5,1,2,1,-3,0,31,,train_dim1_1,27,30,,,,2,0,2,0,,,,,,,,,0,0,0,0,0,26,26,26,4,0,4,0,,,,,,,,,,,,,,,,,,,,,,,,,,,,,,,,,,,,,,,,,,,,,,,,,,,,,,,,,,,,,,,,30,,,,,,,,815.1257992999163,815.1257992999163,815.1257992999163,815.1257992999163,815.1257992999163,right,0.28997180005535483,17,0,0,99,0.15999999999999998,-0.32,right,0.21568110003136098,,,,,,,,,,,,,,,,,,,,,,,,,,,,,,,,,,,,,,,,,,,,,,,,,,,,,,,,,,,,DG5333,train_x,blue_star,bottom_right,2025-08-19_16h51.37.181,HideSeek_v1,2022.2.5,60.137715352645685,
,5,1,2,1,-3,0,31,,train_dim1_1,27,30,,,,2,0,2,0,,,,,,,,,0,0,0,0,0,26,26,26,5,0,5,0,,,,,,,,,,,,,,,,,,,,,,,,,,,,,,,,,,,,,,,,,,,,,,,,,,,,,,,,,,,,,,,,30,,,,,,,,815.4213980999775,815.4213980999775,815.4213980999775,815.4213980999775,815.4213980999775,right,0.3092280998826027,17,0,0,99,0.24,-0.32,right,0.23140930011868477,,,,,,,,,,,,,,,,,,,,,,,,,,,,,,,,,,,,,,,,,,,,,,,,,,,,,,,,,,,,DG5333,train_x,blue_star,bottom_right,2025-08-19_16h51.37.181,HideSeek_v1,2022.2.5,60.137715352645685,
,5,1,2,1,-3,0,31,,train_dim1_1,27,30,,,,2,0,2,0,,,,,,,,,0,0,0,0,0,26,26,26,6,0,6,0,,,,,,,,,,,,,,,,,,,,,,,,,,,,,,,,,,,,,,,,,,,,,,,,,,,,,,,,,,,,,,,,30,,,,,,,,815.7381998999044,815.7381998999044,815.7381998999044,815.7381998999044,815.7381998999044,right,0.4766220999881625,17,0,0,99,0.32,-0.32,right,0.3990251999348402,,,,,,,,,,,,,,,,,,,,,,,,,,,,,,,,,,,,,,,,,,,,,,,,,,,,,,,,,,,,DG5333,train_x,blue_star,bottom_right,2025-08-19_16h51.37.181,HideSeek_v1,2022.2.5,60.137715352645685,
,5,1,2,1,-3,0,31,,train_dim1_1,27,30,,,,2,0,2,0,,,,,,,,,0,0,0,0,0,26,26,26,7,0,7,0,,,,,,,,,,,,,,,,,,,,,,,,,,,,,,,,,,,,,,,,,,,,,,,,,,,,,,,,,,,,,,,,30,,,,,,,,816.2217816999182,816.2217816999182,816.2217816999182,816.2217816999182,816.2217816999182,right,0.32644139998592436,17,0,0,99,0.4,-0.32,right,0.24302410008385777,,,,,,,,,,,,,,,,,,,,,,,,,,,,,,,,,,,,,,,,,,,,,,,,,,,,,,,,,,,,DG5333,train_x,blue_star,bottom_right,2025-08-19_16h51.37.181,HideSeek_v1,2022.2.5,60.137715352645685,
,5,1,2,1,-3,0,31,,train_dim1_1,27,30,,,,2,0,2,0,,,,,,,,,0,0,0,0,0,26,26,26,8,0,8,0,,,,,,,,,,,,,,,,,,,,,,,,,,,,,,,,,,,,,,,,,,,,,,,,,,,,,,,,,,,,,,,,30,,,,,,,,816.555879099993,816.555879099993,816.555879099993,816.555879099993,816.555879099993,right,0.3093592000659555,17,0,0,99,0.48000000000000004,-0.32,right,0.22851689998060465,,,,,,,,,,,,,,,,,,,,,,,,,,,,,,,,,,,,,,,,,,,,,,,,,,,,,,,,,,,,DG5333,train_x,blue_star,bottom_right,2025-08-19_16h51.37.181,HideSeek_v1,2022.2.5,60.137715352645685,
,5,1,2,1,-3,0,31,,train_dim1_1,27,30,,,,2,0,2,0,,,,,,,,,0,0,0,0,0,26,26,26,9,0,9,0,,,,,,,,,,,,,,,,,,,,,,,,,,,,,,,,,,,,,,,,,,,,,,,,,,,,,,,,,,,,,,,,30,,,,,,,,816.8839066999499,816.8839066999499,816.8839066999499,816.8839066999499,816.8839066999499,left,0.7101300000213087,17,0,0,99,0.4,-0.32,left,0.6251527999993414,,,,,,,,,,,,,,,,,,,,,,,,,,,,,,,,,,,,,,,,,,,,,,,,,,,,,,,,,,,,DG5333,train_x,blue_star,bottom_right,2025-08-19_16h51.37.181,HideSeek_v1,2022.2.5,60.137715352645685,
,5,1,2,1,-3,0,31,,train_dim1_1,27,30,,,,2,0,2,0,,,,,,,,,0,0,0,0,0,26,26,26,10,0,10,0,,,,,,,,,,,,,,,,,,,,,,,,,,,,,,,,,,,,,,,,,,,,,,,,,,,,,,,,,,,,,,,,30,,,,,,,,817.5896772998385,817.5896772998385,817.5896772998385,817.5896772998385,817.5896772998385,left,0.2594020999968052,17,0,0,99,0.32,-0.32,left,0.17147859977558255,,,,,,,,,,,,,,,,,,,,,,,,,,,,,,,,,,,,,,,,,,,,,,,,,,,,,,,,,,,,DG5333,train_x,blue_star,bottom_right,2025-08-19_16h51.37.181,HideSeek_v1,2022.2.5,60.137715352645685,
,5,1,2,1,-3,0,31,,train_dim1_1,27,30,,,,2,0,2,0,,,,,,,,,0,0,0,0,0,26,26,26,11,0,11,0,,,,,,,,,,,,,,,,,,,,,,,,,,,,,,,,,,,,,,,,,,,,,,,,,,,,,,,,,,,,,,,,30,,,,,,,,817.856813200051,817.856813200051,817.856813200051,817.856813200051,817.856813200051,left,0.22627210011705756,17,0,0,99,0.24,-0.32,left,0.14164189994335175,,,,,,,,,,,,,,,,,,,,,,,,,,,,,,,,,,,,,,,,,,,,,,,,,,,,,,,,,,,,DG5333,train_x,blue_star,bottom_right,2025-08-19_16h51.37.181,HideSeek_v1,2022.2.5,60.137715352645685,
,5,1,2,1,-3,0,31,,train_dim1_1,27,30,,,,2,0,2,0,,,,,,,,,0,0,0,0,0,26,26,26,12,0,12,0,,,,,,,,,,,,,,,,,,,,,,,,,,,,,,,,,,,,,,,,,,,,,,,,,,,,,,,,,,,,,,,,30,,,,,,,,818.090520599857,818.090520599857,818.090520599857,818.090520599857,818.090520599857,left,1.627248700009659,17,0,0,99,0.15999999999999998,-0.32,left,1.550099599873647,,,,,,,,,,,,,,,,,,,,,,,,,,,,,,,,,,,,,,,,,,,,,,,,,,,,,,,,,,,,DG5333,train_x,blue_star,bottom_right,2025-08-19_16h51.37.181,HideSeek_v1,2022.2.5,60.137715352645685,
,5,1,2,1,-3,0,31,,train_dim1_1,27,30,,,,2,0,2,0,,,,,,,,,0,0,0,0,0,26,26,26,13,0,13,0,,,,,,,,,,,,,,,,,,,,,,,,,,,,,,,,,,,,,,,,,,,,,,,,,,,,,,,,,,,,,,,,30,,,,,,,,819.726394199999,819.726394199999,819.726394199999,819.726394199999,819.726394199999,left,0.1918645000550896,17,0,0,99,0.07999999999999997,-0.32,left,0.11297260015271604,,,,,,,,,,,,,,,,,,,,,,,,,,,,,,,,,,,,,,,,,,,,,,,,,,,,,,,,,,,,DG5333,train_x,blue_star,bottom_right,2025-08-19_16h51.37.181,HideSeek_v1,2022.2.5,60.137715352645685,
,5,1,2,1,-3,0,31,,train_dim1_1,27,30,,,,2,0,2,0,,,,,,,,,0,0,0,0,0,26,26,26,14,0,14,0,,,,,,,,,,,,,,,,,,,,,,,,,,,,,,,,,,,,,,,,,,,,,,,,,,,,,,,,,,,,,,,,30,,,,,,,,819.929255799856,819.929255799856,819.929255799856,819.929255799856,819.929255799856,left,0.15636969986371696,17,0,0,99,-2.7755575615628914e-17,-0.32,left,0.07921890006400645,,,,,,,,,,,,,,,,,,,,,,,,,,,,,,,,,,,,,,,,,,,,,,,,,,,,,,,,,,,,DG5333,train_x,blue_star,bottom_right,2025-08-19_16h51.37.181,HideSeek_v1,2022.2.5,60.137715352645685,
,5,1,2,1,-3,0,31,,train_dim1_1,27,30,,,,2,0,2,0,,,,,,,,,0,0,0,0,0,26,26,26,15,0,15,0,,,,,,,,,,,,,,,,,,,,,,,,,,,,,,,,,,,,,,,,,,,,,,,,,,,,,,,,,,,,,,,,30,,,,,,,,820.0921209000517,820.0921209000517,820.0921209000517,820.0921209000517,820.0921209000517,return,0.49305419996380806,18,0,0,1,-2.7755575615628914e-17,-0.32,return,0.4147918000817299,19,-51,-2.7755575615628914e-17,-0.32,,,,,,,,,,,,,,,,,,,,,,,,,,,,,,,,,,,,,,,,,,,,,,,,,,,,,,,,DG5333,train_x,blue_star,bottom_right,2025-08-19_16h51.37.181,HideSeek_v1,2022.2.5,60.137715352645685,
,8,1,4,1,-4,0,21,,train_dim1_1,28,30,,,,2,0,2,0,,,,,,,,,0,0,0,0,0,27,27,27,0,0,0,0,,,,,,,,,,,,,,,,,,,,,,,,,stimuli/alien_stimuli/21.png,,,,,,,,,,,,,,,,,,,,,,,,,,,,,stimuli/alien_stimuli/31.png,31,5,29,,,,,,,30,,,,,,,,824.3635568998288,824.3635568998288,824.3635568998288,824.3635568998288,824.3635568998288,left,1.60309370001778,18,0,0,99,0.39999999999999997,-0.32,left,1.4879671998787671,,,,,822.7802670998499,824.3635568998288,0,-0.32,0.0,0.24,-0.32,0,0.12,0,-0.32,822.1554250998888,822.1554250998888,822.1554250998888,822.1554250998888,822.1554250998888,822.1554250998888,822.1554250998888,822.1554250998888,822.146514980006,0.7359872001688927,return,0.6064151001628488,,,,,,,,,,,,,,,,,,,,,,,,,,,,,,,,,DG5333,train_x,blue_star,bottom_right,2025-08-19_16h51.37.181,HideSeek_v1,2022.2.5,60.137715352645685,
,8,1,4,1,-4,0,21,,train_dim1_1,28,30,,,,2,0,2,0,,,,,,,,,0,0,0,0,0,27,27,27,1,0,1,0,,,,,,,,,,,,,,,,,,,,,,,,,,,,,,,,,,,,,,,,,,,,,,,,,,,,,,,,,,,,,,,,30,,,,,,,,825.9527682999615,825.9527682999615,825.9527682999615,825.9527682999615,825.9527682999615,left,0.2910444000735879,18,0,0,99,0.31999999999999995,-0.32,left,0.2079147999174893,,,,,,,,,,,,,,,,,,,,,,,,,,,,,,,,,,,,,,,,,,,,,,,,,,,,,,,,,,,,DG5333,train_x,blue_star,bottom_right,2025-08-19_16h51.37.181,HideSeek_v1,2022.2.5,60.137715352645685,
,8,1,4,1,-4,0,21,,train_dim1_1,28,30,,,,2,0,2,0,,,,,,,,,0,0,0,0,0,27,27,27,2,0,2,0,,,,,,,,,,,,,,,,,,,,,,,,,,,,,,,,,,,,,,,,,,,,,,,,,,,,,,,,,,,,,,,,30,,,,,,,,826.2518345999997,826.2518345999997,826.2518345999997,826.2518345999997,826.2518345999997,left,1.0101737999357283,18,0,0,99,0.23999999999999994,-0.32,left,0.923840600065887,,,,,,,,,,,,,,,,,,,,,,,,,,,,,,,,,,,,,,,,,,,,,,,,,,,,,,,,,,,,DG5333,train_x,blue_star,bottom_right,2025-08-19_16h51.37.181,HideSeek_v1,2022.2.5,60.137715352645685,
,8,1,4,1,-4,0,21,,train_dim1_1,28,30,,,,2,0,2,0,,,,,,,,,0,0,0,0,0,27,27,27,3,0,3,0,,,,,,,,,,,,,,,,,,,,,,,,,,,,,,,,,,,,,,,,,,,,,,,,,,,,,,,,,,,,,,,,30,,,,,,,,827.2688893999439,827.2688893999439,827.2688893999439,827.2688893999439,827.2688893999439,left,0.25938840000890195,18,0,0,99,0.15999999999999992,-0.32,left,0.17138290009461343,,,,,,,,,,,,,,,,,,,,,,,,,,,,,,,,,,,,,,,,,,,,,,,,,,,,,,,,,,,,DG5333,train_x,blue_star,bottom_right,2025-08-19_16h51.37.181,HideSeek_v1,2022.2.5,60.137715352645685,
,8,1,4,1,-4,0,21,,train_dim1_1,28,30,,,,2,0,2,0,,,,,,,,,0,0,0,0,0,27,27,27,4,0,4,0,,,,,,,,,,,,,,,,,,,,,,,,,,,,,,,,,,,,,,,,,,,,,,,,,,,,,,,,,,,,,,,,30,,,,,,,,827.5360774998553,827.5360774998553,827.5360774998553,827.5360774998553,827.5360774998553,return,1.6274084001779556,19,0,0,1,0.15999999999999992,-0.32,return,1.5340701001696289,19,-55,0.15999999999999992,-0.32,,,,,,,,,,,,,,,,,,,,,,,,,,,,,,,,,,,,,,,,,,,,,,,,,,,,,,,,DG5333,train_x,blue_star,bottom_right,2025-08-19_16h51.37.181,HideSeek_v1,2022.2.5,60.137715352645685,
,9,0,8,0,-1,0,51,,train_dim1_1,29,30,,,,2,0,2,0,,,,,,,,,0,0,0,0,0,28,28,28,0,0,0,0,,,,,,,,,,,,,,,,,,,,,,,,,stimuli/alien_stimuli/51.png,,,,,,,,,,,,,,,,,,,,,,,,,,,,,stimuli/alien_stimuli/21.png,21,8,30,,,,,,,30,,,,,,,,832.9609062999953,832.9609062999953,832.9609062999953,832.9609062999953,832.9609062999953,left,2.521114500006661,19,0,0,99,0.48000000000000004,-0.4,left,2.404762600082904,,,,,831.3565447998699,830.7371443000156,0.16,-0.32,0.0,0.32,-0.32,0.16,0.32,0.16,-0.32,830.7371443000156,830.7371443000156,830.7371443000156,830.7371443000156,830.7371443000156,830.7371443000156,830.7371443000156,830.7371443000156,830.7202059800038,0.7400029001291841,return,0.6012343000620604,,,,,,,,,,,,,,,,,,,,,,,,,,,,,,,,,DG5333,train_x,blue_star,bottom_right,2025-08-19_16h51.37.181,HideSeek_v1,2022.2.5,60.137715352645685,
,9,0,8,0,-1,0,51,,train_dim1_1,29,30,,,,2,0,2,0,,,,,,,,,0,0,0,0,0,28,28,28,1,0,1,0,,,,,,,,,,,,,,,,,,,,,,,,,,,,,,,,,,,,,,,,,,,,,,,,,,,,,,,,,,,,,,,,30,,,,,,,,835.4588319000322,835.4588319000322,835.4588319000322,835.4588319000322,835.4588319000322,return,0.3755463999696076,20,0,0,1,0.48000000000000004,-0.4,return,0.2989111999049783,19,-56,0.48000000000000004,-0.4,,,,,,,,,,,,,,,,,,,,,,,,,,,,,,,,,,,,,,,,,,,,,,,,,,,,,,,,DG5333,train_x,blue_star,bottom_right,2025-08-19_16h51.37.181,HideSeek_v1,2022.2.5,60.137715352645685,
,7,2,2,2,-5,0,11,,train_dim1_1,30,30,,,,2,0,2,0,,,,,,,,,0,0,0,0,0,29,29,29,0,0,0,0,,,,,,,,,,,,,,,,,,,,,,,,,stimuli/alien_stimuli/11.png,,,,,,,,,,,,,,,,,,,,,,,,,,,,,stimuli/alien_stimuli/51.png,51,9,31,,,,,,,30,,,,,,,,839.6941767998505,839.6941767998505,839.6941767998505,839.6941767998505,839.6941767998505,left,1.8859312999993563,20,0,0,99,0.32,-0.24,left,1.789894999936223,,,,,838.1265702999663,839.6941767998505,0.48,-0.4,0.0,0.08,-0.4,0.48,0.52,0.48,-0.4,837.4034094999079,837.4034094999079,837.4034094999079,837.4034094999079,837.4034094999079,837.4034094999079,837.4034094999079,837.4034094999079,837.3922861799365,0.8361531998962164,return,0.693080399883911,,,,,,,,,,,,,,,,,,,,,,,,,,,,,,,,,DG5333,train_x,blue_star,bottom_right,2025-08-19_16h51.37.181,HideSeek_v1,2022.2.5,60.137715352645685,
