trialInstr,x_fixStart,y_fixStart,x_corrSteps,y_corrSteps,x_nrSteps,y_nrSteps,alienID,trialLength,version,trialTrain,praclen,testlen,trial_label,break_on_off,beforeExpLoop.thisRepN,beforeExpLoop.thisTrialN,beforeExpLoop.thisN,beforeExpLoop.thisIndex,mini_instr_trials.thisRepN,mini_instr_trials.thisTrialN,mini_instr_trials.thisN,mini_instr_trials.thisIndex,instrLoop.thisRepN,instrLoop.thisTrialN,instrLoop.thisN,instrLoop.thisIndex,repeat_prac.thisRepN,repeat_prac.thisTrialN,repeat_prac.thisN,repeat_prac.thisIndex,trainLoop.thisRepN,trainLoop.thisTrialN,trainLoop.thisN,trainLoop.thisIndex,moveLoop_train.thisRepN,moveLoop_train.thisTrialN,moveLoop_train.thisN,moveLoop_train.thisIndex,experiment.thisRepN,experiment.thisTrialN,experiment.thisN,experiment.thisIndex,moveLoop_test.thisRepN,moveLoop_test.thisTrialN,moveLoop_test.thisN,moveLoop_test.thisIndex,mini_instr2_trials.thisRepN,mini_instr2_trials.thisTrialN,mini_instr2_trials.thisN,mini_instr2_trials.thisIndex,start_all_time,url,slideStim,audioStim,slides.started,sounds.started,nextButton.numClicks,nextButton.timesOn,nextButton.timesOff,prev_but.numClicks,prev_but.timesOn,prev_but.timesOff,alienStim,instrFile,alienStim_instr,gridImage_instr.started,startPos_3.started,key_instr.started,alienImage_3.started,sounds_1.started,key_instr.keys,key_instr.rt,all_x,all_y,FBy_corrSteps,FBy_fixStart,FBx_corrSteps,FBx_fixStart,FBy_pathSize_check,FBx_pathSize_check,gridImage_9.started,alienImageFB_3.started,startPosFB_3.started,keyFB_3.started,pathLine_ydir_2.started,pathLine_xdir_2.started,alienFace_3.started,sounds_2.started,RTFB_instr,keyFB_3.keys,keyFB_3.rt,draw_alienStim,draw_alienID,test_x,nrepcount,perfthres,percthres,earlierperf,earlystop,nextPrac,fileidx,praclen,saveACC_train,pracFile,nextPrac_train,addNrep,fileidx_endr,repExp,showearly,gridImage_4.started,startPos.started,movePos.started,key_resp.started,alienImage.started,buttonPress_train,RTchoice_train,cumAcctrain,aCorr,saveACC_choice,corrAns,x_movePos_end,y_movePos_end,key_resp.keys,key_resp.rt,wLy_dir,wLx_dir,x_movePos,y_movePos,text_2.started,text_2.stopped,aft_x_corrPos,aft_y_corrPos,y_pathSize_check,x_pathSize_check,y_pathdirY,x_pathdirY,x_pathdirX,x_corrPos,y_corrPos,gridImage_6.started,alienImageFB_2.started,startPosFB_2.started,movePosFB_2.started,keyFB_2.started,pathLine_xdir.started,pathLine_ydir.started,alienFace.started,sounds_4.started,RT_FBtrain,keyFB_2.keys,keyFB_2.rt,saveACC_pre,ACC,within_saveACC_train,earlystop_wloop,cumAcctrain_check,gridImage_3.started,alienImage_test.started,startPos_test.started,movePos_test.started,key_resp_test.started,wLy_dir_test,wLx_dir_test,buttonPress_test,RTchoice_test,cumAcctest,corrAns_test,key_resp_test.keys,key_resp_test.rt,text_3.started,text_3.stopped,total_time,end_all_time,key_resp_3.keys,slides_2.started,sounds_3.started,nextButton_2.numClicks,nextButton_2.timesOn,nextButton_2.timesOff,prev_but_2.numClicks,prev_but_2.timesOn,prev_but_2.timesOff,bye.started,participant,train_first,00_coordinate,starting corner,date,expName,psychopyVersion,frameRate,
,,,,,,,,,,,,,,,0,0,0,0,0,0,0,0,,,,,,,,,,,,,,,,,,,,,,,,,,,,,start_all_time,testround,conditions/schedules/train_y_first/red_square_00/bottom_right/instructions/Slide1.png,conditions/schedules/train_y_first/red_square_00/bottom_right/instructions/Audio1.wav,712.8630256997421,712.8017482215539,1,[6.808564499951899],[6.808573800139129],0,,,,,,,,,,,,,,,,,,,,,,,,,,,,,,,,,,,,,,,,,,,,,,,,,,,,,,,,,,,,,,,,,,,,,,,,,,,,,,,,,,,,,,,,,,,,,,,,,,,,,,,,,,,,,,,,,,,,,,,,,,,,DK031N,train_y,red_square,bottom_right,2025-04-28_16h00.42.426,HideSeek_v1,2022.2.5,59.94729438409275,
,,,,,,,,,,,,,,,0,0,0,0,1,0,1,0,,,,,,,,,,,,,,,,,,,,,,,,,,,,,,,conditions/schedules/train_y_first/red_square_00/bottom_right/instructions/Slide2.png,conditions/schedules/train_y_first/red_square_00/bottom_right/instructions/Audio2.wav,719.6902442001738,719.6899699501228,2,"[6.808564499951899, 18.813248000107706]","[0.00021750014275312424, 18.813254899811]",0,,,,,,,,,,,,,,,,,,,,,,,,,,,,,,,,,,,,,,,,,,,,,,,,,,,,,,,,,,,,,,,,,,,,,,,,,,,,,,,,,,,,,,,,,,,,,,,,,,,,,,,,,,,,,,,,,,,,,,,,,,,,DK031N,train_y,red_square,bottom_right,2025-04-28_16h00.42.426,HideSeek_v1,2022.2.5,59.94729438409275,
,,,,,,,,,,,,,,,0,0,0,0,2,0,2,0,,,,,,,,,,,,,,,,,,,,,,,,,,,,,,,conditions/schedules/train_y_first/red_square_00/bottom_right/instructions/Slide3.png,conditions/schedules/train_y_first/red_square_00/bottom_right/instructions/Audio3.wav,738.5785030997358,738.5722898498643,3,"[6.808564499951899, 18.813248000107706, 0.03720490029081702]","[0.00021750014275312424, 18.813254899811, 0.03721270011737943]",0,,,,,,,,,,,,,,,,,,,,,,,,,,,,,,,,,,,,,,,,,,,,,,,,,,,,,,,,,,,,,,,,,,,,,,,,,,,,,,,,,,,,,,,,,,,,,,,,,,,,,,,,,,,,,,,,,,,,,,,,,,,,DK031N,train_y,red_square,bottom_right,2025-04-28_16h00.42.426,HideSeek_v1,2022.2.5,59.94729438409275,
,,,,,,,,,,,,,,,0,0,0,0,3,0,3,0,,,,,,,,,,,,,,,,,,,,,,,,,,,,,,,conditions/schedules/train_y_first/red_square_00/bottom_right/instructions/Slide4.png,conditions/schedules/train_y_first/red_square_00/bottom_right/instructions/Audio4.wav,738.6808234998025,738.6683374798857,3,"[6.808564499951899, 18.813248000107706, 0.03720490029081702]","[0.00021750014275312424, 18.813254899811, 0.014326899778097868]",1,[1.490170399658382],[1.490177699830383],,,,,,,,,,,,,,,,,,,,,,,,,,,,,,,,,,,,,,,,,,,,,,,,,,,,,,,,,,,,,,,,,,,,,,,,,,,,,,,,,,,,,,,,,,,,,,,,,,,,,,,,,,,,,,,,,,,,,,,,,,DK031N,train_y,red_square,bottom_right,2025-04-28_16h00.42.426,HideSeek_v1,2022.2.5,59.94729438409275,
,,,,,,,,,,,,,,,0,0,0,0,4,0,4,0,,,,,,,,,,,,,,,,,,,,,,,,,,,,,,,conditions/schedules/train_y_first/red_square_00/bottom_right/instructions/Slide3.png,conditions/schedules/train_y_first/red_square_00/bottom_right/instructions/Audio3.wav,740.232705200091,740.2236190798693,4,"[6.808564499951899, 18.813248000107706, 0.03720490029081702, 16.60239450028166]","[0.00021750014275312424, 18.813254899811, 0.014326899778097868, 16.602401200216264]",1,[1.490170399658382],[0.014260200317949057],,,,,,,,,,,,,,,,,,,,,,,,,,,,,,,,,,,,,,,,,,,,,,,,,,,,,,,,,,,,,,,,,,,,,,,,,,,,,,,,,,,,,,,,,,,,,,,,,,,,,,,,,,,,,,,,,,,,,,,,,,DK031N,train_y,red_square,bottom_right,2025-04-28_16h00.42.426,HideSeek_v1,2022.2.5,59.94729438409275,
,,,,,,,,,,,,,,,0,0,0,0,5,0,5,0,,,,,,,,,,,,,,,,,,,,,,,,,,,,,,,conditions/schedules/train_y_first/red_square_00/bottom_right/instructions/Slide4.png,conditions/schedules/train_y_first/red_square_00/bottom_right/instructions/Audio4.wav,756.9111375999637,756.9042583501432,5,"[6.808564499951899, 18.813248000107706, 0.03720490029081702, 16.60239450028166, 19.473272799979895]","[0.00021750014275312424, 18.813254899811, 0.014326899778097868, 16.602401200216264, 19.473279600031674]",1,[1.490170399658382],[0.014260200317949057],,,,,,,,,,,,,,,,,,,,,,,,,,,,,,,,,,,,,,,,,,,,,,,,,,,,,,,,,,,,,,,,,,,,,,,,,,,,,,,,,,,,,,,,,,,,,,,,,,,,,,,,,,,,,,,,,,,,,,,,,,DK031N,train_y,red_square,bottom_right,2025-04-28_16h00.42.426,HideSeek_v1,2022.2.5,59.94729438409275,
,,,,,,,,,,,,,,,0,0,0,0,6,0,6,0,,,,,,,,,,,,,,,,,,,,,,,,,,,,,,,conditions/schedules/train_y_first/red_square_00/bottom_right/instructions/Slide5.png,conditions/schedules/train_y_first/red_square_00/bottom_right/instructions/Audio5.wav,776.45204260014,776.4535793501418,6,"[6.808564499951899, 18.813248000107706, 0.03720490029081702, 16.60239450028166, 19.473272799979895, 4.235889399889857]","[0.00021750014275312424, 18.813254899811, 0.014326899778097868, 16.602401200216264, 19.473279600031674, 4.235896300058812]",1,[1.490170399658382],[0.014260200317949057],,,,,,,,,,,,,,,,,,,,,,,,,,,,,,,,,,,,,,,,,,,,,,,,,,,,,,,,,,,,,,,,,,,,,,,,,,,,,,,,,,,,,,,,,,,,,,,,,,,,,,,,,,,,,,,,,,,,,,,,,,DK031N,train_y,red_square,bottom_right,2025-04-28_16h00.42.426,HideSeek_v1,2022.2.5,59.94729438409275,
,,,,,,,,,,,,,,,0,0,0,0,7,0,7,0,,,,,,,,,,,,,,,,,,,,,,,,,,,,,,,conditions/schedules/train_y_first/red_square_00/bottom_right/instructions/Slide6.png,conditions/schedules/train_y_first/red_square_00/bottom_right/instructions/Audio6.wav,780.7415060000494,780.7405751801097,7,"[6.808564499951899, 18.813248000107706, 0.03720490029081702, 16.60239450028166, 19.473272799979895, 4.235889399889857, 4.734122199937701]","[0.00021750014275312424, 18.813254899811, 0.014326899778097868, 16.602401200216264, 19.473279600031674, 0.06335359998047352, 4.73412899998948]",1,[1.490170399658382],[0.014260200317949057],,,,,,,,,,,,,,,,,,,,,,,,,,,,,,,,,,,,,,,,,,,,,,,,,,,,,,,,,,,,,,,,,,,,,,,,,,,,,,,,,,,,,,,,,,,,,,,,,,,,,,,,,,,,,,,,,,,,,,,,,,DK031N,train_y,red_square,bottom_right,2025-04-28_16h00.42.426,HideSeek_v1,2022.2.5,59.94729438409275,
,,,,,,,,,,,,,,,0,0,0,0,8,0,8,0,,,,,,,,,,,,,,,,,,,,,,,,,,,,,,,conditions/schedules/train_y_first/red_square_00/bottom_right/instructions/Slide7.png,conditions/schedules/train_y_first/red_square_00/bottom_right/instructions/Audio7.wav,785.5267754998058,785.5278072801419,8,"[6.808564499951899, 18.813248000107706, 0.03720490029081702, 16.60239450028166, 19.473272799979895, 4.235889399889857, 4.734122199937701, 5.219764699693769]","[0.00021750014275312424, 18.813254899811, 0.014326899778097868, 16.602401200216264, 19.473279600031674, 0.06335359998047352, 0.0652458998374641, 5.2197710000909865]",1,[1.490170399658382],[0.014260200317949057],,,,,,,,,,,,,,,,,,,,,,,,,,,,,,,,,,,,,,,,,,,,,,,,,,,,,,,,,,,,,,,,,,,,,,,,,,,,,,,,,,,,,,,,,,,,,,,,,,,,,,,,,,,,,,,,,,,,,,,,,,DK031N,train_y,red_square,bottom_right,2025-04-28_16h00.42.426,HideSeek_v1,2022.2.5,59.94729438409275,
,,,,,,,,,,,,,,,0,0,0,0,9,0,9,0,,,,,,,,,,,,,,,,,,,,,,,,,,,,,,,conditions/schedules/train_y_first/red_square_00/bottom_right/instructions/Slide8.png,conditions/schedules/train_y_first/red_square_00/bottom_right/instructions/Audio8.wav,790.8020001999103,790.7992163800635,9,"[6.808564499951899, 18.813248000107706, 0.03720490029081702, 16.60239450028166, 19.473272799979895, 4.235889399889857, 4.734122199937701, 5.219764699693769, 11.503837399650365]","[0.00021750014275312424, 18.813254899811, 0.014326899778097868, 16.602401200216264, 19.473279600031674, 0.06335359998047352, 0.0652458998374641, 0.06346899969503284, 11.50384459970519]",1,[1.490170399658382],[0.014260200317949057],,,,,,,,,,,,,,,,,,,,,,,,,,,,,,,,,,,,,,,,,,,,,,,,,,,,,,,,,,,,,,,,,,,,,,,,,,,,,,,,,,,,,,,,,,,,,,,,,,,,,,,,,,,,,,,,,,,,,,,,,,DK031N,train_y,red_square,bottom_right,2025-04-28_16h00.42.426,HideSeek_v1,2022.2.5,59.94729438409275,
,,,,,,,,,,,,,,,0,0,0,0,10,0,10,0,,,,,,,,,,,,,,,,,,,,,,,,,,,,,,,conditions/schedules/train_y_first/red_square_00/bottom_right/instructions/Slide9.png,conditions/schedules/train_y_first/red_square_00/bottom_right/instructions/Audio9.wav,802.3762175999582,802.3750810499769,10,"[6.808564499951899, 18.813248000107706, 0.03720490029081702, 16.60239450028166, 19.473272799979895, 4.235889399889857, 4.734122199937701, 5.219764699693769, 11.503837399650365, 5.818788700271398]","[0.00021750014275312424, 18.813254899811, 0.014326899778097868, 16.602401200216264, 19.473279600031674, 0.06335359998047352, 0.0652458998374641, 0.06346899969503284, 0.0139145003631711, 5.818796799983829]",1,[1.490170399658382],[0.014260200317949057],,,,,,,,,,,,,,,,,,,,,,,,,,,,,,,,,,,,,,,,,,,,,,,,,,,,,,,,,,,,,,,,,,,,,,,,,,,,,,,,,,,,,,,,,,,,,,,,,,,,,,,,,,,,,,,,,,,,,,,,,,DK031N,train_y,red_square,bottom_right,2025-04-28_16h00.42.426,HideSeek_v1,2022.2.5,59.94729438409275,
,,,,,,,,,,,,,,,0,0,0,0,11,0,11,0,,,,,,,,,,,,,,,,,,,,,,,,,,,,,,,conditions/schedules/train_y_first/red_square_00/bottom_right/instructions/Slide10.png,conditions/schedules/train_y_first/red_square_00/bottom_right/instructions/Audio10.wav,808.2337063997984,808.2299700101372,11,"[6.808564499951899, 18.813248000107706, 0.03720490029081702, 16.60239450028166, 19.473272799979895, 4.235889399889857, 4.734122199937701, 5.219764699693769, 11.503837399650365, 5.818788700271398, 6.900239999871701]","[0.00021750014275312424, 18.813254899811, 0.014326899778097868, 16.602401200216264, 19.473279600031674, 0.06335359998047352, 0.0652458998374641, 0.06346899969503284, 0.0139145003631711, 0.08102309983223677, 6.900247499812394]",1,[1.490170399658382],[0.014260200317949057],,,,,,,,,,,,,,,,,,,,,,,,,,,,,,,,,,,,,,,,,,,,,,,,,,,,,,,,,,,,,,,,,,,,,,,,,,,,,,,,,,,,,,,,,,,,,,,,,,,,,,,,,,,,,,,,,,,,,,,,,,DK031N,train_y,red_square,bottom_right,2025-04-28_16h00.42.426,HideSeek_v1,2022.2.5,59.94729438409275,
,,,,,,,,,,,,,,,0,0,0,0,12,0,12,0,,,,,,,,,,,,,,,,,,,,,,,,,,,,,,,conditions/schedules/train_y_first/red_square_00/bottom_right/instructions/Slide11.png,conditions/schedules/train_y_first/red_square_00/bottom_right/instructions/Audio11.wav,815.1727076000534,815.1693422101904,12,"[6.808564499951899, 18.813248000107706, 0.03720490029081702, 16.60239450028166, 19.473272799979895, 4.235889399889857, 4.734122199937701, 5.219764699693769, 11.503837399650365, 5.818788700271398, 6.900239999871701, 10.152545500081033]","[0.00021750014275312424, 18.813254899811, 0.014326899778097868, 16.602401200216264, 19.473279600031674, 0.06335359998047352, 0.0652458998374641, 0.06346899969503284, 0.0139145003631711, 0.08102309983223677, 0.07951269997283816, 10.152552200015634]",1,[1.490170399658382],[0.014260200317949057],,,,,,,,,,,,,,,,,,,,,,,,,,,,,,,,,,,,,,,,,,,,,,,,,,,,,,,,,,,,,,,,,,,,,,,,,,,,,,,,,,,,,,,,,,,,,,,,,,,,,,,,,,,,,,,,,,,,,,,,,,DK031N,train_y,red_square,bottom_right,2025-04-28_16h00.42.426,HideSeek_v1,2022.2.5,59.94729438409275,
,,,,,,,,,,,,,,,0,0,0,0,13,0,13,0,,,,,,,,,,,,,,,,,,,,,,,,,,,,,,,conditions/schedules/train_y_first/red_square_00/bottom_right/instructions/Slide12.png,conditions/schedules/train_y_first/red_square_00/bottom_right/instructions/Audio12.wav,825.4024177999236,825.3946087497752,13,"[6.808564499951899, 18.813248000107706, 0.03720490029081702, 16.60239450028166, 19.473272799979895, 4.235889399889857, 4.734122199937701, 5.219764699693769, 11.503837399650365, 5.818788700271398, 6.900239999871701, 10.152545500081033, 13.984524399973452]","[0.00021750014275312424, 18.813254899811, 0.014326899778097868, 16.602401200216264, 19.473279600031674, 0.06335359998047352, 0.0652458998374641, 0.06346899969503284, 0.0139145003631711, 0.08102309983223677, 0.07951269997283816, 0.013922699727118015, 13.9845314999111]",1,[1.490170399658382],[0.014260200317949057],,,,,,,,,,,,,,,,,,,,,,,,,,,,,,,,,,,,,,,,,,,,,,,,,,,,,,,,,,,,,,,,,,,,,,,,,,,,,,,,,,,,,,,,,,,,,,,,,,,,,,,,,,,,,,,,,,,,,,,,,,DK031N,train_y,red_square,bottom_right,2025-04-28_16h00.42.426,HideSeek_v1,2022.2.5,59.94729438409275,
1,7,3,7,8,0,5,11,2,instr_dim1_1,,,,,,0,0,0,0,,,,,0,0,0,0,,,,,,,,,,,,,,,,,,,,,,,,,,,,,,,,,,,,,stimuli/alien_stimuli/11.png,conditions/schedules/train_y_first/red_square_00/bottom_right/inputInstr_1.xlsx,stimuli/alien_stimuli/11.png,839.4921566997655,839.4921566997655,839.4921566997655,839.4921566997655,839.4894813898486,return,7.6331795998848975,"[-0.16, -0.08, 0, 0.08, 0.16, 0.24, 0.32, 0.4, 0.48, 0.56]","[-0.4, -0.32, -0.24, -0.16, -0.08, 0, 0.08, 0.16, 0.24, 0.32]",8,3,7,7,0.4,0.0,847.2775217997842,847.2775217997842,847.2775217997842,847.2775217997842,847.2775217997842,847.2775217997842,847.2775217997842,847.262254860159,5.67236590012908,return,5.510709899943322,stimuli/alien_stimuli/11.png,11,7,1,,,,,,,,,,,,,,,,,,,,,,,,,,,,,,,,,,,,,,,,,,,,,,,,,,,,,,,,,,,,,,,,,,,,,,,,,,,,,,,,,,,,,,,,,DK031N,train_y,red_square,bottom_right,2025-04-28_16h00.42.426,HideSeek_v1,2022.2.5,59.94729438409275,
,,,,,,,,,,,30,,,,0,0,0,0,,,,,,,,,,,,,,,,,,,,,,,,,,,,,,,,,,,,,,,,,,,,,,,,,,,,,,,,,,,,,,,,,,,,,,,,,,,,,,21,0.7,0,0,99,1,30,0,conditions/schedules/train_y_first/red_square_00/bottom_right/inputTrain_1.1.xlsx,99,1,1,1,0,,,,,,,,,,,,,,,,,,,,,,,,,,,,,,,,,,,,,,,,,,,,,,,,,,,,,,,,,,,,,,,,,,,,,,,,,,,DK031N,train_y,red_square,bottom_right,2025-04-28_16h00.42.426,HideSeek_v1,2022.2.5,59.94729438409275,
,,,,,,,,,,,,,,,1,0,1,0,0,0,0,0,,,,,,,,,,,,,,,,,,,,,,,,,,,,,,,conditions/schedules/train_y_first/red_square_00/bottom_right/instructions/Slide13.png,conditions/schedules/train_y_first/red_square_00/bottom_right/instructions/Audio13.wav,852.9486068999395,852.9505830299576,14,"[6.808564499951899, 18.813248000107706, 0.03720490029081702, 16.60239450028166, 19.473272799979895, 4.235889399889857, 4.734122199937701, 5.219764699693769, 11.503837399650365, 5.818788700271398, 6.900239999871701, 10.152545500081033, 13.984524399973452, 16.897092000115663]","[0.00021750014275312424, 18.813254899811, 0.014326899778097868, 16.602401200216264, 19.473279600031674, 0.06335359998047352, 0.0652458998374641, 0.06346899969503284, 0.0139145003631711, 0.08102309983223677, 0.07951269997283816, 0.013922699727118015, 13.9845314999111, 16.897098999936134]",1,[1.490170399658382],[0.014260200317949057],,,,,,,,,,,,,,,,,,,,,,,,,,,,,,,,,,,,,,,,,,,,,,,,,,,,,,,,,,,,,,,,,,,,,,,,,,,,,,,,,,,,,,,,,,,,,,,,,,,,,,,,,,,,,,,,,,,,,,,,,,DK031N,train_y,red_square,bottom_right,2025-04-28_16h00.42.426,HideSeek_v1,2022.2.5,59.94729438409275,
,,,,,,,,,,,,,,,1,0,1,0,1,0,1,0,,,,,,,,,,,,,,,,,,,,,,,,,,,,,,,conditions/schedules/train_y_first/red_square_00/bottom_right/instructions/Slide14.png,conditions/schedules/train_y_first/red_square_00/bottom_right/instructions/Audio14.wav,869.9160448000766,869.9147967498284,15,"[6.808564499951899, 18.813248000107706, 0.03720490029081702, 16.60239450028166, 19.473272799979895, 4.235889399889857, 4.734122199937701, 5.219764699693769, 11.503837399650365, 5.818788700271398, 6.900239999871701, 10.152545500081033, 13.984524399973452, 16.897092000115663, 16.777029399760067]","[0.00021750014275312424, 18.813254899811, 0.014326899778097868, 16.602401200216264, 19.473279600031674, 0.06335359998047352, 0.0652458998374641, 0.06346899969503284, 0.0139145003631711, 0.08102309983223677, 0.07951269997283816, 0.013922699727118015, 13.9845314999111, 0.030461200047284365, 16.777036800049245]",1,[1.490170399658382],[0.014260200317949057],,,,,,,,,,,,,,,,,,,,,,,,,,,,,,,,,,,,,,,,,,,,,,,,,,,,,,,,,,,,,,,,,,,,,,,,,,,,,,,,,,,,,,,,,,,,,,,,,,,,,,,,,,,,,,,,,,,,,,,,,,DK031N,train_y,red_square,bottom_right,2025-04-28_16h00.42.426,HideSeek_v1,2022.2.5,59.94729438409275,
2,5,3,5,3,0,0,16,2,instr_dim1_1,,,,,,1,0,1,0,,,,,0,0,0,0,,,,,,,,,,,,,,,,,,,,,,,,,,,,,,,,,,,,,stimuli/alien_stimuli/16.png,conditions/schedules/train_y_first/red_square_00/bottom_right/inputInstr_1.xlsx,stimuli/alien_stimuli/16.png,886.7877842998132,886.7877842998132,886.7877842998132,886.7877842998132,886.7786608201452,return,6.217508599627763,"[-0.16, -0.08, 0, 0.08, 0.16, 0.24, 0.32, 0.4, 0.48, 0.56]","[-0.4, -0.32, -0.24, -0.16, -0.08, 0, 0.08, 0.16, 0.24, 0.32]",3,3,5,5,0.0,0.0,893.1685844999738,893.1685844999738,893.1685844999738,893.1685844999738,893.1685844999738,893.1685844999738,893.1685844999738,893.167224429967,6.206138600129634,return,6.0524221998639405,stimuli/alien_stimuli/16.png,16,5,2,,,,,,,,,,,,,,,,,,,,,,,,,,,,,,,,,,,,,,,,,,,,,,,,,,,,,,,,,,,,,,,,,,,,,,,,,,,,,,,,,,,,,,,,,DK031N,train_y,red_square,bottom_right,2025-04-28_16h00.42.426,HideSeek_v1,2022.2.5,59.94729438409275,
,,,,,,,,,,,30,,,,1,0,1,0,,,,,,,,,,,,,,,,,,,,,,,,,,,,,,,,,,,,,,,,,,,,,,,,,,,,,,,,,,,,,,,,,,,,,,,,,,,,,,21,0.7,0,0,99,1,30,0,conditions/schedules/train_y_first/red_square_00/bottom_right/inputTrain_1.1.xlsx,99,1,1,1,0,,,,,,,,,,,,,,,,,,,,,,,,,,,,,,,,,,,,,,,,,,,,,,,,,,,,,,,,,,,,,,,,,,,,,,,,,,,DK031N,train_y,red_square,bottom_right,2025-04-28_16h00.42.426,HideSeek_v1,2022.2.5,59.94729438409275,
,,,,,,,,,,,,,,,2,0,2,0,0,0,0,0,,,,,,,,,,,,,,,,,,,,,,,,,,,,,,,conditions/schedules/train_y_first/red_square_00/bottom_right/instructions/Slide15.png,conditions/schedules/train_y_first/red_square_00/bottom_right/instructions/Audio15.wav,899.3977707000449,899.3890053001232,16,"[6.808564499951899, 18.813248000107706, 0.03720490029081702, 16.60239450028166, 19.473272799979895, 4.235889399889857, 4.734122199937701, 5.219764699693769, 11.503837399650365, 5.818788700271398, 6.900239999871701, 10.152545500081033, 13.984524399973452, 16.897092000115663, 16.777029399760067, 43.20851860009134]","[0.00021750014275312424, 18.813254899811, 0.014326899778097868, 16.602401200216264, 19.473279600031674, 0.06335359998047352, 0.0652458998374641, 0.06346899969503284, 0.0139145003631711, 0.08102309983223677, 0.07951269997283816, 0.013922699727118015, 13.9845314999111, 0.030461200047284365, 16.777036800049245, 43.20852540014312]",1,[1.490170399658382],[0.014260200317949057],,,,,,,,,,,,,,,,,,,,,,,,,,,,,,,,,,,,,,,,,,,,,,,,,,,,,,,,,,,,,,,,,,,,,,,,,,,,,,,,,,,,,,,,,,,,,,,,,,,,,,,,,,,,,,,,,,,,,,,,,,DK031N,train_y,red_square,bottom_right,2025-04-28_16h00.42.426,HideSeek_v1,2022.2.5,59.94729438409275,
,,,,,,,,,,,,,,,2,0,2,0,1,0,1,0,,,,,,,,,,,,,,,,,,,,,,,,,,,,,,,conditions/schedules/train_y_first/red_square_00/bottom_right/instructions/Slide16.png,conditions/schedules/train_y_first/red_square_00/bottom_right/instructions/Audio16.wav,942.6822891999036,942.6750899499748,17,"[6.808564499951899, 18.813248000107706, 0.03720490029081702, 16.60239450028166, 19.473272799979895, 4.235889399889857, 4.734122199937701, 5.219764699693769, 11.503837399650365, 5.818788700271398, 6.900239999871701, 10.152545500081033, 13.984524399973452, 16.897092000115663, 16.777029399760067, 43.20851860009134, 30.015358299948275]","[0.00021750014275312424, 18.813254899811, 0.014326899778097868, 16.602401200216264, 19.473279600031674, 0.06335359998047352, 0.0652458998374641, 0.06346899969503284, 0.0139145003631711, 0.08102309983223677, 0.07951269997283816, 0.013922699727118015, 13.9845314999111, 0.030461200047284365, 16.777036800049245, 0.07373249996453524, 30.0153655000031]",1,[1.490170399658382],[0.014260200317949057],,,,,,,,,,,,,,,,,,,,,,,,,,,,,,,,,,,,,,,,,,,,,,,,,,,,,,,,,,,,,,,,,,,,,,,,,,,,,,,,,,,,,,,,,,,,,,,,,,,,,,,,,,,,,,,,,,,,,,,,,,DK031N,train_y,red_square,bottom_right,2025-04-28_16h00.42.426,HideSeek_v1,2022.2.5,59.94729438409275,
,5,0,5,1,0,1,15,,train_dim1_1,1,30,,,,2,0,2,0,,,,,,,,,0,0,0,0,0,0,0,0,0,0,0,0,,,,,,,,,,,,,,,,,,,,,,,,,stimuli/alien_stimuli/15.png,,,,,,,,,,,,,,,,,,,,,,,,,,,,,,,,,,,,,,,30,,,,,,,,972.8069834001362,972.8069834001362,972.8069834001362,972.8069834001362,972.8069834001362,up,4.063196700066328,0,0,0,99,0.24,-0.32,up,3.9632263998501003,,,,,,,,,,,,,,,,,,,,,,,,,,,,,,,,,,,,,,,,,,,,,,,,,,,,,,,,,,,,DK031N,train_y,red_square,bottom_right,2025-04-28_16h00.42.426,HideSeek_v1,2022.2.5,59.94729438409275,
,5,0,5,1,0,1,15,,train_dim1_1,1,30,,,,2,0,2,0,,,,,,,,,0,0,0,0,0,0,0,0,1,0,1,0,,,,,,,,,,,,,,,,,,,,,,,,,,,,,,,,,,,,,,,,,,,,,,,,,,,,,,,,,,,,,,,,30,,,,,,,,976.8567901998758,976.8567901998758,976.8567901998758,976.8567901998758,976.8567901998758,up,1.6589608998037875,0,0,0,99,0.24,-0.24,up,1.571114399470389,,,,,,,,,,,,,,,,,,,,,,,,,,,,,,,,,,,,,,,,,,,,,,,,,,,,,,,,,,,,DK031N,train_y,red_square,bottom_right,2025-04-28_16h00.42.426,HideSeek_v1,2022.2.5,59.94729438409275,
,5,0,5,1,0,1,15,,train_dim1_1,1,30,,,,2,0,2,0,,,,,,,,,0,0,0,0,0,0,0,0,2,0,2,0,,,,,,,,,,,,,,,,,,,,,,,,,,,,,,,,,,,,,,,,,,,,,,,,,,,,,,,,,,,,,,,,30,,,,,,,,978.5231380001642,978.5231380001642,978.5231380001642,978.5231380001642,978.5231380001642,up,0.4760313997976482,0,0,0,99,0.24,-0.15999999999999998,up,0.3902553003281355,,,,,,,,,,,,,,,,,,,,,,,,,,,,,,,,,,,,,,,,,,,,,,,,,,,,,,,,,,,,DK031N,train_y,red_square,bottom_right,2025-04-28_16h00.42.426,HideSeek_v1,2022.2.5,59.94729438409275,
,5,0,5,1,0,1,15,,train_dim1_1,1,30,,,,2,0,2,0,,,,,,,,,0,0,0,0,0,0,0,0,3,0,3,0,,,,,,,,,,,,,,,,,,,,,,,,,,,,,,,,,,,,,,,,,,,,,,,,,,,,,,,,,,,,,,,,30,,,,,,,,979.0066220001318,979.0066220001318,979.0066220001318,979.0066220001318,979.0066220001318,return,1.7276666997931898,0,0,0,0,0.24,-0.15999999999999998,return,1.6449601002968848,3,0,0.24,-0.15999999999999998,,,,,,,,,,,,,,,,,,,,,,,,,,,,,,,,,,,,,,,,,,,,,,,,,,,,,,,,DK031N,train_y,red_square,bottom_right,2025-04-28_16h00.42.426,HideSeek_v1,2022.2.5,59.94729438409275,
,8,2,8,2,0,0,16,,train_dim1_1,2,30,,,,2,0,2,0,,,,,,,,,0,0,0,0,0,1,1,1,0,0,0,0,,,,,,,,,,,,,,,,,,,,,,,,,stimuli/alien_stimuli/16.png,,,,,,,,,,,,,,,,,,,,,,,,,,,,,stimuli/alien_stimuli/15.png,15,5,3,,,,,,,30,,,,,,,,1004.0872347000986,1004.0872347000986,1004.0872347000986,1004.0872347000986,1004.0872347000986,left,4.689557900186628,0,0,0,99,0.39999999999999997,-0.24,left,4.583024600055069,,,,,1002.5081703001633,1004.0872347000986,0.24,-0.32,0.08,0.0,-0.36,0.24,0.24,0.24,-0.32,982.3155788001604,982.3155788001604,982.3155788001604,982.3155788001604,982.3155788001604,982.3155788001604,982.3155788001604,982.3155788001604,982.3080467599444,20.319150999654084,return,20.176121399737895,,,,,,,,,,,,,,,,,,,,,,,,,,,,,,,,,DK031N,train_y,red_square,bottom_right,2025-04-28_16h00.42.426,HideSeek_v1,2022.2.5,59.94729438409275,
,8,2,8,2,0,0,16,,train_dim1_1,2,30,,,,2,0,2,0,,,,,,,,,0,0,0,0,0,1,1,1,1,0,1,0,,,,,,,,,,,,,,,,,,,,,,,,,,,,,,,,,,,,,,,,,,,,,,,,,,,,,,,,,,,,,,,,30,,,,,,,,1008.7649822998792,1008.7649822998792,1008.7649822998792,1008.7649822998792,1008.7649822998792,left,1.6436955998651683,0,0,0,99,0.31999999999999995,-0.24,left,1.5631714998744428,,,,,,,,,,,,,,,,,,,,,,,,,,,,,,,,,,,,,,,,,,,,,,,,,,,,,,,,,,,,DK031N,train_y,red_square,bottom_right,2025-04-28_16h00.42.426,HideSeek_v1,2022.2.5,59.94729438409275,
,8,2,8,2,0,0,16,,train_dim1_1,2,30,,,,2,0,2,0,,,,,,,,,0,0,0,0,0,1,1,1,2,0,2,0,,,,,,,,,,,,,,,,,,,,,,,,,,,,,,,,,,,,,,,,,,,,,,,,,,,,,,,,,,,,,,,,30,,,,,,,,1010.415422799997,1010.415422799997,1010.415422799997,1010.415422799997,1010.415422799997,left,2.127509499900043,0,0,0,99,0.23999999999999994,-0.24,left,2.0437443000264466,,,,,,,,,,,,,,,,,,,,,,,,,,,,,,,,,,,,,,,,,,,,,,,,,,,,,,,,,,,,DK031N,train_y,red_square,bottom_right,2025-04-28_16h00.42.426,HideSeek_v1,2022.2.5,59.94729438409275,
,8,2,8,2,0,0,16,,train_dim1_1,2,30,,,,2,0,2,0,,,,,,,,,0,0,0,0,0,1,1,1,3,0,3,0,,,,,,,,,,,,,,,,,,,,,,,,,,,,,,,,,,,,,,,,,,,,,,,,,,,,,,,,,,,,,,,,30,,,,,,,,1012.5510307997465,1012.5510307997465,1012.5510307997465,1012.5510307997465,1012.5510307997465,return,0.7259647999890149,0,0,0,0,0.23999999999999994,-0.24,return,0.6488045998848975,3,-3,0.23999999999999994,-0.24,,,,,,,,,,,,,,,,,,,,,,,,,,,,,,,,,,,,,,,,,,,,,,,,,,,,,,,,DK031N,train_y,red_square,bottom_right,2025-04-28_16h00.42.426,HideSeek_v1,2022.2.5,59.94729438409275,
,7,3,7,6,0,3,13,,train_dim1_1,3,30,,,,2,0,2,0,,,,,,,,,0,0,0,0,0,2,2,2,0,0,0,0,,,,,,,,,,,,,,,,,,,,,,,,,stimuli/alien_stimuli/13.png,,,,,,,,,,,,,,,,,,,,,,,,,,,,,stimuli/alien_stimuli/16.png,16,8,4,,,,,,,30,,,,,,,,1019.6466040997766,1019.6466040997766,1019.6466040997766,1019.6466040997766,1019.6466040997766,down,4.790827800054103,0,0,0,99,0.4,-0.24,down,4.7041887999512255,,,,,1018.0875399997458,1019.6466040997766,0.48,-0.24,0.0,0.0,-0.24,0.48,0.48,0.48,-0.24,1014.8523436998948,1014.8523436998948,1014.8523436998948,1014.8523436998948,1014.8523436998948,1014.8523436998948,1014.8523436998948,1014.8523436998948,1014.8516702599824,3.3549550003372133,return,3.210110199637711,,,,,,,,,,,,,,,,,,,,,,,,,,,,,,,,,DK031N,train_y,red_square,bottom_right,2025-04-28_16h00.42.426,HideSeek_v1,2022.2.5,59.94729438409275,
,7,3,7,6,0,3,13,,train_dim1_1,3,30,,,,2,0,2,0,,,,,,,,,0,0,0,0,0,2,2,2,1,0,1,0,,,,,,,,,,,,,,,,,,,,,,,,,,,,,,,,,,,,,,,,,,,,,,,,,,,,,,,,,,,,,,,,30,,,,,,,,1024.4442398999818,1024.4442398999818,1024.4442398999818,1024.4442398999818,1024.4442398999818,down,2.2274556001648307,0,0,0,99,0.4,-0.32,down,2.145302299875766,,,,,,,,,,,,,,,,,,,,,,,,,,,,,,,,,,,,,,,,,,,,,,,,,,,,,,,,,,,,DK031N,train_y,red_square,bottom_right,2025-04-28_16h00.42.426,HideSeek_v1,2022.2.5,59.94729438409275,
,7,3,7,6,0,3,13,,train_dim1_1,3,30,,,,2,0,2,0,,,,,,,,,0,0,0,0,0,2,2,2,2,0,2,0,,,,,,,,,,,,,,,,,,,,,,,,,,,,,,,,,,,,,,,,,,,,,,,,,,,,,,,,,,,,,,,,30,,,,,,,,1026.6779857999645,1026.6779857999645,1026.6779857999645,1026.6779857999645,1026.6779857999645,return,0.6599026001058519,0,0,0,0,0.4,-0.32,return,0.5721130999736488,1,-3,0.4,-0.32,,,,,,,,,,,,,,,,,,,,,,,,,,,,,,,,,,,,,,,,,,,,,,,,,,,,,,,,DK031N,train_y,red_square,bottom_right,2025-04-28_16h00.42.426,HideSeek_v1,2022.2.5,59.94729438409275,
,5,1,5,5,0,4,12,,train_dim1_1,4,30,,,,2,0,2,0,,,,,,,,,0,0,0,0,0,3,3,3,0,0,0,0,,,,,,,,,,,,,,,,,,,,,,,,,stimuli/alien_stimuli/12.png,,,,,,,,,,,,,,,,,,,,,,,,,,,,,stimuli/alien_stimuli/13.png,13,7,5,,,,,,,30,,,,,,,,1037.946208999958,1037.946208999958,1037.946208999958,1037.946208999958,1037.946208999958,left,1.821373799815774,0,0,0,99,0.15999999999999998,-0.32,left,1.7305236998945475,,,,,1036.386359400116,1037.946208999958,0.4,0.08,0.24,0.0,-0.04,0.4,0.4,0.4,0.08,1028.9143264000304,1028.9143264000304,1028.9143264000304,1028.9143264000304,1028.9143264000304,1028.9143264000304,1028.9143264000304,1028.9143264000304,1028.9134374599905,7.591449199710041,return,7.4462926001288,,,,,,,,,,,,,,,,,,,,,,,,,,,,,,,,,DK031N,train_y,red_square,bottom_right,2025-04-28_16h00.42.426,HideSeek_v1,2022.2.5,59.94729438409275,
,5,1,5,5,0,4,12,,train_dim1_1,4,30,,,,2,0,2,0,,,,,,,,,0,0,0,0,0,3,3,3,1,0,1,0,,,,,,,,,,,,,,,,,,,,,,,,,,,,,,,,,,,,,,,,,,,,,,,,,,,,,,,,,,,,,,,,30,,,,,,,,1039.7739508999512,1039.7739508999512,1039.7739508999512,1039.7739508999512,1039.7739508999512,up,1.5099260997958481,0,0,0,99,0.15999999999999998,-0.24,up,1.4286838001571596,,,,,,,,,,,,,,,,,,,,,,,,,,,,,,,,,,,,,,,,,,,,,,,,,,,,,,,,,,,,DK031N,train_y,red_square,bottom_right,2025-04-28_16h00.42.426,HideSeek_v1,2022.2.5,59.94729438409275,
,5,1,5,5,0,4,12,,train_dim1_1,4,30,,,,2,0,2,0,,,,,,,,,0,0,0,0,0,3,3,3,2,0,2,0,,,,,,,,,,,,,,,,,,,,,,,,,,,,,,,,,,,,,,,,,,,,,,,,,,,,,,,,,,,,,,,,30,,,,,,,,1041.2923806998879,1041.2923806998879,1041.2923806998879,1041.2923806998879,1041.2923806998879,down,1.2933645001612604,0,0,0,99,0.15999999999999998,-0.32,down,1.2154755997471511,,,,,,,,,,,,,,,,,,,,,,,,,,,,,,,,,,,,,,,,,,,,,,,,,,,,,,,,,,,,DK031N,train_y,red_square,bottom_right,2025-04-28_16h00.42.426,HideSeek_v1,2022.2.5,59.94729438409275,
,5,1,5,5,0,4,12,,train_dim1_1,4,30,,,,2,0,2,0,,,,,,,,,0,0,0,0,0,3,3,3,3,0,3,0,,,,,,,,,,,,,,,,,,,,,,,,,,,,,,,,,,,,,,,,,,,,,,,,,,,,,,,,,,,,,,,,30,,,,,,,,1042.5942596998066,1042.5942596998066,1042.5942596998066,1042.5942596998066,1042.5942596998066,left,3.6608694000169635,0,0,0,99,0.07999999999999997,-0.32,left,3.569724400062114,,,,,,,,,,,,,,,,,,,,,,,,,,,,,,,,,,,,,,,,,,,,,,,,,,,,,,,,,,,,DK031N,train_y,red_square,bottom_right,2025-04-28_16h00.42.426,HideSeek_v1,2022.2.5,59.94729438409275,
,5,1,5,5,0,4,12,,train_dim1_1,4,30,,,,2,0,2,0,,,,,,,,,0,0,0,0,0,3,3,3,4,0,4,0,,,,,,,,,,,,,,,,,,,,,,,,,,,,,,,,,,,,,,,,,,,,,,,,,,,,,,,,,,,,,,,,30,,,,,,,,1046.2629391998053,1046.2629391998053,1046.2629391998053,1046.2629391998053,1046.2629391998053,return,0.5264632999897003,0,0,0,0,0.07999999999999997,-0.32,return,0.4373667002655566,1,-5,0.07999999999999997,-0.32,,,,,,,,,,,,,,,,,,,,,,,,,,,,,,,,,,,,,,,,,,,,,,,,,,,,,,,,DK031N,train_y,red_square,bottom_right,2025-04-28_16h00.42.426,HideSeek_v1,2022.2.5,59.94729438409275,
,8,3,8,8,0,5,11,,train_dim1_1,5,30,,,,2,0,2,0,,,,,,,,,0,0,0,0,0,4,4,4,0,0,0,0,,,,,,,,,,,,,,,,,,,,,,,,,stimuli/alien_stimuli/11.png,,,,,,,,,,,,,,,,,,,,,,,,,,,,,stimuli/alien_stimuli/12.png,12,5,6,,,,,,,30,,,,,,,,1053.4437492997386,1053.4437492997386,1053.4437492997386,1053.4437492997386,1053.4437492997386,left,1.7520892997272313,0,0,0,99,0.39999999999999997,-0.16,left,1.6703952001407743,,,,,1051.8823167998344,1053.4437492997386,0.24,0,0.32,0.0,-0.16,0.24,0.24,0.24,0,1048.3656788999215,1048.3656788999215,1048.3656788999215,1048.3656788999215,1048.3656788999215,1048.3656788999215,1048.3656788999215,1048.3656788999215,1048.3628091601656,3.6386465998366475,return,3.4965992998331785,,,,,,,,,,,,,,,,,,,,,,,,,,,,,,,,,DK031N,train_y,red_square,bottom_right,2025-04-28_16h00.42.426,HideSeek_v1,2022.2.5,59.94729438409275,
,8,3,8,8,0,5,11,,train_dim1_1,5,30,,,,2,0,2,0,,,,,,,,,0,0,0,0,0,4,4,4,1,0,1,0,,,,,,,,,,,,,,,,,,,,,,,,,,,,,,,,,,,,,,,,,,,,,,,,,,,,,,,,,,,,,,,,30,,,,,,,,1055.202900600154,1055.202900600154,1055.202900600154,1055.202900600154,1055.202900600154,down,5.830945800058544,0,0,0,99,0.39999999999999997,-0.24,down,5.754106899723411,,,,,,,,,,,,,,,,,,,,,,,,,,,,,,,,,,,,,,,,,,,,,,,,,,,,,,,,,,,,DK031N,train_y,red_square,bottom_right,2025-04-28_16h00.42.426,HideSeek_v1,2022.2.5,59.94729438409275,
,8,3,8,8,0,5,11,,train_dim1_1,5,30,,,,2,0,2,0,,,,,,,,,0,0,0,0,0,4,4,4,2,0,2,0,,,,,,,,,,,,,,,,,,,,,,,,,,,,,,,,,,,,,,,,,,,,,,,,,,,,,,,,,,,,,,,,30,,,,,,,,1061.0416605998762,1061.0416605998762,1061.0416605998762,1061.0416605998762,1061.0416605998762,right,0.6094030998647213,0,0,0,99,0.48,-0.24,right,0.517263500019908,,,,,,,,,,,,,,,,,,,,,,,,,,,,,,,,,,,,,,,,,,,,,,,,,,,,,,,,,,,,DK031N,train_y,red_square,bottom_right,2025-04-28_16h00.42.426,HideSeek_v1,2022.2.5,59.94729438409275,
,8,3,8,8,0,5,11,,train_dim1_1,5,30,,,,2,0,2,0,,,,,,,,,0,0,0,0,0,4,4,4,3,0,3,0,,,,,,,,,,,,,,,,,,,,,,,,,,,,,,,,,,,,,,,,,,,,,,,,,,,,,,,,,,,,,,,,30,,,,,,,,1061.6577869001776,1061.6577869001776,1061.6577869001776,1061.6577869001776,1061.6577869001776,down,1.4604918998666108,0,0,0,99,0.48,-0.32,down,1.3692859997972846,,,,,,,,,,,,,,,,,,,,,,,,,,,,,,,,,,,,,,,,,,,,,,,,,,,,,,,,,,,,DK031N,train_y,red_square,bottom_right,2025-04-28_16h00.42.426,HideSeek_v1,2022.2.5,59.94729438409275,
,8,3,8,8,0,5,11,,train_dim1_1,5,30,,,,2,0,2,0,,,,,,,,,0,0,0,0,0,4,4,4,4,0,4,0,,,,,,,,,,,,,,,,,,,,,,,,,,,,,,,,,,,,,,,,,,,,,,,,,,,,,,,,,,,,,,,,30,,,,,,,,1063.1265201000497,1063.1265201000497,1063.1265201000497,1063.1265201000497,1063.1265201000497,return,0.4918189998716116,0,0,0,0,0.48,-0.32,return,0.40408780006691813,-1,-5,0.48,-0.32,,,,,,,,,,,,,,,,,,,,,,,,,,,,,,,,,,,,,,,,,,,,,,,,,,,,,,,,DK031N,train_y,red_square,bottom_right,2025-04-28_16h00.42.426,HideSeek_v1,2022.2.5,59.94729438409275,
,6,4,6,8,0,4,12,,train_dim1_1,6,30,,,,2,0,2,0,,,,,,,,,0,0,0,0,0,5,5,5,0,0,0,0,,,,,,,,,,,,,,,,,,,,,,,,,stimuli/alien_stimuli/12.png,,,,,,,,,,,,,,,,,,,,,,,,,,,,,stimuli/alien_stimuli/11.png,11,8,7,,,,,,,30,,,,,,,,1068.334762699902,1068.334762699902,1068.334762699902,1068.334762699902,1068.334762699902,up,0.6221766001544893,0,0,0,99,0.32,0.0,up,0.5409182999283075,,,,,1066.7783135999925,1068.334762699902,0.48,0.24,0.4,0.0,0.039999999999999994,0.48,0.48,0.48,0.24,1065.1936939000152,1065.1936939000152,1065.1936939000152,1065.1936939000152,1065.1936939000152,1065.1936939000152,1065.1936939000152,1065.1936939000152,1065.1936020598748,1.7035830998793244,return,1.5594954998232424,,,,,,,,,,,,,,,,,,,,,,,,,,,,,,,,,DK031N,train_y,red_square,bottom_right,2025-04-28_16h00.42.426,HideSeek_v1,2022.2.5,59.94729438409275,
,6,4,6,8,0,4,12,,train_dim1_1,6,30,,,,2,0,2,0,,,,,,,,,0,0,0,0,0,5,5,5,1,0,1,0,,,,,,,,,,,,,,,,,,,,,,,,,,,,,,,,,,,,,,,,,,,,,,,,,,,,,,,,,,,,,,,,30,,,,,,,,1068.9650018000975,1068.9650018000975,1068.9650018000975,1068.9650018000975,1068.9650018000975,up,0.4921976001933217,0,0,0,99,0.32,0.08,up,0.40577529976144433,,,,,,,,,,,,,,,,,,,,,,,,,,,,,,,,,,,,,,,,,,,,,,,,,,,,,,,,,,,,DK031N,train_y,red_square,bottom_right,2025-04-28_16h00.42.426,HideSeek_v1,2022.2.5,59.94729438409275,
,6,4,6,8,0,4,12,,train_dim1_1,6,30,,,,2,0,2,0,,,,,,,,,0,0,0,0,0,5,5,5,2,0,2,0,,,,,,,,,,,,,,,,,,,,,,,,,,,,,,,,,,,,,,,,,,,,,,,,,,,,,,,,,,,,,,,,30,,,,,,,,1069.4651592997834,1069.4651592997834,1069.4651592997834,1069.4651592997834,1069.4651592997834,up,1.6272514001466334,0,0,0,99,0.32,0.16,up,1.5435345000587404,,,,,,,,,,,,,,,,,,,,,,,,,,,,,,,,,,,,,,,,,,,,,,,,,,,,,,,,,,,,DK031N,train_y,red_square,bottom_right,2025-04-28_16h00.42.426,HideSeek_v1,2022.2.5,59.94729438409275,
,6,4,6,8,0,4,12,,train_dim1_1,6,30,,,,2,0,2,0,,,,,,,,,0,0,0,0,0,5,5,5,3,0,3,0,,,,,,,,,,,,,,,,,,,,,,,,,,,,,,,,,,,,,,,,,,,,,,,,,,,,,,,,,,,,,,,,30,,,,,,,,1071.0986903999,1071.0986903999,1071.0986903999,1071.0986903999,1071.0986903999,return,3.0619936999864876,0,1,0,0,0.32,0.16,return,2.9825888997875154,2,-5,0.32,0.16,,,,,,,,,,,,,,,,,,,,,,,,,,,,,,,,,,,,,,,,,,,,,,,,,,,,,,,,DK031N,train_y,red_square,bottom_right,2025-04-28_16h00.42.426,HideSeek_v1,2022.2.5,59.94729438409275,
,6,3,6,6,0,3,13,,train_dim1_1,7,30,,,,2,0,2,0,,,,,,,,,0,0,0,0,0,6,6,6,0,0,0,0,,,,,,,,,,,,,,,,,,,,,,,,,stimuli/alien_stimuli/13.png,,,,,,,,,,,,,,,,,,,,,,,,,,,,,stimuli/alien_stimuli/12.png,12,6,8,,,,,,,30,,,,,,,,1087.6052613998763,1087.6052613998763,1087.6052613998763,1087.6052613998763,1087.6052613998763,left,1.1532835001125932,0,1,0,99,0.24,-0.16,left,1.0447211996652186,,,,,1086.0273796999827,1087.6052613998763,0.32,0.24,0.32,0.0,0.07999999999999999,0.32,0.32,0.32,0.24,1075.7238982999697,1075.7238982999697,1075.7238982999697,1075.7238982999697,1075.7238982999697,1075.7238982999697,1075.7238982999697,1075.7238982999697,1075.718980689859,10.4107164000161,return,10.28203779971227,,,,,,,,,,,,,,,,,,,,,,,,,,,,,,,,,DK031N,train_y,red_square,bottom_right,2025-04-28_16h00.42.426,HideSeek_v1,2022.2.5,59.94729438409275,
,6,3,6,6,0,3,13,,train_dim1_1,7,30,,,,2,0,2,0,,,,,,,,,0,0,0,0,0,6,6,6,1,0,1,0,,,,,,,,,,,,,,,,,,,,,,,,,,,,,,,,,,,,,,,,,,,,,,,,,,,,,,,,,,,,,,,,30,,,,,,,,1088.7472262000665,1088.7472262000665,1088.7472262000665,1088.7472262000665,1088.7472262000665,right,1.2599806999787688,0,1,0,99,0.32,-0.16,right,1.175810399465263,,,,,,,,,,,,,,,,,,,,,,,,,,,,,,,,,,,,,,,,,,,,,,,,,,,,,,,,,,,,DK031N,train_y,red_square,bottom_right,2025-04-28_16h00.42.426,HideSeek_v1,2022.2.5,59.94729438409275,
,6,3,6,6,0,3,13,,train_dim1_1,7,30,,,,2,0,2,0,,,,,,,,,0,0,0,0,0,6,6,6,2,0,2,0,,,,,,,,,,,,,,,,,,,,,,,,,,,,,,,,,,,,,,,,,,,,,,,,,,,,,,,,,,,,,,,,30,,,,,,,,1090.0154932001606,1090.0154932001606,1090.0154932001606,1090.0154932001606,1090.0154932001606,up,0.3758010999299586,0,1,0,99,0.32,-0.08,up,0.2896924000233412,,,,,,,,,,,,,,,,,,,,,,,,,,,,,,,,,,,,,,,,,,,,,,,,,,,,,,,,,,,,DK031N,train_y,red_square,bottom_right,2025-04-28_16h00.42.426,HideSeek_v1,2022.2.5,59.94729438409275,
,6,3,6,6,0,3,13,,train_dim1_1,7,30,,,,2,0,2,0,,,,,,,,,0,0,0,0,0,6,6,6,3,0,3,0,,,,,,,,,,,,,,,,,,,,,,,,,,,,,,,,,,,,,,,,,,,,,,,,,,,,,,,,,,,,,,,,30,,,,,,,,1090.3972335001454,1090.3972335001454,1090.3972335001454,1090.3972335001454,1090.3972335001454,up,0.3097365000285208,0,1,0,99,0.32,0.0,up,0.21862149983644485,,,,,,,,,,,,,,,,,,,,,,,,,,,,,,,,,,,,,,,,,,,,,,,,,,,,,,,,,,,,DK031N,train_y,red_square,bottom_right,2025-04-28_16h00.42.426,HideSeek_v1,2022.2.5,59.94729438409275,
,6,3,6,6,0,3,13,,train_dim1_1,7,30,,,,2,0,2,0,,,,,,,,,0,0,0,0,0,6,6,6,4,0,4,0,,,,,,,,,,,,,,,,,,,,,,,,,,,,,,,,,,,,,,,,,,,,,,,,,,,,,,,,,,,,,,,,30,,,,,,,,1090.7152434000745,1090.7152434000745,1090.7152434000745,1090.7152434000745,1090.7152434000745,down,1.7774464003741741,0,1,0,99,0.32,-0.08,down,1.6900699995458126,,,,,,,,,,,,,,,,,,,,,,,,,,,,,,,,,,,,,,,,,,,,,,,,,,,,,,,,,,,,DK031N,train_y,red_square,bottom_right,2025-04-28_16h00.42.426,HideSeek_v1,2022.2.5,59.94729438409275,
,6,3,6,6,0,3,13,,train_dim1_1,7,30,,,,2,0,2,0,,,,,,,,,0,0,0,0,0,6,6,6,5,0,5,0,,,,,,,,,,,,,,,,,,,,,,,,,,,,,,,,,,,,,,,,,,,,,,,,,,,,,,,,,,,,,,,,30,,,,,,,,1092.5006411001086,1092.5006411001086,1092.5006411001086,1092.5006411001086,1092.5006411001086,return,0.276413899846375,0,0,0,0,0.32,-0.08,return,0.19007840007543564,3,-5,0.32,-0.08,,,,,,,,,,,,,,,,,,,,,,,,,,,,,,,,,,,,,,,,,,,,,,,,,,,,,,,,DK031N,train_y,red_square,bottom_right,2025-04-28_16h00.42.426,HideSeek_v1,2022.2.5,59.94729438409275,
,9,2,9,7,0,5,11,,train_dim1_1,8,30,,,,2,0,2,0,,,,,,,,,0,0,0,0,0,7,7,7,0,0,0,0,,,,,,,,,,,,,,,,,,,,,,,,,stimuli/alien_stimuli/11.png,,,,,,,,,,,,,,,,,,,,,,,,,,,,,stimuli/alien_stimuli/13.png,13,6,9,,,,,,,30,,,,,,,,1098.2927133999765,1098.2927133999765,1098.2927133999765,1098.2927133999765,1098.2927133999765,left,1.7564433999359608,0,0,0,99,0.48000000000000004,-0.24,left,1.669922700151801,,,,,1096.7363613997586,1098.2927133999765,0.32,0.08,0.24,0.0,-0.04,0.32,0.32,0.32,0.08,1094.35237579979,1094.35237579979,1094.35237579979,1094.35237579979,1094.35237579979,1094.35237579979,1094.35237579979,1094.35237579979,1094.3511803600938,2.504461500328034,return,2.362409300170839,,,,,,,,,,,,,,,,,,,,,,,,,,,,,,,,,DK031N,train_y,red_square,bottom_right,2025-04-28_16h00.42.426,HideSeek_v1,2022.2.5,59.94729438409275,
,9,2,9,7,0,5,11,,train_dim1_1,8,30,,,,2,0,2,0,,,,,,,,,0,0,0,0,0,7,7,7,1,0,1,0,,,,,,,,,,,,,,,,,,,,,,,,,,,,,,,,,,,,,,,,,,,,,,,,,,,,,,,,,,,,,,,,30,,,,,,,,1100.0566432997584,1100.0566432997584,1100.0566432997584,1100.0566432997584,1100.0566432997584,left,1.3433777997270226,0,0,0,99,0.4,-0.24,left,1.2545134997926652,,,,,,,,,,,,,,,,,,,,,,,,,,,,,,,,,,,,,,,,,,,,,,,,,,,,,,,,,,,,DK031N,train_y,red_square,bottom_right,2025-04-28_16h00.42.426,HideSeek_v1,2022.2.5,59.94729438409275,
,9,2,9,7,0,5,11,,train_dim1_1,8,30,,,,2,0,2,0,,,,,,,,,0,0,0,0,0,7,7,7,2,0,2,0,,,,,,,,,,,,,,,,,,,,,,,,,,,,,,,,,,,,,,,,,,,,,,,,,,,,,,,,,,,,,,,,30,,,,,,,,1101.4070108998567,1101.4070108998567,1101.4070108998567,1101.4070108998567,1101.4070108998567,left,1.7778924000449479,0,0,0,99,0.32,-0.24,left,1.6967708999291062,,,,,,,,,,,,,,,,,,,,,,,,,,,,,,,,,,,,,,,,,,,,,,,,,,,,,,,,,,,,DK031N,train_y,red_square,bottom_right,2025-04-28_16h00.42.426,HideSeek_v1,2022.2.5,59.94729438409275,
,9,2,9,7,0,5,11,,train_dim1_1,8,30,,,,2,0,2,0,,,,,,,,,0,0,0,0,0,7,7,7,3,0,3,0,,,,,,,,,,,,,,,,,,,,,,,,,,,,,,,,,,,,,,,,,,,,,,,,,,,,,,,,,,,,,,,,30,,,,,,,,1103.1989412000403,1103.1989412000403,1103.1989412000403,1103.1989412000403,1103.1989412000403,left,0.3881907002069056,0,0,0,99,0.24,-0.24,left,0.3051748997531831,,,,,,,,,,,,,,,,,,,,,,,,,,,,,,,,,,,,,,,,,,,,,,,,,,,,,,,,,,,,DK031N,train_y,red_square,bottom_right,2025-04-28_16h00.42.426,HideSeek_v1,2022.2.5,59.94729438409275,
,9,2,9,7,0,5,11,,train_dim1_1,8,30,,,,2,0,2,0,,,,,,,,,0,0,0,0,0,7,7,7,4,0,4,0,,,,,,,,,,,,,,,,,,,,,,,,,,,,,,,,,,,,,,,,,,,,,,,,,,,,,,,,,,,,,,,,30,,,,,,,,1103.5927871000022,1103.5927871000022,1103.5927871000022,1103.5927871000022,1103.5927871000022,return,0.37635000003501773,0,0,0,0,0.24,-0.24,return,0.28440169990062714,3,-9,0.24,-0.24,,,,,,,,,,,,,,,,,,,,,,,,,,,,,,,,,,,,,,,,,,,,,,,,,,,,,,,,DK031N,train_y,red_square,bottom_right,2025-04-28_16h00.42.426,HideSeek_v1,2022.2.5,59.94729438409275,
,9,3,9,4,0,1,15,,train_dim1_1,9,30,,,,2,0,2,0,,,,,,,,,0,0,0,0,0,8,8,8,0,0,0,0,,,,,,,,,,,,,,,,,,,,,,,,,stimuli/alien_stimuli/15.png,,,,,,,,,,,,,,,,,,,,,,,,,,,,,stimuli/alien_stimuli/11.png,11,9,10,,,,,,,30,,,,,,,,1109.3342976998538,1109.3342976998538,1109.3342976998538,1109.3342976998538,1109.3342976998538,up,0.44014309998601675,0,0,0,99,0.56,-0.08,up,0.3522839001379907,,,,,1107.7790187001228,1109.3342976998538,0.56,0.16,0.4,0.0,-0.039999999999999994,0.56,0.56,0.56,0.16,1105.5449351998977,1105.5449351998977,1105.5449351998977,1105.5449351998977,1105.5449351998977,1105.5449351998977,1105.5449351998977,1105.5449351998977,1105.5438971597703,2.353900299873203,return,2.208262899890542,,,,,,,,,,,,,,,,,,,,,,,,,,,,,,,,,DK031N,train_y,red_square,bottom_right,2025-04-28_16h00.42.426,HideSeek_v1,2022.2.5,59.94729438409275,
,9,3,9,4,0,1,15,,train_dim1_1,9,30,,,,2,0,2,0,,,,,,,,,0,0,0,0,0,8,8,8,1,0,1,0,,,,,,,,,,,,,,,,,,,,,,,,,,,,,,,,,,,,,,,,,,,,,,,,,,,,,,,,,,,,,,,,30,,,,,,,,1109.7820546999574,1109.7820546999574,1109.7820546999574,1109.7820546999574,1109.7820546999574,up,0.6092404001392424,0,0,0,99,0.56,0.0,up,0.5259078000672162,,,,,,,,,,,,,,,,,,,,,,,,,,,,,,,,,,,,,,,,,,,,,,,,,,,,,,,,,,,,DK031N,train_y,red_square,bottom_right,2025-04-28_16h00.42.426,HideSeek_v1,2022.2.5,59.94729438409275,
,9,3,9,4,0,1,15,,train_dim1_1,9,30,,,,2,0,2,0,,,,,,,,,0,0,0,0,0,8,8,8,2,0,2,0,,,,,,,,,,,,,,,,,,,,,,,,,,,,,,,,,,,,,,,,,,,,,,,,,,,,,,,,,,,,,,,,30,,,,,,,,1110.3993381001055,1110.3993381001055,1110.3993381001055,1110.3993381001055,1110.3993381001055,down,1.861134400125593,0,0,0,99,0.56,-0.08,down,1.7795096999034286,,,,,,,,,,,,,,,,,,,,,,,,,,,,,,,,,,,,,,,,,,,,,,,,,,,,,,,,,,,,DK031N,train_y,red_square,bottom_right,2025-04-28_16h00.42.426,HideSeek_v1,2022.2.5,59.94729438409275,
,9,3,9,4,0,1,15,,train_dim1_1,9,30,,,,2,0,2,0,,,,,,,,,0,0,0,0,0,8,8,8,3,0,3,0,,,,,,,,,,,,,,,,,,,,,,,,,,,,,,,,,,,,,,,,,,,,,,,,,,,,,,,,,,,,,,,,30,,,,,,,,1112.2676772000268,1112.2676772000268,1112.2676772000268,1112.2676772000268,1112.2676772000268,return,0.45939619978889823,1,0,0,1,0.56,-0.08,return,0.36886809952557087,4,-9,0.56,-0.08,,,,,,,,,,,,,,,,,,,,,,,,,,,,,,,,,,,,,,,,,,,,,,,,,,,,,,,,DK031N,train_y,red_square,bottom_right,2025-04-28_16h00.42.426,HideSeek_v1,2022.2.5,59.94729438409275,
,7,2,7,2,0,0,16,,train_dim1_1,10,30,,,,2,0,2,0,,,,,,,,,0,0,0,0,0,9,9,9,0,0,0,0,,,,,,,,,,,,,,,,,,,,,,,,,stimuli/alien_stimuli/16.png,,,,,,,,,,,,,,,,,,,,,,,,,,,,,stimuli/alien_stimuli/15.png,15,9,11,,,,,,,30,,,,,,,,1117.8948526000604,1117.8948526000604,1117.8948526000604,1117.8948526000604,1117.8948526000604,down,1.2030964000150561,1,0,0,99,0.4,-0.32,down,1.1116039999760687,,,,,1116.3360040001571,1117.8948526000604,0.56,-0.08,0.08,0.0,-0.12,0.56,0.56,0.56,-0.08,1114.2889100997709,1114.2889100997709,1114.2889100997709,1114.2889100997709,1114.2889100997709,1114.2889100997709,1114.2889100997709,1114.2889100997709,1114.2844258899336,2.153646499849856,return,2.0256049996241927,,,,,,,,,,,,,,,,,,,,,,,,,,,,,,,,,DK031N,train_y,red_square,bottom_right,2025-04-28_16h00.42.426,HideSeek_v1,2022.2.5,59.94729438409275,
,7,2,7,2,0,0,16,,train_dim1_1,10,30,,,,2,0,2,0,,,,,,,,,0,0,0,0,0,9,9,9,1,0,1,0,,,,,,,,,,,,,,,,,,,,,,,,,,,,,,,,,,,,,,,,,,,,,,,,,,,,,,,,,,,,,,,,30,,,,,,,,1119.1059710001573,1119.1059710001573,1119.1059710001573,1119.1059710001573,1119.1059710001573,return,0.3760194997303188,1,1,0,0,0.4,-0.32,return,0.29848730005323887,3,-9,0.4,-0.32,,,,,,,,,,,,,,,,,,,,,,,,,,,,,,,,,,,,,,,,,,,,,,,,,,,,,,,,DK031N,train_y,red_square,bottom_right,2025-04-28_16h00.42.426,HideSeek_v1,2022.2.5,59.94729438409275,
,9,1,9,2,0,1,15,,train_dim1_1,11,30,,,,2,0,2,0,,,,,,,,,0,0,0,0,0,10,10,10,0,0,0,0,,,,,,,,,,,,,,,,,,,,,,,,,stimuli/alien_stimuli/15.png,,,,,,,,,,,,,,,,,,,,,,,,,,,,,stimuli/alien_stimuli/16.png,16,7,12,,,,,,,30,,,,,,,,1126.5682900999673,1126.5682900999673,1126.5682900999673,1126.5682900999673,1126.5682900999673,up,0.7208670997060835,1,1,0,99,0.56,-0.24,up,0.6371248997747898,,,,,1125.0098135997541,1126.5682900999673,0.4,-0.24,0.0,0.0,-0.24,0.4,0.4,0.4,-0.24,1121.041396500077,1121.041396500077,1121.041396500077,1121.041396500077,1121.041396500077,1121.041396500077,1121.041396500077,1121.041396500077,1121.0399791899604,4.072499200236052,return,3.951832599937916,,,,,,,,,,,,,,,,,,,,,,,,,,,,,,,,,DK031N,train_y,red_square,bottom_right,2025-04-28_16h00.42.426,HideSeek_v1,2022.2.5,59.94729438409275,
,9,1,9,2,0,1,15,,train_dim1_1,11,30,,,,2,0,2,0,,,,,,,,,0,0,0,0,0,10,10,10,1,0,1,0,,,,,,,,,,,,,,,,,,,,,,,,,,,,,,,,,,,,,,,,,,,,,,,,,,,,,,,,,,,,,,,,30,,,,,,,,1127.2994396998547,1127.2994396998547,1127.2994396998547,1127.2994396998547,1127.2994396998547,up,1.4247946999967098,1,1,0,99,0.56,-0.15999999999999998,up,1.3347069998271763,,,,,,,,,,,,,,,,,,,,,,,,,,,,,,,,,,,,,,,,,,,,,,,,,,,,,,,,,,,,DK031N,train_y,red_square,bottom_right,2025-04-28_16h00.42.426,HideSeek_v1,2022.2.5,59.94729438409275,
,9,1,9,2,0,1,15,,train_dim1_1,11,30,,,,2,0,2,0,,,,,,,,,0,0,0,0,0,10,10,10,2,0,2,0,,,,,,,,,,,,,,,,,,,,,,,,,,,,,,,,,,,,,,,,,,,,,,,,,,,,,,,,,,,,,,,,30,,,,,,,,1128.731163599994,1128.731163599994,1128.731163599994,1128.731163599994,1128.731163599994,down,1.0266884001903236,1,1,0,99,0.56,-0.24,down,0.9369009002111852,,,,,,,,,,,,,,,,,,,,,,,,,,,,,,,,,,,,,,,,,,,,,,,,,,,,,,,,,,,,DK031N,train_y,red_square,bottom_right,2025-04-28_16h00.42.426,HideSeek_v1,2022.2.5,59.94729438409275,
,9,1,9,2,0,1,15,,train_dim1_1,11,30,,,,2,0,2,0,,,,,,,,,0,0,0,0,0,10,10,10,3,0,3,0,,,,,,,,,,,,,,,,,,,,,,,,,,,,,,,,,,,,,,,,,,,,,,,,,,,,,,,,,,,,,,,,30,,,,,,,,1129.7662761001848,1129.7662761001848,1129.7662761001848,1129.7662761001848,1129.7662761001848,up,0.7590370997786522,1,1,0,99,0.56,-0.15999999999999998,up,0.6814653999172151,,,,,,,,,,,,,,,,,,,,,,,,,,,,,,,,,,,,,,,,,,,,,,,,,,,,,,,,,,,,DK031N,train_y,red_square,bottom_right,2025-04-28_16h00.42.426,HideSeek_v1,2022.2.5,59.94729438409275,
,9,1,9,2,0,1,15,,train_dim1_1,11,30,,,,2,0,2,0,,,,,,,,,0,0,0,0,0,10,10,10,4,0,4,0,,,,,,,,,,,,,,,,,,,,,,,,,,,,,,,,,,,,,,,,,,,,,,,,,,,,,,,,,,,,,,,,30,,,,,,,,1130.5350486999378,1130.5350486999378,1130.5350486999378,1130.5350486999378,1130.5350486999378,up,0.5919797997921705,1,1,0,99,0.56,-0.07999999999999997,up,0.4994783001020551,,,,,,,,,,,,,,,,,,,,,,,,,,,,,,,,,,,,,,,,,,,,,,,,,,,,,,,,,,,,DK031N,train_y,red_square,bottom_right,2025-04-28_16h00.42.426,HideSeek_v1,2022.2.5,59.94729438409275,
,9,1,9,2,0,1,15,,train_dim1_1,11,30,,,,2,0,2,0,,,,,,,,,0,0,0,0,0,10,10,10,5,0,5,0,,,,,,,,,,,,,,,,,,,,,,,,,,,,,,,,,,,,,,,,,,,,,,,,,,,,,,,,,,,,,,,,30,,,,,,,,1131.1336269997992,1131.1336269997992,1131.1336269997992,1131.1336269997992,1131.1336269997992,return,0.39315180014818907,1,0,0,0,0.56,-0.07999999999999997,return,0.30442170007154346,6,-9,0.56,-0.07999999999999997,,,,,,,,,,,,,,,,,,,,,,,,,,,,,,,,,,,,,,,,,,,,,,,,,,,,,,,,DK031N,train_y,red_square,bottom_right,2025-04-28_16h00.42.426,HideSeek_v1,2022.2.5,59.94729438409275,
,5,0,5,5,0,5,11,,train_dim1_1,12,30,,,,2,0,2,0,,,,,,,,,0,0,0,0,0,11,11,11,0,0,0,0,,,,,,,,,,,,,,,,,,,,,,,,,stimuli/alien_stimuli/11.png,,,,,,,,,,,,,,,,,,,,,,,,,,,,,stimuli/alien_stimuli/15.png,15,9,13,,,,,,,30,,,,,,,,1136.242724900134,1136.242724900134,1136.242724900134,1136.242724900134,1136.242724900134,up,0.6378847002051771,1,0,0,99,0.24,-0.32,up,0.5583601002581418,,,,,1134.6845696000382,1136.242724900134,0.56,-0.24,0.08,0.0,-0.28,0.56,0.56,0.56,-0.24,1133.0989272999577,1133.0989272999577,1133.0989272999577,1133.0989272999577,1133.0989272999577,1133.0989272999577,1133.0989272999577,1133.0989272999577,1133.0998401599006,1.7038086000829935,return,1.5683098998852074,,,,,,,,,,,,,,,,,,,,,,,,,,,,,,,,,DK031N,train_y,red_square,bottom_right,2025-04-28_16h00.42.426,HideSeek_v1,2022.2.5,59.94729438409275,
,5,0,5,5,0,5,11,,train_dim1_1,12,30,,,,2,0,2,0,,,,,,,,,0,0,0,0,0,11,11,11,1,0,1,0,,,,,,,,,,,,,,,,,,,,,,,,,,,,,,,,,,,,,,,,,,,,,,,,,,,,,,,,,,,,,,,,30,,,,,,,,1136.8875369997695,1136.8875369997695,1136.8875369997695,1136.8875369997695,1136.8875369997695,up,1.309756999835372,1,0,0,99,0.24,-0.24,up,1.2282502995803952,,,,,,,,,,,,,,,,,,,,,,,,,,,,,,,,,,,,,,,,,,,,,,,,,,,,,,,,,,,,DK031N,train_y,red_square,bottom_right,2025-04-28_16h00.42.426,HideSeek_v1,2022.2.5,59.94729438409275,
,5,0,5,5,0,5,11,,train_dim1_1,12,30,,,,2,0,2,0,,,,,,,,,0,0,0,0,0,11,11,11,2,0,2,0,,,,,,,,,,,,,,,,,,,,,,,,,,,,,,,,,,,,,,,,,,,,,,,,,,,,,,,,,,,,,,,,30,,,,,,,,1138.204157799948,1138.204157799948,1138.204157799948,1138.204157799948,1138.204157799948,down,0.36001709988340735,1,0,0,99,0.24,-0.32,down,0.28341769985854626,,,,,,,,,,,,,,,,,,,,,,,,,,,,,,,,,,,,,,,,,,,,,,,,,,,,,,,,,,,,DK031N,train_y,red_square,bottom_right,2025-04-28_16h00.42.426,HideSeek_v1,2022.2.5,59.94729438409275,
,5,0,5,5,0,5,11,,train_dim1_1,12,30,,,,2,0,2,0,,,,,,,,,0,0,0,0,0,11,11,11,3,0,3,0,,,,,,,,,,,,,,,,,,,,,,,,,,,,,,,,,,,,,,,,,,,,,,,,,,,,,,,,,,,,,,,,30,,,,,,,,1138.57199029997,1138.57199029997,1138.57199029997,1138.57199029997,1138.57199029997,up,0.6928195003420115,1,0,0,99,0.24,-0.24,up,0.612690799869597,,,,,,,,,,,,,,,,,,,,,,,,,,,,,,,,,,,,,,,,,,,,,,,,,,,,,,,,,,,,DK031N,train_y,red_square,bottom_right,2025-04-28_16h00.42.426,HideSeek_v1,2022.2.5,59.94729438409275,
,5,0,5,5,0,5,11,,train_dim1_1,12,30,,,,2,0,2,0,,,,,,,,,0,0,0,0,0,11,11,11,4,0,4,0,,,,,,,,,,,,,,,,,,,,,,,,,,,,,,,,,,,,,,,,,,,,,,,,,,,,,,,,,,,,,,,,30,,,,,,,,1139.272859599907,1139.272859599907,1139.272859599907,1139.272859599907,1139.272859599907,return,0.3598189000040293,1,0,0,0,0.24,-0.24,return,0.27068209974095225,8,-9,0.24,-0.24,,,,,,,,,,,,,,,,,,,,,,,,,,,,,,,,,,,,,,,,,,,,,,,,,,,,,,,,DK031N,train_y,red_square,bottom_right,2025-04-28_16h00.42.426,HideSeek_v1,2022.2.5,59.94729438409275,
,9,3,9,7,0,4,12,,train_dim1_1,13,30,,,,2,0,2,0,,,,,,,,,0,0,0,0,0,12,12,12,0,0,0,0,,,,,,,,,,,,,,,,,,,,,,,,,stimuli/alien_stimuli/12.png,,,,,,,,,,,,,,,,,,,,,,,,,,,,,stimuli/alien_stimuli/11.png,11,5,14,,,,,,,30,,,,,,,,1145.1827426999807,1145.1827426999807,1145.1827426999807,1145.1827426999807,1145.1827426999807,up,0.6042754002846777,1,0,0,99,0.56,-0.08,up,0.5176832997240126,,,,,1143.6251833001152,1145.1827426999807,0.24,0,0.4,0.0,-0.2,0.24,0.24,0.24,0,1141.1925097000785,1141.1925097000785,1141.1925097000785,1141.1925097000785,1141.1925097000785,1141.1925097000785,1141.1925097000785,1141.1925097000785,1141.1899223899004,2.5375870000571012,return,2.4046259000897408,,,,,,,,,,,,,,,,,,,,,,,,,,,,,,,,,DK031N,train_y,red_square,bottom_right,2025-04-28_16h00.42.426,HideSeek_v1,2022.2.5,59.94729438409275,
,9,3,9,7,0,4,12,,train_dim1_1,13,30,,,,2,0,2,0,,,,,,,,,0,0,0,0,0,12,12,12,1,0,1,0,,,,,,,,,,,,,,,,,,,,,,,,,,,,,,,,,,,,,,,,,,,,,,,,,,,,,,,,,,,,,,,,30,,,,,,,,1145.7990136998706,1145.7990136998706,1145.7990136998706,1145.7990136998706,1145.7990136998706,up,0.4900508001446724,1,0,0,99,0.56,0.0,up,0.3969465000554919,,,,,,,,,,,,,,,,,,,,,,,,,,,,,,,,,,,,,,,,,,,,,,,,,,,,,,,,,,,,DK031N,train_y,red_square,bottom_right,2025-04-28_16h00.42.426,HideSeek_v1,2022.2.5,59.94729438409275,
,9,3,9,7,0,4,12,,train_dim1_1,13,30,,,,2,0,2,0,,,,,,,,,0,0,0,0,0,12,12,12,2,0,2,0,,,,,,,,,,,,,,,,,,,,,,,,,,,,,,,,,,,,,,,,,,,,,,,,,,,,,,,,,,,,,,,,30,,,,,,,,1146.295902399812,1146.295902399812,1146.295902399812,1146.295902399812,1146.295902399812,up,0.9932829001918435,1,0,0,99,0.56,0.08,up,0.9043634999543428,,,,,,,,,,,,,,,,,,,,,,,,,,,,,,,,,,,,,,,,,,,,,,,,,,,,,,,,,,,,DK031N,train_y,red_square,bottom_right,2025-04-28_16h00.42.426,HideSeek_v1,2022.2.5,59.94729438409275,
,9,3,9,7,0,4,12,,train_dim1_1,13,30,,,,2,0,2,0,,,,,,,,,0,0,0,0,0,12,12,12,3,0,3,0,,,,,,,,,,,,,,,,,,,,,,,,,,,,,,,,,,,,,,,,,,,,,,,,,,,,,,,,,,,,,,,,30,,,,,,,,1147.2961213998497,1147.2961213998497,1147.2961213998497,1147.2961213998497,1147.2961213998497,up,1.6275728000327945,1,0,0,99,0.56,0.16,up,1.5397231997922063,,,,,,,,,,,,,,,,,,,,,,,,,,,,,,,,,,,,,,,,,,,,,,,,,,,,,,,,,,,,DK031N,train_y,red_square,bottom_right,2025-04-28_16h00.42.426,HideSeek_v1,2022.2.5,59.94729438409275,
,9,3,9,7,0,4,12,,train_dim1_1,13,30,,,,2,0,2,0,,,,,,,,,0,0,0,0,0,12,12,12,4,0,4,0,,,,,,,,,,,,,,,,,,,,,,,,,,,,,,,,,,,,,,,,,,,,,,,,,,,,,,,,,,,,,,,,30,,,,,,,,1148.9318075999618,1148.9318075999618,1148.9318075999618,1148.9318075999618,1148.9318075999618,return,0.625634300056845,2,0,0,1,0.56,0.16,return,0.5420081000775099,12,-9,0.56,0.16,,,,,,,,,,,,,,,,,,,,,,,,,,,,,,,,,,,,,,,,,,,,,,,,,,,,,,,,DK031N,train_y,red_square,bottom_right,2025-04-28_16h00.42.426,HideSeek_v1,2022.2.5,59.94729438409275,
,7,2,7,2,0,0,16,,train_dim1_1,14,30,,,,2,0,2,0,,,,,,,,,0,0,0,0,0,13,13,13,0,0,0,0,,,,,,,,,,,,,,,,,,,,,,,,,stimuli/alien_stimuli/16.png,,,,,,,,,,,,,,,,,,,,,,,,,,,,,stimuli/alien_stimuli/12.png,12,9,15,,,,,,,30,,,,,,,,1154.8277612999082,1154.8277612999082,1154.8277612999082,1154.8277612999082,1154.8277612999082,up,0.5670950002968311,2,0,0,99,0.4,-0.15999999999999998,up,0.4890357996337116,,,,,1153.2666446999647,1154.8277612999082,0.56,0.16,0.32,0.0,0.0,0.56,0.56,0.56,0.16,1151.1181200998835,1151.1181200998835,1151.1181200998835,1151.1181200998835,1151.1181200998835,1151.1181200998835,1151.1181200998835,1151.1181200998835,1151.1150482900907,2.254231399856508,return,2.1298859999515116,,,,,,,,,,,,,,,,,,,,,,,,,,,,,,,,,DK031N,train_y,red_square,bottom_right,2025-04-28_16h00.42.426,HideSeek_v1,2022.2.5,59.94729438409275,
,7,2,7,2,0,0,16,,train_dim1_1,14,30,,,,2,0,2,0,,,,,,,,,0,0,0,0,0,13,13,13,1,0,1,0,,,,,,,,,,,,,,,,,,,,,,,,,,,,,,,,,,,,,,,,,,,,,,,,,,,,,,,,,,,,,,,,30,,,,,,,,1155.4027777998708,1155.4027777998708,1155.4027777998708,1155.4027777998708,1155.4027777998708,down,1.493701099883765,2,0,0,99,0.4,-0.24,down,1.4037154000252485,,,,,,,,,,,,,,,,,,,,,,,,,,,,,,,,,,,,,,,,,,,,,,,,,,,,,,,,,,,,DK031N,train_y,red_square,bottom_right,2025-04-28_16h00.42.426,HideSeek_v1,2022.2.5,59.94729438409275,
,7,2,7,2,0,0,16,,train_dim1_1,14,30,,,,2,0,2,0,,,,,,,,,0,0,0,0,0,13,13,13,2,0,2,0,,,,,,,,,,,,,,,,,,,,,,,,,,,,,,,,,,,,,,,,,,,,,,,,,,,,,,,,,,,,,,,,30,,,,,,,,1156.9043645998463,1156.9043645998463,1156.9043645998463,1156.9043645998463,1156.9043645998463,return,0.3593101999722421,3,0,0,1,0.4,-0.24,return,0.2707092994824052,12,-9,0.4,-0.24,,,,,,,,,,,,,,,,,,,,,,,,,,,,,,,,,,,,,,,,,,,,,,,,,,,,,,,,DK031N,train_y,red_square,bottom_right,2025-04-28_16h00.42.426,HideSeek_v1,2022.2.5,59.94729438409275,
,6,4,6,7,0,3,13,,train_dim1_1,15,30,,,,2,0,2,0,,,,,,,,,0,0,0,0,0,14,14,14,0,0,0,0,,,,,,,,,,,,,,,,,,,,,,,,,stimuli/alien_stimuli/13.png,,,,,,,,,,,,,,,,,,,,,,,,,,,,,stimuli/alien_stimuli/16.png,16,7,16,,,,,,,30,,,,,,,,1162.463520700112,1162.463520700112,1162.463520700112,1162.463520700112,1162.463520700112,up,0.8876288998872042,3,0,0,99,0.32,0.0,up,0.8100841995328665,,,,,1160.906180900056,1162.463520700112,0.4,-0.24,0.0,0.0,-0.24,0.4,0.4,0.4,-0.24,1158.8193354997784,1158.8193354997784,1158.8193354997784,1158.8193354997784,1158.8193354997784,1158.8193354997784,1158.8193354997784,1158.8193354997784,1158.8211613901426,2.1870599002577364,return,2.0605181995779276,,,,,,,,,,,,,,,,,,,,,,,,,,,,,,,,,DK031N,train_y,red_square,bottom_right,2025-04-28_16h00.42.426,HideSeek_v1,2022.2.5,59.94729438409275,
,6,4,6,7,0,3,13,,train_dim1_1,15,30,,,,2,0,2,0,,,,,,,,,0,0,0,0,0,14,14,14,1,0,1,0,,,,,,,,,,,,,,,,,,,,,,,,,,,,,,,,,,,,,,,,,,,,,,,,,,,,,,,,,,,,,,,,30,,,,,,,,1163.3581540999003,1163.3581540999003,1163.3581540999003,1163.3581540999003,1163.3581540999003,up,1.9941455000080168,3,0,0,99,0.32,0.08,up,1.9186752997338772,,,,,,,,,,,,,,,,,,,,,,,,,,,,,,,,,,,,,,,,,,,,,,,,,,,,,,,,,,,,DK031N,train_y,red_square,bottom_right,2025-04-28_16h00.42.426,HideSeek_v1,2022.2.5,59.94729438409275,
,6,4,6,7,0,3,13,,train_dim1_1,15,30,,,,2,0,2,0,,,,,,,,,0,0,0,0,0,14,14,14,2,0,2,0,,,,,,,,,,,,,,,,,,,,,,,,,,,,,,,,,,,,,,,,,,,,,,,,,,,,,,,,,,,,,,,,30,,,,,,,,1165.3630415997468,1165.3630415997468,1165.3630415997468,1165.3630415997468,1165.3630415997468,up,0.4571581003256142,3,0,0,99,0.32,0.16,up,0.3685703999362886,,,,,,,,,,,,,,,,,,,,,,,,,,,,,,,,,,,,,,,,,,,,,,,,,,,,,,,,,,,,DK031N,train_y,red_square,bottom_right,2025-04-28_16h00.42.426,HideSeek_v1,2022.2.5,59.94729438409275,
,6,4,6,7,0,3,13,,train_dim1_1,15,30,,,,2,0,2,0,,,,,,,,,0,0,0,0,0,14,14,14,3,0,3,0,,,,,,,,,,,,,,,,,,,,,,,,,,,,,,,,,,,,,,,,,,,,,,,,,,,,,,,,,,,,,,,,30,,,,,,,,1165.826594099868,1165.826594099868,1165.826594099868,1165.826594099868,1165.826594099868,up,1.0936638000421226,3,0,0,99,0.32,0.24,up,1.0137000996619463,,,,,,,,,,,,,,,,,,,,,,,,,,,,,,,,,,,,,,,,,,,,,,,,,,,,,,,,,,,,DK031N,train_y,red_square,bottom_right,2025-04-28_16h00.42.426,HideSeek_v1,2022.2.5,59.94729438409275,
,6,4,6,7,0,3,13,,train_dim1_1,15,30,,,,2,0,2,0,,,,,,,,,0,0,0,0,0,14,14,14,4,0,4,0,,,,,,,,,,,,,,,,,,,,,,,,,,,,,,,,,,,,,,,,,,,,,,,,,,,,,,,,,,,,,,,,30,,,,,,,,1166.9284485001117,1166.9284485001117,1166.9284485001117,1166.9284485001117,1166.9284485001117,return,0.6093207998201251,3,1,0,0,0.32,0.24,return,0.5312001002021134,16,-9,0.32,0.24,,,,,,,,,,,,,,,,,,,,,,,,,,,,,,,,,,,,,,,,,,,,,,,,,,,,,,,,DK031N,train_y,red_square,bottom_right,2025-04-28_16h00.42.426,HideSeek_v1,2022.2.5,59.94729438409275,
,9,0,9,1,0,1,15,,train_dim1_1,16,30,,,,2,0,2,0,,,,,,,,,0,0,0,0,0,15,15,15,0,0,0,0,,,,,,,,,,,,,,,,,,,,,,,,,stimuli/alien_stimuli/15.png,,,,,,,,,,,,,,,,,,,,,,,,,,,,,stimuli/alien_stimuli/13.png,13,6,17,,,,,,,30,,,,,,,,1172.3612655997276,1172.3612655997276,1172.3612655997276,1172.3612655997276,1172.3612655997276,up,1.550462500192225,3,1,0,99,0.56,-0.32,up,1.4675668994896114,,,,,1170.7978838998824,1172.3612655997276,0.32,0.16,0.24,0.0,0.04,0.32,0.32,0.32,0.16,1169.115981800016,1169.115981800016,1169.115981800016,1169.115981800016,1169.115981800016,1169.115981800016,1169.115981800016,1169.115981800016,1169.11322945999,1.8034545998089015,return,1.659668399952352,,,,,,,,,,,,,,,,,,,,,,,,,,,,,,,,,DK031N,train_y,red_square,bottom_right,2025-04-28_16h00.42.426,HideSeek_v1,2022.2.5,59.94729438409275,
,9,0,9,1,0,1,15,,train_dim1_1,16,30,,,,2,0,2,0,,,,,,,,,0,0,0,0,0,15,15,15,1,0,1,0,,,,,,,,,,,,,,,,,,,,,,,,,,,,,,,,,,,,,,,,,,,,,,,,,,,,,,,,,,,,,,,,30,,,,,,,,1173.9181236000732,1173.9181236000732,1173.9181236000732,1173.9181236000732,1173.9181236000732,return,0.40919259982183576,4,0,0,1,0.56,-0.32,return,0.3205944998189807,17,-9,0.56,-0.32,,,,,,,,,,,,,,,,,,,,,,,,,,,,,,,,,,,,,,,,,,,,,,,,,,,,,,,,DK031N,train_y,red_square,bottom_right,2025-04-28_16h00.42.426,HideSeek_v1,2022.2.5,59.94729438409275,
,8,3,8,6,0,3,13,,train_dim1_1,17,30,,,,2,0,2,0,,,,,,,,,0,0,0,0,0,16,16,16,0,0,0,0,,,,,,,,,,,,,,,,,,,,,,,,,stimuli/alien_stimuli/13.png,,,,,,,,,,,,,,,,,,,,,,,,,,,,,stimuli/alien_stimuli/15.png,15,9,18,,,,,,,30,,,,,,,,1178.8080921997316,1178.8080921997316,1178.8080921997316,1178.8080921997316,1178.8080921997316,up,1.0730280997231603,4,0,0,99,0.48,-0.08,up,0.9816315998323262,,,,,1177.2533526001498,1178.8080921997316,0.56,-0.32,0.08,0.0,-0.36,0.56,0.56,0.56,-0.32,1175.887270099949,1175.887270099949,1175.887270099949,1175.887270099949,1175.887270099949,1175.887270099949,1175.887270099949,1175.887270099949,1175.8854814901483,1.4696873999200761,return,1.3363115997053683,,,,,,,,,,,,,,,,,,,,,,,,,,,,,,,,,DK031N,train_y,red_square,bottom_right,2025-04-28_16h00.42.426,HideSeek_v1,2022.2.5,59.94729438409275,
,8,3,8,6,0,3,13,,train_dim1_1,17,30,,,,2,0,2,0,,,,,,,,,0,0,0,0,0,16,16,16,1,0,1,0,,,,,,,,,,,,,,,,,,,,,,,,,,,,,,,,,,,,,,,,,,,,,,,,,,,,,,,,,,,,,,,,30,,,,,,,,1179.8901681997813,1179.8901681997813,1179.8901681997813,1179.8901681997813,1179.8901681997813,up,0.5425337003543973,4,0,0,99,0.48,0.0,up,0.4608399998396635,,,,,,,,,,,,,,,,,,,,,,,,,,,,,,,,,,,,,,,,,,,,,,,,,,,,,,,,,,,,DK031N,train_y,red_square,bottom_right,2025-04-28_16h00.42.426,HideSeek_v1,2022.2.5,59.94729438409275,
,8,3,8,6,0,3,13,,train_dim1_1,17,30,,,,2,0,2,0,,,,,,,,,0,0,0,0,0,16,16,16,2,0,2,0,,,,,,,,,,,,,,,,,,,,,,,,,,,,,,,,,,,,,,,,,,,,,,,,,,,,,,,,,,,,,,,,30,,,,,,,,1180.4393388000317,1180.4393388000317,1180.4393388000317,1180.4393388000317,1180.4393388000317,up,0.3093723999336362,4,0,0,99,0.48,0.08,up,0.23380920011550188,,,,,,,,,,,,,,,,,,,,,,,,,,,,,,,,,,,,,,,,,,,,,,,,,,,,,,,,,,,,DK031N,train_y,red_square,bottom_right,2025-04-28_16h00.42.426,HideSeek_v1,2022.2.5,59.94729438409275,
,8,3,8,6,0,3,13,,train_dim1_1,17,30,,,,2,0,2,0,,,,,,,,,0,0,0,0,0,16,16,16,3,0,3,0,,,,,,,,,,,,,,,,,,,,,,,,,,,,,,,,,,,,,,,,,,,,,,,,,,,,,,,,,,,,,,,,30,,,,,,,,1180.7575491000898,1180.7575491000898,1180.7575491000898,1180.7575491000898,1180.7575491000898,return,0.34281629975885153,5,0,0,1,0.48,0.08,return,0.2535554999485612,20,-9,0.48,0.08,,,,,,,,,,,,,,,,,,,,,,,,,,,,,,,,,,,,,,,,,,,,,,,,,,,,,,,,DK031N,train_y,red_square,bottom_right,2025-04-28_16h00.42.426,HideSeek_v1,2022.2.5,59.94729438409275,
,7,1,7,6,0,5,11,,train_dim1_1,18,30,,,,2,0,2,0,,,,,,,,,0,0,0,0,0,17,17,17,0,0,0,0,,,,,,,,,,,,,,,,,,,,,,,,,stimuli/alien_stimuli/11.png,,,,,,,,,,,,,,,,,,,,,,,,,,,,,stimuli/alien_stimuli/13.png,13,8,19,,,,,,,30,,,,,,,,1185.7502362998202,1185.7502362998202,1185.7502362998202,1185.7502362998202,1185.7502362998202,up,0.6534267999231815,5,0,0,99,0.4,-0.24,up,0.569637299515307,,,,,1184.1923937001266,1185.7502362998202,0.48,0.08,0.24,0.0,-0.04,0.48,0.48,0.48,0.08,1182.6588924997486,1182.6588924997486,1182.6588924997486,1182.6588924997486,1182.6588924997486,1182.6588924997486,1182.6588924997486,1182.6588924997486,1182.6579179902096,1.6367001002654433,return,1.5119685996323824,,,,,,,,,,,,,,,,,,,,,,,,,,,,,,,,,DK031N,train_y,red_square,bottom_right,2025-04-28_16h00.42.426,HideSeek_v1,2022.2.5,59.94729438409275,
,7,1,7,6,0,5,11,,train_dim1_1,18,30,,,,2,0,2,0,,,,,,,,,0,0,0,0,0,17,17,17,1,0,1,0,,,,,,,,,,,,,,,,,,,,,,,,,,,,,,,,,,,,,,,,,,,,,,,,,,,,,,,,,,,,,,,,30,,,,,,,,1186.4118662001565,1186.4118662001565,1186.4118662001565,1186.4118662001565,1186.4118662001565,up,0.3925308999605477,5,0,0,99,0.4,-0.15999999999999998,up,0.3033178001642227,,,,,,,,,,,,,,,,,,,,,,,,,,,,,,,,,,,,,,,,,,,,,,,,,,,,,,,,,,,,DK031N,train_y,red_square,bottom_right,2025-04-28_16h00.42.426,HideSeek_v1,2022.2.5,59.94729438409275,
,7,1,7,6,0,5,11,,train_dim1_1,18,30,,,,2,0,2,0,,,,,,,,,0,0,0,0,0,17,17,17,2,0,2,0,,,,,,,,,,,,,,,,,,,,,,,,,,,,,,,,,,,,,,,,,,,,,,,,,,,,,,,,,,,,,,,,30,,,,,,,,1186.812557999976,1186.812557999976,1186.812557999976,1186.812557999976,1186.812557999976,down,2.2279614000581205,5,0,0,99,0.4,-0.24,down,2.1420728000812232,,,,,,,,,,,,,,,,,,,,,,,,,,,,,,,,,,,,,,,,,,,,,,,,,,,,,,,,,,,,DK031N,train_y,red_square,bottom_right,2025-04-28_16h00.42.426,HideSeek_v1,2022.2.5,59.94729438409275,
,7,1,7,6,0,5,11,,train_dim1_1,18,30,,,,2,0,2,0,,,,,,,,,0,0,0,0,0,17,17,17,3,0,3,0,,,,,,,,,,,,,,,,,,,,,,,,,,,,,,,,,,,,,,,,,,,,,,,,,,,,,,,,,,,,,,,,30,,,,,,,,1189.0486727999523,1189.0486727999523,1189.0486727999523,1189.0486727999523,1189.0486727999523,return,0.44171309983357787,5,0,0,0,0.4,-0.24,return,0.349779199808836,21,-9,0.4,-0.24,,,,,,,,,,,,,,,,,,,,,,,,,,,,,,,,,,,,,,,,,,,,,,,,,,,,,,,,DK031N,train_y,red_square,bottom_right,2025-04-28_16h00.42.426,HideSeek_v1,2022.2.5,59.94729438409275,
,5,4,5,8,0,4,12,,train_dim1_1,19,30,,,,2,0,2,0,,,,,,,,,0,0,0,0,0,18,18,18,0,0,0,0,,,,,,,,,,,,,,,,,,,,,,,,,stimuli/alien_stimuli/12.png,,,,,,,,,,,,,,,,,,,,,,,,,,,,,stimuli/alien_stimuli/11.png,11,7,20,,,,,,,30,,,,,,,,1193.5623897998594,1193.5623897998594,1193.5623897998594,1193.5623897998594,1193.5623897998594,up,0.6826500999741256,5,0,0,99,0.24,0.0,up,0.5983082996681333,,,,,1191.9988269000314,1193.5623897998594,0.4,0.08,0.4,0.0,-0.12,0.4,0.4,0.4,0.08,1191.0477999998257,1191.0477999998257,1191.0477999998257,1191.0477999998257,1191.0477999998257,1191.0477999998257,1191.0477999998257,1191.0477999998257,1191.0481095899363,1.0531557002104819,return,0.9318959997035563,,,,,,,,,,,,,,,,,,,,,,,,,,,,,,,,,DK031N,train_y,red_square,bottom_right,2025-04-28_16h00.42.426,HideSeek_v1,2022.2.5,59.94729438409275,
,5,4,5,8,0,4,12,,train_dim1_1,19,30,,,,2,0,2,0,,,,,,,,,0,0,0,0,0,18,18,18,1,0,1,0,,,,,,,,,,,,,,,,,,,,,,,,,,,,,,,,,,,,,,,,,,,,,,,,,,,,,,,,,,,,,,,,30,,,,,,,,1194.252662600018,1194.252662600018,1194.252662600018,1194.252662600018,1194.252662600018,up,0.642875200137496,5,0,0,99,0.24,0.08,up,0.5631432998925447,,,,,,,,,,,,,,,,,,,,,,,,,,,,,,,,,,,,,,,,,,,,,,,,,,,,,,,,,,,,DK031N,train_y,red_square,bottom_right,2025-04-28_16h00.42.426,HideSeek_v1,2022.2.5,59.94729438409275,
,5,4,5,8,0,4,12,,train_dim1_1,19,30,,,,2,0,2,0,,,,,,,,,0,0,0,0,0,18,18,18,2,0,2,0,,,,,,,,,,,,,,,,,,,,,,,,,,,,,,,,,,,,,,,,,,,,,,,,,,,,,,,,,,,,,,,,30,,,,,,,,1194.9023221000098,1194.9023221000098,1194.9023221000098,1194.9023221000098,1194.9023221000098,up,0.7597893998026848,5,0,0,99,0.24,0.16,up,0.6688659996725619,,,,,,,,,,,,,,,,,,,,,,,,,,,,,,,,,,,,,,,,,,,,,,,,,,,,,,,,,,,,DK031N,train_y,red_square,bottom_right,2025-04-28_16h00.42.426,HideSeek_v1,2022.2.5,59.94729438409275,
,5,4,5,8,0,4,12,,train_dim1_1,19,30,,,,2,0,2,0,,,,,,,,,0,0,0,0,0,18,18,18,3,0,3,0,,,,,,,,,,,,,,,,,,,,,,,,,,,,,,,,,,,,,,,,,,,,,,,,,,,,,,,,,,,,,,,,30,,,,,,,,1195.6689387997612,1195.6689387997612,1195.6689387997612,1195.6689387997612,1195.6689387997612,return,0.5432597999460995,5,1,0,0,0.24,0.16,return,0.45884300023317337,24,-9,0.24,0.16,,,,,,,,,,,,,,,,,,,,,,,,,,,,,,,,,,,,,,,,,,,,,,,,,,,,,,,,DK031N,train_y,red_square,bottom_right,2025-04-28_16h00.42.426,HideSeek_v1,2022.2.5,59.94729438409275,
,7,0,7,0,0,0,16,,train_dim1_1,20,30,,,,2,0,2,0,,,,,,,,,0,0,0,0,0,19,19,19,0,0,0,0,,,,,,,,,,,,,,,,,,,,,,,,,stimuli/alien_stimuli/16.png,,,,,,,,,,,,,,,,,,,,,,,,,,,,,stimuli/alien_stimuli/12.png,12,5,21,,,,,,,30,,,,,,,,1200.3632303997874,1200.3632303997874,1200.3632303997874,1200.3632303997874,1200.3632303997874,up,0.6360405003651977,5,1,0,99,0.4,-0.32,up,0.5524826999753714,,,,,1198.8048926000483,1200.3632303997874,0.24,0.24,0.32,0.0,0.07999999999999999,0.24,0.24,0.24,0.24,1197.7698814999312,1197.7698814999312,1197.7698814999312,1197.7698814999312,1197.7698814999312,1197.7698814999312,1197.7698814999312,1197.7698814999312,1197.7703016901855,1.1366226002573967,return,1.0169790000654757,,,,,,,,,,,,,,,,,,,,,,,,,,,,,,,,,DK031N,train_y,red_square,bottom_right,2025-04-28_16h00.42.426,HideSeek_v1,2022.2.5,59.94729438409275,
,7,0,7,0,0,0,16,,train_dim1_1,20,30,,,,2,0,2,0,,,,,,,,,0,0,0,0,0,19,19,19,1,0,1,0,,,,,,,,,,,,,,,,,,,,,,,,,,,,,,,,,,,,,,,,,,,,,,,,,,,,,,,,,,,,,,,,30,,,,,,,,1201.0069479001686,1201.0069479001686,1201.0069479001686,1201.0069479001686,1201.0069479001686,down,1.476953700184822,5,1,0,99,0.4,-0.4,down,1.3958888002671301,,,,,,,,,,,,,,,,,,,,,,,,,,,,,,,,,,,,,,,,,,,,,,,,,,,,,,,,,,,,DK031N,train_y,red_square,bottom_right,2025-04-28_16h00.42.426,HideSeek_v1,2022.2.5,59.94729438409275,
,7,0,7,0,0,0,16,,train_dim1_1,20,30,,,,2,0,2,0,,,,,,,,,0,0,0,0,0,19,19,19,2,0,2,0,,,,,,,,,,,,,,,,,,,,,,,,,,,,,,,,,,,,,,,,,,,,,,,,,,,,,,,,,,,,,,,,30,,,,,,,,1202.4921752000228,1202.4921752000228,1202.4921752000228,1202.4921752000228,1202.4921752000228,return,0.3425635998137295,6,0,0,1,0.4,-0.4,return,0.25800530007109046,24,-9,0.4,-0.4,,,,,,,,,,,,,,,,,,,,,,,,,,,,,,,,,,,,,,,,,,,,,,,,,,,,,,,,DK031N,train_y,red_square,bottom_right,2025-04-28_16h00.42.426,HideSeek_v1,2022.2.5,59.94729438409275,
,7,4,7,5,0,1,15,,train_dim1_1,21,30,,,,2,0,2,0,,,,,,,,,0,0,0,0,0,20,20,20,0,0,0,0,,,,,,,,,,,,,,,,,,,,,,,,,stimuli/alien_stimuli/15.png,,,,,,,,,,,,,,,,,,,,,,,,,,,,,stimuli/alien_stimuli/16.png,16,7,22,,,,,,,30,,,,,,,,1207.3345396998338,1207.3345396998338,1207.3345396998338,1207.3345396998338,1207.3345396998338,up,1.6219616001471877,6,0,0,99,0.4,0.0,up,1.5361775998026133,,,,,1205.777018699795,1207.3345396998338,0.4,-0.4,0.0,0.0,-0.4,0.4,0.4,0.4,-0.4,1204.3923196997494,1204.3923196997494,1204.3923196997494,1204.3923196997494,1204.3923196997494,1204.3923196997494,1204.3923196997494,1204.3923196997494,1204.3924719899428,1.4866247000172734,return,1.3676844998262823,,,,,,,,,,,,,,,,,,,,,,,,,,,,,,,,,DK031N,train_y,red_square,bottom_right,2025-04-28_16h00.42.426,HideSeek_v1,2022.2.5,59.94729438409275,
,7,4,7,5,0,1,15,,train_dim1_1,21,30,,,,2,0,2,0,,,,,,,,,0,0,0,0,0,20,20,20,1,0,1,0,,,,,,,,,,,,,,,,,,,,,,,,,,,,,,,,,,,,,,,,,,,,,,,,,,,,,,,,,,,,,,,,30,,,,,,,,1208.9646185999736,1208.9646185999736,1208.9646185999736,1208.9646185999736,1208.9646185999736,return,1.1765809999778867,7,0,0,1,0.4,0.0,return,1.0988807999528944,25,-9,0.4,0.0,,,,,,,,,,,,,,,,,,,,,,,,,,,,,,,,,,,,,,,,,,,,,,,,,,,,,,,,DK031N,train_y,red_square,bottom_right,2025-04-28_16h00.42.426,HideSeek_v1,2022.2.5,59.94729438409275,
,5,2,5,5,0,3,13,,train_dim1_1,22,30,,,,2,0,2,0,,,,,,,,,0,0,0,0,0,21,21,21,0,0,0,0,,,,,,,,,,,,,,,,,,,,,,,,,stimuli/alien_stimuli/13.png,,,,,,,,,,,,,,,,,,,,,,,,,,,,,stimuli/alien_stimuli/15.png,15,7,23,,,,,,,30,,,,,,,,1214.6073436001316,1214.6073436001316,1214.6073436001316,1214.6073436001316,1214.6073436001316,up,0.7701300997287035,7,0,0,99,0.24,-0.15999999999999998,up,0.6936717997305095,,,,,1213.049664199818,1214.6073436001316,0.4,0,0.08,0.0,-0.04,0.4,0.4,0.4,0,1211.7021169997752,1211.7021169997752,1211.7021169997752,1211.7021169997752,1211.7021169997752,1211.7021169997752,1211.7021169997752,1211.7021169997752,1211.6987287899015,1.4530743001960218,return,1.315669999923557,,,,,,,,,,,,,,,,,,,,,,,,,,,,,,,,,DK031N,train_y,red_square,bottom_right,2025-04-28_16h00.42.426,HideSeek_v1,2022.2.5,59.94729438409275,
,5,2,5,5,0,3,13,,train_dim1_1,22,30,,,,2,0,2,0,,,,,,,,,0,0,0,0,0,21,21,21,1,0,1,0,,,,,,,,,,,,,,,,,,,,,,,,,,,,,,,,,,,,,,,,,,,,,,,,,,,,,,,,,,,,,,,,30,,,,,,,,1215.3856954001822,1215.3856954001822,1215.3856954001822,1215.3856954001822,1215.3856954001822,up,0.40923580015078187,7,0,0,99,0.24,-0.07999999999999997,up,0.31850599963217974,,,,,,,,,,,,,,,,,,,,,,,,,,,,,,,,,,,,,,,,,,,,,,,,,,,,,,,,,,,,DK031N,train_y,red_square,bottom_right,2025-04-28_16h00.42.426,HideSeek_v1,2022.2.5,59.94729438409275,
,5,2,5,5,0,3,13,,train_dim1_1,22,30,,,,2,0,2,0,,,,,,,,,0,0,0,0,0,21,21,21,2,0,2,0,,,,,,,,,,,,,,,,,,,,,,,,,,,,,,,,,,,,,,,,,,,,,,,,,,,,,,,,,,,,,,,,30,,,,,,,,1215.8025992000476,1215.8025992000476,1215.8025992000476,1215.8025992000476,1215.8025992000476,up,0.3096238002181053,7,0,0,99,0.24,2.7755575615628914e-17,up,0.2273971000686288,,,,,,,,,,,,,,,,,,,,,,,,,,,,,,,,,,,,,,,,,,,,,,,,,,,,,,,,,,,,DK031N,train_y,red_square,bottom_right,2025-04-28_16h00.42.426,HideSeek_v1,2022.2.5,59.94729438409275,
,5,2,5,5,0,3,13,,train_dim1_1,22,30,,,,2,0,2,0,,,,,,,,,0,0,0,0,0,21,21,21,3,0,3,0,,,,,,,,,,,,,,,,,,,,,,,,,,,,,,,,,,,,,,,,,,,,,,,,,,,,,,,,,,,,,,,,30,,,,,,,,1216.118323800154,1216.118323800154,1216.118323800154,1216.118323800154,1216.118323800154,up,1.7274609999731183,7,0,0,99,0.24,0.08000000000000003,up,1.640911499504,,,,,,,,,,,,,,,,,,,,,,,,,,,,,,,,,,,,,,,,,,,,,,,,,,,,,,,,,,,,DK031N,train_y,red_square,bottom_right,2025-04-28_16h00.42.426,HideSeek_v1,2022.2.5,59.94729438409275,
,5,2,5,5,0,3,13,,train_dim1_1,22,30,,,,2,0,2,0,,,,,,,,,0,0,0,0,0,21,21,21,4,0,4,0,,,,,,,,,,,,,,,,,,,,,,,,,,,,,,,,,,,,,,,,,,,,,,,,,,,,,,,,,,,,,,,,30,,,,,,,,1217.8539432999678,1217.8539432999678,1217.8539432999678,1217.8539432999678,1217.8539432999678,return,0.49295290000736713,7,1,0,0,0.24,0.08000000000000003,return,0.4020316996611655,29,-9,0.24,0.08000000000000003,,,,,,,,,,,,,,,,,,,,,,,,,,,,,,,,,,,,,,,,,,,,,,,,,,,,,,,,DK031N,train_y,red_square,bottom_right,2025-04-28_16h00.42.426,HideSeek_v1,2022.2.5,59.94729438409275,
,5,3,5,8,0,5,11,,train_dim1_1,23,30,,,,2,0,2,0,,,,,,,,,0,0,0,0,0,22,22,22,0,0,0,0,,,,,,,,,,,,,,,,,,,,,,,,,stimuli/alien_stimuli/11.png,,,,,,,,,,,,,,,,,,,,,,,,,,,,,stimuli/alien_stimuli/13.png,13,5,24,,,,,,,30,,,,,,,,1224.2993847001344,1224.2993847001344,1224.2993847001344,1224.2993847001344,1224.2993847001344,up,1.4208362000063062,7,1,0,99,0.24,-0.08,up,1.3433000999502838,,,,,1222.740898499731,1224.2993847001344,0.24,0,0.24,0.0,-0.12,0.24,0.24,0.24,0,1219.9009023997933,1219.9009023997933,1219.9009023997933,1219.9009023997933,1219.9009023997933,1219.9009023997933,1219.9009023997933,1219.9009023997933,1219.8887595201843,2.9375541997142136,return,2.8130322000943124,,,,,,,,,,,,,,,,,,,,,,,,,,,,,,,,,DK031N,train_y,red_square,bottom_right,2025-04-28_16h00.42.426,HideSeek_v1,2022.2.5,59.94729438409275,
,5,3,5,8,0,5,11,,train_dim1_1,23,30,,,,2,0,2,0,,,,,,,,,0,0,0,0,0,22,22,22,1,0,1,0,,,,,,,,,,,,,,,,,,,,,,,,,,,,,,,,,,,,,,,,,,,,,,,,,,,,,,,,,,,,,,,,30,,,,,,,,1225.7277147998102,1225.7277147998102,1225.7277147998102,1225.7277147998102,1225.7277147998102,up,0.20917539997026324,7,1,0,99,0.24,0.0,up,0.13117989990860224,,,,,,,,,,,,,,,,,,,,,,,,,,,,,,,,,,,,,,,,,,,,,,,,,,,,,,,,,,,,DK031N,train_y,red_square,bottom_right,2025-04-28_16h00.42.426,HideSeek_v1,2022.2.5,59.94729438409275,
,5,3,5,8,0,5,11,,train_dim1_1,23,30,,,,2,0,2,0,,,,,,,,,0,0,0,0,0,22,22,22,2,0,2,0,,,,,,,,,,,,,,,,,,,,,,,,,,,,,,,,,,,,,,,,,,,,,,,,,,,,,,,,,,,,,,,,30,,,,,,,,1225.9445504001342,1225.9445504001342,1225.9445504001342,1225.9445504001342,1225.9445504001342,up,0.20958439959213138,7,1,0,99,0.24,0.08,up,0.12280250014737248,,,,,,,,,,,,,,,,,,,,,,,,,,,,,,,,,,,,,,,,,,,,,,,,,,,,,,,,,,,,DK031N,train_y,red_square,bottom_right,2025-04-28_16h00.42.426,HideSeek_v1,2022.2.5,59.94729438409275,
,5,3,5,8,0,5,11,,train_dim1_1,23,30,,,,2,0,2,0,,,,,,,,,0,0,0,0,0,22,22,22,3,0,3,0,,,,,,,,,,,,,,,,,,,,,,,,,,,,,,,,,,,,,,,,,,,,,,,,,,,,,,,,,,,,,,,,30,,,,,,,,1226.162392700091,1226.162392700091,1226.162392700091,1226.162392700091,1226.162392700091,up,0.2759641003794968,7,1,0,99,0.24,0.16,up,0.18339299969375134,,,,,,,,,,,,,,,,,,,,,,,,,,,,,,,,,,,,,,,,,,,,,,,,,,,,,,,,,,,,DK031N,train_y,red_square,bottom_right,2025-04-28_16h00.42.426,HideSeek_v1,2022.2.5,59.94729438409275,
,5,3,5,8,0,5,11,,train_dim1_1,23,30,,,,2,0,2,0,,,,,,,,,0,0,0,0,0,22,22,22,4,0,4,0,,,,,,,,,,,,,,,,,,,,,,,,,,,,,,,,,,,,,,,,,,,,,,,,,,,,,,,,,,,,,,,,30,,,,,,,,1226.4453484998085,1226.4453484998085,1226.4453484998085,1226.4453484998085,1226.4453484998085,up,1.2271580998785794,7,1,0,99,0.24,0.24,up,1.1476765000261366,,,,,,,,,,,,,,,,,,,,,,,,,,,,,,,,,,,,,,,,,,,,,,,,,,,,,,,,,,,,DK031N,train_y,red_square,bottom_right,2025-04-28_16h00.42.426,HideSeek_v1,2022.2.5,59.94729438409275,
,5,3,5,8,0,5,11,,train_dim1_1,23,30,,,,2,0,2,0,,,,,,,,,0,0,0,0,0,22,22,22,5,0,5,0,,,,,,,,,,,,,,,,,,,,,,,,,,,,,,,,,,,,,,,,,,,,,,,,,,,,,,,,,,,,,,,,30,,,,,,,,1227.6789155001752,1227.6789155001752,1227.6789155001752,1227.6789155001752,1227.6789155001752,return,0.47643280029296875,8,0,0,1,0.24,0.24,return,0.4007739000953734,34,-9,0.24,0.24,,,,,,,,,,,,,,,,,,,,,,,,,,,,,,,,,,,,,,,,,,,,,,,,,,,,,,,,DK031N,train_y,red_square,bottom_right,2025-04-28_16h00.42.426,HideSeek_v1,2022.2.5,59.94729438409275,
,8,2,8,2,0,0,16,,train_dim1_1,24,30,,,,2,0,2,0,,,,,,,,,0,0,0,0,0,23,23,23,0,0,0,0,,,,,,,,,,,,,,,,,,,,,,,,,stimuli/alien_stimuli/16.png,,,,,,,,,,,,,,,,,,,,,,,,,,,,,stimuli/alien_stimuli/11.png,11,5,25,,,,,,,30,,,,,,,,1232.9902429999784,1232.9902429999784,1232.9902429999784,1232.9902429999784,1232.9902429999784,return,1.7877596002072096,9,0,0,1,0.48,-0.24,return,1.706676899921149,34,-9,0.48,-0.24,1231.4314922997728,1232.9902429999784,0.24,0.24,0.4,0.0,0.039999999999999994,0.24,0.24,0.24,0.24,1229.7167418999597,1229.7167418999597,1229.7167418999597,1229.7167418999597,1229.7167418999597,1229.7167418999597,1229.7167418999597,1229.7167418999597,1229.7137889897917,1.8199447002261877,return,1.6835140995681286,,,,,,,,,,,,,,,,,,,,,,,,,,,,,,,,,DK031N,train_y,red_square,bottom_right,2025-04-28_16h00.42.426,HideSeek_v1,2022.2.5,59.94729438409275,
,8,3,8,7,0,4,12,,train_dim1_1,25,30,,,,2,0,2,0,,,,,,,,,0,0,0,0,0,24,24,24,0,0,0,0,,,,,,,,,,,,,,,,,,,,,,,,,stimuli/alien_stimuli/12.png,,,,,,,,,,,,,,,,,,,,,,,,,,,,,stimuli/alien_stimuli/16.png,16,8,26,,,,,,,30,,,,,,,,1239.2652328000404,1239.2652328000404,1239.2652328000404,1239.2652328000404,1239.2652328000404,up,0.8177184998057783,9,0,0,99,0.48,-0.08,up,0.7302381000481546,,,,,1237.7034978000447,1239.2652328000404,0.48,-0.24,0.0,0.0,-0.24,0.48,0.48,0.48,-0.24,1236.3472091997974,1236.3472091997974,1236.3472091997974,1236.3472091997974,1236.3472091997974,1236.3472091997974,1236.3472091997974,1236.3472091997974,1236.3362060900313,1.4688360998407006,return,1.3378325998783112,,,,,,,,,,,,,,,,,,,,,,,,,,,,,,,,,DK031N,train_y,red_square,bottom_right,2025-04-28_16h00.42.426,HideSeek_v1,2022.2.5,59.94729438409275,
,8,3,8,7,0,4,12,,train_dim1_1,25,30,,,,2,0,2,0,,,,,,,,,0,0,0,0,0,24,24,24,1,0,1,0,,,,,,,,,,,,,,,,,,,,,,,,,,,,,,,,,,,,,,,,,,,,,,,,,,,,,,,,,,,,,,,,30,,,,,,,,1240.0894271000288,1240.0894271000288,1240.0894271000288,1240.0894271000288,1240.0894271000288,up,0.4094949997961521,9,0,0,99,0.48,0.0,up,0.3211688995361328,,,,,,,,,,,,,,,,,,,,,,,,,,,,,,,,,,,,,,,,,,,,,,,,,,,,,,,,,,,,DK031N,train_y,red_square,bottom_right,2025-04-28_16h00.42.426,HideSeek_v1,2022.2.5,59.94729438409275,
,8,3,8,7,0,4,12,,train_dim1_1,25,30,,,,2,0,2,0,,,,,,,,,0,0,0,0,0,24,24,24,2,0,2,0,,,,,,,,,,,,,,,,,,,,,,,,,,,,,,,,,,,,,,,,,,,,,,,,,,,,,,,,,,,,,,,,30,,,,,,,,1240.5060934000649,1240.5060934000649,1240.5060934000649,1240.5060934000649,1240.5060934000649,up,0.5932330000214279,9,0,0,99,0.48,0.08,up,0.5038836998865008,,,,,,,,,,,,,,,,,,,,,,,,,,,,,,,,,,,,,,,,,,,,,,,,,,,,,,,,,,,,DK031N,train_y,red_square,bottom_right,2025-04-28_16h00.42.426,HideSeek_v1,2022.2.5,59.94729438409275,
,8,3,8,7,0,4,12,,train_dim1_1,25,30,,,,2,0,2,0,,,,,,,,,0,0,0,0,0,24,24,24,3,0,3,0,,,,,,,,,,,,,,,,,,,,,,,,,,,,,,,,,,,,,,,,,,,,,,,,,,,,,,,,,,,,,,,,30,,,,,,,,1241.107426600065,1241.107426600065,1241.107426600065,1241.107426600065,1241.107426600065,return,1.2937750001437962,9,1,0,0,0.48,0.08,return,1.204365000128746,37,-9,0.48,0.08,,,,,,,,,,,,,,,,,,,,,,,,,,,,,,,,,,,,,,,,,,,,,,,,,,,,,,,,DK031N,train_y,red_square,bottom_right,2025-04-28_16h00.42.426,HideSeek_v1,2022.2.5,59.94729438409275,
,9,4,9,7,0,3,13,,train_dim1_1,26,30,,,,2,0,2,0,,,,,,,,,0,0,0,0,0,25,25,25,0,0,0,0,,,,,,,,,,,,,,,,,,,,,,,,,stimuli/alien_stimuli/13.png,,,,,,,,,,,,,,,,,,,,,,,,,,,,,stimuli/alien_stimuli/12.png,12,8,27,,,,,,,30,,,,,,,,1246.5995812998153,1246.5995812998153,1246.5995812998153,1246.5995812998153,1246.5995812998153,up,1.2212928999215364,9,1,0,99,0.56,0.0,up,1.1366826999001205,,,,,1245.0430648997426,1246.5995812998153,0.48,0.16,0.32,0.0,0.0,0.48,0.48,0.48,0.16,1243.9591835997999,1243.9591835997999,1243.9591835997999,1243.9591835997999,1243.9591835997999,1243.9591835997999,1243.9591835997999,1243.9591835997999,1243.9587369899732,1.1866941000334918,return,1.0651928996667266,,,,,,,,,,,,,,,,,,,,,,,,,,,,,,,,,DK031N,train_y,red_square,bottom_right,2025-04-28_16h00.42.426,HideSeek_v1,2022.2.5,59.94729438409275,
,9,4,9,7,0,3,13,,train_dim1_1,26,30,,,,2,0,2,0,,,,,,,,,0,0,0,0,0,25,25,25,1,0,1,0,,,,,,,,,,,,,,,,,,,,,,,,,,,,,,,,,,,,,,,,,,,,,,,,,,,,,,,,,,,,,,,,30,,,,,,,,1247.8284891000949,1247.8284891000949,1247.8284891000949,1247.8284891000949,1247.8284891000949,up,1.8773197000846267,9,1,0,99,0.56,0.08,up,1.8018558998592198,,,,,,,,,,,,,,,,,,,,,,,,,,,,,,,,,,,,,,,,,,,,,,,,,,,,,,,,,,,,DK031N,train_y,red_square,bottom_right,2025-04-28_16h00.42.426,HideSeek_v1,2022.2.5,59.94729438409275,
,9,4,9,7,0,3,13,,train_dim1_1,26,30,,,,2,0,2,0,,,,,,,,,0,0,0,0,0,25,25,25,2,0,2,0,,,,,,,,,,,,,,,,,,,,,,,,,,,,,,,,,,,,,,,,,,,,,,,,,,,,,,,,,,,,,,,,30,,,,,,,,1249.7129089999944,1249.7129089999944,1249.7129089999944,1249.7129089999944,1249.7129089999944,up,1.3439611997455359,9,1,0,99,0.56,0.16,up,1.269441899843514,,,,,,,,,,,,,,,,,,,,,,,,,,,,,,,,,,,,,,,,,,,,,,,,,,,,,,,,,,,,DK031N,train_y,red_square,bottom_right,2025-04-28_16h00.42.426,HideSeek_v1,2022.2.5,59.94729438409275,
,9,4,9,7,0,3,13,,train_dim1_1,26,30,,,,2,0,2,0,,,,,,,,,0,0,0,0,0,25,25,25,3,0,3,0,,,,,,,,,,,,,,,,,,,,,,,,,,,,,,,,,,,,,,,,,,,,,,,,,,,,,,,,,,,,,,,,30,,,,,,,,1251.0671790000051,1251.0671790000051,1251.0671790000051,1251.0671790000051,1251.0671790000051,down,0.8238258003257215,9,1,0,99,0.56,0.08,down,0.7458396996371448,,,,,,,,,,,,,,,,,,,,,,,,,,,,,,,,,,,,,,,,,,,,,,,,,,,,,,,,,,,,DK031N,train_y,red_square,bottom_right,2025-04-28_16h00.42.426,HideSeek_v1,2022.2.5,59.94729438409275,
,9,4,9,7,0,3,13,,train_dim1_1,26,30,,,,2,0,2,0,,,,,,,,,0,0,0,0,0,25,25,25,4,0,4,0,,,,,,,,,,,,,,,,,,,,,,,,,,,,,,,,,,,,,,,,,,,,,,,,,,,,,,,,,,,,,,,,30,,,,,,,,1251.8989800000563,1251.8989800000563,1251.8989800000563,1251.8989800000563,1251.8989800000563,down,0.3425847999751568,9,1,0,99,0.56,0.0,down,0.26514859963208437,,,,,,,,,,,,,,,,,,,,,,,,,,,,,,,,,,,,,,,,,,,,,,,,,,,,,,,,,,,,DK031N,train_y,red_square,bottom_right,2025-04-28_16h00.42.426,HideSeek_v1,2022.2.5,59.94729438409275,
,9,4,9,7,0,3,13,,train_dim1_1,26,30,,,,2,0,2,0,,,,,,,,,0,0,0,0,0,25,25,25,5,0,5,0,,,,,,,,,,,,,,,,,,,,,,,,,,,,,,,,,,,,,,,,,,,,,,,,,,,,,,,,,,,,,,,,30,,,,,,,,1252.249487500172,1252.249487500172,1252.249487500172,1252.249487500172,1252.249487500172,return,0.2929825000464916,9,0,0,0,0.56,0.0,return,0.21462879981845617,38,-9,0.56,0.0,,,,,,,,,,,,,,,,,,,,,,,,,,,,,,,,,,,,,,,,,,,,,,,,,,,,,,,,DK031N,train_y,red_square,bottom_right,2025-04-28_16h00.42.426,HideSeek_v1,2022.2.5,59.94729438409275,
,8,4,8,4,0,0,16,,train_dim1_1,27,30,,,,2,0,2,0,,,,,,,,,0,0,0,0,0,26,26,26,0,0,0,0,,,,,,,,,,,,,,,,,,,,,,,,,stimuli/alien_stimuli/16.png,,,,,,,,,,,,,,,,,,,,,,,,,,,,,stimuli/alien_stimuli/13.png,13,9,28,,,,,,,30,,,,,,,,1256.9250163999386,1256.9250163999386,1256.9250163999386,1256.9250163999386,1256.9250163999386,up,1.922308700159192,9,0,0,99,0.48,0.0,up,1.8335279999300838,,,,,1255.3682162999175,1256.9250163999386,0.56,0.16,0.24,0.0,0.04,0.56,0.56,0.56,0.16,1254.0986909000203,1254.0986909000203,1254.0986909000203,1254.0986909000203,1254.0986909000203,1254.0986909000203,1254.0986909000203,1254.0986909000203,1254.1005019898062,1.3699965002015233,return,1.2431270997039974,,,,,,,,,,,,,,,,,,,,,,,,,,,,,,,,,DK031N,train_y,red_square,bottom_right,2025-04-28_16h00.42.426,HideSeek_v1,2022.2.5,59.94729438409275,
,8,4,8,4,0,0,16,,train_dim1_1,27,30,,,,2,0,2,0,,,,,,,,,0,0,0,0,0,26,26,26,1,0,1,0,,,,,,,,,,,,,,,,,,,,,,,,,,,,,,,,,,,,,,,,,,,,,,,,,,,,,,,,,,,,,,,,30,,,,,,,,1258.857090999838,1258.857090999838,1258.857090999838,1258.857090999838,1258.857090999838,down,0.4077051002532244,9,0,0,99,0.48,-0.08,down,0.33036760007962584,,,,,,,,,,,,,,,,,,,,,,,,,,,,,,,,,,,,,,,,,,,,,,,,,,,,,,,,,,,,DK031N,train_y,red_square,bottom_right,2025-04-28_16h00.42.426,HideSeek_v1,2022.2.5,59.94729438409275,
,8,4,8,4,0,0,16,,train_dim1_1,27,30,,,,2,0,2,0,,,,,,,,,0,0,0,0,0,26,26,26,2,0,2,0,,,,,,,,,,,,,,,,,,,,,,,,,,,,,,,,,,,,,,,,,,,,,,,,,,,,,,,,,,,,,,,,30,,,,,,,,1259.27176839998,1259.27176839998,1259.27176839998,1259.27176839998,1259.27176839998,return,0.3100135000422597,10,0,0,1,0.48,-0.08,return,0.2179692997597158,38,-9,0.48,-0.08,,,,,,,,,,,,,,,,,,,,,,,,,,,,,,,,,,,,,,,,,,,,,,,,,,,,,,,,DK031N,train_y,red_square,bottom_right,2025-04-28_16h00.42.426,HideSeek_v1,2022.2.5,59.94729438409275,
,9,1,9,6,0,5,11,,train_dim1_1,28,30,,,,2,0,2,0,,,,,,,,,0,0,0,0,0,27,27,27,0,0,0,0,,,,,,,,,,,,,,,,,,,,,,,,,stimuli/alien_stimuli/11.png,,,,,,,,,,,,,,,,,,,,,,,,,,,,,stimuli/alien_stimuli/16.png,16,8,29,,,,,,,30,,,,,,,,1263.7477055001073,1263.7477055001073,1263.7477055001073,1263.7477055001073,1263.7477055001073,up,0.9894384001381695,10,0,0,99,0.56,-0.24,up,0.9069369998760521,,,,,1262.1905435998924,1263.7477055001073,0.48,-0.08,0.0,0.0,-0.08,0.48,0.48,0.48,-0.08,1261.1410789997317,1261.1410789997317,1261.1410789997317,1261.1410789997317,1261.1410789997317,1261.1410789997317,1261.1410789997317,1261.1410789997317,1261.1399184901734,1.1526076002046466,return,1.0273341001011431,,,,,,,,,,,,,,,,,,,,,,,,,,,,,,,,,DK031N,train_y,red_square,bottom_right,2025-04-28_16h00.42.426,HideSeek_v1,2022.2.5,59.94729438409275,
,9,1,9,6,0,5,11,,train_dim1_1,28,30,,,,2,0,2,0,,,,,,,,,0,0,0,0,0,27,27,27,1,0,1,0,,,,,,,,,,,,,,,,,,,,,,,,,,,,,,,,,,,,,,,,,,,,,,,,,,,,,,,,,,,,,,,,30,,,,,,,,1264.7432046001777,1264.7432046001777,1264.7432046001777,1264.7432046001777,1264.7432046001777,up,0.3429247001186013,10,0,0,99,0.56,-0.15999999999999998,up,0.26401379983872175,,,,,,,,,,,,,,,,,,,,,,,,,,,,,,,,,,,,,,,,,,,,,,,,,,,,,,,,,,,,DK031N,train_y,red_square,bottom_right,2025-04-28_16h00.42.426,HideSeek_v1,2022.2.5,59.94729438409275,
,9,1,9,6,0,5,11,,train_dim1_1,28,30,,,,2,0,2,0,,,,,,,,,0,0,0,0,0,27,27,27,2,0,2,0,,,,,,,,,,,,,,,,,,,,,,,,,,,,,,,,,,,,,,,,,,,,,,,,,,,,,,,,,,,,,,,,30,,,,,,,,1265.0955006000586,1265.0955006000586,1265.0955006000586,1265.0955006000586,1265.0955006000586,up,0.20759400026872754,10,0,0,99,0.56,-0.07999999999999997,up,0.1157944998703897,,,,,,,,,,,,,,,,,,,,,,,,,,,,,,,,,,,,,,,,,,,,,,,,,,,,,,,,,,,,DK031N,train_y,red_square,bottom_right,2025-04-28_16h00.42.426,HideSeek_v1,2022.2.5,59.94729438409275,
,9,1,9,6,0,5,11,,train_dim1_1,28,30,,,,2,0,2,0,,,,,,,,,0,0,0,0,0,27,27,27,3,0,3,0,,,,,,,,,,,,,,,,,,,,,,,,,,,,,,,,,,,,,,,,,,,,,,,,,,,,,,,,,,,,,,,,30,,,,,,,,1265.310011100024,1265.310011100024,1265.310011100024,1265.310011100024,1265.310011100024,up,0.22615819983184338,10,0,0,99,0.56,2.7755575615628914e-17,up,0.14519160008057952,,,,,,,,,,,,,,,,,,,,,,,,,,,,,,,,,,,,,,,,,,,,,,,,,,,,,,,,,,,,DK031N,train_y,red_square,bottom_right,2025-04-28_16h00.42.426,HideSeek_v1,2022.2.5,59.94729438409275,
,9,1,9,6,0,5,11,,train_dim1_1,28,30,,,,2,0,2,0,,,,,,,,,0,0,0,0,0,27,27,27,4,0,4,0,,,,,,,,,,,,,,,,,,,,,,,,,,,,,,,,,,,,,,,,,,,,,,,,,,,,,,,,,,,,,,,,30,,,,,,,,1265.544260499999,1265.544260499999,1265.544260499999,1265.544260499999,1265.544260499999,up,0.27575419982895255,10,0,0,99,0.56,0.08000000000000003,up,0.19684099964797497,,,,,,,,,,,,,,,,,,,,,,,,,,,,,,,,,,,,,,,,,,,,,,,,,,,,,,,,,,,,DK031N,train_y,red_square,bottom_right,2025-04-28_16h00.42.426,HideSeek_v1,2022.2.5,59.94729438409275,
,9,1,9,6,0,5,11,,train_dim1_1,28,30,,,,2,0,2,0,,,,,,,,,0,0,0,0,0,27,27,27,5,0,5,0,,,,,,,,,,,,,,,,,,,,,,,,,,,,,,,,,,,,,,,,,,,,,,,,,,,,,,,,,,,,,,,,30,,,,,,,,1265.827246800065,1265.827246800065,1265.827246800065,1265.827246800065,1265.827246800065,return,1.093695200048387,11,0,0,1,0.56,0.08000000000000003,return,1.007395299617201,43,-9,0.56,0.08000000000000003,,,,,,,,,,,,,,,,,,,,,,,,,,,,,,,,,,,,,,,,,,,,,,,,,,,,,,,,DK031N,train_y,red_square,bottom_right,2025-04-28_16h00.42.426,HideSeek_v1,2022.2.5,59.94729438409275,
,7,2,7,6,0,4,12,,train_dim1_1,29,30,,,,2,0,2,0,,,,,,,,,0,0,0,0,0,28,28,28,0,0,0,0,,,,,,,,,,,,,,,,,,,,,,,,,stimuli/alien_stimuli/12.png,,,,,,,,,,,,,,,,,,,,,,,,,,,,,stimuli/alien_stimuli/11.png,11,9,30,,,,,,,30,,,,,,,,1271.023022999987,1271.023022999987,1271.023022999987,1271.023022999987,1271.023022999987,up,0.9704498001374304,11,0,0,99,0.4,-0.15999999999999998,up,0.8895905995741487,,,,,1269.4631799999624,1271.023022999987,0.56,0.08,0.4,0.0,-0.12,0.56,0.56,0.56,0.08,1268.480202499777,1268.480202499777,1268.480202499777,1268.480202499777,1268.480202499777,1268.480202499777,1268.480202499777,1268.480202499777,1268.4793273898308,1.0859630997292697,return,0.9506451999768615,,,,,,,,,,,,,,,,,,,,,,,,,,,,,,,,,DK031N,train_y,red_square,bottom_right,2025-04-28_16h00.42.426,HideSeek_v1,2022.2.5,59.94729438409275,
,7,2,7,6,0,4,12,,train_dim1_1,29,30,,,,2,0,2,0,,,,,,,,,0,0,0,0,0,28,28,28,1,0,1,0,,,,,,,,,,,,,,,,,,,,,,,,,,,,,,,,,,,,,,,,,,,,,,,,,,,,,,,,,,,,,,,,30,,,,,,,,1272.002265700139,1272.002265700139,1272.002265700139,1272.002265700139,1272.002265700139,up,0.3925140001811087,11,0,0,99,0.4,-0.07999999999999997,up,0.30008319998160005,,,,,,,,,,,,,,,,,,,,,,,,,,,,,,,,,,,,,,,,,,,,,,,,,,,,,,,,,,,,DK031N,train_y,red_square,bottom_right,2025-04-28_16h00.42.426,HideSeek_v1,2022.2.5,59.94729438409275,
,7,2,7,6,0,4,12,,train_dim1_1,29,30,,,,2,0,2,0,,,,,,,,,0,0,0,0,0,28,28,28,2,0,2,0,,,,,,,,,,,,,,,,,,,,,,,,,,,,,,,,,,,,,,,,,,,,,,,,,,,,,,,,,,,,,,,,30,,,,,,,,1272.399408500176,1272.399408500176,1272.399408500176,1272.399408500176,1272.399408500176,up,0.8603860000148416,11,0,0,99,0.4,2.7755575615628914e-17,up,0.7714061001315713,,,,,,,,,,,,,,,,,,,,,,,,,,,,,,,,,,,,,,,,,,,,,,,,,,,,,,,,,,,,DK031N,train_y,red_square,bottom_right,2025-04-28_16h00.42.426,HideSeek_v1,2022.2.5,59.94729438409275,
,7,2,7,6,0,4,12,,train_dim1_1,29,30,,,,2,0,2,0,,,,,,,,,0,0,0,0,0,28,28,28,3,0,3,0,,,,,,,,,,,,,,,,,,,,,,,,,,,,,,,,,,,,,,,,,,,,,,,,,,,,,,,,,,,,,,,,30,,,,,,,,1273.2678364999592,1273.2678364999592,1273.2678364999592,1273.2678364999592,1273.2678364999592,return,0.626467099878937,11,1,0,0,0.4,2.7755575615628914e-17,return,0.534106099512428,46,-9,0.4,2.7755575615628914e-17,,,,,,,,,,,,,,,,,,,,,,,,,,,,,,,,,,,,,,,,,,,,,,,,,,,,,,,,DK031N,train_y,red_square,bottom_right,2025-04-28_16h00.42.426,HideSeek_v1,2022.2.5,59.94729438409275,
,5,1,5,2,0,1,15,,train_dim1_1,30,30,,,,2,0,2,0,,,,,,,,,0,0,0,0,0,29,29,29,0,0,0,0,,,,,,,,,,,,,,,,,,,,,,,,,stimuli/alien_stimuli/15.png,,,,,,,,,,,,,,,,,,,,,,,,,,,,,stimuli/alien_stimuli/12.png,12,7,31,,,,,,,30,,,,,,,,1277.9812185000628,1277.9812185000628,1277.9812185000628,1277.9812185000628,1277.9812185000628,return,1.2173935999162495,11,1,0,0,0.24,-0.32,return,1.1337059000506997,46,-9,0.24,-0.32,1276.4190362999216,1277.9812185000628,0.4,0.08,0.32,0.0,-0.07999999999999999,0.4,0.4,0.4,0.08,1275.449008199852,1275.449008199852,1275.449008199852,1275.449008199852,1275.449008199852,1275.449008199852,1275.449008199852,1275.449008199852,1275.4347016199492,1.0702917999587953,return,0.950301299802959,,,,,,,,,,,,,,,,,,,,,,,,,,,,,,,,,DK031N,train_y,red_square,bottom_right,2025-04-28_16h00.42.426,HideSeek_v1,2022.2.5,59.94729438409275,
,,,,,,,,,,,30,,,,2,0,2,0,,,,,,,,,,,,,,,,,,,,,,,,,,,,,,,,,,,,,,,,,,,,,,,,,,,,,,,,,,,,,,,,,,,,,,,,,,stimuli/alien_stimuli/15.png,15,5,32,21,0.7,0.45833333333333337,1,1,1,30,0,conditions/schedules/train_y_first/red_square_00/bottom_right/inputTrain_2.1.xlsx,99,1,2,1,0,,,,,,,,,,,0,,,,,,,,,1281.773477199953,1283.3356126998551,0.24,-0.24,0.08,0.0,-0.28,0.24,0.24,0.24,-0.24,1280.7596737998538,1280.7596737998538,1280.7596737998538,1280.7596737998538,1280.7596737998538,1280.7596737998538,1280.7596737998538,1280.7596737998538,1280.7561407898088,1.1195344999432564,return,0.9969634995795786,0,0.9,0,1,11,,,,,,,,,,,,,,,,,,,,,,,,,,,,DK031N,train_y,red_square,bottom_right,2025-04-28_16h00.42.426,HideSeek_v1,2022.2.5,59.94729438409275,
,,,,,,,,,,,,,,,3,0,3,0,0,0,0,0,,,,,,,,,,,,,,,,,,,,,,,,,,,,,,,conditions/schedules/train_y_first/red_square_00/bottom_right/instructions/Slide17.png,conditions/schedules/train_y_first/red_square_00/bottom_right/instructions/Audio17.wav,1283.3356126998551,1283.3247090798802,18,"[6.808564499951899, 18.813248000107706, 0.03720490029081702, 16.60239450028166, 19.473272799979895, 4.235889399889857, 4.734122199937701, 5.219764699693769, 11.503837399650365, 5.818788700271398, 6.900239999871701, 10.152545500081033, 13.984524399973452, 16.897092000115663, 16.777029399760067, 43.20851860009134, 30.015358299948275, 48.04302400024608]","[0.00021750014275312424, 18.813254899811, 0.014326899778097868, 16.602401200216264, 19.473279600031674, 0.06335359998047352, 0.0652458998374641, 0.06346899969503284, 0.0139145003631711, 0.08102309983223677, 0.07951269997283816, 0.013922699727118015, 13.9845314999111, 0.030461200047284365, 16.777036800049245, 0.07373249996453524, 30.0153655000031, 48.04303089994937]",1,[1.490170399658382],[0.014260200317949057],,,,,,,,,,,,,,,,,,,,,,,,,,,,,,,,,,,,,,,,,,,,,,,,,,,,,,,,,,,,,,,,,,,,,,,,,,,,,,,,,,,,,,,,,,,,,,,,,,,,,,,,,,,,,,,,,,,,,,,,,,DK031N,train_y,red_square,bottom_right,2025-04-28_16h00.42.426,HideSeek_v1,2022.2.5,59.94729438409275,
,,,,,,,,,,,,,,,3,0,3,0,1,0,1,0,,,,,,,,,,,,,,,,,,,,,,,,,,,,,,,conditions/schedules/train_y_first/red_square_00/bottom_right/instructions/Slide18.png,conditions/schedules/train_y_first/red_square_00/bottom_right/instructions/Audio18.wav,1331.4506410998292,1331.4479658498894,19,"[6.808564499951899, 18.813248000107706, 0.03720490029081702, 16.60239450028166, 19.473272799979895, 4.235889399889857, 4.734122199937701, 5.219764699693769, 11.503837399650365, 5.818788700271398, 6.900239999871701, 10.152545500081033, 13.984524399973452, 16.897092000115663, 16.777029399760067, 43.20851860009134, 30.015358299948275, 48.04302400024608, 11.270921300165355]","[0.00021750014275312424, 18.813254899811, 0.014326899778097868, 16.602401200216264, 19.473279600031674, 0.06335359998047352, 0.0652458998374641, 0.06346899969503284, 0.0139145003631711, 0.08102309983223677, 0.07951269997283816, 0.013922699727118015, 13.9845314999111, 0.030461200047284365, 16.777036800049245, 0.07373249996453524, 30.0153655000031, 0.03058200003579259, 11.27092819986865]",1,[1.490170399658382],[0.014260200317949057],,,,,,,,,,,,,,,,,,,,,,,,,,,,,,,,,,,,,,,,,,,,,,,,,,,,,,,,,,,,,,,,,,,,,,,,,,,,,,,,,,,,,,,,,,,,,,,,,,,,,,,,,,,,,,,,,,,,,,,,,,DK031N,train_y,red_square,bottom_right,2025-04-28_16h00.42.426,HideSeek_v1,2022.2.5,59.94729438409275,
,,,,,,,,,,,,,,,3,0,3,0,2,0,2,0,,,,,,,,,,,,,,,,,,,,,,,,,,,,,,,conditions/schedules/train_y_first/red_square_00/bottom_right/instructions/Slide19.png,conditions/schedules/train_y_first/red_square_00/bottom_right/instructions/Audio19.wav,1342.7969077001326,1342.7906664500479,20,"[6.808564499951899, 18.813248000107706, 0.03720490029081702, 16.60239450028166, 19.473272799979895, 4.235889399889857, 4.734122199937701, 5.219764699693769, 11.503837399650365, 5.818788700271398, 6.900239999871701, 10.152545500081033, 13.984524399973452, 16.897092000115663, 16.777029399760067, 43.20851860009134, 30.015358299948275, 48.04302400024608, 11.270921300165355, 9.816632600035518]","[0.00021750014275312424, 18.813254899811, 0.014326899778097868, 16.602401200216264, 19.473279600031674, 0.06335359998047352, 0.0652458998374641, 0.06346899969503284, 0.0139145003631711, 0.08102309983223677, 0.07951269997283816, 0.013922699727118015, 13.9845314999111, 0.030461200047284365, 16.777036800049245, 0.07373249996453524, 30.0153655000031, 0.03058200003579259, 11.27092819986865, 9.816639800090343]",1,[1.490170399658382],[0.014260200317949057],,,,,,,,,,,,,,,,,,,,,,,,,,,,,,,,,,,,,,,,,,,,,,,,,,,,,,,,,,,,,,,,,,,,,,,,,,,,,,,,,,,,,,,,,,,,,,,,,,,,,,,,,,,,,,,,,,,,,,,,,,DK031N,train_y,red_square,bottom_right,2025-04-28_16h00.42.426,HideSeek_v1,2022.2.5,59.94729438409275,
,,,,,,,,,,,,,,,3,0,3,0,3,0,3,0,,,,,,,,,,,,,,,,,,,,,,,,,,,,,,,conditions/schedules/train_y_first/red_square_00/bottom_right/instructions/Slide20.png,conditions/schedules/train_y_first/red_square_00/bottom_right/instructions/Audio20.wav,1352.6678570997901,1352.6657009801827,21,"[6.808564499951899, 18.813248000107706, 0.03720490029081702, 16.60239450028166, 19.473272799979895, 4.235889399889857, 4.734122199937701, 5.219764699693769, 11.503837399650365, 5.818788700271398, 6.900239999871701, 10.152545500081033, 13.984524399973452, 16.897092000115663, 16.777029399760067, 43.20851860009134, 30.015358299948275, 48.04302400024608, 11.270921300165355, 9.816632600035518, 12.555301600135863]","[0.00021750014275312424, 18.813254899811, 0.014326899778097868, 16.602401200216264, 19.473279600031674, 0.06335359998047352, 0.0652458998374641, 0.06346899969503284, 0.0139145003631711, 0.08102309983223677, 0.07951269997283816, 0.013922699727118015, 13.9845314999111, 0.030461200047284365, 16.777036800049245, 0.07373249996453524, 30.0153655000031, 0.03058200003579259, 11.27092819986865, 0.06337150000035763, 12.55530870007351]",1,[1.490170399658382],[0.014260200317949057],,,,,,,,,,,,,,,,,,,,,,,,,,,,,,,,,,,,,,,,,,,,,,,,,,,,,,,,,,,,,,,,,,,,,,,,,,,,,,,,,,,,,,,,,,,,,,,,,,,,,,,,,,,,,,,,,,,,,,,,,,DK031N,train_y,red_square,bottom_right,2025-04-28_16h00.42.426,HideSeek_v1,2022.2.5,59.94729438409275,
1,8,2,3,2,-5,0,66,2,instr_dim1_2,,,,,,3,0,3,0,,,,,0,0,0,0,,,,,,,,,,,,,,,,,,,,,,,,,,,,,,,,,,,,,stimuli/alien_stimuli/66.png,conditions/schedules/train_y_first/red_square_00/bottom_right/inputInstr_2.xlsx,stimuli/alien_stimuli/66.png,1365.3276945999824,1365.3276945999824,1365.3276945999824,1365.3276945999824,1365.3263055899647,return,6.81604229984805,"[-0.16, -0.08, 0, 0.08, 0.16, 0.24, 0.32, 0.4, 0.48, 0.56]","[-0.4, -0.32, -0.24, -0.16, -0.08, 0, 0.08, 0.16, 0.24, 0.32]",2,2,3,8,0.0,0.4,1372.3017728999257,1372.3017728999257,1372.3017728999257,1372.3017728999257,1372.3017728999257,1372.3017728999257,1372.3017728999257,1372.2819536602126,7.240269899833947,return,7.073700299952179,stimuli/alien_stimuli/66.png,66,8,1,,,,,,,,,,,,,,,,,,,,,,,,,,,,,,,,,,,,,,,,,,,,,,,,,,,,,,,,,,,,,,,,,,,,,,,,,,,,,,,,,,,,,,,,,DK031N,train_y,red_square,bottom_right,2025-04-28_16h00.42.426,HideSeek_v1,2022.2.5,59.94729438409275,
,,,,,,,,,,,30,,,,3,0,3,0,,,,,,,,,,,,,,,,,,,,,,,,,,,,,,,,,,,,,,,,,,,,,,,,,,,,,,,,,,,,,,,,,,,,,,,,,,,,,,21,0.7,0.45833333333333337,1,99,2,30,0,conditions/schedules/train_y_first/red_square_00/bottom_right/inputTrain_2.1.xlsx,99,1,2,1,0,,,,,,,,,,,,,,,,,,,,,,,,,,,,,,,,,,,,,,,,,,,,,,,,,,,,,,,,,,,,,,,,,,,,,,,,,,,DK031N,train_y,red_square,bottom_right,2025-04-28_16h00.42.426,HideSeek_v1,2022.2.5,59.94729438409275,
,,,,,,,,,,,,,,,4,0,4,0,0,0,0,0,,,,,,,,,,,,,,,,,,,,,,,,,,,,,,,conditions/schedules/train_y_first/red_square_00/bottom_right/instructions/Slide21.png,conditions/schedules/train_y_first/red_square_00/bottom_right/instructions/Audio21.wav,1379.5473484001122,1379.5380004299338,22,"[6.808564499951899, 18.813248000107706, 0.03720490029081702, 16.60239450028166, 19.473272799979895, 4.235889399889857, 4.734122199937701, 5.219764699693769, 11.503837399650365, 5.818788700271398, 6.900239999871701, 10.152545500081033, 13.984524399973452, 16.897092000115663, 16.777029399760067, 43.20851860009134, 30.015358299948275, 48.04302400024608, 11.270921300165355, 9.816632600035518, 12.555301600135863, 13.031688099727035]","[0.00021750014275312424, 18.813254899811, 0.014326899778097868, 16.602401200216264, 19.473279600031674, 0.06335359998047352, 0.0652458998374641, 0.06346899969503284, 0.0139145003631711, 0.08102309983223677, 0.07951269997283816, 0.013922699727118015, 13.9845314999111, 0.030461200047284365, 16.777036800049245, 0.07373249996453524, 30.0153655000031, 0.03058200003579259, 11.27092819986865, 0.06337150000035763, 12.55530870007351, 13.031694499775767]",1,[1.490170399658382],[0.014260200317949057],,,,,,,,,,,,,,,,,,,,,,,,,,,,,,,,,,,,,,,,,,,,,,,,,,,,,,,,,,,,,,,,,,,,,,,,,,,,,,,,,,,,,,,,,,,,,,,,,,,,,,,,,,,,,,,,,,,,,,,,,,DK031N,train_y,red_square,bottom_right,2025-04-28_16h00.42.426,HideSeek_v1,2022.2.5,59.94729438409275,
2,9,0,9,0,0,0,16,2,instr_dim1_2,,,,,,4,0,4,0,,,,,0,0,0,0,,,,,,,,,,,,,,,,,,,,,,,,,,,,,,,,,,,,,stimuli/alien_stimuli/16.png,conditions/schedules/train_y_first/red_square_00/bottom_right/inputInstr_2.xlsx,stimuli/alien_stimuli/16.png,1392.6827416000888,1392.6827416000888,1392.6827416000888,1392.6827416000888,1392.6822071898264,return,2.4513221997767687,"[-0.16, -0.08, 0, 0.08, 0.16, 0.24, 0.32, 0.4, 0.48, 0.56]","[-0.4, -0.32, -0.24, -0.16, -0.08, 0, 0.08, 0.16, 0.24, 0.32]",0,0,9,9,0.0,0.0,1395.2935150000267,1395.2935150000267,1395.2935150000267,1395.2935150000267,1395.2935150000267,1395.2935150000267,1395.2935150000267,1395.2843413301277,5.572016600053757,return,5.403399999719113,stimuli/alien_stimuli/16.png,16,9,2,,,,,,,,,,,,,,,,,,,,,,,,,,,,,,,,,,,,,,,,,,,,,,,,,,,,,,,,,,,,,,,,,,,,,,,,,,,,,,,,,,,,,,,,,DK031N,train_y,red_square,bottom_right,2025-04-28_16h00.42.426,HideSeek_v1,2022.2.5,59.94729438409275,
