trialInstr,x_fixStart,y_fixStart,x_corrSteps,y_corrSteps,x_nrSteps,y_nrSteps,alienID,trialLength,version,trialTrain,praclen,testlen,trial_label,break_on_off,beforeExpLoop.thisRepN,beforeExpLoop.thisTrialN,beforeExpLoop.thisN,beforeExpLoop.thisIndex,mini_instr_trials.thisRepN,mini_instr_trials.thisTrialN,mini_instr_trials.thisN,mini_instr_trials.thisIndex,instrLoop.thisRepN,instrLoop.thisTrialN,instrLoop.thisN,instrLoop.thisIndex,repeat_prac.thisRepN,repeat_prac.thisTrialN,repeat_prac.thisN,repeat_prac.thisIndex,trainLoop.thisRepN,trainLoop.thisTrialN,trainLoop.thisN,trainLoop.thisIndex,moveLoop_train.thisRepN,moveLoop_train.thisTrialN,moveLoop_train.thisN,moveLoop_train.thisIndex,experiment.thisRepN,experiment.thisTrialN,experiment.thisN,experiment.thisIndex,moveLoop_test.thisRepN,moveLoop_test.thisTrialN,moveLoop_test.thisN,moveLoop_test.thisIndex,mini_instr2_trials.thisRepN,mini_instr2_trials.thisTrialN,mini_instr2_trials.thisN,mini_instr2_trials.thisIndex,start_all_time,url,slideStim,audioStim,slides.started,sounds.started,nextButton.numClicks,nextButton.timesOn,nextButton.timesOff,prev_but.numClicks,prev_but.timesOn,prev_but.timesOff,alienStim,instrFile,alienStim_instr,gridImage_instr.started,startPos_3.started,key_instr.started,alienImage_3.started,sounds_1.started,key_instr.keys,key_instr.rt,all_x,all_y,FBy_corrSteps,FBy_fixStart,FBx_corrSteps,FBx_fixStart,FBy_pathSize_check,FBx_pathSize_check,gridImage_9.started,alienImageFB_3.started,startPosFB_3.started,keyFB_3.started,pathLine_ydir_2.started,pathLine_xdir_2.started,alienFace_3.started,sounds_2.started,RTFB_instr,keyFB_3.keys,keyFB_3.rt,draw_alienStim,draw_alienID,test_x,nrepcount,perfthres,percthres,earlierperf,earlystop,nextPrac,fileidx,praclen,saveACC_train,pracFile,nextPrac_train,addNrep,fileidx_endr,repExp,showearly,gridImage_4.started,startPos.started,movePos.started,key_resp.started,alienImage.started,wLy_dir,wLx_dir,x_movePos,y_movePos,buttonPress_train,RTchoice_train,cumAcctrain,aCorr,saveACC_choice,corrAns,x_movePos_end,y_movePos_end,key_resp.keys,key_resp.rt,text_2.started,text_2.stopped,aft_x_corrPos,aft_y_corrPos,y_pathSize_check,x_pathSize_check,y_pathdirY,x_pathdirY,x_pathdirX,x_corrPos,y_corrPos,gridImage_6.started,alienImageFB_2.started,startPosFB_2.started,movePosFB_2.started,keyFB_2.started,pathLine_xdir.started,pathLine_ydir.started,alienFace.started,sounds_4.started,RT_FBtrain,keyFB_2.keys,keyFB_2.rt,saveACC_pre,ACC,within_saveACC_train,earlystop_wloop,cumAcctrain_check,gridImage_3.started,alienImage_test.started,startPos_test.started,movePos_test.started,key_resp_test.started,wLy_dir_test,wLx_dir_test,buttonPress_test,RTchoice_test,cumAcctest,corrAns_test,key_resp_test.keys,key_resp_test.rt,text_3.started,text_3.stopped,total_time,end_all_time,key_resp_3.keys,slides_2.started,sounds_3.started,nextButton_2.numClicks,nextButton_2.timesOn,nextButton_2.timesOff,prev_but_2.numClicks,prev_but_2.timesOn,prev_but_2.timesOff,bye.started,participant,train_first,00_coordinate,starting corner,date,expName,psychopyVersion,frameRate,
,,,,,,,,,,,,,,,0,0,0,0,0,0,0,0,,,,,,,,,,,,,,,,,,,,,,,,,,,,,start_all_time,testround,conditions/schedules/train_x_first/blue_star_00/top_right/instructions/Slide1.png,conditions/schedules/train_x_first/blue_star_00/top_right/instructions/Audio1.wav,43.74548899999354,43.696691999875476,1,[3.3707778999814764],[3.370785899925977],0,,,,,,,,,,,,,,,,,,,,,,,,,,,,,,,,,,,,,,,,,,,,,,,,,,,,,,,,,,,,,,,,,,,,,,,,,,,,,,,,,,,,,,,,,,,,,,,,,,,,,,,,,,,,,,,,,,,,,,,,,,,,DK8Y4P,train_x,blue_star,top_right,2025-06-21_11h50.11.305,HideSeek_v1,2022.2.5,60.293702717071746,
,,,,,,,,,,,,,,,0,0,0,0,1,0,1,0,,,,,,,,,,,,,,,,,,,,,,,,,,,,,,,conditions/schedules/train_x_first/blue_star_00/top_right/instructions/Slide2.png,conditions/schedules/train_x_first/blue_star_00/top_right/instructions/Audio2.wav,47.136657100054435,47.13788560003741,2,"[3.3707778999814764, 17.746855900040828]","[0.03251980000641197, 17.746863099979237]",0,,,,,,,,,,,,,,,,,,,,,,,,,,,,,,,,,,,,,,,,,,,,,,,,,,,,,,,,,,,,,,,,,,,,,,,,,,,,,,,,,,,,,,,,,,,,,,,,,,,,,,,,,,,,,,,,,,,,,,,,,,,,DK8Y4P,train_x,blue_star,top_right,2025-06-21_11h50.11.305,HideSeek_v1,2022.2.5,60.293702717071746,
,,,,,,,,,,,,,,,0,0,0,0,2,0,2,0,,,,,,,,,,,,,,,,,,,,,,,,,,,,,,,conditions/schedules/train_x_first/blue_star_00/top_right/instructions/Slide3.png,conditions/schedules/train_x_first/blue_star_00/top_right/instructions/Audio3.wav,64.95982380001806,64.95257070002845,3,"[3.3707778999814764, 17.746855900040828, 16.67122469993774]","[0.03251980000641197, 17.746863099979237, 16.6712317999918]",0,,,,,,,,,,,,,,,,,,,,,,,,,,,,,,,,,,,,,,,,,,,,,,,,,,,,,,,,,,,,,,,,,,,,,,,,,,,,,,,,,,,,,,,,,,,,,,,,,,,,,,,,,,,,,,,,,,,,,,,,,,,,DK8Y4P,train_x,blue_star,top_right,2025-06-21_11h50.11.305,HideSeek_v1,2022.2.5,60.293702717071746,
,,,,,,,,,,,,,,,0,0,0,0,3,0,3,0,,,,,,,,,,,,,,,,,,,,,,,,,,,,,,,conditions/schedules/train_x_first/blue_star_00/top_right/instructions/Slide4.png,conditions/schedules/train_x_first/blue_star_00/top_right/instructions/Audio4.wav,81.71118470001966,81.69980690005468,4,"[3.3707778999814764, 17.746855900040828, 16.67122469993774, 19.11860079993494]","[0.03251980000641197, 17.746863099979237, 0.00022109993733465672, 19.118608099990524]",0,,,,,,,,,,,,,,,,,,,,,,,,,,,,,,,,,,,,,,,,,,,,,,,,,,,,,,,,,,,,,,,,,,,,,,,,,,,,,,,,,,,,,,,,,,,,,,,,,,,,,,,,,,,,,,,,,,,,,,,,,,,,DK8Y4P,train_x,blue_star,top_right,2025-06-21_11h50.11.305,HideSeek_v1,2022.2.5,60.293702717071746,
,,,,,,,,,,,,,,,0,0,0,0,4,0,4,0,,,,,,,,,,,,,,,,,,,,,,,,,,,,,,,conditions/schedules/train_x_first/blue_star_00/top_right/instructions/Slide5.png,conditions/schedules/train_x_first/blue_star_00/top_right/instructions/Audio5.wav,100.89379890006967,100.88222410001326,5,"[3.3707778999814764, 17.746855900040828, 16.67122469993774, 19.11860079993494, 4.807064900058322]","[0.03251980000641197, 17.746863099979237, 0.00022109993733465672, 0.0864280000096187, 4.807071999995969]",0,,,,,,,,,,,,,,,,,,,,,,,,,,,,,,,,,,,,,,,,,,,,,,,,,,,,,,,,,,,,,,,,,,,,,,,,,,,,,,,,,,,,,,,,,,,,,,,,,,,,,,,,,,,,,,,,,,,,,,,,,,,,DK8Y4P,train_x,blue_star,top_right,2025-06-21_11h50.11.305,HideSeek_v1,2022.2.5,60.293702717071746,
,,,,,,,,,,,,,,,0,0,0,0,5,0,5,0,,,,,,,,,,,,,,,,,,,,,,,,,,,,,,,conditions/schedules/train_x_first/blue_star_00/top_right/instructions/Slide6.png,conditions/schedules/train_x_first/blue_star_00/top_right/instructions/Audio6.wav,105.7522464999929,105.75311940007377,6,"[3.3707778999814764, 17.746855900040828, 16.67122469993774, 19.11860079993494, 4.807064900058322, 5.352848500013351]","[0.03251980000641197, 17.746863099979237, 0.00022109993733465672, 0.0864280000096187, 0.03173619997687638, 5.352854700060561]",0,,,,,,,,,,,,,,,,,,,,,,,,,,,,,,,,,,,,,,,,,,,,,,,,,,,,,,,,,,,,,,,,,,,,,,,,,,,,,,,,,,,,,,,,,,,,,,,,,,,,,,,,,,,,,,,,,,,,,,,,,,,,DK8Y4P,train_x,blue_star,top_right,2025-06-21_11h50.11.305,HideSeek_v1,2022.2.5,60.293702717071746,
,,,,,,,,,,,,,,,0,0,0,0,6,0,6,0,,,,,,,,,,,,,,,,,,,,,,,,,,,,,,,conditions/schedules/train_x_first/blue_star_00/top_right/instructions/Slide7.png,conditions/schedules/train_x_first/blue_star_00/top_right/instructions/Audio7.wav,111.15600700001232,111.15763680003583,7,"[3.3707778999814764, 17.746855900040828, 16.67122469993774, 19.11860079993494, 4.807064900058322, 5.352848500013351, 6.0374797999393195]","[0.03251980000641197, 17.746863099979237, 0.00022109993733465672, 0.0864280000096187, 0.03173619997687638, 0.06588439992628992, 6.037486199988052]",0,,,,,,,,,,,,,,,,,,,,,,,,,,,,,,,,,,,,,,,,,,,,,,,,,,,,,,,,,,,,,,,,,,,,,,,,,,,,,,,,,,,,,,,,,,,,,,,,,,,,,,,,,,,,,,,,,,,,,,,,,,,,DK8Y4P,train_x,blue_star,top_right,2025-06-21_11h50.11.305,HideSeek_v1,2022.2.5,60.293702717071746,
,,,,,,,,,,,,,,,0,0,0,0,7,0,7,0,,,,,,,,,,,,,,,,,,,,,,,,,,,,,,,conditions/schedules/train_x_first/blue_star_00/top_right/instructions/Slide8.png,conditions/schedules/train_x_first/blue_star_00/top_right/instructions/Audio8.wav,117.26653900009114,117.26280740002403,8,"[3.3707778999814764, 17.746855900040828, 16.67122469993774, 19.11860079993494, 4.807064900058322, 5.352848500013351, 6.0374797999393195, 11.269689699984156]","[0.03251980000641197, 17.746863099979237, 0.00022109993733465672, 0.0864280000096187, 0.03173619997687638, 0.06588439992628992, 0.013771599973551929, 11.269698399933986]",0,,,,,,,,,,,,,,,,,,,,,,,,,,,,,,,,,,,,,,,,,,,,,,,,,,,,,,,,,,,,,,,,,,,,,,,,,,,,,,,,,,,,,,,,,,,,,,,,,,,,,,,,,,,,,,,,,,,,,,,,,,,,DK8Y4P,train_x,blue_star,top_right,2025-06-21_11h50.11.305,HideSeek_v1,2022.2.5,60.293702717071746,
,,,,,,,,,,,,,,,0,0,0,0,8,0,8,0,,,,,,,,,,,,,,,,,,,,,,,,,,,,,,,conditions/schedules/train_x_first/blue_star_00/top_right/instructions/Slide9.png,conditions/schedules/train_x_first/blue_star_00/top_right/instructions/Audio9.wav,128.60065090004355,128.58879610006696,9,"[3.3707778999814764, 17.746855900040828, 16.67122469993774, 19.11860079993494, 4.807064900058322, 5.352848500013351, 6.0374797999393195, 11.269689699984156, 5.606585500063375]","[0.03251980000641197, 17.746863099979237, 0.00022109993733465672, 0.0864280000096187, 0.03173619997687638, 0.06588439992628992, 0.013771599973551929, 0.051980200107209384, 5.6065931000048295]",0,,,,,,,,,,,,,,,,,,,,,,,,,,,,,,,,,,,,,,,,,,,,,,,,,,,,,,,,,,,,,,,,,,,,,,,,,,,,,,,,,,,,,,,,,,,,,,,,,,,,,,,,,,,,,,,,,,,,,,,,,,,,DK8Y4P,train_x,blue_star,top_right,2025-06-21_11h50.11.305,HideSeek_v1,2022.2.5,60.293702717071746,
,,,,,,,,,,,,,,,0,0,0,0,9,0,9,0,,,,,,,,,,,,,,,,,,,,,,,,,,,,,,,conditions/schedules/train_x_first/blue_star_00/top_right/instructions/Slide10.png,conditions/schedules/train_x_first/blue_star_00/top_right/instructions/Audio10.wav,134.24676080001518,134.2430916999816,10,"[3.3707778999814764, 17.746855900040828, 16.67122469993774, 19.11860079993494, 4.807064900058322, 5.352848500013351, 6.0374797999393195, 11.269689699984156, 5.606585500063375, 6.616326399962418]","[0.03251980000641197, 17.746863099979237, 0.00022109993733465672, 0.0864280000096187, 0.03173619997687638, 0.06588439992628992, 0.013771599973551929, 0.051980200107209384, 0.09464739996474236, 6.616333700018004]",0,,,,,,,,,,,,,,,,,,,,,,,,,,,,,,,,,,,,,,,,,,,,,,,,,,,,,,,,,,,,,,,,,,,,,,,,,,,,,,,,,,,,,,,,,,,,,,,,,,,,,,,,,,,,,,,,,,,,,,,,,,,,DK8Y4P,train_x,blue_star,top_right,2025-06-21_11h50.11.305,HideSeek_v1,2022.2.5,60.293702717071746,
,,,,,,,,,,,,,,,0,0,0,0,10,0,10,0,,,,,,,,,,,,,,,,,,,,,,,,,,,,,,,conditions/schedules/train_x_first/blue_star_00/top_right/instructions/Slide11.png,conditions/schedules/train_x_first/blue_star_00/top_right/instructions/Audio11.wav,140.91921800002456,140.91558870004954,11,"[3.3707778999814764, 17.746855900040828, 16.67122469993774, 19.11860079993494, 4.807064900058322, 5.352848500013351, 6.0374797999393195, 11.269689699984156, 5.606585500063375, 6.616326399962418, 10.15473369997926]","[0.03251980000641197, 17.746863099979237, 0.00022109993733465672, 0.0864280000096187, 0.03173619997687638, 0.06588439992628992, 0.013771599973551929, 0.051980200107209384, 0.09464739996474236, 0.047809400013647974, 10.15474050003104]",0,,,,,,,,,,,,,,,,,,,,,,,,,,,,,,,,,,,,,,,,,,,,,,,,,,,,,,,,,,,,,,,,,,,,,,,,,,,,,,,,,,,,,,,,,,,,,,,,,,,,,,,,,,,,,,,,,,,,,,,,,,,,DK8Y4P,train_x,blue_star,top_right,2025-06-21_11h50.11.305,HideSeek_v1,2022.2.5,60.293702717071746,
,,,,,,,,,,,,,,,0,0,0,0,11,0,11,0,,,,,,,,,,,,,,,,,,,,,,,,,,,,,,,conditions/schedules/train_x_first/blue_star_00/top_right/instructions/Slide12.png,conditions/schedules/train_x_first/blue_star_00/top_right/instructions/Audio12.wav,151.14530350000132,151.1406866000616,12,"[3.3707778999814764, 17.746855900040828, 16.67122469993774, 19.11860079993494, 4.807064900058322, 5.352848500013351, 6.0374797999393195, 11.269689699984156, 5.606585500063375, 6.616326399962418, 10.15473369997926, 12.419700000085868]","[0.03251980000641197, 17.746863099979237, 0.00022109993733465672, 0.0864280000096187, 0.03173619997687638, 0.06588439992628992, 0.013771599973551929, 0.051980200107209384, 0.09464739996474236, 0.047809400013647974, 0.07981390005443245, 12.419707300025038]",0,,,,,,,,,,,,,,,,,,,,,,,,,,,,,,,,,,,,,,,,,,,,,,,,,,,,,,,,,,,,,,,,,,,,,,,,,,,,,,,,,,,,,,,,,,,,,,,,,,,,,,,,,,,,,,,,,,,,,,,,,,,,DK8Y4P,train_x,blue_star,top_right,2025-06-21_11h50.11.305,HideSeek_v1,2022.2.5,60.293702717071746,
1,9,5,4,5,-5,0,11,2,instr_dim1_1,,,,,,0,0,0,0,,,,,0,0,0,0,,,,,,,,,,,,,,,,,,,,,,,,,,,,,,,,,,,,,stimuli/alien_stimuli/11.png,conditions/schedules/train_x_first/blue_star_00/top_right/inputInstr_1.xlsx,stimuli/alien_stimuli/11.png,163.65234450006392,163.65234450006392,163.65234450006392,163.65234450006392,163.6509737000335,return,9.333811399992555,"[-0.16, -0.08, 0, 0.08, 0.16, 0.24, 0.32, 0.4, 0.48, 0.56]","[-0.4, -0.32, -0.24, -0.16, -0.08, 0, 0.08, 0.16, 0.24, 0.32]",5,5,4,9,0.0,0.4,173.1326266999822,173.1326266999822,173.1326266999822,173.1326266999822,173.1326266999822,173.1326266999822,173.1326266999822,173.12563749998807,9.324998800060712,return,9.170343899982981,stimuli/alien_stimuli/11.png,11,9,1,,,,,,,,,,,,,,,,,,,,,,,,,,,,,,,,,,,,,,,,,,,,,,,,,,,,,,,,,,,,,,,,,,,,,,,,,,,,,,,,,,,,,,,,,DK8Y4P,train_x,blue_star,top_right,2025-06-21_11h50.11.305,HideSeek_v1,2022.2.5,60.293702717071746,
,,,,,,,,,,,30,,,,0,0,0,0,,,,,,,,,,,,,,,,,,,,,,,,,,,,,,,,,,,,,,,,,,,,,,,,,,,,,,,,,,,,,,,,,,,,,,,,,,,,,,21,0.7,0,0,99,1,30,0,conditions/schedules/train_x_first/blue_star_00/top_right/inputTrain_1.1.xlsx,99,1,1,1,0,,,,,,,,,,,,,,,,,,,,,,,,,,,,,,,,,,,,,,,,,,,,,,,,,,,,,,,,,,,,,,,,,,,,,,,,,,,DK8Y4P,train_x,blue_star,top_right,2025-06-21_11h50.11.305,HideSeek_v1,2022.2.5,60.293702717071746,
,,,,,,,,,,,,,,,1,0,1,0,0,0,0,0,,,,,,,,,,,,,,,,,,,,,,,,,,,,,,,conditions/schedules/train_x_first/blue_star_00/top_right/instructions/Slide13.png,conditions/schedules/train_x_first/blue_star_00/top_right/instructions/Audio13.wav,182.46419970004354,182.4666927000624,13,"[3.3707778999814764, 17.746855900040828, 16.67122469993774, 19.11860079993494, 4.807064900058322, 5.352848500013351, 6.0374797999393195, 11.269689699984156, 5.606585500063375, 6.616326399962418, 10.15473369997926, 12.419700000085868, 16.129910200019367]","[0.03251980000641197, 17.746863099979237, 0.00022109993733465672, 0.0864280000096187, 0.03173619997687638, 0.06588439992628992, 0.013771599973551929, 0.051980200107209384, 0.09464739996474236, 0.047809400013647974, 0.07981390005443245, 12.419707300025038, 16.129917299957015]",0,,,,,,,,,,,,,,,,,,,,,,,,,,,,,,,,,,,,,,,,,,,,,,,,,,,,,,,,,,,,,,,,,,,,,,,,,,,,,,,,,,,,,,,,,,,,,,,,,,,,,,,,,,,,,,,,,,,,,,,,,,,,DK8Y4P,train_x,blue_star,top_right,2025-06-21_11h50.11.305,HideSeek_v1,2022.2.5,60.293702717071746,
,,,,,,,,,,,,,,,1,0,1,0,1,0,1,0,,,,,,,,,,,,,,,,,,,,,,,,,,,,,,,conditions/schedules/train_x_first/blue_star_00/top_right/instructions/Slide14.png,conditions/schedules/train_x_first/blue_star_00/top_right/instructions/Audio14.wav,198.67073520005215,198.66350760002388,14,"[3.3707778999814764, 17.746855900040828, 16.67122469993774, 19.11860079993494, 4.807064900058322, 5.352848500013351, 6.0374797999393195, 11.269689699984156, 5.606585500063375, 6.616326399962418, 10.15473369997926, 12.419700000085868, 16.129910200019367, 12.533687499933876]","[0.03251980000641197, 17.746863099979237, 0.00022109993733465672, 0.0864280000096187, 0.03173619997687638, 0.06588439992628992, 0.013771599973551929, 0.051980200107209384, 0.09464739996474236, 0.047809400013647974, 0.07981390005443245, 12.419707300025038, 0.09046420000959188, 12.533694199984893]",0,,,,,,,,,,,,,,,,,,,,,,,,,,,,,,,,,,,,,,,,,,,,,,,,,,,,,,,,,,,,,,,,,,,,,,,,,,,,,,,,,,,,,,,,,,,,,,,,,,,,,,,,,,,,,,,,,,,,,,,,,,,,DK8Y4P,train_x,blue_star,top_right,2025-06-21_11h50.11.305,HideSeek_v1,2022.2.5,60.293702717071746,
2,8,7,8,7,0,0,61,2,instr_dim1_1,,,,,,1,0,1,0,,,,,0,0,0,0,,,,,,,,,,,,,,,,,,,,,,,,,,,,,,,,,,,,,stimuli/alien_stimuli/61.png,conditions/schedules/train_x_first/blue_star_00/top_right/inputInstr_1.xlsx,stimuli/alien_stimuli/61.png,211.30751960002817,211.30751960002817,211.30751960002817,211.30751960002817,211.30704720007486,return,4.281885200063698,"[-0.16, -0.08, 0, 0.08, 0.16, 0.24, 0.32, 0.4, 0.48, 0.56]","[-0.4, -0.32, -0.24, -0.16, -0.08, 0, 0.08, 0.16, 0.24, 0.32]",7,7,8,8,0.0,0.0,215.7474042000249,215.7474042000249,215.7474042000249,215.7474042000249,215.7474042000249,215.7474042000249,215.7474042000249,215.72742330005858,6.739864300005138,return,6.58136910002213,stimuli/alien_stimuli/61.png,61,8,2,,,,,,,,,,,,,,,,,,,,,,,,,,,,,,,,,,,,,,,,,,,,,,,,,,,,,,,,,,,,,,,,,,,,,,,,,,,,,,,,,,,,,,,,,DK8Y4P,train_x,blue_star,top_right,2025-06-21_11h50.11.305,HideSeek_v1,2022.2.5,60.293702717071746,
,,,,,,,,,,,30,,,,1,0,1,0,,,,,,,,,,,,,,,,,,,,,,,,,,,,,,,,,,,,,,,,,,,,,,,,,,,,,,,,,,,,,,,,,,,,,,,,,,,,,,21,0.7,0,0,99,1,30,0,conditions/schedules/train_x_first/blue_star_00/top_right/inputTrain_1.1.xlsx,99,1,1,1,0,,,,,,,,,,,,,,,,,,,,,,,,,,,,,,,,,,,,,,,,,,,,,,,,,,,,,,,,,,,,,,,,,,,,,,,,,,,DK8Y4P,train_x,blue_star,top_right,2025-06-21_11h50.11.305,HideSeek_v1,2022.2.5,60.293702717071746,
,,,,,,,,,,,,,,,2,0,2,0,0,0,0,0,,,,,,,,,,,,,,,,,,,,,,,,,,,,,,,conditions/schedules/train_x_first/blue_star_00/top_right/instructions/Slide15.png,conditions/schedules/train_x_first/blue_star_00/top_right/instructions/Audio15.wav,222.48765740008093,222.48313399999168,15,"[3.3707778999814764, 17.746855900040828, 16.67122469993774, 19.11860079993494, 4.807064900058322, 5.352848500013351, 6.0374797999393195, 11.269689699984156, 5.606585500063375, 6.616326399962418, 10.15473369997926, 12.419700000085868, 16.129910200019367, 12.533687499933876, 31.035039699985646]","[0.03251980000641197, 17.746863099979237, 0.00022109993733465672, 0.0864280000096187, 0.03173619997687638, 0.06588439992628992, 0.013771599973551929, 0.051980200107209384, 0.09464739996474236, 0.047809400013647974, 0.07981390005443245, 12.419707300025038, 0.09046420000959188, 12.533694199984893, 31.03504620003514]",0,,,,,,,,,,,,,,,,,,,,,,,,,,,,,,,,,,,,,,,,,,,,,,,,,,,,,,,,,,,,,,,,,,,,,,,,,,,,,,,,,,,,,,,,,,,,,,,,,,,,,,,,,,,,,,,,,,,,,,,,,,,,DK8Y4P,train_x,blue_star,top_right,2025-06-21_11h50.11.305,HideSeek_v1,2022.2.5,60.293702717071746,
,,,,,,,,,,,,,,,2,0,2,0,1,0,1,0,,,,,,,,,,,,,,,,,,,,,,,,,,,,,,,conditions/schedules/train_x_first/blue_star_00/top_right/instructions/Slide16.png,conditions/schedules/train_x_first/blue_star_00/top_right/instructions/Audio16.wav,253.5984058000613,253.59236020006938,16,"[3.3707778999814764, 17.746855900040828, 16.67122469993774, 19.11860079993494, 4.807064900058322, 5.352848500013351, 6.0374797999393195, 11.269689699984156, 5.606585500063375, 6.616326399962418, 10.15473369997926, 12.419700000085868, 16.129910200019367, 12.533687499933876, 31.035039699985646, 22.977649899898097]","[0.03251980000641197, 17.746863099979237, 0.00022109993733465672, 0.0864280000096187, 0.03173619997687638, 0.06588439992628992, 0.013771599973551929, 0.051980200107209384, 0.09464739996474236, 0.047809400013647974, 0.07981390005443245, 12.419707300025038, 0.09046420000959188, 12.533694199984893, 0.06381939991842955, 22.97765709995292]",0,,,,,,,,,,,,,,,,,,,,,,,,,,,,,,,,,,,,,,,,,,,,,,,,,,,,,,,,,,,,,,,,,,,,,,,,,,,,,,,,,,,,,,,,,,,,,,,,,,,,,,,,,,,,,,,,,,,,,,,,,,,,DK8Y4P,train_x,blue_star,top_right,2025-06-21_11h50.11.305,HideSeek_v1,2022.2.5,60.293702717071746,
,7,6,4,6,-3,0,31,,train_dim1_1,1,30,,,,2,0,2,0,,,,,,,,,0,0,0,0,0,0,0,0,0,0,0,0,,,,,,,,,,,,,,,,,,,,,,,,,stimuli/alien_stimuli/31.png,,,,,,,,,,,,,,,,,,,,,,,,,,,,,,,,,,,,,,,30,,,,,,,,276.6696618000278,276.6696618000278,276.6696618000278,276.6696618000278,276.6696618000278,0,0,0.4,0.08,return,3.480743700056337,0,0,0,0,0.4,0.08,return,3.394338299985975,,,,,,,,,,,,,,,,,,,,,,,,,,,,,,,,,,,,,,,,,,,,,,,,,,,,,,,,DK8Y4P,train_x,blue_star,top_right,2025-06-21_11h50.11.305,HideSeek_v1,2022.2.5,60.293702717071746,
,7,9,2,9,-5,0,11,,train_dim1_1,2,30,,,,2,0,2,0,,,,,,,,,0,0,0,0,0,1,1,1,0,0,0,0,,,,,,,,,,,,,,,,,,,,,,,,,stimuli/alien_stimuli/11.png,,,,,,,,,,,,,,,,,,,,,,,,,,,,,stimuli/alien_stimuli/31.png,31,7,3,,,,,,,30,,,,,,,,288.4014705000445,288.4014705000445,288.4014705000445,288.4014705000445,288.4014705000445,,,,,down,5.775830499944277,0,0,0,99,0.4,0.24,down,5.6780056999996305,286.83631949999835,288.4014705000445,0.16,0.08,0.0,0.24,0.08,0.16,0.28,0.16,0.08,281.7124055000022,281.7124055000022,281.7124055000022,281.7124055000022,281.7124055000022,281.7124055000022,281.7124055000022,281.7124055000022,281.6990936000715,5.239597099949606,return,5.097175200004131,,,,,,,,,,,,,,,,,,,,,,,,,,,,,,,,,DK8Y4P,train_x,blue_star,top_right,2025-06-21_11h50.11.305,HideSeek_v1,2022.2.5,60.293702717071746,
,7,9,2,9,-5,0,11,,train_dim1_1,2,30,,,,2,0,2,0,,,,,,,,,0,0,0,0,0,1,1,1,1,0,1,0,,,,,,,,,,,,,,,,,,,,,,,,,,,,,,,,,,,,,,,,,,,,,,,,,,,,,,,,,,,,,,,,30,,,,,,,,294.1768606000114,294.1768606000114,294.1768606000114,294.1768606000114,294.1768606000114,,,,,left,1.4937664000317454,0,0,0,99,0.32,0.24,left,1.4119445000542328,,,,,,,,,,,,,,,,,,,,,,,,,,,,,,,,,,,,,,,,,,,,,,,,,,,,,,,,DK8Y4P,train_x,blue_star,top_right,2025-06-21_11h50.11.305,HideSeek_v1,2022.2.5,60.293702717071746,
,7,9,2,9,-5,0,11,,train_dim1_1,2,30,,,,2,0,2,0,,,,,,,,,0,0,0,0,0,1,1,1,2,0,2,0,,,,,,,,,,,,,,,,,,,,,,,,,,,,,,,,,,,,,,,,,,,,,,,,,,,,,,,,,,,,,,,,30,,,,,,,,295.67959580000024,295.67959580000024,295.67959580000024,295.67959580000024,295.67959580000024,,,,,down,1.9932344999397174,0,0,0,99,0.32,0.15999999999999998,down,1.908095799968578,,,,,,,,,,,,,,,,,,,,,,,,,,,,,,,,,,,,,,,,,,,,,,,,,,,,,,,,DK8Y4P,train_x,blue_star,top_right,2025-06-21_11h50.11.305,HideSeek_v1,2022.2.5,60.293702717071746,
,7,9,2,9,-5,0,11,,train_dim1_1,2,30,,,,2,0,2,0,,,,,,,,,0,0,0,0,0,1,1,1,3,0,3,0,,,,,,,,,,,,,,,,,,,,,,,,,,,,,,,,,,,,,,,,,,,,,,,,,,,,,,,,,,,,,,,,30,,,,,,,,297.67993109999225,297.67993109999225,297.67993109999225,297.67993109999225,297.67993109999225,,,,,up,2.0947744000004604,0,0,0,99,0.32,0.24,up,2.003759099985473,,,,,,,,,,,,,,,,,,,,,,,,,,,,,,,,,,,,,,,,,,,,,,,,,,,,,,,,DK8Y4P,train_x,blue_star,top_right,2025-06-21_11h50.11.305,HideSeek_v1,2022.2.5,60.293702717071746,
,7,9,2,9,-5,0,11,,train_dim1_1,2,30,,,,2,0,2,0,,,,,,,,,0,0,0,0,0,1,1,1,4,0,4,0,,,,,,,,,,,,,,,,,,,,,,,,,,,,,,,,,,,,,,,,,,,,,,,,,,,,,,,,,,,,,,,,30,,,,,,,,299.7818997000577,299.7818997000577,299.7818997000577,299.7818997000577,299.7818997000577,,,,,left,0.6261948999017477,0,0,0,99,0.24,0.24,left,0.5342472000047565,,,,,,,,,,,,,,,,,,,,,,,,,,,,,,,,,,,,,,,,,,,,,,,,,,,,,,,,DK8Y4P,train_x,blue_star,top_right,2025-06-21_11h50.11.305,HideSeek_v1,2022.2.5,60.293702717071746,
,7,9,2,9,-5,0,11,,train_dim1_1,2,30,,,,2,0,2,0,,,,,,,,,0,0,0,0,0,1,1,1,5,0,5,0,,,,,,,,,,,,,,,,,,,,,,,,,,,,,,,,,,,,,,,,,,,,,,,,,,,,,,,,,,,,,,,,30,,,,,,,,300.41511210007593,300.41511210007593,300.41511210007593,300.41511210007593,300.41511210007593,,,,,left,0.6101641000714153,0,0,0,99,0.15999999999999998,0.24,left,0.5305736999725923,,,,,,,,,,,,,,,,,,,,,,,,,,,,,,,,,,,,,,,,,,,,,,,,,,,,,,,,DK8Y4P,train_x,blue_star,top_right,2025-06-21_11h50.11.305,HideSeek_v1,2022.2.5,60.293702717071746,
,7,9,2,9,-5,0,11,,train_dim1_1,2,30,,,,2,0,2,0,,,,,,,,,0,0,0,0,0,1,1,1,6,0,6,0,,,,,,,,,,,,,,,,,,,,,,,,,,,,,,,,,,,,,,,,,,,,,,,,,,,,,,,,,,,,,,,,30,,,,,,,,301.03181210008916,301.03181210008916,301.03181210008916,301.03181210008916,301.03181210008916,,,,,down,1.7110501000424847,0,0,0,99,0.15999999999999998,0.15999999999999998,down,1.6332091999938712,,,,,,,,,,,,,,,,,,,,,,,,,,,,,,,,,,,,,,,,,,,,,,,,,,,,,,,,DK8Y4P,train_x,blue_star,top_right,2025-06-21_11h50.11.305,HideSeek_v1,2022.2.5,60.293702717071746,
,7,9,2,9,-5,0,11,,train_dim1_1,2,30,,,,2,0,2,0,,,,,,,,,0,0,0,0,0,1,1,1,7,0,7,0,,,,,,,,,,,,,,,,,,,,,,,,,,,,,,,,,,,,,,,,,,,,,,,,,,,,,,,,,,,,,,,,30,,,,,,,,302.7508716000011,302.7508716000011,302.7508716000011,302.7508716000011,302.7508716000011,,,,,down,3.1951710999710485,0,0,0,99,0.15999999999999998,0.07999999999999997,down,3.1120844000251964,,,,,,,,,,,,,,,,,,,,,,,,,,,,,,,,,,,,,,,,,,,,,,,,,,,,,,,,DK8Y4P,train_x,blue_star,top_right,2025-06-21_11h50.11.305,HideSeek_v1,2022.2.5,60.293702717071746,
,7,9,2,9,-5,0,11,,train_dim1_1,2,30,,,,2,0,2,0,,,,,,,,,0,0,0,0,0,1,1,1,8,0,8,0,,,,,,,,,,,,,,,,,,,,,,,,,,,,,,,,,,,,,,,,,,,,,,,,,,,,,,,,,,,,,,,,30,,,,,,,,305.9529499000637,305.9529499000637,305.9529499000637,305.9529499000637,305.9529499000637,,,,,left,0.5263573999982327,0,0,0,99,0.07999999999999997,0.07999999999999997,left,0.44253909995313734,,,,,,,,,,,,,,,,,,,,,,,,,,,,,,,,,,,,,,,,,,,,,,,,,,,,,,,,DK8Y4P,train_x,blue_star,top_right,2025-06-21_11h50.11.305,HideSeek_v1,2022.2.5,60.293702717071746,
,7,9,2,9,-5,0,11,,train_dim1_1,2,30,,,,2,0,2,0,,,,,,,,,0,0,0,0,0,1,1,1,9,0,9,0,,,,,,,,,,,,,,,,,,,,,,,,,,,,,,,,,,,,,,,,,,,,,,,,,,,,,,,,,,,,,,,,30,,,,,,,,306.48650450003333,306.48650450003333,306.48650450003333,306.48650450003333,306.48650450003333,-3,-4,0.07999999999999997,0.07999999999999997,return,1.3442159000551328,0,0,0,0,0.07999999999999997,0.07999999999999997,return,1.2659163000062108,,,,,,,,,,,,,,,,,,,,,,,,,,,,,,,,,,,,,,,,,,,,,,,,,,,,,,,,DK8Y4P,train_x,blue_star,top_right,2025-06-21_11h50.11.305,HideSeek_v1,2022.2.5,60.293702717071746,
,9,9,5,9,-4,0,21,,train_dim1_1,3,30,,,,2,0,2,0,,,,,,,,,0,0,0,0,0,2,2,2,0,0,0,0,,,,,,,,,,,,,,,,,,,,,,,,,stimuli/alien_stimuli/21.png,,,,,,,,,,,,,,,,,,,,,,,,,,,,,stimuli/alien_stimuli/11.png,11,7,4,,,,,,,30,,,,,,,,314.49083350005094,314.49083350005094,314.49083350005094,314.49083350005094,314.49083350005094,,,,,left,7.558512599905953,0,0,0,99,0.48000000000000004,0.32,left,7.471342699951492,312.9246075000847,314.49083350005094,0,0.32,0.0,0.4,0.32,0,0.2,0,0.32,309.41151680005714,309.41151680005714,309.41151680005714,309.41151680005714,309.41151680005714,309.41151680005714,309.41151680005714,309.41151680005714,309.4052422000328,3.638357099960558,return,3.4963453999953344,,,,,,,,,,,,,,,,,,,,,,,,,,,,,,,,,DK8Y4P,train_x,blue_star,top_right,2025-06-21_11h50.11.305,HideSeek_v1,2022.2.5,60.293702717071746,
,9,9,5,9,-4,0,21,,train_dim1_1,3,30,,,,2,0,2,0,,,,,,,,,0,0,0,0,0,2,2,2,1,0,1,0,,,,,,,,,,,,,,,,,,,,,,,,,,,,,,,,,,,,,,,,,,,,,,,,,,,,,,,,,,,,,,,,30,,,,,,,,322.0508900000714,322.0508900000714,322.0508900000714,322.0508900000714,322.0508900000714,,,,,left,0.7098539000144228,0,0,0,99,0.4,0.32,left,0.6273014999460429,,,,,,,,,,,,,,,,,,,,,,,,,,,,,,,,,,,,,,,,,,,,,,,,,,,,,,,,DK8Y4P,train_x,blue_star,top_right,2025-06-21_11h50.11.305,HideSeek_v1,2022.2.5,60.293702717071746,
,9,9,5,9,-4,0,21,,train_dim1_1,3,30,,,,2,0,2,0,,,,,,,,,0,0,0,0,0,2,2,2,2,0,2,0,,,,,,,,,,,,,,,,,,,,,,,,,,,,,,,,,,,,,,,,,,,,,,,,,,,,,,,,,,,,,,,,30,,,,,,,,322.7686928000767,322.7686928000767,322.7686928000767,322.7686928000767,322.7686928000767,,,,,left,0.5250453000189736,0,0,0,99,0.32,0.32,left,0.43617920007091016,,,,,,,,,,,,,,,,,,,,,,,,,,,,,,,,,,,,,,,,,,,,,,,,,,,,,,,,DK8Y4P,train_x,blue_star,top_right,2025-06-21_11h50.11.305,HideSeek_v1,2022.2.5,60.293702717071746,
,9,9,5,9,-4,0,21,,train_dim1_1,3,30,,,,2,0,2,0,,,,,,,,,0,0,0,0,0,2,2,2,3,0,3,0,,,,,,,,,,,,,,,,,,,,,,,,,,,,,,,,,,,,,,,,,,,,,,,,,,,,,,,,,,,,,,,,30,,,,,,,,323.3003777000122,323.3003777000122,323.3003777000122,323.3003777000122,323.3003777000122,,,,,left,0.3930731000145897,0,0,0,99,0.24,0.32,left,0.3046302000293508,,,,,,,,,,,,,,,,,,,,,,,,,,,,,,,,,,,,,,,,,,,,,,,,,,,,,,,,DK8Y4P,train_x,blue_star,top_right,2025-06-21_11h50.11.305,HideSeek_v1,2022.2.5,60.293702717071746,
,9,9,5,9,-4,0,21,,train_dim1_1,3,30,,,,2,0,2,0,,,,,,,,,0,0,0,0,0,2,2,2,4,0,4,0,,,,,,,,,,,,,,,,,,,,,,,,,,,,,,,,,,,,,,,,,,,,,,,,,,,,,,,,,,,,,,,,30,,,,,,,,323.70124760002363,323.70124760002363,323.70124760002363,323.70124760002363,323.70124760002363,,,,,down,2.34488699992653,0,0,0,99,0.24,0.24,down,2.2674235000740737,,,,,,,,,,,,,,,,,,,,,,,,,,,,,,,,,,,,,,,,,,,,,,,,,,,,,,,,DK8Y4P,train_x,blue_star,top_right,2025-06-21_11h50.11.305,HideSeek_v1,2022.2.5,60.293702717071746,
,9,9,5,9,-4,0,21,,train_dim1_1,3,30,,,,2,0,2,0,,,,,,,,,0,0,0,0,0,2,2,2,5,0,5,0,,,,,,,,,,,,,,,,,,,,,,,,,,,,,,,,,,,,,,,,,,,,,,,,,,,,,,,,,,,,,,,,30,,,,,,,,326.0526133000385,326.0526133000385,326.0526133000385,326.0526133000385,326.0526133000385,-4,-8,0.24,0.24,return,5.6978611999657005,0,1,0,0,0.24,0.24,return,5.618724899948575,,,,,,,,,,,,,,,,,,,,,,,,,,,,,,,,,,,,,,,,,,,,,,,,,,,,,,,,DK8Y4P,train_x,blue_star,top_right,2025-06-21_11h50.11.305,HideSeek_v1,2022.2.5,60.293702717071746,
,7,8,6,8,-1,0,51,,train_dim1_1,4,30,,,,2,0,2,0,,,,,,,,,0,0,0,0,0,3,3,3,0,0,0,0,,,,,,,,,,,,,,,,,,,,,,,,,stimuli/alien_stimuli/51.png,,,,,,,,,,,,,,,,,,,,,,,,,,,,,stimuli/alien_stimuli/21.png,21,9,5,,,,,,,30,,,,,,,,343.74591769999824,343.74591769999824,343.74591769999824,343.74591769999824,343.74591769999824,,,,,left,5.343626599991694,0,1,0,99,0.32,0.24,left,5.242106800084002,342.1658263000427,343.74591769999824,0.24,0.32,0.0,0.32,0.32,0.24,0.4,0.24,0.32,333.3441868000664,333.3441868000664,333.3441868000664,333.3441868000664,333.3441868000664,333.3441868000664,333.3441868000664,333.3441868000664,333.3252077000448,8.95990790007636,return,8.805756099987775,,,,,,,,,,,,,,,,,,,,,,,,,,,,,,,,,DK8Y4P,train_x,blue_star,top_right,2025-06-21_11h50.11.305,HideSeek_v1,2022.2.5,60.293702717071746,
,7,8,6,8,-1,0,51,,train_dim1_1,4,30,,,,2,0,2,0,,,,,,,,,0,0,0,0,0,3,3,3,1,0,1,0,,,,,,,,,,,,,,,,,,,,,,,,,,,,,,,,,,,,,,,,,,,,,,,,,,,,,,,,,,,,,,,,30,,,,,,,,349.0718859999906,349.0718859999906,349.0718859999906,349.0718859999906,349.0718859999906,,,,,left,0.759992599952966,0,1,0,99,0.24,0.24,left,0.6699338000034913,,,,,,,,,,,,,,,,,,,,,,,,,,,,,,,,,,,,,,,,,,,,,,,,,,,,,,,,DK8Y4P,train_x,blue_star,top_right,2025-06-21_11h50.11.305,HideSeek_v1,2022.2.5,60.293702717071746,
,7,8,6,8,-1,0,51,,train_dim1_1,4,30,,,,2,0,2,0,,,,,,,,,0,0,0,0,0,3,3,3,2,0,2,0,,,,,,,,,,,,,,,,,,,,,,,,,,,,,,,,,,,,,,,,,,,,,,,,,,,,,,,,,,,,,,,,30,,,,,,,,349.83798260008916,349.83798260008916,349.83798260008916,349.83798260008916,349.83798260008916,,,,,left,0.5934250999707729,0,1,0,99,0.15999999999999998,0.24,left,0.5064369000028819,,,,,,,,,,,,,,,,,,,,,,,,,,,,,,,,,,,,,,,,,,,,,,,,,,,,,,,,DK8Y4P,train_x,blue_star,top_right,2025-06-21_11h50.11.305,HideSeek_v1,2022.2.5,60.293702717071746,
,7,8,6,8,-1,0,51,,train_dim1_1,4,30,,,,2,0,2,0,,,,,,,,,0,0,0,0,0,3,3,3,3,0,3,0,,,,,,,,,,,,,,,,,,,,,,,,,,,,,,,,,,,,,,,,,,,,,,,,,,,,,,,,,,,,,,,,30,,,,,,,,350.43796040001325,350.43796040001325,350.43796040001325,350.43796040001325,350.43796040001325,,,,,left,2.394687000080012,0,1,0,99,0.07999999999999997,0.24,left,2.3044748000102118,,,,,,,,,,,,,,,,,,,,,,,,,,,,,,,,,,,,,,,,,,,,,,,,,,,,,,,,DK8Y4P,train_x,blue_star,top_right,2025-06-21_11h50.11.305,HideSeek_v1,2022.2.5,60.293702717071746,
,7,8,6,8,-1,0,51,,train_dim1_1,4,30,,,,2,0,2,0,,,,,,,,,0,0,0,0,0,3,3,3,4,0,4,0,,,,,,,,,,,,,,,,,,,,,,,,,,,,,,,,,,,,,,,,,,,,,,,,,,,,,,,,,,,,,,,,30,,,,,,,,352.83962860004976,352.83962860004976,352.83962860004976,352.83962860004976,352.83962860004976,,,,,down,0.5436183999991044,0,1,0,99,0.07999999999999997,0.15999999999999998,down,0.4697135000023991,,,,,,,,,,,,,,,,,,,,,,,,,,,,,,,,,,,,,,,,,,,,,,,,,,,,,,,,DK8Y4P,train_x,blue_star,top_right,2025-06-21_11h50.11.305,HideSeek_v1,2022.2.5,60.293702717071746,
,7,8,6,8,-1,0,51,,train_dim1_1,4,30,,,,2,0,2,0,,,,,,,,,0,0,0,0,0,3,3,3,5,0,5,0,,,,,,,,,,,,,,,,,,,,,,,,,,,,,,,,,,,,,,,,,,,,,,,,,,,,,,,,,,,,,,,,30,,,,,,,,353.39179740007967,353.39179740007967,353.39179740007967,353.39179740007967,353.39179740007967,-5,-12,0.07999999999999997,0.15999999999999998,return,0.7430736999958754,0,0,0,0,0.07999999999999997,0.15999999999999998,return,0.6610302999615669,,,,,,,,,,,,,,,,,,,,,,,,,,,,,,,,,,,,,,,,,,,,,,,,,,,,,,,,DK8Y4P,train_x,blue_star,top_right,2025-06-21_11h50.11.305,HideSeek_v1,2022.2.5,60.293702717071746,
,5,7,5,7,0,0,61,,train_dim1_1,5,30,,,,2,0,2,0,,,,,,,,,0,0,0,0,0,4,4,4,0,0,0,0,,,,,,,,,,,,,,,,,,,,,,,,,stimuli/alien_stimuli/61.png,,,,,,,,,,,,,,,,,,,,,,,,,,,,,stimuli/alien_stimuli/51.png,51,7,6,,,,,,,30,,,,,,,,360.7374673000304,360.7374673000304,360.7374673000304,360.7374673000304,360.7374673000304,,,,,left,3.858873200020753,0,0,0,99,0.15999999999999998,0.16,left,3.7759389999555424,359.1799724000739,360.7374673000304,0.32,0.24,0.0,0.08,0.24,0.32,0.36,0.32,0.24,355.71178990008775,355.71178990008775,355.71178990008775,355.71178990008775,355.71178990008775,355.71178990008775,355.71178990008775,355.71178990008775,355.69350339999653,3.588760199956596,return,3.4360448999796063,,,,,,,,,,,,,,,,,,,,,,,,,,,,,,,,,DK8Y4P,train_x,blue_star,top_right,2025-06-21_11h50.11.305,HideSeek_v1,2022.2.5,60.293702717071746,
,5,7,5,7,0,0,61,,train_dim1_1,5,30,,,,2,0,2,0,,,,,,,,,0,0,0,0,0,4,4,4,1,0,1,0,,,,,,,,,,,,,,,,,,,,,,,,,,,,,,,,,,,,,,,,,,,,,,,,,,,,,,,,,,,,,,,,30,,,,,,,,364.5979921000544,364.5979921000544,364.5979921000544,364.5979921000544,364.5979921000544,-5,-13,0.15999999999999998,0.16,return,1.0097649999661371,0,1,0,0,0.15999999999999998,0.16,return,0.9287507000844926,,,,,,,,,,,,,,,,,,,,,,,,,,,,,,,,,,,,,,,,,,,,,,,,,,,,,,,,DK8Y4P,train_x,blue_star,top_right,2025-06-21_11h50.11.305,HideSeek_v1,2022.2.5,60.293702717071746,
,5,5,1,5,-4,0,21,,train_dim1_1,6,30,,,,2,0,2,0,,,,,,,,,0,0,0,0,0,5,5,5,0,0,0,0,,,,,,,,,,,,,,,,,,,,,,,,,stimuli/alien_stimuli/21.png,,,,,,,,,,,,,,,,,,,,,,,,,,,,,stimuli/alien_stimuli/61.png,61,5,7,,,,,,,30,,,,,,,,371.5531292000087,371.5531292000087,371.5531292000087,371.5531292000087,371.5531292000087,,,,,up,8.460726900026202,0,1,0,99,0.24,0.08,up,8.363291500019841,369.988844800042,371.5531292000087,0.24,0.16,0.0,0.0,0.16,0.24,0.24,0.24,0.16,367.18861710000783,367.18861710000783,367.18861710000783,367.18861710000783,367.18861710000783,367.18861710000783,367.18861710000783,367.18861710000783,367.16983509998533,2.9214040000224486,return,2.776848300010897,,,,,,,,,,,,,,,,,,,,,,,,,,,,,,,,,DK8Y4P,train_x,blue_star,top_right,2025-06-21_11h50.11.305,HideSeek_v1,2022.2.5,60.293702717071746,
,5,5,1,5,-4,0,21,,train_dim1_1,6,30,,,,2,0,2,0,,,,,,,,,0,0,0,0,0,5,5,5,1,0,1,0,,,,,,,,,,,,,,,,,,,,,,,,,,,,,,,,,,,,,,,,,,,,,,,,,,,,,,,,,,,,,,,,30,,,,,,,,380.01535400003195,380.01535400003195,380.01535400003195,380.01535400003195,380.01535400003195,,,,,down,1.9447181000141427,0,1,0,99,0.24,0.0,down,1.8567822000477463,,,,,,,,,,,,,,,,,,,,,,,,,,,,,,,,,,,,,,,,,,,,,,,,,,,,,,,,DK8Y4P,train_x,blue_star,top_right,2025-06-21_11h50.11.305,HideSeek_v1,2022.2.5,60.293702717071746,
,5,5,1,5,-4,0,21,,train_dim1_1,6,30,,,,2,0,2,0,,,,,,,,,0,0,0,0,0,5,5,5,2,0,2,0,,,,,,,,,,,,,,,,,,,,,,,,,,,,,,,,,,,,,,,,,,,,,,,,,,,,,,,,,,,,,,,,30,,,,,,,,381.96593060006853,381.96593060006853,381.96593060006853,381.96593060006853,381.96593060006853,,,,,left,0.4096091999672353,0,1,0,99,0.15999999999999998,0.0,left,0.32472209993284196,,,,,,,,,,,,,,,,,,,,,,,,,,,,,,,,,,,,,,,,,,,,,,,,,,,,,,,,DK8Y4P,train_x,blue_star,top_right,2025-06-21_11h50.11.305,HideSeek_v1,2022.2.5,60.293702717071746,
,5,5,1,5,-4,0,21,,train_dim1_1,6,30,,,,2,0,2,0,,,,,,,,,0,0,0,0,0,5,5,5,3,0,3,0,,,,,,,,,,,,,,,,,,,,,,,,,,,,,,,,,,,,,,,,,,,,,,,,,,,,,,,,,,,,,,,,30,,,,,,,,382.3825998000102,382.3825998000102,382.3825998000102,382.3825998000102,382.3825998000102,,,,,left,1.477373700006865,0,1,0,99,0.07999999999999997,0.0,left,1.3937796000391245,,,,,,,,,,,,,,,,,,,,,,,,,,,,,,,,,,,,,,,,,,,,,,,,,,,,,,,,DK8Y4P,train_x,blue_star,top_right,2025-06-21_11h50.11.305,HideSeek_v1,2022.2.5,60.293702717071746,
,5,5,1,5,-4,0,21,,train_dim1_1,6,30,,,,2,0,2,0,,,,,,,,,0,0,0,0,0,5,5,5,4,0,4,0,,,,,,,,,,,,,,,,,,,,,,,,,,,,,,,,,,,,,,,,,,,,,,,,,,,,,,,,,,,,,,,,30,,,,,,,,383.8671863999916,383.8671863999916,383.8671863999916,383.8671863999916,383.8671863999916,-5,-15,0.07999999999999997,0.0,return,1.5606143999611959,0,0,0,0,0.07999999999999997,0.0,return,1.4691409000661224,,,,,,,,,,,,,,,,,,,,,,,,,,,,,,,,,,,,,,,,,,,,,,,,,,,,,,,,DK8Y4P,train_x,blue_star,top_right,2025-06-21_11h50.11.305,HideSeek_v1,2022.2.5,60.293702717071746,
,8,5,8,5,0,0,61,,train_dim1_1,7,30,,,,2,0,2,0,,,,,,,,,0,0,0,0,0,6,6,6,0,0,0,0,,,,,,,,,,,,,,,,,,,,,,,,,stimuli/alien_stimuli/61.png,,,,,,,,,,,,,,,,,,,,,,,,,,,,,stimuli/alien_stimuli/21.png,21,5,8,,,,,,,30,,,,,,,,390.9770851000212,390.9770851000212,390.9770851000212,390.9770851000212,390.9770851000212,,,,,up,5.109025100013241,0,0,0,99,0.48,0.08,up,5.01246999995783,389.40482629998587,390.9770851000212,-0.08,0,0.0,0.32,0.0,-0.08,0.07999999999999999,-0.08,0,387.01265749998856,387.01265749998856,387.01265749998856,387.01265749998856,387.01265749998856,387.01265749998856,387.01265749998856,387.01265749998856,387.0028948000632,2.520880699972622,return,2.371358499978669,,,,,,,,,,,,,,,,,,,,,,,,,,,,,,,,,DK8Y4P,train_x,blue_star,top_right,2025-06-21_11h50.11.305,HideSeek_v1,2022.2.5,60.293702717071746,
,8,5,8,5,0,0,61,,train_dim1_1,7,30,,,,2,0,2,0,,,,,,,,,0,0,0,0,0,6,6,6,1,0,1,0,,,,,,,,,,,,,,,,,,,,,,,,,,,,,,,,,,,,,,,,,,,,,,,,,,,,,,,,,,,,,,,,30,,,,,,,,396.07497409998905,396.07497409998905,396.07497409998905,396.07497409998905,396.07497409998905,,,,,down,1.093360900063999,0,0,0,99,0.48,0.0,down,1.0115816000616178,,,,,,,,,,,,,,,,,,,,,,,,,,,,,,,,,,,,,,,,,,,,,,,,,,,,,,,,DK8Y4P,train_x,blue_star,top_right,2025-06-21_11h50.11.305,HideSeek_v1,2022.2.5,60.293702717071746,
,8,5,8,5,0,0,61,,train_dim1_1,7,30,,,,2,0,2,0,,,,,,,,,0,0,0,0,0,6,6,6,2,0,2,0,,,,,,,,,,,,,,,,,,,,,,,,,,,,,,,,,,,,,,,,,,,,,,,,,,,,,,,,,,,,,,,,30,,,,,,,,397.1741013000719,397.1741013000719,397.1741013000719,397.1741013000719,397.1741013000719,,,,,right,1.043857799959369,0,0,0,99,0.5599999999999999,0.0,right,0.9684430999914184,,,,,,,,,,,,,,,,,,,,,,,,,,,,,,,,,,,,,,,,,,,,,,,,,,,,,,,,DK8Y4P,train_x,blue_star,top_right,2025-06-21_11h50.11.305,HideSeek_v1,2022.2.5,60.293702717071746,
,8,5,8,5,0,0,61,,train_dim1_1,7,30,,,,2,0,2,0,,,,,,,,,0,0,0,0,0,6,6,6,3,0,3,0,,,,,,,,,,,,,,,,,,,,,,,,,,,,,,,,,,,,,,,,,,,,,,,,,,,,,,,,,,,,,,,,30,,,,,,,,398.2252986000385,398.2252986000385,398.2252986000385,398.2252986000385,398.2252986000385,,,,,left,1.3772658000234514,0,0,0,99,0.4799999999999999,0.0,left,1.2947847000323236,,,,,,,,,,,,,,,,,,,,,,,,,,,,,,,,,,,,,,,,,,,,,,,,,,,,,,,,DK8Y4P,train_x,blue_star,top_right,2025-06-21_11h50.11.305,HideSeek_v1,2022.2.5,60.293702717071746,
,8,5,8,5,0,0,61,,train_dim1_1,7,30,,,,2,0,2,0,,,,,,,,,0,0,0,0,0,6,6,6,4,0,4,0,,,,,,,,,,,,,,,,,,,,,,,,,,,,,,,,,,,,,,,,,,,,,,,,,,,,,,,,,,,,,,,,30,,,,,,,,399.60933010000736,399.60933010000736,399.60933010000736,399.60933010000736,399.60933010000736,,,,,left,0.2600094999652356,0,0,0,99,0.3999999999999999,0.0,left,0.18333380005788058,,,,,,,,,,,,,,,,,,,,,,,,,,,,,,,,,,,,,,,,,,,,,,,,,,,,,,,,DK8Y4P,train_x,blue_star,top_right,2025-06-21_11h50.11.305,HideSeek_v1,2022.2.5,60.293702717071746,
,8,5,8,5,0,0,61,,train_dim1_1,7,30,,,,2,0,2,0,,,,,,,,,0,0,0,0,0,6,6,6,5,0,5,0,,,,,,,,,,,,,,,,,,,,,,,,,,,,,,,,,,,,,,,,,,,,,,,,,,,,,,,,,,,,,,,,30,,,,,,,,399.87648890004493,399.87648890004493,399.87648890004493,399.87648890004493,399.87648890004493,-5,-16,0.3999999999999999,0.0,return,0.6267536000814289,0,1,0,0,0.3999999999999999,0.0,return,0.5422645000508055,,,,,,,,,,,,,,,,,,,,,,,,,,,,,,,,,,,,,,,,,,,,,,,,,,,,,,,,DK8Y4P,train_x,blue_star,top_right,2025-06-21_11h50.11.305,HideSeek_v1,2022.2.5,60.293702717071746,
,5,9,2,9,-3,0,31,,train_dim1_1,8,30,,,,2,0,2,0,,,,,,,,,0,0,0,0,0,7,7,7,0,0,0,0,,,,,,,,,,,,,,,,,,,,,,,,,stimuli/alien_stimuli/31.png,,,,,,,,,,,,,,,,,,,,,,,,,,,,,stimuli/alien_stimuli/61.png,61,8,9,,,,,,,30,,,,,,,,405.6384815000929,405.6384815000929,405.6384815000929,405.6384815000929,405.6384815000929,,,,,left,2.4052265998907387,0,1,0,99,0.15999999999999998,0.32,left,2.3055140000069514,404.06716259999666,405.6384815000929,0.48,0,0.0,0.0,0.0,0.48,0.48,0.48,0,402.083901300095,402.083901300095,402.083901300095,402.083901300095,402.083901300095,402.083901300095,402.083901300095,402.083901300095,402.0654810000327,2.1038708001142368,return,1.953582400106825,,,,,,,,,,,,,,,,,,,,,,,,,,,,,,,,,DK8Y4P,train_x,blue_star,top_right,2025-06-21_11h50.11.305,HideSeek_v1,2022.2.5,60.293702717071746,
,5,9,2,9,-3,0,31,,train_dim1_1,8,30,,,,2,0,2,0,,,,,,,,,0,0,0,0,0,7,7,7,1,0,1,0,,,,,,,,,,,,,,,,,,,,,,,,,,,,,,,,,,,,,,,,,,,,,,,,,,,,,,,,,,,,,,,,30,,,,,,,,408.0364947000053,408.0364947000053,408.0364947000053,408.0364947000053,408.0364947000053,,,,,left,0.3245308001060039,0,1,0,99,0.07999999999999997,0.32,left,0.23797220003325492,,,,,,,,,,,,,,,,,,,,,,,,,,,,,,,,,,,,,,,,,,,,,,,,,,,,,,,,DK8Y4P,train_x,blue_star,top_right,2025-06-21_11h50.11.305,HideSeek_v1,2022.2.5,60.293702717071746,
,5,9,2,9,-3,0,31,,train_dim1_1,8,30,,,,2,0,2,0,,,,,,,,,0,0,0,0,0,7,7,7,2,0,2,0,,,,,,,,,,,,,,,,,,,,,,,,,,,,,,,,,,,,,,,,,,,,,,,,,,,,,,,,,,,,,,,,30,,,,,,,,408.3685067000333,408.3685067000333,408.3685067000333,408.3685067000333,408.3685067000333,,,,,left,0.24227759998757392,0,1,0,99,-2.7755575615628914e-17,0.32,left,0.16590119991451502,,,,,,,,,,,,,,,,,,,,,,,,,,,,,,,,,,,,,,,,,,,,,,,,,,,,,,,,DK8Y4P,train_x,blue_star,top_right,2025-06-21_11h50.11.305,HideSeek_v1,2022.2.5,60.293702717071746,
,5,9,2,9,-3,0,31,,train_dim1_1,8,30,,,,2,0,2,0,,,,,,,,,0,0,0,0,0,7,7,7,3,0,3,0,,,,,,,,,,,,,,,,,,,,,,,,,,,,,,,,,,,,,,,,,,,,,,,,,,,,,,,,,,,,,,,,30,,,,,,,,408.61675190005917,408.61675190005917,408.61675190005917,408.61675190005917,408.61675190005917,-5,-19,-2.7755575615628914e-17,0.32,return,0.6769873999292031,1,0,0,1,-2.7755575615628914e-17,0.32,return,0.5895440999884158,,,,,,,,,,,,,,,,,,,,,,,,,,,,,,,,,,,,,,,,,,,,,,,,,,,,,,,,DK8Y4P,train_x,blue_star,top_right,2025-06-21_11h50.11.305,HideSeek_v1,2022.2.5,60.293702717071746,
,6,5,5,5,-1,0,51,,train_dim1_1,9,30,,,,2,0,2,0,,,,,,,,,0,0,0,0,0,8,8,8,0,0,0,0,,,,,,,,,,,,,,,,,,,,,,,,,stimuli/alien_stimuli/51.png,,,,,,,,,,,,,,,,,,,,,,,,,,,,,stimuli/alien_stimuli/31.png,31,5,10,,,,,,,30,,,,,,,,414.0856332000112,414.0856332000112,414.0856332000112,414.0856332000112,414.0856332000112,,,,,left,2.6400350999319926,1,0,0,99,0.24,0,left,2.529415199998766,412.50742280005943,414.0856332000112,0,0.32,0.0,0.24,0.32,0,0.12,0,0.32,410.8588904000353,410.8588904000353,410.8588904000353,410.8588904000353,410.8588904000353,410.8588904000353,410.8588904000353,410.8588904000353,410.8393168000504,1.753668799996376,return,1.6306520000798628,,,,,,,,,,,,,,,,,,,,,,,,,,,,,,,,,DK8Y4P,train_x,blue_star,top_right,2025-06-21_11h50.11.305,HideSeek_v1,2022.2.5,60.293702717071746,
,6,5,5,5,-1,0,51,,train_dim1_1,9,30,,,,2,0,2,0,,,,,,,,,0,0,0,0,0,8,8,8,1,0,1,0,,,,,,,,,,,,,,,,,,,,,,,,,,,,,,,,,,,,,,,,,,,,,,,,,,,,,,,,,,,,,,,,30,,,,,,,,416.71013090002816,416.71013090002816,416.71013090002816,416.71013090002816,416.71013090002816,,,,,left,0.37634900002740324,1,0,0,99,0.15999999999999998,0,left,0.2906395000172779,,,,,,,,,,,,,,,,,,,,,,,,,,,,,,,,,,,,,,,,,,,,,,,,,,,,,,,,DK8Y4P,train_x,blue_star,top_right,2025-06-21_11h50.11.305,HideSeek_v1,2022.2.5,60.293702717071746,
,6,5,5,5,-1,0,51,,train_dim1_1,9,30,,,,2,0,2,0,,,,,,,,,0,0,0,0,0,8,8,8,2,0,2,0,,,,,,,,,,,,,,,,,,,,,,,,,,,,,,,,,,,,,,,,,,,,,,,,,,,,,,,,,,,,,,,,30,,,,,,,,417.09324950003065,417.09324950003065,417.09324950003065,417.09324950003065,417.09324950003065,-5,-21,0.15999999999999998,0,return,0.5097801999654621,1,1,0,0,0.15999999999999998,0,return,0.4215727000264451,,,,,,,,,,,,,,,,,,,,,,,,,,,,,,,,,,,,,,,,,,,,,,,,,,,,,,,,DK8Y4P,train_x,blue_star,top_right,2025-06-21_11h50.11.305,HideSeek_v1,2022.2.5,60.293702717071746,
,5,8,0,8,-5,0,11,,train_dim1_1,10,30,,,,2,0,2,0,,,,,,,,,0,0,0,0,0,9,9,9,0,0,0,0,,,,,,,,,,,,,,,,,,,,,,,,,stimuli/alien_stimuli/11.png,,,,,,,,,,,,,,,,,,,,,,,,,,,,,stimuli/alien_stimuli/51.png,51,6,11,,,,,,,30,,,,,,,,422.94301440007985,422.94301440007985,422.94301440007985,422.94301440007985,422.94301440007985,,,,,left,4.091472700005397,1,1,0,99,0.15999999999999998,0.24,left,3.980023399926722,421.36467150005046,422.94301440007985,0.24,0,0.0,0.08,0.0,0.24,0.28,0.24,0,419.16979519999586,419.16979519999586,419.16979519999586,419.16979519999586,419.16979519999586,419.16979519999586,419.16979519999586,419.16979519999586,419.1628082000301,2.304179200087674,return,2.1719933999702334,,,,,,,,,,,,,,,,,,,,,,,,,,,,,,,,,DK8Y4P,train_x,blue_star,top_right,2025-06-21_11h50.11.305,HideSeek_v1,2022.2.5,60.293702717071746,
,5,8,0,8,-5,0,11,,train_dim1_1,10,30,,,,2,0,2,0,,,,,,,,,0,0,0,0,0,9,9,9,1,0,1,0,,,,,,,,,,,,,,,,,,,,,,,,,,,,,,,,,,,,,,,,,,,,,,,,,,,,,,,,,,,,,,,,30,,,,,,,,427.02991050004493,427.02991050004493,427.02991050004493,427.02991050004493,427.02991050004493,,,,,left,0.20432309992611408,1,1,0,99,0.07999999999999997,0.24,left,0.11317399994004518,,,,,,,,,,,,,,,,,,,,,,,,,,,,,,,,,,,,,,,,,,,,,,,,,,,,,,,,DK8Y4P,train_x,blue_star,top_right,2025-06-21_11h50.11.305,HideSeek_v1,2022.2.5,60.293702717071746,
,5,8,0,8,-5,0,11,,train_dim1_1,10,30,,,,2,0,2,0,,,,,,,,,0,0,0,0,0,9,9,9,2,0,2,0,,,,,,,,,,,,,,,,,,,,,,,,,,,,,,,,,,,,,,,,,,,,,,,,,,,,,,,,,,,,,,,,30,,,,,,,,427.2376546000596,427.2376546000596,427.2376546000596,427.2376546000596,427.2376546000596,,,,,down,3.0619650000007823,1,1,0,99,0.07999999999999997,0.15999999999999998,down,2.9796894000610337,,,,,,,,,,,,,,,,,,,,,,,,,,,,,,,,,,,,,,,,,,,,,,,,,,,,,,,,DK8Y4P,train_x,blue_star,top_right,2025-06-21_11h50.11.305,HideSeek_v1,2022.2.5,60.293702717071746,
,5,8,0,8,-5,0,11,,train_dim1_1,10,30,,,,2,0,2,0,,,,,,,,,0,0,0,0,0,9,9,9,3,0,3,0,,,,,,,,,,,,,,,,,,,,,,,,,,,,,,,,,,,,,,,,,,,,,,,,,,,,,,,,,,,,,,,,30,,,,,,,,430.3068370000692,430.3068370000692,430.3068370000692,430.3068370000692,430.3068370000692,-6,-23,0.07999999999999997,0.15999999999999998,return,0.2430614000186324,1,0,0,0,0.07999999999999997,0.15999999999999998,return,0.15672719990834594,,,,,,,,,,,,,,,,,,,,,,,,,,,,,,,,,,,,,,,,,,,,,,,,,,,,,,,,DK8Y4P,train_x,blue_star,top_right,2025-06-21_11h50.11.305,HideSeek_v1,2022.2.5,60.293702717071746,
,7,7,4,7,-3,0,31,,train_dim1_1,11,30,,,,2,0,2,0,,,,,,,,,0,0,0,0,0,10,10,10,0,0,0,0,,,,,,,,,,,,,,,,,,,,,,,,,stimuli/alien_stimuli/31.png,,,,,,,,,,,,,,,,,,,,,,,,,,,,,stimuli/alien_stimuli/11.png,11,5,12,,,,,,,30,,,,,,,,435.6580598000437,435.6580598000437,435.6580598000437,435.6580598000437,435.6580598000437,,,,,left,3.9920547999208793,1,0,0,99,0.32,0.16,left,3.9055526999291033,434.09218770009466,435.6580598000437,-0.16,0.24,0.0,0.4,0.24,-0.16,0.039999999999999994,-0.16,0.24,432.13051950000226,432.13051950000226,432.13051950000226,432.13051950000226,432.13051950000226,432.13051950000226,432.13051950000226,432.13051950000226,432.1236591000575,2.08775130007416,return,1.9373201999114826,,,,,,,,,,,,,,,,,,,,,,,,,,,,,,,,,DK8Y4P,train_x,blue_star,top_right,2025-06-21_11h50.11.305,HideSeek_v1,2022.2.5,60.293702717071746,
,7,7,4,7,-3,0,31,,train_dim1_1,11,30,,,,2,0,2,0,,,,,,,,,0,0,0,0,0,10,10,10,1,0,1,0,,,,,,,,,,,,,,,,,,,,,,,,,,,,,,,,,,,,,,,,,,,,,,,,,,,,,,,,,,,,,,,,30,,,,,,,,439.64419430005364,439.64419430005364,439.64419430005364,439.64419430005364,439.64419430005364,,,,,down,0.726616199943237,1,0,0,99,0.32,0.08,down,0.6525379000231624,,,,,,,,,,,,,,,,,,,,,,,,,,,,,,,,,,,,,,,,,,,,,,,,,,,,,,,,DK8Y4P,train_x,blue_star,top_right,2025-06-21_11h50.11.305,HideSeek_v1,2022.2.5,60.293702717071746,
,7,7,4,7,-3,0,31,,train_dim1_1,11,30,,,,2,0,2,0,,,,,,,,,0,0,0,0,0,10,10,10,2,0,2,0,,,,,,,,,,,,,,,,,,,,,,,,,,,,,,,,,,,,,,,,,,,,,,,,,,,,,,,,,,,,,,,,30,,,,,,,,440.3771356000798,440.3771356000798,440.3771356000798,440.3771356000798,440.3771356000798,,,,,left,0.4098912999033928,1,0,0,99,0.24,0.08,left,0.33407849993091077,,,,,,,,,,,,,,,,,,,,,,,,,,,,,,,,,,,,,,,,,,,,,,,,,,,,,,,,DK8Y4P,train_x,blue_star,top_right,2025-06-21_11h50.11.305,HideSeek_v1,2022.2.5,60.293702717071746,
,7,7,4,7,-3,0,31,,train_dim1_1,11,30,,,,2,0,2,0,,,,,,,,,0,0,0,0,0,10,10,10,3,0,3,0,,,,,,,,,,,,,,,,,,,,,,,,,,,,,,,,,,,,,,,,,,,,,,,,,,,,,,,,,,,,,,,,30,,,,,,,,440.7939410000108,440.7939410000108,440.7939410000108,440.7939410000108,440.7939410000108,,,,,left,0.47665369999594986,1,0,0,99,0.15999999999999998,0.08,left,0.4048018000321463,,,,,,,,,,,,,,,,,,,,,,,,,,,,,,,,,,,,,,,,,,,,,,,,,,,,,,,,DK8Y4P,train_x,blue_star,top_right,2025-06-21_11h50.11.305,HideSeek_v1,2022.2.5,60.293702717071746,
,7,7,4,7,-3,0,31,,train_dim1_1,11,30,,,,2,0,2,0,,,,,,,,,0,0,0,0,0,10,10,10,4,0,4,0,,,,,,,,,,,,,,,,,,,,,,,,,,,,,,,,,,,,,,,,,,,,,,,,,,,,,,,,,,,,,,,,30,,,,,,,,441.2779795000097,441.2779795000097,441.2779795000097,441.2779795000097,441.2779795000097,,,,,left,0.24371279997285455,1,0,0,99,0.07999999999999997,0.08,left,0.16167479997966439,,,,,,,,,,,,,,,,,,,,,,,,,,,,,,,,,,,,,,,,,,,,,,,,,,,,,,,,DK8Y4P,train_x,blue_star,top_right,2025-06-21_11h50.11.305,HideSeek_v1,2022.2.5,60.293702717071746,
,7,7,4,7,-3,0,31,,train_dim1_1,11,30,,,,2,0,2,0,,,,,,,,,0,0,0,0,0,10,10,10,5,0,5,0,,,,,,,,,,,,,,,,,,,,,,,,,,,,,,,,,,,,,,,,,,,,,,,,,,,,,,,,,,,,,,,,30,,,,,,,,441.52822800003923,441.52822800003923,441.52822800003923,441.52822800003923,441.52822800003923,-7,-27,0.07999999999999997,0.08,return,1.1436741999350488,1,0,0,0,0.07999999999999997,0.08,return,1.0614722999744117,,,,,,,,,,,,,,,,,,,,,,,,,,,,,,,,,,,,,,,,,,,,,,,,,,,,,,,,DK8Y4P,train_x,blue_star,top_right,2025-06-21_11h50.11.305,HideSeek_v1,2022.2.5,60.293702717071746,
,5,5,1,5,-4,0,21,,train_dim1_1,12,30,,,,2,0,2,0,,,,,,,,,0,0,0,0,0,11,11,11,0,0,0,0,,,,,,,,,,,,,,,,,,,,,,,,,stimuli/alien_stimuli/21.png,,,,,,,,,,,,,,,,,,,,,,,,,,,,,stimuli/alien_stimuli/31.png,31,7,13,,,,,,,30,,,,,,,,447.7776467000367,447.7776467000367,447.7776467000367,447.7776467000367,447.7776467000367,,,,,left,4.222016799962148,1,0,0,99,0.15999999999999998,0,left,4.130028699990362,446.20218310004566,447.7776467000367,0.16,0.16,0.0,0.24,0.16,0.16,0.28,0.16,0.16,444.2512284000404,444.2512284000404,444.2512284000404,444.2512284000404,444.2512284000404,444.2512284000404,444.2512284000404,444.2512284000404,444.23374149998415,2.0705697000958025,return,1.9321469999849796,,,,,,,,,,,,,,,,,,,,,,,,,,,,,,,,,DK8Y4P,train_x,blue_star,top_right,2025-06-21_11h50.11.305,HideSeek_v1,2022.2.5,60.293702717071746,
,5,5,1,5,-4,0,21,,train_dim1_1,12,30,,,,2,0,2,0,,,,,,,,,0,0,0,0,0,11,11,11,1,0,1,0,,,,,,,,,,,,,,,,,,,,,,,,,,,,,,,,,,,,,,,,,,,,,,,,,,,,,,,,,,,,,,,,30,,,,,,,,451.99405640002806,451.99405640002806,451.99405640002806,451.99405640002806,451.99405640002806,,,,,left,0.17434240004513413,1,0,0,99,0.07999999999999997,0,left,0.0888229999691248,,,,,,,,,,,,,,,,,,,,,,,,,,,,,,,,,,,,,,,,,,,,,,,,,,,,,,,,DK8Y4P,train_x,blue_star,top_right,2025-06-21_11h50.11.305,HideSeek_v1,2022.2.5,60.293702717071746,
,5,5,1,5,-4,0,21,,train_dim1_1,12,30,,,,2,0,2,0,,,,,,,,,0,0,0,0,0,11,11,11,2,0,2,0,,,,,,,,,,,,,,,,,,,,,,,,,,,,,,,,,,,,,,,,,,,,,,,,,,,,,,,,,,,,,,,,30,,,,,,,,452.1740440999856,452.1740440999856,452.1740440999856,452.1740440999856,452.1740440999856,-7,-29,0.07999999999999997,0,return,0.6601734000723809,1,0,0,0,0.07999999999999997,0,return,0.5705741998972371,,,,,,,,,,,,,,,,,,,,,,,,,,,,,,,,,,,,,,,,,,,,,,,,,,,,,,,,DK8Y4P,train_x,blue_star,top_right,2025-06-21_11h50.11.305,HideSeek_v1,2022.2.5,60.293702717071746,
,5,9,4,9,-1,0,51,,train_dim1_1,13,30,,,,2,0,2,0,,,,,,,,,0,0,0,0,0,12,12,12,0,0,0,0,,,,,,,,,,,,,,,,,,,,,,,,,stimuli/alien_stimuli/51.png,,,,,,,,,,,,,,,,,,,,,,,,,,,,,stimuli/alien_stimuli/21.png,21,5,14,,,,,,,30,,,,,,,,459.17266859998927,459.17266859998927,459.17266859998927,459.17266859998927,459.17266859998927,-7,-29,0.24,0.32,return,4.541709500015713,1,1,0,0,0.24,0.32,return,4.455661299987696,457.6117240000749,459.17266859998927,-0.08,0,0.0,0.32,0.0,-0.08,0.07999999999999999,-0.08,0,454.40483980008867,454.40483980008867,454.40483980008867,454.40483980008867,454.40483980008867,454.40483980008867,454.40483980008867,454.40483980008867,454.39230109999187,3.3213221000041813,return,3.186505699995905,,,,,,,,,,,,,,,,,,,,,,,,,,,,,,,,,DK8Y4P,train_x,blue_star,top_right,2025-06-21_11h50.11.305,HideSeek_v1,2022.2.5,60.293702717071746,
,9,8,4,8,-5,0,11,,train_dim1_1,14,30,,,,2,0,2,0,,,,,,,,,0,0,0,0,0,13,13,13,0,0,0,0,,,,,,,,,,,,,,,,,,,,,,,,,stimuli/alien_stimuli/11.png,,,,,,,,,,,,,,,,,,,,,,,,,,,,,stimuli/alien_stimuli/51.png,51,5,15,,,,,,,30,,,,,,,,468.36916690005455,468.36916690005455,468.36916690005455,468.36916690005455,468.36916690005455,,,,,left,2.418772600009106,1,1,0,99,0.48000000000000004,0.24,left,2.319666700088419,466.7857873000903,468.36916690005455,0.16,0.32,0.0,0.08,0.32,0.16,0.2,0.16,0.32,465.28554830001667,465.28554830001667,465.28554830001667,465.28554830001667,465.28554830001667,465.28554830001667,465.28554830001667,465.28554830001667,465.2678946000873,1.6197901000268757,return,1.4781324999639764,,,,,,,,,,,,,,,,,,,,,,,,,,,,,,,,,DK8Y4P,train_x,blue_star,top_right,2025-06-21_11h50.11.305,HideSeek_v1,2022.2.5,60.293702717071746,
,9,8,4,8,-5,0,11,,train_dim1_1,14,30,,,,2,0,2,0,,,,,,,,,0,0,0,0,0,13,13,13,1,0,1,0,,,,,,,,,,,,,,,,,,,,,,,,,,,,,,,,,,,,,,,,,,,,,,,,,,,,,,,,,,,,,,,,30,,,,,,,,470.77388500003144,470.77388500003144,470.77388500003144,470.77388500003144,470.77388500003144,,,,,left,0.44290849997196347,1,1,0,99,0.4,0.24,left,0.35513129993341863,,,,,,,,,,,,,,,,,,,,,,,,,,,,,,,,,,,,,,,,,,,,,,,,,,,,,,,,DK8Y4P,train_x,blue_star,top_right,2025-06-21_11h50.11.305,HideSeek_v1,2022.2.5,60.293702717071746,
,9,8,4,8,-5,0,11,,train_dim1_1,14,30,,,,2,0,2,0,,,,,,,,,0,0,0,0,0,13,13,13,2,0,2,0,,,,,,,,,,,,,,,,,,,,,,,,,,,,,,,,,,,,,,,,,,,,,,,,,,,,,,,,,,,,,,,,30,,,,,,,,471.22404680005275,471.22404680005275,471.22404680005275,471.22404680005275,471.22404680005275,,,,,left,0.40994589996989816,1,1,0,99,0.32,0.24,left,0.3242320000426844,,,,,,,,,,,,,,,,,,,,,,,,,,,,,,,,,,,,,,,,,,,,,,,,,,,,,,,,DK8Y4P,train_x,blue_star,top_right,2025-06-21_11h50.11.305,HideSeek_v1,2022.2.5,60.293702717071746,
,9,8,4,8,-5,0,11,,train_dim1_1,14,30,,,,2,0,2,0,,,,,,,,,0,0,0,0,0,13,13,13,3,0,3,0,,,,,,,,,,,,,,,,,,,,,,,,,,,,,,,,,,,,,,,,,,,,,,,,,,,,,,,,,,,,,,,,30,,,,,,,,471.6403304000851,471.6403304000851,471.6403304000851,471.6403304000851,471.6403304000851,,,,,left,0.5264617999782786,1,1,0,99,0.24,0.24,left,0.4393836000235751,,,,,,,,,,,,,,,,,,,,,,,,,,,,,,,,,,,,,,,,,,,,,,,,,,,,,,,,DK8Y4P,train_x,blue_star,top_right,2025-06-21_11h50.11.305,HideSeek_v1,2022.2.5,60.293702717071746,
,9,8,4,8,-5,0,11,,train_dim1_1,14,30,,,,2,0,2,0,,,,,,,,,0,0,0,0,0,13,13,13,4,0,4,0,,,,,,,,,,,,,,,,,,,,,,,,,,,,,,,,,,,,,,,,,,,,,,,,,,,,,,,,,,,,,,,,30,,,,,,,,472.1736418000655,472.1736418000655,472.1736418000655,472.1736418000655,472.1736418000655,,,,,left,0.509959900053218,1,1,0,99,0.15999999999999998,0.24,left,0.4274494000710547,,,,,,,,,,,,,,,,,,,,,,,,,,,,,,,,,,,,,,,,,,,,,,,,,,,,,,,,DK8Y4P,train_x,blue_star,top_right,2025-06-21_11h50.11.305,HideSeek_v1,2022.2.5,60.293702717071746,
,9,8,4,8,-5,0,11,,train_dim1_1,14,30,,,,2,0,2,0,,,,,,,,,0,0,0,0,0,13,13,13,5,0,5,0,,,,,,,,,,,,,,,,,,,,,,,,,,,,,,,,,,,,,,,,,,,,,,,,,,,,,,,,,,,,,,,,30,,,,,,,,472.69157090003137,472.69157090003137,472.69157090003137,472.69157090003137,472.69157090003137,,,,,left,0.4264765999978408,1,1,0,99,0.07999999999999997,0.24,left,0.3503180999541655,,,,,,,,,,,,,,,,,,,,,,,,,,,,,,,,,,,,,,,,,,,,,,,,,,,,,,,,DK8Y4P,train_x,blue_star,top_right,2025-06-21_11h50.11.305,HideSeek_v1,2022.2.5,60.293702717071746,
,9,8,4,8,-5,0,11,,train_dim1_1,14,30,,,,2,0,2,0,,,,,,,,,0,0,0,0,0,13,13,13,6,0,6,0,,,,,,,,,,,,,,,,,,,,,,,,,,,,,,,,,,,,,,,,,,,,,,,,,,,,,,,,,,,,,,,,30,,,,,,,,473.1254753000103,473.1254753000103,473.1254753000103,473.1254753000103,473.1254753000103,-7,-35,0.07999999999999997,0.24,return,0.6934182000113651,1,1,0,0,0.07999999999999997,0.24,return,0.6076797000132501,,,,,,,,,,,,,,,,,,,,,,,,,,,,,,,,,,,,,,,,,,,,,,,,,,,,,,,,DK8Y4P,train_x,blue_star,top_right,2025-06-21_11h50.11.305,HideSeek_v1,2022.2.5,60.293702717071746,
,9,7,9,7,0,0,61,,train_dim1_1,15,30,,,,2,0,2,0,,,,,,,,,0,0,0,0,0,14,14,14,0,0,0,0,,,,,,,,,,,,,,,,,,,,,,,,,stimuli/alien_stimuli/61.png,,,,,,,,,,,,,,,,,,,,,,,,,,,,,stimuli/alien_stimuli/11.png,11,9,16,,,,,,,30,,,,,,,,478.6422715000808,478.6422715000808,478.6422715000808,478.6422715000808,478.6422715000808,,,,,left,2.00405290001072,1,1,0,99,0.48000000000000004,0.16,left,1.8964683000231162,477.0476168000605,475.38596990006045,0.16,0.24,0.0,0.4,0.24,0.16,0.36000000000000004,0.16,0.24,475.38596990006045,475.38596990006045,475.38596990006045,475.38596990006045,475.38596990006045,475.38596990006045,475.38596990006045,475.38596990006045,475.3762867000536,1.7747805999824777,return,1.6341636000433937,,,,,,,,,,,,,,,,,,,,,,,,,,,,,,,,,DK8Y4P,train_x,blue_star,top_right,2025-06-21_11h50.11.305,HideSeek_v1,2022.2.5,60.293702717071746,
,9,7,9,7,0,0,61,,train_dim1_1,15,30,,,,2,0,2,0,,,,,,,,,0,0,0,0,0,14,14,14,1,0,1,0,,,,,,,,,,,,,,,,,,,,,,,,,,,,,,,,,,,,,,,,,,,,,,,,,,,,,,,,,,,,,,,,30,,,,,,,,480.62725500005763,480.62725500005763,480.62725500005763,480.62725500005763,480.62725500005763,-7,-36,0.48000000000000004,0.16,return,0.3430612999945879,1,1,0,0,0.48000000000000004,0.16,return,0.2659675000468269,,,,,,,,,,,,,,,,,,,,,,,,,,,,,,,,,,,,,,,,,,,,,,,,,,,,,,,,DK8Y4P,train_x,blue_star,top_right,2025-06-21_11h50.11.305,HideSeek_v1,2022.2.5,60.293702717071746,
,8,8,7,8,-1,0,51,,train_dim1_1,16,30,,,,2,0,2,0,,,,,,,,,0,0,0,0,0,15,15,15,0,0,0,0,,,,,,,,,,,,,,,,,,,,,,,,,stimuli/alien_stimuli/51.png,,,,,,,,,,,,,,,,,,,,,,,,,,,,,stimuli/alien_stimuli/61.png,61,9,17,,,,,,,30,,,,,,,,485.5745544000529,485.5745544000529,485.5745544000529,485.5745544000529,485.5745544000529,,,,,left,1.921902000089176,1,1,0,99,0.39999999999999997,0.24,left,1.8290246999822557,484.0000302999979,485.5745544000529,0.56,0.16,0.0,0.0,0.16,0.56,0.56,0.56,0.16,482.5349945999915,482.5349945999915,482.5349945999915,482.5349945999915,482.5349945999915,482.5349945999915,482.5349945999915,482.5349945999915,482.51555180007125,1.5697089999448508,return,1.4392744000069797,,,,,,,,,,,,,,,,,,,,,,,,,,,,,,,,,DK8Y4P,train_x,blue_star,top_right,2025-06-21_11h50.11.305,HideSeek_v1,2022.2.5,60.293702717071746,
,8,8,7,8,-1,0,51,,train_dim1_1,16,30,,,,2,0,2,0,,,,,,,,,0,0,0,0,0,15,15,15,1,0,1,0,,,,,,,,,,,,,,,,,,,,,,,,,,,,,,,,,,,,,,,,,,,,,,,,,,,,,,,,,,,,,,,,30,,,,,,,,487.48633340001106,487.48633340001106,487.48633340001106,487.48633340001106,487.48633340001106,,,,,left,0.17601560009643435,1,1,0,99,0.31999999999999995,0.24,left,0.08618770004250109,,,,,,,,,,,,,,,,,,,,,,,,,,,,,,,,,,,,,,,,,,,,,,,,,,,,,,,,DK8Y4P,train_x,blue_star,top_right,2025-06-21_11h50.11.305,HideSeek_v1,2022.2.5,60.293702717071746,
,8,8,7,8,-1,0,51,,train_dim1_1,16,30,,,,2,0,2,0,,,,,,,,,0,0,0,0,0,15,15,15,2,0,2,0,,,,,,,,,,,,,,,,,,,,,,,,,,,,,,,,,,,,,,,,,,,,,,,,,,,,,,,,,,,,,,,,30,,,,,,,,487.6688776999945,487.6688776999945,487.6688776999945,487.6688776999945,487.6688776999945,-7,-38,0.31999999999999995,0.24,return,0.6267661000601947,1,1,0,0,0.31999999999999995,0.24,return,0.5363950000610203,,,,,,,,,,,,,,,,,,,,,,,,,,,,,,,,,,,,,,,,,,,,,,,,,,,,,,,,DK8Y4P,train_x,blue_star,top_right,2025-06-21_11h50.11.305,HideSeek_v1,2022.2.5,60.293702717071746,
,7,9,3,9,-4,0,21,,train_dim1_1,17,30,,,,2,0,2,0,,,,,,,,,0,0,0,0,0,16,16,16,0,0,0,0,,,,,,,,,,,,,,,,,,,,,,,,,stimuli/alien_stimuli/21.png,,,,,,,,,,,,,,,,,,,,,,,,,,,,,stimuli/alien_stimuli/51.png,51,8,18,,,,,,,30,,,,,,,,492.85384980007075,492.85384980007075,492.85384980007075,492.85384980007075,492.85384980007075,,,,,left,2.1889060999965295,1,1,0,99,0.32,0.32,left,2.083658500108868,491.272831600043,492.85384980007075,0.4,0.24,0.0,0.08,0.24,0.4,0.44,0.4,0.24,489.85921959998086,489.85921959998086,489.85921959998086,489.85921959998086,489.85921959998086,489.85921959998086,489.85921959998086,489.85921959998086,489.8381663000211,1.5203874000580981,return,1.3840987998992205,,,,,,,,,,,,,,,,,,,,,,,,,,,,,,,,,DK8Y4P,train_x,blue_star,top_right,2025-06-21_11h50.11.305,HideSeek_v1,2022.2.5,60.293702717071746,
,7,9,3,9,-4,0,21,,train_dim1_1,17,30,,,,2,0,2,0,,,,,,,,,0,0,0,0,0,16,16,16,1,0,1,0,,,,,,,,,,,,,,,,,,,,,,,,,,,,,,,,,,,,,,,,,,,,,,,,,,,,,,,,,,,,,,,,30,,,,,,,,495.0282110000262,495.0282110000262,495.0282110000262,495.0282110000262,495.0282110000262,,,,,left,0.2589284999994561,1,1,0,99,0.24,0.32,left,0.17815549997612834,,,,,,,,,,,,,,,,,,,,,,,,,,,,,,,,,,,,,,,,,,,,,,,,,,,,,,,,DK8Y4P,train_x,blue_star,top_right,2025-06-21_11h50.11.305,HideSeek_v1,2022.2.5,60.293702717071746,
,7,9,3,9,-4,0,21,,train_dim1_1,17,30,,,,2,0,2,0,,,,,,,,,0,0,0,0,0,16,16,16,2,0,2,0,,,,,,,,,,,,,,,,,,,,,,,,,,,,,,,,,,,,,,,,,,,,,,,,,,,,,,,,,,,,,,,,30,,,,,,,,495.29348430002574,495.29348430002574,495.29348430002574,495.29348430002574,495.29348430002574,,,,,left,0.20976120000705123,1,1,0,99,0.15999999999999998,0.32,left,0.12602129997685552,,,,,,,,,,,,,,,,,,,,,,,,,,,,,,,,,,,,,,,,,,,,,,,,,,,,,,,,DK8Y4P,train_x,blue_star,top_right,2025-06-21_11h50.11.305,HideSeek_v1,2022.2.5,60.293702717071746,
,7,9,3,9,-4,0,21,,train_dim1_1,17,30,,,,2,0,2,0,,,,,,,,,0,0,0,0,0,16,16,16,3,0,3,0,,,,,,,,,,,,,,,,,,,,,,,,,,,,,,,,,,,,,,,,,,,,,,,,,,,,,,,,,,,,,,,,30,,,,,,,,495.5104908000212,495.5104908000212,495.5104908000212,495.5104908000212,495.5104908000212,,,,,left,0.75953199993819,1,1,0,99,0.07999999999999997,0.32,left,0.6820680000819266,,,,,,,,,,,,,,,,,,,,,,,,,,,,,,,,,,,,,,,,,,,,,,,,,,,,,,,,DK8Y4P,train_x,blue_star,top_right,2025-06-21_11h50.11.305,HideSeek_v1,2022.2.5,60.293702717071746,
,7,9,3,9,-4,0,21,,train_dim1_1,17,30,,,,2,0,2,0,,,,,,,,,0,0,0,0,0,16,16,16,4,0,4,0,,,,,,,,,,,,,,,,,,,,,,,,,,,,,,,,,,,,,,,,,,,,,,,,,,,,,,,,,,,,,,,,30,,,,,,,,496.27668780006934,496.27668780006934,496.27668780006934,496.27668780006934,496.27668780006934,-7,-42,0.07999999999999997,0.32,return,1.2272220000158995,2,0,0,1,0.07999999999999997,0.32,return,1.1496818999294192,,,,,,,,,,,,,,,,,,,,,,,,,,,,,,,,,,,,,,,,,,,,,,,,,,,,,,,,DK8Y4P,train_x,blue_star,top_right,2025-06-21_11h50.11.305,HideSeek_v1,2022.2.5,60.293702717071746,
,7,6,7,6,0,0,61,,train_dim1_1,18,30,,,,2,0,2,0,,,,,,,,,0,0,0,0,0,17,17,17,0,0,0,0,,,,,,,,,,,,,,,,,,,,,,,,,stimuli/alien_stimuli/61.png,,,,,,,,,,,,,,,,,,,,,,,,,,,,,stimuli/alien_stimuli/21.png,21,7,19,,,,,,,30,,,,,,,,501.80980370007455,501.80980370007455,501.80980370007455,501.80980370007455,501.80980370007455,-7,-42,0.4,0.08,return,1.67144589999225,3,0,0,1,0.4,0.08,return,1.5578064000001177,500.2304072000552,501.80980370007455,0.08,0.32,0.0,0.32,0.32,0.08,0.24000000000000002,0.08,0.32,499.0708328000037,499.0708328000037,499.0708328000037,499.0708328000037,499.0708328000037,499.0708328000037,499.0708328000037,499.0708328000037,499.06240540001306,1.2703597999643534,return,1.1423508999869227,,,,,,,,,,,,,,,,,,,,,,,,,,,,,,,,,DK8Y4P,train_x,blue_star,top_right,2025-06-21_11h50.11.305,HideSeek_v1,2022.2.5,60.293702717071746,
,5,8,2,8,-3,0,31,,train_dim1_1,19,30,,,,2,0,2,0,,,,,,,,,0,0,0,0,0,18,18,18,0,0,0,0,,,,,,,,,,,,,,,,,,,,,,,,,stimuli/alien_stimuli/31.png,,,,,,,,,,,,,,,,,,,,,,,,,,,,,stimuli/alien_stimuli/61.png,61,7,20,,,,,,,30,,,,,,,,507.7458648000611,507.7458648000611,507.7458648000611,507.7458648000611,507.7458648000611,,,,,left,1.1042301999405026,3,0,0,99,0.15999999999999998,0.24,left,1.0127616999670863,506.1852225000039,507.7458648000611,0.4,0.08,0.0,0.0,0.08,0.4,0.4,0.4,0.08,505.01699510007165,505.01699510007165,505.01699510007165,505.01699510007165,505.01699510007165,505.01699510007165,505.01699510007165,505.01699510007165,505.00075470008886,1.2697118000360206,return,1.1458744999254122,,,,,,,,,,,,,,,,,,,,,,,,,,,,,,,,,DK8Y4P,train_x,blue_star,top_right,2025-06-21_11h50.11.305,HideSeek_v1,2022.2.5,60.293702717071746,
,5,8,2,8,-3,0,31,,train_dim1_1,19,30,,,,2,0,2,0,,,,,,,,,0,0,0,0,0,18,18,18,1,0,1,0,,,,,,,,,,,,,,,,,,,,,,,,,,,,,,,,,,,,,,,,,,,,,,,,,,,,,,,,,,,,,,,,30,,,,,,,,508.8509684000164,508.8509684000164,508.8509684000164,508.8509684000164,508.8509684000164,,,,,left,0.2761273999931291,3,0,0,99,0.07999999999999997,0.24,left,0.20390510000288486,,,,,,,,,,,,,,,,,,,,,,,,,,,,,,,,,,,,,,,,,,,,,,,,,,,,,,,,DK8Y4P,train_x,blue_star,top_right,2025-06-21_11h50.11.305,HideSeek_v1,2022.2.5,60.293702717071746,
,5,8,2,8,-3,0,31,,train_dim1_1,19,30,,,,2,0,2,0,,,,,,,,,0,0,0,0,0,18,18,18,2,0,2,0,,,,,,,,,,,,,,,,,,,,,,,,,,,,,,,,,,,,,,,,,,,,,,,,,,,,,,,,,,,,,,,,30,,,,,,,,509.13488320005126,509.13488320005126,509.13488320005126,509.13488320005126,509.13488320005126,-7,-44,0.07999999999999997,0.24,return,0.6099701999919489,3,1,0,0,0.07999999999999997,0.24,return,0.5349419000558555,,,,,,,,,,,,,,,,,,,,,,,,,,,,,,,,,,,,,,,,,,,,,,,,,,,,,,,,DK8Y4P,train_x,blue_star,top_right,2025-06-21_11h50.11.305,HideSeek_v1,2022.2.5,60.293702717071746,
,5,6,0,6,-5,0,11,,train_dim1_1,20,30,,,,2,0,2,0,,,,,,,,,0,0,0,0,0,19,19,19,0,0,0,0,,,,,,,,,,,,,,,,,,,,,,,,,stimuli/alien_stimuli/11.png,,,,,,,,,,,,,,,,,,,,,,,,,,,,,stimuli/alien_stimuli/31.png,31,5,21,,,,,,,30,,,,,,,,513.7205589000368,513.7205589000368,513.7205589000368,513.7205589000368,513.7205589000368,,,,,left,1.2546677000354975,3,1,0,99,0.15999999999999998,0.08,left,1.1607108999742195,512.1567886000266,513.7205589000368,0,0.24,0.0,0.24,0.24,0,0.12,0,0.24,511.3096597000258,511.3096597000258,511.3096597000258,511.3096597000258,511.3096597000258,511.3096597000258,511.3096597000258,511.3096597000258,511.2892855999991,0.9528288999572396,return,0.8158869999460876,,,,,,,,,,,,,,,,,,,,,,,,,,,,,,,,,DK8Y4P,train_x,blue_star,top_right,2025-06-21_11h50.11.305,HideSeek_v1,2022.2.5,60.293702717071746,
,5,6,0,6,-5,0,11,,train_dim1_1,20,30,,,,2,0,2,0,,,,,,,,,0,0,0,0,0,19,19,19,1,0,1,0,,,,,,,,,,,,,,,,,,,,,,,,,,,,,,,,,,,,,,,,,,,,,,,,,,,,,,,,,,,,,,,,30,,,,,,,,514.9763604000909,514.9763604000909,514.9763604000909,514.9763604000909,514.9763604000909,,,,,left,0.409551199991256,3,1,0,99,0.07999999999999997,0.08,left,0.3234644999029115,,,,,,,,,,,,,,,,,,,,,,,,,,,,,,,,,,,,,,,,,,,,,,,,,,,,,,,,DK8Y4P,train_x,blue_star,top_right,2025-06-21_11h50.11.305,HideSeek_v1,2022.2.5,60.293702717071746,
,5,6,0,6,-5,0,11,,train_dim1_1,20,30,,,,2,0,2,0,,,,,,,,,0,0,0,0,0,19,19,19,2,0,2,0,,,,,,,,,,,,,,,,,,,,,,,,,,,,,,,,,,,,,,,,,,,,,,,,,,,,,,,,,,,,,,,,30,,,,,,,,515.3941287000198,515.3941287000198,515.3941287000198,515.3941287000198,515.3941287000198,,,,,left,0.45974439999554306,3,1,0,99,-2.7755575615628914e-17,0.08,left,0.3809936000034213,,,,,,,,,,,,,,,,,,,,,,,,,,,,,,,,,,,,,,,,,,,,,,,,,,,,,,,,DK8Y4P,train_x,blue_star,top_right,2025-06-21_11h50.11.305,HideSeek_v1,2022.2.5,60.293702717071746,
,5,6,0,6,-5,0,11,,train_dim1_1,20,30,,,,2,0,2,0,,,,,,,,,0,0,0,0,0,19,19,19,3,0,3,0,,,,,,,,,,,,,,,,,,,,,,,,,,,,,,,,,,,,,,,,,,,,,,,,,,,,,,,,,,,,,,,,30,,,,,,,,515.8598502000095,515.8598502000095,515.8598502000095,515.8598502000095,515.8598502000095,,,,,left,0.4437474000733346,3,1,0,99,-0.08000000000000003,0.08,left,0.36666129995137453,,,,,,,,,,,,,,,,,,,,,,,,,,,,,,,,,,,,,,,,,,,,,,,,,,,,,,,,DK8Y4P,train_x,blue_star,top_right,2025-06-21_11h50.11.305,HideSeek_v1,2022.2.5,60.293702717071746,
,5,6,0,6,-5,0,11,,train_dim1_1,20,30,,,,2,0,2,0,,,,,,,,,0,0,0,0,0,19,19,19,4,0,4,0,,,,,,,,,,,,,,,,,,,,,,,,,,,,,,,,,,,,,,,,,,,,,,,,,,,,,,,,,,,,,,,,30,,,,,,,,516.3108224000316,516.3108224000316,516.3108224000316,516.3108224000316,516.3108224000316,,,,,left,0.44311599992215633,3,1,0,99,-0.16000000000000003,0.08,left,0.3567746999906376,,,,,,,,,,,,,,,,,,,,,,,,,,,,,,,,,,,,,,,,,,,,,,,,,,,,,,,,DK8Y4P,train_x,blue_star,top_right,2025-06-21_11h50.11.305,HideSeek_v1,2022.2.5,60.293702717071746,
,5,6,0,6,-5,0,11,,train_dim1_1,20,30,,,,2,0,2,0,,,,,,,,,0,0,0,0,0,19,19,19,5,0,5,0,,,,,,,,,,,,,,,,,,,,,,,,,,,,,,,,,,,,,,,,,,,,,,,,,,,,,,,,,,,,,,,,30,,,,,,,,516.7610406000167,516.7610406000167,516.7610406000167,516.7610406000167,516.7610406000167,-7,-49,-0.16000000000000003,0.08,return,0.3766440999461338,4,0,0,1,-0.16000000000000003,0.08,return,0.29566159995738417,,,,,,,,,,,,,,,,,,,,,,,,,,,,,,,,,,,,,,,,,,,,,,,,,,,,,,,,DK8Y4P,train_x,blue_star,top_right,2025-06-21_11h50.11.305,HideSeek_v1,2022.2.5,60.293702717071746,
,9,7,6,7,-3,0,31,,train_dim1_1,21,30,,,,2,0,2,0,,,,,,,,,0,0,0,0,0,20,20,20,0,0,0,0,,,,,,,,,,,,,,,,,,,,,,,,,stimuli/alien_stimuli/31.png,,,,,,,,,,,,,,,,,,,,,,,,,,,,,stimuli/alien_stimuli/11.png,11,5,22,,,,,,,30,,,,,,,,521.3054341999814,521.3054341999814,521.3054341999814,521.3054341999814,521.3054341999814,,,,,left,1.0712584999855608,4,0,0,99,0.48000000000000004,0.16,left,0.9887448999797925,519.7463987000519,521.3054341999814,-0.16,0.08,0.0,0.4,0.08,-0.16,0.039999999999999994,-0.16,0.08,518.701857100008,518.701857100008,518.701857100008,518.701857100008,518.701857100008,518.701857100008,518.701857100008,518.701857100008,518.6954759999994,1.1533261000877246,return,1.0180953999515623,,,,,,,,,,,,,,,,,,,,,,,,,,,,,,,,,DK8Y4P,train_x,blue_star,top_right,2025-06-21_11h50.11.305,HideSeek_v1,2022.2.5,60.293702717071746,
,9,7,6,7,-3,0,31,,train_dim1_1,21,30,,,,2,0,2,0,,,,,,,,,0,0,0,0,0,20,20,20,1,0,1,0,,,,,,,,,,,,,,,,,,,,,,,,,,,,,,,,,,,,,,,,,,,,,,,,,,,,,,,,,,,,,,,,30,,,,,,,,522.3779704000335,522.3779704000335,522.3779704000335,522.3779704000335,522.3779704000335,,,,,left,0.35974710003938526,4,0,0,99,0.4,0.16,left,0.28617879992816597,,,,,,,,,,,,,,,,,,,,,,,,,,,,,,,,,,,,,,,,,,,,,,,,,,,,,,,,DK8Y4P,train_x,blue_star,top_right,2025-06-21_11h50.11.305,HideSeek_v1,2022.2.5,60.293702717071746,
,9,7,6,7,-3,0,31,,train_dim1_1,21,30,,,,2,0,2,0,,,,,,,,,0,0,0,0,0,20,20,20,2,0,2,0,,,,,,,,,,,,,,,,,,,,,,,,,,,,,,,,,,,,,,,,,,,,,,,,,,,,,,,,,,,,,,,,30,,,,,,,,522.7452672000509,522.7452672000509,522.7452672000509,522.7452672000509,522.7452672000509,,,,,left,0.39329530007671565,4,0,0,99,0.32,0.16,left,0.3055519999470562,,,,,,,,,,,,,,,,,,,,,,,,,,,,,,,,,,,,,,,,,,,,,,,,,,,,,,,,DK8Y4P,train_x,blue_star,top_right,2025-06-21_11h50.11.305,HideSeek_v1,2022.2.5,60.293702717071746,
,9,7,6,7,-3,0,31,,train_dim1_1,21,30,,,,2,0,2,0,,,,,,,,,0,0,0,0,0,20,20,20,3,0,3,0,,,,,,,,,,,,,,,,,,,,,,,,,,,,,,,,,,,,,,,,,,,,,,,,,,,,,,,,,,,,,,,,30,,,,,,,,523.1456431000261,523.1456431000261,523.1456431000261,523.1456431000261,523.1456431000261,-7,-52,0.32,0.16,return,0.25978600000962615,5,0,0,1,0.32,0.16,return,0.17385250004008412,,,,,,,,,,,,,,,,,,,,,,,,,,,,,,,,,,,,,,,,,,,,,,,,,,,,,,,,DK8Y4P,train_x,blue_star,top_right,2025-06-21_11h50.11.305,HideSeek_v1,2022.2.5,60.293702717071746,
,6,5,2,5,-4,0,21,,train_dim1_1,22,30,,,,2,0,2,0,,,,,,,,,0,0,0,0,0,21,21,21,0,0,0,0,,,,,,,,,,,,,,,,,,,,,,,,,stimuli/alien_stimuli/21.png,,,,,,,,,,,,,,,,,,,,,,,,,,,,,stimuli/alien_stimuli/31.png,31,9,23,,,,,,,30,,,,,,,,527.3484119999921,527.3484119999921,527.3484119999921,527.3484119999921,527.3484119999921,,,,,left,1.603034000028856,5,0,0,99,0.24,0,left,1.500660700025037,525.7679961000104,527.3484119999921,0.32,0.16,0.0,0.24,0.16,0.32,0.44000000000000006,0.32,0.16,524.9689412000589,524.9689412000589,524.9689412000589,524.9689412000589,524.9689412000589,524.9689412000589,524.9689412000589,524.9689412000589,524.9505779999774,0.9028246001107618,return,0.7668255000608042,,,,,,,,,,,,,,,,,,,,,,,,,,,,,,,,,DK8Y4P,train_x,blue_star,top_right,2025-06-21_11h50.11.305,HideSeek_v1,2022.2.5,60.293702717071746,
,6,5,2,5,-4,0,21,,train_dim1_1,22,30,,,,2,0,2,0,,,,,,,,,0,0,0,0,0,21,21,21,1,0,1,0,,,,,,,,,,,,,,,,,,,,,,,,,,,,,,,,,,,,,,,,,,,,,,,,,,,,,,,,,,,,,,,,30,,,,,,,,528.9381698000943,528.9381698000943,528.9381698000943,528.9381698000943,528.9381698000943,,,,,left,0.7598860000725836,5,0,0,99,0.15999999999999998,0,left,0.68336140003521,,,,,,,,,,,,,,,,,,,,,,,,,,,,,,,,,,,,,,,,,,,,,,,,,,,,,,,,DK8Y4P,train_x,blue_star,top_right,2025-06-21_11h50.11.305,HideSeek_v1,2022.2.5,60.293702717071746,
,6,5,2,5,-4,0,21,,train_dim1_1,22,30,,,,2,0,2,0,,,,,,,,,0,0,0,0,0,21,21,21,2,0,2,0,,,,,,,,,,,,,,,,,,,,,,,,,,,,,,,,,,,,,,,,,,,,,,,,,,,,,,,,,,,,,,,,30,,,,,,,,529.7054704000475,529.7054704000475,529.7054704000475,529.7054704000475,529.7054704000475,,,,,left,0.7936191000044346,5,0,0,99,0.07999999999999997,0,left,0.7126026999903843,,,,,,,,,,,,,,,,,,,,,,,,,,,,,,,,,,,,,,,,,,,,,,,,,,,,,,,,DK8Y4P,train_x,blue_star,top_right,2025-06-21_11h50.11.305,HideSeek_v1,2022.2.5,60.293702717071746,
,6,5,2,5,-4,0,21,,train_dim1_1,22,30,,,,2,0,2,0,,,,,,,,,0,0,0,0,0,21,21,21,3,0,3,0,,,,,,,,,,,,,,,,,,,,,,,,,,,,,,,,,,,,,,,,,,,,,,,,,,,,,,,,,,,,,,,,30,,,,,,,,530.5052770000184,530.5052770000184,530.5052770000184,530.5052770000184,530.5052770000184,,,,,left,0.22648509999271482,5,0,0,99,-2.7755575615628914e-17,0,left,0.1464315999764949,,,,,,,,,,,,,,,,,,,,,,,,,,,,,,,,,,,,,,,,,,,,,,,,,,,,,,,,DK8Y4P,train_x,blue_star,top_right,2025-06-21_11h50.11.305,HideSeek_v1,2022.2.5,60.293702717071746,
,6,5,2,5,-4,0,21,,train_dim1_1,22,30,,,,2,0,2,0,,,,,,,,,0,0,0,0,0,21,21,21,4,0,4,0,,,,,,,,,,,,,,,,,,,,,,,,,,,,,,,,,,,,,,,,,,,,,,,,,,,,,,,,,,,,,,,,30,,,,,,,,530.7393291000044,530.7393291000044,530.7393291000044,530.7393291000044,530.7393291000044,-7,-56,-2.7755575615628914e-17,0,return,0.36006279999855906,6,0,0,1,-2.7755575615628914e-17,0,return,0.27809729997534305,,,,,,,,,,,,,,,,,,,,,,,,,,,,,,,,,,,,,,,,,,,,,,,,,,,,,,,,DK8Y4P,train_x,blue_star,top_right,2025-06-21_11h50.11.305,HideSeek_v1,2022.2.5,60.293702717071746,
,7,6,7,6,0,0,61,,train_dim1_1,23,30,,,,2,0,2,0,,,,,,,,,0,0,0,0,0,22,22,22,0,0,0,0,,,,,,,,,,,,,,,,,,,,,,,,,stimuli/alien_stimuli/61.png,,,,,,,,,,,,,,,,,,,,,,,,,,,,,stimuli/alien_stimuli/21.png,21,6,24,,,,,,,30,,,,,,,,534.8295464999974,534.8295464999974,534.8295464999974,534.8295464999974,534.8295464999974,-7,-56,0.4,0.08,return,1.2227659999625757,7,0,0,1,0.4,0.08,return,1.1236991999903694,533.2575123000424,534.8295464999974,0,0,0.0,0.32,0.0,0,0.16,0,0,532.6650870000012,532.6650870000012,532.6650870000012,532.6650870000012,532.6650870000012,532.6650870000012,532.6650870000012,532.6650870000012,532.6569693000406,0.7026115000480786,return,0.5608017999911681,,,,,,,,,,,,,,,,,,,,,,,,,,,,,,,,,DK8Y4P,train_x,blue_star,top_right,2025-06-21_11h50.11.305,HideSeek_v1,2022.2.5,60.293702717071746,
,9,9,8,9,-1,0,51,,train_dim1_1,24,30,,,,2,0,2,0,,,,,,,,,0,0,0,0,0,23,23,23,0,0,0,0,,,,,,,,,,,,,,,,,,,,,,,,,stimuli/alien_stimuli/51.png,,,,,,,,,,,,,,,,,,,,,,,,,,,,,stimuli/alien_stimuli/61.png,61,7,25,,,,,,,30,,,,,,,,539.8067733000498,539.8067733000498,539.8067733000498,539.8067733000498,539.8067733000498,,,,,left,1.021757899899967,7,0,0,99,0.48000000000000004,0.32,left,0.9290949000278488,538.2450453999918,539.8067733000498,0.4,0.08,0.0,0.0,0.08,0.4,0.4,0.4,0.08,537.5955391000025,537.5955391000025,537.5955391000025,537.5955391000025,537.5955391000025,537.5955391000025,537.5955391000025,537.5955391000025,537.5777578000445,0.752553999889642,return,0.6212698000017554,,,,,,,,,,,,,,,,,,,,,,,,,,,,,,,,,DK8Y4P,train_x,blue_star,top_right,2025-06-21_11h50.11.305,HideSeek_v1,2022.2.5,60.293702717071746,
,9,9,8,9,-1,0,51,,train_dim1_1,24,30,,,,2,0,2,0,,,,,,,,,0,0,0,0,0,23,23,23,1,0,1,0,,,,,,,,,,,,,,,,,,,,,,,,,,,,,,,,,,,,,,,,,,,,,,,,,,,,,,,,,,,,,,,,30,,,,,,,,540.8339669000125,540.8339669000125,540.8339669000125,540.8339669000125,540.8339669000125,,,,,left,0.8743331000441685,7,0,0,99,0.4,0.32,left,0.7962894000811502,,,,,,,,,,,,,,,,,,,,,,,,,,,,,,,,,,,,,,,,,,,,,,,,,,,,,,,,DK8Y4P,train_x,blue_star,top_right,2025-06-21_11h50.11.305,HideSeek_v1,2022.2.5,60.293702717071746,
,9,9,8,9,-1,0,51,,train_dim1_1,24,30,,,,2,0,2,0,,,,,,,,,0,0,0,0,0,23,23,23,2,0,2,0,,,,,,,,,,,,,,,,,,,,,,,,,,,,,,,,,,,,,,,,,,,,,,,,,,,,,,,,,,,,,,,,30,,,,,,,,541.7143664000323,541.7143664000323,541.7143664000323,541.7143664000323,541.7143664000323,-7,-58,0.4,0.32,return,0.3099033000180498,7,1,0,0,0.4,0.32,return,0.21969050006009638,,,,,,,,,,,,,,,,,,,,,,,,,,,,,,,,,,,,,,,,,,,,,,,,,,,,,,,,DK8Y4P,train_x,blue_star,top_right,2025-06-21_11h50.11.305,HideSeek_v1,2022.2.5,60.293702717071746,
,8,5,3,5,-5,0,11,,train_dim1_1,25,30,,,,2,0,2,0,,,,,,,,,0,0,0,0,0,24,24,24,0,0,0,0,,,,,,,,,,,,,,,,,,,,,,,,,stimuli/alien_stimuli/11.png,,,,,,,,,,,,,,,,,,,,,,,,,,,,,stimuli/alien_stimuli/51.png,51,9,26,,,,,,,30,,,,,,,,545.8289340999909,545.8289340999909,545.8289340999909,545.8289340999909,545.8289340999909,,,,,left,1.189890000037849,7,1,0,99,0.39999999999999997,0,left,1.0943529000505805,544.2666725000599,545.8289340999909,0.48,0.32,0.0,0.08,0.32,0.48,0.52,0.48,0.32,543.5893482000101,543.5893482000101,543.5893482000101,543.5893482000101,543.5893482000101,543.5893482000101,543.5893482000101,543.5893482000101,543.5826325000148,0.786509900004603,return,0.6520840000594035,,,,,,,,,,,,,,,,,,,,,,,,,,,,,,,,,DK8Y4P,train_x,blue_star,top_right,2025-06-21_11h50.11.305,HideSeek_v1,2022.2.5,60.293702717071746,
,8,5,3,5,-5,0,11,,train_dim1_1,25,30,,,,2,0,2,0,,,,,,,,,0,0,0,0,0,24,24,24,1,0,1,0,,,,,,,,,,,,,,,,,,,,,,,,,,,,,,,,,,,,,,,,,,,,,,,,,,,,,,,,,,,,,,,,30,,,,,,,,547.0201619000873,547.0201619000873,547.0201619000873,547.0201619000873,547.0201619000873,,,,,left,0.4432061999104917,7,1,0,99,0.31999999999999995,0,left,0.35397809999994934,,,,,,,,,,,,,,,,,,,,,,,,,,,,,,,,,,,,,,,,,,,,,,,,,,,,,,,,DK8Y4P,train_x,blue_star,top_right,2025-06-21_11h50.11.305,HideSeek_v1,2022.2.5,60.293702717071746,
,8,5,3,5,-5,0,11,,train_dim1_1,25,30,,,,2,0,2,0,,,,,,,,,0,0,0,0,0,24,24,24,2,0,2,0,,,,,,,,,,,,,,,,,,,,,,,,,,,,,,,,,,,,,,,,,,,,,,,,,,,,,,,,,,,,,,,,30,,,,,,,,547.4701724000042,547.4701724000042,547.4701724000042,547.4701724000042,547.4701724000042,,,,,left,0.34281110006850213,7,1,0,99,0.23999999999999994,0,left,0.2622665000380948,,,,,,,,,,,,,,,,,,,,,,,,,,,,,,,,,,,,,,,,,,,,,,,,,,,,,,,,DK8Y4P,train_x,blue_star,top_right,2025-06-21_11h50.11.305,HideSeek_v1,2022.2.5,60.293702717071746,
,8,5,3,5,-5,0,11,,train_dim1_1,25,30,,,,2,0,2,0,,,,,,,,,0,0,0,0,0,24,24,24,3,0,3,0,,,,,,,,,,,,,,,,,,,,,,,,,,,,,,,,,,,,,,,,,,,,,,,,,,,,,,,,,,,,,,,,30,,,,,,,,547.8213111000368,547.8213111000368,547.8213111000368,547.8213111000368,547.8213111000368,,,,,left,0.39340940001420677,7,1,0,99,0.15999999999999992,0,left,0.3038478000089526,,,,,,,,,,,,,,,,,,,,,,,,,,,,,,,,,,,,,,,,,,,,,,,,,,,,,,,,DK8Y4P,train_x,blue_star,top_right,2025-06-21_11h50.11.305,HideSeek_v1,2022.2.5,60.293702717071746,
,8,5,3,5,-5,0,11,,train_dim1_1,25,30,,,,2,0,2,0,,,,,,,,,0,0,0,0,0,24,24,24,4,0,4,0,,,,,,,,,,,,,,,,,,,,,,,,,,,,,,,,,,,,,,,,,,,,,,,,,,,,,,,,,,,,,,,,30,,,,,,,,548.2212319000391,548.2212319000391,548.2212319000391,548.2212319000391,548.2212319000391,,,,,left,0.39306629996281117,7,1,0,99,0.07999999999999992,0,left,0.31542200001422316,,,,,,,,,,,,,,,,,,,,,,,,,,,,,,,,,,,,,,,,,,,,,,,,,,,,,,,,DK8Y4P,train_x,blue_star,top_right,2025-06-21_11h50.11.305,HideSeek_v1,2022.2.5,60.293702717071746,
,8,5,3,5,-5,0,11,,train_dim1_1,25,30,,,,2,0,2,0,,,,,,,,,0,0,0,0,0,24,24,24,5,0,5,0,,,,,,,,,,,,,,,,,,,,,,,,,,,,,,,,,,,,,,,,,,,,,,,,,,,,,,,,,,,,,,,,30,,,,,,,,548.6205425000517,548.6205425000517,548.6205425000517,548.6205425000517,548.6205425000517,,,,,left,0.5267239999957383,7,1,0,99,-8.326672684688674e-17,0,left,0.439154600026086,,,,,,,,,,,,,,,,,,,,,,,,,,,,,,,,,,,,,,,,,,,,,,,,,,,,,,,,DK8Y4P,train_x,blue_star,top_right,2025-06-21_11h50.11.305,HideSeek_v1,2022.2.5,60.293702717071746,
,8,5,3,5,-5,0,11,,train_dim1_1,25,30,,,,2,0,2,0,,,,,,,,,0,0,0,0,0,24,24,24,6,0,6,0,,,,,,,,,,,,,,,,,,,,,,,,,,,,,,,,,,,,,,,,,,,,,,,,,,,,,,,,,,,,,,,,30,,,,,,,,549.1545645000879,549.1545645000879,549.1545645000879,549.1545645000879,549.1545645000879,-7,-64,-8.326672684688674e-17,0,return,0.44345140003133565,7,1,0,0,-8.326672684688674e-17,0,return,0.3514950000680983,,,,,,,,,,,,,,,,,,,,,,,,,,,,,,,,,,,,,,,,,,,,,,,,,,,,,,,,DK8Y4P,train_x,blue_star,top_right,2025-06-21_11h50.11.305,HideSeek_v1,2022.2.5,60.293702717071746,
,6,6,6,6,0,0,61,,train_dim1_1,26,30,,,,2,0,2,0,,,,,,,,,0,0,0,0,0,25,25,25,0,0,0,0,,,,,,,,,,,,,,,,,,,,,,,,,stimuli/alien_stimuli/61.png,,,,,,,,,,,,,,,,,,,,,,,,,,,,,stimuli/alien_stimuli/11.png,11,8,27,,,,,,,30,,,,,,,,553.5032440000214,553.5032440000214,553.5032440000214,553.5032440000214,553.5032440000214,,,,,left,2.023139499942772,7,1,0,99,0.24,0.08,left,1.908652300015092,551.9231732999906,553.5032440000214,0.08,0,0.0,0.4,0.0,0.08,0.27999999999999997,0.08,0,551.1639054000843,551.1639054000843,551.1639054000843,551.1639054000843,551.1639054000843,551.1639054000843,551.1639054000843,551.1639054000843,551.1556052000146,0.8700910999905318,return,0.739179499913007,,,,,,,,,,,,,,,,,,,,,,,,,,,,,,,,,DK8Y4P,train_x,blue_star,top_right,2025-06-21_11h50.11.305,HideSeek_v1,2022.2.5,60.293702717071746,
,6,6,6,6,0,0,61,,train_dim1_1,26,30,,,,2,0,2,0,,,,,,,,,0,0,0,0,0,25,25,25,1,0,1,0,,,,,,,,,,,,,,,,,,,,,,,,,,,,,,,,,,,,,,,,,,,,,,,,,,,,,,,,,,,,,,,,30,,,,,,,,555.5060369999846,555.5060369999846,555.5060369999846,555.5060369999846,555.5060369999846,-7,-65,0.24,0.08,return,0.1925672999350354,7,1,0,0,0.24,0.08,return,0.10460029996465892,,,,,,,,,,,,,,,,,,,,,,,,,,,,,,,,,,,,,,,,,,,,,,,,,,,,,,,,DK8Y4P,train_x,blue_star,top_right,2025-06-21_11h50.11.305,HideSeek_v1,2022.2.5,60.293702717071746,
,5,6,2,6,-3,0,31,,train_dim1_1,27,30,,,,2,0,2,0,,,,,,,,,0,0,0,0,0,26,26,26,0,0,0,0,,,,,,,,,,,,,,,,,,,,,,,,,stimuli/alien_stimuli/31.png,,,,,,,,,,,,,,,,,,,,,,,,,,,,,stimuli/alien_stimuli/61.png,61,6,28,,,,,,,30,,,,,,,,559.6037092000479,559.6037092000479,559.6037092000479,559.6037092000479,559.6037092000479,,,,,left,1.4396168000530452,7,1,0,99,0.15999999999999998,0.08,left,1.3500240000430495,558.0452600000426,559.6037092000479,0.32,0.08,0.0,0.0,0.08,0.32,0.32,0.32,0.08,557.2610862000147,557.2610862000147,557.2610862000147,557.2610862000147,557.2610862000147,557.2610862000147,557.2610862000147,557.2610862000147,557.2439087999985,0.8859790000133216,return,0.7614658999955282,,,,,,,,,,,,,,,,,,,,,,,,,,,,,,,,,DK8Y4P,train_x,blue_star,top_right,2025-06-21_11h50.11.305,HideSeek_v1,2022.2.5,60.293702717071746,
,5,6,2,6,-3,0,31,,train_dim1_1,27,30,,,,2,0,2,0,,,,,,,,,0,0,0,0,0,26,26,26,1,0,1,0,,,,,,,,,,,,,,,,,,,,,,,,,,,,,,,,,,,,,,,,,,,,,,,,,,,,,,,,,,,,,,,,30,,,,,,,,561.044740100042,561.044740100042,561.044740100042,561.044740100042,561.044740100042,,,,,left,0.17594169999938458,7,1,0,99,0.07999999999999997,0.08,left,0.09899450000375509,,,,,,,,,,,,,,,,,,,,,,,,,,,,,,,,,,,,,,,,,,,,,,,,,,,,,,,,DK8Y4P,train_x,blue_star,top_right,2025-06-21_11h50.11.305,HideSeek_v1,2022.2.5,60.293702717071746,
,5,6,2,6,-3,0,31,,train_dim1_1,27,30,,,,2,0,2,0,,,,,,,,,0,0,0,0,0,26,26,26,2,0,2,0,,,,,,,,,,,,,,,,,,,,,,,,,,,,,,,,,,,,,,,,,,,,,,,,,,,,,,,,,,,,,,,,30,,,,,,,,561.2275702999905,561.2275702999905,561.2275702999905,561.2275702999905,561.2275702999905,-7,-67,0.07999999999999997,0.08,return,0.32638079999014735,7,1,0,0,0.07999999999999997,0.08,return,0.24645320000126958,,,,,,,,,,,,,,,,,,,,,,,,,,,,,,,,,,,,,,,,,,,,,,,,,,,,,,,,DK8Y4P,train_x,blue_star,top_right,2025-06-21_11h50.11.305,HideSeek_v1,2022.2.5,60.293702717071746,
,8,6,4,6,-4,0,21,,train_dim1_1,28,30,,,,2,0,2,0,,,,,,,,,0,0,0,0,0,27,27,27,0,0,0,0,,,,,,,,,,,,,,,,,,,,,,,,,stimuli/alien_stimuli/21.png,,,,,,,,,,,,,,,,,,,,,,,,,,,,,stimuli/alien_stimuli/31.png,31,5,29,,,,,,,30,,,,,,,,565.246418200084,565.246418200084,565.246418200084,565.246418200084,565.246418200084,,,,,left,1.6880293000722304,7,1,0,99,0.39999999999999997,0.08,left,1.6010085999732837,563.6828905000584,565.246418200084,0,0.08,0.0,0.24,0.08,0,0.12,0,0.08,563.1199555000057,563.1199555000057,563.1199555000057,563.1199555000057,563.1199555000057,563.1199555000057,563.1199555000057,563.1199555000057,563.0989078000887,0.6694906000047922,return,0.5443927999585867,,,,,,,,,,,,,,,,,,,,,,,,,,,,,,,,,DK8Y4P,train_x,blue_star,top_right,2025-06-21_11h50.11.305,HideSeek_v1,2022.2.5,60.293702717071746,
,8,6,4,6,-4,0,21,,train_dim1_1,28,30,,,,2,0,2,0,,,,,,,,,0,0,0,0,0,27,27,27,1,0,1,0,,,,,,,,,,,,,,,,,,,,,,,,,,,,,,,,,,,,,,,,,,,,,,,,,,,,,,,,,,,,,,,,30,,,,,,,,566.9369335999945,566.9369335999945,566.9369335999945,566.9369335999945,566.9369335999945,,,,,left,0.15960809995885938,7,1,0,99,0.31999999999999995,0.08,left,0.08273210003972054,,,,,,,,,,,,,,,,,,,,,,,,,,,,,,,,,,,,,,,,,,,,,,,,,,,,,,,,DK8Y4P,train_x,blue_star,top_right,2025-06-21_11h50.11.305,HideSeek_v1,2022.2.5,60.293702717071746,
,8,6,4,6,-4,0,21,,train_dim1_1,28,30,,,,2,0,2,0,,,,,,,,,0,0,0,0,0,27,27,27,2,0,2,0,,,,,,,,,,,,,,,,,,,,,,,,,,,,,,,,,,,,,,,,,,,,,,,,,,,,,,,,,,,,,,,,30,,,,,,,,567.1025481000543,567.1025481000543,567.1025481000543,567.1025481000543,567.1025481000543,,,,,left,0.6933472000528127,7,1,0,99,0.23999999999999994,0.08,left,0.602046399959363,,,,,,,,,,,,,,,,,,,,,,,,,,,,,,,,,,,,,,,,,,,,,,,,,,,,,,,,DK8Y4P,train_x,blue_star,top_right,2025-06-21_11h50.11.305,HideSeek_v1,2022.2.5,60.293702717071746,
,8,6,4,6,-4,0,21,,train_dim1_1,28,30,,,,2,0,2,0,,,,,,,,,0,0,0,0,0,27,27,27,3,0,3,0,,,,,,,,,,,,,,,,,,,,,,,,,,,,,,,,,,,,,,,,,,,,,,,,,,,,,,,,,,,,,,,,30,,,,,,,,567.8030538000166,567.8030538000166,567.8030538000166,567.8030538000166,567.8030538000166,,,,,left,2.1780929000815377,7,1,0,99,0.15999999999999992,0.08,left,2.093362200073898,,,,,,,,,,,,,,,,,,,,,,,,,,,,,,,,,,,,,,,,,,,,,,,,,,,,,,,,DK8Y4P,train_x,blue_star,top_right,2025-06-21_11h50.11.305,HideSeek_v1,2022.2.5,60.293702717071746,
,8,6,4,6,-4,0,21,,train_dim1_1,28,30,,,,2,0,2,0,,,,,,,,,0,0,0,0,0,27,27,27,4,0,4,0,,,,,,,,,,,,,,,,,,,,,,,,,,,,,,,,,,,,,,,,,,,,,,,,,,,,,,,,,,,,,,,,30,,,,,,,,569.9891809000401,569.9891809000401,569.9891809000401,569.9891809000401,569.9891809000401,,,,,left,0.45959679991938174,7,1,0,99,0.07999999999999992,0.08,left,0.36755510000512004,,,,,,,,,,,,,,,,,,,,,,,,,,,,,,,,,,,,,,,,,,,,,,,,,,,,,,,,DK8Y4P,train_x,blue_star,top_right,2025-06-21_11h50.11.305,HideSeek_v1,2022.2.5,60.293702717071746,
,8,6,4,6,-4,0,21,,train_dim1_1,28,30,,,,2,0,2,0,,,,,,,,,0,0,0,0,0,27,27,27,5,0,5,0,,,,,,,,,,,,,,,,,,,,,,,,,,,,,,,,,,,,,,,,,,,,,,,,,,,,,,,,,,,,,,,,30,,,,,,,,570.4551411999855,570.4551411999855,570.4551411999855,570.4551411999855,570.4551411999855,-7,-72,0.07999999999999992,0.08,return,0.2597194000845775,7,1,0,0,0.07999999999999992,0.08,return,0.170924499980174,,,,,,,,,,,,,,,,,,,,,,,,,,,,,,,,,,,,,,,,,,,,,,,,,,,,,,,,DK8Y4P,train_x,blue_star,top_right,2025-06-21_11h50.11.305,HideSeek_v1,2022.2.5,60.293702717071746,
,9,5,8,5,-1,0,51,,train_dim1_1,29,30,,,,2,0,2,0,,,,,,,,,0,0,0,0,0,28,28,28,0,0,0,0,,,,,,,,,,,,,,,,,,,,,,,,,stimuli/alien_stimuli/51.png,,,,,,,,,,,,,,,,,,,,,,,,,,,,,stimuli/alien_stimuli/21.png,21,8,30,,,,,,,30,,,,,,,,574.4544383999892,574.4544383999892,574.4544383999892,574.4544383999892,574.4544383999892,,,,,left,2.7057641999563202,7,1,0,99,0.48000000000000004,0,left,2.5952218000311404,572.8738509999821,574.4544383999892,0.16,0.08,0.0,0.32,0.08,0.16,0.32,0.16,0.08,572.2895323000848,572.2895323000848,572.2895323000848,572.2895323000848,572.2895323000848,572.2895323000848,572.2895323000848,572.2895323000848,572.2739164000727,0.7015265000518411,return,0.5662631000159308,,,,,,,,,,,,,,,,,,,,,,,,,,,,,,,,,DK8Y4P,train_x,blue_star,top_right,2025-06-21_11h50.11.305,HideSeek_v1,2022.2.5,60.293702717071746,
,9,5,8,5,-1,0,51,,train_dim1_1,29,30,,,,2,0,2,0,,,,,,,,,0,0,0,0,0,28,28,28,1,0,1,0,,,,,,,,,,,,,,,,,,,,,,,,,,,,,,,,,,,,,,,,,,,,,,,,,,,,,,,,,,,,,,,,30,,,,,,,,577.1436356999911,577.1436356999911,577.1436356999911,577.1436356999911,577.1436356999911,-7,-73,0.48000000000000004,0,return,0.17620269989129156,8,0,0,1,0.48000000000000004,0,return,0.1011606000829488,,,,,,,,,,,,,,,,,,,,,,,,,,,,,,,,,,,,,,,,,,,,,,,,,,,,,,,,DK8Y4P,train_x,blue_star,top_right,2025-06-21_11h50.11.305,HideSeek_v1,2022.2.5,60.293702717071746,
,7,7,2,7,-5,0,11,,train_dim1_1,30,30,,,,2,0,2,0,,,,,,,,,0,0,0,0,0,29,29,29,0,0,0,0,,,,,,,,,,,,,,,,,,,,,,,,,stimuli/alien_stimuli/11.png,,,,,,,,,,,,,,,,,,,,,,,,,,,,,stimuli/alien_stimuli/51.png,51,9,31,,,,,,,30,,,,,,,,581.3418778000632,581.3418778000632,581.3418778000632,581.3418778000632,581.3418778000632,,,,,left,1.0056515999604017,8,0,0,99,0.32,0.16,left,0.9193906000582501,579.7806351000909,581.3418778000632,0.48,0,0.0,0.08,0.0,0.48,0.52,0.48,0,578.8831654000096,578.8831654000096,578.8831654000096,578.8831654000096,578.8831654000096,578.8831654000096,578.8831654000096,578.8831654000096,578.861954500014,1.006052999990061,return,0.8766651999903843,,,,,,,,,,,,,,,,,,,,,,,,,,,,,,,,,DK8Y4P,train_x,blue_star,top_right,2025-06-21_11h50.11.305,HideSeek_v1,2022.2.5,60.293702717071746,
,7,7,2,7,-5,0,11,,train_dim1_1,30,30,,,,2,0,2,0,,,,,,,,,0,0,0,0,0,29,29,29,1,0,1,0,,,,,,,,,,,,,,,,,,,,,,,,,,,,,,,,,,,,,,,,,,,,,,,,,,,,,,,,,,,,,,,,30,,,,,,,,582.3495761000086,582.3495761000086,582.3495761000086,582.3495761000086,582.3495761000086,,,,,left,0.3759948000079021,8,0,0,99,0.24,0.16,left,0.28689039999153465,,,,,,,,,,,,,,,,,,,,,,,,,,,,,,,,,,,,,,,,,,,,,,,,,,,,,,,,DK8Y4P,train_x,blue_star,top_right,2025-06-21_11h50.11.305,HideSeek_v1,2022.2.5,60.293702717071746,
,7,7,2,7,-5,0,11,,train_dim1_1,30,30,,,,2,0,2,0,,,,,,,,,0,0,0,0,0,29,29,29,2,0,2,0,,,,,,,,,,,,,,,,,,,,,,,,,,,,,,,,,,,,,,,,,,,,,,,,,,,,,,,,,,,,,,,,30,,,,,,,,582.7327486000722,582.7327486000722,582.7327486000722,582.7327486000722,582.7327486000722,,,,,left,0.34334880008827895,8,0,0,99,0.15999999999999998,0.16,left,0.2612909000599757,,,,,,,,,,,,,,,,,,,,,,,,,,,,,,,,,,,,,,,,,,,,,,,,,,,,,,,,DK8Y4P,train_x,blue_star,top_right,2025-06-21_11h50.11.305,HideSeek_v1,2022.2.5,60.293702717071746,
,7,7,2,7,-5,0,11,,train_dim1_1,30,30,,,,2,0,2,0,,,,,,,,,0,0,0,0,0,29,29,29,3,0,3,0,,,,,,,,,,,,,,,,,,,,,,,,,,,,,,,,,,,,,,,,,,,,,,,,,,,,,,,,,,,,,,,,30,,,,,,,,583.0840830000816,583.0840830000816,583.0840830000816,583.0840830000816,583.0840830000816,,,,,left,0.32692390005104244,8,0,0,99,0.07999999999999997,0.16,left,0.2476285999873653,,,,,,,,,,,,,,,,,,,,,,,,,,,,,,,,,,,,,,,,,,,,,,,,,,,,,,,,DK8Y4P,train_x,blue_star,top_right,2025-06-21_11h50.11.305,HideSeek_v1,2022.2.5,60.293702717071746,
,7,7,2,7,-5,0,11,,train_dim1_1,30,30,,,,2,0,2,0,,,,,,,,,0,0,0,0,0,29,29,29,4,0,4,0,,,,,,,,,,,,,,,,,,,,,,,,,,,,,,,,,,,,,,,,,,,,,,,,,,,,,,,,,,,,,,,,30,,,,,,,,583.4163397999946,583.4163397999946,583.4163397999946,583.4163397999946,583.4163397999946,,,,,left,0.3597684999695048,8,0,0,99,-2.7755575615628914e-17,0.16,left,0.27020350005477667,,,,,,,,,,,,,,,,,,,,,,,,,,,,,,,,,,,,,,,,,,,,,,,,,,,,,,,,DK8Y4P,train_x,blue_star,top_right,2025-06-21_11h50.11.305,HideSeek_v1,2022.2.5,60.293702717071746,
,7,7,2,7,-5,0,11,,train_dim1_1,30,30,,,,2,0,2,0,,,,,,,,,0,0,0,0,0,29,29,29,5,0,5,0,,,,,,,,,,,,,,,,,,,,,,,,,,,,,,,,,,,,,,,,,,,,,,,,,,,,,,,,,,,,,,,,30,,,,,,,,583.7856092000147,583.7856092000147,583.7856092000147,583.7856092000147,583.7856092000147,,,,,left,0.34309229999780655,8,0,0,99,-0.08000000000000003,0.16,left,0.2496863000560552,,,,,,,,,,,,,,,,,,,,,,,,,,,,,,,,,,,,,,,,,,,,,,,,,,,,,,,,DK8Y4P,train_x,blue_star,top_right,2025-06-21_11h50.11.305,HideSeek_v1,2022.2.5,60.293702717071746,
,7,7,2,7,-5,0,11,,train_dim1_1,30,30,,,,2,0,2,0,,,,,,,,,0,0,0,0,0,29,29,29,6,0,6,0,,,,,,,,,,,,,,,,,,,,,,,,,,,,,,,,,,,,,,,,,,,,,,,,,,,,,,,,,,,,,,,,30,,,,,,,,584.1336384000024,584.1336384000024,584.1336384000024,584.1336384000024,584.1336384000024,-7,-79,-0.08000000000000003,0.16,return,0.4267824999988079,8,1,0,0,-0.08000000000000003,0.16,return,0.34948209999129176,,,,,,,,,,,,,,,,,,,,,,,,,,,,,,,,,,,,,,,,,,,,,,,,,,,,,,,,DK8Y4P,train_x,blue_star,top_right,2025-06-21_11h50.11.305,HideSeek_v1,2022.2.5,60.293702717071746,
,,,,,,,,,,,30,,,,2,0,2,0,,,,,,,,,,,,,,,,,,,,,,,,,,,,,,,,,,,,,,,,,,,,,,,,,,,,,,,,,,,,,,,,,,,,,,,,,,stimuli/alien_stimuli/11.png,11,7,32,21,0.7,0.33333333333333337,1,1,1,30,0,conditions/schedules/train_x_first/blue_star_00/top_right/inputTrain_2.1.xlsx,99,1,2,1,0,,,,,,,,,,,,,,,0,,,,,586.8685036000097,588.4158293000655,0,0.16,0.0,0.4,0.16,0,0.2,0,0.16,586.1264986000024,586.1264986000024,586.1264986000024,586.1264986000024,586.1264986000024,586.1264986000024,586.1264986000024,586.1264986000024,586.1182656999795,0.8527904999209568,return,0.7188073000870645,0,0.9,0,1,8,,,,,,,,,,,,,,,,,,,,,,,,,,,,DK8Y4P,train_x,blue_star,top_right,2025-06-21_11h50.11.305,HideSeek_v1,2022.2.5,60.293702717071746,
,,,,,,,,,,,,,,,3,0,3,0,0,0,0,0,,,,,,,,,,,,,,,,,,,,,,,,,,,,,,,conditions/schedules/train_x_first/blue_star_00/top_right/instructions/Slide17.png,conditions/schedules/train_x_first/blue_star_00/top_right/instructions/Audio17.wav,588.4158293000655,588.4034116000054,17,"[3.3707778999814764, 17.746855900040828, 16.67122469993774, 19.11860079993494, 4.807064900058322, 5.352848500013351, 6.0374797999393195, 11.269689699984156, 5.606585500063375, 6.616326399962418, 10.15473369997926, 12.419700000085868, 16.129910200019367, 12.533687499933876, 31.035039699985646, 22.977649899898097, 65.77347460004967]","[0.03251980000641197, 17.746863099979237, 0.00022109993733465672, 0.0864280000096187, 0.03173619997687638, 0.06588439992628992, 0.013771599973551929, 0.051980200107209384, 0.09464739996474236, 0.047809400013647974, 0.07981390005443245, 12.419707300025038, 0.09046420000959188, 12.533694199984893, 0.06381939991842955, 22.97765709995292, 65.7734819999896]",0,,,,,,,,,,,,,,,,,,,,,,,,,,,,,,,,,,,,,,,,,,,,,,,,,,,,,,,,,,,,,,,,,,,,,,,,,,,,,,,,,,,,,,,,,,,,,,,,,,,,,,,,,,,,,,,,,,,,,,,,,,,,DK8Y4P,train_x,blue_star,top_right,2025-06-21_11h50.11.305,HideSeek_v1,2022.2.5,60.293702717071746,
,,,,,,,,,,,,,,,3,0,3,0,1,0,1,0,,,,,,,,,,,,,,,,,,,,,,,,,,,,,,,conditions/schedules/train_x_first/blue_star_00/top_right/instructions/Slide18.png,conditions/schedules/train_x_first/blue_star_00/top_right/instructions/Audio18.wav,654.2605424000649,654.2586149999988,18,"[3.3707778999814764, 17.746855900040828, 16.67122469993774, 19.11860079993494, 4.807064900058322, 5.352848500013351, 6.0374797999393195, 11.269689699984156, 5.606585500063375, 6.616326399962418, 10.15473369997926, 12.419700000085868, 16.129910200019367, 12.533687499933876, 31.035039699985646, 22.977649899898097, 65.77347460004967, 8.385756199946627]","[0.03251980000641197, 17.746863099979237, 0.00022109993733465672, 0.0864280000096187, 0.03173619997687638, 0.06588439992628992, 0.013771599973551929, 0.051980200107209384, 0.09464739996474236, 0.047809400013647974, 0.07981390005443245, 12.419707300025038, 0.09046420000959188, 12.533694199984893, 0.06381939991842955, 22.97765709995292, 0.00021309999283403158, 8.3857774999924]",0,,,,,,,,,,,,,,,,,,,,,,,,,,,,,,,,,,,,,,,,,,,,,,,,,,,,,,,,,,,,,,,,,,,,,,,,,,,,,,,,,,,,,,,,,,,,,,,,,,,,,,,,,,,,,,,,,,,,,,,,,,,,DK8Y4P,train_x,blue_star,top_right,2025-06-21_11h50.11.305,HideSeek_v1,2022.2.5,60.293702717071746,
,,,,,,,,,,,,,,,3,0,3,0,2,0,2,0,,,,,,,,,,,,,,,,,,,,,,,,,,,,,,,conditions/schedules/train_x_first/blue_star_00/top_right/instructions/Slide19.png,conditions/schedules/train_x_first/blue_star_00/top_right/instructions/Audio19.wav,662.6868282000069,662.6819589000312,19,"[3.3707778999814764, 17.746855900040828, 16.67122469993774, 19.11860079993494, 4.807064900058322, 5.352848500013351, 6.0374797999393195, 11.269689699984156, 5.606585500063375, 6.616326399962418, 10.15473369997926, 12.419700000085868, 16.129910200019367, 12.533687499933876, 31.035039699985646, 22.977649899898097, 65.77347460004967, 8.385756199946627, 10.35000430000946]","[0.03251980000641197, 17.746863099979237, 0.00022109993733465672, 0.0864280000096187, 0.03173619997687638, 0.06588439992628992, 0.013771599973551929, 0.051980200107209384, 0.09464739996474236, 0.047809400013647974, 0.07981390005443245, 12.419707300025038, 0.09046420000959188, 12.533694199984893, 0.06381939991842955, 22.97765709995292, 0.00021309999283403158, 0.01322790002450347, 10.350014100084081]",0,,,,,,,,,,,,,,,,,,,,,,,,,,,,,,,,,,,,,,,,,,,,,,,,,,,,,,,,,,,,,,,,,,,,,,,,,,,,,,,,,,,,,,,,,,,,,,,,,,,,,,,,,,,,,,,,,,,,,,,,,,,,DK8Y4P,train_x,blue_star,top_right,2025-06-21_11h50.11.305,HideSeek_v1,2022.2.5,60.293702717071746,
,,,,,,,,,,,,,,,3,0,3,0,3,0,3,0,,,,,,,,,,,,,,,,,,,,,,,,,,,,,,,conditions/schedules/train_x_first/blue_star_00/top_right/instructions/Slide20.png,conditions/schedules/train_x_first/blue_star_00/top_right/instructions/Audio20.wav,673.1035044000018,673.1063739000238,20,"[3.3707778999814764, 17.746855900040828, 16.67122469993774, 19.11860079993494, 4.807064900058322, 5.352848500013351, 6.0374797999393195, 11.269689699984156, 5.606585500063375, 6.616326399962418, 10.15473369997926, 12.419700000085868, 16.129910200019367, 12.533687499933876, 31.035039699985646, 22.977649899898097, 65.77347460004967, 8.385756199946627, 10.35000430000946, 13.611734699923545]","[0.03251980000641197, 17.746863099979237, 0.00022109993733465672, 0.0864280000096187, 0.03173619997687638, 0.06588439992628992, 0.013771599973551929, 0.051980200107209384, 0.09464739996474236, 0.047809400013647974, 0.07981390005443245, 12.419707300025038, 0.09046420000959188, 12.533694199984893, 0.06381939991842955, 22.97765709995292, 0.00021309999283403158, 0.01322790002450347, 0.013602299964986742, 13.61174329998903]",0,,,,,,,,,,,,,,,,,,,,,,,,,,,,,,,,,,,,,,,,,,,,,,,,,,,,,,,,,,,,,,,,,,,,,,,,,,,,,,,,,,,,,,,,,,,,,,,,,,,,,,,,,,,,,,,,,,,,,,,,,,,,DK8Y4P,train_x,blue_star,top_right,2025-06-21_11h50.11.305,HideSeek_v1,2022.2.5,60.293702717071746,
1,5,8,5,3,0,-5,66,2,instr_dim1_2,,,,,,3,0,3,0,,,,,0,0,0,0,,,,,,,,,,,,,,,,,,,,,,,,,,,,,,,,,,,,,stimuli/alien_stimuli/66.png,conditions/schedules/train_x_first/blue_star_00/top_right/inputInstr_2.xlsx,stimuli/alien_stimuli/66.png,686.8125249000732,686.8125249000732,686.8125249000732,686.8125249000732,686.8181941000862,return,9.142641199985519,"[-0.16, -0.08, 0, 0.08, 0.16, 0.24, 0.32, 0.4, 0.48, 0.56]","[-0.4, -0.32, -0.24, -0.16, -0.08, 0, 0.08, 0.16, 0.24, 0.32]",3,8,5,5,0.4,0.0,696.1000208000187,696.1000208000187,696.1000208000187,696.1000208000187,696.1000208000187,696.1000208000187,696.1000208000187,696.0927804000909,7.573379800072871,return,7.42302170000039,stimuli/alien_stimuli/66.png,66,5,1,,,,,,,,,,,,,,,,,,,,,,,,,,,,,,,,,,,,,,,,,,,,,,,,,,,,,,,,,,,,,,,,,,,,,,,,,,,,,,,,,,,,,,,,,DK8Y4P,train_x,blue_star,top_right,2025-06-21_11h50.11.305,HideSeek_v1,2022.2.5,60.293702717071746,
,,,,,,,,,,,30,,,,3,0,3,0,,,,,,,,,,,,,,,,,,,,,,,,,,,,,,,,,,,,,,,,,,,,,,,,,,,,,,,,,,,,,,,,,,,,,,,,,,,,,,21,0.7,0.33333333333333337,1,99,2,30,0,conditions/schedules/train_x_first/blue_star_00/top_right/inputTrain_2.1.xlsx,99,1,2,1,0,,,,,,,,,,,,,,,,,,,,,,,,,,,,,,,,,,,,,,,,,,,,,,,,,,,,,,,,,,,,,,,,,,,,,,,,,,,DK8Y4P,train_x,blue_star,top_right,2025-06-21_11h50.11.305,HideSeek_v1,2022.2.5,60.293702717071746,
,,,,,,,,,,,,,,,4,0,4,0,0,0,0,0,,,,,,,,,,,,,,,,,,,,,,,,,,,,,,,conditions/schedules/train_x_first/blue_star_00/top_right/instructions/Slide21.png,conditions/schedules/train_x_first/blue_star_00/top_right/instructions/Audio21.wav,703.6837200000882,703.682134900021,21,"[3.3707778999814764, 17.746855900040828, 16.67122469993774, 19.11860079993494, 4.807064900058322, 5.352848500013351, 6.0374797999393195, 11.269689699984156, 5.606585500063375, 6.616326399962418, 10.15473369997926, 12.419700000085868, 16.129910200019367, 12.533687499933876, 31.035039699985646, 22.977649899898097, 65.77347460004967, 8.385756199946627, 10.35000430000946, 13.611734699923545, 16.409749099984765]","[0.03251980000641197, 17.746863099979237, 0.00022109993733465672, 0.0864280000096187, 0.03173619997687638, 0.06588439992628992, 0.013771599973551929, 0.051980200107209384, 0.09464739996474236, 0.047809400013647974, 0.07981390005443245, 12.419707300025038, 0.09046420000959188, 12.533694199984893, 0.06381939991842955, 22.97765709995292, 0.00021309999283403158, 0.01322790002450347, 0.013602299964986742, 13.61174329998903, 16.40975640004035]",0,,,,,,,,,,,,,,,,,,,,,,,,,,,,,,,,,,,,,,,,,,,,,,,,,,,,,,,,,,,,,,,,,,,,,,,,,,,,,,,,,,,,,,,,,,,,,,,,,,,,,,,,,,,,,,,,,,,,,,,,,,,,DK8Y4P,train_x,blue_star,top_right,2025-06-21_11h50.11.305,HideSeek_v1,2022.2.5,60.293702717071746,
2,7,8,7,8,0,0,61,2,instr_dim1_2,,,,,,4,0,4,0,,,,,0,0,0,0,,,,,,,,,,,,,,,,,,,,,,,,,,,,,,,,,,,,,stimuli/alien_stimuli/61.png,conditions/schedules/train_x_first/blue_star_00/top_right/inputInstr_2.xlsx,stimuli/alien_stimuli/61.png,720.1908002999844,720.1908002999844,720.1908002999844,720.1908002999844,720.1959836000228,return,2.6738638000097126,"[-0.16, -0.08, 0, 0.08, 0.16, 0.24, 0.32, 0.4, 0.48, 0.56]","[-0.4, -0.32, -0.24, -0.16, -0.08, 0, 0.08, 0.16, 0.24, 0.32]",8,8,7,7,0.0,0.0,723.0042578000575,723.0042578000575,723.0042578000575,723.0042578000575,723.0042578000575,723.0042578000575,723.0042578000575,722.9982431000332,6.906398499966599,return,6.750757100060582,stimuli/alien_stimuli/61.png,61,7,2,,,,,,,,,,,,,,,,,,,,,,,,,,,,,,,,,,,,,,,,,,,,,,,,,,,,,,,,,,,,,,,,,,,,,,,,,,,,,,,,,,,,,,,,,DK8Y4P,train_x,blue_star,top_right,2025-06-21_11h50.11.305,HideSeek_v1,2022.2.5,60.293702717071746,
,,,,,,,,,,,30,,,,4,0,4,0,,,,,,,,,,,,,,,,,,,,,,,,,,,,,,,,,,,,,,,,,,,,,,,,,,,,,,,,,,,,,,,,,,,,,,,,,,,,,,21,0.7,0.33333333333333337,1,99,2,30,0,conditions/schedules/train_x_first/blue_star_00/top_right/inputTrain_2.1.xlsx,99,1,2,1,0,,,,,,,,,,,,,,,,,,,,,,,,,,,,,,,,,,,,,,,,,,,,,,,,,,,,,,,,,,,,,,,,,,,,,,,,,,,DK8Y4P,train_x,blue_star,top_right,2025-06-21_11h50.11.305,HideSeek_v1,2022.2.5,60.293702717071746,
