trialInstr,x_fixStart,y_fixStart,x_corrSteps,y_corrSteps,x_nrSteps,y_nrSteps,alienID,trialLength,version,trialTrain,praclen,testlen,trial_label,break_on_off,beforeExpLoop.thisRepN,beforeExpLoop.thisTrialN,beforeExpLoop.thisN,beforeExpLoop.thisIndex,mini_instr_trials.thisRepN,mini_instr_trials.thisTrialN,mini_instr_trials.thisN,mini_instr_trials.thisIndex,instrLoop.thisRepN,instrLoop.thisTrialN,instrLoop.thisN,instrLoop.thisIndex,repeat_prac.thisRepN,repeat_prac.thisTrialN,repeat_prac.thisN,repeat_prac.thisIndex,trainLoop.thisRepN,trainLoop.thisTrialN,trainLoop.thisN,trainLoop.thisIndex,moveLoop_train.thisRepN,moveLoop_train.thisTrialN,moveLoop_train.thisN,moveLoop_train.thisIndex,experiment.thisRepN,experiment.thisTrialN,experiment.thisN,experiment.thisIndex,moveLoop_test.thisRepN,moveLoop_test.thisTrialN,moveLoop_test.thisN,moveLoop_test.thisIndex,mini_instr2_trials.thisRepN,mini_instr2_trials.thisTrialN,mini_instr2_trials.thisN,mini_instr2_trials.thisIndex,start_all_time,url,slideStim,audioStim,slides.started,sounds.started,nextButton.numClicks,nextButton.timesOn,nextButton.timesOff,prev_but.numClicks,prev_but.timesOn,prev_but.timesOff,alienStim,instrFile,alienStim_instr,gridImage_instr.started,startPos_3.started,key_instr.started,alienImage_3.started,sounds_1.started,key_instr.keys,key_instr.rt,all_x,all_y,FBy_corrSteps,FBy_fixStart,FBx_corrSteps,FBx_fixStart,FBy_pathSize_check,FBx_pathSize_check,gridImage_9.started,alienImageFB_3.started,startPosFB_3.started,keyFB_3.started,pathLine_ydir_2.started,pathLine_xdir_2.started,alienFace_3.started,sounds_2.started,RTFB_instr,keyFB_3.keys,keyFB_3.rt,draw_alienStim,draw_alienID,test_x,nrepcount,perfthres,percthres,earlierperf,earlystop,nextPrac,fileidx,praclen,saveACC_train,pracFile,nextPrac_train,addNrep,fileidx_endr,repExp,showearly,gridImage_4.started,startPos.started,movePos.started,key_resp.started,alienImage.started,buttonPress_train,RTchoice_train,cumAcctrain,aCorr,saveACC_choice,corrAns,x_movePos_end,y_movePos_end,key_resp.keys,key_resp.rt,wLy_dir,wLx_dir,x_movePos,y_movePos,text_2.started,text_2.stopped,aft_x_corrPos,aft_y_corrPos,y_pathSize_check,x_pathSize_check,y_pathdirY,x_pathdirY,x_pathdirX,x_corrPos,y_corrPos,gridImage_6.started,alienImageFB_2.started,startPosFB_2.started,movePosFB_2.started,keyFB_2.started,pathLine_xdir.started,pathLine_ydir.started,alienFace.started,sounds_4.started,RT_FBtrain,keyFB_2.keys,keyFB_2.rt,saveACC_pre,ACC,within_saveACC_train,earlystop_wloop,cumAcctrain_check,gridImage_3.started,alienImage_test.started,startPos_test.started,movePos_test.started,key_resp_test.started,wLy_dir_test,wLx_dir_test,buttonPress_test,RTchoice_test,cumAcctest,corrAns_test,key_resp_test.keys,key_resp_test.rt,text_3.started,text_3.stopped,total_time,end_all_time,key_resp_3.keys,slides_2.started,sounds_3.started,nextButton_2.numClicks,nextButton_2.timesOn,nextButton_2.timesOff,prev_but_2.numClicks,prev_but_2.timesOn,prev_but_2.timesOff,bye.started,participant,train_first,00_coordinate,starting corner,date,expName,psychopyVersion,frameRate,
,,,,,,,,,,,,,,,0,0,0,0,0,0,0,0,,,,,,,,,,,,,,,,,,,,,,,,,,,,,start_all_time,testround,conditions/schedules/train_y_first/red_square_00/top_right/instructions/Slide1.png,conditions/schedules/train_y_first/red_square_00/top_right/instructions/Audio1.wav,2024.219401499955,2024.1715234974865,1,[6.182297999970615],[6.182305200025439],0,,,,,,,,,,,,,,,,,,,,,,,,,,,,,,,,,,,,,,,,,,,,,,,,,,,,,,,,,,,,,,,,,,,,,,,,,,,,,,,,,,,,,,,,,,,,,,,,,,,,,,,,,,,,,,,,,,,,,,,,,,,,DQ8CP0,train_y,red_square,top_right,2025-02-12_16h41.04.365,HideSeek_v1,2022.2.5,59.94352118902234,
,,,,,,,,,,,,,,,0,0,0,0,1,0,1,0,,,,,,,,,,,,,,,,,,,,,,,,,,,,,,,conditions/schedules/train_y_first/red_square_00/top_right/instructions/Slide2.png,conditions/schedules/train_y_first/red_square_00/top_right/instructions/Audio2.wav,2030.423453999916,2030.4108756998555,2,"[6.182297999970615, 18.11655670008622]","[0.0002188000362366438, 18.116563300136477]",0,,,,,,,,,,,,,,,,,,,,,,,,,,,,,,,,,,,,,,,,,,,,,,,,,,,,,,,,,,,,,,,,,,,,,,,,,,,,,,,,,,,,,,,,,,,,,,,,,,,,,,,,,,,,,,,,,,,,,,,,,,,,DQ8CP0,train_y,red_square,top_right,2025-02-12_16h41.04.365,HideSeek_v1,2022.2.5,59.94352118902234,
,,,,,,,,,,,,,,,0,0,0,0,2,0,2,0,,,,,,,,,,,,,,,,,,,,,,,,,,,,,,,conditions/schedules/train_y_first/red_square_00/top_right/instructions/Slide3.png,conditions/schedules/train_y_first/red_square_00/top_right/instructions/Audio3.wav,2048.60823529982,2048.6089208498597,3,"[6.182297999970615, 18.11655670008622, 25.41932459990494]","[0.0002188000362366438, 0.013896599877625704, 25.419331399956718]",0,,,,,,,,,,,,,,,,,,,,,,,,,,,,,,,,,,,,,,,,,,,,,,,,,,,,,,,,,,,,,,,,,,,,,,,,,,,,,,,,,,,,,,,,,,,,,,,,,,,,,,,,,,,,,,,,,,,,,,,,,,,,DQ8CP0,train_y,red_square,top_right,2025-02-12_16h41.04.365,HideSeek_v1,2022.2.5,59.94352118902234,
,,,,,,,,,,,,,,,0,0,0,0,3,0,3,0,,,,,,,,,,,,,,,,,,,,,,,,,,,,,,,conditions/schedules/train_y_first/red_square_00/top_right/instructions/Slide4.png,conditions/schedules/train_y_first/red_square_00/top_right/instructions/Audio4.wav,2074.1120163998567,2074.1135012999644,4,"[6.182297999970615, 18.11655670008622, 25.41932459990494, 19.332217800198123]","[0.0002188000362366438, 0.013896599877625704, 0.03220020001754165, 19.332225300138816]",0,,,,,,,,,,,,,,,,,,,,,,,,,,,,,,,,,,,,,,,,,,,,,,,,,,,,,,,,,,,,,,,,,,,,,,,,,,,,,,,,,,,,,,,,,,,,,,,,,,,,,,,,,,,,,,,,,,,,,,,,,,,,DQ8CP0,train_y,red_square,top_right,2025-02-12_16h41.04.365,HideSeek_v1,2022.2.5,59.94352118902234,
,,,,,,,,,,,,,,,0,0,0,0,4,0,4,0,,,,,,,,,,,,,,,,,,,,,,,,,,,,,,,conditions/schedules/train_y_first/red_square_00/top_right/instructions/Slide5.png,conditions/schedules/train_y_first/red_square_00/top_right/instructions/Audio5.wav,2093.5168732998427,2093.51289154985,5,"[6.182297999970615, 18.11655670008622, 25.41932459990494, 19.332217800198123, 4.4646962999831885]","[0.0002188000362366438, 0.013896599877625704, 0.03220020001754165, 0.06354100001044571, 4.464703999925405]",0,,,,,,,,,,,,,,,,,,,,,,,,,,,,,,,,,,,,,,,,,,,,,,,,,,,,,,,,,,,,,,,,,,,,,,,,,,,,,,,,,,,,,,,,,,,,,,,,,,,,,,,,,,,,,,,,,,,,,,,,,,,,DQ8CP0,train_y,red_square,top_right,2025-02-12_16h41.04.365,HideSeek_v1,2022.2.5,59.94352118902234,
,,,,,,,,,,,,,,,0,0,0,0,5,0,5,0,,,,,,,,,,,,,,,,,,,,,,,,,,,,,,,conditions/schedules/train_y_first/red_square_00/top_right/instructions/Slide6.png,conditions/schedules/train_y_first/red_square_00/top_right/instructions/Audio6.wav,2098.0314809998963,2098.033708499884,6,"[6.182297999970615, 18.11655670008622, 25.41932459990494, 19.332217800198123, 4.4646962999831885, 4.803208000026643]","[0.0002188000362366438, 0.013896599877625704, 0.03220020001754165, 0.06354100001044571, 0.049766199896112084, 4.803214499959722]",0,,,,,,,,,,,,,,,,,,,,,,,,,,,,,,,,,,,,,,,,,,,,,,,,,,,,,,,,,,,,,,,,,,,,,,,,,,,,,,,,,,,,,,,,,,,,,,,,,,,,,,,,,,,,,,,,,,,,,,,,,,,,DQ8CP0,train_y,red_square,top_right,2025-02-12_16h41.04.365,HideSeek_v1,2022.2.5,59.94352118902234,
,,,,,,,,,,,,,,,0,0,0,0,6,0,6,0,,,,,,,,,,,,,,,,,,,,,,,,,,,,,,,conditions/schedules/train_y_first/red_square_00/top_right/instructions/Slide7.png,conditions/schedules/train_y_first/red_square_00/top_right/instructions/Audio7.wav,2102.899103799835,2102.8871249997987,7,"[6.182297999970615, 18.11655670008622, 25.41932459990494, 19.332217800198123, 4.4646962999831885, 4.803208000026643, 5.523392900126055]","[0.0002188000362366438, 0.013896599877625704, 0.03220020001754165, 0.06354100001044571, 0.049766199896112084, 0.08449580008164048, 5.5234000000637025]",0,,,,,,,,,,,,,,,,,,,,,,,,,,,,,,,,,,,,,,,,,,,,,,,,,,,,,,,,,,,,,,,,,,,,,,,,,,,,,,,,,,,,,,,,,,,,,,,,,,,,,,,,,,,,,,,,,,,,,,,,,,,,DQ8CP0,train_y,red_square,top_right,2025-02-12_16h41.04.365,HideSeek_v1,2022.2.5,59.94352118902234,
,,,,,,,,,,,,,,,0,0,0,0,7,0,7,0,,,,,,,,,,,,,,,,,,,,,,,,,,,,,,,conditions/schedules/train_y_first/red_square_00/top_right/instructions/Slide8.png,conditions/schedules/train_y_first/red_square_00/top_right/instructions/Audio8.wav,2108.476456699893,2108.4755703999194,8,"[6.182297999970615, 18.11655670008622, 25.41932459990494, 19.332217800198123, 4.4646962999831885, 4.803208000026643, 5.523392900126055, 11.873864999972284]","[0.0002188000362366438, 0.013896599877625704, 0.03220020001754165, 0.06354100001044571, 0.049766199896112084, 0.08449580008164048, 0.06338090007193387, 11.873872900148854]",0,,,,,,,,,,,,,,,,,,,,,,,,,,,,,,,,,,,,,,,,,,,,,,,,,,,,,,,,,,,,,,,,,,,,,,,,,,,,,,,,,,,,,,,,,,,,,,,,,,,,,,,,,,,,,,,,,,,,,,,,,,,,DQ8CP0,train_y,red_square,top_right,2025-02-12_16h41.04.365,HideSeek_v1,2022.2.5,59.94352118902234,
,,,,,,,,,,,,,,,0,0,0,0,8,0,8,0,,,,,,,,,,,,,,,,,,,,,,,,,,,,,,,conditions/schedules/train_y_first/red_square_00/top_right/instructions/Slide9.png,conditions/schedules/train_y_first/red_square_00/top_right/instructions/Audio9.wav,2120.416857099859,2120.4027528999372,9,"[6.182297999970615, 18.11655670008622, 25.41932459990494, 19.332217800198123, 4.4646962999831885, 4.803208000026643, 5.523392900126055, 11.873864999972284, 6.138303200015798]","[0.0002188000362366438, 0.013896599877625704, 0.03220020001754165, 0.06354100001044571, 0.049766199896112084, 0.08449580008164048, 0.06338090007193387, 0.06676830002106726, 6.1383098999504]",0,,,,,,,,,,,,,,,,,,,,,,,,,,,,,,,,,,,,,,,,,,,,,,,,,,,,,,,,,,,,,,,,,,,,,,,,,,,,,,,,,,,,,,,,,,,,,,,,,,,,,,,,,,,,,,,,,,,,,,,,,,,,DQ8CP0,train_y,red_square,top_right,2025-02-12_16h41.04.365,HideSeek_v1,2022.2.5,59.94352118902234,
,,,,,,,,,,,,,,,0,0,0,0,9,0,9,0,,,,,,,,,,,,,,,,,,,,,,,,,,,,,,,conditions/schedules/train_y_first/red_square_00/top_right/instructions/Slide10.png,conditions/schedules/train_y_first/red_square_00/top_right/instructions/Audio10.wav,2126.592309199972,2126.5904989499136,10,"[6.182297999970615, 18.11655670008622, 25.41932459990494, 19.332217800198123, 4.4646962999831885, 4.803208000026643, 5.523392900126055, 11.873864999972284, 6.138303200015798, 6.984787299996242]","[0.0002188000362366438, 0.013896599877625704, 0.03220020001754165, 0.06354100001044571, 0.049766199896112084, 0.08449580008164048, 0.06338090007193387, 0.06676830002106726, 0.09536209981888533, 6.984793899813667]",0,,,,,,,,,,,,,,,,,,,,,,,,,,,,,,,,,,,,,,,,,,,,,,,,,,,,,,,,,,,,,,,,,,,,,,,,,,,,,,,,,,,,,,,,,,,,,,,,,,,,,,,,,,,,,,,,,,,,,,,,,,,,DQ8CP0,train_y,red_square,top_right,2025-02-12_16h41.04.365,HideSeek_v1,2022.2.5,59.94352118902234,
,,,,,,,,,,,,,,,0,0,0,0,10,0,10,0,,,,,,,,,,,,,,,,,,,,,,,,,,,,,,,conditions/schedules/train_y_first/red_square_00/top_right/instructions/Slide11.png,conditions/schedules/train_y_first/red_square_00/top_right/instructions/Audio11.wav,2133.630539999809,2133.629797299998,11,"[6.182297999970615, 18.11655670008622, 25.41932459990494, 19.332217800198123, 4.4646962999831885, 4.803208000026643, 5.523392900126055, 11.873864999972284, 6.138303200015798, 6.984787299996242, 10.422454300103709]","[0.0002188000362366438, 0.013896599877625704, 0.03220020001754165, 0.06354100001044571, 0.049766199896112084, 0.08449580008164048, 0.06338090007193387, 0.06676830002106726, 0.09536209981888533, 0.06389739993028343, 10.422462499933317]",0,,,,,,,,,,,,,,,,,,,,,,,,,,,,,,,,,,,,,,,,,,,,,,,,,,,,,,,,,,,,,,,,,,,,,,,,,,,,,,,,,,,,,,,,,,,,,,,,,,,,,,,,,,,,,,,,,,,,,,,,,,,,DQ8CP0,train_y,red_square,top_right,2025-02-12_16h41.04.365,HideSeek_v1,2022.2.5,59.94352118902234,
,,,,,,,,,,,,,,,0,0,0,0,11,0,11,0,,,,,,,,,,,,,,,,,,,,,,,,,,,,,,,conditions/schedules/train_y_first/red_square_00/top_right/instructions/Slide12.png,conditions/schedules/train_y_first/red_square_00/top_right/instructions/Audio12.wav,2144.1251993998885,2144.121605949942,12,"[6.182297999970615, 18.11655670008622, 25.41932459990494, 19.332217800198123, 4.4646962999831885, 4.803208000026643, 5.523392900126055, 11.873864999972284, 6.138303200015798, 6.984787299996242, 10.422454300103709, 13.70554960006848]","[0.0002188000362366438, 0.013896599877625704, 0.03220020001754165, 0.06354100001044571, 0.049766199896112084, 0.08449580008164048, 0.06338090007193387, 0.06676830002106726, 0.09536209981888533, 0.06389739993028343, 0.0305608999915421, 13.705556600121781]",0,,,,,,,,,,,,,,,,,,,,,,,,,,,,,,,,,,,,,,,,,,,,,,,,,,,,,,,,,,,,,,,,,,,,,,,,,,,,,,,,,,,,,,,,,,,,,,,,,,,,,,,,,,,,,,,,,,,,,,,,,,,,DQ8CP0,train_y,red_square,top_right,2025-02-12_16h41.04.365,HideSeek_v1,2022.2.5,59.94352118902234,
1,7,8,7,3,0,-5,11,2,instr_dim1_1,,,,,,0,0,0,0,,,,,0,0,0,0,,,,,,,,,,,,,,,,,,,,,,,,,,,,,,,,,,,,,stimuli/alien_stimuli/11.png,conditions/schedules/train_y_first/red_square_00/top_right/inputInstr_1.xlsx,stimuli/alien_stimuli/11.png,2157.9332441999577,2157.9332441999577,2157.9332441999577,2157.9332441999577,2157.9332154497506,return,20.66126270010136,"[-0.16, -0.08, 0, 0.08, 0.16, 0.24, 0.32, 0.4, 0.48, 0.56]","[-0.4, -0.32, -0.24, -0.16, -0.08, 0, 0.08, 0.16, 0.24, 0.32]",3,8,7,7,0.4,0.0,2178.774515799945,2178.774515799945,2178.774515799945,2178.774515799945,2178.774515799945,2178.774515799945,2178.774515799945,2178.7670475998893,9.842185399960726,return,9.655611300142482,stimuli/alien_stimuli/11.png,11,7,1,,,,,,,,,,,,,,,,,,,,,,,,,,,,,,,,,,,,,,,,,,,,,,,,,,,,,,,,,,,,,,,,,,,,,,,,,,,,,,,,,,,,,,,,,DQ8CP0,train_y,red_square,top_right,2025-02-12_16h41.04.365,HideSeek_v1,2022.2.5,59.94352118902234,
,,,,,,,,,,,30,,,,0,0,0,0,,,,,,,,,,,,,,,,,,,,,,,,,,,,,,,,,,,,,,,,,,,,,,,,,,,,,,,,,,,,,,,,,,,,,,,,,,,,,,21,0.7,0,0,99,1,30,0,conditions/schedules/train_y_first/red_square_00/top_right/inputTrain_1.1.xlsx,99,1,1,1,0,,,,,,,,,,,,,,,,,,,,,,,,,,,,,,,,,,,,,,,,,,,,,,,,,,,,,,,,,,,,,,,,,,,,,,,,,,,DQ8CP0,train_y,red_square,top_right,2025-02-12_16h41.04.365,HideSeek_v1,2022.2.5,59.94352118902234,
,,,,,,,,,,,,,,,1,0,1,0,0,0,0,0,,,,,,,,,,,,,,,,,,,,,,,,,,,,,,,conditions/schedules/train_y_first/red_square_00/top_right/instructions/Slide13.png,conditions/schedules/train_y_first/red_square_00/top_right/instructions/Audio13.wav,2188.6014866998885,2188.5916730497497,13,"[6.182297999970615, 18.11655670008622, 25.41932459990494, 19.332217800198123, 4.4646962999831885, 4.803208000026643, 5.523392900126055, 11.873864999972284, 6.138303200015798, 6.984787299996242, 10.422454300103709, 13.70554960006848, 18.686668099835515]","[0.0002188000362366438, 0.013896599877625704, 0.03220020001754165, 0.06354100001044571, 0.049766199896112084, 0.08449580008164048, 0.06338090007193387, 0.06676830002106726, 0.09536209981888533, 0.06389739993028343, 0.0305608999915421, 13.705556600121781, 18.68667560000904]",0,,,,,,,,,,,,,,,,,,,,,,,,,,,,,,,,,,,,,,,,,,,,,,,,,,,,,,,,,,,,,,,,,,,,,,,,,,,,,,,,,,,,,,,,,,,,,,,,,,,,,,,,,,,,,,,,,,,,,,,,,,,,DQ8CP0,train_y,red_square,top_right,2025-02-12_16h41.04.365,HideSeek_v1,2022.2.5,59.94352118902234,
,,,,,,,,,,,,,,,1,0,1,0,1,0,1,0,,,,,,,,,,,,,,,,,,,,,,,,,,,,,,,conditions/schedules/train_y_first/red_square_00/top_right/instructions/Slide14.png,conditions/schedules/train_y_first/red_square_00/top_right/instructions/Audio14.wav,2207.3637063999195,2207.3575478498824,14,"[6.182297999970615, 18.11655670008622, 25.41932459990494, 19.332217800198123, 4.4646962999831885, 4.803208000026643, 5.523392900126055, 11.873864999972284, 6.138303200015798, 6.984787299996242, 10.422454300103709, 13.70554960006848, 18.686668099835515, 16.53855220018886]","[0.0002188000362366438, 0.013896599877625704, 0.03220020001754165, 0.06354100001044571, 0.049766199896112084, 0.08449580008164048, 0.06338090007193387, 0.06676830002106726, 0.09536209981888533, 0.06389739993028343, 0.0305608999915421, 13.705556600121781, 0.00024040020070970058, 16.538559300126508]",0,,,,,,,,,,,,,,,,,,,,,,,,,,,,,,,,,,,,,,,,,,,,,,,,,,,,,,,,,,,,,,,,,,,,,,,,,,,,,,,,,,,,,,,,,,,,,,,,,,,,,,,,,,,,,,,,,,,,,,,,,,,,DQ8CP0,train_y,red_square,top_right,2025-02-12_16h41.04.365,HideSeek_v1,2022.2.5,59.94352118902234,
2,5,8,5,8,0,0,16,2,instr_dim1_1,,,,,,1,0,1,0,,,,,0,0,0,0,,,,,,,,,,,,,,,,,,,,,,,,,,,,,,,,,,,,,stimuli/alien_stimuli/16.png,conditions/schedules/train_y_first/red_square_00/top_right/inputInstr_1.xlsx,stimuli/alien_stimuli/16.png,2223.997197399847,2223.997197399847,2223.997197399847,2223.997197399847,2223.9879176999443,return,32.43037180020474,"[-0.16, -0.08, 0, 0.08, 0.16, 0.24, 0.32, 0.4, 0.48, 0.56]","[-0.4, -0.32, -0.24, -0.16, -0.08, 0, 0.08, 0.16, 0.24, 0.32]",8,8,5,5,0.0,0.0,2256.589536299929,2256.589536299929,2256.589536299929,2256.589536299929,2256.589536299929,2256.589536299929,2256.589536299929,2256.5817883498034,10.175667100120336,return,10.00763290002942,stimuli/alien_stimuli/16.png,16,5,2,,,,,,,,,,,,,,,,,,,,,,,,,,,,,,,,,,,,,,,,,,,,,,,,,,,,,,,,,,,,,,,,,,,,,,,,,,,,,,,,,,,,,,,,,DQ8CP0,train_y,red_square,top_right,2025-02-12_16h41.04.365,HideSeek_v1,2022.2.5,59.94352118902234,
,,,,,,,,,,,30,,,,1,0,1,0,,,,,,,,,,,,,,,,,,,,,,,,,,,,,,,,,,,,,,,,,,,,,,,,,,,,,,,,,,,,,,,,,,,,,,,,,,,,,,21,0.7,0,0,99,1,30,0,conditions/schedules/train_y_first/red_square_00/top_right/inputTrain_1.1.xlsx,99,1,1,1,0,,,,,,,,,,,,,,,,,,,,,,,,,,,,,,,,,,,,,,,,,,,,,,,,,,,,,,,,,,,,,,,,,,,,,,,,,,,DQ8CP0,train_y,red_square,top_right,2025-02-12_16h41.04.365,HideSeek_v1,2022.2.5,59.94352118902234,
,,,,,,,,,,,,,,,2,0,2,0,0,0,0,0,,,,,,,,,,,,,,,,,,,,,,,,,,,,,,,conditions/schedules/train_y_first/red_square_00/top_right/instructions/Slide15.png,conditions/schedules/train_y_first/red_square_00/top_right/instructions/Audio15.wav,2266.7741612999234,2266.773132899776,15,"[6.182297999970615, 18.11655670008622, 25.41932459990494, 19.332217800198123, 4.4646962999831885, 4.803208000026643, 5.523392900126055, 11.873864999972284, 6.138303200015798, 6.984787299996242, 10.422454300103709, 13.70554960006848, 18.686668099835515, 16.53855220018886, 47.38552080001682]","[0.0002188000362366438, 0.013896599877625704, 0.03220020001754165, 0.06354100001044571, 0.049766199896112084, 0.08449580008164048, 0.06338090007193387, 0.06676830002106726, 0.09536209981888533, 0.06389739993028343, 0.0305608999915421, 13.705556600121781, 0.00024040020070970058, 16.538559300126508, 47.385527699952945]",0,,,,,,,,,,,,,,,,,,,,,,,,,,,,,,,,,,,,,,,,,,,,,,,,,,,,,,,,,,,,,,,,,,,,,,,,,,,,,,,,,,,,,,,,,,,,,,,,,,,,,,,,,,,,,,,,,,,,,,,,,,,,DQ8CP0,train_y,red_square,top_right,2025-02-12_16h41.04.365,HideSeek_v1,2022.2.5,59.94352118902234,
,,,,,,,,,,,,,,,2,0,2,0,1,0,1,0,,,,,,,,,,,,,,,,,,,,,,,,,,,,,,,conditions/schedules/train_y_first/red_square_00/top_right/instructions/Slide16.png,conditions/schedules/train_y_first/red_square_00/top_right/instructions/Audio16.wav,2314.224699199898,2314.2130654998123,16,"[6.182297999970615, 18.11655670008622, 25.41932459990494, 19.332217800198123, 4.4646962999831885, 4.803208000026643, 5.523392900126055, 11.873864999972284, 6.138303200015798, 6.984787299996242, 10.422454300103709, 13.70554960006848, 18.686668099835515, 16.53855220018886, 47.38552080001682, 23.50510050007142]","[0.0002188000362366438, 0.013896599877625704, 0.03220020001754165, 0.06354100001044571, 0.049766199896112084, 0.08449580008164048, 0.06338090007193387, 0.06676830002106726, 0.09536209981888533, 0.06389739993028343, 0.0305608999915421, 13.705556600121781, 0.00024040020070970058, 16.538559300126508, 0.014015200082212687, 23.505106600001454]",0,,,,,,,,,,,,,,,,,,,,,,,,,,,,,,,,,,,,,,,,,,,,,,,,,,,,,,,,,,,,,,,,,,,,,,,,,,,,,,,,,,,,,,,,,,,,,,,,,,,,,,,,,,,,,,,,,,,,,,,,,,,,DQ8CP0,train_y,red_square,top_right,2025-02-12_16h41.04.365,HideSeek_v1,2022.2.5,59.94352118902234,
,5,5,5,4,0,-1,15,,train_dim1_1,1,30,,,,2,0,2,0,,,,,,,,,0,0,0,0,0,0,0,0,0,0,0,0,,,,,,,,,,,,,,,,,,,,,,,,,stimuli/alien_stimuli/15.png,,,,,,,,,,,,,,,,,,,,,,,,,,,,,,,,,,,,,,,30,,,,,,,,2337.8349841998424,2337.8349841998424,2337.8349841998424,2337.8349841998424,2337.8349841998424,up,13.423239399911836,0,0,0,99,0.24,0.08,up,13.323127000126988,,,,,,,,,,,,,,,,,,,,,,,,,,,,,,,,,,,,,,,,,,,,,,,,,,,,,,,,,,,,DQ8CP0,train_y,red_square,top_right,2025-02-12_16h41.04.365,HideSeek_v1,2022.2.5,59.94352118902234,
,5,5,5,4,0,-1,15,,train_dim1_1,1,30,,,,2,0,2,0,,,,,,,,,0,0,0,0,0,0,0,0,1,0,1,0,,,,,,,,,,,,,,,,,,,,,,,,,,,,,,,,,,,,,,,,,,,,,,,,,,,,,,,,,,,,,,,,30,,,,,,,,2351.2609224999323,2351.2609224999323,2351.2609224999323,2351.2609224999323,2351.2609224999323,up,0.7582540998701006,0,0,0,99,0.24,0.16,up,0.661476599983871,,,,,,,,,,,,,,,,,,,,,,,,,,,,,,,,,,,,,,,,,,,,,,,,,,,,,,,,,,,,DQ8CP0,train_y,red_square,top_right,2025-02-12_16h41.04.365,HideSeek_v1,2022.2.5,59.94352118902234,
,5,5,5,4,0,-1,15,,train_dim1_1,1,30,,,,2,0,2,0,,,,,,,,,0,0,0,0,0,0,0,0,2,0,2,0,,,,,,,,,,,,,,,,,,,,,,,,,,,,,,,,,,,,,,,,,,,,,,,,,,,,,,,,,,,,,,,,30,,,,,,,,2352.013521899935,2352.013521899935,2352.013521899935,2352.013521899935,2352.013521899935,up,0.9105316998902708,0,0,0,99,0.24,0.24,up,0.8271663000341505,,,,,,,,,,,,,,,,,,,,,,,,,,,,,,,,,,,,,,,,,,,,,,,,,,,,,,,,,,,,DQ8CP0,train_y,red_square,top_right,2025-02-12_16h41.04.365,HideSeek_v1,2022.2.5,59.94352118902234,
,5,5,5,4,0,-1,15,,train_dim1_1,1,30,,,,2,0,2,0,,,,,,,,,0,0,0,0,0,0,0,0,3,0,3,0,,,,,,,,,,,,,,,,,,,,,,,,,,,,,,,,,,,,,,,,,,,,,,,,,,,,,,,,,,,,,,,,30,,,,,,,,2352.9293551999144,2352.9293551999144,2352.9293551999144,2352.9293551999144,2352.9293551999144,left,0.6769267998170108,0,0,0,99,0.15999999999999998,0.24,left,0.5948289001826197,,,,,,,,,,,,,,,,,,,,,,,,,,,,,,,,,,,,,,,,,,,,,,,,,,,,,,,,,,,,DQ8CP0,train_y,red_square,top_right,2025-02-12_16h41.04.365,HideSeek_v1,2022.2.5,59.94352118902234,
,5,5,5,4,0,-1,15,,train_dim1_1,1,30,,,,2,0,2,0,,,,,,,,,0,0,0,0,0,0,0,0,4,0,4,0,,,,,,,,,,,,,,,,,,,,,,,,,,,,,,,,,,,,,,,,,,,,,,,,,,,,,,,,,,,,,,,,30,,,,,,,,2353.612950099865,2353.612950099865,2353.612950099865,2353.612950099865,2353.612950099865,left,0.3768768000882119,0,0,0,99,0.07999999999999997,0.24,left,0.29527750005945563,,,,,,,,,,,,,,,,,,,,,,,,,,,,,,,,,,,,,,,,,,,,,,,,,,,,,,,,,,,,DQ8CP0,train_y,red_square,top_right,2025-02-12_16h41.04.365,HideSeek_v1,2022.2.5,59.94352118902234,
,5,5,5,4,0,-1,15,,train_dim1_1,1,30,,,,2,0,2,0,,,,,,,,,0,0,0,0,0,0,0,0,5,0,5,0,,,,,,,,,,,,,,,,,,,,,,,,,,,,,,,,,,,,,,,,,,,,,,,,,,,,,,,,,,,,,,,,30,,,,,,,,2353.9977944998536,2353.9977944998536,2353.9977944998536,2353.9977944998536,2353.9977944998536,left,0.3426334001123905,0,0,0,99,-2.7755575615628914e-17,0.24,left,0.2557844000402838,,,,,,,,,,,,,,,,,,,,,,,,,,,,,,,,,,,,,,,,,,,,,,,,,,,,,,,,,,,,DQ8CP0,train_y,red_square,top_right,2025-02-12_16h41.04.365,HideSeek_v1,2022.2.5,59.94352118902234,
,5,5,5,4,0,-1,15,,train_dim1_1,1,30,,,,2,0,2,0,,,,,,,,,0,0,0,0,0,0,0,0,6,0,6,0,,,,,,,,,,,,,,,,,,,,,,,,,,,,,,,,,,,,,,,,,,,,,,,,,,,,,,,,,,,,,,,,30,,,,,,,,2354.3464066998567,2354.3464066998567,2354.3464066998567,2354.3464066998567,2354.3464066998567,up,3.7795887000393122,0,0,0,99,-2.7755575615628914e-17,0.32,up,3.699142700061202,,,,,,,,,,,,,,,,,,,,,,,,,,,,,,,,,,,,,,,,,,,,,,,,,,,,,,,,,,,,DQ8CP0,train_y,red_square,top_right,2025-02-12_16h41.04.365,HideSeek_v1,2022.2.5,59.94352118902234,
,5,5,5,4,0,-1,15,,train_dim1_1,1,30,,,,2,0,2,0,,,,,,,,,0,0,0,0,0,0,0,0,7,0,7,0,,,,,,,,,,,,,,,,,,,,,,,,,,,,,,,,,,,,,,,,,,,,,,,,,,,,,,,,,,,,,,,,30,,,,,,,,2358.1332892999053,2358.1332892999053,2358.1332892999053,2358.1332892999053,2358.1332892999053,down,1.7274648998863995,0,0,0,99,-2.7755575615628914e-17,0.24,down,1.6358334000688046,,,,,,,,,,,,,,,,,,,,,,,,,,,,,,,,,,,,,,,,,,,,,,,,,,,,,,,,,,,,DQ8CP0,train_y,red_square,top_right,2025-02-12_16h41.04.365,HideSeek_v1,2022.2.5,59.94352118902234,
,5,5,5,4,0,-1,15,,train_dim1_1,1,30,,,,2,0,2,0,,,,,,,,,0,0,0,0,0,0,0,0,8,0,8,0,,,,,,,,,,,,,,,,,,,,,,,,,,,,,,,,,,,,,,,,,,,,,,,,,,,,,,,,,,,,,,,,30,,,,,,,,2359.870362599846,2359.870362599846,2359.870362599846,2359.870362599846,2359.870362599846,right,11.935962100047618,0,0,0,99,0.07999999999999997,0.24,right,11.84685520012863,,,,,,,,,,,,,,,,,,,,,,,,,,,,,,,,,,,,,,,,,,,,,,,,,,,,,,,,,,,,DQ8CP0,train_y,red_square,top_right,2025-02-12_16h41.04.365,HideSeek_v1,2022.2.5,59.94352118902234,
,5,5,5,4,0,-1,15,,train_dim1_1,1,30,,,,2,0,2,0,,,,,,,,,0,0,0,0,0,0,0,0,9,0,9,0,,,,,,,,,,,,,,,,,,,,,,,,,,,,,,,,,,,,,,,,,,,,,,,,,,,,,,,,,,,,,,,,30,,,,,,,,2371.830979199847,2371.830979199847,2371.830979199847,2371.830979199847,2371.830979199847,right,0.6102921001147479,0,0,0,99,0.15999999999999998,0.24,right,0.4990966999903321,,,,,,,,,,,,,,,,,,,,,,,,,,,,,,,,,,,,,,,,,,,,,,,,,,,,,,,,,,,,DQ8CP0,train_y,red_square,top_right,2025-02-12_16h41.04.365,HideSeek_v1,2022.2.5,59.94352118902234,
,5,5,5,4,0,-1,15,,train_dim1_1,1,30,,,,2,0,2,0,,,,,,,,,0,0,0,0,0,0,0,0,10,0,10,0,,,,,,,,,,,,,,,,,,,,,,,,,,,,,,,,,,,,,,,,,,,,,,,,,,,,,,,,,,,,,,,,30,,,,,,,,2372.4290326999035,2372.4290326999035,2372.4290326999035,2372.4290326999035,2372.4290326999035,right,1.0270026999060065,0,0,0,99,0.24,0.24,right,0.9343928000889719,,,,,,,,,,,,,,,,,,,,,,,,,,,,,,,,,,,,,,,,,,,,,,,,,,,,,,,,,,,,DQ8CP0,train_y,red_square,top_right,2025-02-12_16h41.04.365,HideSeek_v1,2022.2.5,59.94352118902234,
,5,5,5,4,0,-1,15,,train_dim1_1,1,30,,,,2,0,2,0,,,,,,,,,0,0,0,0,0,0,0,0,11,0,11,0,,,,,,,,,,,,,,,,,,,,,,,,,,,,,,,,,,,,,,,,,,,,,,,,,,,,,,,,,,,,,,,,30,,,,,,,,2373.462715399917,2373.462715399917,2373.462715399917,2373.462715399917,2373.462715399917,right,2.0947290000040084,0,0,0,99,0.32,0.24,right,2.0150108002126217,,,,,,,,,,,,,,,,,,,,,,,,,,,,,,,,,,,,,,,,,,,,,,,,,,,,,,,,,,,,DQ8CP0,train_y,red_square,top_right,2025-02-12_16h41.04.365,HideSeek_v1,2022.2.5,59.94352118902234,
,5,5,5,4,0,-1,15,,train_dim1_1,1,30,,,,2,0,2,0,,,,,,,,,0,0,0,0,0,0,0,0,12,0,12,0,,,,,,,,,,,,,,,,,,,,,,,,,,,,,,,,,,,,,,,,,,,,,,,,,,,,,,,,,,,,,,,,30,,,,,,,,2375.56438659993,2375.56438659993,2375.56438659993,2375.56438659993,2375.56438659993,right,0.4267674000002444,0,0,0,99,0.4,0.24,right,0.3451819000765681,,,,,,,,,,,,,,,,,,,,,,,,,,,,,,,,,,,,,,,,,,,,,,,,,,,,,,,,,,,,DQ8CP0,train_y,red_square,top_right,2025-02-12_16h41.04.365,HideSeek_v1,2022.2.5,59.94352118902234,
,5,5,5,4,0,-1,15,,train_dim1_1,1,30,,,,2,0,2,0,,,,,,,,,0,0,0,0,0,0,0,0,13,0,13,0,,,,,,,,,,,,,,,,,,,,,,,,,,,,,,,,,,,,,,,,,,,,,,,,,,,,,,,,,,,,,,,,30,,,,,,,,2375.998961499892,2375.998961499892,2375.998961499892,2375.998961499892,2375.998961499892,right,0.9098620999138802,0,0,0,99,0.48000000000000004,0.24,right,0.828757300041616,,,,,,,,,,,,,,,,,,,,,,,,,,,,,,,,,,,,,,,,,,,,,,,,,,,,,,,,,,,,DQ8CP0,train_y,red_square,top_right,2025-02-12_16h41.04.365,HideSeek_v1,2022.2.5,59.94352118902234,
,5,5,5,4,0,-1,15,,train_dim1_1,1,30,,,,2,0,2,0,,,,,,,,,0,0,0,0,0,0,0,0,14,0,14,0,,,,,,,,,,,,,,,,,,,,,,,,,,,,,,,,,,,,,,,,,,,,,,,,,,,,,,,,,,,,,,,,30,,,,,,,,2376.9159886999987,2376.9159886999987,2376.9159886999987,2376.9159886999987,2376.9159886999987,down,0.8105365000665188,0,0,0,99,0.48000000000000004,0.15999999999999998,down,0.7204082002863288,,,,,,,,,,,,,,,,,,,,,,,,,,,,,,,,,,,,,,,,,,,,,,,,,,,,,,,,,,,,DQ8CP0,train_y,red_square,top_right,2025-02-12_16h41.04.365,HideSeek_v1,2022.2.5,59.94352118902234,
,5,5,5,4,0,-1,15,,train_dim1_1,1,30,,,,2,0,2,0,,,,,,,,,0,0,0,0,0,0,0,0,15,0,15,0,,,,,,,,,,,,,,,,,,,,,,,,,,,,,,,,,,,,,,,,,,,,,,,,,,,,,,,,,,,,,,,,30,,,,,,,,2377.7328502999153,2377.7328502999153,2377.7328502999153,2377.7328502999153,2377.7328502999153,down,1.2772891002241522,0,0,0,99,0.48000000000000004,0.07999999999999997,down,1.1926170999649912,,,,,,,,,,,,,,,,,,,,,,,,,,,,,,,,,,,,,,,,,,,,,,,,,,,,,,,,,,,,DQ8CP0,train_y,red_square,top_right,2025-02-12_16h41.04.365,HideSeek_v1,2022.2.5,59.94352118902234,
,5,5,5,4,0,-1,15,,train_dim1_1,1,30,,,,2,0,2,0,,,,,,,,,0,0,0,0,0,0,0,0,16,0,16,0,,,,,,,,,,,,,,,,,,,,,,,,,,,,,,,,,,,,,,,,,,,,,,,,,,,,,,,,,,,,,,,,30,,,,,,,,2379.0181815999094,2379.0181815999094,2379.0181815999094,2379.0181815999094,2379.0181815999094,down,0.24328149994835258,0,0,0,99,0.48000000000000004,-2.7755575615628914e-17,down,0.16331200022250414,,,,,,,,,,,,,,,,,,,,,,,,,,,,,,,,,,,,,,,,,,,,,,,,,,,,,,,,,,,,DQ8CP0,train_y,red_square,top_right,2025-02-12_16h41.04.365,HideSeek_v1,2022.2.5,59.94352118902234,
,5,5,5,4,0,-1,15,,train_dim1_1,1,30,,,,2,0,2,0,,,,,,,,,0,0,0,0,0,0,0,0,17,0,17,0,,,,,,,,,,,,,,,,,,,,,,,,,,,,,,,,,,,,,,,,,,,,,,,,,,,,,,,,,,,,,,,,30,,,,,,,,2379.2681269999593,2379.2681269999593,2379.2681269999593,2379.2681269999593,2379.2681269999593,down,0.22639530012384057,0,0,0,99,0.48000000000000004,-0.08000000000000003,down,0.14225780009292066,,,,,,,,,,,,,,,,,,,,,,,,,,,,,,,,,,,,,,,,,,,,,,,,,,,,,,,,,,,,DQ8CP0,train_y,red_square,top_right,2025-02-12_16h41.04.365,HideSeek_v1,2022.2.5,59.94352118902234,
,5,5,5,4,0,-1,15,,train_dim1_1,1,30,,,,2,0,2,0,,,,,,,,,0,0,0,0,0,0,0,0,18,0,18,0,,,,,,,,,,,,,,,,,,,,,,,,,,,,,,,,,,,,,,,,,,,,,,,,,,,,,,,,,,,,,,,,30,,,,,,,,2379.5011815000325,2379.5011815000325,2379.5011815000325,2379.5011815000325,2379.5011815000325,down,0.2765671999659389,0,0,0,99,0.48000000000000004,-0.16000000000000003,down,0.1899144002236426,,,,,,,,,,,,,,,,,,,,,,,,,,,,,,,,,,,,,,,,,,,,,,,,,,,,,,,,,,,,DQ8CP0,train_y,red_square,top_right,2025-02-12_16h41.04.365,HideSeek_v1,2022.2.5,59.94352118902234,
,5,5,5,4,0,-1,15,,train_dim1_1,1,30,,,,2,0,2,0,,,,,,,,,0,0,0,0,0,0,0,0,19,0,19,0,,,,,,,,,,,,,,,,,,,,,,,,,,,,,,,,,,,,,,,,,,,,,,,,,,,,,,,,,,,,,,,,30,,,,,,,,2379.7900626999326,2379.7900626999326,2379.7900626999326,2379.7900626999326,2379.7900626999326,down,0.6267977999523282,0,0,0,99,0.48000000000000004,-0.24000000000000005,down,0.5428144000470638,,,,,,,,,,,,,,,,,,,,,,,,,,,,,,,,,,,,,,,,,,,,,,,,,,,,,,,,,,,,DQ8CP0,train_y,red_square,top_right,2025-02-12_16h41.04.365,HideSeek_v1,2022.2.5,59.94352118902234,
,5,5,5,4,0,-1,15,,train_dim1_1,1,30,,,,2,0,2,0,,,,,,,,,0,0,0,0,0,0,0,0,20,0,20,0,,,,,,,,,,,,,,,,,,,,,,,,,,,,,,,,,,,,,,,,,,,,,,,,,,,,,,,,,,,,,,,,30,,,,,,,,2380.420233099954,2380.420233099954,2380.420233099954,2380.420233099954,2380.420233099954,return,2.044714199844748,0,0,0,0,0.48000000000000004,-0.24000000000000005,return,1.963996300008148,-3,3,0.48000000000000004,-0.24000000000000005,,,,,,,,,,,,,,,,,,,,,,,,,,,,,,,,,,,,,,,,,,,,,,,,,,,,,,,,DQ8CP0,train_y,red_square,top_right,2025-02-12_16h41.04.365,HideSeek_v1,2022.2.5,59.94352118902234,
,8,7,8,7,0,0,16,,train_dim1_1,2,30,,,,2,0,2,0,,,,,,,,,0,0,0,0,0,1,1,1,0,0,0,0,,,,,,,,,,,,,,,,,,,,,,,,,stimuli/alien_stimuli/16.png,,,,,,,,,,,,,,,,,,,,,,,,,,,,,stimuli/alien_stimuli/15.png,15,5,3,,,,,,,30,,,,,,,,2419.7591943999287,2419.7591943999287,2419.7591943999287,2419.7591943999287,2419.7591943999287,right,3.556627199985087,0,0,0,99,0.5599999999999999,0.16,right,3.45068410015665,,,,,2418.182209599996,2419.7591943999287,0.24,-0.08,0.08,0.0,-0.04,0.24,0.24,0.24,-0.08,2384.0481274998747,2384.0481274998747,2384.0481274998747,2384.0481274998747,2384.0481274998747,2384.0481274998747,2384.0481274998747,2384.0481274998747,2384.037456499925,34.263245000038296,return,34.11058710003272,,,,,,,,,,,,,,,,,,,,,,,,,,,,,,,,,DQ8CP0,train_y,red_square,top_right,2025-02-12_16h41.04.365,HideSeek_v1,2022.2.5,59.94352118902234,
,8,7,8,7,0,0,16,,train_dim1_1,2,30,,,,2,0,2,0,,,,,,,,,0,0,0,0,0,1,1,1,1,0,1,0,,,,,,,,,,,,,,,,,,,,,,,,,,,,,,,,,,,,,,,,,,,,,,,,,,,,,,,,,,,,,,,,30,,,,,,,,2423.304053599946,2423.304053599946,2423.304053599946,2423.304053599946,2423.304053599946,down,1.9941881000995636,0,0,0,99,0.5599999999999999,0.08,down,1.9051958001218736,,,,,,,,,,,,,,,,,,,,,,,,,,,,,,,,,,,,,,,,,,,,,,,,,,,,,,,,,,,,DQ8CP0,train_y,red_square,top_right,2025-02-12_16h41.04.365,HideSeek_v1,2022.2.5,59.94352118902234,
,8,7,8,7,0,0,16,,train_dim1_1,2,30,,,,2,0,2,0,,,,,,,,,0,0,0,0,0,1,1,1,2,0,2,0,,,,,,,,,,,,,,,,,,,,,,,,,,,,,,,,,,,,,,,,,,,,,,,,,,,,,,,,,,,,,,,,30,,,,,,,,2425.3052597998176,2425.3052597998176,2425.3052597998176,2425.3052597998176,2425.3052597998176,down,0.46004720008932054,0,0,0,99,0.5599999999999999,0.0,down,0.3731280001811683,,,,,,,,,,,,,,,,,,,,,,,,,,,,,,,,,,,,,,,,,,,,,,,,,,,,,,,,,,,,DQ8CP0,train_y,red_square,top_right,2025-02-12_16h41.04.365,HideSeek_v1,2022.2.5,59.94352118902234,
,8,7,8,7,0,0,16,,train_dim1_1,2,30,,,,2,0,2,0,,,,,,,,,0,0,0,0,0,1,1,1,3,0,3,0,,,,,,,,,,,,,,,,,,,,,,,,,,,,,,,,,,,,,,,,,,,,,,,,,,,,,,,,,,,,,,,,30,,,,,,,,2425.77292379993,2425.77292379993,2425.77292379993,2425.77292379993,2425.77292379993,left,1.827274699928239,0,0,0,99,0.4799999999999999,0.0,left,1.7371320999227464,,,,,,,,,,,,,,,,,,,,,,,,,,,,,,,,,,,,,,,,,,,,,,,,,,,,,,,,,,,,DQ8CP0,train_y,red_square,top_right,2025-02-12_16h41.04.365,HideSeek_v1,2022.2.5,59.94352118902234,
,8,7,8,7,0,0,16,,train_dim1_1,2,30,,,,2,0,2,0,,,,,,,,,0,0,0,0,0,1,1,1,4,0,4,0,,,,,,,,,,,,,,,,,,,,,,,,,,,,,,,,,,,,,,,,,,,,,,,,,,,,,,,,,,,,,,,,30,,,,,,,,2427.608479199931,2427.608479199931,2427.608479199931,2427.608479199931,2427.608479199931,return,1.860820900183171,0,0,0,0,0.4799999999999999,0.0,return,1.7673282001633197,-5,3,0.4799999999999999,0.0,,,,,,,,,,,,,,,,,,,,,,,,,,,,,,,,,,,,,,,,,,,,,,,,,,,,,,,,DQ8CP0,train_y,red_square,top_right,2025-02-12_16h41.04.365,HideSeek_v1,2022.2.5,59.94352118902234,
,7,8,7,5,0,-3,13,,train_dim1_1,3,30,,,,2,0,2,0,,,,,,,,,0,0,0,0,0,2,2,2,0,0,0,0,,,,,,,,,,,,,,,,,,,,,,,,,stimuli/alien_stimuli/13.png,,,,,,,,,,,,,,,,,,,,,,,,,,,,,stimuli/alien_stimuli/16.png,16,8,4,,,,,,,30,,,,,,,,2442.7793284999207,2442.7793284999207,2442.7793284999207,2442.7793284999207,2442.7793284999207,down,3.973481100052595,0,0,0,99,0.4,0.15999999999999998,down,3.872185100102797,,,,,2441.2014185998123,2442.7793284999207,0.48,0.16,0.0,0.0,0.16,0.48,0.48,0.48,0.16,2431.040534700034,2431.040534700034,2431.040534700034,2431.040534700034,2431.040534700034,2431.040534700034,2431.040534700034,2431.040534700034,2431.0259907498958,10.277450199937448,return,10.132460200227797,,,,,,,,,,,,,,,,,,,,,,,,,,,,,,,,,DQ8CP0,train_y,red_square,top_right,2025-02-12_16h41.04.365,HideSeek_v1,2022.2.5,59.94352118902234,
,7,8,7,5,0,-3,13,,train_dim1_1,3,30,,,,2,0,2,0,,,,,,,,,0,0,0,0,0,2,2,2,1,0,1,0,,,,,,,,,,,,,,,,,,,,,,,,,,,,,,,,,,,,,,,,,,,,,,,,,,,,,,,,,,,,,,,,30,,,,,,,,2446.741134400014,2446.741134400014,2446.741134400014,2446.741134400014,2446.741134400014,down,0.40818729996681213,0,0,0,99,0.4,0.07999999999999997,down,0.3166711002122611,,,,,,,,,,,,,,,,,,,,,,,,,,,,,,,,,,,,,,,,,,,,,,,,,,,,,,,,,,,,DQ8CP0,train_y,red_square,top_right,2025-02-12_16h41.04.365,HideSeek_v1,2022.2.5,59.94352118902234,
,7,8,7,5,0,-3,13,,train_dim1_1,3,30,,,,2,0,2,0,,,,,,,,,0,0,0,0,0,2,2,2,2,0,2,0,,,,,,,,,,,,,,,,,,,,,,,,,,,,,,,,,,,,,,,,,,,,,,,,,,,,,,,,,,,,,,,,30,,,,,,,,2447.156209199922,2447.156209199922,2447.156209199922,2447.156209199922,2447.156209199922,down,1.6273442001547664,0,0,0,99,0.4,-2.7755575615628914e-17,down,1.5495741001795977,,,,,,,,,,,,,,,,,,,,,,,,,,,,,,,,,,,,,,,,,,,,,,,,,,,,,,,,,,,,DQ8CP0,train_y,red_square,top_right,2025-02-12_16h41.04.365,HideSeek_v1,2022.2.5,59.94352118902234,
,7,8,7,5,0,-3,13,,train_dim1_1,3,30,,,,2,0,2,0,,,,,,,,,0,0,0,0,0,2,2,2,3,0,3,0,,,,,,,,,,,,,,,,,,,,,,,,,,,,,,,,,,,,,,,,,,,,,,,,,,,,,,,,,,,,,,,,30,,,,,,,,2448.7922318000346,2448.7922318000346,2448.7922318000346,2448.7922318000346,2448.7922318000346,return,0.8264878999907523,1,0,0,1,0.4,-2.7755575615628914e-17,return,0.7402856000699103,-8,3,0.4,-2.7755575615628914e-17,,,,,,,,,,,,,,,,,,,,,,,,,,,,,,,,,,,,,,,,,,,,,,,,,,,,,,,,DQ8CP0,train_y,red_square,top_right,2025-02-12_16h41.04.365,HideSeek_v1,2022.2.5,59.94352118902234,
,5,6,5,2,0,-4,12,,train_dim1_1,4,30,,,,2,0,2,0,,,,,,,,,0,0,0,0,0,3,3,3,0,0,0,0,,,,,,,,,,,,,,,,,,,,,,,,,stimuli/alien_stimuli/12.png,,,,,,,,,,,,,,,,,,,,,,,,,,,,,stimuli/alien_stimuli/13.png,13,7,5,,,,,,,30,,,,,,,,2461.8756450999063,2461.8756450999063,2461.8756450999063,2461.8756450999063,2461.8756450999063,return,1.905124600045383,1,0,0,0,0.24,0.08,return,1.8014230001717806,-8,3,0.24,0.08,2460.300592399901,2461.8756450999063,0.4,0,0.24,0.0,0.12,0.4,0.4,0.4,0,2451.1946680999827,2451.1946680999827,2451.1946680999827,2451.1946680999827,2451.1946680999827,2451.1946680999827,2451.1946680999827,2451.1946680999827,2451.1930580998774,9.226149700116366,return,9.084542700322345,,,,,,,,,,,,,,,,,,,,,,,,,,,,,,,,,DQ8CP0,train_y,red_square,top_right,2025-02-12_16h41.04.365,HideSeek_v1,2022.2.5,59.94352118902234,
,8,8,8,3,0,-5,11,,train_dim1_1,5,30,,,,2,0,2,0,,,,,,,,,0,0,0,0,0,4,4,4,0,0,0,0,,,,,,,,,,,,,,,,,,,,,,,,,stimuli/alien_stimuli/11.png,,,,,,,,,,,,,,,,,,,,,,,,,,,,,stimuli/alien_stimuli/12.png,12,5,6,,,,,,,30,,,,,,,,2497.8855442998465,2497.8855442998465,2497.8855442998465,2497.8855442998465,2497.8855442998465,down,2.0391631999518722,1,0,0,99,0.48,0.15999999999999998,down,1.9337252001278102,,,,,2496.3137077998836,2497.8855442998465,0.24,-0.24,0.32,0.0,-0.07999999999999999,0.24,0.24,0.24,-0.24,2465.335539099993,2465.335539099993,2465.335539099993,2465.335539099993,2465.335539099993,2465.335539099993,2465.335539099993,2465.335539099993,2465.321275749896,31.094685399904847,return,30.950984900118783,,,,,,,,,,,,,,,,,,,,,,,,,,,,,,,,,DQ8CP0,train_y,red_square,top_right,2025-02-12_16h41.04.365,HideSeek_v1,2022.2.5,59.94352118902234,
,8,8,8,3,0,-5,11,,train_dim1_1,5,30,,,,2,0,2,0,,,,,,,,,0,0,0,0,0,4,4,4,1,0,1,0,,,,,,,,,,,,,,,,,,,,,,,,,,,,,,,,,,,,,,,,,,,,,,,,,,,,,,,,,,,,,,,,30,,,,,,,,2499.920843999833,2499.920843999833,2499.920843999833,2499.920843999833,2499.920843999833,down,4.644194999942556,1,0,0,99,0.48,0.07999999999999997,down,4.561556099914014,,,,,,,,,,,,,,,,,,,,,,,,,,,,,,,,,,,,,,,,,,,,,,,,,,,,,,,,,,,,DQ8CP0,train_y,red_square,top_right,2025-02-12_16h41.04.365,HideSeek_v1,2022.2.5,59.94352118902234,
,8,8,8,3,0,-5,11,,train_dim1_1,5,30,,,,2,0,2,0,,,,,,,,,0,0,0,0,0,4,4,4,2,0,2,0,,,,,,,,,,,,,,,,,,,,,,,,,,,,,,,,,,,,,,,,,,,,,,,,,,,,,,,,,,,,,,,,30,,,,,,,,2504.5726015998516,2504.5726015998516,2504.5726015998516,2504.5726015998516,2504.5726015998516,return,0.6440209001302719,1,0,0,0,0.48,0.07999999999999997,return,0.5555933001451194,-10,3,0.48,0.07999999999999997,,,,,,,,,,,,,,,,,,,,,,,,,,,,,,,,,,,,,,,,,,,,,,,,,,,,,,,,DQ8CP0,train_y,red_square,top_right,2025-02-12_16h41.04.365,HideSeek_v1,2022.2.5,59.94352118902234,
,6,9,6,5,0,-4,12,,train_dim1_1,6,30,,,,2,0,2,0,,,,,,,,,0,0,0,0,0,5,5,5,0,0,0,0,,,,,,,,,,,,,,,,,,,,,,,,,stimuli/alien_stimuli/12.png,,,,,,,,,,,,,,,,,,,,,,,,,,,,,stimuli/alien_stimuli/11.png,11,8,7,,,,,,,30,,,,,,,,2516.40432449989,2516.40432449989,2516.40432449989,2516.40432449989,2516.40432449989,down,1.0714457998983562,1,0,0,99,0.32,0.24,down,0.9849731002468616,,,,,2514.8458653998096,2516.40432449989,0.48,-0.16,0.4,0.0,0.039999999999999994,0.48,0.48,0.48,-0.16,2506.786324799992,2506.786324799992,2506.786324799992,2506.786324799992,2506.786324799992,2506.786324799992,2506.786324799992,2506.786324799992,2506.788871999877,8.175676800077781,return,8.038725500227883,,,,,,,,,,,,,,,,,,,,,,,,,,,,,,,,,DQ8CP0,train_y,red_square,top_right,2025-02-12_16h41.04.365,HideSeek_v1,2022.2.5,59.94352118902234,
,6,9,6,5,0,-4,12,,train_dim1_1,6,30,,,,2,0,2,0,,,,,,,,,0,0,0,0,0,5,5,5,1,0,1,0,,,,,,,,,,,,,,,,,,,,,,,,,,,,,,,,,,,,,,,,,,,,,,,,,,,,,,,,,,,,,,,,30,,,,,,,,2517.48295399989,2517.48295399989,2517.48295399989,2517.48295399989,2517.48295399989,down,0.3420946002006531,1,0,0,99,0.32,0.15999999999999998,down,0.26454550004564226,,,,,,,,,,,,,,,,,,,,,,,,,,,,,,,,,,,,,,,,,,,,,,,,,,,,,,,,,,,,DQ8CP0,train_y,red_square,top_right,2025-02-12_16h41.04.365,HideSeek_v1,2022.2.5,59.94352118902234,
,6,9,6,5,0,-4,12,,train_dim1_1,6,30,,,,2,0,2,0,,,,,,,,,0,0,0,0,0,5,5,5,2,0,2,0,,,,,,,,,,,,,,,,,,,,,,,,,,,,,,,,,,,,,,,,,,,,,,,,,,,,,,,,,,,,,,,,30,,,,,,,,2517.8321418999694,2517.8321418999694,2517.8321418999694,2517.8321418999694,2517.8321418999694,down,0.3265197998844087,1,0,0,99,0.32,0.07999999999999997,down,0.2387976001482457,,,,,,,,,,,,,,,,,,,,,,,,,,,,,,,,,,,,,,,,,,,,,,,,,,,,,,,,,,,,DQ8CP0,train_y,red_square,top_right,2025-02-12_16h41.04.365,HideSeek_v1,2022.2.5,59.94352118902234,
,6,9,6,5,0,-4,12,,train_dim1_1,6,30,,,,2,0,2,0,,,,,,,,,0,0,0,0,0,5,5,5,3,0,3,0,,,,,,,,,,,,,,,,,,,,,,,,,,,,,,,,,,,,,,,,,,,,,,,,,,,,,,,,,,,,,,,,30,,,,,,,,2518.1659325000364,2518.1659325000364,2518.1659325000364,2518.1659325000364,2518.1659325000364,down,2.2284303000196815,1,0,0,99,0.32,-2.7755575615628914e-17,down,2.1412398000247777,,,,,,,,,,,,,,,,,,,,,,,,,,,,,,,,,,,,,,,,,,,,,,,,,,,,,,,,,,,,DQ8CP0,train_y,red_square,top_right,2025-02-12_16h41.04.365,HideSeek_v1,2022.2.5,59.94352118902234,
,6,9,6,5,0,-4,12,,train_dim1_1,6,30,,,,2,0,2,0,,,,,,,,,0,0,0,0,0,5,5,5,4,0,4,0,,,,,,,,,,,,,,,,,,,,,,,,,,,,,,,,,,,,,,,,,,,,,,,,,,,,,,,,,,,,,,,,30,,,,,,,,2520.4012918998487,2520.4012918998487,2520.4012918998487,2520.4012918998487,2520.4012918998487,down,0.4600638998672366,1,0,0,99,0.32,-0.08000000000000003,down,0.367557100020349,,,,,,,,,,,,,,,,,,,,,,,,,,,,,,,,,,,,,,,,,,,,,,,,,,,,,,,,,,,,DQ8CP0,train_y,red_square,top_right,2025-02-12_16h41.04.365,HideSeek_v1,2022.2.5,59.94352118902234,
,6,9,6,5,0,-4,12,,train_dim1_1,6,30,,,,2,0,2,0,,,,,,,,,0,0,0,0,0,5,5,5,5,0,5,0,,,,,,,,,,,,,,,,,,,,,,,,,,,,,,,,,,,,,,,,,,,,,,,,,,,,,,,,,,,,,,,,30,,,,,,,,2520.8686825998593,2520.8686825998593,2520.8686825998593,2520.8686825998593,2520.8686825998593,down,0.4432913998607546,1,0,0,99,0.32,-0.16000000000000003,down,0.3653378002345562,,,,,,,,,,,,,,,,,,,,,,,,,,,,,,,,,,,,,,,,,,,,,,,,,,,,,,,,,,,,DQ8CP0,train_y,red_square,top_right,2025-02-12_16h41.04.365,HideSeek_v1,2022.2.5,59.94352118902234,
,6,9,6,5,0,-4,12,,train_dim1_1,6,30,,,,2,0,2,0,,,,,,,,,0,0,0,0,0,5,5,5,6,0,6,0,,,,,,,,,,,,,,,,,,,,,,,,,,,,,,,,,,,,,,,,,,,,,,,,,,,,,,,,,,,,,,,,30,,,,,,,,2521.3335910998285,2521.3335910998285,2521.3335910998285,2521.3335910998285,2521.3335910998285,return,6.69595789979212,1,0,0,0,0.32,-0.16000000000000003,return,6.6050784001126885,-16,3,0.32,-0.16000000000000003,,,,,,,,,,,,,,,,,,,,,,,,,,,,,,,,,,,,,,,,,,,,,,,,,,,,,,,,DQ8CP0,train_y,red_square,top_right,2025-02-12_16h41.04.365,HideSeek_v1,2022.2.5,59.94352118902234,
,6,8,6,5,0,-3,13,,train_dim1_1,7,30,,,,2,0,2,0,,,,,,,,,0,0,0,0,0,6,6,6,0,0,0,0,,,,,,,,,,,,,,,,,,,,,,,,,stimuli/alien_stimuli/13.png,,,,,,,,,,,,,,,,,,,,,,,,,,,,,stimuli/alien_stimuli/12.png,12,6,8,,,,,,,30,,,,,,,,2546.0264777999837,2546.0264777999837,2546.0264777999837,2546.0264777999837,2546.0264777999837,down,0.8195917999837548,1,0,0,99,0.32,0.15999999999999998,down,0.7205707002431154,,,,,2544.453794099856,2546.0264777999837,0.32,0,0.32,0.0,0.16,0.32,0.32,0.32,0,2529.5927142999135,2529.5927142999135,2529.5927142999135,2529.5927142999135,2529.5927142999135,2529.5927142999135,2529.5927142999135,2529.5927142999135,2529.5910184998534,14.981295400066301,return,14.836776700103655,,,,,,,,,,,,,,,,,,,,,,,,,,,,,,,,,DQ8CP0,train_y,red_square,top_right,2025-02-12_16h41.04.365,HideSeek_v1,2022.2.5,59.94352118902234,
,6,8,6,5,0,-3,13,,train_dim1_1,7,30,,,,2,0,2,0,,,,,,,,,0,0,0,0,0,6,6,6,1,0,1,0,,,,,,,,,,,,,,,,,,,,,,,,,,,,,,,,,,,,,,,,,,,,,,,,,,,,,,,,,,,,,,,,30,,,,,,,,2546.852147999918,2546.852147999918,2546.852147999918,2546.852147999918,2546.852147999918,down,0.4762063000816852,1,0,0,99,0.32,0.07999999999999997,down,0.37166720000095665,,,,,,,,,,,,,,,,,,,,,,,,,,,,,,,,,,,,,,,,,,,,,,,,,,,,,,,,,,,,DQ8CP0,train_y,red_square,top_right,2025-02-12_16h41.04.365,HideSeek_v1,2022.2.5,59.94352118902234,
,6,8,6,5,0,-3,13,,train_dim1_1,7,30,,,,2,0,2,0,,,,,,,,,0,0,0,0,0,6,6,6,2,0,2,0,,,,,,,,,,,,,,,,,,,,,,,,,,,,,,,,,,,,,,,,,,,,,,,,,,,,,,,,,,,,,,,,30,,,,,,,,2547.3229065998457,2547.3229065998457,2547.3229065998457,2547.3229065998457,2547.3229065998457,down,0.3094815001823008,1,0,0,99,0.32,-2.7755575615628914e-17,down,0.22920880024321377,,,,,,,,,,,,,,,,,,,,,,,,,,,,,,,,,,,,,,,,,,,,,,,,,,,,,,,,,,,,DQ8CP0,train_y,red_square,top_right,2025-02-12_16h41.04.365,HideSeek_v1,2022.2.5,59.94352118902234,
,6,8,6,5,0,-3,13,,train_dim1_1,7,30,,,,2,0,2,0,,,,,,,,,0,0,0,0,0,6,6,6,3,0,3,0,,,,,,,,,,,,,,,,,,,,,,,,,,,,,,,,,,,,,,,,,,,,,,,,,,,,,,,,,,,,,,,,30,,,,,,,,2547.6396349999122,2547.6396349999122,2547.6396349999122,2547.6396349999122,2547.6396349999122,down,0.3766503999941051,1,0,0,99,0.32,-0.08000000000000003,down,0.286114500137046,,,,,,,,,,,,,,,,,,,,,,,,,,,,,,,,,,,,,,,,,,,,,,,,,,,,,,,,,,,,DQ8CP0,train_y,red_square,top_right,2025-02-12_16h41.04.365,HideSeek_v1,2022.2.5,59.94352118902234,
,6,8,6,5,0,-3,13,,train_dim1_1,7,30,,,,2,0,2,0,,,,,,,,,0,0,0,0,0,6,6,6,4,0,4,0,,,,,,,,,,,,,,,,,,,,,,,,,,,,,,,,,,,,,,,,,,,,,,,,,,,,,,,,,,,,,,,,30,,,,,,,,2548.023976800032,2548.023976800032,2548.023976800032,2548.023976800032,2548.023976800032,down,0.3605243000201881,1,0,0,99,0.32,-0.16000000000000003,down,0.26818339992314577,,,,,,,,,,,,,,,,,,,,,,,,,,,,,,,,,,,,,,,,,,,,,,,,,,,,,,,,,,,,DQ8CP0,train_y,red_square,top_right,2025-02-12_16h41.04.365,HideSeek_v1,2022.2.5,59.94352118902234,
,6,8,6,5,0,-3,13,,train_dim1_1,7,30,,,,2,0,2,0,,,,,,,,,0,0,0,0,0,6,6,6,5,0,5,0,,,,,,,,,,,,,,,,,,,,,,,,,,,,,,,,,,,,,,,,,,,,,,,,,,,,,,,,,,,,,,,,30,,,,,,,,2548.3911278999876,2548.3911278999876,2548.3911278999876,2548.3911278999876,2548.3911278999876,down,0.6261146001052111,1,0,0,99,0.32,-0.24000000000000005,down,0.5482471003197134,,,,,,,,,,,,,,,,,,,,,,,,,,,,,,,,,,,,,,,,,,,,,,,,,,,,,,,,,,,,DQ8CP0,train_y,red_square,top_right,2025-02-12_16h41.04.365,HideSeek_v1,2022.2.5,59.94352118902234,
,6,8,6,5,0,-3,13,,train_dim1_1,7,30,,,,2,0,2,0,,,,,,,,,0,0,0,0,0,6,6,6,6,0,6,0,,,,,,,,,,,,,,,,,,,,,,,,,,,,,,,,,,,,,,,,,,,,,,,,,,,,,,,,,,,,,,,,30,,,,,,,,2549.0242898999713,2549.0242898999713,2549.0242898999713,2549.0242898999713,2549.0242898999713,return,1.3945279999170452,1,0,0,0,0.32,-0.24000000000000005,return,1.3073030000086874,-22,3,0.32,-0.24000000000000005,,,,,,,,,,,,,,,,,,,,,,,,,,,,,,,,,,,,,,,,,,,,,,,,,,,,,,,,DQ8CP0,train_y,red_square,top_right,2025-02-12_16h41.04.365,HideSeek_v1,2022.2.5,59.94352118902234,
,9,7,9,2,0,-5,11,,train_dim1_1,8,30,,,,2,0,2,0,,,,,,,,,0,0,0,0,0,7,7,7,0,0,0,0,,,,,,,,,,,,,,,,,,,,,,,,,stimuli/alien_stimuli/11.png,,,,,,,,,,,,,,,,,,,,,,,,,,,,,stimuli/alien_stimuli/13.png,13,6,9,,,,,,,30,,,,,,,,2560.105063899886,2560.105063899886,2560.105063899886,2560.105063899886,2560.105063899886,return,46.4611342002172,1,0,0,0,0.56,0.16,return,46.37856670003384,-22,3,0.56,0.16,2558.548605900025,2560.105063899886,0.32,0,0.24,0.0,0.12,0.32,0.32,0.32,0,2551.987965099979,2551.987965099979,2551.987965099979,2551.987965099979,2551.987965099979,2551.987965099979,2551.987965099979,2551.987965099979,2551.9765736499803,6.674243699992076,return,6.530552200041711,,,,,,,,,,,,,,,,,,,,,,,,,,,,,,,,,DQ8CP0,train_y,red_square,top_right,2025-02-12_16h41.04.365,HideSeek_v1,2022.2.5,59.94352118902234,
,9,8,9,7,0,-1,15,,train_dim1_1,9,30,,,,2,0,2,0,,,,,,,,,0,0,0,0,0,8,8,8,0,0,0,0,,,,,,,,,,,,,,,,,,,,,,,,,stimuli/alien_stimuli/15.png,,,,,,,,,,,,,,,,,,,,,,,,,,,,,stimuli/alien_stimuli/11.png,11,9,10,,,,,,,30,,,,,,,,2620.2730776998214,2620.2730776998214,2620.2730776998214,2620.2730776998214,2620.2730776998214,down,67.01111950003542,1,0,0,99,0.56,0.15999999999999998,down,66.91339110024273,,,,,2618.6984196000267,2620.2730776998214,0.56,-0.24,0.4,0.0,-0.039999999999999994,0.56,0.56,0.56,-0.24,2608.1578798999544,2608.1578798999544,2608.1578798999544,2608.1578798999544,2608.1578798999544,2608.1578798999544,2608.1578798999544,2608.1578798999544,2608.156312049739,10.677672199904919,return,10.515818300191313,,,,,,,,,,,,,,,,,,,,,,,,,,,,,,,,,DQ8CP0,train_y,red_square,top_right,2025-02-12_16h41.04.365,HideSeek_v1,2022.2.5,59.94352118902234,
,9,8,9,7,0,-1,15,,train_dim1_1,9,30,,,,2,0,2,0,,,,,,,,,0,0,0,0,0,8,8,8,1,0,1,0,,,,,,,,,,,,,,,,,,,,,,,,,,,,,,,,,,,,,,,,,,,,,,,,,,,,,,,,,,,,,,,,30,,,,,,,,2687.291189099895,2687.291189099895,2687.291189099895,2687.291189099895,2687.291189099895,down,0.34245139989070594,1,0,0,99,0.56,0.07999999999999997,down,0.23247590009123087,,,,,,,,,,,,,,,,,,,,,,,,,,,,,,,,,,,,,,,,,,,,,,,,,,,,,,,,,,,,DQ8CP0,train_y,red_square,top_right,2025-02-12_16h41.04.365,HideSeek_v1,2022.2.5,59.94352118902234,
,9,8,9,7,0,-1,15,,train_dim1_1,9,30,,,,2,0,2,0,,,,,,,,,0,0,0,0,0,8,8,8,2,0,2,0,,,,,,,,,,,,,,,,,,,,,,,,,,,,,,,,,,,,,,,,,,,,,,,,,,,,,,,,,,,,,,,,30,,,,,,,,2687.62424119981,2687.62424119981,2687.62424119981,2687.62424119981,2687.62424119981,down,0.27646399987861514,1,0,0,99,0.56,-2.7755575615628914e-17,down,0.19589520012959838,,,,,,,,,,,,,,,,,,,,,,,,,,,,,,,,,,,,,,,,,,,,,,,,,,,,,,,,,,,,DQ8CP0,train_y,red_square,top_right,2025-02-12_16h41.04.365,HideSeek_v1,2022.2.5,59.94352118902234,
,9,8,9,7,0,-1,15,,train_dim1_1,9,30,,,,2,0,2,0,,,,,,,,,0,0,0,0,0,8,8,8,3,0,3,0,,,,,,,,,,,,,,,,,,,,,,,,,,,,,,,,,,,,,,,,,,,,,,,,,,,,,,,,,,,,,,,,30,,,,,,,,2687.9079952000175,2687.9079952000175,2687.9079952000175,2687.9079952000175,2687.9079952000175,down,0.32668109983205795,1,0,0,99,0.56,-0.08000000000000003,down,0.24317190004512668,,,,,,,,,,,,,,,,,,,,,,,,,,,,,,,,,,,,,,,,,,,,,,,,,,,,,,,,,,,,DQ8CP0,train_y,red_square,top_right,2025-02-12_16h41.04.365,HideSeek_v1,2022.2.5,59.94352118902234,
,9,8,9,7,0,-1,15,,train_dim1_1,9,30,,,,2,0,2,0,,,,,,,,,0,0,0,0,0,8,8,8,4,0,4,0,,,,,,,,,,,,,,,,,,,,,,,,,,,,,,,,,,,,,,,,,,,,,,,,,,,,,,,,,,,,,,,,30,,,,,,,,2688.2408639998175,2688.2408639998175,2688.2408639998175,2688.2408639998175,2688.2408639998175,down,0.4933482001069933,1,0,0,99,0.56,-0.16000000000000003,down,0.40651110000908375,,,,,,,,,,,,,,,,,,,,,,,,,,,,,,,,,,,,,,,,,,,,,,,,,,,,,,,,,,,,DQ8CP0,train_y,red_square,top_right,2025-02-12_16h41.04.365,HideSeek_v1,2022.2.5,59.94352118902234,
,9,8,9,7,0,-1,15,,train_dim1_1,9,30,,,,2,0,2,0,,,,,,,,,0,0,0,0,0,8,8,8,5,0,5,0,,,,,,,,,,,,,,,,,,,,,,,,,,,,,,,,,,,,,,,,,,,,,,,,,,,,,,,,,,,,,,,,30,,,,,,,,2688.7415312000085,2688.7415312000085,2688.7415312000085,2688.7415312000085,2688.7415312000085,down,0.4598676001187414,1,0,0,99,0.56,-0.24000000000000005,down,0.3667683999519795,,,,,,,,,,,,,,,,,,,,,,,,,,,,,,,,,,,,,,,,,,,,,,,,,,,,,,,,,,,,DQ8CP0,train_y,red_square,top_right,2025-02-12_16h41.04.365,HideSeek_v1,2022.2.5,59.94352118902234,
,9,8,9,7,0,-1,15,,train_dim1_1,9,30,,,,2,0,2,0,,,,,,,,,0,0,0,0,0,8,8,8,6,0,6,0,,,,,,,,,,,,,,,,,,,,,,,,,,,,,,,,,,,,,,,,,,,,,,,,,,,,,,,,,,,,,,,,30,,,,,,,,2689.2076807999983,2689.2076807999983,2689.2076807999983,2689.2076807999983,2689.2076807999983,down,0.4601662999484688,1,0,0,99,0.56,-0.32000000000000006,down,0.37822260009124875,,,,,,,,,,,,,,,,,,,,,,,,,,,,,,,,,,,,,,,,,,,,,,,,,,,,,,,,,,,,DQ8CP0,train_y,red_square,top_right,2025-02-12_16h41.04.365,HideSeek_v1,2022.2.5,59.94352118902234,
,9,8,9,7,0,-1,15,,train_dim1_1,9,30,,,,2,0,2,0,,,,,,,,,0,0,0,0,0,8,8,8,7,0,7,0,,,,,,,,,,,,,,,,,,,,,,,,,,,,,,,,,,,,,,,,,,,,,,,,,,,,,,,,,,,,,,,,30,,,,,,,,2689.675375699997,2689.675375699997,2689.675375699997,2689.675375699997,2689.675375699997,return,0.7099190000444651,1,0,0,0,0.56,-0.32000000000000006,return,0.622074699960649,-29,3,0.56,-0.32000000000000006,,,,,,,,,,,,,,,,,,,,,,,,,,,,,,,,,,,,,,,,,,,,,,,,,,,,,,,,DQ8CP0,train_y,red_square,top_right,2025-02-12_16h41.04.365,HideSeek_v1,2022.2.5,59.94352118902234,
,7,7,7,7,0,0,16,,train_dim1_1,10,30,,,,2,0,2,0,,,,,,,,,0,0,0,0,0,9,9,9,0,0,0,0,,,,,,,,,,,,,,,,,,,,,,,,,stimuli/alien_stimuli/16.png,,,,,,,,,,,,,,,,,,,,,,,,,,,,,stimuli/alien_stimuli/15.png,15,9,11,,,,,,,30,,,,,,,,2703.550704699941,2703.550704699941,2703.550704699941,2703.550704699941,2703.550704699941,down,2.936453300062567,1,0,0,99,0.4,0.08,down,2.8343458001036197,,,,,2701.9673685999587,2703.550704699941,0.56,0.16,0.08,0.0,0.2,0.56,0.56,0.56,0.16,2691.9679668999743,2691.9679668999743,2691.9679668999743,2691.9679668999743,2691.9679668999743,2691.9679668999743,2691.9679668999743,2691.9679668999743,2691.9590293998367,10.127508100122213,return,9.978812400018796,,,,,,,,,,,,,,,,,,,,,,,,,,,,,,,,,DQ8CP0,train_y,red_square,top_right,2025-02-12_16h41.04.365,HideSeek_v1,2022.2.5,59.94352118902234,
,7,7,7,7,0,0,16,,train_dim1_1,10,30,,,,2,0,2,0,,,,,,,,,0,0,0,0,0,9,9,9,1,0,1,0,,,,,,,,,,,,,,,,,,,,,,,,,,,,,,,,,,,,,,,,,,,,,,,,,,,,,,,,,,,,,,,,30,,,,,,,,2706.47280709981,2706.47280709981,2706.47280709981,2706.47280709981,2706.47280709981,down,0.29193509998731315,1,0,0,99,0.4,0.0,down,0.20541639998555183,,,,,,,,,,,,,,,,,,,,,,,,,,,,,,,,,,,,,,,,,,,,,,,,,,,,,,,,,,,,DQ8CP0,train_y,red_square,top_right,2025-02-12_16h41.04.365,HideSeek_v1,2022.2.5,59.94352118902234,
,7,7,7,7,0,0,16,,train_dim1_1,10,30,,,,2,0,2,0,,,,,,,,,0,0,0,0,0,9,9,9,2,0,2,0,,,,,,,,,,,,,,,,,,,,,,,,,,,,,,,,,,,,,,,,,,,,,,,,,,,,,,,,,,,,,,,,30,,,,,,,,2706.7714750999585,2706.7714750999585,2706.7714750999585,2706.7714750999585,2706.7714750999585,down,0.2936356000136584,1,0,0,99,0.4,-0.08,down,0.20786420023068786,,,,,,,,,,,,,,,,,,,,,,,,,,,,,,,,,,,,,,,,,,,,,,,,,,,,,,,,,,,,DQ8CP0,train_y,red_square,top_right,2025-02-12_16h41.04.365,HideSeek_v1,2022.2.5,59.94352118902234,
,7,7,7,7,0,0,16,,train_dim1_1,10,30,,,,2,0,2,0,,,,,,,,,0,0,0,0,0,9,9,9,3,0,3,0,,,,,,,,,,,,,,,,,,,,,,,,,,,,,,,,,,,,,,,,,,,,,,,,,,,,,,,,,,,,,,,,30,,,,,,,,2707.07198769995,2707.07198769995,2707.07198769995,2707.07198769995,2707.07198769995,down,0.37646570010110736,1,0,0,99,0.4,-0.16,down,0.28455120022408664,,,,,,,,,,,,,,,,,,,,,,,,,,,,,,,,,,,,,,,,,,,,,,,,,,,,,,,,,,,,DQ8CP0,train_y,red_square,top_right,2025-02-12_16h41.04.365,HideSeek_v1,2022.2.5,59.94352118902234,
,7,7,7,7,0,0,16,,train_dim1_1,10,30,,,,2,0,2,0,,,,,,,,,0,0,0,0,0,9,9,9,4,0,4,0,,,,,,,,,,,,,,,,,,,,,,,,,,,,,,,,,,,,,,,,,,,,,,,,,,,,,,,,,,,,,,,,30,,,,,,,,2707.4564628999215,2707.4564628999215,2707.4564628999215,2707.4564628999215,2707.4564628999215,return,1.1104950997978449,1,0,0,0,0.4,-0.16,return,1.0184538001194596,-33,3,0.4,-0.16,,,,,,,,,,,,,,,,,,,,,,,,,,,,,,,,,,,,,,,,,,,,,,,,,,,,,,,,DQ8CP0,train_y,red_square,top_right,2025-02-12_16h41.04.365,HideSeek_v1,2022.2.5,59.94352118902234,
,9,6,9,5,0,-1,15,,train_dim1_1,11,30,,,,2,0,2,0,,,,,,,,,0,0,0,0,0,10,10,10,0,0,0,0,,,,,,,,,,,,,,,,,,,,,,,,,stimuli/alien_stimuli/15.png,,,,,,,,,,,,,,,,,,,,,,,,,,,,,stimuli/alien_stimuli/16.png,16,7,12,,,,,,,30,,,,,,,,2715.5042465999722,2715.5042465999722,2715.5042465999722,2715.5042465999722,2715.5042465999722,down,0.9027668000198901,1,0,0,99,0.56,0.0,down,0.8163787999656051,,,,,2713.943900599843,2715.5042465999722,0.4,0.16,0.0,0.0,0.16,0.4,0.4,0.4,0.16,2710.1402267999947,2710.1402267999947,2710.1402267999947,2710.1402267999947,2710.1402267999947,2710.1402267999947,2710.1402267999947,2710.1402267999947,2710.140729999915,3.9222899000160396,return,3.779457400087267,,,,,,,,,,,,,,,,,,,,,,,,,,,,,,,,,DQ8CP0,train_y,red_square,top_right,2025-02-12_16h41.04.365,HideSeek_v1,2022.2.5,59.94352118902234,
,9,6,9,5,0,-1,15,,train_dim1_1,11,30,,,,2,0,2,0,,,,,,,,,0,0,0,0,0,10,10,10,1,0,1,0,,,,,,,,,,,,,,,,,,,,,,,,,,,,,,,,,,,,,,,,,,,,,,,,,,,,,,,,,,,,,,,,30,,,,,,,,2716.414046099875,2716.414046099875,2716.414046099875,2716.414046099875,2716.414046099875,down,0.29269880009815097,1,0,0,99,0.56,-0.08,down,0.2041801002342254,,,,,,,,,,,,,,,,,,,,,,,,,,,,,,,,,,,,,,,,,,,,,,,,,,,,,,,,,,,,DQ8CP0,train_y,red_square,top_right,2025-02-12_16h41.04.365,HideSeek_v1,2022.2.5,59.94352118902234,
,9,6,9,5,0,-1,15,,train_dim1_1,11,30,,,,2,0,2,0,,,,,,,,,0,0,0,0,0,10,10,10,2,0,2,0,,,,,,,,,,,,,,,,,,,,,,,,,,,,,,,,,,,,,,,,,,,,,,,,,,,,,,,,,,,,,,,,30,,,,,,,,2716.7148429998197,2716.7148429998197,2716.7148429998197,2716.7148429998197,2716.7148429998197,down,0.6601952000055462,1,0,0,99,0.56,-0.16,down,0.5687972002197057,,,,,,,,,,,,,,,,,,,,,,,,,,,,,,,,,,,,,,,,,,,,,,,,,,,,,,,,,,,,DQ8CP0,train_y,red_square,top_right,2025-02-12_16h41.04.365,HideSeek_v1,2022.2.5,59.94352118902234,
,9,6,9,5,0,-1,15,,train_dim1_1,11,30,,,,2,0,2,0,,,,,,,,,0,0,0,0,0,10,10,10,3,0,3,0,,,,,,,,,,,,,,,,,,,,,,,,,,,,,,,,,,,,,,,,,,,,,,,,,,,,,,,,,,,,,,,,30,,,,,,,,2717.380965899909,2717.380965899909,2717.380965899909,2717.380965899909,2717.380965899909,down,0.9271655001211911,1,0,0,99,0.56,-0.24,down,0.8486899000126868,,,,,,,,,,,,,,,,,,,,,,,,,,,,,,,,,,,,,,,,,,,,,,,,,,,,,,,,,,,,DQ8CP0,train_y,red_square,top_right,2025-02-12_16h41.04.365,HideSeek_v1,2022.2.5,59.94352118902234,
,9,6,9,5,0,-1,15,,train_dim1_1,11,30,,,,2,0,2,0,,,,,,,,,0,0,0,0,0,10,10,10,4,0,4,0,,,,,,,,,,,,,,,,,,,,,,,,,,,,,,,,,,,,,,,,,,,,,,,,,,,,,,,,,,,,,,,,30,,,,,,,,2718.3159469999373,2718.3159469999373,2718.3159469999373,2718.3159469999373,2718.3159469999373,return,0.7600805999245495,1,0,0,0,0.56,-0.24,return,0.6779281999915838,-37,3,0.56,-0.24,,,,,,,,,,,,,,,,,,,,,,,,,,,,,,,,,,,,,,,,,,,,,,,,,,,,,,,,DQ8CP0,train_y,red_square,top_right,2025-02-12_16h41.04.365,HideSeek_v1,2022.2.5,59.94352118902234,
,5,5,5,0,0,-5,11,,train_dim1_1,12,30,,,,2,0,2,0,,,,,,,,,0,0,0,0,0,11,11,11,0,0,0,0,,,,,,,,,,,,,,,,,,,,,,,,,stimuli/alien_stimuli/11.png,,,,,,,,,,,,,,,,,,,,,,,,,,,,,stimuli/alien_stimuli/15.png,15,9,13,,,,,,,30,,,,,,,,2729.3501217998564,2729.3501217998564,2729.3501217998564,2729.3501217998564,2729.3501217998564,down,4.655711299972609,1,0,0,99,0.24,-0.08,down,4.5660032001324,,,,,2727.7887466999236,2729.3501217998564,0.56,0,0.08,0.0,0.04,0.56,0.56,0.56,0,2720.6508322998416,2720.6508322998416,2720.6508322998416,2720.6508322998416,2720.6508322998416,2720.6508322998416,2720.6508322998416,2720.6508322998416,2720.6495746998585,7.258555900072679,return,7.107024700148031,,,,,,,,,,,,,,,,,,,,,,,,,,,,,,,,,DQ8CP0,train_y,red_square,top_right,2025-02-12_16h41.04.365,HideSeek_v1,2022.2.5,59.94352118902234,
,5,5,5,0,0,-5,11,,train_dim1_1,12,30,,,,2,0,2,0,,,,,,,,,0,0,0,0,0,11,11,11,1,0,1,0,,,,,,,,,,,,,,,,,,,,,,,,,,,,,,,,,,,,,,,,,,,,,,,,,,,,,,,,,,,,,,,,30,,,,,,,,2734.0133255999535,2734.0133255999535,2734.0133255999535,2734.0133255999535,2734.0133255999535,down,0.3750018000137061,1,0,0,99,0.24,-0.16,down,0.2970759002491832,,,,,,,,,,,,,,,,,,,,,,,,,,,,,,,,,,,,,,,,,,,,,,,,,,,,,,,,,,,,DQ8CP0,train_y,red_square,top_right,2025-02-12_16h41.04.365,HideSeek_v1,2022.2.5,59.94352118902234,
,5,5,5,0,0,-5,11,,train_dim1_1,12,30,,,,2,0,2,0,,,,,,,,,0,0,0,0,0,11,11,11,2,0,2,0,,,,,,,,,,,,,,,,,,,,,,,,,,,,,,,,,,,,,,,,,,,,,,,,,,,,,,,,,,,,,,,,30,,,,,,,,2734.395814199932,2734.395814199932,2734.395814199932,2734.395814199932,2734.395814199932,down,0.4936242999974638,1,0,0,99,0.24,-0.24,down,0.41452360013499856,,,,,,,,,,,,,,,,,,,,,,,,,,,,,,,,,,,,,,,,,,,,,,,,,,,,,,,,,,,,DQ8CP0,train_y,red_square,top_right,2025-02-12_16h41.04.365,HideSeek_v1,2022.2.5,59.94352118902234,
,5,5,5,0,0,-5,11,,train_dim1_1,12,30,,,,2,0,2,0,,,,,,,,,0,0,0,0,0,11,11,11,3,0,3,0,,,,,,,,,,,,,,,,,,,,,,,,,,,,,,,,,,,,,,,,,,,,,,,,,,,,,,,,,,,,,,,,30,,,,,,,,2734.895803499967,2734.895803499967,2734.895803499967,2734.895803499967,2734.895803499967,return,1.227237300015986,1,0,0,0,0.24,-0.24,return,1.145047500031069,-40,3,0.24,-0.24,,,,,,,,,,,,,,,,,,,,,,,,,,,,,,,,,,,,,,,,,,,,,,,,,,,,,,,,DQ8CP0,train_y,red_square,top_right,2025-02-12_16h41.04.365,HideSeek_v1,2022.2.5,59.94352118902234,
,9,8,9,4,0,-4,12,,train_dim1_1,13,30,,,,2,0,2,0,,,,,,,,,0,0,0,0,0,12,12,12,0,0,0,0,,,,,,,,,,,,,,,,,,,,,,,,,stimuli/alien_stimuli/12.png,,,,,,,,,,,,,,,,,,,,,,,,,,,,,stimuli/alien_stimuli/11.png,11,5,14,,,,,,,30,,,,,,,,2743.813741900027,2743.813741900027,2743.813741900027,2743.813741900027,2743.813741900027,down,1.022184700006619,1,0,0,99,0.56,0.15999999999999998,down,0.9282672002445906,,,,,2742.2506550999824,2743.813741900027,0.24,-0.4,0.4,0.0,-0.2,0.24,0.24,0.24,-0.4,2737.6952565999236,2737.6952565999236,2737.6952565999236,2737.6952565999236,2737.6952565999236,2737.6952565999236,2737.6952565999236,2737.6952565999236,2737.6968358997724,4.6727076000534,return,4.525463300058618,,,,,,,,,,,,,,,,,,,,,,,,,,,,,,,,,DQ8CP0,train_y,red_square,top_right,2025-02-12_16h41.04.365,HideSeek_v1,2022.2.5,59.94352118902234,
,9,8,9,4,0,-4,12,,train_dim1_1,13,30,,,,2,0,2,0,,,,,,,,,0,0,0,0,0,12,12,12,1,0,1,0,,,,,,,,,,,,,,,,,,,,,,,,,,,,,,,,,,,,,,,,,,,,,,,,,,,,,,,,,,,,,,,,30,,,,,,,,2744.838077499997,2744.838077499997,2744.838077499997,2744.838077499997,2744.838077499997,down,0.30925139994360507,1,0,0,99,0.56,0.07999999999999997,down,0.22719300026074052,,,,,,,,,,,,,,,,,,,,,,,,,,,,,,,,,,,,,,,,,,,,,,,,,,,,,,,,,,,,DQ8CP0,train_y,red_square,top_right,2025-02-12_16h41.04.365,HideSeek_v1,2022.2.5,59.94352118902234,
,9,8,9,4,0,-4,12,,train_dim1_1,13,30,,,,2,0,2,0,,,,,,,,,0,0,0,0,0,12,12,12,2,0,2,0,,,,,,,,,,,,,,,,,,,,,,,,,,,,,,,,,,,,,,,,,,,,,,,,,,,,,,,,,,,,,,,,30,,,,,,,,2745.155956499977,2745.155956499977,2745.155956499977,2745.155956499977,2745.155956499977,down,0.4600879999343306,1,0,0,99,0.56,-2.7755575615628914e-17,down,0.3668848001398146,,,,,,,,,,,,,,,,,,,,,,,,,,,,,,,,,,,,,,,,,,,,,,,,,,,,,,,,,,,,DQ8CP0,train_y,red_square,top_right,2025-02-12_16h41.04.365,HideSeek_v1,2022.2.5,59.94352118902234,
,9,8,9,4,0,-4,12,,train_dim1_1,13,30,,,,2,0,2,0,,,,,,,,,0,0,0,0,0,12,12,12,3,0,3,0,,,,,,,,,,,,,,,,,,,,,,,,,,,,,,,,,,,,,,,,,,,,,,,,,,,,,,,,,,,,,,,,30,,,,,,,,2745.6211039999034,2745.6211039999034,2745.6211039999034,2745.6211039999034,2745.6211039999034,return,5.530932999914512,1,1,0,0,0.56,-2.7755575615628914e-17,return,5.445219100220129,-43,3,0.56,-2.7755575615628914e-17,,,,,,,,,,,,,,,,,,,,,,,,,,,,,,,,,,,,,,,,,,,,,,,,,,,,,,,,DQ8CP0,train_y,red_square,top_right,2025-02-12_16h41.04.365,HideSeek_v1,2022.2.5,59.94352118902234,
,7,7,7,7,0,0,16,,train_dim1_1,14,30,,,,2,0,2,0,,,,,,,,,0,0,0,0,0,13,13,13,0,0,0,0,,,,,,,,,,,,,,,,,,,,,,,,,stimuli/alien_stimuli/16.png,,,,,,,,,,,,,,,,,,,,,,,,,,,,,stimuli/alien_stimuli/12.png,12,9,15,,,,,,,30,,,,,,,,2786.911989599932,2786.911989599932,2786.911989599932,2786.911989599932,2786.911989599932,down,2.1226517998147756,1,1,0,99,0.4,0.08,down,2.025550400139764,,,,,2785.3366074999794,2786.911989599932,0.56,-0.08,0.32,0.0,0.07999999999999999,0.56,0.56,0.56,-0.08,2752.7252394999377,2752.7252394999377,2752.7252394999377,2752.7252394999377,2752.7252394999377,2752.7252394999377,2752.7252394999377,2752.7252394999377,2752.7259997998367,32.72948609990999,return,32.579896700102836,,,,,,,,,,,,,,,,,,,,,,,,,,,,,,,,,DQ8CP0,train_y,red_square,top_right,2025-02-12_16h41.04.365,HideSeek_v1,2022.2.5,59.94352118902234,
,7,7,7,7,0,0,16,,train_dim1_1,14,30,,,,2,0,2,0,,,,,,,,,0,0,0,0,0,13,13,13,1,0,1,0,,,,,,,,,,,,,,,,,,,,,,,,,,,,,,,,,,,,,,,,,,,,,,,,,,,,,,,,,,,,,,,,30,,,,,,,,2789.024641599972,2789.024641599972,2789.024641599972,2789.024641599972,2789.024641599972,return,1.2095989000517875,1,1,0,0,0.4,0.08,return,1.1284145000390708,-44,3,0.4,0.08,,,,,,,,,,,,,,,,,,,,,,,,,,,,,,,,,,,,,,,,,,,,,,,,,,,,,,,,DQ8CP0,train_y,red_square,top_right,2025-02-12_16h41.04.365,HideSeek_v1,2022.2.5,59.94352118902234,
,6,9,6,6,0,-3,13,,train_dim1_1,15,30,,,,2,0,2,0,,,,,,,,,0,0,0,0,0,14,14,14,0,0,0,0,,,,,,,,,,,,,,,,,,,,,,,,,stimuli/alien_stimuli/13.png,,,,,,,,,,,,,,,,,,,,,,,,,,,,,stimuli/alien_stimuli/16.png,16,7,16,,,,,,,30,,,,,,,,2803.9555349999573,2803.9555349999573,2803.9555349999573,2803.9555349999573,2803.9555349999573,down,3.4575681001879275,1,1,0,99,0.32,0.24,down,3.353648300282657,,,,,2802.3838823998813,2803.9555349999573,0.4,0.16,0.0,0.0,0.16,0.4,0.4,0.4,0.16,2791.8102181998547,2791.8102181998547,2791.8102181998547,2791.8102181998547,2791.8102181998547,2791.8102181998547,2791.8102181998547,2791.8102181998547,2791.8082994998435,10.694420700194314,return,10.55101150018163,,,,,,,,,,,,,,,,,,,,,,,,,,,,,,,,,DQ8CP0,train_y,red_square,top_right,2025-02-12_16h41.04.365,HideSeek_v1,2022.2.5,59.94352118902234,
,6,9,6,6,0,-3,13,,train_dim1_1,15,30,,,,2,0,2,0,,,,,,,,,0,0,0,0,0,14,14,14,1,0,1,0,,,,,,,,,,,,,,,,,,,,,,,,,,,,,,,,,,,,,,,,,,,,,,,,,,,,,,,,,,,,,,,,30,,,,,,,,2807.4058521999978,2807.4058521999978,2807.4058521999978,2807.4058521999978,2807.4058521999978,down,0.2423749000299722,1,1,0,99,0.32,0.15999999999999998,down,0.15379439992830157,,,,,,,,,,,,,,,,,,,,,,,,,,,,,,,,,,,,,,,,,,,,,,,,,,,,,,,,,,,,DQ8CP0,train_y,red_square,top_right,2025-02-12_16h41.04.365,HideSeek_v1,2022.2.5,59.94352118902234,
,6,9,6,6,0,-3,13,,train_dim1_1,15,30,,,,2,0,2,0,,,,,,,,,0,0,0,0,0,14,14,14,2,0,2,0,,,,,,,,,,,,,,,,,,,,,,,,,,,,,,,,,,,,,,,,,,,,,,,,,,,,,,,,,,,,,,,,30,,,,,,,,2807.654932799982,2807.654932799982,2807.654932799982,2807.654932799982,2807.654932799982,down,0.2431349998805672,1,1,0,99,0.32,0.07999999999999997,down,0.16267800028435886,,,,,,,,,,,,,,,,,,,,,,,,,,,,,,,,,,,,,,,,,,,,,,,,,,,,,,,,,,,,DQ8CP0,train_y,red_square,top_right,2025-02-12_16h41.04.365,HideSeek_v1,2022.2.5,59.94352118902234,
,6,9,6,6,0,-3,13,,train_dim1_1,15,30,,,,2,0,2,0,,,,,,,,,0,0,0,0,0,14,14,14,3,0,3,0,,,,,,,,,,,,,,,,,,,,,,,,,,,,,,,,,,,,,,,,,,,,,,,,,,,,,,,,,,,,,,,,30,,,,,,,,2807.9060187998693,2807.9060187998693,2807.9060187998693,2807.9060187998693,2807.9060187998693,return,1.6781975999474525,2,0,0,1,0.32,0.07999999999999997,return,1.601507700048387,-47,3,0.32,0.07999999999999997,,,,,,,,,,,,,,,,,,,,,,,,,,,,,,,,,,,,,,,,,,,,,,,,,,,,,,,,DQ8CP0,train_y,red_square,top_right,2025-02-12_16h41.04.365,HideSeek_v1,2022.2.5,59.94352118902234,
,9,5,9,4,0,-1,15,,train_dim1_1,16,30,,,,2,0,2,0,,,,,,,,,0,0,0,0,0,15,15,15,0,0,0,0,,,,,,,,,,,,,,,,,,,,,,,,,stimuli/alien_stimuli/15.png,,,,,,,,,,,,,,,,,,,,,,,,,,,,,stimuli/alien_stimuli/13.png,13,6,17,,,,,,,30,,,,,,,,2817.170245899819,2817.170245899819,2817.170245899819,2817.170245899819,2817.170245899819,down,4.424284800188616,2,0,0,99,0.56,-0.08,down,4.342446000082418,,,,,2815.6117030999158,2817.170245899819,0.32,0.08,0.24,0.0,0.2,0.32,0.32,0.32,0.08,2811.1586042998824,2811.1586042998824,2811.1586042998824,2811.1586042998824,2811.1586042998824,2811.1586042998824,2811.1586042998824,2811.1586042998824,2811.157687399816,4.572967000072822,return,4.434970300178975,,,,,,,,,,,,,,,,,,,,,,,,,,,,,,,,,DQ8CP0,train_y,red_square,top_right,2025-02-12_16h41.04.365,HideSeek_v1,2022.2.5,59.94352118902234,
,9,5,9,4,0,-1,15,,train_dim1_1,16,30,,,,2,0,2,0,,,,,,,,,0,0,0,0,0,15,15,15,1,0,1,0,,,,,,,,,,,,,,,,,,,,,,,,,,,,,,,,,,,,,,,,,,,,,,,,,,,,,,,,,,,,,,,,30,,,,,,,,2821.602055999916,2821.602055999916,2821.602055999916,2821.602055999916,2821.602055999916,down,3.5455809000413865,2,0,0,99,0.56,-0.16,down,3.4557155000511557,,,,,,,,,,,,,,,,,,,,,,,,,,,,,,,,,,,,,,,,,,,,,,,,,,,,,,,,,,,,DQ8CP0,train_y,red_square,top_right,2025-02-12_16h41.04.365,HideSeek_v1,2022.2.5,59.94352118902234,
,9,5,9,4,0,-1,15,,train_dim1_1,16,30,,,,2,0,2,0,,,,,,,,,0,0,0,0,0,15,15,15,2,0,2,0,,,,,,,,,,,,,,,,,,,,,,,,,,,,,,,,,,,,,,,,,,,,,,,,,,,,,,,,,,,,,,,,30,,,,,,,,2825.1554459999315,2825.1554459999315,2825.1554459999315,2825.1554459999315,2825.1554459999315,down,0.525566800031811,2,0,0,99,0.56,-0.24,down,0.4430246001575142,,,,,,,,,,,,,,,,,,,,,,,,,,,,,,,,,,,,,,,,,,,,,,,,,,,,,,,,,,,,DQ8CP0,train_y,red_square,top_right,2025-02-12_16h41.04.365,HideSeek_v1,2022.2.5,59.94352118902234,
,9,5,9,4,0,-1,15,,train_dim1_1,16,30,,,,2,0,2,0,,,,,,,,,0,0,0,0,0,15,15,15,3,0,3,0,,,,,,,,,,,,,,,,,,,,,,,,,,,,,,,,,,,,,,,,,,,,,,,,,,,,,,,,,,,,,,,,30,,,,,,,,2825.6876222998835,2825.6876222998835,2825.6876222998835,2825.6876222998835,2825.6876222998835,down,0.39319510012865067,2,0,0,99,0.56,-0.32,down,0.31605090014636517,,,,,,,,,,,,,,,,,,,,,,,,,,,,,,,,,,,,,,,,,,,,,,,,,,,,,,,,,,,,DQ8CP0,train_y,red_square,top_right,2025-02-12_16h41.04.365,HideSeek_v1,2022.2.5,59.94352118902234,
,9,5,9,4,0,-1,15,,train_dim1_1,16,30,,,,2,0,2,0,,,,,,,,,0,0,0,0,0,15,15,15,4,0,4,0,,,,,,,,,,,,,,,,,,,,,,,,,,,,,,,,,,,,,,,,,,,,,,,,,,,,,,,,,,,,,,,,30,,,,,,,,2826.0885268999264,2826.0885268999264,2826.0885268999264,2826.0885268999264,2826.0885268999264,down,0.17671029991470277,2,0,0,99,0.56,-0.4,down,0.09116340009495616,,,,,,,,,,,,,,,,,,,,,,,,,,,,,,,,,,,,,,,,,,,,,,,,,,,,,,,,,,,,DQ8CP0,train_y,red_square,top_right,2025-02-12_16h41.04.365,HideSeek_v1,2022.2.5,59.94352118902234,
,9,5,9,4,0,-1,15,,train_dim1_1,16,30,,,,2,0,2,0,,,,,,,,,0,0,0,0,0,15,15,15,5,0,5,0,,,,,,,,,,,,,,,,,,,,,,,,,,,,,,,,,,,,,,,,,,,,,,,,,,,,,,,,,,,,,,,,30,,,,,,,,2826.271699300036,2826.271699300036,2826.271699300036,2826.271699300036,2826.271699300036,up,1.1271211998537183,2,0,0,99,0.56,-0.32,up,1.0445097999181598,,,,,,,,,,,,,,,,,,,,,,,,,,,,,,,,,,,,,,,,,,,,,,,,,,,,,,,,,,,,DQ8CP0,train_y,red_square,top_right,2025-02-12_16h41.04.365,HideSeek_v1,2022.2.5,59.94352118902234,
,9,5,9,4,0,-1,15,,train_dim1_1,16,30,,,,2,0,2,0,,,,,,,,,0,0,0,0,0,15,15,15,6,0,6,0,,,,,,,,,,,,,,,,,,,,,,,,,,,,,,,,,,,,,,,,,,,,,,,,,,,,,,,,,,,,,,,,30,,,,,,,,2827.4166079999413,2827.4166079999413,2827.4166079999413,2827.4166079999413,2827.4166079999413,return,0.5768202000763267,2,0,0,0,0.56,-0.32,return,0.48820660007186234,-51,3,0.56,-0.32,,,,,,,,,,,,,,,,,,,,,,,,,,,,,,,,,,,,,,,,,,,,,,,,,,,,,,,,DQ8CP0,train_y,red_square,top_right,2025-02-12_16h41.04.365,HideSeek_v1,2022.2.5,59.94352118902234,
,8,8,8,5,0,-3,13,,train_dim1_1,17,30,,,,2,0,2,0,,,,,,,,,0,0,0,0,0,16,16,16,0,0,0,0,,,,,,,,,,,,,,,,,,,,,,,,,stimuli/alien_stimuli/13.png,,,,,,,,,,,,,,,,,,,,,,,,,,,,,stimuli/alien_stimuli/15.png,15,9,18,,,,,,,30,,,,,,,,2835.4496805998497,2835.4496805998497,2835.4496805998497,2835.4496805998497,2835.4496805998497,down,2.2737937001511455,2,0,0,99,0.48,0.15999999999999998,down,2.187267699977383,,,,,2833.8936316999607,2835.4496805998497,0.56,-0.08,0.08,0.0,-0.04,0.56,0.56,0.56,-0.08,2829.5542037999257,2829.5542037999257,2829.5542037999257,2829.5542037999257,2829.5542037999257,2829.5542037999257,2829.5542037999257,2829.5542037999257,2829.5397099498196,4.456323900027201,return,4.323521800106391,,,,,,,,,,,,,,,,,,,,,,,,,,,,,,,,,DQ8CP0,train_y,red_square,top_right,2025-02-12_16h41.04.365,HideSeek_v1,2022.2.5,59.94352118902234,
,8,8,8,5,0,-3,13,,train_dim1_1,17,30,,,,2,0,2,0,,,,,,,,,0,0,0,0,0,16,16,16,1,0,1,0,,,,,,,,,,,,,,,,,,,,,,,,,,,,,,,,,,,,,,,,,,,,,,,,,,,,,,,,,,,,,,,,30,,,,,,,,2837.7310099999886,2837.7310099999886,2837.7310099999886,2837.7310099999886,2837.7310099999886,down,0.30977299995720387,2,0,0,99,0.48,0.07999999999999997,down,0.23268440016545355,,,,,,,,,,,,,,,,,,,,,,,,,,,,,,,,,,,,,,,,,,,,,,,,,,,,,,,,,,,,DQ8CP0,train_y,red_square,top_right,2025-02-12_16h41.04.365,HideSeek_v1,2022.2.5,59.94352118902234,
,8,8,8,5,0,-3,13,,train_dim1_1,17,30,,,,2,0,2,0,,,,,,,,,0,0,0,0,0,16,16,16,2,0,2,0,,,,,,,,,,,,,,,,,,,,,,,,,,,,,,,,,,,,,,,,,,,,,,,,,,,,,,,,,,,,,,,,30,,,,,,,,2838.0504602999426,2838.0504602999426,2838.0504602999426,2838.0504602999426,2838.0504602999426,down,0.3433592999354005,2,0,0,99,0.48,-2.7755575615628914e-17,down,0.26281760004349053,,,,,,,,,,,,,,,,,,,,,,,,,,,,,,,,,,,,,,,,,,,,,,,,,,,,,,,,,,,,DQ8CP0,train_y,red_square,top_right,2025-02-12_16h41.04.365,HideSeek_v1,2022.2.5,59.94352118902234,
,8,8,8,5,0,-3,13,,train_dim1_1,17,30,,,,2,0,2,0,,,,,,,,,0,0,0,0,0,16,16,16,3,0,3,0,,,,,,,,,,,,,,,,,,,,,,,,,,,,,,,,,,,,,,,,,,,,,,,,,,,,,,,,,,,,,,,,30,,,,,,,,2838.3971479998436,2838.3971479998436,2838.3971479998436,2838.3971479998436,2838.3971479998436,down,0.7935801998246461,2,0,0,99,0.48,-0.08000000000000003,down,0.7091404001694173,,,,,,,,,,,,,,,,,,,,,,,,,,,,,,,,,,,,,,,,,,,,,,,,,,,,,,,,,,,,DQ8CP0,train_y,red_square,top_right,2025-02-12_16h41.04.365,HideSeek_v1,2022.2.5,59.94352118902234,
,8,8,8,5,0,-3,13,,train_dim1_1,17,30,,,,2,0,2,0,,,,,,,,,0,0,0,0,0,16,16,16,4,0,4,0,,,,,,,,,,,,,,,,,,,,,,,,,,,,,,,,,,,,,,,,,,,,,,,,,,,,,,,,,,,,,,,,30,,,,,,,,2839.197976999916,2839.197976999916,2839.197976999916,2839.197976999916,2839.197976999916,down,0.24327690014615655,2,0,0,99,0.48,-0.16000000000000003,down,0.1520062000490725,,,,,,,,,,,,,,,,,,,,,,,,,,,,,,,,,,,,,,,,,,,,,,,,,,,,,,,,,,,,DQ8CP0,train_y,red_square,top_right,2025-02-12_16h41.04.365,HideSeek_v1,2022.2.5,59.94352118902234,
,8,8,8,5,0,-3,13,,train_dim1_1,17,30,,,,2,0,2,0,,,,,,,,,0,0,0,0,0,16,16,16,5,0,5,0,,,,,,,,,,,,,,,,,,,,,,,,,,,,,,,,,,,,,,,,,,,,,,,,,,,,,,,,,,,,,,,,30,,,,,,,,2839.448606699938,2839.448606699938,2839.448606699938,2839.448606699938,2839.448606699938,return,0.4270812999457121,2,0,0,0,0.48,-0.16000000000000003,return,0.344481100095436,-56,3,0.48,-0.16000000000000003,,,,,,,,,,,,,,,,,,,,,,,,,,,,,,,,,,,,,,,,,,,,,,,,,,,,,,,,DQ8CP0,train_y,red_square,top_right,2025-02-12_16h41.04.365,HideSeek_v1,2022.2.5,59.94352118902234,
,7,6,7,1,0,-5,11,,train_dim1_1,18,30,,,,2,0,2,0,,,,,,,,,0,0,0,0,0,17,17,17,0,0,0,0,,,,,,,,,,,,,,,,,,,,,,,,,stimuli/alien_stimuli/11.png,,,,,,,,,,,,,,,,,,,,,,,,,,,,,stimuli/alien_stimuli/13.png,13,8,19,,,,,,,30,,,,,,,,2847.5439366998617,2847.5439366998617,2847.5439366998617,2847.5439366998617,2847.5439366998617,down,2.9913401999510825,2,0,0,99,0.4,0.0,down,2.911130800144747,,,,,2845.986708499957,2847.5439366998617,0.48,0,0.24,0.0,0.12,0.48,0.48,0.48,0,2841.447130299872,2841.447130299872,2841.447130299872,2841.447130299872,2841.447130299872,2841.447130299872,2841.447130299872,2841.447130299872,2841.4330242499245,4.657568000024185,return,4.515079900156707,,,,,,,,,,,,,,,,,,,,,,,,,,,,,,,,,DQ8CP0,train_y,red_square,top_right,2025-02-12_16h41.04.365,HideSeek_v1,2022.2.5,59.94352118902234,
,7,6,7,1,0,-5,11,,train_dim1_1,18,30,,,,2,0,2,0,,,,,,,,,0,0,0,0,0,17,17,17,1,0,1,0,,,,,,,,,,,,,,,,,,,,,,,,,,,,,,,,,,,,,,,,,,,,,,,,,,,,,,,,,,,,,,,,30,,,,,,,,2850.5423041998874,2850.5423041998874,2850.5423041998874,2850.5423041998874,2850.5423041998874,down,0.6762300999835134,2,0,0,99,0.4,-0.08,down,0.5914519000798464,,,,,,,,,,,,,,,,,,,,,,,,,,,,,,,,,,,,,,,,,,,,,,,,,,,,,,,,,,,,DQ8CP0,train_y,red_square,top_right,2025-02-12_16h41.04.365,HideSeek_v1,2022.2.5,59.94352118902234,
,7,6,7,1,0,-5,11,,train_dim1_1,18,30,,,,2,0,2,0,,,,,,,,,0,0,0,0,0,17,17,17,2,0,2,0,,,,,,,,,,,,,,,,,,,,,,,,,,,,,,,,,,,,,,,,,,,,,,,,,,,,,,,,,,,,,,,,30,,,,,,,,2851.2307266998105,2851.2307266998105,2851.2307266998105,2851.2307266998105,2851.2307266998105,down,0.5267454001586884,2,0,0,99,0.4,-0.16,down,0.4378158999606967,,,,,,,,,,,,,,,,,,,,,,,,,,,,,,,,,,,,,,,,,,,,,,,,,,,,,,,,,,,,DQ8CP0,train_y,red_square,top_right,2025-02-12_16h41.04.365,HideSeek_v1,2022.2.5,59.94352118902234,
,7,6,7,1,0,-5,11,,train_dim1_1,18,30,,,,2,0,2,0,,,,,,,,,0,0,0,0,0,17,17,17,3,0,3,0,,,,,,,,,,,,,,,,,,,,,,,,,,,,,,,,,,,,,,,,,,,,,,,,,,,,,,,,,,,,,,,,30,,,,,,,,2851.7588718000334,2851.7588718000334,2851.7588718000334,2851.7588718000334,2851.7588718000334,down,0.6935134001541883,2,0,0,99,0.4,-0.24,down,0.6081475000828505,,,,,,,,,,,,,,,,,,,,,,,,,,,,,,,,,,,,,,,,,,,,,,,,,,,,,,,,,,,,DQ8CP0,train_y,red_square,top_right,2025-02-12_16h41.04.365,HideSeek_v1,2022.2.5,59.94352118902234,
,7,6,7,1,0,-5,11,,train_dim1_1,18,30,,,,2,0,2,0,,,,,,,,,0,0,0,0,0,17,17,17,4,0,4,0,,,,,,,,,,,,,,,,,,,,,,,,,,,,,,,,,,,,,,,,,,,,,,,,,,,,,,,,,,,,,,,,30,,,,,,,,2852.4594413999002,2852.4594413999002,2852.4594413999002,2852.4594413999002,2852.4594413999002,down,0.14339350000955164,2,0,0,99,0.4,-0.32,down,0.06569040007889271,,,,,,,,,,,,,,,,,,,,,,,,,,,,,,,,,,,,,,,,,,,,,,,,,,,,,,,,,,,,DQ8CP0,train_y,red_square,top_right,2025-02-12_16h41.04.365,HideSeek_v1,2022.2.5,59.94352118902234,
,7,6,7,1,0,-5,11,,train_dim1_1,18,30,,,,2,0,2,0,,,,,,,,,0,0,0,0,0,17,17,17,5,0,5,0,,,,,,,,,,,,,,,,,,,,,,,,,,,,,,,,,,,,,,,,,,,,,,,,,,,,,,,,,,,,,,,,30,,,,,,,,2852.6104959000368,2852.6104959000368,2852.6104959000368,2852.6104959000368,2852.6104959000368,return,1.1771515000145882,3,0,0,1,0.4,-0.32,return,1.097327800001949,-61,3,0.4,-0.32,,,,,,,,,,,,,,,,,,,,,,,,,,,,,,,,,,,,,,,,,,,,,,,,,,,,,,,,DQ8CP0,train_y,red_square,top_right,2025-02-12_16h41.04.365,HideSeek_v1,2022.2.5,59.94352118902234,
,5,9,5,5,0,-4,12,,train_dim1_1,19,30,,,,2,0,2,0,,,,,,,,,0,0,0,0,0,18,18,18,0,0,0,0,,,,,,,,,,,,,,,,,,,,,,,,,stimuli/alien_stimuli/12.png,,,,,,,,,,,,,,,,,,,,,,,,,,,,,stimuli/alien_stimuli/11.png,11,7,20,,,,,,,30,,,,,,,,2861.440900599817,2861.440900599817,2861.440900599817,2861.440900599817,2861.440900599817,return,0.7205181999597698,3,0,0,0,0.24,0.32,return,0.6421495000831783,-61,3,0.24,0.32,2859.8818313998636,2861.440900599817,0.4,-0.32,0.4,0.0,-0.12,0.4,0.4,0.4,-0.32,2855.3599826998543,2855.3599826998543,2855.3599826998543,2855.3599826998543,2855.3599826998543,2855.3599826998543,2855.3599826998543,2855.3599826998543,2855.3610647998753,4.6395154998172075,return,4.4976127000991255,,,,,,,,,,,,,,,,,,,,,,,,,,,,,,,,,DQ8CP0,train_y,red_square,top_right,2025-02-12_16h41.04.365,HideSeek_v1,2022.2.5,59.94352118902234,
,7,5,7,5,0,0,16,,train_dim1_1,20,30,,,,2,0,2,0,,,,,,,,,0,0,0,0,0,19,19,19,0,0,0,0,,,,,,,,,,,,,,,,,,,,,,,,,stimuli/alien_stimuli/16.png,,,,,,,,,,,,,,,,,,,,,,,,,,,,,stimuli/alien_stimuli/12.png,12,5,21,,,,,,,30,,,,,,,,2869.0951841999777,2869.0951841999777,2869.0951841999777,2869.0951841999777,2869.0951841999777,down,12.098502800101414,3,0,0,99,0.4,-0.08,down,12.01394210010767,,,,,2867.537967399927,2869.0951841999777,0.24,0,0.32,0.0,0.16,0.24,0.24,0.24,0,2863.730859000003,2863.730859000003,2863.730859000003,2863.730859000003,2863.730859000003,2863.730859000003,2863.730859000003,2863.730859000003,2863.7181745499374,3.92189919995144,return,3.781173499999568,,,,,,,,,,,,,,,,,,,,,,,,,,,,,,,,,DQ8CP0,train_y,red_square,top_right,2025-02-12_16h41.04.365,HideSeek_v1,2022.2.5,59.94352118902234,
,7,5,7,5,0,0,16,,train_dim1_1,20,30,,,,2,0,2,0,,,,,,,,,0,0,0,0,0,19,19,19,1,0,1,0,,,,,,,,,,,,,,,,,,,,,,,,,,,,,,,,,,,,,,,,,,,,,,,,,,,,,,,,,,,,,,,,30,,,,,,,,2881.215739300009,2881.215739300009,2881.215739300009,2881.215739300009,2881.215739300009,return,18.47471300000325,3,1,0,0,0.4,-0.08,return,18.373060800135136,-62,3,0.4,-0.08,,,,,,,,,,,,,,,,,,,,,,,,,,,,,,,,,,,,,,,,,,,,,,,,,,,,,,,,DQ8CP0,train_y,red_square,top_right,2025-02-12_16h41.04.365,HideSeek_v1,2022.2.5,59.94352118902234,
,7,9,7,8,0,-1,15,,train_dim1_1,21,30,,,,2,0,2,0,,,,,,,,,0,0,0,0,0,20,20,20,0,0,0,0,,,,,,,,,,,,,,,,,,,,,,,,,stimuli/alien_stimuli/15.png,,,,,,,,,,,,,,,,,,,,,,,,,,,,,stimuli/alien_stimuli/16.png,16,7,22,,,,,,,30,,,,,,,,2909.8320418999065,2909.8320418999065,2909.8320418999065,2909.8320418999065,2909.8320418999065,return,3.287997999927029,3,1,0,0,0.4,0.32,return,3.208532700082287,-62,3,0.4,0.32,2908.271901199827,2909.8320418999065,0.4,0,0.0,0.0,0.0,0.4,0.4,0.4,0,2901.261529899901,2901.261529899901,2901.261529899901,2901.261529899901,2901.261529899901,2901.261529899901,2901.261529899901,2901.261529899901,2901.2492437998767,7.141284599900246,return,6.981768800178543,,,,,,,,,,,,,,,,,,,,,,,,,,,,,,,,,DQ8CP0,train_y,red_square,top_right,2025-02-12_16h41.04.365,HideSeek_v1,2022.2.5,59.94352118902234,
,5,7,5,4,0,-3,13,,train_dim1_1,22,30,,,,2,0,2,0,,,,,,,,,0,0,0,0,0,21,21,21,0,0,0,0,,,,,,,,,,,,,,,,,,,,,,,,,stimuli/alien_stimuli/13.png,,,,,,,,,,,,,,,,,,,,,,,,,,,,,stimuli/alien_stimuli/15.png,15,7,23,,,,,,,30,,,,,,,,2921.4214551998302,2921.4214551998302,2921.4214551998302,2921.4214551998302,2921.4214551998302,down,2.0899453999008983,3,1,0,99,0.24,0.08,down,2.001678400207311,,,,,2919.8646777998656,2921.4214551998302,0.4,0.24,0.08,0.0,0.28,0.4,0.4,0.4,0.24,2914.695239200024,2914.695239200024,2914.695239200024,2914.695239200024,2914.695239200024,2914.695239200024,2914.695239200024,2914.695239200024,2914.693588899961,5.2899545999243855,return,5.152035200037062,,,,,,,,,,,,,,,,,,,,,,,,,,,,,,,,,DQ8CP0,train_y,red_square,top_right,2025-02-12_16h41.04.365,HideSeek_v1,2022.2.5,59.94352118902234,
,5,7,5,4,0,-3,13,,train_dim1_1,22,30,,,,2,0,2,0,,,,,,,,,0,0,0,0,0,21,21,21,1,0,1,0,,,,,,,,,,,,,,,,,,,,,,,,,,,,,,,,,,,,,,,,,,,,,,,,,,,,,,,,,,,,,,,,30,,,,,,,,2923.518564299913,2923.518564299913,2923.518564299913,2923.518564299913,2923.518564299913,down,0.24289259989745915,3,1,0,99,0.24,0.0,down,0.161047900095582,,,,,,,,,,,,,,,,,,,,,,,,,,,,,,,,,,,,,,,,,,,,,,,,,,,,,,,,,,,,DQ8CP0,train_y,red_square,top_right,2025-02-12_16h41.04.365,HideSeek_v1,2022.2.5,59.94352118902234,
,5,7,5,4,0,-3,13,,train_dim1_1,22,30,,,,2,0,2,0,,,,,,,,,0,0,0,0,0,21,21,21,2,0,2,0,,,,,,,,,,,,,,,,,,,,,,,,,,,,,,,,,,,,,,,,,,,,,,,,,,,,,,,,,,,,,,,,30,,,,,,,,2923.7685601999983,2923.7685601999983,2923.7685601999983,2923.7685601999983,2923.7685601999983,down,0.2433437998406589,3,1,0,99,0.24,-0.08,down,0.15067970007658005,,,,,,,,,,,,,,,,,,,,,,,,,,,,,,,,,,,,,,,,,,,,,,,,,,,,,,,,,,,,DQ8CP0,train_y,red_square,top_right,2025-02-12_16h41.04.365,HideSeek_v1,2022.2.5,59.94352118902234,
,5,7,5,4,0,-3,13,,train_dim1_1,22,30,,,,2,0,2,0,,,,,,,,,0,0,0,0,0,21,21,21,3,0,3,0,,,,,,,,,,,,,,,,,,,,,,,,,,,,,,,,,,,,,,,,,,,,,,,,,,,,,,,,,,,,,,,,30,,,,,,,,2924.0247877000365,2924.0247877000365,2924.0247877000365,2924.0247877000365,2924.0247877000365,down,0.29289070004597306,3,1,0,99,0.24,-0.16,down,0.19955570017918944,,,,,,,,,,,,,,,,,,,,,,,,,,,,,,,,,,,,,,,,,,,,,,,,,,,,,,,,,,,,DQ8CP0,train_y,red_square,top_right,2025-02-12_16h41.04.365,HideSeek_v1,2022.2.5,59.94352118902234,
,5,7,5,4,0,-3,13,,train_dim1_1,22,30,,,,2,0,2,0,,,,,,,,,0,0,0,0,0,21,21,21,4,0,4,0,,,,,,,,,,,,,,,,,,,,,,,,,,,,,,,,,,,,,,,,,,,,,,,,,,,,,,,,,,,,,,,,30,,,,,,,,2924.3200061998796,2924.3200061998796,2924.3200061998796,2924.3200061998796,2924.3200061998796,return,0.5771902999840677,3,1,0,0,0.24,-0.16,return,0.4897384000942111,-66,3,0.24,-0.16,,,,,,,,,,,,,,,,,,,,,,,,,,,,,,,,,,,,,,,,,,,,,,,,,,,,,,,,DQ8CP0,train_y,red_square,top_right,2025-02-12_16h41.04.365,HideSeek_v1,2022.2.5,59.94352118902234,
,5,8,5,3,0,-5,11,,train_dim1_1,23,30,,,,2,0,2,0,,,,,,,,,0,0,0,0,0,22,22,22,0,0,0,0,,,,,,,,,,,,,,,,,,,,,,,,,stimuli/alien_stimuli/11.png,,,,,,,,,,,,,,,,,,,,,,,,,,,,,stimuli/alien_stimuli/13.png,13,5,24,,,,,,,30,,,,,,,,2932.5837746998295,2932.5837746998295,2932.5837746998295,2932.5837746998295,2932.5837746998295,return,1.6870097001083195,3,0,0,0,0.24,0.24,return,1.5950374000240117,-66,3,0.24,0.24,2931.024032199988,2932.5837746998295,0.24,-0.08,0.24,0.0,0.04,0.24,0.24,0.24,-0.08,2926.470759499818,2926.470759499818,2926.470759499818,2926.470759499818,2926.470759499818,2926.470759499818,2926.470759499818,2926.470759499818,2926.4699895999397,4.6728801999706775,return,4.536289700306952,,,,,,,,,,,,,,,,,,,,,,,,,,,,,,,,,DQ8CP0,train_y,red_square,top_right,2025-02-12_16h41.04.365,HideSeek_v1,2022.2.5,59.94352118902234,
,8,7,8,7,0,0,16,,train_dim1_1,24,30,,,,2,0,2,0,,,,,,,,,0,0,0,0,0,23,23,23,0,0,0,0,,,,,,,,,,,,,,,,,,,,,,,,,stimuli/alien_stimuli/16.png,,,,,,,,,,,,,,,,,,,,,,,,,,,,,stimuli/alien_stimuli/11.png,11,5,25,,,,,,,30,,,,,,,,2941.871643799823,2941.871643799823,2941.871643799823,2941.871643799823,2941.871643799823,down,2.191005399916321,3,0,0,99,0.48,0.08,down,2.098168200114742,,,,,2940.3150622998364,2941.871643799823,0.24,-0.16,0.4,0.0,0.039999999999999994,0.24,0.24,0.24,-0.16,2935.844655300025,2935.844655300025,2935.844655300025,2935.844655300025,2935.844655300025,2935.844655300025,2935.844655300025,2935.844655300025,2935.8447091999,4.589381699915975,return,4.440575200133026,,,,,,,,,,,,,,,,,,,,,,,,,,,,,,,,,DQ8CP0,train_y,red_square,top_right,2025-02-12_16h41.04.365,HideSeek_v1,2022.2.5,59.94352118902234,
,8,7,8,7,0,0,16,,train_dim1_1,24,30,,,,2,0,2,0,,,,,,,,,0,0,0,0,0,23,23,23,1,0,1,0,,,,,,,,,,,,,,,,,,,,,,,,,,,,,,,,,,,,,,,,,,,,,,,,,,,,,,,,,,,,,,,,30,,,,,,,,2944.0718614999205,2944.0718614999205,2944.0718614999205,2944.0718614999205,2944.0718614999205,return,1.7418631000909954,3,1,0,0,0.48,0.08,return,1.6569789999630302,-67,3,0.48,0.08,,,,,,,,,,,,,,,,,,,,,,,,,,,,,,,,,,,,,,,,,,,,,,,,,,,,,,,,DQ8CP0,train_y,red_square,top_right,2025-02-12_16h41.04.365,HideSeek_v1,2022.2.5,59.94352118902234,
,8,8,8,4,0,-4,12,,train_dim1_1,25,30,,,,2,0,2,0,,,,,,,,,0,0,0,0,0,24,24,24,0,0,0,0,,,,,,,,,,,,,,,,,,,,,,,,,stimuli/alien_stimuli/12.png,,,,,,,,,,,,,,,,,,,,,,,,,,,,,stimuli/alien_stimuli/16.png,16,8,26,,,,,,,30,,,,,,,,2952.5326131999027,2952.5326131999027,2952.5326131999027,2952.5326131999027,2952.5326131999027,down,1.3544193000998348,3,1,0,99,0.48,0.15999999999999998,down,1.2694899002090096,,,,,2950.973935900023,2952.5326131999027,0.48,0.16,0.0,0.0,0.16,0.48,0.48,0.48,0.16,2947.3835040000267,2947.3835040000267,2947.3835040000267,2947.3835040000267,2947.3835040000267,2947.3835040000267,2947.3835040000267,2947.3835040000267,2947.37065684977,3.705469299806282,return,3.573582300217822,,,,,,,,,,,,,,,,,,,,,,,,,,,,,,,,,DQ8CP0,train_y,red_square,top_right,2025-02-12_16h41.04.365,HideSeek_v1,2022.2.5,59.94352118902234,
,8,8,8,4,0,-4,12,,train_dim1_1,25,30,,,,2,0,2,0,,,,,,,,,0,0,0,0,0,24,24,24,1,0,1,0,,,,,,,,,,,,,,,,,,,,,,,,,,,,,,,,,,,,,,,,,,,,,,,,,,,,,,,,,,,,,,,,30,,,,,,,,2953.895169999916,2953.895169999916,2953.895169999916,2953.895169999916,2953.895169999916,down,0.2754877000115812,3,1,0,99,0.48,0.07999999999999997,down,0.18748759990558028,,,,,,,,,,,,,,,,,,,,,,,,,,,,,,,,,,,,,,,,,,,,,,,,,,,,,,,,,,,,DQ8CP0,train_y,red_square,top_right,2025-02-12_16h41.04.365,HideSeek_v1,2022.2.5,59.94352118902234,
,8,8,8,4,0,-4,12,,train_dim1_1,25,30,,,,2,0,2,0,,,,,,,,,0,0,0,0,0,24,24,24,2,0,2,0,,,,,,,,,,,,,,,,,,,,,,,,,,,,,,,,,,,,,,,,,,,,,,,,,,,,,,,,,,,,,,,,30,,,,,,,,2954.178594299825,2954.178594299825,2954.178594299825,2954.178594299825,2954.178594299825,down,0.2932448999490589,3,1,0,99,0.48,-2.7755575615628914e-17,down,0.21038340008817613,,,,,,,,,,,,,,,,,,,,,,,,,,,,,,,,,,,,,,,,,,,,,,,,,,,,,,,,,,,,DQ8CP0,train_y,red_square,top_right,2025-02-12_16h41.04.365,HideSeek_v1,2022.2.5,59.94352118902234,
,8,8,8,4,0,-4,12,,train_dim1_1,25,30,,,,2,0,2,0,,,,,,,,,0,0,0,0,0,24,24,24,3,0,3,0,,,,,,,,,,,,,,,,,,,,,,,,,,,,,,,,,,,,,,,,,,,,,,,,,,,,,,,,,,,,,,,,30,,,,,,,,2954.478443299886,2954.478443299886,2954.478443299886,2954.478443299886,2954.478443299886,down,0.36005749995820224,3,1,0,99,0.48,-0.08000000000000003,down,0.28140780003741384,,,,,,,,,,,,,,,,,,,,,,,,,,,,,,,,,,,,,,,,,,,,,,,,,,,,,,,,,,,,DQ8CP0,train_y,red_square,top_right,2025-02-12_16h41.04.365,HideSeek_v1,2022.2.5,59.94352118902234,
,8,8,8,4,0,-4,12,,train_dim1_1,25,30,,,,2,0,2,0,,,,,,,,,0,0,0,0,0,24,24,24,4,0,4,0,,,,,,,,,,,,,,,,,,,,,,,,,,,,,,,,,,,,,,,,,,,,,,,,,,,,,,,,,,,,,,,,30,,,,,,,,2954.8460242999718,2954.8460242999718,2954.8460242999718,2954.8460242999718,2954.8460242999718,down,0.8103379998356104,3,1,0,99,0.48,-0.16000000000000003,down,0.7265549001749605,,,,,,,,,,,,,,,,,,,,,,,,,,,,,,,,,,,,,,,,,,,,,,,,,,,,,,,,,,,,DQ8CP0,train_y,red_square,top_right,2025-02-12_16h41.04.365,HideSeek_v1,2022.2.5,59.94352118902234,
,8,8,8,4,0,-4,12,,train_dim1_1,25,30,,,,2,0,2,0,,,,,,,,,0,0,0,0,0,24,24,24,5,0,5,0,,,,,,,,,,,,,,,,,,,,,,,,,,,,,,,,,,,,,,,,,,,,,,,,,,,,,,,,,,,,,,,,30,,,,,,,,2955.661691499874,2955.661691499874,2955.661691499874,2955.661691499874,2955.661691499874,return,1.7111346998717636,3,1,0,0,0.48,-0.16000000000000003,return,1.6185141000896692,-72,3,0.48,-0.16000000000000003,,,,,,,,,,,,,,,,,,,,,,,,,,,,,,,,,,,,,,,,,,,,,,,,,,,,,,,,DQ8CP0,train_y,red_square,top_right,2025-02-12_16h41.04.365,HideSeek_v1,2022.2.5,59.94352118902234,
,9,9,9,6,0,-3,13,,train_dim1_1,26,30,,,,2,0,2,0,,,,,,,,,0,0,0,0,0,25,25,25,0,0,0,0,,,,,,,,,,,,,,,,,,,,,,,,,stimuli/alien_stimuli/13.png,,,,,,,,,,,,,,,,,,,,,,,,,,,,,stimuli/alien_stimuli/12.png,12,8,27,,,,,,,30,,,,,,,,2964.723964100005,2964.723964100005,2964.723964100005,2964.723964100005,2964.723964100005,down,2.1730520001146942,3,1,0,99,0.56,0.24,down,2.0896173000801355,,,,,2963.1672210998368,2964.723964100005,0.48,-0.08,0.32,0.0,0.07999999999999999,0.48,0.48,0.48,-0.08,2958.9474279999267,2958.9474279999267,2958.9474279999267,2958.9474279999267,2958.9474279999267,2958.9474279999267,2958.9474279999267,2958.9474279999267,2958.9468793997544,4.339565899921581,return,4.198423100169748,,,,,,,,,,,,,,,,,,,,,,,,,,,,,,,,,DQ8CP0,train_y,red_square,top_right,2025-02-12_16h41.04.365,HideSeek_v1,2022.2.5,59.94352118902234,
,9,9,9,6,0,-3,13,,train_dim1_1,26,30,,,,2,0,2,0,,,,,,,,,0,0,0,0,0,25,25,25,1,0,1,0,,,,,,,,,,,,,,,,,,,,,,,,,,,,,,,,,,,,,,,,,,,,,,,,,,,,,,,,,,,,,,,,30,,,,,,,,2966.9041303999256,2966.9041303999256,2966.9041303999256,2966.9041303999256,2966.9041303999256,down,0.2431497999932617,3,1,0,99,0.56,0.15999999999999998,down,0.15516660013236105,,,,,,,,,,,,,,,,,,,,,,,,,,,,,,,,,,,,,,,,,,,,,,,,,,,,,,,,,,,,DQ8CP0,train_y,red_square,top_right,2025-02-12_16h41.04.365,HideSeek_v1,2022.2.5,59.94352118902234,
,9,9,9,6,0,-3,13,,train_dim1_1,26,30,,,,2,0,2,0,,,,,,,,,0,0,0,0,0,25,25,25,2,0,2,0,,,,,,,,,,,,,,,,,,,,,,,,,,,,,,,,,,,,,,,,,,,,,,,,,,,,,,,,,,,,,,,,30,,,,,,,,2967.1542856998276,2967.1542856998276,2967.1542856998276,2967.1542856998276,2967.1542856998276,down,0.6770097000990063,3,1,0,99,0.56,0.07999999999999997,down,0.5984886002261192,,,,,,,,,,,,,,,,,,,,,,,,,,,,,,,,,,,,,,,,,,,,,,,,,,,,,,,,,,,,DQ8CP0,train_y,red_square,top_right,2025-02-12_16h41.04.365,HideSeek_v1,2022.2.5,59.94352118902234,
,9,9,9,6,0,-3,13,,train_dim1_1,26,30,,,,2,0,2,0,,,,,,,,,0,0,0,0,0,25,25,25,3,0,3,0,,,,,,,,,,,,,,,,,,,,,,,,,,,,,,,,,,,,,,,,,,,,,,,,,,,,,,,,,,,,,,,,30,,,,,,,,2967.837809599936,2967.837809599936,2967.837809599936,2967.837809599936,2967.837809599936,return,1.7944020999129862,4,0,0,1,0.56,0.07999999999999997,return,1.715278800111264,-75,3,0.56,0.07999999999999997,,,,,,,,,,,,,,,,,,,,,,,,,,,,,,,,,,,,,,,,,,,,,,,,,,,,,,,,DQ8CP0,train_y,red_square,top_right,2025-02-12_16h41.04.365,HideSeek_v1,2022.2.5,59.94352118902234,
,8,9,8,9,0,0,16,,train_dim1_1,27,30,,,,2,0,2,0,,,,,,,,,0,0,0,0,0,26,26,26,0,0,0,0,,,,,,,,,,,,,,,,,,,,,,,,,stimuli/alien_stimuli/16.png,,,,,,,,,,,,,,,,,,,,,,,,,,,,,stimuli/alien_stimuli/13.png,13,9,28,,,,,,,30,,,,,,,,2975.4363231000025,2975.4363231000025,2975.4363231000025,2975.4363231000025,2975.4363231000025,down,1.9369500000029802,4,0,0,99,0.48,0.24,down,1.8464265002403408,,,,,2973.8762578000315,2975.4363231000025,0.56,0.08,0.24,0.0,0.2,0.56,0.56,0.56,0.08,2971.204615799943,2971.204615799943,2971.204615799943,2971.204615799943,2971.204615799943,2971.204615799943,2971.204615799943,2971.204615799943,2971.190461449977,2.7878213999792933,return,2.639707300113514,,,,,,,,,,,,,,,,,,,,,,,,,,,,,,,,,DQ8CP0,train_y,red_square,top_right,2025-02-12_16h41.04.365,HideSeek_v1,2022.2.5,59.94352118902234,
,8,9,8,9,0,0,16,,train_dim1_1,27,30,,,,2,0,2,0,,,,,,,,,0,0,0,0,0,26,26,26,1,0,1,0,,,,,,,,,,,,,,,,,,,,,,,,,,,,,,,,,,,,,,,,,,,,,,,,,,,,,,,,,,,,,,,,30,,,,,,,,2977.38050869992,2977.38050869992,2977.38050869992,2977.38050869992,2977.38050869992,down,1.0600725000258535,4,0,0,99,0.48,0.15999999999999998,down,0.9825061003211886,,,,,,,,,,,,,,,,,,,,,,,,,,,,,,,,,,,,,,,,,,,,,,,,,,,,,,,,,,,,DQ8CP0,train_y,red_square,top_right,2025-02-12_16h41.04.365,HideSeek_v1,2022.2.5,59.94352118902234,
,8,9,8,9,0,0,16,,train_dim1_1,27,30,,,,2,0,2,0,,,,,,,,,0,0,0,0,0,26,26,26,2,0,2,0,,,,,,,,,,,,,,,,,,,,,,,,,,,,,,,,,,,,,,,,,,,,,,,,,,,,,,,,,,,,,,,,30,,,,,,,,2978.4472603998147,2978.4472603998147,2978.4472603998147,2978.4472603998147,2978.4472603998147,return,2.1282380998600274,4,0,0,0,0.48,0.15999999999999998,return,2.048118600156158,-77,3,0.48,0.15999999999999998,,,,,,,,,,,,,,,,,,,,,,,,,,,,,,,,,,,,,,,,,,,,,,,,,,,,,,,,DQ8CP0,train_y,red_square,top_right,2025-02-12_16h41.04.365,HideSeek_v1,2022.2.5,59.94352118902234,
,9,6,9,1,0,-5,11,,train_dim1_1,28,30,,,,2,0,2,0,,,,,,,,,0,0,0,0,0,27,27,27,0,0,0,0,,,,,,,,,,,,,,,,,,,,,,,,,stimuli/alien_stimuli/11.png,,,,,,,,,,,,,,,,,,,,,,,,,,,,,stimuli/alien_stimuli/16.png,16,8,29,,,,,,,30,,,,,,,,2988.8980505999643,2988.8980505999643,2988.8980505999643,2988.8980505999643,2988.8980505999643,down,2.970823199953884,4,0,0,99,0.56,0.0,down,2.8882187001872808,,,,,2987.337335899938,2988.8980505999643,0.48,0.32,0.0,0.0,0.32,0.48,0.48,0.48,0.32,2982.1615909999236,2982.1615909999236,2982.1615909999236,2982.1615909999236,2982.1615909999236,2982.1615909999236,2982.1615909999236,2982.1615909999236,2982.1501074999574,5.305729900021106,return,5.1488667000085115,,,,,,,,,,,,,,,,,,,,,,,,,,,,,,,,,DQ8CP0,train_y,red_square,top_right,2025-02-12_16h41.04.365,HideSeek_v1,2022.2.5,59.94352118902234,
,9,6,9,1,0,-5,11,,train_dim1_1,28,30,,,,2,0,2,0,,,,,,,,,0,0,0,0,0,27,27,27,1,0,1,0,,,,,,,,,,,,,,,,,,,,,,,,,,,,,,,,,,,,,,,,,,,,,,,,,,,,,,,,,,,,,,,,30,,,,,,,,2991.879170899978,2991.879170899978,2991.879170899978,2991.879170899978,2991.879170899978,down,0.3906179000623524,4,0,0,99,0.56,-0.08,down,0.31013740017078817,,,,,,,,,,,,,,,,,,,,,,,,,,,,,,,,,,,,,,,,,,,,,,,,,,,,,,,,,,,,DQ8CP0,train_y,red_square,top_right,2025-02-12_16h41.04.365,HideSeek_v1,2022.2.5,59.94352118902234,
,9,6,9,1,0,-5,11,,train_dim1_1,28,30,,,,2,0,2,0,,,,,,,,,0,0,0,0,0,27,27,27,2,0,2,0,,,,,,,,,,,,,,,,,,,,,,,,,,,,,,,,,,,,,,,,,,,,,,,,,,,,,,,,,,,,,,,,30,,,,,,,,2992.276040799916,2992.276040799916,2992.276040799916,2992.276040799916,2992.276040799916,down,0.4429721999913454,4,0,0,99,0.56,-0.16,down,0.35238660010509193,,,,,,,,,,,,,,,,,,,,,,,,,,,,,,,,,,,,,,,,,,,,,,,,,,,,,,,,,,,,DQ8CP0,train_y,red_square,top_right,2025-02-12_16h41.04.365,HideSeek_v1,2022.2.5,59.94352118902234,
,9,6,9,1,0,-5,11,,train_dim1_1,28,30,,,,2,0,2,0,,,,,,,,,0,0,0,0,0,27,27,27,3,0,3,0,,,,,,,,,,,,,,,,,,,,,,,,,,,,,,,,,,,,,,,,,,,,,,,,,,,,,,,,,,,,,,,,30,,,,,,,,2992.7257430998143,2992.7257430998143,2992.7257430998143,2992.7257430998143,2992.7257430998143,up,2.895546399988234,4,0,0,99,0.56,-0.08,up,2.819273500237614,,,,,,,,,,,,,,,,,,,,,,,,,,,,,,,,,,,,,,,,,,,,,,,,,,,,,,,,,,,,DQ8CP0,train_y,red_square,top_right,2025-02-12_16h41.04.365,HideSeek_v1,2022.2.5,59.94352118902234,
,9,6,9,1,0,-5,11,,train_dim1_1,28,30,,,,2,0,2,0,,,,,,,,,0,0,0,0,0,27,27,27,4,0,4,0,,,,,,,,,,,,,,,,,,,,,,,,,,,,,,,,,,,,,,,,,,,,,,,,,,,,,,,,,,,,,,,,30,,,,,,,,2995.6290049999952,2995.6290049999952,2995.6290049999952,2995.6290049999952,2995.6290049999952,up,0.20975430007092655,4,0,0,99,0.56,0.0,up,0.1212202999740839,,,,,,,,,,,,,,,,,,,,,,,,,,,,,,,,,,,,,,,,,,,,,,,,,,,,,,,,,,,,DQ8CP0,train_y,red_square,top_right,2025-02-12_16h41.04.365,HideSeek_v1,2022.2.5,59.94352118902234,
,9,6,9,1,0,-5,11,,train_dim1_1,28,30,,,,2,0,2,0,,,,,,,,,0,0,0,0,0,27,27,27,5,0,5,0,,,,,,,,,,,,,,,,,,,,,,,,,,,,,,,,,,,,,,,,,,,,,,,,,,,,,,,,,,,,,,,,30,,,,,,,,2995.845835399814,2995.845835399814,2995.845835399814,2995.845835399814,2995.845835399814,return,0.6767126000486314,4,0,0,0,0.56,0.0,return,0.5852950001135468,-78,3,0.56,0.0,,,,,,,,,,,,,,,,,,,,,,,,,,,,,,,,,,,,,,,,,,,,,,,,,,,,,,,,DQ8CP0,train_y,red_square,top_right,2025-02-12_16h41.04.365,HideSeek_v1,2022.2.5,59.94352118902234,
,7,7,7,3,0,-4,12,,train_dim1_1,29,30,,,,2,0,2,0,,,,,,,,,0,0,0,0,0,28,28,28,0,0,0,0,,,,,,,,,,,,,,,,,,,,,,,,,stimuli/alien_stimuli/12.png,,,,,,,,,,,,,,,,,,,,,,,,,,,,,stimuli/alien_stimuli/11.png,11,9,30,,,,,,,30,,,,,,,,3006.710824499838,3006.710824499838,3006.710824499838,3006.710824499838,3006.710824499838,down,2.5218951001297683,4,0,0,99,0.4,0.08,down,2.433696100022644,,,,,3005.1521246000193,3006.710824499838,0.56,-0.32,0.4,0.0,-0.12,0.56,0.56,0.56,-0.32,2998.0932014000136,2998.0932014000136,2998.0932014000136,2998.0932014000136,2998.0932014000136,2998.0932014000136,2998.0932014000136,2998.0932014000136,2998.0796292498244,7.17501170001924,return,7.038460900075734,,,,,,,,,,,,,,,,,,,,,,,,,,,,,,,,,DQ8CP0,train_y,red_square,top_right,2025-02-12_16h41.04.365,HideSeek_v1,2022.2.5,59.94352118902234,
,7,7,7,3,0,-4,12,,train_dim1_1,29,30,,,,2,0,2,0,,,,,,,,,0,0,0,0,0,28,28,28,1,0,1,0,,,,,,,,,,,,,,,,,,,,,,,,,,,,,,,,,,,,,,,,,,,,,,,,,,,,,,,,,,,,,,,,30,,,,,,,,3009.239719999954,3009.239719999954,3009.239719999954,3009.239719999954,3009.239719999954,down,0.2764242999255657,4,0,0,99,0.4,0.0,down,0.18905250006355345,,,,,,,,,,,,,,,,,,,,,,,,,,,,,,,,,,,,,,,,,,,,,,,,,,,,,,,,,,,,DQ8CP0,train_y,red_square,top_right,2025-02-12_16h41.04.365,HideSeek_v1,2022.2.5,59.94352118902234,
,7,7,7,3,0,-4,12,,train_dim1_1,29,30,,,,2,0,2,0,,,,,,,,,0,0,0,0,0,28,28,28,2,0,2,0,,,,,,,,,,,,,,,,,,,,,,,,,,,,,,,,,,,,,,,,,,,,,,,,,,,,,,,,,,,,,,,,30,,,,,,,,3009.523877999978,3009.523877999978,3009.523877999978,3009.523877999978,3009.523877999978,down,0.2768244999460876,4,0,0,99,0.4,-0.08,down,0.19740630011074245,,,,,,,,,,,,,,,,,,,,,,,,,,,,,,,,,,,,,,,,,,,,,,,,,,,,,,,,,,,,DQ8CP0,train_y,red_square,top_right,2025-02-12_16h41.04.365,HideSeek_v1,2022.2.5,59.94352118902234,
,7,7,7,3,0,-4,12,,train_dim1_1,29,30,,,,2,0,2,0,,,,,,,,,0,0,0,0,0,28,28,28,3,0,3,0,,,,,,,,,,,,,,,,,,,,,,,,,,,,,,,,,,,,,,,,,,,,,,,,,,,,,,,,,,,,,,,,30,,,,,,,,3009.8069062998984,3009.8069062998984,3009.8069062998984,3009.8069062998984,3009.8069062998984,return,4.229672299930826,4,1,0,0,0.4,-0.08,return,4.151751900324598,-81,3,0.4,-0.08,,,,,,,,,,,,,,,,,,,,,,,,,,,,,,,,,,,,,,,,,,,,,,,,,,,,,,,,DQ8CP0,train_y,red_square,top_right,2025-02-12_16h41.04.365,HideSeek_v1,2022.2.5,59.94352118902234,
,5,6,5,5,0,-1,15,,train_dim1_1,30,30,,,,2,0,2,0,,,,,,,,,0,0,0,0,0,29,29,29,0,0,0,0,,,,,,,,,,,,,,,,,,,,,,,,,stimuli/alien_stimuli/15.png,,,,,,,,,,,,,,,,,,,,,,,,,,,,,stimuli/alien_stimuli/12.png,12,7,31,,,,,,,30,,,,,,,,3020.4460561999585,3020.4460561999585,3020.4460561999585,3020.4460561999585,3020.4460561999585,return,5.736408299999312,4,1,0,0,0.24,0.08,return,5.642120599979535,-81,3,0.24,0.08,3018.8798255999573,3020.4460561999585,0.4,-0.16,0.32,0.0,0.0,0.4,0.4,0.4,-0.16,3015.6107836999,3015.6107836999,3015.6107836999,3015.6107836999,3015.6107836999,3015.6107836999,3015.6107836999,3015.6107836999,3015.6107247998475,3.388091600034386,return,3.2435578000731766,,,,,,,,,,,,,,,,,,,,,,,,,,,,,,,,,DQ8CP0,train_y,red_square,top_right,2025-02-12_16h41.04.365,HideSeek_v1,2022.2.5,59.94352118902234,
,,,,,,,,,,,30,,,,2,0,2,0,,,,,,,,,,,,,,,,,,,,,,,,,,,,,,,,,,,,,,,,,,,,,,,,,,,,,,,,,,,,,,,,,,,,,,,,,,stimuli/alien_stimuli/15.png,15,5,32,21,0.7,0.16666666666666669,1,1,1,30,0,conditions/schedules/train_y_first/red_square_00/top_right/inputTrain_2.1.xlsx,99,1,2,1,0,,,,,,,,,,,0,,,,,,,,,3031.8076600998174,3033.364652500022,0.24,0,0.08,0.0,0.04,0.24,0.24,0.24,0,3027.7691720998846,3027.7691720998846,3027.7691720998846,3027.7691720998846,3027.7691720998846,3027.7691720998846,3027.7691720998846,3027.7691720998846,3027.7707093499134,4.17236279998906,return,4.019781600218266,0,0.9,0,1,4,,,,,,,,,,,,,,,,,,,,,,,,,,,,DQ8CP0,train_y,red_square,top_right,2025-02-12_16h41.04.365,HideSeek_v1,2022.2.5,59.94352118902234,
,,,,,,,,,,,,,,,3,0,3,0,0,0,0,0,,,,,,,,,,,,,,,,,,,,,,,,,,,,,,,conditions/schedules/train_y_first/red_square_00/top_right/instructions/Slide17.png,conditions/schedules/train_y_first/red_square_00/top_right/instructions/Audio17.wav,3033.364652500022,3033.3587129999883,17,"[6.182297999970615, 18.11655670008622, 25.41932459990494, 19.332217800198123, 4.4646962999831885, 4.803208000026643, 5.523392900126055, 11.873864999972284, 6.138303200015798, 6.984787299996242, 10.422454300103709, 13.70554960006848, 18.686668099835515, 16.53855220018886, 47.38552080001682, 23.50510050007142, 429.43105010013096]","[0.0002188000362366438, 0.013896599877625704, 0.03220020001754165, 0.06354100001044571, 0.049766199896112084, 0.08449580008164048, 0.06338090007193387, 0.06676830002106726, 0.09536209981888533, 0.06389739993028343, 0.0305608999915421, 13.705556600121781, 0.00024040020070970058, 16.538559300126508, 0.014015200082212687, 23.505106600001454, 429.4310590000823]",0,,,,,,,,,,,,,,,,,,,,,,,,,,,,,,,,,,,,,,,,,,,,,,,,,,,,,,,,,,,,,,,,,,,,,,,,,,,,,,,,,,,,,,,,,,,,,,,,,,,,,,,,,,,,,,,,,,,,,,,,,,,,DQ8CP0,train_y,red_square,top_right,2025-02-12_16h41.04.365,HideSeek_v1,2022.2.5,59.94352118902234,
,,,,,,,,,,,,,,,3,0,3,0,1,0,1,0,,,,,,,,,,,,,,,,,,,,,,,,,,,,,,,conditions/schedules/train_y_first/red_square_00/top_right/instructions/Slide18.png,conditions/schedules/train_y_first/red_square_00/top_right/instructions/Audio18.wav,3462.86148219998,3462.8479909998364,18,"[6.182297999970615, 18.11655670008622, 25.41932459990494, 19.332217800198123, 4.4646962999831885, 4.803208000026643, 5.523392900126055, 11.873864999972284, 6.138303200015798, 6.984787299996242, 10.422454300103709, 13.70554960006848, 18.686668099835515, 16.53855220018886, 47.38552080001682, 23.50510050007142, 429.43105010013096, 6.824130099965259]","[0.0002188000362366438, 0.013896599877625704, 0.03220020001754165, 0.06354100001044571, 0.049766199896112084, 0.08449580008164048, 0.06338090007193387, 0.06676830002106726, 0.09536209981888533, 0.06389739993028343, 0.0305608999915421, 13.705556600121781, 0.00024040020070970058, 16.538559300126508, 0.014015200082212687, 23.505106600001454, 0.00022109993733465672, 6.824152699904516]",0,,,,,,,,,,,,,,,,,,,,,,,,,,,,,,,,,,,,,,,,,,,,,,,,,,,,,,,,,,,,,,,,,,,,,,,,,,,,,,,,,,,,,,,,,,,,,,,,,,,,,,,,,,,,,,,,,,,,,,,,,,,,DQ8CP0,train_y,red_square,top_right,2025-02-12_16h41.04.365,HideSeek_v1,2022.2.5,59.94352118902234,
,,,,,,,,,,,,,,,3,0,3,0,2,0,2,0,,,,,,,,,,,,,,,,,,,,,,,,,,,,,,,conditions/schedules/train_y_first/red_square_00/top_right/instructions/Slide19.png,conditions/schedules/train_y_first/red_square_00/top_right/instructions/Audio19.wav,3469.7445010999218,3469.737694899924,19,"[6.182297999970615, 18.11655670008622, 25.41932459990494, 19.332217800198123, 4.4646962999831885, 4.803208000026643, 5.523392900126055, 11.873864999972284, 6.138303200015798, 6.984787299996242, 10.422454300103709, 13.70554960006848, 18.686668099835515, 16.53855220018886, 47.38552080001682, 23.50510050007142, 429.43105010013096, 6.824130099965259, 10.2322070999071]","[0.0002188000362366438, 0.013896599877625704, 0.03220020001754165, 0.06354100001044571, 0.049766199896112084, 0.08449580008164048, 0.06338090007193387, 0.06676830002106726, 0.09536209981888533, 0.06389739993028343, 0.0305608999915421, 13.705556600121781, 0.00024040020070970058, 16.538559300126508, 0.014015200082212687, 23.505106600001454, 0.00022109993733465672, 0.014094100100919604, 10.232213899958879]",0,,,,,,,,,,,,,,,,,,,,,,,,,,,,,,,,,,,,,,,,,,,,,,,,,,,,,,,,,,,,,,,,,,,,,,,,,,,,,,,,,,,,,,,,,,,,,,,,,,,,,,,,,,,,,,,,,,,,,,,,,,,,DQ8CP0,train_y,red_square,top_right,2025-02-12_16h41.04.365,HideSeek_v1,2022.2.5,59.94352118902234,
