trialInstr,x_fixStart,y_fixStart,x_corrSteps,y_corrSteps,x_nrSteps,y_nrSteps,alienID,trialLength,version,trialTrain,praclen,testlen,trial_label,break_on_off,beforeExpLoop.thisRepN,beforeExpLoop.thisTrialN,beforeExpLoop.thisN,beforeExpLoop.thisIndex,mini_instr_trials.thisRepN,mini_instr_trials.thisTrialN,mini_instr_trials.thisN,mini_instr_trials.thisIndex,instrLoop.thisRepN,instrLoop.thisTrialN,instrLoop.thisN,instrLoop.thisIndex,repeat_prac.thisRepN,repeat_prac.thisTrialN,repeat_prac.thisN,repeat_prac.thisIndex,trainLoop.thisRepN,trainLoop.thisTrialN,trainLoop.thisN,trainLoop.thisIndex,moveLoop_train.thisRepN,moveLoop_train.thisTrialN,moveLoop_train.thisN,moveLoop_train.thisIndex,experiment.thisRepN,experiment.thisTrialN,experiment.thisN,experiment.thisIndex,moveLoop_test.thisRepN,moveLoop_test.thisTrialN,moveLoop_test.thisN,moveLoop_test.thisIndex,mini_instr2_trials.thisRepN,mini_instr2_trials.thisTrialN,mini_instr2_trials.thisN,mini_instr2_trials.thisIndex,start_all_time,url,slideStim,audioStim,slides.started,sounds.started,nextButton.numClicks,nextButton.timesOn,nextButton.timesOff,prev_but.numClicks,prev_but.timesOn,prev_but.timesOff,alienStim,instrFile,alienStim_instr,gridImage_instr.started,startPos_3.started,key_instr.started,alienImage_3.started,sounds_1.started,key_instr.keys,key_instr.rt,all_x,all_y,FBy_corrSteps,FBy_fixStart,FBx_corrSteps,FBx_fixStart,FBy_pathSize_check,FBx_pathSize_check,gridImage_9.started,alienImageFB_3.started,startPosFB_3.started,keyFB_3.started,pathLine_ydir_2.started,pathLine_xdir_2.started,alienFace_3.started,sounds_2.started,RTFB_instr,keyFB_3.keys,keyFB_3.rt,draw_alienStim,draw_alienID,test_x,nrepcount,perfthres,percthres,earlierperf,earlystop,nextPrac,fileidx,praclen,saveACC_train,pracFile,nextPrac_train,addNrep,fileidx_endr,repExp,showearly,gridImage_4.started,startPos.started,movePos.started,key_resp.started,alienImage.started,buttonPress_train,RTchoice_train,cumAcctrain,aCorr,saveACC_choice,corrAns,x_movePos_end,y_movePos_end,key_resp.keys,key_resp.rt,wLy_dir,wLx_dir,x_movePos,y_movePos,text_2.started,text_2.stopped,aft_x_corrPos,aft_y_corrPos,y_pathSize_check,x_pathSize_check,y_pathdirY,x_pathdirY,x_pathdirX,x_corrPos,y_corrPos,gridImage_6.started,alienImageFB_2.started,startPosFB_2.started,movePosFB_2.started,keyFB_2.started,pathLine_xdir.started,pathLine_ydir.started,alienFace.started,sounds_4.started,RT_FBtrain,keyFB_2.keys,keyFB_2.rt,saveACC_pre,ACC,within_saveACC_train,earlystop_wloop,cumAcctrain_check,gridImage_3.started,alienImage_test.started,startPos_test.started,movePos_test.started,key_resp_test.started,wLy_dir_test,wLx_dir_test,buttonPress_test,RTchoice_test,cumAcctest,corrAns_test,key_resp_test.keys,key_resp_test.rt,text_3.started,text_3.stopped,total_time,end_all_time,key_resp_3.keys,slides_2.started,sounds_3.started,nextButton_2.numClicks,nextButton_2.timesOn,nextButton_2.timesOff,prev_but_2.numClicks,prev_but_2.timesOn,prev_but_2.timesOff,bye.started,participant,train_first,00_coordinate,starting corner,date,expName,psychopyVersion,frameRate,
,,,,,,,,,,,,,,,0,0,0,0,0,0,0,0,,,,,,,,,,,,,,,,,,,,,,,,,,,,,start_all_time,testround,conditions/schedules/train_y_first/blue_star_00/top_right/instructions/Slide1.png,conditions/schedules/train_y_first/blue_star_00/top_right/instructions/Audio1.wav,1639.0661661000922,1639.014232376404,1,[5.716855899896473],[5.7168688997626305],0,,,,,,,,,,,,,,,,,,,,,,,,,,,,,,,,,,,,,,,,,,,,,,,,,,,,,,,,,,,,,,,,,,,,,,,,,,,,,,,,,,,,,,,,,,,,,,,,,,,,,,,,,,,,,,,,,,,,,,,,,,,,EFZ715,train_y,blue_star,top_right,2025-02-18_16h15.21.921,HideSeek_v1,2022.2.5,59.957538069292156,
,,,,,,,,,,,,,,,0,0,0,0,1,0,1,0,,,,,,,,,,,,,,,,,,,,,,,,,,,,,,,conditions/schedules/train_y_first/blue_star_00/top_right/instructions/Slide2.png,conditions/schedules/train_y_first/blue_star_00/top_right/instructions/Audio2.wav,1644.799944799859,1644.8002653997391,2,"[5.716855899896473, 18.296663800254464]","[0.00025190040469169617, 18.296670200303197]",0,,,,,,,,,,,,,,,,,,,,,,,,,,,,,,,,,,,,,,,,,,,,,,,,,,,,,,,,,,,,,,,,,,,,,,,,,,,,,,,,,,,,,,,,,,,,,,,,,,,,,,,,,,,,,,,,,,,,,,,,,,,,EFZ715,train_y,blue_star,top_right,2025-02-18_16h15.21.921,HideSeek_v1,2022.2.5,59.957538069292156,
,,,,,,,,,,,,,,,0,0,0,0,2,0,2,0,,,,,,,,,,,,,,,,,,,,,,,,,,,,,,,conditions/schedules/train_y_first/blue_star_00/top_right/instructions/Slide3.png,conditions/schedules/train_y_first/blue_star_00/top_right/instructions/Audio3.wav,1663.1719251000322,1663.1653207000345,3,"[5.716855899896473, 18.296663800254464, 16.82164469966665]","[0.00025190040469169617, 0.014384999871253967, 16.821651099715382]",0,,,,,,,,,,,,,,,,,,,,,,,,,,,,,,,,,,,,,,,,,,,,,,,,,,,,,,,,,,,,,,,,,,,,,,,,,,,,,,,,,,,,,,,,,,,,,,,,,,,,,,,,,,,,,,,,,,,,,,,,,,,,EFZ715,train_y,blue_star,top_right,2025-02-18_16h15.21.921,HideSeek_v1,2022.2.5,59.957538069292156,
,,,,,,,,,,,,,,,0,0,0,0,3,0,3,0,,,,,,,,,,,,,,,,,,,,,,,,,,,,,,,conditions/schedules/train_y_first/blue_star_00/top_right/instructions/Slide4.png,conditions/schedules/train_y_first/blue_star_00/top_right/instructions/Audio4.wav,1680.0689241001382,1680.0626162998378,4,"[5.716855899896473, 18.296663800254464, 16.82164469966665, 19.940974600147456]","[0.00025190040469169617, 0.014384999871253967, 0.014203500002622604, 19.940981999970973]",0,,,,,,,,,,,,,,,,,,,,,,,,,,,,,,,,,,,,,,,,,,,,,,,,,,,,,,,,,,,,,,,,,,,,,,,,,,,,,,,,,,,,,,,,,,,,,,,,,,,,,,,,,,,,,,,,,,,,,,,,,,,,EFZ715,train_y,blue_star,top_right,2025-02-18_16h15.21.921,HideSeek_v1,2022.2.5,59.957538069292156,
,,,,,,,,,,,,,,,0,0,0,0,4,0,4,0,,,,,,,,,,,,,,,,,,,,,,,,,,,,,,,conditions/schedules/train_y_first/blue_star_00/top_right/instructions/Slide5.png,conditions/schedules/train_y_first/blue_star_00/top_right/instructions/Audio5.wav,1700.0711936000735,1700.062478560116,5,"[5.716855899896473, 18.296663800254464, 16.82164469966665, 19.940974600147456, 4.859437599778175]","[0.00025190040469169617, 0.014384999871253967, 0.014203500002622604, 0.0346514000557363, 4.859445000067353]",0,,,,,,,,,,,,,,,,,,,,,,,,,,,,,,,,,,,,,,,,,,,,,,,,,,,,,,,,,,,,,,,,,,,,,,,,,,,,,,,,,,,,,,,,,,,,,,,,,,,,,,,,,,,,,,,,,,,,,,,,,,,,EFZ715,train_y,blue_star,top_right,2025-02-18_16h15.21.921,HideSeek_v1,2022.2.5,59.957538069292156,
,,,,,,,,,,,,,,,0,0,0,0,5,0,5,0,,,,,,,,,,,,,,,,,,,,,,,,,,,,,,,conditions/schedules/train_y_first/blue_star_00/top_right/instructions/Slide6.png,conditions/schedules/train_y_first/blue_star_00/top_right/instructions/Audio6.wav,1704.9827995998785,1704.9833540600723,6,"[5.716855899896473, 18.296663800254464, 16.82164469966665, 19.940974600147456, 4.859437599778175, 4.384993200190365]","[0.00025190040469169617, 0.014384999871253967, 0.014203500002622604, 0.0346514000557363, 0.0479377000592649, 4.38500210037455]",0,,,,,,,,,,,,,,,,,,,,,,,,,,,,,,,,,,,,,,,,,,,,,,,,,,,,,,,,,,,,,,,,,,,,,,,,,,,,,,,,,,,,,,,,,,,,,,,,,,,,,,,,,,,,,,,,,,,,,,,,,,,,EFZ715,train_y,blue_star,top_right,2025-02-18_16h15.21.921,HideSeek_v1,2022.2.5,59.957538069292156,
,,,,,,,,,,,,,,,0,0,0,0,6,0,6,0,,,,,,,,,,,,,,,,,,,,,,,,,,,,,,,conditions/schedules/train_y_first/blue_star_00/top_right/instructions/Slide7.png,conditions/schedules/train_y_first/blue_star_00/top_right/instructions/Audio7.wav,1709.4194836001843,1709.420400459878,7,"[5.716855899896473, 18.296663800254464, 16.82164469966665, 19.940974600147456, 4.859437599778175, 4.384993200190365, 5.48614800022915]","[0.00025190040469169617, 0.014384999871253967, 0.014203500002622604, 0.0346514000557363, 0.0479377000592649, 0.04805450001731515, 5.486156499944627]",0,,,,,,,,,,,,,,,,,,,,,,,,,,,,,,,,,,,,,,,,,,,,,,,,,,,,,,,,,,,,,,,,,,,,,,,,,,,,,,,,,,,,,,,,,,,,,,,,,,,,,,,,,,,,,,,,,,,,,,,,,,,,EFZ715,train_y,blue_star,top_right,2025-02-18_16h15.21.921,HideSeek_v1,2022.2.5,59.957538069292156,
,,,,,,,,,,,,,,,0,0,0,0,7,0,7,0,,,,,,,,,,,,,,,,,,,,,,,,,,,,,,,conditions/schedules/train_y_first/blue_star_00/top_right/instructions/Slide8.png,conditions/schedules/train_y_first/blue_star_00/top_right/instructions/Audio8.wav,1714.9595662998036,1714.9581028601153,8,"[5.716855899896473, 18.296663800254464, 16.82164469966665, 19.940974600147456, 4.859437599778175, 4.384993200190365, 5.48614800022915, 11.939275399781764]","[0.00025190040469169617, 0.014384999871253967, 0.014203500002622604, 0.0346514000557363, 0.0479377000592649, 0.04805450001731515, 0.0631489995867014, 11.939282399602234]",0,,,,,,,,,,,,,,,,,,,,,,,,,,,,,,,,,,,,,,,,,,,,,,,,,,,,,,,,,,,,,,,,,,,,,,,,,,,,,,,,,,,,,,,,,,,,,,,,,,,,,,,,,,,,,,,,,,,,,,,,,,,,EFZ715,train_y,blue_star,top_right,2025-02-18_16h15.21.921,HideSeek_v1,2022.2.5,59.957538069292156,
,,,,,,,,,,,,,,,0,0,0,0,8,0,8,0,,,,,,,,,,,,,,,,,,,,,,,,,,,,,,,conditions/schedules/train_y_first/blue_star_00/top_right/instructions/Slide9.png,conditions/schedules/train_y_first/blue_star_00/top_right/instructions/Audio9.wav,1726.964960699901,1726.9513585601,9,"[5.716855899896473, 18.296663800254464, 16.82164469966665, 19.940974600147456, 4.859437599778175, 4.384993200190365, 5.48614800022915, 11.939275399781764, 5.9558911002241075]","[0.00025190040469169617, 0.014384999871253967, 0.014203500002622604, 0.0346514000557363, 0.0479377000592649, 0.04805450001731515, 0.0631489995867014, 0.05156389996409416, 5.955897800158709]",0,,,,,,,,,,,,,,,,,,,,,,,,,,,,,,,,,,,,,,,,,,,,,,,,,,,,,,,,,,,,,,,,,,,,,,,,,,,,,,,,,,,,,,,,,,,,,,,,,,,,,,,,,,,,,,,,,,,,,,,,,,,,EFZ715,train_y,blue_star,top_right,2025-02-18_16h15.21.921,HideSeek_v1,2022.2.5,59.957538069292156,
,,,,,,,,,,,,,,,0,0,0,0,9,0,9,0,,,,,,,,,,,,,,,,,,,,,,,,,,,,,,,conditions/schedules/train_y_first/blue_star_00/top_right/instructions/Slide10.png,conditions/schedules/train_y_first/blue_star_00/top_right/instructions/Audio10.wav,1732.9576946999878,1732.956420520041,10,"[5.716855899896473, 18.296663800254464, 16.82164469966665, 19.940974600147456, 4.859437599778175, 4.384993200190365, 5.48614800022915, 11.939275399781764, 5.9558911002241075, 6.918575600255281]","[0.00025190040469169617, 0.014384999871253967, 0.014203500002622604, 0.0346514000557363, 0.0479377000592649, 0.04805450001731515, 0.0631489995867014, 0.05156389996409416, 0.07937359996140003, 6.918582499958575]",0,,,,,,,,,,,,,,,,,,,,,,,,,,,,,,,,,,,,,,,,,,,,,,,,,,,,,,,,,,,,,,,,,,,,,,,,,,,,,,,,,,,,,,,,,,,,,,,,,,,,,,,,,,,,,,,,,,,,,,,,,,,,EFZ715,train_y,blue_star,top_right,2025-02-18_16h15.21.921,HideSeek_v1,2022.2.5,59.957538069292156,
,,,,,,,,,,,,,,,0,0,0,0,10,0,10,0,,,,,,,,,,,,,,,,,,,,,,,,,,,,,,,conditions/schedules/train_y_first/blue_star_00/top_right/instructions/Slide11.png,conditions/schedules/train_y_first/blue_star_00/top_right/instructions/Audio11.wav,1739.9142705001868,1739.912435920164,11,"[5.716855899896473, 18.296663800254464, 16.82164469966665, 19.940974600147456, 4.859437599778175, 4.384993200190365, 5.48614800022915, 11.939275399781764, 5.9558911002241075, 6.918575600255281, 11.087679699994624]","[0.00025190040469169617, 0.014384999871253967, 0.014203500002622604, 0.0346514000557363, 0.0479377000592649, 0.04805450001731515, 0.0631489995867014, 0.05156389996409416, 0.07937359996140003, 0.09514529956504703, 11.087686799932271]",0,,,,,,,,,,,,,,,,,,,,,,,,,,,,,,,,,,,,,,,,,,,,,,,,,,,,,,,,,,,,,,,,,,,,,,,,,,,,,,,,,,,,,,,,,,,,,,,,,,,,,,,,,,,,,,,,,,,,,,,,,,,,EFZ715,train_y,blue_star,top_right,2025-02-18_16h15.21.921,HideSeek_v1,2022.2.5,59.957538069292156,
,,,,,,,,,,,,,,,0,0,0,0,11,0,11,0,,,,,,,,,,,,,,,,,,,,,,,,,,,,,,,conditions/schedules/train_y_first/blue_star_00/top_right/instructions/Slide12.png,conditions/schedules/train_y_first/blue_star_00/top_right/instructions/Audio12.wav,1751.0758397001773,1751.0714585999958,12,"[5.716855899896473, 18.296663800254464, 16.82164469966665, 19.940974600147456, 4.859437599778175, 4.384993200190365, 5.48614800022915, 11.939275399781764, 5.9558911002241075, 6.918575600255281, 11.087679699994624, 13.92130280006677]","[0.00025190040469169617, 0.014384999871253967, 0.014203500002622604, 0.0346514000557363, 0.0479377000592649, 0.04805450001731515, 0.0631489995867014, 0.05156389996409416, 0.07937359996140003, 0.09514529956504703, 0.04707159986719489, 13.921314899809659]",0,,,,,,,,,,,,,,,,,,,,,,,,,,,,,,,,,,,,,,,,,,,,,,,,,,,,,,,,,,,,,,,,,,,,,,,,,,,,,,,,,,,,,,,,,,,,,,,,,,,,,,,,,,,,,,,,,,,,,,,,,,,,EFZ715,train_y,blue_star,top_right,2025-02-18_16h15.21.921,HideSeek_v1,2022.2.5,59.957538069292156,
1,5,8,5,3,0,-5,66,2,instr_dim1_1,,,,,,0,0,0,0,,,,,0,0,0,0,,,,,,,,,,,,,,,,,,,,,,,,,,,,,,,,,,,,,stimuli/alien_stimuli/66.png,conditions/schedules/train_y_first/blue_star_00/top_right/inputInstr_1.xlsx,stimuli/alien_stimuli/66.png,1765.0901687997393,1765.0901687997393,1765.0901687997393,1765.0901687997393,1765.0830798399634,return,10.73486170032993,"[-0.16, -0.08, 0, 0.08, 0.16, 0.24, 0.32, 0.4, 0.48, 0.56]","[-0.4, -0.32, -0.24, -0.16, -0.08, 0, 0.08, 0.16, 0.24, 0.32]",3,8,5,5,0.4,0.0,1775.9827801999636,1775.9827801999636,1775.9827801999636,1775.9827801999636,1775.9827801999636,1775.9827801999636,1775.9827801999636,1775.9755936596541,8.340573400259018,return,8.169365200214088,stimuli/alien_stimuli/66.png,66,5,1,,,,,,,,,,,,,,,,,,,,,,,,,,,,,,,,,,,,,,,,,,,,,,,,,,,,,,,,,,,,,,,,,,,,,,,,,,,,,,,,,,,,,,,,,EFZ715,train_y,blue_star,top_right,2025-02-18_16h15.21.921,HideSeek_v1,2022.2.5,59.957538069292156,
,,,,,,,,,,,30,,,,0,0,0,0,,,,,,,,,,,,,,,,,,,,,,,,,,,,,,,,,,,,,,,,,,,,,,,,,,,,,,,,,,,,,,,,,,,,,,,,,,,,,,21,0.7,0,0,99,1,30,0,conditions/schedules/train_y_first/blue_star_00/top_right/inputTrain_1.1.xlsx,99,1,1,1,0,,,,,,,,,,,,,,,,,,,,,,,,,,,,,,,,,,,,,,,,,,,,,,,,,,,,,,,,,,,,,,,,,,,,,,,,,,,EFZ715,train_y,blue_star,top_right,2025-02-18_16h15.21.921,HideSeek_v1,2022.2.5,59.957538069292156,
,,,,,,,,,,,,,,,1,0,1,0,0,0,0,0,,,,,,,,,,,,,,,,,,,,,,,,,,,,,,,conditions/schedules/train_y_first/blue_star_00/top_right/instructions/Slide13.png,conditions/schedules/train_y_first/blue_star_00/top_right/instructions/Audio13.wav,1784.3105099997483,1784.2990640198811,13,"[5.716855899896473, 18.296663800254464, 16.82164469966665, 19.940974600147456, 4.859437599778175, 4.384993200190365, 5.48614800022915, 11.939275399781764, 5.9558911002241075, 6.918575600255281, 11.087679699994624, 13.92130280006677, 19.452157199848443]","[0.00025190040469169617, 0.014384999871253967, 0.014203500002622604, 0.0346514000557363, 0.0479377000592649, 0.04805450001731515, 0.0631489995867014, 0.05156389996409416, 0.07937359996140003, 0.09514529956504703, 0.04707159986719489, 13.921314899809659, 19.45216519990936]",0,,,,,,,,,,,,,,,,,,,,,,,,,,,,,,,,,,,,,,,,,,,,,,,,,,,,,,,,,,,,,,,,,,,,,,,,,,,,,,,,,,,,,,,,,,,,,,,,,,,,,,,,,,,,,,,,,,,,,,,,,,,,EFZ715,train_y,blue_star,top_right,2025-02-18_16h15.21.921,HideSeek_v1,2022.2.5,59.957538069292156,
,,,,,,,,,,,,,,,1,0,1,0,1,0,1,0,,,,,,,,,,,,,,,,,,,,,,,,,,,,,,,conditions/schedules/train_y_first/blue_star_00/top_right/instructions/Slide14.png,conditions/schedules/train_y_first/blue_star_00/top_right/instructions/Audio14.wav,1803.8322482001968,1803.832000500057,14,"[5.716855899896473, 18.296663800254464, 16.82164469966665, 19.940974600147456, 4.859437599778175, 4.384993200190365, 5.48614800022915, 11.939275399781764, 5.9558911002241075, 6.918575600255281, 11.087679699994624, 13.92130280006677, 19.452157199848443, 16.66135980002582]","[0.00025190040469169617, 0.014384999871253967, 0.014203500002622604, 0.0346514000557363, 0.0479377000592649, 0.04805450001731515, 0.0631489995867014, 0.05156389996409416, 0.07937359996140003, 0.09514529956504703, 0.04707159986719489, 13.921314899809659, 19.45216519990936, 16.661367000080645]",0,,,,,,,,,,,,,,,,,,,,,,,,,,,,,,,,,,,,,,,,,,,,,,,,,,,,,,,,,,,,,,,,,,,,,,,,,,,,,,,,,,,,,,,,,,,,,,,,,,,,,,,,,,,,,,,,,,,,,,,,,,,,EFZ715,train_y,blue_star,top_right,2025-02-18_16h15.21.921,HideSeek_v1,2022.2.5,59.957538069292156,
2,7,8,7,8,0,0,61,2,instr_dim1_1,,,,,,1,0,1,0,,,,,0,0,0,0,,,,,,,,,,,,,,,,,,,,,,,,,,,,,,,,,,,,,stimuli/alien_stimuli/61.png,conditions/schedules/train_y_first/blue_star_00/top_right/inputInstr_1.xlsx,stimuli/alien_stimuli/61.png,1820.5900750998408,1820.5900750998408,1820.5900750998408,1820.5900750998408,1820.5960060798561,return,6.506321100052446,"[-0.16, -0.08, 0, 0.08, 0.16, 0.24, 0.32, 0.4, 0.48, 0.56]","[-0.4, -0.32, -0.24, -0.16, -0.08, 0, 0.08, 0.16, 0.24, 0.32]",8,8,7,7,0.0,0.0,1827.2546027000062,1827.2546027000062,1827.2546027000062,1827.2546027000062,1827.2546027000062,1827.2546027000062,1827.2546027000062,1827.2514073598197,6.873110600281507,return,6.710463200230151,stimuli/alien_stimuli/61.png,61,7,2,,,,,,,,,,,,,,,,,,,,,,,,,,,,,,,,,,,,,,,,,,,,,,,,,,,,,,,,,,,,,,,,,,,,,,,,,,,,,,,,,,,,,,,,,EFZ715,train_y,blue_star,top_right,2025-02-18_16h15.21.921,HideSeek_v1,2022.2.5,59.957538069292156,
,,,,,,,,,,,30,,,,1,0,1,0,,,,,,,,,,,,,,,,,,,,,,,,,,,,,,,,,,,,,,,,,,,,,,,,,,,,,,,,,,,,,,,,,,,,,,,,,,,,,,21,0.7,0,0,99,1,30,0,conditions/schedules/train_y_first/blue_star_00/top_right/inputTrain_1.1.xlsx,99,1,1,1,0,,,,,,,,,,,,,,,,,,,,,,,,,,,,,,,,,,,,,,,,,,,,,,,,,,,,,,,,,,,,,,,,,,,,,,,,,,,EFZ715,train_y,blue_star,top_right,2025-02-18_16h15.21.921,HideSeek_v1,2022.2.5,59.957538069292156,
,,,,,,,,,,,,,,,2,0,2,0,0,0,0,0,,,,,,,,,,,,,,,,,,,,,,,,,,,,,,,conditions/schedules/train_y_first/blue_star_00/top_right/instructions/Slide15.png,conditions/schedules/train_y_first/blue_star_00/top_right/instructions/Audio15.wav,1834.126197699923,1834.123890759982,15,"[5.716855899896473, 18.296663800254464, 16.82164469966665, 19.940974600147456, 4.859437599778175, 4.384993200190365, 5.48614800022915, 11.939275399781764, 5.9558911002241075, 6.918575600255281, 11.087679699994624, 13.92130280006677, 19.452157199848443, 16.66135980002582, 43.080128400120884]","[0.00025190040469169617, 0.014384999871253967, 0.014203500002622604, 0.0346514000557363, 0.0479377000592649, 0.04805450001731515, 0.0631489995867014, 0.05156389996409416, 0.07937359996140003, 0.09514529956504703, 0.04707159986719489, 13.921314899809659, 19.45216519990936, 16.661367000080645, 43.0801357999444]",0,,,,,,,,,,,,,,,,,,,,,,,,,,,,,,,,,,,,,,,,,,,,,,,,,,,,,,,,,,,,,,,,,,,,,,,,,,,,,,,,,,,,,,,,,,,,,,,,,,,,,,,,,,,,,,,,,,,,,,,,,,,,EFZ715,train_y,blue_star,top_right,2025-02-18_16h15.21.921,HideSeek_v1,2022.2.5,59.957538069292156,
,,,,,,,,,,,,,,,2,0,2,0,1,0,1,0,,,,,,,,,,,,,,,,,,,,,,,,,,,,,,,conditions/schedules/train_y_first/blue_star_00/top_right/instructions/Slide16.png,conditions/schedules/train_y_first/blue_star_00/top_right/instructions/Audio16.wav,1877.281568000093,1877.276024099905,16,"[5.716855899896473, 18.296663800254464, 16.82164469966665, 19.940974600147456, 4.859437599778175, 4.384993200190365, 5.48614800022915, 11.939275399781764, 5.9558911002241075, 6.918575600255281, 11.087679699994624, 13.92130280006677, 19.452157199848443, 16.66135980002582, 43.080128400120884, 22.627658899873495]","[0.00025190040469169617, 0.014384999871253967, 0.014203500002622604, 0.0346514000557363, 0.0479377000592649, 0.04805450001731515, 0.0631489995867014, 0.05156389996409416, 0.07937359996140003, 0.09514529956504703, 0.04707159986719489, 13.921314899809659, 19.45216519990936, 16.661367000080645, 0.014108999632298946, 22.62766659958288]",0,,,,,,,,,,,,,,,,,,,,,,,,,,,,,,,,,,,,,,,,,,,,,,,,,,,,,,,,,,,,,,,,,,,,,,,,,,,,,,,,,,,,,,,,,,,,,,,,,,,,,,,,,,,,,,,,,,,,,,,,,,,,EFZ715,train_y,blue_star,top_right,2025-02-18_16h15.21.921,HideSeek_v1,2022.2.5,59.957538069292156,
,5,5,5,1,0,-4,65,,train_dim1_1,1,30,,,,2,0,2,0,,,,,,,,,0,0,0,0,0,0,0,0,0,0,0,0,,,,,,,,,,,,,,,,,,,,,,,,,stimuli/alien_stimuli/65.png,,,,,,,,,,,,,,,,,,,,,,,,,,,,,,,,,,,,,,,30,,,,,,,,1900.0120947998948,1900.0120947998948,1900.0120947998948,1900.0120947998948,1900.0120947998948,right,3.3823311999440193,0,0,0,99,0.32,0,right,3.279558700043708,,,,,,,,,,,,,,,,,,,,,,,,,,,,,,,,,,,,,,,,,,,,,,,,,,,,,,,,,,,,EFZ715,train_y,blue_star,top_right,2025-02-18_16h15.21.921,HideSeek_v1,2022.2.5,59.957538069292156,
,5,5,5,1,0,-4,65,,train_dim1_1,1,30,,,,2,0,2,0,,,,,,,,,0,0,0,0,0,0,0,0,1,0,1,0,,,,,,,,,,,,,,,,,,,,,,,,,,,,,,,,,,,,,,,,,,,,,,,,,,,,,,,,,,,,,,,,30,,,,,,,,1903.3789650998078,1903.3789650998078,1903.3789650998078,1903.3789650998078,1903.3789650998078,right,0.6085548000410199,0,0,0,99,0.4,0,right,0.5367379002273083,,,,,,,,,,,,,,,,,,,,,,,,,,,,,,,,,,,,,,,,,,,,,,,,,,,,,,,,,,,,EFZ715,train_y,blue_star,top_right,2025-02-18_16h15.21.921,HideSeek_v1,2022.2.5,59.957538069292156,
,5,5,5,1,0,-4,65,,train_dim1_1,1,30,,,,2,0,2,0,,,,,,,,,0,0,0,0,0,0,0,0,2,0,2,0,,,,,,,,,,,,,,,,,,,,,,,,,,,,,,,,,,,,,,,,,,,,,,,,,,,,,,,,,,,,,,,,30,,,,,,,,1903.9941015001386,1903.9941015001386,1903.9941015001386,1903.9941015001386,1903.9941015001386,down,0.6271532997488976,0,0,0,99,0.4,-0.08,down,0.5515373004600406,,,,,,,,,,,,,,,,,,,,,,,,,,,,,,,,,,,,,,,,,,,,,,,,,,,,,,,,,,,,EFZ715,train_y,blue_star,top_right,2025-02-18_16h15.21.921,HideSeek_v1,2022.2.5,59.957538069292156,
,5,5,5,1,0,-4,65,,train_dim1_1,1,30,,,,2,0,2,0,,,,,,,,,0,0,0,0,0,0,0,0,3,0,3,0,,,,,,,,,,,,,,,,,,,,,,,,,,,,,,,,,,,,,,,,,,,,,,,,,,,,,,,,,,,,,,,,30,,,,,,,,1904.6308217998594,1904.6308217998594,1904.6308217998594,1904.6308217998594,1904.6308217998594,left,1.1582524999976158,0,0,0,99,0.32,-0.08,left,1.0806944998912513,,,,,,,,,,,,,,,,,,,,,,,,,,,,,,,,,,,,,,,,,,,,,,,,,,,,,,,,,,,,EFZ715,train_y,blue_star,top_right,2025-02-18_16h15.21.921,HideSeek_v1,2022.2.5,59.957538069292156,
,5,5,5,1,0,-4,65,,train_dim1_1,1,30,,,,2,0,2,0,,,,,,,,,0,0,0,0,0,0,0,0,4,0,4,0,,,,,,,,,,,,,,,,,,,,,,,,,,,,,,,,,,,,,,,,,,,,,,,,,,,,,,,,,,,,,,,,30,,,,,,,,1905.7950206999667,1905.7950206999667,1905.7950206999667,1905.7950206999667,1905.7950206999667,left,0.644055699929595,0,0,0,99,0.24,-0.08,left,0.5676275002770126,,,,,,,,,,,,,,,,,,,,,,,,,,,,,,,,,,,,,,,,,,,,,,,,,,,,,,,,,,,,EFZ715,train_y,blue_star,top_right,2025-02-18_16h15.21.921,HideSeek_v1,2022.2.5,59.957538069292156,
,5,5,5,1,0,-4,65,,train_dim1_1,1,30,,,,2,0,2,0,,,,,,,,,0,0,0,0,0,0,0,0,5,0,5,0,,,,,,,,,,,,,,,,,,,,,,,,,,,,,,,,,,,,,,,,,,,,,,,,,,,,,,,,,,,,,,,,30,,,,,,,,1906.446817500051,1906.446817500051,1906.446817500051,1906.446817500051,1906.446817500051,down,0.40938299987465143,0,0,0,99,0.24,-0.16,down,0.3293043999001384,,,,,,,,,,,,,,,,,,,,,,,,,,,,,,,,,,,,,,,,,,,,,,,,,,,,,,,,,,,,EFZ715,train_y,blue_star,top_right,2025-02-18_16h15.21.921,HideSeek_v1,2022.2.5,59.957538069292156,
,5,5,5,1,0,-4,65,,train_dim1_1,1,30,,,,2,0,2,0,,,,,,,,,0,0,0,0,0,0,0,0,6,0,6,0,,,,,,,,,,,,,,,,,,,,,,,,,,,,,,,,,,,,,,,,,,,,,,,,,,,,,,,,,,,,,,,,30,,,,,,,,1906.863492100034,1906.863492100034,1906.863492100034,1906.863492100034,1906.863492100034,down,0.3101527998223901,0,0,0,99,0.24,-0.24,down,0.23334260005503893,,,,,,,,,,,,,,,,,,,,,,,,,,,,,,,,,,,,,,,,,,,,,,,,,,,,,,,,,,,,EFZ715,train_y,blue_star,top_right,2025-02-18_16h15.21.921,HideSeek_v1,2022.2.5,59.957538069292156,
,5,5,5,1,0,-4,65,,train_dim1_1,1,30,,,,2,0,2,0,,,,,,,,,0,0,0,0,0,0,0,0,7,0,7,0,,,,,,,,,,,,,,,,,,,,,,,,,,,,,,,,,,,,,,,,,,,,,,,,,,,,,,,,,,,,,,,,30,,,,,,,,1907.1802154998295,1907.1802154998295,1907.1802154998295,1907.1802154998295,1907.1802154998295,down,1.460798699874431,0,0,0,99,0.24,-0.32,down,1.3798596002161503,,,,,,,,,,,,,,,,,,,,,,,,,,,,,,,,,,,,,,,,,,,,,,,,,,,,,,,,,,,,EFZ715,train_y,blue_star,top_right,2025-02-18_16h15.21.921,HideSeek_v1,2022.2.5,59.957538069292156,
,5,5,5,1,0,-4,65,,train_dim1_1,1,30,,,,2,0,2,0,,,,,,,,,0,0,0,0,0,0,0,0,8,0,8,0,,,,,,,,,,,,,,,,,,,,,,,,,,,,,,,,,,,,,,,,,,,,,,,,,,,,,,,,,,,,,,,,30,,,,,,,,1908.6482891999185,1908.6482891999185,1908.6482891999185,1908.6482891999185,1908.6482891999185,return,0.6265245000831783,1,0,0,1,0.24,-0.32,return,0.5552735002711415,-4,0,0.24,-0.32,,,,,,,,,,,,,,,,,,,,,,,,,,,,,,,,,,,,,,,,,,,,,,,,,,,,,,,,EFZ715,train_y,blue_star,top_right,2025-02-18_16h15.21.921,HideSeek_v1,2022.2.5,59.957538069292156,
,8,7,8,2,0,-5,66,,train_dim1_1,2,30,,,,2,0,2,0,,,,,,,,,0,0,0,0,0,1,1,1,0,0,0,0,,,,,,,,,,,,,,,,,,,,,,,,,stimuli/alien_stimuli/66.png,,,,,,,,,,,,,,,,,,,,,,,,,,,,,stimuli/alien_stimuli/65.png,65,5,3,,,,,,,30,,,,,,,,1922.5960960001685,1922.5960960001685,1922.5960960001685,1922.5960960001685,1922.5960960001685,left,2.474478400312364,1,0,0,99,0.39999999999999997,0.16,left,2.378337500151247,,,,,1921.0292619997635,1922.5960960001685,0.24,-0.32,0.32,0.0,-0.16,0.24,0.24,0.24,-0.32,1910.852322400082,1910.852322400082,1910.852322400082,1910.852322400082,1910.852322400082,1910.852322400082,1910.852322400082,1910.852322400082,1910.8373971798455,10.294833899941295,return,10.161343700252473,,,,,,,,,,,,,,,,,,,,,,,,,,,,,,,,,EFZ715,train_y,blue_star,top_right,2025-02-18_16h15.21.921,HideSeek_v1,2022.2.5,59.957538069292156,
,8,7,8,2,0,-5,66,,train_dim1_1,2,30,,,,2,0,2,0,,,,,,,,,0,0,0,0,0,1,1,1,1,0,1,0,,,,,,,,,,,,,,,,,,,,,,,,,,,,,,,,,,,,,,,,,,,,,,,,,,,,,,,,,,,,,,,,30,,,,,,,,1925.0635592998005,1925.0635592998005,1925.0635592998005,1925.0635592998005,1925.0635592998005,left,0.474638800136745,1,0,0,99,0.31999999999999995,0.16,left,0.3929500002413988,,,,,,,,,,,,,,,,,,,,,,,,,,,,,,,,,,,,,,,,,,,,,,,,,,,,,,,,,,,,EFZ715,train_y,blue_star,top_right,2025-02-18_16h15.21.921,HideSeek_v1,2022.2.5,59.957538069292156,
,8,7,8,2,0,-5,66,,train_dim1_1,2,30,,,,2,0,2,0,,,,,,,,,0,0,0,0,0,1,1,1,2,0,2,0,,,,,,,,,,,,,,,,,,,,,,,,,,,,,,,,,,,,,,,,,,,,,,,,,,,,,,,,,,,,,,,,30,,,,,,,,1925.5452486998402,1925.5452486998402,1925.5452486998402,1925.5452486998402,1925.5452486998402,left,0.30985300010070205,1,0,0,99,0.23999999999999994,0.16,left,0.23006050009280443,,,,,,,,,,,,,,,,,,,,,,,,,,,,,,,,,,,,,,,,,,,,,,,,,,,,,,,,,,,,EFZ715,train_y,blue_star,top_right,2025-02-18_16h15.21.921,HideSeek_v1,2022.2.5,59.957538069292156,
,8,7,8,2,0,-5,66,,train_dim1_1,2,30,,,,2,0,2,0,,,,,,,,,0,0,0,0,0,1,1,1,3,0,3,0,,,,,,,,,,,,,,,,,,,,,,,,,,,,,,,,,,,,,,,,,,,,,,,,,,,,,,,,,,,,,,,,30,,,,,,,,1925.8618610999547,1925.8618610999547,1925.8618610999547,1925.8618610999547,1925.8618610999547,left,0.2935362998396158,1,0,0,99,0.15999999999999992,0.16,left,0.2140323999337852,,,,,,,,,,,,,,,,,,,,,,,,,,,,,,,,,,,,,,,,,,,,,,,,,,,,,,,,,,,,EFZ715,train_y,blue_star,top_right,2025-02-18_16h15.21.921,HideSeek_v1,2022.2.5,59.957538069292156,
,8,7,8,2,0,-5,66,,train_dim1_1,2,30,,,,2,0,2,0,,,,,,,,,0,0,0,0,0,1,1,1,4,0,4,0,,,,,,,,,,,,,,,,,,,,,,,,,,,,,,,,,,,,,,,,,,,,,,,,,,,,,,,,,,,,,,,,30,,,,,,,,1926.1623229999095,1926.1623229999095,1926.1623229999095,1926.1623229999095,1926.1623229999095,down,0.6770728998817503,1,0,0,99,0.15999999999999992,0.08,down,0.5918236002326012,,,,,,,,,,,,,,,,,,,,,,,,,,,,,,,,,,,,,,,,,,,,,,,,,,,,,,,,,,,,EFZ715,train_y,blue_star,top_right,2025-02-18_16h15.21.921,HideSeek_v1,2022.2.5,59.957538069292156,
,8,7,8,2,0,-5,66,,train_dim1_1,2,30,,,,2,0,2,0,,,,,,,,,0,0,0,0,0,1,1,1,5,0,5,0,,,,,,,,,,,,,,,,,,,,,,,,,,,,,,,,,,,,,,,,,,,,,,,,,,,,,,,,,,,,,,,,30,,,,,,,,1926.8471972001716,1926.8471972001716,1926.8471972001716,1926.8471972001716,1926.8471972001716,down,0.20912430016323924,1,0,0,99,0.15999999999999992,0.0,down,0.13690510019659996,,,,,,,,,,,,,,,,,,,,,,,,,,,,,,,,,,,,,,,,,,,,,,,,,,,,,,,,,,,,EFZ715,train_y,blue_star,top_right,2025-02-18_16h15.21.921,HideSeek_v1,2022.2.5,59.957538069292156,
,8,7,8,2,0,-5,66,,train_dim1_1,2,30,,,,2,0,2,0,,,,,,,,,0,0,0,0,0,1,1,1,6,0,6,0,,,,,,,,,,,,,,,,,,,,,,,,,,,,,,,,,,,,,,,,,,,,,,,,,,,,,,,,,,,,,,,,30,,,,,,,,1927.0633108001202,1927.0633108001202,1927.0633108001202,1927.0633108001202,1927.0633108001202,down,0.39384140027686954,1,0,0,99,0.15999999999999992,-0.08,down,0.32053450029343367,,,,,,,,,,,,,,,,,,,,,,,,,,,,,,,,,,,,,,,,,,,,,,,,,,,,,,,,,,,,EFZ715,train_y,blue_star,top_right,2025-02-18_16h15.21.921,HideSeek_v1,2022.2.5,59.957538069292156,
,8,7,8,2,0,-5,66,,train_dim1_1,2,30,,,,2,0,2,0,,,,,,,,,0,0,0,0,0,1,1,1,7,0,7,0,,,,,,,,,,,,,,,,,,,,,,,,,,,,,,,,,,,,,,,,,,,,,,,,,,,,,,,,,,,,,,,,30,,,,,,,,1927.4638073001988,1927.4638073001988,1927.4638073001988,1927.4638073001988,1927.4638073001988,down,0.30979770002886653,1,0,0,99,0.15999999999999992,-0.16,down,0.23355970019474626,,,,,,,,,,,,,,,,,,,,,,,,,,,,,,,,,,,,,,,,,,,,,,,,,,,,,,,,,,,,EFZ715,train_y,blue_star,top_right,2025-02-18_16h15.21.921,HideSeek_v1,2022.2.5,59.957538069292156,
,8,7,8,2,0,-5,66,,train_dim1_1,2,30,,,,2,0,2,0,,,,,,,,,0,0,0,0,0,1,1,1,8,0,8,0,,,,,,,,,,,,,,,,,,,,,,,,,,,,,,,,,,,,,,,,,,,,,,,,,,,,,,,,,,,,,,,,30,,,,,,,,1927.7801123000681,1927.7801123000681,1927.7801123000681,1927.7801123000681,1927.7801123000681,down,0.37679449981078506,1,0,0,99,0.15999999999999992,-0.24,down,0.30042089987546206,,,,,,,,,,,,,,,,,,,,,,,,,,,,,,,,,,,,,,,,,,,,,,,,,,,,,,,,,,,,EFZ715,train_y,blue_star,top_right,2025-02-18_16h15.21.921,HideSeek_v1,2022.2.5,59.957538069292156,
,8,7,8,2,0,-5,66,,train_dim1_1,2,30,,,,2,0,2,0,,,,,,,,,0,0,0,0,0,1,1,1,9,0,9,0,,,,,,,,,,,,,,,,,,,,,,,,,,,,,,,,,,,,,,,,,,,,,,,,,,,,,,,,,,,,,,,,30,,,,,,,,1928.1645659999922,1928.1645659999922,1928.1645659999922,1928.1645659999922,1928.1645659999922,right,4.212693899869919,1,0,0,99,0.23999999999999994,-0.24,right,4.135535300243646,,,,,,,,,,,,,,,,,,,,,,,,,,,,,,,,,,,,,,,,,,,,,,,,,,,,,,,,,,,,EFZ715,train_y,blue_star,top_right,2025-02-18_16h15.21.921,HideSeek_v1,2022.2.5,59.957538069292156,
,8,7,8,2,0,-5,66,,train_dim1_1,2,30,,,,2,0,2,0,,,,,,,,,0,0,0,0,0,1,1,1,10,0,10,0,,,,,,,,,,,,,,,,,,,,,,,,,,,,,,,,,,,,,,,,,,,,,,,,,,,,,,,,,,,,,,,,30,,,,,,,,1932.3843363001943,1932.3843363001943,1932.3843363001943,1932.3843363001943,1932.3843363001943,right,0.29346089996397495,1,0,0,99,0.31999999999999995,-0.24,right,0.2166050998494029,,,,,,,,,,,,,,,,,,,,,,,,,,,,,,,,,,,,,,,,,,,,,,,,,,,,,,,,,,,,EFZ715,train_y,blue_star,top_right,2025-02-18_16h15.21.921,HideSeek_v1,2022.2.5,59.957538069292156,
,8,7,8,2,0,-5,66,,train_dim1_1,2,30,,,,2,0,2,0,,,,,,,,,0,0,0,0,0,1,1,1,11,0,11,0,,,,,,,,,,,,,,,,,,,,,,,,,,,,,,,,,,,,,,,,,,,,,,,,,,,,,,,,,,,,,,,,30,,,,,,,,1932.6843555001542,1932.6843555001542,1932.6843555001542,1932.6843555001542,1932.6843555001542,right,0.2763873999938369,1,0,0,99,0.39999999999999997,-0.24,right,0.20385560020804405,,,,,,,,,,,,,,,,,,,,,,,,,,,,,,,,,,,,,,,,,,,,,,,,,,,,,,,,,,,,EFZ715,train_y,blue_star,top_right,2025-02-18_16h15.21.921,HideSeek_v1,2022.2.5,59.957538069292156,
,8,7,8,2,0,-5,66,,train_dim1_1,2,30,,,,2,0,2,0,,,,,,,,,0,0,0,0,0,1,1,1,12,0,12,0,,,,,,,,,,,,,,,,,,,,,,,,,,,,,,,,,,,,,,,,,,,,,,,,,,,,,,,,,,,,,,,,30,,,,,,,,1932.9673562999815,1932.9673562999815,1932.9673562999815,1932.9673562999815,1932.9673562999815,right,0.3932273997925222,1,0,0,99,0.48,-0.24,right,0.31197130028158426,,,,,,,,,,,,,,,,,,,,,,,,,,,,,,,,,,,,,,,,,,,,,,,,,,,,,,,,,,,,EFZ715,train_y,blue_star,top_right,2025-02-18_16h15.21.921,HideSeek_v1,2022.2.5,59.957538069292156,
,8,7,8,2,0,-5,66,,train_dim1_1,2,30,,,,2,0,2,0,,,,,,,,,0,0,0,0,0,1,1,1,13,0,13,0,,,,,,,,,,,,,,,,,,,,,,,,,,,,,,,,,,,,,,,,,,,,,,,,,,,,,,,,,,,,,,,,30,,,,,,,,1933.36813060008,1933.36813060008,1933.36813060008,1933.36813060008,1933.36813060008,return,1.5946698999032378,2,0,0,1,0.48,-0.24,return,1.517748299986124,-9,0,0.48,-0.24,,,,,,,,,,,,,,,,,,,,,,,,,,,,,,,,,,,,,,,,,,,,,,,,,,,,,,,,EFZ715,train_y,blue_star,top_right,2025-02-18_16h15.21.921,HideSeek_v1,2022.2.5,59.957538069292156,
,7,8,7,5,0,-3,64,,train_dim1_1,3,30,,,,2,0,2,0,,,,,,,,,0,0,0,0,0,2,2,2,0,0,0,0,,,,,,,,,,,,,,,,,,,,,,,,,stimuli/alien_stimuli/64.png,,,,,,,,,,,,,,,,,,,,,,,,,,,,,stimuli/alien_stimuli/66.png,66,8,4,,,,,,,30,,,,,,,,1941.9177752998658,1941.9177752998658,1941.9177752998658,1941.9177752998658,1941.9177752998658,down,1.5534592000767589,2,0,0,99,0.4,0.15999999999999998,down,1.4673531004227698,,,,,1940.3617353998125,1941.9177752998658,0.48,-0.24,0.4,0.0,-0.039999999999999994,0.48,0.48,0.48,-0.24,1936.5366333001293,1936.5366333001293,1936.5366333001293,1936.5366333001293,1936.5366333001293,1936.5366333001293,1936.5366333001293,1936.5366333001293,1936.5251303797586,3.9390150997787714,return,3.8082866999320686,,,,,,,,,,,,,,,,,,,,,,,,,,,,,,,,,EFZ715,train_y,blue_star,top_right,2025-02-18_16h15.21.921,HideSeek_v1,2022.2.5,59.957538069292156,
,7,8,7,5,0,-3,64,,train_dim1_1,3,30,,,,2,0,2,0,,,,,,,,,0,0,0,0,0,2,2,2,1,0,1,0,,,,,,,,,,,,,,,,,,,,,,,,,,,,,,,,,,,,,,,,,,,,,,,,,,,,,,,,,,,,,,,,30,,,,,,,,1943.477586899884,1943.477586899884,1943.477586899884,1943.477586899884,1943.477586899884,down,0.49230980034917593,2,0,0,99,0.4,0.07999999999999997,down,0.4125684006139636,,,,,,,,,,,,,,,,,,,,,,,,,,,,,,,,,,,,,,,,,,,,,,,,,,,,,,,,,,,,EFZ715,train_y,blue_star,top_right,2025-02-18_16h15.21.921,HideSeek_v1,2022.2.5,59.957538069292156,
,7,8,7,5,0,-3,64,,train_dim1_1,3,30,,,,2,0,2,0,,,,,,,,,0,0,0,0,0,2,2,2,2,0,2,0,,,,,,,,,,,,,,,,,,,,,,,,,,,,,,,,,,,,,,,,,,,,,,,,,,,,,,,,,,,,,,,,30,,,,,,,,1943.9766454999335,1943.9766454999335,1943.9766454999335,1943.9766454999335,1943.9766454999335,down,2.5118037001229823,2,0,0,99,0.4,-2.7755575615628914e-17,down,2.4335014005191624,,,,,,,,,,,,,,,,,,,,,,,,,,,,,,,,,,,,,,,,,,,,,,,,,,,,,,,,,,,,EFZ715,train_y,blue_star,top_right,2025-02-18_16h15.21.921,HideSeek_v1,2022.2.5,59.957538069292156,
,7,8,7,5,0,-3,64,,train_dim1_1,3,30,,,,2,0,2,0,,,,,,,,,0,0,0,0,0,2,2,2,3,0,3,0,,,,,,,,,,,,,,,,,,,,,,,,,,,,,,,,,,,,,,,,,,,,,,,,,,,,,,,,,,,,,,,,30,,,,,,,,1946.4985822001472,1946.4985822001472,1946.4985822001472,1946.4985822001472,1946.4985822001472,down,0.5240292004309595,2,0,0,99,0.4,-0.08000000000000003,down,0.4375401004217565,,,,,,,,,,,,,,,,,,,,,,,,,,,,,,,,,,,,,,,,,,,,,,,,,,,,,,,,,,,,EFZ715,train_y,blue_star,top_right,2025-02-18_16h15.21.921,HideSeek_v1,2022.2.5,59.957538069292156,
,7,8,7,5,0,-3,64,,train_dim1_1,3,30,,,,2,0,2,0,,,,,,,,,0,0,0,0,0,2,2,2,4,0,4,0,,,,,,,,,,,,,,,,,,,,,,,,,,,,,,,,,,,,,,,,,,,,,,,,,,,,,,,,,,,,,,,,30,,,,,,,,1947.0292768999934,1947.0292768999934,1947.0292768999934,1947.0292768999934,1947.0292768999934,left,1.3271842999383807,2,0,0,99,0.32,-0.08000000000000003,left,1.2402606001123786,,,,,,,,,,,,,,,,,,,,,,,,,,,,,,,,,,,,,,,,,,,,,,,,,,,,,,,,,,,,EFZ715,train_y,blue_star,top_right,2025-02-18_16h15.21.921,HideSeek_v1,2022.2.5,59.957538069292156,
,7,8,7,5,0,-3,64,,train_dim1_1,3,30,,,,2,0,2,0,,,,,,,,,0,0,0,0,0,2,2,2,5,0,5,0,,,,,,,,,,,,,,,,,,,,,,,,,,,,,,,,,,,,,,,,,,,,,,,,,,,,,,,,,,,,,,,,30,,,,,,,,1948.3640566999093,1948.3640566999093,1948.3640566999093,1948.3640566999093,1948.3640566999093,left,0.34317100001499057,2,0,0,99,0.24,-0.08000000000000003,left,0.26058390038087964,,,,,,,,,,,,,,,,,,,,,,,,,,,,,,,,,,,,,,,,,,,,,,,,,,,,,,,,,,,,EFZ715,train_y,blue_star,top_right,2025-02-18_16h15.21.921,HideSeek_v1,2022.2.5,59.957538069292156,
,7,8,7,5,0,-3,64,,train_dim1_1,3,30,,,,2,0,2,0,,,,,,,,,0,0,0,0,0,2,2,2,6,0,6,0,,,,,,,,,,,,,,,,,,,,,,,,,,,,,,,,,,,,,,,,,,,,,,,,,,,,,,,,,,,,,,,,30,,,,,,,,1948.7136065000668,1948.7136065000668,1948.7136065000668,1948.7136065000668,1948.7136065000668,left,0.39362130034714937,2,0,0,99,0.15999999999999998,-0.08000000000000003,left,0.31283870013430715,,,,,,,,,,,,,,,,,,,,,,,,,,,,,,,,,,,,,,,,,,,,,,,,,,,,,,,,,,,,EFZ715,train_y,blue_star,top_right,2025-02-18_16h15.21.921,HideSeek_v1,2022.2.5,59.957538069292156,
,7,8,7,5,0,-3,64,,train_dim1_1,3,30,,,,2,0,2,0,,,,,,,,,0,0,0,0,0,2,2,2,7,0,7,0,,,,,,,,,,,,,,,,,,,,,,,,,,,,,,,,,,,,,,,,,,,,,,,,,,,,,,,,,,,,,,,,30,,,,,,,,1949.114547799807,1949.114547799807,1949.114547799807,1949.114547799807,1949.114547799807,left,1.8948782002553344,2,0,0,99,0.07999999999999997,-0.08000000000000003,left,1.8128369003534317,,,,,,,,,,,,,,,,,,,,,,,,,,,,,,,,,,,,,,,,,,,,,,,,,,,,,,,,,,,,EFZ715,train_y,blue_star,top_right,2025-02-18_16h15.21.921,HideSeek_v1,2022.2.5,59.957538069292156,
,7,8,7,5,0,-3,64,,train_dim1_1,3,30,,,,2,0,2,0,,,,,,,,,0,0,0,0,0,2,2,2,8,0,8,0,,,,,,,,,,,,,,,,,,,,,,,,,,,,,,,,,,,,,,,,,,,,,,,,,,,,,,,,,,,,,,,,30,,,,,,,,1951.0169715997763,1951.0169715997763,1951.0169715997763,1951.0169715997763,1951.0169715997763,return,0.9097079997882247,2,0,0,0,0.07999999999999997,-0.08000000000000003,return,0.8270873003639281,-13,-4,0.07999999999999997,-0.08000000000000003,,,,,,,,,,,,,,,,,,,,,,,,,,,,,,,,,,,,,,,,,,,,,,,,,,,,,,,,EFZ715,train_y,blue_star,top_right,2025-02-18_16h15.21.921,HideSeek_v1,2022.2.5,59.957538069292156,
,5,6,5,5,0,-1,62,,train_dim1_1,4,30,,,,2,0,2,0,,,,,,,,,0,0,0,0,0,3,3,3,0,0,0,0,,,,,,,,,,,,,,,,,,,,,,,,,stimuli/alien_stimuli/62.png,,,,,,,,,,,,,,,,,,,,,,,,,,,,,stimuli/alien_stimuli/64.png,64,7,5,,,,,,,30,,,,,,,,1963.000743799843,1963.000743799843,1963.000743799843,1963.000743799843,1963.000743799843,right,4.324977300129831,2,0,0,99,0.32,0.08,right,4.245818100403994,,,,,1961.4459192999639,1963.000743799843,0.4,0,0.24,0.0,0.12,0.4,0.4,0.4,0,1953.4985532998107,1953.4985532998107,1953.4985532998107,1953.4985532998107,1953.4985532998107,1953.4985532998107,1953.4985532998107,1953.4985532998107,1953.4893814798443,8.058526400011033,return,7.926427900325507,,,,,,,,,,,,,,,,,,,,,,,,,,,,,,,,,EFZ715,train_y,blue_star,top_right,2025-02-18_16h15.21.921,HideSeek_v1,2022.2.5,59.957538069292156,
,5,6,5,5,0,-1,62,,train_dim1_1,4,30,,,,2,0,2,0,,,,,,,,,0,0,0,0,0,3,3,3,1,0,1,0,,,,,,,,,,,,,,,,,,,,,,,,,,,,,,,,,,,,,,,,,,,,,,,,,,,,,,,,,,,,,,,,30,,,,,,,,1967.3343457998708,1967.3343457998708,1967.3343457998708,1967.3343457998708,1967.3343457998708,right,0.640362000092864,2,0,0,99,0.4,0.08,right,0.5662520001642406,,,,,,,,,,,,,,,,,,,,,,,,,,,,,,,,,,,,,,,,,,,,,,,,,,,,,,,,,,,,EFZ715,train_y,blue_star,top_right,2025-02-18_16h15.21.921,HideSeek_v1,2022.2.5,59.957538069292156,
,5,6,5,5,0,-1,62,,train_dim1_1,4,30,,,,2,0,2,0,,,,,,,,,0,0,0,0,0,3,3,3,2,0,2,0,,,,,,,,,,,,,,,,,,,,,,,,,,,,,,,,,,,,,,,,,,,,,,,,,,,,,,,,,,,,,,,,30,,,,,,,,1967.9811856001616,1967.9811856001616,1967.9811856001616,1967.9811856001616,1967.9811856001616,down,0.6269262996502221,2,0,0,99,0.4,0.0,down,0.5422786003910005,,,,,,,,,,,,,,,,,,,,,,,,,,,,,,,,,,,,,,,,,,,,,,,,,,,,,,,,,,,,EFZ715,train_y,blue_star,top_right,2025-02-18_16h15.21.921,HideSeek_v1,2022.2.5,59.957538069292156,
,5,6,5,5,0,-1,62,,train_dim1_1,4,30,,,,2,0,2,0,,,,,,,,,0,0,0,0,0,3,3,3,3,0,3,0,,,,,,,,,,,,,,,,,,,,,,,,,,,,,,,,,,,,,,,,,,,,,,,,,,,,,,,,,,,,,,,,30,,,,,,,,1968.614649400115,1968.614649400115,1968.614649400115,1968.614649400115,1968.614649400115,down,0.7436550999991596,2,0,0,99,0.4,-0.08,down,0.6694321003742516,,,,,,,,,,,,,,,,,,,,,,,,,,,,,,,,,,,,,,,,,,,,,,,,,,,,,,,,,,,,EFZ715,train_y,blue_star,top_right,2025-02-18_16h15.21.921,HideSeek_v1,2022.2.5,59.957538069292156,
,5,6,5,5,0,-1,62,,train_dim1_1,4,30,,,,2,0,2,0,,,,,,,,,0,0,0,0,0,3,3,3,4,0,4,0,,,,,,,,,,,,,,,,,,,,,,,,,,,,,,,,,,,,,,,,,,,,,,,,,,,,,,,,,,,,,,,,30,,,,,,,,1969.3658684999682,1969.3658684999682,1969.3658684999682,1969.3658684999682,1969.3658684999682,return,1.443697300273925,2,0,0,0,0.4,-0.08,return,1.371154900174588,-15,-2,0.4,-0.08,,,,,,,,,,,,,,,,,,,,,,,,,,,,,,,,,,,,,,,,,,,,,,,,,,,,,,,,EFZ715,train_y,blue_star,top_right,2025-02-18_16h15.21.921,HideSeek_v1,2022.2.5,59.957538069292156,
,8,8,8,8,0,0,61,,train_dim1_1,5,30,,,,2,0,2,0,,,,,,,,,0,0,0,0,0,4,4,4,0,0,0,0,,,,,,,,,,,,,,,,,,,,,,,,,stimuli/alien_stimuli/61.png,,,,,,,,,,,,,,,,,,,,,,,,,,,,,stimuli/alien_stimuli/62.png,62,5,6,,,,,,,30,,,,,,,,1977.5781439999118,1977.5781439999118,1977.5781439999118,1977.5781439999118,1977.5781439999118,left,1.855821800418198,2,0,0,99,0.39999999999999997,0.24,left,1.7708959002047777,,,,,1976.0248194001615,1977.5781439999118,0.24,0,0.08,0.0,0.04,0.24,0.24,0.24,0,1972.3767021000385,1972.3767021000385,1972.3767021000385,1972.3767021000385,1972.3767021000385,1972.3767021000385,1972.3767021000385,1972.3767021000385,1972.3716285799628,3.754871299955994,return,3.61976379994303,,,,,,,,,,,,,,,,,,,,,,,,,,,,,,,,,EFZ715,train_y,blue_star,top_right,2025-02-18_16h15.21.921,HideSeek_v1,2022.2.5,59.957538069292156,
,8,8,8,8,0,0,61,,train_dim1_1,5,30,,,,2,0,2,0,,,,,,,,,0,0,0,0,0,4,4,4,1,0,1,0,,,,,,,,,,,,,,,,,,,,,,,,,,,,,,,,,,,,,,,,,,,,,,,,,,,,,,,,,,,,,,,,30,,,,,,,,1979.4421394001693,1979.4421394001693,1979.4421394001693,1979.4421394001693,1979.4421394001693,left,0.3085692999884486,2,0,0,99,0.31999999999999995,0.24,left,0.2294701999053359,,,,,,,,,,,,,,,,,,,,,,,,,,,,,,,,,,,,,,,,,,,,,,,,,,,,,,,,,,,,EFZ715,train_y,blue_star,top_right,2025-02-18_16h15.21.921,HideSeek_v1,2022.2.5,59.957538069292156,
,8,8,8,8,0,0,61,,train_dim1_1,5,30,,,,2,0,2,0,,,,,,,,,0,0,0,0,0,4,4,4,2,0,2,0,,,,,,,,,,,,,,,,,,,,,,,,,,,,,,,,,,,,,,,,,,,,,,,,,,,,,,,,,,,,,,,,30,,,,,,,,1979.7574038999155,1979.7574038999155,1979.7574038999155,1979.7574038999155,1979.7574038999155,left,0.2599487002007663,2,0,0,99,0.23999999999999994,0.24,left,0.18241370003670454,,,,,,,,,,,,,,,,,,,,,,,,,,,,,,,,,,,,,,,,,,,,,,,,,,,,,,,,,,,,EFZ715,train_y,blue_star,top_right,2025-02-18_16h15.21.921,HideSeek_v1,2022.2.5,59.957538069292156,
,8,8,8,8,0,0,61,,train_dim1_1,5,30,,,,2,0,2,0,,,,,,,,,0,0,0,0,0,4,4,4,3,0,3,0,,,,,,,,,,,,,,,,,,,,,,,,,,,,,,,,,,,,,,,,,,,,,,,,,,,,,,,,,,,,,,,,30,,,,,,,,1980.0243195998482,1980.0243195998482,1980.0243195998482,1980.0243195998482,1980.0243195998482,down,0.42681149998679757,2,0,0,99,0.23999999999999994,0.15999999999999998,down,0.34150740038603544,,,,,,,,,,,,,,,,,,,,,,,,,,,,,,,,,,,,,,,,,,,,,,,,,,,,,,,,,,,,EFZ715,train_y,blue_star,top_right,2025-02-18_16h15.21.921,HideSeek_v1,2022.2.5,59.957538069292156,
,8,8,8,8,0,0,61,,train_dim1_1,5,30,,,,2,0,2,0,,,,,,,,,0,0,0,0,0,4,4,4,4,0,4,0,,,,,,,,,,,,,,,,,,,,,,,,,,,,,,,,,,,,,,,,,,,,,,,,,,,,,,,,,,,,,,,,30,,,,,,,,1980.458119200077,1980.458119200077,1980.458119200077,1980.458119200077,1980.458119200077,down,0.25997709995135665,2,0,0,99,0.23999999999999994,0.07999999999999997,down,0.17569510033354163,,,,,,,,,,,,,,,,,,,,,,,,,,,,,,,,,,,,,,,,,,,,,,,,,,,,,,,,,,,,EFZ715,train_y,blue_star,top_right,2025-02-18_16h15.21.921,HideSeek_v1,2022.2.5,59.957538069292156,
,8,8,8,8,0,0,61,,train_dim1_1,5,30,,,,2,0,2,0,,,,,,,,,0,0,0,0,0,4,4,4,5,0,5,0,,,,,,,,,,,,,,,,,,,,,,,,,,,,,,,,,,,,,,,,,,,,,,,,,,,,,,,,,,,,,,,,30,,,,,,,,1980.72742429981,1980.72742429981,1980.72742429981,1980.72742429981,1980.72742429981,down,0.2743293000385165,2,0,0,99,0.23999999999999994,-2.7755575615628914e-17,down,0.188410600181669,,,,,,,,,,,,,,,,,,,,,,,,,,,,,,,,,,,,,,,,,,,,,,,,,,,,,,,,,,,,EFZ715,train_y,blue_star,top_right,2025-02-18_16h15.21.921,HideSeek_v1,2022.2.5,59.957538069292156,
,8,8,8,8,0,0,61,,train_dim1_1,5,30,,,,2,0,2,0,,,,,,,,,0,0,0,0,0,4,4,4,6,0,6,0,,,,,,,,,,,,,,,,,,,,,,,,,,,,,,,,,,,,,,,,,,,,,,,,,,,,,,,,,,,,,,,,30,,,,,,,,1981.0135141997598,1981.0135141997598,1981.0135141997598,1981.0135141997598,1981.0135141997598,up,1.8107265001162887,2,0,0,99,0.23999999999999994,0.07999999999999997,up,1.724509600084275,,,,,,,,,,,,,,,,,,,,,,,,,,,,,,,,,,,,,,,,,,,,,,,,,,,,,,,,,,,,EFZ715,train_y,blue_star,top_right,2025-02-18_16h15.21.921,HideSeek_v1,2022.2.5,59.957538069292156,
,8,8,8,8,0,0,61,,train_dim1_1,5,30,,,,2,0,2,0,,,,,,,,,0,0,0,0,0,4,4,4,7,0,7,0,,,,,,,,,,,,,,,,,,,,,,,,,,,,,,,,,,,,,,,,,,,,,,,,,,,,,,,,,,,,,,,,30,,,,,,,,1982.8258613999933,1982.8258613999933,1982.8258613999933,1982.8258613999933,1982.8258613999933,up,0.3767546000890434,2,0,0,99,0.23999999999999994,0.15999999999999998,up,0.3042549006640911,,,,,,,,,,,,,,,,,,,,,,,,,,,,,,,,,,,,,,,,,,,,,,,,,,,,,,,,,,,,EFZ715,train_y,blue_star,top_right,2025-02-18_16h15.21.921,HideSeek_v1,2022.2.5,59.957538069292156,
,8,8,8,8,0,0,61,,train_dim1_1,5,30,,,,2,0,2,0,,,,,,,,,0,0,0,0,0,4,4,4,8,0,8,0,,,,,,,,,,,,,,,,,,,,,,,,,,,,,,,,,,,,,,,,,,,,,,,,,,,,,,,,,,,,,,,,30,,,,,,,,1983.2098964001052,1983.2098964001052,1983.2098964001052,1983.2098964001052,1983.2098964001052,up,0.6935019996017218,2,0,0,99,0.23999999999999994,0.24,up,0.6193054001778364,,,,,,,,,,,,,,,,,,,,,,,,,,,,,,,,,,,,,,,,,,,,,,,,,,,,,,,,,,,,EFZ715,train_y,blue_star,top_right,2025-02-18_16h15.21.921,HideSeek_v1,2022.2.5,59.957538069292156,
,8,8,8,8,0,0,61,,train_dim1_1,5,30,,,,2,0,2,0,,,,,,,,,0,0,0,0,0,4,4,4,9,0,9,0,,,,,,,,,,,,,,,,,,,,,,,,,,,,,,,,,,,,,,,,,,,,,,,,,,,,,,,,,,,,,,,,30,,,,,,,,1983.9118070001714,1983.9118070001714,1983.9118070001714,1983.9118070001714,1983.9118070001714,left,0.6933733001351357,2,0,0,99,0.15999999999999992,0.24,left,0.61991330049932,,,,,,,,,,,,,,,,,,,,,,,,,,,,,,,,,,,,,,,,,,,,,,,,,,,,,,,,,,,,EFZ715,train_y,blue_star,top_right,2025-02-18_16h15.21.921,HideSeek_v1,2022.2.5,59.957538069292156,
,8,8,8,8,0,0,61,,train_dim1_1,5,30,,,,2,0,2,0,,,,,,,,,0,0,0,0,0,4,4,4,10,0,10,0,,,,,,,,,,,,,,,,,,,,,,,,,,,,,,,,,,,,,,,,,,,,,,,,,,,,,,,,,,,,,,,,30,,,,,,,,1984.6119817001745,1984.6119817001745,1984.6119817001745,1984.6119817001745,1984.6119817001745,return,1.0265730996616185,2,0,0,0,0.15999999999999992,0.24,return,0.9443192998878658,-15,-6,0.15999999999999992,0.24,,,,,,,,,,,,,,,,,,,,,,,,,,,,,,,,,,,,,,,,,,,,,,,,,,,,,,,,EFZ715,train_y,blue_star,top_right,2025-02-18_16h15.21.921,HideSeek_v1,2022.2.5,59.957538069292156,
,6,9,6,8,0,-1,62,,train_dim1_1,6,30,,,,2,0,2,0,,,,,,,,,0,0,0,0,0,5,5,5,0,0,0,0,,,,,,,,,,,,,,,,,,,,,,,,,stimuli/alien_stimuli/62.png,,,,,,,,,,,,,,,,,,,,,,,,,,,,,stimuli/alien_stimuli/61.png,61,8,7,,,,,,,30,,,,,,,,1992.9768379000016,1992.9768379000016,1992.9768379000016,1992.9768379000016,1992.9768379000016,down,1.6703678998164833,2,0,0,99,0.32,0.24,down,1.5926667000167072,,,,,1991.4212374999188,1992.9768379000016,0.48,0.24,0.0,0.0,0.24,0.48,0.48,0.48,0.24,1987.2094983998686,1987.2094983998686,1987.2094983998686,1987.2094983998686,1987.2094983998686,1987.2094983998686,1987.2094983998686,1987.2094983998686,1987.2007539796641,4.3229748997837305,return,4.190941800363362,,,,,,,,,,,,,,,,,,,,,,,,,,,,,,,,,EFZ715,train_y,blue_star,top_right,2025-02-18_16h15.21.921,HideSeek_v1,2022.2.5,59.957538069292156,
,6,9,6,8,0,-1,62,,train_dim1_1,6,30,,,,2,0,2,0,,,,,,,,,0,0,0,0,0,5,5,5,1,0,1,0,,,,,,,,,,,,,,,,,,,,,,,,,,,,,,,,,,,,,,,,,,,,,,,,,,,,,,,,,,,,,,,,30,,,,,,,,1994.6530794999562,1994.6530794999562,1994.6530794999562,1994.6530794999562,1994.6530794999562,down,0.40997769962996244,2,0,0,99,0.32,0.15999999999999998,down,0.338145200163126,,,,,,,,,,,,,,,,,,,,,,,,,,,,,,,,,,,,,,,,,,,,,,,,,,,,,,,,,,,,EFZ715,train_y,blue_star,top_right,2025-02-18_16h15.21.921,HideSeek_v1,2022.2.5,59.957538069292156,
,6,9,6,8,0,-1,62,,train_dim1_1,6,30,,,,2,0,2,0,,,,,,,,,0,0,0,0,0,5,5,5,2,0,2,0,,,,,,,,,,,,,,,,,,,,,,,,,,,,,,,,,,,,,,,,,,,,,,,,,,,,,,,,,,,,,,,,30,,,,,,,,1995.0697630001232,1995.0697630001232,1995.0697630001232,1995.0697630001232,1995.0697630001232,down,0.3265203000046313,2,0,0,99,0.32,0.07999999999999997,down,0.2493296000175178,,,,,,,,,,,,,,,,,,,,,,,,,,,,,,,,,,,,,,,,,,,,,,,,,,,,,,,,,,,,EFZ715,train_y,blue_star,top_right,2025-02-18_16h15.21.921,HideSeek_v1,2022.2.5,59.957538069292156,
,6,9,6,8,0,-1,62,,train_dim1_1,6,30,,,,2,0,2,0,,,,,,,,,0,0,0,0,0,5,5,5,3,0,3,0,,,,,,,,,,,,,,,,,,,,,,,,,,,,,,,,,,,,,,,,,,,,,,,,,,,,,,,,,,,,,,,,30,,,,,,,,1995.4040831001475,1995.4040831001475,1995.4040831001475,1995.4040831001475,1995.4040831001475,down,0.309961199760437,2,0,0,99,0.32,-2.7755575615628914e-17,down,0.23246809979900718,,,,,,,,,,,,,,,,,,,,,,,,,,,,,,,,,,,,,,,,,,,,,,,,,,,,,,,,,,,,EFZ715,train_y,blue_star,top_right,2025-02-18_16h15.21.921,HideSeek_v1,2022.2.5,59.957538069292156,
,6,9,6,8,0,-1,62,,train_dim1_1,6,30,,,,2,0,2,0,,,,,,,,,0,0,0,0,0,5,5,5,4,0,4,0,,,,,,,,,,,,,,,,,,,,,,,,,,,,,,,,,,,,,,,,,,,,,,,,,,,,,,,,,,,,,,,,30,,,,,,,,1995.7205572999083,1995.7205572999083,1995.7205572999083,1995.7205572999083,1995.7205572999083,down,0.8605895000509918,2,0,0,99,0.32,-0.08000000000000003,down,0.7747767004184425,,,,,,,,,,,,,,,,,,,,,,,,,,,,,,,,,,,,,,,,,,,,,,,,,,,,,,,,,,,,EFZ715,train_y,blue_star,top_right,2025-02-18_16h15.21.921,HideSeek_v1,2022.2.5,59.957538069292156,
,6,9,6,8,0,-1,62,,train_dim1_1,6,30,,,,2,0,2,0,,,,,,,,,0,0,0,0,0,5,5,5,5,0,5,0,,,,,,,,,,,,,,,,,,,,,,,,,,,,,,,,,,,,,,,,,,,,,,,,,,,,,,,,,,,,,,,,30,,,,,,,,1996.5918676997535,1996.5918676997535,1996.5918676997535,1996.5918676997535,1996.5918676997535,down,0.34058830002322793,2,0,0,99,0.32,-0.16000000000000003,down,0.26037210039794445,,,,,,,,,,,,,,,,,,,,,,,,,,,,,,,,,,,,,,,,,,,,,,,,,,,,,,,,,,,,EFZ715,train_y,blue_star,top_right,2025-02-18_16h15.21.921,HideSeek_v1,2022.2.5,59.957538069292156,
,6,9,6,8,0,-1,62,,train_dim1_1,6,30,,,,2,0,2,0,,,,,,,,,0,0,0,0,0,5,5,5,6,0,6,0,,,,,,,,,,,,,,,,,,,,,,,,,,,,,,,,,,,,,,,,,,,,,,,,,,,,,,,,,,,,,,,,30,,,,,,,,1996.9376077000052,1996.9376077000052,1996.9376077000052,1996.9376077000052,1996.9376077000052,return,0.8271234999410808,2,0,0,0,0.32,-0.16000000000000003,return,0.75014020036906,-21,-6,0.32,-0.16000000000000003,,,,,,,,,,,,,,,,,,,,,,,,,,,,,,,,,,,,,,,,,,,,,,,,,,,,,,,,EFZ715,train_y,blue_star,top_right,2025-02-18_16h15.21.921,HideSeek_v1,2022.2.5,59.957538069292156,
,6,8,6,5,0,-3,64,,train_dim1_1,7,30,,,,2,0,2,0,,,,,,,,,0,0,0,0,0,6,6,6,0,0,0,0,,,,,,,,,,,,,,,,,,,,,,,,,stimuli/alien_stimuli/64.png,,,,,,,,,,,,,,,,,,,,,,,,,,,,,stimuli/alien_stimuli/62.png,62,6,8,,,,,,,30,,,,,,,,2006.6365843000822,2006.6365843000822,2006.6365843000822,2006.6365843000822,2006.6365843000822,down,1.6546743996441364,2,0,0,99,0.32,0.15999999999999998,down,1.5701498999260366,,,,,2005.0821409001946,2006.6365843000822,0.32,0.24,0.08,0.0,0.28,0.32,0.32,0.32,0.24,1999.336498899851,1999.336498899851,1999.336498899851,1999.336498899851,1999.336498899851,1999.336498899851,1999.336498899851,1999.336498899851,1999.3273376797324,5.856918099801987,return,5.726801300421357,,,,,,,,,,,,,,,,,,,,,,,,,,,,,,,,,EFZ715,train_y,blue_star,top_right,2025-02-18_16h15.21.921,HideSeek_v1,2022.2.5,59.957538069292156,
,6,8,6,5,0,-3,64,,train_dim1_1,7,30,,,,2,0,2,0,,,,,,,,,0,0,0,0,0,6,6,6,1,0,1,0,,,,,,,,,,,,,,,,,,,,,,,,,,,,,,,,,,,,,,,,,,,,,,,,,,,,,,,,,,,,,,,,30,,,,,,,,2008.3006388000213,2008.3006388000213,2008.3006388000213,2008.3006388000213,2008.3006388000213,left,0.5736735998652875,2,0,0,99,0.24,0.15999999999999998,left,0.4890485005453229,,,,,,,,,,,,,,,,,,,,,,,,,,,,,,,,,,,,,,,,,,,,,,,,,,,,,,,,,,,,EFZ715,train_y,blue_star,top_right,2025-02-18_16h15.21.921,HideSeek_v1,2022.2.5,59.957538069292156,
,6,8,6,5,0,-3,64,,train_dim1_1,7,30,,,,2,0,2,0,,,,,,,,,0,0,0,0,0,6,6,6,2,0,2,0,,,,,,,,,,,,,,,,,,,,,,,,,,,,,,,,,,,,,,,,,,,,,,,,,,,,,,,,,,,,,,,,30,,,,,,,,2008.8809060999192,2008.8809060999192,2008.8809060999192,2008.8809060999192,2008.8809060999192,down,0.34338630037382245,2,0,0,99,0.24,0.07999999999999997,down,0.26904020039364696,,,,,,,,,,,,,,,,,,,,,,,,,,,,,,,,,,,,,,,,,,,,,,,,,,,,,,,,,,,,EFZ715,train_y,blue_star,top_right,2025-02-18_16h15.21.921,HideSeek_v1,2022.2.5,59.957538069292156,
,6,8,6,5,0,-3,64,,train_dim1_1,7,30,,,,2,0,2,0,,,,,,,,,0,0,0,0,0,6,6,6,3,0,3,0,,,,,,,,,,,,,,,,,,,,,,,,,,,,,,,,,,,,,,,,,,,,,,,,,,,,,,,,,,,,,,,,30,,,,,,,,2009.2319740997627,2009.2319740997627,2009.2319740997627,2009.2319740997627,2009.2319740997627,down,0.9264782001264393,2,0,0,99,0.24,-2.7755575615628914e-17,down,0.8514134003780782,,,,,,,,,,,,,,,,,,,,,,,,,,,,,,,,,,,,,,,,,,,,,,,,,,,,,,,,,,,,EFZ715,train_y,blue_star,top_right,2025-02-18_16h15.21.921,HideSeek_v1,2022.2.5,59.957538069292156,
,6,8,6,5,0,-3,64,,train_dim1_1,7,30,,,,2,0,2,0,,,,,,,,,0,0,0,0,0,6,6,6,4,0,4,0,,,,,,,,,,,,,,,,,,,,,,,,,,,,,,,,,,,,,,,,,,,,,,,,,,,,,,,,,,,,,,,,30,,,,,,,,2010.1655259998515,2010.1655259998515,2010.1655259998515,2010.1655259998515,2010.1655259998515,return,1.5942587000317872,2,1,0,0,0.24,-2.7755575615628914e-17,return,1.5105390003882349,-24,-7,0.24,-2.7755575615628914e-17,,,,,,,,,,,,,,,,,,,,,,,,,,,,,,,,,,,,,,,,,,,,,,,,,,,,,,,,EFZ715,train_y,blue_star,top_right,2025-02-18_16h15.21.921,HideSeek_v1,2022.2.5,59.957538069292156,
,9,7,9,7,0,0,61,,train_dim1_1,8,30,,,,2,0,2,0,,,,,,,,,0,0,0,0,0,7,7,7,0,0,0,0,,,,,,,,,,,,,,,,,,,,,,,,,stimuli/alien_stimuli/61.png,,,,,,,,,,,,,,,,,,,,,,,,,,,,,stimuli/alien_stimuli/64.png,64,6,9,,,,,,,30,,,,,,,,2026.6047291001305,2026.6047291001305,2026.6047291001305,2026.6047291001305,2026.6047291001305,left,2.2375619001686573,2,1,0,99,0.48000000000000004,0.16,left,2.13927650032565,,,,,2025.0319845997728,2026.6047291001305,0.32,0,0.24,0.0,0.12,0.32,0.32,0.32,0,2013.3288499000482,2013.3288499000482,2013.3288499000482,2013.3288499000482,2013.3288499000482,2013.3288499000482,2013.3288499000482,2013.3288499000482,2013.3222141799515,11.811874500010163,return,11.679694300051779,,,,,,,,,,,,,,,,,,,,,,,,,,,,,,,,,EFZ715,train_y,blue_star,top_right,2025-02-18_16h15.21.921,HideSeek_v1,2022.2.5,59.957538069292156,
,9,7,9,7,0,0,61,,train_dim1_1,8,30,,,,2,0,2,0,,,,,,,,,0,0,0,0,0,7,7,7,1,0,1,0,,,,,,,,,,,,,,,,,,,,,,,,,,,,,,,,,,,,,,,,,,,,,,,,,,,,,,,,,,,,,,,,30,,,,,,,,2028.8342703999951,2028.8342703999951,2028.8342703999951,2028.8342703999951,2028.8342703999951,left,0.5082896002568305,2,1,0,99,0.4,0.16,left,0.4243915006518364,,,,,,,,,,,,,,,,,,,,,,,,,,,,,,,,,,,,,,,,,,,,,,,,,,,,,,,,,,,,EFZ715,train_y,blue_star,top_right,2025-02-18_16h15.21.921,HideSeek_v1,2022.2.5,59.957538069292156,
,9,7,9,7,0,0,61,,train_dim1_1,8,30,,,,2,0,2,0,,,,,,,,,0,0,0,0,0,7,7,7,2,0,2,0,,,,,,,,,,,,,,,,,,,,,,,,,,,,,,,,,,,,,,,,,,,,,,,,,,,,,,,,,,,,,,,,30,,,,,,,,2029.3491352000274,2029.3491352000274,2029.3491352000274,2029.3491352000274,2029.3491352000274,left,0.34281110018491745,2,1,0,99,0.32,0.16,left,0.2655490003526211,,,,,,,,,,,,,,,,,,,,,,,,,,,,,,,,,,,,,,,,,,,,,,,,,,,,,,,,,,,,EFZ715,train_y,blue_star,top_right,2025-02-18_16h15.21.921,HideSeek_v1,2022.2.5,59.957538069292156,
,9,7,9,7,0,0,61,,train_dim1_1,8,30,,,,2,0,2,0,,,,,,,,,0,0,0,0,0,7,7,7,3,0,3,0,,,,,,,,,,,,,,,,,,,,,,,,,,,,,,,,,,,,,,,,,,,,,,,,,,,,,,,,,,,,,,,,30,,,,,,,,2029.699335000012,2029.699335000012,2029.699335000012,2029.699335000012,2029.699335000012,right,1.4779391000047326,2,1,0,99,0.4,0.16,right,1.4020721004344523,,,,,,,,,,,,,,,,,,,,,,,,,,,,,,,,,,,,,,,,,,,,,,,,,,,,,,,,,,,,EFZ715,train_y,blue_star,top_right,2025-02-18_16h15.21.921,HideSeek_v1,2022.2.5,59.957538069292156,
,9,7,9,7,0,0,61,,train_dim1_1,8,30,,,,2,0,2,0,,,,,,,,,0,0,0,0,0,7,7,7,4,0,4,0,,,,,,,,,,,,,,,,,,,,,,,,,,,,,,,,,,,,,,,,,,,,,,,,,,,,,,,,,,,,,,,,30,,,,,,,,2031.1844958998263,2031.1844958998263,2031.1844958998263,2031.1844958998263,2031.1844958998263,right,0.22590130008757114,2,1,0,99,0.48000000000000004,0.16,right,0.15260230004787445,,,,,,,,,,,,,,,,,,,,,,,,,,,,,,,,,,,,,,,,,,,,,,,,,,,,,,,,,,,,EFZ715,train_y,blue_star,top_right,2025-02-18_16h15.21.921,HideSeek_v1,2022.2.5,59.957538069292156,
,9,7,9,7,0,0,61,,train_dim1_1,8,30,,,,2,0,2,0,,,,,,,,,0,0,0,0,0,7,7,7,5,0,5,0,,,,,,,,,,,,,,,,,,,,,,,,,,,,,,,,,,,,,,,,,,,,,,,,,,,,,,,,,,,,,,,,30,,,,,,,,2031.4171162000857,2031.4171162000857,2031.4171162000857,2031.4171162000857,2031.4171162000857,right,0.5601130002178252,2,1,0,99,0.56,0.16,right,0.48242060001939535,,,,,,,,,,,,,,,,,,,,,,,,,,,,,,,,,,,,,,,,,,,,,,,,,,,,,,,,,,,,EFZ715,train_y,blue_star,top_right,2025-02-18_16h15.21.921,HideSeek_v1,2022.2.5,59.957538069292156,
,9,7,9,7,0,0,61,,train_dim1_1,8,30,,,,2,0,2,0,,,,,,,,,0,0,0,0,0,7,7,7,6,0,6,0,,,,,,,,,,,,,,,,,,,,,,,,,,,,,,,,,,,,,,,,,,,,,,,,,,,,,,,,,,,,,,,,30,,,,,,,,2031.9845503000543,2031.9845503000543,2031.9845503000543,2031.9845503000543,2031.9845503000543,down,1.0605879998765886,2,1,0,99,0.56,0.08,down,0.987205000128597,,,,,,,,,,,,,,,,,,,,,,,,,,,,,,,,,,,,,,,,,,,,,,,,,,,,,,,,,,,,EFZ715,train_y,blue_star,top_right,2025-02-18_16h15.21.921,HideSeek_v1,2022.2.5,59.957538069292156,
,9,7,9,7,0,0,61,,train_dim1_1,8,30,,,,2,0,2,0,,,,,,,,,0,0,0,0,0,7,7,7,7,0,7,0,,,,,,,,,,,,,,,,,,,,,,,,,,,,,,,,,,,,,,,,,,,,,,,,,,,,,,,,,,,,,,,,30,,,,,,,,2033.0554653001018,2033.0554653001018,2033.0554653001018,2033.0554653001018,2033.0554653001018,down,0.5059571000747383,2,1,0,99,0.56,0.0,down,0.43351610004901886,,,,,,,,,,,,,,,,,,,,,,,,,,,,,,,,,,,,,,,,,,,,,,,,,,,,,,,,,,,,EFZ715,train_y,blue_star,top_right,2025-02-18_16h15.21.921,HideSeek_v1,2022.2.5,59.957538069292156,
,9,7,9,7,0,0,61,,train_dim1_1,8,30,,,,2,0,2,0,,,,,,,,,0,0,0,0,0,7,7,7,8,0,8,0,,,,,,,,,,,,,,,,,,,,,,,,,,,,,,,,,,,,,,,,,,,,,,,,,,,,,,,,,,,,,,,,30,,,,,,,,2033.5683315000497,2033.5683315000497,2033.5683315000497,2033.5683315000497,2033.5683315000497,return,1.9279771000146866,2,0,0,0,0.56,0.0,return,1.846635800320655,-26,-7,0.56,0.0,,,,,,,,,,,,,,,,,,,,,,,,,,,,,,,,,,,,,,,,,,,,,,,,,,,,,,,,EFZ715,train_y,blue_star,top_right,2025-02-18_16h15.21.921,HideSeek_v1,2022.2.5,59.957538069292156,
,9,8,9,4,0,-4,65,,train_dim1_1,9,30,,,,2,0,2,0,,,,,,,,,0,0,0,0,0,8,8,8,0,0,0,0,,,,,,,,,,,,,,,,,,,,,,,,,stimuli/alien_stimuli/65.png,,,,,,,,,,,,,,,,,,,,,,,,,,,,,stimuli/alien_stimuli/61.png,61,9,10,,,,,,,30,,,,,,,,2041.9662405997515,2041.9662405997515,2041.9662405997515,2041.9662405997515,2041.9662405997515,down,1.520828299690038,2,0,0,99,0.56,0.15999999999999998,down,1.4318634001538157,,,,,2040.4114251998253,2041.9662405997515,0.56,0.16,0.0,0.0,0.16,0.56,0.56,0.56,0.16,2037.0715308999643,2037.0715308999643,2037.0715308999643,2037.0715308999643,2037.0715308999643,2037.0715308999643,2037.0715308999643,2037.0715308999643,2037.0585681798866,3.4551364998333156,return,3.316308999899775,,,,,,,,,,,,,,,,,,,,,,,,,,,,,,,,,EFZ715,train_y,blue_star,top_right,2025-02-18_16h15.21.921,HideSeek_v1,2022.2.5,59.957538069292156,
,9,8,9,4,0,-4,65,,train_dim1_1,9,30,,,,2,0,2,0,,,,,,,,,0,0,0,0,0,8,8,8,1,0,1,0,,,,,,,,,,,,,,,,,,,,,,,,,,,,,,,,,,,,,,,,,,,,,,,,,,,,,,,,,,,,,,,,30,,,,,,,,2043.492758399807,2043.492758399807,2043.492758399807,2043.492758399807,2043.492758399807,left,1.0435683000832796,2,0,0,99,0.48000000000000004,0.15999999999999998,left,0.9584538000635803,,,,,,,,,,,,,,,,,,,,,,,,,,,,,,,,,,,,,,,,,,,,,,,,,,,,,,,,,,,,EFZ715,train_y,blue_star,top_right,2025-02-18_16h15.21.921,HideSeek_v1,2022.2.5,59.957538069292156,
,9,8,9,4,0,-4,65,,train_dim1_1,9,30,,,,2,0,2,0,,,,,,,,,0,0,0,0,0,8,8,8,2,0,2,0,,,,,,,,,,,,,,,,,,,,,,,,,,,,,,,,,,,,,,,,,,,,,,,,,,,,,,,,,,,,,,,,30,,,,,,,,2044.5435995999724,2044.5435995999724,2044.5435995999724,2044.5435995999724,2044.5435995999724,up,1.2441917001269758,2,0,0,99,0.48000000000000004,0.24,up,1.164296899922192,,,,,,,,,,,,,,,,,,,,,,,,,,,,,,,,,,,,,,,,,,,,,,,,,,,,,,,,,,,,EFZ715,train_y,blue_star,top_right,2025-02-18_16h15.21.921,HideSeek_v1,2022.2.5,59.957538069292156,
,9,8,9,4,0,-4,65,,train_dim1_1,9,30,,,,2,0,2,0,,,,,,,,,0,0,0,0,0,8,8,8,3,0,3,0,,,,,,,,,,,,,,,,,,,,,,,,,,,,,,,,,,,,,,,,,,,,,,,,,,,,,,,,,,,,,,,,30,,,,,,,,2045.7958923000842,2045.7958923000842,2045.7958923000842,2045.7958923000842,2045.7958923000842,down,1.0765402000397444,2,0,0,99,0.48000000000000004,0.15999999999999998,down,0.9934469005092978,,,,,,,,,,,,,,,,,,,,,,,,,,,,,,,,,,,,,,,,,,,,,,,,,,,,,,,,,,,,EFZ715,train_y,blue_star,top_right,2025-02-18_16h15.21.921,HideSeek_v1,2022.2.5,59.957538069292156,
,9,8,9,4,0,-4,65,,train_dim1_1,9,30,,,,2,0,2,0,,,,,,,,,0,0,0,0,0,8,8,8,4,0,4,0,,,,,,,,,,,,,,,,,,,,,,,,,,,,,,,,,,,,,,,,,,,,,,,,,,,,,,,,,,,,,,,,30,,,,,,,,2046.878451200202,2046.878451200202,2046.878451200202,2046.878451200202,2046.878451200202,down,0.2264267997816205,2,0,0,99,0.48000000000000004,0.07999999999999997,down,0.15243180003017187,,,,,,,,,,,,,,,,,,,,,,,,,,,,,,,,,,,,,,,,,,,,,,,,,,,,,,,,,,,,EFZ715,train_y,blue_star,top_right,2025-02-18_16h15.21.921,HideSeek_v1,2022.2.5,59.957538069292156,
,9,8,9,4,0,-4,65,,train_dim1_1,9,30,,,,2,0,2,0,,,,,,,,,0,0,0,0,0,8,8,8,5,0,5,0,,,,,,,,,,,,,,,,,,,,,,,,,,,,,,,,,,,,,,,,,,,,,,,,,,,,,,,,,,,,,,,,30,,,,,,,,2047.1126056001522,2047.1126056001522,2047.1126056001522,2047.1126056001522,2047.1126056001522,down,0.36013490008190274,2,0,0,99,0.48000000000000004,-2.7755575615628914e-17,down,0.27889300044626,,,,,,,,,,,,,,,,,,,,,,,,,,,,,,,,,,,,,,,,,,,,,,,,,,,,,,,,,,,,EFZ715,train_y,blue_star,top_right,2025-02-18_16h15.21.921,HideSeek_v1,2022.2.5,59.957538069292156,
,9,8,9,4,0,-4,65,,train_dim1_1,9,30,,,,2,0,2,0,,,,,,,,,0,0,0,0,0,8,8,8,6,0,6,0,,,,,,,,,,,,,,,,,,,,,,,,,,,,,,,,,,,,,,,,,,,,,,,,,,,,,,,,,,,,,,,,30,,,,,,,,2047.4791664001532,2047.4791664001532,2047.4791664001532,2047.4791664001532,2047.4791664001532,right,1.1610323996283114,2,0,0,99,0.56,-2.7755575615628914e-17,right,1.0847208998166025,,,,,,,,,,,,,,,,,,,,,,,,,,,,,,,,,,,,,,,,,,,,,,,,,,,,,,,,,,,,EFZ715,train_y,blue_star,top_right,2025-02-18_16h15.21.921,HideSeek_v1,2022.2.5,59.957538069292156,
,9,8,9,4,0,-4,65,,train_dim1_1,9,30,,,,2,0,2,0,,,,,,,,,0,0,0,0,0,8,8,8,7,0,7,0,,,,,,,,,,,,,,,,,,,,,,,,,,,,,,,,,,,,,,,,,,,,,,,,,,,,,,,,,,,,,,,,30,,,,,,,,2048.647135599982,2048.647135599982,2048.647135599982,2048.647135599982,2048.647135599982,down,0.8437438998371363,2,0,0,99,0.56,-0.08000000000000003,down,0.7666079998016357,,,,,,,,,,,,,,,,,,,,,,,,,,,,,,,,,,,,,,,,,,,,,,,,,,,,,,,,,,,,EFZ715,train_y,blue_star,top_right,2025-02-18_16h15.21.921,HideSeek_v1,2022.2.5,59.957538069292156,
,9,8,9,4,0,-4,65,,train_dim1_1,9,30,,,,2,0,2,0,,,,,,,,,0,0,0,0,0,8,8,8,8,0,8,0,,,,,,,,,,,,,,,,,,,,,,,,,,,,,,,,,,,,,,,,,,,,,,,,,,,,,,,,,,,,,,,,30,,,,,,,,2049.4982598000206,2049.4982598000206,2049.4982598000206,2049.4982598000206,2049.4982598000206,down,0.27592960000038147,2,0,0,99,0.56,-0.16000000000000003,down,0.18912400025874376,,,,,,,,,,,,,,,,,,,,,,,,,,,,,,,,,,,,,,,,,,,,,,,,,,,,,,,,,,,,EFZ715,train_y,blue_star,top_right,2025-02-18_16h15.21.921,HideSeek_v1,2022.2.5,59.957538069292156,
,9,8,9,4,0,-4,65,,train_dim1_1,9,30,,,,2,0,2,0,,,,,,,,,0,0,0,0,0,8,8,8,9,0,9,0,,,,,,,,,,,,,,,,,,,,,,,,,,,,,,,,,,,,,,,,,,,,,,,,,,,,,,,,,,,,,,,,30,,,,,,,,2049.7813868001103,2049.7813868001103,2049.7813868001103,2049.7813868001103,2049.7813868001103,down,0.6273747999221087,2,0,0,99,0.56,-0.24000000000000005,down,0.5523021002300084,,,,,,,,,,,,,,,,,,,,,,,,,,,,,,,,,,,,,,,,,,,,,,,,,,,,,,,,,,,,EFZ715,train_y,blue_star,top_right,2025-02-18_16h15.21.921,HideSeek_v1,2022.2.5,59.957538069292156,
,9,8,9,4,0,-4,65,,train_dim1_1,9,30,,,,2,0,2,0,,,,,,,,,0,0,0,0,0,8,8,8,10,0,10,0,,,,,,,,,,,,,,,,,,,,,,,,,,,,,,,,,,,,,,,,,,,,,,,,,,,,,,,,,,,,,,,,30,,,,,,,,2050.4157194998115,2050.4157194998115,2050.4157194998115,2050.4157194998115,2050.4157194998115,return,1.1273707002401352,2,0,0,0,0.56,-0.24000000000000005,return,1.045082800090313,-32,-7,0.56,-0.24000000000000005,,,,,,,,,,,,,,,,,,,,,,,,,,,,,,,,,,,,,,,,,,,,,,,,,,,,,,,,EFZ715,train_y,blue_star,top_right,2025-02-18_16h15.21.921,HideSeek_v1,2022.2.5,59.957538069292156,
,7,7,7,2,0,-5,66,,train_dim1_1,10,30,,,,2,0,2,0,,,,,,,,,0,0,0,0,0,9,9,9,0,0,0,0,,,,,,,,,,,,,,,,,,,,,,,,,stimuli/alien_stimuli/66.png,,,,,,,,,,,,,,,,,,,,,,,,,,,,,stimuli/alien_stimuli/65.png,65,9,11,,,,,,,30,,,,,,,,2057.6792465001345,2057.6792465001345,2057.6792465001345,2057.6792465001345,2057.6792465001345,down,2.305385900195688,2,0,0,99,0.4,0.08,down,2.22357220062986,,,,,2056.12427749997,2057.6792465001345,0.56,-0.08,0.32,0.0,0.07999999999999999,0.56,0.56,0.56,-0.08,2053.11503739981,2053.11503739981,2053.11503739981,2053.11503739981,2053.11503739981,2053.11503739981,2053.11503739981,2053.11503739981,2053.105445680022,3.1211598003283143,return,2.981365400366485,,,,,,,,,,,,,,,,,,,,,,,,,,,,,,,,,EFZ715,train_y,blue_star,top_right,2025-02-18_16h15.21.921,HideSeek_v1,2022.2.5,59.957538069292156,
,7,7,7,2,0,-5,66,,train_dim1_1,10,30,,,,2,0,2,0,,,,,,,,,0,0,0,0,0,9,9,9,1,0,1,0,,,,,,,,,,,,,,,,,,,,,,,,,,,,,,,,,,,,,,,,,,,,,,,,,,,,,,,,,,,,,,,,30,,,,,,,,2059.994552399963,2059.994552399963,2059.994552399963,2059.994552399963,2059.994552399963,down,0.5912438002415001,2,0,0,99,0.4,0.0,down,0.5078182998113334,,,,,,,,,,,,,,,,,,,,,,,,,,,,,,,,,,,,,,,,,,,,,,,,,,,,,,,,,,,,EFZ715,train_y,blue_star,top_right,2025-02-18_16h15.21.921,HideSeek_v1,2022.2.5,59.957538069292156,
,7,7,7,2,0,-5,66,,train_dim1_1,10,30,,,,2,0,2,0,,,,,,,,,0,0,0,0,0,9,9,9,2,0,2,0,,,,,,,,,,,,,,,,,,,,,,,,,,,,,,,,,,,,,,,,,,,,,,,,,,,,,,,,,,,,,,,,30,,,,,,,,2060.5916536999866,2060.5916536999866,2060.5916536999866,2060.5916536999866,2060.5916536999866,down,0.4431548002175987,2,0,0,99,0.4,-0.08,down,0.3661192003637552,,,,,,,,,,,,,,,,,,,,,,,,,,,,,,,,,,,,,,,,,,,,,,,,,,,,,,,,,,,,EFZ715,train_y,blue_star,top_right,2025-02-18_16h15.21.921,HideSeek_v1,2022.2.5,59.957538069292156,
,7,7,7,2,0,-5,66,,train_dim1_1,10,30,,,,2,0,2,0,,,,,,,,,0,0,0,0,0,9,9,9,3,0,3,0,,,,,,,,,,,,,,,,,,,,,,,,,,,,,,,,,,,,,,,,,,,,,,,,,,,,,,,,,,,,,,,,30,,,,,,,,2061.041727699805,2061.041727699805,2061.041727699805,2061.041727699805,2061.041727699805,return,0.926743300165981,2,0,0,0,0.4,-0.08,return,0.8459678003564477,-35,-7,0.4,-0.08,,,,,,,,,,,,,,,,,,,,,,,,,,,,,,,,,,,,,,,,,,,,,,,,,,,,,,,,EFZ715,train_y,blue_star,top_right,2025-02-18_16h15.21.921,HideSeek_v1,2022.2.5,59.957538069292156,
,9,6,9,2,0,-4,65,,train_dim1_1,11,30,,,,2,0,2,0,,,,,,,,,0,0,0,0,0,10,10,10,0,0,0,0,,,,,,,,,,,,,,,,,,,,,,,,,stimuli/alien_stimuli/65.png,,,,,,,,,,,,,,,,,,,,,,,,,,,,,stimuli/alien_stimuli/66.png,66,7,12,,,,,,,30,,,,,,,,2068.5561004001647,2068.5561004001647,2068.5561004001647,2068.5561004001647,2068.5561004001647,left,1.353201000019908,2,0,0,99,0.48000000000000004,0.08,left,1.273702799808234,,,,,2066.9999677999876,2068.5561004001647,0.4,-0.24,0.4,0.0,-0.039999999999999994,0.4,0.4,0.4,-0.24,2063.5388135001995,2063.5388135001995,2063.5388135001995,2063.5388135001995,2063.5388135001995,2063.5388135001995,2063.5388135001995,2063.5388135001995,2063.5304319800807,3.5721368002705276,return,3.442908000200987,,,,,,,,,,,,,,,,,,,,,,,,,,,,,,,,,EFZ715,train_y,blue_star,top_right,2025-02-18_16h15.21.921,HideSeek_v1,2022.2.5,59.957538069292156,
,9,6,9,2,0,-4,65,,train_dim1_1,11,30,,,,2,0,2,0,,,,,,,,,0,0,0,0,0,10,10,10,1,0,1,0,,,,,,,,,,,,,,,,,,,,,,,,,,,,,,,,,,,,,,,,,,,,,,,,,,,,,,,,,,,,,,,,30,,,,,,,,2069.917627700139,2069.917627700139,2069.917627700139,2069.917627700139,2069.917627700139,left,0.6082125999964774,2,0,0,99,0.4,0.08,left,0.5343153001740575,,,,,,,,,,,,,,,,,,,,,,,,,,,,,,,,,,,,,,,,,,,,,,,,,,,,,,,,,,,,EFZ715,train_y,blue_star,top_right,2025-02-18_16h15.21.921,HideSeek_v1,2022.2.5,59.957538069292156,
,9,6,9,2,0,-4,65,,train_dim1_1,11,30,,,,2,0,2,0,,,,,,,,,0,0,0,0,0,10,10,10,2,0,2,0,,,,,,,,,,,,,,,,,,,,,,,,,,,,,,,,,,,,,,,,,,,,,,,,,,,,,,,,,,,,,,,,30,,,,,,,,2070.5318835000508,2070.5318835000508,2070.5318835000508,2070.5318835000508,2070.5318835000508,right,1.0437666000798345,2,0,0,99,0.48000000000000004,0.08,right,0.9571032002568245,,,,,,,,,,,,,,,,,,,,,,,,,,,,,,,,,,,,,,,,,,,,,,,,,,,,,,,,,,,,EFZ715,train_y,blue_star,top_right,2025-02-18_16h15.21.921,HideSeek_v1,2022.2.5,59.957538069292156,
,9,6,9,2,0,-4,65,,train_dim1_1,11,30,,,,2,0,2,0,,,,,,,,,0,0,0,0,0,10,10,10,3,0,3,0,,,,,,,,,,,,,,,,,,,,,,,,,,,,,,,,,,,,,,,,,,,,,,,,,,,,,,,,,,,,,,,,30,,,,,,,,2071.583577999845,2071.583577999845,2071.583577999845,2071.583577999845,2071.583577999845,right,0.2763365996070206,2,0,0,99,0.56,0.08,right,0.188329900149256,,,,,,,,,,,,,,,,,,,,,,,,,,,,,,,,,,,,,,,,,,,,,,,,,,,,,,,,,,,,EFZ715,train_y,blue_star,top_right,2025-02-18_16h15.21.921,HideSeek_v1,2022.2.5,59.957538069292156,
,9,6,9,2,0,-4,65,,train_dim1_1,11,30,,,,2,0,2,0,,,,,,,,,0,0,0,0,0,10,10,10,4,0,4,0,,,,,,,,,,,,,,,,,,,,,,,,,,,,,,,,,,,,,,,,,,,,,,,,,,,,,,,,,,,,,,,,30,,,,,,,,2071.8659827001393,2071.8659827001393,2071.8659827001393,2071.8659827001393,2071.8659827001393,down,0.7101425002329051,2,0,0,99,0.56,0.0,down,0.6345993001013994,,,,,,,,,,,,,,,,,,,,,,,,,,,,,,,,,,,,,,,,,,,,,,,,,,,,,,,,,,,,EFZ715,train_y,blue_star,top_right,2025-02-18_16h15.21.921,HideSeek_v1,2022.2.5,59.957538069292156,
,9,6,9,2,0,-4,65,,train_dim1_1,11,30,,,,2,0,2,0,,,,,,,,,0,0,0,0,0,10,10,10,5,0,5,0,,,,,,,,,,,,,,,,,,,,,,,,,,,,,,,,,,,,,,,,,,,,,,,,,,,,,,,,,,,,,,,,30,,,,,,,,2072.586133599747,2072.586133599747,2072.586133599747,2072.586133599747,2072.586133599747,down,0.27495160000398755,2,0,0,99,0.56,-0.08,down,0.20025170035660267,,,,,,,,,,,,,,,,,,,,,,,,,,,,,,,,,,,,,,,,,,,,,,,,,,,,,,,,,,,,EFZ715,train_y,blue_star,top_right,2025-02-18_16h15.21.921,HideSeek_v1,2022.2.5,59.957538069292156,
,9,6,9,2,0,-4,65,,train_dim1_1,11,30,,,,2,0,2,0,,,,,,,,,0,0,0,0,0,10,10,10,6,0,6,0,,,,,,,,,,,,,,,,,,,,,,,,,,,,,,,,,,,,,,,,,,,,,,,,,,,,,,,,,,,,,,,,30,,,,,,,,2072.868604599964,2072.868604599964,2072.868604599964,2072.868604599964,2072.868604599964,down,0.32560519967228174,2,0,0,99,0.56,-0.16,down,0.2381734005175531,,,,,,,,,,,,,,,,,,,,,,,,,,,,,,,,,,,,,,,,,,,,,,,,,,,,,,,,,,,,EFZ715,train_y,blue_star,top_right,2025-02-18_16h15.21.921,HideSeek_v1,2022.2.5,59.957538069292156,
,9,6,9,2,0,-4,65,,train_dim1_1,11,30,,,,2,0,2,0,,,,,,,,,0,0,0,0,0,10,10,10,7,0,7,0,,,,,,,,,,,,,,,,,,,,,,,,,,,,,,,,,,,,,,,,,,,,,,,,,,,,,,,,,,,,,,,,30,,,,,,,,2073.2026721001603,2073.2026721001603,2073.2026721001603,2073.2026721001603,2073.2026721001603,down,0.3757106000557542,2,0,0,99,0.56,-0.24,down,0.2984224003739655,,,,,,,,,,,,,,,,,,,,,,,,,,,,,,,,,,,,,,,,,,,,,,,,,,,,,,,,,,,,EFZ715,train_y,blue_star,top_right,2025-02-18_16h15.21.921,HideSeek_v1,2022.2.5,59.957538069292156,
,9,6,9,2,0,-4,65,,train_dim1_1,11,30,,,,2,0,2,0,,,,,,,,,0,0,0,0,0,10,10,10,8,0,8,0,,,,,,,,,,,,,,,,,,,,,,,,,,,,,,,,,,,,,,,,,,,,,,,,,,,,,,,,,,,,,,,,30,,,,,,,,2073.586282100063,2073.586282100063,2073.586282100063,2073.586282100063,2073.586282100063,down,0.6090599000453949,2,0,0,99,0.56,-0.32,down,0.5229166001081467,,,,,,,,,,,,,,,,,,,,,,,,,,,,,,,,,,,,,,,,,,,,,,,,,,,,,,,,,,,,EFZ715,train_y,blue_star,top_right,2025-02-18_16h15.21.921,HideSeek_v1,2022.2.5,59.957538069292156,
,9,6,9,2,0,-4,65,,train_dim1_1,11,30,,,,2,0,2,0,,,,,,,,,0,0,0,0,0,10,10,10,9,0,9,0,,,,,,,,,,,,,,,,,,,,,,,,,,,,,,,,,,,,,,,,,,,,,,,,,,,,,,,,,,,,,,,,30,,,,,,,,2074.2012668000534,2074.2012668000534,2074.2012668000534,2074.2012668000534,2074.2012668000534,return,0.5436221002601087,2,1,0,0,0.56,-0.32,return,0.45628410018980503,-40,-7,0.56,-0.32,,,,,,,,,,,,,,,,,,,,,,,,,,,,,,,,,,,,,,,,,,,,,,,,,,,,,,,,EFZ715,train_y,blue_star,top_right,2025-02-18_16h15.21.921,HideSeek_v1,2022.2.5,59.957538069292156,
,5,5,5,5,0,0,61,,train_dim1_1,12,30,,,,2,0,2,0,,,,,,,,,0,0,0,0,0,11,11,11,0,0,0,0,,,,,,,,,,,,,,,,,,,,,,,,,stimuli/alien_stimuli/61.png,,,,,,,,,,,,,,,,,,,,,,,,,,,,,stimuli/alien_stimuli/65.png,65,9,13,,,,,,,30,,,,,,,,2082.6638488997705,2082.6638488997705,2082.6638488997705,2082.6638488997705,2082.6638488997705,return,3.158882800024003,3,0,0,1,0.24,0,return,3.0760766002349555,-40,-7,0.24,0,2081.11177580012,2082.6638488997705,0.56,-0.24,0.32,0.0,-0.07999999999999999,0.56,0.56,0.56,-0.24,2076.2987714000046,2076.2987714000046,2076.2987714000046,2076.2987714000046,2076.2987714000046,2076.2987714000046,2076.2987714000046,2076.2987714000046,2076.291025239881,4.9067108002491295,return,4.792532100342214,,,,,,,,,,,,,,,,,,,,,,,,,,,,,,,,,EFZ715,train_y,blue_star,top_right,2025-02-18_16h15.21.921,HideSeek_v1,2022.2.5,59.957538069292156,
,9,8,9,7,0,-1,62,,train_dim1_1,13,30,,,,2,0,2,0,,,,,,,,,0,0,0,0,0,12,12,12,0,0,0,0,,,,,,,,,,,,,,,,,,,,,,,,,stimuli/alien_stimuli/62.png,,,,,,,,,,,,,,,,,,,,,,,,,,,,,stimuli/alien_stimuli/61.png,61,5,14,,,,,,,30,,,,,,,,2091.5092144999653,2091.5092144999653,2091.5092144999653,2091.5092144999653,2091.5092144999653,return,0.7849822002463043,3,1,0,0,0.56,0.24,return,0.696781300008297,-40,-7,0.56,0.24,2089.95241119992,2091.5092144999653,0.24,0,0.0,0.0,0.0,0.24,0.24,0.24,0,2087.3933019000106,2087.3933019000106,2087.3933019000106,2087.3933019000106,2087.3933019000106,2087.3933019000106,2087.3933019000106,2087.3933019000106,2087.383533779811,2.6709789000451565,return,2.5339364004321396,,,,,,,,,,,,,,,,,,,,,,,,,,,,,,,,,EFZ715,train_y,blue_star,top_right,2025-02-18_16h15.21.921,HideSeek_v1,2022.2.5,59.957538069292156,
,7,7,7,2,0,-5,66,,train_dim1_1,14,30,,,,2,0,2,0,,,,,,,,,0,0,0,0,0,13,13,13,0,0,0,0,,,,,,,,,,,,,,,,,,,,,,,,,stimuli/alien_stimuli/66.png,,,,,,,,,,,,,,,,,,,,,,,,,,,,,stimuli/alien_stimuli/62.png,62,9,15,,,,,,,30,,,,,,,,2098.632667900063,2098.632667900063,2098.632667900063,2098.632667900063,2098.632667900063,down,1.3013233002275229,3,1,0,99,0.4,0.08,down,1.2161866002716124,,,,,2097.0750164999627,2098.632667900063,0.56,0.16,0.08,0.0,0.2,0.56,0.56,0.56,0.16,2093.8462609001435,2093.8462609001435,2093.8462609001435,2093.8462609001435,2093.8462609001435,2093.8462609001435,2093.8462609001435,2093.8462609001435,2093.839064040128,3.321382800117135,return,3.2028546002693474,,,,,,,,,,,,,,,,,,,,,,,,,,,,,,,,,EFZ715,train_y,blue_star,top_right,2025-02-18_16h15.21.921,HideSeek_v1,2022.2.5,59.957538069292156,
,7,7,7,2,0,-5,66,,train_dim1_1,14,30,,,,2,0,2,0,,,,,,,,,0,0,0,0,0,13,13,13,1,0,1,0,,,,,,,,,,,,,,,,,,,,,,,,,,,,,,,,,,,,,,,,,,,,,,,,,,,,,,,,,,,,,,,,30,,,,,,,,2099.9408427998424,2099.9408427998424,2099.9408427998424,2099.9408427998424,2099.9408427998424,down,0.3259306997060776,3,1,0,99,0.4,0.0,down,0.25298740016296506,,,,,,,,,,,,,,,,,,,,,,,,,,,,,,,,,,,,,,,,,,,,,,,,,,,,,,,,,,,,EFZ715,train_y,blue_star,top_right,2025-02-18_16h15.21.921,HideSeek_v1,2022.2.5,59.957538069292156,
,7,7,7,2,0,-5,66,,train_dim1_1,14,30,,,,2,0,2,0,,,,,,,,,0,0,0,0,0,13,13,13,2,0,2,0,,,,,,,,,,,,,,,,,,,,,,,,,,,,,,,,,,,,,,,,,,,,,,,,,,,,,,,,,,,,,,,,30,,,,,,,,2100.273965000175,2100.273965000175,2100.273965000175,2100.273965000175,2100.273965000175,down,0.47662970004603267,3,1,0,99,0.4,-0.08,down,0.40149860037490726,,,,,,,,,,,,,,,,,,,,,,,,,,,,,,,,,,,,,,,,,,,,,,,,,,,,,,,,,,,,EFZ715,train_y,blue_star,top_right,2025-02-18_16h15.21.921,HideSeek_v1,2022.2.5,59.957538069292156,
,7,7,7,2,0,-5,66,,train_dim1_1,14,30,,,,2,0,2,0,,,,,,,,,0,0,0,0,0,13,13,13,3,0,3,0,,,,,,,,,,,,,,,,,,,,,,,,,,,,,,,,,,,,,,,,,,,,,,,,,,,,,,,,,,,,,,,,30,,,,,,,,2100.7578875999898,2100.7578875999898,2100.7578875999898,2100.7578875999898,2100.7578875999898,down,0.3935068999417126,3,1,0,99,0.4,-0.16,down,0.31990170013159513,,,,,,,,,,,,,,,,,,,,,,,,,,,,,,,,,,,,,,,,,,,,,,,,,,,,,,,,,,,,EFZ715,train_y,blue_star,top_right,2025-02-18_16h15.21.921,HideSeek_v1,2022.2.5,59.957538069292156,
,7,7,7,2,0,-5,66,,train_dim1_1,14,30,,,,2,0,2,0,,,,,,,,,0,0,0,0,0,13,13,13,4,0,4,0,,,,,,,,,,,,,,,,,,,,,,,,,,,,,,,,,,,,,,,,,,,,,,,,,,,,,,,,,,,,,,,,30,,,,,,,,2101.158061900176,2101.158061900176,2101.158061900176,2101.158061900176,2101.158061900176,return,0.6932477997615933,3,1,0,0,0.4,-0.16,return,0.6196876000612974,-44,-7,0.4,-0.16,,,,,,,,,,,,,,,,,,,,,,,,,,,,,,,,,,,,,,,,,,,,,,,,,,,,,,,,EFZ715,train_y,blue_star,top_right,2025-02-18_16h15.21.921,HideSeek_v1,2022.2.5,59.957538069292156,
,6,9,6,6,0,-3,64,,train_dim1_1,15,30,,,,2,0,2,0,,,,,,,,,0,0,0,0,0,14,14,14,0,0,0,0,,,,,,,,,,,,,,,,,,,,,,,,,stimuli/alien_stimuli/64.png,,,,,,,,,,,,,,,,,,,,,,,,,,,,,stimuli/alien_stimuli/66.png,66,7,16,,,,,,,30,,,,,,,,2107.1018508998677,2107.1018508998677,2107.1018508998677,2107.1018508998677,2107.1018508998677,down,1.0380269000306726,3,1,0,99,0.32,0.24,down,0.9570473004132509,,,,,2105.5484976000153,2107.1018508998677,0.4,-0.24,0.4,0.0,-0.039999999999999994,0.4,0.4,0.4,-0.24,2103.4052039999515,2103.4052039999515,2103.4052039999515,2103.4052039999515,2103.4052039999515,2103.4052039999515,2103.4052039999515,2103.4052039999515,2103.396876640059,2.237264699768275,return,2.1162824002094567,,,,,,,,,,,,,,,,,,,,,,,,,,,,,,,,,EFZ715,train_y,blue_star,top_right,2025-02-18_16h15.21.921,HideSeek_v1,2022.2.5,59.957538069292156,
,6,9,6,6,0,-3,64,,train_dim1_1,15,30,,,,2,0,2,0,,,,,,,,,0,0,0,0,0,14,14,14,1,0,1,0,,,,,,,,,,,,,,,,,,,,,,,,,,,,,,,,,,,,,,,,,,,,,,,,,,,,,,,,,,,,,,,,30,,,,,,,,2108.147549299989,2108.147549299989,2108.147549299989,2108.147549299989,2108.147549299989,down,0.4926812998019159,3,1,0,99,0.32,0.15999999999999998,down,0.41302500013262033,,,,,,,,,,,,,,,,,,,,,,,,,,,,,,,,,,,,,,,,,,,,,,,,,,,,,,,,,,,,EFZ715,train_y,blue_star,top_right,2025-02-18_16h15.21.921,HideSeek_v1,2022.2.5,59.957538069292156,
,6,9,6,6,0,-3,64,,train_dim1_1,15,30,,,,2,0,2,0,,,,,,,,,0,0,0,0,0,14,14,14,2,0,2,0,,,,,,,,,,,,,,,,,,,,,,,,,,,,,,,,,,,,,,,,,,,,,,,,,,,,,,,,,,,,,,,,30,,,,,,,,2108.6472853999585,2108.6472853999585,2108.6472853999585,2108.6472853999585,2108.6472853999585,up,2.444911699742079,3,1,0,99,0.32,0.24,up,2.3618348999880254,,,,,,,,,,,,,,,,,,,,,,,,,,,,,,,,,,,,,,,,,,,,,,,,,,,,,,,,,,,,EFZ715,train_y,blue_star,top_right,2025-02-18_16h15.21.921,HideSeek_v1,2022.2.5,59.957538069292156,
,6,9,6,6,0,-3,64,,train_dim1_1,15,30,,,,2,0,2,0,,,,,,,,,0,0,0,0,0,14,14,14,3,0,3,0,,,,,,,,,,,,,,,,,,,,,,,,,,,,,,,,,,,,,,,,,,,,,,,,,,,,,,,,,,,,,,,,30,,,,,,,,2111.099446500186,2111.099446500186,2111.099446500186,2111.099446500186,2111.099446500186,up,0.24227479984983802,3,1,0,99,0.32,0.32,up,0.16604309994727373,,,,,,,,,,,,,,,,,,,,,,,,,,,,,,,,,,,,,,,,,,,,,,,,,,,,,,,,,,,,EFZ715,train_y,blue_star,top_right,2025-02-18_16h15.21.921,HideSeek_v1,2022.2.5,59.957538069292156,
,6,9,6,6,0,-3,64,,train_dim1_1,15,30,,,,2,0,2,0,,,,,,,,,0,0,0,0,0,14,14,14,4,0,4,0,,,,,,,,,,,,,,,,,,,,,,,,,,,,,,,,,,,,,,,,,,,,,,,,,,,,,,,,,,,,,,,,30,,,,,,,,2111.348444200121,2111.348444200121,2111.348444200121,2111.348444200121,2111.348444200121,left,0.9778050002641976,3,1,0,99,0.24,0.32,left,0.9012557999230921,,,,,,,,,,,,,,,,,,,,,,,,,,,,,,,,,,,,,,,,,,,,,,,,,,,,,,,,,,,,EFZ715,train_y,blue_star,top_right,2025-02-18_16h15.21.921,HideSeek_v1,2022.2.5,59.957538069292156,
,6,9,6,6,0,-3,64,,train_dim1_1,15,30,,,,2,0,2,0,,,,,,,,,0,0,0,0,0,14,14,14,5,0,5,0,,,,,,,,,,,,,,,,,,,,,,,,,,,,,,,,,,,,,,,,,,,,,,,,,,,,,,,,,,,,,,,,30,,,,,,,,2112.3345745997503,2112.3345745997503,2112.3345745997503,2112.3345745997503,2112.3345745997503,left,0.2582135000266135,3,1,0,99,0.15999999999999998,0.32,left,0.18168239993974566,,,,,,,,,,,,,,,,,,,,,,,,,,,,,,,,,,,,,,,,,,,,,,,,,,,,,,,,,,,,EFZ715,train_y,blue_star,top_right,2025-02-18_16h15.21.921,HideSeek_v1,2022.2.5,59.957538069292156,
,6,9,6,6,0,-3,64,,train_dim1_1,15,30,,,,2,0,2,0,,,,,,,,,0,0,0,0,0,14,14,14,6,0,6,0,,,,,,,,,,,,,,,,,,,,,,,,,,,,,,,,,,,,,,,,,,,,,,,,,,,,,,,,,,,,,,,,30,,,,,,,,2112.5998680000193,2112.5998680000193,2112.5998680000193,2112.5998680000193,2112.5998680000193,left,0.3099687001667917,3,1,0,99,0.07999999999999997,0.32,left,0.23349460028111935,,,,,,,,,,,,,,,,,,,,,,,,,,,,,,,,,,,,,,,,,,,,,,,,,,,,,,,,,,,,EFZ715,train_y,blue_star,top_right,2025-02-18_16h15.21.921,HideSeek_v1,2022.2.5,59.957538069292156,
,6,9,6,6,0,-3,64,,train_dim1_1,15,30,,,,2,0,2,0,,,,,,,,,0,0,0,0,0,14,14,14,7,0,7,0,,,,,,,,,,,,,,,,,,,,,,,,,,,,,,,,,,,,,,,,,,,,,,,,,,,,,,,,,,,,,,,,30,,,,,,,,2112.9168591997586,2112.9168591997586,2112.9168591997586,2112.9168591997586,2112.9168591997586,left,0.7603156003169715,3,1,0,99,-2.7755575615628914e-17,0.32,left,0.6868969006463885,,,,,,,,,,,,,,,,,,,,,,,,,,,,,,,,,,,,,,,,,,,,,,,,,,,,,,,,,,,,EFZ715,train_y,blue_star,top_right,2025-02-18_16h15.21.921,HideSeek_v1,2022.2.5,59.957538069292156,
,6,9,6,6,0,-3,64,,train_dim1_1,15,30,,,,2,0,2,0,,,,,,,,,0,0,0,0,0,14,14,14,8,0,8,0,,,,,,,,,,,,,,,,,,,,,,,,,,,,,,,,,,,,,,,,,,,,,,,,,,,,,,,,,,,,,,,,30,,,,,,,,2113.6845653997734,2113.6845653997734,2113.6845653997734,2113.6845653997734,2113.6845653997734,return,1.1608306001871824,3,0,0,0,-2.7755575615628914e-17,0.32,return,1.0786724002100527,-44,-11,-2.7755575615628914e-17,0.32,,,,,,,,,,,,,,,,,,,,,,,,,,,,,,,,,,,,,,,,,,,,,,,,,,,,,,,,EFZ715,train_y,blue_star,top_right,2025-02-18_16h15.21.921,HideSeek_v1,2022.2.5,59.957538069292156,
,9,5,9,1,0,-4,65,,train_dim1_1,16,30,,,,2,0,2,0,,,,,,,,,0,0,0,0,0,15,15,15,0,0,0,0,,,,,,,,,,,,,,,,,,,,,,,,,stimuli/alien_stimuli/65.png,,,,,,,,,,,,,,,,,,,,,,,,,,,,,stimuli/alien_stimuli/64.png,64,6,17,,,,,,,30,,,,,,,,2120.4968352997676,2120.4968352997676,2120.4968352997676,2120.4968352997676,2120.4968352997676,left,1.5386345000006258,3,0,0,99,0.48000000000000004,0,left,1.4512768001295626,,,,,2118.9431570000015,2120.4968352997676,0.32,0.08,0.24,0.0,0.2,0.32,0.32,0.32,0.08,2116.415714699775,2116.415714699775,2116.415714699775,2116.415714699775,2116.415714699775,2116.415714699775,2116.415714699775,2116.415714699775,2116.407801779732,2.637507500126958,return,2.5002639000304043,,,,,,,,,,,,,,,,,,,,,,,,,,,,,,,,,EFZ715,train_y,blue_star,top_right,2025-02-18_16h15.21.921,HideSeek_v1,2022.2.5,59.957538069292156,
,9,5,9,1,0,-4,65,,train_dim1_1,16,30,,,,2,0,2,0,,,,,,,,,0,0,0,0,0,15,15,15,1,0,1,0,,,,,,,,,,,,,,,,,,,,,,,,,,,,,,,,,,,,,,,,,,,,,,,,,,,,,,,,,,,,,,,,30,,,,,,,,2122.0434548999183,2122.0434548999183,2122.0434548999183,2122.0434548999183,2122.0434548999183,right,1.3087279996834695,3,0,0,99,0.56,0,right,1.2363222003914416,,,,,,,,,,,,,,,,,,,,,,,,,,,,,,,,,,,,,,,,,,,,,,,,,,,,,,,,,,,,EFZ715,train_y,blue_star,top_right,2025-02-18_16h15.21.921,HideSeek_v1,2022.2.5,59.957538069292156,
,9,5,9,1,0,-4,65,,train_dim1_1,16,30,,,,2,0,2,0,,,,,,,,,0,0,0,0,0,15,15,15,2,0,2,0,,,,,,,,,,,,,,,,,,,,,,,,,,,,,,,,,,,,,,,,,,,,,,,,,,,,,,,,,,,,,,,,30,,,,,,,,2123.3586933999322,2123.3586933999322,2123.3586933999322,2123.3586933999322,2123.3586933999322,down,0.927174000069499,3,0,0,99,0.56,-0.08,down,0.8522314000874758,,,,,,,,,,,,,,,,,,,,,,,,,,,,,,,,,,,,,,,,,,,,,,,,,,,,,,,,,,,,EFZ715,train_y,blue_star,top_right,2025-02-18_16h15.21.921,HideSeek_v1,2022.2.5,59.957538069292156,
,9,5,9,1,0,-4,65,,train_dim1_1,16,30,,,,2,0,2,0,,,,,,,,,0,0,0,0,0,15,15,15,3,0,3,0,,,,,,,,,,,,,,,,,,,,,,,,,,,,,,,,,,,,,,,,,,,,,,,,,,,,,,,,,,,,,,,,30,,,,,,,,2124.2939848001115,2124.2939848001115,2124.2939848001115,2124.2939848001115,2124.2939848001115,down,0.3102871999144554,3,0,0,99,0.56,-0.16,down,0.22226560022681952,,,,,,,,,,,,,,,,,,,,,,,,,,,,,,,,,,,,,,,,,,,,,,,,,,,,,,,,,,,,EFZ715,train_y,blue_star,top_right,2025-02-18_16h15.21.921,HideSeek_v1,2022.2.5,59.957538069292156,
,9,5,9,1,0,-4,65,,train_dim1_1,16,30,,,,2,0,2,0,,,,,,,,,0,0,0,0,0,15,15,15,4,0,4,0,,,,,,,,,,,,,,,,,,,,,,,,,,,,,,,,,,,,,,,,,,,,,,,,,,,,,,,,,,,,,,,,30,,,,,,,,2124.61003109999,2124.61003109999,2124.61003109999,2124.61003109999,2124.61003109999,down,0.4437417001463473,3,0,0,99,0.56,-0.24,down,0.37151460023596883,,,,,,,,,,,,,,,,,,,,,,,,,,,,,,,,,,,,,,,,,,,,,,,,,,,,,,,,,,,,EFZ715,train_y,blue_star,top_right,2025-02-18_16h15.21.921,HideSeek_v1,2022.2.5,59.957538069292156,
,9,5,9,1,0,-4,65,,train_dim1_1,16,30,,,,2,0,2,0,,,,,,,,,0,0,0,0,0,15,15,15,5,0,5,0,,,,,,,,,,,,,,,,,,,,,,,,,,,,,,,,,,,,,,,,,,,,,,,,,,,,,,,,,,,,,,,,30,,,,,,,,2125.0631562997587,2125.0631562997587,2125.0631562997587,2125.0631562997587,2125.0631562997587,down,0.3083941997028887,3,0,0,99,0.56,-0.32,down,0.23001510044559836,,,,,,,,,,,,,,,,,,,,,,,,,,,,,,,,,,,,,,,,,,,,,,,,,,,,,,,,,,,,EFZ715,train_y,blue_star,top_right,2025-02-18_16h15.21.921,HideSeek_v1,2022.2.5,59.957538069292156,
,9,5,9,1,0,-4,65,,train_dim1_1,16,30,,,,2,0,2,0,,,,,,,,,0,0,0,0,0,15,15,15,6,0,6,0,,,,,,,,,,,,,,,,,,,,,,,,,,,,,,,,,,,,,,,,,,,,,,,,,,,,,,,,,,,,,,,,30,,,,,,,,2125.379251800012,2125.379251800012,2125.379251800012,2125.379251800012,2125.379251800012,return,1.2610730999149382,4,0,0,1,0.56,-0.32,return,1.1803496005013585,-48,-11,0.56,-0.32,,,,,,,,,,,,,,,,,,,,,,,,,,,,,,,,,,,,,,,,,,,,,,,,,,,,,,,,EFZ715,train_y,blue_star,top_right,2025-02-18_16h15.21.921,HideSeek_v1,2022.2.5,59.957538069292156,
,8,8,8,5,0,-3,64,,train_dim1_1,17,30,,,,2,0,2,0,,,,,,,,,0,0,0,0,0,16,16,16,0,0,0,0,,,,,,,,,,,,,,,,,,,,,,,,,stimuli/alien_stimuli/64.png,,,,,,,,,,,,,,,,,,,,,,,,,,,,,stimuli/alien_stimuli/65.png,65,9,18,,,,,,,30,,,,,,,,2131.187114600092,2131.187114600092,2131.187114600092,2131.187114600092,2131.187114600092,down,2.3065492999739945,4,0,0,99,0.48,0.15999999999999998,down,2.228519400116056,,,,,2129.6353259999305,2131.187114600092,0.56,-0.32,0.32,0.0,-0.16,0.56,0.56,0.56,-0.32,2128.2067281999625,2128.2067281999625,2128.2067281999625,2128.2067281999625,2128.2067281999625,2128.2067281999625,2128.2067281999625,2128.2067281999625,2128.2008685798382,1.5368011998943985,return,1.4044730998575687,,,,,,,,,,,,,,,,,,,,,,,,,,,,,,,,,EFZ715,train_y,blue_star,top_right,2025-02-18_16h15.21.921,HideSeek_v1,2022.2.5,59.957538069292156,
,8,8,8,5,0,-3,64,,train_dim1_1,17,30,,,,2,0,2,0,,,,,,,,,0,0,0,0,0,16,16,16,1,0,1,0,,,,,,,,,,,,,,,,,,,,,,,,,,,,,,,,,,,,,,,,,,,,,,,,,,,,,,,,,,,,,,,,30,,,,,,,,2133.50159349991,2133.50159349991,2133.50159349991,2133.50159349991,2133.50159349991,down,0.24221930000931025,4,0,0,99,0.48,0.07999999999999997,down,0.16555389994755387,,,,,,,,,,,,,,,,,,,,,,,,,,,,,,,,,,,,,,,,,,,,,,,,,,,,,,,,,,,,EFZ715,train_y,blue_star,top_right,2025-02-18_16h15.21.921,HideSeek_v1,2022.2.5,59.957538069292156,
,8,8,8,5,0,-3,64,,train_dim1_1,17,30,,,,2,0,2,0,,,,,,,,,0,0,0,0,0,16,16,16,2,0,2,0,,,,,,,,,,,,,,,,,,,,,,,,,,,,,,,,,,,,,,,,,,,,,,,,,,,,,,,,,,,,,,,,30,,,,,,,,2133.751185399946,2133.751185399946,2133.751185399946,2133.751185399946,2133.751185399946,down,0.2265945002436638,4,0,0,99,0.48,-2.7755575615628914e-17,down,0.14963260060176253,,,,,,,,,,,,,,,,,,,,,,,,,,,,,,,,,,,,,,,,,,,,,,,,,,,,,,,,,,,,EFZ715,train_y,blue_star,top_right,2025-02-18_16h15.21.921,HideSeek_v1,2022.2.5,59.957538069292156,
,8,8,8,5,0,-3,64,,train_dim1_1,17,30,,,,2,0,2,0,,,,,,,,,0,0,0,0,0,16,16,16,3,0,3,0,,,,,,,,,,,,,,,,,,,,,,,,,,,,,,,,,,,,,,,,,,,,,,,,,,,,,,,,,,,,,,,,30,,,,,,,,2133.988110399805,2133.988110399805,2133.988110399805,2133.988110399805,2133.988110399805,down,0.20747620007023215,4,0,0,99,0.48,-0.08000000000000003,down,0.12872050050646067,,,,,,,,,,,,,,,,,,,,,,,,,,,,,,,,,,,,,,,,,,,,,,,,,,,,,,,,,,,,EFZ715,train_y,blue_star,top_right,2025-02-18_16h15.21.921,HideSeek_v1,2022.2.5,59.957538069292156,
,8,8,8,5,0,-3,64,,train_dim1_1,17,30,,,,2,0,2,0,,,,,,,,,0,0,0,0,0,16,16,16,4,0,4,0,,,,,,,,,,,,,,,,,,,,,,,,,,,,,,,,,,,,,,,,,,,,,,,,,,,,,,,,,,,,,,,,30,,,,,,,,2134.201486799866,2134.201486799866,2134.201486799866,2134.201486799866,2134.201486799866,down,0.22676819982007146,4,0,0,99,0.48,-0.16000000000000003,down,0.14301580004394054,,,,,,,,,,,,,,,,,,,,,,,,,,,,,,,,,,,,,,,,,,,,,,,,,,,,,,,,,,,,EFZ715,train_y,blue_star,top_right,2025-02-18_16h15.21.921,HideSeek_v1,2022.2.5,59.957538069292156,
,8,8,8,5,0,-3,64,,train_dim1_1,17,30,,,,2,0,2,0,,,,,,,,,0,0,0,0,0,16,16,16,5,0,5,0,,,,,,,,,,,,,,,,,,,,,,,,,,,,,,,,,,,,,,,,,,,,,,,,,,,,,,,,,,,,,,,,30,,,,,,,,2134.43479999993,2134.43479999993,2134.43479999993,2134.43479999993,2134.43479999993,return,0.8104070997796953,4,0,0,0,0.48,-0.16000000000000003,return,0.7395454002544284,-53,-11,0.48,-0.16000000000000003,,,,,,,,,,,,,,,,,,,,,,,,,,,,,,,,,,,,,,,,,,,,,,,,,,,,,,,,EFZ715,train_y,blue_star,top_right,2025-02-18_16h15.21.921,HideSeek_v1,2022.2.5,59.957538069292156,
,7,6,7,6,0,0,61,,train_dim1_1,18,30,,,,2,0,2,0,,,,,,,,,0,0,0,0,0,17,17,17,0,0,0,0,,,,,,,,,,,,,,,,,,,,,,,,,stimuli/alien_stimuli/61.png,,,,,,,,,,,,,,,,,,,,,,,,,,,,,stimuli/alien_stimuli/64.png,64,8,19,,,,,,,30,,,,,,,,2140.6122709000483,2140.6122709000483,2140.6122709000483,2140.6122709000483,2140.6122709000483,return,2.840470800176263,5,0,0,1,0.4,0.08,return,2.7685973001644015,-53,-11,0.4,0.08,2139.0596658000723,2140.6122709000483,0.48,0,0.24,0.0,0.12,0.48,0.48,0.48,0,2136.7951305001043,2136.7951305001043,2136.7951305001043,2136.7951305001043,2136.7951305001043,2136.7951305001043,2136.7951305001043,2136.7951305001043,2136.791131439991,2.354144799988717,return,2.240532100200653,,,,,,,,,,,,,,,,,,,,,,,,,,,,,,,,,EFZ715,train_y,blue_star,top_right,2025-02-18_16h15.21.921,HideSeek_v1,2022.2.5,59.957538069292156,
,5,9,5,8,0,-1,62,,train_dim1_1,19,30,,,,2,0,2,0,,,,,,,,,0,0,0,0,0,18,18,18,0,0,0,0,,,,,,,,,,,,,,,,,,,,,,,,,stimuli/alien_stimuli/62.png,,,,,,,,,,,,,,,,,,,,,,,,,,,,,stimuli/alien_stimuli/61.png,61,7,20,,,,,,,30,,,,,,,,2147.669019800145,2147.669019800145,2147.669019800145,2147.669019800145,2147.669019800145,down,1.7221075999550521,5,0,0,99,0.24,0.24,down,1.641915800049901,,,,,2146.115683800075,2147.669019800145,0.4,0.08,0.0,0.0,0.08,0.4,0.4,0.4,0.08,2145.0070421001874,2145.0070421001874,2145.0070421001874,2145.0070421001874,2145.0070421001874,2145.0070421001874,2145.0070421001874,2145.0070421001874,2144.998249339778,1.2026994000189006,return,1.0774942003190517,,,,,,,,,,,,,,,,,,,,,,,,,,,,,,,,,EFZ715,train_y,blue_star,top_right,2025-02-18_16h15.21.921,HideSeek_v1,2022.2.5,59.957538069292156,
,5,9,5,8,0,-1,62,,train_dim1_1,19,30,,,,2,0,2,0,,,,,,,,,0,0,0,0,0,18,18,18,1,0,1,0,,,,,,,,,,,,,,,,,,,,,,,,,,,,,,,,,,,,,,,,,,,,,,,,,,,,,,,,,,,,,,,,30,,,,,,,,2149.397859300021,2149.397859300021,2149.397859300021,2149.397859300021,2149.397859300021,return,2.6449855002574623,6,0,0,1,0.24,0.24,return,2.5578368003480136,-54,-11,0.24,0.24,,,,,,,,,,,,,,,,,,,,,,,,,,,,,,,,,,,,,,,,,,,,,,,,,,,,,,,,EFZ715,train_y,blue_star,top_right,2025-02-18_16h15.21.921,HideSeek_v1,2022.2.5,59.957538069292156,
,7,5,7,0,0,-5,66,,train_dim1_1,20,30,,,,2,0,2,0,,,,,,,,,0,0,0,0,0,19,19,19,0,0,0,0,,,,,,,,,,,,,,,,,,,,,,,,,stimuli/alien_stimuli/66.png,,,,,,,,,,,,,,,,,,,,,,,,,,,,,stimuli/alien_stimuli/62.png,62,5,21,,,,,,,30,,,,,,,,2156.042410599999,2156.042410599999,2156.042410599999,2156.042410599999,2156.042410599999,down,1.321678299922496,6,0,0,99,0.4,-0.08,down,1.2391038001514971,,,,,2154.489313099999,2156.042410599999,0.24,0.24,0.08,0.0,0.28,0.24,0.24,0.24,0.24,2153.5986867998727,2153.5986867998727,2153.5986867998727,2153.5986867998727,2153.5986867998727,2153.5986867998727,2153.5986867998727,2153.5986867998727,2153.588623839803,0.9862027000635862,return,0.8664115001447499,,,,,,,,,,,,,,,,,,,,,,,,,,,,,,,,,EFZ715,train_y,blue_star,top_right,2025-02-18_16h15.21.921,HideSeek_v1,2022.2.5,59.957538069292156,
,7,5,7,0,0,-5,66,,train_dim1_1,20,30,,,,2,0,2,0,,,,,,,,,0,0,0,0,0,19,19,19,1,0,1,0,,,,,,,,,,,,,,,,,,,,,,,,,,,,,,,,,,,,,,,,,,,,,,,,,,,,,,,,,,,,,,,,30,,,,,,,,2157.372279800009,2157.372279800009,2157.372279800009,2157.372279800009,2157.372279800009,down,0.7924974001944065,6,0,0,99,0.4,-0.16,down,0.719323500059545,,,,,,,,,,,,,,,,,,,,,,,,,,,,,,,,,,,,,,,,,,,,,,,,,,,,,,,,,,,,EFZ715,train_y,blue_star,top_right,2025-02-18_16h15.21.921,HideSeek_v1,2022.2.5,59.957538069292156,
,7,5,7,0,0,-5,66,,train_dim1_1,20,30,,,,2,0,2,0,,,,,,,,,0,0,0,0,0,19,19,19,2,0,2,0,,,,,,,,,,,,,,,,,,,,,,,,,,,,,,,,,,,,,,,,,,,,,,,,,,,,,,,,,,,,,,,,30,,,,,,,,2158.1716034999117,2158.1716034999117,2158.1716034999117,2158.1716034999117,2158.1716034999117,down,0.4270567996427417,6,0,0,99,0.4,-0.24,down,0.3516549002379179,,,,,,,,,,,,,,,,,,,,,,,,,,,,,,,,,,,,,,,,,,,,,,,,,,,,,,,,,,,,EFZ715,train_y,blue_star,top_right,2025-02-18_16h15.21.921,HideSeek_v1,2022.2.5,59.957538069292156,
,7,5,7,0,0,-5,66,,train_dim1_1,20,30,,,,2,0,2,0,,,,,,,,,0,0,0,0,0,19,19,19,3,0,3,0,,,,,,,,,,,,,,,,,,,,,,,,,,,,,,,,,,,,,,,,,,,,,,,,,,,,,,,,,,,,,,,,30,,,,,,,,2158.607915500179,2158.607915500179,2158.607915500179,2158.607915500179,2158.607915500179,return,1.0258084000088274,6,0,0,0,0.4,-0.24,return,0.9383356003090739,-57,-11,0.4,-0.24,,,,,,,,,,,,,,,,,,,,,,,,,,,,,,,,,,,,,,,,,,,,,,,,,,,,,,,,EFZ715,train_y,blue_star,top_right,2025-02-18_16h15.21.921,HideSeek_v1,2022.2.5,59.957538069292156,
,7,9,7,5,0,-4,65,,train_dim1_1,21,30,,,,2,0,2,0,,,,,,,,,0,0,0,0,0,20,20,20,0,0,0,0,,,,,,,,,,,,,,,,,,,,,,,,,stimuli/alien_stimuli/65.png,,,,,,,,,,,,,,,,,,,,,,,,,,,,,stimuli/alien_stimuli/66.png,66,7,22,,,,,,,30,,,,,,,,2164.6494053001516,2164.6494053001516,2164.6494053001516,2164.6494053001516,2164.6494053001516,down,1.3885622001253068,6,0,0,99,0.4,0.24,down,1.3117246003821492,,,,,2163.096104399767,2164.6494053001516,0.4,-0.4,0.4,0.0,-0.2,0.4,0.4,0.4,-0.4,2161.185581000056,2161.185581000056,2161.185581000056,2161.185581000056,2161.185581000056,2161.185581000056,2161.185581000056,2161.185581000056,2161.1781081398017,2.0040684998966753,return,1.892487300094217,,,,,,,,,,,,,,,,,,,,,,,,,,,,,,,,,EFZ715,train_y,blue_star,top_right,2025-02-18_16h15.21.921,HideSeek_v1,2022.2.5,59.957538069292156,
,7,9,7,5,0,-4,65,,train_dim1_1,21,30,,,,2,0,2,0,,,,,,,,,0,0,0,0,0,20,20,20,1,0,1,0,,,,,,,,,,,,,,,,,,,,,,,,,,,,,,,,,,,,,,,,,,,,,,,,,,,,,,,,,,,,,,,,30,,,,,,,,2166.046976500191,2166.046976500191,2166.046976500191,2166.046976500191,2166.046976500191,down,0.5081474999897182,6,0,0,99,0.4,0.15999999999999998,down,0.42255540005862713,,,,,,,,,,,,,,,,,,,,,,,,,,,,,,,,,,,,,,,,,,,,,,,,,,,,,,,,,,,,EFZ715,train_y,blue_star,top_right,2025-02-18_16h15.21.921,HideSeek_v1,2022.2.5,59.957538069292156,
,7,9,7,5,0,-4,65,,train_dim1_1,21,30,,,,2,0,2,0,,,,,,,,,0,0,0,0,0,20,20,20,2,0,2,0,,,,,,,,,,,,,,,,,,,,,,,,,,,,,,,,,,,,,,,,,,,,,,,,,,,,,,,,,,,,,,,,30,,,,,,,,2166.561492399778,2166.561492399778,2166.561492399778,2166.561492399778,2166.561492399778,down,0.2934762998484075,6,0,0,99,0.4,0.07999999999999997,down,0.21988809993490577,,,,,,,,,,,,,,,,,,,,,,,,,,,,,,,,,,,,,,,,,,,,,,,,,,,,,,,,,,,,EFZ715,train_y,blue_star,top_right,2025-02-18_16h15.21.921,HideSeek_v1,2022.2.5,59.957538069292156,
,7,9,7,5,0,-4,65,,train_dim1_1,21,30,,,,2,0,2,0,,,,,,,,,0,0,0,0,0,20,20,20,3,0,3,0,,,,,,,,,,,,,,,,,,,,,,,,,,,,,,,,,,,,,,,,,,,,,,,,,,,,,,,,,,,,,,,,30,,,,,,,,2166.8637390001677,2166.8637390001677,2166.8637390001677,2166.8637390001677,2166.8637390001677,down,0.2756799003109336,6,0,0,99,0.4,-2.7755575615628914e-17,down,0.19620409980416298,,,,,,,,,,,,,,,,,,,,,,,,,,,,,,,,,,,,,,,,,,,,,,,,,,,,,,,,,,,,EFZ715,train_y,blue_star,top_right,2025-02-18_16h15.21.921,HideSeek_v1,2022.2.5,59.957538069292156,
,7,9,7,5,0,-4,65,,train_dim1_1,21,30,,,,2,0,2,0,,,,,,,,,0,0,0,0,0,20,20,20,4,0,4,0,,,,,,,,,,,,,,,,,,,,,,,,,,,,,,,,,,,,,,,,,,,,,,,,,,,,,,,,,,,,,,,,30,,,,,,,,2167.145266099833,2167.145266099833,2167.145266099833,2167.145266099833,2167.145266099833,down,0.47680839989334345,6,0,0,99,0.4,-0.08000000000000003,down,0.3945974004454911,,,,,,,,,,,,,,,,,,,,,,,,,,,,,,,,,,,,,,,,,,,,,,,,,,,,,,,,,,,,EFZ715,train_y,blue_star,top_right,2025-02-18_16h15.21.921,HideSeek_v1,2022.2.5,59.957538069292156,
,7,9,7,5,0,-4,65,,train_dim1_1,21,30,,,,2,0,2,0,,,,,,,,,0,0,0,0,0,20,20,20,5,0,5,0,,,,,,,,,,,,,,,,,,,,,,,,,,,,,,,,,,,,,,,,,,,,,,,,,,,,,,,,,,,,,,,,30,,,,,,,,2167.6296247998253,2167.6296247998253,2167.6296247998253,2167.6296247998253,2167.6296247998253,down,0.35950389970093966,6,0,0,99,0.4,-0.16000000000000003,down,0.2780311005190015,,,,,,,,,,,,,,,,,,,,,,,,,,,,,,,,,,,,,,,,,,,,,,,,,,,,,,,,,,,,EFZ715,train_y,blue_star,top_right,2025-02-18_16h15.21.921,HideSeek_v1,2022.2.5,59.957538069292156,
,7,9,7,5,0,-4,65,,train_dim1_1,21,30,,,,2,0,2,0,,,,,,,,,0,0,0,0,0,20,20,20,6,0,6,0,,,,,,,,,,,,,,,,,,,,,,,,,,,,,,,,,,,,,,,,,,,,,,,,,,,,,,,,,,,,,,,,30,,,,,,,,2167.997047400102,2167.997047400102,2167.997047400102,2167.997047400102,2167.997047400102,return,0.6098269997164607,6,0,0,0,0.4,-0.16000000000000003,return,0.5217691999860108,-63,-11,0.4,-0.16000000000000003,,,,,,,,,,,,,,,,,,,,,,,,,,,,,,,,,,,,,,,,,,,,,,,,,,,,,,,,EFZ715,train_y,blue_star,top_right,2025-02-18_16h15.21.921,HideSeek_v1,2022.2.5,59.957538069292156,
,5,7,5,4,0,-3,64,,train_dim1_1,22,30,,,,2,0,2,0,,,,,,,,,0,0,0,0,0,21,21,21,0,0,0,0,,,,,,,,,,,,,,,,,,,,,,,,,stimuli/alien_stimuli/64.png,,,,,,,,,,,,,,,,,,,,,,,,,,,,,stimuli/alien_stimuli/65.png,65,7,23,,,,,,,30,,,,,,,,2173.225000000093,2173.225000000093,2173.225000000093,2173.225000000093,2173.225000000093,down,1.9871721998788416,6,0,0,99,0.24,0.08,down,1.9082908001728356,,,,,2171.670044399798,2173.225000000093,0.4,0,0.32,0.0,0.16,0.4,0.4,0.4,0,2170.156840799842,2170.156840799842,2170.156840799842,2170.156840799842,2170.156840799842,2170.156840799842,2170.156840799842,2170.156840799842,2170.152174639888,1.6037008999846876,return,1.4874968002550304,,,,,,,,,,,,,,,,,,,,,,,,,,,,,,,,,EFZ715,train_y,blue_star,top_right,2025-02-18_16h15.21.921,HideSeek_v1,2022.2.5,59.957538069292156,
,5,7,5,4,0,-3,64,,train_dim1_1,22,30,,,,2,0,2,0,,,,,,,,,0,0,0,0,0,21,21,21,1,0,1,0,,,,,,,,,,,,,,,,,,,,,,,,,,,,,,,,,,,,,,,,,,,,,,,,,,,,,,,,,,,,,,,,30,,,,,,,,2175.219803499989,2175.219803499989,2175.219803499989,2175.219803499989,2175.219803499989,down,0.22572699980810285,6,0,0,99,0.24,0.0,down,0.14170309994369745,,,,,,,,,,,,,,,,,,,,,,,,,,,,,,,,,,,,,,,,,,,,,,,,,,,,,,,,,,,,EFZ715,train_y,blue_star,top_right,2025-02-18_16h15.21.921,HideSeek_v1,2022.2.5,59.957538069292156,
,5,7,5,4,0,-3,64,,train_dim1_1,22,30,,,,2,0,2,0,,,,,,,,,0,0,0,0,0,21,21,21,2,0,2,0,,,,,,,,,,,,,,,,,,,,,,,,,,,,,,,,,,,,,,,,,,,,,,,,,,,,,,,,,,,,,,,,30,,,,,,,,2175.4518885998987,2175.4518885998987,2175.4518885998987,2175.4518885998987,2175.4518885998987,down,0.25983040034770966,6,0,0,99,0.24,-0.08,down,0.1791091002523899,,,,,,,,,,,,,,,,,,,,,,,,,,,,,,,,,,,,,,,,,,,,,,,,,,,,,,,,,,,,EFZ715,train_y,blue_star,top_right,2025-02-18_16h15.21.921,HideSeek_v1,2022.2.5,59.957538069292156,
,5,7,5,4,0,-3,64,,train_dim1_1,22,30,,,,2,0,2,0,,,,,,,,,0,0,0,0,0,21,21,21,3,0,3,0,,,,,,,,,,,,,,,,,,,,,,,,,,,,,,,,,,,,,,,,,,,,,,,,,,,,,,,,,,,,,,,,30,,,,,,,,2175.7181640001945,2175.7181640001945,2175.7181640001945,2175.7181640001945,2175.7181640001945,down,0.7771312999539077,6,0,0,99,0.24,-0.16,down,0.6996939000673592,,,,,,,,,,,,,,,,,,,,,,,,,,,,,,,,,,,,,,,,,,,,,,,,,,,,,,,,,,,,EFZ715,train_y,blue_star,top_right,2025-02-18_16h15.21.921,HideSeek_v1,2022.2.5,59.957538069292156,
,5,7,5,4,0,-3,64,,train_dim1_1,22,30,,,,2,0,2,0,,,,,,,,,0,0,0,0,0,21,21,21,4,0,4,0,,,,,,,,,,,,,,,,,,,,,,,,,,,,,,,,,,,,,,,,,,,,,,,,,,,,,,,,,,,,,,,,30,,,,,,,,2176.5030633998103,2176.5030633998103,2176.5030633998103,2176.5030633998103,2176.5030633998103,return,3.24600169993937,6,1,0,0,0.24,-0.16,return,3.1715457001700997,-67,-11,0.24,-0.16,,,,,,,,,,,,,,,,,,,,,,,,,,,,,,,,,,,,,,,,,,,,,,,,,,,,,,,,EFZ715,train_y,blue_star,top_right,2025-02-18_16h15.21.921,HideSeek_v1,2022.2.5,59.957538069292156,
,5,8,5,8,0,0,61,,train_dim1_1,23,30,,,,2,0,2,0,,,,,,,,,0,0,0,0,0,22,22,22,0,0,0,0,,,,,,,,,,,,,,,,,,,,,,,,,stimuli/alien_stimuli/61.png,,,,,,,,,,,,,,,,,,,,,,,,,,,,,stimuli/alien_stimuli/64.png,64,5,24,,,,,,,30,,,,,,,,2185.6151892999187,2185.6151892999187,2185.6151892999187,2185.6151892999187,2185.6151892999187,return,1.741425700020045,7,0,0,1,0.24,0.24,return,1.6581816002726555,-67,-11,0.24,0.24,2184.0636793999,2185.6151892999187,0.24,-0.08,0.24,0.0,0.04,0.24,0.24,0.24,-0.08,2181.315912100021,2181.315912100021,2181.315912100021,2181.315912100021,2181.315912100021,2181.315912100021,2181.315912100021,2181.315912100021,2181.311630579922,2.8543171999044716,return,2.723489200230688,,,,,,,,,,,,,,,,,,,,,,,,,,,,,,,,,EFZ715,train_y,blue_star,top_right,2025-02-18_16h15.21.921,HideSeek_v1,2022.2.5,59.957538069292156,
,8,7,8,2,0,-5,66,,train_dim1_1,24,30,,,,2,0,2,0,,,,,,,,,0,0,0,0,0,23,23,23,0,0,0,0,,,,,,,,,,,,,,,,,,,,,,,,,stimuli/alien_stimuli/66.png,,,,,,,,,,,,,,,,,,,,,,,,,,,,,stimuli/alien_stimuli/61.png,61,5,25,,,,,,,30,,,,,,,,2191.7220684997737,2191.7220684997737,2191.7220684997737,2191.7220684997737,2191.7220684997737,down,1.371333499904722,7,0,0,99,0.48,0.08,down,1.2887407001107931,,,,,2190.1689003999345,2191.7220684997737,0.24,0.24,0.0,0.0,0.24,0.24,0.24,0.24,0.24,2188.907717899885,2188.907717899885,2188.907717899885,2188.907717899885,2188.907717899885,2188.907717899885,2188.907717899885,2188.907717899885,2188.9011774397454,1.3532461002469063,return,1.2299095005728304,,,,,,,,,,,,,,,,,,,,,,,,,,,,,,,,,EFZ715,train_y,blue_star,top_right,2025-02-18_16h15.21.921,HideSeek_v1,2022.2.5,59.957538069292156,
,8,7,8,2,0,-5,66,,train_dim1_1,24,30,,,,2,0,2,0,,,,,,,,,0,0,0,0,0,23,23,23,1,0,1,0,,,,,,,,,,,,,,,,,,,,,,,,,,,,,,,,,,,,,,,,,,,,,,,,,,,,,,,,,,,,,,,,30,,,,,,,,2193.1015908997506,2193.1015908997506,2193.1015908997506,2193.1015908997506,2193.1015908997506,down,0.22592079965397716,7,0,0,99,0.48,0.0,down,0.14859910029917955,,,,,,,,,,,,,,,,,,,,,,,,,,,,,,,,,,,,,,,,,,,,,,,,,,,,,,,,,,,,EFZ715,train_y,blue_star,top_right,2025-02-18_16h15.21.921,HideSeek_v1,2022.2.5,59.957538069292156,
,8,7,8,2,0,-5,66,,train_dim1_1,24,30,,,,2,0,2,0,,,,,,,,,0,0,0,0,0,23,23,23,2,0,2,0,,,,,,,,,,,,,,,,,,,,,,,,,,,,,,,,,,,,,,,,,,,,,,,,,,,,,,,,,,,,,,,,30,,,,,,,,2193.336618000176,2193.336618000176,2193.336618000176,2193.336618000176,2193.336618000176,down,0.24286480015143752,7,0,0,99,0.48,-0.08,down,0.15736080054193735,,,,,,,,,,,,,,,,,,,,,,,,,,,,,,,,,,,,,,,,,,,,,,,,,,,,,,,,,,,,EFZ715,train_y,blue_star,top_right,2025-02-18_16h15.21.921,HideSeek_v1,2022.2.5,59.957538069292156,
,8,7,8,2,0,-5,66,,train_dim1_1,24,30,,,,2,0,2,0,,,,,,,,,0,0,0,0,0,23,23,23,3,0,3,0,,,,,,,,,,,,,,,,,,,,,,,,,,,,,,,,,,,,,,,,,,,,,,,,,,,,,,,,,,,,,,,,30,,,,,,,,2193.584548899904,2193.584548899904,2193.584548899904,2193.584548899904,2193.584548899904,down,0.2273959000594914,7,0,0,99,0.48,-0.16,down,0.15250390022993088,,,,,,,,,,,,,,,,,,,,,,,,,,,,,,,,,,,,,,,,,,,,,,,,,,,,,,,,,,,,EFZ715,train_y,blue_star,top_right,2025-02-18_16h15.21.921,HideSeek_v1,2022.2.5,59.957538069292156,
,8,7,8,2,0,-5,66,,train_dim1_1,24,30,,,,2,0,2,0,,,,,,,,,0,0,0,0,0,23,23,23,4,0,4,0,,,,,,,,,,,,,,,,,,,,,,,,,,,,,,,,,,,,,,,,,,,,,,,,,,,,,,,,,,,,,,,,30,,,,,,,,2193.8178306999616,2193.8178306999616,2193.8178306999616,2193.8178306999616,2193.8178306999616,down,0.3600964001379907,7,0,0,99,0.48,-0.24,down,0.2838046997785568,,,,,,,,,,,,,,,,,,,,,,,,,,,,,,,,,,,,,,,,,,,,,,,,,,,,,,,,,,,,EFZ715,train_y,blue_star,top_right,2025-02-18_16h15.21.921,HideSeek_v1,2022.2.5,59.957538069292156,
,8,7,8,2,0,-5,66,,train_dim1_1,24,30,,,,2,0,2,0,,,,,,,,,0,0,0,0,0,23,23,23,5,0,5,0,,,,,,,,,,,,,,,,,,,,,,,,,,,,,,,,,,,,,,,,,,,,,,,,,,,,,,,,,,,,,,,,30,,,,,,,,2194.185647400096,2194.185647400096,2194.185647400096,2194.185647400096,2194.185647400096,return,0.9106804998591542,8,0,0,1,0.48,-0.24,return,0.8325885999947786,-72,-11,0.48,-0.24,,,,,,,,,,,,,,,,,,,,,,,,,,,,,,,,,,,,,,,,,,,,,,,,,,,,,,,,EFZ715,train_y,blue_star,top_right,2025-02-18_16h15.21.921,HideSeek_v1,2022.2.5,59.957538069292156,
,8,8,8,7,0,-1,62,,train_dim1_1,25,30,,,,2,0,2,0,,,,,,,,,0,0,0,0,0,24,24,24,0,0,0,0,,,,,,,,,,,,,,,,,,,,,,,,,stimuli/alien_stimuli/62.png,,,,,,,,,,,,,,,,,,,,,,,,,,,,,stimuli/alien_stimuli/66.png,66,8,26,,,,,,,30,,,,,,,,2199.328057699837,2199.328057699837,2199.328057699837,2199.328057699837,2199.328057699837,down,1.6886506001465023,8,0,0,99,0.48,0.15999999999999998,down,1.6057324004359543,,,,,2197.774938600138,2199.328057699837,0.48,-0.24,0.4,0.0,-0.039999999999999994,0.48,0.48,0.48,-0.24,2196.65078110015,2196.65078110015,2196.65078110015,2196.65078110015,2196.65078110015,2196.65078110015,2196.65078110015,2196.65078110015,2196.640883139707,1.2195203001610935,return,1.0949002006091177,,,,,,,,,,,,,,,,,,,,,,,,,,,,,,,,,EFZ715,train_y,blue_star,top_right,2025-02-18_16h15.21.921,HideSeek_v1,2022.2.5,59.957538069292156,
